onset	duration	sample	value	key	prompt_text
0.0425	0.1195	85	keystroke_d	d	n/a
0.147	0.0905	294	keystroke_a	a	n/a
0.2525	0.1055	505	keystroke_t	t	n/a
0.3575	0.09	715	keystroke_a	a	n/a
0.508	0.1645	1016	keystroke_s	s	n/a
0.5975	0.12	1195	keystroke_e	e	n/a
0.643	0.1495	1286	keystroke_t	t	n/a
0.762	0.0905	1524	keystroke_Key.space	Key.space	n/a
0.958	0.1195	1916	keystroke_r	r	n/a
1.017	0.075	2034	keystroke_e	e	n/a
1.243	0.0595	2486	keystroke_c	c	n/a
1.3625	0.075	2725	keystroke_o	o	n/a
1.3925	0.105	2785	keystroke_r	r	n/a
1.483	0.0895	2966	keystroke_d	d	n/a
1.693	0.0745	3386	keystroke_e	e	n/a
1.888	0.1045	3776	keystroke_d	d	n/a
2.008	0.09	4016	keystroke_Key.space	Key.space	n/a
2.083	0.225	4166	keystroke_Key.shift	Key.shift	n/a
2.1445	0.103	4289	keystroke_(	(	n/a
2.4575	0.1045	4915	keystroke_o	o	n/a
2.577	0.0755	5154	keystroke_f	f	n/a
2.743	0.074	5486	keystroke_f	f	n/a
2.9375	0.1055	5875	keystroke_-	-	n/a
3.2675	0.075	6535	keystroke_k	k	n/a
3.3575	0.06	6715	keystroke_e	e	n/a
3.4775	0.0745	6955	keystroke_y	y	n/a
3.5675	0.0455	7135	keystroke_b	b	n/a
3.7175	0.075	7435	keystroke_o	o	n/a
3.7775	0.1055	7555	keystroke_a	a	n/a
3.808	0.1495	7616	keystroke_r	r	n/a
3.868	0.1195	7736	keystroke_d	d	n/a
4.0905	0.1795	8181	keystroke_Key.shift	Key.shift	n/a
4.1355	0.105	8271	keystroke_)	)	n/a
4.569	0.15	9138	keystroke_Key.space	Key.space	n/a
5.3495	0.105	10699	keystroke_a	a	n/a
5.4695	0.06	10939	keystroke_n	n	n/a
5.574	0.1055	11148	keystroke_d	d	n/a
5.634	0.1055	11268	keystroke_Key.space	Key.space	n/a
5.8595	0.135	11719	keystroke_u	u	n/a
5.9345	0.12	11869	keystroke_p	p	n/a
6.0095	0.1195	12019	keystroke_d	d	n/a
6.0845	0.15	12169	keystroke_a	a	n/a
6.414	0.0605	12828	keystroke_Key.backspace	Key.backspace	n/a
6.5795	0.06	13159	keystroke_Key.backspace	Key.backspace	n/a
6.7745	0.0895	13549	keystroke_l	l	n/a
6.9545	0.0745	13909	keystroke_o	o	n/a
7.044	0.1055	14088	keystroke_a	a	n/a
7.224	0.1195	14448	keystroke_d	d	n/a
7.479	0.0455	14958	keystroke_e	e	n/a
7.6455	0.089	15291	keystroke_d	d	n/a
7.7495	0.105	15499	keystroke_Key.space	Key.space	n/a
7.914	0.0605	15828	keystroke_t	t	n/a
7.9895	0.0595	15979	keystroke_o	o	n/a
8.079	0.0905	16158	keystroke_Key.space	Key.space	n/a
8.3045	0.0595	16609	keystroke_t	t	n/a
8.409	0.075	16818	keystroke_h	h	n/a
8.454	0.105	16908	keystroke_e	e	n/a
8.5435	0.0905	17087	keystroke_Key.space	Key.space	n/a
8.709	0.09	17418	keystroke_d	d	n/a
8.784	0.105	17568	keystroke_a	a	n/a
9.1585	0.1055	18317	keystroke_t	t	n/a
9.309	0.1045	18618	keystroke_a	a	n/a
9.444	0.165	18888	keystroke_s	s	n/a
9.549	0.1205	19098	keystroke_e	e	n/a
9.624	0.1195	19248	keystroke_t	t	n/a
9.864	0.09	19728	keystroke_,	,	n/a
9.9095	0.09	19819	keystroke_Key.space	Key.space	n/a
10.044	0.09	20088	keystroke_b	b	n/a
10.1645	0.105	20329	keystroke_u	u	n/a
10.2545	0.135	20509	keystroke_t	t	n/a
10.344	0.135	20688	keystroke_Key.space	Key.space	n/a
10.644	0.0905	21288	keystroke_i	i	n/a
10.719	0.091	21438	keystroke_t	t	n/a
10.914	0.1055	21828	keystroke_Key.space	Key.space	n/a
11.0645	0.075	22129	keystroke_d	d	n/a
11.1695	0.0895	22339	keystroke_i	i	n/a
11.2745	0.15	22549	keystroke_d	d	n/a
11.4545	0.15	22909	keystroke_Key.space	Key.space	n/a
11.6195	0.135	23239	keystroke_n	n	n/a
11.6945	0.105	23389	keystroke_o	o	n/a
11.7695	0.0895	23539	keystroke_t	t	n/a
11.844	0.105	23688	keystroke_Key.space	Key.space	n/a
11.9795	0.105	23959	keystroke_s	s	n/a
12.114	0.0905	24228	keystroke_h	h	n/a
12.1895	0.09	24379	keystroke_o	o	n/a
12.28	0.1195	24560	keystroke_w	w	n/a
12.3695	0.1045	24739	keystroke_Key.space	Key.space	n/a
12.5495	0.0595	25099	keystroke_t	t	n/a
12.594	0.06	25188	keystroke_h	h	n/a
12.8045	0.12	25609	keystroke_e	e	n/a
13.0745	0.105	26149	keystroke_Key.space	Key.space	n/a
13.5845	0.12	27169	keystroke_n	n	n/a
13.6595	0.1195	27319	keystroke_o	o	n/a
13.719	0.1205	27438	keystroke_t	t	n/a
13.779	0.09	27558	keystroke_e	e	n/a
14.1995	0.1495	28399	keystroke_/	/	n/a
14.7545	0.09	29509	keystroke_t	t	n/a
14.844	0.1055	29688	keystroke_a	a	n/a
15.024	0.15	30048	keystroke_g	g	n/a
15.2195	0.12	30439	keystroke_s	s	n/a
15.8945	0.1195	31789	keystroke_Key.enter	Key.enter	n/a
16.2845	0.3	32569	keystroke_Key.cmd	Key.cmd	n/a
16.4345	0.1195	32869	keystroke_v	v	n/a
16.8695	0.12	33739	keystroke_Key.enter	Key.enter	n/a
18.0695	0.0595	36139	keystroke_j	j	n/a
18.2495	0.105	36499	keystroke_u	u	n/a
18.2945	0.135	36589	keystroke_s	s	n/a
18.354	0.1805	36708	keystroke_t	t	n/a
18.459	0.1355	36918	keystroke_Key.space	Key.space	n/a
18.744	0.1055	37488	keystroke_f	f	n/a
18.999	0.1505	37998	keystroke_y	y	n/a
19.2995	0.0745	38599	keystroke_i	i	n/a
19.554	0.06	39108	keystroke_Key.enter	Key.enter	n/a
20.6195	0.435	41239	keystroke_Key.cmd	Key.cmd	n/a
20.9495	0.12	41899	keystroke_w	w	n/a
23.1245	0.1045	46249	keystroke_Key.tab	Key.tab	n/a
24.0395	0.1195	48079	keystroke_Key.alt	Key.alt	n/a
24.3545	0.2395	48709	keystroke_Key.cmd	Key.cmd	n/a
24.5045	0.1045	49009	keystroke_q	q	n/a
37.7195	0.1195	75439	keystroke_m	m	n/a
37.8255	0.1035	75651	keystroke_i	i	n/a
37.944	0.0905	75888	keystroke_n	n	n/a
38.184	0.075	76368	keystroke_g	g	n/a
38.4695	0.09	76939	keystroke_r	r	n/a
38.5745	0.105	77149	keystroke_u	u	n/a
38.6345	0.105	77269	keystroke_i	i	n/a
40.2245	0.1045	80449	keystroke_Key.tab	Key.tab	n/a
40.614	0.1205	81228	keystroke_Key.down	Key.down	n/a
41.0945	0.1345	82189	keystroke_Key.down	Key.down	n/a
41.5145	0.105	83029	keystroke_Key.down	Key.down	n/a
41.784	0.0905	83568	keystroke_Key.enter	Key.enter	n/a
42.2795	0.1495	84559	keystroke_Key.tab	Key.tab	n/a
43.2395	0.4045	86479	keystroke_Key.ctrl	Key.ctrl	n/a
43.4195	0.2245	86839	keystroke_Key.shift	Key.shift	n/a
43.509	0.1205	87018	keystroke_Key.tab	Key.tab	n/a
46.5545	0.18	93109	keystroke_Key.cmd	Key.cmd	n/a
46.614	0.1055	93228	keystroke_c	c	n/a
46.9745	0.1195	93949	keystroke_Key.ctrl	Key.ctrl	n/a
47.0045	0.105	94009	keystroke_Key.tab	Key.tab	n/a
47.3645	0.2695	94729	keystroke_Key.cmd	Key.cmd	n/a
47.544	0.1055	95088	keystroke_v	v	n/a
48.789	0.4505	97578	keystroke_Key.cmd	Key.cmd	n/a
69.849	0.09	139698	keystroke_t	t	n/a
70.449	0.105	140898	keystroke_g	g	n/a
70.614	0.12	141228	keystroke_Key.space	Key.space	n/a
71.094	0.09	142188	keystroke_d	d	n/a
71.304	0.045	142608	keystroke_e	e	n/a
71.709	0.105	143418	keystroke_a	a	n/a
71.904	0.12	143808	keystroke_l	l	n/a
72.219	0.105	144438	keystroke_e	e	n/a
72.294	0.12	144588	keystroke_r	r	n/a
72.429	0.075	144858	keystroke_Key.space	Key.space	n/a
73.284	0.1805	146568	keystroke_Key.ctrl	Key.ctrl	n/a
73.389	0.1355	146778	keystroke_Key.space	Key.space	n/a
73.779	0.105	147558	keystroke_q	q	n/a
73.914	0.105	147828	keystroke_i	i	n/a
74.0945	0.0895	148189	keystroke_c	c	n/a
74.199	0.0755	148398	keystroke_h	h	n/a
74.3045	0.09	148609	keystroke_e	e	n/a
74.4245	0.12	148849	keystroke_Key.space	Key.space	n/a
74.679	0.0755	149358	keystroke_Key.space	Key.space	n/a
74.859	0.0755	149718	keystroke_b	b	n/a
74.9495	0.0905	149899	keystroke_u	u	n/a
75.1745	0.03	150349	keystroke_h	h	n/a
75.309	0.09	150618	keystroke_u	u	n/a
75.4145	0.06	150829	keystroke_a	a	n/a
75.5045	0.045	151009	keystroke_n	n	n/a
75.6545	0.12	151309	keystroke_j	j	n/a
75.714	0.0905	151428	keystroke_i	i	n/a
75.7895	0.076	151579	keystroke_a	a	n/a
76.0745	0.09	152149	keystroke_Key.space	Key.space	n/a
76.4045	0.0935	152809	keystroke_Key.enter	Key.enter	n/a
79.329	0.48	158658	keystroke_Key.cmd	Key.cmd	n/a
92.4545	0.0745	184909	keystroke_Key.backspace	Key.backspace	n/a
92.6945	0.12	185389	keystroke_e	e	n/a
92.7545	0.0895	185509	keystroke_r	r	n/a
92.9495	0.1045	185899	keystroke_s	s	n/a
93.084	0.0605	186168	keystroke_h	h	n/a
93.175	0.1195	186350	keystroke_o	o	n/a
93.2495	0.075	186499	keystroke_u	u	n/a
93.3545	0.122	186709	keystroke_Key.space	Key.space	n/a
93.5795	0.075	187159	keystroke_Key.enter	Key.enter	n/a
94.464	0.15	188928	keystroke_Key.ctrl	Key.ctrl	n/a
94.509	0.09	189018	keystroke_Key.tab	Key.tab	n/a
94.959	0.1055	189918	keystroke_w	w	n/a
97.284	0.45	194568	keystroke_Key.cmd	Key.cmd	n/a
97.584	0.12	195168	keystroke_w	w	n/a
98.7545	0.0745	197509	keystroke_w	w	n/a
99.699	0.1205	199398	keystroke_w	w	n/a
118.2695	0.09	236539	keystroke_Key.tab	Key.tab	n/a
118.479	0.06	236958	keystroke_Key.tab	Key.tab	n/a
118.629	0.097	237258	keystroke_Key.tab	Key.tab	n/a
119.1395	0.21	238279	keystroke_Key.cmd	Key.cmd	n/a
119.2465	0.118	238493	keystroke_w	w	n/a
119.559	0.152	239118	keystroke_Key.ctrl	Key.ctrl	n/a
119.619	0.077	239238	keystroke_Key.tab	Key.tab	n/a
120.5945	0.189	241189	keystroke_Key.ctrl	Key.ctrl	n/a
120.6545	0.1045	241309	keystroke_Key.tab	Key.tab	n/a
126.79	0.089	253580	keystroke_w	w	n/a
130.855	0.0745	261710	keystroke_w	w	n/a
143.965	0.3445	287930	keystroke_Key.cmd	Key.cmd	n/a
144.114	0.1205	288228	keystroke_w	w	n/a
150.01	0.104	300020	keystroke_Key.tab	Key.tab	n/a
151.1045	0.0755	302209	keystroke_Key.tab	Key.tab	n/a
153.473	16.173	306946	prompt	n/a	the quick brown fox jumps over a lazy dog\n
155.0795	0.061	310159	keystroke_t	t	n/a
155.1095	0.0595	310219	keystroke_h	h	n/a
155.214	0.1205	310428	keystroke_e	e	n/a
155.3045	0.105	310609	keystroke_Key.space	Key.space	n/a
155.4545	0.09	310909	keystroke_q	q	n/a
155.561	0.1185	311122	keystroke_u	u	n/a
155.6345	0.092	311269	keystroke_i	i	n/a
156.01	0.059	312020	keystroke_Key.backspace	Key.backspace	n/a
156.16	0.0745	312320	keystroke_Key.backspace	Key.backspace	n/a
156.3395	0.0445	312679	keystroke_Key.backspace	Key.backspace	n/a
156.5045	0.045	313009	keystroke_Key.backspace	Key.backspace	n/a
156.6695	0.0605	313339	keystroke_Key.backspace	Key.backspace	n/a
156.85	0.08	313700	keystroke_Key.backspace	Key.backspace	n/a
157.0445	0.1355	314089	keystroke_Key.ctrl	Key.ctrl	n/a
157.1195	0.1045	314239	keystroke_Key.space	Key.space	n/a
157.7195	0.06	315439	keystroke_t	t	n/a
157.854	0.0615	315708	keystroke_h	h	n/a
157.884	0.1055	315768	keystroke_e	e	n/a
157.9595	0.105	315919	keystroke_Key.space	Key.space	n/a
158.1095	0.0895	316219	keystroke_q	q	n/a
158.229	0.1205	316458	keystroke_u	u	n/a
158.3045	0.09	316609	keystroke_i	i	n/a
158.3645	0.075	316729	keystroke_c	c	n/a
158.515	0.0895	317030	keystroke_k	k	n/a
158.605	0.119	317210	keystroke_Key.space	Key.space	n/a
159.0545	0.0895	318109	keystroke_b	b	n/a
159.2945	0.0745	318589	keystroke_r	r	n/a
159.384	0.091	318768	keystroke_o	o	n/a
159.7445	0.03	319489	keystroke_`	`	n/a
160.0595	0.105	320119	keystroke_Key.esc	Key.esc	n/a
160.2705	0.089	320541	keystroke_Key.esc	Key.esc	n/a
160.436	0.0735	320872	keystroke_Key.esc	Key.esc	n/a
162.2945	0.075	324589	keystroke_Key.esc	Key.esc	n/a
162.4595	0.06	324919	keystroke_Key.esc	Key.esc	n/a
162.6095	0.0745	325219	keystroke_Key.esc	Key.esc	n/a
162.775	0.06	325550	keystroke_Key.esc	Key.esc	n/a
162.9245	0.0895	325849	keystroke_Key.esc	Key.esc	n/a
163.3745	0.09	326749	keystroke_t	t	n/a
163.569	0.06	327138	keystroke_h	h	n/a
163.614	0.1205	327228	keystroke_e	e	n/a
163.6895	0.12	327379	keystroke_Key.space	Key.space	n/a
163.8395	0.0745	327679	keystroke_q	q	n/a
163.9445	0.135	327889	keystroke_u	u	n/a
164.0345	0.105	328069	keystroke_i	i	n/a
164.0945	0.06	328189	keystroke_c	c	n/a
164.5155	0.119	329031	keystroke_k	k	n/a
164.695	0.1495	329390	keystroke_Key.space	Key.space	n/a
165.0845	0.062	330169	keystroke_b	b	n/a
165.249	0.076	330498	keystroke_r	r	n/a
165.3395	0.0745	330679	keystroke_o	o	n/a
165.4295	0.09	330859	keystroke_w	w	n/a
165.534	0.0765	331068	keystroke_n	n	n/a
165.6395	0.12	331279	keystroke_Key.space	Key.space	n/a
165.804	0.0755	331608	keystroke_f	f	n/a
165.9245	0.0745	331849	keystroke_o	o	n/a
166.045	0.075	332090	keystroke_x	x	n/a
166.2245	0.105	332449	keystroke_Key.space	Key.space	n/a
166.3445	0.075	332689	keystroke_j	j	n/a
166.5245	0.0745	333049	keystroke_u	u	n/a
166.69	0.134	333380	keystroke_m	m	n/a
166.7795	0.1045	333559	keystroke_p	p	n/a
166.854	0.12	333708	keystroke_s	s	n/a
166.929	0.107	333858	keystroke_Key.space	Key.space	n/a
167.275	0.0745	334550	keystroke_o	o	n/a
167.3945	0.0745	334789	keystroke_v	v	n/a
167.5	0.1665	335000	keystroke_e	e	n/a
167.589	0.1355	335178	keystroke_r	r	n/a
167.6945	0.105	335389	keystroke_Key.space	Key.space	n/a
167.8595	0.1645	335719	keystroke_a	a	n/a
168.0095	0.1045	336019	keystroke_Key.space	Key.space	n/a
168.2345	0.075	336469	keystroke_l	l	n/a
168.325	0.089	336650	keystroke_a	a	n/a
168.534	0.0905	337068	keystroke_z	z	n/a
168.669	0.075	337338	keystroke_y	y	n/a
168.8045	0.105	337609	keystroke_Key.space	Key.space	n/a
169.0295	0.0895	338059	keystroke_d	d	n/a
169.1945	0.0745	338389	keystroke_o	o	n/a
169.314	0.078	338628	keystroke_g	g	n/a
169.5565	0.0875	339113	keystroke_Key.enter	Key.enter	n/a
169.6485	6.027	339297	prompt	n/a	application busy frank kelkoo\n
170.8745	0.09	341749	keystroke_a	a	n/a
171.0095	0.075	342019	keystroke_p	p	n/a
171.1595	0.105	342319	keystroke_p	p	n/a
171.3545	0.105	342709	keystroke_l	l	n/a
171.399	0.1205	342798	keystroke_i	i	n/a
171.4745	0.15	342949	keystroke_c	c	n/a
171.6545	0.12	343309	keystroke_a	a	n/a
171.8195	0.075	343639	keystroke_t	t	n/a
171.8795	0.1345	343759	keystroke_i	i	n/a
171.9245	0.1355	343849	keystroke_o	o	n/a
172.0145	0.1055	344029	keystroke_n	n	n/a
172.0785	0.101	344157	keystroke_Key.space	Key.space	n/a
172.33	0.0595	344660	keystroke_b	b	n/a
172.4195	0.0595	344839	keystroke_u	u	n/a
172.5095	0.09	345019	keystroke_s	s	n/a
172.6295	0.09	345259	keystroke_y	y	n/a
172.7345	0.09	345469	keystroke_Key.space	Key.space	n/a
173.095	0.0595	346190	keystroke_f	f	n/a
173.2595	0.09	346519	keystroke_r	r	n/a
173.3345	0.075	346669	keystroke_a	a	n/a
173.4395	0.09	346879	keystroke_n	n	n/a
173.62	0.0895	347240	keystroke_k	k	n/a
173.7245	0.12	347449	keystroke_Key.space	Key.space	n/a
174.01	0.074	348020	keystroke_k	k	n/a
174.114	0.106	348228	keystroke_e	e	n/a
174.31	0.1045	348620	keystroke_l	l	n/a
175.09	0.03	350180	keystroke_k	k	n/a
175.195	0.0895	350390	keystroke_o	o	n/a
175.375	0.0745	350750	keystroke_o	o	n/a
175.5995	0.075	351199	keystroke_Key.enter	Key.enter	n/a
175.6785	5.4875	351357	prompt	n/a	arise latina terrorism swingers\n
176.5745	0.105	353149	keystroke_a	a	n/a
176.6645	0.121	353329	keystroke_r	r	n/a
176.8145	0.09	353629	keystroke_i	i	n/a
176.9345	0.18	353869	keystroke_s	s	n/a
177.025	0.1495	354050	keystroke_e	e	n/a
177.1595	0.12	354319	keystroke_Key.space	Key.space	n/a
177.369	0.1055	354738	keystroke_l	l	n/a
177.46	0.1045	354920	keystroke_a	a	n/a
177.6095	0.0895	355219	keystroke_t	t	n/a
177.715	0.0895	355430	keystroke_i	i	n/a
177.925	0.0595	355850	keystroke_n	n	n/a
178.014	0.1355	356028	keystroke_a	a	n/a
178.1045	0.135	356209	keystroke_Key.space	Key.space	n/a
178.39	0.0895	356780	keystroke_t	t	n/a
178.5395	0.12	357079	keystroke_e	e	n/a
178.6765	0.073	357353	keystroke_r	r	n/a
178.884	0.0605	357768	keystroke_r	r	n/a
179.0045	0.09	358009	keystroke_o	o	n/a
179.184	0.0905	358368	keystroke_r	r	n/a
179.3065	0.103	358613	keystroke_i	i	n/a
179.4245	0.105	358849	keystroke_s	s	n/a
179.6795	0.0915	359359	keystroke_m	m	n/a
179.814	0.1205	359628	keystroke_Key.space	Key.space	n/a
180.055	0.074	360110	keystroke_s	s	n/a
180.2495	0.0605	360499	keystroke_w	w	n/a
180.2945	0.0895	360589	keystroke_i	i	n/a
180.3545	0.12	360709	keystroke_n	n	n/a
180.5045	0.105	361009	keystroke_g	g	n/a
180.6395	0.105	361279	keystroke_e	e	n/a
180.714	0.1055	361428	keystroke_r	r	n/a
180.8495	0.182	361699	keystroke_s	s	n/a
181.0905	0.0745	362181	keystroke_Key.enter	Key.enter	n/a
181.169	8.7565	362338	prompt	n/a	biggest abroad philippines collection\n
182.0045	0.09	364009	keystroke_b	b	n/a
182.14	0.1045	364280	keystroke_i	i	n/a
182.2915	0.0735	364583	keystroke_g	g	n/a
182.469	0.0905	364938	keystroke_g	g	n/a
182.59	0.1495	365180	keystroke_e	e	n/a
182.7565	0.0875	365513	keystroke_s	s	n/a
182.859	0.1355	365718	keystroke_t	t	n/a
182.9645	0.12	365929	keystroke_Key.space	Key.space	n/a
183.1895	0.09	366379	keystroke_a	a	n/a
183.3545	0.0745	366709	keystroke_b	b	n/a
183.552	0.0725	367104	keystroke_r	r	n/a
183.6845	0.105	367369	keystroke_o	o	n/a
183.8345	0.105	367669	keystroke_a	a	n/a
183.9845	0.1495	367969	keystroke_d	d	n/a
184.1495	0.12	368299	keystroke_Key.space	Key.space	n/a
184.39	0.1345	368780	keystroke_p	p	n/a
184.4645	0.1805	368929	keystroke_h	h	n/a
184.63	0.0745	369260	keystroke_i	i	n/a
184.8395	0.0595	369679	keystroke_l	l	n/a
186.1445	0.09	372289	keystroke_i	i	n/a
186.5375	0.0575	373075	keystroke_p	p	n/a
186.774	0.1055	373548	keystroke_p	p	n/a
186.925	0.0525	373850	keystroke_e	e	n/a
187.359	0.049	374718	keystroke_Key.backspace	Key.backspace	n/a
187.555	0.076	375110	keystroke_i	i	n/a
187.614	0.105	375228	keystroke_n	n	n/a
187.705	0.1195	375410	keystroke_e	e	n/a
187.975	0.1495	375950	keystroke_s	s	n/a
188.1395	0.15	376279	keystroke_Key.space	Key.space	n/a
188.5295	0.09	377059	keystroke_c	c	n/a
188.62	0.0745	377240	keystroke_o	o	n/a
188.829	0.064	377658	keystroke_l	l	n/a
188.9945	0.0895	377989	keystroke_l	l	n/a
189.0095	0.09	378019	keystroke_e	e	n/a
189.2345	0.06	378469	keystroke_c	c	n/a
189.3095	0.0745	378619	keystroke_t	t	n/a
189.4295	0.15	378859	keystroke_i	i	n/a
189.49	0.104	378980	keystroke_o	o	n/a
189.55	0.119	379100	keystroke_n	n	n/a
189.8495	0.075	379699	keystroke_Key.enter	Key.enter	n/a
189.929	9.8965	379858	prompt	n/a	participated combined licensed presenting\n
190.884	0.106	381768	keystroke_p	p	n/a
190.9895	0.135	381979	keystroke_a	a	n/a
191.0945	0.135	382189	keystroke_r	r	n/a
191.3195	0.0755	382639	keystroke_t	t	n/a
191.425	0.074	382850	keystroke_i	i	n/a
191.5295	0.075	383059	keystroke_c	c	n/a
191.6345	0.09	383269	keystroke_i	i	n/a
191.7695	0.1205	383539	keystroke_p	p	n/a
191.8595	0.1055	383719	keystroke_a	a	n/a
192.1145	0.1505	384229	keystroke_t	t	n/a
192.22	0.121	384440	keystroke_e	e	n/a
192.4595	0.1055	384919	keystroke_d	d	n/a
192.58	0.18	385160	keystroke_Key.space	Key.space	n/a
193.3895	0.09	386779	keystroke_c	c	n/a
193.45	0.1195	386900	keystroke_o	o	n/a
193.5095	0.1205	387019	keystroke_m	m	n/a
193.6745	0.075	387349	keystroke_b	b	n/a
193.78	0.1045	387560	keystroke_i	i	n/a
193.84	0.1045	387680	keystroke_n	n	n/a
193.93	0.075	387860	keystroke_e	e	n/a
194.095	0.1195	388190	keystroke_d	d	n/a
194.1995	0.135	388399	keystroke_Key.space	Key.space	n/a
194.3965	0.1335	388793	keystroke_l	l	n/a
194.4715	0.118	388943	keystroke_i	i	n/a
194.6645	0.105	389329	keystroke_c	c	n/a
194.861	0.0735	389722	keystroke_e	e	n/a
194.9495	0.077	389899	keystroke_n	n	n/a
195.1145	0.15	390229	keystroke_s	s	n/a
195.19	0.0895	390380	keystroke_e	e	n/a
195.3995	0.105	390799	keystroke_d	d	n/a
195.491	0.1335	390982	keystroke_Key.space	Key.space	n/a
195.8195	0.105	391639	keystroke_p	p	n/a
195.91	0.1045	391820	keystroke_r	r	n/a
195.9845	0.0905	391969	keystroke_e	e	n/a
196.2695	0.1655	392539	keystroke_s	s	n/a
196.3295	0.1355	392659	keystroke_e	e	n/a
196.54	0.1045	393080	keystroke_t	t	n/a
196.5995	0.105	393199	keystroke_n	n	n/a
196.8695	0.09	393739	keystroke_i	i	n/a
196.9295	0.105	393859	keystroke_n	n	n/a
197.0515	0.0735	394103	keystroke_g	g	n/a
197.5295	0.075	395059	keystroke_Key.backspace	Key.backspace	n/a
197.71	0.0595	395420	keystroke_Key.backspace	Key.backspace	n/a
197.8745	0.06	395749	keystroke_Key.backspace	Key.backspace	n/a
198.0545	0.075	396109	keystroke_Key.backspace	Key.backspace	n/a
198.7145	0.0755	397429	keystroke_Key.backspace	Key.backspace	n/a
198.955	0.0745	397910	keystroke_n	n	n/a
199.2695	0.045	398539	keystroke_t	t	n/a
199.3295	0.12	398659	keystroke_i	i	n/a
199.405	0.0745	398810	keystroke_n	n	n/a
199.51	0.0615	399020	keystroke_g	g	n/a
199.737	0.0875	399474	keystroke_Key.enter	Key.enter	n/a
199.828	6.718	399656	prompt	n/a	cape province configuration orleans\n
200.8445	0.135	401689	keystroke_c	c	n/a
200.9645	0.12	401929	keystroke_a	a	n/a
201.19	0.105	402380	keystroke_p	p	n/a
201.28	0.1195	402560	keystroke_e	e	n/a
201.3695	0.1355	402739	keystroke_Key.space	Key.space	n/a
201.73	0.09	403460	keystroke_p	p	n/a
201.835	0.0595	403670	keystroke_r	r	n/a
201.9695	0.0905	403939	keystroke_o	o	n/a
202.105	0.09	404210	keystroke_v	v	n/a
202.24	0.105	404480	keystroke_i	i	n/a
202.42	0.09	404840	keystroke_n	n	n/a
202.525	0.0895	405050	keystroke_c	c	n/a
202.7215	0.1035	405443	keystroke_e	e	n/a
202.825	0.12	405650	keystroke_Key.space	Key.space	n/a
203.065	0.075	406130	keystroke_c	c	n/a
203.1995	0.1205	406399	keystroke_o	o	n/a
203.2895	0.105	406579	keystroke_n	n	n/a
203.425	0.1045	406850	keystroke_f	f	n/a
203.5445	0.0755	407089	keystroke_i	i	n/a
203.725	0.0745	407450	keystroke_g	g	n/a
203.845	0.075	407690	keystroke_u	u	n/a
204.025	0.1045	408050	keystroke_r	r	n/a
204.1145	0.1205	408229	keystroke_a	a	n/a
204.325	0.0595	408650	keystroke_t	t	n/a
204.446	0.1335	408892	keystroke_i	i	n/a
204.52	0.105	409040	keystroke_o	o	n/a
204.55	0.1345	409100	keystroke_n	n	n/a
204.6995	0.1205	409399	keystroke_Key.space	Key.space	n/a
205.2095	0.1205	410419	keystroke_o	o	n/a
205.42	0.105	410840	keystroke_r	r	n/a
205.69	0.0895	411380	keystroke_l	l	n/a
205.8245	0.135	411649	keystroke_e	e	n/a
205.9145	0.135	411829	keystroke_a	a	n/a
206.08	0.0745	412160	keystroke_n	n	n/a
206.26	0.1045	412520	keystroke_s	s	n/a
206.4695	0.075	412939	keystroke_Key.enter	Key.enter	n/a
206.5515	7.059	413103	prompt	n/a	authentic concrete conferencing francis\n
207.4595	0.1205	414919	keystroke_a	a	n/a
207.596	0.0885	415192	keystroke_u	u	n/a
207.76	0.0745	415520	keystroke_t	t	n/a
207.8495	0.075	415699	keystroke_h	h	n/a
207.9695	0.105	415939	keystroke_e	e	n/a
208.0895	0.1055	416179	keystroke_n	n	n/a
208.27	0.075	416540	keystroke_t	t	n/a
208.3595	0.075	416719	keystroke_i	i	n/a
208.645	0.135	417290	keystroke_c	c	n/a
208.84	0.105	417680	keystroke_Key.space	Key.space	n/a
209.0645	0.105	418129	keystroke_c	c	n/a
209.184	0.106	418368	keystroke_o	o	n/a
209.2295	0.091	418459	keystroke_n	n	n/a
209.4095	0.09	418819	keystroke_c	c	n/a
209.665	0.09	419330	keystroke_r	r	n/a
209.7245	0.105	419449	keystroke_e	e	n/a
209.9505	0.104	419901	keystroke_t	t	n/a
210.01	0.12	420020	keystroke_e	e	n/a
210.2195	0.1055	420439	keystroke_Key.space	Key.space	n/a
210.43	0.075	420860	keystroke_c	c	n/a
210.505	0.1195	421010	keystroke_o	o	n/a
210.565	0.1195	421130	keystroke_n	n	n/a
210.6695	0.1655	421339	keystroke_f	f	n/a
210.835	0.09	421670	keystroke_e	e	n/a
210.9395	0.1205	421879	keystroke_r	r	n/a
211.0455	0.089	422091	keystroke_e	e	n/a
211.165	0.09	422330	keystroke_n	n	n/a
211.2995	0.0755	422599	keystroke_c	c	n/a
211.5395	0.09	423079	keystroke_i	i	n/a
211.5995	0.105	423199	keystroke_n	n	n/a
211.72	0.1225	423440	keystroke_g	g	n/a
211.825	0.1045	423650	keystroke_Key.space	Key.space	n/a
212.0195	0.06	424039	keystroke_f	f	n/a
212.1845	0.105	424369	keystroke_r	r	n/a
212.2745	0.0755	424549	keystroke_a	a	n/a
212.44	0.1195	424880	keystroke_n	n	n/a
212.6645	0.1065	425329	keystroke_c	c	n/a
212.905	0.1045	425810	keystroke_i	i	n/a
213.0695	0.105	426139	keystroke_s	s	n/a
213.5345	0.0755	427069	keystroke_Key.enter	Key.enter	n/a
213.6135	44.7125	427227	prompt	n/a	typing uruguay poison pleased\n
227.7785	0.003	455557	keystroke_Key.media_volume_mute	Key.media_volume_mute	n/a
252.58	0.075	505160	keystroke_t	t	n/a
252.6845	0.1055	505369	keystroke_y	y	n/a
252.805	0.12	505610	keystroke_p	p	n/a
252.91	0.1045	505820	keystroke_i	i	n/a
252.9845	0.1205	505969	keystroke_n	n	n/a
253.09	0.1195	506180	keystroke_g	g	n/a
253.18	0.1045	506360	keystroke_Key.space	Key.space	n/a
253.42	0.0775	506840	keystroke_u	u	n/a
253.735	0.1195	507470	keystroke_r	r	n/a
254.08	0.1045	508160	keystroke_u	u	n/a
254.7695	0.1205	509539	keystroke_g	g	n/a
254.95	0.09	509900	keystroke_u	u	n/a
255.1145	0.0905	510229	keystroke_a	a	n/a
255.3995	0.0905	510799	keystroke_y	y	n/a
255.5345	0.106	511069	keystroke_Key.space	Key.space	n/a
255.835	0.182	511670	keystroke_p	p	n/a
255.8955	0.1645	511791	keystroke_o	o	n/a
256.0295	0.1355	512059	keystroke_i	i	n/a
256.39	0.0745	512780	keystroke_s	s	n/a
256.525	0.105	513050	keystroke_o	o	n/a
256.5695	0.1205	513139	keystroke_n	n	n/a
256.765	0.1195	513530	keystroke_Key.space	Key.space	n/a
257.0945	0.075	514189	keystroke_p	p	n/a
257.26	0.09	514520	keystroke_l	l	n/a
257.335	0.105	514670	keystroke_e	e	n/a
257.41	0.15	514820	keystroke_a	a	n/a
257.5145	0.2105	515029	keystroke_s	s	n/a
257.68	0.1195	515360	keystroke_e	e	n/a
257.995	0.0745	515990	keystroke_d	d	n/a
258.235	0.09	516470	keystroke_Key.enter	Key.enter	n/a
258.3285	72.417	516657	prompt	n/a	paris messages nintendo packed\n
323.5605	0.0745	647121	keystroke_p	p	n/a
323.8145	0.015	647629	keystroke_a	a	n/a
324.0095	0.105	648019	keystroke_r	r	n/a
324.1445	0.0755	648289	keystroke_i	i	n/a
324.2495	0.1655	648499	keystroke_s	s	n/a
324.4	0.0755	648800	keystroke_Key.space	Key.space	n/a
324.5355	0.0895	649071	keystroke_m	m	n/a
324.6095	0.075	649219	keystroke_e	e	n/a
324.82	0.048	649640	keystroke_s	s	n/a
324.94	0.15	649880	keystroke_s	s	n/a
325.105	0.09	650210	keystroke_a	a	n/a
325.1805	0.1345	650361	keystroke_g	g	n/a
325.27	0.09	650540	keystroke_e	e	n/a
325.435	0.075	650870	keystroke_s	s	n/a
325.8395	0.0905	651679	keystroke_Key.space	Key.space	n/a
326.02	0.12	652040	keystroke_n	n	n/a
326.0955	0.0745	652191	keystroke_o	o	n/a
326.455	0.0595	652910	keystroke_Key.backspace	Key.backspace	n/a
326.62	0.045	653240	keystroke_Key.backspace	Key.backspace	n/a
327.025	0.1195	654050	keystroke_n	n	n/a
327.1295	0.0755	654259	keystroke_i	i	n/a
327.25	0.09	654500	keystroke_n	n	n/a
327.4745	0.0905	654949	keystroke_t	t	n/a
327.5805	0.0145	655161	keystroke_o	o	n/a
327.6855	0.0745	655371	keystroke_e	e	n/a
328.0145	0.075	656029	keystroke_Key.backspace	Key.backspace	n/a
328.1655	0.09	656331	keystroke_Key.backspace	Key.backspace	n/a
328.255	0.0895	656510	keystroke_e	e	n/a
328.42	0.075	656840	keystroke_n	n	n/a
328.795	0.075	657590	keystroke_d	d	n/a
328.99	0.075	657980	keystroke_o	o	n/a
329.4845	0.093	658969	keystroke_Key.space	Key.space	n/a
329.785	0.1055	659570	keystroke_p	p	n/a
329.875	0.09	659750	keystroke_a	a	n/a
330.07	0.0745	660140	keystroke_c	c	n/a
330.16	0.0895	660320	keystroke_k	k	n/a
330.34	0.0745	660680	keystroke_e	e	n/a
330.535	0.06	661070	keystroke_d	d	n/a
330.6545	0.09	661309	keystroke_Key.enter	Key.enter	n/a
330.749	49.677	661498	prompt	n/a	reviewed holdem effects bermuda\n
369.8505	0.135	739701	keystroke_r	r	n/a
369.896	0.1035	739792	keystroke_e	e	n/a
370.137	0.073	740274	keystroke_v	v	n/a
370.255	0.075	740510	keystroke_i	i	n/a
370.345	0.12	740690	keystroke_e	e	n/a
370.405	0.12	740810	keystroke_w	w	n/a
370.6755	0.091	741351	keystroke_e	e	n/a
370.7355	0.135	741471	keystroke_r	r	n/a
372.895	0.105	745790	keystroke_Key.backspace	Key.backspace	n/a
373.0905	0.0745	746181	keystroke_e	e	n/a
373.3	0.0755	746600	keystroke_d	d	n/a
373.66	0.0605	747320	keystroke_Key.backspace	Key.backspace	n/a
373.8255	0.0745	747651	keystroke_Key.backspace	Key.backspace	n/a
373.9755	0.0895	747951	keystroke_d	d	n/a
374.17	0.1505	748340	keystroke_Key.space	Key.space	n/a
374.68	0.12	749360	keystroke_h	h	n/a
374.83	0.1205	749660	keystroke_o	o	n/a
375.0855	0.12	750171	keystroke_l	l	n/a
375.3855	0.0145	750771	keystroke_d	d	n/a
375.5955	0.0895	751191	keystroke_e	e	n/a
375.805	0.0905	751610	keystroke_m	m	n/a
375.9855	0.09	751971	keystroke_Key.space	Key.space	n/a
376.2255	0.0745	752451	keystroke_e	e	n/a
376.4355	0.06	752871	keystroke_f	f	n/a
376.615	0.1225	753230	keystroke_f	f	n/a
376.6905	0.0745	753381	keystroke_e	e	n/a
376.9	0.0755	753800	keystroke_c	c	n/a
376.99	0.0755	753980	keystroke_t	t	n/a
377.14	0.15	754280	keystroke_s	s	n/a
377.305	0.09	754610	keystroke_Key.space	Key.space	n/a
377.6805	0.045	755361	keystroke_b	b	n/a
377.845	0.1205	755690	keystroke_e	e	n/a
377.9355	0.1345	755871	keystroke_r	r	n/a
378.2355	0.075	756471	keystroke_n	n	n/a
378.7	0.0755	757400	keystroke_Key.backspace	Key.backspace	n/a
378.9105	0.0895	757821	keystroke_m	m	n/a
379.1205	0.09	758241	keystroke_u	u	n/a
379.795	0.135	759590	keystroke_d	d	n/a
379.887	0.118	759774	keystroke_a	a	n/a
380.3355	0.0895	760671	keystroke_Key.enter	Key.enter	n/a
380.429	11.7275	760858	prompt	n/a	picked condo suitable commonwealth\n
381.3555	0.12	762711	keystroke_p	p	n/a
381.3855	0.15	762771	keystroke_i	i	n/a
381.5505	0.105	763101	keystroke_c	c	n/a
381.7	0.1055	763400	keystroke_k	k	n/a
381.7905	0.0595	763581	keystroke_e	e	n/a
381.9855	0.0595	763971	keystroke_d	d	n/a
382.0905	0.105	764181	keystroke_Key.space	Key.space	n/a
382.315	0.1205	764630	keystroke_c	c	n/a
382.4505	0.105	764901	keystroke_o	o	n/a
382.495	0.135	764990	keystroke_n	n	n/a
382.81	0.031	765620	keystroke_s	s	n/a
382.8405	0.0325	765681	keystroke_d	d	n/a
383.3655	0.06	766731	keystroke_Key.backspace	Key.backspace	n/a
383.545	0.0605	767090	keystroke_Key.backspace	Key.backspace	n/a
383.6655	0.09	767331	keystroke_d	d	n/a
383.83	0.0755	767660	keystroke_o	o	n/a
383.967	0.1035	767934	keystroke_Key.space	Key.space	n/a
384.46	0.1055	768920	keystroke_s	s	n/a
384.5965	0.1485	769193	keystroke_u	u	n/a
384.6555	0.1345	769311	keystroke_i	i	n/a
384.9255	0.1045	769851	keystroke_t	t	n/a
385.015	0.1055	770030	keystroke_a	a	n/a
385.227	0.0585	770454	keystroke_b	b	n/a
385.393	0.0875	770786	keystroke_l	l	n/a
385.4955	0.09	770991	keystroke_e	e	n/a
385.63	0.09	771260	keystroke_Key.space	Key.space	n/a
387.0855	0.0595	774171	keystroke_c	c	n/a
387.3855	0.0745	774771	keystroke_o	o	n/a
387.582	0.0735	775164	keystroke_o	o	n/a
388.0755	0.09	776151	keystroke_Key.backspace	Key.backspace	n/a
388.3605	0.06	776721	keystroke_m	m	n/a
388.5255	0.0745	777051	keystroke_m	m	n/a
388.645	0.1355	777290	keystroke_o	o	n/a
388.7505	0.105	777501	keystroke_n	n	n/a
389.575	0.1355	779150	keystroke_w	w	n/a
389.6655	0.12	779331	keystroke_e	e	n/a
390.145	0.105	780290	keystroke_a	a	n/a
391.1205	0.076	782241	keystroke_l	l	n/a
391.4805	0.105	782961	keystroke_t	t	n/a
391.615	0.09	783230	keystroke_h	h	n/a
392.08	0.0755	784160	keystroke_Key.enter	Key.enter	n/a
392.1595	14.877	784319	prompt	n/a	seekers administered disclose currencies\n
399.34	0.105	798680	keystroke_s	s	n/a
399.55	0.0455	799100	keystroke_e	e	n/a
399.6865	0.0735	799373	keystroke_e	e	n/a
399.8205	0.09	799641	keystroke_k	k	n/a
399.9405	0.135	799881	keystroke_e	e	n/a
400	0.1055	800000	keystroke_r	r	n/a
400.2105	0.107	800421	keystroke_s	s	n/a
400.3175	0.1025	800635	keystroke_Key.space	Key.space	n/a
400.66	0.0905	801320	keystroke_a	a	n/a
400.8105	0.1045	801621	keystroke_d	d	n/a
401.155	0.1205	802310	keystroke_m	m	n/a
401.23	0.0905	802460	keystroke_i	i	n/a
401.3805	0.1495	802761	keystroke_n	n	n/a
401.4855	0.092	802971	keystroke_i	i	n/a
401.9655	0.12	803931	keystroke_s	s	n/a
402.1905	0.105	804381	keystroke_t	t	n/a
402.2655	0.1795	804531	keystroke_e	e	n/a
402.535	0.0755	805070	keystroke_r	r	n/a
403.1805	0.09	806361	keystroke_e	e	n/a
403.3905	0.09	806781	keystroke_d	d	n/a
403.5415	0.1185	807083	keystroke_Key.space	Key.space	n/a
403.915	0.09	807830	keystroke_d	d	n/a
404.0505	0.09	808101	keystroke_i	i	n/a
404.1555	0.0895	808311	keystroke_s	s	n/a
404.3655	0.075	808731	keystroke_c	c	n/a
404.4855	0.0895	808971	keystroke_l	l	n/a
404.7555	0.1055	809511	keystroke_o	o	n/a
404.92	0.1505	809840	keystroke_s	s	n/a
404.9805	0.1195	809961	keystroke_e	e	n/a
405.1755	0.105	810351	keystroke_Key.space	Key.space	n/a
405.445	0.105	810890	keystroke_c	c	n/a
405.5805	0.09	811161	keystroke_u	u	n/a
405.7	0.045	811400	keystroke_r	r	n/a
405.85	0.1205	811700	keystroke_r	r	n/a
405.9255	0.1045	811851	keystroke_e	e	n/a
406.045	0.09	812090	keystroke_n	n	n/a
406.2255	0.1195	812451	keystroke_c	c	n/a
406.3605	0.0605	812721	keystroke_i	i	n/a
406.5255	0.0895	813051	keystroke_e	e	n/a
406.72	0.105	813440	keystroke_s	s	n/a
406.93	0.1055	813860	keystroke_Key.enter	Key.enter	n/a
407.039	8.0975	814078	prompt	n/a	faster mating puzzle debt\n
407.9355	0.1495	815871	keystroke_f	f	n/a
408.0405	0.21	816081	keystroke_a	a	n/a
408.385	0.2105	816770	keystroke_s	s	n/a
408.655	0.12	817310	keystroke_t	t	n/a
408.76	0.1355	817520	keystroke_e	e	n/a
408.8655	0.12	817731	keystroke_r	r	n/a
409.1505	0.1495	818301	keystroke_Key.space	Key.space	n/a
409.736	0.09	819472	keystroke_m	m	n/a
409.8255	0.1495	819651	keystroke_a	a	n/a
410.1105	0.0745	820221	keystroke_t	t	n/a
410.215	0.0755	820430	keystroke_i	i	n/a
410.245	0.121	820490	keystroke_n	n	n/a
410.3655	0.1345	820731	keystroke_g	g	n/a
410.486	0.1045	820972	keystroke_Key.space	Key.space	n/a
410.6355	0.1645	821271	keystroke_p	p	n/a
410.7405	0.12	821481	keystroke_u	u	n/a
410.9955	0.0145	821991	keystroke_s	s	n/a
411.6105	0.06	823221	keystroke_Key.backspace	Key.backspace	n/a
411.8055	0.075	823611	keystroke_z	z	n/a
412	0.0755	824000	keystroke_z	z	n/a
412.1805	0.0295	824361	keystroke_e	e	n/a
412.8105	0.06	825621	keystroke_Key.backspace	Key.backspace	n/a
413.052	0.0735	826104	keystroke_l	l	n/a
413.1105	0.1045	826221	keystroke_e	e	n/a
413.3515	0.119	826703	keystroke_Key.space	Key.space	n/a
413.682	0.0735	827364	keystroke_d	d	n/a
413.875	0.0905	827750	keystroke_e	e	n/a
414.3855	0.15	828771	keystroke_b	b	n/a
414.715	0.0905	829430	keystroke_t	t	n/a
415.045	0.09	830090	keystroke_Key.enter	Key.enter	n/a
415.1395	8.817	830279	prompt	n/a	motorcycles focusing lion richards\n
415.945	0.15	831890	keystroke_m	m	n/a
416.095	0.076	832190	keystroke_o	o	n/a
416.2605	0.09	832521	keystroke_t	t	n/a
416.366	0.0745	832732	keystroke_o	o	n/a
416.5755	0.105	833151	keystroke_r	r	n/a
416.8755	0.09	833751	keystroke_c	c	n/a
417.055	0.1505	834110	keystroke_y	y	n/a
417.325	0.0605	834650	keystroke_c	c	n/a
417.43	0.1055	834860	keystroke_l	l	n/a
417.5805	0.06	835161	keystroke_e	e	n/a
417.8655	0.1045	835731	keystroke_Key.space	Key.space	n/a
418.856	0.074	837712	keystroke_f	f	n/a
418.975	0.0755	837950	keystroke_o	o	n/a
419.1255	0.1045	838251	keystroke_c	c	n/a
419.245	0.0755	838490	keystroke_u	u	n/a
419.395	0.105	838790	keystroke_s	s	n/a
419.5605	0.105	839121	keystroke_i	i	n/a
419.635	0.0905	839270	keystroke_n	n	n/a
419.7555	0.15	839511	keystroke_g	g	n/a
419.9205	0.105	839841	keystroke_Key.space	Key.space	n/a
421.1355	0.1345	842271	keystroke_l	l	n/a
421.2405	0.12	842481	keystroke_i	i	n/a
421.4205	0.15	842841	keystroke_o	o	n/a
421.555	0.09	843110	keystroke_n	n	n/a
421.7655	0.1495	843531	keystroke_Key.space	Key.space	n/a
422.3655	0.105	844731	keystroke_r	r	n/a
422.5	0.0755	845000	keystroke_i	i	n/a
422.6655	0.105	845331	keystroke_c	c	n/a
422.966	0.0595	845932	keystroke_h	h	n/a
423.1155	0.135	846231	keystroke_a	a	n/a
423.2055	0.18	846411	keystroke_r	r	n/a
423.3255	0.1345	846651	keystroke_d	d	n/a
423.5805	0.09	847161	keystroke_s	s	n/a
423.8805	0.075	847761	keystroke_Key.enter	Key.enter	n/a
423.959	5.6975	847918	prompt	n/a	echo naturals mexican previous\n
424.735	0.0455	849470	keystroke_e	e	n/a
424.93	0.062	849860	keystroke_c	c	n/a
425.0505	0.12	850101	keystroke_h	h	n/a
425.1255	0.1045	850251	keystroke_o	o	n/a
425.291	0.104	850582	keystroke_Key.space	Key.space	n/a
425.4705	0.105	850941	keystroke_n	n	n/a
425.6055	0.09	851211	keystroke_a	a	n/a
425.7405	0.0895	851481	keystroke_t	t	n/a
425.9205	0.06	851841	keystroke_u	u	n/a
425.9805	0.1345	851961	keystroke_r	r	n/a
426.0705	0.1345	852141	keystroke_a	a	n/a
426.2205	0.09	852441	keystroke_l	l	n/a
426.3705	0.0895	852741	keystroke_Key.space	Key.space	n/a
426.4755	0.12	852951	keystroke_s	s	n/a
426.7605	0.06	853521	keystroke_Key.backspace	Key.backspace	n/a
426.9105	0.0895	853821	keystroke_Key.backspace	Key.backspace	n/a
427.015	0.167	854030	keystroke_s	s	n/a
427.1355	0.12	854271	keystroke_Key.space	Key.space	n/a
427.4055	0.075	854811	keystroke_m	m	n/a
427.4805	0.09	854961	keystroke_e	e	n/a
427.7205	0.09	855441	keystroke_x	x	n/a
427.8705	0.0595	855741	keystroke_i	i	n/a
428.0205	0.09	856041	keystroke_c	c	n/a
428.1255	0.0895	856251	keystroke_a	a	n/a
428.23	0.0755	856460	keystroke_n	n	n/a
428.4105	0.0755	856821	keystroke_Key.space	Key.space	n/a
428.6355	0.105	857271	keystroke_p	p	n/a
428.7105	0.135	857421	keystroke_r	r	n/a
428.8005	0.09	857601	keystroke_e	e	n/a
429.0405	0.045	858081	keystroke_v	v	n/a
429.1	0.1655	858200	keystroke_i	i	n/a
429.1755	0.12	858351	keystroke_o	o	n/a
429.2805	0.105	858561	keystroke_u	u	n/a
429.4	0.0905	858800	keystroke_s	s	n/a
429.5655	0.09	859131	keystroke_Key.enter	Key.enter	n/a
429.659	8.0975	859318	prompt	n/a	senate visiting legislation displayed\n
430.48	0.1655	860960	keystroke_s	s	n/a
430.5555	0.135	861111	keystroke_e	e	n/a
430.8105	0.0895	861621	keystroke_n	n	n/a
430.8855	0.105	861771	keystroke_a	a	n/a
431.0355	0.1195	862071	keystroke_t	t	n/a
431.1275	0.1175	862255	keystroke_e	e	n/a
431.2755	0.1195	862551	keystroke_Key.space	Key.space	n/a
433.03	0.0905	866060	keystroke_v	v	n/a
433.1355	0.0755	866271	keystroke_i	i	n/a
433.3605	0.15	866721	keystroke_s	s	n/a
433.5255	0.0745	867051	keystroke_i	i	n/a
433.6605	0.06	867321	keystroke_t	t	n/a
433.7815	0.1035	867563	keystroke_i	i	n/a
433.8405	0.12	867681	keystroke_n	n	n/a
433.946	0.1195	867892	keystroke_g	g	n/a
434.0355	0.09	868071	keystroke_Key.space	Key.space	n/a
434.1705	0.1075	868341	keystroke_l	l	n/a
434.2605	0.0745	868521	keystroke_e	e	n/a
434.441	0.089	868882	keystroke_g	g	n/a
434.5765	0.074	869153	keystroke_i	i	n/a
434.711	0.134	869422	keystroke_s	s	n/a
434.83	0.0605	869660	keystroke_t	t	n/a
435.2065	0.074	870413	keystroke_Key.backspace	Key.backspace	n/a
435.43	0.0755	870860	keystroke_l	l	n/a
435.5205	0.0895	871041	keystroke_a	a	n/a
435.6405	0.0895	871281	keystroke_t	t	n/a
435.745	0.1355	871490	keystroke_i	i	n/a
435.7755	0.12	871551	keystroke_o	o	n/a
435.85	0.1055	871700	keystroke_n	n	n/a
436.002	0.1335	872004	keystroke_Key.space	Key.space	n/a
436.27	0.075	872540	keystroke_d	d	n/a
436.4055	0.12	872811	keystroke_i	i	n/a
436.5255	0.107	873051	keystroke_s	s	n/a
436.6605	0.106	873321	keystroke_p	p	n/a
436.8555	0.0895	873711	keystroke_l	l	n/a
436.9605	0.075	873921	keystroke_a	a	n/a
437.0505	0.09	874101	keystroke_y	y	n/a
437.3505	0.06	874701	keystroke_e	e	n/a
437.515	0.06	875030	keystroke_d	d	n/a
437.6655	0.09	875331	keystroke_Key.enter	Key.enter	n/a
437.759	8.8325	875518	prompt	n/a	exhibition terrible twelve britannica\n
438.5805	0.09	877161	keystroke_e	e	n/a
438.987	0.0885	877974	keystroke_x	x	n/a
439.2555	0.15	878511	keystroke_h	h	n/a
439.33	0.1225	878660	keystroke_i	i	n/a
439.645	0.0905	879290	keystroke_b	b	n/a
439.7505	0.075	879501	keystroke_i	i	n/a
439.945	0.0605	879890	keystroke_t	t	n/a
440.036	0.1345	880072	keystroke_i	i	n/a
440.082	0.118	880164	keystroke_o	o	n/a
440.1555	0.105	880311	keystroke_n	n	n/a
440.247	0.1185	880494	keystroke_Key.space	Key.space	n/a
440.4105	0.1045	880821	keystroke_e	e	n/a
440.6055	0.03	881211	keystroke_t	t	n/a
440.845	0.0755	881690	keystroke_Key.backspace	Key.backspace	n/a
441.0255	0.0745	882051	keystroke_Key.backspace	Key.backspace	n/a
441.145	0.1055	882290	keystroke_t	t	n/a
441.2355	0.1345	882471	keystroke_e	e	n/a
441.445	0.0755	882890	keystroke_r	r	n/a
441.6255	0.06	883251	keystroke_r	r	n/a
441.7	0.0755	883400	keystroke_i	i	n/a
441.8505	0.06	883701	keystroke_b	b	n/a
441.9715	0.0735	883943	keystroke_l	l	n/a
442.06	0.1505	884120	keystroke_e	e	n/a
442.1805	0.1195	884361	keystroke_Key.space	Key.space	n/a
442.602	0.103	885204	keystroke_t	t	n/a
442.7205	0.12	885441	keystroke_w	w	n/a
443.1855	0.0745	886371	keystroke_e	e	n/a
443.3805	0.105	886761	keystroke_l	l	n/a
443.8	0.135	887600	keystroke_v	v	n/a
443.9055	0.105	887811	keystroke_e	e	n/a
444.13	0.0905	888260	keystroke_Key.space	Key.space	n/a
444.4	0.093	888800	keystroke_b	b	n/a
444.6255	0.1045	889251	keystroke_r	r	n/a
444.8205	0.12	889641	keystroke_i	i	n/a
445.0755	0.105	890151	keystroke_t	t	n/a
445.2405	0.12	890481	keystroke_a	a	n/a
445.5255	0.0745	891051	keystroke_n	n	n/a
445.7525	0.0875	891505	keystroke_n	n	n/a
445.87	0.1055	891740	keystroke_i	i	n/a
446.0205	0.135	892041	keystroke_c	c	n/a
446.1405	0.1045	892281	keystroke_a	a	n/a
446.5005	0.09	893001	keystroke_Key.enter	Key.enter	n/a
446.594	5.5325	893188	prompt	n/a	detector stood reform figured\n
447.4455	0.0755	894891	keystroke_d	d	n/a
447.6105	0.1045	895221	keystroke_e	e	n/a
447.8055	0.106	895611	keystroke_t	t	n/a
447.8655	0.105	895731	keystroke_e	e	n/a
448.091	0.0595	896182	keystroke_c	c	n/a
448.2555	0.0595	896511	keystroke_t	t	n/a
448.39	0.1205	896780	keystroke_o	o	n/a
448.5405	0.15	897081	keystroke_r	r	n/a
448.7655	0.12	897531	keystroke_Key.space	Key.space	n/a
449.215	0.0905	898430	keystroke_s	s	n/a
449.4105	0.1045	898821	keystroke_t	t	n/a
449.53	0.0755	899060	keystroke_o	o	n/a
449.7405	0.0595	899481	keystroke_o	o	n/a
449.8315	0.119	899663	keystroke_d	d	n/a
449.9655	0.1495	899931	keystroke_Key.space	Key.space	n/a
450.16	0.1205	900320	keystroke_r	r	n/a
450.2205	0.1045	900441	keystroke_e	e	n/a
450.445	0.0605	900890	keystroke_f	f	n/a
450.5205	0.075	901041	keystroke_o	o	n/a
450.6275	0.0725	901255	keystroke_r	r	n/a
450.7605	0.09	901521	keystroke_m	m	n/a
450.9105	0.0745	901821	keystroke_Key.space	Key.space	n/a
451.1505	0.09	902301	keystroke_f	f	n/a
451.259	0.056	902518	keystroke_i	i	n/a
451.3915	0.0585	902783	keystroke_g	g	n/a
451.4955	0.075	902991	keystroke_u	u	n/a
451.6	0.09	903200	keystroke_r	r	n/a
451.66	0.0755	903320	keystroke_e	e	n/a
451.8705	0.09	903741	keystroke_d	d	n/a
452.0505	0.075	904101	keystroke_Key.enter	Key.enter	n/a
452.1325	6.655	904265	prompt	n/a	acre compiler honduras barely\n
453.1	0.045	906200	keystroke_a	a	n/a
453.2505	0.105	906501	keystroke_c	c	n/a
453.4605	0.135	906921	keystroke_r	r	n/a
453.55	0.12	907100	keystroke_e	e	n/a
453.73	0.1055	907460	keystroke_Key.space	Key.space	n/a
454.091	0.074	908182	keystroke_c	c	n/a
454.42	0.18	908840	keystroke_o	o	n/a
454.5105	0.165	909021	keystroke_m	m	n/a
454.615	0.1205	909230	keystroke_p	p	n/a
454.84	0.1205	909680	keystroke_i	i	n/a
455.065	0.135	910130	keystroke_l	l	n/a
455.1855	0.12	910371	keystroke_e	e	n/a
455.2605	0.15	910521	keystroke_r	r	n/a
455.4255	0.1045	910851	keystroke_Key.space	Key.space	n/a
455.9055	0.09	911811	keystroke_h	h	n/a
456.13	0.1055	912260	keystroke_o	o	n/a
456.3405	0.0925	912681	keystroke_n	n	n/a
456.5505	0.1495	913101	keystroke_d	d	n/a
456.8205	0.09	913641	keystroke_u	u	n/a
456.9705	0.15	913941	keystroke_r	r	n/a
457.136	0.1045	914272	keystroke_a	a	n/a
457.33	0.1655	914660	keystroke_s	s	n/a
457.4805	0.09	914961	keystroke_Key.space	Key.space	n/a
457.7505	0.108	915501	keystroke_b	b	n/a
457.9	0.12	915800	keystroke_a	a	n/a
458.0355	0.1215	916071	keystroke_r	r	n/a
458.0955	0.09	916191	keystroke_e	e	n/a
458.3225	0.167	916645	keystroke_l	l	n/a
458.4705	0.09	916941	keystroke_y	y	n/a
458.725	0.0615	917450	keystroke_Key.enter	Key.enter	n/a
458.7905	6.4015	917581	prompt	n/a	cast aluminium approach movie\n
459.73	0.1055	919460	keystroke_c	c	n/a
459.8055	0.165	919611	keystroke_a	a	n/a
459.94	0.1805	919880	keystroke_s	s	n/a
460.091	0.123	920182	keystroke_t	t	n/a
460.1805	0.1345	920361	keystroke_Key.space	Key.space	n/a
460.4205	0.075	920841	keystroke_a	a	n/a
460.615	0.135	921230	keystroke_l	l	n/a
460.7055	0.15	921411	keystroke_u	u	n/a
461.0355	0.135	922071	keystroke_m	m	n/a
461.1415	0.0885	922283	keystroke_i	i	n/a
461.3505	0.1225	922701	keystroke_n	n	n/a
461.7255	0.1645	923451	keystroke_i	i	n/a
461.875	0.1055	923750	keystroke_u	u	n/a
462.115	0.1055	924230	keystroke_m	m	n/a
462.3105	0.1795	924621	keystroke_Key.space	Key.space	n/a
462.6555	0.0895	925311	keystroke_a	a	n/a
462.7605	0.075	925521	keystroke_p	p	n/a
462.9405	0.091	925881	keystroke_p	p	n/a
463.0755	0.09	926151	keystroke_r	r	n/a
463.15	0.0905	926300	keystroke_o	o	n/a
463.2855	0.105	926571	keystroke_a	a	n/a
463.4355	0.135	926871	keystroke_c	c	n/a
463.5855	0.0595	927171	keystroke_h	h	n/a
463.691	0.1195	927382	keystroke_Key.space	Key.space	n/a
464.156	0.12	928312	keystroke_m	m	n/a
464.23	0.1055	928460	keystroke_o	o	n/a
464.3205	0.09	928641	keystroke_v	v	n/a
464.471	0.1045	928942	keystroke_i	i	n/a
464.545	0.1055	929090	keystroke_e	e	n/a
465.1	0.091	930200	keystroke_Key.enter	Key.enter	n/a
465.1945	4.7515	930389	prompt	n/a	dave dragon trades tape\n
466.09	0.105	932180	keystroke_d	d	n/a
466.136	0.1495	932272	keystroke_a	a	n/a
466.3	0.1205	932600	keystroke_v	v	n/a
466.4655	0.12	932931	keystroke_e	e	n/a
466.5405	0.135	933081	keystroke_Key.space	Key.space	n/a
466.7955	0.1195	933591	keystroke_d	d	n/a
466.9605	0.1195	933921	keystroke_r	r	n/a
467.0955	0.1045	934191	keystroke_a	a	n/a
467.277	0.0735	934554	keystroke_g	g	n/a
467.443	0.102	934886	keystroke_o	o	n/a
467.5905	0.12	935181	keystroke_n	n	n/a
467.7255	0.1195	935451	keystroke_Key.space	Key.space	n/a
468.0255	0.0745	936051	keystroke_t	t	n/a
468.2205	0.105	936441	keystroke_r	r	n/a
468.2955	0.1345	936591	keystroke_a	a	n/a
468.461	0.0895	936922	keystroke_d	d	n/a
468.6555	0.195	937311	keystroke_e	e	n/a
468.8055	0.15	937611	keystroke_s	s	n/a
468.94	0.1205	937880	keystroke_Key.space	Key.space	n/a
469.345	0.076	938690	keystroke_t	t	n/a
469.4205	0.1195	938841	keystroke_a	a	n/a
469.615	0.105	939230	keystroke_p	p	n/a
469.6905	0.09	939381	keystroke_e	e	n/a
469.8405	0.1045	939681	keystroke_Key.enter	Key.enter	n/a
469.949	7.378	939898	prompt	n/a	instructions silicon replace lasting\n
470.666	0.105	941332	keystroke_i	i	n/a
470.741	0.0745	941482	keystroke_n	n	n/a
470.8305	0.1205	941661	keystroke_s	s	n/a
470.936	0.09	941872	keystroke_t	t	n/a
471.1005	0.1055	942201	keystroke_r	r	n/a
471.2235	0.072	942447	keystroke_u	u	n/a
471.341	0.1495	942682	keystroke_c	c	n/a
471.5055	0.03	943011	keystroke_t	t	n/a
471.596	0.1495	943192	keystroke_i	i	n/a
471.671	0.105	943342	keystroke_o	o	n/a
471.7005	0.135	943401	keystroke_n	n	n/a
471.836	0.09	943672	keystroke_Key.space	Key.space	n/a
471.9105	0.1655	943821	keystroke_s	s	n/a
472.4055	0.06	944811	keystroke_Key.backspace	Key.backspace	n/a
472.556	0.089	945112	keystroke_Key.backspace	Key.backspace	n/a
472.6305	0.135	945261	keystroke_s	s	n/a
472.7205	0.12	945441	keystroke_Key.space	Key.space	n/a
472.9155	0.0905	945831	keystroke_s	s	n/a
473.036	0.0895	946072	keystroke_i	i	n/a
473.2305	0.15	946461	keystroke_l	l	n/a
473.3355	0.105	946671	keystroke_i	i	n/a
473.8305	0.1205	947661	keystroke_c	c	n/a
474.0255	0.1355	948051	keystroke_o	o	n/a
474.1455	0.0755	948291	keystroke_n	n	n/a
474.281	0.1195	948562	keystroke_Key.space	Key.space	n/a
474.536	0.1045	949072	keystroke_r	r	n/a
474.596	0.1045	949192	keystroke_e	e	n/a
474.7605	0.1055	949521	keystroke_p	p	n/a
474.9405	0.105	949881	keystroke_l	l	n/a
475.061	0.076	950122	keystroke_a	a	n/a
475.196	0.0895	950392	keystroke_c	c	n/a
475.3755	0.1055	950751	keystroke_e	e	n/a
475.4685	0.1175	950937	keystroke_Key.space	Key.space	n/a
475.6155	0.03	951231	keystroke_s	s	n/a
475.706	0.1045	951412	keystroke_l	l	n/a
475.9905	0.045	951981	keystroke_Key.backspace	Key.backspace	n/a
476.126	0.0745	952252	keystroke_Key.backspace	Key.backspace	n/a
476.351	0.06	952702	keystroke_l	l	n/a
476.426	0.1495	952852	keystroke_a	a	n/a
476.563	0.163	953126	keystroke_s	s	n/a
476.741	0.0595	953482	keystroke_t	t	n/a
476.8615	0.089	953723	keystroke_i	i	n/a
476.921	0.09	953842	keystroke_n	n	n/a
477.056	0.0745	954112	keystroke_g	g	n/a
477.2205	0.1055	954441	keystroke_Key.enter	Key.enter	n/a
477.3295	6.4475	954659	prompt	n/a	devon nose brunswick praise\n
478.1505	0.0155	956301	keystroke_d	d	n/a
478.256	0.0745	956512	keystroke_e	e	n/a
478.466	0.075	956932	keystroke_v	v	n/a
478.6155	0.136	957231	keystroke_o	o	n/a
478.721	0.09	957442	keystroke_n	n	n/a
478.826	0.1195	957652	keystroke_Key.space	Key.space	n/a
479.0205	0.135	958041	keystroke_n	n	n/a
479.111	0.1195	958222	keystroke_o	o	n/a
479.2455	0.1805	958491	keystroke_s	s	n/a
479.321	0.165	958642	keystroke_e	e	n/a
479.4415	0.1495	958883	keystroke_Key.space	Key.space	n/a
479.756	0.0745	959512	keystroke_b	b	n/a
479.936	0.1195	959872	keystroke_r	r	n/a
480.1305	0.1055	960261	keystroke_u	u	n/a
480.341	0.1045	960682	keystroke_n	n	n/a
480.491	0.12	960982	keystroke_s	s	n/a
480.7305	0.1055	961461	keystroke_w	w	n/a
480.926	0.0895	961852	keystroke_i	i	n/a
481.136	0.09	962272	keystroke_c	c	n/a
481.286	0.0445	962572	keystroke_h	h	n/a
481.5715	0.0895	963143	keystroke_Key.backspace	Key.backspace	n/a
481.9025	0.0735	963805	keystroke_k	k	n/a
482.096	0.105	964192	keystroke_Key.space	Key.space	n/a
482.471	0.105	964942	keystroke_p	p	n/a
482.621	0.15	965242	keystroke_r	r	n/a
482.741	0.12	965482	keystroke_a	a	n/a
483.2805	0.0905	966561	keystroke_i	i	n/a
483.386	0.135	966772	keystroke_s	s	n/a
483.416	0.12	966832	keystroke_e	e	n/a
483.7005	0.0755	967401	keystroke_Key.enter	Key.enter	n/a
483.7795	5.7575	967559	prompt	n/a	pierce blue fraser requires\n
484.526	0.1195	969052	keystroke_p	p	n/a
484.6005	0.1355	969201	keystroke_i	i	n/a
484.7505	0.15	969501	keystroke_e	e	n/a
484.9305	0.1655	969861	keystroke_r	r	n/a
485.0535	0.1175	970107	keystroke_e	e	n/a
485.411	0.075	970822	keystroke_Key.backspace	Key.backspace	n/a
485.5005	0.1055	971001	keystroke_c	c	n/a
485.726	0.1345	971452	keystroke_e	e	n/a
485.8455	0.1205	971691	keystroke_Key.space	Key.space	n/a
486.071	0.0775	972142	keystroke_b	b	n/a
486.206	0.135	972412	keystroke_l	l	n/a
486.296	0.12	972592	keystroke_u	u	n/a
486.4005	0.1205	972801	keystroke_e	e	n/a
486.491	0.1345	972982	keystroke_Key.space	Key.space	n/a
486.7915	0.1045	973583	keystroke_f	f	n/a
487.076	0.105	974152	keystroke_r	r	n/a
487.226	0.12	974452	keystroke_a	a	n/a
487.421	0.165	974842	keystroke_s	s	n/a
487.541	0.135	975082	keystroke_e	e	n/a
487.631	0.165	975262	keystroke_r	r	n/a
487.781	0.105	975562	keystroke_Key.space	Key.space	n/a
488.021	0.135	976042	keystroke_r	r	n/a
488.066	0.1345	976132	keystroke_e	e	n/a
488.246	0.09	976492	keystroke_q	q	n/a
488.3805	0.15	976761	keystroke_u	u	n/a
488.441	0.1195	976882	keystroke_i	i	n/a
488.576	0.0925	977152	keystroke_r	r	n/a
488.591	0.12	977182	keystroke_e	e	n/a
488.8305	0.0905	977661	keystroke_d	d	n/a
489.176	0.0745	978352	keystroke_Key.backspace	Key.backspace	n/a
489.281	0.0895	978562	keystroke_s	s	n/a
489.4155	0.1205	978831	keystroke_Key.enter	Key.enter	n/a
489.5395	6.5525	979079	prompt	n/a	dancing recognition hunter bikes\n
490.196	0.12	980392	keystroke_d	d	n/a
490.3155	0.1205	980631	keystroke_a	a	n/a
490.451	0.09	980902	keystroke_n	n	n/a
490.571	0.12	981142	keystroke_c	c	n/a
490.7215	0.1045	981443	keystroke_i	i	n/a
490.781	0.1345	981562	keystroke_n	n	n/a
490.871	0.12	981742	keystroke_g	g	n/a
490.976	0.12	981952	keystroke_Key.space	Key.space	n/a
491.171	0.15	982342	keystroke_r	r	n/a
491.246	0.1345	982492	keystroke_e	e	n/a
491.5155	0.0755	983031	keystroke_c	c	n/a
491.5765	0.1195	983153	keystroke_o	o	n/a
491.6525	0.1185	983305	keystroke_n	n	n/a
491.8155	0.045	983631	keystroke_g	g	n/a
491.996	0.09	983992	keystroke_n	n	n/a
492.0555	0.09	984111	keystroke_i	i	n/a
492.176	0.06	984352	keystroke_t	t	n/a
492.2835	0.147	984567	keystroke_i	i	n/a
492.371	0.12	984742	keystroke_o	o	n/a
492.4455	0.1055	984891	keystroke_n	n	n/a
492.5655	0.15	985131	keystroke_Key.space	Key.space	n/a
493.151	0.061	986302	keystroke_h	h	n/a
493.3155	0.0905	986631	keystroke_u	u	n/a
493.5115	0.089	987023	keystroke_n	n	n/a
493.6155	0.0905	987231	keystroke_t	t	n/a
493.691	0.1515	987382	keystroke_e	e	n/a
493.796	0.1195	987592	keystroke_r	r	n/a
494.036	0.1795	988072	keystroke_Key.space	Key.space	n/a
495.191	0.0765	990382	keystroke_b	b	n/a
495.251	0.06	990502	keystroke_i	i	n/a
495.4455	0.0755	990891	keystroke_k	k	n/a
495.5675	0.208	991135	keystroke_e	e	n/a
495.7155	0.12	991431	keystroke_s	s	n/a
496.0005	0.0905	992001	keystroke_Key.enter	Key.enter	n/a
496.095	5.698	992190	prompt	n/a	mental mating seeing terrorist\n
497.246	0.06	994492	keystroke_m	m	n/a
497.291	0.0745	994582	keystroke_e	e	n/a
497.471	0.0595	994942	keystroke_n	n	n/a
497.6805	0.0605	995361	keystroke_t	t	n/a
497.831	0.09	995662	keystroke_a	a	n/a
497.951	0.105	995902	keystroke_l	l	n/a
498.071	0.0745	996142	keystroke_Key.space	Key.space	n/a
498.191	0.075	996382	keystroke_m	m	n/a
498.311	0.1195	996622	keystroke_a	a	n/a
498.461	0.105	996922	keystroke_t	t	n/a
498.5535	0.0725	997107	keystroke_i	i	n/a
498.581	0.105	997162	keystroke_n	n	n/a
498.746	0.12	997492	keystroke_g	g	n/a
498.851	0.1345	997702	keystroke_Key.space	Key.space	n/a
499.151	0.1495	998302	keystroke_s	s	n/a
499.241	0.0895	998482	keystroke_e	e	n/a
499.5125	0.0135	999025	keystroke_e	e	n/a
499.6605	0.0905	999321	keystroke_i	i	n/a
499.736	0.1055	999472	keystroke_n	n	n/a
499.8705	0.1655	999741	keystroke_g	g	n/a
500.0215	0.1225	1000043	keystroke_Key.space	Key.space	n/a
500.231	0.105	1000462	keystroke_t	t	n/a
500.321	0.1655	1000642	keystroke_e	e	n/a
500.591	0.075	1001182	keystroke_r	r	n/a
500.773	0.0725	1001546	keystroke_r	r	n/a
500.861	0.0905	1001722	keystroke_o	o	n/a
501.011	0.1045	1002022	keystroke_r	r	n/a
501.1915	0.0895	1002383	keystroke_i	i	n/a
501.371	0.1495	1002742	keystroke_s	s	n/a
501.5375	0.0735	1003075	keystroke_t	t	n/a
501.7015	0.09	1003403	keystroke_Key.enter	Key.enter	n/a
501.796	16.6905	1003592	prompt	n/a	controversial look seven fifty\n
502.8715	0.1045	1005743	keystroke_c	c	n/a
502.9005	0.1655	1005801	keystroke_o	o	n/a
503.021	0.0905	1006042	keystroke_n	n	n/a
503.186	0.0745	1006372	keystroke_g	g	n/a
503.5455	0.0905	1007091	keystroke_Key.backspace	Key.backspace	n/a
503.6965	0.0745	1007393	keystroke_t	t	n/a
503.892	0.059	1007784	keystroke_r	r	n/a
503.9955	0.0905	1007991	keystroke_o	o	n/a
504.236	0.09	1008472	keystroke_l	l	n/a
504.356	0.09	1008712	keystroke_v	v	n/a
504.656	0.0595	1009312	keystroke_Key.backspace	Key.backspace	n/a
504.806	0.09	1009612	keystroke_Key.backspace	Key.backspace	n/a
504.896	0.09	1009792	keystroke_v	v	n/a
505.0185	0.1325	1010037	keystroke_e	e	n/a
505.121	0.1055	1010242	keystroke_r	r	n/a
505.301	0.15	1010602	keystroke_s	s	n/a
505.496	0.09	1010992	keystroke_a	a	n/a
505.6005	0.1055	1011201	keystroke_l	l	n/a
505.751	0.1495	1011502	keystroke_Key.space	Key.space	n/a
505.9155	0.105	1011831	keystroke_l	l	n/a
506.156	0.0745	1012312	keystroke_o	o	n/a
506.336	0.12	1012672	keystroke_o	o	n/a
506.396	0.1345	1012792	keystroke_k	k	n/a
506.5455	0.12	1013091	keystroke_Key.space	Key.space	n/a
509.1855	0.09	1018371	keystroke_Key.backspace	Key.backspace	n/a
509.3805	0.0755	1018761	keystroke_Key.backspace	Key.backspace	n/a
509.5625	0.0885	1019125	keystroke_Key.backspace	Key.backspace	n/a
509.7555	0.09	1019511	keystroke_Key.backspace	Key.backspace	n/a
509.951	0.076	1019902	keystroke_Key.backspace	Key.backspace	n/a
510.1455	0.0755	1020291	keystroke_Key.backspace	Key.backspace	n/a
510.341	0.0745	1020682	keystroke_Key.backspace	Key.backspace	n/a
510.566	0.1195	1021132	keystroke_Key.backspace	Key.backspace	n/a
510.881	0.09	1021762	keystroke_i	i	n/a
511.0155	0.1055	1022031	keystroke_a	a	n/a
511.1215	0.0895	1022243	keystroke_l	l	n/a
511.2555	0.1205	1022511	keystroke_Key.space	Key.space	n/a
511.421	0.075	1022842	keystroke_l	l	n/a
511.676	0.0755	1023352	keystroke_o	o	n/a
511.856	0.105	1023712	keystroke_o	o	n/a
512.036	0.09	1024072	keystroke_k	k	n/a
512.171	0.135	1024342	keystroke_Key.space	Key.space	n/a
512.5165	0.2245	1025033	keystroke_s	s	n/a
512.6215	0.1345	1025243	keystroke_e	e	n/a
512.8775	0.0135	1025755	keystroke_v	v	n/a
512.951	0.045	1025902	keystroke_v	v	n/a
513.041	0.1045	1026082	keystroke_e	e	n/a
513.221	0.0905	1026442	keystroke_n	n	n/a
513.4005	0.0605	1026801	keystroke_Key.space	Key.space	n/a
513.536	0.09	1027072	keystroke_f	f	n/a
513.6415	0.0895	1027283	keystroke_i	i	n/a
513.746	0.105	1027492	keystroke_f	f	n/a
514.0455	0.093	1028091	keystroke_t	t	n/a
514.226	0.18	1028452	keystroke_y	y	n/a
514.8565	0.074	1029713	keystroke_Key.backspace	Key.backspace	n/a
515.0205	0.0755	1030041	keystroke_Key.backspace	Key.backspace	n/a
515.201	0.06	1030402	keystroke_Key.backspace	Key.backspace	n/a
515.366	0.0605	1030732	keystroke_Key.backspace	Key.backspace	n/a
515.5455	0.06	1031091	keystroke_Key.backspace	Key.backspace	n/a
515.741	0.09	1031482	keystroke_Key.backspace	Key.backspace	n/a
515.951	0.09	1031902	keystroke_Key.backspace	Key.backspace	n/a
516.176	0.1045	1032352	keystroke_Key.backspace	Key.backspace	n/a
516.506	0.09	1033012	keystroke_Key.backspace	Key.backspace	n/a
516.746	0.12	1033492	keystroke_e	e	n/a
517.0305	0.0935	1034061	keystroke_n	n	n/a
517.316	0.1205	1034632	keystroke_Key.space	Key.space	n/a
517.526	0.1045	1035052	keystroke_f	f	n/a
517.6605	0.0935	1035321	keystroke_i	i	n/a
517.766	0.09	1035532	keystroke_f	f	n/a
518.0215	0.0745	1036043	keystroke_t	t	n/a
518.141	0.12	1036282	keystroke_y	y	n/a
518.396	0.0895	1036792	keystroke_Key.enter	Key.enter	n/a
518.4895	5.6825	1036979	prompt	n/a	mars activities codes adrian\n
519.3115	0.1045	1038623	keystroke_m	m	n/a
519.371	0.12	1038742	keystroke_a	a	n/a
519.461	0.1055	1038922	keystroke_r	r	n/a
519.671	0.165	1039342	keystroke_s	s	n/a
519.8215	0.105	1039643	keystroke_Key.space	Key.space	n/a
520.286	0.105	1040572	keystroke_a	a	n/a
520.466	0.1205	1040932	keystroke_c	c	n/a
520.646	0.1045	1041292	keystroke_t	t	n/a
520.796	0.075	1041592	keystroke_i	i	n/a
520.9155	0.076	1041831	keystroke_v	v	n/a
521.038	0.0885	1042076	keystroke_i	i	n/a
521.216	0.06	1042432	keystroke_t	t	n/a
521.3685	0.0575	1042737	keystroke_i	i	n/a
521.441	0.2255	1042882	keystroke_e	e	n/a
521.561	0.165	1043122	keystroke_s	s	n/a
521.681	0.135	1043362	keystroke_Key.space	Key.space	n/a
521.9665	0.089	1043933	keystroke_c	c	n/a
522.071	0.1055	1044142	keystroke_o	o	n/a
522.206	0.105	1044412	keystroke_d	d	n/a
522.371	0.15	1044742	keystroke_e	e	n/a
522.4765	0.1945	1044953	keystroke_s	s	n/a
522.626	0.105	1045252	keystroke_Key.space	Key.space	n/a
522.896	0.12	1045792	keystroke_a	a	n/a
523.211	0.015	1046422	keystroke_d	d	n/a
523.316	0.15	1046632	keystroke_r	r	n/a
523.571	0.1055	1047142	keystroke_i	i	n/a
523.691	0.09	1047382	keystroke_a	a	n/a
523.8265	0.0895	1047653	keystroke_n	n	n/a
524.081	0.09	1048162	keystroke_Key.enter	Key.enter	n/a
524.175	5.832	1048350	prompt	n/a	dozen programmers kitty rated\n
524.831	0.0905	1049662	keystroke_d	d	n/a
524.9965	0.1345	1049993	keystroke_o	o	n/a
525.236	0.1055	1050472	keystroke_z	z	n/a
525.416	0.0605	1050832	keystroke_e	e	n/a
525.566	0.105	1051132	keystroke_n	n	n/a
525.6865	0.119	1051373	keystroke_Key.space	Key.space	n/a
526.001	0.09	1052002	keystroke_p	p	n/a
526.1215	0.1055	1052243	keystroke_r	r	n/a
526.244	0.087	1052488	keystroke_o	o	n/a
526.4215	0.0745	1052843	keystroke_g	g	n/a
526.631	0.1055	1053262	keystroke_r	r	n/a
526.7515	0.09	1053503	keystroke_a	a	n/a
527.0965	0.0895	1054193	keystroke_m	m	n/a
527.2915	0.075	1054583	keystroke_m	m	n/a
527.3965	0.1345	1054793	keystroke_e	e	n/a
527.456	0.1205	1054912	keystroke_r	r	n/a
527.666	0.18	1055332	keystroke_s	s	n/a
527.786	0.135	1055572	keystroke_Key.space	Key.space	n/a
528.086	0.0905	1056172	keystroke_k	k	n/a
528.281	0.09	1056562	keystroke_i	i	n/a
528.416	0.09	1056832	keystroke_t	t	n/a
528.6115	0.074	1057223	keystroke_t	t	n/a
528.806	0.1205	1057612	keystroke_y	y	n/a
528.956	0.0755	1057912	keystroke_Key.space	Key.space	n/a
529.166	0.12	1058332	keystroke_r	r	n/a
529.271	0.1205	1058542	keystroke_a	a	n/a
529.4365	0.092	1058873	keystroke_t	t	n/a
529.4815	0.1045	1058963	keystroke_e	e	n/a
529.721	0.0605	1059442	keystroke_d	d	n/a
529.901	0.105	1059802	keystroke_Key.enter	Key.enter	n/a
530.0105	6.4485	1060021	prompt	n/a	olive planets business historical\n
530.8765	0.077	1061753	keystroke_o	o	n/a
531.086	0.1505	1062172	keystroke_l	l	n/a
531.176	0.1205	1062352	keystroke_i	i	n/a
531.2965	0.1045	1062593	keystroke_v	v	n/a
531.5065	0.1195	1063013	keystroke_e	e	n/a
531.611	0.138	1063222	keystroke_Key.space	Key.space	n/a
531.882	0.0745	1063764	keystroke_p	p	n/a
532.0315	0.12	1064063	keystroke_l	l	n/a
532.1365	0.1195	1064273	keystroke_a	a	n/a
532.271	0.1055	1064542	keystroke_n	n	n/a
532.4515	0.075	1064903	keystroke_e	e	n/a
532.679	0.087	1065358	keystroke_t	t	n/a
532.871	0.1655	1065742	keystroke_s	s	n/a
533.021	0.135	1066042	keystroke_Key.space	Key.space	n/a
533.336	0.0905	1066672	keystroke_b	b	n/a
533.4565	0.1045	1066913	keystroke_u	u	n/a
533.6215	0.1195	1067243	keystroke_s	s	n/a
533.756	0.0905	1067512	keystroke_i	i	n/a
533.9375	0.074	1067875	keystroke_n	n	n/a
534.041	0.075	1068082	keystroke_e	e	n/a
534.2365	0.09	1068473	keystroke_s	s	n/a
534.4315	0.1045	1068863	keystroke_s	s	n/a
534.5685	0.1475	1069137	keystroke_Key.space	Key.space	n/a
534.9565	0.105	1069913	keystroke_h	h	n/a
535.016	0.105	1070032	keystroke_i	i	n/a
535.1365	0.1345	1070273	keystroke_s	s	n/a
535.2565	0.09	1070513	keystroke_t	t	n/a
535.3765	0.1045	1070753	keystroke_o	o	n/a
535.5265	0.0745	1071053	keystroke_r	r	n/a
535.616	0.09	1071232	keystroke_i	i	n/a
535.886	0.105	1071772	keystroke_c	c	n/a
536.006	0.105	1072012	keystroke_a	a	n/a
536.1265	0.1045	1072253	keystroke_l	l	n/a
536.366	0.092	1072732	keystroke_Key.enter	Key.enter	n/a
536.462	4.8725	1072924	prompt	n/a	donors library seen dried\n
537.221	0.0765	1074442	keystroke_d	d	n/a
537.3115	0.0755	1074623	keystroke_o	o	n/a
537.4915	0.135	1074983	keystroke_n	n	n/a
537.596	0.12	1075192	keystroke_o	o	n/a
537.746	0.165	1075492	keystroke_r	r	n/a
537.8965	0.179	1075793	keystroke_s	s	n/a
538.061	0.1655	1076122	keystroke_Key.space	Key.space	n/a
538.256	0.165	1076512	keystroke_l	l	n/a
538.3485	0.118	1076697	keystroke_i	i	n/a
538.436	0.12	1076872	keystroke_b	b	n/a
538.676	0.12	1077352	keystroke_r	r	n/a
538.7815	0.1195	1077563	keystroke_a	a	n/a
538.916	0.12	1077832	keystroke_r	r	n/a
539.096	0.1045	1078192	keystroke_y	y	n/a
539.186	0.12	1078372	keystroke_Key.space	Key.space	n/a
539.381	0.15	1078762	keystroke_s	s	n/a
539.4565	0.1195	1078913	keystroke_e	e	n/a
539.681	0.0755	1079362	keystroke_e	e	n/a
539.831	0.105	1079662	keystroke_n	n	n/a
539.951	0.123	1079902	keystroke_Key.space	Key.space	n/a
540.1155	0.1505	1080231	keystroke_d	d	n/a
540.2665	0.0895	1080533	keystroke_r	r	n/a
540.372	0.1045	1080744	keystroke_i	i	n/a
540.5515	0.0895	1081103	keystroke_e	e	n/a
540.7615	0.075	1081523	keystroke_d	d	n/a
541.226	0.1075	1082452	keystroke_Key.enter	Key.enter	n/a
541.3395	4.507	1082679	prompt	n/a	byte ascii stay boys\n
542.201	0.09	1084402	keystroke_b	b	n/a
542.366	0.105	1084732	keystroke_y	y	n/a
542.516	0.1205	1085032	keystroke_t	t	n/a
542.606	0.135	1085212	keystroke_e	e	n/a
542.711	0.12	1085422	keystroke_Key.space	Key.space	n/a
542.936	0.105	1085872	keystroke_a	a	n/a
543.116	0.1205	1086232	keystroke_s	s	n/a
543.341	0.09	1086682	keystroke_c	c	n/a
543.4765	0.0895	1086953	keystroke_i	i	n/a
543.671	0.09	1087342	keystroke_i	i	n/a
543.776	0.1505	1087552	keystroke_Key.space	Key.space	n/a
544.196	0.1505	1088392	keystroke_s	s	n/a
544.3465	0.0745	1088693	keystroke_t	t	n/a
544.4515	0.075	1088903	keystroke_a	a	n/a
544.6615	0.149	1089323	keystroke_y	y	n/a
544.826	0.105	1089652	keystroke_Key.space	Key.space	n/a
545.096	0.1045	1090192	keystroke_b	b	n/a
545.2155	0.1205	1090431	keystroke_o	o	n/a
545.396	0.15	1090792	keystroke_y	y	n/a
545.561	0.09	1091122	keystroke_s	s	n/a
545.7565	0.089	1091513	keystroke_Key.enter	Key.enter	n/a
545.849	7.273	1091698	prompt	n/a	patterns consumption techno academic\n
546.8395	0.1015	1093679	keystroke_p	p	n/a
546.881	0.15	1093762	keystroke_a	a	n/a
547.076	0.075	1094152	keystroke_t	t	n/a
547.256	0.09	1094512	keystroke_t	t	n/a
547.331	0.15	1094662	keystroke_e	e	n/a
547.466	0.075	1094932	keystroke_r	r	n/a
547.6155	0.0905	1095231	keystroke_n	n	n/a
547.7365	0.149	1095473	keystroke_s	s	n/a
547.826	0.165	1095652	keystroke_Key.space	Key.space	n/a
548.1855	0.1055	1096371	keystroke_c	c	n/a
548.306	0.105	1096612	keystroke_o	o	n/a
548.366	0.12	1096732	keystroke_n	n	n/a
548.5765	0.1045	1097153	keystroke_s	s	n/a
548.7265	0.0895	1097453	keystroke_u	u	n/a
548.921	0.135	1097842	keystroke_m	m	n/a
548.981	0.14	1097962	keystroke_p	p	n/a
549.266	0.09	1098532	keystroke_t	t	n/a
549.461	0.1975	1098922	keystroke_i	i	n/a
549.5355	0.135	1099071	keystroke_o	o	n/a
549.6415	0.135	1099283	keystroke_n	n	n/a
549.836	0.105	1099672	keystroke_Key.space	Key.space	n/a
550.466	0.12	1100932	keystroke_t	t	n/a
550.5115	0.104	1101023	keystroke_e	e	n/a
550.766	0.075	1101532	keystroke_c	c	n/a
550.856	0.09	1101712	keystroke_h	h	n/a
551.066	0.1045	1102132	keystroke_n	n	n/a
551.1415	0.1045	1102283	keystroke_o	o	n/a
551.3355	0.105	1102671	keystroke_Key.space	Key.space	n/a
551.561	0.09	1103122	keystroke_a	a	n/a
551.756	0.15	1103512	keystroke_c	c	n/a
551.951	0.105	1103902	keystroke_a	a	n/a
552.266	0.09	1104532	keystroke_d	d	n/a
552.447	0.074	1104894	keystroke_e	e	n/a
552.596	0.165	1105192	keystroke_m	m	n/a
552.6855	0.123	1105371	keystroke_i	i	n/a
552.8365	0.1195	1105673	keystroke_c	c	n/a
553.0455	0.0755	1106091	keystroke_Key.enter	Key.enter	n/a
553.1245	6.808	1106249	prompt	n/a	acquire stakeholders carlo shut\n
554.0965	0.1495	1108193	keystroke_a	a	n/a
554.2915	0.1495	1108583	keystroke_c	c	n/a
554.6505	0.091	1109301	keystroke_q	q	n/a
554.756	0.165	1109512	keystroke_u	u	n/a
554.816	0.135	1109632	keystroke_i	i	n/a
555.041	0.1655	1110082	keystroke_r	r	n/a
555.086	0.135	1110172	keystroke_e	e	n/a
555.431	0.18	1110862	keystroke_Key.space	Key.space	n/a
556.391	0.0155	1112782	keystroke_s	s	n/a
556.436	0.0905	1112872	keystroke_t	t	n/a
556.541	0.15	1113082	keystroke_a	a	n/a
556.766	0.1345	1113532	keystroke_k	k	n/a
556.8875	0.0735	1113775	keystroke_e	e	n/a
557.141	0.12	1114282	keystroke_h	h	n/a
557.231	0.1215	1114462	keystroke_o	o	n/a
557.4415	0.1195	1114883	keystroke_l	l	n/a
557.5765	0.0745	1115153	keystroke_d	d	n/a
557.771	0.075	1115542	keystroke_e	e	n/a
557.817	0.089	1115634	keystroke_r	r	n/a
557.982	0.1675	1115964	keystroke_s	s	n/a
558.131	0.1045	1116262	keystroke_Key.space	Key.space	n/a
558.401	0.09	1116802	keystroke_c	c	n/a
558.491	0.1355	1116982	keystroke_a	a	n/a
558.6135	0.102	1117227	keystroke_r	r	n/a
558.8065	0.1045	1117613	keystroke_l	l	n/a
559.016	0.1045	1118032	keystroke_o	o	n/a
559.151	0.0925	1118302	keystroke_Key.space	Key.space	n/a
559.271	0.105	1118542	keystroke_s	s	n/a
559.391	0.075	1118782	keystroke_h	h	n/a
559.586	0.075	1119172	keystroke_u	u	n/a
559.736	0.0755	1119472	keystroke_t	t	n/a
559.8415	0.09	1119683	keystroke_Key.enter	Key.enter	n/a
559.935	6.657	1119870	prompt	n/a	electron hugh executed diet\n
561.101	0.06	1122202	keystroke_e	e	n/a
561.206	0.1055	1122412	keystroke_l	l	n/a
561.3265	0.0595	1122653	keystroke_e	e	n/a
561.5365	0.1195	1123073	keystroke_c	c	n/a
561.6415	0.0895	1123283	keystroke_t	t	n/a
561.881	0.075	1123762	keystroke_r	r	n/a
561.9705	0.151	1123941	keystroke_o	o	n/a
562.1365	0.075	1124273	keystroke_n	n	n/a
562.271	0.105	1124542	keystroke_Key.space	Key.space	n/a
562.466	0.062	1124932	keystroke_h	h	n/a
562.646	0.0905	1125292	keystroke_u	u	n/a
562.7365	0.0895	1125473	keystroke_g	g	n/a
562.9315	0.0745	1125863	keystroke_h	h	n/a
563.096	0.075	1126192	keystroke_Key.space	Key.space	n/a
563.322	0.089	1126644	keystroke_e	e	n/a
563.516	0.15	1127032	keystroke_x	x	n/a
563.8465	0.1065	1127693	keystroke_e	e	n/a
564.101	0.09	1128202	keystroke_c	c	n/a
564.3415	0.075	1128683	keystroke_u	u	n/a
564.5065	0.1045	1129013	keystroke_t	t	n/a
564.5965	0.0895	1129193	keystroke_e	e	n/a
564.8065	0.12	1129613	keystroke_d	d	n/a
564.881	0.12	1129762	keystroke_Key.space	Key.space	n/a
565.0615	0.12	1130123	keystroke_d	d	n/a
565.196	0.09	1130392	keystroke_i	i	n/a
565.4215	0.09	1130843	keystroke_t	t	n/a
565.541	0.09	1131082	keystroke_e	e	n/a
565.8115	0.0595	1131623	keystroke_Key.backspace	Key.backspace	n/a
565.9765	0.09	1131953	keystroke_Key.backspace	Key.backspace	n/a
566.0815	0.1045	1132163	keystroke_e	e	n/a
566.1565	0.0895	1132313	keystroke_t	t	n/a
566.501	0.09	1133002	keystroke_Key.enter	Key.enter	n/a
566.595	8.472	1133190	prompt	n/a	administrator critics colony glasses\n
567.371	0.1205	1134742	keystroke_a	a	n/a
567.5065	0.1195	1135013	keystroke_d	d	n/a
567.7335	0.1325	1135467	keystroke_m	m	n/a
567.7765	0.105	1135553	keystroke_i	i	n/a
567.971	0.165	1135942	keystroke_n	n	n/a
568.0765	0.09	1136153	keystroke_i	i	n/a
568.2865	0.09	1136573	keystroke_s	s	n/a
568.331	0.1055	1136662	keystroke_t	t	n/a
568.529	0.087	1137058	keystroke_a	a	n/a
568.571	0.135	1137142	keystroke_r	r	n/a
568.931	0.063	1137862	keystroke_Key.backspace	Key.backspace	n/a
569.096	0.09	1138192	keystroke_Key.backspace	Key.backspace	n/a
569.216	0.15	1138432	keystroke_r	r	n/a
569.2915	0.15	1138583	keystroke_a	a	n/a
569.501	0.105	1139002	keystroke_t	t	n/a
569.711	0.09	1139422	keystroke_o	o	n/a
569.9515	0.1495	1139903	keystroke_r	r	n/a
570.131	0.122	1140262	keystroke_Key.space	Key.space	n/a
570.581	0.075	1141162	keystroke_c	c	n/a
570.776	0.1205	1141552	keystroke_r	r	n/a
570.9415	0.109	1141883	keystroke_i	i	n/a
571.1665	0.075	1142333	keystroke_t	t	n/a
571.271	0.12	1142542	keystroke_i	i	n/a
571.406	0.1355	1142812	keystroke_c	c	n/a
571.6465	0.166	1143293	keystroke_s	s	n/a
571.7515	0.1345	1143503	keystroke_Key.space	Key.space	n/a
572.321	0.1355	1144642	keystroke_c	c	n/a
572.426	0.06	1144852	keystroke_o	o	n/a
572.608	0.0735	1145216	keystroke_l	l	n/a
572.8315	0.0895	1145663	keystroke_o	o	n/a
573.131	0.075	1146262	keystroke_n	n	n/a
573.341	0.09	1146682	keystroke_y	y	n/a
573.4465	0.1195	1146893	keystroke_Key.space	Key.space	n/a
573.7025	0.1035	1147405	keystroke_g	g	n/a
573.956	0.105	1147912	keystroke_l	l	n/a
574.0765	0.1045	1148153	keystroke_a	a	n/a
574.301	0.06	1148602	keystroke_s	s	n/a
574.436	0.1345	1148872	keystroke_s	s	n/a
574.541	0.105	1149082	keystroke_e	e	n/a
574.7215	0.105	1149443	keystroke_s	s	n/a
574.962	0.1045	1149924	keystroke_Key.enter	Key.enter	n/a
575.0695	5.623	1150139	prompt	n/a	talks watching football alias\n
575.846	0.075	1151692	keystroke_t	t	n/a
575.9365	0.0895	1151873	keystroke_a	a	n/a
576.041	0.151	1152082	keystroke_l	l	n/a
576.1315	0.12	1152263	keystroke_k	k	n/a
576.431	0.1655	1152862	keystroke_s	s	n/a
576.523	0.223	1153046	keystroke_Key.space	Key.space	n/a
577.1365	0.15	1154273	keystroke_w	w	n/a
577.2265	0.1345	1154453	keystroke_a	a	n/a
577.4215	0.09	1154843	keystroke_t	t	n/a
577.65	0.056	1155300	keystroke_c	c	n/a
577.7965	0.0895	1155593	keystroke_h	h	n/a
577.8265	0.15	1155653	keystroke_i	i	n/a
577.9915	0.122	1155983	keystroke_n	n	n/a
578.0815	0.1495	1156163	keystroke_g	g	n/a
578.186	0.1205	1156372	keystroke_Key.space	Key.space	n/a
578.4265	0.0745	1156853	keystroke_f	f	n/a
578.5315	0.075	1157063	keystroke_o	o	n/a
578.7265	0.0745	1157453	keystroke_o	o	n/a
578.8165	0.09	1157633	keystroke_t	t	n/a
579.2365	0.0905	1158473	keystroke_b	b	n/a
579.371	0.1055	1158742	keystroke_a	a	n/a
579.446	0.0755	1158892	keystroke_l	l	n/a
579.626	0.0905	1159252	keystroke_l	l	n/a
579.7615	0.12	1159523	keystroke_Key.space	Key.space	n/a
579.8965	0.1195	1159793	keystroke_a	a	n/a
580.031	0.18	1160062	keystroke_l	l	n/a
580.1215	0.1345	1160243	keystroke_i	i	n/a
580.271	0.1205	1160542	keystroke_a	a	n/a
580.3765	0.12	1160753	keystroke_s	s	n/a
580.586	0.105	1161172	keystroke_Key.enter	Key.enter	n/a
580.696	8.246	1161392	prompt	n/a	batman chair murphy appropriations\n
581.651	0.12	1163302	keystroke_b	b	n/a
581.786	0.1055	1163572	keystroke_a	a	n/a
581.894	0.072	1163788	keystroke_t	t	n/a
582.101	0.075	1164202	keystroke_m	m	n/a
582.1925	0.104	1164385	keystroke_a	a	n/a
582.2965	0.0745	1164593	keystroke_n	n	n/a
582.386	0.1055	1164772	keystroke_Key.space	Key.space	n/a
582.5365	0.1045	1165073	keystroke_c	c	n/a
582.6415	0.1195	1165283	keystroke_h	h	n/a
582.7465	0.0595	1165493	keystroke_i	i	n/a
583.1065	0.09	1166213	keystroke_Key.backspace	Key.backspace	n/a
583.242	0.1045	1166484	keystroke_a	a	n/a
583.3915	0.0745	1166783	keystroke_i	i	n/a
583.527	0.194	1167054	keystroke_r	r	n/a
583.7065	0.1945	1167413	keystroke_Key.space	Key.space	n/a
584.2165	0.0595	1168433	keystroke_m	m	n/a
584.4115	0.0895	1168823	keystroke_u	u	n/a
584.531	0.135	1169062	keystroke_r	r	n/a
584.771	0.1055	1169542	keystroke_p	p	n/a
584.8615	0.09	1169723	keystroke_h	h	n/a
585.0565	0.09	1170113	keystroke_y	y	n/a
585.1615	0.105	1170323	keystroke_Key.space	Key.space	n/a
585.416	0.09	1170832	keystroke_a	a	n/a
585.5365	0.09	1171073	keystroke_p	p	n/a
585.716	0.092	1171432	keystroke_p	p	n/a
585.851	0.1055	1171702	keystroke_r	r	n/a
585.941	0.1055	1171882	keystroke_o	o	n/a
587.1265	0.107	1174253	keystroke_p	p	n/a
587.3665	0.075	1174733	keystroke_o	o	n/a
587.6995	0.0715	1175399	keystroke_Key.backspace	Key.backspace	n/a
587.8465	0.1195	1175693	keystroke_r	r	n/a
587.9065	0.1045	1175813	keystroke_i	i	n/a
588.101	0.1205	1176202	keystroke_a	a	n/a
588.2515	0.1045	1176503	keystroke_t	t	n/a
588.401	0.2105	1176802	keystroke_i	i	n/a
588.5065	0.1205	1177013	keystroke_o	o	n/a
588.566	0.12	1177132	keystroke_n	n	n/a
588.6565	0.12	1177313	keystroke_s	s	n/a
588.8365	0.105	1177673	keystroke_Key.enter	Key.enter	n/a
588.945	5.533	1177890	prompt	n/a	moving extended disk management\n
589.6615	0.12	1179323	keystroke_m	m	n/a
589.7065	0.12	1179413	keystroke_o	o	n/a
589.841	0.06	1179682	keystroke_v	v	n/a
589.9465	0.1195	1179893	keystroke_i	i	n/a
590.0065	0.1195	1180013	keystroke_n	n	n/a
590.081	0.105	1180162	keystroke_g	g	n/a
590.171	0.1205	1180342	keystroke_Key.space	Key.space	n/a
590.3365	0.09	1180673	keystroke_e	e	n/a
590.517	0.1195	1181034	keystroke_x	x	n/a
590.6515	0.1195	1181303	keystroke_t	t	n/a
590.756	0.092	1181512	keystroke_e	e	n/a
590.8915	0.1045	1181783	keystroke_n	n	n/a
591.0265	0.1045	1182053	keystroke_d	d	n/a
591.2215	0.091	1182443	keystroke_e	e	n/a
591.401	0.105	1182802	keystroke_d	d	n/a
591.5215	0.12	1183043	keystroke_Key.space	Key.space	n/a
591.6565	0.1045	1183313	keystroke_s	s	n/a
592.0315	0.077	1184063	keystroke_Key.backspace	Key.backspace	n/a
592.1665	0.0895	1184333	keystroke_d	d	n/a
592.271	0.12	1184542	keystroke_i	i	n/a
592.4075	0.119	1184815	keystroke_s	s	n/a
592.646	0.1055	1185292	keystroke_k	k	n/a
592.766	0.1055	1185532	keystroke_Key.space	Key.space	n/a
593.203	0.0885	1186406	keystroke_m	m	n/a
593.2465	0.09	1186493	keystroke_a	a	n/a
593.3965	0.0745	1186793	keystroke_n	n	n/a
593.486	0.0905	1186972	keystroke_a	a	n/a
593.667	0.0745	1187334	keystroke_g	g	n/a
593.7415	0.12	1187483	keystroke_e	e	n/a
593.966	0.0905	1187932	keystroke_m	m	n/a
594.071	0.0755	1188142	keystroke_e	e	n/a
594.1765	0.075	1188353	keystroke_n	n	n/a
594.2215	0.0765	1188443	keystroke_t	t	n/a
594.431	0.0455	1188862	keystroke_Key.enter	Key.enter	n/a
594.4815	5.9055	1188963	prompt	n/a	dealers including sussex nobody\n
595.241	0.075	1190482	keystroke_d	d	n/a
595.4365	0.105	1190873	keystroke_e	e	n/a
595.5585	0.118	1191117	keystroke_a	a	n/a
595.6915	0.1045	1191383	keystroke_l	l	n/a
595.841	0.1055	1191682	keystroke_e	e	n/a
595.916	0.107	1191832	keystroke_r	r	n/a
596.0665	0.1495	1192133	keystroke_s	s	n/a
596.171	0.151	1192342	keystroke_Key.space	Key.space	n/a
596.426	0.075	1192852	keystroke_i	i	n/a
596.471	0.12	1192942	keystroke_n	n	n/a
596.606	0.0905	1193212	keystroke_c	c	n/a
596.7115	0.1195	1193423	keystroke_l	l	n/a
596.801	0.105	1193602	keystroke_u	u	n/a
596.8915	0.09	1193783	keystroke_d	d	n/a
596.9965	0.0895	1193993	keystroke_i	i	n/a
597.0565	0.12	1194113	keystroke_n	n	n/a
597.1465	0.15	1194293	keystroke_g	g	n/a
597.2365	0.1345	1194473	keystroke_Key.space	Key.space	n/a
597.4615	0.12	1194923	keystroke_s	s	n/a
597.5965	0.0895	1195193	keystroke_u	u	n/a
597.8215	0.091	1195643	keystroke_s	s	n/a
598.001	0.165	1196002	keystroke_s	s	n/a
598.1515	0.09	1196303	keystroke_e	e	n/a
598.4215	0.1495	1196843	keystroke_x	x	n/a
598.616	0.1055	1197232	keystroke_Key.space	Key.space	n/a
598.7965	0.1495	1197593	keystroke_n	n	n/a
598.901	0.1205	1197802	keystroke_o	o	n/a
599.1115	0.1045	1198223	keystroke_b	b	n/a
599.2765	0.09	1198553	keystroke_y	y	n/a
599.6065	0.06	1199213	keystroke_Key.backspace	Key.backspace	n/a
599.816	0.0755	1199632	keystroke_o	o	n/a
599.9065	0.09	1199813	keystroke_d	d	n/a
600.0415	0.0895	1200083	keystroke_y	y	n/a
600.3265	0.0595	1200653	keystroke_Key.enter	Key.enter	n/a
600.3895	6.7935	1200779	prompt	n/a	earth amended outer anniversary\n
601.166	0.1505	1202332	keystroke_e	e	n/a
601.2565	0.1645	1202513	keystroke_a	a	n/a
601.4365	0.1495	1202873	keystroke_r	r	n/a
601.8415	0.09	1203683	keystroke_t	t	n/a
601.9915	0.105	1203983	keystroke_h	h	n/a
602.1265	0.0895	1204253	keystroke_Key.space	Key.space	n/a
602.3665	0.075	1204733	keystroke_a	a	n/a
602.5315	0.0915	1205063	keystroke_m	m	n/a
602.6365	0.075	1205273	keystroke_e	e	n/a
602.771	0.0755	1205542	keystroke_n	n	n/a
602.9965	0.09	1205993	keystroke_d	d	n/a
603.1915	0.0745	1206383	keystroke_e	e	n/a
603.386	0.09	1206772	keystroke_d	d	n/a
603.4915	0.15	1206983	keystroke_Key.space	Key.space	n/a
603.701	0.1355	1207402	keystroke_o	o	n/a
603.8215	0.075	1207643	keystroke_u	u	n/a
603.941	0.0905	1207882	keystroke_t	t	n/a
604.0485	0.1335	1208097	keystroke_e	e	n/a
604.1665	0.1495	1208333	keystroke_r	r	n/a
604.271	0.1055	1208542	keystroke_Key.space	Key.space	n/a
604.4665	0.09	1208933	keystroke_a	a	n/a
604.5865	0.0745	1209173	keystroke_n	n	n/a
604.7815	0.1045	1209563	keystroke_n	n	n/a
604.871	0.0905	1209742	keystroke_i	i	n/a
605.0515	0.06	1210103	keystroke_v	v	n/a
605.186	0.123	1210372	keystroke_e	e	n/a
605.2765	0.09	1210553	keystroke_r	r	n/a
605.4115	0.15	1210823	keystroke_s	s	n/a
605.5765	0.12	1211153	keystroke_a	a	n/a
605.8015	0.0445	1211603	keystroke_r	r	n/a
606.191	0.0905	1212382	keystroke_y	y	n/a
607.062	0.1195	1214124	keystroke_Key.enter	Key.enter	n/a
607.1865	6.161	1214373	prompt	n/a	hill radius softball threaded\n
607.886	0.1355	1215772	keystroke_h	h	n/a
607.9615	0.105	1215923	keystroke_i	i	n/a
608.156	0.0905	1216312	keystroke_l	l	n/a
608.3515	0.09	1216703	keystroke_l	l	n/a
608.456	0.1055	1216912	keystroke_Key.space	Key.space	n/a
608.6365	0.1345	1217273	keystroke_r	r	n/a
608.712	0.1345	1217424	keystroke_a	a	n/a
608.8765	0.12	1217753	keystroke_d	d	n/a
609.0115	0.135	1218023	keystroke_i	i	n/a
609.1315	0.12	1218263	keystroke_u	u	n/a
609.2665	0.1495	1218533	keystroke_s	s	n/a
609.371	0.1505	1218742	keystroke_Key.space	Key.space	n/a
609.656	0.1205	1219312	keystroke_s	s	n/a
609.7915	0.105	1219583	keystroke_o	o	n/a
609.9415	0.09	1219883	keystroke_f	f	n/a
610.1665	0.0895	1220333	keystroke_t	t	n/a
610.5115	0.0595	1221023	keystroke_b	b	n/a
610.649	0.0875	1221298	keystroke_a	a	n/a
610.7515	0.063	1221503	keystroke_l	l	n/a
610.916	0.1055	1221832	keystroke_l	l	n/a
611.1125	0.104	1222225	keystroke_Key.space	Key.space	n/a
611.3065	0.0745	1222613	keystroke_t	t	n/a
611.4115	0.0745	1222823	keystroke_h	h	n/a
611.5615	0.12	1223123	keystroke_r	r	n/a
611.621	0.1215	1223242	keystroke_e	e	n/a
611.8165	0.18	1223633	keystroke_s	s	n/a
612.266	0.09	1224532	keystroke_Key.backspace	Key.backspace	n/a
612.401	0.1205	1224802	keystroke_a	a	n/a
612.5515	0.1045	1225103	keystroke_d	d	n/a
612.7615	0.06	1225523	keystroke_e	e	n/a
612.9265	0.09	1225853	keystroke_d	d	n/a
613.256	0.0905	1226512	keystroke_Key.enter	Key.enter	n/a
613.35	5.532	1226700	prompt	n/a	updated well summary newspapers\n
614.186	0.1055	1228372	keystroke_u	u	n/a
614.24	0.1115	1228480	keystroke_p	p	n/a
614.3815	0.135	1228763	keystroke_d	d	n/a
614.501	0.1055	1229002	keystroke_a	a	n/a
614.6215	0.107	1229243	keystroke_t	t	n/a
614.6815	0.0745	1229363	keystroke_e	e	n/a
614.876	0.1055	1229752	keystroke_d	d	n/a
614.967	0.104	1229934	keystroke_Key.space	Key.space	n/a
615.101	0.1655	1230202	keystroke_w	w	n/a
615.2515	0.1075	1230503	keystroke_e	e	n/a
615.446	0.077	1230892	keystroke_l	l	n/a
615.6265	0.09	1231253	keystroke_l	l	n/a
615.7465	0.09	1231493	keystroke_Key.space	Key.space	n/a
615.8965	0.1045	1231793	keystroke_s	s	n/a
616.0015	0.1045	1232003	keystroke_u	u	n/a
616.227	0.0595	1232454	keystroke_m	m	n/a
616.3915	0.075	1232783	keystroke_m	m	n/a
616.5115	0.0895	1233023	keystroke_a	a	n/a
616.7665	0.1045	1233533	keystroke_r	r	n/a
616.916	0.0755	1233832	keystroke_y	y	n/a
617.097	0.104	1234194	keystroke_Key.space	Key.space	n/a
617.4265	0.0745	1234853	keystroke_n	n	n/a
617.486	0.1655	1234972	keystroke_e	e	n/a
617.5765	0.1355	1235153	keystroke_w	w	n/a
617.8465	0.075	1235693	keystroke_s	s	n/a
618.056	0.0905	1236112	keystroke_p	p	n/a
618.1615	0.075	1236323	keystroke_a	a	n/a
618.2965	0.105	1236593	keystroke_p	p	n/a
618.401	0.1205	1236802	keystroke_e	e	n/a
618.4615	0.105	1236923	keystroke_r	r	n/a
618.5965	0.1495	1237193	keystroke_s	s	n/a
618.792	0.0895	1237584	keystroke_Key.enter	Key.enter	n/a
618.885	6.598	1237770	prompt	n/a	processor clara hans twelve\n
619.661	0.0605	1239322	keystroke_p	p	n/a
619.737	0.119	1239474	keystroke_r	r	n/a
619.841	0.105	1239682	keystroke_o	o	n/a
620.0215	0.09	1240043	keystroke_c	c	n/a
620.216	0.1055	1240432	keystroke_e	e	n/a
620.3215	0.06	1240643	keystroke_s	s	n/a
620.471	0.105	1240942	keystroke_s	s	n/a
620.6365	0.105	1241273	keystroke_o	o	n/a
620.7415	0.165	1241483	keystroke_r	r	n/a
620.8915	0.105	1241783	keystroke_Key.space	Key.space	n/a
621.0865	0.105	1242173	keystroke_c	c	n/a
621.2515	0.1045	1242503	keystroke_l	l	n/a
621.386	0.107	1242772	keystroke_a	a	n/a
621.821	0.136	1243642	keystroke_r	r	n/a
621.9415	0.1055	1243883	keystroke_a	a	n/a
622.1365	0.1195	1244273	keystroke_Key.space	Key.space	n/a
622.571	0.06	1245142	keystroke_h	h	n/a
622.631	0.1055	1245262	keystroke_a	a	n/a
622.8115	0.107	1245623	keystroke_n	n	n/a
622.9765	0.1795	1245953	keystroke_s	s	n/a
623.156	0.1055	1246312	keystroke_Key.space	Key.space	n/a
623.5165	0.12	1247033	keystroke_t	t	n/a
623.6065	0.1495	1247213	keystroke_w	w	n/a
623.9965	0.1045	1247993	keystroke_l	l	n/a
624.3715	0.075	1248743	keystroke_Key.backspace	Key.backspace	n/a
624.5065	0.075	1249013	keystroke_e	e	n/a
624.716	0.0945	1249432	keystroke_l	l	n/a
624.8815	0.15	1249763	keystroke_v	v	n/a
625.046	0.0905	1250092	keystroke_e	e	n/a
625.3765	0.105	1250753	keystroke_Key.enter	Key.enter	n/a
625.4865	7.0005	1250973	prompt	n/a	convinced receivers disclaimer loads\n
626.306	0.0705	1252612	keystroke_c	c	n/a
626.351	0.105	1252702	keystroke_o	o	n/a
626.4265	0.108	1252853	keystroke_n	n	n/a
626.5615	0.105	1253123	keystroke_v	v	n/a
626.6815	0.1045	1253363	keystroke_i	i	n/a
626.8015	0.105	1253603	keystroke_n	n	n/a
627.0415	0.09	1254083	keystroke_c	c	n/a
627.2815	0.06	1254563	keystroke_e	e	n/a
627.4615	0.075	1254923	keystroke_d	d	n/a
627.5815	0.1195	1255163	keystroke_Key.space	Key.space	n/a
627.7935	0.103	1255587	keystroke_r	r	n/a
627.8365	0.105	1255673	keystroke_e	e	n/a
628.0765	0.06	1256153	keystroke_c	c	n/a
628.26	0.071	1256520	keystroke_e	e	n/a
628.5115	0.0745	1257023	keystroke_i	i	n/a
628.7065	0.0895	1257413	keystroke_v	v	n/a
628.8415	0.1195	1257683	keystroke_e	e	n/a
629.0215	0.1495	1258043	keystroke_r	r	n/a
629.201	0.1955	1258402	keystroke_s	s	n/a
629.3815	0.1055	1258763	keystroke_Key.space	Key.space	n/a
629.561	0.1205	1259122	keystroke_d	d	n/a
629.7115	0.1065	1259423	keystroke_i	i	n/a
629.8465	0.15	1259693	keystroke_s	s	n/a
630.0115	0.1495	1260023	keystroke_c	c	n/a
630.2815	0.1045	1260563	keystroke_l	l	n/a
630.431	0.1055	1260862	keystroke_a	a	n/a
630.806	0.0905	1261612	keystroke_i	i	n/a
631.0165	0.075	1262033	keystroke_m	m	n/a
631.1365	0.1195	1262273	keystroke_e	e	n/a
631.227	0.0895	1262454	keystroke_r	r	n/a
631.4815	0.1045	1262963	keystroke_Key.space	Key.space	n/a
631.601	0.106	1263202	keystroke_l	l	n/a
631.8115	0.0895	1263623	keystroke_o	o	n/a
631.916	0.1235	1263832	keystroke_a	a	n/a
632.0215	0.1795	1264043	keystroke_d	d	n/a
632.186	0.1055	1264372	keystroke_s	s	n/a
632.4115	0.0745	1264823	keystroke_Key.enter	Key.enter	n/a
632.49	6.882	1264980	prompt	n/a	latvia smart multimedia country\n
633.386	0.091	1266772	keystroke_l	l	n/a
633.5215	0.105	1267043	keystroke_a	a	n/a
633.764	0.1025	1267528	keystroke_t	t	n/a
634.0915	0.075	1268183	keystroke_v	v	n/a
634.2115	0.105	1268423	keystroke_i	i	n/a
634.3615	0.1505	1268723	keystroke_a	a	n/a
634.5415	0.135	1269083	keystroke_Key.space	Key.space	n/a
634.7365	0.122	1269473	keystroke_s	s	n/a
634.9465	0.105	1269893	keystroke_m	m	n/a
635.081	0.12	1270162	keystroke_a	a	n/a
635.2165	0.106	1270433	keystroke_r	r	n/a
635.4415	0.105	1270883	keystroke_t	t	n/a
635.5915	0.105	1271183	keystroke_Key.space	Key.space	n/a
635.9365	0.0745	1271873	keystroke_m	m	n/a
636.1465	0.075	1272293	keystroke_u	u	n/a
636.3265	0.12	1272653	keystroke_l	l	n/a
636.596	0.0905	1273192	keystroke_t	t	n/a
636.686	0.1055	1273372	keystroke_i	i	n/a
636.8815	0.1195	1273763	keystroke_m	m	n/a
637.1965	0.0745	1274393	keystroke_e	e	n/a
637.4215	0.075	1274843	keystroke_d	d	n/a
637.571	0.0905	1275142	keystroke_i	i	n/a
637.722	0.1205	1275444	keystroke_a	a	n/a
637.931	0.0905	1275862	keystroke_Key.space	Key.space	n/a
638.1265	0.105	1276253	keystroke_c	c	n/a
638.3365	0.105	1276673	keystroke_o	o	n/a
638.4115	0.105	1276823	keystroke_u	u	n/a
638.6215	0.0895	1277243	keystroke_n	n	n/a
638.756	0.0755	1277512	keystroke_t	t	n/a
638.9375	0.089	1277875	keystroke_r	r	n/a
639.0415	0.1045	1278083	keystroke_y	y	n/a
639.297	0.074	1278594	keystroke_Key.enter	Key.enter	n/a
639.375	4.9925	1278750	prompt	n/a	would he'd handling generating\n
640.2115	0.135	1280423	keystroke_w	w	n/a
640.331	0.1205	1280662	keystroke_o	o	n/a
640.391	0.1205	1280782	keystroke_u	u	n/a
640.571	0.1205	1281142	keystroke_l	l	n/a
640.676	0.1655	1281352	keystroke_d	d	n/a
640.7815	0.135	1281563	keystroke_Key.space	Key.space	n/a
640.9935	0.103	1281987	keystroke_h	h	n/a
641.051	0.105	1282102	keystroke_e	e	n/a
641.293	0.1485	1282586	keystroke_'	'	n/a
641.501	0.1355	1283002	keystroke_d	d	n/a
641.606	0.15	1283212	keystroke_Key.space	Key.space	n/a
641.951	0.0905	1283902	keystroke_h	h	n/a
642.0265	0.0905	1284053	keystroke_a	a	n/a
642.1465	0.09	1284293	keystroke_n	n	n/a
642.207	0.1045	1284414	keystroke_d	d	n/a
642.341	0.1805	1284682	keystroke_l	l	n/a
642.4615	0.135	1284923	keystroke_i	i	n/a
642.553	0.118	1285106	keystroke_n	n	n/a
642.656	0.1355	1285312	keystroke_g	g	n/a
642.7465	0.105	1285493	keystroke_Key.space	Key.space	n/a
642.971	0.1355	1285942	keystroke_g	g	n/a
643.091	0.1055	1286182	keystroke_e	e	n/a
643.2415	0.09	1286483	keystroke_n	n	n/a
643.3765	0.15	1286753	keystroke_e	e	n/a
643.4515	0.1345	1286903	keystroke_r	r	n/a
643.616	0.1205	1287232	keystroke_a	a	n/a
643.8265	0.0895	1287653	keystroke_t	t	n/a
643.9465	0.105	1287893	keystroke_i	i	n/a
644.0065	0.135	1288013	keystroke_n	n	n/a
644.156	0.0605	1288312	keystroke_g	g	n/a
644.261	0.1055	1288522	keystroke_Key.enter	Key.enter	n/a
644.37	8.653	1288740	prompt	n/a	chronic cross individually strict\n
645.161	0.1055	1290322	keystroke_c	c	n/a
645.2815	0.091	1290563	keystroke_h	h	n/a
645.492	0.1195	1290984	keystroke_r	r	n/a
645.776	0.1055	1291552	keystroke_o	o	n/a
646.4065	0.21	1292813	keystroke_n	n	n/a
646.6015	0.09	1293203	keystroke_i	i	n/a
646.797	0.2095	1293594	keystroke_c	c	n/a
647.0215	0.1045	1294043	keystroke_Key.space	Key.space	n/a
647.3515	0.06	1294703	keystroke_c	c	n/a
647.6515	0.1045	1295303	keystroke_r	r	n/a
647.8465	0.0595	1295693	keystroke_s	s	n/a
648.356	0.0755	1296712	keystroke_Key.backspace	Key.backspace	n/a
648.5815	0.0895	1297163	keystroke_o	o	n/a
648.688	0.058	1297376	keystroke_s	s	n/a
648.8815	0.0895	1297763	keystroke_s	s	n/a
648.987	0.1045	1297974	keystroke_Key.space	Key.space	n/a
649.256	0.105	1298512	keystroke_i	i	n/a
649.3465	0.105	1298693	keystroke_n	n	n/a
649.4965	0.0745	1298993	keystroke_d	d	n/a
649.586	0.1055	1299172	keystroke_i	i	n/a
649.7515	0.0595	1299503	keystroke_v	v	n/a
649.8415	0.107	1299683	keystroke_i	i	n/a
649.9915	0.09	1299983	keystroke_d	d	n/a
650.171	0.0905	1300342	keystroke_u	u	n/a
650.306	0.0755	1300612	keystroke_a	a	n/a
650.4125	0.059	1300825	keystroke_l	l	n/a
650.579	0.102	1301158	keystroke_l	l	n/a
650.6965	0.105	1301393	keystroke_y	y	n/a
650.8165	0.135	1301633	keystroke_Key.space	Key.space	n/a
651.673	0.1185	1303346	keystroke_s	s	n/a
651.8215	0.1045	1303643	keystroke_t	t	n/a
652.0165	0.075	1304033	keystroke_r	r	n/a
652.0915	0.12	1304183	keystroke_i	i	n/a
652.271	0.09	1304542	keystroke_c	c	n/a
652.6765	0.15	1305353	keystroke_t	t	n/a
652.901	0.1205	1305802	keystroke_Key.enter	Key.enter	n/a
653.026	6.2665	1306052	prompt	n/a	mass handed kilometers carey\n
653.7415	0.09	1307483	keystroke_m	m	n/a
653.8165	0.09	1307633	keystroke_a	a	n/a
654.0275	0.0585	1308055	keystroke_s	s	n/a
654.193	0.1185	1308386	keystroke_s	s	n/a
654.2965	0.135	1308593	keystroke_Key.space	Key.space	n/a
654.658	0.0735	1309316	keystroke_h	h	n/a
654.7615	0.105	1309523	keystroke_a	a	n/a
654.8515	0.09	1309703	keystroke_n	n	n/a
654.9565	0.09	1309913	keystroke_d	d	n/a
655.1225	0.074	1310245	keystroke_e	e	n/a
655.3315	0.075	1310663	keystroke_d	d	n/a
655.5115	0.12	1311023	keystroke_Key.space	Key.space	n/a
656.0215	0.0755	1312043	keystroke_k	k	n/a
656.186	0.1055	1312372	keystroke_i	i	n/a
656.352	0.104	1312704	keystroke_l	l	n/a
656.5765	0.105	1313153	keystroke_o	o	n/a
656.8165	0.09	1313633	keystroke_m	m	n/a
656.9515	0.075	1313903	keystroke_e	e	n/a
657.1315	0.1205	1314263	keystroke_t	t	n/a
657.2665	0.1195	1314533	keystroke_e	e	n/a
657.3715	0.09	1314743	keystroke_r	r	n/a
657.5065	0.1645	1315013	keystroke_s	s	n/a
657.6265	0.15	1315253	keystroke_Key.space	Key.space	n/a
657.8815	0.1045	1315763	keystroke_c	c	n/a
657.971	0.165	1315942	keystroke_a	a	n/a
658.1515	0.1345	1316303	keystroke_r	r	n/a
658.1965	0.105	1316393	keystroke_e	e	n/a
658.4965	0.1195	1316993	keystroke_y	y	n/a
659.2165	0.075	1318433	keystroke_Key.enter	Key.enter	n/a
659.2985	6.399	1318597	prompt	n/a	assisted refined verde grain\n
659.9815	0.0745	1319963	keystroke_a	a	n/a
660.1165	0.075	1320233	keystroke_s	s	n/a
660.2815	0.0895	1320563	keystroke_s	s	n/a
660.4165	0.12	1320833	keystroke_i	i	n/a
660.5815	0.15	1321163	keystroke_s	s	n/a
660.7765	0.12	1321553	keystroke_t	t	n/a
660.9115	0.105	1321823	keystroke_e	e	n/a
661.152	0.0745	1322304	keystroke_d	d	n/a
661.227	0.1345	1322454	keystroke_Key.space	Key.space	n/a
661.8115	0.135	1323623	keystroke_r	r	n/a
661.871	0.1055	1323742	keystroke_e	e	n/a
662.1715	0.0745	1324343	keystroke_f	f	n/a
662.3065	0.12	1324613	keystroke_i	i	n/a
662.3815	0.12	1324763	keystroke_n	n	n/a
662.486	0.0755	1324972	keystroke_e	e	n/a
662.6855	0.0855	1325371	keystroke_d	d	n/a
662.786	0.0905	1325572	keystroke_Key.space	Key.space	n/a
663.012	0.0895	1326024	keystroke_v	v	n/a
663.1615	0.12	1326323	keystroke_e	e	n/a
663.2365	0.105	1326473	keystroke_r	r	n/a
663.5365	0.105	1327073	keystroke_d	d	n/a
663.7915	0.09	1327583	keystroke_e	e	n/a
664.0165	0.1195	1328033	keystroke_Key.space	Key.space	n/a
664.5265	0.105	1329053	keystroke_g	g	n/a
664.782	0.104	1329564	keystroke_r	r	n/a
664.901	0.1055	1329802	keystroke_a	a	n/a
665.0385	0.148	1330077	keystroke_i	i	n/a
665.127	0.1795	1330254	keystroke_n	n	n/a
665.6065	0.09	1331213	keystroke_Key.enter	Key.enter	n/a
665.701	7.1665	1331402	prompt	n/a	links assessment university truth\n
666.7465	0.1355	1333493	keystroke_l	l	n/a
666.8215	0.108	1333643	keystroke_i	i	n/a
666.9715	0.165	1333943	keystroke_n	n	n/a
667.122	0.12	1334244	keystroke_k	k	n/a
667.3765	0.1655	1334753	keystroke_s	s	n/a
667.4665	0.15	1334933	keystroke_Key.space	Key.space	n/a
667.7665	0.091	1335533	keystroke_a	a	n/a
667.946	0.077	1335892	keystroke_s	s	n/a
668.1265	0.12	1336253	keystroke_s	s	n/a
668.2615	0.105	1336523	keystroke_e	e	n/a
668.427	0.1495	1336854	keystroke_s	s	n/a
668.7715	0.075	1337543	keystroke_s	s	n/a
669.0265	0.105	1338053	keystroke_m	m	n/a
669.1465	0.105	1338293	keystroke_e	e	n/a
669.2835	0.0875	1338567	keystroke_n	n	n/a
669.4615	0.1205	1338923	keystroke_t	t	n/a
669.5965	0.1205	1339193	keystroke_Key.space	Key.space	n/a
669.8065	0.0595	1339613	keystroke_u	u	n/a
669.9865	0.135	1339973	keystroke_n	n	n/a
670.0915	0.105	1340183	keystroke_i	i	n/a
670.122	0.164	1340244	keystroke_v	v	n/a
670.4215	0.1495	1340843	keystroke_e	e	n/a
670.5265	0.1505	1341053	keystroke_r	r	n/a
670.8265	0.12	1341653	keystroke_s	s	n/a
670.9615	0.105	1341923	keystroke_i	i	n/a
671.1115	0.075	1342223	keystroke_t	t	n/a
671.262	0.1045	1342524	keystroke_y	y	n/a
671.5615	0.12	1343123	keystroke_Key.space	Key.space	n/a
672.1165	0.06	1344233	keystroke_t	t	n/a
672.2815	0.0895	1344563	keystroke_r	r	n/a
672.356	0.0905	1344712	keystroke_u	u	n/a
672.5215	0.0755	1345043	keystroke_t	t	n/a
672.5815	0.0745	1345163	keystroke_h	h	n/a
672.7765	0.09	1345553	keystroke_Key.enter	Key.enter	n/a
672.87	5.5345	1345740	prompt	n/a	wholesale mongolia rally sync\n
673.677	0.0895	1347354	keystroke_w	w	n/a
673.7815	0.135	1347563	keystroke_h	h	n/a
673.856	0.1205	1347712	keystroke_o	o	n/a
674.0965	0.1205	1348193	keystroke_l	l	n/a
674.2165	0.1195	1348433	keystroke_e	e	n/a
674.4865	0.1505	1348973	keystroke_s	s	n/a
674.6365	0.105	1349273	keystroke_a	a	n/a
674.8315	0.135	1349663	keystroke_l	l	n/a
674.936	0.135	1349872	keystroke_e	e	n/a
675.056	0.1205	1350112	keystroke_Key.space	Key.space	n/a
675.3415	0.105	1350683	keystroke_m	m	n/a
675.4315	0.135	1350863	keystroke_o	o	n/a
675.5525	0.104	1351105	keystroke_n	n	n/a
675.7915	0.092	1351583	keystroke_g	g	n/a
675.8965	0.105	1351793	keystroke_o	o	n/a
676.1215	0.1495	1352243	keystroke_l	l	n/a
676.2115	0.12	1352423	keystroke_i	i	n/a
676.3165	0.135	1352633	keystroke_a	a	n/a
676.4665	0.12	1352933	keystroke_Key.space	Key.space	n/a
676.6915	0.1205	1353383	keystroke_r	r	n/a
676.796	0.09	1353592	keystroke_a	a	n/a
676.9915	0.06	1353983	keystroke_l	l	n/a
677.156	0.1355	1354312	keystroke_l	l	n/a
677.2465	0.135	1354493	keystroke_y	y	n/a
677.382	0.119	1354764	keystroke_Key.space	Key.space	n/a
677.6075	0.104	1355215	keystroke_s	s	n/a
677.773	0.1035	1355546	keystroke_y	y	n/a
678.0115	0.1055	1356023	keystroke_n	n	n/a
678.161	0.1205	1356322	keystroke_c	c	n/a
678.327	0.0765	1356654	keystroke_Key.enter	Key.enter	n/a
678.407	6.746	1356814	prompt	n/a	pants slovak marijuana deserve\n
679.527	0.1195	1359054	keystroke_p	p	n/a
679.6315	0.105	1359263	keystroke_a	a	n/a
679.7515	0.06	1359503	keystroke_n	n	n/a
679.9165	0.09	1359833	keystroke_t	t	n/a
680.052	0.1645	1360104	keystroke_s	s	n/a
680.201	0.106	1360402	keystroke_Key.space	Key.space	n/a
680.696	0.12	1361392	keystroke_s	s	n/a
680.8315	0.093	1361663	keystroke_l	l	n/a
681.0415	0.09	1362083	keystroke_o	o	n/a
681.1765	0.12	1362353	keystroke_v	v	n/a
681.3115	0.12	1362623	keystroke_a	a	n/a
681.4915	0.12	1362983	keystroke_k	k	n/a
681.6565	0.075	1363313	keystroke_Key.space	Key.space	n/a
682.1365	0.075	1364273	keystroke_m	m	n/a
682.2265	0.105	1364453	keystroke_a	a	n/a
682.317	0.1195	1364634	keystroke_r	r	n/a
682.4515	0.12	1364903	keystroke_i	i	n/a
682.8865	0.075	1365773	keystroke_j	j	n/a
683.0815	0.0745	1366163	keystroke_u	u	n/a
683.2015	0.12	1366403	keystroke_a	a	n/a
683.4565	0.075	1366913	keystroke_n	n	n/a
683.6365	0.1075	1367273	keystroke_a	a	n/a
683.8165	0.1045	1367633	keystroke_Key.space	Key.space	n/a
683.967	0.0755	1367934	keystroke_d	d	n/a
684.147	0.09	1368294	keystroke_e	e	n/a
684.374	0.1475	1368748	keystroke_s	s	n/a
684.447	0.1345	1368894	keystroke_e	e	n/a
684.5395	0.087	1369079	keystroke_r	r	n/a
684.777	0.09	1369554	keystroke_v	v	n/a
684.897	0.0895	1369794	keystroke_e	e	n/a
685.077	0.075	1370154	keystroke_Key.enter	Key.enter	n/a
685.1565	5.7865	1370313	prompt	n/a	everybody alot used shaw\n
686.0365	0.0905	1372073	keystroke_e	e	n/a
686.3365	0.105	1372673	keystroke_v	v	n/a
686.456	0.1205	1372912	keystroke_e	e	n/a
686.562	0.0595	1373124	keystroke_r	r	n/a
686.8165	0.12	1373633	keystroke_y	y	n/a
687.2665	0.091	1374533	keystroke_b	b	n/a
687.3715	0.105	1374743	keystroke_o	o	n/a
687.4915	0.09	1374983	keystroke_d	d	n/a
687.6415	0.105	1375283	keystroke_y	y	n/a
687.747	0.15	1375494	keystroke_Key.space	Key.space	n/a
688.5425	0.105	1377085	keystroke_a	a	n/a
688.619	0.0725	1377238	keystroke_l	l	n/a
688.812	0.135	1377624	keystroke_o	o	n/a
688.9515	0.1	1377903	keystroke_t	t	n/a
689.0665	0.105	1378133	keystroke_Key.space	Key.space	n/a
689.337	0.1045	1378674	keystroke_u	u	n/a
689.427	0.15	1378854	keystroke_s	s	n/a
689.4715	0.1355	1378943	keystroke_e	e	n/a
689.727	0.105	1379454	keystroke_d	d	n/a
689.8175	0.1195	1379635	keystroke_Key.space	Key.space	n/a
690.0715	0.1055	1380143	keystroke_s	s	n/a
690.207	0.105	1380414	keystroke_h	h	n/a
690.343	0.149	1380686	keystroke_a	a	n/a
690.522	0.1495	1381044	keystroke_w	w	n/a
690.837	0.105	1381674	keystroke_Key.enter	Key.enter	n/a
690.946	6.3565	1381892	prompt	n/a	closest fresh glad closure\n
691.812	0.0905	1383624	keystroke_c	c	n/a
691.9165	0.0605	1383833	keystroke_l	l	n/a
692.082	0.0745	1384164	keystroke_o	o	n/a
692.1715	0.1655	1384343	keystroke_s	s	n/a
692.2465	0.1205	1384493	keystroke_e	e	n/a
692.4865	0.15	1384973	keystroke_s	s	n/a
692.698	0.149	1385396	keystroke_Key.space	Key.space	n/a
692.967	0.0895	1385934	keystroke_t	t	n/a
693.282	0.06	1386564	keystroke_Key.backspace	Key.backspace	n/a
693.447	0.0745	1386894	keystroke_Key.backspace	Key.backspace	n/a
693.552	0.1495	1387104	keystroke_t	t	n/a
693.6715	0.1505	1387343	keystroke_Key.space	Key.space	n/a
694.0315	0.0925	1388063	keystroke_f	f	n/a
694.242	0.105	1388484	keystroke_r	r	n/a
694.3015	0.105	1388603	keystroke_e	e	n/a
694.4815	0.106	1388963	keystroke_s	s	n/a
694.677	0.06	1389354	keystroke_h	h	n/a
694.8265	0.1205	1389653	keystroke_Key.space	Key.space	n/a
695.262	0.075	1390524	keystroke_g	g	n/a
695.4715	0.0905	1390943	keystroke_l	l	n/a
695.577	0.105	1391154	keystroke_a	a	n/a
695.802	0.09	1391604	keystroke_d	d	n/a
695.8925	0.0895	1391785	keystroke_Key.space	Key.space	n/a
696.1165	0.1205	1392233	keystroke_c	c	n/a
696.2675	0.0595	1392535	keystroke_l	l	n/a
696.447	0.075	1392894	keystroke_o	o	n/a
696.6445	0.1475	1393289	keystroke_s	s	n/a
696.882	0.0745	1393764	keystroke_u	u	n/a
697.032	0.0775	1394064	keystroke_r	r	n/a
697.047	0.0895	1394094	keystroke_e	e	n/a
697.197	0.1045	1394394	keystroke_Key.enter	Key.enter	n/a
697.3065	10.6615	1394613	prompt	n/a	mechanism cabin march speaks\n
698.2615	0.0605	1396523	keystroke_m	m	n/a
698.369	0.0875	1396738	keystroke_e	e	n/a
698.592	0.0755	1397184	keystroke_c	c	n/a
698.712	0.0745	1397424	keystroke_h	h	n/a
698.817	0.09	1397634	keystroke_a	a	n/a
698.9365	0.1205	1397873	keystroke_n	n	n/a
699.057	0.0895	1398114	keystroke_i	i	n/a
699.162	0.105	1398324	keystroke_s	s	n/a
699.342	0.105	1398684	keystroke_m	m	n/a
699.522	0.12	1399044	keystroke_Key.space	Key.space	n/a
699.822	0.1195	1399644	keystroke_c	c	n/a
699.9565	0.09	1399913	keystroke_a	a	n/a
700.1365	0.0905	1400273	keystroke_b	b	n/a
700.317	0.075	1400634	keystroke_i	i	n/a
700.362	0.15	1400724	keystroke_n	n	n/a
700.497	0.1195	1400994	keystroke_Key.space	Key.space	n/a
700.692	0.075	1401384	keystroke_m	m	n/a
700.782	0.1195	1401564	keystroke_a	a	n/a
700.8865	0.1055	1401773	keystroke_r	r	n/a
701.112	0.0775	1402224	keystroke_c	c	n/a
701.2315	0.1055	1402463	keystroke_h	h	n/a
701.3535	0.088	1402707	keystroke_Key.space	Key.space	n/a
701.637	0.105	1403274	keystroke_s	s	n/a
701.8015	0.091	1403603	keystroke_p	p	n/a
701.892	0.12	1403784	keystroke_e	e	n/a
702.0865	0.1205	1404173	keystroke_a	a	n/a
702.312	0.0745	1404624	keystroke_k	k	n/a
702.462	0.105	1404924	keystroke_e	e	n/a
702.522	0.105	1405044	keystroke_r	r	n/a
702.6565	0.076	1405313	keystroke_s	s	n/a
702.913	0.0735	1405826	keystroke_Key.backspace	Key.backspace	n/a
703.0785	0.0885	1406157	keystroke_Key.backspace	Key.backspace	n/a
703.2455	0.1015	1406491	keystroke_s	s	n/a
704.217	0.03	1408434	keystroke_Key.backspace	Key.backspace	n/a
704.382	0.1045	1408764	keystroke_=	=	n/a
704.7115	0.092	1409423	keystroke_=	=	n/a
704.9065	0.1055	1409813	keystroke_s	s	n/a
705.7015	0.12	1411403	keystroke_Key.backspace	Key.backspace	n/a
705.912	0.09	1411824	keystroke_Key.backspace	Key.backspace	n/a
706.1215	0.0765	1412243	keystroke_Key.backspace	Key.backspace	n/a
706.5865	0.0905	1413173	keystroke_Key.backspace	Key.backspace	n/a
707.367	0.075	1414734	keystroke_s	s	n/a
707.8465	0.1205	1415693	keystroke_Key.enter	Key.enter	n/a
707.971	9.0725	1415942	prompt	n/a	bookmark chen jerusalem successful\n
709.752	0.1045	1419504	keystroke_b	b	n/a
709.857	0.0755	1419714	keystroke_o	o	n/a
710.037	0.1495	1420074	keystroke_o	o	n/a
710.127	0.12	1420254	keystroke_k	k	n/a
710.412	0.0895	1420824	keystroke_m	m	n/a
710.5165	0.1055	1421033	keystroke_a	a	n/a
710.6075	0.1195	1421215	keystroke_r	r	n/a
710.8465	0.0755	1421693	keystroke_k	k	n/a
711.012	0.0915	1422024	keystroke_Key.space	Key.space	n/a
711.3715	0.075	1422743	keystroke_c	c	n/a
711.492	0.09	1422984	keystroke_h	h	n/a
711.612	0.0595	1423224	keystroke_e	e	n/a
711.702	0.105	1423404	keystroke_n	n	n/a
711.822	0.12	1423644	keystroke_Key.space	Key.space	n/a
712.122	0.09	1424244	keystroke_j	j	n/a
712.3765	0.121	1424753	keystroke_e	e	n/a
712.677	0.105	1425354	keystroke_r	r	n/a
712.9955	0.1015	1425991	keystroke_u	u	n/a
713.307	0.105	1426614	keystroke_s	s	n/a
713.4865	0.1055	1426973	keystroke_a	a	n/a
713.652	0.1045	1427304	keystroke_l	l	n/a
713.8765	0.151	1427753	keystroke_e	e	n/a
714.237	0.1515	1428474	keystroke_m	m	n/a
714.432	0.1215	1428864	keystroke_Key.space	Key.space	n/a
715.062	0.09	1430124	keystroke_s	s	n/a
715.184	0.088	1430368	keystroke_u	u	n/a
715.3165	0.0755	1430633	keystroke_c	c	n/a
715.497	0.045	1430994	keystroke_c	c	n/a
715.6775	0.104	1431355	keystroke_e	e	n/a
715.872	0.0595	1431744	keystroke_s	s	n/a
716.037	0.105	1432074	keystroke_s	s	n/a
716.352	0.045	1432704	keystroke_f	f	n/a
716.4715	0.1505	1432943	keystroke_u	u	n/a
716.667	0.12	1433334	keystroke_l	l	n/a
716.937	0.105	1433874	keystroke_Key.enter	Key.enter	n/a
717.0465	12.5365	1434093	prompt	n/a	infinite appreciate suggestions inter\n
718.3335	0.1185	1436667	keystroke_i	i	n/a
718.347	0.1645	1436694	keystroke_n	n	n/a
719.607	0.09	1439214	keystroke_f	f	n/a
719.7715	0.122	1439543	keystroke_i	i	n/a
720.327	0.0895	1440654	keystroke_n	n	n/a
720.777	0.12	1441554	keystroke_i	i	n/a
721.137	0.1495	1442274	keystroke_t	t	n/a
721.407	0.09	1442814	keystroke_e	e	n/a
721.6765	0.1075	1443353	keystroke_Key.space	Key.space	n/a
723.4165	0.1205	1446833	keystroke_a	a	n/a
723.6865	0.0905	1447373	keystroke_p	p	n/a
724.332	0.1375	1448664	keystroke_p	p	n/a
724.737	0.135	1449474	keystroke_r	r	n/a
724.812	0.1225	1449624	keystroke_e	e	n/a
725.1	0.102	1450200	keystroke_c	c	n/a
725.187	0.0905	1450374	keystroke_i	i	n/a
