onset	duration	sample	value	key	prompt_text
18.393	10.321	36786	prompt	n/a	the quick brown fox jumps over a lazy dog\n
20.2375	0.029	40475	keystroke_t	t	n/a
20.2805	0.075	40561	keystroke_h	h	n/a
20.3705	0.1355	40741	keystroke_e	e	n/a
20.4605	0.12	40921	keystroke_Key.space	Key.space	n/a
20.685	0.1055	41370	keystroke_q	q	n/a
20.805	0.06	41610	keystroke_u	u	n/a
20.97	0.09	41940	keystroke_i	i	n/a
21.09	0.1055	42180	keystroke_c	c	n/a
21.21	0.12	42420	keystroke_k	k	n/a
21.3155	0.09	42631	keystroke_Key.space	Key.space	n/a
21.51	0.0755	43020	keystroke_b	b	n/a
21.615	0.105	43230	keystroke_r	r	n/a
21.7355	0.0745	43471	keystroke_o	o	n/a
21.855	0.1205	43710	keystroke_w	w	n/a
21.9605	0.0745	43921	keystroke_n	n	n/a
21.9905	0.1195	43981	keystroke_Key.space	Key.space	n/a
22.2155	0.105	44431	keystroke_f	f	n/a
22.365	0.09	44730	keystroke_o	o	n/a
22.5605	0.1045	45121	keystroke_x	x	n/a
22.74	0.09	45480	keystroke_Key.space	Key.space	n/a
22.9655	0.0895	45931	keystroke_j	j	n/a
23.19	0.0905	46380	keystroke_u	u	n/a
23.4455	0.075	46891	keystroke_m	m	n/a
23.731	0.059	47462	keystroke_s	s	n/a
23.8805	0.0305	47761	keystroke_p	p	n/a
24.1205	0.0595	48241	keystroke_Key.backspace	Key.backspace	n/a
24.2555	0.0595	48511	keystroke_Key.backspace	Key.backspace	n/a
24.4955	0.045	48991	keystroke_p	p	n/a
24.5705	0.1195	49141	keystroke_s	s	n/a
24.8105	0.0895	49621	keystroke_Key.space	Key.space	n/a
25.17	0.0755	50340	keystroke_v	v	n/a
25.2905	0.1195	50581	keystroke_o	o	n/a
25.605	0.0605	51210	keystroke_Key.backspace	Key.backspace	n/a
25.74	0.0605	51480	keystroke_Key.backspace	Key.backspace	n/a
25.981	0.089	51962	keystroke_o	o	n/a
26.0555	0.12	52111	keystroke_v	v	n/a
26.34	0.15	52680	keystroke_e	e	n/a
26.4605	0.1195	52921	keystroke_r	r	n/a
26.535	0.12	53070	keystroke_Key.space	Key.space	n/a
26.7	0.121	53400	keystroke_a	a	n/a
26.79	0.105	53580	keystroke_Key.space	Key.space	n/a
26.985	0.135	53970	keystroke_l	l	n/a
27.135	0.061	54270	keystroke_a	a	n/a
27.376	0.105	54752	keystroke_z	z	n/a
27.5405	0.09	55081	keystroke_y	y	n/a
27.6755	0.135	55351	keystroke_Key.space	Key.space	n/a
28.0505	0.135	56101	keystroke_d	d	n/a
28.2155	0.105	56431	keystroke_o	o	n/a
28.3955	0.09	56791	keystroke_g	g	n/a
28.6055	0.105	57211	keystroke_Key.enter	Key.enter	n/a
28.7205	5.122	57441	prompt	n/a	claims fonts probably animals\n
29.4	0.1205	58800	keystroke_c	c	n/a
29.506	0.134	59012	keystroke_l	l	n/a
29.625	0.105	59250	keystroke_a	a	n/a
29.791	0.0895	59582	keystroke_i	i	n/a
29.836	0.1495	59672	keystroke_m	m	n/a
29.97	0.105	59940	keystroke_s	s	n/a
30.06	0.105	60120	keystroke_Key.space	Key.space	n/a
30.256	0.1045	60512	keystroke_f	f	n/a
30.4355	0.12	60871	keystroke_o	o	n/a
30.541	0.1035	61082	keystroke_n	n	n/a
30.6755	0.12	61351	keystroke_t	t	n/a
30.8095	0.121	61619	keystroke_s	s	n/a
30.8555	0.164	61711	keystroke_Key.space	Key.space	n/a
31.1545	0.106	62309	keystroke_p	p	n/a
31.3055	0.0905	62611	keystroke_r	r	n/a
31.44	0.0755	62880	keystroke_o	o	n/a
31.6655	0.09	63331	keystroke_b	b	n/a
31.7705	0.09	63541	keystroke_a	a	n/a
31.8755	0.09	63751	keystroke_b	b	n/a
32.0855	0.12	64171	keystroke_l	l	n/a
32.2655	0.105	64531	keystroke_y	y	n/a
32.3405	0.12	64681	keystroke_Key.space	Key.space	n/a
32.6705	0.09	65341	keystroke_a	a	n/a
32.79	0.075	65580	keystroke_n	n	n/a
32.9405	0.06	65881	keystroke_i	i	n/a
33.1655	0.075	66331	keystroke_m	m	n/a
33.2405	0.105	66481	keystroke_a	a	n/a
33.4505	0.0895	66901	keystroke_l	l	n/a
33.541	0.104	67082	keystroke_s	s	n/a
33.735	0.1055	67470	keystroke_Key.enter	Key.enter	n/a
33.847	5.2315	67694	prompt	n/a	part summary gathered through\n
34.4855	0.105	68971	keystroke_p	p	n/a
34.605	0.12	69210	keystroke_a	a	n/a
34.8	0.0755	69600	keystroke_r	r	n/a
34.995	0.0905	69990	keystroke_t	t	n/a
35.0555	0.1195	70111	keystroke_Key.space	Key.space	n/a
35.25	0.075	70500	keystroke_s	s	n/a
35.3405	0.075	70681	keystroke_u	u	n/a
35.5655	0.0595	71131	keystroke_m	m	n/a
35.6855	0.0745	71371	keystroke_m	m	n/a
35.791	0.119	71582	keystroke_a	a	n/a
35.9705	0.1055	71941	keystroke_r	r	n/a
36.15	0.0755	72300	keystroke_y	y	n/a
36.195	0.1045	72390	keystroke_Key.space	Key.space	n/a
36.3905	0.075	72781	keystroke_g	g	n/a
36.4955	0.105	72991	keystroke_a	a	n/a
36.6595	0.091	73319	keystroke_t	t	n/a
36.7955	0.075	73591	keystroke_h	h	n/a
36.8705	0.1345	73741	keystroke_e	e	n/a
36.9755	0.1195	73951	keystroke_r	r	n/a
37.32	0.09	74640	keystroke_e	e	n/a
37.53	0.0905	75060	keystroke_d	d	n/a
37.605	0.12	75210	keystroke_Key.space	Key.space	n/a
37.8155	0.1045	75631	keystroke_t	t	n/a
37.965	0.091	75930	keystroke_h	h	n/a
38.2355	0.09	76471	keystroke_r	r	n/a
38.3555	0.089	76711	keystroke_o	o	n/a
38.5345	0.09	77069	keystroke_u	u	n/a
38.6555	0.075	77311	keystroke_g	g	n/a
38.7605	0.0895	77521	keystroke_h	h	n/a
38.9705	0.1045	77941	keystroke_Key.enter	Key.enter	n/a
39.0845	4.5375	78169	prompt	n/a	thermal funded justin cakes\n
39.6905	0.105	79381	keystroke_t	t	n/a
39.7805	0.075	79561	keystroke_h	h	n/a
39.8855	0.1345	79771	keystroke_e	e	n/a
39.9905	0.09	79981	keystroke_r	r	n/a
40.1555	0.0745	80311	keystroke_m	m	n/a
40.245	0.106	80490	keystroke_a	a	n/a
40.366	0.0895	80732	keystroke_l	l	n/a
40.4705	0.105	80941	keystroke_Key.space	Key.space	n/a
40.665	0.09	81330	keystroke_f	f	n/a
40.831	0.1345	81662	keystroke_u	u	n/a
40.905	0.1205	81810	keystroke_n	n	n/a
41.0555	0.0745	82111	keystroke_d	d	n/a
41.28	0.045	82560	keystroke_e	e	n/a
41.445	0.1205	82890	keystroke_d	d	n/a
41.535	0.12	83070	keystroke_Key.space	Key.space	n/a
41.7	0.0905	83400	keystroke_j	j	n/a
41.8805	0.075	83761	keystroke_u	u	n/a
41.9255	0.09	83851	keystroke_s	s	n/a
42.15	0.09	84300	keystroke_t	t	n/a
42.285	0.1055	84570	keystroke_i	i	n/a
42.36	0.0905	84720	keystroke_n	n	n/a
42.4355	0.105	84871	keystroke_Key.space	Key.space	n/a
42.6605	0.105	85321	keystroke_c	c	n/a
42.7805	0.105	85561	keystroke_a	a	n/a
43.0055	0.0905	86011	keystroke_k	k	n/a
43.1405	0.15	86281	keystroke_e	e	n/a
43.3055	0.1355	86611	keystroke_s	s	n/a
43.515	0.105	87030	keystroke_Key.enter	Key.enter	n/a
43.6275	6.76	87255	prompt	n/a	brought insects rugby forest\n
44.311	0.0595	88622	keystroke_b	b	n/a
44.4005	0.09	88801	keystroke_r	r	n/a
44.5355	0.0745	89071	keystroke_o	o	n/a
44.745	0.06	89490	keystroke_u	u	n/a
44.82	0.075	89640	keystroke_g	g	n/a
44.9705	0.0745	89941	keystroke_h	h	n/a
45.0605	0.0905	90121	keystroke_t	t	n/a
45.12	0.12	90240	keystroke_Key.space	Key.space	n/a
45.3	0.105	90600	keystroke_i	i	n/a
45.375	0.106	90750	keystroke_n	n	n/a
45.5105	0.075	91021	keystroke_s	s	n/a
45.855	0.075	91710	keystroke_e	e	n/a
46.095	0.0905	92190	keystroke_c	c	n/a
46.395	0.12	92790	keystroke_t	t	n/a
46.5305	0.135	93061	keystroke_s	s	n/a
46.575	0.1945	93150	keystroke_Key.space	Key.space	n/a
47.1605	0.075	94321	keystroke_r	r	n/a
47.5055	0.105	95011	keystroke_u	u	n/a
47.8055	0.09	95611	keystroke_g	g	n/a
48.0455	0.105	96091	keystroke_b	b	n/a
48.3595	0.076	96719	keystroke_y	y	n/a
48.5705	0.105	97141	keystroke_Key.space	Key.space	n/a
49.5005	0.0445	99001	keystroke_f	f	n/a
49.5905	0.105	99181	keystroke_o	o	n/a
49.7255	0.135	99451	keystroke_r	r	n/a
49.8305	0.135	99661	keystroke_e	e	n/a
49.95	0.1055	99900	keystroke_s	s	n/a
50.1155	0.09	100231	keystroke_t	t	n/a
50.2805	0.105	100561	keystroke_Key.enter	Key.enter	n/a
50.3915	8.5775	100783	prompt	n/a	selection vice gateway calculated\n
51.046	0.119	102092	keystroke_s	s	n/a
51.24	0.06	102480	keystroke_e	e	n/a
51.255	0.09	102510	keystroke_l	l	n/a
51.375	0.0905	102750	keystroke_e	e	n/a
51.615	0.076	103230	keystroke_c	c	n/a
51.87	0.0605	103740	keystroke_t	t	n/a
51.99	0.0605	103980	keystroke_i	i	n/a
52.245	0.106	104490	keystroke_n	n	n/a
52.8155	0.075	105631	keystroke_Key.backspace	Key.backspace	n/a
53.0855	0.135	106171	keystroke_o	o	n/a
53.2055	0.09	106411	keystroke_n	n	n/a
53.355	0.105	106710	keystroke_Key.space	Key.space	n/a
53.625	0.0905	107250	keystroke_v	v	n/a
53.79	0.0905	107580	keystroke_i	i	n/a
54.1805	0.1055	108361	keystroke_c	c	n/a
54.42	0.1205	108840	keystroke_e	e	n/a
54.4955	0.12	108991	keystroke_Key.space	Key.space	n/a
54.7805	0.06	109561	keystroke_g	g	n/a
54.9305	0.09	109861	keystroke_a	a	n/a
55.1255	0.135	110251	keystroke_t	t	n/a
55.2455	0.105	110491	keystroke_e	e	n/a
55.5005	0.12	111001	keystroke_w	w	n/a
55.6055	0.09	111211	keystroke_a	a	n/a
55.77	0.075	111540	keystroke_y	y	n/a
55.875	0.105	111750	keystroke_Key.space	Key.space	n/a
56.1155	0.12	112231	keystroke_c	c	n/a
56.2805	0.105	112561	keystroke_a	a	n/a
56.326	0.12	112652	keystroke_l	l	n/a
57.465	0.1055	114930	keystroke_c	c	n/a
57.5555	0.105	115111	keystroke_u	u	n/a
57.8105	0.105	115621	keystroke_l	l	n/a
57.885	0.121	115770	keystroke_a	a	n/a
58.125	0.105	116250	keystroke_t	t	n/a
58.2455	0.0745	116491	keystroke_e	e	n/a
58.681	0.1195	117362	keystroke_d	d	n/a
58.846	0.1195	117692	keystroke_Key.enter	Key.enter	n/a
58.9745	6.85	117949	prompt	n/a	penguin chest coaches enabling\n
60.03	0.075	120060	keystroke_p	p	n/a
60.1505	0.1055	120301	keystroke_e	e	n/a
60.3145	0.091	120629	keystroke_n	n	n/a
60.5405	0.045	121081	keystroke_g	g	n/a
60.7945	0.1065	121589	keystroke_u	u	n/a
61.0805	0.06	122161	keystroke_i	i	n/a
61.411	0.1045	122822	keystroke_n	n	n/a
61.5905	0.105	123181	keystroke_Key.space	Key.space	n/a
61.891	0.1045	123782	keystroke_c	c	n/a
62.0105	0.09	124021	keystroke_h	h	n/a
62.2055	0.105	124411	keystroke_e	e	n/a
62.3855	0.105	124771	keystroke_s	s	n/a
62.5955	0.075	125191	keystroke_t	t	n/a
62.655	0.09	125310	keystroke_Key.space	Key.space	n/a
63.1345	0.091	126269	keystroke_c	c	n/a
63.361	0.1045	126722	keystroke_o	o	n/a
63.4805	0.09	126961	keystroke_a	a	n/a
63.675	0.091	127350	keystroke_c	c	n/a
63.795	0.0905	127590	keystroke_h	h	n/a
63.9305	0.165	127861	keystroke_e	e	n/a
64.0805	0.12	128161	keystroke_s	s	n/a
64.1555	0.12	128311	keystroke_Key.space	Key.space	n/a
64.3945	0.106	128789	keystroke_e	e	n/a
64.5145	0.076	129029	keystroke_n	n	n/a
64.7105	0.105	129421	keystroke_a	a	n/a
64.921	0.0895	129842	keystroke_b	b	n/a
65.1005	0.1345	130201	keystroke_l	l	n/a
65.4	0.09	130800	keystroke_i	i	n/a
65.4455	0.1195	130891	keystroke_n	n	n/a
65.5805	0.0905	131161	keystroke_g	g	n/a
65.715	0.1055	131430	keystroke_Key.enter	Key.enter	n/a
65.832	6.578	131664	prompt	n/a	activation heavily surfing faster\n
66.465	0.1505	132930	keystroke_a	a	n/a
66.7055	0.105	133411	keystroke_c	c	n/a
66.9755	0.0605	133951	keystroke_t	t	n/a
67.095	0.09	134190	keystroke_i	i	n/a
67.306	0.089	134612	keystroke_v	v	n/a
67.471	0.1045	134942	keystroke_a	a	n/a
67.68	0.075	135360	keystroke_t	t	n/a
67.771	0.0745	135542	keystroke_i	i	n/a
67.9505	0.1045	135901	keystroke_o	o	n/a
68.041	0.105	136082	keystroke_n	n	n/a
68.13	0.1205	136260	keystroke_Key.space	Key.space	n/a
68.416	0.075	136832	keystroke_h	h	n/a
68.505	0.1055	137010	keystroke_e	e	n/a
68.595	0.105	137190	keystroke_a	a	n/a
68.82	0.105	137640	keystroke_v	v	n/a
68.9555	0.105	137911	keystroke_i	i	n/a
69.1355	0.12	138271	keystroke_l	l	n/a
69.316	0.0895	138632	keystroke_y	y	n/a
69.3755	0.12	138751	keystroke_Key.space	Key.space	n/a
69.645	0.1055	139290	keystroke_s	s	n/a
69.7955	0.075	139591	keystroke_u	u	n/a
69.9005	0.105	139801	keystroke_r	r	n/a
70.1105	0.09	140221	keystroke_k	k	n/a
70.4255	0.09	140851	keystroke_Key.backspace	Key.backspace	n/a
70.5305	0.105	141061	keystroke_f	f	n/a
70.7705	0.135	141541	keystroke_i	i	n/a
70.8905	0.0895	141781	keystroke_n	n	n/a
70.995	0.1205	141990	keystroke_g	g	n/a
71.0855	0.105	142171	keystroke_Key.space	Key.space	n/a
71.3405	0.105	142681	keystroke_f	f	n/a
71.4605	0.105	142921	keystroke_a	a	n/a
71.6855	0.105	143371	keystroke_s	s	n/a
71.8955	0.09	143791	keystroke_t	t	n/a
72.0305	0.15	144061	keystroke_e	e	n/a
72.1505	0.105	144301	keystroke_r	r	n/a
72.3305	0.075	144661	keystroke_Key.enter	Key.enter	n/a
72.4145	10.133	144829	prompt	n/a	seller warrant arrive unsubscribe\n
73.065	0.0905	146130	keystroke_s	s	n/a
73.215	0.105	146430	keystroke_e	e	n/a
73.321	0.045	146642	keystroke_l	l	n/a
73.471	0.06	146942	keystroke_l	l	n/a
73.545	0.1355	147090	keystroke_e	e	n/a
73.651	0.1345	147302	keystroke_r	r	n/a
73.7255	0.135	147451	keystroke_Key.space	Key.space	n/a
73.8905	0.1505	147781	keystroke_w	w	n/a
74.0255	0.12	148051	keystroke_a	a	n/a
74.2355	0.06	148471	keystroke_t	t	n/a
74.3405	0.09	148681	keystroke_t	t	n/a
74.506	0.12	149012	keystroke_a	a	n/a
74.6855	0.0755	149371	keystroke_n	n	n/a
75.0005	0.075	150001	keystroke_Key.backspace	Key.backspace	n/a
75.15	0.06	150300	keystroke_Key.backspace	Key.backspace	n/a
75.27	0.06	150540	keystroke_Key.backspace	Key.backspace	n/a
75.4055	0.0745	150811	keystroke_Key.backspace	Key.backspace	n/a
75.631	0.1195	151262	keystroke_r	r	n/a
75.7355	0.1205	151471	keystroke_a	a	n/a
75.9155	0.0455	151831	keystroke_n	n	n/a
76.1105	0.015	152221	keystroke_n	n	n/a
76.335	0.075	152670	keystroke_Key.backspace	Key.backspace	n/a
76.485	0.06	152970	keystroke_Key.backspace	Key.backspace	n/a
76.635	0.0755	153270	keystroke_Key.backspace	Key.backspace	n/a
76.815	0.12	153630	keystroke_a	a	n/a
77.31	0.0905	154620	keystroke_Key.backspace	Key.backspace	n/a
77.43	0.105	154860	keystroke_r	r	n/a
77.565	0.1205	155130	keystroke_a	a	n/a
77.715	0.0755	155430	keystroke_n	n	n/a
77.9105	0.09	155821	keystroke_t	t	n/a
78.0005	0.12	156001	keystroke_Key.space	Key.space	n/a
78.5255	0.0455	157051	keystroke_a	a	n/a
78.7505	0.075	157501	keystroke_r	r	n/a
78.8705	0.1045	157741	keystroke_r	r	n/a
79.08	0.075	158160	keystroke_i	i	n/a
79.186	0.104	158372	keystroke_v	v	n/a
79.725	0.0905	159450	keystroke_e	e	n/a
79.785	0.1205	159570	keystroke_Key.space	Key.space	n/a
80.2355	0.12	160471	keystroke_u	u	n/a
80.3255	0.105	160651	keystroke_n	n	n/a
80.5505	0.105	161101	keystroke_s	s	n/a
80.7605	0.15	161521	keystroke_u	u	n/a
80.8655	0.12	161731	keystroke_b	b	n/a
81.3305	0.09	162661	keystroke_s	s	n/a
81.5255	0.0905	163051	keystroke_c	c	n/a
81.7655	0.12	163531	keystroke_r	r	n/a
81.9005	0.075	163801	keystroke_i	i	n/a
82.0955	0.09	164191	keystroke_b	b	n/a
82.2305	0.105	164461	keystroke_e	e	n/a
82.4405	0.105	164881	keystroke_Key.enter	Key.enter	n/a
82.551	8.996	165102	prompt	n/a	cool programming harvey submit\n
83.371	0.0745	166742	keystroke_c	c	n/a
83.4905	0.0745	166981	keystroke_o	o	n/a
83.641	0.075	167282	keystroke_o	o	n/a
83.8055	0.1205	167611	keystroke_l	l	n/a
83.91	0.1055	167820	keystroke_Key.space	Key.space	n/a
84.1205	0.09	168241	keystroke_p	p	n/a
84.2255	0.09	168451	keystroke_r	r	n/a
84.3455	0.09	168691	keystroke_o	o	n/a
84.5405	0.0605	169081	keystroke_g	g	n/a
84.7355	0.1355	169471	keystroke_r	r	n/a
84.886	0.119	169772	keystroke_a	a	n/a
84.99	0.0905	169980	keystroke_m	m	n/a
85.155	0.105	170310	keystroke_m	m	n/a
85.5005	0.1495	171001	keystroke_i	i	n/a
85.6055	0.075	171211	keystroke_n	n	n/a
85.6655	0.1195	171331	keystroke_g	g	n/a
85.755	0.135	171510	keystroke_Key.space	Key.space	n/a
86.2955	0.09	172591	keystroke_h	h	n/a
86.4	0.15	172800	keystroke_e	e	n/a
86.535	0.105	173070	keystroke_r	r	n/a
86.685	0.0755	173370	keystroke_v	v	n/a
87.0905	0.075	174181	keystroke_Key.backspace	Key.backspace	n/a
87.225	0.0605	174450	keystroke_Key.backspace	Key.backspace	n/a
87.3755	0.045	174751	keystroke_Key.backspace	Key.backspace	n/a
87.3905	0.105	174781	keystroke_a	a	n/a
87.6005	0.105	175201	keystroke_r	r	n/a
88.215	0.09	176430	keystroke_v	v	n/a
88.4855	0.1055	176971	keystroke_e	e	n/a
88.6205	0.0745	177241	keystroke_y	y	n/a
88.8	0.0905	177600	keystroke_Key.space	Key.space	n/a
89.175	0.075	178350	keystroke_s	s	n/a
89.326	0.119	178652	keystroke_u	u	n/a
89.385	0.1355	178770	keystroke_b	b	n/a
90.1805	0.1055	180361	keystroke_m	m	n/a
90.406	0.09	180812	keystroke_i	i	n/a
90.541	0.0895	181082	keystroke_t	t	n/a
91.4705	0.0745	182941	keystroke_Key.enter	Key.enter	n/a
91.552	5.5	183104	prompt	n/a	lovers chair bases summaries\n
92.3555	0.0745	184711	keystroke_l	l	n/a
92.5505	0.09	185101	keystroke_o	o	n/a
92.6705	0.0895	185341	keystroke_v	v	n/a
92.8805	0.12	185761	keystroke_e	e	n/a
92.9845	0.121	185969	keystroke_r	r	n/a
93.1205	0.135	186241	keystroke_s	s	n/a
93.2255	0.09	186451	keystroke_Key.space	Key.space	n/a
93.4205	0.12	186841	keystroke_c	c	n/a
93.5555	0.075	187111	keystroke_h	h	n/a
93.6155	0.105	187231	keystroke_a	a	n/a
93.7955	0.09	187591	keystroke_i	i	n/a
93.8705	0.105	187741	keystroke_r	r	n/a
93.9605	0.1045	187921	keystroke_Key.space	Key.space	n/a
94.215	0.075	188430	keystroke_b	b	n/a
94.275	0.075	188550	keystroke_a	a	n/a
94.4705	0.1055	188941	keystroke_s	s	n/a
94.635	0.151	189270	keystroke_e	e	n/a
94.756	0.135	189512	keystroke_s	s	n/a
94.86	0.106	189720	keystroke_Key.space	Key.space	n/a
95.131	0.0895	190262	keystroke_s	s	n/a
95.385	0.015	190770	keystroke_u	u	n/a
95.5655	0.06	191131	keystroke_m	m	n/a
95.7155	0.06	191431	keystroke_m	m	n/a
95.7905	0.09	191581	keystroke_a	a	n/a
95.9555	0.09	191911	keystroke_r	r	n/a
96.4505	0.1345	192901	keystroke_i	i	n/a
96.601	0.149	193202	keystroke_e	e	n/a
96.7655	0.1345	193531	keystroke_s	s	n/a
96.915	0.1355	193830	keystroke_Key.enter	Key.enter	n/a
97.056	9.236	194112	prompt	n/a	prefix controller generators catholic\n
98.0855	0.09	196171	keystroke_r	r	n/a
98.4155	0.06	196831	keystroke_Key.backspace	Key.backspace	n/a
98.6405	0.105	197281	keystroke_p	p	n/a
98.6855	0.105	197371	keystroke_r	r	n/a
98.8055	0.09	197611	keystroke_e	e	n/a
98.971	0.0895	197942	keystroke_f	f	n/a
99.1055	0.0895	198211	keystroke_i	i	n/a
99.315	0.1205	198630	keystroke_x	x	n/a
99.5995	0.091	199199	keystroke_Key.space	Key.space	n/a
99.8855	0.105	199771	keystroke_c	c	n/a
100.021	0.1195	200042	keystroke_o	o	n/a
100.1255	0.12	200251	keystroke_n	n	n/a
100.2905	0.075	200581	keystroke_t	t	n/a
100.3805	0.12	200761	keystroke_r	r	n/a
100.5455	0.09	201091	keystroke_o	o	n/a
100.815	0.075	201630	keystroke_l	l	n/a
100.98	0.0605	201960	keystroke_l	l	n/a
101.191	0.1945	202382	keystroke_e	e	n/a
101.745	0.09	203490	keystroke_r	r	n/a
101.925	0.105	203850	keystroke_Key.space	Key.space	n/a
102.2855	0.1045	204571	keystroke_c	c	n/a
102.69	0.075	205380	keystroke_Key.backspace	Key.backspace	n/a
102.7805	0.0745	205561	keystroke_g	g	n/a
102.915	0.075	205830	keystroke_e	e	n/a
103.02	0.0905	206040	keystroke_n	n	n/a
103.125	0.136	206250	keystroke_e	e	n/a
103.245	0.12	206490	keystroke_r	r	n/a
103.3955	0.1045	206791	keystroke_a	a	n/a
103.575	0.076	207150	keystroke_t	t	n/a
103.7255	0.09	207451	keystroke_o	o	n/a
103.8455	0.12	207691	keystroke_r	r	n/a
104.0105	0.1355	208021	keystroke_s	s	n/a
104.1005	0.104	208201	keystroke_Key.space	Key.space	n/a
104.3705	0.09	208741	keystroke_c	c	n/a
104.5515	0.089	209103	keystroke_a	a	n/a
104.7605	0.075	209521	keystroke_t	t	n/a
104.8805	0.0755	209761	keystroke_h	h	n/a
105.4505	0.09	210901	keystroke_o	o	n/a
105.6755	0.089	211351	keystroke_l	l	n/a
105.8705	0.0905	211741	keystroke_i	i	n/a
105.9755	0.09	211951	keystroke_c	c	n/a
106.2	0.09	212400	keystroke_Key.enter	Key.enter	n/a
106.296	5.351	212592	prompt	n/a	animals nevada examine bean\n
106.92	0.1205	213840	keystroke_a	a	n/a
107.025	0.06	214050	keystroke_n	n	n/a
107.1755	0.0745	214351	keystroke_i	i	n/a
107.355	0.075	214710	keystroke_m	m	n/a
107.416	0.104	214832	keystroke_a	a	n/a
107.565	0.09	215130	keystroke_l	l	n/a
107.67	0.09	215340	keystroke_s	s	n/a
107.7305	0.12	215461	keystroke_Key.space	Key.space	n/a
108.046	0.09	216092	keystroke_n	n	n/a
108.165	0.091	216330	keystroke_e	e	n/a
108.3755	0.105	216751	keystroke_v	v	n/a
108.5105	0.105	217021	keystroke_a	a	n/a
108.8105	0.18	217621	keystroke_d	d	n/a
108.976	0.1345	217952	keystroke_a	a	n/a
109.0955	0.12	218191	keystroke_Key.space	Key.space	n/a
109.4255	0.09	218851	keystroke_e	e	n/a
109.681	0.104	219362	keystroke_x	x	n/a
109.9805	0.0895	219961	keystroke_a	a	n/a
110.131	0.074	220262	keystroke_m	m	n/a
110.3855	0.12	220771	keystroke_i	i	n/a
110.476	0.119	220952	keystroke_n	n	n/a
110.581	0.119	221162	keystroke_e	e	n/a
110.67	0.1205	221340	keystroke_Key.space	Key.space	n/a
110.895	0.076	221790	keystroke_b	b	n/a
110.985	0.105	221970	keystroke_e	e	n/a
111.105	0.1205	222210	keystroke_a	a	n/a
111.3005	0.1045	222601	keystroke_n	n	n/a
111.555	0.09	223110	keystroke_Key.enter	Key.enter	n/a
111.6515	8.2155	223303	prompt	n/a	screening provincial norway citizens\n
112.2455	0.09	224491	keystroke_s	s	n/a
112.5005	0.105	225001	keystroke_c	c	n/a
112.7405	0.0905	225481	keystroke_r	r	n/a
112.8455	0.075	225691	keystroke_e	e	n/a
112.9805	0.09	225961	keystroke_e	e	n/a
113.1305	0.075	226261	keystroke_n	n	n/a
113.37	0.09	226740	keystroke_i	i	n/a
113.43	0.1205	226860	keystroke_n	n	n/a
113.5355	0.1055	227071	keystroke_g	g	n/a
113.625	0.1055	227250	keystroke_Key.space	Key.space	n/a
113.805	0.09	227610	keystroke_p	p	n/a
113.925	0.0905	227850	keystroke_r	r	n/a
114.045	0.0755	228090	keystroke_o	o	n/a
114.255	0.09	228510	keystroke_v	v	n/a
114.465	0.1045	228930	keystroke_i	i	n/a
114.54	0.0905	229080	keystroke_n	n	n/a
114.795	0.09	229590	keystroke_c	c	n/a
114.93	0.1055	229860	keystroke_i	i	n/a
115.3205	0.12	230641	keystroke_a	a	n/a
115.4255	0.0895	230851	keystroke_l	l	n/a
115.53	0.1055	231060	keystroke_Key.space	Key.space	n/a
115.7705	0.0605	231541	keystroke_n	n	n/a
115.9805	0.075	231961	keystroke_o	o	n/a
116.1155	0.075	232231	keystroke_r	r	n/a
116.6995	0.121	233399	keystroke_a	a	n/a
116.8495	0.0915	233699	keystroke_y	y	n/a
117.2405	0.045	234481	keystroke_Key.backspace	Key.backspace	n/a
117.36	0.06	234720	keystroke_Key.backspace	Key.backspace	n/a
117.4805	0.1495	234961	keystroke_w	w	n/a
117.645	0.105	235290	keystroke_a	a	n/a
117.735	0.09	235470	keystroke_y	y	n/a
117.87	0.105	235740	keystroke_Key.space	Key.space	n/a
118.1255	0.1045	236251	keystroke_c	c	n/a
118.4255	0.09	236851	keystroke_i	i	n/a
118.9055	0.09	237811	keystroke_t	t	n/a
119.0255	0.09	238051	keystroke_i	i	n/a
119.22	0.1055	238440	keystroke_z	z	n/a
119.49	0.076	238980	keystroke_e	e	n/a
119.5805	0.09	239161	keystroke_n	n	n/a
119.6855	0.105	239371	keystroke_s	s	n/a
119.8505	0.015	239701	keystroke_Key.enter	Key.enter	n/a
119.8715	8.1555	239743	prompt	n/a	falling waste pure hamilton\n
120.6605	0.09	241321	keystroke_f	f	n/a
120.7805	0.12	241561	keystroke_a	a	n/a
120.8255	0.09	241651	keystroke_l	l	n/a
120.9595	0.09	241919	keystroke_l	l	n/a
121.2155	0.075	242431	keystroke_i	i	n/a
121.2755	0.104	242551	keystroke_n	n	n/a
121.3655	0.12	242731	keystroke_g	g	n/a
121.4555	0.1345	242911	keystroke_Key.space	Key.space	n/a
122.085	0.106	244170	keystroke_w	w	n/a
122.175	0.165	244350	keystroke_a	a	n/a
122.3555	0.1345	244711	keystroke_s	s	n/a
122.67	0.105	245340	keystroke_t	t	n/a
122.7905	0.12	245581	keystroke_e	e	n/a
122.8945	0.105	245789	keystroke_Key.space	Key.space	n/a
123.1055	0.075	246211	keystroke_p	p	n/a
123.3305	0.089	246661	keystroke_u	u	n/a
123.3905	0.1195	246781	keystroke_r	r	n/a
123.511	0.1195	247022	keystroke_e	e	n/a
123.585	0.135	247170	keystroke_Key.space	Key.space	n/a
124.23	0.09	248460	keystroke_h	h	n/a
124.35	0.1205	248700	keystroke_a	a	n/a
124.5	0.09	249000	keystroke_m	m	n/a
124.71	0.1055	249420	keystroke_i	i	n/a
124.89	0.135	249780	keystroke_l	l	n/a
125.0855	0.1045	250171	keystroke_t	t	n/a
125.5795	0.121	251159	keystroke_o	o	n/a
125.6695	0.136	251339	keystroke_n	n	n/a
126.2545	0.121	252509	keystroke_Key.space	Key.space	n/a
126.7795	0.091	253559	keystroke_Key.backspace	Key.backspace	n/a
127.92	0.105	255840	keystroke_Key.enter	Key.enter	n/a
128.031	8.4715	256062	prompt	n/a	ruby pichunter reduced harvard\n
129.8105	0.105	259621	keystroke_r	r	n/a
129.9305	0.105	259861	keystroke_u	u	n/a
130.0055	0.105	260011	keystroke_b	b	n/a
130.231	0.0745	260462	keystroke_y	y	n/a
130.335	0.1045	260670	keystroke_Key.space	Key.space	n/a
130.6655	0.074	261331	keystroke_p	p	n/a
131.2055	0.105	262411	keystroke_i	i	n/a
131.3255	0.105	262651	keystroke_c	c	n/a
131.6105	0.105	263221	keystroke_h	h	n/a
131.7905	0.15	263581	keystroke_u	u	n/a
131.8805	0.15	263761	keystroke_n	n	n/a
132.0455	0.09	264091	keystroke_t	t	n/a
132.1955	0.15	264391	keystroke_e	e	n/a
132.315	0.1195	264630	keystroke_r	r	n/a
132.4195	0.091	264839	keystroke_Key.space	Key.space	n/a
132.6905	0.1045	265381	keystroke_r	r	n/a
132.7795	0.1215	265559	keystroke_e	e	n/a
133.2755	0.1205	266551	keystroke_d	d	n/a
133.47	0.1205	266940	keystroke_u	u	n/a
133.68	0.1055	267360	keystroke_c	c	n/a
134.1155	0.09	268231	keystroke_e	e	n/a
134.3405	0.119	268681	keystroke_d	d	n/a
134.4445	0.09	268889	keystroke_Key.space	Key.space	n/a
134.6845	0.105	269369	keystroke_h	h	n/a
134.8345	0.106	269669	keystroke_a	a	n/a
135.0755	0.09	270151	keystroke_r	r	n/a
135.4355	0.1195	270871	keystroke_v	v	n/a
135.6305	0.1345	271261	keystroke_a	a	n/a
136.02	0.075	272040	keystroke_r	r	n/a
136.23	0.105	272460	keystroke_d	d	n/a
136.3955	0.105	272791	keystroke_Key.enter	Key.enter	n/a
136.506	6.056	273012	prompt	n/a	wyoming running printer conventions\n
137.2805	0.09	274561	keystroke_w	w	n/a
137.5355	0.059	275071	keystroke_y	y	n/a
137.8195	0.1055	275639	keystroke_o	o	n/a
137.971	0.104	275942	keystroke_m	m	n/a
138.271	0.119	276542	keystroke_i	i	n/a
138.3455	0.12	276691	keystroke_n	n	n/a
138.4655	0.09	276931	keystroke_g	g	n/a
138.57	0.105	277140	keystroke_Key.space	Key.space	n/a
138.7805	0.09	277561	keystroke_r	r	n/a
138.9005	0.09	277801	keystroke_u	u	n/a
139.11	0.06	278220	keystroke_n	n	n/a
139.215	0.105	278430	keystroke_n	n	n/a
139.4705	0.149	278941	keystroke_i	i	n/a
139.5905	0.105	279181	keystroke_n	n	n/a
139.6655	0.105	279331	keystroke_g	g	n/a
139.7395	0.136	279479	keystroke_Key.space	Key.space	n/a
139.8905	0.09	279781	keystroke_p	p	n/a
140.0255	0.089	280051	keystroke_r	r	n/a
140.2055	0.09	280411	keystroke_i	i	n/a
140.2655	0.105	280531	keystroke_n	n	n/a
140.4005	0.059	280801	keystroke_t	t	n/a
140.5345	0.151	281069	keystroke_e	e	n/a
140.671	0.0895	281342	keystroke_r	r	n/a
140.7295	0.1205	281459	keystroke_Key.space	Key.space	n/a
141.0005	0.09	282001	keystroke_c	c	n/a
141.1055	0.09	282211	keystroke_o	o	n/a
141.1655	0.091	282331	keystroke_n	n	n/a
141.3305	0.09	282661	keystroke_v	v	n/a
141.5405	0.09	283081	keystroke_e	e	n/a
141.6455	0.105	283291	keystroke_n	n	n/a
141.7955	0.075	283591	keystroke_t	t	n/a
141.9305	0.09	283861	keystroke_i	i	n/a
142.1405	0.15	284281	keystroke_o	o	n/a
142.2605	0.075	284521	keystroke_n	n	n/a
142.3505	0.105	284701	keystroke_s	s	n/a
142.4705	0.089	284941	keystroke_Key.enter	Key.enter	n/a
142.5655	9.086	285131	prompt	n/a	hence component guitar struggle\n
143.1905	0.105	286381	keystroke_h	h	n/a
143.281	0.089	286562	keystroke_e	e	n/a
143.461	0.0895	286922	keystroke_n	n	n/a
143.61	0.0905	287220	keystroke_c	c	n/a
143.8355	0.12	287671	keystroke_e	e	n/a
143.925	0.1205	287850	keystroke_Key.space	Key.space	n/a
144.285	0.0605	288570	keystroke_s	s	n/a
144.7805	0.045	289561	keystroke_Key.backspace	Key.backspace	n/a
144.8705	0.105	289741	keystroke_c	c	n/a
145.0655	0.06	290131	keystroke_o	o	n/a
145.0955	0.105	290191	keystroke_m	m	n/a
145.4555	0.09	290911	keystroke_p	p	n/a
145.8605	0.075	291721	keystroke_e	e	n/a
146.2495	0.061	292499	keystroke_Key.backspace	Key.backspace	n/a
146.5055	0.15	293011	keystroke_o	o	n/a
146.6105	0.1045	293221	keystroke_n	n	n/a
146.745	0.106	293490	keystroke_e	e	n/a
146.88	0.0905	293760	keystroke_n	n	n/a
147.165	0.105	294330	keystroke_t	t	n/a
147.24	0.135	294480	keystroke_Key.space	Key.space	n/a
148.6955	0.089	297391	keystroke_g	g	n/a
148.9195	0.091	297839	keystroke_u	u	n/a
149.1295	0.091	298259	keystroke_i	i	n/a
149.3105	0.075	298621	keystroke_t	t	n/a
149.5655	0.105	299131	keystroke_a	a	n/a
149.7455	0.104	299491	keystroke_r	r	n/a
149.851	0.119	299702	keystroke_Key.space	Key.space	n/a
150.345	0.0455	300690	keystroke_s	s	n/a
150.45	0.121	300900	keystroke_t	t	n/a
150.556	0.1195	301112	keystroke_r	r	n/a
150.6905	0.09	301381	keystroke_u	u	n/a
150.81	0.0605	301620	keystroke_g	g	n/a
150.9755	0.0745	301951	keystroke_g	g	n/a
151.095	0.105	302190	keystroke_l	l	n/a
151.38	0.09	302760	keystroke_e	e	n/a
151.545	0.105	303090	keystroke_Key.enter	Key.enter	n/a
151.655	8.9675	303310	prompt	n/a	trackbacks acute literally comm\n
152.3105	0.075	304621	keystroke_f	f	n/a
152.6995	0.091	305399	keystroke_Key.backspace	Key.backspace	n/a
153.166	0.105	306332	keystroke_t	t	n/a
153.36	0.12	306720	keystroke_r	r	n/a
153.5405	0.12	307081	keystroke_a	a	n/a
153.7355	0.1195	307471	keystroke_c	c	n/a
153.87	0.0905	307740	keystroke_k	k	n/a
154.08	0.075	308160	keystroke_b	b	n/a
154.14	0.09	308280	keystroke_a	a	n/a
154.32	0.105	308640	keystroke_c	c	n/a
154.411	0.105	308822	keystroke_k	k	n/a
154.53	0.105	309060	keystroke_s	s	n/a
154.62	0.135	309240	keystroke_Key.space	Key.space	n/a
154.7705	0.105	309541	keystroke_a	a	n/a
155.236	0.089	310472	keystroke_c	c	n/a
155.4305	0.1055	310861	keystroke_u	u	n/a
155.595	0.1055	311190	keystroke_t	t	n/a
155.7305	0.12	311461	keystroke_e	e	n/a
155.821	0.119	311642	keystroke_Key.space	Key.space	n/a
156.12	0.1055	312240	keystroke_l	l	n/a
156.3155	0.0895	312631	keystroke_i	i	n/a
156.42	0.03	312840	keystroke_t	t	n/a
156.5255	0.0895	313051	keystroke_t	t	n/a
156.6905	0.1345	313381	keystroke_e	e	n/a
156.8105	0.0895	313621	keystroke_r	r	n/a
157.41	0.06	314820	keystroke_Key.backspace	Key.backspace	n/a
157.545	0.075	315090	keystroke_Key.backspace	Key.backspace	n/a
157.68	0.075	315360	keystroke_Key.backspace	Key.backspace	n/a
157.8905	0.1045	315781	keystroke_e	e	n/a
158.146	0.12	316292	keystroke_r	r	n/a
158.3255	0.1345	316651	keystroke_a	a	n/a
158.85	0.105	317700	keystroke_l	l	n/a
159.225	0.0605	318450	keystroke_l	l	n/a
159.4205	0.1345	318841	keystroke_y	y	n/a
159.5395	0.1055	319079	keystroke_Key.space	Key.space	n/a
159.8405	0.089	319681	keystroke_c	c	n/a
159.9155	0.074	319831	keystroke_o	o	n/a
160.1105	0.09	320221	keystroke_m	m	n/a
160.2595	0.09	320519	keystroke_m	m	n/a
160.5155	0.105	321031	keystroke_Key.enter	Key.enter	n/a
160.6295	9.2475	321259	prompt	n/a	pontiac celebrities printer opposed\n
161.2805	0.075	322561	keystroke_p	p	n/a
161.5195	0.09	323039	keystroke_n	n	n/a
162.1505	0.089	324301	keystroke_t	t	n/a
162.2855	0.105	324571	keystroke_i	i	n/a
162.6155	0.105	325231	keystroke_a	a	n/a
163.4405	0.12	326881	keystroke_c	c	n/a
163.77	0.105	327540	keystroke_Key.space	Key.space	n/a
164.58	0.1355	329160	keystroke_c	c	n/a
164.85	0.0455	329700	keystroke_e	e	n/a
164.91	0.1055	329820	keystroke_l	l	n/a
165.03	0.0605	330060	keystroke_e	e	n/a
165.42	0.1055	330840	keystroke_r	r	n/a
165.8855	0.0745	331771	keystroke_Key.backspace	Key.backspace	n/a
166.17	0.0605	332340	keystroke_b	b	n/a
166.2005	0.105	332401	keystroke_r	r	n/a
166.38	0.12	332760	keystroke_i	i	n/a
166.62	0.0605	333240	keystroke_t	t	n/a
166.71	0.09	333420	keystroke_i	i	n/a
166.995	0.1655	333990	keystroke_e	e	n/a
167.145	0.135	334290	keystroke_s	s	n/a
167.2505	0.1195	334501	keystroke_Key.space	Key.space	n/a
167.475	0.105	334950	keystroke_p	p	n/a
167.6555	0.1045	335311	keystroke_r	r	n/a
167.8205	0.09	335641	keystroke_i	i	n/a
167.8805	0.09	335761	keystroke_n	n	n/a
167.9855	0.09	335971	keystroke_t	t	n/a
168.1505	0.1495	336301	keystroke_e	e	n/a
168.27	0.1055	336540	keystroke_r	r	n/a
168.345	0.15	336690	keystroke_Key.space	Key.space	n/a
168.6155	0.0745	337231	keystroke_o	o	n/a
168.81	0.0755	337620	keystroke_p	p	n/a
168.93	0.075	337860	keystroke_p	p	n/a
169.11	0.0455	338220	keystroke_o	o	n/a
169.1855	0.1045	338371	keystroke_s	s	n/a
169.395	0.075	338790	keystroke_e	e	n/a
169.605	0.105	339210	keystroke_d	d	n/a
169.77	0.1055	339540	keystroke_Key.enter	Key.enter	n/a
169.881	8.936	339762	prompt	n/a	bride threatened clips resistant\n
170.655	0.09	341310	keystroke_b	b	n/a
170.79	0.09	341580	keystroke_r	r	n/a
170.925	0.09	341850	keystroke_i	i	n/a
171.03	0.09	342060	keystroke_d	d	n/a
171.315	0.1055	342630	keystroke_e	e	n/a
171.495	0.135	342990	keystroke_Key.space	Key.space	n/a
171.9155	0.0745	343831	keystroke_t	t	n/a
172.065	0.075	344130	keystroke_h	h	n/a
172.125	0.1655	344250	keystroke_r	r	n/a
172.245	0.165	344490	keystroke_e	e	n/a
172.3955	0.1495	344791	keystroke_a	a	n/a
172.56	0.135	345120	keystroke_t	t	n/a
172.71	0.105	345420	keystroke_e	e	n/a
173.16	0.0895	346320	keystroke_n	n	n/a
173.34	0.0905	346680	keystroke_e	e	n/a
173.5655	0.1345	347131	keystroke_d	d	n/a
173.715	0.09	347430	keystroke_Key.space	Key.space	n/a
174.0145	0.0755	348029	keystroke_c	c	n/a
174.0905	0.0895	348181	keystroke_l	l	n/a
174.33	0.0305	348660	keystroke_i	i	n/a
174.8845	0.06	349769	keystroke_p	p	n/a
174.9745	0.136	349949	keystroke_s	s	n/a
175.0945	0.12	350189	keystroke_Key.space	Key.space	n/a
175.875	0.135	351750	keystroke_r	r	n/a
175.965	0.135	351930	keystroke_e	e	n/a
176.085	0.105	352170	keystroke_s	s	n/a
176.2805	0.0595	352561	keystroke_i	i	n/a
176.3255	0.1045	352651	keystroke_s	s	n/a
176.58	0.105	353160	keystroke_t	t	n/a
176.775	0.03	353550	keystroke_a	a	n/a
177.2255	0.105	354451	keystroke_n	n	n/a
177.63	0.105	355260	keystroke_t	t	n/a
178.08	0.105	356160	keystroke_Key.space	Key.space	n/a
178.515	0.075	357030	keystroke_Key.backspace	Key.backspace	n/a
178.71	0.1055	357420	keystroke_Key.enter	Key.enter	n/a
178.8285	6.2885	357657	prompt	n/a	risk kits assumes daisy\n
179.5345	0.1205	359069	keystroke_r	r	n/a
179.82	0.09	359640	keystroke_i	i	n/a
179.9405	0.105	359881	keystroke_s	s	n/a
180.0605	0.105	360121	keystroke_k	k	n/a
180.1655	0.1045	360331	keystroke_Key.space	Key.space	n/a
180.3455	0.059	360691	keystroke_k	k	n/a
180.5255	0.074	361051	keystroke_i	i	n/a
180.63	0.1195	361260	keystroke_t	t	n/a
180.7655	0.119	361531	keystroke_s	s	n/a
180.855	0.135	361710	keystroke_Key.space	Key.space	n/a
181.155	0.09	362310	keystroke_a	a	n/a
181.3655	0.0595	362731	keystroke_s	s	n/a
181.5	0.0895	363000	keystroke_s	s	n/a
181.6345	0.0905	363269	keystroke_u	u	n/a
181.875	0.09	363750	keystroke_m	m	n/a
181.9495	0.151	363899	keystroke_e	e	n/a
182.1005	0.134	364201	keystroke_s	s	n/a
182.1905	0.134	364381	keystroke_Key.space	Key.space	n/a
182.4295	0.121	364859	keystroke_d	d	n/a
182.6545	0.106	365309	keystroke_i	i	n/a
182.8355	0.075	365671	keystroke_a	a	n/a
183.1505	0.0445	366301	keystroke_=	=	n/a
183.45	0.0595	366900	keystroke_Key.backspace	Key.backspace	n/a
183.585	0.075	367170	keystroke_Key.backspace	Key.backspace	n/a
183.735	0.06	367470	keystroke_Key.backspace	Key.backspace	n/a
183.87	0.1055	367740	keystroke_a	a	n/a
184.215	0.1055	368430	keystroke_i	i	n/a
184.5605	0.119	369121	keystroke_s	s	n/a
184.7695	0.09	369539	keystroke_y	y	n/a
185.0095	0.106	370019	keystroke_Key.enter	Key.enter	n/a
185.1215	7.6605	370243	prompt	n/a	jane plugin preserve ordinary\n
185.865	0.0905	371730	keystroke_j	j	n/a
185.985	0.12	371970	keystroke_a	a	n/a
186.106	0.0895	372212	keystroke_n	n	n/a
186.225	0.12	372450	keystroke_e	e	n/a
186.3	0.12	372600	keystroke_Key.space	Key.space	n/a
186.615	0.18	373230	keystroke_p	p	n/a
186.765	0.1045	373530	keystroke_l	l	n/a
187.2455	0.119	374491	keystroke_u	u	n/a
187.6355	0.074	375271	keystroke_g	g	n/a
187.8155	0.135	375631	keystroke_i	i	n/a
187.9205	0.105	375841	keystroke_n	n	n/a
188.0855	0.104	376171	keystroke_Key.space	Key.space	n/a
188.5055	0.104	377011	keystroke_p	p	n/a
188.7155	0.149	377431	keystroke_r	r	n/a
188.8355	0.1345	377671	keystroke_e	e	n/a
189.015	0.1495	378030	keystroke_s	s	n/a
189.1805	0.1495	378361	keystroke_e	e	n/a
189.495	0.0905	378990	keystroke_r	r	n/a
189.7805	0.105	379561	keystroke_v	v	n/a
190.1255	0.105	380251	keystroke_e	e	n/a
190.2155	0.135	380431	keystroke_Key.space	Key.space	n/a
190.7405	0.1045	381481	keystroke_r	r	n/a
191.205	0.03	382410	keystroke_Key.backspace	Key.backspace	n/a
191.4	0.09	382800	keystroke_o	o	n/a
191.46	0.075	382920	keystroke_r	r	n/a
191.67	0.09	383340	keystroke_d	d	n/a
191.805	0.105	383610	keystroke_i	i	n/a
191.88	0.105	383760	keystroke_n	n	n/a
192.0305	0.1045	384061	keystroke_a	a	n/a
192.255	0.09	384510	keystroke_r	r	n/a
192.3755	0.09	384751	keystroke_y	y	n/a
192.705	0.0755	385410	keystroke_Key.enter	Key.enter	n/a
192.7955	7.562	385591	prompt	n/a	sought anticipated allocated queries\n
193.4105	0.134	386821	keystroke_s	s	n/a
193.5305	0.059	387061	keystroke_o	o	n/a
193.7395	0.045	387479	keystroke_u	u	n/a
193.8295	0.09	387659	keystroke_g	g	n/a
193.935	0.09	387870	keystroke_h	h	n/a
194.0095	0.09	388019	keystroke_Key.space	Key.space	n/a
194.16	0.12	388320	keystroke_a	a	n/a
194.31	0.0895	388620	keystroke_n	n	n/a
194.5205	0.105	389041	keystroke_t	t	n/a
194.6405	0.09	389281	keystroke_i	i	n/a
195.3295	0.106	390659	keystroke_c	c	n/a
195.465	0.0745	390930	keystroke_i	i	n/a
195.6895	0.091	391379	keystroke_p	p	n/a
195.7955	0.089	391591	keystroke_a	a	n/a
196.0205	0.105	392041	keystroke_t	t	n/a
196.14	0.0755	392280	keystroke_e	e	n/a
196.3355	0.12	392671	keystroke_d	d	n/a
196.4395	0.121	392879	keystroke_Key.space	Key.space	n/a
196.6055	0.119	393211	keystroke_a	a	n/a
196.71	0.0905	393420	keystroke_l	l	n/a
196.8455	0.09	393691	keystroke_l	l	n/a
197.0245	0.075	394049	keystroke_o	o	n/a
197.1145	0.091	394229	keystroke_c	c	n/a
197.2355	0.105	394471	keystroke_a	a	n/a
197.4755	0.09	394951	keystroke_t	t	n/a
197.5955	0.09	395191	keystroke_e	e	n/a
197.7895	0.121	395579	keystroke_d	d	n/a
197.9255	0.089	395851	keystroke_Key.space	Key.space	n/a
198.1655	0.09	396331	keystroke_q	q	n/a
198.3005	0.09	396601	keystroke_u	u	n/a
198.7805	0.045	397561	keystroke_e	e	n/a
198.8705	0.12	397741	keystroke_r	r	n/a
199.605	0.151	399210	keystroke_i	i	n/a
199.8155	0.135	399631	keystroke_e	e	n/a
199.965	0.15	399930	keystroke_s	s	n/a
200.235	0.1205	400470	keystroke_Key.enter	Key.enter	n/a
200.3615	10.015	400723	prompt	n/a	clarke agrees reflection vacuum\n
201.1355	0.1195	402271	keystroke_c	c	n/a
201.345	0.09	402690	keystroke_l	l	n/a
201.4655	0.1195	402931	keystroke_a	a	n/a
201.705	0.075	403410	keystroke_r	r	n/a
201.9	0.105	403800	keystroke_k	k	n/a
202.0495	0.105	404099	keystroke_e	e	n/a
202.3495	0.0155	404699	keystroke_Key.space	Key.space	n/a
202.6355	0.1045	405271	keystroke_a	a	n/a
203.3855	0.09	406771	keystroke_g	g	n/a
203.6705	0.12	407341	keystroke_r	r	n/a
203.8205	0.09	407641	keystroke_e	e	n/a
203.9845	0.076	407969	keystroke_e	e	n/a
204.1345	0.136	408269	keystroke_s	s	n/a
204.2405	0.134	408481	keystroke_Key.space	Key.space	n/a
204.4955	0.12	408991	keystroke_r	r	n/a
204.5995	0.106	409199	keystroke_e	e	n/a
204.765	0.12	409530	keystroke_l	l	n/a
205.17	0.0745	410340	keystroke_f	f	n/a
205.3805	0.0745	410761	keystroke_e	e	n/a
205.59	0.075	411180	keystroke_c	c	n/a
205.861	0.0595	411722	keystroke_t	t	n/a
206.595	0.0605	413190	keystroke_Key.backspace	Key.backspace	n/a
206.7305	0.06	413461	keystroke_Key.backspace	Key.backspace	n/a
206.8655	0.0745	413731	keystroke_Key.backspace	Key.backspace	n/a
206.999	0.061	413998	keystroke_Key.backspace	Key.backspace	n/a
207.195	0.045	414390	keystroke_Key.backspace	Key.backspace	n/a
207.4505	0.0745	414901	keystroke_f	f	n/a
207.5855	0.1045	415171	keystroke_l	l	n/a
207.705	0.075	415410	keystroke_e	e	n/a
207.93	0.0755	415860	keystroke_c	c	n/a
208.1705	0.0745	416341	keystroke_t	t	n/a
208.29	0.1055	416580	keystroke_i	i	n/a
208.5605	0.15	417121	keystroke_o	o	n/a
208.6645	0.136	417329	keystroke_n	n	n/a
208.7845	0.12	417569	keystroke_Key.space	Key.space	n/a
209.1295	0.106	418259	keystroke_v	v	n/a
209.2655	0.1195	418531	keystroke_a	a	n/a
209.5495	0.091	419099	keystroke_c	c	n/a
209.6855	0.06	419371	keystroke_u	u	n/a
209.8045	0.091	419609	keystroke_u	u	n/a
210.0605	0.09	420121	keystroke_m	m	n/a
210.27	0.105	420540	keystroke_Key.enter	Key.enter	n/a
210.3805	11.921	420761	prompt	n/a	particularly luxembourg admin rated\n
211.02	0.12	422040	keystroke_p	p	n/a
211.44	0.135	422880	keystroke_a	a	n/a
211.65	0.09	423300	keystroke_r	r	n/a
211.86	0.09	423720	keystroke_t	t	n/a
212.0405	0.089	424081	keystroke_i	i	n/a
212.3105	0.105	424621	keystroke_c	c	n/a
212.46	0.09	424920	keystroke_u	u	n/a
212.7295	0.106	425459	keystroke_l	l	n/a
212.8355	0.105	425671	keystroke_a	a	n/a
213.0305	0.074	426061	keystroke_r	r	n/a
213.1505	0.105	426301	keystroke_l	l	n/a
213.4055	0.105	426811	keystroke_y	y	n/a
213.4805	0.1345	426961	keystroke_Key.space	Key.space	n/a
213.9905	0.1045	427981	keystroke_l	l	n/a
214.425	0.03	428850	keystroke_u	u	n/a
214.635	0.06	429270	keystroke_x	x	n/a
215.295	0.1055	430590	keystroke_e	e	n/a
215.415	0.075	430830	keystroke_m	m	n/a
215.6405	0.0595	431281	keystroke_b	b	n/a
215.8655	0.0895	431731	keystroke_o	o	n/a
216.135	0.075	432270	keystroke_u	u	n/a
216.66	0.09	433320	keystroke_r	r	n/a
216.915	0.104	433830	keystroke_g	g	n/a
217.124	0.105	434248	keystroke_Key.space	Key.space	n/a
217.935	0.12	435870	keystroke_a	a	n/a
218.0395	0.1205	436079	keystroke_d	d	n/a
218.2055	0.0745	436411	keystroke_m	m	n/a
218.505	0.09	437010	keystroke_i	i	n/a
218.58	0.12	437160	keystroke_n	n	n/a
218.745	0.105	437490	keystroke_Key.space	Key.space	n/a
218.97	0.135	437940	keystroke_r	r	n/a
219.15	0.135	438300	keystroke_a	a	n/a
219.3155	0.1045	438631	keystroke_t	t	n/a
219.435	0.09	438870	keystroke_e	e	n/a
219.6605	0.09	439321	keystroke_d	d	n/a
222.2575	0.042	444515	keystroke_Key.enter	Key.enter	n/a
222.3065	23.8	444613	prompt	n/a	americas achievements temporarily music\n
223.0355	0.12	446071	keystroke_a	a	n/a
223.2605	0.0745	446521	keystroke_m	m	n/a
223.3205	0.1345	446641	keystroke_e	e	n/a
223.425	0.105	446850	keystroke_r	r	n/a
223.62	0.0755	447240	keystroke_i	i	n/a
223.7395	0.09	447479	keystroke_c	c	n/a
223.815	0.105	447630	keystroke_a	a	n/a
224.055	0.135	448110	keystroke_s	s	n/a
224.1745	0.12	448349	keystroke_Key.space	Key.space	n/a
224.4145	0.1055	448829	keystroke_a	a	n/a
224.6695	0.0905	449339	keystroke_c	c	n/a
224.835	0.09	449670	keystroke_h	h	n/a
225.4955	0.119	450991	keystroke_i	i	n/a
225.6295	0.045	451259	keystroke_e	e	n/a
225.8995	0.09	451799	keystroke_v	v	n/a
226.11	0.075	452220	keystroke_e	e	n/a
226.245	0.06	452490	keystroke_n	n	n/a
226.575	0.0745	453150	keystroke_m	m	n/a
226.6945	0.136	453389	keystroke_e	e	n/a
227.0995	0.075	454199	keystroke_Key.backspace	Key.backspace	n/a
227.2495	0.06	454499	keystroke_Key.backspace	Key.backspace	n/a
227.355	0.075	454710	keystroke_Key.backspace	Key.backspace	n/a
227.5945	0.075	455189	keystroke_m	m	n/a
227.655	0.1205	455310	keystroke_e	e	n/a
227.8045	0.076	455609	keystroke_n	n	n/a
227.925	0.135	455850	keystroke_t	t	n/a
228.075	0.1355	456150	keystroke_s	s	n/a
228.18	0.135	456360	keystroke_Key.space	Key.space	n/a
228.93	0.105	457860	keystroke_t	t	n/a
229.065	0.1945	458130	keystroke_e	e	n/a
229.245	0.09	458490	keystroke_r	r	n/a
229.305	0.09	458610	keystroke_m	m	n/a
229.53	0.09	459060	keystroke_p	p	n/a
229.755	0.06	459510	keystroke_o	o	n/a
229.935	0.105	459870	keystroke_r	r	n/a
230.625	0.105	461250	keystroke_a	a	n/a
230.85	0.12	461700	keystroke_r	r	n/a
231.15	0.105	462300	keystroke_i	i	n/a
231.36	0.1205	462720	keystroke_l	l	n/a
231.5255	0.1195	463051	keystroke_y	y	n/a
231.63	0.135	463260	keystroke_Key.space	Key.space	n/a
232.0355	0.075	464071	keystroke_m	m	n/a
232.2445	0.091	464489	keystroke_u	u	n/a
232.3205	0.089	464641	keystroke_s	s	n/a
232.47	0.09	464940	keystroke_i	i	n/a
232.59	0.1195	465180	keystroke_c	c	n/a
238.065	0.075	476130	keystroke_Key.backspace	Key.backspace	n/a
238.2155	0.0745	476431	keystroke_Key.backspace	Key.backspace	n/a
238.365	0.105	476730	keystroke_Key.backspace	Key.backspace	n/a
239.115	0.06	478230	keystroke_m	m	n/a
239.295	0.0905	478590	keystroke_p	p	n/a
239.5655	0.0595	479131	keystroke_o	o	n/a
239.745	0.09	479490	keystroke_r	r	n/a
240	0.1355	480000	keystroke_a	a	n/a
241.9055	0.074	483811	keystroke_Key.backspace	Key.backspace	n/a
242.8505	0.135	485701	keystroke_a	a	n/a
243.0905	0.0895	486181	keystroke_r	r	n/a
243.285	0.09	486570	keystroke_i	i	n/a
243.51	0.0905	487020	keystroke_l	l	n/a
243.721	0.059	487442	keystroke_i	i	n/a
244.02	0.09	488040	keystroke_y	y	n/a
244.35	0.0595	488700	keystroke_Key.backspace	Key.backspace	n/a
244.47	0.09	488940	keystroke_Key.backspace	Key.backspace	n/a
244.5755	0.0895	489151	keystroke_y	y	n/a
244.665	0.12	489330	keystroke_Key.space	Key.space	n/a
245.355	0.0895	490710	keystroke_m	m	n/a
245.565	0.0755	491130	keystroke_u	u	n/a
245.641	0.1045	491282	keystroke_s	s	n/a
245.7905	0.0745	491581	keystroke_i	i	n/a
245.88	0.105	491760	keystroke_c	c	n/a
246.015	0.09	492030	keystroke_Key.enter	Key.enter	n/a
246.1115	5.62	492223	prompt	n/a	hold inexpensive dried paris\n
246.7205	0.0895	493441	keystroke_h	h	n/a
246.9455	0.0595	493891	keystroke_o	o	n/a
247.08	0.12	494160	keystroke_l	l	n/a
247.185	0.135	494370	keystroke_d	d	n/a
247.305	0.105	494610	keystroke_Key.space	Key.space	n/a
247.4705	0.105	494941	keystroke_i	i	n/a
247.5305	0.104	495061	keystroke_n	n	n/a
247.7695	0.105	495539	keystroke_e	e	n/a
248.1155	0.105	496231	keystroke_x	x	n/a
248.3105	0.1045	496621	keystroke_p	p	n/a
248.4755	0.1045	496951	keystroke_e	e	n/a
248.61	0.0755	497220	keystroke_n	n	n/a
248.7	0.105	497400	keystroke_s	s	n/a
248.895	0.0605	497790	keystroke_i	i	n/a
249.0155	0.0895	498031	keystroke_v	v	n/a
249.225	0.1345	498450	keystroke_e	e	n/a
249.315	0.12	498630	keystroke_Key.space	Key.space	n/a
249.8395	0.076	499679	keystroke_d	d	n/a
250.005	0.0895	500010	keystroke_r	r	n/a
250.395	0.105	500790	keystroke_i	i	n/a
250.545	0.0905	501090	keystroke_e	e	n/a
250.755	0.09	501510	keystroke_d	d	n/a
250.83	0.1195	501660	keystroke_Key.space	Key.space	n/a
251.04	0.09	502080	keystroke_p	p	n/a
251.1	0.12	502200	keystroke_a	a	n/a
251.265	0.12	502530	keystroke_r	r	n/a
251.4005	0.075	502801	keystroke_i	i	n/a
251.505	0.1205	503010	keystroke_s	s	n/a
251.64	0.09	503280	keystroke_Key.enter	Key.enter	n/a
251.7355	10.706	503471	prompt	n/a	overhead officially consultation comparing\n
252.4205	0.09	504841	keystroke_o	o	n/a
252.525	0.09	505050	keystroke_v	v	n/a
252.7345	0.136	505469	keystroke_e	e	n/a
252.8405	0.1045	505681	keystroke_r	r	n/a
253.035	0.075	506070	keystroke_h	h	n/a
253.17	0.0605	506340	keystroke_e	e	n/a
253.2305	0.135	506461	keystroke_a	a	n/a
253.576	0.134	507152	keystroke_d	d	n/a
253.695	0.15	507390	keystroke_Key.space	Key.space	n/a
253.965	0.105	507930	keystroke_o	o	n/a
254.115	0.075	508230	keystroke_f	f	n/a
254.235	0.106	508470	keystroke_f	f	n/a
254.4	0.075	508800	keystroke_i	i	n/a
254.49	0.105	508980	keystroke_c	c	n/a
254.61	0.09	509220	keystroke_i	i	n/a
254.73	0.105	509460	keystroke_a	a	n/a
254.85	0.075	509700	keystroke_l	l	n/a
255.0005	0.0895	510001	keystroke_l	l	n/a
255.2705	0.0895	510541	keystroke_y	y	n/a
255.345	0.09	510690	keystroke_Key.space	Key.space	n/a
255.54	0.1205	511080	keystroke_c	c	n/a
255.735	0.12	511470	keystroke_n	n	n/a
256.35	0.06	512700	keystroke_Key.backspace	Key.backspace	n/a
256.6195	0.12	513239	keystroke_o	o	n/a
256.68	0.0145	513360	keystroke_l	l	n/a
256.71	0.09	513420	keystroke_n	n	n/a
256.8145	0.12	513629	keystroke_s	s	n/a
257.2795	0.0755	514559	keystroke_Key.backspace	Key.backspace	n/a
257.4145	0.075	514829	keystroke_Key.backspace	Key.backspace	n/a
257.7905	0.0445	515581	keystroke_n	n	n/a
258.03	0.06	516060	keystroke_Key.backspace	Key.backspace	n/a
258.18	0.06	516360	keystroke_Key.backspace	Key.backspace	n/a
258.405	0.075	516810	keystroke_n	n	n/a
258.51	0.105	517020	keystroke_s	s	n/a
258.78	0.09	517560	keystroke_o	o	n/a
259.1695	0.061	518339	keystroke_Key.backspace	Key.backspace	n/a
259.4705	0.044	518941	keystroke_u	u	n/a
259.7545	0.091	519509	keystroke_l	l	n/a
260.0555	0.105	520111	keystroke_t	t	n/a
260.1905	0.119	520381	keystroke_a	a	n/a
260.3245	0.0905	520649	keystroke_t	t	n/a
260.475	0.09	520950	keystroke_i	i	n/a
260.6845	0.1505	521369	keystroke_o	o	n/a
260.7745	0.136	521549	keystroke_n	n	n/a
260.9105	0.074	521821	keystroke_Key.space	Key.space	n/a
261.0595	0.1355	522119	keystroke_c	c	n/a
261.2105	0.089	522421	keystroke_o	o	n/a
261.27	0.0895	522540	keystroke_m	m	n/a
261.4645	0.105	522929	keystroke_p	p	n/a
261.54	0.1045	523080	keystroke_a	a	n/a
261.7345	0.106	523469	keystroke_r	r	n/a
262.0055	0.12	524011	keystroke_i	i	n/a
262.0795	0.105	524159	keystroke_n	n	n/a
262.2005	0.0895	524401	keystroke_g	g	n/a
262.3195	0.1205	524639	keystroke_Key.enter	Key.enter	n/a
262.4495	5.8125	524899	prompt	n/a	together outside contact postal\n
263.0855	0.0745	526171	keystroke_t	t	n/a
263.1905	0.0895	526381	keystroke_o	o	n/a
263.2945	0.0755	526589	keystroke_g	g	n/a
263.415	0.1655	526830	keystroke_e	e	n/a
263.5355	0.1045	527071	keystroke_t	t	n/a
263.655	0.06	527310	keystroke_h	h	n/a
263.79	0.105	527580	keystroke_e	e	n/a
263.8195	0.1655	527639	keystroke_r	r	n/a
263.94	0.135	527880	keystroke_Key.space	Key.space	n/a
264.195	0.06	528390	keystroke_o	o	n/a
264.3905	0.06	528781	keystroke_u	u	n/a
264.4655	0.09	528931	keystroke_t	t	n/a
264.6895	0.1205	529379	keystroke_s	s	n/a
264.824	0.076	529648	keystroke_i	i	n/a
265.17	0.1055	530340	keystroke_d	d	n/a
265.35	0.1205	530700	keystroke_e	e	n/a
265.455	0.09	530910	keystroke_Key.space	Key.space	n/a
265.725	0.09	531450	keystroke_c	c	n/a
265.8455	0.0745	531691	keystroke_o	o	n/a
266.055	0.06	532110	keystroke_n	n	n/a
266.1455	0.0895	532291	keystroke_t	t	n/a
266.265	0.12	532530	keystroke_a	a	n/a
266.5205	0.0595	533041	keystroke_c	c	n/a
266.82	0.1195	533640	keystroke_t	t	n/a
266.91	0.135	533820	keystroke_Key.space	Key.space	n/a
267.1195	0.0605	534239	keystroke_p	p	n/a
267.2845	0.0605	534569	keystroke_o	o	n/a
267.3145	0.106	534629	keystroke_s	s	n/a
267.54	0.105	535080	keystroke_t	t	n/a
267.795	0.12	535590	keystroke_a	a	n/a
267.93	0.105	535860	keystroke_l	l	n/a
268.14	0.12	536280	keystroke_Key.enter	Key.enter	n/a
268.266	7.0605	536532	prompt	n/a	above listen nudist attachments\n
268.935	0.12	537870	keystroke_a	a	n/a
269.115	0.075	538230	keystroke_b	b	n/a
269.3105	0.089	538621	keystroke_o	o	n/a
269.4455	0.119	538891	keystroke_v	v	n/a
269.7755	0.12	539551	keystroke_e	e	n/a
269.8655	0.119	539731	keystroke_Key.space	Key.space	n/a
270.105	0.0755	540210	keystroke_l	l	n/a
270.2705	0.0895	540541	keystroke_i	i	n/a
270.3305	0.105	540661	keystroke_s	s	n/a
270.5405	0.075	541081	keystroke_t	t	n/a
270.6605	0.104	541321	keystroke_e	e	n/a
270.7795	0.09	541559	keystroke_n	n	n/a
270.9145	0.106	541829	keystroke_Key.space	Key.space	n/a
271.425	0.0605	542850	keystroke_n	n	n/a
271.605	0.105	543210	keystroke_u	u	n/a
272.01	0.1205	544020	keystroke_d	d	n/a
272.16	0.0905	544320	keystroke_i	i	n/a
272.31	0.105	544620	keystroke_s	s	n/a
272.55	0.135	545100	keystroke_t	t	n/a
272.6255	0.1495	545251	keystroke_Key.space	Key.space	n/a
272.9855	0.09	545971	keystroke_a	a	n/a
273.3595	0.046	546719	keystroke_t	t	n/a
273.4655	0.0745	546931	keystroke_t	t	n/a
273.6155	0.104	547231	keystroke_a	a	n/a
273.8405	0.1045	547681	keystroke_c	c	n/a
273.96	0.075	547920	keystroke_h	h	n/a
274.41	0.1045	548820	keystroke_m	m	n/a
274.5455	0.105	549091	keystroke_e	e	n/a
274.6805	0.0895	549361	keystroke_n	n	n/a
274.89	0.105	549780	keystroke_t	t	n/a
275.0555	0.1495	550111	keystroke_s	s	n/a
275.22	0.105	550440	keystroke_Key.enter	Key.enter	n/a
275.3315	9.4455	550663	prompt	n/a	sheffield dollars endangered textile\n
276.1805	0.104	552361	keystroke_c	c	n/a
276.7345	0.03	553469	keystroke_Key.backspace	Key.backspace	n/a
276.7955	0.12	553591	keystroke_s	s	n/a
276.9755	0.0895	553951	keystroke_h	h	n/a
277.0795	0.105	554159	keystroke_e	e	n/a
277.395	0.06	554790	keystroke_f	f	n/a
277.53	0.09	555060	keystroke_f	f	n/a
277.665	0.0905	555330	keystroke_i	i	n/a
277.8005	0.0895	555601	keystroke_e	e	n/a
277.9355	0.0895	555871	keystroke_l	l	n/a
278.115	0.1205	556230	keystroke_d	d	n/a
278.2495	0.09	556499	keystroke_Key.space	Key.space	n/a
278.4905	0.12	556981	keystroke_d	d	n/a
278.6245	0.09	557249	keystroke_o	o	n/a
278.8355	0.06	557671	keystroke_l	l	n/a
278.9545	0.106	557909	keystroke_l	l	n/a
279.0005	0.105	558001	keystroke_a	a	n/a
279.2245	0.166	558449	keystroke_r	r	n/a
279.3755	0.135	558751	keystroke_s	s	n/a
279.48	0.12	558960	keystroke_Key.space	Key.space	n/a
280.2	0.105	560400	keystroke_e	e	n/a
280.32	0.09	560640	keystroke_n	n	n/a
280.68	0.195	561360	keystroke_d	d	n/a
280.86	0.1345	561720	keystroke_a	a	n/a
280.9795	0.075	561959	keystroke_n	n	n/a
281.3095	0.0755	562619	keystroke_g	g	n/a
281.55	0.15	563100	keystroke_e	e	n/a
281.685	0.1195	563370	keystroke_r	r	n/a
281.8645	0.1505	563729	keystroke_e	e	n/a
282.135	0.1345	564270	keystroke_d	d	n/a
282.2705	0.1195	564541	keystroke_Key.space	Key.space	n/a
282.48	0.1345	564960	keystroke_t	t	n/a
282.7205	0.1045	565441	keystroke_e	e	n/a
283.065	0.105	566130	keystroke_x	x	n/a
283.38	0.105	566760	keystroke_t	t	n/a
283.5605	0.0895	567121	keystroke_i	i	n/a
283.7695	0.106	567539	keystroke_l	l	n/a
283.86	0.105	567720	keystroke_e	e	n/a
284.685	0.09	569370	keystroke_Key.enter	Key.enter	n/a
284.7815	7.375	569563	prompt	n/a	allowance poem tests manchester\n
285.57	0.105	571140	keystroke_a	a	n/a
285.6605	0.0895	571321	keystroke_l	l	n/a
285.84	0.0455	571680	keystroke_l	l	n/a
286.035	0.075	572070	keystroke_o	o	n/a
286.275	0.1045	572550	keystroke_w	w	n/a
286.455	0.105	572910	keystroke_a	a	n/a
286.7405	0.0895	573481	keystroke_n	n	n/a
286.875	0.09	573750	keystroke_c	c	n/a
287.07	0.105	574140	keystroke_e	e	n/a
287.145	0.135	574290	keystroke_Key.space	Key.space	n/a
287.325	0.09	574650	keystroke_p	p	n/a
287.535	0.075	575070	keystroke_o	o	n/a
287.655	0.1055	575310	keystroke_e	e	n/a
287.79	0.105	575580	keystroke_m	m	n/a
287.88	0.09	575760	keystroke_Key.space	Key.space	n/a
288.165	0.12	576330	keystroke_t	t	n/a
288.3305	0.1495	576661	keystroke_e	e	n/a
288.465	0.18	576930	keystroke_s	s	n/a
288.63	0.135	577260	keystroke_t	t	n/a
288.825	0.09	577650	keystroke_s	s	n/a
288.87	0.135	577740	keystroke_Key.space	Key.space	n/a
290.685	0.1055	581370	keystroke_m	m	n/a
290.805	0.1055	581610	keystroke_a	a	n/a
290.895	0.075	581790	keystroke_n	n	n/a
291.18	0.1205	582360	keystroke_c	c	n/a
291.33	0.09	582660	keystroke_h	h	n/a
291.4355	0.1345	582871	keystroke_e	e	n/a
291.555	0.105	583110	keystroke_s	s	n/a
291.705	0.0755	583410	keystroke_t	t	n/a
291.8105	0.1345	583621	keystroke_e	e	n/a
291.915	0.1055	583830	keystroke_r	r	n/a
292.065	0.09	584130	keystroke_Key.enter	Key.enter	n/a
292.161	10.571	584322	prompt	n/a	smooth conscious bracelets bachelor\n
292.74	0.075	585480	keystroke_m	m	n/a
293.04	0.075	586080	keystroke_Key.backspace	Key.backspace	n/a
293.16	0.1055	586320	keystroke_s	s	n/a
293.2805	0.074	586561	keystroke_m	m	n/a
293.4595	0.0455	586919	keystroke_o	o	n/a
293.565	0.075	587130	keystroke_o	o	n/a
293.7005	0.0895	587401	keystroke_t	t	n/a
293.835	0.075	587670	keystroke_h	h	n/a
293.925	0.105	587850	keystroke_Key.space	Key.space	n/a
294.345	0.1055	588690	keystroke_c	c	n/a
294.465	0.105	588930	keystroke_o	o	n/a
294.54	0.1045	589080	keystroke_n	n	n/a
294.7945	0.1205	589589	keystroke_s	s	n/a
295.1545	0.106	590309	keystroke_c	c	n/a
295.425	0.09	590850	keystroke_i	i	n/a
295.651	0.074	591302	keystroke_o	o	n/a
295.83	0.09	591660	keystroke_u	u	n/a
295.936	0.119	591872	keystroke_s	s	n/a
296.01	0.12	592020	keystroke_Key.space	Key.space	n/a
296.4905	0.1045	592981	keystroke_b	b	n/a
296.655	0.09	593310	keystroke_r	r	n/a
296.76	0.135	593520	keystroke_a	a	n/a
297.105	0.09	594210	keystroke_c	c	n/a
297.315	0.0895	594630	keystroke_e	e	n/a
297.435	0.075	594870	keystroke_m	m	n/a
297.525	0.105	595050	keystroke_e	e	n/a
297.675	0.0605	595350	keystroke_n	n	n/a
297.8105	0.12	595621	keystroke_t	t	n/a
298.2295	0.0755	596459	keystroke_Key.backspace	Key.backspace	n/a
298.38	0.0595	596760	keystroke_Key.backspace	Key.backspace	n/a
298.4995	0.09	596999	keystroke_Key.backspace	Key.backspace	n/a
298.71	0.075	597420	keystroke_Key.backspace	Key.backspace	n/a
299.085	0.0905	598170	keystroke_k	k	n/a
299.2055	0.0895	598411	keystroke_e	e	n/a
299.4895	0.0755	598979	keystroke_Key.backspace	Key.backspace	n/a
299.625	0.0605	599250	keystroke_Key.backspace	Key.backspace	n/a
299.835	0.0755	599670	keystroke_l	l	n/a
299.865	0.12	599730	keystroke_e	e	n/a
300.151	0.1045	600302	keystroke_t	t	n/a
300.5105	0.12	601021	keystroke_s	s	n/a
300.6305	0.09	601261	keystroke_Key.space	Key.space	n/a
300.9455	0.059	601891	keystroke_b	b	n/a
301.0355	0.105	602071	keystroke_a	a	n/a
301.3495	0.0905	602699	keystroke_c	c	n/a
301.4555	0.09	602911	keystroke_h	h	n/a
301.7405	0.105	603481	keystroke_e	e	n/a
302.0095	0.091	604019	keystroke_l	l	n/a
302.2055	0.105	604411	keystroke_o	o	n/a
302.3855	0.105	604771	keystroke_r	r	n/a
302.6255	0.105	605251	keystroke_Key.enter	Key.enter	n/a
302.7365	7.7505	605473	prompt	n/a	latvia ampland cricket cookie\n
303.4505	0.12	606901	keystroke_l	l	n/a
303.555	0.105	607110	keystroke_a	a	n/a
303.99	0.075	607980	keystroke_t	t	n/a
304.3645	0.1205	608729	keystroke_v	v	n/a
304.5755	0.0895	609151	keystroke_i	i	n/a
304.8	0.12	609600	keystroke_a	a	n/a
304.92	0.135	609840	keystroke_Key.space	Key.space	n/a
305.265	0.12	610530	keystroke_a	a	n/a
305.43	0.09	610860	keystroke_m	m	n/a
305.745	0.181	611490	keystroke_p	p	n/a
305.865	0.1355	611730	keystroke_l	l	n/a
306.63	0.105	613260	keystroke_a	a	n/a
306.7795	0.106	613559	keystroke_n	n	n/a
306.9305	0.1345	613861	keystroke_d	d	n/a
307.035	0.135	614070	keystroke_Key.space	Key.space	n/a
308.025	0.075	616050	keystroke_c	c	n/a
308.2195	0.1065	616439	keystroke_r	r	n/a
308.355	0.0745	616710	keystroke_i	i	n/a
308.4745	0.0905	616949	keystroke_c	c	n/a
308.5945	0.1055	617189	keystroke_k	k	n/a
309.1045	0.105	618209	keystroke_e	e	n/a
309.2995	0.091	618599	keystroke_t	t	n/a
309.3595	0.12	618719	keystroke_Key.space	Key.space	n/a
309.6455	0.0745	619291	keystroke_c	c	n/a
309.721	0.0745	619442	keystroke_o	o	n/a
309.855	0.15	619710	keystroke_o	o	n/a
309.96	0.105	619920	keystroke_k	k	n/a
310.155	0.0905	620310	keystroke_i	i	n/a
310.2605	0.1045	620521	keystroke_e	e	n/a
310.3945	0.0905	620789	keystroke_Key.enter	Key.enter	n/a
310.4915	7.3155	620983	prompt	n/a	conclusions problem picks automobiles\n
311.205	0.03	622410	keystroke_c	c	n/a
311.22	0.105	622440	keystroke_o	o	n/a
311.385	0.09	622770	keystroke_n	n	n/a
311.55	0.0895	623100	keystroke_c	c	n/a
311.67	0.09	623340	keystroke_l	l	n/a
311.895	0.075	623790	keystroke_u	u	n/a
312.18	0.135	624360	keystroke_s	s	n/a
312.3295	0.09	624659	keystroke_i	i	n/a
312.5405	0.1645	625081	keystroke_o	o	n/a
312.6595	0.121	625319	keystroke_n	n	n/a
312.7655	0.1195	625531	keystroke_s	s	n/a
312.8395	0.135	625679	keystroke_Key.space	Key.space	n/a
313.0195	0.0755	626039	keystroke_p	p	n/a
313.14	0.1345	626280	keystroke_r	r	n/a
313.2305	0.105	626461	keystroke_o	o	n/a
313.4405	0.09	626881	keystroke_b	b	n/a
313.6055	0.105	627211	keystroke_l	l	n/a
313.725	0.1045	627450	keystroke_e	e	n/a
313.8745	0.076	627749	keystroke_m	m	n/a
313.9345	0.105	627869	keystroke_Key.space	Key.space	n/a
314.2045	0.0755	628409	keystroke_p	p	n/a
314.415	0.0755	628830	keystroke_i	i	n/a
314.505	0.1055	629010	keystroke_c	c	n/a
314.6705	0.105	629341	keystroke_k	k	n/a
314.7605	0.135	629521	keystroke_s	s	n/a
314.8505	0.12	629701	keystroke_Key.space	Key.space	n/a
315.0755	0.104	630151	keystroke_a	a	n/a
315.2245	0.106	630449	keystroke_u	u	n/a
315.3905	0.09	630781	keystroke_t	t	n/a
315.5105	0.06	631021	keystroke_o	o	n/a
315.6905	0.075	631381	keystroke_m	m	n/a
315.8395	0.091	631679	keystroke_o	o	n/a
316.1545	0.03	632309	keystroke_b	b	n/a
316.3655	0.0745	632731	keystroke_i	i	n/a
316.68	0.09	633360	keystroke_l	l	n/a
316.8005	0.1495	633601	keystroke_e	e	n/a
316.935	0.135	633870	keystroke_s	s	n/a
317.04	0.1195	634080	keystroke_Key.space	Key.space	n/a
317.5195	0.076	635039	keystroke_Key.backspace	Key.backspace	n/a
317.715	0.0895	635430	keystroke_Key.enter	Key.enter	n/a
317.8115	4.645	635623	prompt	n/a	measure disc plan autos\n
318.4355	0.09	636871	keystroke_m	m	n/a
318.6005	0.12	637201	keystroke_e	e	n/a
318.7055	0.105	637411	keystroke_a	a	n/a
318.9455	0.075	637891	keystroke_s	s	n/a
319.0505	0.075	638101	keystroke_u	u	n/a
319.1545	0.15	638309	keystroke_r	r	n/a
319.2755	0.119	638551	keystroke_e	e	n/a
319.3495	0.1205	638699	keystroke_Key.space	Key.space	n/a
319.5895	0.09	639179	keystroke_d	d	n/a
319.6955	0.09	639391	keystroke_i	i	n/a
319.8005	0.105	639601	keystroke_s	s	n/a
320.0255	0.09	640051	keystroke_k	k	n/a
320.565	0.09	641130	keystroke_Key.backspace	Key.backspace	n/a
320.6705	0.1045	641341	keystroke_c	c	n/a
320.82	0.105	641640	keystroke_Key.space	Key.space	n/a
321.0455	0.1345	642091	keystroke_p	p	n/a
321.135	0.09	642270	keystroke_l	l	n/a
321.2405	0.1195	642481	keystroke_a	a	n/a
321.405	0.09	642810	keystroke_n	n	n/a
321.48	0.12	642960	keystroke_Key.space	Key.space	n/a
321.63	0.1205	643260	keystroke_a	a	n/a
321.81	0.09	643620	keystroke_u	u	n/a
321.9905	0.0595	643981	keystroke_t	t	n/a
322.095	0.105	644190	keystroke_o	o	n/a
322.23	0.12	644460	keystroke_s	s	n/a
322.365	0.0905	644730	keystroke_Key.enter	Key.enter	n/a
322.459	9.2225	644918	prompt	n/a	biol educated upgrades diagnosis\n
323.775	0.06	647550	keystroke_b	b	n/a
324.015	0.1045	648030	keystroke_i	i	n/a
324.285	0.0755	648570	keystroke_o	o	n/a
324.8405	0.1055	649681	keystroke_l	l	n/a
324.9745	0.091	649949	keystroke_Key.space	Key.space	n/a
325.2455	0.074	650491	keystroke_e	e	n/a
325.4405	0.105	650881	keystroke_d	d	n/a
325.6205	0.074	651241	keystroke_u	u	n/a
325.89	0.09	651780	keystroke_c	c	n/a
326.055	0.106	652110	keystroke_a	a	n/a
326.295	0.0745	652590	keystroke_t	t	n/a
326.4445	0.0755	652889	keystroke_e	e	n/a
326.6395	0.1205	653279	keystroke_d	d	n/a
326.7445	0.105	653489	keystroke_Key.space	Key.space	n/a
327.0895	0.075	654179	keystroke_u	u	n/a
327.3005	0.1195	654601	keystroke_p	p	n/a
327.525	0.0755	655050	keystroke_g	g	n/a
327.735	0.1055	655470	keystroke_r	r	n/a
327.87	0.105	655740	keystroke_a	a	n/a
328.035	0.12	656070	keystroke_d	d	n/a
328.245	0.15	656490	keystroke_e	e	n/a
328.41	0.1645	656820	keystroke_s	s	n/a
328.6345	0.1205	657269	keystroke_Key.space	Key.space	n/a
329.115	0.12	658230	keystroke_d	d	n/a
329.25	0.09	658500	keystroke_i	i	n/a
329.535	0.1205	659070	keystroke_a	a	n/a
330.3605	0.1045	660721	keystroke_g	g	n/a
330.6755	0.029	661351	keystroke_n	n	n/a
330.945	0.105	661890	keystroke_o	o	n/a
331.155	0.06	662310	keystroke_s	s	n/a
331.275	0.075	662550	keystroke_i	i	n/a
331.335	0.105	662670	keystroke_s	s	n/a
331.6045	0.076	663209	keystroke_Key.enter	Key.enter	n/a
331.6855	6.6115	663371	prompt	n/a	providers oldest enjoyed deeper\n
332.3855	0.09	664771	keystroke_p	p	n/a
332.4905	0.09	664981	keystroke_r	r	n/a
332.6405	0.09	665281	keystroke_o	o	n/a
332.8495	0.091	665699	keystroke_v	v	n/a
333.0005	0.09	666001	keystroke_i	i	n/a
333.1205	0.119	666241	keystroke_d	d	n/a
333.3595	0.136	666719	keystroke_e	e	n/a
333.5405	0.075	667081	keystroke_r	r	n/a
333.63	0.135	667260	keystroke_s	s	n/a
333.75	0.105	667500	keystroke_Key.space	Key.space	n/a
333.9745	0.0605	667949	keystroke_o	o	n/a
334.215	0.03	668430	keystroke_l	l	n/a
334.23	0.075	668460	keystroke_d	d	n/a
334.485	0.1045	668970	keystroke_e	e	n/a
334.6045	0.1055	669209	keystroke_s	s	n/a
334.7705	0.089	669541	keystroke_t	t	n/a
334.83	0.0895	669660	keystroke_Key.space	Key.space	n/a
335.0395	0.105	670079	keystroke_e	e	n/a
335.1595	0.0455	670319	keystroke_n	n	n/a
335.49	0.0905	670980	keystroke_j	j	n/a
335.7	0.09	671400	keystroke_o	o	n/a
336.3	0.09	672600	keystroke_y	y	n/a
336.495	0.075	672990	keystroke_e	e	n/a
336.705	0.135	673410	keystroke_d	d	n/a
336.855	0.105	673710	keystroke_Key.space	Key.space	n/a
337.4395	0.075	674879	keystroke_d	d	n/a
337.65	0.045	675300	keystroke_e	e	n/a
337.7705	0.0745	675541	keystroke_e	e	n/a
337.8755	0.09	675751	keystroke_p	p	n/a
337.98	0.1355	675960	keystroke_e	e	n/a
338.1	0.1205	676200	keystroke_r	r	n/a
338.205	0.0895	676410	keystroke_Key.enter	Key.enter	n/a
338.301	9.881	676602	prompt	n/a	activities independent serving hawk\n
339.4045	0.091	678809	keystroke_a	a	n/a
339.63	0.09	679260	keystroke_c	c	n/a
339.915	0.09	679830	keystroke_t	t	n/a
340.065	0.09	680130	keystroke_i	i	n/a
340.3955	0.0595	680791	keystroke_i	i	n/a
340.74	0.075	681480	keystroke_Key.backspace	Key.backspace	n/a
340.83	0.12	681660	keystroke_v	v	n/a
341.0405	0.105	682081	keystroke_i	i	n/a
341.2205	0.0895	682441	keystroke_t	t	n/a
341.3705	0.075	682741	keystroke_i	i	n/a
341.4755	0.135	682951	keystroke_e	e	n/a
341.5955	0.165	683191	keystroke_s	s	n/a
341.7005	0.119	683401	keystroke_Key.space	Key.space	n/a
342.2695	0.061	684539	keystroke_i	i	n/a
342.2995	0.1505	684599	keystroke_n	n	n/a
342.5255	0.1345	685051	keystroke_d	d	n/a
342.795	0.09	685590	keystroke_e	e	n/a
343.125	0.09	686250	keystroke_p	p	n/a
343.275	0.09	686550	keystroke_e	e	n/a
343.395	0.09	686790	keystroke_n	n	n/a
343.515	0.1055	687030	keystroke_d	d	n/a
344.07	0.06	688140	keystroke_n	n	n/a
344.16	0.105	688320	keystroke_e	e	n/a
344.58	0.09	689160	keystroke_Key.backspace	Key.backspace	n/a
345.18	0.0905	690360	keystroke_Key.backspace	Key.backspace	n/a
345.3305	0.105	690661	keystroke_e	e	n/a
345.4945	0.075	690989	keystroke_n	n	n/a
345.5995	0.1205	691199	keystroke_t	t	n/a
345.6745	0.15	691349	keystroke_Key.space	Key.space	n/a
345.8545	0.1055	691709	keystroke_s	s	n/a
345.99	0.15	691980	keystroke_e	e	n/a
346.125	0.09	692250	keystroke_r	r	n/a
346.44	0.075	692880	keystroke_v	v	n/a
346.71	0.12	693420	keystroke_i	i	n/a
346.8	0.105	693600	keystroke_n	n	n/a
346.92	0.105	693840	keystroke_g	g	n/a
346.995	0.105	693990	keystroke_Key.space	Key.space	n/a
347.295	0.075	694590	keystroke_h	h	n/a
347.385	0.105	694770	keystroke_a	a	n/a
347.625	0.105	695250	keystroke_w	w	n/a
347.76	0.0905	695520	keystroke_k	k	n/a
348.0745	0.105	696149	keystroke_Key.enter	Key.enter	n/a
348.1885	5.618	696377	prompt	n/a	either fate favorite scripts\n
348.8405	0.105	697681	keystroke_e	e	n/a
348.9305	0.1045	697861	keystroke_i	i	n/a
349.08	0.06	698160	keystroke_t	t	n/a
349.185	0.0755	698370	keystroke_h	h	n/a
349.2455	0.135	698491	keystroke_e	e	n/a
349.3355	0.12	698671	keystroke_r	r	n/a
349.4245	0.106	698849	keystroke_Key.space	Key.space	n/a
349.5905	0.105	699181	keystroke_f	f	n/a
350.0105	0.12	700021	keystroke_a	a	n/a
350.1905	0.12	700381	keystroke_t	t	n/a
350.3105	0.1195	700621	keystroke_e	e	n/a
350.3995	0.1055	700799	keystroke_Key.space	Key.space	n/a
350.64	0.09	701280	keystroke_f	f	n/a
350.79	0.1345	701580	keystroke_a	a	n/a
351.03	0.045	702060	keystroke_v	v	n/a
351.4045	0.106	702809	keystroke_o	o	n/a
351.555	0.089	703110	keystroke_r	r	n/a
351.6755	0.0745	703351	keystroke_i	i	n/a
351.795	0.0895	703590	keystroke_t	t	n/a
351.93	0.135	703860	keystroke_e	e	n/a
352.0495	0.0895	704099	keystroke_Key.space	Key.space	n/a
352.5745	0.106	705149	keystroke_s	s	n/a
352.7555	0.119	705511	keystroke_c	c	n/a
353.0095	0.1055	706019	keystroke_r	r	n/a
353.1605	0.0745	706321	keystroke_i	i	n/a
353.385	0.0905	706770	keystroke_p	p	n/a
353.4755	0.1045	706951	keystroke_t	t	n/a
353.5955	0.135	707191	keystroke_s	s	n/a
353.699	0.1055	707398	keystroke_Key.enter	Key.enter	n/a
353.81	7.0015	707620	prompt	n/a	slovenia healthy news information\n
354.6445	0.09	709289	keystroke_s	s	n/a
354.765	0.1195	709530	keystroke_l	l	n/a
355.0045	0.09	710009	keystroke_o	o	n/a
355.2595	0.09	710519	keystroke_v	v	n/a
355.456	0.089	710912	keystroke_e	e	n/a
355.5905	0.0895	711181	keystroke_n	n	n/a
355.7995	0.0905	711599	keystroke_i	i	n/a
355.905	0.1195	711810	keystroke_a	a	n/a
355.9945	0.121	711989	keystroke_Key.space	Key.space	n/a
356.5655	0.089	713131	keystroke_h	h	n/a
356.6405	0.134	713281	keystroke_e	e	n/a
356.7605	0.119	713521	keystroke_a	a	n/a
356.865	0.1045	713730	keystroke_l	l	n/a
357.465	0.0905	714930	keystroke_t	t	n/a
357.5705	0.0745	715141	keystroke_h	h	n/a
357.78	0.075	715560	keystroke_y	y	n/a
357.87	0.09	715740	keystroke_Key.space	Key.space	n/a
358.095	0.09	716190	keystroke_n	n	n/a
358.1705	0.09	716341	keystroke_e	e	n/a
358.3795	0.09	716759	keystroke_w	w	n/a
358.65	0.0595	717300	keystroke_s	s	n/a
358.7845	0.1205	717569	keystroke_Key.space	Key.space	n/a
359.1	0.075	718200	keystroke_i	i	n/a
359.16	0.09	718320	keystroke_n	n	n/a
359.34	0.09	718680	keystroke_f	f	n/a
359.625	0.105	719250	keystroke_o	o	n/a
359.76	0.105	719520	keystroke_r	r	n/a
359.91	0.075	719820	keystroke_m	m	n/a
359.97	0.105	719940	keystroke_a	a	n/a
360.1795	0.06	720359	keystroke_t	t	n/a
360.2255	0.0895	720451	keystroke_i	i	n/a
360.4345	0.12	720869	keystroke_o	o	n/a
360.5395	0.09	721079	keystroke_n	n	n/a
360.7045	0.105	721409	keystroke_Key.enter	Key.enter	n/a
360.816	8.8005	721632	prompt	n/a	rewards belong colorado mission\n
361.4545	0.1205	722909	keystroke_r	r	n/a
361.56	0.105	723120	keystroke_e	e	n/a
361.846	0.149	723692	keystroke_w	w	n/a
361.981	0.119	723962	keystroke_a	a	n/a
362.1905	0.09	724381	keystroke_r	r	n/a
362.43	0.12	724860	keystroke_d	d	n/a
362.535	0.1345	725070	keystroke_s	s	n/a
362.6695	0.1355	725339	keystroke_Key.space	Key.space	n/a
362.865	0.09	725730	keystroke_b	b	n/a
362.985	0.09	725970	keystroke_e	e	n/a
363.135	0.09	726270	keystroke_l	l	n/a
363.465	0.12	726930	keystroke_o	o	n/a
363.555	0.105	727110	keystroke_n	n	n/a
363.69	0.135	727380	keystroke_g	g	n/a
363.765	0.135	727530	keystroke_Key.space	Key.space	n/a
364.035	0.104	728070	keystroke_c	c	n/a
364.155	0.0745	728310	keystroke_o	o	n/a
364.3205	0.074	728641	keystroke_r	r	n/a
364.4095	0.076	728819	keystroke_l	l	n/a
364.62	0.0745	729240	keystroke_o	o	n/a
364.9795	0.0605	729959	keystroke_Key.backspace	Key.backspace	n/a
365.13	0.045	730260	keystroke_Key.backspace	Key.backspace	n/a
365.25	0.075	730500	keystroke_Key.backspace	Key.backspace	n/a
365.52	0.09	731040	keystroke_l	l	n/a
365.715	0.075	731430	keystroke_o	o	n/a
365.8355	0.0895	731671	keystroke_r	r	n/a
366.075	0.12	732150	keystroke_a	a	n/a
366.36	0.105	732720	keystroke_d	d	n/a
366.495	0.09	732990	keystroke_o	o	n/a
366.66	0.09	733320	keystroke_Key.space	Key.space	n/a
367.1105	0.0595	734221	keystroke_m	m	n/a
367.23	0.1055	734460	keystroke_i	i	n/a
367.32	0.076	734640	keystroke_s	s	n/a
367.455	0.105	734910	keystroke_s	s	n/a
367.545	0.075	735090	keystroke_i	i	n/a
367.7405	0.1645	735481	keystroke_o	o	n/a
367.8755	0.1045	735751	keystroke_n	n	n/a
369.51	0.1045	739020	keystroke_Key.enter	Key.enter	n/a
369.6215	6.385	739243	prompt	n/a	membership details reviews searches\n
370.305	0.0895	740610	keystroke_m	m	n/a
370.38	0.09	740760	keystroke_e	e	n/a
370.471	0.074	740942	keystroke_m	m	n/a
370.68	0.075	741360	keystroke_b	b	n/a
370.74	0.135	741480	keystroke_e	e	n/a
370.83	0.12	741660	keystroke_r	r	n/a
371.025	0.12	742050	keystroke_s	s	n/a
371.13	0.075	742260	keystroke_h	h	n/a
371.325	0.09	742650	keystroke_i	i	n/a
371.55	0.105	743100	keystroke_p	p	n/a
371.625	0.15	743250	keystroke_Key.space	Key.space	n/a
371.835	0.09	743670	keystroke_d	d	n/a
372.045	0.045	744090	keystroke_e	e	n/a
372.195	0.0905	744390	keystroke_t	t	n/a
372.33	0.1205	744660	keystroke_a	a	n/a
372.4345	0.09	744869	keystroke_i	i	n/a
372.5995	0.121	745199	keystroke_l	l	n/a
372.7045	0.105	745409	keystroke_s	s	n/a
372.7495	0.135	745499	keystroke_Key.space	Key.space	n/a
373.0055	0.119	746011	keystroke_r	r	n/a
373.0955	0.119	746191	keystroke_e	e	n/a
373.3345	0.09	746669	keystroke_v	v	n/a
373.4995	0.0905	746999	keystroke_i	i	n/a
373.665	0.1045	747330	keystroke_e	e	n/a
373.965	0.135	747930	keystroke_w	w	n/a
374.235	0.12	748470	keystroke_s	s	n/a
374.355	0.12	748710	keystroke_Key.space	Key.space	n/a
374.5205	0.0745	749041	keystroke_s	s	n/a
374.775	0.135	749550	keystroke_e	e	n/a
374.97	0.135	749940	keystroke_a	a	n/a
375.165	0.09	750330	keystroke_r	r	n/a
375.405	0.09	750810	keystroke_c	c	n/a
375.555	0.0905	751110	keystroke_h	h	n/a
375.66	0.15	751320	keystroke_e	e	n/a
375.795	0.135	751590	keystroke_s	s	n/a
375.9	0.105	751800	keystroke_Key.enter	Key.enter	n/a
376.011	7.6755	752022	prompt	n/a	pipe statewide commissions routing\n
376.635	0.06	753270	keystroke_p	p	n/a
376.83	0.06	753660	keystroke_i	i	n/a
377.04	0.09	754080	keystroke_p	p	n/a
377.16	0.105	754320	keystroke_e	e	n/a
377.235	0.135	754470	keystroke_Key.space	Key.space	n/a
377.43	0.105	754860	keystroke_s	s	n/a
377.6555	0.074	755311	keystroke_t	t	n/a
377.7445	0.165	755489	keystroke_a	a	n/a
377.865	0.1045	755730	keystroke_t	t	n/a
377.9555	0.119	755911	keystroke_e	e	n/a
378.2695	0.105	756539	keystroke_w	w	n/a
378.435	0.0895	756870	keystroke_i	i	n/a
378.885	0.0745	757770	keystroke_d	d	n/a
379.1105	0.1045	758221	keystroke_e	e	n/a
379.155	0.12	758310	keystroke_Key.space	Key.space	n/a
379.56	0.0895	759120	keystroke_c	c	n/a
379.68	0.09	759360	keystroke_o	o	n/a
379.8905	0.074	759781	keystroke_m	m	n/a
380.0695	0.06	760139	keystroke_m	m	n/a
380.61	0.1045	761220	keystroke_i	i	n/a
380.8645	0.09	761729	keystroke_s	s	n/a
381.0455	0.089	762091	keystroke_s	s	n/a
381.1495	0.0755	762299	keystroke_i	i	n/a
381.3295	0.135	762659	keystroke_o	o	n/a
381.4505	0.075	762901	keystroke_n	n	n/a
381.5555	0.104	763111	keystroke_s	s	n/a
381.6295	0.1205	763259	keystroke_Key.space	Key.space	n/a
382.425	0.1055	764850	keystroke_r	r	n/a
382.5605	0.0895	765121	keystroke_o	o	n/a
382.83	0.075	765660	keystroke_u	u	n/a
382.995	0.09	765990	keystroke_t	t	n/a
383.25	0.135	766500	keystroke_i	i	n/a
383.34	0.09	766680	keystroke_n	n	n/a
383.445	0.0895	766890	keystroke_g	g	n/a
383.5795	0.105	767159	keystroke_Key.enter	Key.enter	n/a
383.691	6.9855	767382	prompt	n/a	elimination gave collectables anger\n
384.2855	0.089	768571	keystroke_e	e	n/a
384.39	0.0905	768780	keystroke_l	l	n/a
384.5845	0.0755	769169	keystroke_i	i	n/a
384.81	0.075	769620	keystroke_m	m	n/a
384.9755	0.0895	769951	keystroke_i	i	n/a
385.1855	0.09	770371	keystroke_n	n	n/a
385.3345	0.136	770669	keystroke_a	a	n/a
385.5745	0.075	771149	keystroke_t	t	n/a
385.695	0.0745	771390	keystroke_i	i	n/a
385.9045	0.1355	771809	keystroke_o	o	n/a
386.01	0.075	772020	keystroke_n	n	n/a
386.0695	0.105	772139	keystroke_Key.space	Key.space	n/a
386.535	0.09	773070	keystroke_g	g	n/a
386.6545	0.135	773309	keystroke_a	a	n/a
386.88	0.09	773760	keystroke_v	v	n/a
387.0745	0.091	774149	keystroke_e	e	n/a
387.135	0.1345	774270	keystroke_Key.space	Key.space	n/a
387.3455	0.09	774691	keystroke_s	s	n/a
387.7345	0.105	775469	keystroke_Key.backspace	Key.backspace	n/a
387.9005	0.12	775801	keystroke_c	c	n/a
388.0655	0.09	776131	keystroke_o	o	n/a
388.2605	0.06	776521	keystroke_l	l	n/a
388.3805	0.074	776761	keystroke_l	l	n/a
388.4405	0.074	776881	keystroke_e	e	n/a
388.6355	0.089	777271	keystroke_c	c	n/a
388.8745	0.076	777749	keystroke_t	t	n/a
389.1155	0.12	778231	keystroke_a	a	n/a
389.2505	0.0745	778501	keystroke_b	b	n/a
389.4005	0.1045	778801	keystroke_l	l	n/a
389.475	0.1495	778950	keystroke_e	e	n/a
389.5945	0.105	779189	keystroke_s	s	n/a
389.6545	0.15	779309	keystroke_Key.space	Key.space	n/a
389.9395	0.121	779879	keystroke_a	a	n/a
390.0445	0.09	780089	keystroke_n	n	n/a
390.1645	0.076	780329	keystroke_g	g	n/a
390.2855	0.179	780571	keystroke_e	e	n/a
390.4195	0.12	780839	keystroke_r	r	n/a
390.5845	0.09	781169	keystroke_Key.enter	Key.enter	n/a
390.6815	7.585	781363	prompt	n/a	cluster produced donors episodes\n
391.3345	0.091	782669	keystroke_c	c	n/a
391.4395	0.0755	782879	keystroke_l	l	n/a
391.65	0.075	783300	keystroke_u	u	n/a
391.755	0.09	783510	keystroke_s	s	n/a
391.965	0.0905	783930	keystroke_t	t	n/a
392.1	0.15	784200	keystroke_e	e	n/a
392.2205	0.1045	784441	keystroke_r	r	n/a
392.295	0.105	784590	keystroke_Key.space	Key.space	n/a
392.565	0.09	785130	keystroke_p	p	n/a
392.6705	0.0745	785341	keystroke_r	r	n/a
392.775	0.075	785550	keystroke_o	o	n/a
392.94	0.105	785880	keystroke_d	d	n/a
393.105	0.075	786210	keystroke_u	u	n/a
393.24	0.09	786480	keystroke_c	c	n/a
393.6455	0.074	787291	keystroke_e	e	n/a
393.8545	0.105	787709	keystroke_d	d	n/a
393.9745	0.12	787949	keystroke_Key.space	Key.space	n/a
394.425	0.12	788850	keystroke_c	c	n/a
394.56	0.12	789120	keystroke_o	o	n/a
394.65	0.135	789300	keystroke_n	n	n/a
395.025	0.06	790050	keystroke_Key.backspace	Key.backspace	n/a
395.16	0.075	790320	keystroke_Key.backspace	Key.backspace	n/a
395.325	0.105	790650	keystroke_Key.backspace	Key.backspace	n/a
395.4605	0.1195	790921	keystroke_d	d	n/a
395.685	0.15	791370	keystroke_o	o	n/a
395.775	0.105	791550	keystroke_n	n	n/a
396.0155	0.1045	792031	keystroke_o	o	n/a
396.18	0.12	792360	keystroke_r	r	n/a
396.36	0.12	792720	keystroke_s	s	n/a
396.465	0.105	792930	keystroke_Key.space	Key.space	n/a
396.72	0.075	793440	keystroke_e	e	n/a
396.975	0.09	793950	keystroke_p	p	n/a
397.1995	0.091	794399	keystroke_i	i	n/a
397.4545	0.1205	794909	keystroke_s	s	n/a
397.5905	0.0745	795181	keystroke_o	o	n/a
397.71	0.105	795420	keystroke_d	d	n/a
397.935	0.105	795870	keystroke_e	e	n/a
398.025	0.15	796050	keystroke_s	s	n/a
398.1595	0.1055	796319	keystroke_Key.enter	Key.enter	n/a
398.271	9.9405	796542	prompt	n/a	eleven levitra satellite geography\n
398.9105	0.0735	797821	keystroke_e	e	n/a
399.0005	0.0895	798001	keystroke_l	l	n/a
399.075	0.09	798150	keystroke_e	e	n/a
399.3	0.0895	798600	keystroke_v	v	n/a
399.51	0.0745	799020	keystroke_e	e	n/a
399.704	0.076	799408	keystroke_n	n	n/a
399.8395	0.0905	799679	keystroke_Key.space	Key.space	n/a
400.259	0.091	800518	keystroke_l	l	n/a
400.3345	0.091	800669	keystroke_e	e	n/a
400.5905	0.06	801181	keystroke_v	v	n/a
401.07	0.0905	802140	keystroke_i	i	n/a
402.42	0.1055	804840	keystroke_t	t	n/a
402.7345	0.1055	805469	keystroke_r	r	n/a
402.855	0.1355	805710	keystroke_a	a	n/a
402.975	0.104	805950	keystroke_Key.space	Key.space	n/a
403.9205	0.1195	807841	keystroke_s	s	n/a
404.1595	0.075	808319	keystroke_a	a	n/a
404.55	0.1045	809100	keystroke_t	t	n/a
404.6695	0.151	809339	keystroke_e	e	n/a
404.9545	0.0905	809909	keystroke_l	l	n/a
405.12	0.09	810240	keystroke_l	l	n/a
405.36	0.06	810720	keystroke_i	i	n/a
405.57	0.12	811140	keystroke_t	t	n/a
405.705	0.105	811410	keystroke_e	e	n/a
405.795	0.135	811590	keystroke_Key.space	Key.space	n/a
406.32	0.06	812640	keystroke_g	g	n/a
406.485	0.09	812970	keystroke_e	e	n/a
406.665	0.09	813330	keystroke_o	o	n/a
406.9055	0.0445	813811	keystroke_g	g	n/a
407.1	0.136	814200	keystroke_r	r	n/a
407.22	0.135	814440	keystroke_a	a	n/a
407.385	0.105	814770	keystroke_p	p	n/a
407.655	0.075	815310	keystroke_h	h	n/a
407.8805	0.0895	815761	keystroke_y	y	n/a
408.105	0.105	816210	keystroke_Key.enter	Key.enter	n/a
408.2155	8.186	816431	prompt	n/a	arrival premier subscribe websites\n
408.8405	0.074	817681	keystroke_a	a	n/a
409.035	0.0595	818070	keystroke_r	r	n/a
409.14	0.105	818280	keystroke_r	r	n/a
409.29	0.105	818580	keystroke_i	i	n/a
409.41	0.105	818820	keystroke_v	v	n/a
409.74	0.1205	819480	keystroke_a	a	n/a
409.875	0.0905	819750	keystroke_l	l	n/a
409.98	0.105	819960	keystroke_Key.space	Key.space	n/a
410.2955	0.075	820591	keystroke_p	p	n/a
410.4445	0.06	820889	keystroke_r	r	n/a
410.805	0.075	821610	keystroke_Key.backspace	Key.backspace	n/a
411.2105	0.104	822421	keystroke_r	r	n/a
411.3895	0.1055	822779	keystroke_e	e	n/a
411.72	0.075	823440	keystroke_m	m	n/a
411.9145	0.09	823829	keystroke_i	i	n/a
412.215	0.1645	824430	keystroke_e	e	n/a
412.35	0.15	824700	keystroke_r	r	n/a
412.47	0.105	824940	keystroke_Key.space	Key.space	n/a
412.74	0.1055	825480	keystroke_s	s	n/a
412.92	0.105	825840	keystroke_u	u	n/a
412.995	0.1055	825990	keystroke_b	b	n/a
413.1305	0.104	826261	keystroke_s	s	n/a
413.8045	0.0755	827609	keystroke_c	c	n/a
414.0745	0.1055	828149	keystroke_r	r	n/a
414.2095	0.151	828419	keystroke_i	i	n/a
414.3445	0.1055	828689	keystroke_b	b	n/a
414.4795	0.1055	828959	keystroke_e	e	n/a
414.5395	0.1505	829079	keystroke_Key.space	Key.space	n/a
414.84	0.135	829680	keystroke_w	w	n/a
414.96	0.105	829920	keystroke_e	e	n/a
415.05	0.105	830100	keystroke_b	b	n/a
415.47	0.105	830940	keystroke_s	s	n/a
415.71	0.09	831420	keystroke_i	i	n/a
415.86	0.15	831720	keystroke_t	t	n/a
415.995	0.165	831990	keystroke_e	e	n/a
416.145	0.135	832290	keystroke_s	s	n/a
416.31	0.09	832620	keystroke_Key.enter	Key.enter	n/a
416.406	8.306	832812	prompt	n/a	entitled combination disease easily\n
416.94	0.075	833880	keystroke_a	a	n/a
417.33	0.09	834660	keystroke_Key.backspace	Key.backspace	n/a
417.435	0.09	834870	keystroke_e	e	n/a
417.6	0.075	835200	keystroke_n	n	n/a
417.69	0.075	835380	keystroke_t	t	n/a
417.855	0.09	835710	keystroke_i	i	n/a
417.96	0.09	835920	keystroke_t	t	n/a
418.14	0.0905	836280	keystroke_l	l	n/a
418.2755	0.1495	836551	keystroke_e	e	n/a
418.4555	0.119	836911	keystroke_s	s	n/a
418.8445	0.075	837689	keystroke_Key.backspace	Key.backspace	n/a
418.9355	0.12	837871	keystroke_d	d	n/a
419.04	0.1195	838080	keystroke_Key.space	Key.space	n/a
419.6555	0.239	839311	keystroke_c	c	n/a
419.88	0.0445	839760	keystroke_o	o	n/a
419.91	0.0295	839820	keystroke_m	m	n/a
420.285	0.105	840570	keystroke_b	b	n/a
420.7205	0.165	841441	keystroke_i	i	n/a
420.855	0.105	841710	keystroke_n	n	n/a
421.0505	0.1045	842101	keystroke_a	a	n/a
421.275	0.06	842550	keystroke_t	t	n/a
421.35	0.09	842700	keystroke_i	i	n/a
421.5445	0.105	843089	keystroke_o	o	n/a
421.6345	0.105	843269	keystroke_n	n	n/a
421.7095	0.105	843419	keystroke_Key.space	Key.space	n/a
421.9045	0.106	843809	keystroke_d	d	n/a
421.9945	0.106	843989	keystroke_i	i	n/a
422.4005	0.104	844801	keystroke_s	s	n/a
422.7305	0.0895	845461	keystroke_e	e	n/a
422.835	0.12	845670	keystroke_a	a	n/a
423.074	0.1065	846148	keystroke_s	s	n/a
423.285	0.1345	846570	keystroke_e	e	n/a
423.3895	0.105	846779	keystroke_Key.space	Key.space	n/a
423.675	0.075	847350	keystroke_e	e	n/a
423.81	0.09	847620	keystroke_a	a	n/a
424.02	0.105	848040	keystroke_s	s	n/a
424.14	0.105	848280	keystroke_i	i	n/a
424.35	0.105	848700	keystroke_l	l	n/a
424.47	0.075	848940	keystroke_y	y	n/a
424.635	0.075	849270	keystroke_Key.enter	Key.enter	n/a
424.716	9.5805	849432	prompt	n/a	grateful pichunter distinction width\n
425.3855	0.0895	850771	keystroke_g	g	n/a
425.5505	0.12	851101	keystroke_r	r	n/a
425.6855	0.119	851371	keystroke_a	a	n/a
425.865	0.1205	851730	keystroke_t	t	n/a
426.0005	0.104	852001	keystroke_e	e	n/a
426.2995	0.046	852599	keystroke_f	f	n/a
426.4205	0.075	852841	keystroke_u	u	n/a
426.6155	0.089	853231	keystroke_l	l	n/a
426.6905	0.09	853381	keystroke_Key.space	Key.space	n/a
427.38	0.09	854760	keystroke_p	p	n/a
427.605	0.075	855210	keystroke_i	i	n/a
427.695	0.105	855390	keystroke_c	c	n/a
428.1305	0.104	856261	keystroke_f	f	n/a
428.2195	0.1655	856439	keystroke_u	u	n/a
428.3095	0.135	856619	keystroke_n	n	n/a
428.5205	0.09	857041	keystroke_t	t	n/a
428.9395	0.06	857879	keystroke_Key.backspace	Key.backspace	n/a
429.0895	0.0455	858179	keystroke_Key.backspace	Key.backspace	n/a
429.2095	0.045	858419	keystroke_Key.backspace	Key.backspace	n/a
429.3145	0.06	858629	keystroke_Key.backspace	Key.backspace	n/a
429.6005	0.0745	859201	keystroke_h	h	n/a
429.795	0.135	859590	keystroke_u	u	n/a
429.885	0.105	859770	keystroke_n	n	n/a
430.035	0.075	860070	keystroke_t	t	n/a
430.185	0.1655	860370	keystroke_e	e	n/a
430.305	0.135	860610	keystroke_r	r	n/a
430.485	0.12	860970	keystroke_Key.space	Key.space	n/a
430.9345	0.12	861869	keystroke_d	d	n/a
431.1005	0.1045	862201	keystroke_i	i	n/a
431.25	0.1055	862500	keystroke_s	s	n/a
432.015	0.09	864030	keystroke_t	t	n/a
432.135	0.12	864270	keystroke_i	i	n/a
432.24	0.09	864480	keystroke_n	n	n/a
432.345	0.1055	864690	keystroke_c	c	n/a
432.615	0.075	865230	keystroke_t	t	n/a
432.705	0.06	865410	keystroke_i	i	n/a
432.87	0.105	865740	keystroke_o	o	n/a
432.93	0.12	865860	keystroke_n	n	n/a
433.035	0.105	866070	keystroke_Key.space	Key.space	n/a
433.23	0.0905	866460	keystroke_w	w	n/a
433.3355	0.0595	866671	keystroke_i	i	n/a
433.4855	0.075	866971	keystroke_d	d	n/a
433.755	0.075	867510	keystroke_t	t	n/a
433.9655	0.0895	867931	keystroke_h	h	n/a
434.205	0.09	868410	keystroke_Key.enter	Key.enter	n/a
434.3005	4.542	868601	prompt	n/a	becomes exist youth takes\n
434.9545	0.076	869909	keystroke_b	b	n/a
435.0145	0.091	870029	keystroke_e	e	n/a
435.2555	0.089	870511	keystroke_c	c	n/a
435.3155	0.135	870631	keystroke_o	o	n/a
435.4345	0.106	870869	keystroke_m	m	n/a
435.5555	0.149	871111	keystroke_e	e	n/a
435.6895	0.1055	871379	keystroke_s	s	n/a
435.7345	0.1505	871469	keystroke_Key.space	Key.space	n/a
435.915	0.105	871830	keystroke_e	e	n/a
436.17	0.135	872340	keystroke_x	x	n/a
436.44	0.09	872880	keystroke_i	i	n/a
436.575	0.1055	873150	keystroke_s	s	n/a
436.785	0.105	873570	keystroke_t	t	n/a
436.86	0.105	873720	keystroke_Key.space	Key.space	n/a
437.235	0.0905	874470	keystroke_y	y	n/a
437.3405	0.0745	874681	keystroke_o	o	n/a
437.5805	0.06	875161	keystroke_u	u	n/a
437.7305	0.089	875461	keystroke_t	t	n/a
437.8645	0.075	875729	keystroke_h	h	n/a
437.9545	0.0905	875909	keystroke_Key.space	Key.space	n/a
438.15	0.1045	876300	keystroke_t	t	n/a
438.2705	0.134	876541	keystroke_a	a	n/a
438.4195	0.105	876839	keystroke_k	k	n/a
438.5095	0.15	877019	keystroke_e	e	n/a
438.6745	0.105	877349	keystroke_s	s	n/a
438.7345	0.105	877469	keystroke_Key.enter	Key.enter	n/a
438.8475	5.2935	877695	prompt	n/a	finest laden commit learners\n
439.62	0.1045	879240	keystroke_f	f	n/a
439.7695	0.0745	879539	keystroke_i	i	n/a
439.83	0.1045	879660	keystroke_n	n	n/a
439.9505	0.1345	879901	keystroke_e	e	n/a
440.0705	0.1335	880141	keystroke_s	s	n/a
440.2205	0.1045	880441	keystroke_t	t	n/a
440.294	0.1055	880588	keystroke_Key.space	Key.space	n/a
440.4605	0.105	880921	keystroke_l	l	n/a
440.6255	0.1045	881251	keystroke_a	a	n/a
440.8055	0.105	881611	keystroke_d	d	n/a
441.06	0.1055	882120	keystroke_e	e	n/a
441.2095	0.09	882419	keystroke_n	n	n/a
441.3445	0.105	882689	keystroke_Key.space	Key.space	n/a
441.6295	0.105	883259	keystroke_c	c	n/a
441.7045	0.06	883409	keystroke_o	o	n/a
441.8845	0.0605	883769	keystroke_m	m	n/a
442.02	0.075	884040	keystroke_m	m	n/a
442.215	0.075	884430	keystroke_i	i	n/a
442.32	0.12	884640	keystroke_t	t	n/a
442.395	0.15	884790	keystroke_Key.space	Key.space	n/a
442.71	0.09	885420	keystroke_l	l	n/a
442.755	0.15	885510	keystroke_e	e	n/a
442.89	0.1645	885780	keystroke_a	a	n/a
443.0695	0.06	886139	keystroke_r	r	n/a
443.115	0.06	886230	keystroke_n	n	n/a
443.22	0.1205	886440	keystroke_e	e	n/a
443.5655	0.1195	887131	keystroke_r	r	n/a
443.85	0.15	887700	keystroke_s	s	n/a
444.0295	0.1055	888059	keystroke_Key.enter	Key.enter	n/a
444.141	10.7355	888282	prompt	n/a	conjunction alphabetical able returning\n
444.8545	0.1045	889709	keystroke_c	c	n/a
445.305	0.15	890610	keystroke_o	o	n/a
445.41	0.12	890820	keystroke_n	n	n/a
445.6805	0.1045	891361	keystroke_j	j	n/a
445.935	0.0905	891870	keystroke_u	u	n/a
446.1145	0.121	892229	keystroke_n	n	n/a
446.2945	0.1055	892589	keystroke_c	c	n/a
446.5805	0.074	893161	keystroke_t	t	n/a
446.67	0.0745	893340	keystroke_i	i	n/a
446.9095	0.09	893819	keystroke_o	o	n/a
446.9695	0.135	893939	keystroke_n	n	n/a
447.0895	0.1205	894179	keystroke_Key.space	Key.space	n/a
447.3605	0.1045	894721	keystroke_a	a	n/a
447.78	0.105	895560	keystroke_l	l	n/a
448.095	0.075	896190	keystroke_p	p	n/a
449.0395	0.075	898079	keystroke_h	h	n/a
449.1895	0.1205	898379	keystroke_a	a	n/a
449.61	0.0905	899220	keystroke_b	b	n/a
449.7145	0.076	899429	keystroke_e	e	n/a
449.94	0.0745	899880	keystroke_t	t	n/a
450.0895	0.09	900179	keystroke_i	i	n/a
450.3005	0.089	900601	keystroke_c	c	n/a
450.45	0.0745	900900	keystroke_a	a	n/a
450.54	0.09	901080	keystroke_l	l	n/a
450.6745	0.09	901349	keystroke_Key.space	Key.space	n/a
450.9005	0.1045	901801	keystroke_a	a	n/a
451.0195	0.105	902039	keystroke_b	b	n/a
451.2295	0.105	902459	keystroke_l	l	n/a
451.3195	0.1045	902639	keystroke_e	e	n/a
451.3795	0.1505	902759	keystroke_Key.space	Key.space	n/a
451.5895	0.1205	903179	keystroke_r	r	n/a
451.7695	0.1355	903539	keystroke_e	e	n/a
452.0245	0.09	904049	keystroke_t	t	n/a
452.19	0.0755	904380	keystroke_u	u	n/a
452.3095	0.091	904619	keystroke_r	r	n/a
452.5195	0.121	905039	keystroke_i	i	n/a
452.595	0.1195	905190	keystroke_n	n	n/a
452.79	0.0895	905580	keystroke_g	g	n/a
453.2545	0.0755	906509	keystroke_Key.backspace	Key.backspace	n/a
453.4045	0.045	906809	keystroke_Key.backspace	Key.backspace	n/a
453.5245	0.075	907049	keystroke_Key.backspace	Key.backspace	n/a
453.7955	0.089	907591	keystroke_n	n	n/a
453.975	0.135	907950	keystroke_i	i	n/a
454.0805	0.1045	908161	keystroke_n	n	n/a
454.155	0.105	908310	keystroke_g	g	n/a
454.275	0.135	908550	keystroke_Key.space	Key.space	n/a
454.59	0.075	909180	keystroke_Key.backspace	Key.backspace	n/a
454.785	0.09	909570	keystroke_Key.enter	Key.enter	n/a
454.8815	3.715	909763	prompt	n/a	hawk made buddy talked\n
455.61	0.105	911220	keystroke_h	h	n/a
455.7305	0.0745	911461	keystroke_a	a	n/a
455.88	0.105	911760	keystroke_w	w	n/a
455.97	0.075	911940	keystroke_k	k	n/a
456.06	0.105	912120	keystroke_Key.space	Key.space	n/a
456.21	0.105	912420	keystroke_m	m	n/a
456.3	0.105	912600	keystroke_a	a	n/a
456.45	0.09	912900	keystroke_d	d	n/a
456.645	0.09	913290	keystroke_e	e	n/a
456.69	0.135	913380	keystroke_Key.space	Key.space	n/a
456.99	0.06	913980	keystroke_b	b	n/a
457.125	0.0895	914250	keystroke_u	u	n/a
457.23	0.0755	914460	keystroke_d	d	n/a
457.365	0.09	914730	keystroke_d	d	n/a
457.47	0.059	914940	keystroke_y	y	n/a
457.515	0.119	915030	keystroke_Key.space	Key.space	n/a
457.7545	0.106	915509	keystroke_t	t	n/a
457.874	0.09	915748	keystroke_a	a	n/a
457.98	0.045	915960	keystroke_l	l	n/a
458.1	0.089	916200	keystroke_k	k	n/a
458.2055	0.0585	916411	keystroke_e	e	n/a
458.384	0.106	916768	keystroke_d	d	n/a
458.504	0.09	917008	keystroke_Key.enter	Key.enter	n/a
458.6015	8.125	917203	prompt	n/a	mortgage negotiations cheese indigenous\n
459.404	0.0755	918808	keystroke_m	m	n/a
459.66	0.09	919320	keystroke_o	o	n/a
459.825	0.075	919650	keystroke_r	r	n/a
460.035	0.09	920070	keystroke_t	t	n/a
460.32	0.105	920640	keystroke_g	g	n/a
460.455	0.12	920910	keystroke_a	a	n/a
460.56	0.135	921120	keystroke_g	g	n/a
460.711	0.149	921422	keystroke_e	e	n/a
460.83	0.12	921660	keystroke_Key.space	Key.space	n/a
461.175	0.075	922350	keystroke_n	n	n/a
461.2805	0.1045	922561	keystroke_e	e	n/a
461.595	0.1045	923190	keystroke_g	g	n/a
461.745	0.0895	923490	keystroke_o	o	n/a
462.0445	0.091	924089	keystroke_t	t	n/a
462.18	0.0745	924360	keystroke_i	i	n/a
462.2995	0.135	924599	keystroke_a	a	n/a
462.45	0.0905	924900	keystroke_t	t	n/a
462.795	0.0745	925590	keystroke_i	i	n/a
462.9895	0.165	925979	keystroke_o	o	n/a
463.0945	0.12	926189	keystroke_n	n	n/a
463.2	0.105	926400	keystroke_s	s	n/a
463.26	0.1345	926520	keystroke_Key.space	Key.space	n/a
463.635	0.104	927270	keystroke_c	c	n/a
463.769	0.075	927538	keystroke_h	h	n/a
463.905	0.045	927810	keystroke_e	e	n/a
464.04	0.0745	928080	keystroke_e	e	n/a
464.1755	0.134	928351	keystroke_s	s	n/a
464.3405	0.12	928681	keystroke_e	e	n/a
464.4145	0.12	928829	keystroke_Key.space	Key.space	n/a
464.6995	0.1505	929399	keystroke_i	i	n/a
464.7745	0.1205	929549	keystroke_n	n	n/a
465	0.12	930000	keystroke_d	d	n/a
465.225	0.0745	930450	keystroke_i	i	n/a
465.45	0.0905	930900	keystroke_g	g	n/a
465.6745	0.09	931349	keystroke_e	e	n/a
465.9595	0.075	931919	keystroke_n	n	n/a
466.14	0.09	932280	keystroke_o	o	n/a
466.3495	0.0755	932699	keystroke_u	u	n/a
466.44	0.105	932880	keystroke_s	s	n/a
466.62	0.1045	933240	keystroke_Key.enter	Key.enter	n/a
466.731	7.106	933462	prompt	n/a	everyone proceeding mailing healthcare\n
467.31	0.0895	934620	keystroke_e	e	n/a
467.685	0.105	935370	keystroke_v	v	n/a
467.91	0.135	935820	keystroke_e	e	n/a
468.015	0.12	936030	keystroke_r	r	n/a
468.24	0.0605	936480	keystroke_y	y	n/a
468.5255	0.0895	937051	keystroke_o	o	n/a
468.675	0.075	937350	keystroke_n	n	n/a
468.78	0.105	937560	keystroke_e	e	n/a
468.855	0.165	937710	keystroke_Key.space	Key.space	n/a
469.14	0.105	938280	keystroke_p	p	n/a
469.2595	0.09	938519	keystroke_r	r	n/a
469.365	0.105	938730	keystroke_o	o	n/a
469.8905	0.044	939781	keystroke_c	c	n/a
470.1305	0.044	940261	keystroke_e	e	n/a
470.2795	0.06	940559	keystroke_e	e	n/a
470.46	0.105	940920	keystroke_d	d	n/a
470.7	0.12	941400	keystroke_i	i	n/a
470.7755	0.0745	941551	keystroke_n	n	n/a
470.895	0.12	941790	keystroke_g	g	n/a
470.97	0.12	941940	keystroke_Key.space	Key.space	n/a
471.225	0.06	942450	keystroke_m	m	n/a
471.286	0.119	942572	keystroke_a	a	n/a
471.42	0.075	942840	keystroke_i	i	n/a
471.57	0.12	943140	keystroke_l	l	n/a
471.795	0.1355	943590	keystroke_i	i	n/a
471.8845	0.121	943769	keystroke_n	n	n/a
472.0055	0.104	944011	keystroke_g	g	n/a
472.0645	0.1355	944129	keystroke_Key.space	Key.space	n/a
472.2755	0.06	944551	keystroke_h	h	n/a
472.3045	0.121	944609	keystroke_e	e	n/a
472.4395	0.12	944879	keystroke_a	a	n/a
472.575	0.075	945150	keystroke_l	l	n/a
472.7245	0.0755	945449	keystroke_t	t	n/a
472.8595	0.06	945719	keystroke_h	h	n/a
473.115	0.09	946230	keystroke_c	c	n/a
473.235	0.12	946470	keystroke_a	a	n/a
473.445	0.12	946890	keystroke_r	r	n/a
473.535	0.12	947070	keystroke_e	e	n/a
473.73	0.105	947460	keystroke_Key.enter	Key.enter	n/a
473.841	6.5805	947682	prompt	n/a	stars horizontal eddie hasn't\n
474.4505	0.0745	948901	keystroke_s	s	n/a
474.645	0.075	949290	keystroke_t	t	n/a
474.7355	0.1345	949471	keystroke_a	a	n/a
474.9	0.135	949800	keystroke_r	r	n/a
475.245	0.15	950490	keystroke_s	s	n/a
475.38	0.12	950760	keystroke_Key.space	Key.space	n/a
475.6805	0.0445	951361	keystroke_h	h	n/a
475.844	0.076	951688	keystroke_o	o	n/a
475.935	0.09	951870	keystroke_r	r	n/a
476.085	0.075	952170	keystroke_i	i	n/a
476.205	0.12	952410	keystroke_z	z	n/a
476.475	0.1055	952950	keystroke_o	o	n/a
476.55	0.104	953100	keystroke_n	n	n/a
476.745	0.1055	953490	keystroke_a	a	n/a
477.12	0.0895	954240	keystroke_Key.backspace	Key.backspace	n/a
477.2105	0.104	954421	keystroke_t	t	n/a
477.3295	0.12	954659	keystroke_a	a	n/a
477.72	0.09	955440	keystroke_l	l	n/a
477.885	0.12	955770	keystroke_Key.space	Key.space	n/a
478.26	0.06	956520	keystroke_e	e	n/a
478.455	0.09	956910	keystroke_d	d	n/a
478.59	0.075	957180	keystroke_d	d	n/a
478.725	0.09	957450	keystroke_i	i	n/a
478.8595	0.12	957719	keystroke_e	e	n/a
478.9195	0.15	957839	keystroke_Key.space	Key.space	n/a
479.204	0.06	958408	keystroke_h	h	n/a
479.295	0.03	958590	keystroke_a	a	n/a
479.46	0.105	958920	keystroke_s	s	n/a
479.6245	0.105	959249	keystroke_n	n	n/a
479.85	0.1195	959700	keystroke_'	'	n/a
480.03	0.105	960060	keystroke_t	t	n/a
480.33	0.0895	960660	keystroke_Key.enter	Key.enter	n/a
480.4265	7.1655	960853	prompt	n/a	hebrew anatomy cooling declare\n
481.14	0.06	962280	keystroke_h	h	n/a
481.229	0.121	962458	keystroke_e	e	n/a
481.4245	0.09	962849	keystroke_b	b	n/a
481.6195	0.0905	963239	keystroke_r	r	n/a
482.0695	0.076	964139	keystroke_e	e	n/a
482.2495	0.105	964499	keystroke_w	w	n/a
482.3395	0.1205	964679	keystroke_Key.space	Key.space	n/a
482.49	0.0905	964980	keystroke_a	a	n/a
482.6245	0.06	965249	keystroke_n	n	n/a
482.7005	0.0735	965401	keystroke_a	a	n/a
483.314	0.091	966628	keystroke_t	t	n/a
483.465	0.1495	966930	keystroke_o	o	n/a
483.735	0.1195	967470	keystroke_m	m	n/a
483.9295	0.0755	967859	keystroke_y	y	n/a
483.99	0.0895	967980	keystroke_Key.space	Key.space	n/a
484.3195	0.09	968639	keystroke_c	c	n/a
484.575	0.1045	969150	keystroke_o	o	n/a
485.0845	0.105	970169	keystroke_o	o	n/a
485.295	0.135	970590	keystroke_l	l	n/a
485.58	0.1345	971160	keystroke_i	i	n/a
485.6705	0.1045	971341	keystroke_n	n	n/a
485.76	0.0895	971520	keystroke_g	g	n/a
485.8045	0.1355	971609	keystroke_Key.space	Key.space	n/a
486.03	0.105	972060	keystroke_d	d	n/a
486.2395	0.0755	972479	keystroke_e	e	n/a
486.48	0.119	972960	keystroke_c	c	n/a
486.75	0.105	973500	keystroke_l	l	n/a
486.9595	0.1055	973919	keystroke_a	a	n/a
487.1395	0.1355	974279	keystroke_r	r	n/a
487.2455	0.1345	974491	keystroke_e	e	n/a
487.4995	0.0895	974999	keystroke_Key.enter	Key.enter	n/a
487.5955	7.196	975191	prompt	n/a	transparency purpose felt photos\n
488.3105	0.104	976621	keystroke_t	t	n/a
488.4	0.135	976800	keystroke_r	r	n/a
488.5195	0.1205	977039	keystroke_a	a	n/a
488.6845	0.076	977369	keystroke_n	n	n/a
488.775	0.1045	977550	keystroke_s	s	n/a
488.9995	0.1055	977999	keystroke_p	p	n/a
489.135	0.0745	978270	keystroke_a	a	n/a
489.3305	0.119	978661	keystroke_r	r	n/a
489.435	0.119	978870	keystroke_a	a	n/a
489.9	0.06	979800	keystroke_Key.backspace	Key.backspace	n/a
490.02	0.105	980040	keystroke_e	e	n/a
490.32	0.06	980640	keystroke_c	c	n/a
490.485	0.045	980970	keystroke_n	n	n/a
490.74	0.06	981480	keystroke_Key.backspace	Key.backspace	n/a
490.86	0.074	981720	keystroke_Key.backspace	Key.backspace	n/a
491.115	0.06	982230	keystroke_n	n	n/a
491.22	0.09	982440	keystroke_c	c	n/a
491.3705	0.0745	982741	keystroke_y	y	n/a
491.519	0.121	983038	keystroke_Key.space	Key.space	n/a
491.8795	0.0905	983759	keystroke_p	p	n/a
492.104	0.075	984208	keystroke_u	u	n/a
492.1955	0.104	984391	keystroke_r	r	n/a
492.3745	0.075	984749	keystroke_p	p	n/a
492.555	0.0745	985110	keystroke_o	o	n/a
492.615	0.09	985230	keystroke_s	s	n/a
492.78	0.1195	985560	keystroke_e	e	n/a
492.8545	0.12	985709	keystroke_Key.space	Key.space	n/a
493.0495	0.12	986099	keystroke_f	f	n/a
493.215	0.1045	986430	keystroke_e	e	n/a
493.3505	0.089	986701	keystroke_l	l	n/a
493.4695	0.105	986939	keystroke_t	t	n/a
493.5595	0.09	987119	keystroke_Key.space	Key.space	n/a
493.7995	0.09	987599	keystroke_p	p	n/a
494.0545	0.075	988109	keystroke_h	h	n/a
494.25	0.0745	988500	keystroke_o	o	n/a
494.34	0.1045	988680	keystroke_t	t	n/a
494.4595	0.0755	988919	keystroke_o	o	n/a
494.565	0.12	989130	keystroke_s	s	n/a
494.7	0.09	989400	keystroke_Key.enter	Key.enter	n/a
494.797	7.3595	989594	prompt	n/a	frederick wayne has accessory\n
495.4795	0.09	990959	keystroke_f	f	n/a
495.735	0.1045	991470	keystroke_r	r	n/a
495.8545	0.1055	991709	keystroke_e	e	n/a
496.08	0.1195	992160	keystroke_d	d	n/a
496.3945	0.0905	992789	keystroke_e	e	n/a
496.4695	0.1055	992939	keystroke_r	r	n/a
496.7995	0.0755	993599	keystroke_i	i	n/a
496.9645	0.09	993929	keystroke_c	c	n/a
497.085	0.1045	994170	keystroke_k	k	n/a
497.2045	0.09	994409	keystroke_Key.space	Key.space	n/a
497.55	0.15	995100	keystroke_w	w	n/a
497.7145	0.1355	995429	keystroke_a	a	n/a
497.8795	0.0905	995759	keystroke_y	y	n/a
498.2705	0.0895	996541	keystroke_n	n	n/a
498.435	0.105	996870	keystroke_e	e	n/a
498.51	0.15	997020	keystroke_Key.space	Key.space	n/a
499.02	0.06	998040	keystroke_h	h	n/a
499.0945	0.09	998189	keystroke_a	a	n/a
499.3055	0.119	998611	keystroke_s	s	n/a
499.4095	0.135	998819	keystroke_Key.space	Key.space	n/a
500.2945	0.09	1000589	keystroke_a	a	n/a
500.595	0.0445	1001190	keystroke_c	c	n/a
500.7145	0.09	1001429	keystroke_c	c	n/a
500.9255	0.089	1001851	keystroke_e	e	n/a
501.0745	0.105	1002149	keystroke_s	s	n/a
501.2545	0.12	1002509	keystroke_s	s	n/a
501.4945	0.075	1002989	keystroke_o	o	n/a
501.5995	0.105	1003199	keystroke_r	r	n/a
501.8095	0.031	1003619	keystroke_y	y	n/a
502.065	0.09	1004130	keystroke_Key.enter	Key.enter	n/a
502.161	10.0605	1004322	prompt	n/a	extending fears conspiracy attacks\n
502.7545	0.075	1005509	keystroke_e	e	n/a
502.995	0.105	1005990	keystroke_x	x	n/a
503.31	0.09	1006620	keystroke_t	t	n/a
503.445	0.09	1006890	keystroke_e	e	n/a
503.594	0.091	1007188	keystroke_n	n	n/a
503.79	0.1055	1007580	keystroke_d	d	n/a
504.0295	0.0905	1008059	keystroke_i	i	n/a
504.0755	0.1345	1008151	keystroke_n	n	n/a
504.224	0.1365	1008448	keystroke_g	g	n/a
504.3155	0.1345	1008631	keystroke_Key.space	Key.space	n/a
504.7345	0.0905	1009469	keystroke_d	d	n/a
504.9	0.135	1009800	keystroke_e	e	n/a
505.02	0.1345	1010040	keystroke_a	a	n/a
505.17	0.135	1010340	keystroke_r	r	n/a
505.32	0.105	1010640	keystroke_s	s	n/a
505.395	0.1205	1010790	keystroke_Key.space	Key.space	n/a
505.665	0.1195	1011330	keystroke_c	c	n/a
505.8	0.09	1011600	keystroke_o	o	n/a
505.875	0.105	1011750	keystroke_n	n	n/a
506.1	0.12	1012200	keystroke_s	s	n/a
506.295	0.075	1012590	keystroke_i	i	n/a
506.535	0.0895	1013070	keystroke_p	p	n/a
508.0195	0.09	1016039	keystroke_Key.backspace	Key.backspace	n/a
508.1845	0.075	1016369	keystroke_Key.backspace	Key.backspace	n/a
508.4245	0.076	1016849	keystroke_p	p	n/a
508.6505	0.0895	1017301	keystroke_i	i	n/a
508.7855	0.1195	1017571	keystroke_r	r	n/a
508.9655	0.1345	1017931	keystroke_a	a	n/a
509.205	0.075	1018410	keystroke_r	r	n/a
509.37	0.09	1018740	keystroke_y	y	n/a
509.73	0.06	1019460	keystroke_Key.backspace	Key.backspace	n/a
509.88	0.03	1019760	keystroke_Key.backspace	Key.backspace	n/a
509.97	0.105	1019940	keystroke_c	c	n/a
510.225	0.09	1020450	keystroke_y	y	n/a
510.345	0.105	1020690	keystroke_Key.space	Key.space	n/a
510.615	0.09	1021230	keystroke_a	a	n/a
510.825	0.09	1021650	keystroke_t	t	n/a
510.93	0.12	1021860	keystroke_t	t	n/a
511.08	0.135	1022160	keystroke_a	a	n/a
511.395	0.1195	1022790	keystroke_c	c	n/a
511.77	0.0895	1023540	keystroke_k	k	n/a
511.9645	0.105	1023929	keystroke_s	s	n/a
512.1145	0.105	1024229	keystroke_Key.enter	Key.enter	n/a
512.226	8.006	1024452	prompt	n/a	maria pontiac omaha candidates\n
512.8505	0.0895	1025701	keystroke_m	m	n/a
513	0.1205	1026000	keystroke_a	a	n/a
513.225	0.0905	1026450	keystroke_r	r	n/a
513.3595	0.06	1026719	keystroke_i	i	n/a
513.465	0.1195	1026930	keystroke_a	a	n/a
513.5695	0.105	1027139	keystroke_Key.space	Key.space	n/a
513.96	0.09	1027920	keystroke_p	p	n/a
514.245	0.165	1028490	keystroke_o	o	n/a
514.3805	0.104	1028761	keystroke_n	n	n/a
514.59	0.075	1029180	keystroke_t	t	n/a
514.725	0.06	1029450	keystroke_i	i	n/a
514.83	0.105	1029660	keystroke_a	a	n/a
515.0695	0.1055	1030139	keystroke_c	c	n/a
515.2045	0.105	1030409	keystroke_Key.space	Key.space	n/a
515.685	0.075	1031370	keystroke_a	a	n/a
516.075	0.09	1032150	keystroke_Key.backspace	Key.backspace	n/a
516.405	0.18	1032810	keystroke_o	o	n/a
516.54	0.105	1033080	keystroke_m	m	n/a
517.4095	0.1055	1034819	keystroke_a	a	n/a
517.665	0.0905	1035330	keystroke_h	h	n/a
517.756	0.119	1035512	keystroke_a	a	n/a
517.905	0.09	1035810	keystroke_Key.space	Key.space	n/a
518.159	0.105	1036318	keystroke_c	c	n/a
518.325	0.12	1036650	keystroke_a	a	n/a
518.625	0.09	1037250	keystroke_n	n	n/a
518.8805	0.1185	1037761	keystroke_d	d	n/a
519.09	0.06	1038180	keystroke_i	i	n/a
519.3305	0.1045	1038661	keystroke_d	d	n/a
519.48	0.12	1038960	keystroke_a	a	n/a
519.72	0.18	1039440	keystroke_t	t	n/a
519.81	0.165	1039620	keystroke_e	e	n/a
519.945	0.135	1039890	keystroke_s	s	n/a
520.125	0.105	1040250	keystroke_Key.enter	Key.enter	n/a
520.237	7.4945	1040474	prompt	n/a	name wyoming bulk deleted\n
