onset	duration	sample	value	key	prompt_text
7.2725	19.518	14545	prompt	n/a	the quick brown fox jumps over a lazy dog\n
9.7575	0.028	19515	keystroke_t	t	n/a
9.9055	0.075	19811	keystroke_h	h	n/a
9.9955	0.09	19991	keystroke_e	e	n/a
10.5055	0.09	21011	keystroke_Key.space	Key.space	n/a
10.956	0.075	21912	keystroke_q	q	n/a
11.046	0.12	22092	keystroke_y	y	n/a
11.121	0.105	22242	keystroke_u	u	n/a
11.406	0.075	22812	keystroke_c	c	n/a
11.511	0.09	23022	keystroke_j	j	n/a
13.0705	0.06	26141	keystroke_Key.backspace	Key.backspace	n/a
13.2505	0.03	26501	keystroke_Key.backspace	Key.backspace	n/a
13.401	0.045	26802	keystroke_Key.backspace	Key.backspace	n/a
13.821	0.045	27642	keystroke_Key.backspace	Key.backspace	n/a
14.346	0.075	28692	keystroke_u	u	n/a
14.526	0.06	29052	keystroke_i	i	n/a
14.631	0.06	29262	keystroke_c	c	n/a
14.766	0.075	29532	keystroke_k	k	n/a
14.946	0.075	29892	keystroke_Key.space	Key.space	n/a
15.126	0.075	30252	keystroke_b	b	n/a
15.231	0.075	30462	keystroke_r	r	n/a
15.8605	0.075	31721	keystroke_o	o	n/a
15.9955	0.09	31991	keystroke_w	w	n/a
16.1455	0.075	32291	keystroke_n	n	n/a
16.2955	0.09	32591	keystroke_Key.space	Key.space	n/a
16.4455	0.06	32891	keystroke_f	f	n/a
16.5505	0.06	33101	keystroke_i	i	n/a
17.4355	0.0745	34871	keystroke_Key.backspace	Key.backspace	n/a
17.7505	0.075	35501	keystroke_o	o	n/a
17.9455	0.06	35891	keystroke_x	x	n/a
18.0205	0.09	36041	keystroke_Key.space	Key.space	n/a
18.2755	0.075	36551	keystroke_j	j	n/a
18.441	0.045	36882	keystroke_u	u	n/a
18.605	0.091	37210	keystroke_m	m	n/a
18.786	0.09	37572	keystroke_o	o	n/a
18.951	0.105	37902	keystroke_s	s	n/a
19.16	0.0905	38320	keystroke_Key.space	Key.space	n/a
19.7455	0.06	39491	keystroke_Key.backspace	Key.backspace	n/a
19.9255	0.06	39851	keystroke_Key.backspace	Key.backspace	n/a
20.3905	0.06	40781	keystroke_Key.backspace	Key.backspace	n/a
21.171	0.075	42342	keystroke_p	p	n/a
21.291	0.105	42582	keystroke_s	s	n/a
21.426	0.075	42852	keystroke_Key.space	Key.space	n/a
22.1	0.075	44200	keystroke_o	o	n/a
22.341	0.09	44682	keystroke_v	v	n/a
22.671	0.119	45342	keystroke_e	e	n/a
22.76	0.135	45520	keystroke_r	r	n/a
23	0.09	46000	keystroke_Key.space	Key.space	n/a
23.2105	0.09	46421	keystroke_a	a	n/a
23.3155	0.075	46631	keystroke_Key.space	Key.space	n/a
24.0805	0.075	48161	keystroke_l	l	n/a
24.2455	0.06	48491	keystroke_a	a	n/a
24.4555	0.09	48911	keystroke_z	z	n/a
24.5605	0.075	49121	keystroke_y	y	n/a
24.7555	0.09	49511	keystroke_Key.space	Key.space	n/a
24.8605	0.075	49721	keystroke_d	d	n/a
25.3105	0.06	50621	keystroke_o	o	n/a
25.5355	0.075	51071	keystroke_g	g	n/a
26.6905	0.0905	53381	keystroke_Key.enter	Key.enter	n/a
26.8005	10.5265	53601	prompt	n/a	bibliographic smtp generally siemens\n
28.101	0.09	56202	keystroke_b	b	n/a
28.326	0.09	56652	keystroke_i	i	n/a
28.521	0.09	57042	keystroke_b	b	n/a
28.7155	0.1055	57431	keystroke_l	l	n/a
28.851	0.09	57702	keystroke_i	i	n/a
29.0155	0.105	58031	keystroke_o	o	n/a
29.1505	0.075	58301	keystroke_g	g	n/a
29.3455	0.09	58691	keystroke_r	r	n/a
29.5405	0.075	59081	keystroke_a	a	n/a
29.6305	0.105	59261	keystroke_p	p	n/a
30.0955	0.12	60191	keystroke_h	h	n/a
30.2305	0.09	60461	keystroke_i	i	n/a
30.3505	0.075	60701	keystroke_c	c	n/a
30.4705	0.09	60941	keystroke_Key.space	Key.space	n/a
31.4455	0.1195	62891	keystroke_s	s	n/a
31.611	0.0895	63222	keystroke_m	m	n/a
31.7975	0.0895	63595	keystroke_t	t	n/a
31.917	0.105	63834	keystroke_p	p	n/a
32.233	0.105	64466	keystroke_Key.space	Key.space	n/a
33.838	0.075	67676	keystroke_g	g	n/a
33.928	0.09	67856	keystroke_e	e	n/a
34.048	0.09	68096	keystroke_n	n	n/a
34.123	0.06	68246	keystroke_e	e	n/a
34.273	0.075	68546	keystroke_r	r	n/a
34.392	0.121	68784	keystroke_a	a	n/a
34.497	0.06	68994	keystroke_l	l	n/a
34.632	0.1055	69264	keystroke_l	l	n/a
34.8575	0.075	69715	keystroke_y	y	n/a
35.0675	0.105	70135	keystroke_Key.space	Key.space	n/a
35.4425	0.12	70885	keystroke_s	s	n/a
35.6975	0.1795	71395	keystroke_i	i	n/a
36.027	0.105	72054	keystroke_e	e	n/a
36.463	0.1045	72926	keystroke_m	m	n/a
36.643	0.059	73286	keystroke_e	e	n/a
36.747	0.09	73494	keystroke_n	n	n/a
36.867	0.105	73734	keystroke_s	s	n/a
37.182	0.135	74364	keystroke_Key.enter	Key.enter	n/a
37.3315	11.6355	74663	prompt	n/a	growing climbing calculator forest\n
38.187	0.06	76374	keystroke_g	g	n/a
38.472	0.09	76944	keystroke_r	r	n/a
38.637	0.06	77274	keystroke_o	o	n/a
38.713	0.0745	77426	keystroke_w	w	n/a
38.9825	0.075	77965	keystroke_i	i	n/a
39.1475	0.18	78295	keystroke_n	n	n/a
39.3425	0.09	78685	keystroke_g	g	n/a
39.5825	0.09	79165	keystroke_Key.space	Key.space	n/a
40.0625	0.105	80125	keystroke_c	c	n/a
40.7525	0.0445	81505	keystroke_l	l	n/a
40.812	0.075	81624	keystroke_i	i	n/a
41.067	0.075	82134	keystroke_b	b	n/a
41.247	0.105	82494	keystroke_i	i	n/a
41.307	0.105	82614	keystroke_m	m	n/a
41.472	0.105	82944	keystroke_g	g	n/a
41.637	0.105	83274	keystroke_Key.space	Key.space	n/a
42.042	0.075	84084	keystroke_c	c	n/a
42.4475	0.06	84895	keystroke_Key.backspace	Key.backspace	n/a
42.642	0.06	85284	keystroke_Key.backspace	Key.backspace	n/a
42.807	0.06	85614	keystroke_Key.backspace	Key.backspace	n/a
42.972	0.075	85944	keystroke_Key.backspace	Key.backspace	n/a
43.137	0.075	86274	keystroke_Key.backspace	Key.backspace	n/a
43.317	0.06	86634	keystroke_Key.backspace	Key.backspace	n/a
44.1275	0.075	88255	keystroke_m	m	n/a
44.3675	0.09	88735	keystroke_b	b	n/a
44.4425	0.09	88885	keystroke_i	i	n/a
44.5775	0.06	89155	keystroke_n	n	n/a
44.6525	0.09	89305	keystroke_g	g	n/a
44.7725	0.105	89545	keystroke_Key.space	Key.space	n/a
45.0125	0.09	90025	keystroke_c	c	n/a
45.2825	0.075	90565	keystroke_a	a	n/a
46.0025	0.075	92005	keystroke_l	l	n/a
46.1975	0.06	92395	keystroke_c	c	n/a
46.2725	0.09	92545	keystroke_u	u	n/a
46.4525	0.075	92905	keystroke_l	l	n/a
46.6025	0.105	93205	keystroke_a	a	n/a
46.7375	0.075	93475	keystroke_t	t	n/a
46.9325	0.0745	93865	keystroke_o	o	n/a
47.037	0.09	94074	keystroke_r	r	n/a
47.247	0.0755	94494	keystroke_Key.space	Key.space	n/a
47.8625	0.06	95725	keystroke_f	f	n/a
48.297	0.075	96594	keystroke_o	o	n/a
48.387	0.12	96774	keystroke_r	r	n/a
48.462	0.075	96924	keystroke_e	e	n/a
48.612	0.09	97224	keystroke_s	s	n/a
48.762	0.09	97524	keystroke_t	t	n/a
48.882	0.075	97764	keystroke_Key.enter	Key.enter	n/a
48.9715	8.0275	97943	prompt	n/a	government ancient paintball assessment\n
50.7725	0.075	101545	keystroke_g	g	n/a
50.9075	0.105	101815	keystroke_o	o	n/a
50.9675	0.06	101935	keystroke_v	v	n/a
51.1175	0.1055	102235	keystroke_e	e	n/a
51.178	0.09	102356	keystroke_r	r	n/a
51.283	0.06	102566	keystroke_n	n	n/a
51.448	0.075	102896	keystroke_m	m	n/a
51.538	0.075	103076	keystroke_e	e	n/a
51.643	0.075	103286	keystroke_n	n	n/a
51.733	0.09	103466	keystroke_t	t	n/a
51.838	0.09	103676	keystroke_Key.space	Key.space	n/a
52.123	0.075	104246	keystroke_a	a	n/a
52.408	0.105	104816	keystroke_n	n	n/a
52.543	0.075	105086	keystroke_c	c	n/a
52.648	0.105	105296	keystroke_i	i	n/a
52.768	0.09	105536	keystroke_e	e	n/a
52.888	0.06	105776	keystroke_n	n	n/a
52.978	0.09	105956	keystroke_t	t	n/a
53.098	0.0895	106196	keystroke_Key.space	Key.space	n/a
53.622	0.105	107244	keystroke_p	p	n/a
53.787	0.105	107574	keystroke_a	a	n/a
53.922	0.09	107844	keystroke_i	i	n/a
54.027	0.12	108054	keystroke_n	n	n/a
54.132	0.09	108264	keystroke_t	t	n/a
54.282	0.09	108564	keystroke_b	b	n/a
54.417	0.06	108834	keystroke_a	a	n/a
54.478	0.089	108956	keystroke_l	l	n/a
54.627	0.075	109254	keystroke_l	l	n/a
54.792	0.105	109584	keystroke_Key.space	Key.space	n/a
54.912	0.105	109824	keystroke_a	a	n/a
54.987	0.105	109974	keystroke_s	s	n/a
55.1825	0.09	110365	keystroke_s	s	n/a
55.393	0.075	110786	keystroke_e	e	n/a
55.603	0.059	111206	keystroke_s	s	n/a
55.767	0.076	111534	keystroke_s	s	n/a
56.473	0.06	112946	keystroke_m	m	n/a
56.548	0.015	113096	keystroke_e	e	n/a
56.593	0.075	113186	keystroke_n	n	n/a
56.698	0.104	113396	keystroke_t	t	n/a
56.877	0.12	113754	keystroke_Key.enter	Key.enter	n/a
57.006	6.474	114012	prompt	n/a	shift edited juan python\n
57.8075	0.09	115615	keystroke_s	s	n/a
57.9125	0.075	115825	keystroke_h	h	n/a
58.0025	0.09	116005	keystroke_i	i	n/a
58.0775	0.09	116155	keystroke_f	f	n/a
58.2725	0.075	116545	keystroke_t	t	n/a
58.3625	0.09	116725	keystroke_Key.space	Key.space	n/a
58.7825	0.09	117565	keystroke_e	e	n/a
59.007	0.06	118014	keystroke_d	d	n/a
59.112	0.075	118224	keystroke_i	i	n/a
59.202	0.075	118404	keystroke_t	t	n/a
59.292	0.105	118584	keystroke_e	e	n/a
59.427	0.09	118854	keystroke_d	d	n/a
59.577	0.09	119154	keystroke_Key.space	Key.space	n/a
60.343	0.0745	120686	keystroke_j	j	n/a
60.898	0.09	121796	keystroke_u	u	n/a
61.018	0.105	122036	keystroke_a	a	n/a
61.138	0.09	122276	keystroke_n	n	n/a
61.633	0.075	123266	keystroke_Key.space	Key.space	n/a
62.443	0.045	124886	keystroke_p	p	n/a
62.7425	0.06	125485	keystroke_y	y	n/a
62.8175	0.12	125635	keystroke_t	t	n/a
62.9075	0.075	125815	keystroke_h	h	n/a
63.0575	0.06	126115	keystroke_o	o	n/a
63.2075	0.075	126415	keystroke_n	n	n/a
63.3875	0.09	126775	keystroke_Key.enter	Key.enter	n/a
63.4845	8.522	126969	prompt	n/a	argentina villa kick percentage\n
64.4075	0.12	128815	keystroke_a	a	n/a
64.6175	0.075	129235	keystroke_r	r	n/a
64.7225	0.075	129445	keystroke_g	g	n/a
64.8275	0.105	129655	keystroke_e	e	n/a
64.9335	0.044	129867	keystroke_b	b	n/a
65.0225	0.075	130045	keystroke_t	t	n/a
65.277	0.075	130554	keystroke_Key.backspace	Key.backspace	n/a
65.427	0.076	130854	keystroke_Key.backspace	Key.backspace	n/a
65.698	0.1045	131396	keystroke_n	n	n/a
65.8475	0.09	131695	keystroke_t	t	n/a
66.012	0.135	132024	keystroke_i	i	n/a
66.132	0.105	132264	keystroke_n	n	n/a
66.252	0.105	132504	keystroke_a	a	n/a
66.372	0.09	132744	keystroke_Key.space	Key.space	n/a
66.957	0.09	133914	keystroke_v	v	n/a
67.062	0.06	134124	keystroke_i	i	n/a
67.242	0.06	134484	keystroke_l	l	n/a
67.3775	0.075	134755	keystroke_l	l	n/a
67.4825	0.09	134965	keystroke_a	a	n/a
67.8125	0.105	135625	keystroke_Key.space	Key.space	n/a
69.2675	0.06	138535	keystroke_k	k	n/a
69.4475	0.075	138895	keystroke_i	i	n/a
69.5525	0.09	139105	keystroke_c	c	n/a
69.6575	0.045	139315	keystroke_k	k	n/a
69.8525	0.09	139705	keystroke_Key.space	Key.space	n/a
70.7075	0.0905	141415	keystroke_p	p	n/a
70.783	0.074	141566	keystroke_e	e	n/a
70.9625	0.06	141925	keystroke_r	r	n/a
71.1575	0.06	142315	keystroke_c	c	n/a
71.2325	0.1195	142465	keystroke_e	e	n/a
71.382	0.075	142764	keystroke_n	n	n/a
71.427	0.075	142854	keystroke_t	t	n/a
71.592	0.075	143184	keystroke_a	a	n/a
71.668	0.074	143336	keystroke_g	g	n/a
71.787	0.075	143574	keystroke_e	e	n/a
71.922	0.075	143844	keystroke_Key.enter	Key.enter	n/a
72.011	10.9155	144022	prompt	n/a	appointment notebooks comprehensive monitors\n
72.6875	0.09	145375	keystroke_a	a	n/a
73.0025	0.045	146005	keystroke_p	p	n/a
73.1375	0.1205	146275	keystroke_p	p	n/a
73.243	0.09	146486	keystroke_o	o	n/a
73.423	0.0745	146846	keystroke_i	i	n/a
73.6025	0.09	147205	keystroke_n	n	n/a
73.6775	0.075	147355	keystroke_t	t	n/a
73.8125	0.075	147625	keystroke_m	m	n/a
73.9025	0.075	147805	keystroke_e	e	n/a
74.0075	0.075	148015	keystroke_n	n	n/a
74.1125	0.06	148225	keystroke_t	t	n/a
74.203	0.075	148406	keystroke_Key.space	Key.space	n/a
74.3675	0.075	148735	keystroke_n	n	n/a
74.533	0.09	149066	keystroke_o	o	n/a
74.608	0.0895	149216	keystroke_t	t	n/a
74.7875	0.105	149575	keystroke_e	e	n/a
74.9525	0.075	149905	keystroke_b	b	n/a
75.1925	0.015	150385	keystroke_o	o	n/a
75.3125	0.12	150625	keystroke_o	o	n/a
75.4175	0.075	150835	keystroke_k	k	n/a
75.5675	0.09	151135	keystroke_s	s	n/a
75.6725	0.105	151345	keystroke_Key.space	Key.space	n/a
76.1225	0.09	152245	keystroke_c	c	n/a
76.2135	0.134	152427	keystroke_o	o	n/a
76.4975	0.03	152995	keystroke_m	m	n/a
76.6325	0.06	153265	keystroke_m	m	n/a
76.963	0.09	153926	keystroke_Key.backspace	Key.backspace	n/a
77.278	0.1195	154556	keystroke_p	p	n/a
77.5025	0.135	155005	keystroke_r	r	n/a
77.5775	0.12	155155	keystroke_e	e	n/a
77.7275	0.135	155455	keystroke_h	h	n/a
77.8925	0.09	155785	keystroke_e	e	n/a
78.0125	0.12	156025	keystroke_n	n	n/a
78.2525	0.09	156505	keystroke_s	s	n/a
78.3875	0.105	156775	keystroke_i	i	n/a
78.4625	0.105	156925	keystroke_v	v	n/a
78.6275	0.1055	157255	keystroke_e	e	n/a
78.7175	0.1045	157435	keystroke_Key.space	Key.space	n/a
79.377	0.091	158754	keystroke_n	n	n/a
79.648	0.075	159296	keystroke_Key.backspace	Key.backspace	n/a
79.888	0.12	159776	keystroke_m	m	n/a
80.398	0.105	160796	keystroke_o	o	n/a
80.653	0.075	161306	keystroke_n	n	n/a
80.848	0.1195	161696	keystroke_i	i	n/a
80.9825	0.105	161965	keystroke_t	t	n/a
81.208	0.1495	162416	keystroke_o	o	n/a
81.3725	0.0905	162745	keystroke_r	r	n/a
81.523	0.1045	163046	keystroke_s	s	n/a
81.6575	0.105	163315	keystroke_\	\	n/a
82.1825	0.06	164365	keystroke_Key.backspace	Key.backspace	n/a
82.7525	0.165	165505	keystroke_Key.enter	Key.enter	n/a
82.9325	7.719	165865	prompt	n/a	inns dialogue chen facilities\n
83.9225	0.12	167845	keystroke_i	i	n/a
84.1925	0.06	168385	keystroke_n	n	n/a
84.3575	0.105	168715	keystroke_n	n	n/a
84.4925	0.12	168985	keystroke_s	s	n/a
84.6575	0.1055	169315	keystroke_Key.space	Key.space	n/a
85.378	0.105	170756	keystroke_d	d	n/a
85.528	0.075	171056	keystroke_i	i	n/a
85.633	0.09	171266	keystroke_a	a	n/a
85.768	0.03	171536	keystroke_l	l	n/a
85.933	0.12	171866	keystroke_o	o	n/a
86.158	0.06	172316	keystroke_g	g	n/a
86.293	0.09	172586	keystroke_u	u	n/a
86.443	0.075	172886	keystroke_e	e	n/a
86.563	0.105	173126	keystroke_Key.space	Key.space	n/a
86.923	0.075	173846	keystroke_c	c	n/a
87.043	0.075	174086	keystroke_h	h	n/a
87.133	0.0895	174266	keystroke_e	e	n/a
87.2675	0.06	174535	keystroke_n	n	n/a
87.463	0.075	174926	keystroke_Key.space	Key.space	n/a
89.0525	0.09	178105	keystroke_f	f	n/a
89.2925	0.09	178585	keystroke_a	a	n/a
89.4875	0.09	178975	keystroke_c	c	n/a
89.6075	0.09	179215	keystroke_i	i	n/a
89.8175	0.12	179635	keystroke_l	l	n/a
89.9075	0.12	179815	keystroke_i	i	n/a
90.0125	0.075	180025	keystroke_t	t	n/a
90.1325	0.075	180265	keystroke_i	i	n/a
90.2225	0.09	180445	keystroke_e	e	n/a
90.4175	0.075	180835	keystroke_s	s	n/a
90.5225	0.12	181045	keystroke_Key.enter	Key.enter	n/a
90.656	5.688	181312	prompt	n/a	caused quantities noble sail\n
91.3035	0.059	182607	keystroke_c	c	n/a
91.4825	0.06	182965	keystroke_a	a	n/a
91.5725	0.0745	183145	keystroke_u	u	n/a
91.648	0.12	183296	keystroke_s	s	n/a
91.843	0.0745	183686	keystroke_e	e	n/a
92.038	0.06	184076	keystroke_d	d	n/a
92.173	0.075	184346	keystroke_Key.space	Key.space	n/a
92.5925	0.105	185185	keystroke_q	q	n/a
92.7725	0.075	185545	keystroke_u	u	n/a
92.8625	0.09	185725	keystroke_a	a	n/a
92.9975	0.09	185995	keystroke_n	n	n/a
93.1025	0.075	186205	keystroke_t	t	n/a
93.2075	0.09	186415	keystroke_i	i	n/a
93.3125	0.105	186625	keystroke_t	t	n/a
93.4475	0.09	186895	keystroke_i	i	n/a
93.5675	0.09	187135	keystroke_e	e	n/a
93.7625	0.06	187525	keystroke_s	s	n/a
93.8525	0.075	187705	keystroke_Key.space	Key.space	n/a
94.437	0.075	188874	keystroke_n	n	n/a
94.633	0.089	189266	keystroke_o	o	n/a
94.708	0.089	189416	keystroke_b	b	n/a
94.872	0.09	189744	keystroke_l	l	n/a
95.007	0.09	190014	keystroke_e	e	n/a
95.172	0.075	190344	keystroke_Key.space	Key.space	n/a
95.473	0.074	190946	keystroke_s	s	n/a
95.712	0.1055	191424	keystroke_a	a	n/a
95.8325	0.06	191665	keystroke_i	i	n/a
95.9975	0.09	191995	keystroke_l	l	n/a
96.2375	0.105	192475	keystroke_Key.enter	Key.enter	n/a
96.3475	10.189	192695	prompt	n/a	children surgical saturday something\n
99.2995	0.028	198599	keystroke_c	c	n/a
99.3725	0.12	198745	keystroke_h	h	n/a
99.4625	0.09	198925	keystroke_i	i	n/a
99.6575	0.075	199315	keystroke_l	l	n/a
99.7475	0.075	199495	keystroke_d	d	n/a
99.958	0.135	199916	keystroke_r	r	n/a
100.033	0.12	200066	keystroke_e	e	n/a
100.183	0.09	200366	keystroke_n	n	n/a
100.363	0.105	200726	keystroke_Key.space	Key.space	n/a
100.618	0.105	201236	keystroke_s	s	n/a
100.798	0.09	201596	keystroke_u	u	n/a
100.963	0.075	201926	keystroke_r	r	n/a
101.218	0.06	202436	keystroke_g	g	n/a
101.293	0.09	202586	keystroke_i	i	n/a
101.413	0.045	202826	keystroke_c	c	n/a
101.578	0.12	203156	keystroke_a	a	n/a
101.683	0.075	203366	keystroke_l	l	n/a
101.923	0.075	203846	keystroke_Key.space	Key.space	n/a
102.028	0.12	204056	keystroke_s	s	n/a
102.283	0.075	204566	keystroke_a	a	n/a
102.373	0.0745	204746	keystroke_t	t	n/a
102.5675	0.09	205135	keystroke_u	u	n/a
102.6275	0.09	205255	keystroke_r	r	n/a
102.808	0.06	205616	keystroke_d	d	n/a
102.913	0.1195	205826	keystroke_a	a	n/a
103.0775	0.09	206155	keystroke_y	y	n/a
104.158	0.06	208316	keystroke_Key.space	Key.space	n/a
104.368	0.105	208736	keystroke_s	s	n/a
104.488	0.135	208976	keystroke_o	o	n/a
104.668	0.105	209336	keystroke_m	m	n/a
104.698	0.09	209396	keystroke_e	e	n/a
104.953	0.09	209906	keystroke_t	t	n/a
105.058	0.105	210116	keystroke_h	h	n/a
105.148	0.075	210296	keystroke_i	i	n/a
105.268	0.1195	210536	keystroke_n	n	n/a
105.4025	0.075	210805	keystroke_g	g	n/a
106.408	0.12	212816	keystroke_Key.enter	Key.enter	n/a
106.541	9.4465	213082	prompt	n/a	wales nickname stockholm pickup\n
107.263	0.09	214526	keystroke_w	w	n/a
107.4725	0.105	214945	keystroke_a	a	n/a
107.5625	0.105	215125	keystroke_l	l	n/a
107.6825	0.075	215365	keystroke_e	e	n/a
107.8625	0.075	215725	keystroke_s	s	n/a
108.252	0.106	216504	keystroke_Key.space	Key.space	n/a
108.5225	0.0745	217045	keystroke_n	n	n/a
108.6725	0.0905	217345	keystroke_i	i	n/a
108.793	0.1045	217586	keystroke_c	c	n/a
108.883	0.0745	217766	keystroke_k	k	n/a
109.0475	0.075	218095	keystroke_n	n	n/a
109.1375	0.09	218275	keystroke_a	a	n/a
109.2425	0.075	218485	keystroke_m	m	n/a
109.3625	0.075	218725	keystroke_e	e	n/a
109.4825	0.105	218965	keystroke_Key.space	Key.space	n/a
109.8725	0.15	219745	keystroke_s	s	n/a
110.1725	0.105	220345	keystroke_t	t	n/a
110.3375	0.06	220675	keystroke_o	o	n/a
111.0275	0.105	222055	keystroke_c	c	n/a
111.4625	0.09	222925	keystroke_k	k	n/a
111.8525	0.09	223705	keystroke_h	h	n/a
112.0475	0.075	224095	keystroke_o	o	n/a
112.2275	0.075	224455	keystroke_l	l	n/a
113.6975	0.09	227395	keystroke_m	m	n/a
113.9225	0.09	227845	keystroke_Key.space	Key.space	n/a
114.493	0.105	228986	keystroke_p	p	n/a
114.628	0.1045	229256	keystroke_i	i	n/a
115.0025	0.075	230005	keystroke_c	c	n/a
115.1225	0.0745	230245	keystroke_k	k	n/a
115.362	0.075	230724	keystroke_u	u	n/a
115.572	0.076	231144	keystroke_p	p	n/a
115.857	0.12	231714	keystroke_Key.enter	Key.enter	n/a
115.9935	6.0755	231987	prompt	n/a	some sector difficult newbie\n
116.652	0.0905	233304	keystroke_s	s	n/a
116.7425	0.135	233485	keystroke_o	o	n/a
116.8925	0.06	233785	keystroke_m	m	n/a
116.9825	0.09	233965	keystroke_e	e	n/a
117.1175	0.1055	234235	keystroke_Key.space	Key.space	n/a
117.208	0.09	234416	keystroke_s	s	n/a
117.328	0.075	234656	keystroke_e	e	n/a
117.523	0.0745	235046	keystroke_c	c	n/a
117.9125	0.09	235825	keystroke_t	t	n/a
118.0775	0.075	236155	keystroke_o	o	n/a
118.1675	0.09	236335	keystroke_r	r	n/a
118.3175	0.09	236635	keystroke_Key.space	Key.space	n/a
118.963	0.105	237926	keystroke_d	d	n/a
119.097	0.121	238194	keystroke_i	i	n/a
119.292	0.076	238584	keystroke_f	f	n/a
119.457	0.091	238914	keystroke_f	f	n/a
119.562	0.106	239124	keystroke_i	i	n/a
119.652	0.091	239304	keystroke_c	c	n/a
119.758	0.089	239516	keystroke_u	u	n/a
119.937	0.075	239874	keystroke_l	l	n/a
120.042	0.09	240084	keystroke_t	t	n/a
120.208	0.089	240416	keystroke_Key.space	Key.space	n/a
121.108	0.075	242216	keystroke_n	n	n/a
121.167	0.1655	242334	keystroke_e	e	n/a
121.2725	0.12	242545	keystroke_w	w	n/a
121.4225	0.09	242845	keystroke_b	b	n/a
121.6325	0.09	243265	keystroke_i	i	n/a
121.7675	0.075	243535	keystroke_e	e	n/a
121.9325	0.135	243865	keystroke_Key.enter	Key.enter	n/a
122.072	6.537	244144	prompt	n/a	file gender welfare ongoing\n
123.102	0.09	246204	keystroke_f	f	n/a
123.207	0.075	246414	keystroke_i	i	n/a
123.342	0.09	246684	keystroke_l	l	n/a
123.447	0.09	246894	keystroke_e	e	n/a
123.552	0.09	247104	keystroke_Key.space	Key.space	n/a
123.7775	0.06	247555	keystroke_g	g	n/a
124.977	0.09	249954	keystroke_e	e	n/a
125.127	0.09	250254	keystroke_n	n	n/a
125.232	0.135	250464	keystroke_d	d	n/a
125.368	0.12	250736	keystroke_e	e	n/a
125.488	0.089	250976	keystroke_r	r	n/a
125.622	0.12	251244	keystroke_Key.space	Key.space	n/a
125.8925	0.12	251785	keystroke_w	w	n/a
125.9825	0.105	251965	keystroke_e	e	n/a
126.1175	0.105	252235	keystroke_l	l	n/a
126.2525	0.06	252505	keystroke_f	f	n/a
126.4025	0.075	252805	keystroke_a	a	n/a
126.5525	0.12	253105	keystroke_r	r	n/a
126.6275	0.09	253255	keystroke_e	e	n/a
126.7025	0.12	253405	keystroke_Key.space	Key.space	n/a
127.663	0.045	255326	keystroke_o	o	n/a
127.828	0.09	255656	keystroke_n	n	n/a
127.933	0.135	255866	keystroke_g	g	n/a
128.023	0.075	256046	keystroke_o	o	n/a
128.0825	0.0605	256165	keystroke_i	i	n/a
128.248	0.075	256496	keystroke_n	n	n/a
128.338	0.0745	256676	keystroke_g	g	n/a
128.5025	0.1055	257005	keystroke_Key.enter	Key.enter	n/a
128.6125	5.5765	257225	prompt	n/a	senator static majority badge\n
129.178	0.105	258356	keystroke_s	s	n/a
129.343	0.09	258686	keystroke_e	e	n/a
129.448	0.09	258896	keystroke_n	n	n/a
129.523	0.06	259046	keystroke_a	a	n/a
129.6875	0.075	259375	keystroke_t	t	n/a
129.7925	0.06	259585	keystroke_o	o	n/a
129.9125	0.09	259825	keystroke_r	r	n/a
130.0475	0.105	260095	keystroke_Key.space	Key.space	n/a
130.3625	0.09	260725	keystroke_s	s	n/a
130.5425	0.06	261085	keystroke_t	t	n/a
130.7225	0.06	261445	keystroke_a	a	n/a
130.8875	0.075	261775	keystroke_t	t	n/a
130.9775	0.09	261955	keystroke_i	i	n/a
131.1125	0.09	262225	keystroke_c	c	n/a
131.2325	0.09	262465	keystroke_Key.space	Key.space	n/a
131.4725	0.075	262945	keystroke_m	m	n/a
131.6075	0.075	263215	keystroke_a	a	n/a
131.8475	0.0755	263695	keystroke_j	j	n/a
131.998	0.09	263996	keystroke_o	o	n/a
132.103	0.09	264206	keystroke_r	r	n/a
132.208	0.075	264416	keystroke_i	i	n/a
132.328	0.075	264656	keystroke_t	t	n/a
132.433	0.075	264866	keystroke_y	y	n/a
132.658	0.09	265316	keystroke_Key.space	Key.space	n/a
133.138	0.12	266276	keystroke_b	b	n/a
133.213	0.09	266426	keystroke_a	a	n/a
133.378	0.09	266756	keystroke_d	d	n/a
133.438	0.06	266876	keystroke_g	g	n/a
133.633	0.105	267266	keystroke_e	e	n/a
134.068	0.12	268136	keystroke_Key.enter	Key.enter	n/a
134.192	7.97	268384	prompt	n/a	lycos expensive tracks influenced\n
135.073	0.09	270146	keystroke_l	l	n/a
135.298	0.075	270596	keystroke_y	y	n/a
135.478	0.105	270956	keystroke_c	c	n/a
135.613	0.105	271226	keystroke_o	o	n/a
135.793	0.105	271586	keystroke_s	s	n/a
135.913	0.105	271826	keystroke_Key.space	Key.space	n/a
136.228	0.075	272456	keystroke_e	e	n/a
136.438	0.09	272876	keystroke_x	x	n/a
136.573	0.075	273146	keystroke_p	p	n/a
136.678	0.12	273356	keystroke_e	e	n/a
136.828	0.09	273656	keystroke_n	n	n/a
136.933	0.105	273866	keystroke_s	s	n/a
137.083	0.0895	274166	keystroke_i	i	n/a
137.833	0.06	275666	keystroke_v	v	n/a
137.983	0.0895	275966	keystroke_e	e	n/a
138.1025	0.12	276205	keystroke_Key.space	Key.space	n/a
138.5075	0.09	277015	keystroke_t	t	n/a
138.7025	0.105	277405	keystroke_r	r	n/a
138.8675	0.09	277735	keystroke_a	a	n/a
139.0625	0.06	278125	keystroke_c	c	n/a
139.1525	0.12	278305	keystroke_k	k	n/a
139.3025	0.09	278605	keystroke_s	s	n/a
139.4525	0.105	278905	keystroke_Key.space	Key.space	n/a
139.7375	0.1195	279475	keystroke_i	i	n/a
139.903	0.119	279806	keystroke_n	n	n/a
140.248	0.074	280496	keystroke_f	f	n/a
140.428	0.059	280856	keystroke_u	u	n/a
140.742	0.09	281484	keystroke_Key.backspace	Key.backspace	n/a
141.012	0.12	282024	keystroke_l	l	n/a
141.238	0.0745	282476	keystroke_u	u	n/a
141.3275	0.075	282655	keystroke_e	e	n/a
141.4625	0.09	282925	keystroke_n	n	n/a
141.5375	0.09	283075	keystroke_c	c	n/a
141.6285	0.104	283257	keystroke_e	e	n/a
141.8225	0.09	283645	keystroke_d	d	n/a
141.9725	0.18	283945	keystroke_Key.enter	Key.enter	n/a
142.171	5.1135	284342	prompt	n/a	natural acting martha finance\n
143.0225	0.105	286045	keystroke_n	n	n/a
143.0975	0.0905	286195	keystroke_a	a	n/a
143.308	0.075	286616	keystroke_t	t	n/a
143.428	0.105	286856	keystroke_u	u	n/a
143.518	0.09	287036	keystroke_r	r	n/a
143.683	0.075	287366	keystroke_a	a	n/a
143.773	0.09	287546	keystroke_l	l	n/a
143.983	0.105	287966	keystroke_Key.space	Key.space	n/a
144.118	0.075	288236	keystroke_a	a	n/a
144.328	0.06	288656	keystroke_c	c	n/a
144.523	0.09	289046	keystroke_t	t	n/a
144.598	0.105	289196	keystroke_i	i	n/a
144.688	0.105	289376	keystroke_n	n	n/a
144.778	0.1045	289556	keystroke_g	g	n/a
144.9275	0.075	289855	keystroke_Key.space	Key.space	n/a
145.0775	0.1055	290155	keystroke_m	m	n/a
145.1375	0.0755	290275	keystroke_a	a	n/a
145.333	0.075	290666	keystroke_r	r	n/a
145.528	0.075	291056	keystroke_t	t	n/a
145.618	0.09	291236	keystroke_h	h	n/a
145.753	0.075	291506	keystroke_a	a	n/a
145.843	0.12	291686	keystroke_Key.space	Key.space	n/a
146.338	0.075	292676	keystroke_f	f	n/a
146.428	0.12	292856	keystroke_i	i	n/a
146.533	0.105	293066	keystroke_n	n	n/a
146.608	0.09	293216	keystroke_a	a	n/a
146.7425	0.09	293485	keystroke_n	n	n/a
146.8025	0.105	293605	keystroke_c	c	n/a
146.9225	0.135	293845	keystroke_e	e	n/a
147.0425	0.2405	294085	keystroke_Key.enter	Key.enter	n/a
147.287	9.2145	294574	prompt	n/a	particularly dvds ciao temp\n
148.258	0.0895	296516	keystroke_p	p	n/a
148.318	0.089	296636	keystroke_a	a	n/a
148.497	0.09	296994	keystroke_r	r	n/a
148.693	0.1045	297386	keystroke_t	t	n/a
148.767	0.1505	297534	keystroke_i	i	n/a
148.962	0.1055	297924	keystroke_c	c	n/a
149.202	0.121	298404	keystroke_u	u	n/a
149.427	0.1505	298854	keystroke_l	l	n/a
149.518	0.104	299036	keystroke_a	a	n/a
149.7425	0.09	299485	keystroke_r	r	n/a
149.8925	0.0595	299785	keystroke_l	l	n/a
150.1325	0.06	300265	keystroke_y	y	n/a
150.328	0.09	300656	keystroke_Key.space	Key.space	n/a
151.3925	0.09	302785	keystroke_d	d	n/a
151.5125	0.09	303025	keystroke_v	v	n/a
151.6475	0.09	303295	keystroke_d	d	n/a
151.8575	0.105	303715	keystroke_s	s	n/a
152.0075	0.09	304015	keystroke_Key.space	Key.space	n/a
152.4275	0.015	304855	keystroke_c	c	n/a
152.4875	0.09	304975	keystroke_i	i	n/a
152.5925	0.105	305185	keystroke_a	a	n/a
152.7425	0.075	305485	keystroke_o	o	n/a
152.968	0.09	305936	keystroke_Key.space	Key.space	n/a
153.163	0.09	306326	keystroke_t	t	n/a
153.328	0.105	306656	keystroke_e	e	n/a
154.198	0.12	308396	keystroke_p	p	n/a
155.488	0.059	310976	keystroke_Key.backspace	Key.backspace	n/a
155.8025	0.0745	311605	keystroke_m	m	n/a
155.9975	0.0755	311995	keystroke_p	p	n/a
156.223	0.27	312446	keystroke_Key.enter	Key.enter	n/a
156.5055	7.2785	313011	prompt	n/a	lookup communication worship cemetery\n
157.4225	0.09	314845	keystroke_l	l	n/a
157.6475	0.06	315295	keystroke_o	o	n/a
157.8125	0.075	315625	keystroke_o	o	n/a
157.8725	0.075	315745	keystroke_k	k	n/a
158.0675	0.075	316135	keystroke_u	u	n/a
158.2325	0.09	316465	keystroke_p	p	n/a
158.5175	0.09	317035	keystroke_Key.space	Key.space	n/a
158.6825	0.1055	317365	keystroke_c	c	n/a
158.773	0.045	317546	keystroke_o	o	n/a
158.863	0.15	317726	keystroke_m	m	n/a
159.118	0.09	318236	keystroke_m	m	n/a
159.328	0.075	318656	keystroke_u	u	n/a
159.418	0.105	318836	keystroke_n	n	n/a
159.613	0.075	319226	keystroke_i	i	n/a
159.673	0.135	319346	keystroke_c	c	n/a
159.9425	0.075	319885	keystroke_a	a	n/a
160.1225	0.09	320245	keystroke_t	t	n/a
160.1675	0.12	320335	keystroke_i	i	n/a
160.2425	0.06	320485	keystroke_o	o	n/a
160.4375	0.06	320875	keystroke_n	n	n/a
160.5875	0.075	321175	keystroke_Key.space	Key.space	n/a
160.6325	0.1205	321265	keystroke_w	w	n/a
160.798	0.09	321596	keystroke_o	o	n/a
160.813	0.09	321626	keystroke_r	r	n/a
161.038	0.075	322076	keystroke_s	s	n/a
161.098	0.06	322196	keystroke_h	h	n/a
161.2925	0.09	322585	keystroke_i	i	n/a
161.4425	0.09	322885	keystroke_p	p	n/a
161.7125	0.09	323425	keystroke_Key.space	Key.space	n/a
162.0275	0.075	324055	keystroke_c	c	n/a
162.2675	0.09	324535	keystroke_e	e	n/a
162.4625	0.075	324925	keystroke_m	m	n/a
162.4925	0.1055	324985	keystroke_e	e	n/a
162.687	0.0755	325374	keystroke_t	t	n/a
163.138	0.09	326276	keystroke_e	e	n/a
163.243	0.105	326486	keystroke_r	r	n/a
163.333	0.075	326666	keystroke_y	y	n/a
163.663	0.12	327326	keystroke_Key.enter	Key.enter	n/a
163.7885	10.1885	327577	prompt	n/a	grace conservative expenses business\n
164.6525	0.0895	329305	keystroke_g	g	n/a
164.6975	0.0595	329395	keystroke_r	r	n/a
164.832	0.09	329664	keystroke_a	a	n/a
164.952	0.105	329904	keystroke_c	c	n/a
165.087	0.075	330174	keystroke_e	e	n/a
165.192	0.12	330384	keystroke_Key.space	Key.space	n/a
165.508	0.09	331016	keystroke_c	c	n/a
165.658	0.045	331316	keystroke_o	o	n/a
166.5725	0.105	333145	keystroke_n	n	n/a
166.6775	0.09	333355	keystroke_s	s	n/a
166.8275	0.09	333655	keystroke_e	e	n/a
167.0525	0.075	334105	keystroke_r	r	n/a
167.2625	0.105	334525	keystroke_v	v	n/a
167.3525	0.06	334705	keystroke_a	a	n/a
167.533	0.075	335066	keystroke_t	t	n/a
168.7625	0.075	337525	keystroke_i	i	n/a
168.8525	0.09	337705	keystroke_v	v	n/a
169.0175	0.09	338035	keystroke_e	e	n/a
169.1225	0.0905	338245	keystroke_Key.space	Key.space	n/a
169.228	0.075	338456	keystroke_e	e	n/a
169.4675	0.165	338935	keystroke_x	x	n/a
169.6925	0.105	339385	keystroke_p	p	n/a
169.8575	0.12	339715	keystroke_e	e	n/a
169.9925	0.12	339985	keystroke_n	n	n/a
170.0975	0.105	340195	keystroke_s	s	n/a
170.5925	0.09	341185	keystroke_e	e	n/a
170.8025	0.075	341605	keystroke_s	s	n/a
170.9375	0.09	341875	keystroke_Key.space	Key.space	n/a
171.583	0.075	343166	keystroke_b	b	n/a
172.138	0.195	344276	keystroke_u	u	n/a
172.393	0.135	344786	keystroke_s	s	n/a
172.7375	0.09	345475	keystroke_i	i	n/a
172.9025	0.165	345805	keystroke_n	n	n/a
173.0525	0.105	346105	keystroke_e	e	n/a
173.2775	0.075	346555	keystroke_s	s	n/a
173.4575	0.075	346915	keystroke_s	s	n/a
173.7875	0.18	347575	keystroke_Key.enter	Key.enter	n/a
173.982	8.515	347964	prompt	n/a	excessive powerseller fighters knives\n
174.6875	0.09	349375	keystroke_e	e	n/a
174.9275	0.105	349855	keystroke_x	x	n/a
175.1085	0.149	350217	keystroke_c	c	n/a
175.2425	0.105	350485	keystroke_e	e	n/a
175.4525	0.06	350905	keystroke_s	s	n/a
175.6175	0.09	351235	keystroke_s	s	n/a
175.753	0.12	351506	keystroke_i	i	n/a
175.888	0.075	351776	keystroke_v	v	n/a
176.023	0.105	352046	keystroke_e	e	n/a
176.143	0.105	352286	keystroke_Key.space	Key.space	n/a
176.533	0.045	353066	keystroke_o	o	n/a
176.833	0.105	353666	keystroke_Key.backspace	Key.backspace	n/a
177.1175	0.12	354235	keystroke_p	p	n/a
177.2225	0.105	354445	keystroke_o	o	n/a
177.3125	0.12	354625	keystroke_w	w	n/a
177.3725	0.12	354745	keystroke_e	e	n/a
177.5675	0.105	355135	keystroke_r	r	n/a
177.7475	0.105	355495	keystroke_s	s	n/a
177.8975	0.09	355795	keystroke_e	e	n/a
178.0325	0.045	356065	keystroke_l	l	n/a
179.113	0.12	358226	keystroke_l	l	n/a
179.188	0.12	358376	keystroke_e	e	n/a
179.278	0.12	358556	keystroke_r	r	n/a
179.443	0.09	358886	keystroke_Key.space	Key.space	n/a
180.3125	0.105	360625	keystroke_f	f	n/a
180.4325	0.09	360865	keystroke_i	i	n/a
180.5525	0.09	361105	keystroke_g	g	n/a
180.6575	0.105	361315	keystroke_h	h	n/a
180.7475	0.075	361495	keystroke_t	t	n/a
180.8675	0.105	361735	keystroke_e	e	n/a
180.9575	0.105	361915	keystroke_r	r	n/a
181.1075	0.105	362215	keystroke_s	s	n/a
181.2275	0.09	362455	keystroke_Key.space	Key.space	n/a
181.4975	0.15	362995	keystroke_k	k	n/a
181.663	0.105	363326	keystroke_n	n	n/a
181.947	0.016	363894	keystroke_i	i	n/a
182.038	0.075	364076	keystroke_v	v	n/a
182.128	0.09	364256	keystroke_e	e	n/a
182.308	0.09	364616	keystroke_s	s	n/a
182.383	0.105	364766	keystroke_Key.enter	Key.enter	n/a
182.501	7.6235	365002	prompt	n/a	laptop differ office drums\n
183.373	0.089	366746	keystroke_l	l	n/a
183.478	0.105	366956	keystroke_a	a	n/a
183.5975	0.0755	367195	keystroke_p	p	n/a
183.747	0.0905	367494	keystroke_t	t	n/a
183.8525	0.0745	367705	keystroke_o	o	n/a
184.017	0.0605	368034	keystroke_p	p	n/a
184.2425	0.0755	368485	keystroke_n	n	n/a
185.3825	0.075	370765	keystroke_Key.backspace	Key.backspace	n/a
185.6525	0.075	371305	keystroke_Key.space	Key.space	n/a
185.7585	0.105	371517	keystroke_d	d	n/a
185.8475	0.105	371695	keystroke_i	i	n/a
185.9675	0.075	371935	keystroke_f	f	n/a
186.1475	0.06	372295	keystroke_f	f	n/a
186.2225	0.121	372445	keystroke_e	e	n/a
186.3275	0.09	372655	keystroke_r	r	n/a
187.7675	0.105	375535	keystroke_Key.space	Key.space	n/a
188.0235	0.134	376047	keystroke_o	o	n/a
188.1875	0.076	376375	keystroke_f	f	n/a
188.3535	0.075	376707	keystroke_f	f	n/a
188.4725	0.09	376945	keystroke_i	i	n/a
188.5475	0.09	377095	keystroke_c	c	n/a
188.6525	0.106	377305	keystroke_e	e	n/a
188.7425	0.105	377485	keystroke_Key.space	Key.space	n/a
189.148	0.09	378296	keystroke_d	d	n/a
189.343	0.105	378686	keystroke_r	r	n/a
189.463	0.045	378926	keystroke_u	u	n/a
189.673	0.06	379346	keystroke_m	m	n/a
189.748	0.105	379496	keystroke_s	s	n/a
189.988	0.135	379976	keystroke_Key.enter	Key.enter	n/a
190.131	11.866	380262	prompt	n/a	prague charity nissan interactive\n
191.3525	0.105	382705	keystroke_p	p	n/a
191.4875	0.09	382975	keystroke_r	r	n/a
191.6375	0.105	383275	keystroke_a	a	n/a
191.7575	0.075	383515	keystroke_g	g	n/a
191.8475	0.09	383695	keystroke_e	e	n/a
191.9825	0.075	383965	keystroke_Key.space	Key.space	n/a
193.1085	0.075	386217	keystroke_Key.backspace	Key.backspace	n/a
193.2285	0.075	386457	keystroke_Key.backspace	Key.backspace	n/a
193.5135	0.12	387027	keystroke_u	u	n/a
193.6935	0.104	387387	keystroke_e	e	n/a
194.1275	0.076	388255	keystroke_Key.space	Key.space	n/a
194.308	0.12	388616	keystroke_c	c	n/a
194.413	0.1205	388826	keystroke_h	h	n/a
194.5485	0.0745	389097	keystroke_a	a	n/a
194.758	0.09	389516	keystroke_r	r	n/a
194.908	0.105	389816	keystroke_i	i	n/a
195.043	0.09	390086	keystroke_t	t	n/a
195.178	0.09	390356	keystroke_y	y	n/a
195.403	0.12	390806	keystroke_Key.space	Key.space	n/a
196.753	0.09	393506	keystroke_n	n	n/a
196.948	0.12	393896	keystroke_i	i	n/a
197.023	0.09	394046	keystroke_s	s	n/a
197.188	0.09	394376	keystroke_s	s	n/a
197.398	0.09	394796	keystroke_a	a	n/a
197.488	0.075	394976	keystroke_n	n	n/a
197.683	0.06	395366	keystroke_Key.space	Key.space	n/a
197.833	0.075	395666	keystroke_i	i	n/a
198.043	0.18	396086	keystroke_n	n	n/a
198.703	0.105	397406	keystroke_t	t	n/a
198.883	0.12	397766	keystroke_e	e	n/a
198.958	0.12	397916	keystroke_r	r	n/a
199.2425	0.1355	398485	keystroke_a	a	n/a
199.843	0.09	399686	keystroke_c	c	n/a
200.173	0.075	400346	keystroke_t	t	n/a
200.293	0.12	400586	keystroke_i	i	n/a
200.383	0.09	400766	keystroke_v	v	n/a
200.548	0.12	401096	keystroke_e	e	n/a
200.653	0.1045	401306	keystroke_]	]	n/a
201.7175	0.045	403435	keystroke_Key.backspace	Key.backspace	n/a
201.8975	0.09	403795	keystroke_Key.enter	Key.enter	n/a
202.0025	10.885	404005	prompt	n/a	luke championships anderson securely\n
203.3525	0.09	406705	keystroke_l	l	n/a
203.5475	0.076	407095	keystroke_u	u	n/a
203.7125	0.0905	407425	keystroke_k	k	n/a
203.818	0.075	407636	keystroke_e	e	n/a
203.938	0.105	407876	keystroke_Key.space	Key.space	n/a
204.058	0.105	408116	keystroke_c	c	n/a
204.178	0.09	408356	keystroke_h	h	n/a
204.343	0.12	408686	keystroke_a	a	n/a
205.3025	0.0755	410605	keystroke_Key.backspace	Key.backspace	n/a
205.5425	0.09	411085	keystroke_m	m	n/a
206.143	0.0905	412286	keystroke_Key.backspace	Key.backspace	n/a
206.3685	0.12	412737	keystroke_a	a	n/a
206.5035	0.09	413007	keystroke_m	m	n/a
206.7135	0.105	413427	keystroke_p	p	n/a
206.8785	0.18	413757	keystroke_i	i	n/a
206.9985	0.105	413997	keystroke_o	o	n/a
207.178	0.12	414356	keystroke_n	n	n/a
207.343	0.105	414686	keystroke_s	s	n/a
207.463	0.075	414926	keystroke_h	h	n/a
207.6885	0.105	415377	keystroke_i	i	n/a
207.8835	0.135	415767	keystroke_p	p	n/a
208.0635	0.12	416127	keystroke_s	s	n/a
208.2435	0.09	416487	keystroke_Key.space	Key.space	n/a
208.5735	0.12	417147	keystroke_a	a	n/a
208.6785	0.1045	417357	keystroke_n	n	n/a
208.798	0.12	417596	keystroke_d	d	n/a
208.873	0.165	417746	keystroke_e	e	n/a
209.023	0.12	418046	keystroke_r	r	n/a
209.188	0.12	418376	keystroke_s	s	n/a
209.383	0.075	418766	keystroke_o	o	n/a
209.593	0.09	419186	keystroke_n	n	n/a
209.983	0.15	419966	keystroke_Key.space	Key.space	n/a
210.178	0.1055	420356	keystroke_s	s	n/a
210.3435	0.135	420687	keystroke_e	e	n/a
210.718	0.135	421436	keystroke_c	c	n/a
211.753	0.135	423506	keystroke_u	u	n/a
211.873	0.18	423746	keystroke_r	r	n/a
211.963	0.15	423926	keystroke_e	e	n/a
212.308	0.12	424616	keystroke_l	l	n/a
212.533	0.09	425066	keystroke_y	y	n/a
212.758	0.12	425516	keystroke_Key.enter	Key.enter	n/a
212.8915	17.291	425783	prompt	n/a	selections miniature exceed influenced\n
213.748	0.135	427496	keystroke_s	s	n/a
213.928	0.12	427856	keystroke_e	e	n/a
214.093	0.135	428186	keystroke_l	l	n/a
214.168	0.105	428336	keystroke_e	e	n/a
214.423	0.135	428846	keystroke_c	c	n/a
214.723	0.1055	429446	keystroke_t	t	n/a
214.7835	0.135	429567	keystroke_i	i	n/a
214.8575	0.091	429715	keystroke_o	o	n/a
215.1285	0.12	430257	keystroke_n	n	n/a
215.2325	0.105	430465	keystroke_s	s	n/a
215.3835	0.06	430767	keystroke_Key.space	Key.space	n/a
216.1935	0.105	432387	keystroke_m	m	n/a
216.3135	0.089	432627	keystroke_i	i	n/a
216.4635	0.135	432927	keystroke_n	n	n/a
216.5835	0.09	433167	keystroke_a	a	n/a
216.8235	0.075	433647	keystroke_t	t	n/a
216.9735	0.105	433947	keystroke_i	i	n/a
217.1525	0.105	434305	keystroke_y	y	n/a
217.2585	0.164	434517	keystroke_r	r	n/a
217.5125	0.12	435025	keystroke_e	e	n/a
218.5025	0.12	437005	keystroke_Key.backspace	Key.backspace	n/a
218.758	0.075	437516	keystroke_Key.backspace	Key.backspace	n/a
218.908	0.075	437816	keystroke_Key.backspace	Key.backspace	n/a
219.688	0.12	439376	keystroke_u	u	n/a
219.823	0.1495	439646	keystroke_r	r	n/a
219.9275	0.105	439855	keystroke_e	e	n/a
220.0175	0.105	440035	keystroke_Key.space	Key.space	n/a
221.2775	0.075	442555	keystroke_Key.backspace	Key.backspace	n/a
221.4275	0.06	442855	keystroke_Key.backspace	Key.backspace	n/a
221.6225	0.06	443245	keystroke_Key.backspace	Key.backspace	n/a
221.8175	0.045	443635	keystroke_Key.backspace	Key.backspace	n/a
221.9675	0.075	443935	keystroke_Key.backspace	Key.backspace	n/a
222.1325	0.075	444265	keystroke_Key.backspace	Key.backspace	n/a
222.3125	0.075	444625	keystroke_Key.backspace	Key.backspace	n/a
222.4925	0.075	444985	keystroke_Key.backspace	Key.backspace	n/a
223.0635	0.104	446127	keystroke_n	n	n/a
223.2725	0.12	446545	keystroke_i	i	n/a
223.543	0.12	447086	keystroke_a	a	n/a
223.9175	0.075	447835	keystroke_t	t	n/a
224.0375	0.09	448075	keystroke_u	u	n/a
224.1425	0.165	448285	keystroke_r	r	n/a
224.2325	0.12	448465	keystroke_e	e	n/a
224.3675	0.12	448735	keystroke_Key.space	Key.space	n/a
224.6825	0.1055	449365	keystroke_e	e	n/a
224.953	0.15	449906	keystroke_x	x	n/a
225.193	0.105	450386	keystroke_c	c	n/a
225.358	0.105	450716	keystroke_e	e	n/a
225.538	0.105	451076	keystroke_e	e	n/a
225.658	0.12	451316	keystroke_d	d	n/a
225.808	0.105	451616	keystroke_Key.space	Key.space	n/a
226.363	0.09	452726	keystroke_u	u	n/a
226.558	0.015	453116	keystroke_b	b	n/a
226.648	0.075	453296	keystroke_f	f	n/a
227.293	0.09	454586	keystroke_Key.backspace	Key.backspace	n/a
227.608	0.06	455216	keystroke_Key.backspace	Key.backspace	n/a
227.863	0.105	455726	keystroke_Key.backspace	Key.backspace	n/a
228.3575	0.09	456715	keystroke_i	i	n/a
228.5075	0.12	457015	keystroke_n	n	n/a
228.6575	0.12	457315	keystroke_f	f	n/a
228.7625	0.135	457525	keystroke_l	l	n/a
228.8825	0.12	457765	keystroke_u	u	n/a
228.9575	0.12	457915	keystroke_e	e	n/a
229.1375	0.12	458275	keystroke_n	n	n/a
229.2275	0.105	458455	keystroke_c	c	n/a
229.3325	0.1055	458665	keystroke_e	e	n/a
229.483	0.105	458966	keystroke_d	d	n/a
230.068	0.105	460136	keystroke_Key.enter	Key.enter	n/a
230.187	18.565	460374	prompt	n/a	guides delhi guarantee livecam\n
241.2305	0.042	482461	keystroke_g	g	n/a
241.2875	0.12	482575	keystroke_u	u	n/a
241.3475	0.15	482695	keystroke_i	i	n/a
241.4675	0.1805	482935	keystroke_d	d	n/a
241.5875	0.1055	483175	keystroke_e	e	n/a
241.7985	0.09	483597	keystroke_s	s	n/a
241.9035	0.015	483807	keystroke_Key.space	Key.space	n/a
242.4885	0.24	484977	keystroke_d	d	n/a
242.6685	0.1495	485337	keystroke_e	e	n/a
243.868	0.12	487736	keystroke_l	l	n/a
244.138	0.12	488276	keystroke_h	h	n/a
244.333	0.06	488666	keystroke_i	i	n/a
244.708	0.105	489416	keystroke_Key.space	Key.space	n/a
245.188	0.075	490376	keystroke_g	g	n/a
245.368	0.09	490736	keystroke_u	u	n/a
245.428	0.09	490856	keystroke_a	a	n/a
245.578	0.09	491156	keystroke_r	r	n/a
245.713	0.0895	491426	keystroke_a	a	n/a
245.8325	0.045	491665	keystroke_n	n	n/a
245.9375	0.12	491875	keystroke_t	t	n/a
246.118	0.09	492236	keystroke_e	e	n/a
246.283	0.12	492566	keystroke_e	e	n/a
246.388	0.075	492776	keystroke_Key.space	Key.space	n/a
247.0325	0.09	494065	keystroke_l	l	n/a
247.2125	0.075	494425	keystroke_i	i	n/a
247.3475	0.09	494695	keystroke_v	v	n/a
247.6475	0.015	495295	keystroke_e	e	n/a
247.7975	0.075	495595	keystroke_c	c	n/a
248.0075	0.105	496015	keystroke_a	a	n/a
248.0975	0.09	496195	keystroke_m	m	n/a
248.623	0.12	497246	keystroke_Key.enter	Key.enter	n/a
248.7565	8.0355	497513	prompt	n/a	engagement rica dairy shareholders\n
249.4925	0.09	498985	keystroke_e	e	n/a
249.6275	0.075	499255	keystroke_n	n	n/a
249.823	0.1045	499646	keystroke_g	g	n/a
249.9125	0.12	499825	keystroke_a	a	n/a
250.1375	0.075	500275	keystroke_g	g	n/a
250.2275	0.075	500455	keystroke_e	e	n/a
250.3625	0.0905	500725	keystroke_m	m	n/a
250.468	0.0895	500936	keystroke_e	e	n/a
250.5725	0.09	501145	keystroke_n	n	n/a
250.7075	0.075	501415	keystroke_t	t	n/a
250.8125	0.09	501625	keystroke_Key.space	Key.space	n/a
251.233	0.09	502466	keystroke_r	r	n/a
251.473	0.105	502946	keystroke_i	i	n/a
251.563	0.075	503126	keystroke_c	c	n/a
251.743	0.105	503486	keystroke_a	a	n/a
251.863	0.105	503726	keystroke_Key.space	Key.space	n/a
251.983	0.09	503966	keystroke_d	d	n/a
252.298	0.135	504596	keystroke_a	a	n/a
252.658	0.1505	505316	keystroke_i	i	n/a
252.9885	0.09	505977	keystroke_r	r	n/a
253.1985	0.075	506397	keystroke_y	y	n/a
253.4235	0.12	506847	keystroke_Key.space	Key.space	n/a
253.8885	0.0895	507777	keystroke_s	s	n/a
254.023	0.12	508046	keystroke_h	h	n/a
254.128	0.075	508256	keystroke_a	a	n/a
254.593	0.1495	509186	keystroke_r	r	n/a
254.698	0.1045	509396	keystroke_e	e	n/a
255.583	0.075	511166	keystroke_h	h	n/a
255.763	0.075	511526	keystroke_o	o	n/a
255.928	0.105	511856	keystroke_l	l	n/a
256.003	0.135	512006	keystroke_d	d	n/a
256.123	0.12	512246	keystroke_e	e	n/a
256.258	0.105	512516	keystroke_r	r	n/a
256.408	0.105	512816	keystroke_s	s	n/a
256.588	0.195	513176	keystroke_Key.enter	Key.enter	n/a
256.7965	9.191	513593	prompt	n/a	specialties hang spending mpeg\n
257.473	0.12	514946	keystroke_s	s	n/a
257.698	0.0905	515396	keystroke_p	p	n/a
257.8485	0.119	515697	keystroke_e	e	n/a
258.2685	0.165	516537	keystroke_c	c	n/a
258.988	0.12	517976	keystroke_i	i	n/a
259.618	0.12	519236	keystroke_a	a	n/a
259.768	0.12	519536	keystroke_l	l	n/a
259.978	0.09	519956	keystroke_t	t	n/a
260.098	0.105	520196	keystroke_i	i	n/a
260.188	0.09	520376	keystroke_e	e	n/a
260.383	0.075	520766	keystroke_s	s	n/a
260.473	0.105	520946	keystroke_Key.space	Key.space	n/a
261.0735	0.045	522147	keystroke_h	h	n/a
261.1635	0.104	522327	keystroke_a	a	n/a
261.2375	0.09	522475	keystroke_n	n	n/a
261.4335	0.089	522867	keystroke_g	g	n/a
261.6725	0.0905	523345	keystroke_Key.space	Key.space	n/a
261.913	0.105	523826	keystroke_s	s	n/a
262.018	0.1195	524036	keystroke_p	p	n/a
262.1535	0.089	524307	keystroke_e	e	n/a
262.3025	0.09	524605	keystroke_n	n	n/a
262.3935	0.104	524787	keystroke_d	d	n/a
262.5125	0.1055	525025	keystroke_i	i	n/a
262.603	0.12	525206	keystroke_n	n	n/a
262.708	0.09	525416	keystroke_g	g	n/a
262.858	0.105	525716	keystroke_Key.space	Key.space	n/a
263.488	0.075	526976	keystroke_m	m	n/a
263.698	0.105	527396	keystroke_p	p	n/a
263.788	0.075	527576	keystroke_e	e	n/a
264.028	0.075	528056	keystroke_g	g	n/a
265.8735	0.1045	531747	keystroke_Key.enter	Key.enter	n/a
265.9925	8.665	531985	prompt	n/a	slot jeffrey slightly thumbnails\n
267.568	0.09	535136	keystroke_s	s	n/a
267.643	0.075	535286	keystroke_l	l	n/a
267.808	0.06	535616	keystroke_o	o	n/a
267.869	0.119	535738	keystroke_t	t	n/a
268.033	0.09	536066	keystroke_Key.space	Key.space	n/a
268.258	0.0755	536516	keystroke_j	j	n/a
268.3785	0.075	536757	keystroke_e	e	n/a
268.5735	0.045	537147	keystroke_f	f	n/a
268.7085	0.09	537417	keystroke_f	f	n/a
269.8785	0.209	539757	keystroke_r	r	n/a
269.9975	0.135	539995	keystroke_e	e	n/a
270.388	0.075	540776	keystroke_y	y	n/a
270.598	0.09	541196	keystroke_Key.space	Key.space	n/a
270.673	0.1355	541346	keystroke_s	s	n/a
270.8385	0.12	541677	keystroke_l	l	n/a
270.9285	0.105	541857	keystroke_i	i	n/a
271.0485	0.09	542097	keystroke_g	g	n/a
271.1685	0.09	542337	keystroke_h	h	n/a
271.2735	0.09	542547	keystroke_t	t	n/a
271.3935	0.105	542787	keystroke_l	l	n/a
271.6335	0.075	543267	keystroke_y	y	n/a
271.8735	0.09	543747	keystroke_Key.space	Key.space	n/a
272.7135	0.0895	545427	keystroke_t	t	n/a
272.818	0.075	545636	keystroke_h	h	n/a
272.9985	0.0745	545997	keystroke_u	u	n/a
273.193	0.06	546386	keystroke_m	m	n/a
273.4035	0.015	546807	keystroke_b	b	n/a
273.7935	0.09	547587	keystroke_n	n	n/a
273.9435	0.135	547887	keystroke_a	a	n/a
274.0785	0.075	548157	keystroke_i	i	n/a
274.2735	0.075	548547	keystroke_l	l	n/a
274.378	0.09	548756	keystroke_s	s	n/a
274.528	0.12	549056	keystroke_Key.enter	Key.enter	n/a
274.6655	7.0715	549331	prompt	n/a	depends labels fighter australia\n
275.4135	0.165	550827	keystroke_d	d	n/a
275.5335	0.12	551067	keystroke_e	e	n/a
275.6685	0.105	551337	keystroke_p	p	n/a
275.8035	0.105	551607	keystroke_e	e	n/a
275.9535	0.105	551907	keystroke_n	n	n/a
276.0735	0.15	552147	keystroke_d	d	n/a
276.1635	0.12	552327	keystroke_s	s	n/a
276.3135	0.1195	552627	keystroke_Key.space	Key.space	n/a
276.688	0.12	553376	keystroke_l	l	n/a
276.8235	0.12	553647	keystroke_a	a	n/a
277.0935	0.09	554187	keystroke_b	b	n/a
277.2435	0.105	554487	keystroke_e	e	n/a
277.3635	0.0895	554727	keystroke_l	l	n/a
277.513	0.12	555026	keystroke_s	s	n/a
277.648	0.09	555296	keystroke_Key.space	Key.space	n/a
278.338	0.0745	556676	keystroke_f	f	n/a
278.4275	0.1055	556855	keystroke_i	i	n/a
278.548	0.075	557096	keystroke_g	g	n/a
278.638	0.09	557276	keystroke_h	h	n/a
278.743	0.165	557486	keystroke_t	t	n/a
278.848	0.12	557696	keystroke_e	e	n/a
279.673	0.105	559346	keystroke_r	r	n/a
279.868	0.105	559736	keystroke_Key.space	Key.space	n/a
280.138	0.12	560276	keystroke_a	a	n/a
280.633	0.105	561266	keystroke_u	u	n/a
280.708	0.06	561416	keystroke_s	s	n/a
280.843	0.0895	561686	keystroke_t	t	n/a
281.0075	0.075	562015	keystroke_r	r	n/a
281.1575	0.105	562315	keystroke_a	a	n/a
281.2335	0.104	562467	keystroke_l	l	n/a
281.3085	0.105	562617	keystroke_i	i	n/a
281.4275	0.105	562855	keystroke_a	a	n/a
281.5625	0.165	563125	keystroke_Key.enter	Key.enter	n/a
281.743	6.8565	563486	prompt	n/a	spent simulations occasionally sigma\n
282.3585	0.104	564717	keystroke_s	s	n/a
282.4935	0.1045	564987	keystroke_p	p	n/a
282.643	0.0905	565286	keystroke_e	e	n/a
282.7475	0.105	565495	keystroke_n	n	n/a
282.8825	0.09	565765	keystroke_t	t	n/a
283.0025	0.105	566005	keystroke_Key.space	Key.space	n/a
283.7525	0.09	567505	keystroke_s	s	n/a
283.8575	0.1055	567715	keystroke_i	i	n/a
284.113	0.135	568226	keystroke_m	m	n/a
284.413	0.075	568826	keystroke_u	u	n/a
284.593	0.12	569186	keystroke_l	l	n/a
284.638	0.09	569276	keystroke_a	a	n/a
284.833	0.09	569666	keystroke_t	t	n/a
284.848	0.135	569696	keystroke_i	i	n/a
284.953	0.075	569906	keystroke_o	o	n/a
285.133	0.09	570266	keystroke_n	n	n/a
285.238	0.09	570476	keystroke_s	s	n/a
285.343	0.075	570686	keystroke_Key.space	Key.space	n/a
285.538	0.12	571076	keystroke_o	o	n/a
286.003	0.045	572006	keystroke_c	c	n/a
286.153	0.06	572306	keystroke_c	c	n/a
286.318	0.135	572636	keystroke_a	a	n/a
286.378	0.135	572756	keystroke_s	s	n/a
286.498	0.12	572996	keystroke_i	i	n/a
286.573	0.075	573146	keystroke_o	o	n/a
286.738	0.09	573476	keystroke_n	n	n/a
286.843	0.12	573686	keystroke_a	a	n/a
286.948	0.06	573896	keystroke_l	l	n/a
287.113	0.075	574226	keystroke_l	l	n/a
287.338	0.075	574676	keystroke_y	y	n/a
287.563	0.105	575126	keystroke_Key.space	Key.space	n/a
287.788	0.12	575576	keystroke_s	s	n/a
287.923	0.0905	575846	keystroke_i	i	n/a
288.0435	0.105	576087	keystroke_g	g	n/a
288.2385	0.074	576477	keystroke_m	m	n/a
288.3725	0.09	576745	keystroke_a	a	n/a
288.4635	0.1345	576927	keystroke_Key.enter	Key.enter	n/a
288.6065	5.528	577213	prompt	n/a	laser affect dodge management\n
289.1235	0.12	578247	keystroke_l	l	n/a
289.2585	0.1345	578517	keystroke_a	a	n/a
289.3485	0.1045	578697	keystroke_s	s	n/a
289.573	0.0745	579146	keystroke_e	e	n/a
289.7525	0.091	579505	keystroke_r	r	n/a
289.8275	0.09	579655	keystroke_Key.space	Key.space	n/a
289.9485	0.104	579897	keystroke_a	a	n/a
290.0835	0.059	580167	keystroke_f	f	n/a
290.2335	0.089	580467	keystroke_f	f	n/a
290.2635	0.074	580527	keystroke_e	e	n/a
290.4275	0.09	580855	keystroke_c	c	n/a
290.5025	0.076	581005	keystroke_t	t	n/a
290.7275	0.09	581455	keystroke_Key.space	Key.space	n/a
290.9535	0.059	581907	keystroke_d	d	n/a
291.6135	0.075	583227	keystroke_o	o	n/a
291.7035	0.105	583407	keystroke_d	d	n/a
291.8535	0.075	583707	keystroke_g	g	n/a
291.9585	0.075	583917	keystroke_e	e	n/a
292.0635	0.12	584127	keystroke_Key.space	Key.space	n/a
292.8435	0.075	585687	keystroke_m	m	n/a
292.9335	0.075	585867	keystroke_a	a	n/a
293.0685	0.075	586137	keystroke_n	n	n/a
293.1585	0.105	586317	keystroke_a	a	n/a
293.3085	0.09	586617	keystroke_g	g	n/a
293.4135	0.075	586827	keystroke_e	e	n/a
293.5635	0.075	587127	keystroke_m	m	n/a
293.6685	0.06	587337	keystroke_e	e	n/a
293.7735	0.09	587547	keystroke_n	n	n/a
293.9085	0.09	587817	keystroke_t	t	n/a
294.0135	0.12	588027	keystroke_Key.enter	Key.enter	n/a
294.1385	5.756	588277	prompt	n/a	trivia images classification lewis\n
294.7935	0.09	589587	keystroke_t	t	n/a
294.9885	0.089	589977	keystroke_r	r	n/a
295.1225	0.105	590245	keystroke_i	i	n/a
295.2575	0.091	590515	keystroke_v	v	n/a
295.3625	0.09	590725	keystroke_i	i	n/a
295.5125	0.09	591025	keystroke_a	a	n/a
295.6325	0.105	591265	keystroke_Key.space	Key.space	n/a
296.1425	0.1505	592285	keystroke_i	i	n/a
296.308	0.105	592616	keystroke_m	m	n/a
296.458	0.105	592916	keystroke_a	a	n/a
296.593	0.075	593186	keystroke_g	g	n/a
296.683	0.0605	593366	keystroke_e	e	n/a
296.8335	0.09	593667	keystroke_s	s	n/a
296.9235	0.09	593847	keystroke_Key.space	Key.space	n/a
297.1935	0.09	594387	keystroke_c	c	n/a
297.2985	0.12	594597	keystroke_l	l	n/a
297.4335	0.1045	594867	keystroke_a	a	n/a
297.5235	0.0595	595047	keystroke_s	s	n/a
297.658	0.06	595316	keystroke_s	s	n/a
297.763	0.09	595526	keystroke_i	i	n/a
297.898	0.03	595796	keystroke_f	f	n/a
297.988	0.105	595976	keystroke_i	i	n/a
298.063	0.075	596126	keystroke_c	c	n/a
298.303	0.1055	596606	keystroke_a	a	n/a
298.5135	0.075	597027	keystroke_t	t	n/a
298.5585	0.105	597117	keystroke_i	i	n/a
298.6335	0.075	597267	keystroke_o	o	n/a
298.7985	0.074	597597	keystroke_n	n	n/a
298.9635	0.09	597927	keystroke_Key.space	Key.space	n/a
299.1735	0.12	598347	keystroke_l	l	n/a
299.3085	0.1645	598617	keystroke_e	e	n/a
299.3835	0.1195	598767	keystroke_w	w	n/a
299.5485	0.09	599097	keystroke_i	i	n/a
299.6685	0.09	599337	keystroke_s	s	n/a
299.8035	0.09	599607	keystroke_Key.enter	Key.enter	n/a
299.898	12.17	599796	prompt	n/a	liability surprise crisis iraq\n
300.7335	0.18	601467	keystroke_l	l	n/a
301.0335	0.09	602067	keystroke_i	i	n/a
301.1835	0.105	602367	keystroke_a	a	n/a
301.3035	0.06	602607	keystroke_b	b	n/a
301.5735	0.1345	603147	keystroke_i	i	n/a
301.648	0.27	603296	keystroke_l	l	n/a
302.653	0.09	605306	keystroke_t	t	n/a
304.468	0.06	608936	keystroke_Key.backspace	Key.backspace	n/a
304.633	0.075	609266	keystroke_Key.backspace	Key.backspace	n/a
304.843	0.06	609686	keystroke_Key.backspace	Key.backspace	n/a
305.143	0.075	610286	keystroke_Key.backspace	Key.backspace	n/a
306.763	0.09	613526	keystroke_b	b	n/a
306.958	0.105	613916	keystroke_i	i	n/a
307.1535	0.12	614307	keystroke_l	l	n/a
307.2585	0.135	614517	keystroke_i	i	n/a
307.4535	0.09	614907	keystroke_t	t	n/a
307.5585	0.075	615117	keystroke_y	y	n/a
307.7535	0.12	615507	keystroke_Key.space	Key.space	n/a
308.2185	0.15	616437	keystroke_s	s	n/a
308.4135	0.105	616827	keystroke_u	u	n/a
308.7585	0.105	617517	keystroke_r	r	n/a
308.9235	0.105	617847	keystroke_p	p	n/a
309.0135	0.105	618027	keystroke_r	r	n/a
309.1335	0.12	618267	keystroke_i	i	n/a
309.2385	0.105	618477	keystroke_s	s	n/a
309.3735	0.105	618747	keystroke_e	e	n/a
309.4925	0.105	618985	keystroke_Key.space	Key.space	n/a
309.883	0.075	619766	keystroke_c	c	n/a
310.183	0.105	620366	keystroke_r	r	n/a
310.333	0.1205	620666	keystroke_i	i	n/a
310.4385	0.075	620877	keystroke_s	s	n/a
310.6035	0.105	621207	keystroke_i	i	n/a
310.7535	0.105	621507	keystroke_s	s	n/a
310.9035	0.09	621807	keystroke_Key.space	Key.space	n/a
311.0985	0.12	622197	keystroke_i	i	n/a
311.3985	0.09	622797	keystroke_r	r	n/a
311.6085	0.105	623217	keystroke_a	a	n/a
311.8035	0.105	623607	keystroke_w	w	n/a
311.9535	0.105	623907	keystroke_Key.enter	Key.enter	n/a
312.0725	6.287	624145	prompt	n/a	trip investments donna cave\n
313.198	0.1055	626396	keystroke_t	t	n/a
313.423	0.105	626846	keystroke_r	r	n/a
313.498	0.09	626996	keystroke_i	i	n/a
313.678	0.12	627356	keystroke_p	p	n/a
314.307	0.076	628614	keystroke_Key.space	Key.space	n/a
314.4875	0.1345	628975	keystroke_i	i	n/a
314.577	0.135	629154	keystroke_n	n	n/a
314.863	0.075	629726	keystroke_v	v	n/a
314.923	0.105	629846	keystroke_e	e	n/a
315.088	0.075	630176	keystroke_s	s	n/a
315.208	0.0895	630416	keystroke_t	t	n/a
315.3125	0.12	630625	keystroke_m	m	n/a
315.4175	0.09	630835	keystroke_e	e	n/a
315.5385	0.105	631077	keystroke_n	n	n/a
315.6125	0.09	631225	keystroke_t	t	n/a
315.7775	0.105	631555	keystroke_s	s	n/a
315.9875	0.09	631975	keystroke_Key.space	Key.space	n/a
316.2885	0.104	632577	keystroke_d	d	n/a
316.4375	0.105	632875	keystroke_o	o	n/a
316.663	0.0595	633326	keystroke_n	n	n/a
316.7825	0.075	633565	keystroke_n	n	n/a
316.8585	0.0895	633717	keystroke_a	a	n/a
316.978	0.105	633956	keystroke_Key.space	Key.space	n/a
317.098	0.06	634196	keystroke_c	c	n/a
317.248	0.12	634496	keystroke_a	a	n/a
317.353	0.06	634706	keystroke_v	v	n/a
317.488	0.06	634976	keystroke_e	e	n/a
317.608	0.105	635216	keystroke_\	\	n/a
318.283	0.075	636566	keystroke_Key.enter	Key.enter	n/a
318.362	13.085	636724	prompt	n/a	memo specialists gibson philosophy\n
319.303	0.0755	638606	keystroke_m	m	n/a
319.4085	0.089	638817	keystroke_e	e	n/a
319.5285	0.105	639057	keystroke_m	m	n/a
319.7075	0.09	639415	keystroke_o	o	n/a
319.9485	0.075	639897	keystroke_Key.space	Key.space	n/a
320.1285	0.105	640257	keystroke_s	s	n/a
320.2775	0.091	640555	keystroke_p	p	n/a
320.3535	0.105	640707	keystroke_e	e	n/a
320.5625	0.091	641125	keystroke_c	c	n/a
320.6385	0.09	641277	keystroke_i	i	n/a
320.743	0.12	641486	keystroke_a	a	n/a
320.833	0.135	641666	keystroke_l	l	n/a
320.923	0.135	641846	keystroke_i	i	n/a
321.043	0.09	642086	keystroke_t	t	n/a
321.193	0.105	642386	keystroke_s	s	n/a
321.358	0.105	642716	keystroke_Key.space	Key.space	n/a
322.3475	0.075	644695	keystroke_Key.backspace	Key.backspace	n/a
322.5425	0.045	645085	keystroke_Key.backspace	Key.backspace	n/a
322.7225	0.0605	645445	keystroke_Key.backspace	Key.backspace	n/a
322.888	0.09	645776	keystroke_Key.backspace	Key.backspace	n/a
323.353	0.06	646706	keystroke_Key.backspace	Key.backspace	n/a
323.5775	0.06	647155	keystroke_Key.backspace	Key.backspace	n/a
324.5675	0.12	649135	keystroke_a	a	n/a
324.7775	0.15	649555	keystroke_l	l	n/a
324.9125	0.135	649825	keystroke_i	i	n/a
325.0175	0.075	650035	keystroke_s	s	n/a
325.1525	0.09	650305	keystroke_t	t	n/a
325.3025	0.105	650605	keystroke_s	s	n/a
325.4225	0.09	650845	keystroke_Key.space	Key.space	n/a
326.5335	0.045	653067	keystroke_g	g	n/a
326.6085	0.135	653217	keystroke_i	i	n/a
326.7585	0.075	653517	keystroke_b	b	n/a
326.9685	0.135	653937	keystroke_s	s	n/a
327.0885	0.09	654177	keystroke_o	o	n/a
327.2985	0.06	654597	keystroke_n	n	n/a
327.4635	0.0745	654927	keystroke_Key.space	Key.space	n/a
327.748	0.12	655496	keystroke_p	p	n/a
328.018	0.105	656036	keystroke_h	h	n/a
328.093	0.15	656186	keystroke_i	i	n/a
328.363	0.09	656726	keystroke_l	l	n/a
328.573	0.1945	657146	keystroke_o	o	n/a
329.158	0.12	658316	keystroke_s	s	n/a
329.293	0.075	658586	keystroke_o	o	n/a
329.503	0.075	659006	keystroke_p	p	n/a
329.713	0.06	659426	keystroke_h	h	n/a
329.863	0.06	659726	keystroke_y	y	n/a
330.058	0.075	660116	keystroke_Key.space	Key.space	n/a
331.3475	0.09	662695	keystroke_Key.enter	Key.enter	n/a
331.4605	5.304	662921	prompt	n/a	find connected boards funk\n
332.7275	0.12	665455	keystroke_f	f	n/a
332.8325	0.105	665665	keystroke_i	i	n/a
332.9225	0.12	665845	keystroke_n	n	n/a
333.0575	0.105	666115	keystroke_d	d	n/a
333.1775	0.105	666355	keystroke_Key.space	Key.space	n/a
333.3275	0.09	666655	keystroke_c	c	n/a
333.4025	0.091	666805	keystroke_o	o	n/a
333.5985	0.075	667197	keystroke_n	n	n/a
333.7485	0.09	667497	keystroke_n	n	n/a
333.8085	0.09	667617	keystroke_e	e	n/a
333.988	0.0905	667976	keystroke_c	c	n/a
334.1985	0.105	668397	keystroke_t	t	n/a
334.273	0.1055	668546	keystroke_e	e	n/a
334.423	0.105	668846	keystroke_d	d	n/a
334.4835	0.1045	668967	keystroke_Key.space	Key.space	n/a
334.663	0.0755	669326	keystroke_b	b	n/a
334.8435	0.135	669687	keystroke_o	o	n/a
334.9185	0.09	669837	keystroke_a	a	n/a
335.0835	0.105	670167	keystroke_r	r	n/a
335.3085	0.165	670617	keystroke_d	d	n/a
335.4585	0.105	670917	keystroke_s	s	n/a
335.5935	0.1345	671187	keystroke_Key.space	Key.space	n/a
336.058	0.105	672116	keystroke_f	f	n/a
336.133	0.135	672266	keystroke_u	u	n/a
336.223	0.12	672446	keystroke_n	n	n/a
336.373	0.09	672746	keystroke_k	k	n/a
336.628	0.1345	673256	keystroke_Key.enter	Key.enter	n/a
336.7695	4.6	673539	prompt	n/a	hull passes typical line\n
337.633	0.105	675266	keystroke_h	h	n/a
337.723	0.09	675446	keystroke_u	u	n/a
337.993	0.06	675986	keystroke_l	l	n/a
338.143	0.06	676286	keystroke_l	l	n/a
338.293	0.06	676586	keystroke_Key.space	Key.space	n/a
338.4575	0.09	676915	keystroke_p	p	n/a
338.5025	0.15	677005	keystroke_a	a	n/a
338.5925	0.105	677185	keystroke_s	s	n/a
338.773	0.09	677546	keystroke_s	s	n/a
339.058	0.09	678116	keystroke_e	e	n/a
339.223	0.12	678446	keystroke_s	s	n/a
339.328	0.09	678656	keystroke_Key.space	Key.space	n/a
339.568	0.09	679136	keystroke_t	t	n/a
339.7785	0.09	679557	keystroke_y	y	n/a
340.0035	0.12	680007	keystroke_p	p	n/a
340.0785	0.12	680157	keystroke_i	i	n/a
340.1375	0.076	680275	keystroke_c	c	n/a
340.2885	0.105	680577	keystroke_a	a	n/a
340.3785	0.06	680757	keystroke_l	l	n/a
340.5435	0.0745	681087	keystroke_Key.space	Key.space	n/a
340.6935	0.089	681387	keystroke_l	l	n/a
340.8735	0.105	681747	keystroke_i	i	n/a
340.9625	0.106	681925	keystroke_n	n	n/a
341.0825	0.075	682165	keystroke_e	e	n/a
341.2175	0.15	682435	keystroke_Key.enter	Key.enter	n/a
341.3725	6.282	682745	prompt	n/a	cheapest optional ringtone preview\n
342.0425	0.09	684085	keystroke_c	c	n/a
342.1625	0.09	684325	keystroke_h	h	n/a
342.2375	0.12	684475	keystroke_e	e	n/a
342.3275	0.105	684655	keystroke_a	a	n/a
342.4175	0.1205	684835	keystroke_p	p	n/a
342.523	0.09	685046	keystroke_e	e	n/a
342.703	0.0905	685406	keystroke_s	s	n/a
342.9435	0.075	685887	keystroke_t	t	n/a
343.0485	0.09	686097	keystroke_Key.space	Key.space	n/a
343.2885	0.105	686577	keystroke_o	o	n/a
343.5285	0.135	687057	keystroke_p	p	n/a
343.7235	0.105	687447	keystroke_t	t	n/a
343.8435	0.1045	687687	keystroke_i	i	n/a
343.903	0.105	687806	keystroke_o	o	n/a
344.083	0.105	688166	keystroke_n	n	n/a
344.218	0.105	688436	keystroke_a	a	n/a
344.308	0.09	688616	keystroke_l	l	n/a
344.893	0.12	689786	keystroke_Key.space	Key.space	n/a
345.4785	0.12	690957	keystroke_r	r	n/a
345.6885	0.105	691377	keystroke_i	i	n/a
345.7485	0.135	691497	keystroke_n	n	n/a
345.8535	0.09	691707	keystroke_g	g	n/a
346.0185	0.105	692037	keystroke_t	t	n/a
346.0785	0.09	692157	keystroke_o	o	n/a
346.2285	0.105	692457	keystroke_n	n	n/a
346.3185	0.105	692637	keystroke_e	e	n/a
346.4385	0.075	692877	keystroke_Key.space	Key.space	n/a
346.6185	0.119	693237	keystroke_p	p	n/a
346.6935	0.15	693387	keystroke_r	r	n/a
346.7975	0.135	693595	keystroke_e	e	n/a
347.0385	0.075	694077	keystroke_v	v	n/a
347.2185	0.105	694437	keystroke_i	i	n/a
347.3075	0.165	694615	keystroke_e	e	n/a
347.4135	0.105	694827	keystroke_w	w	n/a
347.5335	0.119	695067	keystroke_Key.enter	Key.enter	n/a
347.659	17.358	695318	prompt	n/a	branches surveys he've newfoundland\n
348.463	0.09	696926	keystroke_b	b	n/a
348.538	0.075	697076	keystroke_r	r	n/a
348.658	0.12	697316	keystroke_a	a	n/a
348.793	0.075	697586	keystroke_n	n	n/a
348.883	0.09	697766	keystroke_c	c	n/a
349.018	0.09	698036	keystroke_h	h	n/a
349.123	0.075	698246	keystroke_e	e	n/a
349.288	0.0905	698576	keystroke_s	s	n/a
349.3485	0.12	698697	keystroke_Key.space	Key.space	n/a
349.7985	0.135	699597	keystroke_s	s	n/a
350.0385	0.165	700077	keystroke_u	u	n/a
350.5335	0.075	701067	keystroke_r	r	n/a
350.7135	0.105	701427	keystroke_b	b	n/a
350.8335	0.105	701667	keystroke_e	e	n/a
350.9985	0.075	701997	keystroke_y	y	n/a
352.5425	0.121	705085	keystroke_s	s	n/a
353.548	0.105	707096	keystroke_Key.backspace	Key.backspace	n/a
353.7575	0.0455	707515	keystroke_Key.backspace	Key.backspace	n/a
353.9225	0.0605	707845	keystroke_Key.backspace	Key.backspace	n/a
354.0875	0.0905	708175	keystroke_Key.backspace	Key.backspace	n/a
354.7025	0.091	709405	keystroke_v	v	n/a
354.8385	0.09	709677	keystroke_e	e	n/a
354.9735	0.075	709947	keystroke_y	y	n/a
355.5585	0.075	711117	keystroke_'	'	n/a
355.6935	0.09	711387	keystroke_s	s	n/a
356.518	0.075	713036	keystroke_h	h	n/a
356.698	0.0755	713396	keystroke_e	e	n/a
357.1035	0.075	714207	keystroke_'	'	n/a
357.4935	0.09	714987	keystroke_v	v	n/a
357.6285	0.075	715257	keystroke_e	e	n/a
357.7185	0.105	715437	keystroke_Key.space	Key.space	n/a
358.6335	0.075	717267	keystroke_Key.backspace	Key.backspace	n/a
358.8135	0.0745	717627	keystroke_Key.backspace	Key.backspace	n/a
358.978	0.075	717956	keystroke_Key.backspace	Key.backspace	n/a
359.173	0.06	718346	keystroke_Key.backspace	Key.backspace	n/a
359.353	0.06	718706	keystroke_Key.backspace	Key.backspace	n/a
359.518	0.075	719036	keystroke_Key.backspace	Key.backspace	n/a
359.773	0.015	719546	keystroke_Key.backspace	Key.backspace	n/a
359.863	0.09	719726	keystroke_Key.backspace	Key.backspace	n/a
360.298	0.09	720596	keystroke_s	s	n/a
360.478	0.09	720956	keystroke_Key.space	Key.space	n/a
361.123	0.06	722246	keystroke_h	h	n/a
361.213	0.09	722426	keystroke_e	e	n/a
361.6025	0.076	723205	keystroke_'	'	n/a
361.9335	0.075	723867	keystroke_v	v	n/a
362.0525	0.075	724105	keystroke_e	e	n/a
362.1425	0.09	724285	keystroke_Key.space	Key.space	n/a
363.298	0.09	726596	keystroke_n	n	n/a
363.373	0.1795	726746	keystroke_e	e	n/a
363.4635	0.134	726927	keystroke_w	w	n/a
363.6875	0.105	727375	keystroke_f	f	n/a
363.7625	0.105	727525	keystroke_o	o	n/a
363.8825	0.03	727765	keystroke_u	u	n/a
364.0175	0.106	728035	keystroke_n	n	n/a
364.1375	0.105	728275	keystroke_d	d	n/a
364.3475	0.0905	728695	keystroke_l	l	n/a
364.483	0.105	728966	keystroke_a	a	n/a
364.618	0.075	729236	keystroke_n	n	n/a
364.723	0.0905	729446	keystroke_d	d	n/a
364.8735	0.135	729747	keystroke_Key.enter	Key.enter	n/a
365.022	7.87	730044	prompt	n/a	organizations troops cosmetic affiliated\n
365.9385	0.09	731877	keystroke_o	o	n/a
366.0735	0.105	732147	keystroke_r	r	n/a
366.3135	0.075	732627	keystroke_g	g	n/a
366.4335	0.09	732867	keystroke_a	a	n/a
366.5385	0.105	733077	keystroke_n	n	n/a
366.7635	0.105	733527	keystroke_i	i	n/a
366.8835	0.0745	733767	keystroke_z	z	n/a
367.0625	0.06	734125	keystroke_a	a	n/a
367.2575	0.076	734515	keystroke_t	t	n/a
367.2725	0.135	734545	keystroke_i	i	n/a
367.3775	0.09	734755	keystroke_o	o	n/a
367.5875	0.075	735175	keystroke_n	n	n/a
367.6775	0.105	735355	keystroke_s	s	n/a
367.7975	0.075	735595	keystroke_Key.space	Key.space	n/a
367.9025	0.09	735805	keystroke_t	t	n/a
368.1275	0.075	736255	keystroke_r	r	n/a
368.2625	0.075	736525	keystroke_o	o	n/a
368.4125	0.09	736825	keystroke_o	o	n/a
368.6085	0.074	737217	keystroke_p	p	n/a
368.7125	0.1055	737425	keystroke_s	s	n/a
368.863	0.075	737726	keystroke_Key.space	Key.space	n/a
369.403	0.09	738806	keystroke_c	c	n/a
369.523	0.075	739046	keystroke_o	o	n/a
369.8385	0.105	739677	keystroke_s	s	n/a
370.0485	0.105	740097	keystroke_m	m	n/a
370.1535	0.075	740307	keystroke_e	e	n/a
370.3485	0.075	740697	keystroke_t	t	n/a
370.4385	0.09	740877	keystroke_i	i	n/a
370.5885	0.105	741177	keystroke_c	c	n/a
370.753	0.09	741506	keystroke_Key.space	Key.space	n/a
371.173	0.075	742346	keystroke_a	a	n/a
371.548	0.03	743096	keystroke_f	f	n/a
371.683	0.09	743366	keystroke_f	f	n/a
371.758	0.09	743516	keystroke_i	i	n/a
371.908	0.15	743816	keystroke_l	l	n/a
372.013	0.135	744026	keystroke_i	i	n/a
372.118	0.09	744236	keystroke_a	a	n/a
372.313	0.105	744626	keystroke_t	t	n/a
372.388	0.09	744776	keystroke_e	e	n/a
372.5535	0.105	745107	keystroke_d	d	n/a
372.6885	0.195	745377	keystroke_Key.enter	Key.enter	n/a
372.8965	6.3035	745793	prompt	n/a	taxi progress washer ultimate\n
373.6635	0.1195	747327	keystroke_t	t	n/a
373.9185	0.105	747837	keystroke_a	a	n/a
374.1885	0.105	748377	keystroke_x	x	n/a
374.788	0.075	749576	keystroke_i	i	n/a
374.983	0.09	749966	keystroke_Key.space	Key.space	n/a
375.253	0.15	750506	keystroke_p	p	n/a
375.463	0.09	750926	keystroke_r	r	n/a
375.598	0.105	751196	keystroke_o	o	n/a
375.838	0.075	751676	keystroke_g	g	n/a
375.914	0.134	751828	keystroke_r	r	n/a
375.988	0.105	751976	keystroke_e	e	n/a
376.213	0.06	752426	keystroke_s	s	n/a
376.348	0.105	752696	keystroke_s	s	n/a
376.528	0.105	753056	keystroke_Key.space	Key.space	n/a
376.678	0.1055	753356	keystroke_w	w	n/a
376.8735	0.12	753747	keystroke_a	a	n/a
376.9485	0.12	753897	keystroke_s	s	n/a
377.1135	0.105	754227	keystroke_h	h	n/a
377.2035	0.09	754407	keystroke_e	e	n/a
377.3835	0.09	754767	keystroke_r	r	n/a
377.5035	0.075	755007	keystroke_Key.space	Key.space	n/a
378.0585	0.075	756117	keystroke_u	u	n/a
378.2235	0.105	756447	keystroke_l	l	n/a
378.3585	0.075	756717	keystroke_t	t	n/a
378.4485	0.0745	756897	keystroke_i	i	n/a
378.628	0.09	757256	keystroke_m	m	n/a
378.703	0.0755	757406	keystroke_a	a	n/a
378.8985	0.105	757797	keystroke_t	t	n/a
378.9585	0.12	757917	keystroke_e	e	n/a
379.0935	0.1045	758187	keystroke_Key.enter	Key.enter	n/a
379.2025	6.642	758405	prompt	n/a	landscape delivered guards parade\n
379.9485	0.12	759897	keystroke_l	l	n/a
380.0835	0.105	760167	keystroke_a	a	n/a
380.2485	0.09	760497	keystroke_n	n	n/a
380.3085	0.09	760617	keystroke_d	d	n/a
380.5035	0.075	761007	keystroke_s	s	n/a
380.7285	0.075	761457	keystroke_c	c	n/a
380.9085	0.075	761817	keystroke_a	a	n/a
381.0435	0.075	762087	keystroke_p	p	n/a
381.1485	0.075	762297	keystroke_e	e	n/a
381.3735	0.06	762747	keystroke_Key.space	Key.space	n/a
381.8535	0.165	763707	keystroke_d	d	n/a
381.9585	0.1345	763917	keystroke_e	e	n/a
382.123	0.15	764246	keystroke_l	l	n/a
382.288	0.105	764576	keystroke_i	i	n/a
382.318	0.09	764636	keystroke_v	v	n/a
382.468	0.105	764936	keystroke_e	e	n/a
382.558	0.15	765116	keystroke_r	r	n/a
382.678	0.1205	765356	keystroke_e	e	n/a
382.8435	0.105	765687	keystroke_d	d	n/a
382.9935	0.12	765987	keystroke_Key.space	Key.space	n/a
383.4735	0.105	766947	keystroke_g	g	n/a
383.5635	0.12	767127	keystroke_u	u	n/a
383.6685	0.075	767337	keystroke_a	a	n/a
383.8185	0.075	767637	keystroke_r	r	n/a
383.9985	0.135	767997	keystroke_d	d	n/a
384.0735	0.105	768147	keystroke_s	s	n/a
384.2085	0.06	768417	keystroke_Key.space	Key.space	n/a
384.7335	0.135	769467	keystroke_p	p	n/a
384.8385	0.075	769677	keystroke_a	a	n/a
385.0035	0.075	770007	keystroke_r	r	n/a
385.1385	0.09	770277	keystroke_a	a	n/a
385.4685	0.165	770937	keystroke_d	d	n/a
385.5735	0.09	771147	keystroke_e	e	n/a
385.6935	0.15	771387	keystroke_Key.enter	Key.enter	n/a
385.8475	6.89	771695	prompt	n/a	atmosphere housewives containers imposed\n
386.578	0.12	773156	keystroke_a	a	n/a
386.803	0.09	773606	keystroke_t	t	n/a
386.968	0.09	773936	keystroke_m	m	n/a
387.1325	0.12	774265	keystroke_o	o	n/a
387.2675	0.076	774535	keystroke_s	s	n/a
387.3725	0.075	774745	keystroke_p	p	n/a
387.583	0.075	775166	keystroke_h	h	n/a
387.628	0.105	775256	keystroke_e	e	n/a
387.718	0.18	775436	keystroke_r	r	n/a
387.838	0.105	775676	keystroke_e	e	n/a
387.958	0.09	775916	keystroke_Key.space	Key.space	n/a
388.363	0.075	776726	keystroke_h	h	n/a
388.603	0.0445	777206	keystroke_o	o	n/a
388.618	0.09	777236	keystroke_u	u	n/a
388.6335	0.1195	777267	keystroke_s	s	n/a
388.813	0.105	777626	keystroke_e	e	n/a
389.143	0.075	778286	keystroke_w	w	n/a
389.413	0.09	778826	keystroke_i	i	n/a
389.623	0.09	779246	keystroke_v	v	n/a
389.728	0.09	779456	keystroke_e	e	n/a
389.924	0.105	779848	keystroke_s	s	n/a
390.043	0.075	780086	keystroke_Key.space	Key.space	n/a
390.403	0.105	780806	keystroke_c	c	n/a
390.523	0.09	781046	keystroke_o	o	n/a
390.703	0.1055	781406	keystroke_n	n	n/a
390.7935	0.06	781587	keystroke_t	t	n/a
390.9735	0.09	781947	keystroke_a	a	n/a
391.0185	0.09	782037	keystroke_i	i	n/a
391.0935	0.105	782187	keystroke_n	n	n/a
391.1835	0.075	782367	keystroke_e	e	n/a
391.3485	0.09	782697	keystroke_r	r	n/a
391.4835	0.1195	782967	keystroke_s	s	n/a
391.588	0.09	783176	keystroke_Key.space	Key.space	n/a
391.813	0.12	783626	keystroke_i	i	n/a
391.918	0.09	783836	keystroke_m	m	n/a
392.113	0.105	784226	keystroke_p	p	n/a
392.188	0.09	784376	keystroke_s	s	n/a
392.203	0.09	784406	keystroke_o	o	n/a
392.308	0.075	784616	keystroke_e	e	n/a
392.488	0.075	784976	keystroke_d	d	n/a
392.608	0.12	785216	keystroke_Key.enter	Key.enter	n/a
392.7415	12.341	785483	prompt	n/a	tennessee excellent channel areas\n
393.448	0.09	786896	keystroke_t	t	n/a
393.628	0.09	787256	keystroke_e	e	n/a
394.8425	0.076	789685	keystroke_n	n	n/a
394.9925	0.15	789985	keystroke_n	n	n/a
395.1725	0.12	790345	keystroke_e	e	n/a
396.1325	0.12	792265	keystroke_s	s	n/a
396.3735	0.105	792747	keystroke_s	s	n/a
396.5975	0.075	793195	keystroke_e	e	n/a
396.7625	0.075	793525	keystroke_e	e	n/a
396.8685	0.119	793737	keystroke_Key.space	Key.space	n/a
397.0025	0.136	794005	keystroke_e	e	n/a
397.2585	0.105	794517	keystroke_x	x	n/a
397.5435	0.045	795087	keystroke_e	e	n/a
397.903	0.135	795806	keystroke_Key.backspace	Key.backspace	n/a
398.023	0.12	796046	keystroke_c	c	n/a
398.188	0.105	796376	keystroke_e	e	n/a
398.398	0.075	796796	keystroke_l	l	n/a
398.548	0.0895	797096	keystroke_l	l	n/a
398.623	0.1205	797246	keystroke_e	e	n/a
398.7725	0.09	797545	keystroke_n	n	n/a
398.908	0.09	797816	keystroke_t	t	n/a
399.0425	0.09	798085	keystroke_Key.space	Key.space	n/a
399.9735	0.105	799947	keystroke_c	c	n/a
400.4985	0.09	800997	keystroke_h	h	n/a
400.6335	0.105	801267	keystroke_a	a	n/a
400.7235	0.06	801447	keystroke_n	n	n/a
400.8585	0.105	801717	keystroke_n	n	n/a
400.9935	0.09	801987	keystroke_e	e	n/a
401.788	0.075	803576	keystroke_l	l	n/a
401.998	0.06	803996	keystroke_Key.space	Key.space	n/a
402.073	0.09	804146	keystroke_a	a	n/a
402.268	0.12	804536	keystroke_r	r	n/a
402.343	0.09	804686	keystroke_e	e	n/a
402.553	0.105	805106	keystroke_a	a	n/a
402.733	0.105	805466	keystroke_s	s	n/a
403.138	0.15	806276	keystroke_\	\	n/a
404.2475	0.09	808495	keystroke_Key.backspace	Key.backspace	n/a
404.9685	0.105	809937	keystroke_Key.enter	Key.enter	n/a
405.088	7.397	810176	prompt	n/a	profile exterior voted liable\n
406.198	0.075	812396	keystroke_p	p	n/a
406.333	0.09	812666	keystroke_r	r	n/a
406.468	0.06	812936	keystroke_o	o	n/a
406.6035	0.075	813207	keystroke_f	f	n/a
406.693	0.1055	813386	keystroke_i	i	n/a
406.8885	0.09	813777	keystroke_l	l	n/a
407.0085	0.09	814017	keystroke_e	e	n/a
407.1285	0.09	814257	keystroke_Key.space	Key.space	n/a
407.3985	0.09	814797	keystroke_e	e	n/a
407.6235	0.105	815247	keystroke_x	x	n/a
407.848	0.09	815696	keystroke_t	t	n/a
408.058	0.106	816116	keystroke_e	e	n/a
408.178	0.105	816356	keystroke_r	r	n/a
408.374	0.134	816748	keystroke_i	i	n/a
408.539	0.1345	817078	keystroke_o	o	n/a
408.748	0.09	817496	keystroke_r	r	n/a
408.898	0.105	817796	keystroke_Key.space	Key.space	n/a
409.408	0.06	818816	keystroke_v	v	n/a
409.483	0.105	818966	keystroke_o	o	n/a
409.603	0.09	819206	keystroke_t	t	n/a
409.708	0.09	819416	keystroke_e	e	n/a
409.8435	0.09	819687	keystroke_d	d	n/a
409.9335	0.12	819867	keystroke_Key.space	Key.space	n/a
410.788	0.12	821576	keystroke_l	l	n/a
410.893	0.105	821786	keystroke_i	i	n/a
411.073	0.12	822146	keystroke_a	a	n/a
411.223	0.075	822446	keystroke_b	b	n/a
411.493	0.03	822986	keystroke_l	l	n/a
411.988	0.12	823976	keystroke_e	e	n/a
412.303	0.18	824606	keystroke_Key.enter	Key.enter	n/a
412.4925	6.3375	824985	prompt	n/a	charitable forced item sept\n
413.203	0.1205	826406	keystroke_c	c	n/a
413.398	0.09	826796	keystroke_h	h	n/a
413.503	0.09	827006	keystroke_a	a	n/a
413.698	0.045	827396	keystroke_r	r	n/a
413.788	0.105	827576	keystroke_i	i	n/a
413.908	0.12	827816	keystroke_t	t	n/a
414.148	0.105	828296	keystroke_a	a	n/a
414.268	0.075	828536	keystroke_b	b	n/a
414.448	0.091	828896	keystroke_l	l	n/a
414.568	0.075	829136	keystroke_e	e	n/a
414.703	0.09	829406	keystroke_Key.space	Key.space	n/a
415.093	0.075	830186	keystroke_f	f	n/a
415.213	0.09	830426	keystroke_o	o	n/a
415.304	0.059	830608	keystroke_r	r	n/a
415.708	0.09	831416	keystroke_c	c	n/a
415.918	0.105	831836	keystroke_e	e	n/a
416.038	0.09	832076	keystroke_d	d	n/a
416.203	0.105	832406	keystroke_Key.space	Key.space	n/a
416.698	0.105	833396	keystroke_i	i	n/a
416.773	0.09	833546	keystroke_t	t	n/a
416.923	0.105	833846	keystroke_e	e	n/a
417.043	0.0605	834086	keystroke_m	m	n/a
417.1935	0.105	834387	keystroke_Key.space	Key.space	n/a
417.2835	0.09	834567	keystroke_s	s	n/a
417.4485	0.105	834897	keystroke_e	e	n/a
417.9735	0.075	835947	keystroke_p	p	n/a
418.1385	0.105	836277	keystroke_t	t	n/a
418.603	0.2255	837206	keystroke_Key.enter	Key.enter	n/a
418.834	6.678	837668	prompt	n/a	period singing lightning damage\n
419.9085	0.09	839817	keystroke_p	p	n/a
419.9385	0.09	839877	keystroke_e	e	n/a
420.1485	0.105	840297	keystroke_r	r	n/a
420.2385	0.1345	840477	keystroke_i	i	n/a
420.328	0.09	840656	keystroke_o	o	n/a
420.508	0.09	841016	keystroke_d	d	n/a
420.673	0.105	841346	keystroke_Key.space	Key.space	n/a
421.123	0.12	842246	keystroke_s	s	n/a
421.228	0.135	842456	keystroke_i	i	n/a
421.333	0.105	842666	keystroke_n	n	n/a
421.423	0.12	842846	keystroke_g	g	n/a
421.528	0.1195	843056	keystroke_i	i	n/a
421.6625	0.12	843325	keystroke_n	n	n/a
421.7985	0.104	843597	keystroke_g	g	n/a
421.9475	0.105	843895	keystroke_Key.space	Key.space	n/a
422.2635	0.149	844527	keystroke_l	l	n/a
422.5025	0.105	845005	keystroke_i	i	n/a
422.6825	0.105	845365	keystroke_g	g	n/a
422.8185	0.12	845637	keystroke_h	h	n/a
422.9675	0.12	845935	keystroke_t	t	n/a
423.1025	0.135	846205	keystroke_n	n	n/a
423.2535	0.135	846507	keystroke_i	i	n/a
423.3575	0.136	846715	keystroke_n	n	n/a
423.5385	0.105	847077	keystroke_g	g	n/a
423.6735	0.104	847347	keystroke_Key.space	Key.space	n/a
424.0035	0.09	848007	keystroke_d	d	n/a
424.2875	0.15	848575	keystroke_a	a	n/a
424.4975	0.1055	848995	keystroke_m	m	n/a
424.633	0.1355	849266	keystroke_a	a	n/a
424.8435	0.075	849687	keystroke_g	g	n/a
424.9635	0.09	849927	keystroke_e	e	n/a
425.3085	0.195	850617	keystroke_Key.enter	Key.enter	n/a
425.5165	4.7735	851033	prompt	n/a	comparison welcome painted dirt\n
426.1485	0.075	852297	keystroke_c	c	n/a
426.2685	0.075	852537	keystroke_o	o	n/a
426.3885	0.105	852777	keystroke_m	m	n/a
426.5835	0.105	853167	keystroke_p	p	n/a
426.6285	0.09	853257	keystroke_a	a	n/a
426.7935	0.09	853587	keystroke_r	r	n/a
426.9135	0.105	853827	keystroke_i	i	n/a
427.0635	0.09	854127	keystroke_s	s	n/a
427.1835	0.075	854367	keystroke_o	o	n/a
427.3485	0.09	854697	keystroke_n	n	n/a
427.5285	0.09	855057	keystroke_Key.space	Key.space	n/a
427.6335	0.12	855267	keystroke_w	w	n/a
427.6935	0.12	855387	keystroke_e	e	n/a
427.7835	0.105	855567	keystroke_l	l	n/a
427.9485	0.105	855897	keystroke_c	c	n/a
428.0385	0.105	856077	keystroke_o	o	n/a
428.1285	0.135	856257	keystroke_m	m	n/a
428.2785	0.09	856557	keystroke_e	e	n/a
428.4135	0.12	856827	keystroke_Key.space	Key.space	n/a
428.728	0.135	857456	keystroke_p	p	n/a
428.893	0.09	857786	keystroke_a	a	n/a
429.103	0.105	858206	keystroke_i	i	n/a
429.163	0.135	858326	keystroke_n	n	n/a
429.283	0.075	858566	keystroke_t	t	n/a
429.373	0.105	858746	keystroke_e	e	n/a
429.493	0.075	858986	keystroke_d	d	n/a
429.583	0.076	859166	keystroke_Key.space	Key.space	n/a
429.703	0.06	859406	keystroke_d	d	n/a
429.8085	0.075	859617	keystroke_i	i	n/a
429.8985	0.06	859797	keystroke_r	r	n/a
430.0635	0.09	860127	keystroke_t	t	n/a
430.1385	0.15	860277	keystroke_Key.enter	Key.enter	n/a
430.2945	5.5905	860589	prompt	n/a	rivers tradition stability mall\n
431.1735	0.06	862347	keystroke_r	r	n/a
431.2935	0.12	862587	keystroke_i	i	n/a
431.3835	0.075	862767	keystroke_v	v	n/a
431.5635	0.09	863127	keystroke_e	e	n/a
431.6235	0.12	863247	keystroke_r	r	n/a
431.7885	0.09	863577	keystroke_s	s	n/a
431.8935	0.105	863787	keystroke_Key.space	Key.space	n/a
432.0885	0.09	864177	keystroke_t	t	n/a
432.3135	0.105	864627	keystroke_r	r	n/a
432.4785	0.105	864957	keystroke_a	a	n/a
432.7035	0.0895	865407	keystroke_d	d	n/a
432.838	0.045	865676	keystroke_i	i	n/a
432.928	0.09	865856	keystroke_t	t	n/a
433.003	0.12	866006	keystroke_i	i	n/a
433.078	0.105	866156	keystroke_o	o	n/a
433.288	0.06	866576	keystroke_n	n	n/a
433.453	0.105	866906	keystroke_Key.space	Key.space	n/a
433.618	0.105	867236	keystroke_s	s	n/a
433.813	0.09	867626	keystroke_t	t	n/a
433.978	0.105	867956	keystroke_a	a	n/a
434.1135	0.0745	868227	keystroke_b	b	n/a
434.2785	0.105	868557	keystroke_i	i	n/a
434.488	0.1055	868976	keystroke_l	l	n/a
434.5485	0.1495	869097	keystroke_i	i	n/a
434.713	0.105	869426	keystroke_t	t	n/a
434.879	0.089	869758	keystroke_y	y	n/a
435.088	0.076	870176	keystroke_Key.space	Key.space	n/a
435.254	0.075	870508	keystroke_m	m	n/a
435.344	0.09	870688	keystroke_a	a	n/a
435.464	0.06	870928	keystroke_l	l	n/a
435.599	0.074	871198	keystroke_l	l	n/a
435.764	0.119	871528	keystroke_Key.enter	Key.enter	n/a
435.888	8.2095	871776	prompt	n/a	inserted experience product agreed\n
436.5285	0.075	873057	keystroke_i	i	n/a
436.6185	0.105	873237	keystroke_n	n	n/a
436.7245	0.104	873449	keystroke_s	s	n/a
437.4885	0.09	874977	keystroke_e	e	n/a
437.6235	0.09	875247	keystroke_t	t	n/a
438.0885	0.105	876177	keystroke_Key.backspace	Key.backspace	n/a
438.3135	0.09	876627	keystroke_r	r	n/a
438.5235	0.12	877047	keystroke_t	t	n/a
438.6585	0.12	877317	keystroke_e	e	n/a
438.8085	0.105	877617	keystroke_d	d	n/a
438.9285	0.105	877857	keystroke_Key.space	Key.space	n/a
439.0785	0.09	878157	keystroke_e	e	n/a
439.3035	0.075	878607	keystroke_x	x	n/a
439.4085	0.135	878817	keystroke_p	p	n/a
439.5135	0.09	879027	keystroke_e	e	n/a
439.7085	0.075	879417	keystroke_r	r	n/a
439.8285	0.09	879657	keystroke_i	i	n/a
439.9335	0.075	879867	keystroke_e	e	n/a
440.0685	0.09	880137	keystroke_n	n	n/a
440.1735	0.06	880347	keystroke_c	c	n/a
440.2485	0.09	880497	keystroke_e	e	n/a
440.3535	0.09	880707	keystroke_Key.space	Key.space	n/a
440.6235	0.105	881247	keystroke_p	p	n/a
441.0585	0.075	882117	keystroke_r	r	n/a
441.2385	0.105	882477	keystroke_o	o	n/a
441.3735	0.105	882747	keystroke_d	d	n/a
441.5235	0.075	883047	keystroke_u	u	n/a
441.5985	0.075	883197	keystroke_c	c	n/a
441.8235	0.09	883647	keystroke_t	t	n/a
441.9285	0.105	883857	keystroke_Key.space	Key.space	n/a
442.589	0.104	885178	keystroke_a	a	n/a
442.783	0.0905	885566	keystroke_g	g	n/a
442.888	0.09	885776	keystroke_r	r	n/a
443.263	0.0755	886526	keystroke_e	e	n/a
443.4435	0.105	886887	keystroke_e	e	n/a
443.8335	0.06	887667	keystroke_d	d	n/a
443.9385	0.15	887877	keystroke_Key.enter	Key.enter	n/a
444.1015	6.5885	888203	prompt	n/a	troy affiliated electronic stars\n
444.839	0.105	889678	keystroke_t	t	n/a
445.034	0.09	890068	keystroke_r	r	n/a
445.229	0.105	890458	keystroke_o	o	n/a
445.424	0.06	890848	keystroke_y	y	n/a
445.618	0.091	891236	keystroke_Key.space	Key.space	n/a
445.784	0.075	891568	keystroke_a	a	n/a
446.069	0.105	892138	keystroke_f	f	n/a
446.5785	0.09	893157	keystroke_f	f	n/a
446.7285	0.12	893457	keystroke_i	i	n/a
446.9235	0.18	893847	keystroke_l	l	n/a
447.1185	0.105	894237	keystroke_i	i	n/a
447.6585	0.105	895317	keystroke_a	a	n/a
447.8985	0.105	895797	keystroke_t	t	n/a
448.0045	0.074	896009	keystroke_e	e	n/a
448.1535	0.06	896307	keystroke_d	d	n/a
448.2145	0.104	896429	keystroke_Key.space	Key.space	n/a
448.3785	0.105	896757	keystroke_e	e	n/a
448.5135	0.1055	897027	keystroke_l	l	n/a
448.634	0.105	897268	keystroke_e	e	n/a
448.829	0.0595	897658	keystroke_c	c	n/a
448.9935	0.09	897987	keystroke_t	t	n/a
449.1435	0.09	898287	keystroke_r	r	n/a
449.2035	0.09	898407	keystroke_o	o	n/a
449.3835	0.09	898767	keystroke_n	n	n/a
449.5785	0.09	899157	keystroke_Key.space	Key.space	n/a
449.6985	0.09	899397	keystroke_s	s	n/a
449.8485	0.075	899697	keystroke_t	t	n/a
450.0285	0.06	900057	keystroke_a	a	n/a
450.1635	0.09	900327	keystroke_r	r	n/a
450.3285	0.105	900657	keystroke_s	s	n/a
450.5085	0.18	901017	keystroke_Key.enter	Key.enter	n/a
450.6935	8.509	901387	prompt	n/a	love responses telling britain\n
451.4985	0.0745	902997	keystroke_l	l	n/a
451.678	0.12	903356	keystroke_o	o	n/a
451.813	0.076	903626	keystroke_v	v	n/a
451.978	0.12	903956	keystroke_e	e	n/a
452.128	0.105	904256	keystroke_Key.space	Key.space	n/a
452.518	0.091	905036	keystroke_t	t	n/a
452.7435	0.18	905487	keystroke_e	e	n/a
452.7585	0.18	905517	keystroke_r	r	n/a
453.2085	0.045	906417	keystroke_Key.backspace	Key.backspace	n/a
453.3585	0.09	906717	keystroke_Key.backspace	Key.backspace	n/a
453.8385	0.045	907677	keystroke_Key.backspace	Key.backspace	n/a
453.928	0.1655	907856	keystroke_r	r	n/a
454.0185	0.12	908037	keystroke_e	e	n/a
454.319	0.12	908638	keystroke_s	s	n/a
454.454	0.135	908908	keystroke_p	p	n/a
454.544	0.075	909088	keystroke_o	o	n/a
454.753	0.105	909506	keystroke_n	n	n/a
454.828	0.12	909656	keystroke_s	s	n/a
454.978	0.075	909956	keystroke_e	e	n/a
455.293	0.12	910586	keystroke_s	s	n/a
455.548	0.1055	911096	keystroke_Key.space	Key.space	n/a
455.9085	0.09	911817	keystroke_t	t	n/a
456.1035	0.0895	912207	keystroke_e	e	n/a
456.178	0.045	912356	keystroke_l	l	n/a
456.313	0.075	912626	keystroke_l	l	n/a
456.508	0.1355	913016	keystroke_i	i	n/a
456.6435	0.1345	913287	keystroke_n	n	n/a
456.763	0.09	913526	keystroke_g	g	n/a
456.913	0.105	913826	keystroke_Key.space	Key.space	n/a
457.1535	0.1055	914307	keystroke_b	b	n/a
457.9785	0.135	915957	keystroke_r	r	n/a
458.1885	0.135	916377	keystroke_i	i	n/a
458.3685	0.0905	916737	keystroke_t	t	n/a
458.594	0.105	917188	keystroke_a	a	n/a
458.714	0.105	917428	keystroke_i	i	n/a
458.803	0.12	917606	keystroke_n	n	n/a
459.028	0.165	918056	keystroke_Key.enter	Key.enter	n/a
459.207	5.3135	918414	prompt	n/a	allow winds produced infections\n
459.8835	0.105	919767	keystroke_a	a	n/a
459.9735	0.0605	919947	keystroke_l	l	n/a
460.109	0.0745	920218	keystroke_l	l	n/a
460.2585	0.075	920517	keystroke_o	o	n/a
460.349	0.1045	920698	keystroke_w	w	n/a
460.4685	0.105	920937	keystroke_Key.space	Key.space	n/a
460.6185	0.1055	921237	keystroke_w	w	n/a
460.664	0.0895	921328	keystroke_i	i	n/a
460.7385	0.105	921477	keystroke_n	n	n/a
460.874	0.1495	921748	keystroke_d	d	n/a
460.9785	0.1205	921957	keystroke_s	s	n/a
461.1135	0.1055	922227	keystroke_Key.space	Key.space	n/a
461.924	0.09	923848	keystroke_p	p	n/a
462.0435	0.1055	924087	keystroke_r	r	n/a
462.2385	0.09	924477	keystroke_o	o	n/a
462.344	0.105	924688	keystroke_d	d	n/a
462.5085	0.105	925017	keystroke_u	u	n/a
462.6285	0.09	925257	keystroke_c	c	n/a
462.7785	0.105	925557	keystroke_e	e	n/a
462.8985	0.09	925797	keystroke_d	d	n/a
462.9585	0.12	925917	keystroke_Key.space	Key.space	n/a
463.1685	0.105	926337	keystroke_i	i	n/a
463.3185	0.135	926637	keystroke_n	n	n/a
463.4685	0.1505	926937	keystroke_f	f	n/a
463.574	0.105	927148	keystroke_e	e	n/a
463.754	0.06	927508	keystroke_c	c	n/a
463.934	0.09	927868	keystroke_t	t	n/a
463.979	0.105	927958	keystroke_i	i	n/a
464.039	0.075	928078	keystroke_o	o	n/a
464.204	0.09	928408	keystroke_n	n	n/a
464.354	0.105	928708	keystroke_s	s	n/a
464.414	0.105	928828	keystroke_Key.enter	Key.enter	n/a
464.524	28.819	929048	prompt	n/a	owen monte notion please\n
484.381	0.028	968762	keystroke_o	o	n/a
484.469	0.105	968938	keystroke_w	w	n/a
484.589	0.075	969178	keystroke_n	n	n/a
484.7985	0.075	969597	keystroke_Key.space	Key.space	n/a
485.0095	0.089	970019	keystroke_m	m	n/a
486.0145	0.06	972029	keystroke_Key.backspace	Key.backspace	n/a
486.1935	0.061	972387	keystroke_Key.backspace	Key.backspace	n/a
486.3745	0.074	972749	keystroke_Key.backspace	Key.backspace	n/a
486.6445	0.105	973289	keystroke_e	e	n/a
486.7945	0.09	973589	keystroke_b	b	n/a
487.604	0.15	975208	keystroke_Key.backspace	Key.backspace	n/a
488.6395	0.059	977279	keystroke_b	b	n/a
488.9535	0.091	977907	keystroke_Key.backspace	Key.backspace	n/a
489.1945	0.059	978389	keystroke_n	n	n/a
489.3735	0.06	978747	keystroke_Key.space	Key.space	n/a
489.5095	0.104	979019	keystroke_m	m	n/a
489.5985	0.06	979197	keystroke_o	o	n/a
489.7495	0.075	979499	keystroke_n	n	n/a
489.8245	0.105	979649	keystroke_t	t	n/a
489.9595	0.1195	979919	keystroke_e	e	n/a
490.094	0.09	980188	keystroke_Key.space	Key.space	n/a
491.354	0.075	982708	keystroke_n	n	n/a
491.654	0.135	983308	keystroke_o	o	n/a
491.834	0.105	983668	keystroke_t	t	n/a
491.924	0.135	983848	keystroke_i	i	n/a
492.014	0.105	984028	keystroke_o	o	n/a
492.194	0.06	984388	keystroke_n	n	n/a
492.344	0.09	984688	keystroke_Key.space	Key.space	n/a
492.524	0.135	985048	keystroke_p	p	n/a
492.584	0.12	985168	keystroke_l	l	n/a
492.674	0.075	985348	keystroke_e	e	n/a
492.764	0.18	985528	keystroke_a	a	n/a
492.869	0.15	985738	keystroke_s	s	n/a
493.094	0.12	986188	keystroke_e	e	n/a
493.215	0.119	986430	keystroke_Key.enter	Key.enter	n/a
493.3475	7.06	986695	prompt	n/a	life could tractor scientist\n
494.099	0.12	988198	keystroke_l	l	n/a
494.234	0.075	988468	keystroke_i	i	n/a
494.294	0.12	988588	keystroke_f	f	n/a
494.399	0.105	988798	keystroke_e	e	n/a
494.519	0.075	989038	keystroke_Key.space	Key.space	n/a
494.639	0.0905	989278	keystroke_c	c	n/a
494.7295	0.105	989459	keystroke_o	o	n/a
494.7895	0.105	989579	keystroke_u	u	n/a
494.9545	0.1045	989909	keystroke_l	l	n/a
495.059	0.09	990118	keystroke_d	d	n/a
495.179	0.105	990358	keystroke_Key.space	Key.space	n/a
495.434	0.06	990868	keystroke_t	t	n/a
495.614	0.075	991228	keystroke_r	r	n/a
495.764	0.09	991528	keystroke_a	a	n/a
495.959	0.075	991918	keystroke_c	c	n/a
496.154	0.105	992308	keystroke_t	t	n/a
496.304	0.09	992608	keystroke_o	o	n/a
496.409	0.09	992818	keystroke_r	r	n/a
496.5895	0.105	993179	keystroke_Key.space	Key.space	n/a
496.8145	0.09	993629	keystroke_s	s	n/a
497.0095	0.09	994019	keystroke_c	c	n/a
497.1595	0.105	994319	keystroke_i	i	n/a
497.2795	0.0895	994559	keystroke_e	e	n/a
497.399	0.1055	994798	keystroke_n	n	n/a
497.4895	0.09	994979	keystroke_t	t	n/a
497.6245	0.09	995249	keystroke_i	i	n/a
497.6995	0.1045	995399	keystroke_t	t	n/a
497.864	0.075	995728	keystroke_s	s	n/a
498.059	0.105	996118	keystroke_t	t	n/a
498.689	0.0755	997378	keystroke_Key.backspace	Key.backspace	n/a
498.8845	0.075	997769	keystroke_Key.backspace	Key.backspace	n/a
499.0495	0.09	998099	keystroke_Key.backspace	Key.backspace	n/a
499.2745	0.0445	998549	keystroke_Key.backspace	Key.backspace	n/a
499.979	0.09	999958	keystroke_i	i	n/a
500.024	0.09	1000048	keystroke_s	s	n/a
500.189	0.075	1000378	keystroke_t	t	n/a
500.279	0.12	1000558	keystroke_Key.enter	Key.enter	n/a
500.412	8.2765	1000824	prompt	n/a	blogger directly enabling driving\n
501.314	0.06	1002628	keystroke_b	b	n/a
501.524	0.15	1003048	keystroke_l	l	n/a
501.659	0.12	1003318	keystroke_i	i	n/a
502.1095	0.044	1004219	keystroke_g	g	n/a
502.2595	0.09	1004519	keystroke_g	g	n/a
502.6045	0.075	1005209	keystroke_Key.backspace	Key.backspace	n/a
502.7985	0.045	1005597	keystroke_Key.backspace	Key.backspace	n/a
502.9485	0.105	1005897	keystroke_Key.backspace	Key.backspace	n/a
503.6085	0.06	1007217	keystroke_o	o	n/a
503.8785	0.03	1007757	keystroke_g	g	n/a
504.0135	0.09	1008027	keystroke_g	g	n/a
504.0885	0.06	1008177	keystroke_e	e	n/a
504.2685	0.09	1008537	keystroke_r	r	n/a
504.3595	0.089	1008719	keystroke_Key.space	Key.space	n/a
504.944	0.075	1009888	keystroke_d	d	n/a
505.064	0.09	1010128	keystroke_i	i	n/a
505.139	0.135	1010278	keystroke_r	r	n/a
505.229	0.105	1010458	keystroke_e	e	n/a
505.394	0.09	1010788	keystroke_c	c	n/a
505.589	0.105	1011178	keystroke_t	t	n/a
505.649	0.09	1011298	keystroke_l	l	n/a
505.889	0.0745	1011778	keystroke_y	y	n/a
506.114	0.09	1012228	keystroke_Key.space	Key.space	n/a
506.204	0.1045	1012408	keystroke_e	e	n/a
506.3535	0.06	1012707	keystroke_n	n	n/a
506.4585	0.105	1012917	keystroke_a	a	n/a
506.5785	0.061	1013157	keystroke_b	b	n/a
506.7585	0.106	1013517	keystroke_l	l	n/a
506.8495	0.09	1013699	keystroke_i	i	n/a
507.0895	0.075	1014179	keystroke_n	n	n/a
507.194	0.09	1014388	keystroke_g	g	n/a
507.314	0.105	1014628	keystroke_Key.space	Key.space	n/a
507.5385	0.12	1015077	keystroke_d	d	n/a
507.8235	0.105	1015647	keystroke_r	r	n/a
507.9585	0.075	1015917	keystroke_i	i	n/a
508.0935	0.09	1016187	keystroke_v	v	n/a
508.1985	0.12	1016397	keystroke_i	i	n/a
508.2885	0.105	1016577	keystroke_n	n	n/a
508.3945	0.074	1016789	keystroke_g	g	n/a
508.5885	0.09	1017177	keystroke_Key.enter	Key.enter	n/a
508.696	8.017	1017392	prompt	n/a	bathroom user encryption housing\n
509.5785	0.075	1019157	keystroke_b	b	n/a
509.6385	0.076	1019277	keystroke_a	a	n/a
509.8345	0.075	1019669	keystroke_t	t	n/a
509.8945	0.09	1019789	keystroke_h	h	n/a
510.0145	0.09	1020029	keystroke_r	r	n/a
510.1195	0.06	1020239	keystroke_o	o	n/a
510.269	0.06	1020538	keystroke_o	o	n/a
510.614	0.0595	1021228	keystroke_m	m	n/a
510.809	0.09	1021618	keystroke_Key.space	Key.space	n/a
511.0485	0.0305	1022097	keystroke_u	u	n/a
511.064	0.075	1022128	keystroke_s	s	n/a
511.1835	0.1055	1022367	keystroke_e	e	n/a
511.349	0.12	1022698	keystroke_Key.space	Key.space	n/a
511.844	0.075	1023688	keystroke_Key.backspace	Key.backspace	n/a
511.9935	0.0905	1023987	keystroke_r	r	n/a
512.1885	0.0905	1024377	keystroke_Key.space	Key.space	n/a
512.9235	0.075	1025847	keystroke_e	e	n/a
513.0435	0.106	1026087	keystroke_n	n	n/a
513.1635	0.105	1026327	keystroke_c	c	n/a
513.6135	0.09	1027227	keystroke_r	r	n/a
513.734	0.0755	1027468	keystroke_y	y	n/a
513.929	0.09	1027858	keystroke_p	p	n/a
514.109	0.09	1028218	keystroke_t	t	n/a
514.1845	0.1645	1028369	keystroke_i	i	n/a
514.289	0.12	1028578	keystroke_o	o	n/a
514.574	0.06	1029148	keystroke_n	n	n/a
514.8895	0.135	1029779	keystroke_Key.space	Key.space	n/a
515.5795	0.06	1031159	keystroke_h	h	n/a
515.7595	0.075	1031519	keystroke_o	o	n/a
515.8195	0.135	1031639	keystroke_u	u	n/a
515.9845	0.105	1031969	keystroke_s	s	n/a
516.0595	0.075	1032119	keystroke_i	i	n/a
516.1945	0.105	1032389	keystroke_n	n	n/a
516.3295	0.0895	1032659	keystroke_g	g	n/a
516.524	0.18	1033048	keystroke_Key.enter	Key.enter	n/a
516.718	7.345	1033436	prompt	n/a	officer operations endorsement tablets\n
517.7095	0.12	1035419	keystroke_o	o	n/a
517.8145	0.075	1035629	keystroke_f	f	n/a
517.9945	0.075	1035989	keystroke_f	f	n/a
518.1295	0.105	1036259	keystroke_i	i	n/a
518.1895	0.045	1036379	keystroke_v	v	n/a
518.5185	0.091	1037037	keystroke_Key.backspace	Key.backspace	n/a
518.6245	0.105	1037249	keystroke_c	c	n/a
518.7585	0.121	1037517	keystroke_e	e	n/a
518.9535	0.106	1037907	keystroke_r	r	n/a
519.1185	0.106	1038237	keystroke_Key.space	Key.space	n/a
519.4485	0.076	1038897	keystroke_o	o	n/a
519.6745	0.0895	1039349	keystroke_p	p	n/a
519.734	0.075	1039468	keystroke_e	e	n/a
519.884	0.09	1039768	keystroke_r	r	n/a
520.034	0.075	1040068	keystroke_a	a	n/a
520.244	0.09	1040488	keystroke_t	t	n/a
520.304	0.12	1040608	keystroke_i	i	n/a
520.379	0.09	1040758	keystroke_o	o	n/a
520.574	0.09	1041148	keystroke_n	n	n/a
520.649	0.0905	1041298	keystroke_s	s	n/a
520.7985	0.105	1041597	keystroke_Key.space	Key.space	n/a
521.0245	0.0895	1042049	keystroke_e	e	n/a
521.249	0.12	1042498	keystroke_n	n	n/a
521.384	0.09	1042768	keystroke_d	d	n/a
521.624	0.03	1043248	keystroke_o	o	n/a
521.639	0.06	1043278	keystroke_r	r	n/a
521.879	0.015	1043758	keystroke_s	s	n/a
521.909	0.06	1043818	keystroke_e	e	n/a
522.014	0.105	1044028	keystroke_m	m	n/a
522.104	0.09	1044208	keystroke_e	e	n/a
522.254	0.075	1044508	keystroke_n	n	n/a
522.374	0.0895	1044748	keystroke_t	t	n/a
522.5985	0.105	1045197	keystroke_Key.space	Key.space	n/a
522.8985	0.075	1045797	keystroke_t	t	n/a
523.0935	0.105	1046187	keystroke_a	a	n/a
523.1835	0.091	1046367	keystroke_b	b	n/a
523.3785	0.105	1046757	keystroke_l	l	n/a
523.4385	0.06	1046877	keystroke_e	e	n/a
523.6035	0.075	1047207	keystroke_t	t	n/a
523.7235	0.1205	1047447	keystroke_s	s	n/a
523.859	0.195	1047718	keystroke_Key.enter	Key.enter	n/a
524.069	8.5595	1048138	prompt	n/a	kuwait montana infection acknowledge\n
525.464	0.09	1050928	keystroke_k	k	n/a
525.689	0.0905	1051378	keystroke_u	u	n/a
525.8095	0.06	1051619	keystroke_w	w	n/a
525.9895	0.09	1051979	keystroke_a	a	n/a
526.1395	0.09	1052279	keystroke_i	i	n/a
526.2445	0.105	1052489	keystroke_t	t	n/a
526.3945	0.09	1052789	keystroke_Key.space	Key.space	n/a
526.574	0.105	1053148	keystroke_m	m	n/a
526.649	0.09	1053298	keystroke_o	o	n/a
526.8585	0.105	1053717	keystroke_n	n	n/a
527.0235	0.105	1054047	keystroke_t	t	n/a
527.249	0.09	1054498	keystroke_a	a	n/a
527.504	0.12	1055008	keystroke_n	n	n/a
527.729	0.135	1055458	keystroke_a	a	n/a
527.849	0.105	1055698	keystroke_Key.space	Key.space	n/a
528.104	0.135	1056208	keystroke_i	i	n/a
528.194	0.12	1056388	keystroke_n	n	n/a
528.344	0.12	1056688	keystroke_f	f	n/a
528.449	0.12	1056898	keystroke_e	e	n/a
528.629	0.09	1057258	keystroke_c	c	n/a
528.8395	0.104	1057679	keystroke_t	t	n/a
528.8685	0.12	1057737	keystroke_i	i	n/a
528.9585	0.075	1057917	keystroke_o	o	n/a
529.169	0.09	1058338	keystroke_n	n	n/a
529.394	0.105	1058788	keystroke_Key.space	Key.space	n/a
530.4435	0.09	1060887	keystroke_a	a	n/a
530.729	0.09	1061458	keystroke_c	c	n/a
530.864	0.105	1061728	keystroke_k	k	n/a
531.014	0.105	1062028	keystroke_n	n	n/a
531.1635	0.09	1062327	keystroke_o	o	n/a
531.2085	0.121	1062417	keystroke_w	w	n/a
531.4035	0.09	1062807	keystroke_l	l	n/a
531.5385	0.106	1063077	keystroke_e	e	n/a
531.7635	0.075	1063527	keystroke_d	d	n/a
531.8685	0.075	1063737	keystroke_g	g	n/a
531.9885	0.09	1063977	keystroke_e	e	n/a
532.1235	0.09	1064247	keystroke_Key.space	Key.space	n/a
532.3935	0.225	1064787	keystroke_Key.enter	Key.enter	n/a
532.633	6.3625	1065266	prompt	n/a	minimize protocols damage mercury\n
533.3095	0.1195	1066619	keystroke_m	m	n/a
533.414	0.135	1066828	keystroke_i	i	n/a
533.594	0.105	1067188	keystroke_n	n	n/a
533.714	0.165	1067428	keystroke_i	i	n/a
533.834	0.135	1067668	keystroke_m	m	n/a
533.984	0.12	1067968	keystroke_i	i	n/a
534.074	0.09	1068148	keystroke_z	z	n/a
534.239	0.09	1068478	keystroke_e	e	n/a
534.3735	0.105	1068747	keystroke_Key.space	Key.space	n/a
534.7645	0.135	1069529	keystroke_p	p	n/a
534.9745	0.089	1069949	keystroke_r	r	n/a
535.0795	0.1045	1070159	keystroke_o	o	n/a
535.214	0.09	1070428	keystroke_t	t	n/a
535.349	0.09	1070698	keystroke_o	o	n/a
535.514	0.105	1071028	keystroke_c	c	n/a
535.844	0.075	1071688	keystroke_o	o	n/a
536.024	0.075	1072048	keystroke_l	l	n/a
536.114	0.09	1072228	keystroke_s	s	n/a
536.249	0.12	1072498	keystroke_Key.space	Key.space	n/a
536.354	0.09	1072708	keystroke_d	d	n/a
536.504	0.09	1073008	keystroke_a	a	n/a
536.6095	0.0895	1073219	keystroke_m	m	n/a
536.744	0.105	1073488	keystroke_a	a	n/a
537.029	0.06	1074058	keystroke_g	g	n/a
537.119	0.0905	1074238	keystroke_e	e	n/a
537.2395	0.105	1074479	keystroke_Key.space	Key.space	n/a
537.4945	0.09	1074989	keystroke_m	m	n/a
537.6295	0.09	1075259	keystroke_e	e	n/a
537.8545	0.09	1075709	keystroke_r	r	n/a
538.0795	0.105	1076159	keystroke_c	c	n/a
538.2895	0.075	1076579	keystroke_u	u	n/a
538.4395	0.105	1076879	keystroke_r	r	n/a
538.6195	0.09	1077239	keystroke_y	y	n/a
538.9495	0.045	1077899	keystroke_Key.enter	Key.enter	n/a
538.998	6.793	1077996	prompt	n/a	anaheim fears atmospheric beach\n
539.9395	0.09	1079879	keystroke_a	a	n/a
540.1495	0.1045	1080299	keystroke_n	n	n/a
540.314	0.12	1080628	keystroke_a	a	n/a
540.704	0.1045	1081408	keystroke_h	h	n/a
540.8095	0.089	1081619	keystroke_e	e	n/a
541.0035	0.15	1082007	keystroke_i	i	n/a
541.1685	0.106	1082337	keystroke_m	m	n/a
541.4245	0.105	1082849	keystroke_Key.space	Key.space	n/a
541.8295	0.075	1083659	keystroke_f	f	n/a
541.9495	0.09	1083899	keystroke_e	e	n/a
542.1595	0.09	1084319	keystroke_a	a	n/a
542.3395	0.135	1084679	keystroke_r	r	n/a
542.4295	0.105	1084859	keystroke_s	s	n/a
542.6695	0.0895	1085339	keystroke_Key.space	Key.space	n/a
542.819	0.09	1085638	keystroke_a	a	n/a
543.044	0.105	1086088	keystroke_t	t	n/a
543.179	0.105	1086358	keystroke_m	m	n/a
543.404	0.105	1086808	keystroke_o	o	n/a
543.539	0.12	1087078	keystroke_s	s	n/a
543.689	0.09	1087378	keystroke_p	p	n/a
543.914	0.09	1087828	keystroke_h	h	n/a
543.989	0.09	1087978	keystroke_e	e	n/a
544.049	0.105	1088098	keystroke_r	r	n/a
544.169	0.075	1088338	keystroke_i	i	n/a
544.304	0.09	1088608	keystroke_c	c	n/a
544.439	0.09	1088878	keystroke_Key.space	Key.space	n/a
544.859	0.09	1089718	keystroke_b	b	n/a
544.904	0.105	1089808	keystroke_e	e	n/a
544.964	0.105	1089928	keystroke_a	a	n/a
545.189	0.075	1090378	keystroke_c	c	n/a
545.279	0.075	1090558	keystroke_h	h	n/a
545.549	0.24	1091098	keystroke_Key.enter	Key.enter	n/a
545.7945	7.8485	1091589	prompt	n/a	tips society coffee discussed\n
546.5085	0.09	1093017	keystroke_t	t	n/a
546.6135	0.105	1093227	keystroke_i	i	n/a
546.764	0.135	1093528	keystroke_p	p	n/a
547.019	0.105	1094038	keystroke_s	s	n/a
547.184	0.12	1094368	keystroke_Key.space	Key.space	n/a
547.619	0.135	1095238	keystroke_s	s	n/a
547.754	0.1355	1095508	keystroke_o	o	n/a
547.9045	0.09	1095809	keystroke_c	c	n/a
548.0245	0.09	1096049	keystroke_i	i	n/a
548.0695	0.105	1096139	keystroke_e	e	n/a
548.2495	0.09	1096499	keystroke_t	t	n/a
548.384	0.075	1096768	keystroke_y	y	n/a
548.654	0.09	1097308	keystroke_Key.space	Key.space	n/a
548.924	0.09	1097848	keystroke_c	c	n/a
549.074	0.075	1098148	keystroke_o	o	n/a
549.194	0.015	1098388	keystroke_v	v	n/a
549.8095	0.09	1099619	keystroke_Key.backspace	Key.backspace	n/a
550.3195	0.045	1100639	keystroke_f	f	n/a
550.4545	0.135	1100909	keystroke_f	f	n/a
550.5595	0.105	1101119	keystroke_e	e	n/a
550.7545	0.09	1101509	keystroke_e	e	n/a
550.8445	0.105	1101689	keystroke_Key.space	Key.space	n/a
551.0395	0.1045	1102079	keystroke_d	d	n/a
551.174	0.12	1102348	keystroke_i	i	n/a
551.295	0.074	1102590	keystroke_s	s	n/a
551.519	0.105	1103038	keystroke_c	c	n/a
552.314	0.105	1104628	keystroke_u	u	n/a
552.434	0.105	1104868	keystroke_s	s	n/a
552.719	0.1055	1105438	keystroke_s	s	n/a
552.8845	0.09	1105769	keystroke_e	e	n/a
553.1395	0.03	1106279	keystroke_d	d	n/a
553.1545	0.06	1106309	keystroke_Key.space	Key.space	n/a
553.4245	0.21	1106849	keystroke_Key.enter	Key.enter	n/a
553.6555	7.293	1107311	prompt	n/a	normally urls chicken royalty\n
554.399	0.09	1108798	keystroke_n	n	n/a
554.579	0.09	1109158	keystroke_o	o	n/a
554.684	0.1055	1109368	keystroke_r	r	n/a
554.7745	0.075	1109549	keystroke_m	m	n/a
554.8945	0.105	1109789	keystroke_a	a	n/a
554.9995	0.06	1109999	keystroke_l	l	n/a
555.1345	0.0895	1110269	keystroke_l	l	n/a
555.374	0.075	1110748	keystroke_y	y	n/a
555.599	0.09	1111198	keystroke_Key.space	Key.space	n/a
555.839	0.135	1111678	keystroke_u	u	n/a
556.829	0.105	1113658	keystroke_r	r	n/a
557.069	0.09	1114138	keystroke_l	l	n/a
557.204	0.136	1114408	keystroke_s	s	n/a
557.504	0.105	1115008	keystroke_Key.space	Key.space	n/a
557.774	0.09	1115548	keystroke_c	c	n/a
557.909	0.105	1115818	keystroke_h	h	n/a
558.029	0.12	1116058	keystroke_i	i	n/a
558.164	0.075	1116328	keystroke_c	c	n/a
558.254	0.09	1116508	keystroke_k	k	n/a
558.404	0.09	1116808	keystroke_e	e	n/a
558.479	0.06	1116958	keystroke_n	n	n/a
558.644	0.075	1117288	keystroke_Key.space	Key.space	n/a
558.7795	0.105	1117559	keystroke_r	r	n/a
558.8845	0.12	1117769	keystroke_o	o	n/a
559.2295	0.0745	1118459	keystroke_y	y	n/a
559.334	0.105	1118668	keystroke_a	a	n/a
559.424	0.12	1118848	keystroke_l	l	n/a
559.604	0.12	1119208	keystroke_t	t	n/a
559.739	0.06	1119478	keystroke_y	y	n/a
559.919	0.075	1119838	keystroke_Key.space	Key.space	n/a
560.7295	0.21	1121459	keystroke_Key.enter	Key.enter	n/a
560.9525	0.1385	1121905	prompt	n/a	now hilton exercise deeply\n
560.9545	0.1345	1121909	keystroke_Key.enter	Key.enter	n/a
561.0955	9.333	1122191	prompt	n/a	subscribe response money dressed\n
562.304	0.075	1124608	keystroke_s	s	n/a
562.559	0.075	1125118	keystroke_u	u	n/a
562.619	0.09	1125238	keystroke_s	s	n/a
563.2045	0.09	1126409	keystroke_c	c	n/a
563.3845	0.09	1126769	keystroke_r	r	n/a
563.4595	0.075	1126919	keystroke_i	i	n/a
563.6095	0.1045	1127219	keystroke_b	b	n/a
563.715	0.104	1127430	keystroke_e	e	n/a
563.879	0.1055	1127758	keystroke_Key.space	Key.space	n/a
564.7795	0.0595	1129559	keystroke_Key.backspace	Key.backspace	n/a
565.499	0.105	1130998	keystroke_Key.space	Key.space	n/a
565.589	0.195	1131178	keystroke_r	r	n/a
565.679	0.24	1131358	keystroke_e	e	n/a
566.234	0.15	1132468	keystroke_s	s	n/a
566.489	0.09	1132978	keystroke_p	p	n/a
566.714	0.075	1133428	keystroke_o	o	n/a
566.924	0.105	1133848	keystroke_n	n	n/a
567.014	0.105	1134028	keystroke_s	s	n/a
567.149	0.105	1134298	keystroke_e	e	n/a
