onset	duration	sample	value	key	prompt_text
5.562	10.6575	11124	prompt	n/a	the quick brown fox jumps over a lazy dog\n
8.0325	0.011	16065	keystroke_t	t	n/a
8.0585	0.075	16117	keystroke_h	h	n/a
8.1185	0.09	16237	keystroke_e	e	n/a
8.2985	0.091	16597	keystroke_Key.space	Key.space	n/a
8.509	0.12	17018	keystroke_q	q	n/a
8.673	0.061	17346	keystroke_u	u	n/a
8.8525	0.076	17705	keystroke_i	i	n/a
9.063	0.06	18126	keystroke_c	c	n/a
9.183	0.075	18366	keystroke_k	k	n/a
9.6465	0.1205	19293	keystroke_Key.space	Key.space	n/a
9.948	0.0745	19896	keystroke_b	b	n/a
10.0675	0.09	20135	keystroke_r	r	n/a
10.187	0.1055	20374	keystroke_o	o	n/a
10.3225	0.0745	20645	keystroke_w	w	n/a
10.442	0.075	20884	keystroke_n	n	n/a
10.5915	0.135	21183	keystroke_Key.space	Key.space	n/a
10.8625	0.075	21725	keystroke_f	f	n/a
10.997	0.075	21994	keystroke_o	o	n/a
11.147	0.0745	22294	keystroke_x	x	n/a
11.282	0.12	22564	keystroke_Key.space	Key.space	n/a
11.6575	0.0735	23315	keystroke_j	j	n/a
12.0765	0.105	24153	keystroke_u	u	n/a
12.3625	0.105	24725	keystroke_m	m	n/a
12.602	0.105	25204	keystroke_p	p	n/a
12.737	0.105	25474	keystroke_s	s	n/a
12.902	0.1345	25804	keystroke_Key.space	Key.space	n/a
13.1865	0.0895	26373	keystroke_o	o	n/a
13.2165	0.0745	26433	keystroke_v	v	n/a
13.367	0.12	26734	keystroke_e	e	n/a
13.472	0.0745	26944	keystroke_r	r	n/a
13.5915	0.105	27183	keystroke_Key.space	Key.space	n/a
13.756	0.1355	27512	keystroke_a	a	n/a
13.8765	0.1045	27753	keystroke_Key.space	Key.space	n/a
14.1755	0.06	28351	keystroke_l	l	n/a
14.312	0.1195	28624	keystroke_a	a	n/a
14.4915	0.1045	28983	keystroke_z	z	n/a
14.641	0.09	29282	keystroke_y	y	n/a
14.837	0.0745	29674	keystroke_Key.space	Key.space	n/a
14.9865	0.1195	29973	keystroke_d	d	n/a
15.136	0.075	30272	keystroke_o	o	n/a
15.271	0.0755	30542	keystroke_g	g	n/a
16.1405	0.075	32281	keystroke_Key.enter	Key.enter	n/a
16.2305	17.416	32461	prompt	n/a	clone leasing being mathematical\n
17.676	0.414	35352	keystroke_Key.ctrl_l	Key.ctrl_l	n/a
19.939	0.042	39878	keystroke_c	c	n/a
20.0565	0.06	40113	keystroke_o	o	n/a
21.4495	0.1065	42899	keystroke_Key.backspace	Key.backspace	n/a
23.221	0.0895	46442	keystroke_l	l	n/a
23.5055	0.1055	47011	keystroke_o	o	n/a
24.0455	0.0905	48091	keystroke_n	n	n/a
24.286	0.0595	48572	keystroke_e	e	n/a
24.96	0.1055	49920	keystroke_Key.space	Key.space	n/a
26.0255	0.0895	52051	keystroke_l	l	n/a
26.221	0.09	52442	keystroke_e	e	n/a
26.401	0.1645	52802	keystroke_a	a	n/a
26.5355	0.1045	53071	keystroke_s	s	n/a
26.806	0.0745	53612	keystroke_i	i	n/a
26.9255	0.075	53851	keystroke_n	n	n/a
27.0155	0.074	54031	keystroke_g	g	n/a
27.2995	0.105	54599	keystroke_Key.space	Key.space	n/a
27.8705	0.074	55741	keystroke_b	b	n/a
27.9605	0.09	55921	keystroke_e	e	n/a
28.1105	0.0595	56221	keystroke_i	i	n/a
28.186	0.089	56372	keystroke_n	n	n/a
28.276	0.059	56552	keystroke_g	g	n/a
28.44	0.1045	56880	keystroke_Key.space	Key.space	n/a
28.8755	0.075	57751	keystroke_m	m	n/a
28.9805	0.1345	57961	keystroke_a	a	n/a
30.5405	0.0745	61081	keystroke_t	t	n/a
31.335	0.0905	62670	keystroke_h	h	n/a
31.6795	0.0905	63359	keystroke_e	e	n/a
32.04	0.075	64080	keystroke_m	m	n/a
32.13	0.225	64260	keystroke_a	a	n/a
32.325	0.06	64650	keystroke_t	t	n/a
32.445	0.075	64890	keystroke_i	i	n/a
32.58	0.1355	65160	keystroke_c	c	n/a
32.67	0.12	65340	keystroke_a	a	n/a
32.865	0.075	65730	keystroke_l	l	n/a
33.57	0.0745	67140	keystroke_Key.enter	Key.enter	n/a
33.653	7.0585	67306	prompt	n/a	involved assume seed header\n
34.3505	0.075	68701	keystroke_i	i	n/a
34.485	0.075	68970	keystroke_n	n	n/a
34.62	0.09	69240	keystroke_v	v	n/a
34.7245	0.076	69449	keystroke_o	o	n/a
34.9655	0.074	69931	keystroke_l	l	n/a
35.0105	0.074	70021	keystroke_v	v	n/a
35.189	0.0755	70378	keystroke_e	e	n/a
35.3695	0.075	70739	keystroke_d	d	n/a
35.7895	0.0905	71579	keystroke_Key.space	Key.space	n/a
36.074	0.1355	72148	keystroke_a	a	n/a
36.2545	0.0745	72509	keystroke_s	s	n/a
36.419	0.091	72838	keystroke_s	s	n/a
36.599	0.091	73198	keystroke_u	u	n/a
36.855	0.075	73710	keystroke_m	m	n/a
36.974	0.06	73948	keystroke_e	e	n/a
37.724	0.12	75448	keystroke_Key.space	Key.space	n/a
38.2345	0.061	76469	keystroke_s	s	n/a
38.3995	0.0595	76799	keystroke_e	e	n/a
38.565	0.074	77130	keystroke_e	e	n/a
38.7455	0.074	77491	keystroke_d	d	n/a
38.924	0.105	77848	keystroke_Key.space	Key.space	n/a
39.284	0.076	78568	keystroke_h	h	n/a
39.419	0.075	78838	keystroke_e	e	n/a
39.569	0.1665	79138	keystroke_a	a	n/a
39.7195	0.075	79439	keystroke_d	d	n/a
39.9	0.104	79800	keystroke_e	e	n/a
39.99	0.09	79980	keystroke_r	r	n/a
40.605	0.1035	81210	keystroke_Key.enter	Key.enter	n/a
40.7185	12.0835	81437	prompt	n/a	tried marked bowl washington\n
41.76	0.059	83520	keystroke_t	t	n/a
41.85	0.075	83700	keystroke_i	i	n/a
42.899	0.075	85798	keystroke_Key.backspace	Key.backspace	n/a
43.305	0.044	86610	keystroke_r	r	n/a
43.7395	0.0755	87479	keystroke_i	i	n/a
43.859	0.061	87718	keystroke_e	e	n/a
44.025	0.075	88050	keystroke_d	d	n/a
44.22	0.119	88440	keystroke_Key.space	Key.space	n/a
44.534	0.091	89068	keystroke_m	m	n/a
44.655	0.18	89310	keystroke_a	a	n/a
44.7735	0.1215	89547	keystroke_r	r	n/a
45.39	0.075	90780	keystroke_k	k	n/a
45.54	0.075	91080	keystroke_e	e	n/a
45.72	0.0885	91440	keystroke_d	d	n/a
49.292	0.057	98584	keystroke_Key.space	Key.space	n/a
49.4995	0.075	98999	keystroke_b	b	n/a
49.6945	0.075	99389	keystroke_o	o	n/a
49.8295	0.0895	99659	keystroke_w	w	n/a
49.9945	0.09	99989	keystroke_l	l	n/a
50.444	0.12	100888	keystroke_Key.space	Key.space	n/a
50.714	0.075	101428	keystroke_w	w	n/a
50.894	0.135	101788	keystroke_a	a	n/a
50.999	0.09	101998	keystroke_s	s	n/a
51.179	0.045	102358	keystroke_h	h	n/a
51.329	0.075	102658	keystroke_i	i	n/a
51.449	0.0755	102898	keystroke_n	n	n/a
51.5845	0.0745	103169	keystroke_g	g	n/a
51.809	0.045	103618	keystroke_t	t	n/a
51.884	0.1355	103768	keystroke_o	o	n/a
52.0345	0.09	104069	keystroke_n	n	n/a
52.6795	0.1195	105359	keystroke_Key.enter	Key.enter	n/a
52.809	12.0075	105618	prompt	n/a	patent editions porcelain apparel\n
53.6245	0.1045	107249	keystroke_p	p	n/a
53.759	0.24	107518	keystroke_a	a	n/a
53.984	0.075	107968	keystroke_t	t	n/a
54.4785	0.0905	108957	keystroke_e	e	n/a
54.629	0.06	109258	keystroke_n	n	n/a
54.719	0.075	109438	keystroke_t	t	n/a
55.109	0.12	110218	keystroke_Key.space	Key.space	n/a
55.394	0.045	110788	keystroke_e	e	n/a
55.559	0.075	111118	keystroke_d	d	n/a
55.635	0.074	111270	keystroke_i	i	n/a
55.784	0.045	111568	keystroke_t	t	n/a
55.844	0.105	111688	keystroke_i	i	n/a
55.964	0.09	111928	keystroke_o	o	n/a
56.039	0.105	112078	keystroke_n	n	n/a
56.129	0.06	112258	keystroke_s	s	n/a
56.849	0.105	113698	keystroke_Key.space	Key.space	n/a
57.059	0.121	114118	keystroke_p	p	n/a
57.314	0.09	114628	keystroke_o	o	n/a
57.434	0.045	114868	keystroke_r	r	n/a
57.689	0.12	115378	keystroke_c	c	n/a
57.794	0.09	115588	keystroke_e	e	n/a
57.974	0.09	115948	keystroke_l	l	n/a
58.094	0.106	116188	keystroke_a	a	n/a
58.184	0.075	116368	keystroke_i	i	n/a
58.304	0.075	116608	keystroke_n	n	n/a
58.739	0.12	117478	keystroke_Key.space	Key.space	n/a
59.084	0.105	118168	keystroke_a	a	n/a
59.234	0.105	118468	keystroke_p	p	n/a
59.714	0.105	119428	keystroke_p	p	n/a
59.924	0.045	119848	keystroke_r	r	n/a
60.044	0.12	120088	keystroke_a	a	n/a
60.405	0.074	120810	keystroke_e	e	n/a
60.689	0.075	121378	keystroke_l	l	n/a
61.739	0.09	123478	keystroke_Key.backspace	Key.backspace	n/a
61.934	0.09	123868	keystroke_Key.backspace	Key.backspace	n/a
62.144	0.09	124288	keystroke_Key.backspace	Key.backspace	n/a
62.339	0.075	124678	keystroke_Key.backspace	Key.backspace	n/a
63.54	0.135	127080	keystroke_a	a	n/a
63.734	0.075	127468	keystroke_r	r	n/a
63.854	0.09	127708	keystroke_e	e	n/a
64.034	0.091	128068	keystroke_l	l	n/a
64.709	0.105	129418	keystroke_Key.enter	Key.enter	n/a
64.822	8.6195	129644	prompt	n/a	promotions fixes kits accordingly\n
65.5195	0.12	131039	keystroke_p	p	n/a
65.6545	0.105	131309	keystroke_r	r	n/a
65.7605	0.104	131521	keystroke_o	o	n/a
66.0295	0.09	132059	keystroke_m	m	n/a
66.2095	0.09	132419	keystroke_o	o	n/a
66.3895	0.075	132779	keystroke_t	t	n/a
66.4495	0.075	132899	keystroke_i	i	n/a
66.5395	0.12	133079	keystroke_o	o	n/a
66.6145	0.105	133229	keystroke_n	n	n/a
66.6895	0.075	133379	keystroke_s	s	n/a
67.5145	0.12	135029	keystroke_Key.space	Key.space	n/a
67.8745	0.06	135749	keystroke_f	f	n/a
68.1445	0.075	136289	keystroke_i	i	n/a
68.3095	0.09	136619	keystroke_x	x	n/a
68.5495	0.075	137099	keystroke_e	e	n/a
68.9545	0.075	137909	keystroke_s	s	n/a
69.3145	0.09	138629	keystroke_Key.space	Key.space	n/a
69.885	0.06	139770	keystroke_k	k	n/a
70.05	0.0595	140100	keystroke_i	i	n/a
70.1395	0.09	140279	keystroke_t	t	n/a
70.3345	0.12	140669	keystroke_s	s	n/a
70.5295	0.105	141059	keystroke_Key.space	Key.space	n/a
70.7545	0.135	141509	keystroke_a	a	n/a
70.9495	0.09	141899	keystroke_c	c	n/a
71.1445	0.045	142289	keystroke_c	c	n/a
71.3545	0.075	142709	keystroke_o	o	n/a
71.4445	0.075	142889	keystroke_r	r	n/a
71.6695	0.09	143339	keystroke_d	d	n/a
71.8045	0.09	143609	keystroke_i	i	n/a
72.0745	0.075	144149	keystroke_n	n	n/a
72.2095	0.06	144419	keystroke_g	g	n/a
72.4195	0.165	144839	keystroke_l	l	n/a
72.6145	0.015	145229	keystroke_y	y	n/a
73.3195	0.12	146639	keystroke_Key.enter	Key.enter	n/a
73.4465	6.8355	146893	prompt	n/a	unified poems over superb\n
74.1445	0.075	148289	keystroke_u	u	n/a
74.3845	0.09	148769	keystroke_n	n	n/a
74.5195	0.075	149039	keystroke_i	i	n/a
74.6995	0.045	149399	keystroke_f	f	n/a
74.9245	0.06	149849	keystroke_i	i	n/a
75.0145	0.06	150029	keystroke_e	e	n/a
75.1795	0.075	150359	keystroke_d	d	n/a
75.4795	0.135	150959	keystroke_Key.space	Key.space	n/a
75.7795	0.12	151559	keystroke_p	p	n/a
76.0045	0.09	152009	keystroke_o	o	n/a
76.1245	0.09	152249	keystroke_e	e	n/a
76.3345	0.09	152669	keystroke_m	m	n/a
76.6195	0.105	153239	keystroke_s	s	n/a
77.0395	0.105	154079	keystroke_Key.space	Key.space	n/a
77.2345	0.09	154469	keystroke_o	o	n/a
77.4295	0.105	154859	keystroke_v	v	n/a
77.6395	0.105	155279	keystroke_e	e	n/a
77.7595	0.075	155519	keystroke_r	r	n/a
78.0295	0.09	156059	keystroke_Key.space	Key.space	n/a
78.3445	0.09	156689	keystroke_s	s	n/a
78.4645	0.09	156929	keystroke_u	u	n/a
79.1245	0.09	158249	keystroke_p	p	n/a
79.2295	0.105	158459	keystroke_e	e	n/a
79.3195	0.105	158639	keystroke_r	r	n/a
79.4845	0.075	158969	keystroke_b	b	n/a
80.1895	0.09	160379	keystroke_Key.enter	Key.enter	n/a
80.2895	11.077	160579	prompt	n/a	cents february topics ferrari\n
80.9995	0.075	161999	keystroke_c	c	n/a
81.1645	0.09	162329	keystroke_e	e	n/a
81.2695	0.09	162539	keystroke_n	n	n/a
81.3745	0.09	162749	keystroke_t	t	n/a
81.5695	0.09	163139	keystroke_s	s	n/a
82.0645	0.12	164129	keystroke_Key.space	Key.space	n/a
82.3045	0.075	164609	keystroke_f	f	n/a
82.4395	0.09	164879	keystroke_e	e	n/a
82.7395	0.06	165479	keystroke_b	b	n/a
82.8445	0.09	165689	keystroke_r	r	n/a
83.0245	0.075	166049	keystroke_u	u	n/a
83.2045	0.165	166409	keystroke_a	a	n/a
83.3395	0.075	166679	keystroke_r	r	n/a
83.4445	0.09	166889	keystroke_y	y	n/a
84.2095	0.12	168419	keystroke_Key.space	Key.space	n/a
84.4195	0.075	168839	keystroke_t	t	n/a
84.5395	0.09	169079	keystroke_o	o	n/a
84.8095	0.1195	169619	keystroke_p	p	n/a
87.8725	0.012	175745	keystroke_i	i	n/a
87.9145	0.075	175829	keystroke_c	c	n/a
88.0795	0.105	176159	keystroke_s	s	n/a
88.9345	0.12	177869	keystroke_Key.space	Key.space	n/a
89.0695	0.09	178139	keystroke_f	f	n/a
89.2945	0.09	178589	keystroke_e	e	n/a
89.5345	0.045	179069	keystroke_r	r	n/a
89.6995	0.06	179399	keystroke_r	r	n/a
90.2545	0.1045	180509	keystroke_a	a	n/a
90.464	0.075	180928	keystroke_r	r	n/a
90.584	0.075	181168	keystroke_i	i	n/a
91.2595	0.105	182519	keystroke_Key.enter	Key.enter	n/a
91.3715	11.1095	182743	prompt	n/a	olympics founded stylish stevens\n
92.2495	0.09	184499	keystroke_o	o	n/a
92.4745	0.12	184949	keystroke_l	l	n/a
92.6395	0.09	185279	keystroke_y	y	n/a
93.2995	0.12	186599	keystroke_m	m	n/a
93.5245	0.09	187049	keystroke_p	p	n/a
93.7195	0.06	187439	keystroke_i	i	n/a
93.7805	0.089	187561	keystroke_c	c	n/a
93.9145	0.105	187829	keystroke_s	s	n/a
94.9195	0.075	189839	keystroke_Key.space	Key.space	n/a
95.0845	0.105	190169	keystroke_f	f	n/a
95.2195	0.09	190439	keystroke_o	o	n/a
95.3695	0.06	190739	keystroke_u	u	n/a
95.5795	0.075	191159	keystroke_n	n	n/a
95.6695	0.075	191339	keystroke_d	d	n/a
95.8495	0.075	191699	keystroke_e	e	n/a
96.0145	0.09	192029	keystroke_d	d	n/a
96.4945	0.09	192989	keystroke_Key.space	Key.space	n/a
96.8695	0.06	193739	keystroke_s	s	n/a
97.0495	0.09	194099	keystroke_t	t	n/a
97.2295	0.06	194459	keystroke_y	y	n/a
97.844	0.1055	195688	keystroke_l	l	n/a
97.9945	0.075	195989	keystroke_i	i	n/a
98.1445	0.105	196289	keystroke_s	s	n/a
98.2345	0.06	196469	keystroke_h	h	n/a
98.5045	0.09	197009	keystroke_Key.space	Key.space	n/a
98.731	0.089	197462	keystroke_s	s	n/a
98.88	0.09	197760	keystroke_t	t	n/a
99.045	0.1045	198090	keystroke_e	e	n/a
99.3295	0.09	198659	keystroke_v	v	n/a
99.5095	0.1055	199019	keystroke_e	e	n/a
99.645	0.09	199290	keystroke_n	n	n/a
99.765	0.105	199530	keystroke_s	s	n/a
102.4375	0.042	204875	keystroke_Key.enter	Key.enter	n/a
102.4855	16.6015	204971	prompt	n/a	threatened easter brave adventures\n
103.3045	0.075	206609	keystroke_h	h	n/a
104.3395	0.105	208679	keystroke_Key.backspace	Key.backspace	n/a
104.7895	0.09	209579	keystroke_t	t	n/a
104.9395	0.06	209879	keystroke_h	h	n/a
105.1345	0.165	210269	keystroke_r	r	n/a
105.2545	0.12	210509	keystroke_e	e	n/a
105.4345	0.225	210869	keystroke_a	a	n/a
105.6295	0.075	211259	keystroke_t	t	n/a
105.9145	0.09	211829	keystroke_e	e	n/a
106.275	0.06	212550	keystroke_n	n	n/a
106.59	0.075	213180	keystroke_e	e	n/a
106.77	0.09	213540	keystroke_d	d	n/a
107.1295	0.135	214259	keystroke_Key.space	Key.space	n/a
107.6095	0.09	215219	keystroke_e	e	n/a
108.3445	0.181	216689	keystroke_a	a	n/a
108.4795	0.135	216959	keystroke_s	s	n/a
108.6745	0.075	217349	keystroke_t	t	n/a
108.7945	0.12	217589	keystroke_e	e	n/a
108.8845	0.09	217769	keystroke_r	r	n/a
109.4095	0.12	218819	keystroke_Key.space	Key.space	n/a
109.7395	0.075	219479	keystroke_b	b	n/a
109.8595	0.09	219719	keystroke_r	r	n/a
110.0995	0.135	220199	keystroke_a	a	n/a
110.3395	0.12	220679	keystroke_v	v	n/a
110.4755	0.104	220951	keystroke_e	e	n/a
116.9285	0.056	233857	keystroke_Key.space	Key.space	n/a
117.1195	0.136	234239	keystroke_a	a	n/a
117.2105	0.105	234421	keystroke_d	d	n/a
117.4045	0.12	234809	keystroke_v	v	n/a
117.5555	0.119	235111	keystroke_e	e	n/a
117.7045	0.075	235409	keystroke_n	n	n/a
117.8255	0.075	235651	keystroke_t	t	n/a
117.9595	0.076	235919	keystroke_u	u	n/a
118.0805	0.104	236161	keystroke_r	r	n/a
118.1695	0.105	236339	keystroke_e	e	n/a
118.5595	0.091	237119	keystroke_s	s	n/a
118.9795	0.105	237959	keystroke_Key.enter	Key.enter	n/a
119.093	7.284	238186	prompt	n/a	sculpture pictures become adams\n
119.7305	0.104	239461	keystroke_s	s	n/a
120.1955	0.089	240391	keystroke_c	c	n/a
120.3455	0.074	240691	keystroke_u	u	n/a
120.5545	0.105	241109	keystroke_l	l	n/a
120.7655	0.119	241531	keystroke_p	p	n/a
120.9595	0.075	241919	keystroke_t	t	n/a
121.0955	0.075	242191	keystroke_u	u	n/a
121.1845	0.12	242369	keystroke_r	r	n/a
121.2895	0.106	242579	keystroke_e	e	n/a
121.7095	0.105	243419	keystroke_Key.space	Key.space	n/a
122.0405	0.105	244081	keystroke_p	p	n/a
122.2355	0.074	244471	keystroke_i	i	n/a
122.3405	0.105	244681	keystroke_c	c	n/a
122.6105	0.059	245221	keystroke_t	t	n/a
122.7295	0.09	245459	keystroke_u	u	n/a
122.8345	0.106	245669	keystroke_r	r	n/a
122.9255	0.089	245851	keystroke_e	e	n/a
123.0905	0.105	246181	keystroke_s	s	n/a
123.6145	0.105	247229	keystroke_Key.space	Key.space	n/a
123.9605	0.074	247921	keystroke_b	b	n/a
124.0205	0.104	248041	keystroke_e	e	n/a
124.2455	0.09	248491	keystroke_c	c	n/a
124.4255	0.089	248851	keystroke_o	o	n/a
124.6495	0.09	249299	keystroke_m	m	n/a
124.7105	0.075	249421	keystroke_e	e	n/a
124.9645	0.075	249929	keystroke_Key.space	Key.space	n/a
125.1605	0.12	250321	keystroke_a	a	n/a
125.2645	0.076	250529	keystroke_d	d	n/a
125.4145	0.105	250829	keystroke_a	a	n/a
125.5355	0.06	251071	keystroke_m	m	n/a
125.7295	0.091	251459	keystroke_s	s	n/a
126.2695	0.105	252539	keystroke_Key.enter	Key.enter	n/a
126.3825	17.6495	252765	prompt	n/a	occurrence demonstrate remarkable mistress\n
127.0655	0.074	254131	keystroke_c	c	n/a
127.8895	0.06	255779	keystroke_Key.backspace	Key.backspace	n/a
128.4455	0.06	256891	keystroke_o	o	n/a
128.6705	0.075	257341	keystroke_c	c	n/a
128.8505	0.075	257701	keystroke_c	c	n/a
130.545	0.1055	261090	keystroke_u	u	n/a
130.814	0.106	261628	keystroke_r	r	n/a
131.0545	0.076	262109	keystroke_e	e	n/a
131.1755	0.075	262351	keystroke_n	n	n/a
131.309	0.121	262618	keystroke_c	c	n/a
131.415	0.09	262830	keystroke_e	e	n/a
131.73	0.134	263460	keystroke_Key.space	Key.space	n/a
132.2995	0.076	264599	keystroke_d	d	n/a
132.4955	0.06	264991	keystroke_e	e	n/a
132.6455	0.089	265291	keystroke_m	m	n/a
132.8855	0.059	265771	keystroke_i	i	n/a
133.1855	0.06	266371	keystroke_n	n	n/a
133.2905	0.105	266581	keystroke_s	s	n/a
133.5005	0.06	267001	keystroke_t	t	n/a
133.6805	0.06	267361	keystroke_r	r	n/a
134.414	0.0905	268828	keystroke_Key.backspace	Key.backspace	n/a
134.6245	0.105	269249	keystroke_Key.backspace	Key.backspace	n/a
134.8505	0.12	269701	keystroke_Key.backspace	Key.backspace	n/a
135.0605	0.104	270121	keystroke_Key.backspace	Key.backspace	n/a
135.2545	0.09	270509	keystroke_Key.backspace	Key.backspace	n/a
137.4645	0.026	274929	keystroke_o	o	n/a
137.6705	0.09	275341	keystroke_n	n	n/a
138.2405	0.09	276481	keystroke_s	s	n/a
138.4505	0.06	276901	keystroke_t	t	n/a
138.6305	0.09	277261	keystroke_r	r	n/a
138.8255	0.165	277651	keystroke_a	a	n/a
138.9605	0.075	277921	keystroke_t	t	n/a
139.0355	0.105	278071	keystroke_e	e	n/a
139.5605	0.09	279121	keystroke_Key.space	Key.space	n/a
139.7705	0.12	279541	keystroke_r	r	n/a
139.8605	0.09	279721	keystroke_e	e	n/a
140.1	0.075	280200	keystroke_m	m	n/a
140.221	0.134	280442	keystroke_a	a	n/a
140.325	0.105	280650	keystroke_r	r	n/a
140.595	0.075	281190	keystroke_k	k	n/a
140.715	0.105	281430	keystroke_a	a	n/a
140.836	0.074	281672	keystroke_b	b	n/a
141.045	0.075	282090	keystroke_l	l	n/a
141.105	0.06	282210	keystroke_e	e	n/a
141.465	0.105	282930	keystroke_Key.space	Key.space	n/a
141.78	0.09	283560	keystroke_m	m	n/a
141.99	0.06	283980	keystroke_i	i	n/a
142.14	0.075	284280	keystroke_s	s	n/a
142.425	0.075	284850	keystroke_t	t	n/a
142.665	0.075	285330	keystroke_r	r	n/a
142.905	0.075	285810	keystroke_e	e	n/a
143.13	0.09	286260	keystroke_s	s	n/a
143.34	0.105	286680	keystroke_s	s	n/a
143.925	0.105	287850	keystroke_Key.enter	Key.enter	n/a
144.043	10.5945	288086	prompt	n/a	management aquarium containing laboratories\n
144.72	0.06	289440	keystroke_m	m	n/a
144.825	0.09	289650	keystroke_a	a	n/a
144.99	0.061	289980	keystroke_n	n	n/a
145.08	0.166	290160	keystroke_a	a	n/a
145.23	0.075	290460	keystroke_g	g	n/a
145.29	0.12	290580	keystroke_e	e	n/a
145.605	0.06	291210	keystroke_m	m	n/a
145.68	0.076	291360	keystroke_e	e	n/a
145.8	0.045	291600	keystroke_n	n	n/a
145.89	0.09	291780	keystroke_t	t	n/a
146.475	0.12	292950	keystroke_Key.space	Key.space	n/a
146.94	0.105	293880	keystroke_a	a	n/a
147.525	0.105	295050	keystroke_q	q	n/a
147.84	0.06	295680	keystroke_u	u	n/a
147.93	0.15	295860	keystroke_a	a	n/a
148.095	0.075	296190	keystroke_r	r	n/a
148.201	0.074	296402	keystroke_i	i	n/a
148.441	0.074	296882	keystroke_u	u	n/a
148.68	0.091	297360	keystroke_m	m	n/a
148.995	0.12	297990	keystroke_Key.space	Key.space	n/a
149.325	0.1045	298650	keystroke_c	c	n/a
149.4745	0.1055	298949	keystroke_o	o	n/a
149.655	0.09	299310	keystroke_n	n	n/a
149.835	0.0745	299670	keystroke_t	t	n/a
149.9845	0.105	299969	keystroke_a	a	n/a
150.1205	0.074	300241	keystroke_i	i	n/a
150.315	0.0745	300630	keystroke_n	n	n/a
150.4945	0.06	300989	keystroke_i	i	n/a
150.5845	0.105	301169	keystroke_n	n	n/a
150.7045	0.075	301409	keystroke_g	g	n/a
151.125	0.105	302250	keystroke_Key.space	Key.space	n/a
152.13	0.105	304260	keystroke_l	l	n/a
152.415	0.105	304830	keystroke_a	a	n/a
152.625	0.075	305250	keystroke_b	b	n/a
152.835	0.075	305670	keystroke_o	o	n/a
152.985	0.091	305970	keystroke_r	r	n/a
153.165	0.166	306330	keystroke_a	a	n/a
153.36	0.076	306720	keystroke_t	t	n/a
153.496	0.074	306992	keystroke_o	o	n/a
153.6	0.105	307200	keystroke_r	r	n/a
153.75	0.075	307500	keystroke_i	i	n/a
153.84	0.075	307680	keystroke_e	e	n/a
154.02	0.105	308040	keystroke_s	s	n/a
154.53	0.105	309060	keystroke_Key.enter	Key.enter	n/a
154.643	7.345	309286	prompt	n/a	coleman deviation gotta clicks\n
155.371	0.089	310742	keystroke_c	c	n/a
155.535	0.105	311070	keystroke_o	o	n/a
155.805	0.076	311610	keystroke_l	l	n/a
156.015	0.09	312030	keystroke_e	e	n/a
156.27	0.061	312540	keystroke_m	m	n/a
156.375	0.105	312750	keystroke_a	a	n/a
156.495	0.06	312990	keystroke_n	n	n/a
156.69	0.09	313380	keystroke_Key.space	Key.space	n/a
156.871	0.075	313742	keystroke_d	d	n/a
157.08	0.076	314160	keystroke_e	e	n/a
157.291	0.089	314582	keystroke_v	v	n/a
157.4545	0.0755	314909	keystroke_i	i	n/a
157.561	0.15	315122	keystroke_a	a	n/a
157.741	0.074	315482	keystroke_t	t	n/a
157.8	0.105	315600	keystroke_i	i	n/a
157.92	0.1195	315840	keystroke_o	o	n/a
157.9955	0.119	315991	keystroke_n	n	n/a
158.476	0.1035	316952	keystroke_Key.space	Key.space	n/a
159.3155	0.089	318631	keystroke_g	g	n/a
159.4655	0.0895	318931	keystroke_o	o	n/a
159.585	0.06	319170	keystroke_t	t	n/a
159.721	0.074	319442	keystroke_t	t	n/a
159.901	0.105	319802	keystroke_a	a	n/a
160.05	0.12	320100	keystroke_Key.space	Key.space	n/a
160.635	0.091	321270	keystroke_c	c	n/a
160.785	0.075	321570	keystroke_l	l	n/a
160.936	0.09	321872	keystroke_i	i	n/a
161.086	0.09	322172	keystroke_c	c	n/a
161.221	0.074	322442	keystroke_k	k	n/a
161.385	0.091	322770	keystroke_s	s	n/a
161.88	0.105	323760	keystroke_Key.enter	Key.enter	n/a
161.995	7.9875	323990	prompt	n/a	sharp boards brooklyn nothing\n
162.5845	0.0915	325169	keystroke_s	s	n/a
162.706	0.074	325412	keystroke_h	h	n/a
162.825	0.151	325650	keystroke_a	a	n/a
162.93	0.075	325860	keystroke_r	r	n/a
163.0505	0.104	326101	keystroke_p	p	n/a
163.47	0.105	326940	keystroke_Key.space	Key.space	n/a
163.815	0.046	327630	keystroke_b	b	n/a
163.981	0.06	327962	keystroke_o	o	n/a
164.056	0.1635	328112	keystroke_a	a	n/a
164.1905	0.074	328381	keystroke_r	r	n/a
164.3395	0.091	328679	keystroke_d	d	n/a
164.686	0.074	329372	keystroke_s	s	n/a
165.15	0.105	330300	keystroke_Key.space	Key.space	n/a
165.496	0.059	330992	keystroke_b	b	n/a
165.616	0.06	331232	keystroke_r	r	n/a
165.795	0.076	331590	keystroke_o	o	n/a
165.96	0.076	331920	keystroke_o	o	n/a
166.171	0.075	332342	keystroke_k	k	n/a
166.366	0.09	332732	keystroke_l	l	n/a
166.891	0.059	333782	keystroke_y	y	n/a
167.16	0.061	334320	keystroke_n	n	n/a
167.79	0.105	335580	keystroke_Key.space	Key.space	n/a
168.031	0.074	336062	keystroke_n	n	n/a
168.121	0.09	336242	keystroke_o	o	n/a
168.331	0.075	336662	keystroke_t	t	n/a
168.421	0.075	336842	keystroke_h	h	n/a
168.571	0.075	337142	keystroke_i	i	n/a
168.675	0.091	337350	keystroke_n	n	n/a
168.796	0.059	337592	keystroke_g	g	n/a
169.876	0.104	339752	keystroke_Key.enter	Key.enter	n/a
169.9885	6.969	339977	prompt	n/a	mileage discs utilities person\n
170.76	0.061	341520	keystroke_m	m	n/a
171.031	0.06	342062	keystroke_i	i	n/a
171.316	0.075	342632	keystroke_l	l	n/a
171.406	0.09	342812	keystroke_e	e	n/a
171.585	0.151	343170	keystroke_a	a	n/a
171.721	0.135	343442	keystroke_g	g	n/a
171.87	0.076	343740	keystroke_e	e	n/a
172.5	0.105	345000	keystroke_Key.space	Key.space	n/a
172.725	0.091	345450	keystroke_d	d	n/a
172.921	0.075	345842	keystroke_i	i	n/a
173.025	0.106	346050	keystroke_s	s	n/a
173.191	0.09	346382	keystroke_c	c	n/a
173.401	0.09	346802	keystroke_s	s	n/a
173.671	0.089	347342	keystroke_Key.space	Key.space	n/a
174.016	0.06	348032	keystroke_u	u	n/a
174.256	0.075	348512	keystroke_t	t	n/a
174.421	0.06	348842	keystroke_i	i	n/a
174.676	0.074	349352	keystroke_l	l	n/a
174.796	0.075	349592	keystroke_i	i	n/a
174.946	0.075	349892	keystroke_t	t	n/a
175.036	0.06	350072	keystroke_i	i	n/a
175.111	0.09	350222	keystroke_e	e	n/a
175.26	0.106	350520	keystroke_s	s	n/a
175.501	0.104	351002	keystroke_Key.space	Key.space	n/a
175.711	0.105	351422	keystroke_p	p	n/a
175.816	0.135	351632	keystroke_e	e	n/a
175.936	0.074	351872	keystroke_r	r	n/a
176.101	0.104	352202	keystroke_s	s	n/a
176.176	0.09	352352	keystroke_o	o	n/a
176.31	0.106	352620	keystroke_n	n	n/a
176.851	0.104	353702	keystroke_Key.enter	Key.enter	n/a
176.9735	11.159	353947	prompt	n/a	building participated associations support\n
177.721	0.045	355442	keystroke_b	b	n/a
177.916	0.089	355832	keystroke_u	u	n/a
178.1405	0.0605	356281	keystroke_i	i	n/a
178.336	0.075	356672	keystroke_l	l	n/a
178.426	0.12	356852	keystroke_d	d	n/a
178.546	0.06	357092	keystroke_i	i	n/a
178.636	0.09	357272	keystroke_n	n	n/a
178.711	0.06	357422	keystroke_g	g	n/a
178.98	0.091	357960	keystroke_Key.space	Key.space	n/a
179.311	0.09	358622	keystroke_p	p	n/a
179.416	0.135	358832	keystroke_a	a	n/a
179.491	0.089	358982	keystroke_r	r	n/a
179.716	0.09	359432	keystroke_t	t	n/a
179.821	0.06	359642	keystroke_i	i	n/a
179.941	0.105	359882	keystroke_c	c	n/a
180.061	0.12	360122	keystroke_i	i	n/a
180.241	0.09	360482	keystroke_p	p	n/a
180.301	0.135	360602	keystroke_a	a	n/a
180.421	0.075	360842	keystroke_t	t	n/a
180.511	0.12	361022	keystroke_e	e	n/a
180.691	0.09	361382	keystroke_d	d	n/a
181.246	0.105	362492	keystroke_Key.space	Key.space	n/a
181.501	0.12	363002	keystroke_a	a	n/a
181.771	0.075	363542	keystroke_s	s	n/a
181.906	0.09	363812	keystroke_s	s	n/a
182.521	0.09	365042	keystroke_o	o	n/a
182.8205	0.075	365641	keystroke_c	c	n/a
183.0305	0.06	366061	keystroke_i	i	n/a
183.1505	0.225	366301	keystroke_a	a	n/a
183.3605	0.075	366721	keystroke_t	t	n/a
183.4205	0.075	366841	keystroke_i	i	n/a
183.5105	0.1055	367021	keystroke_o	o	n/a
183.601	0.105	367202	keystroke_n	n	n/a
183.871	0.075	367742	keystroke_s	s	n/a
184.171	0.105	368342	keystroke_Key.space	Key.space	n/a
184.396	0.105	368792	keystroke_s	s	n/a
184.711	0.1195	369422	keystroke_p	p	n/a
185.6405	0.075	371281	keystroke_Key.backspace	Key.backspace	n/a
186.6455	0.09	373291	keystroke_u	u	n/a
186.8255	0.105	373651	keystroke_p	p	n/a
187.0205	0.106	374041	keystroke_p	p	n/a
187.1855	0.09	374371	keystroke_o	o	n/a
187.2605	0.075	374521	keystroke_r	r	n/a
187.4415	0.074	374883	keystroke_t	t	n/a
188.0255	0.105	376051	keystroke_Key.enter	Key.enter	n/a
188.137	22.5405	376274	prompt	n/a	examining tablets genealogy commissions\n
188.7605	0.09	377521	keystroke_e	e	n/a
188.9855	0.075	377971	keystroke_x	x	n/a
189.1655	0.075	378331	keystroke_a	a	n/a
189.3305	0.075	378661	keystroke_m	m	n/a
189.5255	0.06	379051	keystroke_i	i	n/a
189.6305	0.09	379261	keystroke_n	n	n/a
189.7505	0.075	379501	keystroke_g	g	n/a
190.1705	0.12	380341	keystroke_Key.space	Key.space	n/a
190.7855	0.09	381571	keystroke_t	t	n/a
190.9805	0.12	381961	keystroke_a	a	n/a
194.028	0.027	388056	keystroke_Key.backspace	Key.backspace	n/a
194.175	0.0755	388350	keystroke_Key.backspace	Key.backspace	n/a
194.3555	0.06	388711	keystroke_Key.backspace	Key.backspace	n/a
194.5205	0.0595	389041	keystroke_Key.backspace	Key.backspace	n/a
194.685	0.03	389370	keystroke_Key.backspace	Key.backspace	n/a
195.2715	0.074	390543	keystroke_n	n	n/a
195.4505	0.075	390901	keystroke_i	i	n/a
195.57	0.075	391140	keystroke_n	n	n/a
195.675	0.0905	391350	keystroke_g	g	n/a
196.0205	0.1195	392041	keystroke_Key.space	Key.space	n/a
196.365	0.0905	392730	keystroke_t	t	n/a
196.5005	0.1045	393001	keystroke_a	a	n/a
196.65	0.075	393300	keystroke_b	b	n/a
196.875	0.0905	393750	keystroke_l	l	n/a
196.9205	0.12	393841	keystroke_e	e	n/a
197.0705	0.0905	394141	keystroke_t	t	n/a
197.61	0.09	395220	keystroke_s	s	n/a
197.82	0.105	395640	keystroke_Key.space	Key.space	n/a
198.075	0.091	396150	keystroke_g	g	n/a
198.376	0.0755	396752	keystroke_e	e	n/a
199.4255	0.075	398851	keystroke_e	e	n/a
199.5455	0.105	399091	keystroke_a	a	n/a
199.71	0.06	399420	keystroke_l	l	n/a
199.875	0.075	399750	keystroke_o	o	n/a
199.965	0.0905	399930	keystroke_g	g	n/a
200.1015	0.074	400203	keystroke_y	y	n/a
201.0605	0.105	402121	keystroke_Key.backspace	Key.backspace	n/a
201.24	0.09	402480	keystroke_Key.backspace	Key.backspace	n/a
201.42	0.09	402840	keystroke_Key.backspace	Key.backspace	n/a
201.57	0.1055	403140	keystroke_Key.backspace	Key.backspace	n/a
201.75	0.0905	403500	keystroke_Key.backspace	Key.backspace	n/a
201.9005	0.09	403801	keystroke_Key.backspace	Key.backspace	n/a
203.4765	0.074	406953	keystroke_n	n	n/a
203.5355	0.075	407071	keystroke_e	e	n/a
203.6415	0.1345	407283	keystroke_a	a	n/a
205.3805	0.045	410761	keystroke_l	l	n/a
205.5155	0.106	411031	keystroke_o	o	n/a
205.6355	0.075	411271	keystroke_g	g	n/a
205.755	0.0905	411510	keystroke_y	y	n/a
206.0555	0.09	412111	keystroke_Key.space	Key.space	n/a
206.8655	0.09	413731	keystroke_c	c	n/a
207.0605	0.09	414121	keystroke_o	o	n/a
207.3305	0.06	414661	keystroke_m	m	n/a
207.4805	0.061	414961	keystroke_m	m	n/a
207.6915	0.045	415383	keystroke_i	i	n/a
207.8705	0.076	415741	keystroke_s	s	n/a
208.0365	0.089	416073	keystroke_s	s	n/a
208.2155	0.1045	416431	keystroke_i	i	n/a
208.305	0.121	416610	keystroke_o	o	n/a
208.441	0.1205	416882	keystroke_n	n	n/a
208.5455	0.091	417091	keystroke_s	s	n/a
210.5865	0.089	421173	keystroke_Key.enter	Key.enter	n/a
210.684	7.3295	421368	prompt	n/a	nine that'll continues camera\n
211.3365	0.0895	422673	keystroke_n	n	n/a
211.501	0.075	423002	keystroke_i	i	n/a
211.651	0.09	423302	keystroke_n	n	n/a
211.755	0.076	423510	keystroke_e	e	n/a
212.01	0.09	424020	keystroke_Key.space	Key.space	n/a
212.251	0.09	424502	keystroke_t	t	n/a
212.4465	0.075	424893	keystroke_h	h	n/a
212.5665	0.149	425133	keystroke_a	a	n/a
212.6855	0.061	425371	keystroke_t	t	n/a
213.3465	0.09	426693	keystroke_'	'	n/a
213.6005	0.075	427201	keystroke_l	l	n/a
213.7665	0.074	427533	keystroke_l	l	n/a
214.2005	0.121	428401	keystroke_Key.space	Key.space	n/a
214.441	0.089	428882	keystroke_c	c	n/a
214.636	0.0895	429272	keystroke_o	o	n/a
214.8005	0.076	429601	keystroke_n	n	n/a
214.9365	0.09	429873	keystroke_t	t	n/a
215.0565	0.09	430113	keystroke_i	i	n/a
215.2055	0.091	430411	keystroke_n	n	n/a
215.4315	0.059	430863	keystroke_u	u	n/a
215.5365	0.06	431073	keystroke_e	e	n/a
215.7315	0.09	431463	keystroke_s	s	n/a
216.1655	0.12	432331	keystroke_Key.space	Key.space	n/a
216.6015	0.135	433203	keystroke_c	c	n/a
216.7215	0.134	433443	keystroke_a	a	n/a
216.9165	0.089	433833	keystroke_m	m	n/a
217.021	0.1055	434042	keystroke_e	e	n/a
217.1115	0.09	434223	keystroke_r	r	n/a
217.2615	0.105	434523	keystroke_a	a	n/a
217.9055	0.105	435811	keystroke_Key.enter	Key.enter	n/a
218.032	6.8065	436064	prompt	n/a	naturals sara color who've\n
218.7455	0.076	437491	keystroke_n	n	n/a
218.8665	0.2095	437733	keystroke_a	a	n/a
219.046	0.075	438092	keystroke_t	t	n/a
219.166	0.075	438332	keystroke_u	u	n/a
219.256	0.06	438512	keystroke_r	r	n/a
219.3765	0.105	438753	keystroke_a	a	n/a
219.4965	0.0895	438993	keystroke_l	l	n/a
219.601	0.09	439202	keystroke_s	s	n/a
219.915	0.1205	439830	keystroke_Key.space	Key.space	n/a
220.201	0.1495	440402	keystroke_s	s	n/a
220.3515	0.179	440703	keystroke_a	a	n/a
220.606	0.105	441212	keystroke_r	r	n/a
220.726	0.135	441452	keystroke_a	a	n/a
221.2505	0.135	442501	keystroke_Key.space	Key.space	n/a
221.4905	0.0895	442981	keystroke_c	c	n/a
221.5665	0.1195	443133	keystroke_o	o	n/a
221.8515	0.075	443703	keystroke_l	l	n/a
222.0615	0.0885	444123	keystroke_o	o	n/a
222.166	0.074	444332	keystroke_r	r	n/a
222.6915	0.104	445383	keystroke_Key.space	Key.space	n/a
222.9315	0.074	445863	keystroke_w	w	n/a
223.0805	0.0755	446161	keystroke_h	h	n/a
223.216	0.0755	446432	keystroke_o	o	n/a
224.041	0.12	448082	keystroke_'	'	n/a
224.206	0.1205	448412	keystroke_v	v	n/a
224.3415	0.105	448683	keystroke_e	e	n/a
224.7615	0.075	449523	keystroke_Key.enter	Key.enter	n/a
224.843	10.3785	449686	prompt	n/a	prairie dependence killing hood\n
225.871	0.105	451742	keystroke_p	p	n/a
225.961	0.0905	451922	keystroke_r	r	n/a
226.261	0.105	452522	keystroke_a	a	n/a
227.0565	0.075	454113	keystroke_i	i	n/a
227.281	0.074	454562	keystroke_r	r	n/a
227.4755	0.075	454951	keystroke_i	i	n/a
227.5665	0.075	455133	keystroke_e	e	n/a
227.9265	0.105	455853	keystroke_Key.space	Key.space	n/a
228.6465	0.09	457293	keystroke_d	d	n/a
228.826	0.09	457652	keystroke_e	e	n/a
229.0365	0.12	458073	keystroke_p	p	n/a
229.1415	0.075	458283	keystroke_e	e	n/a
229.306	0.075	458612	keystroke_n	n	n/a
229.396	0.06	458792	keystroke_d	d	n/a
229.576	0.075	459152	keystroke_e	e	n/a
229.876	0.0905	459752	keystroke_n	n	n/a
229.9965	0.15	459993	keystroke_c	c	n/a
230.1165	0.09	460233	keystroke_e	e	n/a
230.431	0.1195	460862	keystroke_Key.space	Key.space	n/a
230.851	0.0755	461702	keystroke_k	k	n/a
231.0165	0.075	462033	keystroke_i	i	n/a
231.2265	0.06	462453	keystroke_l	l	n/a
231.3765	0.105	462753	keystroke_l	l	n/a
231.5865	0.06	463173	keystroke_i	i	n/a
231.6765	0.09	463353	keystroke_n	n	n/a
231.7815	0.06	463563	keystroke_g	g	n/a
232.0815	0.09	464163	keystroke_Key.space	Key.space	n/a
232.3665	0.075	464733	keystroke_b	b	n/a
233.4615	0.09	466923	keystroke_Key.backspace	Key.backspace	n/a
233.956	0.06	467912	keystroke_h	h	n/a
234.1815	0.06	468363	keystroke_o	o	n/a
234.332	0.075	468664	keystroke_o	o	n/a
234.437	0.105	468874	keystroke_d	d	n/a
235.1135	0.1055	470227	keystroke_Key.enter	Key.enter	n/a
235.2275	9.2815	470455	prompt	n/a	official conduct conversations undertake\n
236.0155	0.09	472031	keystroke_o	o	n/a
236.166	0.06	472332	keystroke_f	f	n/a
236.331	0.0605	472662	keystroke_f	f	n/a
236.466	0.0605	472932	keystroke_i	i	n/a
236.5865	0.0755	473173	keystroke_c	c	n/a
236.677	0.09	473354	keystroke_i	i	n/a
236.782	0.1055	473564	keystroke_a	a	n/a
236.9175	0.075	473835	keystroke_l	l	n/a
237.203	0.1355	474406	keystroke_Key.space	Key.space	n/a
237.443	0.0905	474886	keystroke_c	c	n/a
237.5185	0.09	475037	keystroke_o	o	n/a
237.669	0.075	475338	keystroke_n	n	n/a
237.774	0.0905	475548	keystroke_d	d	n/a
237.9095	0.0745	475819	keystroke_u	u	n/a
238.0145	0.06	476029	keystroke_c	c	n/a
238.18	0.075	476360	keystroke_t	t	n/a
238.706	0.12	477412	keystroke_Key.space	Key.space	n/a
239.0365	0.09	478073	keystroke_c	c	n/a
239.1415	0.0905	478283	keystroke_o	o	n/a
239.262	0.09	478524	keystroke_n	n	n/a
239.367	0.0905	478734	keystroke_v	v	n/a
239.5175	0.12	479035	keystroke_e	e	n/a
239.6225	0.1055	479245	keystroke_r	r	n/a
239.9385	0.195	479877	keystroke_s	s	n/a
240.1035	0.1505	480207	keystroke_a	a	n/a
240.359	0.0755	480718	keystroke_t	t	n/a
240.4195	0.075	480839	keystroke_i	i	n/a
240.4795	0.12	480959	keystroke_o	o	n/a
240.5695	0.105	481139	keystroke_n	n	n/a
240.6895	0.0755	481379	keystroke_s	s	n/a
241.231	0.12	482462	keystroke_Key.space	Key.space	n/a
241.5615	0.075	483123	keystroke_u	u	n/a
241.877	0.0755	483754	keystroke_n	n	n/a
242.1025	0.09	484205	keystroke_d	d	n/a
242.373	0.1055	484746	keystroke_e	e	n/a
242.4485	0.105	484897	keystroke_r	r	n/a
243.1545	0.0905	486309	keystroke_t	t	n/a
243.35	0.1205	486700	keystroke_a	a	n/a
243.5155	0.06	487031	keystroke_k	k	n/a
243.6055	0.075	487211	keystroke_e	e	n/a
244.387	0.1205	488774	keystroke_Key.enter	Key.enter	n/a
244.5135	7.2555	489027	prompt	n/a	makes personnel objects sharing\n
245.1835	0.0755	490367	keystroke_m	m	n/a
245.304	0.09	490608	keystroke_a	a	n/a
245.5595	0.075	491119	keystroke_k	k	n/a
245.6645	0.0755	491329	keystroke_e	e	n/a
245.86	0.0905	491720	keystroke_s	s	n/a
246.1305	0.1205	492261	keystroke_Key.space	Key.space	n/a
246.762	0.105	493524	keystroke_p	p	n/a
246.837	0.1055	493674	keystroke_e	e	n/a
246.927	0.1055	493854	keystroke_r	r	n/a
247.1225	0.09	494245	keystroke_s	s	n/a
247.228	0.105	494456	keystroke_o	o	n/a
247.423	0.0755	494846	keystroke_n	n	n/a
247.5585	0.075	495117	keystroke_n	n	n/a
247.6485	0.0755	495297	keystroke_e	e	n/a
247.814	0.09	495628	keystroke_l	l	n/a
248.175	0.105	496350	keystroke_Key.space	Key.space	n/a
248.5505	0.09	497101	keystroke_o	o	n/a
248.701	0.075	497402	keystroke_b	b	n/a
248.9565	0.06	497913	keystroke_j	j	n/a
249.0465	0.09	498093	keystroke_e	e	n/a
249.257	0.075	498514	keystroke_c	c	n/a
249.4675	0.06	498935	keystroke_t	t	n/a
249.6325	0.0905	499265	keystroke_s	s	n/a
249.9635	0.09	499927	keystroke_Key.space	Key.space	n/a
250.324	0.1205	500648	keystroke_s	s	n/a
250.4595	0.06	500919	keystroke_h	h	n/a
250.5795	0.1655	501159	keystroke_a	a	n/a
250.715	0.09	501430	keystroke_r	r	n/a
250.82	0.045	501640	keystroke_i	i	n/a
250.91	0.1055	501820	keystroke_n	n	n/a
251.0005	0.09	502001	keystroke_g	g	n/a
251.6615	0.1055	503323	keystroke_Key.enter	Key.enter	n/a
251.775	7.614	503550	prompt	n/a	gained chaos labels arrive\n
252.6535	0.0755	505307	keystroke_g	g	n/a
252.804	0.09	505608	keystroke_a	a	n/a
252.9695	0.06	505939	keystroke_i	i	n/a
253.0595	0.075	506119	keystroke_n	n	n/a
253.225	0.075	506450	keystroke_e	e	n/a
253.39	0.0905	506780	keystroke_d	d	n/a
253.6605	0.1205	507321	keystroke_Key.space	Key.space	n/a
254.1565	0.0905	508313	keystroke_c	c	n/a
254.292	0.06	508584	keystroke_h	h	n/a
254.5925	0.1205	509185	keystroke_a	a	n/a
254.923	0.0605	509846	keystroke_o	o	n/a
255.0585	0.105	510117	keystroke_s	s	n/a
255.5245	0.105	511049	keystroke_Key.space	Key.space	n/a
256.0055	0.075	512011	keystroke_l	l	n/a
256.1105	0.1355	512221	keystroke_a	a	n/a
256.261	0.06	512522	keystroke_b	b	n/a
256.366	0.09	512732	keystroke_e	e	n/a
256.6215	0.105	513243	keystroke_l	l	n/a
257.1325	0.075	514265	keystroke_s	s	n/a
257.4785	0.135	514957	keystroke_Key.space	Key.space	n/a
257.794	0.12	515588	keystroke_a	a	n/a
257.959	0.0455	515918	keystroke_r	r	n/a
258.1095	0.06	516219	keystroke_r	r	n/a
258.395	0.09	516790	keystroke_i	i	n/a
258.5905	0.15	517181	keystroke_v	v	n/a
258.7555	0.0755	517511	keystroke_e	e	n/a
259.2665	0.1205	518533	keystroke_Key.enter	Key.enter	n/a
259.3935	8.608	518787	prompt	n/a	johnson resorts oriented architects\n
260.1835	0.075	520367	keystroke_j	j	n/a
260.304	0.135	520608	keystroke_o	o	n/a
260.499	0.0905	520998	keystroke_h	h	n/a
260.7695	0.0755	521539	keystroke_n	n	n/a
260.995	0.1055	521990	keystroke_s	s	n/a
261.1155	0.09	522231	keystroke_o	o	n/a
261.2355	0.0905	522471	keystroke_n	n	n/a
261.521	0.1055	523042	keystroke_Key.space	Key.space	n/a
261.7315	0.105	523463	keystroke_r	r	n/a
261.7915	0.1055	523583	keystroke_e	e	n/a
262.0475	0.105	524095	keystroke_s	s	n/a
262.2275	0.075	524455	keystroke_o	o	n/a
262.3475	0.0755	524695	keystroke_r	r	n/a
262.5885	0.06	525177	keystroke_t	t	n/a
263.054	0.1055	526108	keystroke_s	s	n/a
263.7305	0.135	527461	keystroke_Key.space	Key.space	n/a
264.1665	0.075	528333	keystroke_o	o	n/a
264.2565	0.075	528513	keystroke_r	r	n/a
264.437	0.045	528874	keystroke_i	i	n/a
264.542	0.09	529084	keystroke_e	e	n/a
264.6475	0.06	529295	keystroke_n	n	n/a
264.7525	0.09	529505	keystroke_t	t	n/a
264.8725	0.1055	529745	keystroke_e	e	n/a
265.053	0.09	530106	keystroke_d	d	n/a
265.2635	0.09	530527	keystroke_Key.space	Key.space	n/a
265.4285	0.1805	530857	keystroke_a	a	n/a
265.549	0.075	531098	keystroke_r	r	n/a
265.8495	0.03	531699	keystroke_c	c	n/a
265.9245	0.0905	531849	keystroke_h	h	n/a
266.105	0.075	532210	keystroke_i	i	n/a
266.3155	0.09	532631	keystroke_t	t	n/a
266.4205	0.0755	532841	keystroke_e	e	n/a
266.631	0.075	533262	keystroke_c	c	n/a
266.8415	0.075	533683	keystroke_t	t	n/a
267.217	0.075	534434	keystroke_s	s	n/a
267.8635	0.135	535727	keystroke_Key.enter	Key.enter	n/a
268.006	7.7805	536012	prompt	n/a	urgent projects brief shots\n
268.78	0.06	537560	keystroke_u	u	n/a
268.885	0.0905	537770	keystroke_r	r	n/a
269.156	0.075	538312	keystroke_g	g	n/a
269.306	0.09	538612	keystroke_e	e	n/a
269.426	0.0755	538852	keystroke_n	n	n/a
269.5165	0.075	539033	keystroke_t	t	n/a
269.832	0.105	539664	keystroke_Key.space	Key.space	n/a
270.193	0.12	540386	keystroke_p	p	n/a
270.298	0.075	540596	keystroke_r	r	n/a
270.418	0.09	540836	keystroke_i	i	n/a
271.575	0.1055	543150	keystroke_Key.backspace	Key.backspace	n/a
271.996	0.075	543992	keystroke_o	o	n/a
272.2215	0.09	544443	keystroke_j	j	n/a
272.3265	0.0755	544653	keystroke_e	e	n/a
272.522	0.06	545044	keystroke_c	c	n/a
272.6875	0.09	545375	keystroke_t	t	n/a
272.8675	0.0905	545735	keystroke_s	s	n/a
273.093	0.0905	546186	keystroke_Key.space	Key.space	n/a
273.3185	0.075	546637	keystroke_b	b	n/a
273.3785	0.075	546757	keystroke_r	r	n/a
273.514	0.09	547028	keystroke_i	i	n/a
273.589	0.06	547178	keystroke_e	e	n/a
273.7095	0.09	547419	keystroke_f	f	n/a
273.9045	0.0905	547809	keystroke_Key.space	Key.space	n/a
274.0245	0.1055	548049	keystroke_s	s	n/a
274.145	0.03	548290	keystroke_h	h	n/a
274.4605	0.06	548921	keystroke_o	o	n/a
274.6105	0.0455	549221	keystroke_t	t	n/a
274.8215	0.09	549643	keystroke_s	s	n/a
275.6625	0.1205	551325	keystroke_Key.enter	Key.enter	n/a
275.7925	8.4815	551585	prompt	n/a	statistics happen tsunami melissa\n
276.444	0.0905	552888	keystroke_s	s	n/a
276.6545	0.075	553309	keystroke_t	t	n/a
276.8195	0.1505	553639	keystroke_a	a	n/a
277.015	0.0755	554030	keystroke_t	t	n/a
277.1355	0.075	554271	keystroke_i	i	n/a
277.2405	0.105	554481	keystroke_s	s	n/a
277.361	0.075	554722	keystroke_t	t	n/a
277.466	0.075	554932	keystroke_i	i	n/a
277.571	0.075	555142	keystroke_c	c	n/a
277.6615	0.105	555323	keystroke_s	s	n/a
278.217	0.0755	556434	keystroke_Key.space	Key.space	n/a
278.488	0.06	556976	keystroke_h	h	n/a
278.608	0.105	557216	keystroke_a	a	n/a
278.728	0.09	557456	keystroke_p	p	n/a
278.8785	0.105	557757	keystroke_p	p	n/a
279.0135	0.0605	558027	keystroke_e	e	n/a
279.149	0.06	558298	keystroke_n	n	n/a
279.6145	0.0905	559229	keystroke_Key.space	Key.space	n/a
280.0055	0.075	560011	keystroke_t	t	n/a
280.3205	0.0755	560641	keystroke_s	s	n/a
280.561	0.0155	561122	keystroke_u	u	n/a
280.8165	0.06	561633	keystroke_n	n	n/a
280.937	0.135	561874	keystroke_a	a	n/a
281.147	0.075	562294	keystroke_m	m	n/a
281.3425	0.075	562685	keystroke_i	i	n/a
281.553	0.105	563106	keystroke_Key.space	Key.space	n/a
281.838	0.0755	563676	keystroke_m	m	n/a
281.9295	0.089	563859	keystroke_e	e	n/a
282.154	0.09	564308	keystroke_l	l	n/a
282.364	0.075	564728	keystroke_i	i	n/a
282.5445	0.045	565089	keystroke_s	s	n/a
282.6645	0.09	565329	keystroke_s	s	n/a
282.83	0.12	565660	keystroke_a	a	n/a
284.167	0.105	568334	keystroke_Key.enter	Key.enter	n/a
284.279	7.6145	568558	prompt	n/a	workflow nurses popular affiliate\n
285.0375	0.09	570075	keystroke_w	w	n/a
285.1875	0.06	570375	keystroke_o	o	n/a
285.2625	0.075	570525	keystroke_r	r	n/a
285.398	0.075	570796	keystroke_k	k	n/a
285.6825	0.09	571365	keystroke_f	f	n/a
285.7575	0.075	571515	keystroke_l	l	n/a
285.938	0.09	571876	keystroke_o	o	n/a
285.983	0.09	571966	keystroke_w	w	n/a
286.3125	0.105	572625	keystroke_Key.space	Key.space	n/a
286.538	0.046	573076	keystroke_n	n	n/a
286.7175	0.06	573435	keystroke_u	u	n/a
286.7785	0.074	573557	keystroke_r	r	n/a
287.0035	0.104	574007	keystroke_s	s	n/a
287.0925	0.0745	574185	keystroke_e	e	n/a
287.242	0.0915	574484	keystroke_s	s	n/a
287.797	0.1055	575594	keystroke_Key.space	Key.space	n/a
288.0975	0.09	576195	keystroke_p	p	n/a
288.322	0.105	576644	keystroke_o	o	n/a
288.502	0.1345	577004	keystroke_p	p	n/a
288.6515	0.075	577303	keystroke_u	u	n/a
288.877	0.075	577754	keystroke_l	l	n/a
288.937	0.15	577874	keystroke_a	a	n/a
289.042	0.0895	578084	keystroke_r	r	n/a
289.3415	0.105	578683	keystroke_Key.space	Key.space	n/a
289.5215	0.165	579043	keystroke_a	a	n/a
289.6565	0.06	579313	keystroke_f	f	n/a
289.8065	0.075	579613	keystroke_f	f	n/a
289.9565	0.075	579913	keystroke_i	i	n/a
290.1665	0.075	580333	keystroke_l	l	n/a
290.3015	0.075	580603	keystroke_i	i	n/a
290.4525	0.164	580905	keystroke_a	a	n/a
290.5865	0.075	581173	keystroke_t	t	n/a
290.706	0.076	581412	keystroke_e	e	n/a
291.786	0.105	583572	keystroke_Key.enter	Key.enter	n/a
291.8995	6.1275	583799	prompt	n/a	sessions new lock associated\n
292.506	0.09	585012	keystroke_s	s	n/a
292.701	0.0595	585402	keystroke_e	e	n/a
292.8805	0.06	585761	keystroke_s	s	n/a
293.0305	0.0755	586061	keystroke_s	s	n/a
293.2255	0.09	586451	keystroke_i	i	n/a
293.3305	0.135	586661	keystroke_o	o	n/a
293.4205	0.0905	586841	keystroke_n	n	n/a
293.4955	0.0905	586991	keystroke_s	s	n/a
293.7655	0.12	587531	keystroke_Key.space	Key.space	n/a
294.051	0.09	588102	keystroke_n	n	n/a
294.126	0.135	588252	keystroke_e	e	n/a
294.216	0.1045	588432	keystroke_w	w	n/a
294.5005	0.105	589001	keystroke_Key.space	Key.space	n/a
294.785	0.045	589570	keystroke_l	l	n/a
294.95	0.075	589900	keystroke_o	o	n/a
295.04	0.09	590080	keystroke_c	c	n/a
295.1905	0.0745	590381	keystroke_k	k	n/a
295.49	0.105	590980	keystroke_Key.space	Key.space	n/a
295.73	0.1195	591460	keystroke_a	a	n/a
295.926	0.089	591852	keystroke_s	s	n/a
296.106	0.135	592212	keystroke_s	s	n/a
296.256	0.0885	592512	keystroke_o	o	n/a
296.465	0.09	592930	keystroke_c	c	n/a
296.705	0.06	593410	keystroke_i	i	n/a
296.81	0.1795	593620	keystroke_a	a	n/a
296.9605	0.104	593921	keystroke_t	t	n/a
297.0805	0.104	594161	keystroke_e	e	n/a
297.26	0.089	594520	keystroke_d	d	n/a
297.919	0.105	595838	keystroke_Key.enter	Key.enter	n/a
298.0325	9.816	596065	prompt	n/a	utilize saver oughtn't accepting\n
298.865	0.0585	597730	keystroke_u	u	n/a
299.0135	0.045	598027	keystroke_t	t	n/a
299.374	0.0745	598748	keystroke_i	i	n/a
299.5985	0.105	599197	keystroke_l	l	n/a
299.7345	0.104	599469	keystroke_i	i	n/a
299.9135	0.105	599827	keystroke_z	z	n/a
300.513	0.045	601026	keystroke_e	e	n/a
300.8885	0.1345	601777	keystroke_Key.space	Key.space	n/a
301.3835	0.0745	602767	keystroke_s	s	n/a
301.533	0.105	603066	keystroke_a	a	n/a
301.743	0.0905	603486	keystroke_v	v	n/a
301.968	0.105	603936	keystroke_e	e	n/a
302.043	0.105	604086	keystroke_r	r	n/a
302.448	0.1195	604896	keystroke_Key.space	Key.space	n/a
303.2875	0.076	606575	keystroke_o	o	n/a
303.3775	0.0895	606755	keystroke_u	u	n/a
303.6185	0.06	607237	keystroke_g	g	n/a
303.8735	0.06	607747	keystroke_h	h	n/a
303.9785	0.0735	607957	keystroke_t	t	n/a
304.2035	0.089	608407	keystroke_n	n	n/a
304.517	0.031	609034	keystroke_'	'	n/a
304.577	0.075	609154	keystroke_t	t	n/a
305.192	0.105	610384	keystroke_Key.space	Key.space	n/a
305.477	0.1045	610954	keystroke_a	a	n/a
305.687	0.076	611374	keystroke_c	c	n/a
305.852	0.045	611704	keystroke_c	c	n/a
306.1515	0.09	612303	keystroke_e	e	n/a
306.393	0.09	612786	keystroke_p	p	n/a
306.573	0.0735	613146	keystroke_t	t	n/a
306.7525	0.074	613505	keystroke_i	i	n/a
306.8565	0.075	613713	keystroke_n	n	n/a
307.0675	0.0595	614135	keystroke_g	g	n/a
307.741	0.105	615482	keystroke_Key.enter	Key.enter	n/a
307.8555	7.761	615711	prompt	n/a	suspect gourmet feof unto\n
308.536	0.1045	617072	keystroke_s	s	n/a
308.7315	0.0895	617463	keystroke_u	u	n/a
308.851	0.046	617702	keystroke_s	s	n/a
309.107	0.09	618214	keystroke_p	p	n/a
309.212	0.059	618424	keystroke_e	e	n/a
309.407	0.075	618814	keystroke_c	c	n/a
309.617	0.045	619234	keystroke_t	t	n/a
310.0655	0.1205	620131	keystroke_Key.space	Key.space	n/a
310.3815	0.075	620763	keystroke_g	g	n/a
310.4855	0.106	620971	keystroke_o	o	n/a
310.6515	0.09	621303	keystroke_u	u	n/a
311.1915	0.0895	622383	keystroke_r	r	n/a
311.536	0.06	623072	keystroke_m	m	n/a
311.596	0.12	623192	keystroke_e	e	n/a
311.7305	0.0905	623461	keystroke_t	t	n/a
312.3295	0.1055	624659	keystroke_Key.space	Key.space	n/a
312.9595	0.091	625919	keystroke_f	f	n/a
313.0795	0.091	626159	keystroke_e	e	n/a
313.3805	0.09	626761	keystroke_o	o	n/a
313.4855	0.074	626971	keystroke_f	f	n/a
313.7095	0.105	627419	keystroke_Key.space	Key.space	n/a
314.234	0.076	628468	keystroke_u	u	n/a
314.58	0.06	629160	keystroke_n	n	n/a
314.7	0.074	629400	keystroke_t	t	n/a
314.82	0.0745	629640	keystroke_o	o	n/a
315.4795	0.134	630959	keystroke_Key.enter	Key.enter	n/a
315.621	7.748	631242	prompt	n/a	trades nutritional ties mess\n
316.3195	0.0745	632639	keystroke_t	t	n/a
316.529	0.09	633058	keystroke_r	r	n/a
316.6635	0.181	633327	keystroke_a	a	n/a
316.8145	0.0895	633629	keystroke_d	d	n/a
316.994	0.075	633988	keystroke_e	e	n/a
317.144	0.089	634288	keystroke_s	s	n/a
317.503	0.091	635006	keystroke_Key.space	Key.space	n/a
317.9085	0.044	635817	keystroke_n	n	n/a
318.179	0.045	636358	keystroke_u	u	n/a
318.329	0.06	636658	keystroke_t	t	n/a
318.4775	0.09	636955	keystroke_r	r	n/a
318.5835	0.06	637167	keystroke_i	i	n/a
319.7235	0.045	639447	keystroke_t	t	n/a
319.8435	0.104	639687	keystroke_i	i	n/a
319.993	0.134	639986	keystroke_o	o	n/a
320.113	0.105	640226	keystroke_n	n	n/a
320.233	0.09	640466	keystroke_a	a	n/a
320.337	0.1065	640674	keystroke_l	l	n/a
320.4575	0.1355	640915	keystroke_Key.space	Key.space	n/a
321.358	0.075	642716	keystroke_t	t	n/a
321.478	0.0745	642956	keystroke_i	i	n/a
321.6425	0.06	643285	keystroke_e	e	n/a
321.8825	0.015	643765	keystroke_s	s	n/a
321.9725	0.1035	643945	keystroke_Key.space	Key.space	n/a
322.2265	0.061	644453	keystroke_m	m	n/a
322.3025	0.06	644605	keystroke_e	e	n/a
322.4825	0.0745	644965	keystroke_s	s	n/a
322.722	0.015	645444	keystroke_s	s	n/a
323.247	0.12	646494	keystroke_Key.enter	Key.enter	n/a
323.375	7.7305	646750	prompt	n/a	thee professionals eagle creates\n
324.042	0.0585	648084	keystroke_t	t	n/a
324.4315	0.06	648863	keystroke_h	h	n/a
324.6715	0.06	649343	keystroke_e	e	n/a
324.8215	0.075	649643	keystroke_e	e	n/a
325.076	0.0905	650152	keystroke_Key.space	Key.space	n/a
325.3315	0.105	650663	keystroke_p	p	n/a
325.4365	0.06	650873	keystroke_r	r	n/a
325.556	0.075	651112	keystroke_o	o	n/a
325.691	0.15	651382	keystroke_f	f	n/a
325.826	0.06	651652	keystroke_e	e	n/a
326.005	0.0605	652010	keystroke_s	s	n/a
326.1555	0.075	652311	keystroke_s	s	n/a
326.2755	0.105	652551	keystroke_i	i	n/a
326.3805	0.135	652761	keystroke_o	o	n/a
326.5005	0.105	653001	keystroke_n	n	n/a
326.5755	0.105	653151	keystroke_a	a	n/a
326.6955	0.105	653391	keystroke_l	l	n/a
327.0555	0.1045	654111	keystroke_Key.space	Key.space	n/a
327.4005	0.06	654801	keystroke_e	e	n/a
327.595	0.18	655190	keystroke_a	a	n/a
327.745	0.105	655490	keystroke_g	g	n/a
327.955	0.075	655910	keystroke_l	l	n/a
328.015	0.075	656030	keystroke_e	e	n/a
328.18	0.075	656360	keystroke_s	s	n/a
328.405	0.119	656810	keystroke_Key.space	Key.space	n/a
328.6	0.0895	657200	keystroke_c	c	n/a
328.8845	0.18	657769	keystroke_r	r	n/a
329.0195	0.135	658039	keystroke_e	e	n/a
329.2295	0.165	658459	keystroke_a	a	n/a
329.4095	0.0445	658819	keystroke_t	t	n/a
329.4395	0.0895	658879	keystroke_e	e	n/a
329.604	0.09	659208	keystroke_s	s	n/a
330.9835	0.12	661967	keystroke_Key.enter	Key.enter	n/a
331.11	7.4175	662220	prompt	n/a	custom intelligence wins families\n
331.658	0.105	663316	keystroke_c	c	n/a
331.808	0.075	663616	keystroke_u	u	n/a
331.943	0.135	663886	keystroke_s	s	n/a
332.048	0.105	664096	keystroke_t	t	n/a
332.138	0.075	664276	keystroke_o	o	n/a
332.8425	0.09	665685	keystroke_m	m	n/a
333.3375	0.12	666675	keystroke_Key.space	Key.space	n/a
333.757	0.075	667514	keystroke_i	i	n/a
333.862	0.075	667724	keystroke_n	n	n/a
334.027	0.12	668054	keystroke_t	t	n/a
334.132	0.075	668264	keystroke_e	e	n/a
334.328	0.074	668656	keystroke_l	l	n/a
334.507	0.09	669014	keystroke_l	l	n/a
334.7315	0.06	669463	keystroke_i	i	n/a
334.8665	0.09	669733	keystroke_g	g	n/a
335.0315	0.1055	670063	keystroke_e	e	n/a
335.152	0.0895	670304	keystroke_n	n	n/a
335.2715	0.12	670543	keystroke_c	c	n/a
335.3615	0.091	670723	keystroke_e	e	n/a
335.751	0.12	671502	keystroke_Key.space	Key.space	n/a
335.916	0.075	671832	keystroke_w	w	n/a
336.006	0.075	672012	keystroke_i	i	n/a
336.126	0.075	672252	keystroke_n	n	n/a
336.216	0.06	672432	keystroke_s	s	n/a
336.486	0.09	672972	keystroke_Key.space	Key.space	n/a
336.666	0.12	673332	keystroke_f	f	n/a
336.771	0.12	673542	keystroke_a	a	n/a
336.921	0.06	673842	keystroke_m	m	n/a
337.116	0.075	674232	keystroke_i	i	n/a
337.3405	0.09	674681	keystroke_l	l	n/a
337.4755	0.09	674951	keystroke_i	i	n/a
337.6105	0.075	675221	keystroke_e	e	n/a
337.7605	0.105	675521	keystroke_s	s	n/a
338.4055	0.12	676811	keystroke_Key.enter	Key.enter	n/a
338.531	12.3975	677062	prompt	n/a	hypothesis changelog barbados blogs\n
339.425	0.09	678850	keystroke_h	h	n/a
339.8	0.075	679600	keystroke_y	y	n/a
340.6545	0.0905	681309	keystroke_p	p	n/a
341.539	0.076	683078	keystroke_o	o	n/a
341.749	0.09	683498	keystroke_t	t	n/a
341.854	0.06	683708	keystroke_h	h	n/a
342.019	0.075	684038	keystroke_e	e	n/a
342.215	0.074	684430	keystroke_s	s	n/a
342.319	0.061	684638	keystroke_i	i	n/a
342.4235	0.075	684847	keystroke_s	s	n/a
342.8285	0.105	685657	keystroke_Key.space	Key.space	n/a
343.1145	0.104	686229	keystroke_c	c	n/a
343.2635	0.061	686527	keystroke_h	h	n/a
343.3985	0.09	686797	keystroke_a	a	n/a
344.598	0.06	689196	keystroke_n	n	n/a
345.033	0.105	690066	keystroke_g	g	n/a
345.289	0.09	690578	keystroke_e	e	n/a
345.5875	0.06	691175	keystroke_l	l	n/a
345.7675	0.06	691535	keystroke_o	o	n/a
345.8425	0.075	691685	keystroke_g	g	n/a
346.5025	0.12	693005	keystroke_Key.space	Key.space	n/a
346.8325	0.06	693665	keystroke_b	b	n/a
346.9375	0.1195	693875	keystroke_a	a	n/a
347.0125	0.0895	694025	keystroke_r	r	n/a
347.327	0.09	694654	keystroke_b	b	n/a
347.808	0.09	695616	keystroke_a	a	n/a
347.942	0.106	695884	keystroke_d	d	n/a
348.1665	0.075	696333	keystroke_o	o	n/a
348.468	0.059	696936	keystroke_s	s	n/a
348.6915	0.105	697383	keystroke_Key.space	Key.space	n/a
349.0515	0.09	698103	keystroke_b	b	n/a
349.3675	0.089	698735	keystroke_l	l	n/a
349.621	0.09	699242	keystroke_o	o	n/a
349.862	0.089	699724	keystroke_g	g	n/a
350.071	0.0905	700142	keystroke_s	s	n/a
350.8205	0.105	701641	keystroke_Key.enter	Key.enter	n/a
350.9335	6.607	701867	prompt	n/a	laid elect working wondering\n
351.9615	0.06	703923	keystroke_l	l	n/a
352.0355	0.106	704071	keystroke_a	a	n/a
352.1555	0.0755	704311	keystroke_i	i	n/a
352.215	0.09	704430	keystroke_d	d	n/a
352.41	0.105	704820	keystroke_Key.space	Key.space	n/a
352.635	0.075	705270	keystroke_e	e	n/a
352.785	0.09	705570	keystroke_l	l	n/a
352.891	0.059	705782	keystroke_e	e	n/a
353.085	0.06	706170	keystroke_c	c	n/a
353.251	0.104	706502	keystroke_t	t	n/a
353.535	0.12	707070	keystroke_Key.space	Key.space	n/a
353.7	0.0895	707400	keystroke_w	w	n/a
353.7915	0.088	707583	keystroke_o	o	n/a
353.8945	0.061	707789	keystroke_r	r	n/a
353.9995	0.075	707999	keystroke_k	k	n/a
354.1805	0.059	708361	keystroke_i	i	n/a
354.2555	0.074	708511	keystroke_n	n	n/a
354.3305	0.059	708661	keystroke_g	g	n/a
354.5995	0.105	709199	keystroke_Key.space	Key.space	n/a
355.0355	0.1045	710071	keystroke_w	w	n/a
355.23	0.075	710460	keystroke_o	o	n/a
355.439	0.075	710878	keystroke_n	n	n/a
355.53	0.089	711060	keystroke_d	d	n/a
355.709	0.0905	711418	keystroke_e	e	n/a
355.7835	0.091	711567	keystroke_r	r	n/a
355.9635	0.061	711927	keystroke_i	i	n/a
356.0395	0.074	712079	keystroke_n	n	n/a
356.1435	0.061	712287	keystroke_g	g	n/a
357.418	0.12	714836	keystroke_Key.enter	Key.enter	n/a
357.5445	13.761	715089	prompt	n/a	incorporated deborah equivalent nursing\n
358.274	0.075	716548	keystroke_i	i	n/a
358.409	0.075	716818	keystroke_n	n	n/a
358.6935	0.09	717387	keystroke_c	c	n/a
358.8425	0.075	717685	keystroke_o	o	n/a
358.9335	0.09	717867	keystroke_r	r	n/a
359.1735	0.044	718347	keystroke_p	p	n/a
359.6235	0.09	719247	keystroke_o	o	n/a
359.7735	0.1195	719547	keystroke_r	r	n/a
359.937	0.121	719874	keystroke_a	a	n/a
360.042	0.091	720084	keystroke_t	t	n/a
360.118	0.089	720236	keystroke_e	e	n/a
360.718	0.089	721436	keystroke_Key.space	Key.space	n/a
361.1075	0.059	722215	keystroke_d	d	n/a
361.2565	0.091	722513	keystroke_e	e	n/a
361.6325	0.074	723265	keystroke_b	b	n/a
361.7975	0.074	723595	keystroke_o	o	n/a
361.977	0.09	723954	keystroke_r	r	n/a
362.141	0.106	724282	keystroke_a	a	n/a
362.261	0.061	724522	keystroke_h	h	n/a
362.741	0.105	725482	keystroke_Key.space	Key.space	n/a
363.0415	0.09	726083	keystroke_e	e	n/a
363.2515	0.104	726503	keystroke_q	q	n/a
363.5065	0.134	727013	keystroke_u	u	n/a
363.6565	0.075	727313	keystroke_i	i	n/a
363.9105	0.091	727821	keystroke_v	v	n/a
364.0615	0.12	728123	keystroke_a	a	n/a
364.3765	0.0745	728753	keystroke_l	l	n/a
364.496	0.075	728992	keystroke_e	e	n/a
364.631	0.075	729262	keystroke_n	n	n/a
364.721	0.045	729442	keystroke_t	t	n/a
365.021	0.105	730042	keystroke_Key.space	Key.space	n/a
365.396	0.059	730792	keystroke_h	h	n/a
365.605	0.061	731210	keystroke_u	u	n/a
365.771	0.075	731542	keystroke_r	r	n/a
366.0105	0.09	732021	keystroke_s	s	n/a
366.1305	0.06	732261	keystroke_i	i	n/a
366.2205	0.105	732441	keystroke_n	n	n/a
366.3105	0.075	732621	keystroke_g	g	n/a
367.2095	0.061	734419	keystroke_Key.backspace	Key.backspace	n/a
367.3895	0.09	734779	keystroke_Key.backspace	Key.backspace	n/a
367.5995	0.0445	735199	keystroke_Key.backspace	Key.backspace	n/a
367.75	0.075	735500	keystroke_Key.backspace	Key.backspace	n/a
367.914	0.09	735828	keystroke_Key.backspace	Key.backspace	n/a
368.064	0.09	736128	keystroke_Key.backspace	Key.backspace	n/a
368.334	0.091	736668	keystroke_Key.backspace	Key.backspace	n/a
369.0845	0.09	738169	keystroke_n	n	n/a
369.3245	0.06	738649	keystroke_u	u	n/a
369.3995	0.075	738799	keystroke_r	r	n/a
370.1195	0.12	740239	keystroke_s	s	n/a
370.2835	0.091	740567	keystroke_i	i	n/a
370.3885	0.106	740777	keystroke_n	n	n/a
370.5085	0.076	741017	keystroke_g	g	n/a
371.199	0.104	742398	keystroke_Key.enter	Key.enter	n/a
371.3105	14.93	742621	prompt	n/a	reasonably rain tsunami he've\n
372.0685	0.105	744137	keystroke_r	r	n/a
372.1435	0.105	744287	keystroke_e	e	n/a
372.3375	0.121	744675	keystroke_a	a	n/a
372.4875	0.106	744975	keystroke_s	s	n/a
372.6235	0.1195	745247	keystroke_o	o	n/a
372.7585	0.1035	745517	keystroke_n	n	n/a
375.145	0.087	750290	keystroke_a	a	n/a
375.217	0.075	750434	keystroke_b	b	n/a
375.412	0.135	750824	keystroke_l	l	n/a
375.577	0.06	751154	keystroke_y	y	n/a
376.042	0.119	752084	keystroke_Key.space	Key.space	n/a
376.342	0.105	752684	keystroke_r	r	n/a
376.447	0.12	752894	keystroke_a	a	n/a
376.597	0.06	753194	keystroke_i	i	n/a
376.672	0.0895	753344	keystroke_n	n	n/a
377.2865	0.105	754573	keystroke_Key.space	Key.space	n/a
377.5715	0.075	755143	keystroke_t	t	n/a
377.9615	0.12	755923	keystroke_s	s	n/a
378.1415	0.06	756283	keystroke_u	u	n/a
378.456	0.075	756912	keystroke_n	n	n/a
378.606	0.12	757212	keystroke_a	a	n/a
378.876	0.06	757752	keystroke_m	m	n/a
379.026	0.075	758052	keystroke_i	i	n/a
379.446	0.09	758892	keystroke_Key.space	Key.space	n/a
379.716	0.075	759432	keystroke_h	h	n/a
379.836	0.0745	759672	keystroke_e	e	n/a
381.08	0.12	762160	keystroke_'	'	n/a
381.335	0.105	762670	keystroke_v	v	n/a
381.515	0.09	763030	keystroke_e	e	n/a
386.1965	0.042	772393	keystroke_Key.enter	Key.enter	n/a
386.247	6.9055	772494	prompt	n/a	deck broad dump native\n
386.8235	0.0745	773647	keystroke_d	d	n/a
387.003	0.075	774006	keystroke_e	e	n/a
387.198	0.06	774396	keystroke_c	c	n/a
387.318	0.075	774636	keystroke_k	k	n/a
388.8775	0.09	777755	keystroke_Key.space	Key.space	n/a
389.147	0.0605	778294	keystroke_b	b	n/a
389.2375	0.089	778475	keystroke_r	r	n/a
389.4465	0.075	778893	keystroke_o	o	n/a
389.5365	0.105	779073	keystroke_a	a	n/a
389.6125	0.089	779225	keystroke_d	d	n/a
389.8665	0.105	779733	keystroke_Key.space	Key.space	n/a
390.0925	0.1045	780185	keystroke_d	d	n/a
390.317	0.075	780634	keystroke_u	u	n/a
390.556	0.106	781112	keystroke_m	m	n/a
390.737	0.105	781474	keystroke_p	p	n/a
390.9605	0.106	781921	keystroke_Key.space	Key.space	n/a
391.2015	0.075	782403	keystroke_n	n	n/a
391.2465	0.224	782493	keystroke_a	a	n/a
391.4415	0.074	782883	keystroke_t	t	n/a
391.5605	0.076	783121	keystroke_i	i	n/a
391.7255	0.061	783451	keystroke_v	v	n/a
391.8305	0.106	783661	keystroke_e	e	n/a
393.061	0.089	786122	keystroke_Key.enter	Key.enter	n/a
393.1575	6.624	786315	prompt	n/a	toll theaters sectors post\n
393.72	0.091	787440	keystroke_t	t	n/a
393.841	0.075	787682	keystroke_o	o	n/a
394.066	0.059	788132	keystroke_l	l	n/a
394.231	0.059	788462	keystroke_l	l	n/a
394.5155	0.075	789031	keystroke_Key.space	Key.space	n/a
394.92	0.075	789840	keystroke_t	t	n/a
395.04	0.075	790080	keystroke_h	h	n/a
395.205	0.105	790410	keystroke_e	e	n/a
395.355	0.225	790710	keystroke_a	a	n/a
395.535	0.09	791070	keystroke_t	t	n/a
395.79	0.135	791580	keystroke_e	e	n/a
395.91	0.075	791820	keystroke_r	r	n/a
396.09	0.09	792180	keystroke_s	s	n/a
396.375	0.105	792750	keystroke_Key.space	Key.space	n/a
396.57	0.105	793140	keystroke_s	s	n/a
396.705	0.1045	793410	keystroke_e	e	n/a
396.9595	0.075	793919	keystroke_c	c	n/a
397.1845	0.06	794369	keystroke_t	t	n/a
397.2895	0.09	794579	keystroke_o	o	n/a
397.3805	0.074	794761	keystroke_r	r	n/a
397.5445	0.09	795089	keystroke_s	s	n/a
397.8445	0.105	795689	keystroke_Key.space	Key.space	n/a
398.159	0.12	796318	keystroke_p	p	n/a
398.399	0.075	796798	keystroke_o	o	n/a
398.519	0.1345	797038	keystroke_s	s	n/a
398.624	0.1045	797248	keystroke_t	t	n/a
399.7035	0.0755	799407	keystroke_Key.enter	Key.enter	n/a
399.787	6.6815	799574	prompt	n/a	jack artificial luxury jane\n
400.4385	0.06	800877	keystroke_j	j	n/a
400.5435	0.15	801087	keystroke_a	a	n/a
400.6785	0.09	801357	keystroke_c	c	n/a
400.7835	0.0595	801567	keystroke_k	k	n/a
401.203	0.135	802406	keystroke_Key.space	Key.space	n/a
401.398	0.18	802796	keystroke_a	a	n/a
401.503	0.105	803006	keystroke_r	r	n/a
401.728	0.075	803456	keystroke_t	t	n/a
401.818	0.075	803636	keystroke_i	i	n/a
401.9675	0.0755	803935	keystroke_f	f	n/a
402.058	0.09	804116	keystroke_i	i	n/a
402.268	0.09	804536	keystroke_c	c	n/a
402.448	0.06	804896	keystroke_i	i	n/a
402.553	0.09	805106	keystroke_a	a	n/a
402.658	0.09	805316	keystroke_l	l	n/a
402.8825	0.105	805765	keystroke_Key.space	Key.space	n/a
403.1825	0.09	806365	keystroke_l	l	n/a
403.3175	0.075	806635	keystroke_u	u	n/a
404.067	0.09	808134	keystroke_x	x	n/a
404.427	0.045	808854	keystroke_u	u	n/a
404.577	0.075	809154	keystroke_r	r	n/a
404.697	0.06	809394	keystroke_y	y	n/a
405.102	0.09	810204	keystroke_Key.space	Key.space	n/a
405.402	0.06	810804	keystroke_j	j	n/a
405.477	0.1195	810954	keystroke_a	a	n/a
405.6265	0.09	811253	keystroke_n	n	n/a
405.7315	0.06	811463	keystroke_e	e	n/a
406.3615	0.105	812723	keystroke_Key.enter	Key.enter	n/a
406.4745	13.2645	812949	prompt	n/a	cyprus montana cardiac travelling\n
407.276	0.09	814552	keystroke_c	c	n/a
407.816	0.075	815632	keystroke_u	u	n/a
409.255	0.09	818510	keystroke_Key.backspace	Key.backspace	n/a
409.765	0.06	819530	keystroke_y	y	n/a
410.575	0.075	821150	keystroke_p	p	n/a
410.695	0.09	821390	keystroke_r	r	n/a
410.845	0.06	821690	keystroke_u	u	n/a
410.935	0.09	821870	keystroke_s	s	n/a
411.6695	0.12	823339	keystroke_Key.space	Key.space	n/a
413.8765	0.042	827753	keystroke_m	m	n/a
414.0685	0.09	828137	keystroke_o	o	n/a
414.1885	0.075	828377	keystroke_n	n	n/a
414.3535	0.09	828707	keystroke_t	t	n/a
414.5035	0.075	829007	keystroke_a	a	n/a
414.6235	0.06	829247	keystroke_n	n	n/a
414.698	0.106	829396	keystroke_a	a	n/a
415.148	0.12	830296	keystroke_Key.space	Key.space	n/a
416.018	0.09	832036	keystroke_c	c	n/a
416.213	0.15	832426	keystroke_a	a	n/a
416.303	0.12	832606	keystroke_r	r	n/a
416.528	0.09	833056	keystroke_d	d	n/a
416.634	0.074	833268	keystroke_i	i	n/a
416.7675	0.105	833535	keystroke_a	a	n/a
416.9025	0.09	833805	keystroke_c	c	n/a
417.0975	0.12	834195	keystroke_Key.space	Key.space	n/a
417.2775	0.075	834555	keystroke_t	t	n/a
417.5325	0.075	835065	keystroke_r	r	n/a
417.6825	0.105	835365	keystroke_a	a	n/a
417.8475	0.075	835695	keystroke_v	v	n/a
417.9975	0.105	835995	keystroke_e	e	n/a
418.3425	0.0895	836685	keystroke_l	l	n/a
418.582	0.09	837164	keystroke_l	l	n/a
418.777	0.09	837554	keystroke_i	i	n/a
418.897	0.105	837794	keystroke_n	n	n/a
418.957	0.09	837914	keystroke_g	g	n/a
419.617	0.12	839234	keystroke_Key.enter	Key.enter	n/a
419.7435	13.2355	839487	prompt	n/a	bucks reached delight preservation\n
420.4715	0.06	840943	keystroke_b	b	n/a
420.7115	0.06	841423	keystroke_u	u	n/a
420.921	0.075	841842	keystroke_c	c	n/a
421.026	0.09	842052	keystroke_k	k	n/a
421.581	0.105	843162	keystroke_s	s	n/a
421.851	0.105	843702	keystroke_Key.space	Key.space	n/a
422.061	0.105	844122	keystroke_r	r	n/a
422.136	0.105	844272	keystroke_e	e	n/a
422.3755	0.1355	844751	keystroke_a	a	n/a
422.526	0.0745	845052	keystroke_c	c	n/a
422.9455	0.06	845891	keystroke_h	h	n/a
423.1265	0.044	846253	keystroke_e	e	n/a
423.2455	0.09	846491	keystroke_d	d	n/a
423.5905	0.105	847181	keystroke_Key.space	Key.space	n/a
423.8005	0.0595	847601	keystroke_d	d	n/a
423.9515	0.0885	847903	keystroke_e	e	n/a
424.16	0.06	848320	keystroke_l	l	n/a
424.296	0.089	848592	keystroke_i	i	n/a
424.475	0.031	848950	keystroke_g	g	n/a
424.52	0.075	849040	keystroke_h	h	n/a
424.625	0.06	849250	keystroke_t	t	n/a
425.42	0.1195	850840	keystroke_Key.space	Key.space	n/a
425.7345	0.105	851469	keystroke_p	p	n/a
425.8095	0.15	851619	keystroke_r	r	n/a
425.9145	0.105	851829	keystroke_e	e	n/a
426.2005	0.089	852401	keystroke_w	w	n/a
426.2745	0.15	852549	keystroke_e	e	n/a
427.2195	0.1045	854439	keystroke_Key.backspace	Key.backspace	n/a
428.284	0.09	856568	keystroke_Key.backspace	Key.backspace	n/a
429.019	0.1505	858038	keystroke_s	s	n/a
429.1695	0.105	858339	keystroke_e	e	n/a
429.2745	0.104	858549	keystroke_r	r	n/a
430.0685	0.106	860137	keystroke_v	v	n/a
430.2035	0.151	860407	keystroke_a	a	n/a
430.4435	0.075	860887	keystroke_t	t	n/a
430.5785	0.1195	861157	keystroke_i	i	n/a
430.699	0.105	861398	keystroke_o	o	n/a
430.774	0.134	861548	keystroke_n	n	n/a
432.8875	0.09	865775	keystroke_Key.enter	Key.enter	n/a
432.983	8.9645	865966	prompt	n/a	fail catering culture something's\n
433.548	0.089	867096	keystroke_f	f	n/a
433.682	0.105	867364	keystroke_a	a	n/a
433.847	0.06	867694	keystroke_i	i	n/a
434.027	0.075	868054	keystroke_l	l	n/a
434.282	0.105	868564	keystroke_Key.space	Key.space	n/a
434.568	0.134	869136	keystroke_c	c	n/a
434.687	0.136	869374	keystroke_a	a	n/a
434.882	0.106	869764	keystroke_t	t	n/a
435.6775	0.104	871355	keystroke_e	e	n/a
435.8415	0.091	871683	keystroke_r	r	n/a
436.0365	0.061	872073	keystroke_i	i	n/a
436.1425	0.059	872285	keystroke_n	n	n/a
436.2175	0.075	872435	keystroke_g	g	n/a
436.696	0.105	873392	keystroke_Key.space	Key.space	n/a
436.996	0.105	873992	keystroke_c	c	n/a
437.191	0.06	874382	keystroke_u	u	n/a
437.356	0.09	874712	keystroke_l	l	n/a
437.491	0.075	874982	keystroke_t	t	n/a
437.596	0.075	875192	keystroke_u	u	n/a
437.821	0.09	875642	keystroke_r	r	n/a
438.016	0.075	876032	keystroke_e	e	n/a
438.421	0.135	876842	keystroke_Key.space	Key.space	n/a
438.8415	0.119	877683	keystroke_s	s	n/a
438.9615	0.074	877923	keystroke_o	o	n/a
439.2155	0.09	878431	keystroke_m	m	n/a
439.3205	0.091	878641	keystroke_e	e	n/a
439.5015	0.075	879003	keystroke_t	t	n/a
439.6055	0.076	879211	keystroke_h	h	n/a
439.8015	0.06	879603	keystroke_i	i	n/a
439.906	0.09	879812	keystroke_n	n	n/a
439.981	0.075	879962	keystroke_g	g	n/a
440.7155	0.105	881431	keystroke_'	'	n/a
440.8055	0.105	881611	keystroke_s	s	n/a
441.075	0.105	882150	keystroke_Key.space	Key.space	n/a
441.8255	0.12	883651	keystroke_Key.enter	Key.enter	n/a
441.9535	10.011	883907	prompt	n/a	carpet tommy dist scholarship\n
442.7255	0.15	885451	keystroke_c	c	n/a
442.8605	0.135	885721	keystroke_a	a	n/a
443.115	0.075	886230	keystroke_r	r	n/a
443.325	0.105	886650	keystroke_p	p	n/a
443.475	0.105	886950	keystroke_e	e	n/a
443.55	0.12	887100	keystroke_t	t	n/a
443.925	0.105	887850	keystroke_Key.space	Key.space	n/a
444.12	0.06	888240	keystroke_t	t	n/a
444.195	0.075	888390	keystroke_o	o	n/a
444.5545	0.06	889109	keystroke_m	m	n/a
444.7495	0.075	889499	keystroke_m	m	n/a
444.9595	0.075	889919	keystroke_y	y	n/a
445.2145	0.105	890429	keystroke_Key.space	Key.space	n/a
445.4545	0.105	890909	keystroke_d	d	n/a
445.6045	0.075	891209	keystroke_i	i	n/a
445.7095	0.12	891419	keystroke_s	s	n/a
445.8145	0.09	891629	keystroke_t	t	n/a
446.0995	0.09	892199	keystroke_Key.space	Key.space	n/a
446.3695	0.135	892739	keystroke_s	s	n/a
446.699	0.06	893398	keystroke_h	h	n/a
448.4685	0.075	896937	keystroke_Key.backspace	Key.backspace	n/a
448.6485	0.075	897297	keystroke_Key.backspace	Key.backspace	n/a
449.4885	0.09	898977	keystroke_s	s	n/a
449.728	0.105	899456	keystroke_c	c	n/a
449.908	0.09	899816	keystroke_h	h	n/a
450.103	0.09	900206	keystroke_o	o	n/a
450.388	0.075	900776	keystroke_l	l	n/a
450.448	0.12	900896	keystroke_a	a	n/a
450.523	0.105	901046	keystroke_r	r	n/a
450.778	0.075	901556	keystroke_s	s	n/a
450.854	0.104	901708	keystroke_h	h	n/a
450.988	0.135	901976	keystroke_i	i	n/a
451.138	0.12	902276	keystroke_p	p	n/a
451.8575	0.105	903715	keystroke_Key.enter	Key.enter	n/a
451.9695	6.0835	903939	prompt	n/a	who designated animation they\n
452.6225	0.09	905245	keystroke_w	w	n/a
452.7275	0.09	905455	keystroke_h	h	n/a
452.8475	0.09	905695	keystroke_o	o	n/a
453.1175	0.105	906235	keystroke_Key.space	Key.space	n/a
453.4325	0.0895	906865	keystroke_d	d	n/a
453.627	0.075	907254	keystroke_e	e	n/a
453.807	0.09	907614	keystroke_s	s	n/a
453.927	0.075	907854	keystroke_i	i	n/a
454.092	0.09	908184	keystroke_g	g	n/a
454.183	0.074	908366	keystroke_n	n	n/a
454.332	0.06	908664	keystroke_e	e	n/a
454.497	0.075	908994	keystroke_d	d	n/a
454.707	0.105	909414	keystroke_Key.space	Key.space	n/a
454.902	0.0895	909804	keystroke_a	a	n/a
455.0215	0.09	910043	keystroke_n	n	n/a
455.1715	0.075	910343	keystroke_i	i	n/a
455.3965	0.09	910793	keystroke_m	m	n/a
455.5615	0.21	911123	keystroke_a	a	n/a
455.7565	0.045	911513	keystroke_t	t	n/a
455.8165	0.105	911633	keystroke_i	i	n/a
455.9065	0.105	911813	keystroke_o	o	n/a
455.9815	0.105	911963	keystroke_n	n	n/a
456.5665	0.12	913133	keystroke_Key.space	Key.space	n/a
456.986	0.045	913972	keystroke_t	t	n/a
457.091	0.075	914182	keystroke_h	h	n/a
457.181	0.06	914362	keystroke_e	e	n/a
457.301	0.06	914602	keystroke_y	y	n/a
457.961	0.09	915922	keystroke_Key.enter	Key.enter	n/a
458.0585	6.218	916117	prompt	n/a	prices unto falling bars\n
458.8005	0.12	917601	keystroke_p	p	n/a
458.8755	0.075	917751	keystroke_r	r	n/a
459.0105	0.06	918021	keystroke_i	i	n/a
459.1155	0.09	918231	keystroke_c	c	n/a
459.2505	0.075	918501	keystroke_e	e	n/a
459.4155	0.09	918831	keystroke_s	s	n/a
459.7755	0.105	919551	keystroke_Key.space	Key.space	n/a
460.1655	0.09	920331	keystroke_u	u	n/a
460.4055	0.075	920811	keystroke_n	n	n/a
460.57	0.06	921140	keystroke_t	t	n/a
460.69	0.075	921380	keystroke_o	o	n/a
461.215	0.105	922430	keystroke_Key.space	Key.space	n/a
461.44	0.135	922880	keystroke_f	f	n/a
461.56	0.12	923120	keystroke_a	a	n/a
461.92	0.06	923840	keystroke_l	l	n/a
462.07	0.075	924140	keystroke_l	l	n/a
462.265	0.0745	924530	keystroke_i	i	n/a
462.3995	0.075	924799	keystroke_n	n	n/a
462.4895	0.09	924979	keystroke_g	g	n/a
462.9995	0.075	925999	keystroke_Key.space	Key.space	n/a
463.2095	0.06	926419	keystroke_b	b	n/a
463.2995	0.105	926599	keystroke_a	a	n/a
463.3745	0.075	926749	keystroke_r	r	n/a
463.5245	0.09	927049	keystroke_s	s	n/a
464.1695	0.105	928339	keystroke_Key.enter	Key.enter	n/a
464.2825	14.5255	928565	prompt	n/a	years display plaza journalists\n
465.024	0.075	930048	keystroke_y	y	n/a
465.114	0.075	930228	keystroke_e	e	n/a
465.309	0.105	930618	keystroke_r	r	n/a
466.314	0.0895	932628	keystroke_Key.backspace	Key.backspace	n/a
466.5395	0.149	933079	keystroke_a	a	n/a
466.6285	0.09	933257	keystroke_r	r	n/a
466.8235	0.09	933647	keystroke_s	s	n/a
467.1985	0.12	934397	keystroke_Key.space	Key.space	n/a
467.5285	0.075	935057	keystroke_d	d	n/a
467.6785	0.075	935357	keystroke_i	i	n/a
467.7835	0.09	935567	keystroke_s	s	n/a
468.1285	0.105	936257	keystroke_p	p	n/a
468.3385	0.06	936677	keystroke_l	l	n/a
468.4135	0.12	936827	keystroke_a	a	n/a
468.5485	0.0745	937097	keystroke_y	y	n/a
469.013	0.12	938026	keystroke_Key.space	Key.space	n/a
469.268	0.105	938536	keystroke_p	p	n/a
469.478	0.09	938956	keystroke_l	l	n/a
469.583	0.075	939166	keystroke_a	a	n/a
471.8055	0.012	943611	keystroke_a	a	n/a
472.8225	0.09	945645	keystroke_Key.backspace	Key.backspace	n/a
473.0625	0.09	946125	keystroke_z	z	n/a
473.272	0.105	946544	keystroke_a	a	n/a
473.977	0.1345	947954	keystroke_Key.space	Key.space	n/a
474.3815	0.06	948763	keystroke_j	j	n/a
474.6815	0.12	949363	keystroke_o	o	n/a
474.7865	0.09	949573	keystroke_u	u	n/a
474.8615	0.06	949723	keystroke_r	r	n/a
475.1315	0.075	950263	keystroke_n	n	n/a
475.2215	0.09	950443	keystroke_a	a	n/a
475.3565	0.09	950713	keystroke_l	l	n/a
477.037	0.089	954074	keystroke_i	i	n/a
477.246	0.135	954492	keystroke_s	s	n/a
477.351	0.105	954702	keystroke_t	t	n/a
477.637	0.074	955274	keystroke_s	s	n/a
478.7155	0.09	957431	keystroke_Key.enter	Key.enter	n/a
478.8135	8.5	957627	prompt	n/a	frames toronto exists sealed\n
479.3765	0.089	958753	keystroke_f	f	n/a
479.5705	0.09	959141	keystroke_r	r	n/a
479.7355	0.121	959471	keystroke_a	a	n/a
479.8855	0.076	959771	keystroke_m	m	n/a
480.0055	0.06	960011	keystroke_e	e	n/a
480.2015	0.075	960403	keystroke_s	s	n/a
480.3955	0.105	960791	keystroke_Key.space	Key.space	n/a
480.5755	0.0745	961151	keystroke_t	t	n/a
480.68	0.076	961360	keystroke_o	o	n/a
481.281	0.075	962562	keystroke_r	r	n/a
481.58	0.105	963160	keystroke_o	o	n/a
481.97	0.061	963940	keystroke_n	n	n/a
482.195	0.06	964390	keystroke_t	t	n/a
482.285	0.075	964570	keystroke_o	o	n/a
482.9445	0.12	965889	keystroke_Key.space	Key.space	n/a
483.1095	0.045	966219	keystroke_e	e	n/a
483.3045	0.061	966609	keystroke_x	x	n/a
483.6195	0.09	967239	keystroke_i	i	n/a
483.8445	0.12	967689	keystroke_s	s	n/a
483.9945	0.075	967989	keystroke_t	t	n/a
484.2495	0.076	968499	keystroke_s	s	n/a
484.5045	0.105	969009	keystroke_Key.space	Key.space	n/a
484.7305	0.089	969461	keystroke_s	s	n/a
485.0005	0.074	970001	keystroke_e	e	n/a
485.1355	0.12	970271	keystroke_a	a	n/a
485.3145	0.091	970629	keystroke_l	l	n/a
485.4505	0.029	970901	keystroke_e	e	n/a
485.5855	0.0735	971171	keystroke_d	d	n/a
487.204	0.1045	974408	keystroke_Key.enter	Key.enter	n/a
487.319	9.47	974638	prompt	n/a	examinations bacon male johns\n
487.9395	0.074	975879	keystroke_e	e	n/a
488.1635	0.075	976327	keystroke_x	x	n/a
488.4045	0.09	976809	keystroke_a	a	n/a
488.5685	0.076	977137	keystroke_m	m	n/a
488.7495	0.06	977499	keystroke_i	i	n/a
488.9135	0.075	977827	keystroke_n	n	n/a
489.0635	0.151	978127	keystroke_a	a	n/a
489.2595	0.074	978519	keystroke_t	t	n/a
489.3485	0.076	978697	keystroke_i	i	n/a
489.4085	0.15	978817	keystroke_o	o	n/a
489.5135	0.106	979027	keystroke_n	n	n/a
489.6345	0.0735	979269	keystroke_s	s	n/a
490.053	0.105	980106	keystroke_Key.space	Key.space	n/a
490.413	0.061	980826	keystroke_b	b	n/a
490.549	0.059	981098	keystroke_e	e	n/a
491.5075	0.09	983015	keystroke_Key.backspace	Key.backspace	n/a
491.6725	0.166	983345	keystroke_a	a	n/a
491.8985	0.089	983797	keystroke_c	c	n/a
492.1235	0.075	984247	keystroke_o	o	n/a
492.2275	0.09	984455	keystroke_n	n	n/a
492.8575	0.1205	985715	keystroke_Key.space	Key.space	n/a
493.263	0.075	986526	keystroke_m	m	n/a
493.383	0.12	986766	keystroke_a	a	n/a
493.533	0.09	987066	keystroke_l	l	n/a
493.608	0.075	987216	keystroke_e	e	n/a
493.908	0.1045	987816	keystroke_Key.space	Key.space	n/a
494.1925	0.12	988385	keystroke_j	j	n/a
494.3275	0.12	988655	keystroke_o	o	n/a
494.4625	0.075	988925	keystroke_h	h	n/a
494.6725	0.075	989345	keystroke_n	n	n/a
494.7925	0.075	989585	keystroke_s	s	n/a
496.697	0.09	993394	keystroke_Key.enter	Key.enter	n/a
496.8055	12.956	993611	prompt	n/a	permits investigated afterwards possibly\n
497.7765	0.12	995553	keystroke_p	p	n/a
497.8815	0.105	995763	keystroke_e	e	n/a
497.9715	0.12	995943	keystroke_r	r	n/a
498.2715	0.09	996543	keystroke_m	m	n/a
498.4965	0.075	996993	keystroke_i	i	n/a
498.5865	0.075	997173	keystroke_t	t	n/a
498.8115	0.09	997623	keystroke_s	s	n/a
499.0365	0.105	998073	keystroke_Key.space	Key.space	n/a
499.3515	0.075	998703	keystroke_i	i	n/a
499.4715	0.075	998943	keystroke_n	n	n/a
500.0565	0.075	1000113	keystroke_v	v	n/a
500.2965	0.075	1000593	keystroke_e	e	n/a
500.4615	0.1045	1000923	keystroke_s	s	n/a
500.671	0.075	1001342	keystroke_t	t	n/a
500.941	0.06	1001882	keystroke_i	i	n/a
501.136	0.105	1002272	keystroke_g	g	n/a
501.331	0.135	1002662	keystroke_a	a	n/a
501.436	0.09	1002872	keystroke_t	t	n/a
501.541	0.09	1003082	keystroke_e	e	n/a
501.721	0.06	1003442	keystroke_d	d	n/a
502.201	0.105	1004402	keystroke_Key.space	Key.space	n/a
502.531	0.12	1005062	keystroke_a	a	n/a
502.711	0.0745	1005422	keystroke_f	f	n/a
503.1905	0.075	1006381	keystroke_t	t	n/a
503.3705	0.09	1006741	keystroke_e	e	n/a
503.4455	0.075	1006891	keystroke_r	r	n/a
503.9855	0.075	1007971	keystroke_w	w	n/a
504.2855	0.105	1008571	keystroke_r	r	n/a
505.515	0.09	1011030	keystroke_Key.backspace	Key.backspace	n/a
505.635	0.12	1011270	keystroke_a	a	n/a
505.71	0.09	1011420	keystroke_r	r	n/a
505.845	0.135	1011690	keystroke_d	d	n/a
505.995	0.06	1011990	keystroke_s	s	n/a
506.5345	0.12	1013069	keystroke_Key.space	Key.space	n/a
506.88	0.1045	1013760	keystroke_p	p	n/a
506.9995	0.135	1013999	keystroke_o	o	n/a
507.6445	0.195	1015289	keystroke_s	s	n/a
508.0645	0.075	1016129	keystroke_s	s	n/a
508.2745	0.105	1016549	keystroke_i	i	n/a
508.5595	0.06	1017119	keystroke_b	b	n/a
508.8145	0.1345	1017629	keystroke_l	l	n/a
508.934	0.075	1017868	keystroke_y	y	n/a
509.669	0.09	1019338	keystroke_Key.enter	Key.enter	n/a
509.7685	6.5915	1019537	prompt	n/a	banners diane thursday local\n
510.479	0.06	1020958	keystroke_b	b	n/a
510.584	0.135	1021168	keystroke_a	a	n/a
510.749	0.045	1021498	keystroke_n	n	n/a
510.869	0.075	1021738	keystroke_n	n	n/a
510.989	0.105	1021978	keystroke_e	e	n/a
511.079	0.09	1022158	keystroke_r	r	n/a
511.259	0.105	1022518	keystroke_s	s	n/a
511.5285	0.105	1023057	keystroke_Key.space	Key.space	n/a
511.934	0.1045	1023868	keystroke_d	d	n/a
512.129	0.0745	1024258	keystroke_i	i	n/a
512.2635	0.135	1024527	keystroke_a	a	n/a
512.3835	0.075	1024767	keystroke_n	n	n/a
512.4885	0.06	1024977	keystroke_e	e	n/a
512.7135	0.09	1025427	keystroke_Key.space	Key.space	n/a
513.0285	0.075	1026057	keystroke_t	t	n/a
513.1485	0.06	1026297	keystroke_h	h	n/a
513.3585	0.045	1026717	keystroke_u	u	n/a
513.4335	0.075	1026867	keystroke_r	r	n/a
513.5995	0.089	1027199	keystroke_s	s	n/a
513.7935	0.12	1027587	keystroke_d	d	n/a
513.9285	0.105	1027857	keystroke_a	a	n/a
514.0635	0.075	1028127	keystroke_y	y	n/a
514.6335	0.105	1029267	keystroke_Key.space	Key.space	n/a
515.008	0.075	1030016	keystroke_l	l	n/a
515.263	0.075	1030526	keystroke_o	o	n/a
515.368	0.105	1030736	keystroke_c	c	n/a
515.548	0.09	1031096	keystroke_a	a	n/a
515.698	0.075	1031396	keystroke_l	l	n/a
516.253	0.105	1032506	keystroke_Key.enter	Key.enter	n/a
516.365	9.278	1032730	prompt	n/a	limitation auditor jean ghost\n
517.153	0.075	1034306	keystroke_l	l	n/a
517.3025	0.075	1034605	keystroke_i	i	n/a
517.5125	0.105	1035025	keystroke_m	m	n/a
517.7225	0.06	1035445	keystroke_i	i	n/a
517.8125	0.09	1035625	keystroke_t	t	n/a
518.0525	0.195	1036105	keystroke_a	a	n/a
518.2175	0.06	1036435	keystroke_t	t	n/a
518.3525	0.09	1036705	keystroke_i	i	n/a
518.4275	0.121	1036855	keystroke_o	o	n/a
518.5175	0.105	1037035	keystroke_n	n	n/a
519.1025	0.105	1038205	keystroke_Key.space	Key.space	n/a
519.3275	0.075	1038655	keystroke_a	a	n/a
519.4325	0.06	1038865	keystroke_u	u	n/a
519.5225	0.105	1039045	keystroke_d	d	n/a
519.6425	0.075	1039285	keystroke_i	i	n/a
519.7925	0.075	1039585	keystroke_t	t	n/a
519.9425	0.0745	1039885	keystroke_o	o	n/a
520.032	0.06	1040064	keystroke_r	r	n/a
520.347	0.105	1040694	keystroke_Key.space	Key.space	n/a
520.767	0.06	1041534	keystroke_j	j	n/a
520.887	0.075	1041774	keystroke_e	e	n/a
521.022	0.12	1042044	keystroke_a	a	n/a
521.157	0.075	1042314	keystroke_n	n	n/a
521.367	0.09	1042734	keystroke_Key.space	Key.space	n/a
521.607	0.091	1043214	keystroke_h	h	n/a
521.727	0.09	1043454	keystroke_o	o	n/a
521.877	0.15	1043754	keystroke_s	s	n/a
521.997	0.075	1043994	keystroke_t	t	n/a
522.8965	0.09	1045793	keystroke_Key.backspace	Key.backspace	n/a
523.0765	0.075	1046153	keystroke_Key.backspace	Key.backspace	n/a
523.242	0.09	1046484	keystroke_Key.backspace	Key.backspace	n/a
523.4215	0.0905	1046843	keystroke_Key.backspace	Key.backspace	n/a
524.1125	0.105	1048225	keystroke_g	g	n/a
524.2465	0.075	1048493	keystroke_h	h	n/a
524.4115	0.09	1048823	keystroke_o	o	n/a
524.5315	0.105	1049063	keystroke_s	s	n/a
524.6215	0.09	1049243	keystroke_t	t	n/a
525.551	0.09	1051102	keystroke_Key.enter	Key.enter	n/a
525.653	7.6545	1051306	prompt	n/a	graduation seeds gathering fears\n
526.601	0.075	1053202	keystroke_g	g	n/a
526.796	0.075	1053592	keystroke_r	r	n/a
526.931	0.135	1053862	keystroke_a	a	n/a
527.111	0.075	1054222	keystroke_d	d	n/a
527.261	0.06	1054522	keystroke_u	u	n/a
527.426	0.15	1054852	keystroke_a	a	n/a
527.576	0.09	1055152	keystroke_t	t	n/a
527.651	0.076	1055302	keystroke_i	i	n/a
527.742	0.119	1055484	keystroke_o	o	n/a
527.831	0.12	1055662	keystroke_n	n	n/a
528.3405	0.105	1056681	keystroke_Key.space	Key.space	n/a
528.5805	0.091	1057161	keystroke_s	s	n/a
528.7755	0.045	1057551	keystroke_e	e	n/a
528.9255	0.06	1057851	keystroke_e	e	n/a
529.1055	0.06	1058211	keystroke_d	d	n/a
529.2405	0.09	1058481	keystroke_s	s	n/a
529.6755	0.12	1059351	keystroke_Key.space	Key.space	n/a
530.0355	0.075	1060071	keystroke_g	g	n/a
530.1865	0.209	1060373	keystroke_a	a	n/a
530.3355	0.09	1060671	keystroke_t	t	n/a
530.666	0.074	1061332	keystroke_h	h	n/a
530.755	0.105	1061510	keystroke_e	e	n/a
530.83	0.09	1061660	keystroke_r	r	n/a
531.145	0.06	1062290	keystroke_i	i	n/a
531.22	0.075	1062440	keystroke_n	n	n/a
531.296	0.074	1062592	keystroke_g	g	n/a
531.58	0.09	1063160	keystroke_Key.space	Key.space	n/a
531.895	0.09	1063790	keystroke_f	f	n/a
532.135	0.075	1064270	keystroke_e	e	n/a
532.27	0.105	1064540	keystroke_a	a	n/a
532.315	0.105	1064630	keystroke_r	r	n/a
532.511	0.089	1065022	keystroke_s	s	n/a
533.2	0.105	1066400	keystroke_Key.enter	Key.enter	n/a
533.3125	14.5275	1066625	prompt	n/a	they'll examples moment occasionally\n
533.9495	0.075	1067899	keystroke_t	t	n/a
534.0545	0.075	1068109	keystroke_h	h	n/a
534.1595	0.075	1068319	keystroke_e	e	n/a
534.2645	0.076	1068529	keystroke_y	y	n/a
535.6145	0.1045	1071229	keystroke_'	'	n/a
535.899	0.075	1071798	keystroke_l	l	n/a
536.049	0.0755	1072098	keystroke_l	l	n/a
536.589	0.1055	1073178	keystroke_Key.space	Key.space	n/a
536.754	0.075	1073508	keystroke_e	e	n/a
536.965	0.104	1073930	keystroke_x	x	n/a
537.129	0.091	1074258	keystroke_a	a	n/a
537.279	0.105	1074558	keystroke_m	m	n/a
537.609	0.09	1075218	keystroke_p	p	n/a
537.91	0.075	1075820	keystroke_l	l	n/a
537.999	0.06	1075998	keystroke_e	e	n/a
538.149	0.091	1076298	keystroke_s	s	n/a
538.344	0.105	1076688	keystroke_Key.space	Key.space	n/a
538.899	0.091	1077798	keystroke_m	m	n/a
539.02	0.074	1078040	keystroke_o	o	n/a
539.274	0.091	1078548	keystroke_m	m	n/a
539.5895	0.104	1079179	keystroke_e	e	n/a
539.8285	0.045	1079657	keystroke_n	n	n/a
539.9185	0.061	1079837	keystroke_t	t	n/a
540.2335	0.09	1080467	keystroke_Key.space	Key.space	n/a
540.7435	0.09	1081487	keystroke_o	o	n/a
541.1195	0.044	1082239	keystroke_c	c	n/a
541.2985	0.076	1082597	keystroke_c	c	n/a
541.5695	0.105	1083139	keystroke_a	a	n/a
541.8835	0.09	1083767	keystroke_s	s	n/a
542.1085	0.076	1084217	keystroke_u	u	n/a
542.469	0.089	1084938	keystroke_o	o	n/a
542.708	0.091	1085416	keystroke_n	n	n/a
543.5785	0.09	1087157	keystroke_Key.backspace	Key.backspace	n/a
543.7585	0.09	1087517	keystroke_Key.backspace	Key.backspace	n/a
544.0885	0.075	1088177	keystroke_Key.backspace	Key.backspace	n/a
544.6435	0.075	1089287	keystroke_Key.backspace	Key.backspace	n/a
546.128	0.105	1092256	keystroke_s	s	n/a
546.218	0.105	1092436	keystroke_i	i	n/a
546.353	0.09	1092706	keystroke_o	o	n/a
546.458	0.105	1092916	keystroke_n	n	n/a
546.578	0.09	1093156	keystroke_a	a	n/a
546.683	0.06	1093366	keystroke_l	l	n/a
546.848	0.105	1093696	keystroke_l	l	n/a
547.013	0.06	1094026	keystroke_y	y	n/a
547.733	0.105	1095466	keystroke_Key.enter	Key.enter	n/a
547.845	13.6425	1095690	prompt	n/a	respectively stem angola catherine\n
548.693	0.135	1097386	keystroke_r	r	n/a
548.7975	0.075	1097595	keystroke_e	e	n/a
549.0675	0.06	1098135	keystroke_s	s	n/a
549.3075	0.105	1098615	keystroke_p	p	n/a
549.4275	0.075	1098855	keystroke_e	e	n/a
550.0725	0.105	1100145	keystroke_c	c	n/a
550.6575	0.075	1101315	keystroke_t	t	n/a
550.8375	0.09	1101675	keystroke_i	i	n/a
550.9875	0.12	1101975	keystroke_f	f	n/a
552.532	0.06	1105064	keystroke_Key.backspace	Key.backspace	n/a
553.732	0.09	1107464	keystroke_v	v	n/a
553.867	0.105	1107734	keystroke_e	e	n/a
554.062	0.12	1108124	keystroke_l	l	n/a
554.227	0.09	1108454	keystroke_y	y	n/a
554.557	0.09	1109114	keystroke_Key.space	Key.space	n/a
554.9915	0.105	1109983	keystroke_s	s	n/a
555.2165	0.075	1110433	keystroke_t	t	n/a
555.8015	0.075	1111603	keystroke_e	e	n/a
555.9065	0.09	1111813	keystroke_m	m	n/a
556.1765	0.045	1112353	keystroke_Key.space	Key.space	n/a
556.2815	0.105	1112563	keystroke_a	a	n/a
556.3875	0.074	1112775	keystroke_n	n	n/a
556.6115	0.075	1113223	keystroke_g	g	n/a
556.7315	0.075	1113463	keystroke_o	o	n/a
556.9565	0.075	1113913	keystroke_l	l	n/a
557.0465	0.075	1114093	keystroke_a	a	n/a
557.3915	0.0895	1114783	keystroke_Key.space	Key.space	n/a
557.706	0.09	1115412	keystroke_c	c	n/a
557.826	0.12	1115652	keystroke_a	a	n/a
558.096	0.06	1116192	keystroke_t	t	n/a
558.216	0.075	1116432	keystroke_h	h	n/a
559.266	0.09	1118532	keystroke_e	e	n/a
559.551	0.075	1119102	keystroke_r	r	n/a
559.686	0.09	1119372	keystroke_i	i	n/a
559.881	0.075	1119762	keystroke_n	n	n/a
559.971	0.045	1119942	keystroke_e	e	n/a
561.426	0.06	1122852	keystroke_Key.enter	Key.enter	n/a
561.493	8.3485	1122986	prompt	n/a	shorter evans daniel opposition\n
562.1005	0.075	1124201	keystroke_s	s	n/a
562.2505	0.075	1124501	keystroke_h	h	n/a
562.4005	0.06	1124801	keystroke_o	o	n/a
562.4905	0.045	1124981	keystroke_r	r	n/a
562.6255	0.075	1125251	keystroke_t	t	n/a
562.7455	0.12	1125491	keystroke_e	e	n/a
562.8355	0.06	1125671	keystroke_r	r	n/a
563.0905	0.09	1126181	keystroke_Key.space	Key.space	n/a
563.2855	0.09	1126571	keystroke_e	e	n/a
563.5255	0.09	1127051	keystroke_v	v	n/a
563.7505	0.075	1127501	keystroke_a	a	n/a
563.8555	0.075	1127711	keystroke_n	n	n/a
564.0205	0.0745	1128041	keystroke_s	s	n/a
564.2605	0.105	1128521	keystroke_Key.space	Key.space	n/a
565.775	0.09	1131550	keystroke_d	d	n/a
565.985	0.105	1131970	keystroke_a	a	n/a
566.195	0.075	1132390	keystroke_n	n	n/a
566.435	0.06	1132870	keystroke_i	i	n/a
566.57	0.06	1133140	keystroke_e	e	n/a
566.69	0.075	1133380	keystroke_l	l	n/a
566.975	0.105	1133950	keystroke_Key.space	Key.space	n/a
567.215	0.075	1134430	keystroke_o	o	n/a
567.425	0.105	1134850	keystroke_p	p	n/a
567.59	0.105	1135180	keystroke_p	p	n/a
567.815	0.075	1135630	keystroke_o	o	n/a
568.055	0.0895	1136110	keystroke_s	s	n/a
568.1895	0.06	1136379	keystroke_i	i	n/a
568.3095	0.09	1136619	keystroke_t	t	n/a
568.4295	0.075	1136859	keystroke_i	i	n/a
568.9245	0.075	1137849	keystroke_o	o	n/a
569.0445	0.09	1138089	keystroke_n	n	n/a
569.7645	0.075	1139529	keystroke_Key.enter	Key.enter	n/a
569.846	9.295	1139692	prompt	n/a	dies carnival telephone airline\n
570.5745	0.06	1141149	keystroke_d	d	n/a
570.7245	0.075	1141449	keystroke_i	i	n/a
570.9045	0.061	1141809	keystroke_e	e	n/a
571.0545	0.09	1142109	keystroke_s	s	n/a
571.2645	0.1205	1142529	keystroke_Key.space	Key.space	n/a
571.565	0.09	1143130	keystroke_c	c	n/a
571.775	0.1495	1143550	keystroke_a	a	n/a
571.8645	0.09	1143729	keystroke_r	r	n/a
572.2695	0.075	1144539	keystroke_n	n	n/a
572.3895	0.09	1144779	keystroke_i	i	n/a
572.5095	0.135	1145019	keystroke_v	v	n/a
572.6745	0.09	1145349	keystroke_a	a	n/a
572.9595	0.015	1145919	keystroke_l	l	n/a
573.1395	0.105	1146279	keystroke_Key.space	Key.space	n/a
573.6945	0.06	1147389	keystroke_t	t	n/a
574.0695	0.075	1148139	keystroke_e	e	n/a
574.2345	0.075	1148469	keystroke_l	l	n/a
574.3245	0.075	1148649	keystroke_e	e	n/a
574.7145	0.15	1149429	keystroke_p	p	n/a
574.8945	0.135	1149789	keystroke_h	h	n/a
575.1795	0.09	1150359	keystroke_o	o	n/a
575.329	0.09	1150658	keystroke_n	n	n/a
575.404	0.045	1150808	keystroke_e	e	n/a
575.614	0.105	1151228	keystroke_Key.space	Key.space	n/a
575.779	0.165	1151558	keystroke_a	a	n/a
576.109	0.06	1152218	keystroke_i	i	n/a
576.184	0.075	1152368	keystroke_r	r	n/a
576.424	0.075	1152848	keystroke_l	l	n/a
576.604	0.075	1153208	keystroke_i	i	n/a
576.844	0.075	1153688	keystroke_n	n	n/a
576.994	0.075	1153988	keystroke_e	e	n/a
577.159	0.075	1154318	keystroke_s	s	n/a
578.359	0.09	1156718	keystroke_Key.backspace	Key.backspace	n/a
579.034	0.105	1158068	keystroke_Key.enter	Key.enter	n/a
579.1465	10.223	1158293	prompt	n/a	donate designing they'd owned\n
579.8285	0.09	1159657	keystroke_d	d	n/a
579.9785	0.09	1159957	keystroke_o	o	n/a
580.1585	0.09	1160317	keystroke_n	n	n/a
580.4135	0.135	1160827	keystroke_a	a	n/a
580.6235	0.105	1161247	keystroke_t	t	n/a
580.7435	0.09	1161487	keystroke_e	e	n/a
581.1335	0.12	1162267	keystroke_Key.space	Key.space	n/a
581.4785	0.09	1162957	keystroke_d	d	n/a
581.6585	0.075	1163317	keystroke_i	i	n/a
581.7335	0.075	1163467	keystroke_s	s	n/a
583.803	0.075	1167606	keystroke_Key.backspace	Key.backspace	n/a
584.0135	0.0595	1168027	keystroke_Key.backspace	Key.backspace	n/a
584.253	0.075	1168506	keystroke_e	e	n/a
584.448	0.09	1168896	keystroke_s	s	n/a
584.688	0.06	1169376	keystroke_i	i	n/a
584.913	0.09	1169826	keystroke_g	g	n/a
585.198	0.075	1170396	keystroke_n	n	n/a
585.408	0.06	1170816	keystroke_i	i	n/a
585.483	0.075	1170966	keystroke_n	n	n/a
585.543	0.06	1171086	keystroke_g	g	n/a
585.828	0.075	1171656	keystroke_Key.space	Key.space	n/a
586.023	0.075	1172046	keystroke_t	t	n/a
586.128	0.06	1172256	keystroke_h	h	n/a
586.263	0.06	1172526	keystroke_e	e	n/a
586.353	0.09	1172706	keystroke_y	y	n/a
587.1025	0.12	1174205	keystroke_'	'	n/a
587.1925	0.075	1174385	keystroke_d	d	n/a
587.3125	0.135	1174625	keystroke_Key.space	Key.space	n/a
587.5825	0.075	1175165	keystroke_o	o	n/a
587.7475	0.06	1175495	keystroke_w	w	n/a
588.0625	0.075	1176125	keystroke_n	n	n/a
588.2125	0.075	1176425	keystroke_e	e	n/a
588.4525	0.075	1176905	keystroke_d	d	n/a
589.2625	0.105	1178525	keystroke_Key.enter	Key.enter	n/a
589.3745	8.2135	1178749	prompt	n/a	coffee notices dozens no\n
589.997	0.09	1179994	keystroke_c	c	n/a
590.132	0.0905	1180264	keystroke_o	o	n/a
590.282	0.045	1180564	keystroke_f	f	n/a
590.432	0.06	1180864	keystroke_f	f	n/a
590.612	0.075	1181224	keystroke_e	e	n/a
590.747	0.105	1181494	keystroke_e	e	n/a
591.002	0.12	1182004	keystroke_Key.space	Key.space	n/a
591.287	0.09	1182574	keystroke_n	n	n/a
591.392	0.09	1182784	keystroke_o	o	n/a
591.557	0.075	1183114	keystroke_t	t	n/a
591.647	0.075	1183294	keystroke_i	i	n/a
591.782	0.12	1183564	keystroke_c	c	n/a
591.932	0.075	1183864	keystroke_e	e	n/a
592.097	0.105	1184194	keystroke_s	s	n/a
592.502	0.105	1185004	keystroke_Key.space	Key.space	n/a
592.787	0.075	1185574	keystroke_d	d	n/a
592.863	0.074	1185726	keystroke_o	o	n/a
593.252	0.03	1186504	keystroke_e	e	n/a
594.347	0.135	1188694	keystroke_Key.backspace	Key.backspace	n/a
594.872	0.075	1189744	keystroke_z	z	n/a
595.1715	0.06	1190343	keystroke_e	e	n/a
595.367	0.075	1190734	keystroke_n	n	n/a
596.1915	0.09	1192383	keystroke_s	s	n/a
596.4465	0.12	1192893	keystroke_Key.space	Key.space	n/a
596.6565	0.135	1193313	keystroke_n	n	n/a
596.7765	0.12	1193553	keystroke_o	o	n/a
597.4665	0.12	1194933	keystroke_Key.enter	Key.enter	n/a
597.593	15.58	1195186	prompt	n/a	increasingly criteria faqs circle\n
598.3065	0.075	1196613	keystroke_i	i	n/a
598.4565	0.075	1196913	keystroke_n	n	n/a
598.6215	0.075	1197243	keystroke_c	c	n/a
598.8915	0.165	1197783	keystroke_r	r	n/a
599.0415	0.135	1198083	keystroke_e	e	n/a
599.5965	0.12	1199193	keystroke_a	a	n/a
599.9865	0.06	1199973	keystroke_i	i	n/a
600.811	0.06	1201622	keystroke_Key.backspace	Key.backspace	n/a
603.844	0.042	1207688	keystroke_s	s	n/a
604.006	0.09	1208012	keystroke_i	i	n/a
604.126	0.075	1208252	keystroke_n	n	n/a
604.216	0.075	1208432	keystroke_g	g	n/a
604.606	0.135	1209212	keystroke_l	l	n/a
604.7555	0.075	1209511	keystroke_y	y	n/a
605.4305	0.12	1210861	keystroke_Key.space	Key.space	n/a
606.2255	0.09	1212451	keystroke_c	c	n/a
606.5255	0.105	1213051	keystroke_r	r	n/a
606.9905	0.06	1213981	keystroke_i	i	n/a
607.1855	0.09	1214371	keystroke_t	t	n/a
607.3505	0.12	1214701	keystroke_e	e	n/a
607.4555	0.091	1214911	keystroke_r	r	n/a
607.5605	0.06	1215121	keystroke_i	i	n/a
607.6805	0.09	1215361	keystroke_a	a	n/a
608.1755	0.105	1216351	keystroke_Key.space	Key.space	n/a
608.88	0.075	1217760	keystroke_f	f	n/a
609.105	0.12	1218210	keystroke_a	a	n/a
609.33	0.06	1218660	keystroke_g	g	n/a
610.395	0.06	1220790	keystroke_s	s	n/a
610.65	0.1205	1221300	keystroke_Key.space	Key.space	n/a
611.37	0.09	1222740	keystroke_c	c	n/a
611.61	0.06	1223220	keystroke_i	i	n/a
611.715	0.06	1223430	keystroke_r	r	n/a
611.925	0.09	1223850	keystroke_c	c	n/a
612.15	0.075	1224300	keystroke_l	l	n/a
612.435	0.06	1224870	keystroke_e	e	n/a
613.065	0.105	1226130	keystroke_Key.enter	Key.enter	n/a
613.179	6.8625	1226358	prompt	n/a	indication roads thomas replication\n
613.8595	0.075	1227719	keystroke_i	i	n/a
614.0845	0.09	1228169	keystroke_n	n	n/a
614.3395	0.09	1228679	keystroke_d	d	n/a
614.5195	0.045	1229039	keystroke_i	i	n/a
614.6545	0.105	1229309	keystroke_c	c	n/a
614.8345	0.24	1229669	keystroke_a	a	n/a
615.0295	0.09	1230059	keystroke_t	t	n/a
615.1795	0.075	1230359	keystroke_i	i	n/a
615.2695	0.105	1230539	keystroke_o	o	n/a
615.3445	0.12	1230689	keystroke_n	n	n/a
615.6595	0.09	1231319	keystroke_Key.space	Key.space	n/a
615.8545	0.075	1231709	keystroke_r	r	n/a
615.9755	0.074	1231951	keystroke_o	o	n/a
616.0645	0.105	1232129	keystroke_a	a	n/a
616.1545	0.09	1232309	keystroke_d	d	n/a
616.2895	0.09	1232579	keystroke_s	s	n/a
616.4845	0.105	1232969	keystroke_Key.space	Key.space	n/a
616.7395	0.06	1233479	keystroke_t	t	n/a
616.8445	0.075	1233689	keystroke_h	h	n/a
616.9645	0.075	1233929	keystroke_o	o	n/a
617.1745	0.075	1234349	keystroke_m	m	n/a
617.2795	0.12	1234559	keystroke_a	a	n/a
617.3845	0.09	1234769	keystroke_s	s	n/a
617.6095	0.0895	1235219	keystroke_Key.space	Key.space	n/a
617.8045	0.105	1235609	keystroke_r	r	n/a
617.8795	0.09	1235759	keystroke_e	e	n/a
618.104	0.075	1236208	keystroke_p	p	n/a
618.3145	0.06	1236629	keystroke_l	l	n/a
618.4345	0.075	1236869	keystroke_i	i	n/a
618.659	0.09	1237318	keystroke_c	c	n/a
618.7945	0.165	1237589	keystroke_a	a	n/a
618.9895	0.09	1237979	keystroke_t	t	n/a
619.109	0.105	1238218	keystroke_i	i	n/a
619.199	0.1205	1238398	keystroke_o	o	n/a
619.289	0.1355	1238578	keystroke_n	n	n/a
619.9645	0.075	1239929	keystroke_Key.enter	Key.enter	n/a
620.0455	8.741	1240091	prompt	n/a	moses youth hook collapse\n
620.8045	0.075	1241609	keystroke_m	m	n/a
620.9845	0.075	1241969	keystroke_o	o	n/a
621.1945	0.0755	1242389	keystroke_s	s	n/a
621.3745	0.06	1242749	keystroke_e	e	n/a
622.0645	0.09	1244129	keystroke_s	s	n/a
622.3495	0.09	1244699	keystroke_Key.space	Key.space	n/a
622.8145	0.06	1245629	keystroke_o	o	n/a
623.6095	0.045	1247219	keystroke_Key.backspace	Key.backspace	n/a
624.0295	0.06	1248059	keystroke_y	y	n/a
624.284	0.0755	1248568	keystroke_o	o	n/a
624.374	0.06	1248748	keystroke_u	u	n/a
624.629	0.06	1249258	keystroke_t	t	n/a
624.764	0.06	1249528	keystroke_h	h	n/a
625.274	0.09	1250548	keystroke_Key.space	Key.space	n/a
625.604	0.06	1251208	keystroke_h	h	n/a
625.784	0.06	1251568	keystroke_o	o	n/a
625.934	0.06	1251868	keystroke_o	o	n/a
626.084	0.075	1252168	keystroke_k	k	n/a
626.264	0.09	1252528	keystroke_Key.space	Key.space	n/a
626.429	0.09	1252858	keystroke_c	c	n/a
626.609	0.06	1253218	keystroke_o	o	n/a
626.819	0.105	1253638	keystroke_l	l	n/a
627.179	0.105	1254358	keystroke_l	l	n/a
627.704	0.12	1255408	keystroke_a	a	n/a
627.809	0.12	1255618	keystroke_p	p	n/a
627.989	0.15	1255978	keystroke_s	s	n/a
628.124	0.09	1256248	keystroke_e	e	n/a
628.679	0.105	1257358	keystroke_Key.enter	Key.enter	n/a
628.7955	11.0295	1257591	prompt	n/a	experts tariff glasgow platforms\n
629.369	0.045	1258738	keystroke_e	e	n/a
629.549	0.075	1259098	keystroke_x	x	n/a
629.759	0.105	1259518	keystroke_p	p	n/a
629.909	0.12	1259818	keystroke_e	e	n/a
629.999	0.105	1259998	keystroke_r	r	n/a
630.224	0.06	1260448	keystroke_t	t	n/a
630.419	0.0745	1260838	keystroke_s	s	n/a
631.0185	0.105	1262037	keystroke_Key.space	Key.space	n/a
631.2735	0.09	1262547	keystroke_t	t	n/a
631.4235	0.135	1262847	keystroke_a	a	n/a
631.6785	0.075	1263357	keystroke_r	r	n/a
631.8585	0.06	1263717	keystroke_i	i	n/a
631.9785	0.03	1263957	keystroke_f	f	n/a
632.0985	0.075	1264197	keystroke_f	f	n/a
632.3835	0.12	1264767	keystroke_Key.space	Key.space	n/a
632.6835	0.06	1265367	keystroke_g	g	n/a
632.9385	0.09	1265877	keystroke_l	l	n/a
633.1935	0.09	1266387	keystroke_a	a	n/a
633.2685	0.105	1266537	keystroke_s	s	n/a
633.5535	0.075	1267107	keystroke_g	g	n/a
633.8085	0.075	1267617	keystroke_l	l	n/a
634.0785	0.075	1268157	keystroke_w	w	n/a
635.3085	0.09	1270617	keystroke_Key.backspace	Key.backspace	n/a
635.5185	0.105	1271037	keystroke_Key.backspace	Key.backspace	n/a
635.9385	0.06	1271877	keystroke_o	o	n/a
636.0285	0.075	1272057	keystroke_w	w	n/a
636.9735	0.105	1273947	keystroke_Key.space	Key.space	n/a
637.528	0.105	1275056	keystroke_p	p	n/a
637.783	0.06	1275566	keystroke_l	l	n/a
637.918	0.18	1275836	keystroke_a	a	n/a
638.053	0.06	1276106	keystroke_t	t	n/a
638.308	0.075	1276616	keystroke_f	f	n/a
638.503	0.06	1277006	keystroke_o	o	n/a
638.623	0.075	1277246	keystroke_r	r	n/a
638.758	0.09	1277516	keystroke_m	m	n/a
638.968	0.075	1277936	keystroke_s	s	n/a
639.718	0.105	1279436	keystroke_Key.enter	Key.enter	n/a
639.83	17.3485	1279660	prompt	n/a	baghdad swaziland many commercial\n
641.038	0.075	1282076	keystroke_b	b	n/a
641.369	0.119	1282738	keystroke_a	a	n/a
641.518	0.015	1283036	keystroke_g	g	n/a
642.8675	0.09	1285735	keystroke_h	h	n/a
643.1225	0.09	1286245	keystroke_d	d	n/a
643.2725	0.12	1286545	keystroke_a	a	n/a
643.3475	0.105	1286695	keystroke_d	d	n/a
644.0975	0.105	1288195	keystroke_Key.space	Key.space	n/a
644.5025	0.105	1289005	keystroke_s	s	n/a
645.3575	0.06	1290715	keystroke_w	w	n/a
645.9425	0.075	1291885	keystroke_a	a	n/a
646.5425	0.09	1293085	keystroke_z	z	n/a
646.7675	0.06	1293535	keystroke_i	i	n/a
647.773	0.074	1295546	keystroke_l	l	n/a
647.8325	0.1355	1295665	keystroke_a	a	n/a
647.952	0.06	1295904	keystroke_n	n	n/a
648.027	0.075	1296054	keystroke_d	d	n/a
649.077	0.105	1298154	keystroke_Key.space	Key.space	n/a
650.083	0.075	1300166	keystroke_m	m	n/a
650.502	0.12	1301004	keystroke_a	a	n/a
650.682	0.06	1301364	keystroke_n	n	n/a
650.877	0.06	1301754	keystroke_y	y	n/a
651.162	0.09	1302324	keystroke_Key.space	Key.space	n/a
651.867	0.09	1303734	keystroke_c	c	n/a
652.0165	0.09	1304033	keystroke_o	o	n/a
652.2865	0.06	1304573	keystroke_m	m	n/a
652.4215	0.09	1304843	keystroke_m	m	n/a
652.6015	0.135	1305203	keystroke_e	e	n/a
652.7215	0.09	1305443	keystroke_r	r	n/a
652.9765	0.091	1305953	keystroke_c	c	n/a
653.1415	0.06	1306283	keystroke_i	i	n/a
653.2915	0.12	1306583	keystroke_a	a	n/a
653.3965	0.075	1306793	keystroke_l	l	n/a
657.1505	0.026	1314301	keystroke_Key.enter	Key.enter	n/a
657.183	9.3565	1314366	prompt	n/a	wendy cargo motherboard kilometers\n
657.8515	0.09	1315703	keystroke_w	w	n/a
657.9565	0.09	1315913	keystroke_e	e	n/a
658.2265	0.076	1316453	keystroke_n	n	n/a
658.3765	0.075	1316753	keystroke_d	d	n/a
658.5125	0.074	1317025	keystroke_y	y	n/a
658.7965	0.09	1317593	keystroke_Key.space	Key.space	n/a
659.2165	0.09	1318433	keystroke_c	c	n/a
659.4865	0.15	1318973	keystroke_a	a	n/a
659.5925	0.089	1319185	keystroke_r	r	n/a
659.8165	0.09	1319633	keystroke_g	g	n/a
659.9215	0.06	1319843	keystroke_o	o	n/a
660.386	0.09	1320772	keystroke_Key.space	Key.space	n/a
661.316	0.06	1322632	keystroke_m	m	n/a
661.541	0.075	1323082	keystroke_o	o	n/a
661.812	0.059	1323624	keystroke_t	t	n/a
661.901	0.075	1323802	keystroke_h	h	n/a
662.186	0.136	1324372	keystroke_e	e	n/a
662.292	0.104	1324584	keystroke_r	r	n/a
662.831	0.091	1325662	keystroke_b	b	n/a
662.996	0.076	1325992	keystroke_o	o	n/a
663.146	0.165	1326292	keystroke_a	a	n/a
663.297	0.074	1326594	keystroke_r	r	n/a
663.461	0.09	1326922	keystroke_d	d	n/a
663.746	0.105	1327492	keystroke_Key.space	Key.space	n/a
664.136	0.06	1328272	keystroke_k	k	n/a
664.301	0.075	1328602	keystroke_i	i	n/a
664.496	0.075	1328992	keystroke_l	l	n/a
664.662	0.075	1329324	keystroke_o	o	n/a
664.962	0.104	1329924	keystroke_m	m	n/a
665.096	0.09	1330192	keystroke_e	e	n/a
665.336	0.09	1330672	keystroke_t	t	n/a
665.532	0.104	1331064	keystroke_e	e	n/a
665.607	0.104	1331214	keystroke_r	r	n/a
665.802	0.104	1331604	keystroke_s	s	n/a
666.446	0.09	1332892	keystroke_Key.enter	Key.enter	n/a
666.545	21.068	1333090	prompt	n/a	hamburg cams spirituality identifies\n
667.2555	0.075	1334511	keystroke_h	h	n/a
667.4055	0.091	1334811	keystroke_a	a	n/a
667.5105	0.091	1335021	keystroke_m	m	n/a
667.9005	0.046	1335801	keystroke_b	b	n/a
668.1265	0.059	1336253	keystroke_u	u	n/a
668.2905	0.06	1336581	keystroke_r	r	n/a
668.4865	0.075	1336973	keystroke_g	g	n/a
669.1005	0.105	1338201	keystroke_Key.space	Key.space	n/a
669.2655	0.105	1338531	keystroke_c	c	n/a
669.3865	0.104	1338773	keystroke_a	a	n/a
669.6415	0.074	1339283	keystroke_m	m	n/a
669.8055	0.075	1339611	keystroke_s	s	n/a
670.2105	0.105	1340421	keystroke_Key.space	Key.space	n/a
670.5265	0.119	1341053	keystroke_s	s	n/a
670.9755	0.076	1341951	keystroke_p	p	n/a
671.1405	0.075	1342281	keystroke_i	i	n/a
671.2765	0.09	1342553	keystroke_r	r	n/a
671.3965	0.075	1342793	keystroke_i	i	n/a
671.5305	0.076	1343061	keystroke_t	t	n/a
671.6515	0.059	1343303	keystroke_u	u	n/a
671.7865	0.089	1343573	keystroke_a	a	n/a
671.9055	0.075	1343811	keystroke_l	l	n/a
672.1165	0.045	1344233	keystroke_l	l	n/a
