onset	duration	sample	value	key	prompt_text
1.823	14.0965	3646	prompt	n/a	the quick brown fox jumps over a lazy dog\n
3.5415	0.013	7083	keystroke_t	t	n/a
3.5695	0.075	7139	keystroke_h	h	n/a
3.6595	0.12	7319	keystroke_e	e	n/a
3.7945	0.0905	7589	keystroke_Key.space	Key.space	n/a
5.01	0.12	10020	keystroke_q	q	n/a
5.25	0.075	10500	keystroke_u	u	n/a
5.4	0.12	10800	keystroke_i	i	n/a
5.58	0.0875	11160	keystroke_c	c	n/a
5.6825	0.105	11365	keystroke_k	k	n/a
6.2845	0.075	12569	keystroke_Key.space	Key.space	n/a
6.5845	0.075	13169	keystroke_b	b	n/a
7.7995	0.06	15599	keystroke_t	t	n/a
8.1895	0.09	16379	keystroke_Key.backspace	Key.backspace	n/a
8.3695	0.075	16739	keystroke_r	r	n/a
8.5045	0.105	17009	keystroke_o	o	n/a
8.6545	0.105	17309	keystroke_w	w	n/a
8.8195	0.075	17639	keystroke_n	n	n/a
9.0295	0.075	18059	keystroke_Key.space	Key.space	n/a
9.2845	0.075	18569	keystroke_f	f	n/a
9.3895	0.105	18779	keystroke_o	o	n/a
10.0045	0.09	20009	keystroke_x	x	n/a
10.2745	0.075	20549	keystroke_Key.space	Key.space	n/a
10.5295	0.105	21059	keystroke_j	j	n/a
10.7395	0.09	21479	keystroke_u	u	n/a
10.9495	0.09	21899	keystroke_m	m	n/a
11.0545	0.135	22109	keystroke_p	p	n/a
11.2795	0.06	22559	keystroke_s	s	n/a
11.3695	0.075	22739	keystroke_Key.space	Key.space	n/a
11.9845	0.09	23969	keystroke_o	o	n/a
12.1045	0.09	24209	keystroke_v	v	n/a
12.2995	0.15	24599	keystroke_e	e	n/a
12.3895	0.09	24779	keystroke_r	r	n/a
12.5695	0.075	25139	keystroke_Key.space	Key.space	n/a
12.7345	0.09	25469	keystroke_a	a	n/a
12.8395	0.09	25679	keystroke_Key.space	Key.space	n/a
13.1095	0.105	26219	keystroke_l	l	n/a
13.5745	0.105	27149	keystroke_a	a	n/a
13.8445	0.12	27689	keystroke_z	z	n/a
14.1145	0.06	28229	keystroke_y	y	n/a
14.3545	0.105	28709	keystroke_Key.space	Key.space	n/a
14.6845	0.12	29369	keystroke_d	d	n/a
14.7895	0.105	29579	keystroke_o	o	n/a
15.0445	0.075	30089	keystroke_g	g	n/a
15.8545	0.06	31709	keystroke_Key.enter	Key.enter	n/a
15.926	12.891	31852	prompt	n/a	disputes descending surveillance handy\n
18.4075	0.027	36815	keystroke_d	d	n/a
18.4945	0.105	36989	keystroke_i	i	n/a
18.6745	0.105	37349	keystroke_s	s	n/a
18.8095	0.105	37619	keystroke_p	p	n/a
19.5295	0.075	39059	keystroke_u	u	n/a
19.8895	0.12	39779	keystroke_t	t	n/a
19.9945	0.12	39989	keystroke_e	e	n/a
20.2345	0.09	40469	keystroke_s	s	n/a
20.3545	0.075	40709	keystroke_Key.space	Key.space	n/a
20.9995	0.075	41999	keystroke_d	d	n/a
21.1795	0.075	42359	keystroke_e	e	n/a
21.3895	0.105	42779	keystroke_s	s	n/a
21.5395	0.12	43079	keystroke_c	c	n/a
21.8695	0.06	43739	keystroke_e	e	n/a
22.0045	0.075	44009	keystroke_n	n	n/a
22.1405	0.074	44281	keystroke_d	d	n/a
22.2295	0.12	44459	keystroke_i	i	n/a
22.3345	0.09	44669	keystroke_n	n	n/a
22.4395	0.09	44879	keystroke_g	g	n/a
22.5745	0.075	45149	keystroke_Key.space	Key.space	n/a
22.9345	0.075	45869	keystroke_s	s	n/a
23.1145	0.075	46229	keystroke_u	u	n/a
23.2795	0.09	46559	keystroke_r	r	n/a
23.6095	0.105	47219	keystroke_v	v	n/a
23.8645	0.075	47729	keystroke_e	e	n/a
24.5845	0.075	49169	keystroke_i	i	n/a
24.8095	0.075	49619	keystroke_l	l	n/a
24.9455	0.074	49891	keystroke_l	l	n/a
25.0645	0.135	50129	keystroke_a	a	n/a
25.1845	0.075	50369	keystroke_n	n	n/a
25.4545	0.135	50909	keystroke_c	c	n/a
25.5445	0.12	51089	keystroke_e	e	n/a
25.8895	0.06	51779	keystroke_Key.space	Key.space	n/a
26.3845	0.045	52769	keystroke_d	d	n/a
26.4595	0.075	52919	keystroke_h	h	n/a
26.8795	0.075	53759	keystroke_Key.backspace	Key.backspace	n/a
27.0145	0.06	54029	keystroke_Key.backspace	Key.backspace	n/a
27.2095	0.09	54419	keystroke_h	h	n/a
27.3145	0.151	54629	keystroke_a	a	n/a
27.6595	0.09	55319	keystroke_n	n	n/a
27.9145	0.075	55829	keystroke_d	d	n/a
28.0195	0.09	56039	keystroke_y	y	n/a
28.7545	0.06	57509	keystroke_Key.enter	Key.enter	n/a
28.822	11.2745	57644	prompt	n/a	affiliate careful downloading bolt\n
29.5205	0.074	59041	keystroke_a	a	n/a
29.9095	0.03	59819	keystroke_f	f	n/a
30.0905	0.06	60181	keystroke_f	f	n/a
30.5545	0.09	61109	keystroke_i	i	n/a
32.1755	0.074	64351	keystroke_l	l	n/a
32.3695	0.075	64739	keystroke_i	i	n/a
32.5795	0.105	65159	keystroke_a	a	n/a
32.7745	0.12	65549	keystroke_t	t	n/a
32.9095	0.09	65819	keystroke_e	e	n/a
33.0295	0.09	66059	keystroke_Key.space	Key.space	n/a
33.2405	0.119	66481	keystroke_c	c	n/a
33.4045	0.105	66809	keystroke_a	a	n/a
33.5245	0.12	67049	keystroke_r	r	n/a
33.5995	0.105	67199	keystroke_e	e	n/a
33.9295	0.075	67859	keystroke_f	f	n/a
34.0195	0.09	68039	keystroke_u	u	n/a
34.2295	0.105	68459	keystroke_l	l	n/a
34.3945	0.075	68789	keystroke_Key.space	Key.space	n/a
35.6545	0.075	71309	keystroke_d	d	n/a
35.8495	0.091	71699	keystroke_o	o	n/a
35.9845	0.105	71969	keystroke_w	w	n/a
36.1495	0.075	72299	keystroke_n	n	n/a
36.5095	0.075	73019	keystroke_l	l	n/a
36.6745	0.091	73349	keystroke_o	o	n/a
36.7795	0.105	73559	keystroke_a	a	n/a
36.9145	0.105	73829	keystroke_d	d	n/a
37.5155	0.164	75031	keystroke_i	i	n/a
37.6345	0.106	75269	keystroke_n	n	n/a
37.7695	0.075	75539	keystroke_g	g	n/a
38.0395	0.06	76079	keystroke_Key.space	Key.space	n/a
38.6395	0.076	77279	keystroke_b	b	n/a
38.7745	0.105	77549	keystroke_o	o	n/a
38.9995	0.105	77999	keystroke_l	l	n/a
39.8255	0.074	79651	keystroke_t	t	n/a
40.0345	0.06	80069	keystroke_Key.enter	Key.enter	n/a
40.103	14.6195	80206	prompt	n/a	duplicate phillips pitch eminem\n
40.8005	0.09	81601	keystroke_d	d	n/a
40.9355	0.089	81871	keystroke_u	u	n/a
41.1295	0.091	82259	keystroke_p	p	n/a
41.2945	0.105	82589	keystroke_l	l	n/a
41.4745	0.105	82949	keystroke_i	i	n/a
41.6705	0.104	83341	keystroke_c	c	n/a
41.8195	0.121	83639	keystroke_a	a	n/a
42.0595	0.061	84119	keystroke_t	t	n/a
42.1045	0.075	84209	keystroke_e	e	n/a
42.8395	0.075	85679	keystroke_Key.space	Key.space	n/a
43.2895	0.09	86579	keystroke_p	p	n/a
43.4545	0.105	86909	keystroke_h	h	n/a
43.6505	0.105	87301	keystroke_i	i	n/a
43.9645	0.0905	87929	keystroke_l	l	n/a
44.13	0.12	88260	keystroke_i	i	n/a
45.36	0.06	90720	keystroke_p	p	n/a
45.6	0.075	91200	keystroke_s	s	n/a
45.75	0.075	91500	keystroke_Key.space	Key.space	n/a
49.353	0.027	98706	keystroke_p	p	n/a
49.485	0.075	98970	keystroke_i	i	n/a
49.725	0.075	99450	keystroke_t	t	n/a
49.965	0.09	99930	keystroke_c	c	n/a
50.04	0.09	100080	keystroke_h	h	n/a
50.28	0.09	100560	keystroke_Key.space	Key.space	n/a
51.225	0.06	102450	keystroke_e	e	n/a
51.345	0.09	102690	keystroke_m	m	n/a
51.99	0.09	103980	keystroke_i	i	n/a
52.215	0.09	104430	keystroke_n	n	n/a
53.175	0.075	106350	keystroke_e	e	n/a
53.28	0.075	106560	keystroke_m	m	n/a
54.66	0.06	109320	keystroke_Key.enter	Key.enter	n/a
54.7285	8.543	109457	prompt	n/a	stops cultures vector canadian\n
55.591	0.119	111182	keystroke_s	s	n/a
55.83	0.105	111660	keystroke_t	t	n/a
55.936	0.089	111872	keystroke_o	o	n/a
56.1	0.105	112200	keystroke_p	p	n/a
56.235	0.09	112470	keystroke_s	s	n/a
56.355	0.105	112710	keystroke_Key.space	Key.space	n/a
56.61	0.09	113220	keystroke_c	c	n/a
56.76	0.09	113520	keystroke_u	u	n/a
56.955	0.105	113910	keystroke_l	l	n/a
57.15	0.12	114300	keystroke_t	t	n/a
57.795	0.075	115590	keystroke_u	u	n/a
57.915	0.09	115830	keystroke_r	r	n/a
57.975	0.075	115950	keystroke_e	e	n/a
58.155	0.075	116310	keystroke_Key.space	Key.space	n/a
58.59	0.075	117180	keystroke_v	v	n/a
58.86	0.105	117720	keystroke_e	e	n/a
59.175	0.09	118350	keystroke_c	c	n/a
59.415	0.06	118830	keystroke_t	t	n/a
59.595	0.09	119190	keystroke_o	o	n/a
59.7	0.075	119400	keystroke_r	r	n/a
59.835	0.075	119670	keystroke_Key.space	Key.space	n/a
60.7645	0.075	121529	keystroke_c	c	n/a
60.9895	0.09	121979	keystroke_a	a	n/a
61.1545	0.075	122309	keystroke_n	n	n/a
61.3045	0.105	122609	keystroke_a	a	n/a
61.6795	0.06	123359	keystroke_d	d	n/a
61.7695	0.09	123539	keystroke_i	i	n/a
62.4145	0.09	124829	keystroke_a	a	n/a
62.5495	0.06	125099	keystroke_n	n	n/a
63.2095	0.06	126419	keystroke_Key.enter	Key.enter	n/a
63.2775	10.0305	126555	prompt	n/a	adjust inter vulnerability cheats\n
64.3195	0.09	128639	keystroke_a	a	n/a
64.6195	0.075	129239	keystroke_d	d	n/a
64.8745	0.06	129749	keystroke_j	j	n/a
65.0555	0.074	130111	keystroke_u	u	n/a
65.1595	0.09	130319	keystroke_s	s	n/a
65.3095	0.105	130619	keystroke_t	t	n/a
65.4295	0.06	130859	keystroke_Key.space	Key.space	n/a
65.6395	0.105	131279	keystroke_i	i	n/a
65.7455	0.089	131491	keystroke_n	n	n/a
66.0295	0.09	132059	keystroke_t	t	n/a
66.2395	0.12	132479	keystroke_e	e	n/a
66.2995	0.09	132599	keystroke_r	r	n/a
66.5695	0.09	133139	keystroke_Key.space	Key.space	n/a
67.2295	0.075	134459	keystroke_v	v	n/a
67.4845	0.075	134969	keystroke_u	u	n/a
68.0545	0.09	136109	keystroke_l	l	n/a
68.3395	0.09	136679	keystroke_n	n	n/a
69.1195	0.165	138239	keystroke_e	e	n/a
69.2545	0.105	138509	keystroke_r	r	n/a
69.6295	0.09	139259	keystroke_a	a	n/a
69.7795	0.075	139559	keystroke_b	b	n/a
70.4695	0.075	140939	keystroke_i	i	n/a
70.6645	0.09	141329	keystroke_l	l	n/a
70.8745	0.075	141749	keystroke_i	i	n/a
70.9945	0.075	141989	keystroke_t	t	n/a
71.1295	0.06	142259	keystroke_y	y	n/a
71.4295	0.09	142859	keystroke_Key.space	Key.space	n/a
71.8945	0.075	143789	keystroke_c	c	n/a
72.0145	0.075	144029	keystroke_h	h	n/a
72.1645	0.09	144329	keystroke_e	e	n/a
72.2995	0.09	144599	keystroke_a	a	n/a
72.4345	0.135	144869	keystroke_t	t	n/a
72.7495	0.075	145499	keystroke_s	s	n/a
73.2295	0.075	146459	keystroke_Key.enter	Key.enter	n/a
73.314	11.6185	146628	prompt	n/a	tale we've discussion infectious\n
74.1155	0.074	148231	keystroke_t	t	n/a
74.3695	0.09	148739	keystroke_a	a	n/a
74.5195	0.105	149039	keystroke_l	l	n/a
74.6695	0.075	149339	keystroke_e	e	n/a
74.7895	0.09	149579	keystroke_Key.space	Key.space	n/a
75.1345	0.06	150269	keystroke_w	w	n/a
75.6145	0.09	151229	keystroke_e	e	n/a
75.8545	0.06	151709	keystroke_'	'	n/a
76.14	0.105	152280	keystroke_v	v	n/a
76.32	0.12	152640	keystroke_e	e	n/a
76.605	0.09	153210	keystroke_Key.space	Key.space	n/a
77.115	0.09	154230	keystroke_d	d	n/a
77.265	0.09	154530	keystroke_i	i	n/a
77.475	0.105	154950	keystroke_s	s	n/a
77.595	0.12	155190	keystroke_c	c	n/a
77.88	0.075	155760	keystroke_u	u	n/a
78.48	0.075	156960	keystroke_s	s	n/a
78.645	0.06	157290	keystroke_s	s	n/a
78.72	0.165	157440	keystroke_i	i	n/a
78.825	0.15	157650	keystroke_o	o	n/a
78.915	0.09	157830	keystroke_n	n	n/a
79.14	0.075	158280	keystroke_Key.space	Key.space	n/a
79.83	0.09	159660	keystroke_i	i	n/a
79.965	0.105	159930	keystroke_n	n	n/a
80.49	0.09	160980	keystroke_f	f	n/a
80.701	0.074	161402	keystroke_e	e	n/a
80.895	0.105	161790	keystroke_c	c	n/a
81.12	0.105	162240	keystroke_t	t	n/a
81.21	0.15	162420	keystroke_i	i	n/a
81.315	0.105	162630	keystroke_o	o	n/a
81.375	0.105	162750	keystroke_n	n	n/a
82.005	0.075	164010	keystroke_Key.backspace	Key.backspace	n/a
82.14	0.075	164280	keystroke_Key.backspace	Key.backspace	n/a
83.535	0.075	167070	keystroke_o	o	n/a
83.715	0.075	167430	keystroke_u	u	n/a
83.925	0.0745	167850	keystroke_s	s	n/a
84.8545	0.075	169709	keystroke_Key.enter	Key.enter	n/a
84.94	8.2425	169880	prompt	n/a	speeds controlling referring liverpool\n
85.6345	0.091	171269	keystroke_s	s	n/a
85.9355	0.089	171871	keystroke_p	p	n/a
86.1005	0.089	172201	keystroke_e	e	n/a
86.5195	0.06	173039	keystroke_e	e	n/a
86.7155	0.119	173431	keystroke_d	d	n/a
86.9245	0.075	173849	keystroke_s	s	n/a
87.0295	0.075	174059	keystroke_Key.space	Key.space	n/a
87.2995	0.075	174599	keystroke_c	c	n/a
87.4045	0.105	174809	keystroke_o	o	n/a
87.4495	0.12	174899	keystroke_n	n	n/a
87.7345	0.09	175469	keystroke_t	t	n/a
87.9295	0.09	175859	keystroke_r	r	n/a
88.2595	0.09	176519	keystroke_o	o	n/a
88.5595	0.06	177119	keystroke_l	l	n/a
88.6805	0.075	177361	keystroke_l	l	n/a
88.8295	0.09	177659	keystroke_i	i	n/a
88.9345	0.09	177869	keystroke_n	n	n/a
89.0545	0.06	178109	keystroke_g	g	n/a
89.1445	0.105	178289	keystroke_Key.space	Key.space	n/a
89.3845	0.12	178769	keystroke_r	r	n/a
89.4595	0.09	178919	keystroke_e	e	n/a
89.8345	0.075	179669	keystroke_f	f	n/a
90.0445	0.105	180089	keystroke_e	e	n/a
90.3295	0.075	180659	keystroke_r	r	n/a
90.4645	0.06	180929	keystroke_r	r	n/a
90.6155	0.135	181231	keystroke_i	i	n/a
90.7195	0.09	181439	keystroke_n	n	n/a
90.8545	0.076	181709	keystroke_g	g	n/a
90.9895	0.09	181979	keystroke_Key.space	Key.space	n/a
91.2145	0.091	182429	keystroke_l	l	n/a
91.4105	0.075	182821	keystroke_i	i	n/a
91.5745	0.06	183149	keystroke_v	v	n/a
91.7095	0.135	183419	keystroke_e	e	n/a
91.7845	0.09	183569	keystroke_r	r	n/a
92.0245	0.09	184049	keystroke_p	p	n/a
92.2805	0.074	184561	keystroke_o	o	n/a
92.4145	0.075	184829	keystroke_o	o	n/a
92.5495	0.105	185099	keystroke_l	l	n/a
93.1345	0.045	186269	keystroke_Key.enter	Key.enter	n/a
93.1875	15.144	186375	prompt	n/a	mirrors respective attractions showed\n
93.8705	0.089	187741	keystroke_m	m	n/a
94.1695	0.09	188339	keystroke_i	i	n/a
94.4995	0.061	188999	keystroke_r	r	n/a
94.6495	0.045	189299	keystroke_r	r	n/a
94.7095	0.09	189419	keystroke_o	o	n/a
95.4895	0.09	190979	keystroke_r	r	n/a
95.7595	0.075	191519	keystroke_s	s	n/a
95.8945	0.075	191789	keystroke_Key.space	Key.space	n/a
96.8995	0.09	193799	keystroke_r	r	n/a
96.9295	0.12	193859	keystroke_e	e	n/a
97.2295	0.03	194459	keystroke_p	p	n/a
97.7845	0.075	195569	keystroke_Key.backspace	Key.backspace	n/a
97.8745	0.075	195749	keystroke_s	s	n/a
98.0395	0.105	196079	keystroke_p	p	n/a
98.1895	0.075	196379	keystroke_e	e	n/a
98.3845	0.09	196769	keystroke_c	c	n/a
98.7445	0.075	197489	keystroke_i	i	n/a
98.8945	0.105	197789	keystroke_v	v	n/a
99.0595	0.09	198119	keystroke_e	e	n/a
99.7945	0.075	199589	keystroke_Key.backspace	Key.backspace	n/a
99.9445	0.06	199889	keystroke_Key.backspace	Key.backspace	n/a
100.0795	0.075	200159	keystroke_Key.backspace	Key.backspace	n/a
100.2445	0.09	200489	keystroke_t	t	n/a
100.3495	0.12	200699	keystroke_i	i	n/a
100.4995	0.135	200999	keystroke_v	v	n/a
100.6495	0.09	201299	keystroke_e	e	n/a
100.8145	0.075	201629	keystroke_Key.space	Key.space	n/a
101.6395	0.105	203279	keystroke_a	a	n/a
101.8795	0.075	203759	keystroke_t	t	n/a
102.0145	0.075	204029	keystroke_t	t	n/a
102.2095	0.06	204419	keystroke_r	r	n/a
102.5695	0.09	205139	keystroke_a	a	n/a
102.7495	0.105	205499	keystroke_c	c	n/a
103.0345	0.045	206069	keystroke_t	t	n/a
103.0945	0.135	206189	keystroke_i	i	n/a
104.1745	0.105	208349	keystroke_o	o	n/a
104.3695	0.09	208739	keystroke_n	n	n/a
104.5495	0.06	209099	keystroke_s	s	n/a
105.0445	0.06	210089	keystroke_Key.space	Key.space	n/a
105.3745	0.075	210749	keystroke_s	s	n/a
105.4945	0.075	210989	keystroke_h	h	n/a
105.6295	0.105	211259	keystroke_o	o	n/a
105.9445	0.105	211889	keystroke_w	w	n/a
106.0795	0.15	212159	keystroke_e	e	n/a
106.1695	0.12	212339	keystroke_r	r	n/a
106.4395	0.105	212879	keystroke_d	d	n/a
107.0695	0.045	214139	keystroke_Key.backspace	Key.backspace	n/a
107.2045	0.06	214409	keystroke_Key.backspace	Key.backspace	n/a
107.3995	0.075	214799	keystroke_d	d	n/a
108.2545	0.0745	216509	keystroke_Key.enter	Key.enter	n/a
108.337	12.129	216674	prompt	n/a	cameron letters bufing culture\n
108.989	0.09	217978	keystroke_c	c	n/a
109.184	0.09	218368	keystroke_a	a	n/a
109.319	0.075	218638	keystroke_m	m	n/a
109.484	0.12	218968	keystroke_e	e	n/a
109.544	0.09	219088	keystroke_r	r	n/a
110.009	0.12	220018	keystroke_o	o	n/a
110.084	0.09	220168	keystroke_n	n	n/a
110.309	0.075	220618	keystroke_Key.space	Key.space	n/a
110.609	0.09	221218	keystroke_l	l	n/a
110.834	0.09	221668	keystroke_e	e	n/a
111.104	0.045	222208	keystroke_t	t	n/a
111.224	0.06	222448	keystroke_t	t	n/a
111.404	0.135	222808	keystroke_e	e	n/a
111.494	0.09	222988	keystroke_r	r	n/a
111.749	0.09	223498	keystroke_s	s	n/a
111.899	0.075	223798	keystroke_Key.space	Key.space	n/a
112.259	0.075	224518	keystroke_b	b	n/a
112.499	0.075	224998	keystroke_u	u	n/a
112.889	0.06	225778	keystroke_g	g	n/a
113.054	0.135	226108	keystroke_i	i	n/a
113.144	0.105	226288	keystroke_n	n	n/a
113.864	0.075	227728	keystroke_Key.backspace	Key.backspace	n/a
114.029	0.06	228058	keystroke_Key.backspace	Key.backspace	n/a
114.164	0.075	228328	keystroke_Key.backspace	Key.backspace	n/a
114.359	0.045	228718	keystroke_f	f	n/a
114.479	0.09	228958	keystroke_u	u	n/a
114.719	0.075	229438	keystroke_n	n	n/a
115.274	0.075	230548	keystroke_Key.backspace	Key.backspace	n/a
115.424	0.045	230848	keystroke_Key.backspace	Key.backspace	n/a
115.679	0.12	231358	keystroke_i	i	n/a
115.814	0.105	231628	keystroke_n	n	n/a
116.144	0.045	232288	keystroke_g	g	n/a
116.294	0.06	232588	keystroke_Key.space	Key.space	n/a
118.532	0.012	237064	keystroke_c	c	n/a
118.619	0.075	237238	keystroke_u	u	n/a
118.799	0.105	237598	keystroke_l	l	n/a
118.994	0.06	237988	keystroke_t	t	n/a
119.504	0.075	239008	keystroke_u	u	n/a
119.624	0.1045	239248	keystroke_r	r	n/a
119.684	0.105	239368	keystroke_e	e	n/a
120.3885	0.075	240777	keystroke_Key.enter	Key.enter	n/a
120.4735	10.117	240947	prompt	n/a	britain flower bath essential\n
121.1985	0.09	242397	keystroke_b	b	n/a
121.4235	0.076	242847	keystroke_r	r	n/a
121.5585	0.076	243117	keystroke_i	i	n/a
121.9335	0.12	243867	keystroke_t	t	n/a
122.2485	0.09	244497	keystroke_a	a	n/a
122.4885	0.09	244977	keystroke_i	i	n/a
122.6985	0.09	245397	keystroke_n	n	n/a
122.9685	0.075	245937	keystroke_Key.space	Key.space	n/a
125.0385	0.06	250077	keystroke_f	f	n/a
125.3695	0.074	250739	keystroke_l	l	n/a
125.5935	0.09	251187	keystroke_o	o	n/a
125.954	0.09	251908	keystroke_w	w	n/a
126.029	0.18	252058	keystroke_e	e	n/a
126.179	0.105	252358	keystroke_r	r	n/a
126.749	0.06	253498	keystroke_Key.space	Key.space	n/a
127.094	0.075	254188	keystroke_b	b	n/a
127.244	0.135	254488	keystroke_a	a	n/a
127.499	0.075	254998	keystroke_t	t	n/a
127.619	0.075	255238	keystroke_h	h	n/a
127.889	0.075	255778	keystroke_Key.space	Key.space	n/a
128.219	0.09	256438	keystroke_e	e	n/a
128.459	0.075	256918	keystroke_s	s	n/a
128.594	0.075	257188	keystroke_s	s	n/a
128.879	0.09	257758	keystroke_e	e	n/a
129.014	0.09	258028	keystroke_n	n	n/a
129.224	0.09	258448	keystroke_t	t	n/a
129.329	0.09	258658	keystroke_i	i	n/a
129.719	0.09	259438	keystroke_a	a	n/a
129.854	0.09	259708	keystroke_l	l	n/a
130.514	0.075	261028	keystroke_Key.enter	Key.enter	n/a
130.596	8.2445	261192	prompt	n/a	lace rental wrapped sponsorship\n
131.534	0.105	263068	keystroke_l	l	n/a
131.789	0.105	263578	keystroke_a	a	n/a
131.954	0.165	263908	keystroke_c	c	n/a
132.134	0.09	264268	keystroke_e	e	n/a
132.239	0.075	264478	keystroke_Key.space	Key.space	n/a
132.449	0.09	264898	keystroke_r	r	n/a
132.494	0.09	264988	keystroke_e	e	n/a
132.764	0.09	265528	keystroke_n	n	n/a
133.019	0.12	266038	keystroke_t	t	n/a
133.259	0.09	266518	keystroke_a	a	n/a
133.379	0.09	266758	keystroke_l	l	n/a
133.529	0.105	267058	keystroke_Key.space	Key.space	n/a
134.129	0.045	268258	keystroke_w	w	n/a
134.879	0.075	269758	keystroke_r	r	n/a
135.164	0.105	270328	keystroke_a	a	n/a
135.404	0.06	270808	keystroke_p	p	n/a
135.539	0.09	271078	keystroke_p	p	n/a
135.644	0.075	271288	keystroke_e	e	n/a
135.854	0.09	271708	keystroke_d	d	n/a
135.959	0.075	271918	keystroke_Key.space	Key.space	n/a
136.184	0.105	272368	keystroke_s	s	n/a
136.304	0.09	272608	keystroke_p	p	n/a
136.544	0.135	273088	keystroke_o	o	n/a
136.664	0.105	273328	keystroke_n	n	n/a
136.889	0.09	273778	keystroke_s	s	n/a
137.039	0.105	274078	keystroke_o	o	n/a
137.264	0.075	274528	keystroke_r	r	n/a
137.624	0.09	275248	keystroke_s	s	n/a
137.729	0.12	275458	keystroke_h	h	n/a
137.879	0.135	275758	keystroke_i	i	n/a
138.074	0.105	276148	keystroke_p	p	n/a
138.779	0.06	277558	keystroke_Key.enter	Key.enter	n/a
138.8445	12.9405	277689	prompt	n/a	suse definition gamma exclusion\n
139.409	0.105	278818	keystroke_s	s	n/a
139.6185	0.06	279237	keystroke_u	u	n/a
140.0235	0.1055	280047	keystroke_s	s	n/a
140.354	0.06	280708	keystroke_e	e	n/a
140.519	0.06	281038	keystroke_Key.space	Key.space	n/a
140.864	0.075	281728	keystroke_d	d	n/a
141.0435	0.0755	282087	keystroke_e	e	n/a
141.6585	0.075	283317	keystroke_f	f	n/a
141.9285	0.075	283857	keystroke_i	i	n/a
142.1985	0.075	284397	keystroke_n	n	n/a
142.5135	0.09	285027	keystroke_i	i	n/a
142.8585	0.09	285717	keystroke_t	t	n/a
142.9935	0.105	285987	keystroke_i	i	n/a
143.0235	0.135	286047	keystroke_o	o	n/a
143.1135	0.09	286227	keystroke_n	n	n/a
143.3385	0.075	286677	keystroke_Key.space	Key.space	n/a
144.1635	0.075	288327	keystroke_g	g	n/a
144.3585	0.09	288717	keystroke_a	a	n/a
144.5385	0.045	289077	keystroke_m	m	n/a
144.6435	0.075	289287	keystroke_m	m	n/a
144.7485	0.105	289497	keystroke_a	a	n/a
144.8835	0.075	289767	keystroke_Key.space	Key.space	n/a
145.5285	0.075	291057	keystroke_e	e	n/a
145.8435	0.075	291687	keystroke_x	x	n/a
146.0985	0.09	292197	keystroke_l	l	n/a
146.3085	0.075	292617	keystroke_u	u	n/a
146.5785	0.12	293157	keystroke_s	s	n/a
147.0435	0.09	294087	keystroke_t	t	n/a
147.3135	0.165	294627	keystroke_i	i	n/a
147.4185	0.135	294837	keystroke_o	o	n/a
147.5545	0.044	295109	keystroke_n	n	n/a
147.8235	0.06	295647	keystroke_Key.backspace	Key.backspace	n/a
147.9585	0.075	295917	keystroke_Key.backspace	Key.backspace	n/a
148.1085	0.075	296217	keystroke_Key.backspace	Key.backspace	n/a
148.3485	0.195	296697	keystroke_i	i	n/a
148.5285	0.135	297057	keystroke_o	o	n/a
148.5885	0.09	297177	keystroke_n	n	n/a
148.9635	0.06	297927	keystroke_Key.backspace	Key.backspace	n/a
149.0985	0.075	298197	keystroke_Key.backspace	Key.backspace	n/a
149.2485	0.09	298497	keystroke_Key.backspace	Key.backspace	n/a
149.7285	0.06	299457	keystroke_Key.backspace	Key.backspace	n/a
150.3585	0.09	300717	keystroke_i	i	n/a
150.4935	0.15	300987	keystroke_o	o	n/a
150.6885	0.105	301377	keystroke_n	n	n/a
151.7235	0.06	303447	keystroke_Key.enter	Key.enter	n/a
151.792	10.4935	303584	prompt	n/a	homeless stadium created daniel\n
153.1785	0.075	306357	keystroke_h	h	n/a
153.3285	0.165	306657	keystroke_o	o	n/a
153.4635	0.105	306927	keystroke_m	m	n/a
153.6885	0.105	307377	keystroke_e	e	n/a
153.8535	0.09	307707	keystroke_l	l	n/a
154.0935	0.09	308187	keystroke_e	e	n/a
154.3635	0.045	308727	keystroke_s	s	n/a
154.4985	0.06	308997	keystroke_s	s	n/a
154.6035	0.09	309207	keystroke_Key.space	Key.space	n/a
154.7685	0.135	309537	keystroke_s	s	n/a
155.0535	0.09	310107	keystroke_t	t	n/a
155.2785	0.105	310557	keystroke_a	a	n/a
155.5785	0.09	311157	keystroke_d	d	n/a
156.4185	0.075	312837	keystroke_i	i	n/a
156.6435	0.075	313287	keystroke_u	u	n/a
156.9285	0.075	313857	keystroke_m	m	n/a
157.5735	0.075	315147	keystroke_Key.space	Key.space	n/a
157.9035	0.09	315807	keystroke_c	c	n/a
158.1435	0.15	316287	keystroke_r	r	n/a
158.2335	0.12	316467	keystroke_e	e	n/a
158.4285	0.135	316857	keystroke_a	a	n/a
158.6085	0.105	317217	keystroke_t	t	n/a
159.2535	0.075	318507	keystroke_e	e	n/a
159.4635	0.105	318927	keystroke_d	d	n/a
159.7335	0.075	319467	keystroke_Key.space	Key.space	n/a
160.1085	0.105	320217	keystroke_d	d	n/a
160.4385	0.105	320877	keystroke_a	a	n/a
160.7085	0.075	321417	keystroke_n	n	n/a
160.9035	0.09	321807	keystroke_i	i	n/a
161.0535	0.09	322107	keystroke_e	e	n/a
161.1885	0.09	322377	keystroke_l	l	n/a
162.2085	0.075	324417	keystroke_Key.enter	Key.enter	n/a
162.291	9.4745	324582	prompt	n/a	node gene lithuania pics\n
162.9885	0.075	325977	keystroke_n	n	n/a
163.1385	0.105	326277	keystroke_o	o	n/a
163.3785	0.105	326757	keystroke_l	l	n/a
163.6485	0.075	327297	keystroke_d	d	n/a
163.8285	0.075	327657	keystroke_e	e	n/a
163.9185	0.06	327837	keystroke_Key.space	Key.space	n/a
164.3085	0.03	328617	keystroke_Key.backspace	Key.backspace	n/a
164.4735	0.045	328947	keystroke_Key.backspace	Key.backspace	n/a
164.6385	0.03	329277	keystroke_Key.backspace	Key.backspace	n/a
164.7885	0.045	329577	keystroke_Key.backspace	Key.backspace	n/a
165.2385	0.075	330477	keystroke_d	d	n/a
165.4335	0.09	330867	keystroke_e	e	n/a
165.9135	0.06	331827	keystroke_Key.space	Key.space	n/a
166.5285	0.06	333057	keystroke_g	g	n/a
166.7085	0.075	333417	keystroke_e	e	n/a
166.8435	0.075	333687	keystroke_n	n	n/a
166.9335	0.09	333867	keystroke_e	e	n/a
167.1735	0.075	334347	keystroke_Key.space	Key.space	n/a
167.8935	0.09	335787	keystroke_l	l	n/a
168.1035	0.06	336207	keystroke_i	i	n/a
168.4185	0.09	336837	keystroke_t	t	n/a
168.5685	0.075	337137	keystroke_h	h	n/a
168.9285	0.06	337857	keystroke_u	u	n/a
169.4085	0.091	338817	keystroke_a	a	n/a
169.8435	0.06	339687	keystroke_n	n	n/a
170.0385	0.09	340077	keystroke_i	i	n/a
170.2035	0.12	340407	keystroke_a	a	n/a
170.3535	0.09	340707	keystroke_Key.space	Key.space	n/a
170.6385	0.09	341277	keystroke_p	p	n/a
170.8335	0.1045	341667	keystroke_i	i	n/a
170.968	0.1355	341936	keystroke_c	c	n/a
171.1635	0.1045	342327	keystroke_s	s	n/a
171.688	0.075	343376	keystroke_Key.enter	Key.enter	n/a
171.7715	9.2195	343543	prompt	n/a	trailer drama representations vault\n
172.529	0.0895	345058	keystroke_t	t	n/a
172.723	0.105	345446	keystroke_r	r	n/a
173.008	0.121	346016	keystroke_a	a	n/a
173.173	0.09	346346	keystroke_i	i	n/a
173.383	0.105	346766	keystroke_l	l	n/a
173.548	0.135	347096	keystroke_e	e	n/a
173.623	0.105	347246	keystroke_r	r	n/a
173.818	0.075	347636	keystroke_Key.space	Key.space	n/a
174.073	0.075	348146	keystroke_d	d	n/a
174.253	0.12	348506	keystroke_r	r	n/a
174.493	0.105	348986	keystroke_a	a	n/a
174.658	0.09	349316	keystroke_m	m	n/a
174.778	0.12	349556	keystroke_a	a	n/a
174.913	0.075	349826	keystroke_Key.space	Key.space	n/a
175.288	0.12	350576	keystroke_r	r	n/a
175.348	0.09	350696	keystroke_e	e	n/a
176.4735	0.075	352947	keystroke_p	p	n/a
176.6685	0.09	353337	keystroke_r	r	n/a
176.6835	0.12	353367	keystroke_e	e	n/a
176.9685	0.075	353937	keystroke_s	s	n/a
177.2385	0.075	354477	keystroke_e	e	n/a
177.4635	0.075	354927	keystroke_n	n	n/a
177.7035	0.12	355407	keystroke_t	t	n/a
178.0185	0.12	356037	keystroke_a	a	n/a
178.1685	0.12	356337	keystroke_t	t	n/a
178.2585	0.135	356517	keystroke_i	i	n/a
178.3485	0.12	356697	keystroke_o	o	n/a
178.4085	0.105	356817	keystroke_n	n	n/a
178.7085	0.075	357417	keystroke_s	s	n/a
178.9635	0.06	357927	keystroke_Key.space	Key.space	n/a
179.5935	0.075	359187	keystroke_v	v	n/a
179.7885	0.105	359577	keystroke_a	a	n/a
180.0435	0.06	360087	keystroke_u	u	n/a
180.2085	0.105	360417	keystroke_l	l	n/a
180.4035	0.105	360807	keystroke_t	t	n/a
180.9285	0.06	361857	keystroke_Key.enter	Key.enter	n/a
180.9975	8.2275	361995	prompt	n/a	perceived sends areas player\n
181.7535	0.09	363507	keystroke_p	p	n/a
182.1285	0.105	364257	keystroke_e	e	n/a
182.1735	0.105	364347	keystroke_r	r	n/a
182.5635	0.09	365127	keystroke_c	c	n/a
183.0735	0.075	366147	keystroke_e	e	n/a
183.3735	0.075	366747	keystroke_i	i	n/a
183.5835	0.075	367167	keystroke_v	v	n/a
183.7035	0.09	367407	keystroke_e	e	n/a
183.8835	0.105	367767	keystroke_d	d	n/a
184.0485	0.06	368097	keystroke_Key.space	Key.space	n/a
184.3785	0.075	368757	keystroke_s	s	n/a
184.5285	0.075	369057	keystroke_e	e	n/a
184.6635	0.075	369327	keystroke_n	n	n/a
184.7985	0.105	369597	keystroke_d	d	n/a
184.9785	0.12	369957	keystroke_s	s	n/a
185.1285	0.09	370257	keystroke_Key.space	Key.space	n/a
185.4735	0.135	370947	keystroke_a	a	n/a
185.6685	0.135	371337	keystroke_r	r	n/a
185.7585	0.12	371517	keystroke_e	e	n/a
186.5685	0.075	373137	keystroke_a	a	n/a
186.7935	0.105	373587	keystroke_s	s	n/a
187.0185	0.06	374037	keystroke_Key.space	Key.space	n/a
187.3035	0.075	374607	keystroke_p	p	n/a
187.4985	0.09	374997	keystroke_l	l	n/a
187.6335	0.12	375267	keystroke_a	a	n/a
188.1585	0.06	376317	keystroke_y	y	n/a
188.428	0.136	376856	keystroke_e	e	n/a
188.503	0.105	377006	keystroke_r	r	n/a
189.163	0.06	378326	keystroke_Key.enter	Key.enter	n/a
189.23	8.276	378460	prompt	n/a	atlantic mounted hotel suffer\n
190.334	0.12	380668	keystroke_a	a	n/a
190.528	0.09	381056	keystroke_t	t	n/a
190.694	0.089	381388	keystroke_l	l	n/a
191.024	0.104	382048	keystroke_a	a	n/a
191.249	0.089	382498	keystroke_n	n	n/a
191.668	0.06	383336	keystroke_t	t	n/a
191.774	0.074	383548	keystroke_i	i	n/a
191.923	0.136	383846	keystroke_c	c	n/a
192.073	0.015	384146	keystroke_e	e	n/a
192.629	0.074	385258	keystroke_Key.backspace	Key.backspace	n/a
192.853	0.09	385706	keystroke_Key.space	Key.space	n/a
193.259	0.104	386518	keystroke_m	m	n/a
193.528	0.165	387056	keystroke_o	o	n/a
193.633	0.091	387266	keystroke_u	u	n/a
193.933	0.09	387866	keystroke_n	n	n/a
194.263	0.09	388526	keystroke_t	t	n/a
194.5485	0.0755	389097	keystroke_e	e	n/a
194.7435	0.076	389487	keystroke_d	d	n/a
194.848	0.09	389696	keystroke_Key.space	Key.space	n/a
195.119	0.0745	390238	keystroke_h	h	n/a
195.2835	0.0895	390567	keystroke_o	o	n/a
195.4485	0.091	390897	keystroke_t	t	n/a
195.628	0.0915	391256	keystroke_e	e	n/a
195.7795	0.089	391559	keystroke_l	l	n/a
195.9285	0.105	391857	keystroke_Key.space	Key.space	n/a
196.213	0.091	392426	keystroke_s	s	n/a
196.3635	0.0745	392727	keystroke_u	u	n/a
196.573	0.0455	393146	keystroke_f	f	n/a
196.6935	0.0605	393387	keystroke_f	f	n/a
196.843	0.15	393686	keystroke_e	e	n/a
196.948	0.076	393896	keystroke_r	r	n/a
197.428	0.076	394856	keystroke_Key.enter	Key.enter	n/a
197.511	12.3695	395022	prompt	n/a	beats lifestyle production legislation\n
198.2235	0.0605	396447	keystroke_b	b	n/a
198.419	0.0895	396838	keystroke_e	e	n/a
198.569	0.1195	397138	keystroke_a	a	n/a
198.719	0.134	397438	keystroke_t	t	n/a
198.9745	0.0745	397949	keystroke_s	s	n/a
199.0935	0.0895	398187	keystroke_Key.space	Key.space	n/a
199.394	0.089	398788	keystroke_l	l	n/a
199.634	0.074	399268	keystroke_i	i	n/a
200.084	0.075	400168	keystroke_f	f	n/a
200.309	0.09	400618	keystroke_e	e	n/a
200.848	0.105	401696	keystroke_s	s	n/a
201.013	0.121	402026	keystroke_t	t	n/a
201.433	0.09	402866	keystroke_l	l	n/a
201.839	0.06	403678	keystroke_Key.backspace	Key.backspace	n/a
202.049	0.075	404098	keystroke_y	y	n/a
202.274	0.104	404548	keystroke_l	l	n/a
202.409	0.09	404818	keystroke_e	e	n/a
202.678	0.075	405356	keystroke_Key.space	Key.space	n/a
202.994	0.09	405988	keystroke_p	p	n/a
203.219	0.06	406438	keystroke_r	r	n/a
203.339	0.09	406678	keystroke_o	o	n/a
203.774	0.09	407548	keystroke_d	d	n/a
204.014	0.06	408028	keystroke_u	u	n/a
204.179	0.105	408358	keystroke_c	c	n/a
204.418	0.106	408836	keystroke_t	t	n/a
204.494	0.225	408988	keystroke_i	i	n/a
204.719	0.15	409438	keystroke_o	o	n/a
204.734	0.12	409468	keystroke_n	n	n/a
205.513	0.046	411026	keystroke_Key.space	Key.space	n/a
205.859	0.09	411718	keystroke_l	l	n/a
205.994	0.09	411988	keystroke_e	e	n/a
206.384	0.075	412768	keystroke_d	d	n/a
206.924	0.074	413848	keystroke_Key.backspace	Key.backspace	n/a
207.059	0.075	414118	keystroke_g	g	n/a
207.194	0.09	414388	keystroke_i	i	n/a
207.449	0.09	414898	keystroke_s	s	n/a
208.124	0.09	416248	keystroke_l	l	n/a
208.4235	0.12	416847	keystroke_a	a	n/a
208.8135	0.105	417627	keystroke_t	t	n/a
208.9335	0.135	417867	keystroke_i	i	n/a
209.0385	0.135	418077	keystroke_o	o	n/a
209.0985	0.105	418197	keystroke_n	n	n/a
209.8185	0.06	419637	keystroke_Key.enter	Key.enter	n/a
209.8885	8.679	419777	prompt	n/a	boards routines sources prize\n
210.6145	0.074	421229	keystroke_b	b	n/a
210.8235	0.09	421647	keystroke_o	o	n/a
211.0945	0.119	422189	keystroke_a	a	n/a
211.3485	0.075	422697	keystroke_r	r	n/a
211.5295	0.179	423059	keystroke_d	d	n/a
211.8435	0.09	423687	keystroke_s	s	n/a
212.0385	0.06	424077	keystroke_Key.space	Key.space	n/a
212.6085	0.06	425217	keystroke_r	r	n/a
212.7735	0.135	425547	keystroke_o	o	n/a
212.8635	0.09	425727	keystroke_u	u	n/a
213.1185	0.12	426237	keystroke_i	i	n/a
213.3885	0.06	426777	keystroke_n	n	n/a
213.7935	0.015	427587	keystroke_Key.backspace	Key.backspace	n/a
213.8385	0.075	427677	keystroke_Key.backspace	Key.backspace	n/a
213.9745	0.089	427949	keystroke_t	t	n/a
214.0785	0.135	428157	keystroke_i	i	n/a
214.1835	0.105	428367	keystroke_n	n	n/a
214.3035	0.075	428607	keystroke_e	e	n/a
214.5135	0.09	429027	keystroke_s	s	n/a
214.6335	0.09	429267	keystroke_Key.space	Key.space	n/a
215.0385	0.106	430077	keystroke_s	s	n/a
215.2035	0.165	430407	keystroke_o	o	n/a
215.2935	0.12	430587	keystroke_u	u	n/a
215.5185	0.075	431037	keystroke_r	r	n/a
215.7585	0.105	431517	keystroke_c	c	n/a
216.1335	0.12	432267	keystroke_e	e	n/a
216.3885	0.106	432777	keystroke_s	s	n/a
216.5235	0.09	433047	keystroke_Key.space	Key.space	n/a
216.7635	0.09	433527	keystroke_p	p	n/a
216.9285	0.135	433857	keystroke_r	r	n/a
217.2735	0.09	434547	keystroke_i	i	n/a
217.4985	0.135	434997	keystroke_z	z	n/a
217.7235	0.105	435447	keystroke_e	e	n/a
218.4885	0.0745	436977	keystroke_Key.enter	Key.enter	n/a
218.573	13.432	437146	prompt	n/a	governmental wash victor continuity\n
219.419	0.074	438838	keystroke_g	g	n/a
219.644	0.059	439288	keystroke_o	o	n/a
220.003	0.09	440006	keystroke_v	v	n/a
220.198	0.135	440396	keystroke_e	e	n/a
220.2745	0.0885	440549	keystroke_r	r	n/a
220.499	0.089	440998	keystroke_n	n	n/a
220.994	0.074	441988	keystroke_m	m	n/a
221.188	0.12	442376	keystroke_e	e	n/a
221.323	0.06	442646	keystroke_n	n	n/a
221.474	0.089	442948	keystroke_t	t	n/a
221.713	0.105	443426	keystroke_a	a	n/a
222.058	0.09	444116	keystroke_l	l	n/a
222.358	0.045	444716	keystroke_y	y	n/a
222.898	0.09	445796	keystroke_Key.backspace	Key.backspace	n/a
223.003	0.075	446006	keystroke_Key.backspace	Key.backspace	n/a
223.274	0.089	446548	keystroke_Key.space	Key.space	n/a
224.308	0.045	448616	keystroke_Key.backspace	Key.backspace	n/a
224.788	0.075	449576	keystroke_l	l	n/a
225.013	0.075	450026	keystroke_Key.space	Key.space	n/a
225.719	0.104	451438	keystroke_w	w	n/a
225.913	0.121	451826	keystroke_a	a	n/a
226.079	0.104	452158	keystroke_s	s	n/a
226.243	0.06	452486	keystroke_h	h	n/a
226.423	0.06	452846	keystroke_Key.space	Key.space	n/a
226.843	0.076	453686	keystroke_v	v	n/a
227.024	0.075	454048	keystroke_i	i	n/a
227.308	0.076	454616	keystroke_c	c	n/a
227.683	0.076	455366	keystroke_t	t	n/a
227.998	0.091	455996	keystroke_o	o	n/a
228.118	0.075	456236	keystroke_r	r	n/a
228.298	0.075	456596	keystroke_Key.space	Key.space	n/a
228.583	0.09	457166	keystroke_c	c	n/a
228.734	0.105	457468	keystroke_o	o	n/a
228.779	0.12	457558	keystroke_n	n	n/a
229.288	0.076	458576	keystroke_i	i	n/a
229.528	0.075	459056	keystroke_n	n	n/a
230.128	0.091	460256	keystroke_u	u	n/a
230.669	0.075	461338	keystroke_i	i	n/a
230.999	0.075	461998	keystroke_t	t	n/a
231.119	0.075	462238	keystroke_y	y	n/a
231.944	0.059	463888	keystroke_Key.enter	Key.enter	n/a
232.012	9.804	464024	prompt	n/a	honor circus intelligence battle\n
232.754	0.045	465508	keystroke_h	h	n/a
232.889	0.105	465778	keystroke_o	o	n/a
233.038	0.091	466076	keystroke_n	n	n/a
233.204	0.12	466408	keystroke_o	o	n/a
233.429	0.075	466858	keystroke_r	r	n/a
233.593	0.076	467186	keystroke_Key.space	Key.space	n/a
234.058	0.076	468116	keystroke_c	c	n/a
234.238	0.091	468476	keystroke_i	i	n/a
234.434	0.09	468868	keystroke_r	r	n/a
234.674	0.09	469348	keystroke_c	c	n/a
235.063	0.076	470126	keystroke_u	u	n/a
235.424	0.09	470848	keystroke_s	s	n/a
235.574	0.059	471148	keystroke_Key.space	Key.space	n/a
235.979	0.075	471958	keystroke_i	i	n/a
236.488	0.076	472976	keystroke_t	t	n/a
237.133	0.075	474266	keystroke_Key.backspace	Key.backspace	n/a
237.388	0.09	474776	keystroke_n	n	n/a
237.643	0.105	475286	keystroke_t	t	n/a
237.868	0.09	475736	keystroke_e	e	n/a
238.109	0.059	476218	keystroke_l	l	n/a
238.244	0.075	476488	keystroke_l	l	n/a
238.423	0.09	476846	keystroke_i	i	n/a
238.963	0.06	477926	keystroke_g	g	n/a
239.668	0.061	479336	keystroke_e	e	n/a
239.788	0.075	479576	keystroke_n	n	n/a
239.893	0.15	479786	keystroke_c	c	n/a
239.998	0.105	479996	keystroke_e	e	n/a
240.178	0.075	480356	keystroke_Key.space	Key.space	n/a
240.419	0.075	480838	keystroke_b	b	n/a
240.553	0.09	481106	keystroke_a	a	n/a
240.749	0.059	481498	keystroke_t	t	n/a
240.869	0.105	481738	keystroke_t	t	n/a
240.958	0.105	481916	keystroke_l	l	n/a
241.108	0.09	482216	keystroke_e	e	n/a
241.738	0.075	483476	keystroke_Key.enter	Key.enter	n/a
241.822	15.804	483644	prompt	n/a	prairie stylus navigator indexed\n
242.473	0.09	484946	keystroke_p	p	n/a
242.788	0.105	485576	keystroke_r	r	n/a
243.133	0.105	486266	keystroke_a	a	n/a
243.358	0.09	486716	keystroke_i	i	n/a
243.628	0.106	487256	keystroke_r	r	n/a
244.093	0.076	488186	keystroke_i	i	n/a
244.423	0.076	488846	keystroke_e	e	n/a
244.618	0.06	489236	keystroke_Key.space	Key.space	n/a
244.949	0.089	489898	keystroke_s	s	n/a
245.129	0.089	490258	keystroke_t	t	n/a
245.308	0.045	490616	keystroke_y	y	n/a
245.519	0.089	491038	keystroke_l	l	n/a
245.759	0.06	491518	keystroke_u	u	n/a
245.938	0.06	491876	keystroke_s	s	n/a
246.043	0.076	492086	keystroke_Key.space	Key.space	n/a
246.479	0.06	492958	keystroke_n	n	n/a
246.869	0.15	493738	keystroke_a	a	n/a
247.874	0.074	495748	keystroke_i	i	n/a
248.324	0.089	496648	keystroke_g	g	n/a
248.908	0.075	497816	keystroke_Key.backspace	Key.backspace	n/a
249.058	0.075	498116	keystroke_Key.backspace	Key.backspace	n/a
249.404	0.074	498808	keystroke_c	c	n/a
249.929	0.074	499858	keystroke_Key.backspace	Key.backspace	n/a
250.033	0.076	500066	keystroke_v	v	n/a
250.229	0.075	500458	keystroke_i	i	n/a
250.603	0.091	501206	keystroke_g	g	n/a
250.799	0.12	501598	keystroke_a	a	n/a
251.039	0.074	502078	keystroke_o	o	n/a
251.203	0.061	502406	keystroke_r	r	n/a
251.458	0.03	502916	keystroke_Key.space	Key.space	n/a
251.893	0.031	503786	keystroke_Key.backspace	Key.backspace	n/a
252.028	0.06	504056	keystroke_Key.backspace	Key.backspace	n/a
252.613	0.076	505226	keystroke_Key.backspace	Key.backspace	n/a
252.779	0.06	505558	keystroke_t	t	n/a
252.913	0.106	505826	keystroke_o	o	n/a
253.169	0.015	506338	keystroke_r	r	n/a
253.258	0.045	506516	keystroke_Key.space	Key.space	n/a
254.264	0.09	508528	keystroke_e	e	n/a
254.608	0.075	509216	keystroke_Key.backspace	Key.backspace	n/a
255.073	0.106	510146	keystroke_i	i	n/a
255.283	0.091	510566	keystroke_n	n	n/a
255.569	0.09	511138	keystroke_d	d	n/a
255.779	0.074	511558	keystroke_e	e	n/a
256.259	0.104	512518	keystroke_x	x	n/a
256.574	0.105	513148	keystroke_e	e	n/a
256.799	0.119	513598	keystroke_d	d	n/a
257.549	0.074	515098	keystroke_Key.enter	Key.enter	n/a
257.632	7.014	515264	prompt	n/a	chaos three stay buyers\n
258.2545	0.074	516509	keystroke_c	c	n/a
258.3735	0.075	516747	keystroke_h	h	n/a
258.5535	0.09	517107	keystroke_a	a	n/a
258.7485	0.09	517497	keystroke_o	o	n/a
259.6185	0.09	519237	keystroke_s	s	n/a
259.8135	0.075	519627	keystroke_Key.space	Key.space	n/a
260.563	0.09	521126	keystroke_t	t	n/a
260.803	0.0765	521606	keystroke_h	h	n/a
260.998	0.1055	521996	keystroke_r	r	n/a
261.314	0.0295	522628	keystroke_e	e	n/a
261.4195	0.06	522839	keystroke_e	e	n/a
261.5235	0.09	523047	keystroke_Key.space	Key.space	n/a
261.7185	0.12	523437	keystroke_s	s	n/a
261.8835	0.075	523767	keystroke_t	t	n/a
262.0795	0.089	524159	keystroke_a	a	n/a
262.2435	0.09	524487	keystroke_y	y	n/a
262.4685	0.09	524937	keystroke_Key.space	Key.space	n/a
262.7245	0.105	525449	keystroke_b	b	n/a
262.9785	0.075	525957	keystroke_u	u	n/a
263.2335	0.075	526467	keystroke_y	y	n/a
263.4735	0.15	526947	keystroke_e	e	n/a
263.5635	0.106	527127	keystroke_r	r	n/a
263.8035	0.09	527607	keystroke_s	s	n/a
264.5535	0.09	529107	keystroke_Key.enter	Key.enter	n/a
264.652	10.3285	529304	prompt	n/a	grand cardiff scholar firewire\n
265.469	0.059	530938	keystroke_g	g	n/a
265.753	0.075	531506	keystroke_r	r	n/a
266.248	0.075	532496	keystroke_a	a	n/a
266.383	0.075	532766	keystroke_n	n	n/a
266.578	0.091	533156	keystroke_d	d	n/a
266.758	0.075	533516	keystroke_Key.space	Key.space	n/a
267.043	0.09	534086	keystroke_c	c	n/a
267.298	0.12	534596	keystroke_a	a	n/a
267.569	0.089	535138	keystroke_r	r	n/a
267.868	0.091	535736	keystroke_d	d	n/a
268.123	0.075	536246	keystroke_i	i	n/a
268.378	0.06	536756	keystroke_f	f	n/a
268.513	0.076	537026	keystroke_f	f	n/a
268.603	0.091	537206	keystroke_Key.space	Key.space	n/a
268.889	0.089	537778	keystroke_s	s	n/a
269.444	0.119	538888	keystroke_c	c	n/a
270.028	0.075	540056	keystroke_h	h	n/a
270.253	0.09	540506	keystroke_o	o	n/a
271.574	0.089	543148	keystroke_l	l	n/a
271.859	0.104	543718	keystroke_a	a	n/a
272.023	0.106	544046	keystroke_r	r	n/a
272.218	0.075	544436	keystroke_Key.space	Key.space	n/a
273.164	0.06	546328	keystroke_f	f	n/a
273.314	0.075	546628	keystroke_i	i	n/a
273.434	0.105	546868	keystroke_r	r	n/a
273.494	0.105	546988	keystroke_e	e	n/a
273.778	0.091	547556	keystroke_w	w	n/a
273.899	0.09	547798	keystroke_i	i	n/a
274.094	0.074	548188	keystroke_r	r	n/a
274.139	0.119	548278	keystroke_e	e	n/a
274.918	0.06	549836	keystroke_Key.enter	Key.enter	n/a
274.986	11.8745	549972	prompt	n/a	prepare courses iowa locator\n
275.594	0.105	551188	keystroke_p	p	n/a
275.864	0.105	551728	keystroke_r	r	n/a
276.569	0.089	553138	keystroke_p	p	n/a
277.244	0.089	554488	keystroke_Key.backspace	Key.backspace	n/a
277.364	0.075	554728	keystroke_e	e	n/a
278.369	0.09	556738	keystroke_p	p	n/a
278.533	0.106	557066	keystroke_a	a	n/a
278.759	0.12	557518	keystroke_r	r	n/a
278.834	0.12	557668	keystroke_e	e	n/a
279.103	0.075	558206	keystroke_Key.space	Key.space	n/a
279.704	0.075	559408	keystroke_c	c	n/a
280.739	0.105	561478	keystroke_o	o	n/a
280.799	0.105	561598	keystroke_u	u	n/a
281.024	0.105	562048	keystroke_r	r	n/a
281.249	0.12	562498	keystroke_s	s	n/a
281.804	0.09	563608	keystroke_e	e	n/a
282.014	0.105	564028	keystroke_s	s	n/a
282.178	0.075	564356	keystroke_Key.space	Key.space	n/a
282.658	0.091	565316	keystroke_i	i	n/a
282.959	0.09	565918	keystroke_o	o	n/a
283.334	0.105	566668	keystroke_w	w	n/a
283.559	0.135	567118	keystroke_a	a	n/a
284.113	0.061	568226	keystroke_Key.space	Key.space	n/a
284.579	0.075	569158	keystroke_l	l	n/a
284.774	0.075	569548	keystroke_o	o	n/a
284.984	0.105	569968	keystroke_c	c	n/a
285.149	0.12	570298	keystroke_a	a	n/a
285.689	0.075	571378	keystroke_t	t	n/a
285.854	0.105	571708	keystroke_o	o	n/a
286.019	0.089	572038	keystroke_r	r	n/a
286.784	0.075	573568	keystroke_Key.enter	Key.enter	n/a
286.865	22.466	573730	prompt	n/a	percent evaluation extensive stating\n
287.609	0.105	575218	keystroke_p	p	n/a
288.1035	0.075	576207	keystroke_e	e	n/a
288.2235	0.105	576447	keystroke_r	r	n/a
288.5535	0.09	577107	keystroke_c	c	n/a
288.7185	0.105	577437	keystroke_e	e	n/a
288.8835	0.075	577767	keystroke_n	n	n/a
289.0035	0.075	578007	keystroke_t	t	n/a
289.1235	0.075	578247	keystroke_Key.space	Key.space	n/a
289.6035	0.075	579207	keystroke_e	e	n/a
289.7385	0.135	579477	keystroke_v	v	n/a
290.0385	0.105	580077	keystroke_a	a	n/a
290.4285	0.105	580857	keystroke_l	l	n/a
290.6535	0.09	581307	keystroke_u	u	n/a
290.9085	0.09	581817	keystroke_a	a	n/a
291.0435	0.12	582087	keystroke_t	t	n/a
291.1185	0.12	582237	keystroke_i	i	n/a
291.2395	0.134	582479	keystroke_o	o	n/a
291.2685	0.12	582537	keystroke_n	n	n/a
292.6335	0.09	585267	keystroke_Key.space	Key.space	n/a
292.8285	0.075	585657	keystroke_e	e	n/a
293.1585	0.075	586317	keystroke_x	x	n/a
293.6385	0.09	587277	keystroke_t	t	n/a
293.8935	0.09	587787	keystroke_a	a	n/a
294.0435	0.075	588087	keystroke_n	n	n/a
294.7035	0.105	589407	keystroke_s	s	n/a
295.0185	0.09	590037	keystroke_i	i	n/a
295.7085	0.075	591417	keystroke_v	v	n/a
295.9635	0.105	591927	keystroke_e	e	n/a
296.2335	0.06	592467	keystroke_Key.space	Key.space	n/a
296.6985	0.09	593397	keystroke_s	s	n/a
296.9985	0.075	593997	keystroke_k	k	n/a
297.3435	0.12	594687	keystroke_a	a	n/a
297.5985	0.075	595197	keystroke_t	t	n/a
297.9285	0.135	595857	keystroke_i	i	n/a
298.0335	0.105	596067	keystroke_n	n	n/a
298.1985	0.075	596397	keystroke_g	g	n/a
299.0535	0.09	598107	keystroke_Key.backspace	Key.backspace	n/a
299.2335	0.075	598467	keystroke_Key.backspace	Key.backspace	n/a
299.3685	0.09	598737	keystroke_Key.backspace	Key.backspace	n/a
299.5335	0.06	599067	keystroke_Key.backspace	Key.backspace	n/a
299.6835	0.06	599367	keystroke_Key.backspace	Key.backspace	n/a
299.8335	0.06	599667	keystroke_Key.backspace	Key.backspace	n/a
299.9985	0.045	599997	keystroke_Key.backspace	Key.backspace	n/a
300.1485	0.06	600297	keystroke_Key.backspace	Key.backspace	n/a
300.3135	0.045	600627	keystroke_Key.backspace	Key.backspace	n/a
300.4635	0.06	600927	keystroke_Key.backspace	Key.backspace	n/a
300.6435	0.06	601287	keystroke_Key.backspace	Key.backspace	n/a
302.8215	0.012	605643	keystroke_Key.backspace	Key.backspace	n/a
302.9385	0.06	605877	keystroke_Key.backspace	Key.backspace	n/a
303.1035	0.09	606207	keystroke_Key.backspace	Key.backspace	n/a
303.4035	0.075	606807	keystroke_e	e	n/a
303.8835	0.075	607767	keystroke_n	n	n/a
304.574	0.12	609148	keystroke_s	s	n/a
305.324	0.075	610648	keystroke_i	i	n/a
305.444	0.105	610888	keystroke_v	v	n/a
305.609	0.105	611218	keystroke_e	e	n/a
305.759	0.075	611518	keystroke_Key.space	Key.space	n/a
306.629	0.075	613258	keystroke_s	s	n/a
306.779	0.12	613558	keystroke_t	t	n/a
307.784	0.105	615568	keystroke_a	a	n/a
308.009	0.105	616018	keystroke_t	t	n/a
308.174	0.135	616348	keystroke_i	i	n/a
308.294	0.09	616588	keystroke_n	n	n/a
308.444	0.09	616888	keystroke_g	g	n/a
309.269	0.06	618538	keystroke_Key.enter	Key.enter	n/a
309.336	15.551	618672	prompt	n/a	hate delaware highlight bears\n
310.709	0.0745	621418	keystroke_h	h	n/a
310.8135	0.12	621627	keystroke_a	a	n/a
311.0235	0.105	622047	keystroke_t	t	n/a
311.1585	0.105	622317	keystroke_e	e	n/a
311.3535	0.075	622707	keystroke_Key.space	Key.space	n/a
311.8185	0.06	623637	keystroke_d	d	n/a
311.984	0.0745	623968	keystroke_e	e	n/a
312.1185	0.09	624237	keystroke_l	l	n/a
312.2985	0.09	624597	keystroke_e	e	n/a
313.1985	0.09	626397	keystroke_w	w	n/a
314.5935	0.09	629187	keystroke_Key.backspace	Key.backspace	n/a
314.7435	0.075	629487	keystroke_Key.backspace	Key.backspace	n/a
314.8935	0.075	629787	keystroke_Key.backspace	Key.backspace	n/a
315.5385	0.09	631077	keystroke_l	l	n/a
315.6885	0.105	631377	keystroke_a	a	n/a
316.0935	0.03	632187	keystroke_w	w	n/a
316.6035	0.12	633207	keystroke_a	a	n/a
316.8435	0.09	633687	keystroke_r	r	n/a
316.9035	0.105	633807	keystroke_e	e	n/a
317.4885	0.075	634977	keystroke_Key.space	Key.space	n/a
317.8635	0.075	635727	keystroke_i	i	n/a
318.2685	0.075	636537	keystroke_Key.backspace	Key.backspace	n/a
318.5235	0.135	637047	keystroke_h	h	n/a
318.7335	0.105	637467	keystroke_i	i	n/a
320.9565	0	641913	keystroke_g	g	n/a
321.0135	0.075	642027	keystroke_h	h	n/a
321.7935	0.075	643587	keystroke_l	l	n/a
321.9735	0.075	643947	keystroke_i	i	n/a
322.2585	0.075	644517	keystroke_g	g	n/a
322.3785	0.09	644757	keystroke_h	h	n/a
322.5285	0.075	645057	keystroke_t	t	n/a
322.8285	0.06	645657	keystroke_Key.space	Key.space	n/a
323.2635	0.075	646527	keystroke_b	b	n/a
323.5635	0.105	647127	keystroke_e	e	n/a
323.7435	0.135	647487	keystroke_a	a	n/a
323.9535	0.135	647907	keystroke_r	r	n/a
324.1935	0.105	648387	keystroke_s	s	n/a
324.8235	0.06	649647	keystroke_Key.enter	Key.enter	n/a
324.8915	8.1835	649783	prompt	n/a	bidding children immunology fatty\n
325.6635	0.075	651327	keystroke_b	b	n/a
325.8885	0.075	651777	keystroke_i	i	n/a
326.1435	0.045	652287	keystroke_d	d	n/a
326.2485	0.075	652497	keystroke_d	d	n/a
326.3535	0.135	652707	keystroke_i	i	n/a
326.4585	0.09	652917	keystroke_n	n	n/a
326.5785	0.075	653157	keystroke_g	g	n/a
326.6835	0.105	653367	keystroke_Key.space	Key.space	n/a
326.9385	0.075	653877	keystroke_c	c	n/a
327.0285	0.105	654057	keystroke_h	h	n/a
327.1935	0.12	654387	keystroke_i	i	n/a
327.3735	0.12	654747	keystroke_l	l	n/a
327.7185	0.09	655437	keystroke_d	d	n/a
327.9435	0.105	655887	keystroke_r	r	n/a
328.0035	0.09	656007	keystroke_e	e	n/a
328.2135	0.09	656427	keystroke_n	n	n/a
328.4085	0.075	656817	keystroke_Key.space	Key.space	n/a
328.7685	0.105	657537	keystroke_i	i	n/a
329.0235	0.045	658047	keystroke_m	m	n/a
329.1435	0.075	658287	keystroke_m	m	n/a
329.3685	0.06	658737	keystroke_u	u	n/a
329.5785	0.075	659157	keystroke_n	n	n/a
329.8185	0.105	659637	keystroke_o	o	n/a
329.9985	0.105	659997	keystroke_l	l	n/a
330.2235	0.075	660447	keystroke_o	o	n/a
330.5685	0.075	661137	keystroke_g	g	n/a
330.6885	0.075	661377	keystroke_y	y	n/a
330.9285	0.075	661857	keystroke_Key.space	Key.space	n/a
331.4235	0.075	662847	keystroke_f	f	n/a
331.8295	0.089	663659	keystroke_a	a	n/a
332.0685	0.06	664137	keystroke_t	t	n/a
332.2035	0.075	664407	keystroke_t	t	n/a
332.2935	0.09	664587	keystroke_y	y	n/a
333.0135	0.06	666027	keystroke_Key.enter	Key.enter	n/a
333.081	10.194	666162	prompt	n/a	departmental grill professional wholesale\n
333.9285	0.06	667857	keystroke_d	d	n/a
334.0935	0.06	668187	keystroke_e	e	n/a
334.2135	0.105	668427	keystroke_p	p	n/a
334.4235	0.15	668847	keystroke_a	a	n/a
334.6185	0.09	669237	keystroke_r	r	n/a
334.8285	0.09	669657	keystroke_t	t	n/a
335.2785	0.075	670557	keystroke_m	m	n/a
335.4135	0.105	670827	keystroke_e	e	n/a
335.5335	0.09	671067	keystroke_n	n	n/a
335.6685	0.105	671337	keystroke_t	t	n/a
335.9085	0.09	671817	keystroke_a	a	n/a
335.9995	0.074	671999	keystroke_l	l	n/a
336.1185	0.105	672237	keystroke_Key.space	Key.space	n/a
336.3735	0.075	672747	keystroke_g	g	n/a
336.5835	0.075	673167	keystroke_r	r	n/a
336.7635	0.075	673527	keystroke_i	i	n/a
337.0035	0.045	674007	keystroke_l	l	n/a
337.1235	0.075	674247	keystroke_l	l	n/a
337.2435	0.105	674487	keystroke_Key.space	Key.space	n/a
337.4685	0.105	674937	keystroke_p	p	n/a
337.6785	0.075	675357	keystroke_r	r	n/a
337.8135	0.105	675627	keystroke_o	o	n/a
338.1285	0.06	676257	keystroke_f	f	n/a
338.3235	0.09	676647	keystroke_e	e	n/a
338.6235	0.075	677247	keystroke_s	s	n/a
338.7735	0.075	677547	keystroke_s	s	n/a
338.8785	0.165	677757	keystroke_i	i	n/a
339.6585	0.135	679317	keystroke_o	o	n/a
339.9135	0.09	679827	keystroke_n	n	n/a
340.1835	0.09	680367	keystroke_a	a	n/a
340.3185	0.0745	680637	keystroke_l	l	n/a
340.4685	0.105	680937	keystroke_Key.space	Key.space	n/a
340.8885	0.135	681777	keystroke_w	w	n/a
341.1885	0.075	682377	keystroke_h	h	n/a
341.3835	0.075	682767	keystroke_o	o	n/a
341.5635	0.105	683127	keystroke_l	l	n/a
341.6835	0.105	683367	keystroke_e	e	n/a
341.9235	0.12	683847	keystroke_s	s	n/a
342.1335	0.09	684267	keystroke_a	a	n/a
342.2385	0.09	684477	keystroke_l	l	n/a
342.3885	0.075	684777	keystroke_e	e	n/a
343.1985	0.075	686397	keystroke_Key.enter	Key.enter	n/a
343.281	12.7015	686562	prompt	n/a	possibly hoping joined display\n
343.9785	0.105	687957	keystroke_p	p	n/a
344.1885	0.105	688377	keystroke_a	a	n/a
344.743	0.06	689486	keystroke_Key.backspace	Key.backspace	n/a
344.9835	0.105	689967	keystroke_o	o	n/a
345.2385	0.06	690477	keystroke_s	s	n/a
345.3735	0.075	690747	keystroke_s	s	n/a
345.4635	0.105	690927	keystroke_i	i	n/a
345.6885	0.09	691377	keystroke_b	b	n/a
346.168	0.0905	692336	keystroke_l	l	n/a
346.6035	0.075	693207	keystroke_y	y	n/a
346.8735	0.06	693747	keystroke_Key.space	Key.space	n/a
347.8935	0.09	695787	keystroke_h	h	n/a
348.0735	0.09	696147	keystroke_o	o	n/a
348.2535	0.075	696507	keystroke_p	p	n/a
348.4485	0.12	696897	keystroke_i	i	n/a
348.5535	0.09	697107	keystroke_n	n	n/a
348.7335	0.075	697467	keystroke_g	g	n/a
348.8385	0.09	697677	keystroke_Key.space	Key.space	n/a
349.3335	0.09	698667	keystroke_l	l	n/a
349.7385	0.075	699477	keystroke_Key.backspace	Key.backspace	n/a
349.978	0.1205	699956	keystroke_j	j	n/a
350.5035	0.12	701007	keystroke_o	o	n/a
350.7135	0.12	701427	keystroke_i	i	n/a
350.8935	0.105	701787	keystroke_n	n	n/a
351.103	0.0905	702206	keystroke_e	e	n/a
351.2985	0.1045	702597	keystroke_d	d	n/a
351.373	0.09	702746	keystroke_Key.space	Key.space	n/a
351.6285	0.075	703257	keystroke_s	s	n/a
351.7485	0.091	703497	keystroke_i	i	n/a
352.123	0.06	704246	keystroke_Key.backspace	Key.backspace	n/a
352.243	0.075	704486	keystroke_Key.backspace	Key.backspace	n/a
352.333	0.135	704666	keystroke_d	d	n/a
352.483	0.105	704966	keystroke_i	i	n/a
352.663	0.105	705326	keystroke_s	s	n/a
352.783	0.09	705566	keystroke_p	p	n/a
353.039	0.059	706078	keystroke_l	l	n/a
353.563	0.121	707126	keystroke_a	a	n/a
354.5235	0.06	709047	keystroke_y	y	n/a
355.9185	0.06	711837	keystroke_Key.enter	Key.enter	n/a
355.9905	13.835	711981	prompt	n/a	camps salvador bennett investigators\n
356.758	0.1065	713516	keystroke_c	c	n/a
356.9235	0.1045	713847	keystroke_a	a	n/a
357.029	0.0745	714058	keystroke_m	m	n/a
357.1935	0.0895	714387	keystroke_p	p	n/a
357.403	0.075	714806	keystroke_s	s	n/a
357.523	0.06	715046	keystroke_Key.space	Key.space	n/a
358.033	0.09	716066	keystroke_s	s	n/a
358.213	0.105	716426	keystroke_a	a	n/a
358.363	0.09	716726	keystroke_l	l	n/a
358.603	0.09	717206	keystroke_v	v	n/a
358.783	0.12	717566	keystroke_a	a	n/a
359.053	0.105	718106	keystroke_d	d	n/a
359.173	0.105	718346	keystroke_o	o	n/a
359.398	0.075	718796	keystroke_r	r	n/a
359.518	0.06	719036	keystroke_Key.space	Key.space	n/a
359.833	0.09	719666	keystroke_b	b	n/a
360.163	0.075	720326	keystroke_e	e	n/a
360.958	0.06	721916	keystroke_n	n	n/a
361.078	0.09	722156	keystroke_n	n	n/a
361.243	0.15	722486	keystroke_e	e	n/a
361.498	0.03	722996	keystroke_t	t	n/a
362.353	0.075	724706	keystroke_t	t	n/a
363.943	0.075	727886	keystroke_Key.space	Key.space	n/a
364.694	0.015	729388	keystroke_o	o	n/a
365.323	0.075	730646	keystroke_Key.backspace	Key.backspace	n/a
365.818	0.075	731636	keystroke_i	i	n/a
365.968	0.091	731936	keystroke_n	n	n/a
366.209	0.074	732418	keystroke_v	v	n/a
366.464	0.089	732928	keystroke_e	e	n/a
366.793	0.121	733586	keystroke_s	s	n/a
367.003	0.12	734006	keystroke_t	t	n/a
367.169	0.09	734338	keystroke_i	i	n/a
367.453	0.075	734906	keystroke_g	g	n/a
367.679	0.105	735358	keystroke_a	a	n/a
368.518	0.076	737036	keystroke_t	t	n/a
368.623	0.105	737246	keystroke_o	o	n/a
368.759	0.12	737518	keystroke_r	r	n/a
369.134	0.074	738268	keystroke_s	s	n/a
369.748	0.075	739496	keystroke_Key.enter	Key.enter	n/a
369.8315	10.014	739663	prompt	n/a	proportion entertaining they'd insider\n
370.754	0.089	741508	keystroke_p	p	n/a
370.978	0.076	741956	keystroke_r	r	n/a
371.099	0.089	742198	keystroke_o	o	n/a
371.309	0.089	742618	keystroke_p	p	n/a
371.593	0.105	743186	keystroke_o	o	n/a
371.908	0.045	743816	keystroke_r	r	n/a
372.073	0.075	744146	keystroke_t	t	n/a
372.163	0.15	744326	keystroke_i	i	n/a
372.299	0.149	744598	keystroke_o	o	n/a
372.359	0.104	744718	keystroke_n	n	n/a
372.553	0.09	745106	keystroke_Key.space	Key.space	n/a
372.869	0.059	745738	keystroke_e	e	n/a
373.003	0.076	746006	keystroke_n	n	n/a
373.228	0.09	746456	keystroke_t	t	n/a
373.424	0.09	746848	keystroke_e	e	n/a
373.573	0.121	747146	keystroke_r	r	n/a
374.984	0.09	749968	keystroke_t	t	n/a
375.269	0.09	750538	keystroke_a	a	n/a
375.464	0.09	750928	keystroke_i	i	n/a
375.569	0.105	751138	keystroke_n	n	n/a
375.823	0.136	751646	keystroke_i	i	n/a
375.913	0.091	751826	keystroke_n	n	n/a
376.049	0.059	752098	keystroke_g	g	n/a
376.153	0.09	752306	keystroke_Key.space	Key.space	n/a
376.513	0.076	753026	keystroke_t	t	n/a
376.634	0.09	753268	keystroke_h	h	n/a
376.964	0.045	753928	keystroke_e	e	n/a
377.069	0.104	754138	keystroke_y	y	n/a
377.309	0.089	754618	keystroke_'	'	n/a
377.684	0.075	755368	keystroke_d	d	n/a
377.863	0.076	755726	keystroke_Key.space	Key.space	n/a
378.209	0.09	756418	keystroke_i	i	n/a
378.329	0.105	756658	keystroke_n	n	n/a
378.494	0.075	756988	keystroke_s	s	n/a
378.629	0.089	757258	keystroke_i	i	n/a
378.734	0.075	757468	keystroke_d	d	n/a
378.929	0.15	757858	keystroke_e	e	n/a
379.018	0.121	758036	keystroke_r	r	n/a
379.769	0.075	759538	keystroke_Key.enter	Key.enter	n/a
379.8505	13.675	759701	prompt	n/a	hypothetical enquiry fifteen papua\n
381.343	0.091	762686	keystroke_h	h	n/a
381.554	0.06	763108	keystroke_y	y	n/a
381.764	0.09	763528	keystroke_p	p	n/a
382.004	0.09	764008	keystroke_o	o	n/a
382.229	0.06	764458	keystroke_s	s	n/a
382.514	0.075	765028	keystroke_t	t	n/a
382.918	0.061	765836	keystroke_Key.backspace	Key.backspace	n/a
383.053	0.076	766106	keystroke_Key.backspace	Key.backspace	n/a
383.204	0.09	766408	keystroke_t	t	n/a
383.354	0.09	766708	keystroke_h	h	n/a
383.654	0.06	767308	keystroke_e	e	n/a
384.043	0.091	768086	keystroke_t	t	n/a
384.239	0.075	768478	keystroke_i	i	n/a
384.854	0.09	769708	keystroke_c	c	n/a
385.094	0.09	770188	keystroke_a	a	n/a
385.214	0.075	770428	keystroke_l	l	n/a
385.483	0.061	770966	keystroke_Key.space	Key.space	n/a
386.2485	0.075	772497	keystroke_e	e	n/a
386.4285	0.075	772857	keystroke_n	n	n/a
386.9235	0.105	773847	keystroke_q	q	n/a
387.2385	0.09	774477	keystroke_u	u	n/a
387.4485	0.09	774897	keystroke_i	i	n/a
387.7335	0.075	775467	keystroke_r	r	n/a
387.9135	0.075	775827	keystroke_y	y	n/a
388.1235	0.09	776247	keystroke_Key.space	Key.space	n/a
388.3785	0.06	776757	keystroke_f	f	n/a
388.4835	0.09	776967	keystroke_i	i	n/a
388.7535	0.09	777507	keystroke_f	f	n/a
389.1885	0.09	778377	keystroke_t	t	n/a
389.5185	0.075	779037	keystroke_e	e	n/a
389.8035	0.06	779607	keystroke_e	e	n/a
390.4335	0.075	780867	keystroke_n	n	n/a
390.9585	0.06	781917	keystroke_Key.space	Key.space	n/a
391.4085	0.09	782817	keystroke_p	p	n/a
391.6035	0.09	783207	keystroke_a	a	n/a
391.7835	0.09	783567	keystroke_p	p	n/a
392.0835	0.09	784167	keystroke_u	u	n/a
392.7435	0.075	785487	keystroke_a	a	n/a
393.4485	0.075	786897	keystroke_Key.enter	Key.enter	n/a
393.5305	12.0255	787061	prompt	n/a	feature fares checks imports\n
394.4845	0.059	788969	keystroke_g	g	n/a
394.7385	0.075	789477	keystroke_e	e	n/a
394.9635	0.105	789927	keystroke_a	a	n/a
395.3085	0.06	790617	keystroke_Key.backspace	Key.backspace	n/a
395.4435	0.09	790887	keystroke_Key.backspace	Key.backspace	n/a
395.6235	0.045	791247	keystroke_f	f	n/a
396.0885	0.06	792177	keystroke_Key.backspace	Key.backspace	n/a
396.2235	0.075	792447	keystroke_Key.backspace	Key.backspace	n/a
396.3885	0.105	792777	keystroke_f	f	n/a
396.8535	0.075	793707	keystroke_e	e	n/a
397.1385	0.105	794277	keystroke_a	a	n/a
397.3785	0.06	794757	keystroke_t	t	n/a
397.6185	0.09	795237	keystroke_r	r	n/a
397.6785	0.075	795357	keystroke_e	e	n/a
398.1285	0.09	796257	keystroke_Key.backspace	Key.backspace	n/a
398.2635	0.075	796527	keystroke_Key.backspace	Key.backspace	n/a
399.1785	0.075	798357	keystroke_u	u	n/a
399.5535	0.105	799107	keystroke_r	r	n/a
399.6735	0.09	799347	keystroke_e	e	n/a
399.8085	0.075	799617	keystroke_Key.space	Key.space	n/a
400.3785	0.075	800757	keystroke_f	f	n/a
400.5435	0.12	801087	keystroke_a	a	n/a
400.7835	0.12	801567	keystroke_r	r	n/a
400.8735	0.09	801747	keystroke_e	e	n/a
401.0985	0.075	802197	keystroke_s	s	n/a
401.2635	0.075	802527	keystroke_Key.space	Key.space	n/a
402.4785	0.06	804957	keystroke_c	c	n/a
402.6285	0.06	805257	keystroke_h	h	n/a
402.7635	0.09	805527	keystroke_e	e	n/a
403.1235	0.06	806247	keystroke_c	c	n/a
403.2435	0.075	806487	keystroke_k	k	n/a
403.4385	0.09	806877	keystroke_s	s	n/a
403.6035	0.06	807207	keystroke_Key.space	Key.space	n/a
403.9485	0.12	807897	keystroke_i	i	n/a
404.1135	0.105	808227	keystroke_m	m	n/a
404.2485	0.105	808497	keystroke_p	p	n/a
404.4735	0.09	808947	keystroke_o	o	n/a
404.6385	0.075	809277	keystroke_r	r	n/a
404.8035	0.075	809607	keystroke_t	t	n/a
404.9985	0.075	809997	keystroke_s	s	n/a
405.4935	0.06	810987	keystroke_Key.enter	Key.enter	n/a
405.561	7.5095	811122	prompt	n/a	modular loop achieve loss\n
406.5585	0.075	813117	keystroke_m	m	n/a
406.7535	0.075	813507	keystroke_o	o	n/a
406.9635	0.09	813927	keystroke_d	d	n/a
407.1435	0.075	814287	keystroke_u	u	n/a
407.3385	0.09	814677	keystroke_l	l	n/a
407.4735	0.135	814947	keystroke_a	a	n/a
407.6535	0.075	815307	keystroke_r	r	n/a
407.7585	0.06	815517	keystroke_Key.space	Key.space	n/a
407.9535	0.105	815907	keystroke_l	l	n/a
408.2085	0.06	816417	keystroke_o	o	n/a
408.3285	0.09	816657	keystroke_o	o	n/a
408.4785	0.09	816957	keystroke_p	p	n/a
408.7035	0.09	817407	keystroke_Key.space	Key.space	n/a
410.0385	0.165	820077	keystroke_a	a	n/a
410.2485	0.09	820497	keystroke_c	c	n/a
410.5185	0.075	821037	keystroke_h	h	n/a
410.8635	0.075	821727	keystroke_i	i	n/a
410.9985	0.09	821997	keystroke_e	e	n/a
411.1785	0.075	822357	keystroke_v	v	n/a
411.3285	0.06	822657	keystroke_e	e	n/a
411.824	0.06	823648	keystroke_Key.space	Key.space	n/a
412.1085	0.09	824217	keystroke_l	l	n/a
412.3035	0.09	824607	keystroke_o	o	n/a
412.514	0.0595	825028	keystroke_s	s	n/a
412.664	0.0595	825328	keystroke_s	s	n/a
413.009	0.0595	826018	keystroke_Key.enter	Key.enter	n/a
413.077	9.369	826154	prompt	n/a	shipment prayers taxes hypothesis\n
413.819	0.09	827638	keystroke_s	s	n/a
413.954	0.09	827908	keystroke_h	h	n/a
414.104	0.1045	828208	keystroke_i	i	n/a
414.269	0.1045	828538	keystroke_p	p	n/a
414.5085	0.09	829017	keystroke_m	m	n/a
414.6585	0.09	829317	keystroke_e	e	n/a
414.7785	0.09	829557	keystroke_n	n	n/a
414.9135	0.09	829827	keystroke_t	t	n/a
414.9735	0.09	829947	keystroke_Key.space	Key.space	n/a
415.1835	0.105	830367	keystroke_p	p	n/a
415.3935	0.075	830787	keystroke_r	r	n/a
415.6785	0.09	831357	keystroke_a	a	n/a
415.9185	0.06	831837	keystroke_y	y	n/a
416.0535	0.12	832107	keystroke_e	e	n/a
416.1135	0.091	832227	keystroke_r	r	n/a
416.339	0.0595	832678	keystroke_s	s	n/a
416.4135	0.09	832827	keystroke_Key.space	Key.space	n/a
416.8485	0.09	833697	keystroke_t	t	n/a
417.0595	0.089	834119	keystroke_a	a	n/a
417.4635	0.091	834927	keystroke_x	x	n/a
418.0635	0.075	836127	keystroke_e	e	n/a
418.2885	0.105	836577	keystroke_s	s	n/a
418.5135	0.075	837027	keystroke_Key.space	Key.space	n/a
419.3985	0.075	838797	keystroke_h	h	n/a
419.6685	0.06	839337	keystroke_y	y	n/a
420.1185	0.12	840237	keystroke_p	p	n/a
420.3885	0.091	840777	keystroke_o	o	n/a
420.8095	0.089	841619	keystroke_t	t	n/a
420.9885	0.09	841977	keystroke_h	h	n/a
421.1835	0.075	842367	keystroke_e	e	n/a
421.3935	0.075	842787	keystroke_s	s	n/a
421.6795	0.074	843359	keystroke_i	i	n/a
421.7985	0.075	843597	keystroke_s	s	n/a
422.3835	0.06	844767	keystroke_Key.enter	Key.enter	n/a
422.4505	9.9865	844901	prompt	n/a	should've usually nashville template\n
423.1185	0.09	846237	keystroke_s	s	n/a
423.2235	0.075	846447	keystroke_h	h	n/a
424.3335	0.09	848667	keystroke_o	o	n/a
424.6185	0.09	849237	keystroke_u	u	n/a
424.8735	0.09	849747	keystroke_l	l	n/a
425.0685	0.09	850137	keystroke_d	d	n/a
425.3835	0.075	850767	keystroke_'	'	n/a
425.5335	0.105	851067	keystroke_v	v	n/a
425.6985	0.09	851397	keystroke_e	e	n/a
425.8785	0.075	851757	keystroke_Key.space	Key.space	n/a
426.5985	0.09	853197	keystroke_u	u	n/a
427.0335	0.075	854067	keystroke_s	s	n/a
427.1985	0.09	854397	keystroke_u	u	n/a
427.4685	0.09	854937	keystroke_a	a	n/a
427.6335	0.075	855267	keystroke_l	l	n/a
427.7695	0.059	855539	keystroke_l	l	n/a
427.9345	0.075	855869	keystroke_y	y	n/a
428.1895	0.089	856379	keystroke_Key.space	Key.space	n/a
428.5635	0.105	857127	keystroke_n	n	n/a
428.7885	0.105	857577	keystroke_a	a	n/a
429.0585	0.091	858117	keystroke_s	s	n/a
429.1935	0.09	858387	keystroke_h	h	n/a
429.5385	0.091	859077	keystroke_v	v	n/a
429.7035	0.076	859407	keystroke_i	i	n/a
429.9295	0.059	859859	keystroke_l	l	n/a
430.0485	0.076	860097	keystroke_l	l	n/a
430.1685	0.09	860337	keystroke_e	e	n/a
430.2735	0.075	860547	keystroke_Key.space	Key.space	n/a
430.5885	0.09	861177	keystroke_t	t	n/a
430.7695	0.09	861539	keystroke_e	e	n/a
430.8895	0.09	861779	keystroke_m	m	n/a
431.0845	0.074	862169	keystroke_p	p	n/a
431.2485	0.121	862497	keystroke_l	l	n/a
431.4595	0.104	862919	keystroke_a	a	n/a
431.6095	0.134	863219	keystroke_t	t	n/a
431.7735	0.106	863547	keystroke_e	e	n/a
432.3585	0.076	864717	keystroke_Key.enter	Key.enter	n/a
432.4425	12.114	864885	prompt	n/a	cache watches launched graduates\n
433.1835	0.09	866367	keystroke_c	c	n/a
433.3485	0.135	866697	keystroke_a	a	n/a
434.1435	0.016	868287	keystroke_c	c	n/a
434.2185	0.075	868437	keystroke_h	h	n/a
434.3685	0.076	868737	keystroke_e	e	n/a
434.6385	0.075	869277	keystroke_Key.space	Key.space	n/a
435.0435	0.105	870087	keystroke_w	w	n/a
435.2535	0.136	870507	keystroke_a	a	n/a
435.4945	0.104	870989	keystroke_t	t	n/a
435.7645	0.104	871529	keystroke_c	c	n/a
435.8995	0.075	871799	keystroke_h	h	n/a
436.0185	0.091	872037	keystroke_e	e	n/a
436.3795	0.09	872759	keystroke_s	s	n/a
436.4985	0.09	872997	keystroke_Key.space	Key.space	n/a
437.5035	0.09	875007	keystroke_l	l	n/a
437.6545	0.104	875309	keystroke_a	a	n/a
437.8485	0.046	875697	keystroke_u	u	n/a
438.0295	0.089	876059	keystroke_n	n	n/a
438.3585	0.076	876717	keystroke_c	c	n/a
438.4935	0.075	876987	keystroke_h	h	n/a
438.8535	0.06	877707	keystroke_e	e	n/a
439.1095	0.015	878219	keystroke_d	d	n/a
439.1985	0.075	878397	keystroke_Key.space	Key.space	n/a
439.7385	0.076	879477	keystroke_g	g	n/a
439.9495	0.09	879899	keystroke_r	r	n/a
440.2045	0.105	880409	keystroke_a	a	n/a
440.4135	0.091	880827	keystroke_d	d	n/a
440.5795	0.09	881159	keystroke_u	u	n/a
441.0595	0.104	882119	keystroke_t	t	n/a
442.454	0.075	884908	keystroke_Key.backspace	Key.backspace	n/a
442.634	0.105	885268	keystroke_a	a	n/a
442.844	0.105	885688	keystroke_t	t	n/a
442.994	0.075	885988	keystroke_e	e	n/a
443.279	0.09	886558	keystroke_s	s	n/a
444.479	0.075	888958	keystroke_Key.enter	Key.enter	n/a
444.5625	8.1085	889125	prompt	n/a	inserted wasn't nominated charged\n
445.229	0.09	890458	keystroke_i	i	n/a
445.364	0.105	890728	keystroke_n	n	n/a
445.514	0.106	891028	keystroke_s	s	n/a
445.844	0.18	891688	keystroke_e	e	n/a
446.069	0.105	892138	keystroke_r	r	n/a
446.309	0.075	892618	keystroke_t	t	n/a
446.445	0.104	892890	keystroke_e	e	n/a
446.669	0.106	893338	keystroke_d	d	n/a
446.819	0.09	893638	keystroke_Key.space	Key.space	n/a
447.074	0.091	894148	keystroke_w	w	n/a
447.299	0.045	894598	keystroke_a	a	n/a
447.329	0.135	894658	keystroke_s	s	n/a
447.584	0.105	895168	keystroke_n	n	n/a
447.704	0.09	895408	keystroke_'	'	n/a
447.869	0.075	895738	keystroke_t	t	n/a
448.004	0.09	896008	keystroke_Key.space	Key.space	n/a
448.514	0.091	897028	keystroke_n	n	n/a
448.725	0.149	897450	keystroke_o	o	n/a
448.859	0.105	897718	keystroke_m	m	n/a
449.115	0.09	898230	keystroke_i	i	n/a
449.475	0.089	898950	keystroke_n	n	n/a
449.744	0.121	899488	keystroke_a	a	n/a
450.03	0.044	900060	keystroke_t	t	n/a
450.18	0.105	900360	keystroke_e	e	n/a
450.435	0.105	900870	keystroke_d	d	n/a
450.569	0.075	901138	keystroke_Key.space	Key.space	n/a
450.794	0.09	901588	keystroke_c	c	n/a
450.93	0.074	901860	keystroke_h	h	n/a
451.05	0.105	902100	keystroke_a	a	n/a
451.334	0.09	902668	keystroke_r	r	n/a
451.56	0.09	903120	keystroke_g	g	n/a
451.694	0.106	903388	keystroke_e	e	n/a
451.919	0.106	903838	keystroke_d	d	n/a
452.594	0.075	905188	keystroke_Key.enter	Key.enter	n/a
452.677	13.0295	905354	prompt	n/a	delayed additional farm horizontal\n
453.315	0.075	906630	keystroke_d	d	n/a
453.495	0.089	906990	keystroke_e	e	n/a
453.659	0.075	907318	keystroke_l	l	n/a
454.394	0.06	908788	keystroke_Key.backspace	Key.backspace	n/a
455.355	0.059	910710	keystroke_l	l	n/a
455.475	0.089	910950	keystroke_a	a	n/a
455.685	0.075	911370	keystroke_y	y	n/a
456.014	0.061	912028	keystroke_d	d	n/a
456.584	0.075	913168	keystroke_Key.backspace	Key.backspace	n/a
456.675	0.105	913350	keystroke_e	e	n/a
456.884	0.091	913768	keystroke_d	d	n/a
456.975	0.059	913950	keystroke_Key.space	Key.space	n/a
457.859	0.106	915718	keystroke_a	a	n/a
458.114	0.061	916228	keystroke_d	d	n/a
458.235	0.074	916470	keystroke_d	d	n/a
458.444	0.091	916888	keystroke_i	i	n/a
459.03	0.075	918060	keystroke_t	t	n/a
459.12	0.12	918240	keystroke_i	i	n/a
459.15	0.18	918300	keystroke_o	o	n/a
459.269	0.106	918538	keystroke_n	n	n/a
459.495	0.075	918990	keystroke_a	a	n/a
459.615	0.09	919230	keystroke_l	l	n/a
459.749	0.105	919498	keystroke_Key.space	Key.space	n/a
460.245	0.06	920490	keystroke_f	f	n/a
460.575	0.105	921150	keystroke_a	a	n/a
460.74	0.09	921480	keystroke_r	r	n/a
460.935	0.074	921870	keystroke_m	m	n/a
461.13	0.089	922260	keystroke_Key.space	Key.space	n/a
461.445	0.06	922890	keystroke_h	h	n/a
461.625	0.075	923250	keystroke_o	o	n/a
461.97	0.075	923940	keystroke_i	i	n/a
462.285	0.104	924570	keystroke_r	r	n/a
462.75	0.059	925500	keystroke_Key.backspace	Key.backspace	n/a
462.899	0.075	925798	keystroke_Key.backspace	Key.backspace	n/a
463.109	0.076	926218	keystroke_r	r	n/a
463.485	0.09	926970	keystroke_i	i	n/a
463.8	0.105	927600	keystroke_z	z	n/a
464.31	0.12	928620	keystroke_o	o	n/a
464.415	0.09	928830	keystroke_n	n	n/a
464.64	0.09	929280	keystroke_t	t	n/a
464.85	0.105	929700	keystroke_a	a	n/a
464.94	0.09	929880	keystroke_l	l	n/a
465.6435	0.06	931287	keystroke_Key.enter	Key.enter	n/a
465.713	9.489	931426	prompt	n/a	pirates shipment goals judge\n
467.0695	0.075	934139	keystroke_p	p	n/a
468.4795	0.09	936959	keystroke_i	i	n/a
468.6745	0.089	937349	keystroke_r	r	n/a
468.8695	0.12	937739	keystroke_a	a	n/a
469.0645	0.09	938129	keystroke_t	t	n/a
469.1395	0.09	938279	keystroke_e	e	n/a
469.3495	0.09	938699	keystroke_s	s	n/a
469.5135	0.061	939027	keystroke_Key.space	Key.space	n/a
469.8445	0.074	939689	keystroke_s	s	n/a
469.9495	0.09	939899	keystroke_h	h	n/a
470.1145	0.105	940229	keystroke_i	i	n/a
470.3095	0.09	940619	keystroke_p	p	n/a
470.6995	0.075	941399	keystroke_m	m	n/a
470.8345	0.105	941669	keystroke_e	e	n/a
470.9695	0.09	941939	keystroke_n	n	n/a
471.1045	0.075	942209	keystroke_t	t	n/a
471.2845	0.075	942569	keystroke_Key.space	Key.space	n/a
471.8245	0.06	943649	keystroke_g	g	n/a
472.0495	0.09	944099	keystroke_o	o	n/a
472.3045	0.105	944609	keystroke_a	a	n/a
472.4845	0.09	944969	keystroke_l	l	n/a
472.6645	0.09	945329	keystroke_s	s	n/a
472.7695	0.075	945539	keystroke_Key.space	Key.space	n/a
473.2795	0.09	946559	keystroke_j	j	n/a
473.4895	0.075	946979	keystroke_u	u	n/a
473.7745	0.09	947549	keystroke_d	d	n/a
473.9845	0.09	947969	keystroke_g	g	n/a
474.1045	0.135	948209	keystroke_e	e	n/a
475.1395	0.06	950279	keystroke_Key.enter	Key.enter	n/a
475.2075	18.1445	950415	prompt	n/a	females button olympic quantities\n
475.9645	0.06	951929	keystroke_f	f	n/a
476.1445	0.075	952289	keystroke_e	e	n/a
476.3845	0.09	952769	keystroke_m	m	n/a
476.9845	0.09	953969	keystroke_a	a	n/a
477.1195	0.075	954239	keystroke_l	l	n/a
477.3445	0.105	954689	keystroke_e	e	n/a
477.5845	0.045	955169	keystroke_s	s	n/a
477.6895	0.075	955379	keystroke_Key.space	Key.space	n/a
478.0045	0.09	956009	keystroke_b	b	n/a
478.2445	0.075	956489	keystroke_u	u	n/a
478.4545	0.075	956909	keystroke_t	t	n/a
478.6345	0.06	957269	keystroke_t	t	n/a
479.0545	0.15	958109	keystroke_o	o	n/a
479.1595	0.09	958319	keystroke_n	n	n/a
479.3995	0.075	958799	keystroke_Key.space	Key.space	n/a
479.7895	0.09	959579	keystroke_o	o	n/a
479.9845	0.12	959969	keystroke_l	l	n/a
480.2845	0.09	960569	keystroke_y	y	n/a
481.6645	0.09	963329	keystroke_m	m	n/a
481.8295	0.09	963659	keystroke_p	p	n/a
481.9945	0.105	963989	keystroke_i	i	n/a
482.2345	0.09	964469	keystroke_c	c	n/a
483.4645	0.075	966929	keystroke_Key.space	Key.space	n/a
489.4375	0.012	978875	keystroke_q	q	n/a
489.6145	0.09	979229	keystroke_u	u	n/a
489.8395	0.105	979679	keystroke_a	a	n/a
490.0195	0.075	980039	keystroke_n	n	n/a
491.2795	0.06	982559	keystroke_t	t	n/a
491.4895	0.06	982979	keystroke_i	i	n/a
491.6545	0.075	983309	keystroke_t	t	n/a
491.8045	0.09	983609	keystroke_i	i	n/a
492.0745	0.09	984149	keystroke_e	e	n/a
492.2845	0.105	984569	keystroke_s	s	n/a
493.2895	0.06	986579	keystroke_Key.enter	Key.enter	n/a
493.3585	15.263	986717	prompt	n/a	effective trucks signatures advertisements\n
494.6995	0.075	989399	keystroke_e	e	n/a
494.9695	0.075	989939	keystroke_f	f	n/a
495.1045	0.09	990209	keystroke_f	f	n/a
495.2695	0.09	990539	keystroke_e	e	n/a
495.4495	0.12	990899	keystroke_c	c	n/a
496.1845	0.075	992369	keystroke_t	t	n/a
496.4095	0.09	992819	keystroke_i	i	n/a
496.5295	0.09	993059	keystroke_v	v	n/a
496.6795	0.09	993359	keystroke_e	e	n/a
496.8295	0.075	993659	keystroke_Key.space	Key.space	n/a
498.1795	0.075	996359	keystroke_t	t	n/a
498.3595	0.075	996719	keystroke_r	r	n/a
498.6445	0.09	997289	keystroke_u	u	n/a
498.8095	0.105	997619	keystroke_c	c	n/a
498.9595	0.105	997919	keystroke_k	k	n/a
499.1695	0.075	998339	keystroke_s	s	n/a
499.3045	0.09	998609	keystroke_Key.space	Key.space	n/a
500.0395	0.075	1000079	keystroke_s	s	n/a
500.2645	0.06	1000529	keystroke_i	i	n/a
500.729	0.075	1001458	keystroke_g	g	n/a
500.954	0.075	1001908	keystroke_n	n	n/a
501.149	0.105	1002298	keystroke_a	a	n/a
501.374	0.075	1002748	keystroke_t	t	n/a
501.509	0.075	1003018	keystroke_u	u	n/a
501.644	0.12	1003288	keystroke_r	r	n/a
501.719	0.09	1003438	keystroke_e	e	n/a
501.989	0.075	1003978	keystroke_s	s	n/a
502.124	0.075	1004248	keystroke_Key.space	Key.space	n/a
502.544	0.06	1005088	keystroke_a	a	n/a
502.694	0.09	1005388	keystroke_d	d	n/a
503.174	0.075	1006348	keystroke_v	v	n/a
503.369	0.12	1006738	keystroke_e	e	n/a
503.414	0.105	1006828	keystroke_r	r	n/a
503.894	0.075	1007788	keystroke_t	t	n/a
505.754	0.075	1011508	keystroke_i	i	n/a
505.904	0.075	1011808	keystroke_s	s	n/a
506.339	0.075	1012678	keystroke_m	m	n/a
506.984	0.09	1013968	keystroke_Key.backspace	Key.backspace	n/a
507.179	0.075	1014358	keystroke_e	e	n/a
507.404	0.06	1014808	keystroke_m	m	n/a
507.554	0.105	1015108	keystroke_e	e	n/a
507.674	0.105	1015348	keystroke_n	n	n/a
507.809	0.09	1015618	keystroke_t	t	n/a
508.064	0.075	1016128	keystroke_s	s	n/a
508.544	0.075	1017088	keystroke_Key.enter	Key.enter	n/a
508.6275	9.1435	1017255	prompt	n/a	albany media permission ultimate\n
509.4	0.089	1018800	keystroke_a	a	n/a
509.564	0.09	1019128	keystroke_l	l	n/a
509.774	0.075	1019548	keystroke_b	b	n/a
509.924	0.09	1019848	keystroke_a	a	n/a
510.014	0.09	1020028	keystroke_n	n	n/a
510.299	0.06	1020598	keystroke_y	y	n/a
510.524	0.09	1021048	keystroke_Key.space	Key.space	n/a
511.3185	0.09	1022637	keystroke_m	m	n/a
511.4835	0.09	1022967	keystroke_e	e	n/a
511.6785	0.135	1023357	keystroke_d	d	n/a
511.9035	0.09	1023807	keystroke_i	i	n/a
512.0385	0.09	1024077	keystroke_a	a	n/a
512.2035	0.075	1024407	keystroke_Key.space	Key.space	n/a
512.9985	0.105	1025997	keystroke_p	p	n/a
513.1485	0.12	1026297	keystroke_e	e	n/a
513.1935	0.105	1026387	keystroke_r	r	n/a
513.8535	0.075	1027707	keystroke_m	m	n/a
514.0485	0.06	1028097	keystroke_i	i	n/a
514.2435	0.075	1028487	keystroke_s	s	n/a
514.3635	0.075	1028727	keystroke_s	s	n/a
514.4535	0.135	1028907	keystroke_i	i	n/a
514.6035	0.135	1029207	keystroke_o	o	n/a
514.6635	0.09	1029327	keystroke_n	n	n/a
514.8885	0.075	1029777	keystroke_Key.space	Key.space	n/a
515.2935	0.075	1030587	keystroke_u	u	n/a
515.5185	0.105	1031037	keystroke_l	l	n/a
516.1635	0.09	1032327	keystroke_t	t	n/a
516.3135	0.09	1032627	keystroke_i	i	n/a
516.4785	0.106	1032957	keystroke_m	m	n/a
516.6285	0.09	1033257	keystroke_a	a	n/a
516.8385	0.091	1033677	keystroke_t	t	n/a
517.0035	0.105	1034007	keystroke_e	e	n/a
517.6935	0.075	1035387	keystroke_Key.enter	Key.enter	n/a
517.7765	9.116	1035553	prompt	n/a	conspiracy cancel okay knit\n
518.5185	0.151	1037037	keystroke_c	c	n/a
518.9835	0.105	1037967	keystroke_o	o	n/a
519.1185	0.105	1038237	keystroke_n	n	n/a
519.4785	0.075	1038957	keystroke_s	s	n/a
519.6435	0.09	1039287	keystroke_p	p	n/a
519.8535	0.075	1039707	keystroke_i	i	n/a
520.1985	0.09	1040397	keystroke_r	r	n/a
520.4385	0.105	1040877	keystroke_a	a	n/a
520.6485	0.121	1041297	keystroke_c	c	n/a
520.8585	0.045	1041717	keystroke_c	c	n/a
521.3535	0.075	1042707	keystroke_Key.backspace	Key.backspace	n/a
521.6095	0.059	1043219	keystroke_y	y	n/a
521.8485	0.06	1043697	keystroke_Key.space	Key.space	n/a
522.4485	0.09	1044897	keystroke_c	c	n/a
522.5985	0.121	1045197	keystroke_a	a	n/a
522.6885	0.075	1045377	keystroke_n	n	n/a
522.8835	0.12	1045767	keystroke_c	c	n/a
523.1235	0.075	1046247	keystroke_e	e	n/a
523.2285	0.075	1046457	keystroke_l	l	n/a
523.4085	0.075	1046817	keystroke_Key.space	Key.space	n/a
523.9185	0.075	1047837	keystroke_o	o	n/a
524.2785	0.091	1048557	keystroke_k	k	n/a
524.4885	0.12	1048977	keystroke_a	a	n/a
524.6535	0.075	1049307	keystroke_y	y	n/a
525.0585	0.09	1050117	keystroke_Key.space	Key.space	n/a
525.2835	0.151	1050567	keystroke_k	k	n/a
525.3885	0.106	1050777	keystroke_n	n	n/a
525.7635	0.075	1051527	keystroke_i	i	n/a
526.0635	0.075	1052127	keystroke_t	t	n/a
526.8285	0.06	1053657	keystroke_Key.enter	Key.enter	n/a
526.899	6.307	1053798	prompt	n/a	credit we loved francis\n
527.7295	0.059	1055459	keystroke_c	c	n/a
527.9835	0.09	1055967	keystroke_r	r	n/a
527.9995	0.12	1055999	keystroke_e	e	n/a
528.2685	0.135	1056537	keystroke_d	d	n/a
528.5235	0.061	1057047	keystroke_i	i	n/a
528.6435	0.06	1057287	keystroke_t	t	n/a
528.7635	0.075	1057527	keystroke_Key.space	Key.space	n/a
529.2585	0.12	1058517	keystroke_w	w	n/a
529.4395	0.12	1058879	keystroke_e	e	n/a
529.6035	0.075	1059207	keystroke_Key.space	Key.space	n/a
529.9785	0.076	1059957	keystroke_l	l	n/a
530.1585	0.091	1060317	keystroke_o	o	n/a
530.2635	0.09	1060527	keystroke_v	v	n/a
530.3845	0.104	1060769	keystroke_e	e	n/a
530.5935	0.106	1061187	keystroke_d	d	n/a
530.7135	0.075	1061427	keystroke_Key.space	Key.space	n/a
531.1345	0.089	1062269	keystroke_f	f	n/a
531.3445	0.104	1062689	keystroke_r	r	n/a
531.6595	0.104	1063319	keystroke_a	a	n/a
531.7945	0.075	1063589	keystroke_n	n	n/a
532.1685	0.061	1064337	keystroke_c	c	n/a
532.3335	0.076	1064667	keystroke_i	i	n/a
532.5145	0.074	1065029	keystroke_s	s	n/a
533.1435	0.06	1066287	keystroke_Key.enter	Key.enter	n/a
533.213	13.358	1066426	prompt	n/a	provisions prospect dried riverside\n
533.8795	0.09	1067759	keystroke_p	p	n/a
534.0885	0.06	1068177	keystroke_r	r	n/a
534.1935	0.09	1068387	keystroke_o	o	n/a
534.4035	0.076	1068807	keystroke_v	v	n/a
534.5695	0.075	1069139	keystroke_i	i	n/a
534.7635	0.06	1069527	keystroke_s	s	n/a
535.4395	0.074	1070879	keystroke_t	t	n/a
535.6335	0.165	1071267	keystroke_i	i	n/a
535.7995	0.044	1071599	keystroke_o	o	n/a
536.0835	0.061	1072167	keystroke_Key.backspace	Key.backspace	n/a
536.2195	0.089	1072439	keystroke_Key.backspace	Key.backspace	n/a
536.5635	0.075	1073127	keystroke_Key.backspace	Key.backspace	n/a
536.8645	0.089	1073729	keystroke_i	i	n/a
537.2985	0.076	1074597	keystroke_o	o	n/a
537.7335	0.075	1075467	keystroke_n	n	n/a
537.9895	0.059	1075979	keystroke_s	s	n/a
538.1235	0.075	1076247	keystroke_Key.space	Key.space	n/a
538.3495	0.089	1076699	keystroke_p	p	n/a
538.5135	0.076	1077027	keystroke_r	r	n/a
538.6345	0.09	1077269	keystroke_o	o	n/a
538.9795	0.104	1077959	keystroke_s	s	n/a
539.8645	0.075	1079729	keystroke_p	p	n/a
540.5695	0.075	1081139	keystroke_e	e	n/a
540.8245	0.104	1081649	keystroke_c	c	n/a
541.0935	0.076	1082187	keystroke_t	t	n/a
541.2445	0.074	1082489	keystroke_Key.space	Key.space	n/a
541.5435	0.075	1083087	keystroke_d	d	n/a
541.8735	0.06	1083747	keystroke_r	r	n/a
542.0685	0.089	1084137	keystroke_i	i	n/a
542.2335	0.075	1084467	keystroke_e	e	n/a
542.4735	0.089	1084947	keystroke_d	d	n/a
542.6075	0.075	1085215	keystroke_Key.space	Key.space	n/a
543.2235	0.105	1086447	keystroke_r	r	n/a
543.2825	0.091	1086565	keystroke_e	e	n/a
543.5835	0.09	1087167	keystroke_v	v	n/a
543.9125	0.136	1087825	keystroke_e	e	n/a
544.2575	0.075	1088515	keystroke_Key.backspace	Key.backspace	n/a
544.4085	0.059	1088817	keystroke_Key.backspace	Key.backspace	n/a
544.5425	0.075	1089085	keystroke_Key.backspace	Key.backspace	n/a
544.8435	0.089	1089687	keystroke_i	i	n/a
544.9635	0.074	1089927	keystroke_v	v	n/a
545.0985	0.12	1090197	keystroke_e	e	n/a
545.1725	0.076	1090345	keystroke_r	r	n/a
545.4575	0.091	1090915	keystroke_s	s	n/a
545.5785	0.104	1091157	keystroke_i	i	n/a
545.7575	0.105	1091515	keystroke_d	d	n/a
545.9685	0.074	1091937	keystroke_e	e	n/a
546.5075	0.061	1093015	keystroke_Key.enter	Key.enter	n/a
546.576	10.4195	1093152	prompt	n/a	describing damaged designing thinking\n
547.3325	0.061	1094665	keystroke_d	d	n/a
547.4985	0.075	1094997	keystroke_e	e	n/a
547.7535	0.09	1095507	keystroke_s	s	n/a
547.9035	0.12	1095807	keystroke_c	c	n/a
548.2485	0.075	1096497	keystroke_r	r	n/a
548.4885	0.105	1096977	keystroke_i	i	n/a
548.6985	0.09	1097397	keystroke_b	b	n/a
548.8785	0.15	1097757	keystroke_i	i	n/a
549.0135	0.104	1098027	keystroke_n	n	n/a
549.1475	0.075	1098295	keystroke_g	g	n/a
549.2535	0.074	1098507	keystroke_Key.space	Key.space	n/a
549.7325	0.061	1099465	keystroke_d	d	n/a
550.0035	0.104	1100007	keystroke_a	a	n/a
550.1535	0.09	1100307	keystroke_m	m	n/a
550.6635	0.119	1101327	keystroke_a	a	n/a
550.8735	0.12	1101747	keystroke_g	g	n/a
551.0535	0.105	1102107	keystroke_e	e	n/a
551.2785	0.09	1102557	keystroke_d	d	n/a
551.4135	0.089	1102827	keystroke_Key.space	Key.space	n/a
552.3885	0.075	1104777	keystroke_d	d	n/a
552.5685	0.059	1105137	keystroke_e	e	n/a
552.8235	0.09	1105647	keystroke_s	s	n/a
553.0625	0.106	1106125	keystroke_i	i	n/a
553.6035	0.075	1107207	keystroke_g	g	n/a
553.7385	0.09	1107477	keystroke_n	n	n/a
553.9935	0.195	1107987	keystroke_i	i	n/a
554.1285	0.105	1108257	keystroke_n	n	n/a
554.3385	0.06	1108677	keystroke_g	g	n/a
554.4575	0.076	1108915	keystroke_Key.space	Key.space	n/a
555.2685	0.075	1110537	keystroke_t	t	n/a
555.3885	0.075	1110777	keystroke_h	h	n/a
555.5235	0.12	1111047	keystroke_i	i	n/a
555.6885	0.105	1111377	keystroke_n	n	n/a
555.8385	0.105	1111677	keystroke_k	k	n/a
556.0185	0.105	1112037	keystroke_i	i	n/a
556.1385	0.105	1112277	keystroke_n	n	n/a
556.2885	0.075	1112577	keystroke_g	g	n/a
556.9185	0.075	1113837	keystroke_Key.enter	Key.enter	n/a
557	11.966	1114000	prompt	n/a	treated hoped associate samoa\n
557.6835	0.09	1115367	keystroke_t	t	n/a
557.9235	0.195	1115847	keystroke_r	r	n/a
558.2685	0.09	1116537	keystroke_e	e	n/a
558.5685	0.165	1117137	keystroke_a	a	n/a
558.9135	0.105	1117827	keystroke_t	t	n/a
559.1835	0.105	1118367	keystroke_e	e	n/a
559.4085	0.09	1118817	keystroke_d	d	n/a
559.5435	0.09	1119087	keystroke_Key.space	Key.space	n/a
559.7685	0.09	1119537	keystroke_o	o	n/a
559.9485	0.12	1119897	keystroke_p	p	n/a
560.1585	0.06	1120317	keystroke_e	e	n/a
560.3235	0.09	1120647	keystroke_d	d	n/a
560.3985	0.09	1120797	keystroke_Key.space	Key.space	n/a
560.8035	0.06	1121607	keystroke_Key.backspace	Key.backspace	n/a
560.9535	0.075	1121907	keystroke_Key.backspace	Key.backspace	n/a
561.1035	0.06	1122207	keystroke_Key.backspace	Key.backspace	n/a
561.2535	0.045	1122507	keystroke_Key.backspace	Key.backspace	n/a
561.3735	0.06	1122747	keystroke_Key.backspace	Key.backspace	n/a
561.5835	0.045	1123167	keystroke_j	j	n/a
561.6135	0.06	1123227	keystroke_h	h	n/a
561.7785	0.075	1123557	keystroke_o	o	n/a
562.1685	0.06	1124337	keystroke_Key.backspace	Key.backspace	n/a
562.3035	0.09	1124607	keystroke_Key.backspace	Key.backspace	n/a
562.4835	0.075	1124967	keystroke_Key.backspace	Key.backspace	n/a
563.2485	0.075	1126497	keystroke_h	h	n/a
563.4135	0.06	1126827	keystroke_o	o	n/a
563.5635	0.105	1127127	keystroke_p	p	n/a
563.7285	0.075	1127457	keystroke_e	e	n/a
563.9385	0.075	1127877	keystroke_d	d	n/a
564.0435	0.06	1128087	keystroke_Key.space	Key.space	n/a
564.7185	0.09	1129437	keystroke_a	a	n/a
564.9435	0.075	1129887	keystroke_s	s	n/a
565.0785	0.075	1130157	keystroke_s	s	n/a
565.9185	0.075	1131837	keystroke_o	o	n/a
566.0985	0.075	1132197	keystroke_c	c	n/a
566.2785	0.075	1132557	keystroke_i	i	n/a
566.4285	0.135	1132857	keystroke_a	a	n/a
566.6235	0.15	1133247	keystroke_t	t	n/a
566.7885	0.09	1133577	keystroke_e	e	n/a
566.9685	0.09	1133937	keystroke_Key.space	Key.space	n/a
567.4035	0.075	1134807	keystroke_s	s	n/a
567.5685	0.12	1135137	keystroke_a	a	n/a
567.7635	0.075	1135527	keystroke_m	m	n/a
567.9735	0.105	1135947	keystroke_o	o	n/a
568.1835	0.105	1136367	keystroke_a	a	n/a
568.9035	0.06	1137807	keystroke_Key.enter	Key.enter	n/a
568.9705	8.126	1137941	prompt	n/a	decline indices coal properties\n
569.6835	0.03	1139367	keystroke_d	d	n/a
569.8335	0.06	1139667	keystroke_e	e	n/a
570.0285	0.105	1140057	keystroke_c	c	n/a
570.1785	0.075	1140357	keystroke_l	l	n/a
570.3285	0.105	1140657	keystroke_i	i	n/a
570.4485	0.105	1140897	keystroke_n	n	n/a
570.5685	0.075	1141137	keystroke_e	e	n/a
570.7185	0.075	1141437	keystroke_Key.space	Key.space	n/a
570.9885	0.09	1141977	keystroke_i	i	n/a
571.0935	0.105	1142187	keystroke_n	n	n/a
571.2585	0.105	1142517	keystroke_d	d	n/a
571.5585	0.09	1143117	keystroke_i	i	n/a
571.8285	0.075	1143657	keystroke_c	c	n/a
571.9785	0.105	1143957	keystroke_e	e	n/a
572.1735	0.105	1144347	keystroke_s	s	n/a
572.3235	0.075	1144647	keystroke_Key.space	Key.space	n/a
572.7285	0.12	1145457	keystroke_c	c	n/a
572.9085	0.09	1145817	keystroke_o	o	n/a
573.1635	0.09	1146327	keystroke_a	a	n/a
573.2835	0.09	1146567	keystroke_l	l	n/a
573.4635	0.09	1146927	keystroke_Key.space	Key.space	n/a
574.0785	0.09	1148157	keystroke_p	p	n/a
574.2585	0.075	1148517	keystroke_r	r	n/a
574.3635	0.09	1148727	keystroke_o	o	n/a
574.5735	0.09	1149147	keystroke_p	p	n/a
574.7835	0.12	1149567	keystroke_e	e	n/a
574.8585	0.105	1149717	keystroke_r	r	n/a
575.8635	0.075	1151727	keystroke_t	t	n/a
575.9835	0.09	1151967	keystroke_i	i	n/a
576.1335	0.075	1152267	keystroke_e	e	n/a
576.3285	0.105	1152657	keystroke_s	s	n/a
577.0335	0.06	1154067	keystroke_Key.enter	Key.enter	n/a
577.1035	9.0835	1154207	prompt	n/a	luke hdtv buyers master\n
577.8135	0.075	1155627	keystroke_l	l	n/a
578.0685	0.105	1156137	keystroke_u	u	n/a
578.3835	0.09	1156767	keystroke_k	k	n/a
578.5785	0.075	1157157	keystroke_e	e	n/a
578.7285	0.075	1157457	keystroke_Key.space	Key.space	n/a
579.1485	0.09	1158297	keystroke_h	h	n/a
579.4035	0.09	1158807	keystroke_d	d	n/a
579.7335	0.075	1159467	keystroke_t	t	n/a
580.0935	0.075	1160187	keystroke_v	v	n/a
581.1135	0.075	1162227	keystroke_Key.space	Key.space	n/a
581.8635	0.105	1163727	keystroke_b	b	n/a
582.1635	0.12	1164327	keystroke_u	u	n/a
583.5285	0.06	1167057	keystroke_y	y	n/a
583.8735	0.135	1167747	keystroke_e	e	n/a
583.9635	0.105	1167927	keystroke_r	r	n/a
584.2035	0.075	1168407	keystroke_s	s	n/a
584.3535	0.075	1168707	keystroke_Key.space	Key.space	n/a
584.6835	0.075	1169367	keystroke_m	m	n/a
584.8035	0.09	1169607	keystroke_a	a	n/a
584.9985	0.15	1169997	keystroke_s	s	n/a
585.1785	0.105	1170357	keystroke_t	t	n/a
585.3285	0.18	1170657	keystroke_e	e	n/a
585.4335	0.12	1170867	keystroke_r	r	n/a
586.1235	0.06	1172247	keystroke_Key.enter	Key.enter	n/a
586.1935	11.813	1172387	prompt	n/a	answered talks partner campaign\n
586.8885	0.09	1173777	keystroke_a	a	n/a
587.0085	0.105	1174017	keystroke_n	n	n/a
587.2185	0.075	1174437	keystroke_s	s	n/a
587.4735	0.21	1174947	keystroke_e	e	n/a
587.6235	0.135	1175247	keystroke_r	r	n/a
587.8485	0.135	1175697	keystroke_e	e	n/a
588.2685	0.075	1176537	keystroke_Key.backspace	Key.backspace	n/a
588.4335	0.06	1176867	keystroke_Key.backspace	Key.backspace	n/a
588.5835	0.06	1177167	keystroke_Key.backspace	Key.backspace	n/a
588.7185	0.075	1177437	keystroke_Key.backspace	Key.backspace	n/a
589.1085	0.09	1178217	keystroke_w	w	n/a
589.4835	0.15	1178967	keystroke_e	e	n/a
589.6485	0.12	1179297	keystroke_r	r	n/a
589.7535	0.09	1179507	keystroke_e	e	n/a
589.9485	0.105	1179897	keystroke_d	d	n/a
590.0985	0.075	1180197	keystroke_Key.space	Key.space	n/a
591.3435	0.09	1182687	keystroke_t	t	n/a
591.5535	0.09	1183107	keystroke_a	a	n/a
591.6585	0.105	1183317	keystroke_l	l	n/a
591.7185	0.15	1183437	keystroke_k	k	n/a
591.9585	0.09	1183917	keystroke_s	s	n/a
592.1235	0.075	1184247	keystroke_Key.space	Key.space	n/a
592.3635	0.09	1184727	keystroke_p	p	n/a
592.5135	0.12	1185027	keystroke_a	a	n/a
592.7235	0.075	1185447	keystroke_r	r	n/a
592.9485	0.075	1185897	keystroke_t	t	n/a
593.0985	0.075	1186197	keystroke_n	n	n/a
593.204	0.1645	1186408	keystroke_e	e	n/a
593.2935	0.105	1186587	keystroke_r	r	n/a
594.3135	0.09	1188627	keystroke_Key.space	Key.space	n/a
594.4935	0.105	1188987	keystroke_c	c	n/a
594.6585	0.105	1189317	keystroke_a	a	n/a
594.7935	0.09	1189587	keystroke_m	m	n/a
594.9735	0.09	1189947	keystroke_p	p	n/a
595.2435	0.075	1190487	keystroke_a	a	n/a
595.3635	0.105	1190727	keystroke_i	i	n/a
596.9085	0.075	1193817	keystroke_g	g	n/a
597.0435	0.075	1194087	keystroke_n	n	n/a
597.9285	0.075	1195857	keystroke_Key.enter	Key.enter	n/a
598.0135	13.477	1196027	prompt	n/a	examination info bryant maintained\n
598.7985	0.09	1197597	keystroke_e	e	n/a
599.1435	0.12	1198287	keystroke_x	x	n/a
599.4135	0.09	1198827	keystroke_a	a	n/a
599.5335	0.09	1199067	keystroke_m	m	n/a
599.7285	0.105	1199457	keystroke_i	i	n/a
599.8785	0.105	1199757	keystroke_n	n	n/a
600.1635	0.12	1200327	keystroke_a	a	n/a
600.3135	0.12	1200627	keystroke_t	t	n/a
600.3735	0.135	1200747	keystroke_i	i	n/a
600.5235	0.105	1201047	keystroke_o	o	n/a
600.5385	0.135	1201077	keystroke_n	n	n/a
600.7785	0.09	1201557	keystroke_Key.space	Key.space	n/a
601.6785	0.09	1203357	keystroke_i	i	n/a
601.7985	0.12	1203597	keystroke_n	n	n/a
602.0385	0.06	1204077	keystroke_f	f	n/a
602.1285	0.105	1204257	keystroke_o	o	n/a
602.2785	0.105	1204557	keystroke_Key.space	Key.space	n/a
602.8485	0.075	1205697	keystroke_b	b	n/a
603.3885	0.075	1206777	keystroke_y	y	n/a
603.8385	0.075	1207677	keystroke_=	=	n/a
603.9735	0.09	1207947	keystroke_r	r	n/a
604.1235	0.075	1208247	keystroke_y	y	n/a
604.5885	0.075	1209177	keystroke_Key.backspace	Key.backspace	n/a
604.7385	0.075	1209477	keystroke_Key.backspace	Key.backspace	n/a
604.9035	0.06	1209807	keystroke_Key.backspace	Key.backspace	n/a
605.1285	0.075	1210257	keystroke_Key.backspace	Key.backspace	n/a
605.9835	0.075	1211967	keystroke_r	r	n/a
606.2235	0.075	1212447	keystroke_y	y	n/a
606.4335	0.105	1212867	keystroke_a	a	n/a
606.7485	0.075	1213497	keystroke_n	n	n/a
606.9285	0.06	1213857	keystroke_t	t	n/a
607.0335	0.075	1214067	keystroke_Key.space	Key.space	n/a
607.4685	0.075	1214937	keystroke_m	m	n/a
607.6185	0.09	1215237	keystroke_a	a	n/a
607.7685	0.12	1215537	keystroke_i	i	n/a
607.8735	0.09	1215747	keystroke_n	n	n/a
608.8335	0.09	1217667	keystroke_t	t	n/a
609.0585	0.09	1218117	keystroke_a	a	n/a
609.2235	0.12	1218447	keystroke_i	i	n/a
609.3135	0.105	1218627	keystroke_n	n	n/a
609.6885	0.06	1219377	keystroke_d	d	n/a
610.5885	0.075	1221177	keystroke_Key.backspace	Key.backspace	n/a
610.6645	0.089	1221329	keystroke_e	e	n/a
610.8735	0.105	1221747	keystroke_d	d	n/a
611.4135	0.075	1222827	keystroke_Key.enter	Key.enter	n/a
611.496	8.41	1222992	prompt	n/a	suggest tanzania juice sept\n
612.1945	0.059	1224389	keystroke_s	s	n/a
612.4945	0.074	1224989	keystroke_u	u	n/a
612.7335	0.06	1225467	keystroke_g	g	n/a
612.8685	0.06	1225737	keystroke_g	g	n/a
612.9885	0.105	1225977	keystroke_e	e	n/a
613.2285	0.105	1226457	keystroke_s	s	n/a
613.3785	0.09	1226757	keystroke_t	t	n/a
613.4835	0.075	1226967	keystroke_Key.space	Key.space	n/a
613.8135	0.09	1227627	keystroke_t	t	n/a
614.0085	0.105	1228017	keystroke_a	a	n/a
614.1285	0.06	1228257	keystroke_n	n	n/a
614.5185	0.09	1229037	keystroke_z	z	n/a
614.7735	0.105	1229547	keystroke_a	a	n/a
615.4185	0.06	1230837	keystroke_n	n	n/a
615.5685	0.09	1231137	keystroke_i	i	n/a
615.8085	0.075	1231617	keystroke_a	a	n/a
615.8985	0.075	1231797	keystroke_Key.space	Key.space	n/a
616.1685	0.106	1232337	keystroke_j	j	n/a
616.4535	0.06	1232907	keystroke_i	i	n/a
616.6635	0.076	1233327	keystroke_i	i	n/a
617.0835	0.06	1234167	keystroke_Key.backspace	Key.backspace	n/a
617.2335	0.06	1234467	keystroke_Key.backspace	Key.backspace	n/a
617.5635	0.105	1235127	keystroke_u	u	n/a
617.7285	0.12	1235457	keystroke_i	i	n/a
617.9845	0.089	1235969	keystroke_c	c	n/a
618.2235	0.091	1236447	keystroke_e	e	n/a
618.3735	0.075	1236747	keystroke_Key.space	Key.space	n/a
618.6585	0.09	1237317	keystroke_s	s	n/a
618.8085	0.09	1237617	keystroke_e	e	n/a
618.9445	0.104	1237889	keystroke_p	p	n/a
619.1385	0.09	1238277	keystroke_t	t	n/a
619.8585	0.045	1239717	keystroke_Key.enter	Key.enter	n/a
619.9115	6.9545	1239823	prompt	n/a	frank alpha saint modes\n
620.6535	0.075	1241307	keystroke_f	f	n/a
620.8485	0.135	1241697	keystroke_r	r	n/a
621.1185	0.105	1242237	keystroke_a	a	n/a
621.2085	0.075	1242417	keystroke_n	n	n/a
621.6145	0.074	1243229	keystroke_k	k	n/a
621.7935	0.09	1243587	keystroke_Key.space	Key.space	n/a
622.2585	0.09	1244517	keystroke_a	a	n/a
622.4835	0.075	1244967	keystroke_l	l	n/a
622.7235	0.075	1245447	keystroke_p	p	n/a
623.0235	0.075	1246047	keystroke_h	h	n/a
623.3235	0.075	1246647	keystroke_a	a	n/a
623.4585	0.06	1246917	keystroke_Key.space	Key.space	n/a
623.8645	0.089	1247729	keystroke_s	s	n/a
624.0735	0.091	1248147	keystroke_a	a	n/a
624.2085	0.12	1248417	keystroke_i	i	n/a
624.3145	0.089	1248629	keystroke_n	n	n/a
624.6595	0.089	1249319	keystroke_t	t	n/a
624.8235	0.09	1249647	keystroke_Key.space	Key.space	n/a
625.1985	0.075	1250397	keystroke_m	m	n/a
625.3935	0.105	1250787	keystroke_o	o	n/a
625.6935	0.09	1251387	keystroke_d	d	n/a
625.9345	0.074	1251869	keystroke_e	e	n/a
626.1585	0.09	1252317	keystroke_s	s	n/a
626.8035	0.06	1253607	keystroke_Key.enter	Key.enter	n/a
626.873	14.077	1253746	prompt	n/a	somebody's border o'clock athletes\n
627.5235	0.105	1255047	keystroke_s	s	n/a
627.6735	0.15	1255347	keystroke_o	o	n/a
627.7935	0.12	1255587	keystroke_m	m	n/a
628.0035	0.061	1256007	keystroke_e	e	n/a
628.1835	0.09	1256367	keystroke_b	b	n/a
628.3645	0.089	1256729	keystroke_o	o	n/a
629.1145	0.075	1258229	keystroke_f	f	n/a
629.3535	0.075	1258707	keystroke_y	y	n/a
630.0435	0.075	1260087	keystroke_Key.backspace	Key.backspace	n/a
630.1935	0.045	1260387	keystroke_Key.backspace	Key.backspace	n/a
630.3445	0.075	1260689	keystroke_d	d	n/a
631.3345	0.074	1262669	keystroke_y	y	n/a
631.6035	0.09	1263207	keystroke_'	'	n/a
631.7985	0.061	1263597	keystroke_s	s	n/a
631.8735	0.091	1263747	keystroke_Key.space	Key.space	n/a
632.9985	0.075	1265997	keystroke_b	b	n/a
633.1925	0.105	1266385	keystroke_o	o	n/a
633.7025	0.106	1267405	keystroke_r	r	n/a
633.9435	0.105	1267887	keystroke_d	d	n/a
634.1685	0.104	1268337	keystroke_e	e	n/a
634.2425	0.076	1268485	keystroke_r	r	n/a
634.4385	0.089	1268877	keystroke_Key.space	Key.space	n/a
636.1185	0.075	1272237	keystroke_o	o	n/a
636.3285	0.075	1272657	keystroke_'	'	n/a
636.5835	0.075	1273167	keystroke_c	c	n/a
636.7025	0.091	1273405	keystroke_l	l	n/a
636.9135	0.074	1273827	keystroke_o	o	n/a
637.2135	0.06	1274427	keystroke_c	c	n/a
637.3175	0.061	1274635	keystroke_k	k	n/a
637.4675	0.09	1274935	keystroke_Key.space	Key.space	n/a
637.9185	0.12	1275837	keystroke_a	a	n/a
638.1125	0.076	1276225	keystroke_t	t	n/a
638.2475	0.076	1276495	keystroke_h	h	n/a
639.3435	0.09	1278687	keystroke_l	l	n/a
639.4485	0.09	1278897	keystroke_e	e	n/a
639.7035	0.12	1279407	keystroke_t	t	n/a
639.8085	0.135	1279617	keystroke_e	e	n/a
640.0935	0.09	1280187	keystroke_s	s	n/a
640.9035	0.044	1281807	keystroke_Key.enter	Key.enter	n/a
640.955	16.63	1281910	prompt	n/a	recycling underground representing forgot\n
641.7585	0.09	1283517	keystroke_r	r	n/a
641.7885	0.12	1283577	keystroke_e	e	n/a
642.1635	0.075	1284327	keystroke_c	c	n/a
642.4035	0.044	1284807	keystroke_y	y	n/a
642.7035	0.075	1285407	keystroke_c	c	n/a
642.9135	0.09	1285827	keystroke_l	l	n/a
643.0635	0.12	1286127	keystroke_i	i	n/a
643.1985	0.075	1286397	keystroke_n	n	n/a
643.3035	0.089	1286607	keystroke_g	g	n/a
643.4075	0.076	1286815	keystroke_Key.space	Key.space	n/a
643.7235	0.075	1287447	keystroke_u	u	n/a
643.9035	0.089	1287807	keystroke_n	n	n/a
644.0385	0.075	1288077	keystroke_d	d	n/a
644.2635	0.12	1288527	keystroke_e	e	n/a
644.3235	0.105	1288647	keystroke_r	r	n/a
644.8935	0.059	1289787	keystroke_f	f	n/a
645.5835	0.074	1291167	keystroke_Key.backspace	Key.backspace	n/a
645.6885	0.075	1291377	keystroke_g	g	n/a
645.9135	0.075	1291827	keystroke_r	r	n/a
646.0635	0.135	1292127	keystroke_o	o	n/a
646.1225	0.061	1292245	keystroke_i	i	n/a
646.1685	0.075	1292337	keystroke_u	u	n/a
646.4225	0.091	1292845	keystroke_n	n	n/a
646.6335	0.059	1293267	keystroke_d	d	n/a
646.9475	0.076	1293895	keystroke_Key.backspace	Key.backspace	n/a
647.0985	0.06	1294197	keystroke_Key.backspace	Key.backspace	n/a
647.2475	0.046	1294495	keystroke_Key.backspace	Key.backspace	n/a
647.3835	0.075	1294767	keystroke_Key.backspace	Key.backspace	n/a
647.9535	0.09	1295907	keystroke_u	u	n/a
648.1635	0.09	1296327	keystroke_n	n	n/a
648.3435	0.06	1296687	keystroke_d	d	n/a
648.4335	0.075	1296867	keystroke_Key.space	Key.space	n/a
649.2735	0.135	1298547	keystroke_e	e	n/a
650.0385	0.075	1300077	keystroke_Key.backspace	Key.backspace	n/a
650.1285	0.12	1300257	keystroke_r	r	n/a
650.2035	0.09	1300407	keystroke_e	e	n/a
650.5185	0.03	1301037	keystroke_p	p	n/a
650.8635	0.135	1301727	keystroke_r	r	n/a
650.9535	0.105	1301907	keystroke_e	e	n/a
651.3135	0.09	1302627	keystroke_s	s	n/a
652.7985	0.09	1305597	keystroke_e	e	n/a
652.9035	0.075	1305807	keystroke_n	n	n/a
653.0235	0.09	1306047	keystroke_t	t	n/a
653.1735	0.12	1306347	keystroke_i	i	n/a
653.2635	0.105	1306527	keystroke_n	n	n/a
653.3985	0.06	1306797	keystroke_g	g	n/a
653.5485	0.06	1307097	keystroke_Key.space	Key.space	n/a
654.7935	0.06	1309587	keystroke_f	f	n/a
654.9885	0.09	1309977	keystroke_o	o	n/a
655.1235	0.075	1310247	keystroke_r	r	n/a
655.3185	0.09	1310637	keystroke_g	g	n/a
655.4985	0.18	1310997	keystroke_e	e	n/a
656.1885	0.075	1312377	keystroke_Key.backspace	Key.backspace	n/a
656.5035	0.09	1313007	keystroke_o	o	n/a
656.7735	0.09	1313547	keystroke_t	t	n/a
657.5235	0.06	1315047	keystroke_Key.enter	Key.enter	n/a
657.5905	9.7745	1315181	prompt	n/a	performed keen effectiveness hire\n
658.8435	0.09	1317687	keystroke_p	p	n/a
659.0535	0.135	1318107	keystroke_e	e	n/a
659.1435	0.09	1318287	keystroke_r	r	n/a
659.3685	0.09	1318737	keystroke_f	f	n/a
659.5035	0.105	1319007	keystroke_o	o	n/a
659.7735	0.09	1319547	keystroke_r	r	n/a
660.1485	0.09	1320297	keystroke_m	m	n/a
660.5985	0.075	1321197	keystroke_e	e	n/a
660.7935	0.12	1321587	keystroke_d	d	n/a
660.9735	0.105	1321947	keystroke_Key.space	Key.space	n/a
661.3935	0.09	1322787	keystroke_k	k	n/a
661.5435	0.06	1323087	keystroke_e	e	n/a
661.6785	0.06	1323357	keystroke_e	e	n/a
661.8735	0.045	1323747	keystroke_n	n	n/a
662.1435	0.075	1324287	keystroke_Key.space	Key.space	n/a
662.5635	0.045	1325127	keystroke_e	e	n/a
662.8935	0.06	1325787	keystroke_f	f	n/a
663.0585	0.075	1326117	keystroke_f	f	n/a
663.2235	0.075	1326447	keystroke_e	e	n/a
663.4485	0.045	1326897	keystroke_c	c	n/a
663.6885	0.075	1327377	keystroke_t	t	n/a
663.8235	0.105	1327647	keystroke_i	i	n/a
664.0185	0.0745	1328037	keystroke_v	v	n/a
664.168	0.105	1328336	keystroke_e	e	n/a
664.408	0.075	1328816	keystroke_n	n	n/a
664.618	0.09	1329236	keystroke_e	e	n/a
665.068	0.045	1330136	keystroke_s	s	n/a
665.203	0.045	1330406	keystroke_s	s	n/a
665.353	0.075	1330706	keystroke_Key.space	Key.space	n/a
666.208	0.105	1332416	keystroke_h	h	n/a
666.388	0.105	1332776	keystroke_i	i	n/a
666.598	0.105	1333196	keystroke_r	r	n/a
666.658	0.09	1333316	keystroke_e	e	n/a
667.318	0.045	1334636	keystroke_Key.enter	Key.enter	n/a
667.371	14.2	1334742	prompt	n/a	toilet cashiers marsh thesaurus\n
668.729	0.059	1337458	keystroke_t	t	n/a
668.863	0.105	1337726	keystroke_i	i	n/a
668.998	0.105	1337996	keystroke_o	o	n/a
669.163	0.121	1338326	keystroke_l	l	n/a
669.298	0.06	1338596	keystroke_e	e	n/a
669.598	0.075	1339196	keystroke_t	t	n/a
669.733	0.075	1339466	keystroke_Key.space	Key.space	n/a
671.443	0.075	1342886	keystroke_Key.backspace	Key.backspace	n/a
671.593	0.075	1343186	keystroke_Key.backspace	Key.backspace	n/a
671.743	0.075	1343486	keystroke_Key.backspace	Key.backspace	n/a
671.923	0.045	1343846	keystroke_Key.backspace	Key.backspace	n/a
672.073	0.075	1344146	keystroke_Key.backspace	Key.backspace	n/a
672.343	0.075	1344686	keystroke_Key.backspace	Key.backspace	n/a
672.988	0.12	1345976	keystroke_o	o	n/a
673.063	0.121	1346126	keystroke_i	i	n/a
673.423	0.105	1346846	keystroke_l	l	n/a
673.573	0.105	1347146	keystroke_e	e	n/a
673.738	0.09	1347476	keystroke_t	t	n/a
673.873	0.075	1347746	keystroke_Key.space	Key.space	n/a
674.323	0.061	1348646	keystroke_s	s	n/a
674.938	0.06	1349876	keystroke_Key.backspace	Key.backspace	n/a
674.984	0.105	1349968	keystroke_c	c	n/a
675.148	0.12	1350296	keystroke_a	a	n/a
675.448	0.075	1350896	keystroke_s	s	n/a
675.553	0.09	1351106	keystroke_h	h	n/a
676.093	0.09	1352186	keystroke_i	i	n/a
676.199	0.119	1352398	keystroke_e	e	n/a
676.469	0.104	1352938	keystroke_r	r	n/a
676.708	0.09	1353416	keystroke_s	s	n/a
676.828	0.075	1353656	keystroke_Key.space	Key.space	n/a
677.234	0.089	1354468	keystroke_m	m	n/a
677.368	0.105	1354736	keystroke_a	a	n/a
677.549	0.09	1355098	keystroke_r	r	n/a
677.833	0.076	1355666	keystroke_s	s	n/a
677.968	0.075	1355936	keystroke_h	h	n/a
678.193	0.075	1356386	keystroke_Key.space	Key.space	n/a
678.523	0.075	1357046	keystroke_t	t	n/a
678.628	0.09	1357256	keystroke_h	h	n/a
679.154	0.06	1358308	keystroke_e	e	n/a
679.469	0.09	1358938	keystroke_s	s	n/a
679.739	0.104	1359478	keystroke_a	a	n/a
680.203	0.076	1360406	keystroke_u	u	n/a
680.564	0.075	1361128	keystroke_r	r	n/a
680.729	0.074	1361458	keystroke_u	u	n/a
680.894	0.074	1361788	keystroke_s	s	n/a
681.508	0.06	1363016	keystroke_Key.enter	Key.enter	n/a
681.577	7.9135	1363154	prompt	n/a	upon dicke prevention clark\n
682.333	0.075	1364666	keystroke_u	u	n/a
682.483	0.105	1364966	keystroke_p	p	n/a
682.709	0.134	1365418	keystroke_o	o	n/a
682.813	0.075	1365626	keystroke_n	n	n/a
683.008	0.075	1366016	keystroke_Key.space	Key.space	n/a
683.653	0.076	1367306	keystroke_d	d	n/a
683.834	0.06	1367668	keystroke_i	i	n/a
684.374	0.074	1368748	keystroke_c	c	n/a
684.479	0.089	1368958	keystroke_k	k	n/a
684.779	0.044	1369558	keystroke_e	e	n/a
684.898	0.061	1369796	keystroke_Key.space	Key.space	n/a
685.318	0.091	1370636	keystroke_p	p	n/a
685.513	0.091	1371026	keystroke_r	r	n/a
685.558	0.121	1371116	keystroke_e	e	n/a
685.934	0.074	1371868	keystroke_v	v	n/a
686.354	0.075	1372708	keystroke_e	e	n/a
686.893	0.076	1373786	keystroke_n	n	n/a
687.104	0.09	1374208	keystroke_t	t	n/a
687.179	0.135	1374358	keystroke_i	i	n/a
687.299	0.119	1374598	keystroke_o	o	n/a
687.359	0.075	1374718	keystroke_n	n	n/a
687.538	0.075	1375076	keystroke_Key.space	Key.space	n/a
687.869	0.074	1375738	keystroke_c	c	n/a
687.973	0.09	1375946	keystroke_l	l	n/a
688.244	0.075	1376488	keystroke_a	a	n/a
688.439	0.0895	1376878	keystroke_r	r	n/a
688.709	0.09	1377418	keystroke_k	k	n/a
689.4285	0.059	1378857	keystroke_Key.enter	Key.enter	n/a
689.495	10.33	1378990	prompt	n/a	encourages convenience flights resulted\n
690.3735	0.074	1380747	keystroke_e	e	n/a
690.9285	0.06	1381857	keystroke_n	n	n/a
691.1385	0.09	1382277	keystroke_c	c	n/a
