onset	duration	sample	value	key	prompt_text
6.5955	9.7665	13191	prompt	n/a	the quick brown fox jumps over a lazy dog\n
7.8555	0.013	15711	keystroke_t	t	n/a
7.9135	0.1345	15827	keystroke_h	h	n/a
8.063	0.0905	16126	keystroke_e	e	n/a
8.1675	0.12	16335	keystroke_Key.space	Key.space	n/a
8.9035	0.075	17807	keystroke_q	q	n/a
9.1285	0.075	18257	keystroke_u	u	n/a
9.1435	0.164	18287	keystroke_i	i	n/a
9.3225	0.105	18645	keystroke_c	c	n/a
9.4735	0.149	18947	keystroke_k	k	n/a
9.5485	0.1195	19097	keystroke_Key.space	Key.space	n/a
9.7135	0.075	19427	keystroke_b	b	n/a
9.9535	0.1045	19907	keystroke_r	r	n/a
10.0425	0.1505	20085	keystroke_o	o	n/a
10.3275	0.076	20655	keystroke_w	w	n/a
10.4625	0.076	20925	keystroke_n	n	n/a
10.5975	0.12	21195	keystroke_Key.space	Key.space	n/a
10.7925	0.091	21585	keystroke_f	f	n/a
10.8985	0.165	21797	keystroke_o	o	n/a
11.1235	0.105	22247	keystroke_x	x	n/a
11.3335	0.104	22667	keystroke_Key.space	Key.space	n/a
11.873	0.016	23746	keystroke_j	j	n/a
11.9635	0.09	23927	keystroke_u	u	n/a
12.218	0.1045	24436	keystroke_m	m	n/a
12.3985	0.15	24797	keystroke_p	p	n/a
12.5785	0.075	25157	keystroke_s	s	n/a
12.6825	0.1055	25365	keystroke_Key.space	Key.space	n/a
12.7725	0.1805	25545	keystroke_o	o	n/a
12.9385	0.075	25877	keystroke_v	v	n/a
13.0885	0.1195	26177	keystroke_e	e	n/a
13.2685	0.104	26537	keystroke_r	r	n/a
13.4625	0.075	26925	keystroke_Key.space	Key.space	n/a
13.6135	0.135	27227	keystroke_a	a	n/a
13.7775	0.106	27555	keystroke_Key.space	Key.space	n/a
13.9585	0.12	27917	keystroke_l	l	n/a
14.1535	0.105	28307	keystroke_a	a	n/a
14.4535	0.0895	28907	keystroke_z	z	n/a
14.6485	0.104	29297	keystroke_y	y	n/a
14.813	0.1055	29626	keystroke_Key.space	Key.space	n/a
15.083	0.1055	30166	keystroke_d	d	n/a
15.2025	0.151	30405	keystroke_o	o	n/a
15.383	0.105	30766	keystroke_g	g	n/a
16.2675	0.091	32535	keystroke_Key.enter	Key.enter	n/a
16.369	12.2765	32738	prompt	n/a	bangkok tribal developers churches\n
17.4535	0.135	34907	keystroke_b	b	n/a
17.5435	0.1645	35087	keystroke_a	a	n/a
17.679	0.1195	35358	keystroke_n	n	n/a
17.8435	0.0905	35687	keystroke_g	g	n/a
18.054	0.1195	36108	keystroke_k	k	n/a
18.2785	0.135	36557	keystroke_o	o	n/a
19.2835	0.12	38567	keystroke_k	k	n/a
19.4635	0.09	38927	keystroke_Key.space	Key.space	n/a
19.7185	0.0595	39437	keystroke_t	t	n/a
19.808	0.1205	39616	keystroke_i	i	n/a
20.6025	0.0905	41205	keystroke_Key.backspace	Key.backspace	n/a
20.7385	0.0755	41477	keystroke_r	r	n/a
20.8435	0.12	41687	keystroke_i	i	n/a
21.054	0.0735	42108	keystroke_b	b	n/a
21.2485	0.1195	42497	keystroke_a	a	n/a
21.458	0.1355	42916	keystroke_l	l	n/a
21.6685	0.089	43337	keystroke_Key.space	Key.space	n/a
22.1785	0.045	44357	keystroke_d	d	n/a
22.3435	0.06	44687	keystroke_e	e	n/a
22.568	0.09	45136	keystroke_v	v	n/a
23.063	0.06	46126	keystroke_e	e	n/a
23.363	0.12	46726	keystroke_l	l	n/a
23.6335	0.059	47267	keystroke_p	p	n/a
24.1575	0.0755	48315	keystroke_Key.backspace	Key.backspace	n/a
24.5035	0.089	49007	keystroke_o	o	n/a
25.178	0.09	50356	keystroke_p	p	n/a
25.433	0.0905	50866	keystroke_e	e	n/a
25.628	0.09	51256	keystroke_r	r	n/a
25.868	0.075	51736	keystroke_s	s	n/a
26.5125	0.075	53025	keystroke_Key.space	Key.space	n/a
26.6785	0.059	53357	keystroke_c	c	n/a
26.7675	0.09	53535	keystroke_h	h	n/a
26.9785	0.089	53957	keystroke_u	u	n/a
27.0825	0.121	54165	keystroke_r	r	n/a
27.4585	0.074	54917	keystroke_c	c	n/a
27.7125	0.105	55425	keystroke_h	h	n/a
27.8475	0.076	55695	keystroke_e	e	n/a
28.0875	0.09	56175	keystroke_s	s	n/a
28.568	0.075	57136	keystroke_Key.enter	Key.enter	n/a
28.65	11.365	57300	prompt	n/a	characteristic vertical spiritual balloon\n
29.4685	0.0745	58937	keystroke_c	c	n/a
29.5585	0.1045	59117	keystroke_h	h	n/a
30.1285	0.105	60257	keystroke_a	a	n/a
30.383	0.09	60766	keystroke_r	r	n/a
30.518	0.106	61036	keystroke_a	a	n/a
30.7585	0.1045	61517	keystroke_c	c	n/a
31.088	0.075	62176	keystroke_t	t	n/a
31.283	0.0905	62566	keystroke_e	e	n/a
31.4785	0.105	62957	keystroke_r	r	n/a
32.018	0.0455	64036	keystroke_s	s	n/a
32.228	0.0905	64456	keystroke_t	t	n/a
32.363	0.1505	64726	keystroke_i	i	n/a
32.543	0.12	65086	keystroke_c	c	n/a
32.708	0.105	65416	keystroke_Key.space	Key.space	n/a
32.8435	0.09	65687	keystroke_v	v	n/a
33.0675	0.091	66135	keystroke_e	e	n/a
34.5835	0.059	69167	keystroke_r	r	n/a
34.7935	0.075	69587	keystroke_t	t	n/a
34.9435	0.134	69887	keystroke_i	i	n/a
35.0785	0.119	70157	keystroke_c	c	n/a
35.3325	0.091	70665	keystroke_a	a	n/a
35.4675	0.12	70935	keystroke_l	l	n/a
35.7235	0.09	71447	keystroke_Key.space	Key.space	n/a
36.0235	0.09	72047	keystroke_s	s	n/a
36.1735	0.105	72347	keystroke_p	p	n/a
36.4135	0.105	72827	keystroke_i	i	n/a
36.7135	0.0595	73427	keystroke_r	r	n/a
36.7875	0.121	73575	keystroke_i	i	n/a
37.103	0.1055	74206	keystroke_t	t	n/a
37.2375	0.135	74475	keystroke_u	u	n/a
37.5535	0.09	75107	keystroke_a	a	n/a
37.7485	0.105	75497	keystroke_l	l	n/a
38.0185	0.09	76037	keystroke_Key.space	Key.space	n/a
38.4085	0.0895	76817	keystroke_b	b	n/a
38.5885	0.09	77177	keystroke_a	a	n/a
38.7085	0.075	77417	keystroke_l	l	n/a
38.858	0.105	77716	keystroke_l	l	n/a
39.083	0.105	78166	keystroke_o	o	n/a
39.4575	0.135	78915	keystroke_o	o	n/a
39.6825	0.09	79365	keystroke_n	n	n/a
39.9385	0.075	79877	keystroke_Key.enter	Key.enter	n/a
40.0185	7.947	80037	prompt	n/a	electoral passing sensors tutorial\n
40.6735	0.059	81347	keystroke_e	e	n/a
40.7635	0.134	81527	keystroke_l	l	n/a
40.8685	0.09	81737	keystroke_e	e	n/a
41.2435	0.09	82487	keystroke_c	c	n/a
41.8885	0.0445	83777	keystroke_t	t	n/a
42.2635	0.105	84527	keystroke_o	o	n/a
42.4135	0.104	84827	keystroke_r	r	n/a
42.683	0.0605	85366	keystroke_a	a	n/a
42.7725	0.151	85545	keystroke_l	l	n/a
43.028	0.09	86056	keystroke_Key.space	Key.space	n/a
43.2085	0.1045	86417	keystroke_p	p	n/a
43.3435	0.1195	86687	keystroke_a	a	n/a
43.5535	0.075	87107	keystroke_s	s	n/a
43.703	0.12	87406	keystroke_s	s	n/a
43.793	0.1205	87586	keystroke_i	i	n/a
44.033	0.12	88066	keystroke_n	n	n/a
44.2285	0.0895	88457	keystroke_g	g	n/a
44.363	0.105	88726	keystroke_Key.space	Key.space	n/a
44.483	0.105	88966	keystroke_s	s	n/a
44.6935	0.0745	89387	keystroke_e	e	n/a
44.828	0.075	89656	keystroke_n	n	n/a
45.008	0.12	90016	keystroke_s	s	n/a
45.443	0.105	90886	keystroke_o	o	n/a
45.6235	0.105	91247	keystroke_r	r	n/a
45.893	0.1055	91786	keystroke_s	s	n/a
46.073	0.105	92146	keystroke_Key.space	Key.space	n/a
46.3435	0.09	92687	keystroke_t	t	n/a
46.4485	0.105	92897	keystroke_u	u	n/a
46.6735	0.06	93347	keystroke_t	t	n/a
46.7485	0.1345	93497	keystroke_o	o	n/a
46.913	0.12	93826	keystroke_r	r	n/a
47.018	0.135	94036	keystroke_i	i	n/a
47.348	0.1205	94696	keystroke_a	a	n/a
47.5735	0.105	95147	keystroke_l	l	n/a
47.8885	0.074	95777	keystroke_Key.enter	Key.enter	n/a
47.971	8.6055	95942	prompt	n/a	appeal bias spider celebrate\n
48.5185	0.06	97037	keystroke_e	e	n/a
48.9685	0.09	97937	keystroke_Key.backspace	Key.backspace	n/a
49.1335	0.0745	98267	keystroke_a	a	n/a
49.298	0.075	98596	keystroke_p	p	n/a
49.463	0.075	98926	keystroke_p	p	n/a
49.973	0.075	99946	keystroke_e	e	n/a
50.2285	0.12	100457	keystroke_a	a	n/a
50.8585	0.1345	101717	keystroke_l	l	n/a
51.038	0.105	102076	keystroke_Key.space	Key.space	n/a
51.413	0.0905	102826	keystroke_b	b	n/a
51.5775	0.1215	103155	keystroke_i	i	n/a
51.6525	0.1055	103305	keystroke_a	a	n/a
51.894	0.0745	103788	keystroke_c	c	n/a
52.4925	0.09	104985	keystroke_Key.backspace	Key.backspace	n/a
52.5985	0.045	105197	keystroke_s	s	n/a
52.7485	0.075	105497	keystroke_Key.space	Key.space	n/a
53.1685	0.105	106337	keystroke_s	s	n/a
53.2435	0.12	106487	keystroke_p	p	n/a
53.4235	0.135	106847	keystroke_i	i	n/a
53.7385	0.06	107477	keystroke_d	d	n/a
53.9785	0.075	107957	keystroke_e	e	n/a
54.2185	0.075	108437	keystroke_r	r	n/a
54.3685	0.09	108737	keystroke_Key.space	Key.space	n/a
54.6535	0.06	109307	keystroke_c	c	n/a
54.8785	0.045	109757	keystroke_e	e	n/a
54.9535	0.135	109907	keystroke_l	l	n/a
55.0585	0.075	110117	keystroke_e	e	n/a
55.2985	0.09	110597	keystroke_b	b	n/a
55.5535	0.075	111107	keystroke_r	r	n/a
55.7335	0.135	111467	keystroke_a	a	n/a
56.0185	0.075	112037	keystroke_t	t	n/a
56.2285	0.075	112457	keystroke_e	e	n/a
56.4835	0.09	112967	keystroke_Key.enter	Key.enter	n/a
56.5815	8.0935	113163	prompt	n/a	sacred dance hardwood wayne\n
57.2185	0.12	114437	keystroke_a	a	n/a
58.1485	0.1045	116297	keystroke_Key.backspace	Key.backspace	n/a
58.403	0.1055	116806	keystroke_s	s	n/a
58.449	0.179	116898	keystroke_a	a	n/a
58.703	0.09	117406	keystroke_c	c	n/a
58.9885	0.1195	117977	keystroke_r	r	n/a
59.0785	0.1195	118157	keystroke_e	e	n/a
59.3335	0.09	118667	keystroke_d	d	n/a
59.6035	0.074	119207	keystroke_Key.space	Key.space	n/a
59.9485	0.06	119897	keystroke_d	d	n/a
60.1735	0.135	120347	keystroke_a	a	n/a
60.413	0.1055	120826	keystroke_n	n	n/a
60.5035	0.075	121007	keystroke_c	c	n/a
60.728	0.0605	121456	keystroke_e	e	n/a
60.8335	0.0745	121667	keystroke_Key.space	Key.space	n/a
61.0735	0.1045	122147	keystroke_h	h	n/a
61.298	0.06	122596	keystroke_a	a	n/a
61.9735	0.044	123947	keystroke_r	r	n/a
62.1985	0.075	124397	keystroke_d	d	n/a
62.6335	0.075	125267	keystroke_w	w	n/a
62.7835	0.1045	125567	keystroke_o	o	n/a
62.948	0.12	125896	keystroke_o	o	n/a
63.2025	0.0905	126405	keystroke_d	d	n/a
63.3835	0.0895	126767	keystroke_Key.space	Key.space	n/a
63.653	0.0905	127306	keystroke_w	w	n/a
63.8185	0.135	127637	keystroke_a	a	n/a
64.0575	0.091	128115	keystroke_y	y	n/a
64.2985	0.1205	128597	keystroke_n	n	n/a
64.4335	0.06	128867	keystroke_e	e	n/a
64.5835	0.0895	129167	keystroke_Key.enter	Key.enter	n/a
64.6805	6.58	129361	prompt	n/a	sitting breast hiring judges\n
65.3035	0.09	130607	keystroke_s	s	n/a
65.6185	0.075	131237	keystroke_i	i	n/a
66.038	0.075	132076	keystroke_t	t	n/a
66.1585	0.105	132317	keystroke_t	t	n/a
66.278	0.1205	132556	keystroke_i	i	n/a
66.489	0.119	132978	keystroke_n	n	n/a
66.668	0.0755	133336	keystroke_g	g	n/a
66.803	0.0745	133606	keystroke_Key.space	Key.space	n/a
67.0435	0.075	134087	keystroke_b	b	n/a
67.3135	0.15	134627	keystroke_r	r	n/a
67.4485	0.15	134897	keystroke_e	e	n/a
67.628	0.1505	135256	keystroke_a	a	n/a
67.8835	0.105	135767	keystroke_s	s	n/a
68.183	0.0905	136366	keystroke_t	t	n/a
68.4085	0.074	136817	keystroke_Key.space	Key.space	n/a
68.648	0.135	137296	keystroke_h	h	n/a
68.753	0.1505	137506	keystroke_i	i	n/a
69.008	0.09	138016	keystroke_r	r	n/a
69.054	0.134	138108	keystroke_i	i	n/a
69.293	0.135	138586	keystroke_n	n	n/a
69.473	0.09	138946	keystroke_g	g	n/a
69.638	0.0905	139276	keystroke_Key.space	Key.space	n/a
70.0135	0.075	140027	keystroke_j	j	n/a
70.2075	0.09	140415	keystroke_u	u	n/a
70.4325	0.0755	140865	keystroke_d	d	n/a
70.6725	0.0755	141345	keystroke_g	g	n/a
70.8385	0.09	141677	keystroke_e	e	n/a
71.0485	0.075	142097	keystroke_s	s	n/a
71.183	0.075	142366	keystroke_Key.enter	Key.enter	n/a
71.268	8.0765	142536	prompt	n/a	expenses validity preservation reading\n
72.008	0.0305	144016	keystroke_e	e	n/a
72.203	0.075	144406	keystroke_x	x	n/a
72.338	0.1205	144676	keystroke_p	p	n/a
72.4875	0.0905	144975	keystroke_e	e	n/a
72.668	0.105	145336	keystroke_n	n	n/a
72.788	0.105	145576	keystroke_s	s	n/a
72.968	0.1055	145936	keystroke_e	e	n/a
73.2085	0.1045	146417	keystroke_s	s	n/a
73.343	0.105	146686	keystroke_Key.space	Key.space	n/a
73.5225	0.1505	147045	keystroke_v	v	n/a
73.6435	0.1345	147287	keystroke_a	a	n/a
73.763	0.135	147526	keystroke_l	l	n/a
74.123	0.105	148246	keystroke_i	i	n/a
74.483	0.0745	148966	keystroke_d	d	n/a
74.588	0.135	149176	keystroke_i	i	n/a
74.9325	0.09	149865	keystroke_t	t	n/a
75.068	0.1205	150136	keystroke_y	y	n/a
75.248	0.105	150496	keystroke_Key.space	Key.space	n/a
75.413	0.1205	150826	keystroke_p	p	n/a
75.5935	0.134	151187	keystroke_r	r	n/a
75.7725	0.1055	151545	keystroke_e	e	n/a
76.013	0.0905	152026	keystroke_s	s	n/a
76.2685	0.074	152537	keystroke_e	e	n/a
76.4625	0.06	152925	keystroke_r	r	n/a
76.658	0.15	153316	keystroke_v	v	n/a
76.763	0.15	153526	keystroke_a	a	n/a
77.063	0.0905	154126	keystroke_t	t	n/a
77.213	0.195	154426	keystroke_i	i	n/a
77.333	0.1655	154666	keystroke_o	o	n/a
77.558	0.12	155116	keystroke_n	n	n/a
77.723	0.105	155446	keystroke_Key.space	Key.space	n/a
77.963	0.1655	155926	keystroke_r	r	n/a
78.098	0.1945	156196	keystroke_e	e	n/a
78.263	0.1195	156526	keystroke_a	a	n/a
78.503	0.105	157006	keystroke_d	d	n/a
78.6235	0.1195	157247	keystroke_i	i	n/a
78.8035	0.1495	157607	keystroke_n	n	n/a
78.9985	0.1195	157997	keystroke_g	g	n/a
79.253	0.09	158506	keystroke_Key.enter	Key.enter	n/a
79.349	9.625	158698	prompt	n/a	statistical strict previously comply\n
80.0025	0.0905	160005	keystroke_s	s	n/a
80.243	0.1045	160486	keystroke_t	t	n/a
80.3925	0.165	160785	keystroke_a	a	n/a
80.8875	0.076	161775	keystroke_t	t	n/a
81.1285	0.1195	162257	keystroke_i	i	n/a
81.3985	0.104	162797	keystroke_s	s	n/a
81.9385	0.06	163877	keystroke_t	t	n/a
82.043	0.1345	164086	keystroke_i	i	n/a
82.1935	0.1045	164387	keystroke_c	c	n/a
82.4475	0.105	164895	keystroke_a	a	n/a
82.5685	0.1945	165137	keystroke_l	l	n/a
82.7325	0.09	165465	keystroke_Key.space	Key.space	n/a
82.8535	0.1195	165707	keystroke_s	s	n/a
83.138	0.0745	166276	keystroke_t	t	n/a
83.3785	0.074	166757	keystroke_r	r	n/a
83.498	0.105	166996	keystroke_i	i	n/a
83.738	0.0745	167476	keystroke_c	c	n/a
84.023	0.09	168046	keystroke_t	t	n/a
84.143	0.0745	168286	keystroke_Key.space	Key.space	n/a
84.323	0.09	168646	keystroke_p	p	n/a
84.4875	0.135	168975	keystroke_r	r	n/a
84.608	0.1195	169216	keystroke_e	e	n/a
84.8785	0.0895	169757	keystroke_v	v	n/a
85.0425	0.1355	170085	keystroke_i	i	n/a
85.1635	0.164	170327	keystroke_o	o	n/a
85.3125	0.135	170625	keystroke_u	u	n/a
85.6875	0.1055	171375	keystroke_s	s	n/a
85.7775	0.135	171555	keystroke_l	l	n/a
86.108	0.1045	172216	keystroke_y	y	n/a
86.318	0.09	172636	keystroke_Key.space	Key.space	n/a
87.0675	0.06	174135	keystroke_c	c	n/a
87.1425	0.1355	174285	keystroke_o	o	n/a
87.368	0.105	174736	keystroke_m	m	n/a
88.178	0.09	176356	keystroke_p	p	n/a
88.373	0.12	176746	keystroke_l	l	n/a
88.643	0.075	177286	keystroke_y	y	n/a
88.898	0.075	177796	keystroke_Key.enter	Key.enter	n/a
88.9775	8.0975	177955	prompt	n/a	pubmed voted widely announcements\n
89.678	0.119	179356	keystroke_p	p	n/a
90.383	0.0895	180766	keystroke_u	u	n/a
90.7725	0.09	181545	keystroke_b	b	n/a
90.9685	0.134	181937	keystroke_m	m	n/a
91.0725	0.09	182145	keystroke_e	e	n/a
91.2975	0.09	182595	keystroke_d	d	n/a
91.4775	0.075	182955	keystroke_Key.space	Key.space	n/a
91.9875	0.06	183975	keystroke_v	v	n/a
92.1675	0.105	184335	keystroke_o	o	n/a
92.4075	0.09	184815	keystroke_t	t	n/a
92.5425	0.09	185085	keystroke_e	e	n/a
92.7825	0.105	185565	keystroke_d	d	n/a
92.9475	0.0605	185895	keystroke_Key.space	Key.space	n/a
93.128	0.105	186256	keystroke_w	w	n/a
93.248	0.12	186496	keystroke_i	i	n/a
93.413	0.075	186826	keystroke_d	d	n/a
93.6375	0.075	187275	keystroke_e	e	n/a
93.7275	0.1055	187455	keystroke_l	l	n/a
93.9975	0.105	187995	keystroke_y	y	n/a
94.1325	0.09	188265	keystroke_Key.space	Key.space	n/a
94.4175	0.121	188835	keystroke_a	a	n/a
94.5825	0.06	189165	keystroke_n	n	n/a
94.7025	0.091	189405	keystroke_n	n	n/a
94.898	0.1195	189796	keystroke_o	o	n/a
95.0925	0.105	190185	keystroke_u	u	n/a
95.3775	0.1055	190755	keystroke_n	n	n/a
95.528	0.09	191056	keystroke_c	c	n/a
95.7825	0.06	191565	keystroke_e	e	n/a
95.948	0.12	191896	keystroke_m	m	n/a
96.0975	0.075	192195	keystroke_e	e	n/a
96.2935	0.104	192587	keystroke_n	n	n/a
96.4725	0.091	192945	keystroke_t	t	n/a
96.7125	0.105	193425	keystroke_s	s	n/a
96.9975	0.075	193995	keystroke_Key.enter	Key.enter	n/a
97.079	8.9955	194158	prompt	n/a	workshops mutual porcelain rally\n
97.913	0.0755	195826	keystroke_w	w	n/a
98.1385	0.1195	196277	keystroke_o	o	n/a
98.4225	0.0905	196845	keystroke_r	r	n/a
98.4975	0.135	196995	keystroke_k	k	n/a
98.7825	0.09	197565	keystroke_s	s	n/a
98.9475	0.1205	197895	keystroke_h	h	n/a
99.0975	0.135	198195	keystroke_o	o	n/a
99.278	0.1345	198556	keystroke_p	p	n/a
99.5175	0.09	199035	keystroke_s	s	n/a
99.6375	0.0905	199275	keystroke_Key.space	Key.space	n/a
99.8325	0.075	199665	keystroke_m	m	n/a
100.0875	0.1055	200175	keystroke_u	u	n/a
100.4475	0.105	200895	keystroke_t	t	n/a
100.5385	0.134	201077	keystroke_u	u	n/a
100.778	0.1345	201556	keystroke_a	a	n/a
101.033	0.1055	202066	keystroke_l	l	n/a
101.2435	0.089	202487	keystroke_Key.space	Key.space	n/a
101.453	0.105	202906	keystroke_p	p	n/a
102.248	0.0745	204496	keystroke_o	o	n/a
102.3975	0.091	204795	keystroke_r	r	n/a
102.668	0.075	205336	keystroke_c	c	n/a
103.613	0.0755	207226	keystroke_e	e	n/a
103.823	0.15	207646	keystroke_l	l	n/a
103.988	0.12	207976	keystroke_a	a	n/a
104.093	0.105	208186	keystroke_i	i	n/a
104.303	0.1205	208606	keystroke_n	n	n/a
104.453	0.09	208906	keystroke_Key.space	Key.space	n/a
104.693	0.15	209386	keystroke_r	r	n/a
104.858	0.105	209716	keystroke_a	a	n/a
104.964	0.074	209928	keystroke_l	l	n/a
105.113	0.09	210226	keystroke_l	l	n/a
105.3835	0.09	210767	keystroke_y	y	n/a
105.998	0.075	211996	keystroke_Key.enter	Key.enter	n/a
106.0795	8.075	212159	prompt	n/a	haven't designers united exotic\n
106.808	0.1205	213616	keystroke_h	h	n/a
106.9285	0.1195	213857	keystroke_a	a	n/a
107.183	0.105	214366	keystroke_v	v	n/a
107.408	0.075	214816	keystroke_e	e	n/a
107.558	0.1055	215116	keystroke_n	n	n/a
107.798	0.1195	215596	keystroke_'	'	n/a
108.0075	0.075	216015	keystroke_t	t	n/a
108.3075	0.09	216615	keystroke_Key.space	Key.space	n/a
108.6975	0.0605	217395	keystroke_d	d	n/a
109.088	0.075	218176	keystroke_e	e	n/a
109.343	0.12	218686	keystroke_s	s	n/a
109.448	0.1355	218896	keystroke_i	i	n/a
109.643	0.105	219286	keystroke_g	g	n/a
109.763	0.15	219526	keystroke_n	n	n/a
109.883	0.105	219766	keystroke_e	e	n/a
110.123	0.09	220246	keystroke_r	r	n/a
110.3785	0.104	220757	keystroke_s	s	n/a
110.5425	0.0905	221085	keystroke_Key.space	Key.space	n/a
110.7685	0.105	221537	keystroke_u	u	n/a
111.053	0.089	222106	keystroke_n	n	n/a
111.233	0.105	222466	keystroke_i	i	n/a
111.848	0.09	223696	keystroke_t	t	n/a
112.0135	0.075	224027	keystroke_e	e	n/a
112.253	0.06	224506	keystroke_d	d	n/a
112.313	0.09	224626	keystroke_Key.space	Key.space	n/a
112.508	0.09	225016	keystroke_e	e	n/a
112.748	0.105	225496	keystroke_x	x	n/a
112.943	0.1055	225886	keystroke_o	o	n/a
113.288	0.075	226576	keystroke_t	t	n/a
113.393	0.135	226786	keystroke_i	i	n/a
113.7835	0.0745	227567	keystroke_c	c	n/a
114.038	0.105	228076	keystroke_Key.enter	Key.enter	n/a
114.1585	13.036	228317	prompt	n/a	admission quotations missile beverage\n
114.9525	0.09	229905	keystroke_a	a	n/a
115.178	0.075	230356	keystroke_d	d	n/a
115.3125	0.1055	230625	keystroke_m	m	n/a
115.4785	0.119	230957	keystroke_i	i	n/a
115.7925	0.061	231585	keystroke_s	s	n/a
115.9435	0.104	231887	keystroke_s	s	n/a
116.093	0.1195	232186	keystroke_i	i	n/a
116.168	0.1795	232336	keystroke_o	o	n/a
116.408	0.105	232816	keystroke_n	n	n/a
116.6175	0.105	233235	keystroke_Key.space	Key.space	n/a
117.083	0.03	234166	keystroke_q	q	n/a
117.173	0.1355	234346	keystroke_u	u	n/a
117.4725	0.09	234945	keystroke_a	a	n/a
118.2975	0.0755	236595	keystroke_Key.backspace	Key.backspace	n/a
118.538	0.1205	237076	keystroke_o	o	n/a
119.0475	0.09	238095	keystroke_t	t	n/a
119.1525	0.121	238305	keystroke_i	i	n/a
119.3775	0.0905	238755	keystroke_a	a	n/a
119.648	0.0905	239296	keystroke_t	t	n/a
119.8735	0.1345	239747	keystroke_i	i	n/a
119.9635	0.1345	239927	keystroke_o	o	n/a
120.1725	0.1355	240345	keystroke_n	n	n/a
120.5035	0.075	241007	keystroke_s	s	n/a
120.742	0.1055	241484	keystroke_Key.space	Key.space	n/a
121.042	0.091	242084	keystroke_m	m	n/a
121.238	0.09	242476	keystroke_i	i	n/a
121.4325	0.075	242865	keystroke_s	s	n/a
121.553	0.119	243106	keystroke_s	s	n/a
122.422	0.091	244844	keystroke_i	i	n/a
122.663	0.1195	245326	keystroke_l	l	n/a
122.7835	0.0595	245567	keystroke_e	e	n/a
123.443	0.09	246886	keystroke_Key.space	Key.space	n/a
123.983	0.075	247966	keystroke_b	b	n/a
124.1635	0.089	248327	keystroke_a	a	n/a
124.9875	0.09	249975	keystroke_Key.backspace	Key.backspace	n/a
125.2125	0.0755	250425	keystroke_e	e	n/a
125.4225	0.09	250845	keystroke_v	v	n/a
125.483	0.1055	250966	keystroke_e	e	n/a
125.7235	0.1345	251447	keystroke_r	r	n/a
125.8875	0.1655	251775	keystroke_a	a	n/a
126.1575	0.09	252315	keystroke_g	g	n/a
126.668	0.0755	253336	keystroke_e	e	n/a
127.1475	0.045	254295	keystroke_Key.enter	Key.enter	n/a
127.199	6.4165	254398	prompt	n/a	roster hoped quest discs\n
127.9585	0.089	255917	keystroke_r	r	n/a
128.3925	0.1055	256785	keystroke_o	o	n/a
128.5285	0.1195	257057	keystroke_s	s	n/a
128.783	0.075	257566	keystroke_t	t	n/a
128.948	0.105	257896	keystroke_e	e	n/a
129.173	0.09	258346	keystroke_r	r	n/a
129.293	0.09	258586	keystroke_Key.space	Key.space	n/a
129.623	0.12	259246	keystroke_h	h	n/a
129.803	0.1205	259606	keystroke_o	o	n/a
129.9535	0.18	259907	keystroke_p	p	n/a
130.148	0.0605	260296	keystroke_e	e	n/a
130.3585	0.104	260717	keystroke_d	d	n/a
130.5075	0.091	261015	keystroke_Key.space	Key.space	n/a
130.7325	0.1055	261465	keystroke_q	q	n/a
130.913	0.135	261826	keystroke_u	u	n/a
131.4975	0.075	262995	keystroke_e	e	n/a
131.693	0.1045	263386	keystroke_s	s	n/a
131.9475	0.105	263895	keystroke_t	t	n/a
132.0525	0.09	264105	keystroke_Key.space	Key.space	n/a
132.323	0.0755	264646	keystroke_d	d	n/a
132.488	0.1195	264976	keystroke_i	i	n/a
132.7275	0.0905	265455	keystroke_s	s	n/a
132.953	0.0745	265906	keystroke_c	c	n/a
133.2835	0.075	266567	keystroke_s	s	n/a
133.5225	0.0905	267045	keystroke_Key.enter	Key.enter	n/a
133.62	6.8055	267240	prompt	n/a	senator reel thesis minority\n
134.3035	0.089	268607	keystroke_s	s	n/a
134.6335	0.075	269267	keystroke_e	e	n/a
134.8725	0.091	269745	keystroke_n	n	n/a
135.0075	0.106	270015	keystroke_a	a	n/a
135.548	0.0745	271096	keystroke_t	t	n/a
135.668	0.1345	271336	keystroke_o	o	n/a
135.8325	0.105	271665	keystroke_r	r	n/a
135.9675	0.105	271935	keystroke_Key.space	Key.space	n/a
136.1925	0.105	272385	keystroke_r	r	n/a
136.418	0.0745	272836	keystroke_e	e	n/a
136.628	0.09	273256	keystroke_e	e	n/a
136.823	0.135	273646	keystroke_l	l	n/a
137.018	0.105	274036	keystroke_Key.space	Key.space	n/a
137.288	0.075	274576	keystroke_t	t	n/a
137.378	0.15	274756	keystroke_h	h	n/a
137.573	0.0905	275146	keystroke_e	e	n/a
137.843	0.09	275686	keystroke_s	s	n/a
137.948	0.1645	275896	keystroke_i	i	n/a
138.1275	0.105	276255	keystroke_s	s	n/a
138.2775	0.1055	276555	keystroke_Key.space	Key.space	n/a
138.848	0.0905	277696	keystroke_m	m	n/a
139.0735	0.074	278147	keystroke_i	i	n/a
139.238	0.1055	278476	keystroke_n	n	n/a
139.358	0.12	278716	keystroke_o	o	n/a
139.598	0.075	279196	keystroke_r	r	n/a
139.643	0.12	279286	keystroke_i	i	n/a
139.898	0.09	279796	keystroke_t	t	n/a
140.033	0.075	280066	keystroke_y	y	n/a
140.333	0.09	280666	keystroke_Key.enter	Key.enter	n/a
140.4305	6.684	280861	prompt	n/a	wired todd newer pockets\n
141.488	0.09	282976	keystroke_w	w	n/a
141.683	0.105	283366	keystroke_i	i	n/a
141.953	0.075	283906	keystroke_r	r	n/a
142.088	0.075	284176	keystroke_e	e	n/a
142.328	0.06	284656	keystroke_d	d	n/a
142.5675	0.075	285135	keystroke_Key.space	Key.space	n/a
143.0775	0.076	286155	keystroke_t	t	n/a
143.453	0.105	286906	keystroke_o	o	n/a
143.6935	0.06	287387	keystroke_d	d	n/a
143.8135	0.075	287627	keystroke_d	d	n/a
144.0075	0.075	288015	keystroke_Key.space	Key.space	n/a
144.218	0.0895	288436	keystroke_n	n	n/a
144.4135	0.074	288827	keystroke_e	e	n/a
144.6385	0.0895	289277	keystroke_w	w	n/a
144.848	0.06	289696	keystroke_e	e	n/a
145.463	0.06	290926	keystroke_r	r	n/a
145.568	0.09	291136	keystroke_Key.space	Key.space	n/a
145.808	0.1495	291616	keystroke_p	p	n/a
145.8825	0.1655	291765	keystroke_o	o	n/a
146.063	0.0755	292126	keystroke_c	c	n/a
146.1525	0.12	292305	keystroke_k	k	n/a
146.3475	0.09	292695	keystroke_e	e	n/a
146.5875	0.075	293175	keystroke_t	t	n/a
146.8425	0.075	293685	keystroke_s	s	n/a
147.0525	0.06	294105	keystroke_Key.enter	Key.enter	n/a
147.119	9.1155	294238	prompt	n/a	threatening reflections veteran abuse\n
147.8475	0.0605	295695	keystroke_t	t	n/a
148.1035	0.09	296207	keystroke_h	h	n/a
148.973	0.135	297946	keystroke_r	r	n/a
149.123	0.105	298246	keystroke_e	e	n/a
149.363	0.105	298726	keystroke_a	a	n/a
149.648	0.075	299296	keystroke_t	t	n/a
149.903	0.06	299806	keystroke_e	e	n/a
150.1435	0.074	300287	keystroke_n	n	n/a
150.293	0.105	300586	keystroke_i	i	n/a
150.488	0.1055	300976	keystroke_n	n	n/a
150.638	0.075	301276	keystroke_g	g	n/a
150.773	0.09	301546	keystroke_Key.space	Key.space	n/a
150.998	0.12	301996	keystroke_r	r	n/a
151.118	0.105	302236	keystroke_e	e	n/a
151.373	0.0895	302746	keystroke_f	f	n/a
151.478	0.1345	302956	keystroke_l	l	n/a
151.6425	0.0755	303285	keystroke_e	e	n/a
151.898	0.075	303796	keystroke_c	c	n/a
152.2125	0.075	304425	keystroke_t	t	n/a
152.4225	0.165	304845	keystroke_i	i	n/a
152.543	0.15	305086	keystroke_o	o	n/a
152.738	0.1345	305476	keystroke_n	n	n/a
152.918	0.105	305836	keystroke_s	s	n/a
153.068	0.09	306136	keystroke_Key.space	Key.space	n/a
153.233	0.09	306466	keystroke_v	v	n/a
153.383	0.1355	306766	keystroke_e	e	n/a
153.6225	0.0905	307245	keystroke_t	t	n/a
153.788	0.1195	307576	keystroke_e	e	n/a
154.0125	0.105	308025	keystroke_r	r	n/a
154.2375	0.105	308475	keystroke_a	a	n/a
154.448	0.15	308896	keystroke_n	n	n/a
154.583	0.12	309166	keystroke_Key.space	Key.space	n/a
154.823	0.0895	309646	keystroke_a	a	n/a
155.303	0.0905	310606	keystroke_b	b	n/a
155.453	0.1055	310906	keystroke_u	u	n/a
155.753	0.09	311506	keystroke_s	s	n/a
155.948	0.06	311896	keystroke_e	e	n/a
156.143	0.09	312286	keystroke_Key.enter	Key.enter	n/a
156.2395	9.04	312479	prompt	n/a	vatican background portfolio utils\n
156.9075	0.06	313815	keystroke_v	v	n/a
157.088	0.105	314176	keystroke_a	a	n/a
157.343	0.09	314686	keystroke_t	t	n/a
157.463	0.12	314926	keystroke_i	i	n/a
157.673	0.09	315346	keystroke_c	c	n/a
157.928	0.1045	315856	keystroke_a	a	n/a
158.0475	0.1055	316095	keystroke_n	n	n/a
158.1975	0.1055	316395	keystroke_Key.space	Key.space	n/a
158.393	0.075	316786	keystroke_b	b	n/a
158.543	0.1055	317086	keystroke_a	a	n/a
159.053	0.075	318106	keystroke_c	c	n/a
159.2335	0.1045	318467	keystroke_k	k	n/a
159.758	0.0595	319516	keystroke_g	g	n/a
160.223	0.0905	320446	keystroke_r	r	n/a
160.3275	0.1205	320655	keystroke_o	o	n/a
160.4175	0.1205	320835	keystroke_u	u	n/a
160.688	0.1205	321376	keystroke_n	n	n/a
160.898	0.0605	321796	keystroke_d	d	n/a
161.0025	0.12	322005	keystroke_Key.space	Key.space	n/a
161.228	0.164	322456	keystroke_p	p	n/a
161.317	0.18	322634	keystroke_o	o	n/a
161.587	0.075	323174	keystroke_r	r	n/a
161.782	0.091	323564	keystroke_t	t	n/a
162.323	0.075	324646	keystroke_f	f	n/a
162.6075	0.0905	325215	keystroke_o	o	n/a
162.8335	0.1045	325667	keystroke_l	l	n/a
163.073	0.075	326146	keystroke_i	i	n/a
163.3125	0.105	326625	keystroke_o	o	n/a
163.958	0.09	327916	keystroke_Key.space	Key.space	n/a
164.183	0.09	328366	keystroke_u	u	n/a
164.513	0.09	329026	keystroke_t	t	n/a
164.618	0.105	329236	keystroke_i	i	n/a
164.813	0.1205	329626	keystroke_l	l	n/a
164.978	0.09	329956	keystroke_s	s	n/a
165.218	0.0595	330436	keystroke_Key.enter	Key.enter	n/a
165.2865	8.993	330573	prompt	n/a	threats confusion million cumulative\n
166.208	0.075	332416	keystroke_t	t	n/a
166.328	0.12	332656	keystroke_h	h	n/a
167.2575	0.105	334515	keystroke_r	r	n/a
167.3925	0.1055	334785	keystroke_e	e	n/a
167.6025	0.1205	335205	keystroke_a	a	n/a
167.873	0.09	335746	keystroke_t	t	n/a
168.0985	0.1045	336197	keystroke_s	s	n/a
168.277	0.09	336554	keystroke_Key.space	Key.space	n/a
168.473	0.074	336946	keystroke_c	c	n/a
168.5485	0.1195	337097	keystroke_o	o	n/a
168.773	0.1045	337546	keystroke_n	n	n/a
168.998	0.0745	337996	keystroke_f	f	n/a
169.1175	0.1055	338235	keystroke_u	u	n/a
169.4475	0.075	338895	keystroke_s	s	n/a
169.613	0.1655	339226	keystroke_i	i	n/a
169.7025	0.1505	339405	keystroke_o	o	n/a
169.9125	0.105	339825	keystroke_n	n	n/a
170.0925	0.105	340185	keystroke_Key.space	Key.space	n/a
170.303	0.09	340606	keystroke_m	m	n/a
170.4975	0.105	340995	keystroke_i	i	n/a
170.723	0.0895	341446	keystroke_l	l	n/a
170.888	0.09	341776	keystroke_l	l	n/a
171.0975	0.12	342195	keystroke_i	i	n/a
171.1725	0.15	342345	keystroke_o	o	n/a
171.4125	0.1205	342825	keystroke_n	n	n/a
171.6225	0.09	343245	keystroke_Key.space	Key.space	n/a
171.848	0.0895	343696	keystroke_c	c	n/a
172.298	0.0895	344596	keystroke_u	u	n/a
172.537	0.09	345074	keystroke_m	m	n/a
172.7625	0.0755	345525	keystroke_u	u	n/a
173.018	0.135	346036	keystroke_l	l	n/a
173.122	0.12	346244	keystroke_a	a	n/a
173.408	0.0895	346816	keystroke_t	t	n/a
173.5125	0.2105	347025	keystroke_i	i	n/a
173.678	0.105	347356	keystroke_v	v	n/a
173.933	0.075	347866	keystroke_e	e	n/a
174.188	0.09	348376	keystroke_Key.enter	Key.enter	n/a
174.285	8.049	348570	prompt	n/a	flood continental arguments chan\n
175.2085	0.0745	350417	keystroke_f	f	n/a
175.358	0.075	350716	keystroke_l	l	n/a
175.568	0.075	351136	keystroke_o	o	n/a
175.8825	0.0905	351765	keystroke_o	o	n/a
176.483	0.0745	352966	keystroke_d	d	n/a
176.648	0.089	353296	keystroke_Key.space	Key.space	n/a
176.9485	0.0595	353897	keystroke_c	c	n/a
177.023	0.12	354046	keystroke_o	o	n/a
177.218	0.135	354436	keystroke_n	n	n/a
177.443	0.0905	354886	keystroke_t	t	n/a
177.563	0.12	355126	keystroke_i	i	n/a
177.818	0.12	355636	keystroke_n	n	n/a
178.028	0.075	356056	keystroke_e	e	n/a
178.193	0.135	356386	keystroke_n	n	n/a
178.402	0.091	356804	keystroke_t	t	n/a
178.643	0.135	357286	keystroke_a	a	n/a
178.7625	0.1055	357525	keystroke_l	l	n/a
179.0025	0.075	358005	keystroke_Key.space	Key.space	n/a
179.333	0.09	358666	keystroke_a	a	n/a
179.753	0.0595	359506	keystroke_r	r	n/a
179.9775	0.09	359955	keystroke_g	g	n/a
180.0975	0.1055	360195	keystroke_u	u	n/a
180.3675	0.121	360735	keystroke_m	m	n/a
180.518	0.075	361036	keystroke_e	e	n/a
180.6525	0.105	361305	keystroke_n	n	n/a
180.8475	0.09	361695	keystroke_t	t	n/a
181.1175	0.105	362235	keystroke_s	s	n/a
181.2825	0.0755	362565	keystroke_Key.space	Key.space	n/a
181.4625	0.09	362925	keystroke_c	c	n/a
181.5985	0.1495	363197	keystroke_h	h	n/a
181.808	0.12	363616	keystroke_a	a	n/a
182.018	0.104	364036	keystroke_n	n	n/a
182.288	0.0445	364576	keystroke_Key.enter	Key.enter	n/a
182.3375	12.4465	364675	prompt	n/a	abroad franchise charms investigations\n
183.023	0.09	366046	keystroke_a	a	n/a
183.248	0.074	366496	keystroke_b	b	n/a
183.593	0.0745	367186	keystroke_r	r	n/a
184.6425	0.0905	369285	keystroke_o	o	n/a
184.808	0.1195	369616	keystroke_a	a	n/a
185.063	0.0745	370126	keystroke_d	d	n/a
185.1975	0.105	370395	keystroke_Key.space	Key.space	n/a
185.4375	0.075	370875	keystroke_f	f	n/a
185.6475	0.0905	371295	keystroke_r	r	n/a
185.9175	0.1055	371835	keystroke_a	a	n/a
186.082	0.091	372164	keystroke_n	n	n/a
186.217	0.091	372434	keystroke_c	c	n/a
186.457	0.105	372914	keystroke_h	h	n/a
186.7275	0.0905	373455	keystroke_i	i	n/a
187.5385	0.104	375077	keystroke_s	s	n/a
187.7775	0.061	375555	keystroke_e	e	n/a
187.9575	0.09	375915	keystroke_Key.space	Key.space	n/a
188.1375	0.09	376275	keystroke_c	c	n/a
188.2425	0.1355	376485	keystroke_h	h	n/a
188.393	0.149	376786	keystroke_a	a	n/a
188.707	0.09	377414	keystroke_r	r	n/a
189.038	0.105	378076	keystroke_s	s	n/a
189.187	0.091	378374	keystroke_Key.space	Key.space	n/a
189.653	0.12	379306	keystroke_Key.backspace	Key.backspace	n/a
189.922	0.09	379844	keystroke_Key.backspace	Key.backspace	n/a
190.178	0.119	380356	keystroke_m	m	n/a
190.463	0.059	380926	keystroke_s	s	n/a
191.0325	0.09	382065	keystroke_Key.space	Key.space	n/a
191.303	0.0905	382606	keystroke_i	i	n/a
191.453	0.1205	382906	keystroke_n	n	n/a
191.6925	0.1055	383385	keystroke_v	v	n/a
191.918	0.09	383836	keystroke_e	e	n/a
192.833	0.075	385666	keystroke_s	s	n/a
193.088	0.075	386176	keystroke_t	t	n/a
193.193	0.135	386386	keystroke_i	i	n/a
193.418	0.075	386836	keystroke_g	g	n/a
193.703	0.015	387406	keystroke_a	a	n/a
193.868	0.0745	387736	keystroke_t	t	n/a
194.0325	0.1655	388065	keystroke_i	i	n/a
194.1225	0.15	388245	keystroke_o	o	n/a
194.3025	0.1505	388605	keystroke_n	n	n/a
194.5125	0.09	389025	keystroke_s	s	n/a
194.708	0.0745	389416	keystroke_Key.enter	Key.enter	n/a
194.7875	8.022	389575	prompt	n/a	asian uncertainty beds broad\n
195.353	0.105	390706	keystroke_a	a	n/a
195.578	0.09	391156	keystroke_s	s	n/a
195.683	0.135	391366	keystroke_i	i	n/a
195.802	0.1205	391604	keystroke_a	a	n/a
196.043	0.105	392086	keystroke_n	n	n/a
196.208	0.09	392416	keystroke_Key.space	Key.space	n/a
196.4035	0.0745	392807	keystroke_u	u	n/a
196.6125	0.105	393225	keystroke_n	n	n/a
196.7025	0.09	393405	keystroke_c	c	n/a
196.943	0.075	393886	keystroke_e	e	n/a
197.693	0.074	395386	keystroke_t	t	n/a
198.3525	0.09	396705	keystroke_Key.backspace	Key.backspace	n/a
198.488	0.0595	396976	keystroke_r	r	n/a
198.6675	0.09	397335	keystroke_t	t	n/a
198.863	0.1345	397726	keystroke_a	a	n/a
198.9825	0.1205	397965	keystroke_i	i	n/a
199.2075	0.1495	398415	keystroke_n	n	n/a
200.033	0.074	400066	keystroke_t	t	n/a
200.183	0.09	400366	keystroke_y	y	n/a
200.318	0.089	400636	keystroke_Key.space	Key.space	n/a
200.513	0.075	401026	keystroke_b	b	n/a
200.707	0.076	401414	keystroke_e	e	n/a
200.918	0.075	401836	keystroke_d	d	n/a
201.143	0.09	402286	keystroke_s	s	n/a
201.278	0.105	402556	keystroke_Key.space	Key.space	n/a
201.473	0.075	402946	keystroke_b	b	n/a
201.728	0.105	403456	keystroke_r	r	n/a
201.938	0.1345	403876	keystroke_o	o	n/a
202.2385	0.104	404477	keystroke_a	a	n/a
202.523	0.06	405046	keystroke_d	d	n/a
202.732	0.0755	405464	keystroke_Key.enter	Key.enter	n/a
202.8145	8.425	405629	prompt	n/a	engineer lewis circuit arguments\n
203.828	0.0295	407656	keystroke_e	e	n/a
203.903	0.1195	407806	keystroke_n	n	n/a
204.203	0.075	408406	keystroke_g	g	n/a
204.368	0.1045	408736	keystroke_i	i	n/a
204.578	0.105	409156	keystroke_n	n	n/a
204.728	0.0745	409456	keystroke_e	e	n/a
205.268	0.0745	410536	keystroke_e	e	n/a
205.5525	0.075	411105	keystroke_r	r	n/a
205.7175	0.075	411435	keystroke_Key.space	Key.space	n/a
205.9425	0.1205	411885	keystroke_l	l	n/a
206.423	0.165	412846	keystroke_e	e	n/a
206.5725	0.1045	413145	keystroke_w	w	n/a
206.873	0.12	413746	keystroke_i	i	n/a
207.008	0.1045	414016	keystroke_s	s	n/a
207.173	0.089	414346	keystroke_Key.space	Key.space	n/a
207.398	0.075	414796	keystroke_c	c	n/a
207.518	0.1195	415036	keystroke_i	i	n/a
207.758	0.06	415516	keystroke_r	r	n/a
208.2975	0.06	416595	keystroke_c	c	n/a
208.4325	0.09	416865	keystroke_u	u	n/a
208.6125	0.105	417225	keystroke_i	i	n/a
208.838	0.0745	417676	keystroke_t	t	n/a
208.973	0.09	417946	keystroke_Key.space	Key.space	n/a
209.3175	0.1055	418635	keystroke_a	a	n/a
209.5725	0.06	419145	keystroke_r	r	n/a
209.798	0.0745	419596	keystroke_g	g	n/a
209.8875	0.1055	419775	keystroke_u	u	n/a
210.158	0.12	420316	keystroke_m	m	n/a
210.3225	0.0755	420645	keystroke_e	e	n/a
210.518	0.1195	421036	keystroke_n	n	n/a
210.683	0.1045	421366	keystroke_t	t	n/a
210.938	0.1045	421876	keystroke_s	s	n/a
211.1475	0.09	422295	keystroke_Key.enter	Key.enter	n/a
211.2445	8.875	422489	prompt	n/a	kill infant sapphire sculpture\n
211.898	0.12	423796	keystroke_k	k	n/a
212.153	0.105	424306	keystroke_i	i	n/a
212.4375	0.015	424875	keystroke_l	l	n/a
212.513	0.1345	425026	keystroke_l	l	n/a
212.663	0.0895	425326	keystroke_Key.space	Key.space	n/a
212.813	0.1045	425626	keystroke_i	i	n/a
213.023	0.09	426046	keystroke_n	n	n/a
213.323	0.1645	426646	keystroke_f	f	n/a
213.458	0.1945	426916	keystroke_a	a	n/a
213.6075	0.12	427215	keystroke_n	n	n/a
213.848	0.105	427696	keystroke_t	t	n/a
213.983	0.15	427966	keystroke_Key.space	Key.space	n/a
214.193	0.105	428386	keystroke_s	s	n/a
214.823	0.074	429646	keystroke_a	a	n/a
215.063	0.03	430126	keystroke_p	p	n/a
215.167	0.151	430334	keystroke_p	p	n/a
215.408	0.15	430816	keystroke_h	h	n/a
215.498	0.1645	430996	keystroke_i	i	n/a
215.783	0.105	431566	keystroke_r	r	n/a
215.978	0.09	431956	keystroke_e	e	n/a
216.248	0.105	432496	keystroke_Key.space	Key.space	n/a
216.488	0.075	432976	keystroke_s	s	n/a
216.698	0.075	433396	keystroke_c	c	n/a
217.2975	0.1045	434595	keystroke_u	u	n/a
217.5225	0.12	435045	keystroke_p	p	n/a
217.9875	0.0905	435975	keystroke_Key.backspace	Key.backspace	n/a
218.273	0.089	436546	keystroke_l	l	n/a
218.618	0.104	437236	keystroke_p	p	n/a
219.398	0.075	438796	keystroke_t	t	n/a
219.503	0.1195	439006	keystroke_u	u	n/a
219.6375	0.105	439275	keystroke_r	r	n/a
219.8635	0.0885	439727	keystroke_e	e	n/a
220.027	0.09	440054	keystroke_Key.enter	Key.enter	n/a
220.124	8.111	440248	prompt	n/a	croatia cornwall clearly fair\n
220.867	0.0755	441734	keystroke_c	c	n/a
221.137	0.1055	442274	keystroke_r	r	n/a
221.783	0.1195	443566	keystroke_o	o	n/a
221.9175	0.09	443835	keystroke_a	a	n/a
222.1725	0.09	444345	keystroke_t	t	n/a
222.2775	0.1505	444555	keystroke_i	i	n/a
222.442	0.1505	444884	keystroke_a	a	n/a
222.6675	0.105	445335	keystroke_Key.space	Key.space	n/a
222.9825	0.0755	445965	keystroke_c	c	n/a
223.2675	0.12	446535	keystroke_o	o	n/a
223.553	0.0895	447106	keystroke_r	r	n/a
224.242	0.075	448484	keystroke_n	n	n/a
224.573	0.09	449146	keystroke_w	w	n/a
224.738	0.1195	449476	keystroke_a	a	n/a
224.933	0.089	449866	keystroke_l	l	n/a
225.098	0.1045	450196	keystroke_l	l	n/a
225.3225	0.075	450645	keystroke_Key.space	Key.space	n/a
225.4875	0.0755	450975	keystroke_c	c	n/a
225.6375	0.1205	451275	keystroke_l	l	n/a
225.893	0.09	451786	keystroke_e	e	n/a
226.058	0.1345	452116	keystroke_a	a	n/a
226.3425	0.0905	452685	keystroke_r	r	n/a
226.403	0.15	452806	keystroke_l	l	n/a
226.718	0.09	453436	keystroke_y	y	n/a
226.913	0.09	453826	keystroke_Key.space	Key.space	n/a
227.258	0.12	454516	keystroke_f	f	n/a
227.543	0.09	455086	keystroke_a	a	n/a
227.782	0.121	455564	keystroke_i	i	n/a
227.918	0.0895	455836	keystroke_r	r	n/a
228.157	0.075	456314	keystroke_Key.enter	Key.enter	n/a
228.2395	5.335	456479	prompt	n/a	solar account amend fred\n
229.073	0.09	458146	keystroke_s	s	n/a
229.2675	0.09	458535	keystroke_o	o	n/a
229.477	0.105	458954	keystroke_l	l	n/a
229.628	0.135	459256	keystroke_a	a	n/a
229.897	0.106	459794	keystroke_r	r	n/a
230.003	0.1045	460006	keystroke_Key.space	Key.space	n/a
230.198	0.104	460396	keystroke_c	c	n/a
230.422	0.075	460844	keystroke_c	c	n/a
230.5865	0.151	461173	keystroke_o	o	n/a
230.753	0.0895	461506	keystroke_u	u	n/a
230.9775	0.135	461955	keystroke_n	n	n/a
231.1725	0.1055	462345	keystroke_t	t	n/a
231.3225	0.09	462645	keystroke_Key.space	Key.space	n/a
231.5325	0.12	463065	keystroke_a	a	n/a
231.728	0.164	463456	keystroke_m	m	n/a
231.953	0.059	463906	keystroke_e	e	n/a
232.0875	0.12	464175	keystroke_n	n	n/a
232.2225	0.09	464445	keystroke_d	d	n/a
232.4025	0.09	464805	keystroke_Key.space	Key.space	n/a
232.628	0.06	465256	keystroke_f	f	n/a
232.8525	0.075	465705	keystroke_r	r	n/a
233.0325	0.09	466065	keystroke_e	e	n/a
233.2725	0.0745	466545	keystroke_d	d	n/a
233.4825	0.09	466965	keystroke_Key.enter	Key.enter	n/a
233.5795	10.84	467159	prompt	n/a	comply voting buyer physician\n
234.232	0.076	468464	keystroke_c	c	n/a
234.322	0.135	468644	keystroke_o	o	n/a
234.533	0.1045	469066	keystroke_m	m	n/a
234.788	0.1345	469576	keystroke_p	p	n/a
235.282	0.106	470564	keystroke_l	l	n/a
235.537	0.075	471074	keystroke_y	y	n/a
235.7175	0.09	471435	keystroke_Key.space	Key.space	n/a
235.9885	0.074	471977	keystroke_v	v	n/a
236.063	0.1195	472126	keystroke_o	o	n/a
236.318	0.104	472636	keystroke_t	t	n/a
236.4075	0.1045	472815	keystroke_i	i	n/a
236.572	0.166	473144	keystroke_n	n	n/a
236.7675	0.0895	473535	keystroke_g	g	n/a
236.947	0.1055	473894	keystroke_Key.space	Key.space	n/a
237.713	0.075	475426	keystroke_b	b	n/a
237.908	0.075	475816	keystroke_y	y	n/a
239.243	0.0745	478486	keystroke_Key.backspace	Key.backspace	n/a
239.648	0.075	479296	keystroke_u	u	n/a
239.858	0.09	479716	keystroke_y	y	n/a
240.008	0.06	480016	keystroke_e	e	n/a
240.247	0.0755	480494	keystroke_r	r	n/a
240.487	0.0755	480974	keystroke_Key.space	Key.space	n/a
240.922	0.106	481844	keystroke_p	p	n/a
241.103	0.12	482206	keystroke_h	h	n/a
241.3725	0.075	482745	keystroke_u	u	n/a
241.387	0.045	482774	keystroke_y	y	n/a
242.062	0.09	484124	keystroke_Key.backspace	Key.backspace	n/a
242.2575	0.1045	484515	keystroke_Key.backspace	Key.backspace	n/a
242.813	0.089	485626	keystroke_y	y	n/a
243.1425	0.0595	486285	keystroke_s	s	n/a
243.2325	0.1045	486465	keystroke_i	i	n/a
243.487	0.09	486974	keystroke_c	c	n/a
243.667	0.1355	487334	keystroke_i	i	n/a
243.833	0.105	487666	keystroke_a	a	n/a
244.027	0.12	488054	keystroke_n	n	n/a
244.3575	0.06	488715	keystroke_Key.enter	Key.enter	n/a
244.4245	8.517	488849	prompt	n/a	lifetime right effective arrival\n
245.2435	0.0745	490487	keystroke_l	l	n/a
245.4225	0.0905	490845	keystroke_i	i	n/a
246.0375	0.12	492075	keystroke_f	f	n/a
246.1275	0.105	492255	keystroke_e	e	n/a
246.3975	0.09	492795	keystroke_t	t	n/a
246.4275	0.135	492855	keystroke_i	i	n/a
246.6375	0.15	493275	keystroke_m	m	n/a
246.863	0.0745	493726	keystroke_e	e	n/a
247.0425	0.0895	494085	keystroke_Key.space	Key.space	n/a
248.198	0.0745	496396	keystroke_r	r	n/a
248.2875	0.1195	496575	keystroke_i	i	n/a
248.482	0.06	496964	keystroke_g	g	n/a
248.602	0.1355	497204	keystroke_h	h	n/a
248.7825	0.1055	497565	keystroke_t	t	n/a
249.3975	0.09	498795	keystroke_Key.space	Key.space	n/a
249.6225	0.06	499245	keystroke_e	e	n/a
249.8625	0.045	499725	keystroke_f	f	n/a
249.9825	0.0905	499965	keystroke_f	f	n/a
250.238	0.015	500476	keystroke_e	e	n/a
250.403	0.075	500806	keystroke_c	c	n/a
250.688	0.075	501376	keystroke_t	t	n/a
250.792	0.136	501584	keystroke_i	i	n/a
250.972	0.09	501944	keystroke_v	v	n/a
251.213	0.074	502426	keystroke_e	e	n/a
251.317	0.105	502634	keystroke_Key.space	Key.space	n/a
251.5875	0.1055	503175	keystroke_a	a	n/a
251.8425	0.06	503685	keystroke_r	r	n/a
251.9775	0.0905	503955	keystroke_r	r	n/a
252.1275	0.165	504255	keystroke_i	i	n/a
252.2775	0.135	504555	keystroke_v	v	n/a
252.3525	0.1355	504705	keystroke_a	a	n/a
252.5925	0.1195	505185	keystroke_l	l	n/a
252.8625	0.0745	505725	keystroke_Key.enter	Key.enter	n/a
252.946	12.1285	505892	prompt	n/a	longest knows conversations future\n
253.613	0.074	507226	keystroke_l	l	n/a
253.777	0.105	507554	keystroke_i	i	n/a
254.017	0.12	508034	keystroke_n	n	n/a
254.227	0.0755	508454	keystroke_g	g	n/a
254.422	0.09	508844	keystroke_e	e	n/a
254.902	0.1055	509804	keystroke_s	s	n/a
255.577	0.075	511154	keystroke_Key.backspace	Key.backspace	n/a
255.742	0.075	511484	keystroke_Key.backspace	Key.backspace	n/a
255.938	0.074	511876	keystroke_Key.backspace	Key.backspace	n/a
256.162	0.1055	512324	keystroke_Key.backspace	Key.backspace	n/a
256.4925	0.09	512985	keystroke_Key.backspace	Key.backspace	n/a
256.898	0.12	513796	keystroke_o	o	n/a
257.122	0.1205	514244	keystroke_n	n	n/a
257.6025	0.075	515205	keystroke_g	g	n/a
257.7375	0.09	515475	keystroke_e	e	n/a
257.9475	0.105	515895	keystroke_s	s	n/a
258.2025	0.0905	516405	keystroke_t	t	n/a
258.4875	0.09	516975	keystroke_Key.space	Key.space	n/a
258.7425	0.105	517485	keystroke_k	k	n/a
258.937	0.1055	517874	keystroke_n	n	n/a
259.027	0.151	518054	keystroke_o	o	n/a
259.3575	0.075	518715	keystroke_w	w	n/a
259.567	0.105	519134	keystroke_a	a	n/a
260.0925	0.105	520185	keystroke_Key.backspace	Key.backspace	n/a
260.1825	0.0745	520365	keystroke_s	s	n/a
260.3925	0.0745	520785	keystroke_Key.space	Key.space	n/a
260.813	0.0745	521626	keystroke_c	c	n/a
260.858	0.12	521716	keystroke_o	o	n/a
261.0675	0.135	522135	keystroke_n	n	n/a
261.293	0.0745	522586	keystroke_v	v	n/a
261.502	0.0905	523004	keystroke_e	e	n/a
261.6975	0.0755	523395	keystroke_r	r	n/a
261.9825	0.165	523965	keystroke_s	s	n/a
262.1175	0.135	524235	keystroke_a	a	n/a
262.4475	0.09	524895	keystroke_t	t	n/a
262.6125	0.18	525225	keystroke_i	i	n/a
262.7175	0.1805	525435	keystroke_o	o	n/a
262.9425	0.12	525885	keystroke_n	n	n/a
263.4225	0.09	526845	keystroke_s	s	n/a
263.7225	0.0905	527445	keystroke_Key.space	Key.space	n/a
263.9625	0.075	527925	keystroke_f	f	n/a
264.0675	0.1205	528135	keystroke_u	u	n/a
264.2625	0.105	528525	keystroke_t	t	n/a
264.3675	0.105	528735	keystroke_u	u	n/a
264.5625	0.105	529125	keystroke_r	r	n/a
264.7575	0.09	529515	keystroke_e	e	n/a
264.9825	0.09	529965	keystroke_Key.enter	Key.enter	n/a
265.0795	8.1095	530159	prompt	n/a	taiwan i'll verizon rolls\n
265.9275	0.075	531855	keystroke_t	t	n/a
266.5275	0.0905	533055	keystroke_a	a	n/a
267.1875	0.105	534375	keystroke_i	i	n/a
267.5325	0.105	535065	keystroke_w	w	n/a
267.7125	0.12	535425	keystroke_a	a	n/a
267.9375	0.09	535875	keystroke_n	n	n/a
268.2525	0.09	536505	keystroke_Key.space	Key.space	n/a
268.7775	0.1345	537555	keystroke_i	i	n/a
269.002	0.12	538004	keystroke_'	'	n/a
269.4975	0.0745	538995	keystroke_l	l	n/a
269.723	0.0895	539446	keystroke_l	l	n/a
270.0825	0.0745	540165	keystroke_Key.space	Key.space	n/a
270.4275	0.0905	540855	keystroke_v	v	n/a
270.6375	0.075	541275	keystroke_e	e	n/a
270.8625	0.0905	541725	keystroke_r	r	n/a
270.998	0.0745	541996	keystroke_i	i	n/a
271.1175	0.135	542235	keystroke_z	z	n/a
271.2675	0.15	542535	keystroke_o	o	n/a
271.522	0.1205	543044	keystroke_n	n	n/a
271.7475	0.09	543495	keystroke_Key.space	Key.space	n/a
272.1975	0.09	544395	keystroke_r	r	n/a
272.3025	0.12	544605	keystroke_o	o	n/a
272.5425	0.075	545085	keystroke_l	l	n/a
272.6775	0.105	545355	keystroke_l	l	n/a
272.9025	0.075	545805	keystroke_s	s	n/a
273.082	0.1045	546164	keystroke_Key.enter	Key.enter	n/a
273.194	6.79	546388	prompt	n/a	breed lewis acceptance blend\n
273.983	0.074	547966	keystroke_b	b	n/a
274.237	0.105	548474	keystroke_r	r	n/a
274.432	0.076	548864	keystroke_e	e	n/a
274.568	0.105	549136	keystroke_e	e	n/a
274.822	0.09	549644	keystroke_d	d	n/a
274.9575	0.0905	549915	keystroke_Key.space	Key.space	n/a
275.378	0.105	550756	keystroke_l	l	n/a
275.603	0.075	551206	keystroke_e	e	n/a
275.858	0.0745	551716	keystroke_w	w	n/a
276.0075	0.1205	552015	keystroke_i	i	n/a
276.2625	0.0755	552525	keystroke_s	s	n/a
276.412	0.0895	552824	keystroke_Key.space	Key.space	n/a
276.6825	0.105	553365	keystroke_a	a	n/a
276.9225	0.06	553845	keystroke_c	c	n/a
277.0725	0.06	554145	keystroke_c	c	n/a
277.3125	0.0605	554625	keystroke_e	e	n/a
277.5525	0.1205	555105	keystroke_p	p	n/a
277.8075	0.0905	555615	keystroke_t	t	n/a
277.958	0.15	555916	keystroke_a	a	n/a
278.153	0.1495	556306	keystroke_n	n	n/a
278.273	0.1045	556546	keystroke_c	c	n/a
278.557	0.075	557114	keystroke_e	e	n/a
278.692	0.105	557384	keystroke_Key.space	Key.space	n/a
278.9325	0.075	557865	keystroke_b	b	n/a
279.0675	0.15	558135	keystroke_l	l	n/a
279.3525	0.06	558705	keystroke_e	e	n/a
279.5325	0.105	559065	keystroke_n	n	n/a
279.6825	0.075	559365	keystroke_d	d	n/a
279.907	0.0755	559814	keystroke_Key.enter	Key.enter	n/a
279.989	7.9755	559978	prompt	n/a	decimal domains great habitat\n
280.658	0.0745	561316	keystroke_d	d	n/a
280.9125	0.06	561825	keystroke_e	e	n/a
281.1525	0.0745	562305	keystroke_c	c	n/a
281.2425	0.0905	562485	keystroke_i	i	n/a
281.437	0.1205	562874	keystroke_m	m	n/a
281.5875	0.1055	563175	keystroke_a	a	n/a
281.798	0.119	563596	keystroke_l	l	n/a
282.037	0.09	564074	keystroke_Key.space	Key.space	n/a
282.308	0.074	564616	keystroke_d	d	n/a
282.428	0.1345	564856	keystroke_o	o	n/a
282.6675	0.1505	565335	keystroke_m	m	n/a
282.8325	0.09	565665	keystroke_a	a	n/a
283.012	0.135	566024	keystroke_i	i	n/a
283.237	0.121	566474	keystroke_n	n	n/a
283.6125	0.075	567225	keystroke_s	s	n/a
284.2875	0.09	568575	keystroke_Key.space	Key.space	n/a
284.5875	0.06	569175	keystroke_g	g	n/a
284.812	0.0755	569624	keystroke_r	r	n/a
285.068	0.089	570136	keystroke_e	e	n/a
285.338	0.105	570676	keystroke_a	a	n/a
285.997	0.076	571994	keystroke_t	t	n/a
286.2975	0.075	572595	keystroke_Key.space	Key.space	n/a
286.5075	0.135	573015	keystroke_h	h	n/a
286.6125	0.12	573225	keystroke_a	a	n/a
286.8525	0.1045	573705	keystroke_b	b	n/a
286.9425	0.1195	573885	keystroke_i	i	n/a
287.1825	0.105	574365	keystroke_t	t	n/a
287.393	0.1345	574786	keystroke_a	a	n/a
287.6475	0.09	575295	keystroke_t	t	n/a
287.887	0.0755	575774	keystroke_Key.enter	Key.enter	n/a
287.9695	10.7045	575939	prompt	n/a	jackets cinema shades miscellaneous\n
288.652	0.105	577304	keystroke_j	j	n/a
288.742	0.1055	577484	keystroke_a	a	n/a
288.968	0.074	577936	keystroke_c	c	n/a
289.043	0.135	578086	keystroke_k	k	n/a
289.2375	0.09	578475	keystroke_e	e	n/a
289.4775	0.09	578955	keystroke_t	t	n/a
289.7175	0.1205	579435	keystroke_s	s	n/a
289.8525	0.09	579705	keystroke_Key.space	Key.space	n/a
289.9875	0.0905	579975	keystroke_c	c	n/a
290.0625	0.105	580125	keystroke_i	i	n/a
290.2575	0.135	580515	keystroke_n	n	n/a
291.2025	0.0595	582405	keystroke_e	e	n/a
291.277	0.12	582554	keystroke_m	m	n/a
291.413	0.119	582826	keystroke_a	a	n/a
291.592	0.076	583184	keystroke_Key.space	Key.space	n/a
291.7875	0.12	583575	keystroke_h	h	n/a
292.5075	0.045	585015	keystroke_Key.backspace	Key.backspace	n/a
292.5675	0.09	585135	keystroke_s	s	n/a
292.7175	0.12	585435	keystroke_h	h	n/a
292.8525	0.12	585705	keystroke_a	a	n/a
293.0475	0.075	586095	keystroke_d	d	n/a
293.243	0.089	586486	keystroke_e	e	n/a
293.453	0.1045	586906	keystroke_s	s	n/a
293.6175	0.0895	587235	keystroke_Key.space	Key.space	n/a
293.7825	0.1055	587565	keystroke_m	m	n/a
294.0075	0.105	588015	keystroke_i	i	n/a
294.3075	0.075	588615	keystroke_s	s	n/a
294.5475	0.0605	589095	keystroke_c	c	n/a
294.7725	0.075	589545	keystroke_e	e	n/a
295.6425	0.09	591285	keystroke_l	l	n/a
295.7925	0.135	591585	keystroke_l	l	n/a
295.9425	0.0895	591885	keystroke_a	a	n/a
296.542	0.0905	593084	keystroke_n	n	n/a
296.9025	0.0905	593805	keystroke_e	e	n/a
297.3825	0.1205	594765	keystroke_o	o	n/a
297.5175	0.135	595035	keystroke_u	u	n/a
298.267	0.0905	596534	keystroke_s	s	n/a
298.5825	0.09	597165	keystroke_Key.enter	Key.enter	n/a
298.6785	8.051	597357	prompt	n/a	shell move squad patches\n
299.5725	0.105	599145	keystroke_s	s	n/a
299.7225	0.12	599445	keystroke_h	h	n/a
299.8725	0.09	599745	keystroke_e	e	n/a
300.0225	0.09	600045	keystroke_l	l	n/a
300.2025	0.12	600405	keystroke_l	l	n/a
300.3375	0.09	600675	keystroke_Key.space	Key.space	n/a
300.4875	0.135	600975	keystroke_m	m	n/a
300.6075	0.15	601215	keystroke_o	o	n/a
300.7425	0.1205	601485	keystroke_v	v	n/a
300.9525	0.12	601905	keystroke_e	e	n/a
301.1475	0.09	602295	keystroke_Key.space	Key.space	n/a
302.138	0.0745	604276	keystroke_s	s	n/a
302.3775	0.015	604755	keystroke_w	w	n/a
303.5475	0.09	607095	keystroke_Key.backspace	Key.backspace	n/a
303.8025	0.0745	607605	keystroke_q	q	n/a
304.0275	0.075	608055	keystroke_u	u	n/a
304.1625	0.075	608325	keystroke_a	a	n/a
304.4625	0.075	608925	keystroke_d	d	n/a
304.9725	0.09	609945	keystroke_Key.space	Key.space	n/a
305.2275	0.135	610455	keystroke_p	p	n/a
305.3175	0.135	610635	keystroke_a	a	n/a
305.7225	0.075	611445	keystroke_t	t	n/a
305.978	0.0745	611956	keystroke_c	c	n/a
306.0825	0.135	612165	keystroke_h	h	n/a
306.233	0.0895	612466	keystroke_e	e	n/a
306.428	0.105	612856	keystroke_s	s	n/a
306.6525	0.075	613305	keystroke_Key.enter	Key.enter	n/a
306.734	8.5305	613468	prompt	n/a	below principal heating bonds\n
307.4475	0.015	614895	keystroke_b	b	n/a
307.552	0.075	615104	keystroke_e	e	n/a
307.642	0.1055	615284	keystroke_l	l	n/a
307.8675	0.105	615735	keystroke_o	o	n/a
307.9875	0.09	615975	keystroke_w	w	n/a
308.1525	0.09	616305	keystroke_Key.space	Key.space	n/a
308.348	0.089	616696	keystroke_p	p	n/a
308.7525	0.135	617505	keystroke_i	i	n/a
309.7875	0.09	619575	keystroke_r	r	n/a
310.3275	0.06	620655	keystroke_Key.backspace	Key.backspace	n/a
310.4625	0.1195	620925	keystroke_Key.backspace	Key.backspace	n/a
310.792	0.106	621584	keystroke_r	r	n/a
310.882	0.105	621764	keystroke_i	i	n/a
311.047	0.135	622094	keystroke_n	n	n/a
311.213	0.0895	622426	keystroke_c	c	n/a
311.407	0.1055	622814	keystroke_i	i	n/a
311.6025	0.1195	623205	keystroke_p	p	n/a
311.842	0.105	623684	keystroke_a	a	n/a
312.1275	0.135	624255	keystroke_l	l	n/a
312.367	0.0905	624734	keystroke_Key.space	Key.space	n/a
312.847	0.12	625694	keystroke_h	h	n/a
312.952	0.105	625904	keystroke_e	e	n/a
313.102	0.135	626204	keystroke_a	a	n/a
313.372	0.105	626744	keystroke_t	t	n/a
313.4625	0.1045	626925	keystroke_i	i	n/a
313.642	0.1355	627284	keystroke_n	n	n/a
313.823	0.104	627646	keystroke_g	g	n/a
313.942	0.12	627884	keystroke_Key.space	Key.space	n/a
314.332	0.0755	628664	keystroke_b	b	n/a
314.437	0.12	628874	keystroke_o	o	n/a
314.632	0.1505	629264	keystroke_n	n	n/a
314.812	0.09	629624	keystroke_d	d	n/a
315.022	0.091	630044	keystroke_s	s	n/a
315.187	0.075	630374	keystroke_Key.enter	Key.enter	n/a
315.2685	7.2415	630537	prompt	n/a	card conservation fifth rest\n
315.9075	0.09	631815	keystroke_c	c	n/a
316.0125	0.12	632025	keystroke_a	a	n/a
316.852	0.045	633704	keystroke_r	r	n/a
317.077	0.09	634154	keystroke_d	d	n/a
317.227	0.105	634454	keystroke_Key.space	Key.space	n/a
317.452	0.09	634904	keystroke_c	c	n/a
317.903	0.089	635806	keystroke_o	o	n/a
318.052	0.1205	636104	keystroke_n	n	n/a
318.2925	0.0895	636585	keystroke_s	s	n/a
318.532	0.0905	637064	keystroke_e	e	n/a
318.7275	0.075	637455	keystroke_r	r	n/a
318.9525	0.105	637905	keystroke_v	v	n/a
319.073	0.12	638146	keystroke_a	a	n/a
319.3725	0.09	638745	keystroke_t	t	n/a
319.538	0.179	639076	keystroke_i	i	n/a
319.642	0.195	639284	keystroke_o	o	n/a
319.927	0.12	639854	keystroke_n	n	n/a
320.108	0.119	640216	keystroke_Key.space	Key.space	n/a
320.332	0.0905	640664	keystroke_f	f	n/a
320.4075	0.135	640815	keystroke_i	i	n/a
320.6925	0.0905	641385	keystroke_f	f	n/a
321.0075	0.075	642015	keystroke_t	t	n/a
321.128	0.1195	642256	keystroke_h	h	n/a
321.3675	0.075	642735	keystroke_Key.space	Key.space	n/a
321.6525	0.105	643305	keystroke_r	r	n/a
321.8025	0.09	643605	keystroke_e	e	n/a
321.998	0.104	643996	keystroke_s	s	n/a
322.252	0.09	644504	keystroke_t	t	n/a
322.417	0.0905	644834	keystroke_Key.enter	Key.enter	n/a
322.515	7.779	645030	prompt	n/a	layers pendant curious potato\n
323.198	0.119	646396	keystroke_l	l	n/a
323.3925	0.0895	646785	keystroke_a	a	n/a
323.707	0.09	647414	keystroke_y	y	n/a
323.842	0.09	647684	keystroke_e	e	n/a
324.0975	0.09	648195	keystroke_r	r	n/a
324.3525	0.0755	648705	keystroke_s	s	n/a
324.4725	0.089	648945	keystroke_Key.space	Key.space	n/a
324.682	0.1355	649364	keystroke_p	p	n/a
324.8325	0.075	649665	keystroke_e	e	n/a
325.0425	0.1355	650085	keystroke_n	n	n/a
325.2525	0.105	650505	keystroke_d	d	n/a
325.4025	0.12	650805	keystroke_a	a	n/a
325.6125	0.105	651225	keystroke_n	n	n/a
325.8975	0.015	651795	keystroke_t	t	n/a
325.9725	0.105	651945	keystroke_Key.space	Key.space	n/a
326.1825	0.075	652365	keystroke_c	c	n/a
326.3315	0.105	652663	keystroke_u	u	n/a
326.6325	0.0905	653265	keystroke_r	r	n/a
326.8115	0.136	653623	keystroke_i	i	n/a
326.9175	0.15	653835	keystroke_o	o	n/a
327.0825	0.1195	654165	keystroke_u	u	n/a
327.577	0.075	655154	keystroke_s	s	n/a
327.712	0.075	655424	keystroke_Key.space	Key.space	n/a
327.9375	0.1195	655875	keystroke_p	p	n/a
328.1475	0.0895	656295	keystroke_a	a	n/a
328.567	0.0755	657134	keystroke_Key.backspace	Key.backspace	n/a
328.868	0.089	657736	keystroke_o	o	n/a
329.377	0.105	658754	keystroke_t	t	n/a
329.5275	0.1195	659055	keystroke_a	a	n/a
329.812	0.0905	659624	keystroke_t	t	n/a
329.9175	0.105	659835	keystroke_o	o	n/a
330.202	0.09	660404	keystroke_Key.enter	Key.enter	n/a
330.2985	8.216	660597	prompt	n/a	reed childhood teaches assessing\n
330.982	0.076	661964	keystroke_r	r	n/a
331.222	0.06	662444	keystroke_e	e	n/a
331.3425	0.0745	662685	keystroke_e	e	n/a
331.5825	0.075	663165	keystroke_d	d	n/a
331.7325	0.12	663465	keystroke_Key.space	Key.space	n/a
331.9275	0.09	663855	keystroke_c	c	n/a
332.0325	0.15	664065	keystroke_h	h	n/a
332.8425	0.045	665685	keystroke_i	i	n/a
332.9925	0.105	665985	keystroke_l	l	n/a
333.1125	0.0605	666225	keystroke_d	d	n/a
333.4125	0.09	666825	keystroke_h	h	n/a
333.5325	0.075	667065	keystroke_o	o	n/a
333.7125	0.12	667425	keystroke_o	o	n/a
333.9525	0.0755	667905	keystroke_d	d	n/a
334.0575	0.0895	668115	keystroke_Key.space	Key.space	n/a
334.327	0.1055	668654	keystroke_t	t	n/a
334.552	0.105	669104	keystroke_e	e	n/a
334.732	0.12	669464	keystroke_a	a	n/a
334.972	0.06	669944	keystroke_c	c	n/a
335.0475	0.135	670095	keystroke_h	h	n/a
335.197	0.09	670394	keystroke_e	e	n/a
335.408	0.105	670816	keystroke_s	s	n/a
335.5575	0.0895	671115	keystroke_Key.space	Key.space	n/a
335.827	0.105	671654	keystroke_a	a	n/a
336.052	0.21	672104	keystroke_s	s	n/a
336.7875	0.0755	673575	keystroke_s	s	n/a
337.132	0.075	674264	keystroke_e	e	n/a
337.463	0.074	674926	keystroke_s	s	n/a
337.582	0.106	675164	keystroke_s	s	n/a
337.868	0.104	675736	keystroke_i	i	n/a
338.078	0.1195	676156	keystroke_n	n	n/a
338.213	0.0595	676426	keystroke_g	g	n/a
338.422	0.0895	676844	keystroke_Key.enter	Key.enter	n/a
338.519	8.95	677038	prompt	n/a	interface category skill aerial\n
339.232	0.09	678464	keystroke_i	i	n/a
339.3825	0.1195	678765	keystroke_n	n	n/a
339.562	0.075	679124	keystroke_g	g	n/a
339.922	0.1055	679844	keystroke_Key.backspace	Key.backspace	n/a
340.0425	0.075	680085	keystroke_t	t	n/a
340.2075	0.1055	680415	keystroke_e	e	n/a
340.3875	0.075	680775	keystroke_r	r	n/a
340.6125	0.135	681225	keystroke_f	f	n/a
340.6875	0.15	681375	keystroke_a	a	n/a
340.9575	0.06	681915	keystroke_c	c	n/a
341.1975	0.06	682395	keystroke_e	e	n/a
341.3175	0.09	682635	keystroke_Key.space	Key.space	n/a
341.4825	0.15	682965	keystroke_c	c	n/a
341.6175	0.135	683235	keystroke_a	a	n/a
341.947	0.09	683894	keystroke_t	t	n/a
342.127	0.09	684254	keystroke_e	e	n/a
342.982	0.075	685964	keystroke_g	g	n/a
343.073	0.149	686146	keystroke_o	o	n/a
343.237	0.09	686474	keystroke_r	r	n/a
343.357	0.151	686714	keystroke_y	y	n/a
343.612	0.09	687224	keystroke_Key.space	Key.space	n/a
343.9425	0.105	687885	keystroke_s	s	n/a
344.0625	0.105	688125	keystroke_i	i	n/a
344.4075	0.09	688815	keystroke_Key.backspace	Key.backspace	n/a
344.6325	0.06	689265	keystroke_k	k	n/a
344.8125	0.075	689625	keystroke_i	i	n/a
345.0075	0.09	690015	keystroke_l	l	n/a
345.2025	0.105	690405	keystroke_l	l	n/a
345.322	0.0745	690644	keystroke_Key.space	Key.space	n/a
346.0725	0.105	692145	keystroke_a	a	n/a
346.3725	0.075	692745	keystroke_e	e	n/a
346.642	0.091	693284	keystroke_r	r	n/a
346.718	0.15	693436	keystroke_i	i	n/a
346.8525	0.1055	693705	keystroke_a	a	n/a
347.0025	0.105	694005	keystroke_l	l	n/a
347.3925	0.075	694785	keystroke_Key.enter	Key.enter	n/a
347.4725	7.0185	694945	prompt	n/a	william promote ages blocked\n
348.2175	0.1055	696435	keystroke_w	w	n/a
348.3375	0.1055	696675	keystroke_i	i	n/a
348.548	0.089	697096	keystroke_l	l	n/a
348.712	0.09	697424	keystroke_l	l	n/a
348.893	0.1345	697786	keystroke_i	i	n/a
349.0425	0.105	698085	keystroke_a	a	n/a
349.268	0.1195	698536	keystroke_m	m	n/a
349.4325	0.105	698865	keystroke_Key.space	Key.space	n/a
349.6575	0.12	699315	keystroke_p	p	n/a
349.9275	0.09	699855	keystroke_r	r	n/a
349.9875	0.1505	699975	keystroke_o	o	n/a
350.1675	0.15	700335	keystroke_m	m	n/a
350.2875	0.18	700575	keystroke_o	o	n/a
350.4975	0.105	700995	keystroke_t	t	n/a
350.752	0.09	701504	keystroke_e	e	n/a
350.992	0.076	701984	keystroke_Key.space	Key.space	n/a
351.203	0.105	702406	keystroke_a	a	n/a
351.443	0.075	702886	keystroke_g	g	n/a
351.653	0.075	703306	keystroke_e	e	n/a
351.878	0.075	703756	keystroke_s	s	n/a
352.0425	0.105	704085	keystroke_Key.space	Key.space	n/a
352.2975	0.09	704595	keystroke_b	b	n/a
352.883	0.0895	705766	keystroke_l	l	n/a
353.0925	0.1055	706185	keystroke_o	o	n/a
353.662	0.0755	707324	keystroke_c	c	n/a
353.947	0.121	707894	keystroke_k	k	n/a
354.0525	0.075	708105	keystroke_e	e	n/a
354.277	0.075	708554	keystroke_d	d	n/a
354.412	0.0755	708824	keystroke_Key.enter	Key.enter	n/a
354.4955	8.9785	708991	prompt	n/a	shannon variance ceremony dating\n
355.1775	0.09	710355	keystroke_s	s	n/a
355.3125	0.165	710625	keystroke_h	h	n/a
355.612	0.1055	711224	keystroke_a	a	n/a
355.8075	0.0595	711615	keystroke_n	n	n/a
355.942	0.0755	711884	keystroke_n	n	n/a
356.092	0.1355	712184	keystroke_o	o	n/a
356.288	0.1195	712576	keystroke_n	n	n/a
356.512	0.09	713024	keystroke_Key.space	Key.space	n/a
356.7675	0.0745	713535	keystroke_v	v	n/a
356.9625	0.09	713925	keystroke_a	a	n/a
357.758	0.09	715516	keystroke_r	r	n/a
357.8775	0.15	715755	keystroke_i	i	n/a
357.9675	0.12	715935	keystroke_a	a	n/a
358.2075	0.075	716415	keystroke_c	c	n/a
358.3725	0.105	716745	keystroke_n	n	n/a
358.6275	0.0605	717255	keystroke_e	e	n/a
359.0475	0.06	718095	keystroke_Key.backspace	Key.backspace	n/a
359.1825	0.09	718365	keystroke_Key.backspace	Key.backspace	n/a
359.3775	0.105	718755	keystroke_Key.backspace	Key.backspace	n/a
359.6325	0.105	719265	keystroke_n	n	n/a
359.7675	0.0755	719535	keystroke_c	c	n/a
360.0075	0.075	720015	keystroke_e	e	n/a
360.2175	0.075	720435	keystroke_Key.space	Key.space	n/a
360.6825	0.06	721365	keystroke_c	c	n/a
360.893	0.0595	721786	keystroke_e	e	n/a
361.102	0.09	722204	keystroke_r	r	n/a
361.2225	0.135	722445	keystroke_e	e	n/a
361.4025	0.15	722805	keystroke_m	m	n/a
361.5675	0.12	723135	keystroke_o	o	n/a
361.7475	0.075	723495	keystroke_n	n	n/a
362.0175	0.075	724035	keystroke_y	y	n/a
362.1975	0.075	724395	keystroke_Key.space	Key.space	n/a
362.4075	0.135	724815	keystroke_d	d	n/a
362.5125	0.12	725025	keystroke_a	a	n/a
362.798	0.104	725596	keystroke_t	t	n/a
362.887	0.12	725774	keystroke_i	i	n/a
363.052	0.135	726104	keystroke_n	n	n/a
363.218	0.09	726436	keystroke_g	g	n/a
363.382	0.09	726764	keystroke_Key.enter	Key.enter	n/a
363.4805	6.2335	726961	prompt	n/a	solely cutting moral christian\n
364.1625	0.06	728325	keystroke_s	s	n/a
364.2375	0.09	728475	keystroke_o	o	n/a
364.4475	0.105	728895	keystroke_l	l	n/a
364.6425	0.06	729285	keystroke_e	e	n/a
364.7175	0.105	729435	keystroke_l	l	n/a
364.9725	0.105	729945	keystroke_y	y	n/a
365.1075	0.12	730215	keystroke_Key.space	Key.space	n/a
365.3175	0.0895	730635	keystroke_c	c	n/a
365.512	0.0905	731024	keystroke_u	u	n/a
365.7675	0.06	731535	keystroke_t	t	n/a
365.8875	0.09	731775	keystroke_t	t	n/a
365.9925	0.105	731985	keystroke_i	i	n/a
366.1725	0.15	732345	keystroke_n	n	n/a
366.3825	0.06	732765	keystroke_g	g	n/a
366.5175	0.106	733035	keystroke_Key.space	Key.space	n/a
366.6975	0.105	733395	keystroke_m	m	n/a
366.8025	0.15	733605	keystroke_o	o	n/a
367.0275	0.105	734055	keystroke_r	r	n/a
367.2975	0.105	734595	keystroke_a	a	n/a
367.5225	0.105	735045	keystroke_l	l	n/a
367.6725	0.09	735345	keystroke_Key.space	Key.space	n/a
367.8675	0.075	735735	keystroke_c	c	n/a
367.9575	0.105	735915	keystroke_h	h	n/a
368.1525	0.09	736305	keystroke_r	r	n/a
368.2275	0.165	736455	keystroke_i	i	n/a
368.4075	0.105	736815	keystroke_s	s	n/a
368.7075	0.09	737415	keystroke_t	t	n/a
368.7825	0.15	737565	keystroke_i	i	n/a
368.9625	0.15	737925	keystroke_a	a	n/a
369.3375	0.09	738675	keystroke_n	n	n/a
369.6375	0.075	739275	keystroke_Key.enter	Key.enter	n/a
369.7165	9.4475	739433	prompt	n/a	aged peers terminology exposed\n
370.372	0.12	740744	keystroke_a	a	n/a
370.612	0.075	741224	keystroke_g	g	n/a
370.807	0.06	741614	keystroke_e	e	n/a
371.002	0.075	742004	keystroke_d	d	n/a
371.1225	0.09	742245	keystroke_Key.space	Key.space	n/a
371.317	0.1055	742634	keystroke_p	p	n/a
371.407	0.0755	742814	keystroke_e	e	n/a
371.557	0.105	743114	keystroke_e	e	n/a
371.8425	0.075	743685	keystroke_r	r	n/a
372.083	0.09	744166	keystroke_s	s	n/a
372.2775	0.09	744555	keystroke_Key.space	Key.space	n/a
372.518	0.06	745036	keystroke_t	t	n/a
372.6825	0.0895	745365	keystroke_e	e	n/a
372.938	0.09	745876	keystroke_r	r	n/a
373.0725	0.12	746145	keystroke_m	m	n/a
373.2675	0.105	746535	keystroke_i	i	n/a
373.4775	0.1045	746955	keystroke_n	n	n/a
373.5675	0.1495	747135	keystroke_i	i	n/a
374.2125	0.059	748425	keystroke_Key.backspace	Key.backspace	n/a
374.3775	0.104	748755	keystroke_Key.backspace	Key.backspace	n/a
375.563	0.089	751126	keystroke_n	n	n/a
375.742	0.106	751484	keystroke_o	o	n/a
375.9225	0.0895	751845	keystroke_l	l	n/a
376.117	0.12	752234	keystroke_o	o	n/a
376.327	0.09	752654	keystroke_g	g	n/a
376.447	0.09	752894	keystroke_y	y	n/a
377.437	0.09	754874	keystroke_Key.space	Key.space	n/a
377.647	0.0755	755294	keystroke_e	e	n/a
377.9025	0.075	755805	keystroke_x	x	n/a
377.992	0.166	755984	keystroke_p	p	n/a
378.068	0.18	756136	keystroke_o	o	n/a
378.487	0.0755	756974	keystroke_s	s	n/a
378.652	0.06	757304	keystroke_e	e	n/a
378.8775	0.06	757755	keystroke_d	d	n/a
379.087	0.075	758174	keystroke_Key.enter	Key.enter	n/a
379.17	10.2835	758340	prompt	n/a	episode communication associate count\n
380.3325	0.075	760665	keystroke_e	e	n/a
380.527	0.0905	761054	keystroke_p	p	n/a
380.708	0.1045	761416	keystroke_i	i	n/a
381.0225	0.075	762045	keystroke_s	s	n/a
381.1125	0.105	762225	keystroke_o	o	n/a
381.4875	0.06	762975	keystroke_d	d	n/a
381.6825	0.075	763365	keystroke_e	e	n/a
381.8025	0.12	763605	keystroke_Key.space	Key.space	n/a
382.057	0.075	764114	keystroke_c	c	n/a
382.627	0.075	765254	keystroke_o	o	n/a
382.777	0.0755	765554	keystroke_m	m	n/a
382.868	0.0895	765736	keystroke_m	m	n/a
383.8275	0.09	767655	keystroke_u	u	n/a
384.3075	0.0905	768615	keystroke_n	n	n/a
384.443	0.119	768886	keystroke_i	i	n/a
384.577	0.075	769154	keystroke_c	c	n/a
384.727	0.12	769454	keystroke_a	a	n/a
385.0125	0.0905	770025	keystroke_t	t	n/a
385.1475	0.1805	770295	keystroke_i	i	n/a
385.268	0.1485	770536	keystroke_o	o	n/a
385.552	0.09	771104	keystroke_n	n	n/a
385.777	0.075	771554	keystroke_Key.space	Key.space	n/a
386.047	0.0905	772094	keystroke_a	a	n/a
386.482	0.06	772964	keystroke_s	s	n/a
386.602	0.105	773204	keystroke_s	s	n/a
387.2325	0.1055	774465	keystroke_o	o	n/a
387.4425	0.06	774885	keystroke_c	c	n/a
387.5325	0.1195	775065	keystroke_i	i	n/a
387.697	0.105	775394	keystroke_a	a	n/a
387.9675	0.0745	775935	keystroke_t	t	n/a
388.1475	0.0745	776295	keystroke_e	e	n/a
388.297	0.105	776594	keystroke_Key.space	Key.space	n/a
388.4625	0.0905	776925	keystroke_c	c	n/a
388.5075	0.1505	777015	keystroke_o	o	n/a
388.6125	0.1195	777225	keystroke_u	u	n/a
388.868	0.1195	777736	keystroke_n	n	n/a
389.183	0.075	778366	keystroke_t	t	n/a
389.392	0.06	778784	keystroke_Key.enter	Key.enter	n/a
389.457	9.9425	778914	prompt	n/a	apart remains everyone's connectivity\n
390.2475	0.0905	780495	keystroke_a	a	n/a
390.3225	0.1195	780645	keystroke_p	p	n/a
390.5025	0.06	781005	keystroke_a	a	n/a
390.892	0.09	781784	keystroke_r	r	n/a
391.102	0.09	782204	keystroke_t	t	n/a
391.342	0.075	782684	keystroke_Key.space	Key.space	n/a
391.823	0.075	783646	keystroke_r	r	n/a
392.0325	0.0605	784065	keystroke_e	e	n/a
392.1825	0.135	784365	keystroke_m	m	n/a
392.3325	0.09	784665	keystroke_a	a	n/a
392.5425	0.105	785085	keystroke_i	i	n/a
392.7075	0.12	785415	keystroke_n	n	n/a
392.857	0.0755	785714	keystroke_s	s	n/a
392.992	0.09	785984	keystroke_Key.space	Key.space	n/a
393.172	0.075	786344	keystroke_e	e	n/a
393.367	0.0905	786734	keystroke_v	v	n/a
393.472	0.12	786944	keystroke_e	e	n/a
393.727	0.105	787454	keystroke_r	r	n/a
393.878	0.119	787756	keystroke_y	y	n/a
394.912	0.12	789824	keystroke_o	o	n/a
395.137	0.1055	790274	keystroke_n	n	n/a
395.377	0.045	790754	keystroke_e	e	n/a
395.6175	0.09	791235	keystroke_'	'	n/a
396.1275	0.0755	792255	keystroke_s	s	n/a
396.6075	0.075	793215	keystroke_Key.space	Key.space	n/a
396.8625	0.0755	793725	keystroke_c	c	n/a
396.982	0.1205	793964	keystroke_o	o	n/a
397.192	0.045	794384	keystroke_n	n	n/a
397.297	0.09	794594	keystroke_n	n	n/a
397.462	0.076	794924	keystroke_e	e	n/a
397.6875	0.0595	795375	keystroke_c	c	n/a
398.1675	0.075	796335	keystroke_t	t	n/a
398.317	0.1055	796634	keystroke_i	i	n/a
398.5275	0.075	797055	keystroke_v	v	n/a
398.6175	0.12	797235	keystroke_i	i	n/a
398.8275	0.09	797655	keystroke_t	t	n/a
398.9625	0.09	797925	keystroke_y	y	n/a
399.3075	0.09	798615	keystroke_Key.enter	Key.enter	n/a
399.404	7.435	798808	prompt	n/a	minerals split enhancing hint\n
400.058	0.0895	800116	keystroke_m	m	n/a
400.192	0.1055	800384	keystroke_i	i	n/a
400.3575	0.104	800715	keystroke_n	n	n/a
400.5525	0.075	801105	keystroke_e	e	n/a
400.807	0.091	801614	keystroke_r	r	n/a
401.002	0.105	802004	keystroke_a	a	n/a
401.122	0.135	802244	keystroke_l	l	n/a
401.2725	0.09	802545	keystroke_s	s	n/a
401.467	0.0905	802934	keystroke_Key.space	Key.space	n/a
401.798	0.104	803596	keystroke_s	s	n/a
401.962	0.12	803924	keystroke_p	p	n/a
402.187	0.106	804374	keystroke_l	l	n/a
402.367	0.1055	804734	keystroke_i	i	n/a
402.5615	0.06	805123	keystroke_t	t	n/a
402.6825	0.09	805365	keystroke_Key.space	Key.space	n/a
402.8915	0.105	805783	keystroke_n	n	n/a
403.747	0.0905	807494	keystroke_Key.backspace	Key.backspace	n/a
403.8825	0.06	807765	keystroke_e	e	n/a
404.0025	0.075	808005	keystroke_n	n	n/a
404.2425	0.075	808485	keystroke_h	h	n/a
404.6175	0.075	809235	keystroke_a	a	n/a
404.6925	0.09	809385	keystroke_n	n	n/a
405.4125	0.06	810825	keystroke_c	c	n/a
405.4875	0.105	810975	keystroke_i	i	n/a
405.6675	0.135	811335	keystroke_n	n	n/a
405.8175	0.075	811635	keystroke_g	g	n/a
405.9525	0.105	811905	keystroke_Key.space	Key.space	n/a
406.1625	0.105	812325	keystroke_h	h	n/a
406.2225	0.135	812445	keystroke_i	i	n/a
406.4175	0.1195	812835	keystroke_n	n	n/a
406.582	0.106	813164	keystroke_t	t	n/a
406.7475	0.09	813495	keystroke_Key.enter	Key.enter	n/a
406.8435	10.5555	813687	prompt	n/a	core apparatus threshold receivers\n
407.9775	0.075	815955	keystroke_c	c	n/a
408.1275	0.105	816255	keystroke_o	o	n/a
408.3225	0.15	816645	keystroke_r	r	n/a
408.4275	0.105	816855	keystroke_e	e	n/a
408.5775	0.12	817155	keystroke_Key.space	Key.space	n/a
408.7875	0.12	817575	keystroke_a	a	n/a
408.9975	0.06	817995	keystroke_p	p	n/a
409.147	0.1205	818294	keystroke_p	p	n/a
409.2975	0.09	818595	keystroke_a	a	n/a
409.613	0.1195	819226	keystroke_r	r	n/a
409.777	0.1505	819554	keystroke_a	a	n/a
410.0925	0.09	820185	keystroke_t	t	n/a
410.3475	0.105	820695	keystroke_u	u	n/a
410.902	0.06	821804	keystroke_s	s	n/a
411.0825	0.0895	822165	keystroke_Key.space	Key.space	n/a
411.353	0.075	822706	keystroke_t	t	n/a
411.487	0.106	822974	keystroke_h	h	n/a
411.9525	0.12	823905	keystroke_r	r	n/a
412.0425	0.12	824085	keystroke_e	e	n/a
412.2975	0.09	824595	keystroke_s	s	n/a
412.4775	0.135	824955	keystroke_h	h	n/a
412.5675	0.165	825135	keystroke_o	o	n/a
412.7925	0.075	825585	keystroke_d	d	n/a
413.227	0.075	826454	keystroke_Key.backspace	Key.backspace	n/a
413.4825	0.0895	826965	keystroke_l	l	n/a
413.858	0.059	827716	keystroke_d	d	n/a
414.0825	0.0745	828165	keystroke_Key.space	Key.space	n/a
414.802	0.12	829604	keystroke_r	r	n/a
414.907	0.09	829814	keystroke_e	e	n/a
415.132	0.0755	830264	keystroke_c	c	n/a
415.357	0.075	830714	keystroke_e	e	n/a
415.507	0.1205	831014	keystroke_i	i	n/a
415.642	0.0905	831284	keystroke_r	r	n/a
416.3915	0.106	832783	keystroke_Key.backspace	Key.backspace	n/a
416.4825	0.09	832965	keystroke_v	v	n/a
416.662	0.1055	833324	keystroke_e	e	n/a
416.8425	0.09	833685	keystroke_r	r	n/a
417.1275	0.06	834255	keystroke_s	s	n/a
417.3225	0.0745	834645	keystroke_Key.enter	Key.enter	n/a
417.4045	7.4945	834809	prompt	n/a	visa atlanta thai it\n
418.0575	0.075	836115	keystroke_v	v	n/a
418.1625	0.12	836325	keystroke_i	i	n/a
418.2975	0.09	836595	keystroke_s	s	n/a
419.032	0.09	838064	keystroke_a	a	n/a
419.1825	0.09	838365	keystroke_Key.space	Key.space	n/a
419.617	0.0605	839234	keystroke_t	t	n/a
419.9775	0.0595	839955	keystroke_Key.backspace	Key.backspace	n/a
420.0975	0.105	840195	keystroke_a	a	n/a
420.382	0.075	840764	keystroke_t	t	n/a
420.458	0.1195	840916	keystroke_l	l	n/a
421.538	0.0895	843076	keystroke_a	a	n/a
421.6865	0.075	843373	keystroke_n	n	n/a
421.8975	0.09	843795	keystroke_t	t	n/a
422.092	0.0745	844184	keystroke_a	a	n/a
422.287	0.105	844574	keystroke_Key.space	Key.space	n/a
423.127	0.09	846254	keystroke_t	t	n/a
423.232	0.151	846464	keystroke_h	h	n/a
423.398	0.104	846796	keystroke_a	a	n/a
423.607	0.135	847214	keystroke_i	i	n/a
424.1925	0.1045	848385	keystroke_Key.space	Key.space	n/a
424.523	0.134	849046	keystroke_i	i	n/a
424.658	0.0595	849316	keystroke_t	t	n/a
424.8225	0.0745	849645	keystroke_Key.enter	Key.enter	n/a
424.904	8.906	849808	prompt	n/a	maybe assessments sophisticated beth\n
425.6625	0.135	851325	keystroke_m	m	n/a
425.7825	0.12	851565	keystroke_a	a	n/a
425.977	0.105	851954	keystroke_y	y	n/a
426.0975	0.075	852195	keystroke_b	b	n/a
426.277	0.0905	852554	keystroke_e	e	n/a
426.412	0.09	852824	keystroke_Key.space	Key.space	n/a
426.5475	0.12	853095	keystroke_a	a	n/a
426.817	0.0895	853634	keystroke_s	s	n/a
427.0875	0.104	854175	keystroke_s	s	n/a
427.4025	0.09	854805	keystroke_e	e	n/a
427.6715	0.09	855343	keystroke_s	s	n/a
427.8075	0.1045	855615	keystroke_s	s	n/a
428.0625	0.12	856125	keystroke_m	m	n/a
428.1675	0.075	856335	keystroke_e	e	n/a
428.3625	0.12	856725	keystroke_n	n	n/a
428.4975	0.105	856995	keystroke_t	t	n/a
428.7675	0.105	857535	keystroke_s	s	n/a
428.9625	0.1045	857925	keystroke_Key.space	Key.space	n/a
429.292	0.0755	858584	keystroke_s	s	n/a
429.5925	0.12	859185	keystroke_o	o	n/a
429.8175	0.1055	859635	keystroke_p	p	n/a
429.9975	0.15	859995	keystroke_h	h	n/a
430.1325	0.12	860265	keystroke_i	i	n/a
430.4925	0.09	860985	keystroke_s	s	n/a
430.8075	0.06	861615	keystroke_t	t	n/a
430.9275	0.104	861855	keystroke_i	i	n/a
431.1515	0.076	862303	keystroke_c	c	n/a
431.333	0.1045	862666	keystroke_a	a	n/a
431.5875	0.089	863175	keystroke_t	t	n/a
431.7815	0.076	863563	keystroke_e	e	n/a
432.008	0.059	864016	keystroke_d	d	n/a
432.2015	0.076	864403	keystroke_Key.space	Key.space	n/a
432.848	0.0585	865696	keystroke_b	b	n/a
433.1025	0.075	866205	keystroke_e	e	n/a
433.3725	0.105	866745	keystroke_t	t	n/a
433.4925	0.105	866985	keystroke_h	h	n/a
433.7175	0.09	867435	keystroke_Key.enter	Key.enter	n/a
433.814	7.78	867628	prompt	n/a	okay posted constraint betting\n
434.6325	0.12	869265	keystroke_o	o	n/a
435.0825	0.135	870165	keystroke_k	k	n/a
435.202	0.09	870404	keystroke_a	a	n/a
435.382	0.1055	870764	keystroke_y	y	n/a
435.6075	0.09	871215	keystroke_Key.space	Key.space	n/a
435.8175	0.135	871635	keystroke_p	p	n/a
435.8925	0.195	871785	keystroke_o	o	n/a
436.0575	0.09	872115	keystroke_s	s	n/a
436.328	0.09	872656	keystroke_t	t	n/a
436.552	0.0605	873104	keystroke_e	e	n/a
436.777	0.076	873554	keystroke_d	d	n/a
436.8975	0.0895	873795	keystroke_Key.space	Key.space	n/a
437.152	0.076	874304	keystroke_c	c	n/a
437.212	0.136	874424	keystroke_o	o	n/a
437.4525	0.105	874905	keystroke_n	n	n/a
437.662	0.076	875324	keystroke_s	s	n/a
438.3525	0.075	876705	keystroke_t	t	n/a
438.5325	0.12	877065	keystroke_r	r	n/a
438.7425	0.12	877485	keystroke_a	a	n/a
438.9675	0.105	877935	keystroke_i	i	n/a
439.5375	0.12	879075	keystroke_n	n	n/a
439.6725	0.0895	879345	keystroke_t	t	n/a
439.897	0.0905	879794	keystroke_Key.space	Key.space	n/a
440.212	0.075	880424	keystroke_b	b	n/a
440.3925	0.105	880785	keystroke_e	e	n/a
440.6615	0.061	881323	keystroke_t	t	n/a
440.8125	0.074	881625	keystroke_t	t	n/a
440.902	0.12	881804	keystroke_i	i	n/a
441.1125	0.105	882225	keystroke_n	n	n/a
441.2625	0.09	882525	keystroke_g	g	n/a
441.5175	0.075	883035	keystroke_Key.enter	Key.enter	n/a
441.5985	10.18	883197	prompt	n/a	strengths beautiful moved steps\n
442.267	0.1045	884534	keystroke_s	s	n/a
442.4915	0.076	884983	keystroke_t	t	n/a
442.7015	0.1205	885403	keystroke_r	r	n/a
442.9115	0.1065	885823	keystroke_a	a	n/a
443.3775	0.105	886755	keystroke_Key.backspace	Key.backspace	n/a
443.468	0.06	886936	keystroke_e	e	n/a
443.707	0.091	887414	keystroke_n	n	n/a
444.5175	0.0595	889035	keystroke_g	g	n/a
444.622	0.1205	889244	keystroke_h	h	n/a
444.697	0.09	889394	keystroke_t	t	n/a
444.9375	0.1045	889875	keystroke_s	s	n/a
445.462	0.06	890924	keystroke_Key.space	Key.space	n/a
447.052	0.0755	894104	keystroke_b	b	n/a
447.292	0.0605	894584	keystroke_e	e	n/a
447.472	0.1205	894944	keystroke_a	a	n/a
447.712	0.1205	895424	keystroke_u	u	n/a
448.3275	0.06	896655	keystroke_t	t	n/a
448.4475	0.15	896895	keystroke_i	i	n/a
448.7325	0.1045	897465	keystroke_f	f	n/a
448.822	0.105	897644	keystroke_u	u	n/a
449.0775	0.1195	898155	keystroke_l	l	n/a
449.302	0.09	898604	keystroke_Key.space	Key.space	n/a
449.587	0.135	899174	keystroke_m	m	n/a
449.737	0.135	899474	keystroke_o	o	n/a
449.827	0.105	899654	keystroke_v	v	n/a
450.007	0.09	900014	keystroke_e	e	n/a
450.2325	0.091	900465	keystroke_d	d	n/a
450.3375	0.105	900675	keystroke_Key.space	Key.space	n/a
450.5775	0.09	901155	keystroke_s	s	n/a
450.8175	0.0895	901635	keystroke_t	t	n/a
451.042	0.09	902084	keystroke_e	e	n/a
451.2675	0.1495	902535	keystroke_p	p	n/a
451.402	0.105	902804	keystroke_s	s	n/a
451.7175	0.059	903435	keystroke_Key.enter	Key.enter	n/a
451.782	6.1475	903564	prompt	n/a	smaller ottawa rated fleet\n
452.4675	0.09	904935	keystroke_s	s	n/a
452.5725	0.105	905145	keystroke_m	m	n/a
452.7215	0.1055	905443	keystroke_a	a	n/a
452.842	0.09	905684	keystroke_l	l	n/a
453.023	0.1045	906046	keystroke_l	l	n/a
453.1575	0.09	906315	keystroke_e	e	n/a
453.3675	0.105	906735	keystroke_r	r	n/a
453.4275	0.105	906855	keystroke_Key.space	Key.space	n/a
453.6525	0.1045	907305	keystroke_o	o	n/a
453.877	0.06	907754	keystroke_t	t	n/a
453.9825	0.105	907965	keystroke_t	t	n/a
454.1925	0.1045	908385	keystroke_a	a	n/a
454.4165	0.091	908833	keystroke_w	w	n/a
454.613	0.1195	909226	keystroke_a	a	n/a
454.822	0.09	909644	keystroke_Key.space	Key.space	n/a
455.1065	0.0755	910213	keystroke_r	r	n/a
455.288	0.134	910576	keystroke_a	a	n/a
456.0075	0.0895	912015	keystroke_t	t	n/a
456.127	0.075	912254	keystroke_e	e	n/a
456.367	0.0755	912734	keystroke_d	d	n/a
456.502	0.09	913004	keystroke_Key.space	Key.space	n/a
456.7425	0.075	913485	keystroke_f	f	n/a
456.862	0.1055	913724	keystroke_l	l	n/a
457.1775	0.045	914355	keystroke_e	e	n/a
457.3125	0.09	914625	keystroke_e	e	n/a
457.6425	0.045	915285	keystroke_t	t	n/a
457.8525	0.075	915705	keystroke_Key.enter	Key.enter	n/a
457.934	8.036	915868	prompt	n/a	rebate belts females don't\n
458.828	0.0735	917656	keystroke_r	r	n/a
458.9925	0.089	917985	keystroke_e	e	n/a
459.217	0.1055	918434	keystroke_b	b	n/a
459.307	0.1655	918614	keystroke_a	a	n/a
459.6075	0.075	919215	keystroke_t	t	n/a
459.7575	0.105	919515	keystroke_e	e	n/a
459.8925	0.1045	919785	keystroke_Key.space	Key.space	n/a
460.087	0.0605	920174	keystroke_f	f	n/a
460.402	0.1205	920804	keystroke_Key.backspace	Key.backspace	n/a
460.5075	0.074	921015	keystroke_b	b	n/a
460.717	0.1205	921434	keystroke_l	l	n/a
460.747	0.075	921494	keystroke_e	e	n/a
461.317	0.0755	922634	keystroke_Key.backspace	Key.backspace	n/a
461.4525	0.0895	922905	keystroke_Key.backspace	Key.backspace	n/a
461.6175	0.045	923235	keystroke_e	e	n/a
461.692	0.105	923384	keystroke_l	l	n/a
462.517	0.075	925034	keystroke_t	t	n/a
462.742	0.09	925484	keystroke_s	s	n/a
462.9825	0.075	925965	keystroke_Key.space	Key.space	n/a
463.4325	0.09	926865	keystroke_f	f	n/a
464.017	0.075	928034	keystroke_e	e	n/a
464.182	0.12	928364	keystroke_m	m	n/a
464.3325	0.1055	928665	keystroke_a	a	n/a
464.497	0.1205	928994	keystroke_l	l	n/a
464.632	0.075	929264	keystroke_e	e	n/a
464.843	0.089	929686	keystroke_s	s	n/a
465.007	0.09	930014	keystroke_Key.space	Key.space	n/a
465.2025	0.09	930405	keystroke_d	d	n/a
465.3075	0.135	930615	keystroke_o	o	n/a
465.5025	0.1195	931005	keystroke_n	n	n/a
465.847	0.1205	931694	keystroke_Key.enter	Key.enter	n/a
465.8775	0.045	931755	keystroke_'	'	n/a
465.9775	8.8715	931955	prompt	n/a	harley dave jessica fixtures\n
467.8125	0.0895	935625	keystroke_h	h	n/a
468.442	0.0905	936884	keystroke_a	a	n/a
468.6825	0.0745	937365	keystroke_r	r	n/a
468.742	0.15	937484	keystroke_l	l	n/a
469.6875	0.075	939375	keystroke_e	e	n/a
469.7775	0.09	939555	keystroke_y	y	n/a
469.9575	0.075	939915	keystroke_Key.space	Key.space	n/a
470.1225	0.12	940245	keystroke_d	d	n/a
470.1965	0.211	940393	keystroke_a	a	n/a
470.3775	0.12	940755	keystroke_v	v	n/a
470.5875	0.09	941175	keystroke_e	e	n/a
470.7225	0.09	941445	keystroke_Key.space	Key.space	n/a
470.9175	0.12	941835	keystroke_j	j	n/a
471.0075	0.075	942015	keystroke_e	e	n/a
471.2175	0.075	942435	keystroke_s	s	n/a
471.382	0.09	942764	keystroke_s	s	n/a
471.562	0.12	943124	keystroke_i	i	n/a
471.667	0.1055	943334	keystroke_c	c	n/a
471.877	0.1355	943754	keystroke_a	a	n/a
472.0275	0.09	944055	keystroke_Key.space	Key.space	n/a
472.2525	0.09	944505	keystroke_f	f	n/a
472.4025	0.1055	944805	keystroke_i	i	n/a
472.9725	0.06	945945	keystroke_x	x	n/a
473.6475	0.09	947295	keystroke_t	t	n/a
473.7825	0.12	947565	keystroke_u	u	n/a
474.0225	0.165	948045	keystroke_r	r	n/a
474.1425	0.089	948285	keystroke_e	e	n/a
474.4575	0.075	948915	keystroke_s	s	n/a
474.772	0.075	949544	keystroke_Key.enter	Key.enter	n/a
474.854	7.18	949708	prompt	n/a	recall raymond pearl cosmetic\n
475.537	0.1355	951074	keystroke_r	r	n/a
475.6425	0.1195	951285	keystroke_e	e	n/a
475.972	0.0905	951944	keystroke_c	c	n/a
476.197	0.105	952394	keystroke_a	a	n/a
476.392	0.075	952784	keystroke_l	l	n/a
476.572	0.1055	953144	keystroke_l	l	n/a
476.692	0.09	953384	keystroke_Key.space	Key.space	n/a
476.947	0.106	953894	keystroke_r	r	n/a
477.202	0.09	954404	keystroke_a	a	n/a
477.4725	0.0745	954945	keystroke_y	y	n/a
477.7275	0.1345	955455	keystroke_m	m	n/a
477.877	0.1355	955754	keystroke_o	o	n/a
478.387	0.106	956774	keystroke_n	n	n/a
478.567	0.0755	957134	keystroke_e	e	n/a
478.7925	0.075	957585	keystroke_d	d	n/a
478.9875	0.075	957975	keystroke_Key.space	Key.space	n/a
479.2875	0.12	958575	keystroke_p	p	n/a
479.4825	0.075	958965	keystroke_e	e	n/a
479.7675	0.105	959535	keystroke_a	a	n/a
480.0225	0.09	960045	keystroke_r	r	n/a
480.1275	0.15	960255	keystroke_l	l	n/a
480.2315	0.1355	960463	keystroke_Key.space	Key.space	n/a
480.4275	0.09	960855	keystroke_c	c	n/a
480.5325	0.134	961065	keystroke_o	o	n/a
480.6815	0.106	961363	keystroke_s	s	n/a
480.9225	0.12	961845	keystroke_m	m	n/a
481.0275	0.075	962055	keystroke_e	e	n/a
481.2815	0.106	962563	keystroke_t	t	n/a
481.4625	0.1495	962925	keystroke_i	i	n/a
481.687	0.0755	963374	keystroke_c	c	n/a
481.957	0.0755	963914	keystroke_Key.enter	Key.enter	n/a
482.039	11.56	964078	prompt	n/a	diagnosis research draft twisted\n
483.0375	0.0745	966075	keystroke_d	d	n/a
483.1575	0.1345	966315	keystroke_i	i	n/a
483.277	0.105	966554	keystroke_a	a	n/a
483.532	0.075	967064	keystroke_g	g	n/a
483.637	0.121	967274	keystroke_n	n	n/a
483.742	0.1805	967484	keystroke_o	o	n/a
483.982	0.076	967964	keystroke_s	s	n/a
484.0725	0.15	968145	keystroke_i	i	n/a
484.2675	0.1045	968535	keystroke_s	s	n/a
484.4325	0.09	968865	keystroke_Key.space	Key.space	n/a
484.6725	0.12	969345	keystroke_r	r	n/a
484.8075	0.09	969615	keystroke_e	e	n/a
485.602	0.075	971204	keystroke_s	s	n/a
485.7975	0.0745	971595	keystroke_e	e	n/a
485.9775	0.0895	971955	keystroke_r	r	n/a
486.1425	0.1195	972285	keystroke_a	a	n/a
487.6865	0.0755	975373	keystroke_Key.backspace	Key.backspace	n/a
487.8515	0.091	975703	keystroke_Key.backspace	Key.backspace	n/a
488.0775	0.09	976155	keystroke_a	a	n/a
489.217	0.0905	978434	keystroke_r	r	n/a
489.502	0.06	979004	keystroke_c	c	n/a
489.6075	0.1045	979215	keystroke_h	h	n/a
489.8325	0.0895	979665	keystroke_Key.space	Key.space	n/a
490.2075	0.075	980415	keystroke_d	d	n/a
490.4325	0.105	980865	keystroke_r	r	n/a
490.5975	0.135	981195	keystroke_a	a	n/a
490.8225	0.06	981645	keystroke_f	f	n/a
491.0325	0.09	982065	keystroke_t	t	n/a
491.2725	0.075	982545	keystroke_Key.space	Key.space	n/a
491.8275	0.075	983655	keystroke_t	t	n/a
492.2775	0.074	984555	keystroke_w	w	n/a
492.412	0.105	984824	keystroke_i	i	n/a
492.637	0.0755	985274	keystroke_s	s	n/a
492.877	0.0755	985754	keystroke_t	t	n/a
493.0725	0.0755	986145	keystroke_e	e	n/a
493.282	0.075	986564	keystroke_d	d	n/a
493.5225	0.0745	987045	keystroke_Key.enter	Key.enter	n/a
493.603	8.6365	987206	prompt	n/a	expectations post periodically printers\n
494.407	0.06	988814	keystroke_e	e	n/a
494.617	0.09	989234	keystroke_x	x	n/a
494.8275	0.104	989655	keystroke_p	p	n/a
494.948	0.0445	989896	keystroke_e	e	n/a
495.1575	0.075	990315	keystroke_c	c	n/a
495.4725	0.09	990945	keystroke_t	t	n/a
495.667	0.12	991334	keystroke_a	a	n/a
495.9525	0.0745	991905	keystroke_t	t	n/a
496.072	0.135	992144	keystroke_i	i	n/a
496.147	0.1655	992294	keystroke_o	o	n/a
496.342	0.135	992684	keystroke_n	n	n/a
496.552	0.1055	993104	keystroke_s	s	n/a
496.6875	0.0895	993375	keystroke_Key.space	Key.space	n/a
496.897	0.1505	993794	keystroke_p	p	n/a
496.957	0.1955	993914	keystroke_o	o	n/a
497.122	0.105	994244	keystroke_s	s	n/a
497.4525	0.06	994905	keystroke_t	t	n/a
497.632	0.075	995264	keystroke_Key.space	Key.space	n/a
497.8875	0.1195	995775	keystroke_p	p	n/a
498.067	0.075	996134	keystroke_e	e	n/a
498.337	0.09	996674	keystroke_r	r	n/a
498.4575	0.1195	996915	keystroke_i	i	n/a
498.532	0.1655	997064	keystroke_o	o	n/a
498.862	0.0605	997724	keystroke_d	d	n/a
498.9675	0.1045	997935	keystroke_i	i	n/a
499.192	0.0905	998384	keystroke_c	c	n/a
499.4175	0.089	998835	keystroke_a	a	n/a
499.4915	0.075	998983	keystroke_l	l	n/a
499.687	0.0755	999374	keystroke_l	l	n/a
499.9275	0.12	999855	keystroke_y	y	n/a
500.0615	0.1205	1000123	keystroke_Key.space	Key.space	n/a
500.287	0.1355	1000574	keystroke_p	p	n/a
500.572	0.091	1001144	keystroke_r	r	n/a
500.7075	0.12	1001415	keystroke_i	i	n/a
500.962	0.136	1001924	keystroke_n	n	n/a
501.2025	0.0895	1002405	keystroke_t	t	n/a
501.398	0.09	1002796	keystroke_e	e	n/a
501.6375	0.089	1003275	keystroke_r	r	n/a
501.892	0.0755	1003784	keystroke_s	s	n/a
502.162	0.075	1004324	keystroke_Key.enter	Key.enter	n/a
502.244	12.445	1004488	prompt	n/a	absolute yield davidson relations\n
503.0775	0.09	1006155	keystroke_a	a	n/a
503.2865	0.0905	1006573	keystroke_b	b	n/a
503.872	0.0605	1007744	keystroke_s	s	n/a
503.962	0.135	1007924	keystroke_o	o	n/a
504.3525	0.1045	1008705	keystroke_l	l	n/a
504.578	0.0895	1009156	keystroke_u	u	n/a
504.832	0.0755	1009664	keystroke_t	t	n/a
505.0125	0.105	1010025	keystroke_e	e	n/a
505.1775	0.105	1010355	keystroke_Key.space	Key.space	n/a
505.4625	0.09	1010925	keystroke_y	y	n/a
506.047	0.12	1012094	keystroke_i	i	n/a
506.4375	0.075	1012875	keystroke_e	e	n/a
506.6325	0.12	1013265	keystroke_l	l	n/a
506.7675	0.06	1013535	keystroke_d	d	n/a
506.9175	0.09	1013835	keystroke_Key.space	Key.space	n/a
507.1875	0.15	1014375	keystroke_d	d	n/a
507.3225	0.135	1014645	keystroke_a	a	n/a
507.607	0.09	1015214	keystroke_v	v	n/a
507.877	0.1055	1015754	keystroke_i	i	n/a
508.4775	0.0895	1016955	keystroke_d	d	n/a
508.942	0.09	1017884	keystroke_Key.backspace	Key.backspace	n/a
509.062	0.1055	1018124	keystroke_s	s	n/a
509.227	0.12	1018454	keystroke_o	o	n/a
509.452	0.105	1018904	keystroke_n	n	n/a
510.1425	0.074	1020285	keystroke_Key.backspace	Key.backspace	n/a
510.292	0.1045	1020584	keystroke_Key.backspace	Key.backspace	n/a
510.4875	0.09	1020975	keystroke_Key.backspace	Key.backspace	n/a
510.8175	0.06	1021635	keystroke_d	d	n/a
511.2525	0.075	1022505	keystroke_s	s	n/a
511.3275	0.135	1022655	keystroke_o	o	n/a
511.507	0.1205	1023014	keystroke_n	n	n/a
511.8375	0.09	1023675	keystroke_Key.space	Key.space	n/a
512.4225	0.15	1024845	keystroke_r	r	n/a
512.4975	0.15	1024995	keystroke_e	e	n/a
512.9325	0.0745	1025865	keystroke_l	l	n/a
513.008	0.1035	1026016	keystroke_a	a	n/a
513.4865	0.09	1026973	keystroke_t	t	n/a
513.6965	0.165	1027393	keystroke_i	i	n/a
513.8015	0.166	1027603	keystroke_o	o	n/a
514.0115	0.151	1028023	keystroke_n	n	n/a
514.2675	0.09	1028535	keystroke_s	s	n/a
514.5965	0.091	1029193	keystroke_Key.enter	Key.enter	n/a
514.695	11.14	1029390	prompt	n/a	utility iowa windsor exposure\n
515.692	0.1045	1031384	keystroke_u	u	n/a
516.5925	0.074	1033185	keystroke_t	t	n/a
516.6825	0.105	1033365	keystroke_i	i	n/a
516.8475	0.21	1033695	keystroke_l	l	n/a
517.0125	0.149	1034025	keystroke_i	i	n/a
517.2815	0.091	1034563	keystroke_t	t	n/a
518.0175	0.0445	1036035	keystroke_y	y	n/a
518.167	0.09	1036334	keystroke_Key.space	Key.space	n/a
518.4225	0.165	1036845	keystroke_i	i	n/a
518.5575	0.1495	1037115	keystroke_o	o	n/a
518.857	0.0755	1037714	keystroke_w	w	n/a
519.052	0.12	1038104	keystroke_a	a	n/a
519.277	0.09	1038554	keystroke_Key.space	Key.space	n/a
519.6975	0.075	1039395	keystroke_w	w	n/a
519.832	0.1195	1039664	keystroke_i	i	n/a
520.2365	0.09	1040473	keystroke_n	n	n/a
520.522	0.0745	1041044	keystroke_d	d	n/a
521.7825	0.0745	1043565	keystroke_s	s	n/a
521.902	0.105	1043804	keystroke_o	o	n/a
522.952	0.045	1045904	keystroke_r	r	n/a
523.072	0.06	1046144	keystroke_Key.space	Key.space	n/a
523.387	0.075	1046774	keystroke_e	e	n/a
523.6275	0.0895	1047255	keystroke_x	x	n/a
523.837	0.1505	1047674	keystroke_p	p	n/a
523.912	0.195	1047824	keystroke_o	o	n/a
524.227	0.105	1048454	keystroke_s	s	n/a
524.452	0.0755	1048904	keystroke_u	u	n/a
524.992	0.09	1049984	keystroke_r	r	n/a
525.232	0.0605	1050464	keystroke_e	e	n/a
525.757	0.075	1051514	keystroke_Key.enter	Key.enter	n/a
525.8395	9.0095	1051679	prompt	n/a	comparative sentences overseas specialist\n
526.5665	0.06	1053133	keystroke_c	c	n/a
526.6125	0.1195	1053225	keystroke_o	o	n/a
526.7915	0.105	1053583	keystroke_m	m	n/a
526.9875	0.105	1053975	keystroke_p	p	n/a
527.2875	0.105	1054575	keystroke_a	a	n/a
527.617	0.1055	1055234	keystroke_r	r	n/a
527.7515	0.1355	1055503	keystroke_a	a	n/a
527.992	0.0895	1055984	keystroke_t	t	n/a
528.0975	0.15	1056195	keystroke_i	i	n/a
528.2625	0.0745	1056525	keystroke_v	v	n/a
528.457	0.075	1056914	keystroke_e	e	n/a
528.592	0.12	1057184	keystroke_Key.space	Key.space	n/a
528.7715	0.1205	1057543	keystroke_s	s	n/a
528.8775	0.1045	1057755	keystroke_i	i	n/a
529.552	0.0905	1059104	keystroke_Key.backspace	Key.backspace	n/a
529.6725	0.06	1059345	keystroke_e	e	n/a
529.8075	0.1045	1059615	keystroke_n	n	n/a
530.1075	0.0445	1060215	keystroke_t	t	n/a
530.227	0.0755	1060454	keystroke_e	e	n/a
530.362	0.1345	1060724	keystroke_n	n	n/a
530.4825	0.075	1060965	keystroke_c	c	n/a
530.707	0.075	1061414	keystroke_e	e	n/a
530.9325	0.0895	1061865	keystroke_s	s	n/a
531.067	0.0755	1062134	keystroke_Key.space	Key.space	n/a
531.247	0.12	1062494	keystroke_o	o	n/a
531.352	0.09	1062704	keystroke_v	v	n/a
531.532	0.105	1063064	keystroke_e	e	n/a
531.758	0.0895	1063516	keystroke_r	r	n/a
531.9965	0.09	1063993	keystroke_s	s	n/a
532.2075	0.104	1064415	keystroke_e	e	n/a
532.417	0.105	1064834	keystroke_a	a	n/a
532.657	0.075	1065314	keystroke_s	s	n/a
532.807	0.09	1065614	keystroke_Key.space	Key.space	n/a
533.032	0.09	1066064	keystroke_s	s	n/a
533.137	0.135	1066274	keystroke_p	p	n/a
533.3175	0.0745	1066635	keystroke_e	e	n/a
533.5575	0.105	1067115	keystroke_c	c	n/a
533.677	0.135	1067354	keystroke_i	i	n/a
533.857	0.09	1067714	keystroke_a	a	n/a
533.962	0.1205	1067924	keystroke_l	l	n/a
534.157	0.121	1068314	keystroke_i	i	n/a
534.293	0.0895	1068586	keystroke_s	s	n/a
534.5625	0.0895	1069125	keystroke_t	t	n/a
534.757	0.09	1069514	keystroke_Key.enter	Key.enter	n/a
534.8525	6.5515	1069705	prompt	n/a	sells perform suffered seminar\n
535.657	0.105	1071314	keystroke_s	s	n/a
535.897	0.075	1071794	keystroke_e	e	n/a
536.0925	0.075	1072185	keystroke_l	l	n/a
536.2575	0.15	1072515	keystroke_l	l	n/a
536.4515	0.091	1072903	keystroke_Key.space	Key.space	n/a
536.6775	0.105	1073355	keystroke_p	p	n/a
536.7675	0.09	1073535	keystroke_e	e	n/a
536.9775	0.09	1073955	keystroke_r	r	n/a
537.2475	0.075	1074495	keystroke_f	f	n/a
537.3525	0.15	1074705	keystroke_o	o	n/a
537.6075	0.105	1075215	keystroke_r	r	n/a
537.7875	0.12	1075575	keystroke_m	m	n/a
537.9675	0.09	1075935	keystroke_Key.space	Key.space	n/a
538.1625	0.09	1076325	keystroke_s	s	n/a
538.3425	0.075	1076685	keystroke_u	u	n/a
538.4925	0.059	1076985	keystroke_f	f	n/a
538.6425	0.105	1077285	keystroke_f	f	n/a
538.8525	0.09	1077705	keystroke_e	e	n/a
539.0475	0.105	1078095	keystroke_r	r	n/a
539.2125	0.09	1078425	keystroke_e	e	n/a
539.438	0.09	1078876	keystroke_d	d	n/a
539.617	0.0905	1079234	keystroke_Key.space	Key.space	n/a
539.827	0.12	1079654	keystroke_s	s	n/a
540.082	0.0905	1080164	keystroke_e	e	n/a
540.2325	0.09	1080465	keystroke_m	m	n/a
540.4425	0.09	1080885	keystroke_i	i	n/a
540.6225	0.105	1081245	keystroke_n	n	n/a
540.7725	0.105	1081545	keystroke_a	a	n/a
541.0725	0.09	1082145	keystroke_r	r	n/a
541.3125	0.09	1082625	keystroke_Key.enter	Key.enter	n/a
541.409	7.855	1082818	prompt	n/a	opera powder predictions founded\n
542.2275	0.165	1084455	keystroke_o	o	n/a
542.3475	0.15	1084695	keystroke_p	p	n/a
542.6625	0.075	1085325	keystroke_e	e	n/a
542.8715	0.105	1085743	keystroke_r	r	n/a
543.0665	0.1355	1086133	keystroke_a	a	n/a
543.1865	0.09	1086373	keystroke_Key.space	Key.space	n/a
543.4115	0.151	1086823	keystroke_p	p	n/a
543.4875	0.194	1086975	keystroke_o	o	n/a
543.7415	0.12	1087483	keystroke_w	w	n/a
543.997	0.0755	1087994	keystroke_d	d	n/a
544.1915	0.091	1088383	keystroke_e	e	n/a
544.3575	0.09	1088715	keystroke_r	r	n/a
544.4765	0.09	1088953	keystroke_Key.space	Key.space	n/a
544.6725	0.12	1089345	keystroke_p	p	n/a
544.882	0.12	1089764	keystroke_r	r	n/a
545.047	0.0905	1090094	keystroke_e	e	n/a
545.302	0.075	1090604	keystroke_d	d	n/a
545.497	0.105	1090994	keystroke_i	i	n/a
546.2325	0.0595	1092465	keystroke_c	c	n/a
546.667	0.09	1093334	keystroke_t	t	n/a
546.802	0.1055	1093604	keystroke_i	i	n/a
546.847	0.1655	1093694	keystroke_o	o	n/a
547.0575	0.135	1094115	keystroke_n	n	n/a
547.2825	0.0895	1094565	keystroke_s	s	n/a
547.417	0.105	1094834	keystroke_Key.space	Key.space	n/a
547.687	0.0905	1095374	keystroke_f	f	n/a
547.7925	0.1645	1095585	keystroke_o	o	n/a
547.9425	0.1195	1095885	keystroke_u	u	n/a
548.227	0.1055	1096454	keystroke_n	n	n/a
548.5125	0.0595	1097025	keystroke_d	d	n/a
548.692	0.0745	1097384	keystroke_e	e	n/a
548.902	0.075	1097804	keystroke_d	d	n/a
549.172	0.09	1098344	keystroke_Key.enter	Key.enter	n/a
549.2685	9.9705	1098537	prompt	n/a	recognize stock mercedes chrysler\n
550.012	0.135	1100024	keystroke_r	r	n/a
550.1025	0.105	1100205	keystroke_e	e	n/a
550.3725	0.0895	1100745	keystroke_c	c	n/a
550.492	0.12	1100984	keystroke_o	o	n/a
550.7925	0.075	1101585	keystroke_g	g	n/a
550.9265	0.1055	1101853	keystroke_n	n	n/a
551.077	0.135	1102154	keystroke_i	i	n/a
551.257	0.105	1102514	keystroke_z	z	n/a
551.557	0.0905	1103114	keystroke_e	e	n/a
551.692	0.105	1103384	keystroke_Key.space	Key.space	n/a
551.8725	0.105	1103745	keystroke_s	s	n/a
552.1725	0.1045	1104345	keystroke_t	t	n/a
552.292	0.165	1104584	keystroke_o	o	n/a
552.4875	0.105	1104975	keystroke_c	c	n/a
552.6075	0.15	1105215	keystroke_k	k	n/a
552.7125	0.105	1105425	keystroke_Key.space	Key.space	n/a
552.9375	0.15	1105875	keystroke_m	m	n/a
553.1025	0.075	1106205	keystroke_e	e	n/a
553.2825	0.119	1106565	keystroke_r	r	n/a
553.8665	0.06	1107733	keystroke_c	c	n/a
554.0775	0.0595	1108155	keystroke_e	e	n/a
554.3175	0.075	1108635	keystroke_d	d	n/a
554.5265	0.076	1109053	keystroke_e	e	n/a
554.767	0.0755	1109534	keystroke_s	s	n/a
554.962	0.075	1109924	keystroke_Key.space	Key.space	n/a
555.157	0.075	1110314	keystroke_c	c	n/a
555.277	0.105	1110554	keystroke_h	h	n/a
555.487	0.09	1110974	keystroke_r	r	n/a
555.592	0.105	1111184	keystroke_u	u	n/a
555.847	0.105	1111694	keystroke_s	s	n/a
556.432	0.06	1112864	keystroke_Key.backspace	Key.backspace	n/a
556.582	0.105	1113164	keystroke_Key.backspace	Key.backspace	n/a
557.062	0.09	1114124	keystroke_y	y	n/a
557.302	0.09	1114604	keystroke_s	s	n/a
557.437	0.12	1114874	keystroke_l	l	n/a
557.527	0.075	1115054	keystroke_e	e	n/a
557.767	0.075	1115534	keystroke_d	d	n/a
558.2765	0.075	1116553	keystroke_Key.backspace	Key.backspace	n/a
558.6365	0.076	1117273	keystroke_r	r	n/a
559.147	0.0905	1118294	keystroke_Key.enter	Key.enter	n/a
559.244	6.925	1118488	prompt	n/a	enough spine agree needn't\n
560.047	0.075	1120094	keystroke_e	e	n/a
560.137	0.1205	1120274	keystroke_n	n	n/a
560.242	0.12	1120484	keystroke_o	o	n/a
560.437	0.1055	1120874	keystroke_u	u	n/a
560.722	0.09	1121444	keystroke_g	g	n/a
560.797	0.105	1121594	keystroke_h	h	n/a
560.962	0.105	1121924	keystroke_Key.space	Key.space	n/a
561.2325	0.09	1122465	keystroke_s	s	n/a
561.352	0.15	1122704	keystroke_p	p	n/a
561.562	0.12	1123124	keystroke_i	i	n/a
561.7575	0.1345	1123515	keystroke_n	n	n/a
561.922	0.0895	1123844	keystroke_e	e	n/a
562.042	0.09	1124084	keystroke_Key.space	Key.space	n/a
562.252	0.1195	1124504	keystroke_a	a	n/a
562.822	0.0895	1125644	keystroke_g	g	n/a
563.002	0.09	1126004	keystroke_r	r	n/a
563.182	0.0745	1126364	keystroke_e	e	n/a
563.3925	0.09	1126785	keystroke_e	e	n/a
563.572	0.075	1127144	keystroke_Key.space	Key.space	n/a
563.767	0.1045	1127534	keystroke_n	n	n/a
563.9175	0.059	1127835	keystroke_e	e	n/a
564.1415	0.06	1128283	keystroke_d	d	n/a
564.322	0.075	1128644	keystroke_d	d	n/a
564.502	0.105	1129004	keystroke_n	n	n/a
564.8625	0.104	1129725	keystroke_'	'	n/a
565.852	0.0605	1131704	keystroke_t	t	n/a
566.077	0.09	1132154	keystroke_Key.enter	Key.enter	n/a
566.1725	10.511	1132345	prompt	n/a	proceeds disney termination conservative\n
566.9475	0.104	1133895	keystroke_p	p	n/a
567.2025	0.1495	1134405	keystroke_r	r	n/a
567.7425	0.1045	1135485	keystroke_o	o	n/a
567.892	0.0755	1135784	keystroke_c	c	n/a
568.1915	0.045	1136383	keystroke_e	e	n/a
568.3275	0.0745	1136655	keystroke_e	e	n/a
568.5965	0.076	1137193	keystroke_d	d	n/a
568.852	0.0905	1137704	keystroke_s	s	n/a
569.032	0.1045	1138064	keystroke_Key.space	Key.space	n/a
569.287	0.0745	1138574	keystroke_d	d	n/a
569.3765	0.1355	1138753	keystroke_i	i	n/a
569.557	0.0905	1139114	keystroke_s	s	n/a
569.6775	0.12	1139355	keystroke_n	n	n/a
570.2025	0.074	1140405	keystroke_e	e	n/a
570.3225	0.09	1140645	keystroke_y	y	n/a
570.5475	0.0745	1141095	keystroke_Key.space	Key.space	n/a
570.907	0.075	1141814	keystroke_t	t	n/a
571.072	0.09	1142144	keystroke_e	e	n/a
571.327	0.075	1142654	keystroke_r	r	n/a
571.387	0.105	1142774	keystroke_m	m	n/a
571.6125	0.0895	1143225	keystroke_i	i	n/a
571.837	0.105	1143674	keystroke_n	n	n/a
572.017	0.105	1144034	keystroke_t	t	n/a
572.5425	0.09	1145085	keystroke_Key.backspace	Key.backspace	n/a
572.647	0.0905	1145294	keystroke_a	a	n/a
572.9325	0.075	1145865	keystroke_t	t	n/a
573.0375	0.15	1146075	keystroke_i	i	n/a
573.1125	0.18	1146225	keystroke_o	o	n/a
573.3525	0.105	1146705	keystroke_n	n	n/a
573.937	0.0755	1147874	keystroke_Key.space	Key.space	n/a
574.192	0.0595	1148384	keystroke_c	c	n/a
574.282	0.1195	1148564	keystroke_o	o	n/a
574.4625	0.1195	1148925	keystroke_n	n	n/a
574.7625	0.09	1149525	keystroke_s	s	n/a
575.0165	0.075	1150033	keystroke_e	e	n/a
575.2425	0.044	1150485	keystroke_r	r	n/a
575.467	0.1045	1150934	keystroke_v	v	n/a
575.527	0.1355	1151054	keystroke_a	a	n/a
575.8715	0.075	1151743	keystroke_t	t	n/a
575.9915	0.136	1151983	keystroke_i	i	n/a
576.157	0.1205	1152314	keystroke_v	v	n/a
576.4125	0.074	1152825	keystroke_e	e	n/a
576.5915	0.09	1153183	keystroke_Key.enter	Key.enter	n/a
576.692	7.7015	1153384	prompt	n/a	offerings dual atlantic trader\n
577.5525	0.0895	1155105	keystroke_o	o	n/a
577.762	0.06	1155524	keystroke_f	f	n/a
577.897	0.09	1155794	keystroke_f	f	n/a
578.092	0.09	1156184	keystroke_e	e	n/a
578.3025	0.09	1156605	keystroke_r	r	n/a
578.4515	0.105	1156903	keystroke_i	i	n/a
578.6325	0.135	1157265	keystroke_n	n	n/a
578.782	0.075	1157564	keystroke_g	g	n/a
579.0215	0.09	1158043	keystroke_s	s	n/a
579.1575	0.1195	1158315	keystroke_Key.space	Key.space	n/a
579.472	0.075	1158944	keystroke_d	d	n/a
579.6525	0.12	1159305	keystroke_u	u	n/a
579.8165	0.12	1159633	keystroke_a	a	n/a
579.9665	0.1355	1159933	keystroke_l	l	n/a
580.1315	0.0755	1160263	keystroke_Key.space	Key.space	n/a
580.417	0.105	1160834	keystroke_a	a	n/a
580.7165	0.076	1161433	keystroke_t	t	n/a
580.8515	0.136	1161703	keystroke_l	l	n/a
581.062	0.1045	1162124	keystroke_i	i	n/a
581.572	0.09	1163144	keystroke_Key.backspace	Key.backspace	n/a
581.917	0.075	1163834	keystroke_a	a	n/a
582.097	0.09	1164194	keystroke_n	n	n/a
582.4725	0.075	1164945	keystroke_t	t	n/a
582.5775	0.12	1165155	keystroke_i	i	n/a
582.7725	0.075	1165545	keystroke_c	c	n/a
582.8925	0.1045	1165785	keystroke_Key.space	Key.space	n/a
583.1175	0.075	1166235	keystroke_t	t	n/a
583.2975	0.105	1166595	keystroke_r	r	n/a
583.4925	0.105	1166985	keystroke_a	a	n/a
583.7015	0.0755	1167403	keystroke_d	d	n/a
583.912	0.0595	1167824	keystroke_e	e	n/a
584.107	0.09	1168214	keystroke_r	r	n/a
584.317	0.0745	1168634	keystroke_Key.enter	Key.enter	n/a
584.399	7.0145	1168798	prompt	n/a	potatoes study stages lang\n
585.0675	0.134	1170135	keystroke_p	p	n/a
585.2475	0.1335	1170495	keystroke_o	o	n/a
585.5625	0.075	1171125	keystroke_t	t	n/a
585.727	0.12	1171454	keystroke_a	a	n/a
586.0425	0.0895	1172085	keystroke_t	t	n/a
586.192	0.15	1172384	keystroke_o	o	n/a
586.462	0.0745	1172924	keystroke_e	e	n/a
586.6865	0.105	1173373	keystroke_s	s	n/a
586.8515	0.105	1173703	keystroke_Key.space	Key.space	n/a
587.0325	0.089	1174065	keystroke_s	s	n/a
587.2865	0.075	1174573	keystroke_t	t	n/a
587.6165	0.09	1175233	keystroke_u	u	n/a
587.7965	0.0445	1175593	keystroke_d	d	n/a
587.9165	0.106	1175833	keystroke_y	y	n/a
588.1115	0.09	1176223	keystroke_Key.space	Key.space	n/a
588.3075	0.09	1176615	keystroke_s	s	n/a
588.802	0.045	1177604	keystroke_t	t	n/a
588.9825	0.1045	1177965	keystroke_a	a	n/a
589.282	0.075	1178564	keystroke_g	g	n/a
589.522	0.06	1179044	keystroke_e	e	n/a
589.792	0.09	1179584	keystroke_s	s	n/a
590.017	0.09	1180034	keystroke_Key.space	Key.space	n/a
590.242	0.12	1180484	keystroke_l	l	n/a
590.377	0.1055	1180754	keystroke_a	a	n/a
590.512	0.1195	1181024	keystroke_n	n	n/a
591.1715	0.0755	1182343	keystroke_g	g	n/a
591.3215	0.0905	1182643	keystroke_Key.enter	Key.enter	n/a
591.418	8.3955	1182836	prompt	n/a	forming undertaken judicial sean\n
592.2665	0.0755	1184533	keystroke_f	f	n/a
592.372	0.15	1184744	keystroke_o	o	n/a
592.6875	0.1045	1185375	keystroke_r	r	n/a
592.897	0.09	1185794	keystroke_m	m	n/a
593.092	0.1045	1186184	keystroke_i	i	n/a
593.272	0.1045	1186544	keystroke_n	n	n/a
593.497	0.09	1186994	keystroke_g	g	n/a
