onset	duration	sample	value	key	prompt_text
2.867	11.9655	5734	prompt	n/a	the quick brown fox jumps over a lazy dog\n
4.9745	0.028	9949	keystroke_t	t	n/a
5.0475	0.12	10095	keystroke_h	h	n/a
5.1375	0.15	10275	keystroke_e	e	n/a
5.5885	0.18	11177	keystroke_Key.space	Key.space	n/a
5.7835	0.15	11567	keystroke_q	q	n/a
5.889	0.166	11778	keystroke_u	u	n/a
6.2805	0.165	12561	keystroke_i	i	n/a
6.4155	0.1495	12831	keystroke_c	c	n/a
6.535	0.18	13070	keystroke_k	k	n/a
6.865	0.12	13730	keystroke_Key.space	Key.space	n/a
7.1055	0.09	14211	keystroke_b	b	n/a
7.8095	0.09	15619	keystroke_r	r	n/a
7.9295	0.15	15859	keystroke_o	o	n/a
8.0945	0.165	16189	keystroke_w	w	n/a
8.1995	0.135	16399	keystroke_n	n	n/a
8.59	0.135	17180	keystroke_Key.space	Key.space	n/a
8.98	0.12	17960	keystroke_f	f	n/a
9.115	0.135	18230	keystroke_o	o	n/a
9.265	0.15	18530	keystroke_x	x	n/a
9.52	0.1205	19040	keystroke_Key.space	Key.space	n/a
9.7005	0.104	19401	keystroke_j	j	n/a
9.8945	0.105	19789	keystroke_u	u	n/a
10.12	0.09	20240	keystroke_m	m	n/a
10.33	0.135	20660	keystroke_p	p	n/a
10.45	0.18	20900	keystroke_s	s	n/a
10.84	0.1355	21680	keystroke_Key.space	Key.space	n/a
11.035	0.15	22070	keystroke_o	o	n/a
11.14	0.0755	22280	keystroke_v	v	n/a
11.275	0.135	22550	keystroke_e	e	n/a
11.365	0.1195	22730	keystroke_r	r	n/a
11.4695	0.1355	22939	keystroke_Key.space	Key.space	n/a
11.65	0.135	23300	keystroke_a	a	n/a
11.755	0.1355	23510	keystroke_Key.space	Key.space	n/a
12.4005	0.105	24801	keystroke_l	l	n/a
12.4755	0.105	24951	keystroke_a	a	n/a
13.075	0.12	26150	keystroke_z	z	n/a
13.255	0.15	26510	keystroke_y	y	n/a
13.615	0.15	27230	keystroke_Key.space	Key.space	n/a
13.975	0.15	27950	keystroke_d	d	n/a
14.11	0.165	28220	keystroke_o	o	n/a
14.26	0.105	28520	keystroke_g	g	n/a
14.695	0.135	29390	keystroke_Key.enter	Key.enter	n/a
14.8365	9.82	29673	prompt	n/a	lose secrets gerald online\n
15.67	0.105	31340	keystroke_l	l	n/a
15.8645	0.1505	31729	keystroke_o	o	n/a
15.94	0.18	31880	keystroke_s	s	n/a
16	0.1645	32000	keystroke_e	e	n/a
16.255	0.1495	32510	keystroke_Key.space	Key.space	n/a
17.215	0.18	34430	keystroke_s	s	n/a
17.785	0.1345	35570	keystroke_e	e	n/a
18.0395	0.12	36079	keystroke_c	c	n/a
18.2945	0.165	36589	keystroke_r	r	n/a
18.3845	0.195	36769	keystroke_e	e	n/a
19.2705	0.0895	38541	keystroke_t	t	n/a
19.765	0.15	39530	keystroke_s	s	n/a
20.095	0.18	40190	keystroke_Key.space	Key.space	n/a
20.56	0.075	41120	keystroke_g	g	n/a
20.815	0.15	41630	keystroke_e	e	n/a
21.3705	0.12	42741	keystroke_r	r	n/a
21.5805	0.15	43161	keystroke_a	a	n/a
21.79	0.195	43580	keystroke_l	l	n/a
22.255	0.1505	44510	keystroke_d	d	n/a
22.7655	0.15	45531	keystroke_Key.space	Key.space	n/a
23.0355	0.165	46071	keystroke_o	o	n/a
23.1705	0.15	46341	keystroke_n	n	n/a
23.3805	0.15	46761	keystroke_l	l	n/a
23.6055	0.1795	47211	keystroke_i	i	n/a
23.6805	0.1345	47361	keystroke_n	n	n/a
23.845	0.15	47690	keystroke_e	e	n/a
24.5205	0.135	49041	keystroke_Key.enter	Key.enter	n/a
24.66	8.7865	49320	prompt	n/a	charlotte postcard infection cleaners\n
25.6	0.135	51200	keystroke_c	c	n/a
25.705	0.15	51410	keystroke_h	h	n/a
25.84	0.165	51680	keystroke_a	a	n/a
25.915	0.18	51830	keystroke_r	r	n/a
26.425	0.1355	52850	keystroke_l	l	n/a
26.6645	0.15	53329	keystroke_o	o	n/a
26.7995	0.075	53599	keystroke_t	t	n/a
26.9945	0.09	53989	keystroke_t	t	n/a
27.175	0.105	54350	keystroke_e	e	n/a
27.895	0.165	55790	keystroke_Key.space	Key.space	n/a
28.225	0.12	56450	keystroke_p	p	n/a
28.45	0.15	56900	keystroke_o	o	n/a
28.54	0.18	57080	keystroke_s	s	n/a
28.735	0.135	57470	keystroke_t	t	n/a
29.2	0.135	58400	keystroke_c	c	n/a
29.395	0.195	58790	keystroke_a	a	n/a
29.485	0.135	58970	keystroke_r	r	n/a
29.725	0.15	59450	keystroke_d	d	n/a
29.995	0.135	59990	keystroke_Key.space	Key.space	n/a
30.205	0.1805	60410	keystroke_i	i	n/a
30.28	0.1505	60560	keystroke_n	n	n/a
30.4155	0.135	60831	keystroke_f	f	n/a
30.6105	0.194	61221	keystroke_e	e	n/a
30.8345	0.135	61669	keystroke_c	c	n/a
31.1045	0.105	62209	keystroke_t	t	n/a
31.1495	0.18	62299	keystroke_i	i	n/a
31.2545	0.195	62509	keystroke_o	o	n/a
31.3445	0.181	62689	keystroke_n	n	n/a
31.4945	0.15	62989	keystroke_Key.space	Key.space	n/a
31.7495	0.105	63499	keystroke_c	c	n/a
31.8695	0.1505	63739	keystroke_l	l	n/a
31.975	0.12	63950	keystroke_e	e	n/a
32.185	0.165	64370	keystroke_a	a	n/a
32.44	0.12	64880	keystroke_n	n	n/a
32.56	0.15	65120	keystroke_e	e	n/a
32.635	0.135	65270	keystroke_r	r	n/a
32.89	0.15	65780	keystroke_s	s	n/a
33.265	0.18	66530	keystroke_Key.enter	Key.enter	n/a
33.45	11.9065	66900	prompt	n/a	spatial capital msgid henderson\n
34.1795	0.136	68359	keystroke_s	s	n/a
34.3305	0.105	68661	keystroke_p	p	n/a
34.4205	0.135	68841	keystroke_a	a	n/a
34.66	0.1045	69320	keystroke_t	t	n/a
34.7795	0.15	69559	keystroke_i	i	n/a
34.9145	0.105	69829	keystroke_o	o	n/a
35.3945	0.09	70789	keystroke_Key.backspace	Key.backspace	n/a
35.5745	0.15	71149	keystroke_a	a	n/a
35.905	0.1645	71810	keystroke_l	l	n/a
36.295	0.1055	72590	keystroke_Key.space	Key.space	n/a
37.03	0.135	74060	keystroke_c	c	n/a
37.21	0.135	74420	keystroke_a	a	n/a
37.3905	0.135	74781	keystroke_p	p	n/a
37.7055	0.135	75411	keystroke_i	i	n/a
38.035	0.015	76070	keystroke_t	t	n/a
38.155	0.135	76310	keystroke_a	a	n/a
38.291	0.224	76582	keystroke_l	l	n/a
38.53	0.165	77060	keystroke_Key.space	Key.space	n/a
39.1005	0.15	78201	keystroke_m	m	n/a
39.3105	0.165	78621	keystroke_s	s	n/a
39.7005	0.135	79401	keystroke_g	g	n/a
39.865	0.135	79730	keystroke_i	i	n/a
41.0945	0.165	82189	keystroke_d	d	n/a
41.995	0.15	83990	keystroke_Key.space	Key.space	n/a
42.355	0.105	84710	keystroke_h	h	n/a
42.445	0.12	84890	keystroke_e	e	n/a
42.58	0.105	85160	keystroke_n	n	n/a
42.715	0.105	85430	keystroke_d	d	n/a
42.895	0.18	85790	keystroke_e	e	n/a
43	0.15	86000	keystroke_r	r	n/a
43.525	0.225	87050	keystroke_s	s	n/a
43.63	0.075	87260	keystroke_e	e	n/a
44.1705	0.1195	88341	keystroke_Key.backspace	Key.backspace	n/a
44.5	0.165	89000	keystroke_o	o	n/a
44.605	0.165	89210	keystroke_n	n	n/a
45.205	0.15	90410	keystroke_Key.enter	Key.enter	n/a
45.36	13.5265	90720	prompt	n/a	injuries surfing keeping widespread\n
47.3355	0.195	94671	keystroke_i	i	n/a
47.4705	0.135	94941	keystroke_n	n	n/a
47.74	0.105	95480	keystroke_j	j	n/a
47.9505	0.15	95901	keystroke_u	u	n/a
48.1455	0.1345	96291	keystroke_r	r	n/a
48.2505	0.1495	96501	keystroke_i	i	n/a
48.325	0.18	96650	keystroke_n	n	n/a
48.52	0.12	97040	keystroke_g	g	n/a
49.195	0.12	98390	keystroke_Key.backspace	Key.backspace	n/a
49.405	0.165	98810	keystroke_Key.backspace	Key.backspace	n/a
49.8405	0.105	99681	keystroke_e	e	n/a
50.0355	0.165	100071	keystroke_s	s	n/a
50.8	0.165	101600	keystroke_Key.space	Key.space	n/a
51.205	0.135	102410	keystroke_u	u	n/a
51.28	0.21	102560	keystroke_s	s	n/a
51.4	0.15	102800	keystroke_r	r	n/a
51.955	0.09	103910	keystroke_Key.backspace	Key.backspace	n/a
52.15	0.09	104300	keystroke_Key.backspace	Key.backspace	n/a
52.33	0.1195	104660	keystroke_Key.backspace	Key.backspace	n/a
52.5405	0.165	105081	keystroke_s	s	n/a
52.6905	0.12	105381	keystroke_u	u	n/a
52.8255	0.06	105651	keystroke_f	f	n/a
53.2005	0.105	106401	keystroke_Key.backspace	Key.backspace	n/a
53.5905	0.12	107181	keystroke_r	r	n/a
53.86	0.135	107720	keystroke_f	f	n/a
54.04	0.1195	108080	keystroke_i	i	n/a
54.2355	0.135	108471	keystroke_n	n	n/a
54.3845	0.105	108769	keystroke_g	g	n/a
54.5495	0.135	109099	keystroke_Key.space	Key.space	n/a
54.7755	0.134	109551	keystroke_k	k	n/a
54.8645	0.121	109729	keystroke_e	e	n/a
55.0755	0.149	110151	keystroke_e	e	n/a
55.1805	0.164	110361	keystroke_p	p	n/a
55.4045	0.18	110809	keystroke_i	i	n/a
55.4945	0.135	110989	keystroke_n	n	n/a
55.6145	0.121	111229	keystroke_g	g	n/a
55.7195	0.135	111439	keystroke_Key.space	Key.space	n/a
56.0345	0.135	112069	keystroke_w	w	n/a
56.1845	0.12	112369	keystroke_i	i	n/a
56.2595	0.106	112519	keystroke_d	d	n/a
56.455	0.135	112910	keystroke_e	e	n/a
56.935	0.15	113870	keystroke_s	s	n/a
57.19	0.15	114380	keystroke_p	p	n/a
57.535	0.15	115070	keystroke_r	r	n/a
57.595	0.135	115190	keystroke_e	e	n/a
57.805	0.1795	115610	keystroke_a	a	n/a
57.9545	0.18	115909	keystroke_d	d	n/a
58.75	0.135	117500	keystroke_Key.enter	Key.enter	n/a
58.8905	12.0415	117781	prompt	n/a	vermont sociology mediterranean hourly\n
59.695	0.105	119390	keystroke_v	v	n/a
59.8755	0.12	119751	keystroke_e	e	n/a
59.9505	0.135	119901	keystroke_r	r	n/a
60.2055	0.09	120411	keystroke_m	m	n/a
60.4155	0.165	120831	keystroke_o	o	n/a
60.4905	0.1645	120981	keystroke_n	n	n/a
60.715	0.12	121430	keystroke_t	t	n/a
61	0.165	122000	keystroke_Key.space	Key.space	n/a
61.285	0.12	122570	keystroke_s	s	n/a
61.375	0.135	122750	keystroke_o	o	n/a
61.525	0.135	123050	keystroke_c	c	n/a
61.645	0.15	123290	keystroke_i	i	n/a
62.1705	0.165	124341	keystroke_o	o	n/a
62.6355	0.1045	125271	keystroke_l	l	n/a
62.89	0.15	125780	keystroke_o	o	n/a
63.01	0.135	126020	keystroke_g	g	n/a
63.19	0.1495	126380	keystroke_y	y	n/a
63.4005	0.12	126801	keystroke_Key.space	Key.space	n/a
64.66	0.135	129320	keystroke_m	m	n/a
64.78	0.135	129560	keystroke_e	e	n/a
65.02	0.15	130040	keystroke_d	d	n/a
65.155	0.12	130310	keystroke_i	i	n/a
65.65	0.0905	131300	keystroke_t	t	n/a
65.845	0.165	131690	keystroke_e	e	n/a
66.16	0.105	132320	keystroke_r	r	n/a
66.7895	0.1055	133579	keystroke_r	r	n/a
67.09	0.165	134180	keystroke_a	a	n/a
67.42	0.15	134840	keystroke_n	n	n/a
68.095	0.135	136190	keystroke_e	e	n/a
68.32	0.165	136640	keystroke_a	a	n/a
68.455	0.15	136910	keystroke_n	n	n/a
68.8005	0.165	137601	keystroke_Key.space	Key.space	n/a
69.1155	0.105	138231	keystroke_h	h	n/a
69.4905	0.1795	138981	keystroke_o	o	n/a
69.5505	0.1945	139101	keystroke_u	u	n/a
69.685	0.12	139370	keystroke_r	r	n/a
69.85	0.135	139700	keystroke_l	l	n/a
70.18	0.15	140360	keystroke_y	y	n/a
70.825	0.105	141650	keystroke_Key.enter	Key.enter	n/a
70.9365	12.415	141873	prompt	n/a	acquisition babies informal trigger\n
72.205	0.18	144410	keystroke_s	s	n/a
72.715	0.09	145430	keystroke_Key.backspace	Key.backspace	n/a
72.79	0.12	145580	keystroke_a	a	n/a
73.09	0.165	146180	keystroke_q	q	n/a
74.125	0.135	148250	keystroke_q	q	n/a
74.215	0.135	148430	keystroke_u	u	n/a
74.515	0.0905	149030	keystroke_Key.backspace	Key.backspace	n/a
74.6955	0.1045	149391	keystroke_Key.backspace	Key.backspace	n/a
74.875	0.15	149750	keystroke_Key.backspace	Key.backspace	n/a
74.95	0.15	149900	keystroke_c	c	n/a
75.325	0.165	150650	keystroke_q	q	n/a
75.535	0.18	151070	keystroke_u	u	n/a
76.12	0.15	152240	keystroke_i	i	n/a
76.57	0.15	153140	keystroke_s	s	n/a
76.69	0.135	153380	keystroke_i	i	n/a
76.855	0.135	153710	keystroke_t	t	n/a
76.93	0.15	153860	keystroke_i	i	n/a
77.005	0.24	154010	keystroke_o	o	n/a
77.125	0.18	154250	keystroke_n	n	n/a
77.575	0.135	155150	keystroke_Key.space	Key.space	n/a
77.83	0.12	155660	keystroke_b	b	n/a
77.935	0.135	155870	keystroke_a	a	n/a
78.085	0.105	156170	keystroke_b	b	n/a
78.625	0.18	157250	keystroke_i	i	n/a
78.76	0.12	157520	keystroke_e	e	n/a
78.9855	0.135	157971	keystroke_s	s	n/a
79.3305	0.165	158661	keystroke_Key.space	Key.space	n/a
79.75	0.1805	159500	keystroke_i	i	n/a
79.9155	0.135	159831	keystroke_n	n	n/a
80.0655	0.105	160131	keystroke_f	f	n/a
80.1555	0.1345	160311	keystroke_o	o	n/a
80.26	0.12	160520	keystroke_r	r	n/a
80.41	0.15	160820	keystroke_m	m	n/a
80.575	0.15	161150	keystroke_a	a	n/a
80.68	0.21	161360	keystroke_l	l	n/a
80.86	0.1945	161720	keystroke_Key.space	Key.space	n/a
81.3555	0.075	162711	keystroke_t	t	n/a
81.5495	0.076	163099	keystroke_r	r	n/a
81.6395	0.15	163279	keystroke_i	i	n/a
81.7605	0.105	163521	keystroke_g	g	n/a
82.345	0.1045	164690	keystroke_g	g	n/a
82.5555	0.119	165111	keystroke_e	e	n/a
82.6155	0.149	165231	keystroke_r	r	n/a
83.1995	0.15	166399	keystroke_Key.enter	Key.enter	n/a
83.3565	11.035	166713	prompt	n/a	roads ships councils centres\n
84.0995	0.18	168199	keystroke_r	r	n/a
84.1745	0.135	168349	keystroke_e	e	n/a
84.9245	0.135	169849	keystroke_a	a	n/a
85.2395	0.09	170479	keystroke_Key.backspace	Key.backspace	n/a
85.4195	0.09	170839	keystroke_Key.backspace	Key.backspace	n/a
85.6745	0.135	171349	keystroke_o	o	n/a
85.7795	0.1955	171559	keystroke_a	a	n/a
85.96	0.15	171920	keystroke_d	d	n/a
86.185	0.15	172370	keystroke_s	s	n/a
86.6055	0.15	173211	keystroke_Key.space	Key.space	n/a
86.8155	0.15	173631	keystroke_s	s	n/a
86.9205	0.165	173841	keystroke_h	h	n/a
86.9955	0.195	173991	keystroke_i	i	n/a
87.1605	0.195	174321	keystroke_p	p	n/a
88.4955	0.165	176991	keystroke_s	s	n/a
88.885	0.165	177770	keystroke_Key.space	Key.space	n/a
89.095	0.1505	178190	keystroke_c	c	n/a
89.1855	0.195	178371	keystroke_o	o	n/a
89.2755	0.12	178551	keystroke_u	u	n/a
89.5305	0.15	179061	keystroke_n	n	n/a
89.8605	0.134	179721	keystroke_c	c	n/a
90.0095	0.106	180019	keystroke_i	i	n/a
90.3255	0.15	180651	keystroke_l	l	n/a
90.88	0.165	181760	keystroke_s	s	n/a
91.3305	0.1645	182661	keystroke_Key.space	Key.space	n/a
91.51	0.135	183020	keystroke_c	c	n/a
92.08	0.1205	184160	keystroke_e	e	n/a
92.2755	0.135	184551	keystroke_n	n	n/a
92.4405	0.105	184881	keystroke_t	t	n/a
93.175	0.18	186350	keystroke_r	r	n/a
93.25	0.135	186500	keystroke_e	e	n/a
93.52	0.165	187040	keystroke_s	s	n/a
94.255	0.135	188510	keystroke_Key.enter	Key.enter	n/a
94.395	7.4365	188790	prompt	n/a	me smallest who'd bottom\n
95.2005	0.1345	190401	keystroke_m	m	n/a
95.29	0.12	190580	keystroke_e	e	n/a
95.47	0.165	190940	keystroke_Key.space	Key.space	n/a
96.085	0.135	192170	keystroke_s	s	n/a
96.25	0.135	192500	keystroke_m	m	n/a
96.61	0.1655	193220	keystroke_a	a	n/a
96.7905	0.09	193581	keystroke_l	l	n/a
96.9695	0.1355	193939	keystroke_l	l	n/a
97.315	0.12	194630	keystroke_e	e	n/a
97.555	0.27	195110	keystroke_s	s	n/a
97.735	0.135	195470	keystroke_t	t	n/a
98.0495	0.1805	196099	keystroke_Key.space	Key.space	n/a
98.3045	0.135	196609	keystroke_w	w	n/a
98.4095	0.15	196819	keystroke_h	h	n/a
98.4845	0.15	196969	keystroke_o	o	n/a
98.7555	0.1345	197511	keystroke_'	'	n/a
98.875	0.135	197750	keystroke_d	d	n/a
99.16	0.135	198320	keystroke_Key.space	Key.space	n/a
99.445	0.09	198890	keystroke_b	b	n/a
99.61	0.135	199220	keystroke_o	o	n/a
99.985	0.0895	199970	keystroke_t	t	n/a
100.1795	0.105	200359	keystroke_t	t	n/a
100.2995	0.15	200599	keystroke_o	o	n/a
100.5695	0.136	201139	keystroke_m	m	n/a
101.695	0.135	203390	keystroke_Key.enter	Key.enter	n/a
101.8345	10.662	203669	prompt	n/a	martin reception sustained adjusted\n
102.8055	0.135	205611	keystroke_m	m	n/a
102.9255	0.195	205851	keystroke_a	a	n/a
103.0605	0.1345	206121	keystroke_r	r	n/a
103.3005	0.105	206601	keystroke_t	t	n/a
103.3755	0.15	206751	keystroke_i	i	n/a
103.5405	0.18	207081	keystroke_n	n	n/a
103.7655	0.1795	207531	keystroke_Key.space	Key.space	n/a
104.6805	0.135	209361	keystroke_r	r	n/a
104.8305	0.12	209661	keystroke_e	e	n/a
105.0855	0.12	210171	keystroke_c	c	n/a
105.2655	0.135	210531	keystroke_e	e	n/a
105.9405	0.15	211881	keystroke_p	p	n/a
106.1055	0.12	212211	keystroke_t	t	n/a
106.1955	0.15	212391	keystroke_i	i	n/a
106.3005	0.1945	212601	keystroke_o	o	n/a
106.4055	0.1945	212811	keystroke_n	n	n/a
107.3495	0.195	214699	keystroke_Key.space	Key.space	n/a
107.6055	0.119	215211	keystroke_s	s	n/a
107.7395	0.121	215479	keystroke_u	u	n/a
107.8295	0.1205	215659	keystroke_s	s	n/a
108.1005	0.1045	216201	keystroke_t	t	n/a
108.31	0.12	216620	keystroke_a	a	n/a
108.385	0.18	216770	keystroke_i	i	n/a
108.475	0.18	216950	keystroke_n	n	n/a
109.1505	0.1195	218301	keystroke_e	e	n/a
109.375	0.135	218750	keystroke_d	d	n/a
109.675	0.18	219350	keystroke_Key.space	Key.space	n/a
110.095	0.1505	220190	keystroke_a	a	n/a
110.2605	0.165	220521	keystroke_d	d	n/a
110.5605	0.105	221121	keystroke_j	j	n/a
110.7855	0.135	221571	keystroke_u	u	n/a
110.9205	0.1945	221841	keystroke_s	s	n/a
111.01	0.15	222020	keystroke_t	t	n/a
111.25	0.105	222500	keystroke_e	e	n/a
111.46	0.12	222920	keystroke_d	d	n/a
112.3455	0.15	224691	keystroke_Key.enter	Key.enter	n/a
112.499	10.1975	224998	prompt	n/a	unemployment reservations chaos lisa\n
113.425	0.135	226850	keystroke_u	u	n/a
113.7105	0.135	227421	keystroke_n	n	n/a
113.9955	0.15	227991	keystroke_e	e	n/a
114.1755	0.119	228351	keystroke_m	m	n/a
114.4	0.09	228800	keystroke_p	p	n/a
114.8955	0.105	229791	keystroke_l	l	n/a
115.135	0.1055	230270	keystroke_o	o	n/a
115.345	0.135	230690	keystroke_y	y	n/a
116.035	0.12	232070	keystroke_m	m	n/a
116.185	0.15	232370	keystroke_e	e	n/a
116.26	0.12	232520	keystroke_n	n	n/a
116.425	0.135	232850	keystroke_t	t	n/a
116.83	0.15	233660	keystroke_Key.space	Key.space	n/a
116.995	0.165	233990	keystroke_r	r	n/a
117.085	0.12	234170	keystroke_e	e	n/a
117.415	0.225	234830	keystroke_s	s	n/a
117.52	0.18	235040	keystroke_e	e	n/a
117.625	0.15	235250	keystroke_r	r	n/a
118.015	0.09	236030	keystroke_v	v	n/a
118.435	0.105	236870	keystroke_a	a	n/a
118.645	0.1505	237290	keystroke_t	t	n/a
118.78	0.135	237560	keystroke_i	i	n/a
118.8255	0.2245	237651	keystroke_o	o	n/a
118.93	0.165	237860	keystroke_n	n	n/a
119.125	0.15	238250	keystroke_s	s	n/a
119.41	0.165	238820	keystroke_Key.space	Key.space	n/a
119.605	0.135	239210	keystroke_c	c	n/a
119.725	0.12	239450	keystroke_h	h	n/a
119.815	0.135	239630	keystroke_a	a	n/a
120.04	0.15	240080	keystroke_o	o	n/a
120.235	0.15	240470	keystroke_s	s	n/a
120.85	0.1655	241700	keystroke_Key.space	Key.space	n/a
121.0455	0.12	242091	keystroke_l	l	n/a
121.2105	0.195	242421	keystroke_i	i	n/a
121.8555	0.09	243711	keystroke_s	s	n/a
122.0505	0.135	244101	keystroke_a	a	n/a
122.5605	0.1345	245121	keystroke_Key.enter	Key.enter	n/a
122.6995	13.257	245399	prompt	n/a	generally essentials browser wholesale\n
123.46	0.09	246920	keystroke_g	g	n/a
123.6855	0.1345	247371	keystroke_n	n	n/a
123.805	0.1055	247610	keystroke_e	e	n/a
124.1055	0.12	248211	keystroke_r	r	n/a
124.4655	0.03	248931	keystroke_Key.backspace	Key.backspace	n/a
124.6605	0.0745	249321	keystroke_Key.backspace	Key.backspace	n/a
124.84	0.12	249680	keystroke_Key.backspace	Key.backspace	n/a
124.975	0.15	249950	keystroke_e	e	n/a
125.275	0.135	250550	keystroke_n	n	n/a
125.59	0.135	251180	keystroke_e	e	n/a
125.83	0.105	251660	keystroke_r	r	n/a
126.055	0.15	252110	keystroke_a	a	n/a
126.28	0.09	252560	keystroke_l	l	n/a
126.43	0.15	252860	keystroke_l	l	n/a
126.67	0.1655	253340	keystroke_y	y	n/a
126.7895	0.136	253579	keystroke_Key.space	Key.space	n/a
126.9705	0.1495	253941	keystroke_e	e	n/a
127.255	0.1355	254510	keystroke_n	n	n/a
127.6005	0.105	255201	keystroke_s	s	n/a
127.9755	0.075	255951	keystroke_Key.backspace	Key.backspace	n/a
128.1395	0.136	256279	keystroke_Key.backspace	Key.backspace	n/a
128.5605	0.12	257121	keystroke_s	s	n/a
128.77	0.12	257540	keystroke_s	s	n/a
128.92	0.165	257840	keystroke_e	e	n/a
129.04	0.165	258080	keystroke_n	n	n/a
129.7	0.105	259400	keystroke_t	t	n/a
129.79	0.1355	259580	keystroke_i	i	n/a
129.9705	0.1495	259941	keystroke_a	a	n/a
130.1055	0.135	260211	keystroke_l	l	n/a
130.2555	0.1045	260511	keystroke_s	s	n/a
130.63	0.15	261260	keystroke_Key.space	Key.space	n/a
130.915	0.09	261830	keystroke_b	b	n/a
131.111	0.089	262222	keystroke_r	r	n/a
131.26	0.135	262520	keystroke_o	o	n/a
131.38	0.135	262760	keystroke_w	w	n/a
132.0555	0.195	264111	keystroke_s	s	n/a
132.1455	0.21	264291	keystroke_e	e	n/a
132.3405	0.18	264681	keystroke_r	r	n/a
133.0595	0.166	266119	keystroke_Key.space	Key.space	n/a
133.2855	0.149	266571	keystroke_w	w	n/a
133.3905	0.135	266781	keystroke_h	h	n/a
133.4805	0.12	266961	keystroke_o	o	n/a
133.6755	0.15	267351	keystroke_l	l	n/a
133.8095	0.106	267619	keystroke_e	e	n/a
134.2905	0.104	268581	keystroke_s	s	n/a
134.4995	0.15	268999	keystroke_a	a	n/a
135.0705	0.135	270141	keystroke_l	l	n/a
135.1455	0.15	270291	keystroke_e	e	n/a
135.8345	0.1205	271669	keystroke_Key.enter	Key.enter	n/a
135.9595	8.742	271919	prompt	n/a	gotta category sessions need\n
136.69	0.105	273380	keystroke_g	g	n/a
136.825	0.1355	273650	keystroke_o	o	n/a
136.9455	0.075	273891	keystroke_t	t	n/a
137.1255	0.105	274251	keystroke_t	t	n/a
137.3655	0.135	274731	keystroke_a	a	n/a
137.7855	0.1795	275571	keystroke_Key.space	Key.space	n/a
138.175	0.135	276350	keystroke_c	c	n/a
138.325	0.15	276650	keystroke_a	a	n/a
138.55	0.09	277100	keystroke_t	t	n/a
138.745	0.12	277490	keystroke_e	e	n/a
139.015	0.105	278030	keystroke_g	g	n/a
139.165	0.165	278330	keystroke_o	o	n/a
139.315	0.135	278630	keystroke_r	r	n/a
139.495	0.1205	278990	keystroke_y	y	n/a
140.65	0.15	281300	keystroke_Key.space	Key.space	n/a
140.77	0.15	281540	keystroke_s	s	n/a
140.83	0.1655	281660	keystroke_e	e	n/a
141.2505	0.12	282501	keystroke_s	s	n/a
141.4455	0.15	282891	keystroke_s	s	n/a
141.6255	0.15	283251	keystroke_i	i	n/a
141.7455	0.2245	283491	keystroke_o	o	n/a
141.94	0.075	283880	keystroke_n	n	n/a
142.54	0.15	285080	keystroke_s	s	n/a
142.84	0.135	285680	keystroke_Key.space	Key.space	n/a
143.02	0.15	286040	keystroke_n	n	n/a
143.155	0.105	286310	keystroke_e	e	n/a
143.365	0.135	286730	keystroke_e	e	n/a
143.695	0.15	287390	keystroke_d	d	n/a
144.5645	0.135	289129	keystroke_Key.enter	Key.enter	n/a
144.705	11.7865	289410	prompt	n/a	invention nine cached sitemap\n
145.5245	0.151	291049	keystroke_i	i	n/a
145.5995	0.135	291199	keystroke_n	n	n/a
145.7195	0.09	291439	keystroke_v	v	n/a
145.915	0.12	291830	keystroke_e	e	n/a
146.005	0.15	292010	keystroke_r	r	n/a
147.0855	0.135	294171	keystroke_Key.backspace	Key.backspace	n/a
148.135	0.135	296270	keystroke_n	n	n/a
148.57	0.06	297140	keystroke_t	t	n/a
148.6	0.1505	297200	keystroke_i	i	n/a
148.7205	0.18	297441	keystroke_o	o	n/a
148.7955	0.18	297591	keystroke_n	n	n/a
149.5455	0.15	299091	keystroke_Key.space	Key.space	n/a
149.7855	0.1045	299571	keystroke_n	n	n/a
149.875	0.21	299750	keystroke_i	i	n/a
150.025	0.165	300050	keystroke_n	n	n/a
150.385	0.12	300770	keystroke_e	e	n/a
150.85	0.18	301700	keystroke_Key.space	Key.space	n/a
151.06	0.15	302120	keystroke_c	c	n/a
151.225	0.105	302450	keystroke_h	h	n/a
152.005	0.09	304010	keystroke_Key.backspace	Key.backspace	n/a
152.185	0.135	304370	keystroke_a	a	n/a
152.365	0.135	304730	keystroke_c	c	n/a
152.515	0.12	305030	keystroke_h	h	n/a
152.905	0.12	305810	keystroke_e	e	n/a
153.13	0.1355	306260	keystroke_d	d	n/a
153.3705	0.165	306741	keystroke_Key.space	Key.space	n/a
153.5805	0.12	307161	keystroke_s	s	n/a
153.7005	0.135	307401	keystroke_i	i	n/a
153.8055	0.06	307611	keystroke_t	t	n/a
153.8805	0.15	307761	keystroke_e	e	n/a
154.1655	0.12	308331	keystroke_m	m	n/a
154.3005	0.135	308601	keystroke_a	a	n/a
154.4205	0.12	308841	keystroke_[	[	n/a
155.065	0.135	310130	keystroke_Key.backspace	Key.backspace	n/a
155.815	0.135	311630	keystroke_p	p	n/a
156.34	0.15	312680	keystroke_Key.enter	Key.enter	n/a
156.495	11.5165	312990	prompt	n/a	passive females tradition grown\n
160.753	0.087	321506	keystroke_p	p	n/a
160.795	0.135	321590	keystroke_a	a	n/a
161.05	0.105	322100	keystroke_s	s	n/a
161.2305	0.1345	322461	keystroke_s	s	n/a
161.365	0.12	322730	keystroke_i	i	n/a
161.47	0.105	322940	keystroke_v	v	n/a
161.65	0.15	323300	keystroke_e	e	n/a
161.9355	0.165	323871	keystroke_Key.space	Key.space	n/a
162.1455	0.12	324291	keystroke_f	f	n/a
162.2505	0.165	324501	keystroke_e	e	n/a
162.5205	0.12	325041	keystroke_m	m	n/a
162.6255	0.15	325251	keystroke_a	a	n/a
162.79	0.135	325580	keystroke_l	l	n/a
163.045	0.105	326090	keystroke_e	e	n/a
163.255	0.15	326510	keystroke_s	s	n/a
163.465	0.165	326930	keystroke_Key.space	Key.space	n/a
163.81	0.0755	327620	keystroke_t	t	n/a
163.9905	0.075	327981	keystroke_r	r	n/a
164.0955	0.135	328191	keystroke_a	a	n/a
164.2755	0.1495	328551	keystroke_d	d	n/a
164.41	0.105	328820	keystroke_i	i	n/a
164.53	0.135	329060	keystroke_t	t	n/a
164.635	0.15	329270	keystroke_i	i	n/a
164.68	0.225	329360	keystroke_o	o	n/a
164.785	0.195	329570	keystroke_n	n	n/a
164.965	0.15	329930	keystroke_Key.space	Key.space	n/a
165.1	0.09	330200	keystroke_g	g	n/a
165.235	0.135	330470	keystroke_o	o	n/a
165.34	0.135	330680	keystroke_r	r	n/a
165.61	0.105	331220	keystroke_w	w	n/a
165.85	0.06	331700	keystroke_Key.backspace	Key.backspace	n/a
166.015	0.075	332030	keystroke_Key.backspace	Key.backspace	n/a
166.18	0.09	332360	keystroke_Key.backspace	Key.backspace	n/a
166.24	0.1355	332480	keystroke_r	r	n/a
166.4205	0.135	332841	keystroke_o	o	n/a
166.5845	0.15	333169	keystroke_w	w	n/a
166.7055	0.119	333411	keystroke_n	n	n/a
167.8595	0.151	335719	keystroke_Key.enter	Key.enter	n/a
168.015	8.0365	336030	prompt	n/a	hoped might've player dying\n
168.79	0.105	337580	keystroke_h	h	n/a
168.97	0.12	337940	keystroke_o	o	n/a
169.18	0.12	338360	keystroke_p	p	n/a
169.27	0.135	338540	keystroke_e	e	n/a
169.465	0.135	338930	keystroke_d	d	n/a
169.615	0.12	339230	keystroke_Key.space	Key.space	n/a
169.78	0.105	339560	keystroke_m	m	n/a
169.99	0.105	339980	keystroke_i	i	n/a
170.11	0.06	340220	keystroke_g	g	n/a
170.215	0.12	340430	keystroke_h	h	n/a
170.305	0.12	340610	keystroke_t	t	n/a
170.665	0.165	341330	keystroke_'	'	n/a
170.725	0.0905	341450	keystroke_v	v	n/a
170.875	0.15	341750	keystroke_e	e	n/a
171.565	0.135	343130	keystroke_Key.space	Key.space	n/a
171.85	0.135	343700	keystroke_p	p	n/a
173.0655	0.12	346131	keystroke_l	l	n/a
173.1705	0.135	346341	keystroke_a	a	n/a
173.3655	0.12	346731	keystroke_y	y	n/a
173.5005	0.15	347001	keystroke_e	e	n/a
173.5905	0.18	347181	keystroke_r	r	n/a
174.0255	0.15	348051	keystroke_Key.space	Key.space	n/a
174.2505	0.165	348501	keystroke_d	d	n/a
174.3855	0.135	348771	keystroke_y	y	n/a
174.8805	0.1795	349761	keystroke_i	i	n/a
174.9405	0.1645	349881	keystroke_n	n	n/a
175.09	0.1355	350180	keystroke_g	g	n/a
175.9005	0.1495	351801	keystroke_Key.enter	Key.enter	n/a
176.055	7.5565	352110	prompt	n/a	promoted linked rugby specially\n
176.9355	0.12	353871	keystroke_p	p	n/a
177.4155	0.135	354831	keystroke_r	r	n/a
177.5205	0.135	355041	keystroke_o	o	n/a
177.8055	0.0895	355611	keystroke_m	m	n/a
178	0.12	356000	keystroke_o	o	n/a
178.09	0.105	356180	keystroke_t	t	n/a
178.3	0.12	356600	keystroke_e	e	n/a
178.51	0.1505	357020	keystroke_d	d	n/a
178.9005	0.135	357801	keystroke_Key.space	Key.space	n/a
179.1105	0.105	358221	keystroke_l	l	n/a
179.2905	0.15	358581	keystroke_i	i	n/a
179.3805	0.18	358761	keystroke_n	n	n/a
179.5605	0.165	359121	keystroke_k	k	n/a
179.7105	0.12	359421	keystroke_e	e	n/a
179.8905	0.18	359781	keystroke_d	d	n/a
180.0405	0.135	360081	keystroke_Key.space	Key.space	n/a
180.2505	0.135	360501	keystroke_r	r	n/a
180.4005	0.135	360801	keystroke_u	u	n/a
180.6855	0.12	361371	keystroke_g	g	n/a
181.03	0.12	362060	keystroke_b	b	n/a
181.27	0.135	362540	keystroke_y	y	n/a
181.675	0.15	363350	keystroke_Key.space	Key.space	n/a
181.855	0.135	363710	keystroke_s	s	n/a
181.975	0.15	363950	keystroke_p	p	n/a
182.08	0.12	364160	keystroke_e	e	n/a
182.29	0.135	364580	keystroke_c	c	n/a
182.411	0.134	364822	keystroke_i	i	n/a
182.53	0.135	365060	keystroke_a	a	n/a
182.68	0.075	365360	keystroke_l	l	n/a
182.83	0.15	365660	keystroke_l	l	n/a
183.085	0.135	366170	keystroke_y	y	n/a
183.475	0.135	366950	keystroke_Key.enter	Key.enter	n/a
183.6145	9.6275	367229	prompt	n/a	centre shannon respectively percent\n
184.4355	0.135	368871	keystroke_c	c	n/a
184.87	0.135	369740	keystroke_e	e	n/a
185.065	0.135	370130	keystroke_n	n	n/a
185.185	0.06	370370	keystroke_t	t	n/a
185.44	0.15	370880	keystroke_r	r	n/a
185.53	0.15	371060	keystroke_e	e	n/a
186.0255	0.135	372051	keystroke_Key.space	Key.space	n/a
186.2055	0.12	372411	keystroke_s	s	n/a
186.3105	0.105	372621	keystroke_h	h	n/a
186.4305	0.15	372861	keystroke_a	a	n/a
186.6405	0.0595	373281	keystroke_n	n	n/a
186.805	0.1045	373610	keystroke_n	n	n/a
186.9245	0.21	373849	keystroke_o	o	n/a
187.015	0.1795	374030	keystroke_n	n	n/a
187.525	0.15	375050	keystroke_Key.space	Key.space	n/a
187.705	0.15	375410	keystroke_r	r	n/a
187.78	0.1355	375560	keystroke_e	e	n/a
188.065	0.12	376130	keystroke_s	s	n/a
188.7105	0.15	377421	keystroke_p	p	n/a
188.8005	0.105	377601	keystroke_e	e	n/a
188.9955	0.105	377991	keystroke_c	c	n/a
189.2205	0.105	378441	keystroke_t	t	n/a
189.3855	0.135	378771	keystroke_i	i	n/a
189.4605	0.09	378921	keystroke_v	v	n/a
189.6105	0.135	379221	keystroke_e	e	n/a
189.85	0.15	379700	keystroke_l	l	n/a
190.315	0.12	380630	keystroke_y	y	n/a
190.6	0.165	381200	keystroke_Key.space	Key.space	n/a
191.125	0.135	382250	keystroke_p	p	n/a
191.62	0.15	383240	keystroke_e	e	n/a
191.68	0.165	383360	keystroke_r	r	n/a
192.01	0.165	384020	keystroke_c	c	n/a
192.16	0.15	384320	keystroke_e	e	n/a
192.295	0.135	384590	keystroke_n	n	n/a
192.385	0.105	384770	keystroke_t	t	n/a
193.075	0.165	386150	keystroke_Key.enter	Key.enter	n/a
193.2485	11.6785	386497	prompt	n/a	occasion greensboro compute sofa\n
194.08	0.15	388160	keystroke_o	o	n/a
194.185	0.135	388370	keystroke_c	c	n/a
194.395	0.15	388790	keystroke_c	c	n/a
194.56	0.12	389120	keystroke_a	a	n/a
194.8305	0.15	389661	keystroke_s	s	n/a
195.685	0.15	391370	keystroke_i	i	n/a
195.775	0.21	391550	keystroke_o	o	n/a
195.88	0.165	391760	keystroke_n	n	n/a
196.09	0.15	392180	keystroke_Key.space	Key.space	n/a
196.48	0.075	392960	keystroke_g	g	n/a
196.66	0.15	393320	keystroke_r	r	n/a
196.72	0.1355	393440	keystroke_e	e	n/a
196.9305	0.15	393861	keystroke_e	e	n/a
197.0355	0.135	394071	keystroke_n	n	n/a
197.5305	0.15	395061	keystroke_s	s	n/a
198.0555	0.12	396111	keystroke_o	o	n/a
198.1905	0.135	396381	keystroke_r	r	n/a
198.3105	0.135	396621	keystroke_o	o	n/a
198.6555	0.075	397311	keystroke_Key.backspace	Key.backspace	n/a
198.8355	0.09	397671	keystroke_Key.backspace	Key.backspace	n/a
198.9705	0.135	397941	keystroke_Key.backspace	Key.backspace	n/a
199.1955	0.12	398391	keystroke_h	h	n/a
199.3455	0.105	398691	keystroke_o	o	n/a
199.4955	0.12	398991	keystroke_r	r	n/a
199.5555	0.135	399111	keystroke_o	o	n/a
199.8545	0.0905	399709	keystroke_Key.backspace	Key.backspace	n/a
200.035	0.09	400070	keystroke_Key.backspace	Key.backspace	n/a
200.215	0.075	400430	keystroke_Key.backspace	Key.backspace	n/a
200.335	0.1655	400670	keystroke_Key.backspace	Key.backspace	n/a
201.025	0.09	402050	keystroke_b	b	n/a
201.22	0.12	402440	keystroke_o	o	n/a
201.355	0.105	402710	keystroke_r	r	n/a
201.475	0.105	402950	keystroke_o	o	n/a
201.97	0.15	403940	keystroke_Key.space	Key.space	n/a
202.165	0.15	404330	keystroke_c	c	n/a
202.255	0.105	404510	keystroke_o	o	n/a
202.405	0.105	404810	keystroke_m	m	n/a
202.57	0.135	405140	keystroke_p	p	n/a
202.675	0.195	405350	keystroke_u	u	n/a
202.795	0.105	405590	keystroke_t	t	n/a
202.945	0.165	405890	keystroke_e	e	n/a
203.485	0.165	406970	keystroke_Key.space	Key.space	n/a
203.92	0.12	407840	keystroke_s	s	n/a
204.01	0.15	408020	keystroke_o	o	n/a
204.175	0.105	408350	keystroke_f	f	n/a
204.34	0.1205	408680	keystroke_a	a	n/a
204.7755	0.15	409551	keystroke_Key.enter	Key.enter	n/a
204.93	9.717	409860	prompt	n/a	criticism destroy situations valve\n
205.945	0.105	411890	keystroke_c	c	n/a
206.6355	0.089	413271	keystroke_r	r	n/a
206.7695	0.12	413539	keystroke_i	i	n/a
206.9945	0.09	413989	keystroke_t	t	n/a
207.0855	0.1495	414171	keystroke_i	i	n/a
207.52	0.15	415040	keystroke_c	c	n/a
207.7	0.12	415400	keystroke_i	i	n/a
208.3	0.165	416600	keystroke_s	s	n/a
208.466	0.134	416932	keystroke_m	m	n/a
208.855	0.15	417710	keystroke_Key.space	Key.space	n/a
208.96	0.09	417920	keystroke_d	d	n/a
209.1405	0.09	418281	keystroke_e	e	n/a
209.3205	0.15	418641	keystroke_s	s	n/a
209.4555	0.105	418911	keystroke_t	t	n/a
209.6805	0.15	419361	keystroke_r	r	n/a
210.281	0.134	420562	keystroke_o	o	n/a
210.505	0.1205	421010	keystroke_y	y	n/a
210.745	0.12	421490	keystroke_Key.space	Key.space	n/a
210.925	0.1355	421850	keystroke_s	s	n/a
211.0305	0.12	422061	keystroke_i	i	n/a
211.1655	0.105	422331	keystroke_t	t	n/a
211.2555	0.12	422511	keystroke_u	u	n/a
211.4205	0.165	422841	keystroke_a	a	n/a
211.6305	0.12	423261	keystroke_t	t	n/a
211.7655	0.12	423531	keystroke_i	i	n/a
211.8255	0.225	423651	keystroke_o	o	n/a
211.9305	0.195	423861	keystroke_n	n	n/a
212.2155	0.15	424431	keystroke_s	s	n/a
212.8005	0.135	425601	keystroke_Key.space	Key.space	n/a
212.8905	0.105	425781	keystroke_v	v	n/a
213.0555	0.12	426111	keystroke_a	a	n/a
213.1605	0.15	426321	keystroke_l	l	n/a
213.4905	0.09	426981	keystroke_v	v	n/a
213.6855	0.135	427371	keystroke_e	e	n/a
214.495	0.1505	428990	keystroke_Key.enter	Key.enter	n/a
214.6495	7.1225	429299	prompt	n/a	hardwood priority nose river\n
215.3655	0.12	430731	keystroke_h	h	n/a
215.4405	0.165	430881	keystroke_a	a	n/a
215.5155	0.12	431031	keystroke_r	r	n/a
215.7105	0.165	431421	keystroke_d	d	n/a
216.5955	0.15	433191	keystroke_w	w	n/a
216.8355	0.06	433671	keystroke_o	o	n/a
216.9855	0.15	433971	keystroke_o	o	n/a
217.1655	0.135	434331	keystroke_d	d	n/a
217.4205	0.135	434841	keystroke_Key.space	Key.space	n/a
217.6455	0.135	435291	keystroke_p	p	n/a
217.9455	0.12	435891	keystroke_r	r	n/a
218.0505	0.105	436101	keystroke_i	i	n/a
218.2605	0.12	436521	keystroke_o	o	n/a
218.3955	0.12	436791	keystroke_r	r	n/a
218.5755	0.1345	437151	keystroke_i	i	n/a
218.92	0.015	437840	keystroke_t	t	n/a
218.936	0.104	437872	keystroke_y	y	n/a
219.175	0.135	438350	keystroke_Key.space	Key.space	n/a
219.4	0.12	438800	keystroke_n	n	n/a
219.565	0.15	439130	keystroke_o	o	n/a
219.685	0.15	439370	keystroke_s	s	n/a
219.73	0.165	439460	keystroke_e	e	n/a
219.85	0.135	439700	keystroke_Key.space	Key.space	n/a
220.0455	0.105	440091	keystroke_r	r	n/a
220.1355	0.15	440271	keystroke_i	i	n/a
220.2555	0.09	440511	keystroke_v	v	n/a
220.4055	0.165	440811	keystroke_e	e	n/a
220.5105	0.165	441021	keystroke_r	r	n/a
221.6355	0.135	443271	keystroke_Key.enter	Key.enter	n/a
221.7745	7.2275	443549	prompt	n/a	francis rubber electronic or\n
222.55	0.075	445100	keystroke_f	f	n/a
222.7605	0.12	445521	keystroke_r	r	n/a
222.9255	0.12	445851	keystroke_a	a	n/a
223.0005	0.12	446001	keystroke_n	n	n/a
223.2255	0.135	446451	keystroke_c	c	n/a
223.3755	0.09	446751	keystroke_i	i	n/a
223.4355	0.15	446871	keystroke_s	s	n/a
223.7205	0.135	447441	keystroke_Key.space	Key.space	n/a
223.9755	0.135	447951	keystroke_r	r	n/a
224.0805	0.105	448161	keystroke_u	u	n/a
224.3505	0.09	448701	keystroke_b	b	n/a
224.5155	0.135	449031	keystroke_b	b	n/a
224.6355	0.105	449271	keystroke_e	e	n/a
224.6655	0.195	449331	keystroke_r	r	n/a
225.7605	0.165	451521	keystroke_Key.space	Key.space	n/a
226.0305	0.135	452061	keystroke_e	e	n/a
226.2555	0.15	452511	keystroke_l	l	n/a
226.3605	0.09	452721	keystroke_e	e	n/a
227.0205	0.09	454041	keystroke_c	c	n/a
227.2755	0.105	454551	keystroke_t	t	n/a
227.4855	0.135	454971	keystroke_r	r	n/a
227.6055	0.12	455211	keystroke_o	o	n/a
227.95	0.015	455900	keystroke_n	n	n/a
227.98	0.12	455960	keystroke_i	i	n/a
228.101	0.134	456202	keystroke_c	c	n/a
228.355	0.12	456710	keystroke_Key.space	Key.space	n/a
228.52	0.12	457040	keystroke_o	o	n/a
228.625	0.12	457250	keystroke_r	r	n/a
228.865	0.135	457730	keystroke_Key.enter	Key.enter	n/a
229.006	8.3955	458012	prompt	n/a	conferencing contain swimming notification\n
229.8255	0.12	459651	keystroke_c	c	n/a
230.0055	0.15	460011	keystroke_o	o	n/a
230.0805	0.15	460161	keystroke_n	n	n/a
230.1705	0.12	460341	keystroke_f	f	n/a
230.3955	0.15	460791	keystroke_e	e	n/a
230.4705	0.18	460941	keystroke_r	r	n/a
230.6955	0.15	461391	keystroke_e	e	n/a
230.8755	0.135	461751	keystroke_n	n	n/a
231.0255	0.18	462051	keystroke_c	c	n/a
231.1455	0.15	462291	keystroke_e	e	n/a
231.7155	0.105	463431	keystroke_Key.backspace	Key.backspace	n/a
231.9705	0.135	463941	keystroke_i	i	n/a
232.0455	0.15	464091	keystroke_n	n	n/a
232.1805	0.1195	464361	keystroke_g	g	n/a
232.39	0.12	464780	keystroke_Key.space	Key.space	n/a
232.6	0.135	465200	keystroke_c	c	n/a
232.69	0.15	465380	keystroke_o	o	n/a
232.75	0.15	465500	keystroke_n	n	n/a
232.915	0.075	465830	keystroke_t	t	n/a
233.095	0.15	466190	keystroke_a	a	n/a
233.2	0.21	466400	keystroke_i	i	n/a
233.26	0.165	466520	keystroke_n	n	n/a
233.44	0.1655	466880	keystroke_Key.space	Key.space	n/a
233.9805	0.105	467961	keystroke_s	s	n/a
234.1755	0.135	468351	keystroke_w	w	n/a
234.3255	0.135	468651	keystroke_i	i	n/a
234.5955	0.075	469191	keystroke_m	m	n/a
234.7605	0.12	469521	keystroke_m	m	n/a
234.9855	0.15	469971	keystroke_i	i	n/a
235.0605	0.18	470121	keystroke_n	n	n/a
235.2255	0.12	470451	keystroke_g	g	n/a
235.3155	0.12	470631	keystroke_Key.space	Key.space	n/a
235.5105	0.135	471021	keystroke_n	n	n/a
235.6155	0.15	471231	keystroke_o	o	n/a
235.7355	0.105	471471	keystroke_t	t	n/a
235.8555	0.135	471711	keystroke_i	i	n/a
236.0505	0.12	472101	keystroke_f	f	n/a
236.1555	0.135	472311	keystroke_i	i	n/a
236.3205	0.15	472641	keystroke_c	c	n/a
236.4555	0.135	472911	keystroke_a	a	n/a
236.6805	0.12	473361	keystroke_t	t	n/a
236.7405	0.195	473481	keystroke_i	i	n/a
236.8455	0.21	473691	keystroke_o	o	n/a
236.9505	0.165	473901	keystroke_n	n	n/a
237.2655	0.135	474531	keystroke_Key.enter	Key.enter	n/a
237.4055	8.516	474811	prompt	n/a	reminder portable apparel ellen\n
238.2855	0.15	476571	keystroke_r	r	n/a
238.3605	0.15	476721	keystroke_e	e	n/a
238.5255	0.09	477051	keystroke_m	m	n/a
238.7205	0.135	477441	keystroke_i	i	n/a
238.7805	0.15	477561	keystroke_n	n	n/a
238.8855	0.105	477771	keystroke_d	d	n/a
239.0955	0.165	478191	keystroke_e	e	n/a
239.1705	0.165	478341	keystroke_r	r	n/a
239.3505	0.105	478701	keystroke_Key.space	Key.space	n/a
239.5005	0.12	479001	keystroke_p	p	n/a
239.9955	0.135	479991	keystroke_o	o	n/a
240.1305	0.105	480261	keystroke_r	r	n/a
240.4155	0.09	480831	keystroke_t	t	n/a
240.6555	0.105	481311	keystroke_a	a	n/a
240.8055	0.09	481611	keystroke_b	b	n/a
241.0005	0.12	482001	keystroke_l	l	n/a
241.0905	0.1345	482181	keystroke_e	e	n/a
241.375	0.15	482750	keystroke_Key.space	Key.space	n/a
241.555	0.135	483110	keystroke_a	a	n/a
241.75	0.075	483500	keystroke_p	p	n/a
241.915	0.12	483830	keystroke_p	p	n/a
242.485	0.045	484970	keystroke_a	a	n/a
242.68	0.1055	485360	keystroke_r	r	n/a
242.9205	0.1195	485841	keystroke_e	e	n/a
243.055	0.135	486110	keystroke_l	l	n/a
243.31	0.135	486620	keystroke_Key.space	Key.space	n/a
243.505	0.135	487010	keystroke_e	e	n/a
243.595	0.165	487190	keystroke_l	l	n/a
244.0305	0.09	488061	keystroke_e	e	n/a
244.3755	0.105	488751	keystroke_Key.backspace	Key.backspace	n/a
244.6605	0.12	489321	keystroke_l	l	n/a
244.8405	0.135	489681	keystroke_e	e	n/a
244.9905	0.165	489981	keystroke_n	n	n/a
245.7705	0.15	491541	keystroke_Key.enter	Key.enter	n/a
245.9245	8.2325	491849	prompt	n/a	punch feeding observer divided\n
246.655	0.105	493310	keystroke_p	p	n/a
246.85	0.06	493700	keystroke_u	u	n/a
247.03	0.09	494060	keystroke_n	n	n/a
247.135	0.1505	494270	keystroke_c	c	n/a
247.225	0.1205	494450	keystroke_h	h	n/a
247.4205	0.15	494841	keystroke_Key.space	Key.space	n/a
247.6755	0.105	495351	keystroke_d	d	n/a
247.9155	0.105	495831	keystroke_e	e	n/a
248.0955	0.135	496191	keystroke_e	e	n/a
248.4105	0.075	496821	keystroke_Key.backspace	Key.backspace	n/a
248.5905	0.06	497181	keystroke_Key.backspace	Key.backspace	n/a
248.7555	0.12	497511	keystroke_Key.backspace	Key.backspace	n/a
248.8305	0.105	497661	keystroke_f	f	n/a
248.9955	0.135	497991	keystroke_e	e	n/a
249.4155	0.105	498831	keystroke_e	e	n/a
249.6555	0.15	499311	keystroke_d	d	n/a
249.8205	0.12	499641	keystroke_i	i	n/a
249.8955	0.12	499791	keystroke_n	n	n/a
250.0005	0.105	500001	keystroke_g	g	n/a
250.1205	0.105	500241	keystroke_Key.space	Key.space	n/a
250.33	0.12	500660	keystroke_o	o	n/a
250.42	0.105	500840	keystroke_v	v	n/a
250.87	0.075	501740	keystroke_Key.backspace	Key.backspace	n/a
251.095	0.12	502190	keystroke_b	b	n/a
251.395	0.21	502790	keystroke_s	s	n/a
251.47	0.195	502940	keystroke_e	e	n/a
251.59	0.135	503180	keystroke_r	r	n/a
251.86	0.12	503720	keystroke_v	v	n/a
252.07	0.135	504140	keystroke_e	e	n/a
252.13	0.15	504260	keystroke_r	r	n/a
252.415	0.135	504830	keystroke_Key.space	Key.space	n/a
252.565	0.135	505130	keystroke_d	d	n/a
252.715	0.15	505430	keystroke_i	i	n/a
252.85	0.135	505700	keystroke_v	v	n/a
253.03	0.135	506060	keystroke_i	i	n/a
253.18	0.105	506360	keystroke_d	d	n/a
253.39	0.12	506780	keystroke_e	e	n/a
253.57	0.15	507140	keystroke_d	d	n/a
253.99	0.1655	507980	keystroke_Key.enter	Key.enter	n/a
254.1595	6.9875	508319	prompt	n/a	mixed penn reflection hobby\n
254.8905	0.105	509781	keystroke_m	m	n/a
255.0855	0.12	510171	keystroke_i	i	n/a
255.2205	0.15	510441	keystroke_s	s	n/a
255.625	0.105	511250	keystroke_Key.backspace	Key.backspace	n/a
255.745	0.21	511490	keystroke_z	z	n/a
255.8655	0.1495	511731	keystroke_e	e	n/a
256.075	0.165	512150	keystroke_d	d	n/a
256.315	0.12	512630	keystroke_Key.space	Key.space	n/a
256.48	0.15	512960	keystroke_p	p	n/a
256.5855	0.1345	513171	keystroke_e	e	n/a
256.75	0.075	513500	keystroke_n	n	n/a
256.9	0.15	513800	keystroke_n	n	n/a
257.1555	0.1645	514311	keystroke_Key.space	Key.space	n/a
257.335	0.18	514670	keystroke_r	r	n/a
257.4255	0.1645	514851	keystroke_e	e	n/a
257.7405	0.135	515481	keystroke_f	f	n/a
258.4905	0.15	516981	keystroke_l	l	n/a
258.6105	0.105	517221	keystroke_e	e	n/a
258.7305	0.015	517461	keystroke_d	d	n/a
258.8055	0.135	517611	keystroke_c	c	n/a
259.0905	0.135	518181	keystroke_t	t	n/a
259.1655	0.165	518331	keystroke_i	i	n/a
259.2705	0.195	518541	keystroke_o	o	n/a
259.3605	0.195	518721	keystroke_n	n	n/a
259.4955	0.135	518991	keystroke_Key.space	Key.space	n/a
259.735	0.135	519470	keystroke_h	h	n/a
260.035	0.15	520070	keystroke_o	o	n/a
260.305	0.09	520610	keystroke_b	b	n/a
260.455	0.12	520910	keystroke_b	b	n/a
260.68	0.136	521360	keystroke_y	y	n/a
260.995	0.1505	521990	keystroke_Key.enter	Key.enter	n/a
261.1495	9.3875	522299	prompt	n/a	streams wedding gives chef\n
262	0.12	524000	keystroke_s	s	n/a
262.165	0.09	524330	keystroke_t	t	n/a
262.3305	0.15	524661	keystroke_r	r	n/a
262.6905	0.12	525381	keystroke_e	e	n/a
262.9005	0.12	525801	keystroke_a	a	n/a
263.155	0.165	526310	keystroke_m	m	n/a
263.41	0.15	526820	keystroke_s	s	n/a
263.6955	0.15	527391	keystroke_Key.space	Key.space	n/a
263.8305	0.1795	527661	keystroke_w	w	n/a
263.935	0.135	527870	keystroke_e	e	n/a
264.235	0.105	528470	keystroke_d	d	n/a
264.416	0.165	528832	keystroke_d	d	n/a
264.566	0.134	529132	keystroke_i	i	n/a
264.625	0.135	529250	keystroke_n	n	n/a
264.776	0.105	529552	keystroke_g	g	n/a
264.865	0.105	529730	keystroke_Key.space	Key.space	n/a
265.0455	0.135	530091	keystroke_o	o	n/a
265.4655	0.105	530931	keystroke_Key.backspace	Key.backspace	n/a
265.6755	0.09	531351	keystroke_f	f	n/a
265.7805	0.135	531561	keystroke_i	i	n/a
265.9005	0.105	531801	keystroke_v	v	n/a
266.5	0.075	533000	keystroke_Key.backspace	Key.backspace	n/a
266.695	0.1055	533390	keystroke_Key.backspace	Key.backspace	n/a
267.2505	0.105	534501	keystroke_Key.backspace	Key.backspace	n/a
267.5055	0.09	535011	keystroke_g	g	n/a
267.6105	0.135	535221	keystroke_i	i	n/a
267.7605	0.045	535521	keystroke_v	v	n/a
268.345	0.045	536690	keystroke_e	e	n/a
268.525	0.15	537050	keystroke_s	s	n/a
268.69	0.15	537380	keystroke_Key.space	Key.space	n/a
269.08	0.1055	538160	keystroke_c	c	n/a
269.2005	0.135	538401	keystroke_h	h	n/a
269.3205	0.105	538641	keystroke_e	e	n/a
269.5605	0.135	539121	keystroke_c	c	n/a
269.92	0.12	539840	keystroke_Key.backspace	Key.backspace	n/a
270.055	0.12	540110	keystroke_f	f	n/a
270.37	0.165	540740	keystroke_Key.enter	Key.enter	n/a
270.54	16.512	541080	prompt	n/a	wichita rankings corresponding qualities\n
271.495	0.15	542990	keystroke_w	w	n/a
271.63	0.165	543260	keystroke_h	h	n/a
272.4405	0.105	544881	keystroke_Key.backspace	Key.backspace	n/a
272.7255	0.12	545451	keystroke_i	i	n/a
272.9655	0.15	545931	keystroke_c	c	n/a
273.0855	0.1345	546171	keystroke_h	h	n/a
273.205	0.165	546410	keystroke_i	i	n/a
273.415	0.09	546830	keystroke_t	t	n/a
273.58	0.15	547160	keystroke_a	a	n/a
273.76	0.165	547520	keystroke_Key.space	Key.space	n/a
273.985	0.12	547970	keystroke_r	r	n/a
274.135	0.135	548270	keystroke_n	n	n/a
274.255	0.135	548510	keystroke_a	a	n/a
274.375	0.105	548750	keystroke_k	k	n/a
274.6	0.135	549200	keystroke_i	i	n/a
274.645	0.15	549290	keystroke_n	n	n/a
274.796	0.119	549592	keystroke_g	g	n/a
276.055	0.09	552110	keystroke_Key.backspace	Key.backspace	n/a
276.2505	0.075	552501	keystroke_Key.backspace	Key.backspace	n/a
276.4305	0.075	552861	keystroke_Key.backspace	Key.backspace	n/a
276.5955	0.285	553191	keystroke_Key.backspace	Key.backspace	n/a
277.72	0.165	555440	keystroke_Key.backspace	Key.backspace	n/a
278.035	0.135	556070	keystroke_Key.backspace	Key.backspace	n/a
278.455	0.151	556910	keystroke_a	a	n/a
278.53	0.15	557060	keystroke_n	n	n/a
278.726	0.119	557452	keystroke_k	k	n/a
278.965	0.15	557930	keystroke_i	i	n/a
279.026	0.15	558052	keystroke_n	n	n/a
279.16	0.106	558320	keystroke_g	g	n/a
279.505	0.15	559010	keystroke_s	s	n/a
279.67	0.15	559340	keystroke_Key.space	Key.space	n/a
279.9105	0.135	559821	keystroke_r	r	n/a
280.5855	0.119	561171	keystroke_Key.backspace	Key.backspace	n/a
280.7505	0.135	561501	keystroke_c	c	n/a
280.9455	0.15	561891	keystroke_o	o	n/a
281.395	0.075	562790	keystroke_r	r	n/a
281.59	0.09	563180	keystroke_r	r	n/a
281.725	0.135	563450	keystroke_e	e	n/a
281.92	0.165	563840	keystroke_s	s	n/a
282.235	0.105	564470	keystroke_p	p	n/a
282.535	0.195	565070	keystroke_o	o	n/a
282.895	0.135	565790	keystroke_n	n	n/a
283.12	0.165	566240	keystroke_d	d	n/a
283.24	0.165	566480	keystroke_i	i	n/a
283.315	0.1505	566630	keystroke_n	n	n/a
283.435	0.12	566870	keystroke_g	g	n/a
283.57	0.135	567140	keystroke_Key.space	Key.space	n/a
284.2005	0.165	568401	keystroke_a	a	n/a
284.5905	0.105	569181	keystroke_Key.backspace	Key.backspace	n/a
284.7255	0.12	569451	keystroke_q	q	n/a
284.8305	0.105	569661	keystroke_u	u	n/a
284.9805	0.15	569961	keystroke_a	a	n/a
285.1755	0.105	570351	keystroke_l	l	n/a
285.3705	0.1345	570741	keystroke_i	i	n/a
285.521	0.105	571042	keystroke_t	t	n/a
286.27	0.15	572540	keystroke_i	i	n/a
286.36	0.12	572720	keystroke_e	e	n/a
286.57	0.135	573140	keystroke_s	s	n/a
286.9005	0.15	573801	keystroke_Key.enter	Key.enter	n/a
287.0565	10.7955	574113	prompt	n/a	hold damage patents declaration\n
288.956	0.135	577912	keystroke_h	h	n/a
289.076	0.134	578152	keystroke_o	o	n/a
289.48	0.1355	578960	keystroke_l	l	n/a
289.6605	0.165	579321	keystroke_d	d	n/a
289.96	0.135	579920	keystroke_Key.space	Key.space	n/a
290.141	0.15	580282	keystroke_d	d	n/a
291.055	0.1655	582110	keystroke_a	a	n/a
291.3855	0.15	582771	keystroke_m	m	n/a
291.4905	0.135	582981	keystroke_a	a	n/a
291.9255	0.09	583851	keystroke_g	g	n/a
292.0905	0.12	584181	keystroke_e	e	n/a
292.945	0.15	585890	keystroke_Key.space	Key.space	n/a
293.275	0.135	586550	keystroke_p	p	n/a
293.395	0.135	586790	keystroke_a	a	n/a
293.6955	0.09	587391	keystroke_t	t	n/a
294.13	0.12	588260	keystroke_e	e	n/a
294.235	0.15	588470	keystroke_n	n	n/a
294.37	0.105	588740	keystroke_t	t	n/a
294.881	0.134	589762	keystroke_s	s	n/a
295.255	0.18	590510	keystroke_Key.space	Key.space	n/a
295.555	0.12	591110	keystroke_d	d	n/a
295.78	0.105	591560	keystroke_e	e	n/a
296.005	0.15	592010	keystroke_c	c	n/a
296.215	0.1655	592430	keystroke_l	l	n/a
296.335	0.1355	592670	keystroke_a	a	n/a
296.7255	0.105	593451	keystroke_r	r	n/a
296.8755	0.195	593751	keystroke_a	a	n/a
297.0405	0.15	594081	keystroke_t	t	n/a
297.1605	0.15	594321	keystroke_i	i	n/a
297.2505	0.195	594501	keystroke_o	o	n/a
297.3555	0.165	594711	keystroke_n	n	n/a
297.7005	0.15	595401	keystroke_Key.enter	Key.enter	n/a
297.855	9.417	595710	prompt	n/a	happen apparel plays vegas\n
298.5705	0.135	597141	keystroke_h	h	n/a
298.6905	0.12	597381	keystroke_a	a	n/a
298.8555	0.075	597711	keystroke_p	p	n/a
299.0055	0.165	598011	keystroke_p	p	n/a
299.1555	0.135	598311	keystroke_e	e	n/a
299.2455	0.15	598491	keystroke_n	n	n/a
299.4105	0.15	598821	keystroke_Key.space	Key.space	n/a
299.5905	0.135	599181	keystroke_a	a	n/a
299.7555	0.06	599511	keystroke_p	p	n/a
299.92	0.12	599840	keystroke_p	p	n/a
300.7605	0.1355	601521	keystroke_a	a	n/a
301.061	0.1045	602122	keystroke_r	r	n/a
301.2555	0.135	602511	keystroke_e	e	n/a
301.4055	0.15	602811	keystroke_l	l	n/a
301.6005	0.12	603201	keystroke_Key.space	Key.space	n/a
301.7655	0.1045	603531	keystroke_p	p	n/a
301.975	0.15	603950	keystroke_l	l	n/a
302.11	0.135	604220	keystroke_a	a	n/a
302.26	0.135	604520	keystroke_y	y	n/a
302.38	0.135	604760	keystroke_s	s	n/a
302.575	0.136	605150	keystroke_Key.space	Key.space	n/a
302.845	0.046	605690	keystroke_v	v	n/a
303.161	0.105	606322	keystroke_Key.backspace	Key.backspace	n/a
303.6705	0.075	607341	keystroke_g	g	n/a
303.8355	0.1495	607671	keystroke_e	e	n/a
304.21	0.075	608420	keystroke_Key.backspace	Key.backspace	n/a
304.375	0.105	608750	keystroke_Key.backspace	Key.backspace	n/a
304.435	0.1205	608870	keystroke_c	c	n/a
304.6155	0.135	609231	keystroke_e	e	n/a
305.095	0.075	610190	keystroke_Key.backspace	Key.backspace	n/a
305.275	0.09	610550	keystroke_Key.backspace	Key.backspace	n/a
305.32	0.12	610640	keystroke_v	v	n/a
305.65	0.12	611300	keystroke_e	e	n/a
305.9055	0.09	611811	keystroke_g	g	n/a
306.0855	0.135	612171	keystroke_a	a	n/a
306.4005	0.135	612801	keystroke_s	s	n/a
307.1055	0.165	614211	keystroke_Key.enter	Key.enter	n/a
307.275	17.637	614550	prompt	n/a	affect freedom heart trinidad\n
310.798	0.072	621596	keystroke_a	a	n/a
310.9	0.075	621800	keystroke_f	f	n/a
311.08	0.105	622160	keystroke_f	f	n/a
311.29	0.165	622580	keystroke_e	e	n/a
311.425	0.045	622850	keystroke_r	r	n/a
312.0405	0.105	624081	keystroke_Key.backspace	Key.backspace	n/a
312.1155	0.105	624231	keystroke_c	c	n/a
312.3555	0.12	624711	keystroke_t	t	n/a
312.7005	0.1495	625401	keystroke_Key.space	Key.space	n/a
312.865	0.09	625730	keystroke_f	f	n/a
313.09	0.135	626180	keystroke_r	r	n/a
313.495	0.09	626990	keystroke_e	e	n/a
313.66	0.12	627320	keystroke_e	e	n/a
313.8855	0.135	627771	keystroke_d	d	n/a
314.0505	0.135	628101	keystroke_o	o	n/a
314.2605	0.15	628521	keystroke_m	m	n/a
314.6505	0.105	629301	keystroke_Key.space	Key.space	n/a
314.8605	0.15	629721	keystroke_h	h	n/a
315.0255	0.12	630051	keystroke_e	e	n/a
315.2205	0.18	630441	keystroke_a	a	n/a
315.2955	0.165	630591	keystroke_r	r	n/a
315.926	0.105	631852	keystroke_t	t	n/a
316.165	0.165	632330	keystroke_Key.space	Key.space	n/a
316.495	0.076	632990	keystroke_t	t	n/a
316.691	0.105	633382	keystroke_r	r	n/a
316.855	0.121	633710	keystroke_i	i	n/a
317.546	0.135	635092	keystroke_n	n	n/a
317.9355	0.135	635871	keystroke_i	i	n/a
318.8655	0.1345	637731	keystroke_d	d	n/a
319.165	0.12	638330	keystroke_a	a	n/a
320.185	0.135	640370	keystroke_d	d	n/a
324.793	0.117	649586	keystroke_Key.enter	Key.enter	n/a
324.9145	8.9075	649829	prompt	n/a	cooked actress emissions slowly\n
325.705	0.15	651410	keystroke_c	c	n/a
326.095	0.105	652190	keystroke_o	o	n/a
326.275	0.1655	652550	keystroke_o	o	n/a
326.9355	0.135	653871	keystroke_k	k	n/a
327.2055	0.09	654411	keystroke_e	e	n/a
327.4005	0.12	654801	keystroke_d	d	n/a
327.8955	0.135	655791	keystroke_Key.space	Key.space	n/a
328.0155	0.135	656031	keystroke_a	a	n/a
328.1355	0.135	656271	keystroke_c	c	n/a
328.3905	0.09	656781	keystroke_t	t	n/a
328.5705	0.1495	657141	keystroke_r	r	n/a
328.661	0.134	657322	keystroke_e	e	n/a
328.901	0.105	657802	keystroke_s	s	n/a
329.065	0.135	658130	keystroke_s	s	n/a
329.5	0.165	659000	keystroke_Key.space	Key.space	n/a
329.725	0.1355	659450	keystroke_e	e	n/a
329.9955	0.09	659991	keystroke_m	m	n/a
330.1455	0.135	660291	keystroke_m	m	n/a
330.6405	0.12	661281	keystroke_Key.backspace	Key.backspace	n/a
330.9555	0.12	661911	keystroke_i	i	n/a
331.1355	0.12	662271	keystroke_s	s	n/a
331.3455	0.135	662691	keystroke_s	s	n/a
331.4505	0.18	662901	keystroke_i	i	n/a
331.5405	0.21	663081	keystroke_o	o	n/a
331.6155	0.18	663231	keystroke_n	n	n/a
331.7805	0.135	663561	keystroke_s	s	n/a
332.0205	0.12	664041	keystroke_Key.space	Key.space	n/a
332.1705	0.135	664341	keystroke_s	s	n/a
332.2755	0.135	664551	keystroke_l	l	n/a
332.5155	0.15	665031	keystroke_o	o	n/a
332.6505	0.1505	665301	keystroke_w	w	n/a
332.951	0.15	665902	keystroke_l	l	n/a
333.2055	0.135	666411	keystroke_y	y	n/a
333.6555	0.165	667311	keystroke_Key.enter	Key.enter	n/a
333.8255	5.9665	667651	prompt	n/a	miller tech mighty doctrine\n
334.526	0.1045	669052	keystroke_m	m	n/a
334.7205	0.105	669441	keystroke_i	i	n/a
334.9455	0.075	669891	keystroke_l	l	n/a
335.1105	0.135	670221	keystroke_l	l	n/a
335.2305	0.18	670461	keystroke_e	e	n/a
335.3355	0.165	670671	keystroke_r	r	n/a
335.92	0.135	671840	keystroke_Key.space	Key.space	n/a
336.1755	0.1045	672351	keystroke_t	t	n/a
336.325	0.12	672650	keystroke_e	e	n/a
336.535	0.135	673070	keystroke_c	c	n/a
336.685	0.18	673370	keystroke_h	h	n/a
336.79	0.1355	673580	keystroke_Key.space	Key.space	n/a
337.0305	0.06	674061	keystroke_m	m	n/a
337.1955	0.105	674391	keystroke_i	i	n/a
337.3155	0.09	674631	keystroke_g	g	n/a
337.4205	0.12	674841	keystroke_h	h	n/a
337.5255	0.105	675051	keystroke_t	t	n/a
337.6605	0.135	675321	keystroke_Key.space	Key.space	n/a
338.095	0.135	676190	keystroke_d	d	n/a
338.23	0.12	676460	keystroke_o	o	n/a
338.32	0.12	676640	keystroke_c	c	n/a
338.56	0.091	677120	keystroke_t	t	n/a
338.741	0.1195	677482	keystroke_r	r	n/a
338.8455	0.1805	677691	keystroke_i	i	n/a
338.936	0.1645	677872	keystroke_n	n	n/a
339.0855	0.12	678171	keystroke_e	e	n/a
339.626	0.1645	679252	keystroke_Key.enter	Key.enter	n/a
339.795	8.967	679590	prompt	n/a	exciting separation cuts columbia\n
340.4655	0.1205	680931	keystroke_e	e	n/a
340.7355	0.12	681471	keystroke_x	x	n/a
340.9605	0.135	681921	keystroke_c	c	n/a
341.0805	0.12	682161	keystroke_i	i	n/a
341.2905	0.0905	682581	keystroke_t	t	n/a
341.441	0.165	682882	keystroke_i	i	n/a
341.531	0.1495	683062	keystroke_n	n	n/a
341.6655	0.1355	683331	keystroke_g	g	n/a
342.1605	0.1345	684321	keystroke_Key.space	Key.space	n/a
342.37	0.12	684740	keystroke_s	s	n/a
342.565	0.1505	685130	keystroke_e	e	n/a
343.0755	0.15	686151	keystroke_p	p	n/a
343.4505	0.1355	686901	keystroke_a	a	n/a
343.7355	0.12	687471	keystroke_r	r	n/a
343.9155	0.135	687831	keystroke_a	a	n/a
344.216	0.105	688432	keystroke_t	t	n/a
344.291	0.165	688582	keystroke_i	i	n/a
344.381	0.225	688762	keystroke_o	o	n/a
344.471	0.18	688942	keystroke_n	n	n/a
344.636	0.165	689272	keystroke_Key.space	Key.space	n/a
344.861	0.135	689722	keystroke_c	c	n/a
345.011	0.135	690022	keystroke_u	u	n/a
345.176	0.12	690352	keystroke_t	t	n/a
345.446	0.135	690892	keystroke_s	s	n/a
345.656	0.135	691312	keystroke_Key.space	Key.space	n/a
345.851	0.15	691702	keystroke_c	c	n/a
346.121	0.135	692242	keystroke_o	o	n/a
346.6005	0.135	693201	keystroke_l	l	n/a
346.84	0.106	693680	keystroke_u	u	n/a
347.095	0.12	694190	keystroke_m	m	n/a
347.366	0.075	694732	keystroke_b	b	n/a
347.561	0.12	695122	keystroke_i	i	n/a
347.696	0.15	695392	keystroke_a	a	n/a
348.58	0.18	697160	keystroke_Key.enter	Key.enter	n/a
348.7645	7.8275	697529	prompt	n/a	saints leather martial drag\n
349.6005	0.105	699201	keystroke_s	s	n/a
349.7955	0.135	699591	keystroke_a	a	n/a
349.9155	0.15	699831	keystroke_i	i	n/a
349.9905	0.135	699981	keystroke_n	n	n/a
350.1405	0.135	700281	keystroke_t	t	n/a
350.4105	0.135	700821	keystroke_s	s	n/a
350.92	0.135	701840	keystroke_Key.space	Key.space	n/a
351.161	0.149	702322	keystroke_l	l	n/a
351.25	0.1205	702500	keystroke_e	e	n/a
351.4155	0.165	702831	keystroke_a	a	n/a
352.001	0.06	704002	keystroke_t	t	n/a
352.3	0.12	704600	keystroke_h	h	n/a
352.405	0.151	704810	keystroke_e	e	n/a
352.481	0.15	704962	keystroke_r	r	n/a
352.78	0.105	705560	keystroke_Key.space	Key.space	n/a
352.961	0.134	705922	keystroke_m	m	n/a
353.065	0.166	706130	keystroke_a	a	n/a
353.141	0.134	706282	keystroke_r	r	n/a
353.365	0.121	706730	keystroke_t	t	n/a
353.47	0.12	706940	keystroke_i	i	n/a
353.606	0.149	707212	keystroke_a	a	n/a
353.725	0.166	707450	keystroke_l	l	n/a
353.815	0.165	707630	keystroke_Key.space	Key.space	n/a
354.551	0.12	709102	keystroke_d	d	n/a
354.79	0.09	709580	keystroke_r	r	n/a
354.91	0.165	709820	keystroke_a	a	n/a
355.12	0.12	710240	keystroke_g	g	n/a
356.4105	0.18	712821	keystroke_Key.enter	Key.enter	n/a
356.5945	10.1525	713189	prompt	n/a	october sing urgent girlfriend\n
358.091	0.1345	716182	keystroke_o	o	n/a
358.166	0.1195	716332	keystroke_c	c	n/a
358.4505	0.105	716901	keystroke_t	t	n/a
358.5105	0.12	717021	keystroke_o	o	n/a
358.7205	0.12	717441	keystroke_b	b	n/a
358.9905	0.1495	717981	keystroke_e	e	n/a
359.0505	0.1795	718101	keystroke_r	r	n/a
359.41	0.15	718820	keystroke_Key.space	Key.space	n/a
359.665	0.12	719330	keystroke_s	s	n/a
359.74	0.151	719480	keystroke_i	i	n/a
359.876	0.135	719752	keystroke_n	n	n/a
359.966	0.135	719932	keystroke_g	g	n/a
360.251	0.165	720502	keystroke_Key.space	Key.space	n/a
360.6555	0.15	721311	keystroke_u	u	n/a
360.9555	0.09	721911	keystroke_r	r	n/a
361.1955	0.09	722391	keystroke_g	g	n/a
361.3905	0.12	722781	keystroke_e	e	n/a
361.4955	0.12	722991	keystroke_n	n	n/a
361.6455	0.135	723291	keystroke_t	t	n/a
362.081	0.149	724162	keystroke_Key.space	Key.space	n/a
362.546	0.09	725092	keystroke_d	d	n/a
362.651	0.134	725302	keystroke_i	i	n/a
362.756	0.104	725512	keystroke_f	f	n/a
363.3105	0.12	726621	keystroke_Key.backspace	Key.backspace	n/a
363.5205	0.09	727041	keystroke_Key.backspace	Key.backspace	n/a
363.6705	0.09	727341	keystroke_Key.backspace	Key.backspace	n/a
363.7455	0.105	727491	keystroke_g	g	n/a
363.9255	0.135	727851	keystroke_i	i	n/a
364.0155	0.12	728031	keystroke_r	r	n/a
364.795	0.165	729590	keystroke_l	l	n/a
365.2	0.105	730400	keystroke_f	f	n/a
365.44	0.105	730880	keystroke_r	r	n/a
365.56	0.12	731120	keystroke_i	i	n/a
365.665	0.135	731330	keystroke_e	e	n/a
365.815	0.1205	731630	keystroke_n	n	n/a
365.9505	0.135	731901	keystroke_d	d	n/a
366.596	0.149	733192	keystroke_Key.enter	Key.enter	n/a
366.7495	9.3575	733499	prompt	n/a	implementing achieve flights forth\n
367.51	0.105	735020	keystroke_i	i	n/a
367.7355	0.06	735471	keystroke_m	m	n/a
367.9	0.12	735800	keystroke_p	p	n/a
368.11	0.135	736220	keystroke_l	l	n/a
368.545	0.15	737090	keystroke_e	e	n/a
368.86	0.135	737720	keystroke_m	m	n/a
368.98	0.135	737960	keystroke_e	e	n/a
369.07	0.135	738140	keystroke_n	n	n/a
369.31	0.105	738620	keystroke_t	t	n/a
369.385	0.165	738770	keystroke_i	i	n/a
369.475	0.15	738950	keystroke_n	n	n/a
369.61	0.105	739220	keystroke_g	g	n/a
369.76	0.15	739520	keystroke_Key.space	Key.space	n/a
370.1355	0.21	740271	keystroke_a	a	n/a
370.5705	0.135	741141	keystroke_c	c	n/a
370.7205	0.195	741441	keystroke_h	h	n/a
371.0955	0.15	742191	keystroke_i	i	n/a
371.3055	0.135	742611	keystroke_e	e	n/a
371.5155	0.105	743031	keystroke_v	v	n/a
372.7005	0.12	745401	keystroke_e	e	n/a
372.9855	0.165	745971	keystroke_Key.space	Key.space	n/a
373.1655	0.135	746331	keystroke_f	f	n/a
373.2555	0.12	746511	keystroke_i	i	n/a
373.4055	0.075	746811	keystroke_g	g	n/a
373.5105	0.15	747021	keystroke_h	h	n/a
373.6005	0.09	747201	keystroke_t	t	n/a
373.8105	0.12	747621	keystroke_s	s	n/a
374.0505	0.15	748101	keystroke_Key.space	Key.space	n/a
374.4555	0.105	748911	keystroke_f	f	n/a
374.5605	0.15	749121	keystroke_o	o	n/a
374.6655	0.075	749331	keystroke_r	r	n/a
374.8455	0.075	749691	keystroke_t	t	n/a
374.9505	0.12	749901	keystroke_h	h	n/a
375.1155	0.165	750231	keystroke_s	s	n/a
375.61	0.15	751220	keystroke_Key.backspace	Key.backspace	n/a
375.955	0.15	751910	keystroke_Key.enter	Key.enter	n/a
376.111	8.021	752222	prompt	n/a	neil blogs incurred anthony\n
376.975	0.105	753950	keystroke_n	n	n/a
377.14	0.135	754280	keystroke_e	e	n/a
377.26	0.105	754520	keystroke_i	i	n/a
377.44	0.18	754880	keystroke_l	l	n/a
377.59	0.1505	755180	keystroke_Key.space	Key.space	n/a
377.9805	0.135	755961	keystroke_b	b	n/a
378.25	0.121	756500	keystroke_l	l	n/a
378.49	0.15	756980	keystroke_o	o	n/a
378.625	0.105	757250	keystroke_g	g	n/a
379.48	0.15	758960	keystroke_s	s	n/a
379.75	0.1505	759500	keystroke_Key.space	Key.space	n/a
380.0055	0.18	760011	keystroke_i	i	n/a
380.0805	0.15	760161	keystroke_n	n	n/a
380.2755	0.165	760551	keystroke_c	c	n/a
380.4705	0.15	760941	keystroke_u	u	n/a
380.8005	0.075	761601	keystroke_r	r	n/a
380.9805	0.105	761961	keystroke_r	r	n/a
381.1455	0.105	762291	keystroke_e	e	n/a
381.3255	0.1495	762651	keystroke_d	d	n/a
381.535	0.135	763070	keystroke_Key.space	Key.space	n/a
381.94	0.165	763880	keystroke_a	a	n/a
382.09	0.12	764180	keystroke_n	n	n/a
382.57	0.135	765140	keystroke_t	t	n/a
382.645	0.135	765290	keystroke_h	h	n/a
382.9	0.135	765800	keystroke_o	o	n/a
383.08	0.106	766160	keystroke_n	n	n/a
383.336	0.12	766672	keystroke_y	y	n/a
383.98	0.15	767960	keystroke_Key.enter	Key.enter	n/a
384.1355	8.0365	768271	prompt	n/a	moreover donald buses antiques\n
384.85	0.105	769700	keystroke_m	m	n/a
385.075	0.135	770150	keystroke_o	o	n/a
385.18	0.165	770360	keystroke_r	r	n/a
385.27	0.165	770540	keystroke_e	e	n/a
385.645	0.135	771290	keystroke_o	o	n/a
385.765	0.1055	771530	keystroke_v	v	n/a
385.9455	0.15	771891	keystroke_e	e	n/a
386.0205	0.18	772041	keystroke_r	r	n/a
386.2755	0.135	772551	keystroke_Key.space	Key.space	n/a
386.4255	0.15	772851	keystroke_d	d	n/a
386.5305	0.12	773061	keystroke_o	o	n/a
386.696	0.149	773392	keystroke_n	n	n/a
386.83	0.15	773660	keystroke_a	a	n/a
386.935	0.135	773870	keystroke_l	l	n/a
387.55	0.15	775100	keystroke_d	d	n/a
387.911	0.1345	775822	keystroke_Key.space	Key.space	n/a
388.1355	0.105	776271	keystroke_b	b	n/a
388.3605	0.1355	776721	keystroke_u	u	n/a
388.8255	0.15	777651	keystroke_s	s	n/a
389.081	0.105	778162	keystroke_e	e	n/a
389.276	0.15	778552	keystroke_s	s	n/a
389.726	0.15	779452	keystroke_Key.space	Key.space	n/a
389.906	0.15	779812	keystroke_a	a	n/a
390.011	0.135	780022	keystroke_n	n	n/a
390.176	0.12	780352	keystroke_t	t	n/a
390.311	0.135	780622	keystroke_i	i	n/a
390.566	0.15	781132	keystroke_q	q	n/a
390.701	0.12	781402	keystroke_u	u	n/a
390.776	0.12	781552	keystroke_e	e	n/a
390.971	0.135	781942	keystroke_s	s	n/a
392.0355	0.135	784071	keystroke_Key.enter	Key.enter	n/a
392.1765	8.7255	784353	prompt	n/a	outcomes cause repairs suited\n
393.8055	0.18	787611	keystroke_o	o	n/a
393.8805	0.165	787761	keystroke_u	u	n/a
393.9555	0.105	787911	keystroke_t	t	n/a
394.1955	0.12	788391	keystroke_c	c	n/a
394.2705	0.105	788541	keystroke_o	o	n/a
394.4505	0.12	788901	keystroke_m	m	n/a
394.5555	0.105	789111	keystroke_e	e	n/a
394.7505	0.15	789501	keystroke_s	s	n/a
394.9305	0.15	789861	keystroke_Key.space	Key.space	n/a
395.1555	0.135	790311	keystroke_c	c	n/a
395.3055	0.135	790611	keystroke_a	a	n/a
395.4705	0.1505	790941	keystroke_u	u	n/a
395.591	0.18	791182	keystroke_s	s	n/a
395.666	0.165	791332	keystroke_e	e	n/a
396.371	0.15	792742	keystroke_Key.space	Key.space	n/a
396.671	0.135	793342	keystroke_r	r	n/a
396.791	0.135	793582	keystroke_e	e	n/a
397.031	0.135	794062	keystroke_p	p	n/a
397.151	0.1495	794302	keystroke_a	a	n/a
397.3305	0.15	794661	keystroke_i	i	n/a
397.8105	0.1045	795621	keystroke_r	r	n/a
398.08	0.15	796160	keystroke_s	s	n/a
398.605	0.151	797210	keystroke_Key.space	Key.space	n/a
398.741	0.12	797482	keystroke_s	s	n/a
398.846	0.15	797692	keystroke_u	u	n/a
398.921	0.15	797842	keystroke_i	i	n/a
399.056	0.09	798112	keystroke_t	t	n/a
399.176	0.15	798352	keystroke_e	e	n/a
399.686	0.15	799372	keystroke_d	d	n/a
400.6905	0.21	801381	keystroke_Key.enter	Key.enter	n/a
400.9045	12.418	801809	prompt	n/a	apparatus progressive procurement committed\n
401.816	0.15	803632	keystroke_a	a	n/a
402.056	0.075	804112	keystroke_p	p	n/a
402.191	0.15	804382	keystroke_p	p	n/a
402.746	0.135	805492	keystroke_a	a	n/a
403.061	0.12	806122	keystroke_r	r	n/a
403.301	0.12	806602	keystroke_a	a	n/a
403.601	0.105	807202	keystroke_t	t	n/a
403.811	0.1345	807622	keystroke_u	u	n/a
403.9605	0.1355	807921	keystroke_s	s	n/a
404.335	0.12	808670	keystroke_Key.space	Key.space	n/a
404.515	0.121	809030	keystroke_p	p	n/a
404.621	0.119	809242	keystroke_r	r	n/a
404.756	0.12	809512	keystroke_o	o	n/a
404.906	0.075	809812	keystroke_g	g	n/a
405.101	0.18	810202	keystroke_r	r	n/a
405.205	0.136	810410	keystroke_e	e	n/a
405.5355	0.09	811071	keystroke_s	s	n/a
405.7155	0.135	811431	keystroke_s	s	n/a
405.865	0.151	811730	keystroke_i	i	n/a
405.97	0.105	811940	keystroke_v	v	n/a
406.135	0.135	812270	keystroke_e	e	n/a
406.33	0.1355	812660	keystroke_Key.space	Key.space	n/a
406.6005	0.12	813201	keystroke_p	p	n/a
406.7055	0.12	813411	keystroke_r	r	n/a
406.8265	0.149	813653	keystroke_o	o	n/a
407.3055	0.12	814611	keystroke_c	c	n/a
407.4705	0.12	814941	keystroke_u	u	n/a
408.3255	0.105	816651	keystroke_r	r	n/a
408.4605	0.135	816921	keystroke_e	e	n/a
408.6105	0.165	817221	keystroke_m	m	n/a
409.661	0.15	819322	keystroke_e	e	n/a
409.8555	0.105	819711	keystroke_n	n	n/a
410.0055	0.12	820011	keystroke_t	t	n/a
410.5455	0.135	821091	keystroke_Key.space	Key.space	n/a
410.7555	0.1355	821511	keystroke_c	c	n/a
410.8455	0.1055	821691	keystroke_o	o	n/a
411.071	0.09	822142	keystroke_m	m	n/a
411.236	0.12	822472	keystroke_m	m	n/a
411.4605	0.12	822921	keystroke_i	i	n/a
411.5655	0.105	823131	keystroke_t	t	n/a
412.3455	0.195	824691	keystroke_t	t	n/a
412.5555	0.045	825111	keystroke_e	e	n/a
412.7055	0.12	825411	keystroke_d	d	n/a
413.1405	0.18	826281	keystroke_Key.enter	Key.enter	n/a
413.325	9.882	826650	prompt	n/a	word worse refined issues\n
414.386	0.149	828772	keystroke_w	w	n/a
414.731	0.164	829462	keystroke_o	o	n/a
415.1205	0.105	830241	keystroke_r	r	n/a
415.3905	0.15	830781	keystroke_d	d	n/a
415.8105	0.1355	831621	keystroke_Key.space	Key.space	n/a
415.9755	0.15	831951	keystroke_s	s	n/a
416.1405	0.165	832281	keystroke_o	o	n/a
416.336	0.12	832672	keystroke_r	r	n/a
416.8005	0.105	833601	keystroke_Key.backspace	Key.backspace	n/a
416.9805	0.135	833961	keystroke_Key.backspace	Key.backspace	n/a
417.1005	0.135	834201	keystroke_w	w	n/a
417.2655	0.135	834531	keystroke_o	o	n/a
417.5655	0.09	835131	keystroke_Key.backspace	Key.backspace	n/a
417.746	0.075	835492	keystroke_Key.backspace	Key.backspace	n/a
417.911	0.135	835822	keystroke_Key.backspace	Key.backspace	n/a
418.061	0.105	836122	keystroke_w	w	n/a
418.181	0.135	836362	keystroke_o	o	n/a
418.286	0.15	836572	keystroke_s	s	n/a
418.376	0.18	836752	keystroke_r	r	n/a
418.976	0.075	837952	keystroke_Key.backspace	Key.backspace	n/a
419.126	0.135	838252	keystroke_Key.backspace	Key.backspace	n/a
419.186	0.135	838372	keystroke_r	r	n/a
419.381	0.18	838762	keystroke_s	s	n/a
419.471	0.15	838942	keystroke_e	e	n/a
419.9955	0.15	839991	keystroke_Key.space	Key.space	n/a
420.2505	0.06	840501	keystroke_f	f	n/a
420.6105	0.12	841221	keystroke_Key.backspace	Key.backspace	n/a
420.7155	0.15	841431	keystroke_r	r	n/a
420.806	0.135	841612	keystroke_e	e	n/a
421.046	0.135	842092	keystroke_f	f	n/a
421.196	0.165	842392	keystroke_i	i	n/a
421.271	0.135	842542	keystroke_n	n	n/a
421.436	0.1195	842872	keystroke_e	e	n/a
421.6305	0.15	843261	keystroke_d	d	n/a
421.7955	0.1355	843591	keystroke_Key.space	Key.space	n/a
422.036	0.135	844072	keystroke_i	i	n/a
422.156	0.12	844312	keystroke_s	s	n/a
422.336	0.15	844672	keystroke_s	s	n/a
422.471	0.135	844942	keystroke_u	u	n/a
422.546	0.105	845092	keystroke_e	e	n/a
422.711	0.165	845422	keystroke_s	s	n/a
423.056	0.15	846112	keystroke_Key.enter	Key.enter	n/a
423.2105	5.3665	846421	prompt	n/a	tools stuck roughly homes\n
423.9555	0.12	847911	keystroke_t	t	n/a
424.1055	0.06	848211	keystroke_o	o	n/a
424.2705	0.12	848541	keystroke_o	o	n/a
424.4505	0.1655	848901	keystroke_l	l	n/a
424.631	0.15	849262	keystroke_s	s	n/a
424.9	0.1655	849800	keystroke_Key.space	Key.space	n/a
425.0955	0.12	850191	keystroke_s	s	n/a
425.2605	0.105	850521	keystroke_t	t	n/a
425.3955	0.105	850791	keystroke_u	u	n/a
425.4855	0.135	850971	keystroke_c	c	n/a
425.6355	0.12	851271	keystroke_k	k	n/a
426.0405	0.15	852081	keystroke_Key.space	Key.space	n/a
426.4005	0.12	852801	keystroke_r	r	n/a
426.4905	0.18	852981	keystroke_o	o	n/a
426.5655	0.12	853131	keystroke_u	u	n/a
426.6405	0.09	853281	keystroke_g	g	n/a
426.7455	0.135	853491	keystroke_h	h	n/a
427.0005	0.12	854001	keystroke_l	l	n/a
427.2405	0.15	854481	keystroke_y	y	n/a
427.4055	0.135	854811	keystroke_Key.space	Key.space	n/a
427.6455	0.135	855291	keystroke_h	h	n/a
427.7655	0.12	855531	keystroke_o	o	n/a
427.9755	0.12	855951	keystroke_m	m	n/a
428.0805	0.09	856161	keystroke_e	e	n/a
428.2455	0.1495	856491	keystroke_s	s	n/a
428.425	0.15	856850	keystroke_Key.enter	Key.enter	n/a
428.581	11.9665	857162	prompt	n/a	periodically mississippi along leading\n
429.7455	0.135	859491	keystroke_p	p	n/a
430.1955	0.12	860391	keystroke_e	e	n/a
430.4355	0.12	860871	keystroke_r	r	n/a
430.6605	0.12	861321	keystroke_i	i	n/a
431.366	0.1645	862732	keystroke_o	o	n/a
431.9805	0.12	863961	keystroke_d	d	n/a
432.1005	0.135	864201	keystroke_i	i	n/a
432.2205	0.135	864441	keystroke_c	c	n/a
432.4305	0.1355	864861	keystroke_a	a	n/a
432.581	0.075	865162	keystroke_l	l	n/a
432.761	0.12	865522	keystroke_l	l	n/a
432.971	0.15	865942	keystroke_y	y	n/a
433.046	0.105	866092	keystroke_Key.space	Key.space	n/a
433.271	0.105	866542	keystroke_m	m	n/a
433.481	0.12	866962	keystroke_i	i	n/a
434.111	0.15	868222	keystroke_s	s	n/a
434.426	0.134	868852	keystroke_s	s	n/a
434.666	0.12	869332	keystroke_i	i	n/a
435.416	0.075	870832	keystroke_s	s	n/a
435.581	0.134	871162	keystroke_s	s	n/a
435.761	0.1495	871522	keystroke_i	i	n/a
437.171	0.09	874342	keystroke_p	p	n/a
437.336	0.12	874672	keystroke_p	p	n/a
437.561	0.15	875122	keystroke_i	i	n/a
438.206	0.15	876412	keystroke_Key.space	Key.space	n/a
438.446	0.105	876892	keystroke_l	l	n/a
438.686	0.135	877372	keystroke_o	o	n/a
438.746	0.165	877492	keystroke_n	n	n/a
438.881	0.12	877762	keystroke_g	g	n/a
439.016	0.135	878032	keystroke_Key.space	Key.space	n/a
439.331	0.1795	878662	keystroke_l	l	n/a
439.421	0.1045	878842	keystroke_e	e	n/a
439.5705	0.15	879141	keystroke_a	a	n/a
439.6605	0.195	879321	keystroke_d	d	n/a
439.8705	0.165	879741	keystroke_i	i	n/a
439.9305	0.165	879861	keystroke_n	n	n/a
440.0505	0.105	880101	keystroke_g	g	n/a
440.3955	0.15	880791	keystroke_Key.enter	Key.enter	n/a
440.55	8.787	881100	prompt	n/a	absolute crisis dentists christopher\n
441.2505	0.15	882501	keystroke_a	a	n/a
441.3705	0.09	882741	keystroke_b	b	n/a
442.076	0.165	884152	keystroke_s	s	n/a
442.196	0.12	884392	keystroke_o	o	n/a
442.391	0.12	884782	keystroke_l	l	n/a
442.541	0.165	885082	keystroke_u	u	n/a
442.646	0.105	885292	keystroke_t	t	n/a
442.766	0.165	885532	keystroke_e	e	n/a
443.051	0.135	886102	keystroke_Key.space	Key.space	n/a
443.276	0.105	886552	keystroke_c	c	n/a
443.516	0.1195	887032	keystroke_r	r	n/a
443.6505	0.105	887301	keystroke_i	i	n/a
444.056	0.12	888112	keystroke_s	s	n/a
444.161	0.12	888322	keystroke_i	i	n/a
444.251	0.15	888502	keystroke_s	s	n/a
444.76	0.165	889520	keystroke_Key.space	Key.space	n/a
444.97	0.091	889940	keystroke_d	d	n/a
445.136	0.15	890272	keystroke_e	e	n/a
445.241	0.105	890482	keystroke_n	n	n/a
445.391	0.105	890782	keystroke_t	t	n/a
445.511	0.12	891022	keystroke_i	i	n/a
445.631	0.225	891262	keystroke_s	s	n/a
445.781	0.165	891562	keystroke_t	t	n/a
445.975	0.166	891950	keystroke_s	s	n/a
446.3805	0.135	892761	keystroke_Key.space	Key.space	n/a
446.59	0.135	893180	keystroke_c	c	n/a
446.71	0.12	893420	keystroke_h	h	n/a
446.86	0.15	893720	keystroke_r	r	n/a
447.04	0.135	894080	keystroke_i	i	n/a
447.16	0.15	894320	keystroke_s	s	n/a
447.385	0.12	894770	keystroke_t	t	n/a
447.49	0.135	894980	keystroke_o	o	n/a
448.15	0.135	896300	keystroke_p	p	n/a
448.39	0.09	896780	keystroke_h	h	n/a
448.465	0.15	896930	keystroke_e	e	n/a
448.54	0.165	897080	keystroke_r	r	n/a
449.26	0.075	898520	keystroke_Key.enter	Key.enter	n/a
449.34	9.357	898680	prompt	n/a	determining world foundation carlos\n
450.4605	0.165	900921	keystroke_d	d	n/a
450.6555	0.12	901311	keystroke_e	e	n/a
450.82	0.105	901640	keystroke_t	t	n/a
450.97	0.15	901940	keystroke_e	e	n/a
451.0605	0.1495	902121	keystroke_r	r	n/a
451.24	0.1055	902480	keystroke_m	m	n/a
451.45	0.1055	902900	keystroke_i	i	n/a
452.0055	0.12	904011	keystroke_n	n	n/a
452.155	0.1355	904310	keystroke_i	i	n/a
452.2305	0.135	904461	keystroke_n	n	n/a
452.41	0.12	904820	keystroke_g	g	n/a
452.59	0.1355	905180	keystroke_Key.space	Key.space	n/a
452.8155	0.135	905631	keystroke_w	w	n/a
452.9055	0.12	905811	keystroke_o	o	n/a
453.0405	0.1055	906081	keystroke_r	r	n/a
453.146	0.12	906292	keystroke_l	l	n/a
453.236	0.135	906472	keystroke_d	d	n/a
453.581	0.135	907162	keystroke_Key.space	Key.space	n/a
453.746	0.1195	907492	keystroke_f	f	n/a
454.0305	0.165	908061	keystroke_o	o	n/a
454.0905	0.135	908181	keystroke_u	u	n/a
454.3155	0.105	908631	keystroke_n	n	n/a
454.541	0.15	909082	keystroke_d	d	n/a
454.736	0.225	909472	keystroke_a	a	n/a
454.901	0.135	909802	keystroke_t	t	n/a
455.006	0.105	910012	keystroke_i	i	n/a
455.051	0.27	910102	keystroke_o	o	n/a
455.261	0.09	910522	keystroke_n	n	n/a
456.3705	0.165	912741	keystroke_Key.space	Key.space	n/a
456.851	0.059	913702	keystroke_c	c	n/a
456.925	0.18	913850	keystroke_a	a	n/a
457.031	0.165	914062	keystroke_r	r	n/a
457.285	0.12	914570	keystroke_l	l	n/a
457.496	0.134	914992	keystroke_o	o	n/a
457.66	0.166	915320	keystroke_s	s	n/a
458.531	0.1645	917062	keystroke_Key.enter	Key.enter	n/a
458.7	9.7775	917400	prompt	n/a	lawrence established lawn barbie\n
459.476	0.15	918952	keystroke_l	l	n/a
459.551	0.12	919102	keystroke_a	a	n/a
459.761	0.12	919522	keystroke_w	w	n/a
460.5105	0.12	921021	keystroke_r	r	n/a
460.841	0.135	921682	keystroke_e	e	n/a
461.111	0.135	922222	keystroke_n	n	n/a
461.231	0.1945	922462	keystroke_c	c	n/a
461.3355	0.165	922671	keystroke_e	e	n/a
461.5905	0.15	923181	keystroke_Key.space	Key.space	n/a
461.7855	0.1205	923571	keystroke_e	e	n/a
462.011	0.165	924022	keystroke_s	s	n/a
462.161	0.12	924322	keystroke_t	t	n/a
462.326	0.15	924652	keystroke_a	a	n/a
462.461	0.12	924922	keystroke_b	b	n/a
463.0905	0.105	926181	keystroke_l	l	n/a
463.3005	0.12	926601	keystroke_i	i	n/a
463.4055	0.135	926811	keystroke_s	s	n/a
463.5405	0.135	927081	keystroke_h	h	n/a
463.6305	0.12	927261	keystroke_e	e	n/a
463.8105	0.135	927621	keystroke_d	d	n/a
464.246	0.135	928492	keystroke_Key.space	Key.space	n/a
464.456	0.165	928912	keystroke_l	l	n/a
464.561	0.12	929122	keystroke_a	a	n/a
465.236	0.15	930472	keystroke_w	w	n/a
465.475	0.135	930950	keystroke_n	n	n/a
465.82	0.1355	931640	keystroke_Key.space	Key.space	n/a
466.1355	0.105	932271	keystroke_b	b	n/a
466.2705	0.195	932541	keystroke_a	a	n/a
466.3605	0.165	932721	keystroke_r	r	n/a
466.766	0.135	933532	keystroke_b	b	n/a
467.336	0.135	934672	keystroke_i	i	n/a
467.441	0.165	934882	keystroke_e	e	n/a
468.2955	0.18	936591	keystroke_Key.enter	Key.enter	n/a
468.4805	6.7165	936961	prompt	n/a	deviant perl companion rays\n
469.2105	0.09	938421	keystroke_d	d	n/a
469.3905	0.135	938781	keystroke_e	e	n/a
469.7355	0.135	939471	keystroke_v	v	n/a
469.9605	0.135	939921	keystroke_i	i	n/a
470.0805	0.135	940161	keystroke_a	a	n/a
470.2455	0.15	940491	keystroke_n	n	n/a
470.3805	0.12	940761	keystroke_t	t	n/a
470.5605	0.15	941121	keystroke_Key.space	Key.space	n/a
470.875	0.15	941750	keystroke_p	p	n/a
470.98	0.15	941960	keystroke_e	e	n/a
471.055	0.165	942110	keystroke_r	r	n/a
471.52	0.15	943040	keystroke_l	l	n/a
472.076	0.15	944152	keystroke_Key.space	Key.space	n/a
472.391	0.15	944782	keystroke_c	c	n/a
472.481	0.105	944962	keystroke_o	o	n/a
472.661	0.075	945322	keystroke_m	m	n/a
472.811	0.135	945622	keystroke_p	p	n/a
472.916	0.135	945832	keystroke_a	a	n/a
473.441	0.105	946882	keystroke_n	n	n/a
473.6205	0.105	947241	keystroke_i	i	n/a
473.8155	0.1805	947631	keystroke_o	o	n/a
473.906	0.165	947812	keystroke_n	n	n/a
474.161	0.135	948322	keystroke_Key.space	Key.space	n/a
474.311	0.12	948622	keystroke_r	r	n/a
474.475	0.136	948950	keystroke_a	a	n/a
474.626	0.15	949252	keystroke_y	y	n/a
474.746	0.15	949492	keystroke_s	s	n/a
475.0455	0.15	950091	keystroke_Key.enter	Key.enter	n/a
475.2	10.842	950400	prompt	n/a	surf republican claim released\n
475.9305	0.12	951861	keystroke_s	s	n/a
476.1105	0.12	952221	keystroke_u	u	n/a
476.2155	0.135	952431	keystroke_f	f	n/a
476.98	0.09	953960	keystroke_Key.backspace	Key.backspace	n/a
477.055	0.106	954110	keystroke_r	r	n/a
477.235	0.15	954470	keystroke_f	f	n/a
477.746	0.165	955492	keystroke_Key.space	Key.space	n/a
478.1055	0.15	956211	keystroke_r	r	n/a
478.1805	0.165	956361	keystroke_e	e	n/a
478.4205	0.12	956841	keystroke_p	p	n/a
478.6305	0.1205	957261	keystroke_u	u	n/a
479.8755	0.12	959751	keystroke_b	b	n/a
480.1305	0.12	960261	keystroke_l	l	n/a
480.3705	0.1355	960741	keystroke_i	i	n/a
480.881	0.15	961762	keystroke_c	c	n/a
481.076	0.15	962152	keystroke_a	a	n/a
481.571	0.134	963142	keystroke_n	n	n/a
481.841	0.134	963682	keystroke_Key.space	Key.space	n/a
482.036	0.165	964072	keystroke_c	c	n/a
482.141	0.135	964282	keystroke_l	l	n/a
482.261	0.15	964522	keystroke_a	a	n/a
482.411	0.15	964822	keystroke_i	i	n/a
482.501	0.075	965002	keystroke_n	n	n/a
483.266	0.104	966532	keystroke_Key.backspace	Key.backspace	n/a
483.566	0.135	967132	keystroke_m	m	n/a
483.806	0.1345	967612	keystroke_Key.space	Key.space	n/a
484.0005	0.165	968001	keystroke_r	r	n/a
484.0905	0.15	968181	keystroke_e	e	n/a
484.2705	0.15	968541	keystroke_l	l	n/a
484.3755	0.1505	968751	keystroke_e	e	n/a
484.571	0.1795	969142	keystroke_a	a	n/a
484.7055	0.165	969411	keystroke_s	s	n/a
484.7655	0.165	969531	keystroke_e	e	n/a
485.4105	0.135	970821	keystroke_d	d	n/a
485.8755	0.165	971751	keystroke_Key.enter	Key.enter	n/a
486.0475	9.5345	972095	prompt	n/a	rooms induced suggesting telephone\n
486.7755	0.135	973551	keystroke_r	r	n/a
487.0155	0.045	974031	keystroke_o	o	n/a
487.1655	0.105	974331	keystroke_o	o	n/a
487.3605	0.12	974721	keystroke_m	m	n/a
487.4955	0.15	974991	keystroke_s	s	n/a
487.781	0.1345	975562	keystroke_Key.space	Key.space	n/a
488.0355	0.165	976071	keystroke_i	i	n/a
488.1255	0.135	976251	keystroke_n	n	n/a
488.2905	0.12	976581	keystroke_d	d	n/a
488.3955	0.135	976791	keystroke_u	u	n/a
488.5155	0.1805	977031	keystroke_c	c	n/a
488.651	0.15	977302	keystroke_e	e	n/a
488.996	0.165	977992	keystroke_d	d	n/a
489.326	0.135	978652	keystroke_Key.space	Key.space	n/a
489.536	0.135	979072	keystroke_s	s	n/a
489.641	0.12	979282	keystroke_u	u	n/a
489.821	0.075	979642	keystroke_g	g	n/a
489.986	0.12	979972	keystroke_g	g	n/a
490.181	0.135	980362	keystroke_e	e	n/a
490.331	0.225	980662	keystroke_s	s	n/a
490.436	0.165	980872	keystroke_t	t	n/a
490.661	0.195	981322	keystroke_i	i	n/a
490.766	0.15	981532	keystroke_n	n	n/a
490.886	0.12	981772	keystroke_g	g	n/a
491.066	0.12	982132	keystroke_Key.space	Key.space	n/a
491.2905	0.09	982581	keystroke_t	t	n/a
491.4255	0.12	982851	keystroke_e	e	n/a
491.5605	0.1505	983121	keystroke_l	l	n/a
491.816	0.0895	983632	keystroke_t	t	n/a
492.5505	0.135	985101	keystroke_Key.backspace	Key.backspace	n/a
492.7005	0.135	985401	keystroke_e	e	n/a
493.2105	0.12	986421	keystroke_p	p	n/a
493.3905	0.105	986781	keystroke_h	h	n/a
493.5105	0.15	987021	keystroke_o	o	n/a
493.6005	0.15	987201	keystroke_n	n	n/a
494.0505	0.165	988101	keystroke_e	e	n/a
495.431	0.149	990862	keystroke_Key.enter	Key.enter	n/a
495.5855	11.8465	991171	prompt	n/a	baking coordinator ages public\n
496.3755	0.12	992751	keystroke_b	b	n/a
496.78	0.15	993560	keystroke_a	a	n/a
496.87	0.12	993740	keystroke_k	k	n/a
497.08	0.15	994160	keystroke_i	i	n/a
497.1405	0.135	994281	keystroke_n	n	n/a
497.2605	0.1355	994521	keystroke_g	g	n/a
497.3805	0.12	994761	keystroke_Key.space	Key.space	n/a
497.636	0.1195	995272	keystroke_c	c	n/a
497.7555	0.0905	995511	keystroke_o	o	n/a
498.116	0.135	996232	keystroke_o	o	n/a
498.296	0.1045	996592	keystroke_r	r	n/a
498.5505	0.15	997101	keystroke_d	d	n/a
498.6705	0.105	997341	keystroke_i	i	n/a
498.8655	0.135	997731	keystroke_n	n	n/a
498.9705	0.15	997941	keystroke_a	a	n/a
499.1355	0.1355	998271	keystroke_t	t	n/a
499.3905	0.135	998781	keystroke_o	o	n/a
499.5105	0.12	999021	keystroke_r	r	n/a
500.125	0.165	1000250	keystroke_Key.space	Key.space	n/a
500.41	0.105	1000820	keystroke_g	g	n/a
500.575	0.135	1001150	keystroke_a	a	n/a
500.695	0.09	1001390	keystroke_g	g	n/a
500.8455	0.12	1001691	keystroke_e	e	n/a
501.0555	0.15	1002111	keystroke_s	s	n/a
501.4755	0.09	1002951	keystroke_Key.backspace	Key.backspace	n/a
501.6705	0.06	1003341	keystroke_Key.backspace	Key.backspace	n/a
501.9705	0.09	1003941	keystroke_Key.backspace	Key.backspace	n/a
502.1655	0.0605	1004331	keystroke_Key.backspace	Key.backspace	n/a
502.451	0.015	1004902	keystroke_Key.backspace	Key.backspace	n/a
502.556	0.165	1005112	keystroke_a	a	n/a
502.691	0.135	1005382	keystroke_g	g	n/a
502.871	0.15	1005742	keystroke_e	e	n/a
503.636	0.15	1007272	keystroke_s	s	n/a
504.025	0.15	1008050	keystroke_Key.space	Key.space	n/a
504.55	0.105	1009100	keystroke_p	p	n/a
504.775	0.1505	1009550	keystroke_u	u	n/a
505.0455	0.12	1010091	keystroke_b	b	n/a
505.2555	0.135	1010511	keystroke_l	l	n/a
505.7505	0.1345	1011501	keystroke_i	i	n/a
505.8255	0.1645	1011651	keystroke_c	c	n/a
507.236	0.195	1014472	keystroke_Key.enter	Key.enter	n/a
507.4355	9.5065	1014871	prompt	n/a	pretty accomplished conservation cottages\n
508.391	0.12	1016782	keystroke_p	p	n/a
508.481	0.1945	1016962	keystroke_r	r	n/a
508.571	0.1645	1017142	keystroke_e	e	n/a
508.8555	0.075	1017711	keystroke_t	t	n/a
509.0205	0.12	1018041	keystroke_t	t	n/a
509.1255	0.15	1018251	keystroke_y	y	n/a
509.2605	0.135	1018521	keystroke_Key.space	Key.space	n/a
509.5305	0.18	1019061	keystroke_a	a	n/a
510.025	0.12	1020050	keystroke_c	c	n/a
510.205	0.165	1020410	keystroke_c	c	n/a
510.385	0.105	1020770	keystroke_o	o	n/a
510.58	0.0905	1021160	keystroke_m	m	n/a
510.7755	0.12	1021551	keystroke_p	p	n/a
511.0305	0.15	1022061	keystroke_l	l	n/a
511.6305	0.1055	1023261	keystroke_i	i	n/a
511.826	0.135	1023652	keystroke_s	s	n/a
511.931	0.1345	1023862	keystroke_h	h	n/a
512.0505	0.105	1024101	keystroke_e	e	n/a
512.2305	0.15	1024461	keystroke_d	d	n/a
512.4255	0.135	1024851	keystroke_Key.space	Key.space	n/a
512.74	0.135	1025480	keystroke_c	c	n/a
512.845	0.15	1025690	keystroke_o	o	n/a
512.905	0.151	1025810	keystroke_n	n	n/a
513.4005	0.255	1026801	keystroke_s	s	n/a
513.5355	0.225	1027071	keystroke_e	e	n/a
513.6705	0.18	1027341	keystroke_r	r	n/a
514.1655	0.105	1028331	keystroke_v	v	n/a
514.3305	0.135	1028661	keystroke_a	a	n/a
514.5105	0.12	1029021	keystroke_t	t	n/a
514.6455	0.1795	1029291	keystroke_i	i	n/a
514.735	0.195	1029470	keystroke_o	o	n/a
514.84	0.165	1029680	keystroke_n	n	n/a
515.05	0.12	1030100	keystroke_Key.space	Key.space	n/a
515.366	0.1195	1030732	keystroke_c	c	n/a
515.5155	0.15	1031031	keystroke_o	o	n/a
515.681	0.0745	1031362	keystroke_t	t	n/a
515.8605	0.105	1031721	keystroke_t	t	n/a
516.0255	0.18	1032051	keystroke_a	a	n/a
516.1755	0.09	1032351	keystroke_g	g	n/a
516.3255	0.09	1032651	keystroke_e	e	n/a
516.5205	0.135	1033041	keystroke_s	s	n/a
516.776	0.1645	1033552	keystroke_Key.enter	Key.enter	n/a
516.9445	8.1575	1033889	prompt	n/a	offer prev preserve calling\n
517.6305	0.135	1035261	keystroke_o	o	n/a
517.7355	0.09	1035471	keystroke_f	f	n/a
517.916	0.105	1035832	keystroke_f	f	n/a
518.081	0.1195	1036162	keystroke_e	e	n/a
518.1555	0.135	1036311	keystroke_r	r	n/a
518.3505	0.135	1036701	keystroke_Key.space	Key.space	n/a
518.5305	0.1505	1037061	keystroke_p	p	n/a
518.591	0.165	1037182	keystroke_r	r	n/a
518.696	0.12	1037392	keystroke_e	e	n/a
518.921	0.12	1037842	keystroke_v	v	n/a
519.656	0.135	1039312	keystroke_Key.space	Key.space	n/a
519.881	0.135	1039762	keystroke_p	p	n/a
519.956	0.18	1039912	keystroke_r	r	n/a
520.061	0.12	1040122	keystroke_e	e	n/a
520.331	0.225	1040662	keystroke_s	s	n/a
520.421	0.225	1040842	keystroke_e	e	n/a
520.541	0.165	1041082	keystroke_r	r	n/a
520.886	0.12	1041772	keystroke_v	v	n/a
521.096	0.135	1042192	keystroke_e	e	n/a
521.7105	0.165	1043421	keystroke_Key.space	Key.space	n/a
522.0855	0.12	1044171	keystroke_c	c	n/a
522.2505	0.15	1044501	keystroke_a	a	n/a
522.4155	0.075	1044831	keystroke_l	l	n/a
522.5805	0.12	1045161	keystroke_l	l	n/a
522.761	0.1645	1045522	keystroke_i	i	n/a
522.8505	0.1355	1045701	keystroke_n	n	n/a
522.971	0.1045	1045942	keystroke_g	g	n/a
524.935	0.165	1049870	keystroke_Key.enter	Key.enter	n/a
525.1055	8.487	1050211	prompt	n/a	fisheries disco sons laugh\n
525.955	0.15	1051910	keystroke_f	f	n/a
526.5105	0.15	1053021	keystroke_i	i	n/a
526.7655	0.15	1053531	keystroke_s	s	n/a
526.9005	0.135	1053801	keystroke_h	h	n/a
527.4105	0.135	1054821	keystroke_e	e	n/a
527.9505	0.135	1055901	keystroke_r	r	n/a
528.1755	0.15	1056351	keystroke_i	i	n/a
528.3405	0.105	1056681	keystroke_e	e	n/a
528.5355	0.165	1057071	keystroke_s	s	n/a
528.8805	0.15	1057761	keystroke_Key.space	Key.space	n/a
529.1355	0.12	1058271	keystroke_d	d	n/a
529.2705	0.105	1058541	keystroke_i	i	n/a
529.3305	0.135	1058661	keystroke_s	s	n/a
529.525	0.151	1059050	keystroke_c	c	n/a
529.661	0.15	1059322	keystroke_o	o	n/a
530.3355	0.1205	1060671	keystroke_Key.space	Key.space	n/a
530.471	0.165	1060942	keystroke_s	s	n/a
530.651	0.18	1061302	keystroke_o	o	n/a
530.726	0.18	1061452	keystroke_n	n	n/a
531.191	0.15	1062382	keystroke_s	s	n/a
531.491	0.15	1062982	keystroke_Key.space	Key.space	n/a
531.73	0.166	1063460	keystroke_l	l	n/a
531.9405	0.135	1063881	keystroke_a	a	n/a
532.0905	0.105	1064181	keystroke_u	u	n/a
532.225	0.12	1064450	keystroke_g	g	n/a
532.3155	0.1345	1064631	keystroke_h	h	n/a
533.4405	0.15	1066881	keystroke_Key.enter	Key.enter	n/a
533.5955	9.9265	1067191	prompt	n/a	decided sleep upgrade tomato\n
534.8655	0.1055	1069731	keystroke_d	d	n/a
535.061	0.105	1070122	keystroke_e	e	n/a
535.511	0.135	1071022	keystroke_c	c	n/a
535.841	0.12	1071682	keystroke_i	i	n/a
535.946	0.12	1071892	keystroke_d	d	n/a
536.141	0.15	1072282	keystroke_e	e	n/a
536.741	0.15	1073482	keystroke_d	d	n/a
537.071	0.165	1074142	keystroke_Key.space	Key.space	n/a
537.266	0.165	1074532	keystroke_s	s	n/a
537.461	0.12	1074922	keystroke_l	l	n/a
537.7155	0.12	1075431	keystroke_e	e	n/a
537.911	0.149	1075822	keystroke_e	e	n/a
538.091	0.164	1076182	keystroke_p	p	n/a
538.615	0.1505	1077230	keystroke_Key.space	Key.space	n/a
538.8855	0.09	1077771	keystroke_u	u	n/a
539.005	0.1655	1078010	keystroke_p	p	n/a
539.38	0.09	1078760	keystroke_g	g	n/a
539.575	0.18	1079150	keystroke_r	r	n/a
539.7855	0.1955	1079571	keystroke_a	a	n/a
540.566	0.1195	1081132	keystroke_d	d	n/a
540.8205	0.135	1081641	keystroke_e	e	n/a
541.4505	0.1805	1082901	keystroke_Key.space	Key.space	n/a
541.766	0.135	1083532	keystroke_t	t	n/a
541.856	0.105	1083712	keystroke_o	o	n/a
542.051	0.15	1084102	keystroke_m	m	n/a
542.141	0.15	1084282	keystroke_a	a	n/a
542.426	0.135	1084852	keystroke_t	t	n/a
542.531	0.149	1085062	keystroke_o	o	n/a
543.355	0.165	1086710	keystroke_Key.enter	Key.enter	n/a
543.525	12.417	1087050	prompt	n/a	nursery intended south horizontal\n
544.405	0.135	1088810	keystroke_u	u	n/a
544.7955	0.105	1089591	keystroke_n	n	n/a
545.1855	0.075	1090371	keystroke_Key.backspace	Key.backspace	n/a
545.3655	0.105	1090731	keystroke_Key.backspace	Key.backspace	n/a
545.5905	0.09	1091181	keystroke_n	n	n/a
545.8005	0.1205	1091601	keystroke_u	u	n/a
545.966	0.12	1091932	keystroke_r	r	n/a
546.31	0.195	1092620	keystroke_s	s	n/a
546.385	0.21	1092770	keystroke_e	e	n/a
546.611	0.18	1093222	keystroke_r	r	n/a
546.851	0.135	1093702	keystroke_y	y	n/a
548.1255	0.105	1096251	keystroke_Key.space	Key.space	n/a
548.2905	0.15	1096581	keystroke_i	i	n/a
548.3655	0.135	1096731	keystroke_n	n	n/a
548.5155	0.075	1097031	keystroke_t	t	n/a
548.6955	0.15	1097391	keystroke_e	e	n/a
548.8305	0.135	1097661	keystroke_n	n	n/a
549.2655	0.105	1098531	keystroke_t	t	n/a
549.925	0.12	1099850	keystroke_Key.backspace	Key.backspace	n/a
550.06	0.136	1100120	keystroke_d	d	n/a
550.331	0.12	1100662	keystroke_e	e	n/a
550.526	0.149	1101052	keystroke_d	d	n/a
550.885	0.151	1101770	keystroke_Key.space	Key.space	n/a
551.066	0.165	1102132	keystroke_s	s	n/a
551.201	0.1645	1102402	keystroke_o	o	n/a
551.261	0.1195	1102522	keystroke_u	u	n/a
551.3955	0.12	1102791	keystroke_t	t	n/a
551.4705	0.135	1102941	keystroke_h	h	n/a
551.9355	0.12	1103871	keystroke_Key.space	Key.space	n/a
552.2955	0.105	1104591	keystroke_h	h	n/a
552.5055	0.12	1105011	keystroke_o	o	n/a
552.6265	0.134	1105253	keystroke_r	r	n/a
552.7305	0.15	1105461	keystroke_i	i	n/a
553.1205	0.135	1106241	keystroke_z	z	n/a
553.3605	0.135	1106721	keystroke_o	o	n/a
553.4205	0.165	1106841	keystroke_n	n	n/a
553.5865	0.089	1107173	keystroke_t	t	n/a
553.7655	0.1355	1107531	keystroke_a	a	n/a
553.886	0.165	1107772	keystroke_l	l	n/a
555.7755	0.1655	1111551	keystroke_Key.enter	Key.enter	n/a
555.9455	24.3715	1111891	prompt	n/a	visiting balanced establishing fluid\n
556.9305	0.15	1113861	keystroke_w	w	n/a
557.1255	0.135	1114251	keystroke_i	i	n/a
557.4105	0.18	1114821	keystroke_s	s	n/a
557.9505	0.075	1115901	keystroke_Key.backspace	Key.backspace	n/a
558.131	0.09	1116262	keystroke_Key.backspace	Key.backspace	n/a
558.281	0.15	1116562	keystroke_Key.backspace	Key.backspace	n/a
558.491	0.12	1116982	keystroke_v	v	n/a
558.956	0.135	1117912	keystroke_i	i	n/a
559.346	0.15	1118692	keystroke_s	s	n/a
559.481	0.135	1118962	keystroke_i	i	n/a
559.721	0.12	1119442	keystroke_t	t	n/a
559.8555	0.15	1119711	keystroke_i	i	n/a
559.9455	0.135	1119891	keystroke_n	n	n/a
560.0655	0.135	1120131	keystroke_g	g	n/a
560.5305	0.1355	1121061	keystroke_Key.space	Key.space	n/a
560.8755	0.015	1121751	keystroke_b	b	n/a
561.3855	0.12	1122771	keystroke_a	a	n/a
561.9255	0.15	1123851	keystroke_l	l	n/a
562.1055	0.1345	1124211	keystroke_a	a	n/a
562.42	0.135	1124840	keystroke_c	c	n/a
563.02	0.105	1126040	keystroke_Key.backspace	Key.backspace	n/a
563.26	0.136	1126520	keystroke_n	n	n/a
563.335	0.12	1126670	keystroke_c	c	n/a
563.591	0.149	1127182	keystroke_e	e	n/a
563.8	0.166	1127600	keystroke_d	d	n/a
565.0605	0.165	1130121	keystroke_Key.space	Key.space	n/a
566.381	0.105	1132762	keystroke_e	e	n/a
566.501	0.015	1133002	keystroke_d	d	n/a
566.606	0.135	1133212	keystroke_s	s	n/a
566.756	0.135	1133512	keystroke_t	t	n/a
567.2805	0.075	1134561	keystroke_Key.backspace	Key.backspace	n/a
567.4605	0.12	1134921	keystroke_Key.backspace	Key.backspace	n/a
567.9405	0.12	1135881	keystroke_Key.backspace	Key.backspace	n/a
568.3605	0.15	1136721	keystroke_s	s	n/a
568.6005	0.075	1137201	keystroke_t	t	n/a
568.7505	0.15	1137501	keystroke_a	a	n/a
568.9605	0.1205	1137921	keystroke_b	b	n/a
569.35	0.15	1138700	keystroke_l	l	n/a
569.6355	0.1495	1139271	keystroke_s	s	n/a
569.7405	0.12	1139481	keystroke_i	i	n/a
570.9255	0.15	1141851	keystroke_Key.backspace	Key.backspace	n/a
571.2855	0.15	1142571	keystroke_Key.backspace	Key.backspace	n/a
575.698	0.058	1151396	keystroke_i	i	n/a
575.699	0.042	1151398	keystroke_f	f	n/a
576.461	0.105	1152922	keystroke_Key.backspace	Key.backspace	n/a
577.076	0.15	1154152	keystroke_s	s	n/a
577.166	0.15	1154332	keystroke_h	h	n/a
577.271	0.195	1154542	keystroke_i	i	n/a
577.391	0.165	1154782	keystroke_n	n	n/a
577.526	0.105	1155052	keystroke_g	g	n/a
578.186	0.135	1156372	keystroke_Key.space	Key.space	n/a
578.351	0.15	1156702	keystroke_f	f	n/a
578.516	0.135	1157032	keystroke_l	l	n/a
578.756	0.135	1157512	keystroke_u	u	n/a
579.071	0.15	1158142	keystroke_i	i	n/a
579.4605	0.12	1158921	keystroke_d	d	n/a
580.1655	0.15	1160331	keystroke_Key.enter	Key.enter	n/a
580.32	11.3225	1160640	prompt	n/a	hearing write adelaide smithsonian\n
581.2005	0.12	1162401	keystroke_h	h	n/a
581.2155	0.09	1162431	keystroke_e	e	n/a
581.3805	0.21	1162761	keystroke_a	a	n/a
581.4705	0.15	1162941	keystroke_r	r	n/a
581.7255	0.15	1163451	keystroke_i	i	n/a
581.8005	0.15	1163601	keystroke_n	n	n/a
581.8905	0.12	1163781	keystroke_g	g	n/a
582.0705	0.12	1164141	keystroke_Key.space	Key.space	n/a
582.4305	0.12	1164861	keystroke_w	w	n/a
582.6105	0.1205	1165221	keystroke_r	r	n/a
582.716	0.15	1165432	keystroke_i	i	n/a
582.851	0.105	1165702	keystroke_t	t	n/a
582.971	0.12	1165942	keystroke_e	e	n/a
583.391	0.15	1166782	keystroke_Key.space	Key.space	n/a
583.676	0.165	1167352	keystroke_a	a	n/a
583.796	0.15	1167592	keystroke_d	d	n/a
584.0655	0.12	1168131	keystroke_e	e	n/a
585.4155	0.15	1170831	keystroke_l	l	n/a
585.671	0.15	1171342	keystroke_a	a	n/a
586.331	0.15	1172662	keystroke_i	i	n/a
586.796	0.12	1173592	keystroke_d	d	n/a
586.99	0.136	1173980	keystroke_e	e	n/a
587.635	0.135	1175270	keystroke_Key.space	Key.space	n/a
587.89	0.166	1175780	keystroke_s	s	n/a
588.116	0.15	1176232	keystroke_m	m	n/a
588.536	0.12	1177072	keystroke_i	i	n/a
588.686	0.12	1177372	keystroke_t	t	n/a
588.761	0.135	1177522	keystroke_h	h	n/a
589.1955	0.135	1178391	keystroke_s	s	n/a
589.2855	0.166	1178571	keystroke_o	o	n/a
589.5565	0.119	1179113	keystroke_n	n	n/a
589.7215	0.12	1179443	keystroke_i	i	n/a
590.3055	0.15	1180611	keystroke_a	a	n/a
590.4705	0.15	1180941	keystroke_n	n	n/a
591.4905	0.15	1182981	keystroke_Key.enter	Key.enter	n/a
591.6455	9.162	1183291	prompt	n/a	sustainability stops symptoms index\n
592.4655	0.075	1184931	keystroke_s	s	n/a
592.5705	0.135	1185141	keystroke_u	u	n/a
592.6455	0.12	1185291	keystroke_s	s	n/a
592.916	0.09	1185832	keystroke_t	t	n/a
593.066	0.165	1186132	keystroke_a	a	n/a
593.5605	0.135	1187121	keystroke_i	i	n/a
593.6055	0.165	1187211	keystroke_n	n	n/a
593.9355	0.15	1187871	keystroke_a	a	n/a
594.0555	0.105	1188111	keystroke_b	b	n/a
594.4755	0.105	1188951	keystroke_i	i	n/a
594.6705	0.105	1189341	keystroke_l	l	n/a
594.896	0.12	1189792	keystroke_i	i	n/a
595.061	0.15	1190122	keystroke_t	t	n/a
595.151	0.12	1190302	keystroke_y	y	n/a
595.481	0.105	1190962	keystroke_Key.space	Key.space	n/a
595.676	0.12	1191352	keystroke_s	s	n/a
595.9605	0.105	1191921	keystroke_t	t	n/a
596.0805	0.075	1192161	keystroke_o	o	n/a
596.26	0.106	1192520	keystroke_p	p	n/a
596.395	0.135	1192790	keystroke_s	s	n/a
596.666	0.135	1193332	keystroke_Key.space	Key.space	n/a
596.816	0.135	1193632	keystroke_s	s	n/a
596.996	0.105	1193992	keystroke_y	y	n/a
597.4015	0.074	1194803	keystroke_m	m	n/a
597.5955	0.135	1195191	keystroke_p	p	n/a
597.7455	0.15	1195491	keystroke_t	t	n/a
597.9705	0.135	1195941	keystroke_o	o	n/a
598.2405	0.12	1196481	keystroke_m	m	n/a
598.4205	0.18	1196841	keystroke_s	s	n/a
599.081	0.135	1198162	keystroke_Key.space	Key.space	n/a
599.261	0.15	1198522	keystroke_i	i	n/a
599.351	0.135	1198702	keystroke_n	n	n/a
599.471	0.09	1198942	keystroke_d	d	n/a
599.636	0.12	1199272	keystroke_e	e	n/a
599.801	0.09	1199602	keystroke_n	n	n/a
600.221	0.12	1200442	keystroke_Key.backspace	Key.backspace	n/a
600.3555	0.135	1200711	keystroke_x	x	n/a
600.6555	0.1505	1201311	keystroke_Key.enter	Key.enter	n/a
600.817	7.7905	1201634	prompt	n/a	copyright survivors factory lime\n
601.631	0.165	1203262	keystroke_c	c	n/a
602.4555	0.075	1204911	keystroke_o	o	n/a
602.6205	0.105	1205241	keystroke_p	p	n/a
602.8005	0.135	1205601	keystroke_y	y	n/a
603.0705	0.12	1206141	keystroke_r	r	n/a
603.1605	0.135	1206321	keystroke_i	i	n/a
603.3105	0.105	1206621	keystroke_g	g	n/a
603.4305	0.135	1206861	keystroke_h	h	n/a
603.5505	0.12	1207101	keystroke_t	t	n/a
603.7605	0.1205	1207521	keystroke_Key.space	Key.space	n/a
603.986	0.135	1207972	keystroke_s	s	n/a
604.106	0.135	1208212	keystroke_u	u	n/a
604.181	0.105	1208362	keystroke_r	r	n/a
604.451	0.105	1208902	keystroke_v	v	n/a
604.8255	0.135	1209651	keystroke_i	i	n/a
605.2155	0.1055	1210431	keystroke_v	v	n/a
605.366	0.15	1210732	keystroke_o	o	n/a
605.501	0.105	1211002	keystroke_r	r	n/a
605.741	0.1345	1211482	keystroke_s	s	n/a
606.0255	0.15	1212051	keystroke_Key.space	Key.space	n/a
606.2205	0.1205	1212441	keystroke_f	f	n/a
606.371	0.165	1212742	keystroke_a	a	n/a
606.461	0.135	1212922	keystroke_c	c	n/a
606.7155	0.105	1213431	keystroke_t	t	n/a
606.8055	0.15	1213611	keystroke_o	o	n/a
606.8955	0.135	1213791	keystroke_r	r	n/a
607.0455	0.15	1214091	keystroke_y	y	n/a
607.2255	0.12	1214451	keystroke_Key.space	Key.space	n/a
607.4205	0.09	1214841	keystroke_l	l	n/a
607.6005	0.09	1215201	keystroke_i	i	n/a
607.7805	0.1355	1215561	keystroke_m	m	n/a
607.886	0.135	1215772	keystroke_e	e	n/a
608.471	0.1345	1216942	keystroke_Key.enter	Key.enter	n/a
608.6125	10.7195	1217225	prompt	n/a	presented sections unusual intervals\n
609.596	0.105	1219192	keystroke_p	p	n/a
609.656	0.15	1219312	keystroke_r	r	n/a
609.716	0.15	1219432	keystroke_e	e	n/a
609.926	0.195	1219852	keystroke_s	s	n/a
610.016	0.18	1220032	keystroke_e	e	n/a
610.181	0.135	1220362	keystroke_n	n	n/a
610.286	0.12	1220572	keystroke_t	t	n/a
610.541	0.12	1221082	keystroke_e	e	n/a
610.766	0.12	1221532	keystroke_d	d	n/a
610.946	0.165	1221892	keystroke_Key.space	Key.space	n/a
611.156	0.165	1222312	keystroke_s	s	n/a
611.231	0.15	1222462	keystroke_e	e	n/a
611.501	0.12	1223002	keystroke_c	c	n/a
611.756	0.1195	1223512	keystroke_t	t	n/a
611.8605	0.165	1223721	keystroke_i	i	n/a
611.9505	0.195	1223901	keystroke_o	o	n/a
612.0405	0.18	1224081	keystroke_n	n	n/a
612.5955	0.1495	1225191	keystroke_Key.space	Key.space	n/a
612.821	0.09	1225642	keystroke_u	u	n/a
613.001	0.135	1226002	keystroke_n	n	n/a
613.271	0.15	1226542	keystroke_u	u	n/a
613.481	0.18	1226962	keystroke_s	s	n/a
613.991	0.165	1227982	keystroke_u	u	n/a
614.666	0.1495	1229332	keystroke_a	a	n/a
614.8905	0.1505	1229781	keystroke_l	l	n/a
615.2805	0.15	1230561	keystroke_Key.space	Key.space	n/a
615.521	0.1345	1231042	keystroke_i	i	n/a
615.5805	0.15	1231161	keystroke_n	n	n/a
616.5405	0.12	1233081	keystroke_t	t	n/a
616.7355	0.165	1233471	keystroke_e	e	n/a
616.8105	0.135	1233621	keystroke_r	r	n/a
617.0655	0.105	1234131	keystroke_v	v	n/a
617.2755	0.105	1234551	keystroke_e	e	n/a
618.0405	0.15	1236081	keystroke_Key.backspace	Key.backspace	n/a
618.2515	0.149	1236503	keystroke_a	a	n/a
618.5205	0.151	1237041	keystroke_l	l	n/a
618.6865	0.119	1237373	keystroke_s	s	n/a
619.1805	0.15	1238361	keystroke_Key.enter	Key.enter	n/a
619.3355	8.547	1238671	prompt	n/a	caps twiki agree basename\n
620.0805	0.12	1240161	keystroke_c	c	n/a
620.2905	0.135	1240581	keystroke_a	a	n/a
620.7855	0.15	1241571	keystroke_p	p	n/a
620.9055	0.15	1241811	keystroke_s	s	n/a
621.2355	0.15	1242471	keystroke_Key.space	Key.space	n/a
621.4155	0.105	1242831	keystroke_t	t	n/a
621.6705	0.15	1243341	keystroke_w	w	n/a
621.9865	0.134	1243973	keystroke_i	i	n/a
622.2415	0.089	1244483	keystroke_k	k	n/a
622.436	0.12	1244872	keystroke_i	i	n/a
622.706	0.135	1245412	keystroke_Key.space	Key.space	n/a
623.096	0.12	1246192	keystroke_a	a	n/a
623.291	0.09	1246582	keystroke_g	g	n/a
623.576	0.15	1247152	keystroke_r	r	n/a
624.1015	0.089	1248203	keystroke_e	e	n/a
624.2815	0.1495	1248563	keystroke_e	e	n/a
625.1205	0.135	1250241	keystroke_Key.space	Key.space	n/a
625.3455	0.121	1250691	keystroke_b	b	n/a
625.4515	0.134	1250903	keystroke_a	a	n/a
625.5705	0.226	1251141	keystroke_s	s	n/a
625.6615	0.179	1251323	keystroke_e	e	n/a
626.621	0.1345	1253242	keystroke_n	n	n/a
626.7555	0.12	1253511	keystroke_a	a	n/a
626.8605	0.166	1253721	keystroke_m	m	n/a
626.9805	0.136	1253961	keystroke_e	e	n/a
627.7605	0.1205	1255521	keystroke_Key.enter	Key.enter	n/a
627.885	11.9525	1255770	prompt	n/a	buffer referring kennedy chains\n
628.601	0.0895	1257202	keystroke_b	b	n/a
628.8255	0.12	1257651	keystroke_u	u	n/a
629.081	0.075	1258162	keystroke_f	f	n/a
629.261	0.1055	1258522	keystroke_f	f	n/a
629.426	0.135	1258852	keystroke_e	e	n/a
629.501	0.135	1259002	keystroke_r	r	n/a
629.7705	0.1355	1259541	keystroke_Key.space	Key.space	n/a
629.891	0.15	1259782	keystroke_r	r	n/a
629.966	0.135	1259932	keystroke_e	e	n/a
630.146	0.12	1260292	keystroke_f	f	n/a
630.356	0.105	1260712	keystroke_f	f	n/a
630.536	0.1345	1261072	keystroke_e	e	n/a
630.596	0.1945	1261192	keystroke_r	r	n/a
631.9455	0.135	1263891	keystroke_r	r	n/a
632.1255	0.15	1264251	keystroke_i	i	n/a
632.2005	0.15	1264401	keystroke_n	n	n/a
632.3205	0.12	1264641	keystroke_g	g	n/a
633.1305	0.105	1266261	keystroke_Key.backspace	Key.backspace	n/a
633.3255	0.12	1266651	keystroke_Key.backspace	Key.backspace	n/a
633.5505	0.075	1267101	keystroke_Key.backspace	Key.backspace	n/a
633.7305	0.075	1267461	keystroke_Key.backspace	Key.backspace	n/a
633.896	0.105	1267792	keystroke_Key.backspace	Key.backspace	n/a
634.061	0.12	1268122	keystroke_Key.backspace	Key.backspace	n/a
634.316	0.105	1268632	keystroke_Key.backspace	Key.backspace	n/a
634.8705	0.15	1269741	keystroke_e	e	n/a
635.0055	0.15	1270011	keystroke_r	r	n/a
635.3955	0.12	1270791	keystroke_r	r	n/a
635.6205	0.136	1271241	keystroke_i	i	n/a
635.6955	0.136	1271391	keystroke_n	n	n/a
635.8015	0.1045	1271603	keystroke_g	g	n/a
636.101	0.15	1272202	keystroke_Key.space	Key.space	n/a
636.521	0.105	1273042	keystroke_k	k	n/a
636.611	0.1345	1273222	keystroke_e	e	n/a
636.791	0.105	1273582	keystroke_n	n	n/a
636.956	0.135	1273912	keystroke_n	n	n/a
637.151	0.15	1274302	keystroke_e	e	n/a
637.751	0.1495	1275502	keystroke_d	d	n/a
637.9155	0.135	1275831	keystroke_y	y	n/a
638.1705	0.12	1276341	keystroke_Key.space	Key.space	n/a
638.591	0.135	1277182	keystroke_c	c	n/a
638.711	0.105	1277422	keystroke_h	h	n/a
638.831	0.135	1277662	keystroke_a	a	n/a
638.951	0.165	1277902	keystroke_i	i	n/a
639.026	0.135	1278052	keystroke_n	n	n/a
639.146	0.15	1278292	keystroke_s	s	n/a
639.671	0.165	1279342	keystroke_Key.enter	Key.enter	n/a
639.8415	22.226	1279683	prompt	n/a	medal prisoners sugar prague\n
640.6915	0.149	1281383	keystroke_m	m	n/a
640.9755	0.105	1281951	keystroke_d	d	n/a
641.366	0.135	1282732	keystroke_e	e	n/a
641.786	0.1045	1283572	keystroke_Key.backspace	Key.backspace	n/a
641.9655	0.12	1283931	keystroke_Key.backspace	Key.backspace	n/a
642.0555	0.1205	1284111	keystroke_e	e	n/a
642.326	0.15	1284652	keystroke_d	d	n/a
642.521	0.1495	1285042	keystroke_a	a	n/a
642.6865	0.15	1285373	keystroke_l	l	n/a
643.631	0.135	1287262	keystroke_Key.space	Key.space	n/a
643.811	0.1355	1287622	keystroke_p	p	n/a
643.9165	0.1345	1287833	keystroke_r	r	n/a
644.4715	0.1795	1288943	keystroke_s	s	n/a
644.906	0.1355	1289812	keystroke_o	o	n/a
645.2055	0.061	1290411	keystroke_n	n	n/a
645.386	0.045	1290772	keystroke_n	n	n/a
645.641	0.12	1291282	keystroke_Key.backspace	Key.backspace	n/a
645.836	0.0745	1291672	keystroke_Key.backspace	Key.backspace	n/a
645.9855	0.09	1291971	keystroke_Key.backspace	Key.backspace	n/a
