onset	duration	sample	value	key	prompt_text
2.171	9.664	4342	prompt	n/a	the quick brown fox jumps over a lazy dog\n
3.242	0.014	6484	keystroke_t	t	n/a
3.301	0.0895	6602	keystroke_h	h	n/a
3.4055	0.075	6811	keystroke_e	e	n/a
3.6155	0.075	7231	keystroke_Key.space	Key.space	n/a
3.7955	0.06	7591	keystroke_q	q	n/a
3.8855	0.06	7771	keystroke_u	u	n/a
4.0505	0.06	8101	keystroke_i	i	n/a
4.1855	0.06	8371	keystroke_c	c	n/a
4.305	0.073	8610	keystroke_k	k	n/a
4.483	0.075	8966	keystroke_Key.space	Key.space	n/a
4.9635	0.06	9927	keystroke_b	b	n/a
5.173	0.075	10346	keystroke_r	r	n/a
5.308	0.075	10616	keystroke_o	o	n/a
5.413	0.075	10826	keystroke_w	w	n/a
5.549	0.1035	11098	keystroke_n	n	n/a
5.7275	0.075	11455	keystroke_Key.space	Key.space	n/a
6.0425	0.06	12085	keystroke_f	f	n/a
6.1475	0.075	12295	keystroke_o	o	n/a
6.2525	0.075	12505	keystroke_x	x	n/a
6.6125	0.075	13225	keystroke_Key.space	Key.space	n/a
6.8075	0.06	13615	keystroke_j	j	n/a
6.988	0.0595	13976	keystroke_u	u	n/a
7.1975	0.06	14395	keystroke_m	m	n/a
7.3025	0.075	14605	keystroke_p	p	n/a
7.4525	0.075	14905	keystroke_s	s	n/a
7.5575	0.06	15115	keystroke_Key.space	Key.space	n/a
7.7675	0.045	15535	keystroke_o	o	n/a
7.8575	0.06	15715	keystroke_v	v	n/a
8.2475	0.06	16495	keystroke_Key.backspace	Key.backspace	n/a
8.4125	0.06	16825	keystroke_Key.backspace	Key.backspace	n/a
8.8025	0.075	17605	keystroke_v	v	n/a
9.1475	0.06	18295	keystroke_Key.backspace	Key.backspace	n/a
9.3575	0.075	18715	keystroke_o	o	n/a
9.4625	0.075	18925	keystroke_v	v	n/a
9.6575	0.12	19315	keystroke_e	e	n/a
9.7625	0.0605	19525	keystroke_r	r	n/a
9.898	0.075	19796	keystroke_Key.space	Key.space	n/a
10.018	0.075	20036	keystroke_a	a	n/a
10.168	0.075	20336	keystroke_Key.space	Key.space	n/a
10.438	0.075	20876	keystroke_l	l	n/a
10.528	0.06	21056	keystroke_a	a	n/a
10.723	0.0745	21446	keystroke_z	z	n/a
10.918	0.045	21836	keystroke_y	y	n/a
11.053	0.06	22106	keystroke_Key.space	Key.space	n/a
11.173	0.06	22346	keystroke_d	d	n/a
11.293	0.06	22586	keystroke_o	o	n/a
11.413	0.06	22826	keystroke_g	g	n/a
11.773	0.06	23546	keystroke_Key.enter	Key.enter	n/a
11.8385	10.7725	23677	prompt	n/a	severe governing ryan biography\n
12.433	0.0895	24866	keystroke_s	s	n/a
12.763	0.075	25526	keystroke_e	e	n/a
13.528	0.075	27056	keystroke_v	v	n/a
13.828	0.135	27656	keystroke_e	e	n/a
13.873	0.15	27746	keystroke_r	r	n/a
14.5175	0.075	29035	keystroke_e	e	n/a
14.8025	0.06	29605	keystroke_Key.space	Key.space	n/a
15.0425	0.075	30085	keystroke_g	g	n/a
15.1625	0.075	30325	keystroke_o	o	n/a
15.2825	0.045	30565	keystroke_v	v	n/a
15.4625	0.15	30925	keystroke_e	e	n/a
15.5675	0.09	31135	keystroke_r	r	n/a
15.9275	0.06	31855	keystroke_n	n	n/a
16.453	0.075	32906	keystroke_m	m	n/a
16.708	0.03	33416	keystroke_i	i	n/a
17.008	0.06	34016	keystroke_Key.backspace	Key.backspace	n/a
17.143	0.06	34286	keystroke_Key.backspace	Key.backspace	n/a
17.413	0.06	34826	keystroke_i	i	n/a
17.5925	0.045	35185	keystroke_n	n	n/a
17.6975	0.06	35395	keystroke_g	g	n/a
17.8175	0.075	35635	keystroke_Key.space	Key.space	n/a
18.238	0.09	36476	keystroke_r	r	n/a
18.733	0.06	37466	keystroke_y	y	n/a
18.927	0.091	37854	keystroke_a	a	n/a
19.062	0.075	38124	keystroke_n	n	n/a
19.227	0.06	38454	keystroke_Key.space	Key.space	n/a
19.543	0.06	39086	keystroke_b	b	n/a
19.6625	0.1505	39325	keystroke_i	i	n/a
19.7675	0.075	39535	keystroke_o	o	n/a
20.098	0.06	40196	keystroke_g	g	n/a
20.3085	0.104	40617	keystroke_r	r	n/a
20.3825	0.105	40765	keystroke_a	a	n/a
20.8175	0.061	41635	keystroke_p	p	n/a
20.9975	0.06	41995	keystroke_h	h	n/a
21.4485	0.059	42897	keystroke_y	y	n/a
22.543	0.06	45086	keystroke_Key.enter	Key.enter	n/a
22.6165	7.038	45233	prompt	n/a	to buffalo gateway arlington\n
23.3675	0.06	46735	keystroke_t	t	n/a
23.4425	0.075	46885	keystroke_o	o	n/a
23.5775	0.075	47155	keystroke_Key.space	Key.space	n/a
23.7125	0.075	47425	keystroke_f	f	n/a
23.8635	0.0595	47727	keystroke_u	u	n/a
24.1625	0.06	48325	keystroke_Key.backspace	Key.backspace	n/a
24.2975	0.06	48595	keystroke_Key.backspace	Key.backspace	n/a
24.4175	0.075	48835	keystroke_b	b	n/a
24.5225	0.075	49045	keystroke_u	u	n/a
24.6875	0.06	49375	keystroke_f	f	n/a
24.8525	0.045	49705	keystroke_f	f	n/a
25.3025	0.075	50605	keystroke_a	a	n/a
25.3925	0.075	50785	keystroke_l	l	n/a
25.5725	0.0605	51145	keystroke_o	o	n/a
25.7525	0.075	51505	keystroke_Key.space	Key.space	n/a
25.9775	0.045	51955	keystroke_g	g	n/a
26.068	0.119	52136	keystroke_a	a	n/a
26.203	0.135	52406	keystroke_t	t	n/a
26.323	0.0895	52646	keystroke_e	e	n/a
26.638	0.135	53276	keystroke_a	a	n/a
26.998	0.0745	53996	keystroke_Key.backspace	Key.backspace	n/a
27.087	0.0905	54174	keystroke_w	w	n/a
27.1625	0.18	54325	keystroke_a	a	n/a
27.3435	0.075	54687	keystroke_y	y	n/a
27.6875	0.045	55375	keystroke_Key.space	Key.space	n/a
28.1975	0.105	56395	keystroke_a	a	n/a
28.3325	0.09	56665	keystroke_r	r	n/a
28.5275	0.075	57055	keystroke_l	l	n/a
28.693	0.0595	57386	keystroke_i	i	n/a
28.8275	0.075	57655	keystroke_n	n	n/a
28.9175	0.075	57835	keystroke_g	g	n/a
29.1275	0.06	58255	keystroke_t	t	n/a
29.2025	0.06	58405	keystroke_o	o	n/a
29.3375	0.075	58675	keystroke_n	n	n/a
29.6075	0.045	59215	keystroke_Key.enter	Key.enter	n/a
29.658	8.9885	59316	prompt	n/a	perspectives or bald complete\n
30.328	0.0595	60656	keystroke_p	p	n/a
30.4775	0.12	60955	keystroke_e	e	n/a
30.5685	0.074	61137	keystroke_r	r	n/a
30.8225	0.075	61645	keystroke_c	c	n/a
31.108	0.06	62216	keystroke_Key.backspace	Key.backspace	n/a
31.453	0.09	62906	keystroke_s	s	n/a
31.768	0.06	63536	keystroke_p	p	n/a
31.948	0.075	63896	keystroke_e	e	n/a
33.118	0.09	66236	keystroke_c	c	n/a
33.373	0.045	66746	keystroke_t	t	n/a
33.493	0.06	66986	keystroke_i	i	n/a
33.598	0.06	67196	keystroke_v	v	n/a
33.808	0.06	67616	keystroke_e	e	n/a
34.018	0.075	68036	keystroke_s	s	n/a
34.123	0.06	68246	keystroke_Key.space	Key.space	n/a
34.303	0.06	68606	keystroke_o	o	n/a
34.408	0.06	68816	keystroke_r	r	n/a
34.513	0.06	69026	keystroke_Key.space	Key.space	n/a
35.053	0.06	70106	keystroke_b	b	n/a
35.1875	0.06	70375	keystroke_l	l	n/a
35.2625	0.135	70525	keystroke_a	a	n/a
35.3825	0.09	70765	keystroke_d	d	n/a
35.8325	0.06	71665	keystroke_Key.backspace	Key.backspace	n/a
35.9975	0.06	71995	keystroke_Key.backspace	Key.backspace	n/a
36.148	0.045	72296	keystroke_Key.backspace	Key.backspace	n/a
36.253	0.0895	72506	keystroke_a	a	n/a
36.3875	0.075	72775	keystroke_l	l	n/a
36.4925	0.075	72985	keystroke_d	d	n/a
36.613	0.0595	73226	keystroke_Key.space	Key.space	n/a
37.3025	0.105	74605	keystroke_c	c	n/a
37.4225	0.075	74845	keystroke_o	o	n/a
37.5725	0.105	75145	keystroke_m	m	n/a
37.7375	0.076	75475	keystroke_p	p	n/a
37.9175	0.076	75835	keystroke_l	l	n/a
37.9785	0.1195	75957	keystroke_e	e	n/a
38.113	0.12	76226	keystroke_t	t	n/a
38.218	0.075	76436	keystroke_e	e	n/a
38.578	0.06	77156	keystroke_Key.enter	Key.enter	n/a
38.6505	9.701	77301	prompt	n/a	pottery marking implications puppy\n
39.2825	0.06	78565	keystroke_p	p	n/a
39.4925	0.045	78985	keystroke_o	o	n/a
39.7475	0.075	79495	keystroke_t	t	n/a
40.3775	0.075	80755	keystroke_e	e	n/a
40.5585	0.1195	81117	keystroke_e	e	n/a
40.693	0.06	81386	keystroke_r	r	n/a
41.008	0.045	82016	keystroke_Key.backspace	Key.backspace	n/a
41.173	0.045	82346	keystroke_Key.backspace	Key.backspace	n/a
41.293	0.06	82586	keystroke_Key.backspace	Key.backspace	n/a
41.383	0.075	82766	keystroke_t	t	n/a
41.563	0.135	83126	keystroke_e	e	n/a
41.683	0.06	83366	keystroke_r	r	n/a
42.028	0.075	84056	keystroke_y	y	n/a
42.238	0.075	84476	keystroke_Key.space	Key.space	n/a
42.8085	0.074	85617	keystroke_m	m	n/a
42.8675	0.105	85735	keystroke_a	a	n/a
42.9575	0.075	85915	keystroke_r	r	n/a
43.1825	0.075	86365	keystroke_k	k	n/a
43.3775	0.03	86755	keystroke_i	i	n/a
43.4975	0.075	86995	keystroke_n	n	n/a
43.6175	0.06	87235	keystroke_g	g	n/a
43.7375	0.075	87475	keystroke_Key.space	Key.space	n/a
44.0225	0.0605	88045	keystroke_i	i	n/a
44.188	0.075	88376	keystroke_m	m	n/a
44.368	0.06	88736	keystroke_p	p	n/a
44.548	0.06	89096	keystroke_l	l	n/a
44.698	0.0595	89396	keystroke_i	i	n/a
44.7875	0.105	89575	keystroke_c	c	n/a
44.8775	0.12	89755	keystroke_a	a	n/a
45.0275	0.0755	90055	keystroke_t	t	n/a
45.088	0.09	90176	keystroke_i	i	n/a
45.133	0.09	90266	keystroke_o	o	n/a
45.283	0.105	90566	keystroke_n	n	n/a
45.373	0.075	90746	keystroke_s	s	n/a
45.538	0.045	91076	keystroke_Key.space	Key.space	n/a
45.718	0.105	91436	keystroke_s	s	n/a
46.018	0.075	92036	keystroke_Key.backspace	Key.backspace	n/a
46.258	0.075	92516	keystroke_p	p	n/a
46.453	0.075	92906	keystroke_u	u	n/a
46.618	0.075	93236	keystroke_p	p	n/a
46.768	0.075	93536	keystroke_p	p	n/a
46.993	0.075	93986	keystroke_y	y	n/a
47.218	0.075	94436	keystroke_Key.space	Key.space	n/a
47.773	0.075	95546	keystroke_Key.backspace	Key.backspace	n/a
48.283	0.06	96566	keystroke_Key.enter	Key.enter	n/a
48.3565	9.3555	96713	prompt	n/a	computation gadgets place idle\n
49.0485	0.075	98097	keystroke_c	c	n/a
49.1385	0.015	98277	keystroke_i	i	n/a
49.288	0.075	98576	keystroke_m	m	n/a
49.903	0.06	99806	keystroke_Key.backspace	Key.backspace	n/a
50.053	0.075	100106	keystroke_Key.backspace	Key.backspace	n/a
50.6235	0.059	101247	keystroke_o	o	n/a
50.8035	0.104	101607	keystroke_m	m	n/a
50.9235	0.074	101847	keystroke_p	p	n/a
51.0735	0.075	102147	keystroke_u	u	n/a
51.2085	0.075	102417	keystroke_t	t	n/a
51.883	0.075	103766	keystroke_a	a	n/a
52.033	0.06	104066	keystroke_t	t	n/a
52.123	0.105	104246	keystroke_i	i	n/a
52.198	0.075	104396	keystroke_o	o	n/a
52.318	0.105	104636	keystroke_n	n	n/a
52.528	0.06	105056	keystroke_Key.space	Key.space	n/a
52.858	0.06	105716	keystroke_g	g	n/a
53.023	0.075	106046	keystroke_a	a	n/a
53.188	0.075	106376	keystroke_d	d	n/a
54.6135	0.044	109227	keystroke_g	g	n/a
54.7775	0.075	109555	keystroke_e	e	n/a
54.9575	0.06	109915	keystroke_t	t	n/a
55.5725	0.076	111145	keystroke_s	s	n/a
55.7225	0.09	111445	keystroke_Key.space	Key.space	n/a
56.0375	0.06	112075	keystroke_p	p	n/a
56.2175	0.075	112435	keystroke_l	l	n/a
56.2335	0.149	112467	keystroke_a	a	n/a
56.3675	0.15	112735	keystroke_c	c	n/a
56.4725	0.075	112945	keystroke_e	e	n/a
56.5925	0.075	113185	keystroke_Key.space	Key.space	n/a
56.7875	0.06	113575	keystroke_i	i	n/a
56.8925	0.06	113785	keystroke_d	d	n/a
57.0275	0.075	114055	keystroke_l	l	n/a
57.1325	0.075	114265	keystroke_e	e	n/a
57.6425	0.06	115285	keystroke_Key.enter	Key.enter	n/a
57.716	10.361	115432	prompt	n/a	abstracts coast bags basic\n
58.4225	0.06	116845	keystroke_a	a	n/a
58.6325	0.075	117265	keystroke_b	b	n/a
58.8425	0.075	117685	keystroke_s	s	n/a
59.0825	0.06	118165	keystroke_t	t	n/a
59.2775	0.075	118555	keystroke_r	r	n/a
59.563	0.075	119126	keystroke_a	a	n/a
59.668	0.105	119336	keystroke_c	c	n/a
59.9085	0.059	119817	keystroke_t	t	n/a
60.0575	0.091	120115	keystroke_s	s	n/a
60.1925	0.076	120385	keystroke_Key.space	Key.space	n/a
60.4475	0.091	120895	keystroke_c	c	n/a
60.6585	0.06	121317	keystroke_o	o	n/a
60.7485	0.18	121497	keystroke_s	s	n/a
60.8975	0.12	121795	keystroke_t	t	n/a
61.3025	0.06	122605	keystroke_Key.backspace	Key.backspace	n/a
61.4675	0.061	122935	keystroke_Key.backspace	Key.backspace	n/a
61.6325	0.06	123265	keystroke_Key.backspace	Key.backspace	n/a
62.098	0.075	124196	keystroke_o	o	n/a
62.263	0.165	124526	keystroke_a	a	n/a
62.653	0.135	125306	keystroke_s	s	n/a
62.773	0.075	125546	keystroke_t	t	n/a
63.373	0.075	126746	keystroke_Key.space	Key.space	n/a
63.868	0.045	127736	keystroke_b	b	n/a
64.033	0.105	128066	keystroke_a	a	n/a
64.363	0.075	128726	keystroke_d	d	n/a
64.843	0.09	129686	keystroke_Key.backspace	Key.backspace	n/a
64.918	0.06	129836	keystroke_g	g	n/a
65.038	0.09	130076	keystroke_e	e	n/a
65.353	0.075	130706	keystroke_s	s	n/a
65.788	0.06	131576	keystroke_Key.backspace	Key.backspace	n/a
65.968	0.06	131936	keystroke_Key.backspace	Key.backspace	n/a
66.1475	0.075	132295	keystroke_s	s	n/a
66.3425	0.09	132685	keystroke_Key.space	Key.space	n/a
66.973	0.075	133946	keystroke_b	b	n/a
67.168	0.105	134336	keystroke_a	a	n/a
67.288	0.06	134576	keystroke_s	s	n/a
67.543	0.045	135086	keystroke_i	i	n/a
67.693	0.105	135386	keystroke_c	c	n/a
68.008	0.0595	136016	keystroke_Key.enter	Key.enter	n/a
68.0825	8.934	136165	prompt	n/a	vacuum hunt beads curves\n
68.7425	0.075	137485	keystroke_v	v	n/a
68.9825	0.09	137965	keystroke_a	a	n/a
69.823	0.105	139646	keystroke_c	c	n/a
70.0925	0.075	140185	keystroke_u	u	n/a
70.4075	0.06	140815	keystroke_u	u	n/a
70.6185	0.105	141237	keystroke_m	m	n/a
70.8435	0.075	141687	keystroke_Key.space	Key.space	n/a
71.2185	0.06	142437	keystroke_h	h	n/a
71.3985	0.06	142797	keystroke_u	u	n/a
71.5785	0.075	143157	keystroke_n	n	n/a
71.6835	0.075	143367	keystroke_t	t	n/a
71.8335	0.06	143667	keystroke_Key.space	Key.space	n/a
72.373	0.075	144746	keystroke_b	b	n/a
72.898	0.0605	145796	keystroke_e	e	n/a
73.768	0.12	147536	keystroke_d	d	n/a
74.113	0.075	148226	keystroke_Key.backspace	Key.backspace	n/a
74.218	0.1195	148436	keystroke_a	a	n/a
74.3075	0.105	148615	keystroke_d	d	n/a
74.6825	0.075	149365	keystroke_s	s	n/a
75.1025	0.075	150205	keystroke_Key.space	Key.space	n/a
75.6275	0.12	151255	keystroke_c	c	n/a
75.7775	0.06	151555	keystroke_u	u	n/a
75.9425	0.06	151885	keystroke_r	r	n/a
76.168	0.075	152336	keystroke_v	v	n/a
76.363	0.075	152726	keystroke_e	e	n/a
76.513	0.09	153026	keystroke_s	s	n/a
76.948	0.06	153896	keystroke_Key.enter	Key.enter	n/a
77.0205	12.116	154041	prompt	n/a	retrieve arthritis survivors arch\n
77.8925	0.135	155785	keystroke_r	r	n/a
77.9675	0.075	155935	keystroke_e	e	n/a
78.343	0.045	156686	keystroke_t	t	n/a
78.553	0.06	157106	keystroke_r	r	n/a
78.943	0.075	157886	keystroke_i	i	n/a
79.933	0.09	159866	keystroke_e	e	n/a
80.158	0.06	160316	keystroke_v	v	n/a
80.308	0.06	160616	keystroke_e	e	n/a
80.428	0.075	160856	keystroke_Key.space	Key.space	n/a
80.938	0.12	161876	keystroke_a	a	n/a
81.043	0.09	162086	keystroke_r	r	n/a
81.523	0.06	163046	keystroke_t	t	n/a
81.628	0.0745	163256	keystroke_h	h	n/a
81.9275	0.06	163855	keystroke_r	r	n/a
82.1375	0.075	164275	keystroke_i	i	n/a
82.6025	0.0755	165205	keystroke_t	t	n/a
82.783	0.075	165566	keystroke_i	i	n/a
83.0225	0.09	166045	keystroke_s	s	n/a
83.3075	0.09	166615	keystroke_Key.space	Key.space	n/a
84.178	0.06	168356	keystroke_s	s	n/a
84.283	0.075	168566	keystroke_u	u	n/a
84.403	0.075	168806	keystroke_r	r	n/a
84.628	0.075	169256	keystroke_v	v	n/a
84.778	0.075	169556	keystroke_i	i	n/a
84.928	0.09	169856	keystroke_s	s	n/a
85.8285	0.075	171657	keystroke_Key.backspace	Key.backspace	n/a
86.4135	0.09	172827	keystroke_v	v	n/a
87.313	0.06	174626	keystroke_o	o	n/a
87.403	0.075	174806	keystroke_r	r	n/a
87.583	0.09	175166	keystroke_s	s	n/a
87.778	0.075	175556	keystroke_Key.space	Key.space	n/a
88.408	0.12	176816	keystroke_a	a	n/a
88.513	0.0755	177026	keystroke_r	r	n/a
88.7385	0.09	177477	keystroke_c	c	n/a
88.8435	0.045	177687	keystroke_h	h	n/a
89.0535	0.074	178107	keystroke_Key.enter	Key.enter	n/a
89.1415	9.3245	178283	prompt	n/a	legendary richardson mixed calling\n
89.9375	0.075	179875	keystroke_l	l	n/a
90.0725	0.09	180145	keystroke_e	e	n/a
90.5235	0.074	181047	keystroke_g	g	n/a
91.1975	0.105	182395	keystroke_e	e	n/a
91.4375	0.061	182875	keystroke_n	n	n/a
91.5585	0.089	183117	keystroke_d	d	n/a
91.8735	0.135	183747	keystroke_a	a	n/a
91.9775	0.0905	183955	keystroke_r	r	n/a
92.2185	0.059	184437	keystroke_y	y	n/a
92.5475	0.075	185095	keystroke_Key.space	Key.space	n/a
93.3275	0.06	186655	keystroke_r	r	n/a
93.4625	0.06	186925	keystroke_i	i	n/a
93.5825	0.075	187165	keystroke_c	c	n/a
93.6725	0.061	187345	keystroke_h	h	n/a
93.7925	0.15	187585	keystroke_a	a	n/a
93.9275	0.075	187855	keystroke_r	r	n/a
94.138	0.09	188276	keystroke_d	d	n/a
94.378	0.06	188756	keystroke_s	s	n/a
94.498	0.075	188996	keystroke_o	o	n/a
94.678	0.075	189356	keystroke_n	n	n/a
94.873	0.06	189746	keystroke_Key.space	Key.space	n/a
95.053	0.06	190106	keystroke_m	m	n/a
95.218	0.075	190436	keystroke_i	i	n/a
95.353	0.075	190706	keystroke_x	x	n/a
95.683	0.105	191366	keystroke_e	e	n/a
95.938	0.06	191876	keystroke_d	d	n/a
97.138	0.06	194276	keystroke_Key.space	Key.space	n/a
97.318	0.09	194636	keystroke_c	c	n/a
97.393	0.075	194786	keystroke_a	a	n/a
97.543	0.06	195086	keystroke_l	l	n/a
97.708	0.06	195416	keystroke_l	l	n/a
97.903	0.045	195806	keystroke_i	i	n/a
98.053	0.0605	196106	keystroke_n	n	n/a
98.1435	0.074	196287	keystroke_g	g	n/a
98.3985	0.059	196797	keystroke_Key.enter	Key.enter	n/a
98.47	6.4695	196940	prompt	n/a	chemicals meetings sender trick\n
99.0885	0.075	198177	keystroke_c	c	n/a
99.1785	0.074	198357	keystroke_h	h	n/a
99.2985	0.075	198597	keystroke_e	e	n/a
99.4035	0.075	198807	keystroke_m	m	n/a
99.5825	0.061	199165	keystroke_i	i	n/a
99.6575	0.121	199315	keystroke_c	c	n/a
99.7485	0.075	199497	keystroke_a	a	n/a
99.8675	0.061	199735	keystroke_l	l	n/a
100.1375	0.091	200275	keystroke_s	s	n/a
100.3025	0.06	200605	keystroke_Key.space	Key.space	n/a
100.6775	0.075	201355	keystroke_m	m	n/a
100.7975	0.0755	201595	keystroke_e	e	n/a
101.143	0.06	202286	keystroke_e	e	n/a
101.338	0.06	202676	keystroke_t	t	n/a
101.458	0.045	202916	keystroke_i	i	n/a
101.638	0.06	203276	keystroke_n	n	n/a
101.713	0.045	203426	keystroke_g	g	n/a
101.8925	0.076	203785	keystroke_s	s	n/a
102.0275	0.0755	204055	keystroke_Key.space	Key.space	n/a
102.313	0.09	204626	keystroke_s	s	n/a
102.523	0.06	205046	keystroke_e	e	n/a
102.6435	0.0745	205287	keystroke_n	n	n/a
102.733	0.0605	205466	keystroke_d	d	n/a
102.913	0.1055	205826	keystroke_e	e	n/a
103.0035	0.075	206007	keystroke_r	r	n/a
103.213	0.0605	206426	keystroke_Key.space	Key.space	n/a
103.918	0.0295	207836	keystroke_t	t	n/a
104.083	0.075	208166	keystroke_r	r	n/a
104.2185	0.0595	208437	keystroke_i	i	n/a
104.3835	0.0745	208767	keystroke_c	c	n/a
104.503	0.075	209006	keystroke_k	k	n/a
104.878	0.06	209756	keystroke_Key.enter	Key.enter	n/a
104.942	12.8295	209884	prompt	n/a	encryption that ultimately substantially\n
105.643	0.06	211286	keystroke_e	e	n/a
105.763	0.075	211526	keystroke_n	n	n/a
106.033	0.0755	212066	keystroke_c	c	n/a
106.2735	0.075	212547	keystroke_r	r	n/a
106.5135	0.075	213027	keystroke_y	y	n/a
107.0835	0.06	214167	keystroke_p	p	n/a
107.4585	0.045	214917	keystroke_i	i	n/a
107.983	0.075	215966	keystroke_Key.backspace	Key.backspace	n/a
108.0725	0.075	216145	keystroke_t	t	n/a
108.2375	0.105	216475	keystroke_i	i	n/a
108.2975	0.09	216595	keystroke_o	o	n/a
108.4475	0.105	216895	keystroke_n	n	n/a
108.6725	0.075	217345	keystroke_Key.space	Key.space	n/a
109.6475	0.075	219295	keystroke_t	t	n/a
109.7375	0.06	219475	keystroke_h	h	n/a
109.8275	0.105	219655	keystroke_a	a	n/a
109.9175	0.075	219835	keystroke_t	t	n/a
110.0075	0.075	220015	keystroke_Key.space	Key.space	n/a
110.218	0.06	220436	keystroke_u	u	n/a
110.428	0.075	220856	keystroke_l	l	n/a
110.563	0.06	221126	keystroke_t	t	n/a
111.223	0.06	222446	keystroke_i	i	n/a
111.388	0.09	222776	keystroke_m	m	n/a
111.508	0.09	223016	keystroke_a	a	n/a
111.643	0.091	223286	keystroke_t	t	n/a
111.853	0.075	223706	keystroke_e	e	n/a
112.018	0.06	224036	keystroke_l	l	n/a
112.213	0.06	224426	keystroke_y	y	n/a
112.618	0.075	225236	keystroke_Key.space	Key.space	n/a
112.798	0.0755	225596	keystroke_s	s	n/a
112.9185	0.075	225837	keystroke_u	u	n/a
113.0685	0.06	226137	keystroke_b	b	n/a
113.653	0.105	227306	keystroke_s	s	n/a
113.818	0.09	227636	keystroke_t	t	n/a
114.6575	0.06	229315	keystroke_a	a	n/a
114.8375	0.045	229675	keystroke_n	n	n/a
116.2635	0.045	232527	keystroke_t	t	n/a
116.4435	0.06	232887	keystroke_i	i	n/a
116.5935	0.075	233187	keystroke_a	a	n/a
116.7135	0.045	233427	keystroke_l	l	n/a
116.878	0.0455	233756	keystroke_l	l	n/a
116.9835	0.075	233967	keystroke_y	y	n/a
117.688	0.075	235376	keystroke_Key.enter	Key.enter	n/a
117.7755	20.006	235551	prompt	n/a	species symptoms statutory responsibilities\n
118.5135	0.075	237027	keystroke_s	s	n/a
118.7235	0.06	237447	keystroke_p	p	n/a
118.8135	0.06	237627	keystroke_e	e	n/a
118.9935	0.105	237987	keystroke_c	c	n/a
119.1285	0.075	238257	keystroke_i	i	n/a
119.8475	0.166	239695	keystroke_e	e	n/a
119.9675	0.09	239935	keystroke_s	s	n/a
120.5225	0.075	241045	keystroke_Key.backspace	Key.backspace	n/a
120.7025	0.06	241405	keystroke_Key.backspace	Key.backspace	n/a
120.8525	0.06	241705	keystroke_Key.backspace	Key.backspace	n/a
121.3325	0.06	242665	keystroke_i	i	n/a
121.4075	0.166	242815	keystroke_e	e	n/a
121.5735	0.029	243147	keystroke_s	s	n/a
121.9175	0.06	243835	keystroke_Key.space	Key.space	n/a
122.623	0.075	245246	keystroke_s	s	n/a
122.773	0.06	245546	keystroke_y	y	n/a
123.133	0.06	246266	keystroke_m	m	n/a
123.313	0.075	246626	keystroke_p	p	n/a
123.898	0.045	247796	keystroke_t	t	n/a
124.078	0.105	248156	keystroke_i	i	n/a
124.123	0.105	248246	keystroke_o	o	n/a
124.588	0.06	249176	keystroke_m	m	n/a
124.753	0.075	249506	keystroke_s	s	n/a
125.1275	0.0605	250255	keystroke_Key.backspace	Key.backspace	n/a
125.293	0.06	250586	keystroke_Key.backspace	Key.backspace	n/a
125.473	0.045	250946	keystroke_Key.backspace	Key.backspace	n/a
125.608	0.045	251216	keystroke_Key.backspace	Key.backspace	n/a
126.148	0.06	252296	keystroke_o	o	n/a
126.328	0.075	252656	keystroke_m	m	n/a
126.463	0.0595	252926	keystroke_s	s	n/a
126.6275	0.075	253255	keystroke_Key.space	Key.space	n/a
127.2575	0.06	254515	keystroke_s	s	n/a
127.4675	0.075	254935	keystroke_t	t	n/a
127.7075	0.06	255415	keystroke_a	a	n/a
128.833	0.06	257666	keystroke_t	t	n/a
128.983	0.06	257966	keystroke_u	u	n/a
129.4785	0.105	258957	keystroke_t	t	n/a
129.9585	0.06	259917	keystroke_o	o	n/a
130.1235	0.0745	260247	keystroke_r	r	n/a
130.363	0.075	260726	keystroke_y	y	n/a
130.588	0.075	261176	keystroke_Key.space	Key.space	n/a
131.5935	0.15	263187	keystroke_r	r	n/a
131.6985	0.09	263397	keystroke_e	e	n/a
131.9085	0.105	263817	keystroke_s	s	n/a
131.9835	0.075	263967	keystroke_p	p	n/a
132.1335	0.075	264267	keystroke_o	o	n/a
132.3275	0.061	264655	keystroke_n	n	n/a
133.498	0.06	266996	keystroke_s	s	n/a
134.2935	0.06	268587	keystroke_i	i	n/a
134.3985	0.075	268797	keystroke_b	b	n/a
134.818	0.075	269636	keystroke_i	i	n/a
134.953	0.09	269906	keystroke_l	l	n/a
135.103	0.075	270206	keystroke_i	i	n/a
135.208	0.075	270416	keystroke_t	t	n/a
135.9435	0.075	271887	keystroke_i	i	n/a
136.7085	0.134	273417	keystroke_e	e	n/a
136.7375	0.12	273475	keystroke_s	s	n/a
137.713	0.06	275426	keystroke_Key.enter	Key.enter	n/a
137.786	8.1855	275572	prompt	n/a	youth weights approval generation\n
138.4185	0.074	276837	keystroke_y	y	n/a
138.5225	0.06	277045	keystroke_o	o	n/a
138.6725	0.061	277345	keystroke_u	u	n/a
138.8225	0.045	277645	keystroke_t	t	n/a
138.9285	0.074	277857	keystroke_h	h	n/a
139.2275	0.06	278455	keystroke_Key.space	Key.space	n/a
139.618	0.075	279236	keystroke_w	w	n/a
139.963	0.09	279926	keystroke_e	e	n/a
140.173	0.045	280346	keystroke_i	i	n/a
140.308	0.075	280616	keystroke_g	g	n/a
140.443	0.075	280886	keystroke_h	h	n/a
140.563	0.075	281126	keystroke_t	t	n/a
141.7635	0.075	283527	keystroke_s	s	n/a
141.9435	0.075	283887	keystroke_Key.space	Key.space	n/a
142.2285	0.06	284457	keystroke_a	a	n/a
142.3335	0.075	284667	keystroke_p	p	n/a
142.4985	0.075	284997	keystroke_p	p	n/a
142.6335	0.06	285267	keystroke_r	r	n/a
142.7535	0.06	285507	keystroke_o	o	n/a
142.8885	0.06	285777	keystroke_v	v	n/a
143.0985	0.075	286197	keystroke_a	a	n/a
143.2185	0.075	286437	keystroke_l	l	n/a
143.563	0.0745	287126	keystroke_Key.space	Key.space	n/a
143.9225	0.09	287845	keystroke_g	g	n/a
144.1175	0.075	288235	keystroke_e	e	n/a
144.239	0.0735	288478	keystroke_n	n	n/a
144.3425	0.135	288685	keystroke_e	e	n/a
144.4325	0.12	288865	keystroke_r	r	n/a
144.6575	0.076	289315	keystroke_a	a	n/a
145.0925	0.06	290185	keystroke_t	t	n/a
145.2275	0.135	290455	keystroke_i	i	n/a
145.3175	0.075	290635	keystroke_o	o	n/a
145.4675	0.075	290935	keystroke_n	n	n/a
145.9025	0.06	291805	keystroke_Key.enter	Key.enter	n/a
145.9755	8.2605	291951	prompt	n/a	keno http tears macromedia\n
146.563	0.09	293126	keystroke_k	k	n/a
146.833	0.075	293666	keystroke_e	e	n/a
146.938	0.075	293876	keystroke_n	n	n/a
147.1175	0.075	294235	keystroke_o	o	n/a
147.313	0.0745	294626	keystroke_Key.space	Key.space	n/a
147.778	0.0595	295556	keystroke_h	h	n/a
147.898	0.06	295796	keystroke_e	e	n/a
148.0625	0.045	296125	keystroke_e	e	n/a
148.423	0.06	296846	keystroke_Key.backspace	Key.backspace	n/a
148.5585	0.06	297117	keystroke_Key.backspace	Key.backspace	n/a
148.648	0.045	297296	keystroke_t	t	n/a
148.798	0.0605	297596	keystroke_t	t	n/a
148.9485	0.075	297897	keystroke_p	p	n/a
149.1735	0.06	298347	keystroke_Key.space	Key.space	n/a
149.6385	0.06	299277	keystroke_t	t	n/a
149.8035	0.12	299607	keystroke_e	e	n/a
149.9085	0.135	299817	keystroke_a	a	n/a
150.0135	0.105	300027	keystroke_r	r	n/a
150.2085	0.075	300417	keystroke_s	s	n/a
150.598	0.06	301196	keystroke_Key.space	Key.space	n/a
150.9135	0.06	301827	keystroke_m	m	n/a
151.0185	0.09	302037	keystroke_a	a	n/a
151.2885	0.015	302577	keystroke_c	c	n/a
151.4235	0.045	302847	keystroke_r	r	n/a
151.5585	0.06	303117	keystroke_o	o	n/a
151.7985	0.045	303597	keystroke_n	n	n/a
153.208	0.075	306416	keystroke_Key.backspace	Key.backspace	n/a
153.433	0.075	306866	keystroke_m	m	n/a
153.553	0.075	307106	keystroke_e	e	n/a
153.748	0.06	307496	keystroke_d	d	n/a
153.838	0.075	307676	keystroke_i	i	n/a
153.958	0.075	307916	keystroke_a	a	n/a
154.1685	0.06	308337	keystroke_Key.enter	Key.enter	n/a
154.2405	9.6105	308481	prompt	n/a	collapse provided varied coral\n
154.9635	0.075	309927	keystroke_c	c	n/a
155.1435	0.06	310287	keystroke_o	o	n/a
155.3235	0.045	310647	keystroke_l	l	n/a
155.473	0.06	310946	keystroke_l	l	n/a
155.563	0.105	311126	keystroke_a	a	n/a
155.698	0.09	311396	keystroke_g	g	n/a
156.418	0.045	312836	keystroke_Key.backspace	Key.backspace	n/a
156.6285	0.074	313257	keystroke_p	p	n/a
156.7775	0.075	313555	keystroke_e	e	n/a
156.973	0.06	313946	keystroke_s	s	n/a
157.228	0.045	314456	keystroke_Key.backspace	Key.backspace	n/a
157.363	0.075	314726	keystroke_Key.backspace	Key.backspace	n/a
157.468	0.105	314936	keystroke_s	s	n/a
157.528	0.075	315056	keystroke_e	e	n/a
157.708	0.06	315416	keystroke_Key.space	Key.space	n/a
158.1135	0.075	316227	keystroke_p	p	n/a
158.3085	0.06	316617	keystroke_r	r	n/a
158.4735	0.06	316947	keystroke_o	o	n/a
158.6685	0.0595	317337	keystroke_d	d	n/a
159.133	0.06	318266	keystroke_Key.backspace	Key.backspace	n/a
159.9135	0.075	319827	keystroke_v	v	n/a
160.123	0.045	320246	keystroke_i	i	n/a
160.228	0.075	320456	keystroke_d	d	n/a
160.423	0.06	320846	keystroke_e	e	n/a
160.603	0.06	321206	keystroke_d	d	n/a
160.753	0.075	321506	keystroke_Key.space	Key.space	n/a
161.203	0.075	322406	keystroke_v	v	n/a
161.398	0.105	322796	keystroke_a	a	n/a
161.488	0.075	322976	keystroke_r	r	n/a
162.028	0.0755	324056	keystroke_i	i	n/a
162.0735	0.09	324147	keystroke_e	e	n/a
162.2985	0.075	324597	keystroke_d	d	n/a
162.7035	0.06	325407	keystroke_Key.space	Key.space	n/a
162.8835	0.105	325767	keystroke_c	c	n/a
163.0485	0.06	326097	keystroke_o	o	n/a
163.1685	0.09	326337	keystroke_r	r	n/a
163.3185	0.09	326637	keystroke_a	a	n/a
163.4085	0.0745	326817	keystroke_l	l	n/a
163.7685	0.075	327537	keystroke_Key.enter	Key.enter	n/a
163.855	6.7095	327710	prompt	n/a	objectives horizon foster ellen\n
164.5025	0.076	329005	keystroke_o	o	n/a
164.6975	0.076	329395	keystroke_b	b	n/a
164.8175	0.076	329635	keystroke_j	j	n/a
164.953	0.06	329906	keystroke_e	e	n/a
165.103	0.09	330206	keystroke_c	c	n/a
165.343	0.06	330686	keystroke_t	t	n/a
165.463	0.06	330926	keystroke_i	i	n/a
165.553	0.0755	331106	keystroke_v	v	n/a
165.7335	0.075	331467	keystroke_e	e	n/a
165.8985	0.09	331797	keystroke_s	s	n/a
166.0485	0.0745	332097	keystroke_Key.space	Key.space	n/a
166.273	0.06	332546	keystroke_h	h	n/a
166.468	0.045	332936	keystroke_o	o	n/a
166.558	0.075	333116	keystroke_r	r	n/a
166.723	0.06	333446	keystroke_i	i	n/a
166.918	0.075	333836	keystroke_z	z	n/a
167.113	0.075	334226	keystroke_o	o	n/a
167.278	0.075	334556	keystroke_n	n	n/a
167.488	0.06	334976	keystroke_Key.space	Key.space	n/a
168.2235	0.06	336447	keystroke_f	f	n/a
168.2985	0.075	336597	keystroke_o	o	n/a
168.4335	0.105	336867	keystroke_s	s	n/a
168.5685	0.075	337137	keystroke_t	t	n/a
168.7935	0.105	337587	keystroke_e	e	n/a
168.8835	0.045	337767	keystroke_r	r	n/a
169.1685	0.075	338337	keystroke_Key.space	Key.space	n/a
169.4985	0.06	338997	keystroke_e	e	n/a
169.633	0.06	339266	keystroke_l	l	n/a
169.798	0.045	339596	keystroke_l	l	n/a
169.948	0.045	339896	keystroke_e	e	n/a
170.158	0.06	340316	keystroke_n	n	n/a
170.503	0.06	341006	keystroke_Key.enter	Key.enter	n/a
170.5695	11.987	341139	prompt	n/a	beginner shops wayne investigators\n
171.313	0.045	342626	keystroke_h	h	n/a
171.8825	0.045	343765	keystroke_Key.backspace	Key.backspace	n/a
172.0025	0.075	344005	keystroke_b	b	n/a
172.2285	0.059	344457	keystroke_e	e	n/a
172.5875	0.06	345175	keystroke_g	g	n/a
172.7235	0.044	345447	keystroke_i	i	n/a
172.9025	0.06	345805	keystroke_n	n	n/a
173.0375	0.06	346075	keystroke_n	n	n/a
173.1425	0.15	346285	keystroke_e	e	n/a
173.2475	0.075	346495	keystroke_r	r	n/a
173.4275	0.061	346855	keystroke_Key.space	Key.space	n/a
173.5925	0.091	347185	keystroke_s	s	n/a
173.6985	0.045	347397	keystroke_h	h	n/a
173.9085	0.075	347817	keystroke_o	o	n/a
174.0285	0.075	348057	keystroke_p	p	n/a
174.1935	0.09	348387	keystroke_s	s	n/a
174.4335	0.059	348867	keystroke_Key.space	Key.space	n/a
175.3935	0.09	350787	keystroke_w	w	n/a
175.5585	0.105	351117	keystroke_a	a	n/a
175.6935	0.075	351387	keystroke_t	t	n/a
176.3085	0.045	352617	keystroke_Key.backspace	Key.backspace	n/a
176.3685	0.0745	352737	keystroke_y	y	n/a
176.653	0.075	353306	keystroke_n	n	n/a
176.773	0.075	353546	keystroke_e	e	n/a
176.998	0.045	353996	keystroke_Key.space	Key.space	n/a
177.6435	0.044	355287	keystroke_i	i	n/a
178.8585	0.179	357717	keystroke_n	n	n/a
179.0525	0.015	358105	keystroke_v	v	n/a
179.428	0.21	358856	keystroke_e	e	n/a
180.103	0.075	360206	keystroke_s	s	n/a
180.283	0.075	360566	keystroke_t	t	n/a
180.463	0.045	360926	keystroke_i	i	n/a
180.628	0.06	361256	keystroke_g	g	n/a
180.883	0.09	361766	keystroke_a	a	n/a
181.6175	0.06	363235	keystroke_t	t	n/a
181.7975	0.06	363595	keystroke_o	o	n/a
181.9025	0.045	363805	keystroke_r	r	n/a
182.1125	0.06	364225	keystroke_s	s	n/a
182.503	0.045	365006	keystroke_Key.enter	Key.enter	n/a
182.5615	10.0745	365123	prompt	n/a	euros quite hazardous hunting\n
183.1185	0.075	366237	keystroke_e	e	n/a
183.2835	0.06	366567	keystroke_u	u	n/a
183.4485	0.06	366897	keystroke_r	r	n/a
183.5535	0.075	367107	keystroke_o	o	n/a
183.7785	0.075	367557	keystroke_s	s	n/a
183.9585	0.045	367917	keystroke_Key.space	Key.space	n/a
184.438	0.06	368876	keystroke_q	q	n/a
184.573	0.03	369146	keystroke_u	u	n/a
184.738	0.045	369476	keystroke_i	i	n/a
184.813	0.12	369626	keystroke_t	t	n/a
184.918	0.075	369836	keystroke_e	e	n/a
185.1885	0.075	370377	keystroke_Key.space	Key.space	n/a
185.743	0.06	371486	keystroke_h	h	n/a
185.878	0.09	371756	keystroke_a	a	n/a
186.118	0.075	372236	keystroke_z	z	n/a
186.343	0.06	372686	keystroke_a	a	n/a
186.628	0.075	373256	keystroke_r	r	n/a
187.723	0.06	375446	keystroke_d	d	n/a
187.828	0.0605	375656	keystroke_o	o	n/a
187.9785	0.075	375957	keystroke_u	u	n/a
188.0985	0.075	376197	keystroke_s	s	n/a
188.2185	0.075	376437	keystroke_Key.space	Key.space	n/a
188.6385	0.06	377277	keystroke_h	h	n/a
189.5685	0.06	379137	keystroke_u	u	n/a
189.7485	0.075	379497	keystroke_t	t	n/a
189.8685	0.045	379737	keystroke_i	i	n/a
190.0335	0.06	380067	keystroke_n	n	n/a
190.1085	0.075	380217	keystroke_g	g	n/a
190.5585	0.059	381117	keystroke_Key.backspace	Key.backspace	n/a
190.7225	0.06	381445	keystroke_Key.backspace	Key.backspace	n/a
190.8875	0.046	381775	keystroke_Key.backspace	Key.backspace	n/a
191.0225	0.046	382045	keystroke_Key.backspace	Key.backspace	n/a
191.3085	0.059	382617	keystroke_n	n	n/a
191.4425	0.061	382885	keystroke_t	t	n/a
191.5635	0.06	383127	keystroke_i	i	n/a
191.7125	0.076	383425	keystroke_n	n	n/a
191.8025	0.076	383605	keystroke_g	g	n/a
192.5525	0.075	385105	keystroke_Key.enter	Key.enter	n/a
192.64	7.166	385280	prompt	n/a	caring heated quiet monroe\n
193.2735	0.105	386547	keystroke_c	c	n/a
193.3935	0.134	386787	keystroke_a	a	n/a
193.5285	0.0895	387057	keystroke_r	r	n/a
193.648	0.03	387296	keystroke_i	i	n/a
193.783	0.09	387566	keystroke_n	n	n/a
193.858	0.06	387716	keystroke_g	g	n/a
194.008	0.06	388016	keystroke_Key.space	Key.space	n/a
194.218	0.045	388436	keystroke_h	h	n/a
194.293	0.12	388586	keystroke_e	e	n/a
194.428	0.12	388856	keystroke_a	a	n/a
194.743	0.075	389486	keystroke_t	t	n/a
194.953	0.045	389906	keystroke_e	e	n/a
195.133	0.06	390266	keystroke_d	d	n/a
195.283	0.0595	390566	keystroke_Key.space	Key.space	n/a
195.5225	0.076	391045	keystroke_q	q	n/a
195.6435	0.06	391287	keystroke_u	u	n/a
195.8235	0.045	391647	keystroke_i	i	n/a
195.9585	0.105	391917	keystroke_e	e	n/a
196.093	0.075	392186	keystroke_t	t	n/a
197.1735	0.075	394347	keystroke_Key.space	Key.space	n/a
197.5035	0.06	395007	keystroke_m	m	n/a
197.668	0.06	395336	keystroke_o	o	n/a
197.818	0.06	395636	keystroke_r	r	n/a
197.938	0.075	395876	keystroke_n	n	n/a
198.4035	0.06	396807	keystroke_Key.backspace	Key.backspace	n/a
198.5525	0.046	397105	keystroke_Key.backspace	Key.backspace	n/a
198.7635	0.059	397527	keystroke_n	n	n/a
198.9125	0.061	397825	keystroke_r	r	n/a
199.1375	0.045	398275	keystroke_o	o	n/a
199.2875	0.075	398575	keystroke_e	e	n/a
199.7535	0.045	399507	keystroke_Key.enter	Key.enter	n/a
199.81	9.2965	399620	prompt	n/a	interactions straight framed lopez\n
200.518	0.045	401036	keystroke_i	i	n/a
200.668	0.075	401336	keystroke_n	n	n/a
200.728	0.06	401456	keystroke_t	t	n/a
200.8935	0.1195	401787	keystroke_e	e	n/a
200.968	0.075	401936	keystroke_r	r	n/a
201.178	0.105	402356	keystroke_a	a	n/a
201.268	0.12	402536	keystroke_c	c	n/a
201.538	0.045	403076	keystroke_t	t	n/a
201.6285	0.15	403257	keystroke_i	i	n/a
201.7335	0.09	403467	keystroke_o	o	n/a
201.8985	0.075	403797	keystroke_n	n	n/a
202.0035	0.09	404007	keystroke_s	s	n/a
202.1685	0.06	404337	keystroke_Key.space	Key.space	n/a
202.8285	0.075	405657	keystroke_s	s	n/a
202.9935	0.075	405987	keystroke_t	t	n/a
203.2035	0.135	406407	keystroke_r	r	n/a
203.3535	0.089	406707	keystroke_a	a	n/a
203.728	0.045	407456	keystroke_i	i	n/a
203.863	0.075	407726	keystroke_g	g	n/a
204.028	0.06	408056	keystroke_h	h	n/a
204.118	0.075	408236	keystroke_t	t	n/a
204.598	0.075	409196	keystroke_Key.space	Key.space	n/a
204.868	0.075	409736	keystroke_f	f	n/a
205.078	0.12	410156	keystroke_r	r	n/a
205.213	0.09	410426	keystroke_a	a	n/a
205.6175	0.09	411235	keystroke_m	m	n/a
205.7975	0.06	411595	keystroke_e	e	n/a
205.9775	0.075	411955	keystroke_d	d	n/a
206.143	0.0595	412286	keystroke_Key.space	Key.space	n/a
206.4275	0.09	412855	keystroke_l	l	n/a
206.5475	0.075	413095	keystroke_a	a	n/a
207.2375	0.06	414475	keystroke_Key.backspace	Key.backspace	n/a
207.4475	0.12	414895	keystroke_o	o	n/a
207.5225	0.09	415045	keystroke_p	p	n/a
207.7025	0.061	415405	keystroke_e	e	n/a
207.898	0.06	415796	keystroke_d	d	n/a
208.7385	0.0445	417477	keystroke_Key.backspace	Key.backspace	n/a
208.8285	0.09	417657	keystroke_z	z	n/a
209.0535	0.045	418107	keystroke_Key.enter	Key.enter	n/a
209.11	16.137	418220	prompt	n/a	trustee questionnaire collecting scholar\n
209.743	0.0755	419486	keystroke_t	t	n/a
210.0885	0.075	420177	keystroke_r	r	n/a
210.2235	0.06	420447	keystroke_u	u	n/a
210.3735	0.09	420747	keystroke_s	s	n/a
210.4785	0.075	420957	keystroke_t	t	n/a
210.748	0.06	421496	keystroke_e	e	n/a
210.928	0.06	421856	keystroke_e	e	n/a
211.1535	0.0745	422307	keystroke_Key.space	Key.space	n/a
211.588	0.075	423176	keystroke_q	q	n/a
211.723	0.06	423446	keystroke_u	u	n/a
211.933	0.06	423866	keystroke_a	a	n/a
212.368	0.075	424736	keystroke_Key.backspace	Key.backspace	n/a
212.638	0.18	425276	keystroke_e	e	n/a
212.908	0.195	425816	keystroke_s	s	n/a
213.058	0.12	426116	keystroke_t	t	n/a
213.268	0.12	426536	keystroke_i	i	n/a
213.343	0.075	426686	keystroke_o	o	n/a
213.523	0.0605	427046	keystroke_n	n	n/a
214.1385	0.0595	428277	keystroke_n	n	n/a
214.363	0.12	428726	keystroke_a	a	n/a
214.468	0.09	428936	keystroke_r	r	n/a
214.723	0.045	429446	keystroke_i	i	n/a
214.888	0.09	429776	keystroke_e	e	n/a
215.383	0.06	430766	keystroke_Key.backspace	Key.backspace	n/a
215.533	0.075	431066	keystroke_Key.backspace	Key.backspace	n/a
215.773	0.06	431546	keystroke_Key.backspace	Key.backspace	n/a
216.013	0.0895	432026	keystroke_i	i	n/a
216.1325	0.075	432265	keystroke_r	r	n/a
216.658	0.06	433316	keystroke_e	e	n/a
218.068	0.0605	436136	keystroke_Key.space	Key.space	n/a
218.3085	0.09	436617	keystroke_c	c	n/a
219.0285	0.06	438057	keystroke_o	o	n/a
219.283	0.045	438566	keystroke_l	l	n/a
219.433	0.06	438866	keystroke_l	l	n/a
219.583	0.06	439166	keystroke_e	e	n/a
219.778	0.0755	439556	keystroke_c	c	n/a
220.003	0.045	440006	keystroke_t	t	n/a
220.108	0.075	440216	keystroke_i	i	n/a
220.288	0.06	440576	keystroke_n	n	n/a
220.363	0.06	440726	keystroke_g	g	n/a
220.498	0.075	440996	keystroke_Key.space	Key.space	n/a
220.873	0.075	441746	keystroke_s	s	n/a
221.023	0.06	442046	keystroke_h	h	n/a
221.128	0.075	442256	keystroke_c	c	n/a
221.308	0.045	442616	keystroke_h	h	n/a
221.968	0.075	443936	keystroke_Key.backspace	Key.backspace	n/a
222.6885	0.015	445377	keystroke_Key.backspace	Key.backspace	n/a
223.1225	0.076	446245	keystroke_c	c	n/a
223.4975	0.061	446995	keystroke_Key.backspace	Key.backspace	n/a
223.6485	0.06	447297	keystroke_Key.backspace	Key.backspace	n/a
223.738	0.105	447476	keystroke_c	c	n/a
223.888	0.06	447776	keystroke_h	h	n/a
224.083	0.075	448166	keystroke_o	o	n/a
224.3385	0.0745	448677	keystroke_l	l	n/a
224.473	0.105	448946	keystroke_a	a	n/a
224.563	0.075	449126	keystroke_r	r	n/a
225.178	0.06	450356	keystroke_Key.enter	Key.enter	n/a
225.251	5.95	450502	prompt	n/a	vital plan kiss discussing\n
225.9585	0.075	451917	keystroke_v	v	n/a
226.0935	0.045	452187	keystroke_i	i	n/a
226.2885	0.09	452577	keystroke_t	t	n/a
226.513	0.0755	453026	keystroke_a	a	n/a
226.6485	0.06	453297	keystroke_l	l	n/a
227.218	0.075	454436	keystroke_Key.space	Key.space	n/a
227.428	0.045	454856	keystroke_p	p	n/a
227.593	0.06	455186	keystroke_l	l	n/a
227.683	0.09	455366	keystroke_a	a	n/a
227.803	0.075	455606	keystroke_n	n	n/a
227.968	0.06	455936	keystroke_Key.space	Key.space	n/a
228.103	0.06	456206	keystroke_k	k	n/a
228.283	0.06	456566	keystroke_i	i	n/a
228.358	0.06	456716	keystroke_s	s	n/a
228.508	0.06	457016	keystroke_s	s	n/a
228.658	0.075	457316	keystroke_Key.space	Key.space	n/a
229.048	0.0605	458096	keystroke_d	d	n/a
229.183	0.06	458366	keystroke_i	i	n/a
229.783	0.075	459566	keystroke_s	s	n/a
229.963	0.09	459926	keystroke_c	c	n/a
230.0975	0.061	460195	keystroke_u	u	n/a
230.2325	0.061	460465	keystroke_s	s	n/a
230.3975	0.06	460795	keystroke_s	s	n/a
230.4735	0.059	460947	keystroke_i	i	n/a
230.6385	0.06	461277	keystroke_n	n	n/a
230.7135	0.074	461427	keystroke_g	g	n/a
231.1335	0.059	462267	keystroke_Key.enter	Key.enter	n/a
231.2055	10.5405	462411	prompt	n/a	collaborative gonna skin stories\n
231.763	0.075	463526	keystroke_c	c	n/a
231.853	0.06	463706	keystroke_o	o	n/a
232.033	0.0445	464066	keystroke_l	l	n/a
232.1825	0.045	464365	keystroke_l	l	n/a
232.843	0.06	465686	keystroke_a	a	n/a
233.1125	0.045	466225	keystroke_b	b	n/a
233.4725	0.075	466945	keystroke_o	o	n/a
233.6385	0.075	467277	keystroke_r	r	n/a
234.4035	0.06	468807	keystroke_t	t	n/a
234.6435	0.09	469287	keystroke_a	a	n/a
235.4235	0.075	470847	keystroke_Key.backspace	Key.backspace	n/a
235.5885	0.075	471177	keystroke_Key.backspace	Key.backspace	n/a
236.548	0.075	473096	keystroke_a	a	n/a
236.743	0.06	473486	keystroke_t	t	n/a
236.878	0.06	473756	keystroke_i	i	n/a
237.028	0.06	474056	keystroke_v	v	n/a
237.223	0.06	474446	keystroke_e	e	n/a
237.343	0.09	474686	keystroke_Key.space	Key.space	n/a
237.868	0.075	475736	keystroke_g	g	n/a
238.018	0.0605	476036	keystroke_o	o	n/a
238.2285	0.06	476457	keystroke_n	n	n/a
238.378	0.075	476756	keystroke_n	n	n/a
238.483	0.075	476966	keystroke_a	a	n/a
238.603	0.075	477206	keystroke_Key.space	Key.space	n/a
238.843	0.075	477686	keystroke_s	s	n/a
238.933	0.06	477866	keystroke_k	k	n/a
239.098	0.0605	478196	keystroke_i	i	n/a
239.5035	0.09	479007	keystroke_n	n	n/a
239.7135	0.075	479427	keystroke_Key.space	Key.space	n/a
240.1035	0.0595	480207	keystroke_s	s	n/a
240.268	0.06	480536	keystroke_t	t	n/a
240.389	0.0735	480778	keystroke_o	o	n/a
240.5375	0.075	481075	keystroke_r	r	n/a
240.5825	0.075	481165	keystroke_e	e	n/a
241.093	0.045	482186	keystroke_Key.backspace	Key.backspace	n/a
241.273	0.075	482546	keystroke_i	i	n/a
241.349	0.164	482698	keystroke_e	e	n/a
241.483	0.105	482966	keystroke_s	s	n/a
241.678	0.06	483356	keystroke_Key.enter	Key.enter	n/a
241.75	13.9615	483500	prompt	n/a	answering educated ecommerce judgment\n
242.5785	0.0745	485157	keystroke_a	a	n/a
242.6985	0.06	485397	keystroke_n	n	n/a
243.2985	0.075	486597	keystroke_s	s	n/a
243.5235	0.06	487047	keystroke_w	w	n/a
243.7485	0.09	487497	keystroke_e	e	n/a
243.9435	0.09	487887	keystroke_r	r	n/a
244.1535	0.045	488307	keystroke_i	i	n/a
244.3185	0.075	488637	keystroke_n	n	n/a
244.4085	0.06	488817	keystroke_g	g	n/a
244.6335	0.06	489267	keystroke_Key.space	Key.space	n/a
245.0385	0.0595	490077	keystroke_e	e	n/a
245.218	0.075	490436	keystroke_d	d	n/a
245.323	0.06	490646	keystroke_u	u	n/a
245.443	0.075	490886	keystroke_a	a	n/a
245.473	0.1355	490946	keystroke_c	c	n/a
246.493	0.045	492986	keystroke_Key.backspace	Key.backspace	n/a
246.628	0.06	493256	keystroke_Key.backspace	Key.backspace	n/a
246.973	0.135	493946	keystroke_c	c	n/a
247.093	0.105	494186	keystroke_a	a	n/a
247.258	0.105	494516	keystroke_t	t	n/a
247.393	0.06	494786	keystroke_e	e	n/a
247.588	0.06	495176	keystroke_d	d	n/a
247.768	0.06	495536	keystroke_Key.space	Key.space	n/a
248.023	0.075	496046	keystroke_e	e	n/a
248.263	0.09	496526	keystroke_c	c	n/a
248.638	0.06	497276	keystroke_o	o	n/a
248.863	0.045	497726	keystroke_m	m	n/a
249.028	0.06	498056	keystroke_m	m	n/a
249.2385	0.15	498477	keystroke_e	e	n/a
249.3435	0.09	498687	keystroke_r	r	n/a
249.6285	0.135	499257	keystroke_c	c	n/a
249.7335	0.075	499467	keystroke_e	e	n/a
249.8985	0.075	499797	keystroke_Key.space	Key.space	n/a
250.1085	0.06	500217	keystroke_j	j	n/a
250.3485	0.06	500697	keystroke_u	u	n/a
250.603	0.075	501206	keystroke_d	d	n/a
250.993	0.09	501986	keystroke_e	e	n/a
251.308	0.09	502616	keystroke_g	g	n/a
252.013	0.045	504026	keystroke_Key.backspace	Key.backspace	n/a
252.148	0.06	504296	keystroke_Key.backspace	Key.backspace	n/a
252.223	0.06	504446	keystroke_g	g	n/a
252.4485	0.06	504897	keystroke_e	e	n/a
252.7035	0.045	505407	keystroke_m	m	n/a
252.9285	0.09	505857	keystroke_e	e	n/a
253.1535	0.045	506307	keystroke_n	n	n/a
253.2735	0.06	506547	keystroke_t	t	n/a
253.6335	0.06	507267	keystroke_Key.backspace	Key.backspace	n/a
253.7985	0.06	507597	keystroke_Key.backspace	Key.backspace	n/a
253.9785	0.045	507957	keystroke_Key.backspace	Key.backspace	n/a
254.1285	0.06	508257	keystroke_Key.backspace	Key.backspace	n/a
254.2785	0.06	508557	keystroke_Key.backspace	Key.backspace	n/a
254.5185	0.06	509037	keystroke_m	m	n/a
254.6385	0.09	509277	keystroke_e	e	n/a
254.7735	0.06	509547	keystroke_n	n	n/a
254.8785	0.075	509757	keystroke_t	t	n/a
255.6285	0.075	511257	keystroke_Key.enter	Key.enter	n/a
255.7155	14.111	511431	prompt	n/a	chairs holmes pointing capabilities\n
257.6835	0.09	515367	keystroke_c	c	n/a
257.8035	0.075	515607	keystroke_h	h	n/a
258.148	0.09	516296	keystroke_a	a	n/a
258.298	0.06	516596	keystroke_i	i	n/a
258.418	0.06	516836	keystroke_r	r	n/a
258.598	0.06	517196	keystroke_Key.space	Key.space	n/a
259.333	0.03	518666	keystroke_s	s	n/a
259.498	0.06	518996	keystroke_Key.backspace	Key.backspace	n/a
259.648	0.06	519296	keystroke_Key.backspace	Key.backspace	n/a
259.843	0.075	519686	keystroke_s	s	n/a
259.948	0.09	519896	keystroke_Key.space	Key.space	n/a
260.308	0.06	520616	keystroke_h	h	n/a
260.473	0.075	520946	keystroke_o	o	n/a
260.938	0.06	521876	keystroke_l	l	n/a
261.163	0.045	522326	keystroke_m	m	n/a
261.253	0.09	522506	keystroke_e	e	n/a
261.4635	0.03	522927	keystroke_s	s	n/a
261.6135	0.045	523227	keystroke_Key.space	Key.space	n/a
261.8085	0.075	523617	keystroke_p	p	n/a
261.9585	0.075	523917	keystroke_o	o	n/a
262.1385	0.045	524277	keystroke_i	i	n/a
262.2585	0.075	524517	keystroke_n	n	n/a
262.4235	0.075	524847	keystroke_t	t	n/a
263.143	0.045	526286	keystroke_i	i	n/a
263.293	0.06	526586	keystroke_n	n	n/a
263.383	0.075	526766	keystroke_g	g	n/a
263.518	0.06	527036	keystroke_Key.space	Key.space	n/a
264.748	0.075	529496	keystroke_c	c	n/a
264.898	0.075	529796	keystroke_a	a	n/a
265.048	0.06	530096	keystroke_p	p	n/a
265.333	0.09	530666	keystroke_b	b	n/a
266.5635	0.015	533127	keystroke_Key.backspace	Key.backspace	n/a
266.8335	0.0595	533667	keystroke_a	a	n/a
267.598	0.06	535196	keystroke_b	b	n/a
267.793	0.06	535586	keystroke_i	i	n/a
267.958	0.09	535916	keystroke_l	l	n/a
268.078	0.075	536156	keystroke_i	i	n/a
268.198	0.06	536396	keystroke_t	t	n/a
268.393	0.06	536786	keystroke_i	i	n/a
268.603	0.09	537206	keystroke_e	e	n/a
268.813	0.075	537626	keystroke_s	s	n/a
269.758	0.06	539516	keystroke_Key.enter	Key.enter	n/a
269.8315	6.8495	539663	prompt	n/a	meet classifieds fully linked\n
270.628	0.075	541256	keystroke_m	m	n/a
270.733	0.06	541466	keystroke_e	e	n/a
270.898	0.045	541796	keystroke_e	e	n/a
271.018	0.075	542036	keystroke_t	t	n/a
271.183	0.045	542366	keystroke_Key.space	Key.space	n/a
271.528	0.09	543056	keystroke_c	c	n/a
271.663	0.075	543326	keystroke_l	l	n/a
271.783	0.09	543566	keystroke_a	a	n/a
271.993	0.06	543986	keystroke_s	s	n/a
272.158	0.045	544316	keystroke_s	s	n/a
272.248	0.06	544496	keystroke_Key.space	Key.space	n/a
272.6685	0.06	545337	keystroke_Key.backspace	Key.backspace	n/a
272.9085	0.075	545817	keystroke_i	i	n/a
273.0885	0.075	546177	keystroke_f	f	n/a
273.2385	0.075	546477	keystroke_i	i	n/a
273.6435	0.075	547287	keystroke_e	e	n/a
273.8685	0.075	547737	keystroke_d	d	n/a
274.1535	0.09	548307	keystroke_s	s	n/a
274.3635	0.075	548727	keystroke_Key.space	Key.space	n/a
274.5585	0.075	549117	keystroke_f	f	n/a
274.7235	0.06	549447	keystroke_u	u	n/a
274.9185	0.06	549837	keystroke_l	l	n/a
275.0685	0.06	550137	keystroke_l	l	n/a
275.1575	0.061	550315	keystroke_y	y	n/a
275.3075	0.061	550615	keystroke_Key.space	Key.space	n/a
275.8185	0.075	551637	keystroke_l	l	n/a
275.9825	0.061	551965	keystroke_i	i	n/a
276.103	0.105	552206	keystroke_n	n	n/a
276.193	0.105	552386	keystroke_k	k	n/a
276.283	0.06	552566	keystroke_e	e	n/a
276.4785	0.06	552957	keystroke_d	d	n/a
276.5975	0.075	553195	keystroke_Key.enter	Key.enter	n/a
276.685	5.8545	553370	prompt	n/a	strict regarding green point\n
277.3475	0.061	554695	keystroke_s	s	n/a
277.4985	0.06	554997	keystroke_t	t	n/a
277.693	0.075	555386	keystroke_r	r	n/a
277.858	0.06	555716	keystroke_i	i	n/a
277.978	0.09	555956	keystroke_c	c	n/a
278.233	0.06	556466	keystroke_t	t	n/a
278.6375	0.0605	557275	keystroke_Key.space	Key.space	n/a
279.118	0.135	558236	keystroke_r	r	n/a
279.208	0.09	558416	keystroke_e	e	n/a
279.433	0.09	558866	keystroke_g	g	n/a
279.568	0.135	559136	keystroke_a	a	n/a
279.688	0.09	559376	keystroke_r	r	n/a
279.868	0.076	559736	keystroke_d	d	n/a
279.958	0.076	559916	keystroke_i	i	n/a
280.1385	0.06	560277	keystroke_n	n	n/a
280.2285	0.075	560457	keystroke_g	g	n/a
280.3785	0.075	560757	keystroke_Key.space	Key.space	n/a
280.633	0.075	561266	keystroke_g	g	n/a
280.873	0.075	561746	keystroke_r	r	n/a
281.083	0.045	562166	keystroke_e	e	n/a
281.248	0.045	562496	keystroke_e	e	n/a
281.383	0.06	562766	keystroke_n	n	n/a
281.533	0.075	563066	keystroke_Key.space	Key.space	n/a
281.713	0.12	563426	keystroke_p	p	n/a
281.848	0.09	563696	keystroke_o	o	n/a
282.013	0.075	564026	keystroke_i	i	n/a
282.178	0.075	564356	keystroke_n	n	n/a
282.268	0.06	564536	keystroke_t	t	n/a
282.478	0.06	564956	keystroke_Key.enter	Key.enter	n/a
282.5435	9.168	565087	prompt	n/a	beside experimental explained flower\n
283.213	0.075	566426	keystroke_b	b	n/a
283.468	0.06	566936	keystroke_e	e	n/a
283.6785	0.075	567357	keystroke_s	s	n/a
283.8285	0.06	567657	keystroke_i	i	n/a
283.9335	0.075	567867	keystroke_d	d	n/a
284.128	0.045	568256	keystroke_e	e	n/a
284.323	0.075	568646	keystroke_Key.space	Key.space	n/a
284.9685	0.059	569937	keystroke_e	e	n/a
285.1475	0.076	570295	keystroke_x	x	n/a
285.2685	0.075	570537	keystroke_p	p	n/a
285.3885	0.105	570777	keystroke_e	e	n/a
285.4785	0.089	570957	keystroke_r	r	n/a
285.6735	0.06	571347	keystroke_i	i	n/a
285.9285	0.075	571857	keystroke_m	m	n/a
286.0785	0.075	572157	keystroke_e	e	n/a
286.213	0.06	572426	keystroke_n	n	n/a
286.303	0.075	572606	keystroke_t	t	n/a
286.528	0.06	573056	keystroke_a	a	n/a
286.618	0.09	573236	keystroke_l	l	n/a
286.783	0.075	573566	keystroke_Key.space	Key.space	n/a
287.128	0.0755	574256	keystroke_e	e	n/a
287.3535	0.06	574707	keystroke_x	x	n/a
287.4735	0.06	574947	keystroke_p	p	n/a
287.653	0.075	575306	keystroke_l	l	n/a
287.773	0.06	575546	keystroke_a	a	n/a
287.848	0.06	575696	keystroke_i	i	n/a
288.013	0.075	576026	keystroke_n	n	n/a
288.118	0.0605	576236	keystroke_e	e	n/a
288.3135	0.06	576627	keystroke_d	d	n/a
288.4785	0.045	576957	keystroke_Key.space	Key.space	n/a
288.6135	0.045	577227	keystroke_f	f	n/a
288.734	0.059	577468	keystroke_o	o	n/a
288.898	0.06	577796	keystroke_l	l	n/a
289.048	0.06	578096	keystroke_o	o	n/a
289.168	0.105	578336	keystroke_w	w	n/a
289.243	0.15	578486	keystroke_e	e	n/a
289.348	0.09	578696	keystroke_r	r	n/a
289.6635	0.06	579327	keystroke_Key.backspace	Key.backspace	n/a
289.8285	0.09	579657	keystroke_Key.backspace	Key.backspace	n/a
289.9935	0.06	579987	keystroke_Key.backspace	Key.backspace	n/a
290.158	0.06	580316	keystroke_Key.backspace	Key.backspace	n/a
290.323	0.06	580646	keystroke_Key.backspace	Key.backspace	n/a
290.488	0.045	580976	keystroke_Key.backspace	Key.backspace	n/a
290.803	0.06	581606	keystroke_l	l	n/a
290.968	0.045	581936	keystroke_o	o	n/a
291.088	0.15	582176	keystroke_w	w	n/a
291.148	0.15	582296	keystroke_e	e	n/a
291.253	0.09	582506	keystroke_r	r	n/a
291.643	0.06	583286	keystroke_Key.enter	Key.enter	n/a
291.7155	20.261	583431	prompt	n/a	destruction charging responsibilities theme\n
292.3485	0.075	584697	keystroke_d	d	n/a
292.5585	0.12	585117	keystroke_e	e	n/a
292.6635	0.105	585327	keystroke_s	s	n/a
292.8735	0.09	585747	keystroke_c	c	n/a
293.803	0.06	587606	keystroke_Key.backspace	Key.backspace	n/a
294.088	0.075	588176	keystroke_s	s	n/a
294.3135	0.045	588627	keystroke_t	t	n/a
295.033	0.075	590066	keystroke_r	r	n/a
295.168	0.06	590336	keystroke_u	u	n/a
295.303	0.075	590606	keystroke_c	c	n/a
295.528	0.06	591056	keystroke_t	t	n/a
295.633	0.12	591266	keystroke_i	i	n/a
295.693	0.12	591386	keystroke_o	o	n/a
295.858	0.105	591716	keystroke_n	n	n/a
296.053	0.06	592106	keystroke_Key.space	Key.space	n/a
296.459	0.089	592918	keystroke_c	c	n/a
296.594	0.059	593188	keystroke_h	h	n/a
296.684	0.119	593368	keystroke_a	a	n/a
296.773	0.076	593546	keystroke_r	r	n/a
297.1935	0.06	594387	keystroke_Key.backspace	Key.backspace	n/a
297.3585	0.06	594717	keystroke_Key.backspace	Key.backspace	n/a
297.5385	0.09	595077	keystroke_Key.backspace	Key.backspace	n/a
297.7185	0.06	595437	keystroke_Key.backspace	Key.backspace	n/a
297.8985	0.045	595797	keystroke_Key.backspace	Key.backspace	n/a
298.0635	0.045	596127	keystroke_Key.backspace	Key.backspace	n/a
298.2285	0.045	596457	keystroke_Key.backspace	Key.backspace	n/a
298.3785	0.045	596757	keystroke_Key.backspace	Key.backspace	n/a
298.5435	0.06	597087	keystroke_Key.backspace	Key.backspace	n/a
298.7085	0.075	597417	keystroke_Key.backspace	Key.backspace	n/a
298.8885	0.045	597777	keystroke_Key.backspace	Key.backspace	n/a
299.053	0.06	598106	keystroke_Key.backspace	Key.backspace	n/a
299.218	0.06	598436	keystroke_Key.backspace	Key.backspace	n/a
299.368	0.06	598736	keystroke_Key.backspace	Key.backspace	n/a
299.908	0.015	599816	keystroke_t	t	n/a
300.073	0.045	600146	keystroke_r	r	n/a
300.208	0.06	600416	keystroke_u	u	n/a
300.343	0.075	600686	keystroke_c	c	n/a
300.568	0.06	601136	keystroke_t	t	n/a
300.613	0.12	601226	keystroke_i	i	n/a
300.688	0.075	601376	keystroke_o	o	n/a
300.823	0.105	601646	keystroke_n	n	n/a
301.003	0.06	602006	keystroke_Key.space	Key.space	n/a
301.213	0.09	602426	keystroke_c	c	n/a
301.363	0.06	602726	keystroke_h	h	n/a
301.993	0.06	603986	keystroke_r	r	n/a
302.023	0.06	604046	keystroke_a	a	n/a
302.5635	0.06	605127	keystroke_Key.backspace	Key.backspace	n/a
302.6985	0.09	605397	keystroke_Key.backspace	Key.backspace	n/a
302.7735	0.135	605547	keystroke_a	a	n/a
302.8635	0.075	605727	keystroke_r	r	n/a
303.1785	0.06	606357	keystroke_g	g	n/a
303.4485	0.045	606897	keystroke_i	i	n/a
303.5835	0.075	607167	keystroke_n	n	n/a
303.6735	0.0595	607347	keystroke_g	g	n/a
303.809	0.074	607618	keystroke_Key.space	Key.space	n/a
304.439	0.134	608878	keystroke_r	r	n/a
304.558	0.076	609116	keystroke_e	e	n/a
304.768	0.075	609536	keystroke_s	s	n/a
304.904	0.059	609808	keystroke_p	p	n/a
305.0685	0.06	610137	keystroke_o	o	n/a
305.2935	0.075	610587	keystroke_n	n	n/a
306.239	0.06	612478	keystroke_s	s	n/a
307.108	0.06	614216	keystroke_i	i	n/a
307.228	0.06	614456	keystroke_b	b	n/a
307.483	0.045	614966	keystroke_i	i	n/a
307.588	0.09	615176	keystroke_l	l	n/a
307.723	0.0755	615446	keystroke_i	i	n/a
307.8735	0.06	615747	keystroke_t	t	n/a
309.3885	0.075	618777	keystroke_i	i	n/a
309.4935	0.15	618987	keystroke_e	e	n/a
309.6135	0.09	619227	keystroke_s	s	n/a
309.7935	0.075	619587	keystroke_Key.space	Key.space	n/a
311.0085	0.075	622017	keystroke_t	t	n/a
311.1285	0.075	622257	keystroke_h	h	n/a
311.2335	0.06	622467	keystroke_e	e	n/a
311.3535	0.06	622707	keystroke_m	m	n/a
311.4435	0.045	622887	keystroke_e	e	n/a
311.9085	0.06	623817	keystroke_Key.enter	Key.enter	n/a
311.9805	10.166	623961	prompt	n/a	chambers fireplace posting trades\n
312.6285	0.105	625257	keystroke_c	c	n/a
312.7485	0.045	625497	keystroke_h	h	n/a
312.8685	0.075	625737	keystroke_a	a	n/a
312.9885	0.06	625977	keystroke_m	m	n/a
313.1835	0.1195	626367	keystroke_e	e	n/a
313.274	0.074	626548	keystroke_r	r	n/a
313.8885	0.15	627777	keystroke_Key.backspace	Key.backspace	n/a
314.0535	0.03	628107	keystroke_b	b	n/a
314.2485	0.15	628497	keystroke_e	e	n/a
314.3535	0.075	628707	keystroke_r	r	n/a
314.6985	0.06	629397	keystroke_Key.backspace	Key.backspace	n/a
314.8635	0.06	629727	keystroke_Key.backspace	Key.backspace	n/a
315.0285	0.06	630057	keystroke_Key.backspace	Key.backspace	n/a
315.1785	0.06	630357	keystroke_Key.backspace	Key.backspace	n/a
315.4935	0.06	630987	keystroke_b	b	n/a
315.734	0.149	631468	keystroke_e	e	n/a
315.839	0.074	631678	keystroke_r	r	n/a
316.078	0.091	632156	keystroke_s	s	n/a
316.229	0.059	632458	keystroke_Key.space	Key.space	n/a
316.573	0.061	633146	keystroke_f	f	n/a
316.694	0.059	633388	keystroke_i	i	n/a
316.829	0.119	633658	keystroke_r	r	n/a
316.904	0.089	633808	keystroke_e	e	n/a
317.084	0.059	634168	keystroke_p	p	n/a
317.263	0.06	634526	keystroke_l	l	n/a
317.3385	0.105	634677	keystroke_a	a	n/a
317.3985	0.195	634797	keystroke_c	c	n/a
317.5485	0.075	635097	keystroke_e	e	n/a
318.5535	0.045	637107	keystroke_Key.space	Key.space	n/a
318.7485	0.06	637497	keystroke_p	p	n/a
318.8685	0.09	637737	keystroke_o	o	n/a
318.9885	0.06	637977	keystroke_s	s	n/a
319.1385	0.075	638277	keystroke_t	t	n/a
319.2435	0.06	638487	keystroke_i	i	n/a
319.4085	0.06	638817	keystroke_n	n	n/a
319.5135	0.06	639027	keystroke_g	g	n/a
319.634	0.0745	639268	keystroke_Key.space	Key.space	n/a
319.9635	0.0455	639927	keystroke_t	t	n/a
320.2485	0.12	640497	keystroke_r	r	n/a
320.3985	0.105	640797	keystroke_a	a	n/a
320.5935	0.06	641187	keystroke_d	d	n/a
320.8935	0.06	641787	keystroke_e	e	n/a
321.1635	0.06	642327	keystroke_s	s	n/a
321.3885	0.045	642777	keystroke_Key.space	Key.space	n/a
321.838	0.045	643676	keystroke_Key.backspace	Key.backspace	n/a
322.078	0.06	644156	keystroke_Key.enter	Key.enter	n/a
322.1505	11.0815	644301	prompt	n/a	sorts villages jackets validation\n
322.768	0.0455	645536	keystroke_s	s	n/a
322.8435	0.06	645687	keystroke_p	p	n/a
323.0085	0.075	646017	keystroke_r	r	n/a
323.2185	0.06	646437	keystroke_t	t	n/a
323.3235	0.045	646647	keystroke_i	i	n/a
323.6085	0.06	647217	keystroke_Key.backspace	Key.backspace	n/a
323.7735	0.045	647547	keystroke_Key.backspace	Key.backspace	n/a
323.9235	0.06	647847	keystroke_Key.backspace	Key.backspace	n/a
324.0735	0.03	648147	keystroke_Key.backspace	Key.backspace	n/a
324.3735	0.075	648747	keystroke_r	r	n/a
324.7335	0.06	649467	keystroke_Key.backspace	Key.backspace	n/a
324.9735	0.06	649947	keystroke_o	o	n/a
325.0485	0.075	650097	keystroke_r	r	n/a
325.2735	0.06	650547	keystroke_t	t	n/a
325.4535	0.06	650907	keystroke_i	i	n/a
325.619	0.075	651238	keystroke_n	n	n/a
325.724	0.06	651448	keystroke_g	g	n/a
325.889	0.06	651778	keystroke_Key.space	Key.space	n/a
326.4285	0.0605	652857	keystroke_Key.backspace	Key.backspace	n/a
326.594	0.06	653188	keystroke_Key.backspace	Key.backspace	n/a
326.759	0.045	653518	keystroke_Key.backspace	Key.backspace	n/a
326.924	0.045	653848	keystroke_Key.backspace	Key.backspace	n/a
327.074	0.075	654148	keystroke_s	s	n/a
327.194	0.075	654388	keystroke_Key.space	Key.space	n/a
327.704	0.075	655408	keystroke_v	v	n/a
327.824	0.045	655648	keystroke_i	i	n/a
327.989	0.06	655978	keystroke_l	l	n/a
328.139	0.06	656278	keystroke_l	l	n/a
328.169	0.1045	656338	keystroke_a	a	n/a
328.2585	0.09	656517	keystroke_g	g	n/a
328.4085	0.075	656817	keystroke_e	e	n/a
328.5735	0.0895	657147	keystroke_s	s	n/a
328.723	0.076	657446	keystroke_Key.space	Key.space	n/a
328.979	0.075	657958	keystroke_j	j	n/a
329.099	0.12	658198	keystroke_a	a	n/a
329.204	0.12	658408	keystroke_c	c	n/a
329.654	0.075	659308	keystroke_k	k	n/a
330.073	0.0905	660146	keystroke_e	e	n/a
330.2235	0.075	660447	keystroke_t	t	n/a
330.4335	0.075	660867	keystroke_s	s	n/a
330.6135	0.06	661227	keystroke_Key.space	Key.space	n/a
331.228	0.075	662456	keystroke_v	v	n/a
331.423	0.06	662846	keystroke_a	a	n/a
331.588	0.045	663176	keystroke_l	l	n/a
331.739	0.059	663478	keystroke_i	i	n/a
331.888	0.09	663776	keystroke_d	d	n/a
331.993	0.121	663986	keystroke_a	a	n/a
332.128	0.076	664256	keystroke_t	t	n/a
332.248	0.1205	664496	keystroke_i	i	n/a
332.323	0.1055	664646	keystroke_o	o	n/a
332.4735	0.09	664947	keystroke_n	n	n/a
333.1785	0.045	666357	keystroke_Key.enter	Key.enter	n/a
333.236	13.0305	666472	prompt	n/a	victor british weapons begun\n
334.0035	0.06	668007	keystroke_c	c	n/a
334.1085	0.075	668217	keystroke_i	i	n/a
334.4685	0.06	668937	keystroke_Key.backspace	Key.backspace	n/a
334.6035	0.06	669207	keystroke_Key.backspace	Key.backspace	n/a
334.6935	0.06	669387	keystroke_v	v	n/a
334.9335	0.105	669867	keystroke_c	c	n/a
335.443	0.075	670886	keystroke_Key.backspace	Key.backspace	n/a
335.653	0.075	671306	keystroke_i	i	n/a
335.758	0.105	671516	keystroke_c	c	n/a
336.058	0.06	672116	keystroke_t	t	n/a
336.193	0.06	672386	keystroke_o	o	n/a
336.298	0.06	672596	keystroke_r	r	n/a
336.5085	0.06	673017	keystroke_Key.space	Key.space	n/a
337.0935	0.06	674187	keystroke_b	b	n/a
337.3185	0.06	674637	keystroke_r	r	n/a
337.4085	0.06	674817	keystroke_i	i	n/a
337.5735	0.045	675147	keystroke_t	t	n/a
337.7535	0.0595	675507	keystroke_i	i	n/a
337.993	0.075	675986	keystroke_s	s	n/a
338.173	0.075	676346	keystroke_h	h	n/a
338.758	0.06	677516	keystroke_Key.space	Key.space	n/a
340.363	0.06	680726	keystroke_Key.backspace	Key.backspace	n/a
341.1135	0.06	682227	keystroke_Key.space	Key.space	n/a
341.323	0.09	682646	keystroke_w	w	n/a
341.578	0.105	683156	keystroke_e	e	n/a
341.698	0.12	683396	keystroke_a	a	n/a
341.863	0.06	683726	keystroke_p	p	n/a
341.983	0.09	683966	keystroke_o	o	n/a
342.223	0.075	684446	keystroke_n	n	n/a
342.913	0.06	685826	keystroke_s	s	n/a
343.033	0.06	686066	keystroke_Key.space	Key.space	n/a
343.2735	0.06	686547	keystroke_b	b	n/a
343.4685	0.06	686937	keystroke_e	e	n/a
343.6635	0.075	687327	keystroke_g	g	n/a
344.113	0.061	688226	keystroke_u	u	n/a
344.338	0.075	688676	keystroke_n	n	n/a
346.1985	0.06	692397	keystroke_Key.enter	Key.enter	n/a
346.2705	11.771	692541	prompt	n/a	maximum sporting camcorders scenes\n
346.918	0.075	693836	keystroke_m	m	n/a
347.083	0.075	694166	keystroke_a	a	n/a
347.353	0.1205	694706	keystroke_x	x	n/a
347.9385	0.0605	695877	keystroke_i	i	n/a
349.273	0.076	698546	keystroke_m	m	n/a
349.483	0.06	698966	keystroke_u	u	n/a
349.679	0.089	699358	keystroke_m	m	n/a
349.903	0.075	699806	keystroke_Key.space	Key.space	n/a
350.3835	0.06	700767	keystroke_s	s	n/a
350.4585	0.075	700917	keystroke_p	p	n/a
350.5785	0.09	701157	keystroke_o	o	n/a
350.6985	0.075	701397	keystroke_r	r	n/a
350.9085	0.06	701817	keystroke_t	t	n/a
350.9835	0.075	701967	keystroke_i	i	n/a
351.1335	0.105	702267	keystroke_n	n	n/a
351.2835	0.06	702567	keystroke_g	g	n/a
351.4335	0.075	702867	keystroke_Key.space	Key.space	n/a
351.8385	0.105	703677	keystroke_c	c	n/a
351.9435	0.105	703887	keystroke_a	a	n/a
352.0785	0.075	704157	keystroke_m	m	n/a
352.978	0.105	705956	keystroke_c	c	n/a
353.158	0.06	706316	keystroke_o	o	n/a
353.9535	0.045	707907	keystroke_r	r	n/a
354.178	0.09	708356	keystroke_d	d	n/a
354.403	0.075	708806	keystroke_e	e	n/a
354.463	0.075	708926	keystroke_r	r	n/a
354.673	0.09	709346	keystroke_s	s	n/a
354.943	0.0605	709886	keystroke_Key.space	Key.space	n/a
355.3785	0.075	710757	keystroke_s	s	n/a
355.558	0.075	711116	keystroke_c	c	n/a
355.783	0.06	711566	keystroke_e	e	n/a
355.933	0.045	711866	keystroke_n	n	n/a
356.008	0.075	712016	keystroke_e	e	n/a
356.473	0.075	712946	keystroke_s	s	n/a
357.958	0.075	715916	keystroke_Key.enter	Key.enter	n/a
358.0455	15.506	716091	prompt	n/a	pregnancy publishers economies mainland\n
358.844	0.074	717688	keystroke_p	p	n/a
359.098	0.165	718196	keystroke_r	r	n/a
359.233	0.09	718466	keystroke_e	e	n/a
359.503	0.06	719006	keystroke_g	g	n/a
360.4335	0.075	720867	keystroke_a	a	n/a
360.7635	0.06	721527	keystroke_Key.backspace	Key.backspace	n/a
360.9735	0.09	721947	keystroke_n	n	n/a
361.0935	0.09	722187	keystroke_a	a	n/a
361.2135	0.06	722427	keystroke_n	n	n/a
361.8585	0.09	723717	keystroke_c	c	n/a
362.1135	0.06	724227	keystroke_y	y	n/a
362.353	0.06	724706	keystroke_Key.space	Key.space	n/a
363.013	0.075	726026	keystroke_p	p	n/a
363.208	0.06	726416	keystroke_u	u	n/a
363.478	0.06	726956	keystroke_b	b	n/a
363.703	0.06	727406	keystroke_l	l	n/a
363.883	0.06	727766	keystroke_i	i	n/a
364.018	0.075	728036	keystroke_s	s	n/a
364.123	0.06	728246	keystroke_h	h	n/a
364.348	0.12	728696	keystroke_e	e	n/a
364.469	0.044	728938	keystroke_r	r	n/a
364.633	0.075	729266	keystroke_s	s	n/a
364.843	0.06	729686	keystroke_Key.space	Key.space	n/a
365.443	0.045	730886	keystroke_e	e	n/a
365.638	0.075	731276	keystroke_c	c	n/a
365.893	0.0605	731786	keystroke_n	n	n/a
366.0885	0.045	732177	keystroke_o	o	n/a
366.2685	0.075	732537	keystroke_m	m	n/a
366.4785	0.045	732957	keystroke_i	i	n/a
366.7035	0.06	733407	keystroke_e	e	n/a
366.9135	0.075	733827	keystroke_s	s	n/a
367.0485	0.075	734097	keystroke_Key.space	Key.space	n/a
367.5435	0.06	735087	keystroke_m	m	n/a
367.6185	0.075	735237	keystroke_a	a	n/a
367.7835	0.03	735567	keystroke_n	n	n/a
368.653	0.045	737306	keystroke_i	i	n/a
369.2835	0.075	738567	keystroke_Key.backspace	Key.backspace	n/a
369.5085	0.075	739017	keystroke_l	l	n/a
369.6435	0.075	739287	keystroke_a	a	n/a
370.0785	0.075	740157	keystroke_Key.backspace	Key.backspace	n/a
370.2585	0.045	740517	keystroke_Key.backspace	Key.backspace	n/a
370.3785	0.06	740757	keystroke_Key.backspace	Key.backspace	n/a
370.5885	0.075	741177	keystroke_i	i	n/a
370.7535	0.075	741507	keystroke_n	n	n/a
370.9485	0.06	741897	keystroke_l	l	n/a
371.0535	0.075	742107	keystroke_a	a	n/a
371.1735	0.06	742347	keystroke_n	n	n/a
371.2935	0.06	742587	keystroke_d	d	n/a
373.516	0.027	747032	keystroke_Key.enter	Key.enter	n/a
373.5555	10.376	747111	prompt	n/a	calvin syndicate reverse uses\n
374.2785	0.09	748557	keystroke_c	c	n/a
374.5485	0.0595	749097	keystroke_a	a	n/a
374.638	0.075	749276	keystroke_l	l	n/a
374.998	0.09	749996	keystroke_v	v	n/a
375.133	0.06	750266	keystroke_i	i	n/a
375.298	0.075	750596	keystroke_n	n	n/a
375.493	0.06	750986	keystroke_Key.space	Key.space	n/a
375.8835	0.075	751767	keystroke_s	s	n/a
376.0935	0.045	752187	keystroke_y	y	n/a
376.6035	0.075	753207	keystroke_n	n	n/a
378.2385	0.075	756477	keystroke_d	d	n/a
378.3735	0.06	756747	keystroke_i	i	n/a
378.5535	0.105	757107	keystroke_c	c	n/a
378.7185	0.06	757437	keystroke_a	a	n/a
378.9135	0.105	757827	keystroke_t	t	n/a
379.0035	0.075	758007	keystroke_e	e	n/a
379.8585	0.06	759717	keystroke_Key.space	Key.space	n/a
380.2035	0.105	760407	keystroke_r	r	n/a
380.2785	0.09	760557	keystroke_e	e	n/a
380.6835	0.06	761367	keystroke_v	v	n/a
380.9235	0.15	761847	keystroke_e	e	n/a
381.0285	0.09	762057	keystroke_r	r	n/a
381.989	0.135	763978	keystroke_s	s	n/a
382.109	0.075	764218	keystroke_e	e	n/a
382.453	0.075	764906	keystroke_Key.space	Key.space	n/a
382.844	0.075	765688	keystroke_u	u	n/a
382.994	0.12	765988	keystroke_s	s	n/a
383.069	0.09	766138	keystroke_e	e	n/a
383.323	0.06	766646	keystroke_s	s	n/a
383.8635	0.06	767727	keystroke_Key.enter	Key.enter	n/a
383.9355	15.4315	767871	prompt	n/a	organizational smooth ownership rolled\n
384.5535	0.06	769107	keystroke_o	o	n/a
384.6885	0.09	769377	keystroke_r	r	n/a
384.9135	0.075	769827	keystroke_g	g	n/a
385.0035	0.12	770007	keystroke_a	a	n/a
385.1535	0.06	770307	keystroke_n	n	n/a
385.3335	0.045	770667	keystroke_i	i	n/a
385.783	0.181	771566	keystroke_z	z	n/a
386.3235	0.075	772647	keystroke_a	a	n/a
386.5185	0.06	773037	keystroke_t	t	n/a
386.6085	0.105	773217	keystroke_i	i	n/a
386.6685	0.09	773337	keystroke_o	o	n/a
386.8335	0.06	773667	keystroke_n	n	n/a
386.9385	0.06	773877	keystroke_a	a	n/a
387.0585	0.075	774117	keystroke_l	l	n/a
387.2235	0.09	774447	keystroke_Key.space	Key.space	n/a
387.4785	0.075	774957	keystroke_s	s	n/a
387.6885	0.06	775377	keystroke_m	m	n/a
387.8535	0.06	775707	keystroke_o	o	n/a
388.0335	0.03	776067	keystroke_o	o	n/a
388.1385	0.045	776277	keystroke_t	t	n/a
388.589	0.075	777178	keystroke_h	h	n/a
388.814	0.075	777628	keystroke_Key.space	Key.space	n/a
389.099	0.06	778198	keystroke_o	o	n/a
389.369	0.075	778738	keystroke_w	w	n/a
389.594	0.06	779188	keystroke_n	n	n/a
389.759	0.135	779518	keystroke_e	e	n/a
389.864	0.09	779728	keystroke_r	r	n/a
390.359	0.06	780718	keystroke_s	s	n/a
390.434	0.06	780868	keystroke_h	h	n/a
390.644	0.015	781288	keystroke_i	i	n/a
394.9055	0.043	789811	keystroke_p	p	n/a
395.0535	0.06	790107	keystroke_Key.space	Key.space	n/a
396.313	0.075	792626	keystroke_r	r	n/a
396.463	0.075	792926	keystroke_o	o	n/a
396.658	0.06	793316	keystroke_l	l	n/a
396.823	0.045	793646	keystroke_l	l	n/a
396.913	0.045	793826	keystroke_e	e	n/a
397.094	0.074	794188	keystroke_d	d	n/a
399.148	0.21	798296	keystroke_Key.enter	Key.enter	n/a
399.371	7.015	798742	prompt	n/a	do safe speaking consultants\n
400.0935	0.075	800187	keystroke_d	d	n/a
400.2135	0.06	800427	keystroke_o	o	n/a
400.3935	0.06	800787	keystroke_Key.space	Key.space	n/a
400.5735	0.18	801147	keystroke_s	s	n/a
400.7685	0.0455	801537	keystroke_a	a	n/a
401.1285	0.09	802257	keystroke_f	f	n/a
401.2035	0.09	802407	keystroke_e	e	n/a
401.4135	0.09	802827	keystroke_Key.space	Key.space	n/a
401.623	0.075	803246	keystroke_s	s	n/a
401.728	0.06	803456	keystroke_p	p	n/a
401.893	0.105	803786	keystroke_e	e	n/a
402.013	0.105	804026	keystroke_a	a	n/a
402.0885	0.0595	804177	keystroke_k	k	n/a
402.2835	0.045	804567	keystroke_i	i	n/a
402.418	0.075	804836	keystroke_n	n	n/a
402.508	0.075	805016	keystroke_g	g	n/a
402.703	0.0755	805406	keystroke_Key.space	Key.space	n/a
402.989	0.12	805978	keystroke_c	c	n/a
403.379	0.06	806758	keystroke_o	o	n/a
403.559	0.0595	807118	keystroke_n	n	n/a
404.248	0.06	808496	keystroke_s	s	n/a
404.338	0.075	808676	keystroke_u	u	n/a
404.954	0.075	809908	keystroke_l	l	n/a
405.163	0.076	810326	keystroke_t	t	n/a
405.358	0.06	810716	keystroke_a	a	n/a
405.463	0.075	810926	keystroke_n	n	n/a
405.554	0.059	811108	keystroke_t	t	n/a
405.703	0.075	811406	keystroke_s	s	n/a
406.318	0.06	812636	keystroke_Key.enter	Key.enter	n/a
406.392	15.01	812784	prompt	n/a	for embedded access gotten\n
406.933	0.061	813866	keystroke_f	f	n/a
407.054	0.0595	814108	keystroke_o	o	n/a
407.1735	0.06	814347	keystroke_r	r	n/a
407.2635	0.06	814527	keystroke_Key.space	Key.space	n/a
407.3835	0.075	814767	keystroke_e	e	n/a
407.5335	0.075	815067	keystroke_m	m	n/a
408.3435	0.06	816687	keystroke_b	b	n/a
408.8535	0.075	817707	keystroke_e	e	n/a
409.0335	0.06	818067	keystroke_e	e	n/a
409.2135	0.06	818427	keystroke_d	d	n/a
409.4385	0.06	818877	keystroke_e	e	n/a
409.6035	0.045	819207	keystroke_d	d	n/a
410.0385	0.06	820077	keystroke_Key.space	Key.space	n/a
410.4135	0.075	820827	keystroke_a	a	n/a
410.5935	0.075	821187	keystroke_c	c	n/a
410.7735	0.06	821547	keystroke_c	c	n/a
410.9685	0.06	821937	keystroke_e	e	n/a
411.1635	0.06	822327	keystroke_s	s	n/a
411.3435	0.03	822687	keystroke_s	s	n/a
411.4335	0.09	822867	keystroke_Key.space	Key.space	n/a
411.7485	0.06	823497	keystroke_g	g	n/a
411.9135	0.045	823827	keystroke_o	o	n/a
412.1985	0.045	824397	keystroke_t	t	n/a
412.3785	0.045	824757	keystroke_t	t	n/a
412.4985	0.06	824997	keystroke_e	e	n/a
412.6635	0.06	825327	keystroke_n	n	n/a
414.148	0.2105	828296	keystroke_Key.backspace	Key.backspace	n/a
414.3735	0.015	828747	keystroke_Key.backspace	Key.backspace	n/a
414.4785	0.06	828957	keystroke_Key.backspace	Key.backspace	n/a
414.6585	0.03	829317	keystroke_Key.backspace	Key.backspace	n/a
414.8085	0.045	829617	keystroke_Key.backspace	Key.backspace	n/a
414.9735	0.045	829947	keystroke_Key.backspace	Key.backspace	n/a
415.1385	0.045	830277	keystroke_Key.backspace	Key.backspace	n/a
415.3035	0.06	830607	keystroke_Key.backspace	Key.backspace	n/a
415.4685	0.0595	830937	keystroke_Key.backspace	Key.backspace	n/a
415.648	0.045	831296	keystroke_Key.backspace	Key.backspace	n/a
415.813	0.06	831626	keystroke_Key.backspace	Key.backspace	n/a
415.978	0.06	831956	keystroke_Key.backspace	Key.backspace	n/a
416.1585	0.045	832317	keystroke_Key.backspace	Key.backspace	n/a
416.3235	0.06	832647	keystroke_Key.backspace	Key.backspace	n/a
416.504	0.06	833008	keystroke_Key.backspace	Key.backspace	n/a
416.669	0.06	833338	keystroke_Key.backspace	Key.backspace	n/a
416.849	0.06	833698	keystroke_Key.backspace	Key.backspace	n/a
417.029	0.045	834058	keystroke_Key.backspace	Key.backspace	n/a
417.404	0.06	834808	keystroke_d	d	n/a
417.569	0.06	835138	keystroke_d	d	n/a
417.749	0.059	835498	keystroke_e	e	n/a
417.914	0.06	835828	keystroke_d	d	n/a
418.019	0.06	836038	keystroke_Key.space	Key.space	n/a
418.154	0.105	836308	keystroke_a	a	n/a
418.319	0.075	836638	keystroke_c	c	n/a
418.499	0.075	836998	keystroke_c	c	n/a
418.709	0.06	837418	keystroke_e	e	n/a
418.904	0.06	837808	keystroke_s	s	n/a
419.053	0.06	838106	keystroke_s	s	n/a
419.203	0.06	838406	keystroke_Key.space	Key.space	n/a
419.653	0.06	839306	keystroke_g	g	n/a
419.788	0.075	839576	keystroke_o	o	n/a
419.938	0.06	839876	keystroke_t	t	n/a
420.133	0.03	840266	keystroke_t	t	n/a
420.223	0.06	840446	keystroke_e	e	n/a
420.388	0.06	840776	keystroke_n	n	n/a
421.3335	0.06	842667	keystroke_Key.enter	Key.enter	n/a
421.4055	12.2665	842811	prompt	n/a	finding onto intersection soccer\n
422.0985	0.06	844197	keystroke_f	f	n/a
422.1735	0.06	844347	keystroke_i	i	n/a
422.3385	0.06	844677	keystroke_n	n	n/a
422.3685	0.075	844737	keystroke_d	d	n/a
422.5335	0.06	845067	keystroke_i	i	n/a
422.6835	0.045	845367	keystroke_n	n	n/a
422.7435	0.06	845487	keystroke_g	g	n/a
422.9535	0.09	845907	keystroke_Key.space	Key.space	n/a
423.989	0.06	847978	keystroke_o	o	n/a
424.154	0.075	848308	keystroke_n	n	n/a
424.304	0.06	848608	keystroke_t	t	n/a
424.424	0.06	848848	keystroke_o	o	n/a
424.634	0.06	849268	keystroke_Key.space	Key.space	n/a
425.2485	0.045	850497	keystroke_i	i	n/a
425.3835	0.06	850767	keystroke_n	n	n/a
425.4585	0.045	850917	keystroke_t	t	n/a
425.6235	0.135	851247	keystroke_e	e	n/a
425.7285	0.075	851457	keystroke_r	r	n/a
426.4035	0.075	852807	keystroke_s	s	n/a
426.5985	0.075	853197	keystroke_e	e	n/a
426.7935	0.075	853587	keystroke_c	c	n/a
427.0335	0.045	854067	keystroke_t	t	n/a
427.1085	0.105	854217	keystroke_i	i	n/a
427.1835	0.075	854367	keystroke_o	o	n/a
427.3185	0.12	854637	keystroke_n	n	n/a
427.5135	0.075	855027	keystroke_Key.space	Key.space	n/a
428.054	0.09	856108	keystroke_s	s	n/a
428.264	0.045	856528	keystroke_o	o	n/a
429.2685	0.15	858537	keystroke_c	c	n/a
429.4335	0.015	858867	keystroke_c	c	n/a
429.6135	0.06	859227	keystroke_e	e	n/a
430.0335	0.075	860067	keystroke_r	r	n/a
433.6355	0.028	867271	keystroke_Key.enter	Key.enter	n/a
433.677	11.2905	867354	prompt	n/a	indicating troy plaza satisfied\n
434.323	0.06	868646	keystroke_i	i	n/a
434.488	0.0755	868976	keystroke_n	n	n/a
435.4335	0.075	870867	keystroke_d	d	n/a
435.599	0.0445	871198	keystroke_i	i	n/a
435.734	0.1045	871468	keystroke_c	c	n/a
435.8835	0.06	871767	keystroke_a	a	n/a
436.0185	0.0905	872037	keystroke_t	t	n/a
436.214	0.0595	872428	keystroke_i	i	n/a
436.3785	0.0755	872757	keystroke_n	n	n/a
436.484	0.075	872968	keystroke_g	g	n/a
436.904	0.06	873808	keystroke_Key.space	Key.space	n/a
437.1585	0.0605	874317	keystroke_t	t	n/a
437.3685	0.06	874737	keystroke_r	r	n/a
437.5035	0.06	875007	keystroke_o	o	n/a
437.6835	0.06	875367	keystroke_y	y	n/a
437.9685	0.06	875937	keystroke_Key.space	Key.space	n/a
438.4185	0.06	876837	keystroke_p	p	n/a
438.5985	0.0755	877197	keystroke_l	l	n/a
438.704	0.105	877408	keystroke_a	a	n/a
438.959	0.09	877918	keystroke_z	z	n/a
439.424	0.06	878848	keystroke_a	a	n/a
439.604	0.06	879208	keystroke_Key.space	Key.space	n/a
439.979	0.06	879958	keystroke_s	s	n/a
440.459	0.09	880918	keystroke_a	a	n/a
440.714	0.075	881428	keystroke_t	t	n/a
440.9985	0.045	881997	keystroke_i	i	n/a
441.929	0.06	883858	keystroke_s	s	n/a
443.759	0.075	887518	keystroke_f	f	n/a
443.909	0.06	887818	keystroke_i	i	n/a
444.059	0.09	888118	keystroke_e	e	n/a
444.283	0.076	888566	keystroke_d	d	n/a
444.884	0.075	889768	keystroke_Key.enter	Key.enter	n/a
444.9725	9.7445	889945	prompt	n/a	sbjct salad fantasy scope\n
445.919	0.06	891838	keystroke_s	s	n/a
446.549	0.09	893098	keystroke_b	b	n/a
446.803	0.0605	893606	keystroke_j	j	n/a
447.3135	0.09	894627	keystroke_c	c	n/a
447.5985	0.06	895197	keystroke_t	t	n/a
448.0635	0.06	896127	keystroke_Key.space	Key.space	n/a
448.349	0.0745	896698	keystroke_s	s	n/a
448.5135	0.075	897027	keystroke_l	l	n/a
448.7535	0.09	897507	keystroke_a	a	n/a
449.2185	0.045	898437	keystroke_Key.backspace	Key.backspace	n/a
449.3535	0.075	898707	keystroke_Key.backspace	Key.backspace	n/a
449.5035	0.0905	899007	keystroke_a	a	n/a
449.639	0.075	899278	keystroke_l	l	n/a
450.059	0.104	900118	keystroke_a	a	n/a
450.3585	0.0595	900717	keystroke_d	d	n/a
450.613	0.075	901226	keystroke_Key.space	Key.space	n/a
450.928	0.121	901856	keystroke_f	f	n/a
451.018	0.121	902036	keystroke_a	a	n/a
451.184	0.075	902368	keystroke_n	n	n/a
451.649	0.06	903298	keystroke_t	t	n/a
451.859	0.15	903718	keystroke_a	a	n/a
451.949	0.12	903898	keystroke_s	s	n/a
452.1735	0.075	904347	keystroke_y	y	n/a
452.354	0.06	904708	keystroke_Key.space	Key.space	n/a
452.879	0.06	905758	keystroke_s	s	n/a
453.0735	0.09	906147	keystroke_c	c	n/a
453.599	0.1645	907198	keystroke_o	o	n/a
453.7185	0.075	907437	keystroke_p	p	n/a
454.2885	0.075	908577	keystroke_e	e	n/a
454.6335	0.075	909267	keystroke_Key.enter	Key.enter	n/a
454.721	11.741	909442	prompt	n/a	mobile trusts what'll quarter\n
455.3235	0.075	910647	keystroke_m	m	n/a
455.4885	0.075	910977	keystroke_o	o	n/a
455.6835	0.075	911367	keystroke_b	b	n/a
456.8385	0.06	913677	keystroke_i	i	n/a
457.0195	0.06	914039	keystroke_l	l	n/a
457.1385	0.06	914277	keystroke_e	e	n/a
457.2585	0.06	914517	keystroke_Key.space	Key.space	n/a
457.6035	0.045	915207	keystroke_t	t	n/a
457.844	0.06	915688	keystroke_r	r	n/a
458.354	0.075	916708	keystroke_u	u	n/a
458.519	0.12	917038	keystroke_s	s	n/a
458.609	0.09	917218	keystroke_t	t	n/a
458.894	0.075	917788	keystroke_Key.space	Key.space	n/a
459.5685	0.06	919137	keystroke_Key.backspace	Key.backspace	n/a
459.6585	0.076	919317	keystroke_s	s	n/a
459.7785	0.075	919557	keystroke_Key.space	Key.space	n/a
460.3185	0.12	920637	keystroke_w	w	n/a
460.5435	0.06	921087	keystroke_h	h	n/a
460.6485	0.12	921297	keystroke_a	a	n/a
460.7535	0.075	921507	keystroke_t	t	n/a
461.2635	0.075	922527	keystroke_;	;	n/a
462.164	0.06	924328	keystroke_Key.backspace	Key.backspace	n/a
462.779	0.06	925558	keystroke_'	'	n/a
463.784	0.06	927568	keystroke_l	l	n/a
463.934	0.06	927868	keystroke_l	l	n/a
464.1585	0.03	928317	keystroke_Key.space	Key.space	n/a
464.7135	0.075	929427	keystroke_q	q	n/a
464.8485	0.06	929697	keystroke_u	u	n/a
465.1035	0.105	930207	keystroke_a	a	n/a
465.2095	0.059	930419	keystroke_r	r	n/a
465.4185	0.0605	930837	keystroke_t	t	n/a
465.5835	0.105	931167	keystroke_e	e	n/a
465.6735	0.075	931347	keystroke_r	r	n/a
466.394	0.06	932788	keystroke_Key.enter	Key.enter	n/a
466.474	7.3075	932948	prompt	n/a	domestic knows chaos herb\n
467.069	0.06	934138	keystroke_d	d	n/a
467.2945	0.074	934589	keystroke_e	e	n/a
467.654	0.06	935308	keystroke_Key.backspace	Key.backspace	n/a
467.849	0.06	935698	keystroke_o	o	n/a
468.014	0.0895	936028	keystroke_m	m	n/a
468.2835	0.075	936567	keystroke_e	e	n/a
468.4485	0.09	936897	keystroke_s	s	n/a
468.6135	0.06	937227	keystroke_t	t	n/a
468.7485	0.06	937497	keystroke_i	i	n/a
468.8985	0.09	937797	keystroke_c	c	n/a
469.0935	0.075	938187	keystroke_Key.space	Key.space	n/a
469.5735	0.06	939147	keystroke_k	k	n/a
469.6935	0.06	939387	keystroke_n	n	n/a
469.8435	0.075	939687	keystroke_o	o	n/a
469.9485	0.075	939897	keystroke_w	w	n/a
470.1585	0.06	940317	keystroke_s	s	n/a
470.3085	0.06	940617	keystroke_Key.space	Key.space	n/a
470.7435	0.0755	941487	keystroke_c	c	n/a
470.834	0.06	941668	keystroke_h	h	n/a
471.014	0.06	942028	keystroke_o	o	n/a
471.434	0.075	942868	keystroke_Key.backspace	Key.backspace	n/a
471.569	0.0895	943138	keystroke_a	a	n/a
471.6735	0.075	943347	keystroke_o	o	n/a
471.8085	0.075	943617	keystroke_s	s	n/a
471.9885	0.06	943977	keystroke_Key.space	Key.space	n/a
472.4235	0.06	944847	keystroke_h	h	n/a
472.6485	0.18	945297	keystroke_e	e	n/a
472.7985	0.06	945597	keystroke_r	r	n/a
473.039	0.0745	946078	keystroke_b	b	n/a
473.6985	0.075	947397	keystroke_Key.enter	Key.enter	n/a
473.7855	10.2715	947571	prompt	n/a	pension americans trusted holds\n
474.4185	0.045	948837	keystroke_p	p	n/a
474.5385	0.075	949077	keystroke_e	e	n/a
474.659	0.075	949318	keystroke_n	n	n/a
474.794	0.075	949588	keystroke_s	s	n/a
474.899	0.12	949798	keystroke_i	i	n/a
474.989	0.06	949978	keystroke_o	o	n/a
475.124	0.09	950248	keystroke_n	n	n/a
475.334	0.075	950668	keystroke_Key.space	Key.space	n/a
475.574	0.09	951148	keystroke_a	a	n/a
475.694	0.075	951388	keystroke_m	m	n/a
475.859	0.105	951718	keystroke_e	e	n/a
475.934	0.06	951868	keystroke_r	r	n/a
476.114	0.06	952228	keystroke_i	i	n/a
476.219	0.135	952438	keystroke_c	c	n/a
476.339	0.075	952678	keystroke_a	a	n/a
476.474	0.09	952948	keystroke_n	n	n/a
476.669	0.06	953338	keystroke_Key.space	Key.space	n/a
479.8505	0.028	959701	keystroke_Key.backspace	Key.backspace	n/a
479.9535	0.0755	959907	keystroke_s	s	n/a
480.134	0.045	960268	keystroke_Key.space	Key.space	n/a
480.359	0.075	960718	keystroke_t	t	n/a
480.5835	0.06	961167	keystroke_r	r	n/a
480.7035	0.06	961407	keystroke_u	u	n/a
480.8085	0.1355	961617	keystroke_s	s	n/a
480.914	0.09	961828	keystroke_t	t	n/a
481.9635	0.06	963927	keystroke_e	e	n/a
482.159	0.06	964318	keystroke_d	d	n/a
482.3085	0.075	964617	keystroke_Key.space	Key.space	n/a
482.6835	0.045	965367	keystroke_h	h	n/a
482.8635	0.075	965727	keystroke_o	o	n/a
483.059	0.06	966118	keystroke_l	l	n/a
483.149	0.06	966298	keystroke_d	d	n/a
483.8085	0.06	967617	keystroke_s	s	n/a
483.9885	0.06	967977	keystroke_Key.enter	Key.enter	n/a
484.061	8.186	968122	prompt	n/a	brings sons nose transparency\n
484.784	0.075	969568	keystroke_b	b	n/a
485.009	0.06	970018	keystroke_r	r	n/a
485.099	0.075	970198	keystroke_i	i	n/a
485.279	0.06	970558	keystroke_n	n	n/a
485.354	0.015	970708	keystroke_g	g	n/a
485.609	0.06	971218	keystroke_Key.space	Key.space	n/a
486.059	0.06	972118	keystroke_Key.backspace	Key.backspace	n/a
486.209	0.075	972418	keystroke_s	s	n/a
486.299	0.06	972598	keystroke_Key.space	Key.space	n/a
486.524	0.045	973048	keystroke_s	s	n/a
486.599	0.075	973198	keystroke_o	o	n/a
486.794	0.075	973588	keystroke_n	n	n/a
487.034	0.09	974068	keystroke_s	s	n/a
487.169	0.075	974338	keystroke_Key.space	Key.space	n/a
487.664	0.045	975328	keystroke_n	n	n/a
487.8135	0.06	975627	keystroke_o	o	n/a
487.9335	0.135	975867	keystroke_s	s	n/a
488.0385	0.06	976077	keystroke_e	e	n/a
488.1885	0.075	976377	keystroke_Key.space	Key.space	n/a
488.489	0.0745	976978	keystroke_t	t	n/a
488.7135	0.12	977427	keystroke_r	r	n/a
488.8035	0.09	977607	keystroke_a	a	n/a
488.9385	0.06	977877	keystroke_n	n	n/a
489.0585	0.0905	978117	keystroke_s	s	n/a
490.214	0.075	980428	keystroke_p	p	n/a
490.409	0.105	980818	keystroke_a	a	n/a
490.529	0.105	981058	keystroke_r	r	n/a
490.604	0.09	981208	keystroke_e	e	n/a
490.799	0.06	981598	keystroke_n	n	n/a
491.249	0.09	982498	keystroke_c	c	n/a
491.504	0.045	983008	keystroke_y	y	n/a
492.1795	0.06	984359	keystroke_Key.enter	Key.enter	n/a
492.2515	23.666	984503	prompt	n/a	allowance macedonia cologne subscribers\n
492.9885	0.06	985977	keystroke_a	a	n/a
493.0935	0.06	986187	keystroke_l	l	n/a
493.2585	0.045	986517	keystroke_l	l	n/a
493.3935	0.075	986787	keystroke_o	o	n/a
493.499	0.0755	986998	keystroke_w	w	n/a
493.964	0.075	987928	keystroke_a	a	n/a
494.0835	0.075	988167	keystroke_n	n	n/a
494.2795	0.119	988559	keystroke_c	c	n/a
494.3535	0.105	988707	keystroke_e	e	n/a
494.8785	0.06	989757	keystroke_Key.space	Key.space	n/a
495.344	0.09	990688	keystroke_m	m	n/a
495.7335	0.075	991467	keystroke_a	a	n/a
496.3185	0.18	992637	keystroke_c	c	n/a
496.4685	0.09	992937	keystroke_e	e	n/a
499.486	0.001	998972	keystroke_d	d	n/a
499.649	0.045	999298	keystroke_e	e	n/a
501.4485	0.06	1002897	keystroke_Key.backspace	Key.backspace	n/a
501.674	0.075	1003348	keystroke_o	o	n/a
501.869	0.045	1003738	keystroke_n	n	n/a
502.034	0.045	1004068	keystroke_i	i	n/a
502.154	0.105	1004308	keystroke_a	a	n/a
509.0565	0.001	1018113	keystroke_Key.space	Key.space	n/a
509.249	0.09	1018498	keystroke_c	c	n/a
509.354	0.075	1018708	keystroke_o	o	n/a
509.549	0.06	1019098	keystroke_l	l	n/a
510.044	0.06	1020088	keystroke_o	o	n/a
510.419	0.06	1020838	keystroke_g	g	n/a
510.644	0.075	1021288	keystroke_n	n	n/a
510.824	0.0755	1021648	keystroke_e	e	n/a
511.0195	0.075	1022039	keystroke_Key.space	Key.space	n/a
511.6195	0.06	1023239	keystroke_s	s	n/a
511.7545	0.045	1023509	keystroke_u	u	n/a
511.9345	0.075	1023869	keystroke_b	b	n/a
512.744	0.105	1025488	keystroke_s	s	n/a
513.209	0.105	1026418	keystroke_c	c	n/a
513.494	0.06	1026988	keystroke_r	r	n/a
513.644	0.06	1027288	keystroke_i	i	n/a
514.035	0.059	1028070	keystroke_b	b	n/a
514.844	0.03	1029688	keystroke_e	e	n/a
515.204	0.075	1030408	keystroke_r	r	n/a
515.399	0.09	1030798	keystroke_s	s	n/a
515.849	0.06	1031698	keystroke_Key.enter	Key.enter	n/a
515.924	11.2165	1031848	prompt	n/a	keith occupied wisdom disputes\n
516.5395	0.06	1033079	keystroke_k	k	n/a
516.7045	0.06	1033409	keystroke_i	i	n/a
517.0495	0.06	1034099	keystroke_t	t	n/a
517.3795	0.06	1034759	keystroke_Key.backspace	Key.backspace	n/a
517.5295	0.06	1035059	keystroke_Key.backspace	Key.backspace	n/a
517.6045	0.06	1035209	keystroke_e	e	n/a
517.7695	0.06	1035539	keystroke_i	i	n/a
517.9045	0.075	1035809	keystroke_t	t	n/a
518.0545	0.06	1036109	keystroke_h	h	n/a
518.6545	0.06	1037309	keystroke_Key.space	Key.space	n/a
519.0145	0.045	1038029	keystroke_o	o	n/a
519.3295	0.045	1038659	keystroke_c	c	n/a
519.5395	0.075	1039079	keystroke_c	c	n/a
520.199	0.06	1040398	keystroke_u	u	n/a
520.379	0.0755	1040758	keystroke_p	p	n/a
520.6195	0.06	1041239	keystroke_i	i	n/a
520.7235	0.061	1041447	keystroke_e	e	n/a
520.9035	0.061	1041807	keystroke_d	d	n/a
521.0695	0.059	1042139	keystroke_Key.space	Key.space	n/a
521.8635	0.06	1043727	keystroke_w	w	n/a
521.9985	0.0605	1043997	keystroke_i	i	n/a
522.629	0.06	1045258	keystroke_s	s	n/a
522.899	0.06	1045798	keystroke_d	d	n/a
523.034	0.075	1046068	keystroke_o	o	n/a
523.304	0.075	1046608	keystroke_m	m	n/a
523.574	0.045	1047148	keystroke_Key.space	Key.space	n/a
523.934	0.06	1047868	keystroke_d	d	n/a
524.039	0.06	1048078	keystroke_i	i	n/a
524.159	0.075	1048318	keystroke_s	s	n/a
524.294	0.075	1048588	keystroke_p	p	n/a
524.519	0.0155	1049038	keystroke_u	u	n/a
524.5495	0.09	1049099	keystroke_t	t	n/a
524.6995	0.075	1049399	keystroke_e	e	n/a
524.8945	0.075	1049789	keystroke_s	s	n/a
527.1315	0.001	1054263	keystroke_Key.enter	Key.enter	n/a
527.147	8.2855	1054294	prompt	n/a	feof investors disease shine\n
527.9695	0.06	1055939	keystroke_f	f	n/a
528.344	0.075	1056688	keystroke_e	e	n/a
528.464	0.075	1056928	keystroke_o	o	n/a
528.5995	0.0745	1057199	keystroke_f	f	n/a
528.854	0.09	1057708	keystroke_Key.space	Key.space	n/a
529.3345	0.06	1058669	keystroke_i	i	n/a
529.4845	0.075	1058969	keystroke_n	n	n/a
529.5745	0.0595	1059149	keystroke_v	v	n/a
529.769	0.09	1059538	keystroke_e	e	n/a
529.874	0.1955	1059748	keystroke_s	s	n/a
530.054	0.0605	1060108	keystroke_t	t	n/a
530.2045	0.06	1060409	keystroke_o	o	n/a
530.3395	0.06	1060679	keystroke_r	r	n/a
531.0145	0.045	1062029	keystroke_s	s	n/a
531.1045	0.09	1062209	keystroke_Key.space	Key.space	n/a
531.434	0.06	1062868	keystroke_d	d	n/a
531.554	0.061	1063108	keystroke_i	i	n/a
531.6895	0.0895	1063379	keystroke_s	s	n/a
532.949	0.195	1065898	keystroke_e	e	n/a
533.159	0.12	1066318	keystroke_a	a	n/a
533.429	0.135	1066858	keystroke_s	s	n/a
533.579	0.0755	1067158	keystroke_e	e	n/a
533.7885	0.061	1067577	keystroke_Key.space	Key.space	n/a
534.5395	0.0745	1069079	keystroke_s	s	n/a
534.779	0.06	1069558	keystroke_h	h	n/a
534.914	0.06	1069828	keystroke_i	i	n/a
535.049	0.075	1070098	keystroke_n	n	n/a
535.139	0.075	1070278	keystroke_e	e	n/a
535.364	0.06	1070728	keystroke_Key.enter	Key.enter	n/a
535.4385	14.9365	1070877	prompt	n/a	dust realty taking washington\n
536.0545	0.0595	1072109	keystroke_d	d	n/a
536.219	0.06	1072438	keystroke_u	u	n/a
536.399	0.076	1072798	keystroke_s	s	n/a
536.519	0.06	1073038	keystroke_t	t	n/a
536.714	0.09	1073428	keystroke_Key.space	Key.space	n/a
537.4795	0.105	1074959	keystroke_r	r	n/a
537.5395	0.12	1075079	keystroke_e	e	n/a
537.7195	0.135	1075439	keystroke_a	a	n/a
538.1995	0.06	1076399	keystroke_l	l	n/a
538.3645	0.09	1076729	keystroke_i	i	n/a
538.6195	0.045	1077239	keystroke_t	t	n/a
538.8445	0.06	1077689	keystroke_y	y	n/a
539.2795	0.03	1078559	keystroke_Key.backspace	Key.backspace	n/a
539.4145	0.06	1078829	keystroke_Key.backspace	Key.backspace	n/a
539.5485	0.061	1079097	keystroke_Key.backspace	Key.backspace	n/a
539.7895	0.06	1079579	keystroke_y	y	n/a
540.1495	0.059	1080299	keystroke_Key.backspace	Key.backspace	n/a
540.2395	0.075	1080479	keystroke_t	t	n/a
540.4495	0.06	1080899	keystroke_y	y	n/a
540.7345	0.059	1081469	keystroke_Key.space	Key.space	n/a
541.514	0.06	1083028	keystroke_k	k	n/a
541.844	0.06	1083688	keystroke_Key.backspace	Key.backspace	n/a
541.919	0.105	1083838	keystroke_t	t	n/a
541.994	0.105	1083988	keystroke_a	a	n/a
542.084	0.06	1084168	keystroke_k	k	n/a
542.249	0.0445	1084498	keystroke_i	i	n/a
542.3835	0.076	1084767	keystroke_n	n	n/a
542.4885	0.0605	1084977	keystroke_g	g	n/a
542.669	0.075	1085338	keystroke_Key.space	Key.space	n/a
543.0895	0.09	1086179	keystroke_w	w	n/a
543.2245	0.15	1086449	keystroke_a	a	n/a
543.3445	0.105	1086689	keystroke_s	s	n/a
543.4345	0.06	1086869	keystroke_h	h	n/a
543.5995	0.0745	1087199	keystroke_i	i	n/a
543.764	0.075	1087528	keystroke_n	n	n/a
543.87	0.059	1087740	keystroke_g	g	n/a
544.664	0.0595	1089328	keystroke_t	t	n/a
544.7995	0.045	1089599	keystroke_o	o	n/a
546.254	0.06	1092508	keystroke_n	n	n/a
550.322	0.042	1100644	keystroke_Key.enter	Key.enter	n/a
550.379	7.7035	1100758	prompt	n/a	intl secrets oops ratings\n
551.1745	0.06	1102349	keystroke_i	i	n/a
551.3245	0.06	1102649	keystroke_n	n	n/a
551.4295	0.06	1102859	keystroke_t	t	n/a
551.7295	0.045	1103459	keystroke_l	l	n/a
551.909	0.075	1103818	keystroke_Key.space	Key.space	n/a
552.3745	0.0745	1104749	keystroke_s	s	n/a
552.569	0.075	1105138	keystroke_c	c	n/a
553.334	0.045	1106668	keystroke_Key.backspace	Key.backspace	n/a
553.394	0.075	1106788	keystroke_e	e	n/a
553.634	0.09	1107268	keystroke_c	c	n/a
553.949	0.135	1107898	keystroke_r	r	n/a
554.039	0.09	1108078	keystroke_e	e	n/a
554.264	0.06	1108528	keystroke_t	t	n/a
554.924	0.09	1109848	keystroke_s	s	n/a
555.059	0.075	1110118	keystroke_Key.space	Key.space	n/a
555.3745	0.03	1110749	keystroke_o	o	n/a
555.51	0.119	1111020	keystroke_o	o	n/a
555.614	0.061	1111228	keystroke_p	p	n/a
556.2445	0.075	1112489	keystroke_s	s	n/a
556.4245	0.075	1112849	keystroke_Key.space	Key.space	n/a
556.7995	0.135	1113599	keystroke_r	r	n/a
556.9195	0.09	1113839	keystroke_a	a	n/a
557.1295	0.075	1114259	keystroke_t	t	n/a
557.2345	0.06	1114469	keystroke_i	i	n/a
557.3845	0.075	1114769	keystroke_n	n	n/a
557.4895	0.06	1114979	keystroke_g	g	n/a
557.8045	0.06	1115609	keystroke_s	s	n/a
558.0145	0.06	1116029	keystroke_Key.enter	Key.enter	n/a
558.0865	8.981	1116173	prompt	n/a	account obligation monica clone\n
558.6445	0.06	1117289	keystroke_a	a	n/a
558.7945	0.06	1117589	keystroke_c	c	n/a
558.9445	0.06	1117889	keystroke_c	c	n/a
559.0195	0.06	1118039	keystroke_o	o	n/a
559.1545	0.075	1118309	keystroke_u	u	n/a
559.3495	0.075	1118699	keystroke_n	n	n/a
559.4095	0.075	1118819	keystroke_t	t	n/a
559.5895	0.075	1119179	keystroke_Key.space	Key.space	n/a
560.099	0.06	1120198	keystroke_o	o	n/a
560.294	0.06	1120588	keystroke_b	b	n/a
560.429	0.06	1120858	keystroke_l	l	n/a
560.579	0.06	1121158	keystroke_i	i	n/a
561.1345	0.105	1122269	keystroke_g	g	n/a
561.2545	0.075	1122509	keystroke_a	a	n/a
561.434	0.075	1122868	keystroke_t	t	n/a
561.614	0.0755	1123228	keystroke_i	i	n/a
561.84	0.0745	1123680	keystroke_o	o	n/a
562.0345	0.0605	1124069	keystroke_n	n	n/a
562.245	0.0595	1124490	keystroke_Key.space	Key.space	n/a
562.934	0.0755	1125868	keystroke_m	m	n/a
563.1445	0.045	1126289	keystroke_o	o	n/a
563.325	0.06	1126650	keystroke_n	n	n/a
563.505	0.045	1127010	keystroke_i	i	n/a
563.61	0.1045	1127220	keystroke_c	c	n/a
563.6695	0.0895	1127339	keystroke_a	a	n/a
564.314	0.165	1128628	keystroke_Key.space	Key.space	n/a
564.644	0.075	1129288	keystroke_c	c	n/a
564.734	0.06	1129468	keystroke_o	o	n/a
564.944	0.075	1129888	keystroke_n	n	n/a
565.064	0.06	1130128	keystroke_e	e	n/a
565.394	0.061	1130788	keystroke_Key.backspace	Key.backspace	n/a
565.56	0.059	1131120	keystroke_Key.backspace	Key.backspace	n/a
565.694	0.045	1131388	keystroke_Key.backspace	Key.backspace	n/a
565.905	0.06	1131810	keystroke_l	l	n/a
566.1	0.015	1132200	keystroke_o	o	n/a
566.22	0.074	1132440	keystroke_n	n	n/a
566.4	0.075	1132800	keystroke_e	e	n/a
566.999	0.06	1133998	keystroke_Key.enter	Key.enter	n/a
567.0715	7.271	1134143	prompt	n/a	lips sept grace scope\n
567.749	0.061	1135498	keystroke_l	l	n/a
567.945	0.09	1135890	keystroke_i	i	n/a
568.1845	0.06	1136369	keystroke_p	p	n/a
568.3045	0.075	1136609	keystroke_s	s	n/a
568.5295	0.045	1137059	keystroke_Key.space	Key.space	n/a
569.0245	0.045	1138049	keystroke_s	s	n/a
569.3995	0.06	1138799	keystroke_e	e	n/a
569.5495	0.06	1139099	keystroke_p	p	n/a
569.6845	0.075	1139369	keystroke_t	t	n/a
570.0295	0.0595	1140059	keystroke_Key.space	Key.space	n/a
570.42	0.074	1140840	keystroke_g	g	n/a
570.63	0.075	1141260	keystroke_r	r	n/a
570.675	0.12	1141350	keystroke_a	a	n/a
570.869	0.1955	1141738	keystroke_c	c	n/a
571.0345	0.075	1142069	keystroke_e	e	n/a
571.2445	0.075	1142489	keystroke_Key.space	Key.space	n/a
571.4695	0.0595	1142939	keystroke_s	s	n/a
571.589	0.12	1143178	keystroke_c	c	n/a
572.2945	0.135	1144589	keystroke_o	o	n/a
572.3845	0.09	1144769	keystroke_p	p	n/a
573.089	0.045	1146178	keystroke_e	e	n/a
574.275	0.06	1148550	keystroke_Key.enter	Key.enter	n/a
574.347	7.204	1148694	prompt	n/a	playback logging alice given\n
575.0095	0.06	1150019	keystroke_p	p	n/a
575.1745	0.06	1150349	keystroke_l	l	n/a
575.2495	0.12	1150499	keystroke_a	a	n/a
575.3545	0.075	1150709	keystroke_y	y	n/a
575.7745	0.075	1151549	keystroke_b	b	n/a
575.9545	0.1205	1151909	keystroke_a	a	n/a
576.0445	0.0905	1152089	keystroke_c	c	n/a
576.21	0.075	1152420	keystroke_k	k	n/a
576.3895	0.06	1152779	keystroke_Key.space	Key.space	n/a
576.6595	0.045	1153319	keystroke_l	l	n/a
576.8095	0.06	1153619	keystroke_o	o	n/a
576.9295	0.06	1153859	keystroke_g	g	n/a
577.1095	0.045	1154219	keystroke_g	g	n/a
577.1995	0.06	1154399	keystroke_i	i	n/a
577.3645	0.09	1154729	keystroke_n	n	n/a
577.4995	0.06	1154999	keystroke_g	g	n/a
577.6195	0.075	1155239	keystroke_Key.space	Key.space	n/a
578.0845	0.09	1156169	keystroke_a	a	n/a
578.2345	0.06	1156469	keystroke_l	l	n/a
578.3995	0.06	1156799	keystroke_i	i	n/a
578.5345	0.165	1157069	keystroke_c	c	n/a
578.6845	0.045	1157369	keystroke_e	e	n/a
578.8945	0.045	1157789	keystroke_Key.space	Key.space	n/a
579.0595	0.06	1158119	keystroke_g	g	n/a
579.1945	0.045	1158389	keystroke_i	i	n/a
579.3295	0.045	1158659	keystroke_v	v	n/a
579.5095	0.06	1159019	keystroke_e	e	n/a
579.6745	0.06	1159349	keystroke_n	n	n/a
580.7695	0.075	1161539	keystroke_Key.space	Key.space	n/a
581.0995	0.075	1162199	keystroke_Key.backspace	Key.backspace	n/a
581.4895	0.06	1162979	keystroke_Key.enter	Key.enter	n/a
581.5535	15.0795	1163107	prompt	n/a	provincial rick luxury informal\n
582.3745	0.045	1164749	keystroke_p	p	n/a
582.4945	0.075	1164989	keystroke_r	r	n/a
582.6745	0.06	1165349	keystroke_o	o	n/a
582.8095	0.09	1165619	keystroke_v	v	n/a
583.8145	0.06	1167629	keystroke_i	i	n/a
584.2945	0.06	1168589	keystroke_n	n	n/a
584.895	0.075	1169790	keystroke_c	c	n/a
585.03	0.06	1170060	keystroke_i	i	n/a
585.299	0.076	1170598	keystroke_a	a	n/a
585.404	0.076	1170808	keystroke_l	l	n/a
587.762	0.012	1175524	keystroke_Key.space	Key.space	n/a
587.984	0.075	1175968	keystroke_r	r	n/a
588.119	0.061	1176238	keystroke_i	i	n/a
588.239	0.09	1176478	keystroke_c	c	n/a
588.344	0.075	1176688	keystroke_k	k	n/a
588.539	0.0755	1177078	keystroke_Key.space	Key.space	n/a
588.8695	0.075	1177739	keystroke_l	l	n/a
589.0795	0.045	1178159	keystroke_u	u	n/a
589.4095	0.075	1178819	keystroke_x	x	n/a
590.444	0.09	1180888	keystroke_r	r	n/a
590.684	0.06	1181368	keystroke_y	y	n/a
591.329	0.06	1182658	keystroke_Key.backspace	Key.backspace	n/a
591.479	0.0755	1182958	keystroke_Key.backspace	Key.backspace	n/a
592.124	0.06	1184248	keystroke_u	u	n/a
592.244	0.06	1184488	keystroke_r	r	n/a
592.529	0.09	1185058	keystroke_y	y	n/a
593.0545	0.06	1186109	keystroke_Key.space	Key.space	n/a
593.5195	0.045	1187039	keystroke_i	i	n/a
593.669	0.075	1187338	keystroke_n	n	n/a
593.864	0.06	1187728	keystroke_f	f	n/a
594.134	0.0605	1188268	keystroke_r	r	n/a
594.5545	0.06	1189109	keystroke_Key.backspace	Key.backspace	n/a
594.8095	0.0755	1189619	keystroke_o	o	n/a
595.455	0.075	1190910	keystroke_m	m	n/a
595.71	0.09	1191420	keystroke_a	a	n/a
595.875	0.06	1191750	keystroke_l	l	n/a
596.5495	0.075	1193099	keystroke_Key.enter	Key.enter	n/a
596.638	8.575	1193276	prompt	n/a	automation eagle intl closing\n
597.2545	0.06	1194509	keystroke_a	a	n/a
597.3745	0.0605	1194749	keystroke_u	u	n/a
597.57	0.06	1195140	keystroke_t	t	n/a
597.69	0.075	1195380	keystroke_o	o	n/a
598.4695	0.075	1196939	keystroke_m	m	n/a
598.6495	0.09	1197299	keystroke_a	a	n/a
598.7095	0.09	1197419	keystroke_t	t	n/a
598.8295	0.15	1197659	keystroke_i	i	n/a
598.9345	0.075	1197869	keystroke_o	o	n/a
599.1295	0.075	1198259	keystroke_n	n	n/a
599.3245	0.06	1198649	keystroke_Key.space	Key.space	n/a
599.759	0.09	1199518	keystroke_e	e	n/a
599.984	0.106	1199968	keystroke_a	a	n/a
600.134	0.091	1200268	keystroke_g	g	n/a
600.749	0.06	1201498	keystroke_l	l	n/a
600.884	0.075	1201768	keystroke_e	e	n/a
601.019	0.06	1202038	keystroke_Key.space	Key.space	n/a
601.289	0.045	1202578	keystroke_i	i	n/a
601.439	0.076	1202878	keystroke_n	n	n/a
601.544	0.045	1203088	keystroke_t	t	n/a
601.709	0.06	1203418	keystroke_l	l	n/a
601.919	0.075	1203838	keystroke_Key.space	Key.space	n/a
602.4745	0.09	1204949	keystroke_c	c	n/a
602.5345	0.06	1205069	keystroke_l	l	n/a
602.6995	0.06	1205399	keystroke_o	o	n/a
602.8795	0.06	1205759	keystroke_i	i	n/a
603.0595	0.06	1206119	keystroke_n	n	n/a
603.1345	0.06	1206269	keystroke_g	g	n/a
603.9595	0.06	1207919	keystroke_Key.backspace	Key.backspace	n/a
604.1245	0.06	1208249	keystroke_Key.backspace	Key.backspace	n/a
604.2595	0.075	1208519	keystroke_Key.backspace	Key.backspace	n/a
604.4545	0.09	1208909	keystroke_s	s	n/a
604.5595	0.0595	1209119	keystroke_i	i	n/a
604.739	0.06	1209478	keystroke_n	n	n/a
604.8	0.074	1209600	keystroke_g	g	n/a
605.1445	0.06	1210289	keystroke_Key.enter	Key.enter	n/a
605.2175	10.076	1210435	prompt	n/a	genes mice bloom recommendation\n
605.849	0.045	1211698	keystroke_g	g	n/a
606.014	0.06	1212028	keystroke_e	e	n/a
606.119	0.075	1212238	keystroke_n	n	n/a
606.4495	0.06	1212899	keystroke_e	e	n/a
606.6595	0.075	1213319	keystroke_s	s	n/a
606.8245	0.075	1213649	keystroke_Key.space	Key.space	n/a
607.1695	0.09	1214339	keystroke_m	m	n/a
607.3345	0.06	1214669	keystroke_i	i	n/a
607.4545	0.075	1214909	keystroke_c	c	n/a
609.374	0.075	1218748	keystroke_e	e	n/a
609.5695	0.0755	1219139	keystroke_Key.space	Key.space	n/a
609.81	0.06	1219620	keystroke_b	b	n/a
609.975	0.06	1219950	keystroke_l	l	n/a
610.17	0.045	1220340	keystroke_o	o	n/a
610.32	0.06	1220640	keystroke_o	o	n/a
610.485	0.075	1220970	keystroke_,	,	n/a
610.754	0.06	1221508	keystroke_Key.space	Key.space	n/a
611.13	0.135	1222260	keystroke_r	r	n/a
611.235	0.089	1222470	keystroke_e	e	n/a
611.594	0.09	1223188	keystroke_c	c	n/a
612.8245	0.075	1225649	keystroke_o	o	n/a
613.0795	0.045	1226159	keystroke_m	m	n/a
613.259	0.06	1226518	keystroke_m	m	n/a
613.6495	0.06	1227299	keystroke_e	e	n/a
613.7995	0.045	1227599	keystroke_n	n	n/a
613.9045	0.09	1227809	keystroke_d	d	n/a
614.1295	0.105	1228259	keystroke_a	a	n/a
614.2345	0.09	1228469	keystroke_t	t	n/a
614.3545	0.105	1228709	keystroke_i	i	n/a
614.4145	0.0895	1228829	keystroke_o	o	n/a
614.565	0.09	1229130	keystroke_n	n	n/a
615.225	0.06	1230450	keystroke_Key.enter	Key.enter	n/a
615.2975	10.211	1230595	prompt	n/a	remembered quick instance inherited\n
616.305	0.09	1232610	keystroke_r	r	n/a
616.38	0.075	1232760	keystroke_e	e	n/a
616.575	0.075	1233150	keystroke_m	m	n/a
616.695	0.06	1233390	keystroke_e	e	n/a
616.815	0.06	1233630	keystroke_m	m	n/a
618.089	0.0755	1236178	keystroke_b	b	n/a
618.375	0.1045	1236750	keystroke_e	e	n/a
618.4345	0.09	1236869	keystroke_r	r	n/a
618.615	0.06	1237230	keystroke_e	e	n/a
618.795	0.075	1237590	keystroke_d	d	n/a
618.93	0.075	1237860	keystroke_Key.space	Key.space	n/a
619.08	0.075	1238160	keystroke_q	q	n/a
619.2	0.06	1238400	keystroke_u	u	n/a
619.35	0.06	1238700	keystroke_i	i	n/a
619.5	0.09	1239000	keystroke_c	c	n/a
619.6495	0.075	1239299	keystroke_k	k	n/a
619.8595	0.06	1239719	keystroke_Key.space	Key.space	n/a
620.73	0.06	1241460	keystroke_i	i	n/a
620.865	0.105	1241730	keystroke_n	n	n/a
620.985	0.105	1241970	keystroke_s	s	n/a
621.12	0.135	1242240	keystroke_t	t	n/a
621.225	0.1045	1242450	keystroke_a	a	n/a
621.5695	0.0605	1243139	keystroke_n	n	n/a
621.66	0.15	1243320	keystroke_c	c	n/a
621.75	0.09	1243500	keystroke_e	e	n/a
621.945	0.075	1243890	keystroke_Key.space	Key.space	n/a
622.3045	0.03	1244609	keystroke_i	i	n/a
622.4695	0.045	1244939	keystroke_n	n	n/a
622.6795	0.06	1245359	keystroke_h	h	n/a
622.7695	0.075	1245539	keystroke_e	e	n/a
623.97	0.0895	1247940	keystroke_r	r	n/a
624.134	0.075	1248268	keystroke_i	i	n/a
624.315	0.059	1248630	keystroke_t	t	n/a
624.5395	0.06	1249079	keystroke_e	e	n/a
624.7645	0.06	1249529	keystroke_d	d	n/a
625.4395	0.06	1250879	keystroke_Key.enter	Key.enter	n/a
625.5145	9.1735	1251029	prompt	n/a	races proved katie cliff\n
626.1295	0.105	1252259	keystroke_r	r	n/a
626.3995	0.09	1252799	keystroke_a	a	n/a
626.5645	0.165	1253129	keystroke_c	c	n/a
626.6995	0.0745	1253399	keystroke_e	e	n/a
626.894	0.091	1253788	keystroke_s	s	n/a
627.044	0.0905	1254088	keystroke_Key.space	Key.space	n/a
627.4495	0.075	1254899	keystroke_p	p	n/a
627.6145	0.06	1255229	keystroke_r	r	n/a
627.765	0.045	1255530	keystroke_o	o	n/a
628.53	0.075	1257060	keystroke_v	v	n/a
628.754	0.075	1257508	keystroke_e	e	n/a
628.9795	0.075	1257959	keystroke_d	d	n/a
629.1595	0.06	1258319	keystroke_Key.space	Key.space	n/a
629.5345	0.075	1259069	keystroke_k	k	n/a
629.8495	0.075	1259699	keystroke_a	a	n/a
630.105	0.06	1260210	keystroke_t	t	n/a
630.24	0.06	1260480	keystroke_i	i	n/a
630.375	0.06	1260750	keystroke_e	e	n/a
630.6	0.06	1261200	keystroke_Key.space	Key.space	n/a
631.064	0.09	1262128	keystroke_c	c	n/a
631.139	0.061	1262278	keystroke_l	l	n/a
631.32	0.045	1262640	keystroke_i	i	n/a
632.31	0.06	1264620	keystroke_f	f	n/a
632.46	0.06	1264920	keystroke_f	f	n/a
634.667	0.012	1269334	keystroke_Key.enter	Key.enter	n/a
634.6925	9.4015	1269385	prompt	n/a	advertisements syndicate intense bath\n
635.385	0.06	1270770	keystroke_a	a	n/a
635.5645	0.075	1271129	keystroke_d	d	n/a
635.8645	0.06	1271729	keystroke_v	v	n/a
636.0895	0.135	1272179	keystroke_e	e	n/a
636.1795	0.075	1272359	keystroke_r	r	n/a
636.87	0.059	1273740	keystroke_t	t	n/a
637.095	0.075	1274190	keystroke_i	i	n/a
637.275	0.149	1274550	keystroke_s	s	n/a
637.409	0.075	1274818	keystroke_e	e	n/a
637.665	0.06	1275330	keystroke_m	m	n/a
637.754	0.09	1275508	keystroke_e	e	n/a
637.889	0.075	1275778	keystroke_n	n	n/a
