onset	duration	sample	value	key	prompt_text
2.242	23.2615	4484	prompt	n/a	the quick brown fox jumps over a lazy dog\n
8.3805	0.151	16761	keystroke	t	n/a
8.5	0.096	17000	keystroke	h	n/a
8.597	0.1825	17194	keystroke	e	n/a
8.7325	0.16	17465	keystroke	Key.space	n/a
10.3005	0.136	20601	keystroke	w	n/a
10.4525	0.08	20905	keystroke	u	n/a
10.6605	0.072	21321	keystroke	i	n/a
10.9485	0.072	21897	keystroke	Key.backspace	n/a
11.0915	0.081	22183	keystroke	Key.backspace	n/a
11.6285	0.087	23257	keystroke	Key.backspace	n/a
11.852	0.1275	23704	keystroke	q	n/a
12.02	0.0725	24040	keystroke	u	n/a
12.2045	0.047	24409	keystroke	i	n/a
12.764	0.112	25528	keystroke	c	n/a
12.8845	0.0715	25769	keystroke	k	n/a
12.988	0.1435	25976	keystroke	Key.space	n/a
13.1955	0.1205	26391	keystroke	b	n/a
13.3565	0.096	26713	keystroke	r	n/a
13.5405	0.103	27081	keystroke	o	n/a
13.6525	0.135	27305	keystroke	w	n/a
13.8925	0.08	27785	keystroke	n	n/a
13.9565	0.136	27913	keystroke	Key.space	n/a
14.1795	0.153	28359	keystroke	f	n/a
14.4845	0.135	28969	keystroke	o	n/a
14.6435	0.152	29287	keystroke	x	n/a
14.9155	0.104	29831	keystroke	Key.space	n/a
15.1395	0.1205	30279	keystroke	j	n/a
15.3165	0.096	30633	keystroke	u	n/a
15.564	0.0325	31128	keystroke	m	n/a
16.3075	0.088	32615	keystroke	o	n/a
16.732	0.0955	33464	keystroke	Key.backspace	n/a
17.8925	0.047	35785	keystroke	p	n/a
18.0765	0.136	36153	keystroke	s	n/a
18.3315	0.153	36663	keystroke	Key.space	n/a
18.764	0.0715	37528	keystroke	o	n/a
18.9635	0.105	37927	keystroke	v	n/a
19.2125	0.1675	38425	keystroke	e	n/a
19.3085	0.12	38617	keystroke	r	n/a
19.46	0.208	38920	keystroke	Key.space	n/a
20.0435	0.169	40087	keystroke	a	n/a
20.252	0.1435	40504	keystroke	Key.space	n/a
22.436	0.136	44872	keystroke	l	n/a
22.572	0.1285	45144	keystroke	a	n/a
22.988	0.1275	45976	keystroke	z	n/a
23.1475	0.0885	46295	keystroke	y	n/a
23.428	0.0955	46856	keystroke	Key.space	n/a
23.6435	0.0965	47287	keystroke	d	n/a
23.7715	0.0885	47543	keystroke	o	n/a
23.908	0.088	47816	keystroke	g	n/a
25.364	0.136	50728	keystroke	Key.enter	n/a
25.5085	15.7935	51017	prompt	n/a	linking tomorrow deal commodity\n
30.2205	0.2475	60441	keystroke	l	n/a
30.3885	0.1355	60777	keystroke	i	n/a
30.548	0.176	61096	keystroke	n	n/a
30.692	0.144	61384	keystroke	k	n/a
30.9315	0.0805	61863	keystroke	i	n/a
31.068	0.12	62136	keystroke	g	n/a
31.084	0.08	62168	keystroke	n	n/a
31.172	0.1595	62344	keystroke	Key.space	n/a
31.3485	0.1595	62697	keystroke	t	n/a
31.74	0.072	63480	keystroke	Key.backspace	n/a
31.8995	0.0645	63799	keystroke	Key.backspace	n/a
32.044	0.072	64088	keystroke	Key.backspace	n/a
32.18	0.104	64360	keystroke	Key.backspace	n/a
32.5	0.088	65000	keystroke	n	n/a
32.612	0.128	65224	keystroke	g	n/a
32.708	0.144	65416	keystroke	Key.space	n/a
32.916	0.152	65832	keystroke	t	n/a
33.236	0.1045	66472	keystroke	m	n/a
33.604	0.1035	67208	keystroke	Key.backspace	n/a
33.884	0.0805	67768	keystroke	o	n/a
34.028	0.096	68056	keystroke	m	n/a
34.388	0.048	68776	keystroke	o	n/a
34.62	0.064	69240	keystroke	t	n/a
34.804	0.072	69608	keystroke	t	n/a
35.324	0.08	70648	keystroke	Key.backspace	n/a
35.4995	0.0645	70999	keystroke	Key.backspace	n/a
35.844	0.0885	71688	keystroke	r	n/a
36.004	0.12	72008	keystroke	r	n/a
36.2115	0.0965	72423	keystroke	o	n/a
36.3485	0.119	72697	keystroke	w	n/a
36.684	0.0875	73368	keystroke	Key.space	n/a
37.724	0.08	75448	keystroke	d	n/a
37.892	0.1365	75784	keystroke	e	n/a
38.003	0.153	76006	keystroke	a	n/a
38.124	0.096	76248	keystroke	l	n/a
38.275	0.088	76550	keystroke	Key.space	n/a
38.4925	0.1195	76985	keystroke	c	n/a
38.612	0.071	77224	keystroke	o	n/a
39.2685	0.0315	78537	keystroke	m	n/a
39.588	0.096	79176	keystroke	m	n/a
40.06	0.112	80120	keystroke	o	n/a
40.588	0.12	81176	keystroke	d	n/a
40.764	0.088	81528	keystroke	i	n/a
40.876	0.1115	81752	keystroke	t	n/a
41.0115	0.088	82023	keystroke	y	n/a
41.228	0.0715	82456	keystroke	Key.enter	n/a
41.3115	10.7745	82623	prompt	n/a	mercedes resist ongoing formats\n
42.1245	0.1355	84249	keystroke	m	n/a
42.2685	0.1515	84537	keystroke	e	n/a
42.388	0.088	84776	keystroke	r	n/a
42.716	0.096	85432	keystroke	c	n/a
43.3555	0.12	86711	keystroke	e	n/a
43.7005	0.071	87401	keystroke	d	n/a
44.044	0.208	88088	keystroke	e	n/a
44.18	0.144	88360	keystroke	s	n/a
44.332	0.112	88664	keystroke	Key.space	n/a
44.716	0.064	89432	keystroke	r	n/a
45.228	0.095	90456	keystroke	Key.backspace	n/a
45.4995	0.104	90999	keystroke	Key.backspace	n/a
46.6835	0.1045	93367	keystroke	Key.space	n/a
46.836	0.1435	93672	keystroke	r	n/a
46.915	0.1125	93830	keystroke	e	n/a
47.2205	0.1275	94441	keystroke	s	n/a
47.34	0.12	94680	keystroke	i	n/a
47.476	0.1435	94952	keystroke	s	n/a
47.78	0.112	95560	keystroke	t	n/a
47.956	0.111	95912	keystroke	Key.space	n/a
48.396	0.088	96792	keystroke	o	n/a
48.5805	0.079	97161	keystroke	n	n/a
49.0595	0.096	98119	keystroke	g	n/a
49.1715	0.0885	98343	keystroke	o	n/a
49.364	0.08	98728	keystroke	i	n/a
49.492	0.0965	98984	keystroke	n	n/a
49.6445	0.0635	99289	keystroke	g	n/a
49.684	0.128	99368	keystroke	Key.space	n/a
49.9	0.112	99800	keystroke	f	n/a
50.2765	0.0875	100553	keystroke	o	n/a
50.3875	0.088	100775	keystroke	r	n/a
50.5325	0.088	101065	keystroke	m	n/a
50.6835	0.1525	101367	keystroke	a	n/a
50.9315	0.1525	101863	keystroke	r	n/a
51.4435	0.0965	102887	keystroke	Key.backspace	n/a
51.547	0.104	103094	keystroke	t	n/a
51.708	0.1285	103416	keystroke	s	n/a
51.988	0.0955	103976	keystroke	Key.enter	n/a
52.091	7.011	104182	prompt	n/a	robust fraud references mill\n
52.82	0.104	105640	keystroke	r	n/a
52.916	0.08	105832	keystroke	o	n/a
53.132	0.16	106264	keystroke	b	n/a
53.252	0.104	106504	keystroke	u	n/a
53.3165	0.1515	106633	keystroke	s	n/a
53.444	0.096	106888	keystroke	t	n/a
53.516	0.096	107032	keystroke	Key.space	n/a
53.764	0.1595	107528	keystroke	f	n/a
53.9715	0.137	107943	keystroke	r	n/a
54.148	0.144	108296	keystroke	a	n/a
54.612	0.08	109224	keystroke	u	n/a
55.7555	0.152	111511	keystroke	d	n/a
56.0675	0.112	112135	keystroke	Key.space	n/a
56.4675	0.1685	112935	keystroke	r	n/a
56.564	0.1355	113128	keystroke	e	n/a
56.8435	0.12	113687	keystroke	f	n/a
57.0835	0.1205	114167	keystroke	e	n/a
57.164	0.152	114328	keystroke	r	n/a
57.308	0.12	114616	keystroke	e	n/a
57.42	0.112	114840	keystroke	n	n/a
57.596	0.192	115192	keystroke	c	n/a
57.7315	0.1685	115463	keystroke	e	n/a
57.8515	0.1525	115703	keystroke	s	n/a
58.084	0.1115	116168	keystroke	Key.space	n/a
58.34	0.104	116680	keystroke	m	n/a
58.508	0.113	117016	keystroke	i	n/a
58.676	0.072	117352	keystroke	l	n/a
58.82	0.08	117640	keystroke	l	n/a
59.028	0.072	118056	keystroke	Key.enter	n/a
59.106	7.0595	118212	prompt	n/a	chess theme relations auckland\n
59.8285	0.1195	119657	keystroke	c	n/a
59.94	0.12	119880	keystroke	h	n/a
60.116	0.112	120232	keystroke	e	n/a
60.332	0.088	120664	keystroke	s	n/a
60.468	0.128	120936	keystroke	s	n/a
60.676	0.128	121352	keystroke	Key.space	n/a
61.188	0.1195	122376	keystroke	t	n/a
61.3	0.1035	122600	keystroke	h	n/a
61.4515	0.1125	122903	keystroke	e	n/a
61.5875	0.0965	123175	keystroke	m	n/a
61.7075	0.128	123415	keystroke	e	n/a
61.932	0.12	123864	keystroke	Key.space	n/a
62.1155	0.16	124231	keystroke	r	n/a
62.196	0.152	124392	keystroke	e	n/a
62.355	0.1205	124710	keystroke	l	n/a
62.436	0.16	124872	keystroke	a	n/a
62.564	0.104	125128	keystroke	t	n/a
62.628	0.2	125256	keystroke	i	n/a
62.747	0.121	125494	keystroke	o	n/a
62.908	0.103	125816	keystroke	n	n/a
63.003	0.128	126006	keystroke	s	n/a
63.2515	0.1035	126503	keystroke	Key.space	n/a
63.756	0.12	127512	keystroke	a	n/a
64.076	0.12	128152	keystroke	u	n/a
65.068	0.1115	130136	keystroke	c	n/a
65.244	0.079	130488	keystroke	k	n/a
65.428	0.072	130856	keystroke	l	n/a
65.508	0.12	131016	keystroke	a	n/a
65.644	0.096	131288	keystroke	n	n/a
65.748	0.112	131496	keystroke	d	n/a
66.068	0.096	132136	keystroke	Key.enter	n/a
66.1685	10.9245	132337	prompt	n/a	bundle totals eligible tonight\n
66.804	0.2475	133608	keystroke	b	n/a
66.972	0.199	133944	keystroke	u	n/a
67.7235	0.1195	135447	keystroke	d	n/a
68.715	0.08	137430	keystroke	Key.backspace	n/a
69.308	0.096	138616	keystroke	n	n/a
69.644	0.1195	139288	keystroke	d	n/a
69.7475	0.0805	139495	keystroke	l	n/a
70.267	0.1285	140534	keystroke	e	n/a
70.4275	0.1275	140855	keystroke	Key.space	n/a
70.668	0.096	141336	keystroke	t	n/a
70.74	0.072	141480	keystroke	o	n/a
70.908	0.112	141816	keystroke	t	n/a
71.084	0.104	142168	keystroke	a	n/a
71.2835	0.096	142567	keystroke	l	n/a
71.5315	0.144	143063	keystroke	s	n/a
71.7235	0.1275	143447	keystroke	Key.space	n/a
72.124	0.127	144248	keystroke	e	n/a
72.371	0.3285	144742	keystroke	l	n/a
72.508	0.2555	145016	keystroke	i	n/a
73.02	0.0955	146040	keystroke	g	n/a
74.2755	0.0795	148551	keystroke	i	n/a
74.532	0.104	149064	keystroke	b	n/a
74.7475	0.096	149495	keystroke	l	n/a
74.8275	0.136	149655	keystroke	e	n/a
74.9795	0.112	149959	keystroke	Key.space	n/a
75.6275	0.104	151255	keystroke	t	n/a
75.7395	0.0485	151479	keystroke	o	n/a
75.868	0.175	151736	keystroke	n	n/a
76.003	0.088	152006	keystroke	i	n/a
76.099	0.0885	152198	keystroke	g	n/a
76.2755	0.0315	152551	keystroke	h	n/a
76.3155	0.0555	152631	keystroke	t	n/a
77.0115	0.08	154023	keystroke	Key.enter	n/a
77.099	12.315	154198	prompt	n/a	supreme forests under statistical\n
77.6435	0.104	155287	keystroke	s	n/a
77.755	0.0485	155510	keystroke	o	n/a
78.5945	0.105	157189	keystroke	Key.backspace	n/a
78.9395	0.064	157879	keystroke	u	n/a
79.156	0.055	158312	keystroke	p	n/a
79.2915	0.208	158583	keystroke	r	n/a
79.387	0.168	158774	keystroke	e	n/a
79.692	0.1035	159384	keystroke	m	n/a
79.788	0.135	159576	keystroke	e	n/a
79.939	0.128	159878	keystroke	Key.space	n/a
80.139	0.152	160278	keystroke	f	n/a
80.259	0.088	160518	keystroke	o	n/a
80.387	0.168	160774	keystroke	r	n/a
80.9475	0.175	161895	keystroke	e	n/a
81.0755	0.1685	162151	keystroke	s	n/a
81.5795	0.072	163159	keystroke	Key.backspace	n/a
81.7385	0.0725	163477	keystroke	Key.backspace	n/a
83.3555	0.192	166711	keystroke	e	n/a
83.4835	0.1605	166967	keystroke	s	n/a
83.6115	0.072	167223	keystroke	e	n/a
84.4355	0.12	168871	keystroke	Key.backspace	n/a
84.6675	0.112	169335	keystroke	t	n/a
86.0995	0.144	172199	keystroke	s	n/a
86.2755	0.104	172551	keystroke	Key.space	n/a
86.4515	0.104	172903	keystroke	u	n/a
86.628	0.0875	173256	keystroke	n	n/a
86.7475	0.104	173495	keystroke	d	n/a
86.9315	0.192	173863	keystroke	e	n/a
87.0595	0.128	174119	keystroke	r	n/a
87.1315	0.1115	174263	keystroke	Key.space	n/a
87.299	0.256	174598	keystroke	s	n/a
87.4355	0.0965	174871	keystroke	t	n/a
87.4835	0.216	174967	keystroke	a	n/a
87.779	0.12	175558	keystroke	t	n/a
88.051	0.104	176102	keystroke	i	n/a
88.3635	0.12	176727	keystroke	s	n/a
88.6035	0.104	177207	keystroke	t	n/a
88.7315	0.088	177463	keystroke	i	n/a
88.867	0.1285	177734	keystroke	c	n/a
88.9795	0.136	177959	keystroke	a	n/a
89.067	0.104	178134	keystroke	l	n/a
89.307	0.104	178614	keystroke	Key.enter	n/a
89.418	10.339	178836	prompt	n/a	archive at visitor assisted\n
89.9315	0.112	179863	keystroke	a	n/a
90.156	0.0955	180312	keystroke	r	n/a
90.5555	0.104	181111	keystroke	h	n/a
90.9555	0.08	181911	keystroke	i	n/a
91.2915	0.088	182583	keystroke	v	n/a
91.5075	0.128	183015	keystroke	e	n/a
91.7065	0.128	183413	keystroke	Key.space	n/a
92.627	0.072	185254	keystroke	Key.backspace	n/a
92.7955	0.0555	185591	keystroke	Key.backspace	n/a
92.939	0.056	185878	keystroke	Key.backspace	n/a
93.075	0.08	186150	keystroke	Key.backspace	n/a
93.251	0.064	186502	keystroke	Key.backspace	n/a
93.6275	0.1035	187255	keystroke	c	n/a
94.091	0.0885	188182	keystroke	h	n/a
94.835	0.088	189670	keystroke	i	n/a
94.955	0.0885	189910	keystroke	v	n/a
95.1395	0.168	190279	keystroke	e	n/a
95.2745	0.12	190549	keystroke	Key.space	n/a
95.4035	0.183	190807	keystroke	a	n/a
95.5385	0.112	191077	keystroke	t	n/a
95.6185	0.1125	191237	keystroke	Key.space	n/a
95.939	0.152	191878	keystroke	v	n/a
96.0745	0.0565	192149	keystroke	i	n/a
96.195	0.1285	192390	keystroke	s	n/a
96.6195	0.104	193239	keystroke	i	n/a
97.4265	0.097	194853	keystroke	t	n/a
97.5475	0.0875	195095	keystroke	o	n/a
97.6675	0.1355	195335	keystroke	r	n/a
97.827	0.12	195654	keystroke	Key.space	n/a
98.203	0.088	196406	keystroke	a	n/a
98.419	0.072	196838	keystroke	s	n/a
98.595	0.056	197190	keystroke	s	n/a
98.683	0.08	197366	keystroke	i	n/a
98.8275	0.104	197655	keystroke	s	n/a
98.9875	0.128	197975	keystroke	t	n/a
99.1705	0.1035	198341	keystroke	e	n/a
99.3875	0.0875	198775	keystroke	d	n/a
99.659	0.096	199318	keystroke	Key.enter	n/a
99.7615	10.971	199523	prompt	n/a	means commentary historical gaming\n
100.3955	0.1355	200791	keystroke	m	n/a
100.643	0.152	201286	keystroke	e	n/a
100.7795	0.1195	201559	keystroke	a	n/a
100.915	0.088	201830	keystroke	n	n/a
101.003	0.136	202006	keystroke	s	n/a
101.147	0.104	202294	keystroke	Key.space	n/a
101.563	0.096	203126	keystroke	c	n/a
101.707	0.0405	203414	keystroke	o	n/a
101.867	0.0565	203734	keystroke	m	n/a
102.003	0.072	204006	keystroke	m	n/a
102.0755	0.1195	204151	keystroke	e	n/a
102.219	0.0885	204438	keystroke	n	n/a
102.363	0.112	204726	keystroke	t	n/a
102.555	0.104	205110	keystroke	r	n/a
103.179	0.072	206358	keystroke	Key.backspace	n/a
103.6275	0.119	207255	keystroke	a	n/a
103.8195	0.128	207639	keystroke	r	n/a
104.5315	0.0795	209063	keystroke	y	n/a
104.643	0.104	209286	keystroke	Key.space	n/a
104.763	0.2005	209526	keystroke	h	n/a
104.883	0.144	209766	keystroke	i	n/a
105.051	0.112	210102	keystroke	s	n/a
105.5785	0.064	211157	keystroke	o	n/a
105.963	0.072	211926	keystroke	Key.backspace	n/a
106.9875	0.096	213975	keystroke	t	n/a
107.3155	0.08	214631	keystroke	o	n/a
107.435	0.089	214870	keystroke	r	n/a
107.595	0.08	215190	keystroke	i	n/a
107.7075	0.1355	215415	keystroke	c	n/a
107.827	0.152	215654	keystroke	a	n/a
108.2665	0.096	216533	keystroke	l	n/a
108.8185	0.12	217637	keystroke	Key.space	n/a
109.1145	0.08	218229	keystroke	g	n/a
109.563	0.1365	219126	keystroke	a	n/a
109.739	0.2	219478	keystroke	m	n/a
109.859	0.128	219718	keystroke	i	n/a
110.067	0.072	220134	keystroke	n	n/a
110.187	0.065	220374	keystroke	g	n/a
110.635	0.096	221270	keystroke	Key.enter	n/a
110.739	9.7625	221478	prompt	n/a	politics load grades trees\n
111.3155	0.0955	222631	keystroke	p	n/a
111.803	0.0885	223606	keystroke	o	n/a
112.051	0.216	224102	keystroke	l	n/a
112.179	0.12	224358	keystroke	i	n/a
112.8825	0.097	225765	keystroke	t	n/a
113.107	0.0715	226214	keystroke	i	n/a
113.3305	0.16	226661	keystroke	c	n/a
113.6505	0.145	227301	keystroke	s	n/a
113.8345	0.104	227669	keystroke	Key.space	n/a
114.0675	0.1435	228135	keystroke	l	n/a
114.2985	0.089	228597	keystroke	o	n/a
114.3635	0.1115	228727	keystroke	a	n/a
114.5145	0.16	229029	keystroke	d	n/a
114.683	0.0795	229366	keystroke	Key.space	n/a
114.971	0.088	229942	keystroke	g	n/a
115.995	0.087	231990	keystroke	r	n/a
116.195	0.128	232390	keystroke	a	n/a
116.467	0.112	232934	keystroke	d	n/a
117.019	0.168	234038	keystroke	e	n/a
117.315	0.119	234630	keystroke	s	n/a
117.458	0.08	234916	keystroke	Key.space	n/a
117.7875	0.1115	235575	keystroke	r	n/a
118.027	0.0805	236054	keystroke	t	n/a
118.371	0.0955	236742	keystroke	Key.backspace	n/a
118.5385	0.072	237077	keystroke	Key.backspace	n/a
118.571	0.08	237142	keystroke	t	n/a
118.7625	0.0965	237525	keystroke	r	n/a
119.2665	0.104	238533	keystroke	e	n/a
119.4345	0.112	238869	keystroke	e	n/a
119.643	0.1195	239286	keystroke	s	n/a
120.411	0.087	240822	keystroke	Key.enter	n/a
120.505	8.835	241010	prompt	n/a	genetic eggs pilot colleagues\n
121.307	0.072	242614	keystroke	g	n/a
121.5155	0.1195	243031	keystroke	e	n/a
121.651	0.088	243302	keystroke	n	n/a
121.787	0.112	243574	keystroke	e	n/a
122.0825	0.0805	244165	keystroke	t	n/a
122.195	0.08	244390	keystroke	i	n/a
122.3545	0.144	244709	keystroke	c	n/a
122.5705	0.088	245141	keystroke	Key.space	n/a
122.6905	0.1125	245381	keystroke	e	n/a
122.8825	0.064	245765	keystroke	g	n/a
123.043	0.0635	246086	keystroke	g	n/a
123.1865	0.1365	246373	keystroke	e	n/a
123.955	0.103	247910	keystroke	s	n/a
124.202	0.08	248404	keystroke	Key.backspace	n/a
124.363	0.079	248726	keystroke	Key.backspace	n/a
124.506	0.097	249012	keystroke	s	n/a
124.794	0.1285	249588	keystroke	Key.space	n/a
125.3305	0.096	250661	keystroke	p	n/a
125.611	0.1995	251222	keystroke	i	n/a
125.7625	0.1285	251525	keystroke	l	n/a
125.9625	0.0725	251925	keystroke	o	n/a
126.0985	0.1125	252197	keystroke	t	n/a
126.2905	0.08	252581	keystroke	Key.space	n/a
126.523	0.1195	253046	keystroke	c	n/a
126.619	0.0795	253238	keystroke	o	n/a
126.8105	0.096	253621	keystroke	l	n/a
126.946	0.0645	253892	keystroke	l	n/a
127.4025	0.1045	254805	keystroke	e	n/a
127.9945	0.136	255989	keystroke	a	n/a
128.4585	0.232	256917	keystroke	g	n/a
128.5945	0.16	257189	keystroke	u	n/a
128.7145	0.1845	257429	keystroke	e	n/a
128.8745	0.152	257749	keystroke	s	n/a
129.2345	0.104	258469	keystroke	Key.enter	n/a
129.345	12.5795	258690	prompt	n/a	logging cameron liverpool waterproof\n
130.546	0.0885	261092	keystroke	l	n/a
130.746	0.0885	261492	keystroke	o	n/a
131.539	0.055	263078	keystroke	g	n/a
131.667	0.1115	263334	keystroke	g	n/a
131.7625	0.0965	263525	keystroke	i	n/a
131.8985	0.088	263797	keystroke	n	n/a
132.0425	0.0965	264085	keystroke	g	n/a
132.1465	0.08	264293	keystroke	Key.space	n/a
132.3625	0.152	264725	keystroke	c	n/a
132.6025	0.152	265205	keystroke	a	n/a
132.835	0.0955	265670	keystroke	m	n/a
132.9945	0.168	265989	keystroke	e	n/a
133.1385	0.152	266277	keystroke	r	n/a
133.4025	0.072	266805	keystroke	o	n/a
133.5465	0.088	267093	keystroke	n	n/a
133.667	0.1195	267334	keystroke	Key.space	n/a
133.8585	0.256	267717	keystroke	l	n/a
134.019	0.1115	268038	keystroke	i	n/a
136.4025	0.0955	272805	keystroke	v	n/a
136.6105	0.168	273221	keystroke	e	n/a
136.715	0.104	273430	keystroke	r	n/a
137.459	0.056	274918	keystroke	p	n/a
137.69	0.048	275380	keystroke	o	n/a
137.827	0.071	275654	keystroke	o	n/a
137.987	0.079	275974	keystroke	l	n/a
138.138	0.1045	276276	keystroke	Key.space	n/a
139.7225	0.1755	279445	keystroke	w	n/a
140.0665	0.0955	280133	keystroke	a	n/a
140.37	0.121	280740	keystroke	t	n/a
140.57	0.16	281140	keystroke	e	n/a
140.698	0.112	281396	keystroke	r	n/a
140.922	0.097	281844	keystroke	p	n/a
141.0585	0.104	282117	keystroke	r	n/a
141.3455	0.073	282691	keystroke	o	n/a
141.499	0.0715	282998	keystroke	o	n/a
141.587	0.1515	283174	keystroke	f	n/a
141.818	0.104	283636	keystroke	Key.enter	n/a
141.929	11.579	283858	prompt	n/a	exercises take participation signup\n
142.483	0.1035	284966	keystroke	e	n/a
142.682	0.1205	285364	keystroke	x	n/a
142.9065	0.184	285813	keystroke	e	n/a
143.0025	0.128	286005	keystroke	r	n/a
143.3945	0.12	286789	keystroke	c	n/a
143.5625	0.072	287125	keystroke	i	n/a
143.7385	0.12	287477	keystroke	s	n/a
145.043	0.2395	290086	keystroke	e	n/a
145.1945	0.1595	290389	keystroke	s	n/a
145.3695	0.128	290739	keystroke	Key.space	n/a
145.683	0.072	291366	keystroke	a	n/a
146.0735	0.089	292147	keystroke	Key.backspace	n/a
146.1625	0.12	292325	keystroke	t	n/a
146.3055	0.129	292611	keystroke	a	n/a
146.4415	0.088	292883	keystroke	k	n/a
146.5865	0.1435	293173	keystroke	e	n/a
146.714	0.136	293428	keystroke	Key.space	n/a
147.138	0.088	294276	keystroke	p	n/a
147.274	0.1915	294548	keystroke	a	n/a
147.4505	0.2085	294901	keystroke	r	n/a
147.65	0.112	295300	keystroke	t	n/a
148.354	0.08	296708	keystroke	i	n/a
148.49	0.0885	296980	keystroke	c	n/a
148.579	0.0795	297158	keystroke	i	n/a
149.178	0.0885	298356	keystroke	p	n/a
149.2745	0.136	298549	keystroke	a	n/a
149.4265	0.119	298853	keystroke	t	n/a
149.5545	0.192	299109	keystroke	i	n/a
149.683	0.1115	299366	keystroke	o	n/a
149.8665	0.071	299733	keystroke	n	n/a
149.9625	0.111	299925	keystroke	Key.space	n/a
150.2745	0.112	300549	keystroke	s	n/a
150.378	0.0885	300756	keystroke	i	n/a
150.5215	0.096	301043	keystroke	g	n/a
151.578	0.1045	303156	keystroke	n	n/a
152.4185	0.0715	304837	keystroke	u	n/a
152.9945	0.072	305989	keystroke	p	n/a
153.4265	0.08	306853	keystroke	Key.enter	n/a
153.5125	12.291	307025	prompt	n/a	marc guru velocity kidney\n
154.466	0.096	308932	keystroke	m	n/a
154.5705	0.1515	309141	keystroke	a	n/a
154.738	0.168	309476	keystroke	r	n/a
155.426	0.1365	310852	keystroke	c	n/a
155.69	0.1045	311380	keystroke	Key.space	n/a
155.9465	0.08	311893	keystroke	g	n/a
156.7785	0.08	313557	keystroke	Key.backspace	n/a
157.7225	0.072	315445	keystroke	u	n/a
158.066	0.064	316132	keystroke	Key.backspace	n/a
158.37	0.176	316740	keystroke	g	n/a
158.482	0.112	316964	keystroke	u	n/a
158.61	0.136	317220	keystroke	r	n/a
158.714	0.08	317428	keystroke	u	n/a
158.842	0.112	317684	keystroke	Key.space	n/a
159.3705	0.095	318741	keystroke	v	n/a
159.6015	0.1365	319203	keystroke	e	n/a
159.9135	0.104	319827	keystroke	l	n/a
160.322	0.096	320644	keystroke	o	n/a
161.0575	0.1365	322115	keystroke	c	n/a
161.3855	0.112	322771	keystroke	i	n/a
161.594	0.096	323188	keystroke	t	n/a
161.9545	0.1195	323909	keystroke	y	n/a
162.9135	0.08	325827	keystroke	Key.space	n/a
163.4815	0.097	326963	keystroke	k	n/a
163.6815	0.072	327363	keystroke	i	n/a
164.1535	0.12	328307	keystroke	d	n/a
164.8495	0.096	329699	keystroke	n	n/a
165.0095	0.104	330019	keystroke	e	n/a
165.1375	0.137	330275	keystroke	y	n/a
165.7055	0.096	331411	keystroke	Key.enter	n/a
165.807	9.3565	331614	prompt	n/a	fighters response rhode facing\n
166.5625	0.1035	333125	keystroke	f	n/a
166.658	0.104	333316	keystroke	i	n/a
166.818	0.08	333636	keystroke	g	n/a
166.898	0.1275	333796	keystroke	h	n/a
167.018	0.1195	334036	keystroke	t	n/a
167.394	0.1765	334788	keystroke	e	n/a
167.514	0.152	335028	keystroke	r	n/a
167.9945	0.119	335989	keystroke	s	n/a
168.21	0.1195	336420	keystroke	Key.space	n/a
168.434	0.1675	336868	keystroke	r	n/a
168.5225	0.136	337045	keystroke	e	n/a
169.01	0.104	338020	keystroke	s	n/a
169.186	0.0725	338372	keystroke	p	n/a
169.386	0.0795	338772	keystroke	o	n/a
169.5295	0.097	339059	keystroke	n	n/a
170.1225	0.1745	340245	keystroke	s	n/a
170.2895	0.161	340579	keystroke	e	n/a
170.713	0.105	341426	keystroke	Key.space	n/a
171.7455	0.096	343491	keystroke	r	n/a
172.338	0.168	344676	keystroke	h	n/a
172.658	0.0955	345316	keystroke	o	n/a
172.9215	0.0965	345843	keystroke	d	n/a
173.098	0.1195	346196	keystroke	e	n/a
173.2575	0.0805	346515	keystroke	Key.space	n/a
173.4415	0.144	346883	keystroke	f	n/a
173.5855	0.104	347171	keystroke	a	n/a
173.762	0.12	347524	keystroke	c	n/a
174.0495	0.0965	348099	keystroke	i	n/a
174.194	0.088	348388	keystroke	n	n/a
174.314	0.112	348628	keystroke	g	n/a
175.066	0.096	350132	keystroke	Key.enter	n/a
175.168	13.6355	350336	prompt	n/a	careers queens bosnia rolling\n
175.7945	0.103	351589	keystroke	c	n/a
176.0095	0.1365	352019	keystroke	a	n/a
176.2255	0.112	352451	keystroke	r	n/a
176.4895	0.104	352979	keystroke	e	n/a
176.658	0.12	353316	keystroke	e	n/a
177.9535	0.073	355907	keystroke	r	n/a
179.53	0.16	359060	keystroke	s	n/a
179.778	0.064	359556	keystroke	Key.space	n/a
180.034	0.112	360068	keystroke	q	n/a
180.17	0.112	360340	keystroke	u	n/a
180.578	0.064	361156	keystroke	r	n/a
180.722	0.12	361444	keystroke	r	n/a
181.234	0.0955	362468	keystroke	Key.backspace	n/a
181.4095	0.048	362819	keystroke	Key.backspace	n/a
181.6825	0.079	363365	keystroke	e	n/a
181.8175	0.12	363635	keystroke	e	n/a
181.9615	0.0885	363923	keystroke	n	n/a
182.106	0.176	364212	keystroke	s	n/a
182.321	0.136	364642	keystroke	Key.space	n/a
182.7135	0.1045	365427	keystroke	b	n/a
183.01	0.088	366020	keystroke	o	n/a
183.2815	0.1125	366563	keystroke	s	n/a
183.754	0.168	367508	keystroke	n	n/a
183.8655	0.1045	367731	keystroke	i	n/a
184.1215	0.12	368243	keystroke	a	n/a
185.425	0.121	370850	keystroke	Key.space	n/a
187.6335	0.0885	375267	keystroke	r	n/a
187.706	0.072	375412	keystroke	o	n/a
187.882	0.064	375764	keystroke	l	n/a
188.002	0.096	376004	keystroke	l	n/a
188.194	0.088	376388	keystroke	i	n/a
188.314	0.096	376628	keystroke	n	n/a
188.474	0.096	376948	keystroke	g	n/a
188.722	0.08	377444	keystroke	Key.enter	n/a
188.808	14.036	377616	prompt	n/a	progressive trainer aluminum roses\n
189.37	0.088	378740	keystroke	o	n/a
189.7935	0.104	379587	keystroke	Key.backspace	n/a
190.1535	0.1045	380307	keystroke	p	n/a
190.3055	0.152	380611	keystroke	r	n/a
190.4495	0.08	380899	keystroke	o	n/a
190.6255	0.104	381251	keystroke	g	n/a
190.858	0.0395	381716	keystroke	e	n/a
191.282	0.1035	382564	keystroke	Key.backspace	n/a
191.4255	0.208	382851	keystroke	r	n/a
191.5375	0.136	383075	keystroke	e	n/a
191.794	0.216	383588	keystroke	s	n/a
192.17	0.128	384340	keystroke	s	n/a
192.362	0.056	384724	keystroke	i	n/a
192.434	0.128	384868	keystroke	v	n/a
193.098	0.1195	386196	keystroke	e	n/a
193.5215	0.112	387043	keystroke	Key.space	n/a
193.8815	0.1205	387763	keystroke	t	n/a
194.3615	0.088	388723	keystroke	r	n/a
194.8015	0.12	389603	keystroke	a	n/a
195.8335	0.096	391667	keystroke	i	n/a
195.994	0.1035	391988	keystroke	n	n/a
196.1295	0.184	392259	keystroke	e	n/a
196.242	0.1435	392484	keystroke	r	n/a
196.3615	0.136	392723	keystroke	Key.space	n/a
196.4895	0.1195	392979	keystroke	a	n/a
196.626	0.159	393252	keystroke	l	n/a
196.9455	0.1045	393891	keystroke	u	n/a
198.0415	0.12	396083	keystroke	m	n/a
198.6175	0.088	397235	keystroke	i	n/a
198.922	0.088	397844	keystroke	n	n/a
199.8175	0.112	399635	keystroke	u	n/a
200.058	0.1035	400116	keystroke	m	n/a
200.3295	0.096	400659	keystroke	Key.space	n/a
200.6815	0.1125	401363	keystroke	r	n/a
201.4255	0.0555	402851	keystroke	o	n/a
202.0175	0.1925	404035	keystroke	s	n/a
202.161	0.137	404322	keystroke	e	n/a
202.4095	0.1115	404819	keystroke	s	n/a
202.7375	0.1045	405475	keystroke	Key.enter	n/a
202.851	9.944	405702	prompt	n/a	expenses olympics hats stamps\n
203.4655	0.1125	406931	keystroke	e	n/a
203.7215	0.12	407443	keystroke	x	n/a
203.9135	0.088	407827	keystroke	p	n/a
204.0655	0.104	408131	keystroke	e	n/a
204.1855	0.104	408371	keystroke	n	n/a
204.4015	0.192	408803	keystroke	s	n/a
204.5375	0.144	409075	keystroke	e	n/a
204.8415	0.12	409683	keystroke	s	n/a
205.1695	0.103	410339	keystroke	Key.space	n/a
206.105	0.081	412210	keystroke	o	n/a
206.306	0.0875	412612	keystroke	l	n/a
206.682	0.095	413364	keystroke	y	n/a
207.697	0.096	415394	keystroke	m	n/a
207.985	0.113	415970	keystroke	p	n/a
208.241	0.08	416482	keystroke	i	n/a
208.377	0.1205	416754	keystroke	c	n/a
208.5455	0.144	417091	keystroke	s	n/a
208.7625	0.111	417525	keystroke	Key.space	n/a
209.2735	0.1035	418547	keystroke	h	n/a
209.401	0.1445	418802	keystroke	a	n/a
209.5855	0.144	419171	keystroke	r	n/a
210.089	0.0885	420178	keystroke	Key.backspace	n/a
210.209	0.0965	420418	keystroke	t	n/a
210.41	0.1595	420820	keystroke	s	n/a
210.577	0.112	421154	keystroke	Key.space	n/a
211.0815	0.2395	422163	keystroke	s	n/a
211.233	0.128	422466	keystroke	t	n/a
211.473	0.145	422946	keystroke	a	n/a
211.705	0.1045	423410	keystroke	m	n/a
211.945	0.096	423890	keystroke	p	n/a
212.3455	0.128	424691	keystroke	s	n/a
212.6815	0.112	425363	keystroke	Key.enter	n/a
212.801	10.162	425602	prompt	n/a	html derived beast paragraphs\n
213.465	0.0885	426930	keystroke	h	n/a
213.9135	0.088	427827	keystroke	Key.backspace	n/a
214.0335	0.104	428067	keystroke	t	n/a
214.5535	0.088	429107	keystroke	Key.backspace	n/a
214.8495	0.08	429699	keystroke	h	n/a
215.001	0.096	430002	keystroke	t	n/a
215.5055	0.1195	431011	keystroke	m	n/a
215.737	0.088	431474	keystroke	l	n/a
215.873	0.08	431746	keystroke	Key.space	n/a
216.041	0.088	432082	keystroke	d	n/a
216.2895	0.112	432579	keystroke	r	n/a
216.9205	0.096	433841	keystroke	Key.backspace	n/a
217.0255	0.095	434051	keystroke	e	n/a
217.265	0.104	434530	keystroke	r	n/a
217.3935	0.112	434787	keystroke	i	n/a
217.5375	0.0965	435075	keystroke	v	n/a
217.7375	0.104	435475	keystroke	e	n/a
217.9455	0.16	435891	keystroke	d	n/a
218.1295	0.119	436259	keystroke	Key.space	n/a
218.4015	0.135	436803	keystroke	b	n/a
218.5135	0.128	437027	keystroke	e	n/a
218.6175	0.1675	437235	keystroke	a	n/a
218.993	0.105	437986	keystroke	s	n/a
219.1935	0.096	438387	keystroke	t	n/a
219.409	0.1125	438818	keystroke	Key.space	n/a
219.729	0.096	439458	keystroke	p	n/a
219.985	0.136	439970	keystroke	a	n/a
220.2015	0.0955	440403	keystroke	r	n/a
220.5125	0.1525	441025	keystroke	a	n/a
221.1455	0.136	442291	keystroke	g	n/a
221.5135	0.112	443027	keystroke	r	n/a
221.7535	0.104	443507	keystroke	a	n/a
222.0975	0.0795	444195	keystroke	p	n/a
222.297	0.0965	444594	keystroke	h	n/a
222.441	0.152	444882	keystroke	s	n/a
222.8245	0.136	445649	keystroke	Key.enter	n/a
222.967	8.6595	445934	prompt	n/a	tuition shade challenge nissan\n
223.5855	0.096	447171	keystroke	t	n/a
223.7135	0.104	447427	keystroke	u	n/a
224.1455	0.072	448291	keystroke	i	n/a
224.2735	0.096	448547	keystroke	t	n/a
224.817	0.248	449634	keystroke	i	n/a
224.961	0.1525	449922	keystroke	o	n/a
225.201	0.1125	450402	keystroke	n	n/a
225.3855	0.1115	450771	keystroke	Key.space	n/a
225.6645	0.137	451329	keystroke	s	n/a
225.7855	0.096	451571	keystroke	h	n/a
225.889	0.1355	451778	keystroke	a	n/a
226.2335	0.184	452467	keystroke	d	n/a
226.6095	0.136	453219	keystroke	e	n/a
226.7615	0.12	453523	keystroke	Key.space	n/a
227.097	0.12	454194	keystroke	c	n/a
227.177	0.0885	454354	keystroke	h	n/a
227.2965	0.112	454593	keystroke	a	n/a
227.5135	0.087	455027	keystroke	l	n/a
227.6885	0.073	455377	keystroke	l	n/a
228.2405	0.113	456481	keystroke	e	n/a
228.385	0.072	456770	keystroke	n	n/a
228.6015	0.0635	457203	keystroke	g	n/a
228.7535	0.136	457507	keystroke	e	n/a
228.8975	0.103	457795	keystroke	Key.space	n/a
229.2095	0.0875	458419	keystroke	n	n/a
229.393	0.088	458786	keystroke	i	n/a
229.6415	0.088	459283	keystroke	s	n/a
229.817	0.096	459634	keystroke	s	n/a
230.721	0.12	461442	keystroke	a	n/a
230.897	0.088	461794	keystroke	n	n/a
231.5215	0.104	463043	keystroke	Key.enter	n/a
231.6315	11.9625	463263	prompt	n/a	implement actual piece where've\n
232.465	0.136	464930	keystroke	i	n/a
232.6895	0.096	465379	keystroke	m	n/a
233.609	0.152	467218	keystroke	p	n/a
234.121	0.12	468242	keystroke	l	n/a
234.353	0.104	468706	keystroke	e	n/a
234.505	0.088	469010	keystroke	m	n/a
234.609	0.12	469218	keystroke	e	n/a
234.729	0.088	469458	keystroke	n	n/a
234.825	0.1125	469650	keystroke	t	n/a
234.945	0.104	469890	keystroke	Key.space	n/a
235.153	0.136	470306	keystroke	a	n/a
235.897	0.096	471794	keystroke	c	n/a
236.177	0.096	472354	keystroke	t	n/a
236.4735	0.0875	472947	keystroke	u	n/a
236.641	0.08	473282	keystroke	a	n/a
236.8495	0.08	473699	keystroke	l	n/a
237.0005	0.1285	474001	keystroke	Key.space	n/a
237.2575	0.103	474515	keystroke	p	n/a
237.505	0.0715	475010	keystroke	i	n/a
238.2095	0.1195	476419	keystroke	e	n/a
238.585	0.072	477170	keystroke	v	n/a
238.905	0.152	477810	keystroke	e	n/a
239.48	0.0885	478960	keystroke	Key.backspace	n/a
239.633	0.096	479266	keystroke	Key.backspace	n/a
239.737	0.1605	479474	keystroke	v	n/a
239.8815	0.111	479763	keystroke	e	n/a
240.2885	0.064	480577	keystroke	Key.backspace	n/a
240.441	0.1045	480882	keystroke	Key.backspace	n/a
240.5135	0.215	481027	keystroke	c	n/a
240.6895	0.184	481379	keystroke	e	n/a
240.9125	0.1035	481825	keystroke	Key.space	n/a
241.3925	0.088	482785	keystroke	w	n/a
241.5205	0.096	483041	keystroke	h	n/a
241.6405	0.152	483281	keystroke	e	n/a
241.753	0.1675	483506	keystroke	r	n/a
241.8965	0.128	483793	keystroke	e	n/a
242.721	0.096	485442	keystroke	'	n/a
242.9775	0.1195	485955	keystroke	v	n/a
243.209	0.152	486418	keystroke	e	n/a
243.513	0.0795	487026	keystroke	Key.enter	n/a
243.5975	37.572	487195	prompt	n/a	portuguese gamespot mpegs minutes\n
245.0485	0.0885	490097	keystroke	p	n/a
245.249	0.088	490498	keystroke	o	n/a
245.449	0.12	490898	keystroke	r	n/a
245.713	0.088	491426	keystroke	t	n/a
246.8805	0.0645	493761	keystroke	u	n/a
247.425	0.112	494850	keystroke	g	n/a
248.193	0.1435	496386	keystroke	e	n/a
249.281	0.1195	498562	keystroke	s	n/a
249.6245	0.152	499249	keystroke	e	n/a
249.8165	0.096	499633	keystroke	Key.space	n/a
250.0245	0.072	500049	keystroke	g	n/a
250.233	0.1355	500466	keystroke	a	n/a
251.3765	0.1125	502753	keystroke	a	n/a
251.561	0.096	503122	keystroke	m	n/a
251.705	0.1275	503410	keystroke	e	n/a
252.0085	0.1125	504017	keystroke	s	n/a
252.145	0.096	504290	keystroke	p	n/a
252.353	0.08	504706	keystroke	o	n/a
252.753	0.0795	505506	keystroke	t	n/a
253.4165	0.1115	506833	keystroke	Key.space	n/a
254.017	0.12	508034	keystroke	m	n/a
254.297	0.12	508594	keystroke	p	n/a
254.545	0.1275	509090	keystroke	e	n/a
254.9605	0.1125	509921	keystroke	d	n/a
255.2885	0.1205	510577	keystroke	g	n/a
255.856	0.1045	511712	keystroke	Key.backspace	n/a
256.024	0.0725	512048	keystroke	Key.backspace	n/a
256.1765	0.0875	512353	keystroke	Key.backspace	n/a
257.208	0.097	514416	keystroke	e	n/a
257.393	0.1045	514786	keystroke	g	n/a
257.608	0.129	515216	keystroke	s	n/a
257.8085	0.12	515617	keystroke	Key.space	n/a
258.2485	0.2485	516497	keystroke	m	n/a
258.4005	0.16	516801	keystroke	i	n/a
258.8245	0.208	517649	keystroke	n	n/a
258.969	0.1115	517938	keystroke	u	n/a
259.1445	0.1595	518289	keystroke	t	n/a
259.32	0.2085	518640	keystroke	e	n/a
259.4885	0.152	518977	keystroke	s	n/a
260.6325	0.0795	521265	keystroke	Key.backspace	n/a
260.7845	0.08	521569	keystroke	Key.backspace	n/a
260.952	0.04	521904	keystroke	Key.backspace	n/a
261.08	0.0645	522160	keystroke	Key.backspace	n/a
261.224	0.0805	522448	keystroke	Key.backspace	n/a
261.3845	0.064	522769	keystroke	Key.backspace	n/a
261.5445	0.064	523089	keystroke	Key.backspace	n/a
261.6965	0.064	523393	keystroke	Key.backspace	n/a
261.8485	0.064	523697	keystroke	Key.backspace	n/a
262.0005	0.072	524001	keystroke	Key.backspace	n/a
262.1685	0.064	524337	keystroke	Key.backspace	n/a
262.3285	0.072	524657	keystroke	Key.backspace	n/a
262.4805	0.08	524961	keystroke	Key.backspace	n/a
262.6405	0.079	525281	keystroke	Key.backspace	n/a
262.8085	0.0795	525617	keystroke	Key.backspace	n/a
264.632	0.088	529264	keystroke	Key.backspace	n/a
264.808	0.072	529616	keystroke	Key.backspace	n/a
264.976	0.064	529952	keystroke	Key.backspace	n/a
265.1365	0.0715	530273	keystroke	Key.backspace	n/a
265.296	0.08	530592	keystroke	Key.backspace	n/a
265.464	0.072	530928	keystroke	Key.backspace	n/a
265.624	0.0645	531248	keystroke	Key.backspace	n/a
265.784	0.057	531568	keystroke	Key.backspace	n/a
265.9525	0.0555	531905	keystroke	Key.backspace	n/a
266.112	0.072	532224	keystroke	Key.backspace	n/a
266.296	0.08	532592	keystroke	Key.backspace	n/a
266.496	0.08	532992	keystroke	Key.backspace	n/a
267.137	0.071	534274	keystroke	u	n/a
267.552	0.2	535104	keystroke	e	n/a
267.6965	0.2155	535393	keystroke	s	n/a
267.8805	0.1605	535761	keystroke	e	n/a
268.096	0.1205	536192	keystroke	Key.space	n/a
268.737	0.1035	537474	keystroke	g	n/a
270.992	0.1365	541984	keystroke	a	n/a
271.1845	0.104	542369	keystroke	m	n/a
271.4885	0.1355	542977	keystroke	e	n/a
272.104	0.1445	544208	keystroke	s	n/a
273.1675	0.089	546335	keystroke	p	n/a
273.3765	0.08	546753	keystroke	o	n/a
273.5365	0.072	547073	keystroke	t	n/a
273.7125	0.136	547425	keystroke	Key.space	n/a
274.2165	0.088	548433	keystroke	m	n/a
275.4965	0.104	550993	keystroke	p	n/a
276.288	0.1285	552576	keystroke	e	n/a
276.8815	0.111	553763	keystroke	f	n/a
277.36	0.112	554720	keystroke	Key.backspace	n/a
277.5525	0.128	555105	keystroke	g	n/a
277.8885	0.1595	555777	keystroke	s	n/a
278.1115	0.144	556223	keystroke	Key.space	n/a
278.4005	0.224	556801	keystroke	m	n/a
278.5445	0.1435	557089	keystroke	i	n/a
279.3285	0.216	558657	keystroke	n	n/a
279.4645	0.127	558929	keystroke	u	n/a
279.608	0.1205	559216	keystroke	t	n/a
279.9045	0.167	559809	keystroke	e	n/a
280.1045	0.143	560209	keystroke	s	n/a
281.04	0.128	562080	keystroke	Key.enter	n/a
281.172	9.158	562344	prompt	n/a	break package fourth weed\n
282.144	0.112	564288	keystroke	b	n/a
282.264	0.184	564528	keystroke	r	n/a
282.344	0.1685	564688	keystroke	e	n/a
282.496	0.152	564992	keystroke	a	n/a
282.64	0.1035	565280	keystroke	j	n/a
282.848	0.1125	565696	keystroke	Key.space	n/a
283.272	0.104	566544	keystroke	o	n/a
283.8485	0.0715	567697	keystroke	Key.backspace	n/a
284	0.08	568000	keystroke	Key.backspace	n/a
284.5035	0.089	569007	keystroke	Key.backspace	n/a
284.7835	0.081	569567	keystroke	l	n/a
285.264	0.096	570528	keystroke	Key.backspace	n/a
285.664	0.0805	571328	keystroke	k	n/a
285.848	0.088	571696	keystroke	Key.space	n/a
286.4005	0.0795	572801	keystroke	p	n/a
286.4805	0.1125	572961	keystroke	a	n/a
286.6805	0.112	573361	keystroke	c	n/a
286.808	0.096	573616	keystroke	k	n/a
287.0165	0.152	574033	keystroke	a	n/a
287.1845	0.1435	574369	keystroke	g	n/a
287.3205	0.184	574641	keystroke	e	n/a
287.4955	0.144	574991	keystroke	Key.space	n/a
287.8155	0.12	575631	keystroke	f	n/a
287.9445	0.1995	575889	keystroke	o	n/a
288.1125	0.12	576225	keystroke	u	n/a
288.3835	0.137	576767	keystroke	r	n/a
288.8	0.08	577600	keystroke	t	n/a
288.9765	0.1195	577953	keystroke	h	n/a
289.136	0.1195	578272	keystroke	Key.space	n/a
289.3365	0.112	578673	keystroke	w	n/a
289.5355	0.113	579071	keystroke	e	n/a
289.7115	0.089	579423	keystroke	e	n/a
289.9125	0.127	579825	keystroke	d	n/a
290.1915	0.136	580383	keystroke	Key.enter	n/a
290.3435	11.218	580687	prompt	n/a	designing verse essays western\n
291.1925	0.087	582385	keystroke	d	n/a
291.3835	0.144	582767	keystroke	e	n/a
291.504	0.1355	583008	keystroke	s	n/a
292.336	0.0875	584672	keystroke	i	n/a
292.7355	0.064	585471	keystroke	g	n/a
293.888	0.2645	587776	keystroke	n	n/a
294.08	0.1525	588160	keystroke	i	n/a
294.304	0.096	588608	keystroke	n	n/a
294.48	0.104	588960	keystroke	g	n/a
294.976	0.072	589952	keystroke	Key.space	n/a
295.3925	0.095	590785	keystroke	v	n/a
295.6795	0.2165	591359	keystroke	e	n/a
295.768	0.2005	591536	keystroke	r	n/a
296.08	0.216	592160	keystroke	s	n/a
296.24	0.176	592480	keystroke	e	n/a
296.424	0.112	592848	keystroke	Key.space	n/a
296.664	0.136	593328	keystroke	e	n/a
296.928	0.08	593856	keystroke	s	n/a
297.088	0.12	594176	keystroke	s	n/a
297.3205	0.096	594641	keystroke	a	n/a
297.4965	0.0875	594993	keystroke	y	n/a
297.656	0.1595	595312	keystroke	s	n/a
297.8475	0.104	595695	keystroke	Key.space	n/a
298.472	0.152	596944	keystroke	w	n/a
298.608	0.176	597216	keystroke	e	n/a
299.416	0.1115	598832	keystroke	s	n/a
299.64	0.0955	599280	keystroke	t	n/a
299.8965	0.183	599793	keystroke	e	n/a
300.04	0.104	600080	keystroke	r	n/a
300.8085	0.1355	601617	keystroke	n	n/a
301.4475	0.112	602895	keystroke	Key.enter	n/a
301.565	6.9085	603130	prompt	n/a	addresses the navy impaired\n
302.168	0.0805	604336	keystroke	a	n/a
302.3365	0.1105	604673	keystroke	d	n/a
302.512	0.088	605024	keystroke	d	n/a
302.712	0.1845	605424	keystroke	r	n/a
302.8	0.128	605600	keystroke	e	n/a
303.04	0.064	606080	keystroke	s	n/a
303.208	0.072	606416	keystroke	s	n/a
303.384	0.1765	606768	keystroke	e	n/a
303.72	0.12	607440	keystroke	s	n/a
303.928	0.136	607856	keystroke	Key.space	n/a
304.104	0.127	608208	keystroke	t	n/a
304.192	0.104	608384	keystroke	h	n/a
304.312	0.1525	608624	keystroke	e	n/a
304.416	0.1115	608832	keystroke	Key.space	n/a
304.808	0.152	609616	keystroke	n	n/a
305.168	0.1205	610336	keystroke	a	n/a
305.448	0.112	610896	keystroke	v	n/a
305.768	0.0955	611536	keystroke	y	n/a
305.8875	0.112	611775	keystroke	Key.space	n/a
306.192	0.1035	612384	keystroke	i	n/a
306.4075	0.096	612815	keystroke	m	n/a
307.2795	0.08	614559	keystroke	p	n/a
307.4875	0.1125	614975	keystroke	a	n/a
307.648	0.08	615296	keystroke	i	n/a
307.7845	0.2075	615569	keystroke	r	n/a
307.8965	0.1595	615793	keystroke	e	n/a
308.168	0.128	616336	keystroke	d	n/a
308.36	0.112	616720	keystroke	Key.enter	n/a
308.478	11.915	616956	prompt	n/a	somehow concrete adjustable missing\n
309.128	0.1195	618256	keystroke	s	n/a
309.2555	0.08	618511	keystroke	o	n/a
309.4155	0.088	618831	keystroke	m	n/a
309.4795	0.105	618959	keystroke	e	n/a
310.136	0.104	620272	keystroke	h	n/a
310.3195	0.064	620639	keystroke	o	n/a
310.3845	0.16	620769	keystroke	w	n/a
310.5355	0.1205	621071	keystroke	Key.space	n/a
310.9035	0.064	621807	keystroke	c	n/a
310.9845	0.0875	621969	keystroke	o	n/a
311.1445	0.087	622289	keystroke	n	n/a
311.7995	0.08	623599	keystroke	c	n/a
312.0155	0.168	624031	keystroke	r	n/a
312.0885	0.143	624177	keystroke	e	n/a
312.407	0.097	624814	keystroke	t	n/a
312.5925	0.1435	625185	keystroke	e	n/a
312.7675	0.088	625535	keystroke	Key.space	n/a
312.944	0.1355	625888	keystroke	a	n/a
313.36	0.096	626720	keystroke	d	n/a
313.584	0.216	627168	keystroke	j	n/a
313.824	0.088	627648	keystroke	u	n/a
314.6635	0.128	629327	keystroke	s	n/a
314.888	0.088	629776	keystroke	t	n/a
315.128	0.095	630256	keystroke	a	n/a
315.232	0.104	630464	keystroke	b	n/a
315.44	0.128	630880	keystroke	l	n/a
315.559	0.1365	631118	keystroke	e	n/a
315.679	0.129	631358	keystroke	Key.space	n/a
315.9035	0.072	631807	keystroke	m	n/a
315.9995	0.088	631999	keystroke	s	n/a
316.1035	0.088	632207	keystroke	i	n/a
316.288	0.072	632576	keystroke	i	n/a
316.768	0.088	633536	keystroke	Key.backspace	n/a
316.928	0.08	633856	keystroke	Key.backspace	n/a
317.08	0.08	634160	keystroke	Key.backspace	n/a
317.384	0.032	634768	keystroke	u	n/a
317.527	0.096	635054	keystroke	s	n/a
317.9515	0.064	635903	keystroke	Key.backspace	n/a
318.096	0.0715	636192	keystroke	Key.backspace	n/a
318.664	0.0475	637328	keystroke	i	n/a
318.824	0.088	637648	keystroke	s	n/a
318.9835	0.12	637967	keystroke	s	n/a
319.7675	0.0885	639535	keystroke	i	n/a
319.912	0.079	639824	keystroke	n	n/a
319.999	0.113	639998	keystroke	g	n/a
320.279	0.112	640558	keystroke	Key.enter	n/a
320.3955	13.582	640791	prompt	n/a	challenges northern limits similar\n
321.079	0.137	642158	keystroke	c	n/a
321.184	0.1195	642368	keystroke	h	n/a
321.3115	0.088	642623	keystroke	a	n/a
321.5115	0.088	643023	keystroke	l	n/a
322.2875	0.08	644575	keystroke	l	n/a
322.56	0.128	645120	keystroke	e	n/a
322.6715	0.0965	645343	keystroke	n	n/a
322.808	0.1035	645616	keystroke	g	n/a
322.9835	0.1765	645967	keystroke	e	n/a
323.1115	0.1675	646223	keystroke	s	n/a
323.2555	0.0795	646511	keystroke	Key.space	n/a
323.407	0.097	646814	keystroke	n	n/a
323.56	0.111	647120	keystroke	o	n/a
323.9515	0.1205	647903	keystroke	r	n/a
324.1595	0.096	648319	keystroke	t	n/a
324.2475	0.12	648495	keystroke	h	n/a
324.3835	0.168	648767	keystroke	e	n/a
324.4715	0.176	648943	keystroke	r	n/a
324.7595	0.08	649519	keystroke	n	n/a
324.8875	0.096	649775	keystroke	Key.space	n/a
325.0395	0.2085	650079	keystroke	l	n/a
325.1675	0.1125	650335	keystroke	i	n/a
325.36	0.2075	650720	keystroke	m	n/a
325.504	0.104	651008	keystroke	i	n/a
325.6155	0.112	651231	keystroke	t	n/a
325.7835	0.128	651567	keystroke	e	n/a
326.024	0.1035	652048	keystroke	d	n/a
326.639	0.0965	653278	keystroke	Key.backspace	n/a
326.7755	0.1205	653551	keystroke	s	n/a
326.9115	0.088	653823	keystroke	Key.space	n/a
329.864	0.0795	659728	keystroke	Key.backspace	n/a
330.031	0.064	660062	keystroke	Key.backspace	n/a
330.151	0.088	660302	keystroke	Key.backspace	n/a
330.472	0.128	660944	keystroke	s	n/a
330.671	0.0885	661342	keystroke	Key.space	n/a
330.9515	0.1445	661903	keystroke	s	n/a
331.0555	0.144	662111	keystroke	i	n/a
331.392	0.088	662784	keystroke	m	n/a
331.624	0.232	663248	keystroke	i	n/a
331.784	0.2	663568	keystroke	l	n/a
332.024	0.112	664048	keystroke	i	n/a
332.6715	0.112	665343	keystroke	Key.backspace	n/a
333.191	0.1045	666382	keystroke	a	n/a
333.399	0.1205	666798	keystroke	r	n/a
333.871	0.104	667742	keystroke	Key.enter	n/a
333.9815	9.827	667963	prompt	n/a	deals index reducing voluntary\n
334.792	0.072	669584	keystroke	d	n/a
334.952	0.1035	669904	keystroke	e	n/a
335.0635	0.144	670127	keystroke	a	n/a
335.2085	0.087	670417	keystroke	l	n/a
335.3835	0.112	670767	keystroke	Key.space	n/a
335.7915	0.096	671583	keystroke	Key.backspace	n/a
335.9435	0.144	671887	keystroke	s	n/a
336.1275	0.0875	672255	keystroke	Key.space	n/a
336.52	0.104	673040	keystroke	i	n/a
336.663	0.0965	673326	keystroke	n	n/a
336.7675	0.0795	673535	keystroke	d	n/a
336.936	0.104	673872	keystroke	e	n/a
337.168	0.1195	674336	keystroke	x	n/a
337.3835	0.1115	674767	keystroke	Key.space	n/a
337.784	0.1435	675568	keystroke	r	n/a
337.871	0.1125	675742	keystroke	e	n/a
338.0875	0.1275	676175	keystroke	d	n/a
338.711	0.096	677422	keystroke	u	n/a
338.9595	0.0955	677919	keystroke	c	n/a
339.064	0.0875	678128	keystroke	i	n/a
339.231	0.073	678462	keystroke	n	n/a
339.3195	0.1125	678639	keystroke	g	n/a
339.4075	0.12	678815	keystroke	Key.space	n/a
340.047	0.096	680094	keystroke	v	n/a
340.215	0.089	680430	keystroke	u	n/a
340.7105	0.073	681421	keystroke	Key.backspace	n/a
341.048	0.096	682096	keystroke	o	n/a
341.7515	0.104	683503	keystroke	l	n/a
342.0075	0.104	684015	keystroke	u	n/a
342.1995	0.104	684399	keystroke	n	n/a
342.807	0.1125	685614	keystroke	t	n/a
343.095	0.128	686190	keystroke	a	n/a
343.2875	0.096	686575	keystroke	r	n/a
343.4475	0.088	686895	keystroke	y	n/a
343.7275	0.08	687455	keystroke	Key.enter	n/a
343.813	11.42	687626	prompt	n/a	transferred navy coast enjoy\n
344.4955	0.12	688991	keystroke	t	n/a
344.6715	0.12	689343	keystroke	r	n/a
344.8075	0.152	689615	keystroke	a	n/a
344.9195	0.112	689839	keystroke	n	n/a
345.0635	0.12	690127	keystroke	s	n/a
345.9195	0.1435	691839	keystroke	f	n/a
346.344	0.111	692688	keystroke	e	n/a
346.6155	0.0965	693231	keystroke	e	n/a
347.127	0.088	694254	keystroke	Key.backspace	n/a
347.303	0.064	694606	keystroke	r	n/a
347.455	0.105	694910	keystroke	r	n/a
347.6075	0.128	695215	keystroke	e	n/a
347.8315	0.1595	695663	keystroke	d	n/a
347.999	0.1205	695998	keystroke	Key.space	n/a
348.191	0.152	696382	keystroke	n	n/a
348.799	0.112	697598	keystroke	a	n/a
349.0715	0.136	698143	keystroke	c	n/a
349.2475	0.096	698495	keystroke	y	n/a
349.5115	0.127	699023	keystroke	Key.space	n/a
349.8875	0.112	699775	keystroke	c	n/a
350.5595	0.0875	701119	keystroke	Key.backspace	n/a
350.703	0.1115	701406	keystroke	Key.backspace	n/a
350.871	0.1205	701742	keystroke	Key.backspace	n/a
351.295	0.12	702590	keystroke	Key.backspace	n/a
351.8235	0.096	703647	keystroke	v	n/a
352.055	0.0805	704110	keystroke	y	n/a
352.3275	0.104	704655	keystroke	Key.space	n/a
352.9665	0.097	705933	keystroke	c	n/a
353.0715	0.072	706143	keystroke	o	n/a
353.2145	0.1125	706429	keystroke	a	n/a
353.367	0.1525	706734	keystroke	s	n/a
353.5595	0.1275	707119	keystroke	t	n/a
353.6955	0.0795	707391	keystroke	Key.space	n/a
353.8715	0.112	707743	keystroke	e	n/a
353.951	0.072	707902	keystroke	n	n/a
354.151	0.224	708302	keystroke	j	n/a
354.2875	0.168	708575	keystroke	o	n/a
354.903	0.096	709806	keystroke	y	n/a
355.1435	0.088	710287	keystroke	Key.enter	n/a
355.237	7.3475	710474	prompt	n/a	break geometry admit killing\n
355.943	0.1205	711886	keystroke	b	n/a
356.039	0.176	712078	keystroke	r	n/a
356.1435	0.1595	712287	keystroke	e	n/a
356.359	0.136	712718	keystroke	a	n/a
356.487	0.0965	712974	keystroke	k	n/a
356.7265	0.112	713453	keystroke	Key.space	n/a
357.7435	0.095	715487	keystroke	g	n/a
357.9675	0.12	715935	keystroke	e	n/a
358.231	0.08	716462	keystroke	o	n/a
358.4555	0.0875	716911	keystroke	m	n/a
358.551	0.128	717102	keystroke	e	n/a
359.095	0.072	718190	keystroke	t	n/a
359.2545	0.113	718509	keystroke	r	n/a
359.343	0.088	718686	keystroke	y	n/a
359.487	0.1115	718974	keystroke	Key.space	n/a
359.9115	0.1115	719823	keystroke	a	n/a
360.079	0.1275	720158	keystroke	d	n/a
360.2305	0.2165	720461	keystroke	m	n/a
360.375	0.12	720750	keystroke	i	n/a
360.5585	0.105	721117	keystroke	t	n/a
360.7345	0.096	721469	keystroke	Key.space	n/a
361.0715	0.0875	722143	keystroke	k	n/a
361.279	0.088	722558	keystroke	i	n/a
361.511	0.0885	723022	keystroke	l	n/a
361.671	0.104	723342	keystroke	l	n/a
362.031	0.088	724062	keystroke	i	n/a
362.167	0.112	724334	keystroke	n	n/a
362.287	0.112	724574	keystroke	g	n/a
362.4625	0.12	724925	keystroke	Key.enter	n/a
362.5885	6.716	725177	prompt	n/a	variance pixels policies immigration\n
363.2395	0.111	726479	keystroke	v	n/a
363.4145	0.121	726829	keystroke	a	n/a
363.623	0.104	727246	keystroke	r	n/a
363.759	0.088	727518	keystroke	i	n/a
363.879	0.1125	727758	keystroke	a	n/a
363.983	0.104	727966	keystroke	n	n/a
364.096	0.159	728192	keystroke	c	n/a
364.223	0.16	728446	keystroke	e	n/a
364.375	0.112	728750	keystroke	Key.space	n/a
364.575	0.1045	729150	keystroke	p	n/a
364.799	0.0885	729598	keystroke	i	n/a
365.1585	0.112	730317	keystroke	x	n/a
365.4385	0.1125	730877	keystroke	e	n/a
365.6145	0.089	731229	keystroke	l	n/a
365.7425	0.1365	731485	keystroke	s	n/a
365.9425	0.072	731885	keystroke	Key.space	n/a
366.1275	0.096	732255	keystroke	p	n/a
366.3425	0.064	732685	keystroke	o	n/a
366.5905	0.232	733181	keystroke	l	n/a
366.7435	0.0955	733487	keystroke	i	n/a
366.9185	0.112	733837	keystroke	c	n/a
367.0395	0.103	734079	keystroke	i	n/a
367.1755	0.144	734351	keystroke	e	n/a
367.279	0.1445	734558	keystroke	s	n/a
367.424	0.087	734848	keystroke	Key.space	n/a
367.5435	0.1195	735087	keystroke	i	n/a
367.767	0.0645	735534	keystroke	m	n/a
367.895	0.072	735790	keystroke	m	n/a
368.023	0.0965	736046	keystroke	i	n/a
368.199	0.176	736398	keystroke	g	n/a
368.383	0.168	736766	keystroke	r	n/a
368.527	0.2005	737054	keystroke	a	n/a
368.6875	0.12	737375	keystroke	t	n/a
368.767	0.16	737534	keystroke	i	n/a
368.863	0.112	737726	keystroke	o	n/a
369.039	0.08	738078	keystroke	n	n/a
369.207	0.096	738414	keystroke	Key.enter	n/a
369.3065	11.574	738613	prompt	n/a	gamma systematic edwards pattern\n
369.967	0.12	739934	keystroke	g	n/a
370.159	0.096	740318	keystroke	a	n/a
370.279	0.0725	740558	keystroke	m	n/a
370.423	0.096	740846	keystroke	m	n/a
370.567	0.1285	741134	keystroke	a	n/a
370.7505	0.0715	741501	keystroke	Key.space	n/a
371.166	0.137	742332	keystroke	s	n/a
371.439	0.072	742878	keystroke	y	n/a
371.655	0.136	743310	keystroke	s	n/a
371.879	0.088	743758	keystroke	t	n/a
372.279	0.128	744558	keystroke	e	n/a
373.3435	0.088	746687	keystroke	m	n/a
373.4715	0.175	746943	keystroke	a	n/a
373.6385	0.105	747277	keystroke	t	n/a
373.7435	0.1035	747487	keystroke	i	n/a
374.0075	0.16	748015	keystroke	c	n/a
374.439	0.111	748878	keystroke	Key.space	n/a
374.8955	0.1435	749791	keystroke	e	n/a
375.1505	0.0965	750301	keystroke	d	n/a
375.4635	0.1675	750927	keystroke	w	n/a
375.599	0.1445	751198	keystroke	a	n/a
375.823	0.1035	751646	keystroke	r	n/a
376.4705	0.104	752941	keystroke	d	n/a
376.8065	0.137	753613	keystroke	s	n/a
377.0385	0.096	754077	keystroke	Key.space	n/a
379.511	0.088	759022	keystroke	p	n/a
379.703	0.144	759406	keystroke	a	n/a
379.911	0.088	759822	keystroke	t	n/a
380.079	0.088	760158	keystroke	t	n/a
380.2635	0.1755	760527	keystroke	e	n/a
380.383	0.064	760766	keystroke	r	n/a
380.5035	0.1035	761007	keystroke	n	n/a
380.767	0.112	761534	keystroke	Key.enter	n/a
380.885	8.6835	761770	prompt	n/a	remember polished jungle chancellor\n
381.607	0.135	763214	keystroke	r	n/a
382.079	0.104	764158	keystroke	e	n/a
382.263	0.064	764526	keystroke	m	n/a
382.455	0.112	764910	keystroke	e	n/a
382.5985	0.072	765197	keystroke	m	n/a
382.8145	0.08	765629	keystroke	b	n/a
382.983	0.144	765966	keystroke	e	n/a
383.047	0.176	766094	keystroke	r	n/a
383.239	0.12	766478	keystroke	Key.space	n/a
384.111	0.103	768222	keystroke	p	n/a
384.295	0.111	768590	keystroke	o	n/a
384.575	0.24	769150	keystroke	l	n/a
384.726	0.137	769452	keystroke	i	n/a
384.887	0.1115	769774	keystroke	s	n/a
385.006	0.1205	770012	keystroke	h	n/a
385.1185	0.1205	770237	keystroke	e	n/a
385.335	0.1515	770670	keystroke	d	n/a
385.4785	0.12	770957	keystroke	Key.space	n/a
385.5825	0.216	771165	keystroke	j	n/a
385.767	0.12	771534	keystroke	u	n/a
385.9505	0.112	771901	keystroke	n	n/a
386.135	0.0955	772270	keystroke	g	n/a
386.295	0.0875	772590	keystroke	l	n/a
386.4225	0.136	772845	keystroke	e	n/a
386.6545	0.136	773309	keystroke	Key.space	n/a
387.0785	0.1285	774157	keystroke	c	n/a
387.183	0.096	774366	keystroke	h	n/a
387.27	0.104	774540	keystroke	a	n/a
387.878	0.097	775756	keystroke	n	n/a
388.47	0.2	776940	keystroke	c	n/a
388.662	0.136	777324	keystroke	e	n/a
388.846	0.065	777692	keystroke	l	n/a
388.9905	0.0795	777981	keystroke	l	n/a
389.167	0.0635	778334	keystroke	o	n/a
389.215	0.1035	778430	keystroke	r	n/a
389.446	0.12	778892	keystroke	Key.enter	n/a
389.573	9.1315	779146	prompt	n/a	windsor hotel supplied lenses\n
390.135	0.12	780270	keystroke	w	n/a
390.247	0.08	780494	keystroke	i	n/a
390.3745	0.1035	780749	keystroke	n	n/a
390.47	0.104	780940	keystroke	d	n/a
391.543	0.0795	783086	keystroke	s	n/a
391.9025	0.072	783805	keystroke	o	n/a
391.9985	0.1445	783997	keystroke	r	n/a
392.183	0.128	784366	keystroke	Key.space	n/a
392.303	0.08	784606	keystroke	h	n/a
392.487	0.064	784974	keystroke	o	n/a
392.583	0.072	785166	keystroke	t	n/a
395.3025	0.112	790605	keystroke	e	n/a
395.4385	0.12	790877	keystroke	l	n/a
395.5825	0.104	791165	keystroke	Key.space	n/a
395.7345	0.1365	791469	keystroke	s	n/a
395.8385	0.0965	791677	keystroke	u	n/a
396.343	0.1115	792686	keystroke	p	n/a
396.55	0.0725	793100	keystroke	p	n/a
396.814	0.257	793628	keystroke	l	n/a
396.982	0.129	793964	keystroke	i	n/a
397.112	0.0785	794224	keystroke	e	n/a
397.3025	0.144	794605	keystroke	d	n/a
397.4385	0.112	794877	keystroke	Key.space	n/a
397.599	0.1355	795198	keystroke	l	n/a
397.807	0.12	795614	keystroke	e	n/a
397.9505	0.096	795901	keystroke	n	n/a
398.1105	0.192	796221	keystroke	s	n/a
398.2545	0.12	796509	keystroke	e	n/a
398.4225	0.1285	796845	keystroke	s	n/a
398.5985	0.104	797197	keystroke	Key.enter	n/a
398.7085	7.356	797417	prompt	n/a	presence video phil pharmacy\n
399.2625	0.0725	798525	keystroke	p	n/a
399.4145	0.1605	798829	keystroke	r	n/a
399.527	0.1195	799054	keystroke	e	n/a
399.751	0.112	799502	keystroke	s	n/a
399.9745	0.12	799949	keystroke	e	n/a
400.1185	0.088	800237	keystroke	n	n/a
400.2385	0.176	800477	keystroke	c	n/a
400.3745	0.144	800749	keystroke	e	n/a
400.4865	0.128	800973	keystroke	Key.space	n/a
400.7745	0.104	801549	keystroke	v	n/a
400.9185	0.08	801837	keystroke	i	n/a
401.0625	0.1125	802125	keystroke	d	n/a
401.943	0.1195	803886	keystroke	e	n/a
402.3745	0.064	804749	keystroke	o	n/a
402.7905	0.1045	805581	keystroke	Key.space	n/a
403.1345	0.0805	806269	keystroke	p	n/a
403.35	0.097	806700	keystroke	h	n/a
403.583	0.216	807166	keystroke	i	n/a
403.735	0.143	807470	keystroke	l	n/a
403.942	0.1125	807884	keystroke	Key.space	n/a
404.239	0.0955	808478	keystroke	p	n/a
404.5345	0.096	809069	keystroke	h	n/a
404.9825	0.104	809965	keystroke	a	n/a
405.1665	0.1195	810333	keystroke	r	n/a
405.35	0.08	810700	keystroke	m	n/a
405.4385	0.1195	810877	keystroke	a	n/a
405.623	0.136	811246	keystroke	c	n/a
405.726	0.089	811452	keystroke	y	n/a
405.982	0.08	811964	keystroke	Key.enter	n/a
406.0685	13.4355	812137	prompt	n/a	chief campbell movers fuji\n
406.798	0.081	813596	keystroke	h	n/a
406.807	0.208	813614	keystroke	c	n/a
407.31	0.072	814620	keystroke	Key.backspace	n/a
407.446	0.0885	814892	keystroke	Key.backspace	n/a
407.527	0.111	815054	keystroke	c	n/a
407.7345	0.0965	815469	keystroke	h	n/a
407.966	0.0725	815932	keystroke	i	n/a
408.1025	0.1205	816205	keystroke	e	n/a
408.5425	0.128	817085	keystroke	f	n/a
408.814	0.1205	817628	keystroke	Key.space	n/a
409.151	0.1515	818302	keystroke	c	n/a
409.5105	0.0955	819021	keystroke	h	n/a
410.1505	0.08	820301	keystroke	Key.backspace	n/a
410.3505	0.1205	820701	keystroke	a	n/a
410.4865	0.096	820973	keystroke	m	n/a
410.6945	0.0805	821389	keystroke	p	n/a
411.2145	0.1285	822429	keystroke	e	n/a
411.5825	0.1035	823165	keystroke	Key.backspace	n/a
412.11	0.08	824220	keystroke	b	n/a
412.206	0.104	824412	keystroke	e	n/a
412.39	0.056	824780	keystroke	l	n/a
412.518	0.064	825036	keystroke	l	n/a
412.6625	0.08	825325	keystroke	Key.space	n/a
413.0145	0.152	826029	keystroke	m	n/a
413.8785	0.08	827757	keystroke	o	n/a
414.0225	0.1035	828045	keystroke	v	n/a
414.238	0.161	828476	keystroke	e	n/a
414.3425	0.1115	828685	keystroke	r	n/a
414.502	0.136	829004	keystroke	s	n/a
414.638	0.112	829276	keystroke	Key.space	n/a
414.83	0.112	829660	keystroke	f	n/a
415.03	0.056	830060	keystroke	i	n/a
415.5265	0.0795	831053	keystroke	Key.backspace	n/a
415.8225	0.0875	831645	keystroke	u	n/a
416.055	0.2	832110	keystroke	j	n/a
416.1825	0.112	832365	keystroke	i	n/a
419.4225	0.0795	838845	keystroke	Key.enter	n/a
419.509	8.443	839018	prompt	n/a	burn windows heart undergraduate\n
420.406	0.176	840812	keystroke	b	n/a
420.534	0.112	841068	keystroke	u	n/a
420.6145	0.112	841229	keystroke	r	n/a
420.766	0.088	841532	keystroke	n	n/a
421.3425	0.072	842685	keystroke	Key.space	n/a
421.4945	0.104	842989	keystroke	w	n/a
421.574	0.056	843148	keystroke	i	n/a
421.7105	0.0875	843421	keystroke	n	n/a
421.806	0.1045	843612	keystroke	d	n/a
422.0055	0.0805	844011	keystroke	o	n/a
422.1505	0.104	844301	keystroke	w	n/a
422.3905	0.136	844781	keystroke	s	n/a
422.6455	0.0965	845291	keystroke	Key.space	n/a
422.942	0.12	845884	keystroke	h	n/a
423.0705	0.152	846141	keystroke	e	n/a
423.2135	0.153	846427	keystroke	a	n/a
423.3575	0.153	846715	keystroke	r	n/a
423.5905	0.1195	847181	keystroke	t	n/a
423.75	0.112	847500	keystroke	Key.space	n/a
423.9905	0.096	847981	keystroke	u	n/a
424.1665	0.088	848333	keystroke	n	n/a
424.2385	0.096	848477	keystroke	d	n/a
424.4465	0.191	848893	keystroke	e	n/a
424.5665	0.136	849133	keystroke	r	n/a
425.078	0.1525	850156	keystroke	f	n/a
425.7105	0.0955	851421	keystroke	Key.backspace	n/a
425.814	0.152	851628	keystroke	g	n/a
425.9505	0.1275	851901	keystroke	r	n/a
426.6865	0.136	853373	keystroke	a	n/a
427.0385	0.12	854077	keystroke	d	n/a
427.278	0.0965	854556	keystroke	u	n/a
427.398	0.1675	854796	keystroke	a	n/a
427.5345	0.1355	855069	keystroke	t	n/a
427.6775	0.12	855355	keystroke	e	n/a
427.8375	0.112	855675	keystroke	Key.enter	n/a
427.956	14.116	855912	prompt	n/a	holes delivered corpus happening\n
429.246	0.088	858492	keystroke	Key.backspace	n/a
429.534	0.088	859068	keystroke	h	n/a
429.726	0.0885	859452	keystroke	o	n/a
430.1105	0.0955	860221	keystroke	l	n/a
430.246	0.1765	860492	keystroke	e	n/a
430.3575	0.1525	860715	keystroke	s	n/a
430.5015	0.12	861003	keystroke	Key.space	n/a
430.894	0.0885	861788	keystroke	d	n/a
431.0695	0.121	862139	keystroke	e	n/a
431.2625	0.2315	862525	keystroke	l	n/a
431.4065	0.103	862813	keystroke	i	n/a
431.4865	0.112	862973	keystroke	v	n/a
431.686	0.1685	863372	keystroke	e	n/a
431.7985	0.1915	863597	keystroke	r	n/a
431.95	0.1205	863900	keystroke	e	n/a
432.159	0.151	864318	keystroke	d	n/a
432.318	0.184	864636	keystroke	Key.space	n/a
432.7505	0.12	865501	keystroke	c	n/a
432.8935	0.0965	865787	keystroke	u	n/a
433.294	0.096	866588	keystroke	r	n/a
435.286	0.088	870572	keystroke	Key.backspace	n/a
435.454	0.064	870908	keystroke	Key.backspace	n/a
435.598	0.072	871196	keystroke	Key.backspace	n/a
435.9815	0.096	871963	keystroke	o	n/a
436.366	0.0875	872732	keystroke	u	n/a
436.7575	0.0725	873515	keystroke	Key.backspace	n/a
436.8945	0.0795	873789	keystroke	Key.backspace	n/a
437.0545	0.12	874109	keystroke	c	n/a
437.1975	0.081	874395	keystroke	o	n/a
437.3495	0.1285	874699	keystroke	r	n/a
437.51	0.088	875020	keystroke	p	n/a
437.75	0.08	875500	keystroke	u	n/a
437.902	0.152	875804	keystroke	s	n/a
439.0225	0.1035	878045	keystroke	Key.space	n/a
439.2695	0.113	878539	keystroke	h	n/a
439.6455	0.144	879291	keystroke	a	n/a
439.8945	0.048	879789	keystroke	p	n/a
440.046	0.064	880092	keystroke	p	n/a
440.734	0.1115	881468	keystroke	e	n/a
441.2545	0.216	882509	keystroke	n	n/a
441.4055	0.153	882811	keystroke	i	n/a
441.5985	0.1355	883197	keystroke	n	n/a
441.7495	0.096	883499	keystroke	g	n/a
441.9415	0.1285	883883	keystroke	Key.enter	n/a
442.076	7.7075	884152	prompt	n/a	frame i'm dare follow\n
442.75	0.12	885500	keystroke	f	n/a
442.9495	0.161	885899	keystroke	r	n/a
443.134	0.1765	886268	keystroke	a	n/a
443.3175	0.096	886635	keystroke	m	n/a
443.4535	0.152	886907	keystroke	e	n/a
443.7655	0.1205	887531	keystroke	Key.space	n/a
444.2935	0.096	888587	keystroke	i	n/a
445.1505	0.0795	890301	keystroke	'	n/a
445.3735	0.1125	890747	keystroke	s	n/a
445.7895	0.0965	891579	keystroke	Key.backspace	n/a
446.782	0.0795	893564	keystroke	m	n/a
447.19	0.0955	894380	keystroke	Key.space	n/a
447.446	0.1205	894892	keystroke	d	n/a
447.694	0.0885	895388	keystroke	a	n/a
447.789	0.1845	895578	keystroke	r	n/a
447.894	0.1835	895788	keystroke	e	n/a
448.1735	0.128	896347	keystroke	Key.space	n/a
448.4215	0.121	896843	keystroke	f	n/a
448.8945	0.095	897789	keystroke	o	n/a
449.094	0.0715	898188	keystroke	l	n/a
449.2385	0.056	898477	keystroke	l	n/a
449.4055	0.0805	898811	keystroke	o	n/a
449.518	0.12	899036	keystroke	w	n/a
449.67	0.112	899340	keystroke	Key.enter	n/a
449.7915	11.2315	899583	prompt	n/a	increase stakeholders trader contest\n
450.4455	0.0805	900891	keystroke	i	n/a
450.614	0.104	901228	keystroke	n	n/a
450.7335	0.056	901467	keystroke	c	n/a
450.9425	0.152	901885	keystroke	r	n/a
450.9975	0.1765	901995	keystroke	e	n/a
451.15	0.1595	902300	keystroke	a	n/a
451.3815	0.168	902763	keystroke	s	n/a
451.5575	0.16	903115	keystroke	e	n/a
451.7815	0.1445	903563	keystroke	Key.space	n/a
452.15	0.2	904300	keystroke	s	n/a
452.31	0.104	904620	keystroke	t	n/a
452.454	0.12	904908	keystroke	a	n/a
452.75	0.104	905500	keystroke	k	n/a
452.966	0.088	905932	keystroke	e	n/a
453.862	0.096	907724	keystroke	h	n/a
454.061	0.0805	908122	keystroke	o	n/a
454.342	0.1435	908684	keystroke	d	n/a
454.4295	0.04	908859	keystroke	l	n/a
454.7815	0.096	909563	keystroke	Key.backspace	n/a
454.9175	0.0805	909835	keystroke	Key.backspace	n/a
455.1975	0.1285	910395	keystroke	l	n/a
455.486	0.088	910972	keystroke	d	n/a
455.686	0.168	911372	keystroke	e	n/a
455.83	0.12	911660	keystroke	r	n/a
456.022	0.136	912044	keystroke	s	n/a
456.174	0.1275	912348	keystroke	Key.space	n/a
456.6615	0.1205	913323	keystroke	t	n/a
456.83	0.1035	913660	keystroke	r	n/a
456.9335	0.12	913867	keystroke	a	n/a
457.342	0.104	914684	keystroke	d	n/a
457.589	0.1845	915178	keystroke	e	n/a
457.734	0.128	915468	keystroke	r	n/a
458.1255	0.1045	916251	keystroke	Key.space	n/a
458.3735	0.1125	916747	keystroke	c	n/a
458.4695	0.0885	916939	keystroke	o	n/a
458.6295	0.12	917259	keystroke	n	n/a
459.5255	0.136	919051	keystroke	t	n/a
459.6695	0.104	919339	keystroke	e	n/a
459.9415	0.1365	919883	keystroke	s	n/a
460.1575	0.096	920315	keystroke	t	n/a
460.91	0.111	921820	keystroke	Key.enter	n/a
461.0265	8.589	922053	prompt	n/a	academy slot competing draw\n
461.7415	0.1285	923483	keystroke	a	n/a
461.981	0.12	923962	keystroke	c	n/a
462.43	0.16	924860	keystroke	a	n/a
462.782	0.096	925564	keystroke	d	n/a
462.974	0.1275	925948	keystroke	e	n/a
463.142	0.104	926284	keystroke	m	n/a
463.3975	0.096	926795	keystroke	y	n/a
463.5495	0.104	927099	keystroke	Key.space	n/a
463.774	0.144	927548	keystroke	s	n/a
464.974	0.1035	929948	keystroke	l	n/a
465.1975	0.088	930395	keystroke	o	n/a
465.4135	0.0885	930827	keystroke	t	n/a
465.646	0.0875	931292	keystroke	Key.space	n/a
465.854	0.12	931708	keystroke	c	n/a
466.1415	0.088	932283	keystroke	o	n/a
466.3175	0.0805	932635	keystroke	m	n/a
466.502	0.072	933004	keystroke	p	n/a
466.5895	0.192	933179	keystroke	e	n/a
466.7655	0.128	933531	keystroke	t	n/a
466.8535	0.096	933707	keystroke	i	n/a
466.998	0.0795	933996	keystroke	n	n/a
467.0855	0.112	934171	keystroke	g	n/a
467.1655	0.112	934331	keystroke	Key.space	n/a
467.342	0.1035	934684	keystroke	d	n/a
467.5495	0.144	935099	keystroke	e	n/a
468.1655	0.104	936331	keystroke	Key.backspace	n/a
468.654	0.1195	937308	keystroke	r	n/a
468.966	0.1195	937932	keystroke	a	n/a
469.1575	0.128	938315	keystroke	w	n/a
469.4855	0.128	938971	keystroke	Key.enter	n/a
469.619	15.636	939238	prompt	n/a	necessarily collective preparing denmark\n
470.446	0.152	940892	keystroke	n	n/a
470.573	0.129	941146	keystroke	e	n/a
470.854	0.1515	941708	keystroke	c	n/a
471.27	0.111	942540	keystroke	e	n/a
471.6535	0.0885	943307	keystroke	s	n/a
471.902	0.079	943804	keystroke	s	n/a
472.157	0.1205	944314	keystroke	a	n/a
472.4215	0.136	944843	keystroke	r	n/a
472.654	0.1995	945308	keystroke	i	n/a
472.7975	0.1515	945595	keystroke	l	n/a
472.958	0.0955	945916	keystroke	y	n/a
473.1255	0.104	946251	keystroke	Key.space	n/a
473.43	0.1275	946860	keystroke	c	n/a
473.5815	0.08	947163	keystroke	h	n/a
473.9175	0.0955	947835	keystroke	Key.backspace	n/a
474.565	0.097	949130	keystroke	o	n/a
474.774	0.063	949548	keystroke	l	n/a
474.917	0.097	949834	keystroke	l	n/a
474.997	0.12	949994	keystroke	e	n/a
475.189	0.113	950378	keystroke	c	n/a
475.4215	0.095	950843	keystroke	t	n/a
475.5175	0.104	951035	keystroke	i	n/a
475.6695	0.128	951339	keystroke	v	n/a
475.8455	0.1605	951691	keystroke	e	n/a
475.9895	0.136	951979	keystroke	Key.space	n/a
476.1495	0.096	952299	keystroke	p	n/a
476.2935	0.168	952587	keystroke	r	n/a
476.382	0.1275	952764	keystroke	e	n/a
476.6295	0.144	953259	keystroke	a	n/a
477.045	0.104	954090	keystroke	Key.backspace	n/a
477.6775	0.088	955355	keystroke	p	n/a
477.9495	0.136	955899	keystroke	a	n/a
478.133	0.129	956266	keystroke	r	n/a
478.253	0.088	956506	keystroke	i	n/a
478.413	0.073	956826	keystroke	n	n/a
478.501	0.112	957002	keystroke	g	n/a
478.5895	0.1115	957179	keystroke	Key.space	n/a
478.8935	0.088	957787	keystroke	d	n/a
479.093	0.097	958186	keystroke	e	n/a
479.237	0.096	958474	keystroke	n	n/a
479.549	0.088	959098	keystroke	m	n/a
479.645	0.1445	959290	keystroke	a	n/a
479.8535	0.0875	959707	keystroke	k	n/a
480.0135	0.1115	960027	keystroke	r	n/a
480.5485	0.081	961097	keystroke	Key.backspace	n/a
480.7095	0.072	961419	keystroke	Key.backspace	n/a
480.9655	0.12	961931	keystroke	r	n/a
482.0935	0.1035	964187	keystroke	k	n/a
485.133	0.12	970266	keystroke	Key.enter	n/a
485.26	7.811	970520	prompt	n/a	reno thereof appropriate persian\n
486.2855	0.12	972571	keystroke	r	n/a
486.5415	0.1355	973083	keystroke	e	n/a
486.6935	0.167	973387	keystroke	n	n/a
486.8135	0.136	973627	keystroke	o	n/a
487.0205	0.105	974041	keystroke	Key.space	n/a
487.365	0.0885	974730	keystroke	t	n/a
487.4615	0.0955	974923	keystroke	h	n/a
487.589	0.161	975178	keystroke	e	n/a
487.701	0.1605	975402	keystroke	r	n/a
488.0215	0.104	976043	keystroke	e	n/a
488.317	0.1045	976634	keystroke	o	n/a
488.4615	0.1195	976923	keystroke	f	n/a
488.5645	0.105	977129	keystroke	Key.space	n/a
488.918	0.1195	977836	keystroke	a	n/a
489.029	0.0725	978058	keystroke	p	n/a
489.173	0.0645	978346	keystroke	p	n/a
489.2855	0.096	978571	keystroke	r	n/a
489.4295	0.087	978859	keystroke	o	n/a
489.7255	0.104	979451	keystroke	p	n/a
489.989	0.1125	979978	keystroke	r	n/a
490.477	0.096	980954	keystroke	i	n/a
491.077	0.136	982154	keystroke	a	n/a
491.3095	0.128	982619	keystroke	t	n/a
491.4775	0.168	982955	keystroke	e	n/a
491.6375	0.1275	983275	keystroke	Key.space	n/a
491.829	0.0885	983658	keystroke	p	n/a
491.997	0.16	983994	keystroke	e	n/a
492.117	0.088	984234	keystroke	r	n/a
492.277	0.1365	984554	keystroke	s	n/a
492.381	0.1125	984762	keystroke	i	n/a
492.573	0.136	985146	keystroke	a	n/a
492.701	0.104	985402	keystroke	n	n/a
492.965	0.1035	985930	keystroke	Key.enter	n/a
493.0755	11.643	986151	prompt	n/a	representing sorted ease employers\n
493.6135	0.0875	987227	keystroke	o	n/a
493.965	0.096	987930	keystroke	Key.backspace	n/a
494.0615	0.184	988123	keystroke	r	n/a
494.1645	0.128	988329	keystroke	e	n/a
494.629	0.104	989258	keystroke	p	n/a
495.4765	0.193	990953	keystroke	r	n/a
495.5725	0.137	991145	keystroke	e	n/a
495.8215	0.1355	991643	keystroke	s	n/a
495.9405	0.16	991881	keystroke	e	n/a
496.3255	0.0875	992651	keystroke	n	n/a
496.8605	0.0885	993721	keystroke	t	n/a
497.2215	0.08	994443	keystroke	i	n/a
497.397	0.0805	994794	keystroke	n	n/a
497.957	0.12	995914	keystroke	g	n/a
498.133	0.1195	996266	keystroke	Key.space	n/a
498.365	0.104	996730	keystroke	r	n/a
498.6535	0.0955	997307	keystroke	Key.backspace	n/a
499.0445	0.1205	998089	keystroke	s	n/a
499.189	0.0955	998378	keystroke	o	n/a
499.373	0.1285	998746	keystroke	r	n/a
499.5805	0.0805	999161	keystroke	t	n/a
500.6205	0.104	1001241	keystroke	e	n/a
500.829	0.1365	1001658	keystroke	d	n/a
500.9885	0.1605	1001977	keystroke	Key.space	n/a
501.3095	0.144	1002619	keystroke	e	n/a
501.4935	0.192	1002987	keystroke	a	n/a
501.7015	0.1995	1003403	keystroke	s	n/a
501.9255	0.1355	1003851	keystroke	e	n/a
502.0535	0.151	1004107	keystroke	Key.space	n/a
502.2855	0.136	1004571	keystroke	e	n/a
502.405	0.0805	1004810	keystroke	m	n/a
502.5815	0.0945	1005163	keystroke	p	n/a
502.8045	0.0885	1005609	keystroke	l	n/a
503.581	0.088	1007162	keystroke	o	n/a
503.709	0.112	1007418	keystroke	y	n/a
503.9405	0.1765	1007881	keystroke	e	n/a
504.0685	0.136	1008137	keystroke	r	n/a
504.261	0.1515	1008522	keystroke	s	n/a
504.6205	0.096	1009241	keystroke	Key.enter	n/a
504.723	8.261	1009446	prompt	n/a	rainbow mountains painted flooring\n
505.501	0.096	1011002	keystroke	r	n/a
505.661	0.136	1011322	keystroke	a	n/a
505.813	0.104	1011626	keystroke	i	n/a
505.965	0.0965	1011930	keystroke	n	n/a
506.149	0.112	1012298	keystroke	b	n/a
506.357	0.0885	1012714	keystroke	o	n/a
506.893	0.136	1013786	keystroke	w	n/a
507.045	0.1195	1014090	keystroke	Key.space	n/a
507.2135	0.087	1014427	keystroke	m	n/a
507.3815	0.1755	1014763	keystroke	o	n/a
507.5325	0.0805	1015065	keystroke	u	n/a
507.725	0.096	1015450	keystroke	n	n/a
507.9485	0.1445	1015897	keystroke	t	n/a
508.173	0.12	1016346	keystroke	a	n/a
508.349	0.096	1016698	keystroke	i	n/a
508.501	0.096	1017002	keystroke	n	n/a
508.893	0.1205	1017786	keystroke	s	n/a
509.133	0.104	1018266	keystroke	Key.space	n/a
509.3485	0.104	1018697	keystroke	p	n/a
509.6365	0.12	1019273	keystroke	a	n/a
509.8365	0.064	1019673	keystroke	i	n/a
510.413	0.104	1020826	keystroke	n	n/a
510.5895	0.1035	1021179	keystroke	t	n/a
510.733	0.1205	1021466	keystroke	e	n/a
510.933	0.136	1021866	keystroke	d	n/a
511.061	0.096	1022122	keystroke	Key.space	n/a
511.181	0.104	1022362	keystroke	f	n/a
511.308	0.033	1022616	keystroke	l	n/a
511.885	0.064	1023770	keystroke	o	n/a
512.037	0.0645	1024074	keystroke	o	n/a
512.109	0.104	1024218	keystroke	r	n/a
512.2765	0.1045	1024553	keystroke	i	n/a
512.4365	0.096	1024873	keystroke	n	n/a
512.5565	0.104	1025113	keystroke	g	n/a
512.885	0.0955	1025770	keystroke	Key.enter	n/a
512.988	12.1705	1025976	prompt	n/a	mpegs judges plastics barry\n
513.6215	0.112	1027243	keystroke	m	n/a
513.9005	0.105	1027801	keystroke	p	n/a
514.205	0.104	1028410	keystroke	e	n/a
515.005	0.1195	1030010	keystroke	g	n/a
515.373	0.12	1030746	keystroke	s	n/a
515.637	0.128	1031274	keystroke	Key.space	n/a
515.869	0.2	1031738	keystroke	j	n/a
516.045	0.096	1032090	keystroke	u	n/a
516.213	0.096	1032426	keystroke	d	n/a
516.405	0.112	1032810	keystroke	e	n/a
516.565	0.144	1033130	keystroke	g	n/a
517.005	0.064	1034010	keystroke	Key.backspace	n/a
517.5255	0.175	1035051	keystroke	g	n/a
517.6765	0.1765	1035353	keystroke	e	n/a
517.7805	0.168	1035561	keystroke	s	n/a
517.9325	0.12	1035865	keystroke	Key.space	n/a
518.205	0.112	1036410	keystroke	p	n/a
519.7485	0.088	1039497	keystroke	Key.backspace	n/a
519.9165	0.072	1039833	keystroke	Key.backspace	n/a
520.085	0.0795	1040170	keystroke	Key.backspace	n/a
520.269	0.0875	1040538	keystroke	Key.backspace	n/a
520.4605	0.096	1040921	keystroke	Key.backspace	n/a
520.8445	0.096	1041689	keystroke	Key.backspace	n/a
521.085	0.096	1042170	keystroke	g	n/a
521.2925	0.2005	1042585	keystroke	e	n/a
521.453	0.152	1042906	keystroke	s	n/a
521.781	0.144	1043562	keystroke	Key.space	n/a
522.493	0.08	1044986	keystroke	p	n/a
522.6605	0.0965	1045321	keystroke	l	n/a
522.7965	0.1205	1045593	keystroke	a	n/a
522.933	0.16	1045866	keystroke	s	n/a
523.1165	0.096	1046233	keystroke	t	n/a
523.2285	0.096	1046457	keystroke	i	n/a
523.3805	0.152	1046761	keystroke	c	n/a
523.653	0.144	1047306	keystroke	s	n/a
523.821	0.0955	1047642	keystroke	Key.space	n/a
523.9485	0.096	1047897	keystroke	b	n/a
524.053	0.1115	1048106	keystroke	a	n/a
524.2045	0.1045	1048409	keystroke	r	n/a
524.381	0.088	1048762	keystroke	r	n/a
524.685	0.096	1049370	keystroke	y	n/a
525.077	0.08	1050154	keystroke	Key.enter	n/a
525.1625	8.3	1050325	prompt	n/a	luther czech buyer collar\n
526.0055	0.1435	1052011	keystroke	l	n/a
526.293	0.072	1052586	keystroke	u	n/a
526.4205	0.0885	1052841	keystroke	t	n/a
526.5325	0.0725	1053065	keystroke	h	n/a
526.6525	0.128	1053305	keystroke	e	n/a
526.7405	0.152	1053481	keystroke	r	n/a
526.8925	0.096	1053785	keystroke	Key.space	n/a
527.509	0.127	1055018	keystroke	c	n/a
528.9085	0.1195	1057817	keystroke	z	n/a
529.165	0.12	1058330	keystroke	e	n/a
529.4445	0.121	1058889	keystroke	c	n/a
529.557	0.0965	1059114	keystroke	h	n/a
529.7405	0.112	1059481	keystroke	Key.space	n/a
529.989	0.1435	1059978	keystroke	b	n/a
530.117	0.1115	1060234	keystroke	u	n/a
530.7565	0.0885	1061513	keystroke	y	n/a
531.029	0.1755	1062058	keystroke	e	n/a
531.1405	0.1355	1062281	keystroke	r	n/a
531.253	0.103	1062506	keystroke	Key.space	n/a
531.6045	0.112	1063209	keystroke	c	n/a
531.7005	0.0875	1063401	keystroke	o	n/a
531.876	0.049	1063752	keystroke	l	n/a
531.996	0.089	1063992	keystroke	l	n/a
532.1965	0.0715	1064393	keystroke	o	n/a
532.636	0.0965	1065272	keystroke	Key.backspace	n/a
532.7885	0.136	1065577	keystroke	a	n/a
532.9325	0.128	1065865	keystroke	r	n/a
533.3565	0.104	1066713	keystroke	Key.enter	n/a
533.4665	6.7655	1066933	prompt	n/a	nathan sleeve grade mustn't\n
534.077	0.0875	1068154	keystroke	n	n/a
534.2045	0.112	1068409	keystroke	a	n/a
534.3645	0.096	1068729	keystroke	t	n/a
534.4535	0.0955	1068907	keystroke	h	n/a
534.613	0.1195	1069226	keystroke	a	n/a
534.7245	0.096	1069449	keystroke	n	n/a
534.8525	0.08	1069705	keystroke	Key.space	n/a
535.005	0.12	1070010	keystroke	s	n/a
535.1325	0.0805	1070265	keystroke	l	n/a
535.509	0.048	1071018	keystroke	e	n/a
535.645	0.072	1071290	keystroke	e	n/a
535.845	0.095	1071690	keystroke	v	n/a
536.061	0.127	1072122	keystroke	e	n/a
536.164	0.112	1072328	keystroke	Key.space	n/a
536.596	0.1045	1073192	keystroke	g	n/a
536.709	0.1195	1073418	keystroke	r	n/a
536.8445	0.168	1073689	keystroke	a	n/a
537.141	0.103	1074282	keystroke	d	n/a
537.341	0.135	1074682	keystroke	e	n/a
537.468	0.113	1074936	keystroke	Key.space	n/a
537.661	0.088	1075322	keystroke	m	n/a
537.9965	0.112	1075993	keystroke	u	n/a
538.173	0.1835	1076346	keystroke	s	n/a
538.413	0.0955	1076826	keystroke	t	n/a
538.8685	0.088	1077737	keystroke	n	n/a
539.485	0.0715	1078970	keystroke	'	n/a
539.6205	0.112	1079241	keystroke	t	n/a
539.7885	0.12	1079577	keystroke	Key.space	n/a
540.1325	0.096	1080265	keystroke	Key.enter	n/a
540.236	6.658	1080472	prompt	n/a	trailer meal martha simple\n
540.8205	0.1195	1081641	keystroke	r	n/a
541.308	0.096	1082616	keystroke	Key.backspace	n/a
541.46	0.1365	1082920	keystroke	t	n/a
541.628	0.1365	1083256	keystroke	r	n/a
541.9565	0.1205	1083913	keystroke	a	n/a
542.188	0.208	1084376	keystroke	i	n/a
542.348	0.137	1084696	keystroke	l	n/a
542.4685	0.1835	1084937	keystroke	e	n/a
542.572	0.12	1085144	keystroke	r	n/a
542.668	0.1125	1085336	keystroke	Key.space	n/a
542.8125	0.0965	1085625	keystroke	m	n/a
542.901	0.1275	1085802	keystroke	e	n/a
543.0365	0.1285	1086073	keystroke	a	n/a
543.1325	0.144	1086265	keystroke	l	n/a
543.4125	0.104	1086825	keystroke	Key.space	n/a
543.653	0.08	1087306	keystroke	m	n/a
543.813	0.12	1087626	keystroke	a	n/a
544.092	0.152	1088184	keystroke	r	n/a
544.301	0.1035	1088602	keystroke	t	n/a
544.4205	0.0965	1088841	keystroke	h	n/a
544.5725	0.136	1089145	keystroke	a	n/a
544.724	0.064	1089448	keystroke	Key.space	n/a
544.868	0.168	1089736	keystroke	s	n/a
544.964	0.104	1089928	keystroke	i	n/a
545.1805	0.088	1090361	keystroke	m	n/a
546.3645	0.056	1092729	keystroke	p	n/a
546.5165	0.064	1093033	keystroke	l	n/a
546.6205	0.112	1093241	keystroke	e	n/a
546.7805	0.112	1093561	keystroke	Key.enter	n/a
546.898	6.3	1093796	prompt	n/a	images rest hindu centuries\n
547.5085	0.0805	1095017	keystroke	m	n/a
548.036	0.0885	1096072	keystroke	Key.backspace	n/a
548.284	0.0725	1096568	keystroke	i	n/a
548.4125	0.104	1096825	keystroke	m	n/a
548.46	0.144	1096920	keystroke	a	n/a
548.5965	0.136	1097193	keystroke	g	n/a
548.733	0.1915	1097466	keystroke	e	n/a
548.893	0.151	1097786	keystroke	s	n/a
549.084	0.12	1098168	keystroke	Key.space	n/a
549.3725	0.208	1098745	keystroke	r	n/a
549.4845	0.136	1098969	keystroke	e	n/a
549.7165	0.1365	1099433	keystroke	s	n/a
549.8685	0.144	1099737	keystroke	t	n/a
550.0205	0.112	1100041	keystroke	Key.space	n/a
550.269	0.2075	1100538	keystroke	h	n/a
550.3965	0.1205	1100793	keystroke	i	n/a
550.6365	0.072	1101273	keystroke	n	n/a
550.8045	0.12	1101609	keystroke	d	n/a
550.9565	0.0885	1101913	keystroke	u	n/a
551.1485	0.096	1102297	keystroke	Key.space	n/a
551.453	0.0955	1102906	keystroke	c	n/a
551.6845	0.1275	1103369	keystroke	e	n/a
551.804	0.0965	1103608	keystroke	n	n/a
552.1085	0.1125	1104217	keystroke	t	n/a
552.476	0.0955	1104952	keystroke	u	n/a
552.6035	0.081	1105207	keystroke	r	n/a
552.7	0.0965	1105400	keystroke	i	n/a
552.8355	0.154	1105671	keystroke	e	n/a
552.9405	0.1515	1105881	keystroke	s	n/a
553.1005	0.096	1106201	keystroke	Key.enter	n/a
553.205	11.5605	1106410	prompt	n/a	congress proof determining slovakia\n
554.0125	0.12	1108025	keystroke	c	n/a
554.0925	0.064	1108185	keystroke	o	n/a
554.2525	0.088	1108505	keystroke	n	n/a
554.3645	0.1275	1108729	keystroke	g	n/a
554.4685	0.136	1108937	keystroke	r	n/a
554.5245	0.136	1109049	keystroke	e	n/a
554.773	0.0795	1109546	keystroke	e	n/a
555.2605	0.1035	1110521	keystroke	Key.backspace	n/a
555.4045	0.1115	1110809	keystroke	s	n/a
555.58	0.1365	1111160	keystroke	s	n/a
555.756	0.136	1111512	keystroke	Key.space	n/a
556.292	0.0965	1112584	keystroke	p	n/a
556.428	0.0965	1112856	keystroke	r	n/a
556.572	0.048	1113144	keystroke	o	n/a
557.1005	0.088	1114201	keystroke	o	n/a
557.2365	0.144	1114473	keystroke	f	n/a
557.3725	0.12	1114745	keystroke	Key.space	n/a
557.7	0.08	1115400	keystroke	d	n/a
557.884	0.1045	1115768	keystroke	e	n/a
558.076	0.0725	1116152	keystroke	t	n/a
558.292	0.169	1116584	keystroke	e	n/a
558.7245	0.104	1117449	keystroke	r	n/a
559.092	0.208	1118184	keystroke	m	n/a
559.236	0.1045	1118472	keystroke	i	n/a
559.428	0.1125	1118856	keystroke	n	n/a
560.1885	0.088	1120377	keystroke	i	n/a
560.3405	0.104	1120681	keystroke	n	n/a
560.4525	0.104	1120905	keystroke	g	n/a
560.5245	0.1115	1121049	keystroke	Key.space	n/a
560.7645	0.1275	1121529	keystroke	s	n/a
561.8765	0.087	1123753	keystroke	l	n/a
562.1155	0.081	1124231	keystroke	o	n/a
563.0275	0.088	1126055	keystroke	v	n/a
563.364	0.128	1126728	keystroke	a	n/a
563.756	0.1045	1127512	keystroke	k	n/a
564.0445	0.12	1128089	keystroke	i	n/a
564.2675	0.136	1128535	keystroke	a	n/a
564.6355	0.1285	1129271	keystroke	Key.enter	n/a
564.77	9.0115	1129540	prompt	n/a	situations rochester betting holding\n
565.2995	0.121	1130599	keystroke	s	n/a
565.4925	0.064	1130985	keystroke	i	n/a
565.7555	0.081	1131511	keystroke	t	n/a
565.9885	0.088	1131977	keystroke	u	n/a
566.1165	0.152	1132233	keystroke	a	n/a
566.2765	0.104	1132553	keystroke	t	n/a
566.3485	0.168	1132697	keystroke	i	n/a
566.4605	0.104	1132921	keystroke	o	n/a
566.604	0.096	1133208	keystroke	n	n/a
566.676	0.12	1133352	keystroke	s	n/a
566.812	0.064	1133624	keystroke	Key.space	n/a
566.9885	0.1195	1133977	keystroke	r	n/a
567.204	0.0725	1134408	keystroke	o	n/a
567.3725	0.112	1134745	keystroke	c	n/a
567.5645	0.0955	1135129	keystroke	h	n/a
567.708	0.184	1135416	keystroke	e	n/a
567.8435	0.1925	1135687	keystroke	s	n/a
568.0035	0.1125	1136007	keystroke	t	n/a
568.22	0.1525	1136440	keystroke	e	n/a
568.308	0.168	1136616	keystroke	r	n/a
568.492	0.12	1136984	keystroke	Key.space	n/a
568.717	0.103	1137434	keystroke	b	n/a
569.044	0.088	1138088	keystroke	e	n/a
570.4995	0.0805	1140999	keystroke	t	n/a
570.6595	0.0725	1141319	keystroke	t	n/a
570.78	0.0805	1141560	keystroke	i	n/a
570.94	0.088	1141880	keystroke	n	n/a
571.036	0.0955	1142072	keystroke	g	n/a
571.1	0.12	1142200	keystroke	Key.space	n/a
571.516	0.048	1143032	keystroke	h	n/a
572.2925	0.104	1144585	keystroke	o	n/a
572.8205	0.0715	1145641	keystroke	l	n/a
572.98	0.12	1145960	keystroke	d	n/a
573.084	0.096	1146168	keystroke	i	n/a
573.212	0.0955	1146424	keystroke	n	n/a
573.3165	0.1035	1146633	keystroke	g	n/a
573.6755	0.104	1147351	keystroke	Key.enter	n/a
573.786	7.7795	1147572	prompt	n/a	buffalo taxation elevation parameter\n
574.492	0.104	1148984	keystroke	b	n/a
574.7005	0.0875	1149401	keystroke	u	n/a
574.916	0.064	1149832	keystroke	f	n/a
575.0605	0.0875	1150121	keystroke	f	n/a
575.2605	0.088	1150521	keystroke	a	n/a
575.3795	0.072	1150759	keystroke	l	n/a
575.5565	0.0715	1151113	keystroke	o	n/a
575.6515	0.112	1151303	keystroke	Key.space	n/a
575.8275	0.112	1151655	keystroke	t	n/a
575.9875	0.113	1151975	keystroke	a	n/a
576.2765	0.1355	1152553	keystroke	x	n/a
576.596	0.1365	1153192	keystroke	a	n/a
576.8045	0.0955	1153609	keystroke	t	n/a
576.892	0.1605	1153784	keystroke	i	n/a
576.996	0.104	1153992	keystroke	o	n/a
577.1645	0.0955	1154329	keystroke	n	n/a
577.26	0.112	1154520	keystroke	Key.space	n/a
577.388	0.1355	1154776	keystroke	e	n/a
577.5875	0.072	1155175	keystroke	l	n/a
578.356	0.096	1156712	keystroke	e	n/a
578.724	0.12	1157448	keystroke	v	n/a
578.9315	0.1925	1157863	keystroke	a	n/a
579.132	0.096	1158264	keystroke	t	n/a
579.236	0.152	1158472	keystroke	i	n/a
579.3245	0.1035	1158649	keystroke	o	n/a
579.484	0.1045	1158968	keystroke	n	n/a
579.596	0.136	1159192	keystroke	Key.space	n/a
579.812	0.1045	1159624	keystroke	p	n/a
579.94	0.136	1159880	keystroke	a	n/a
580.124	0.1755	1160248	keystroke	r	n/a
580.3555	0.144	1160711	keystroke	a	n/a
580.604	0.088	1161208	keystroke	m	n/a
580.7075	0.16	1161415	keystroke	e	n/a
580.8525	0.112	1161705	keystroke	t	n/a
581.0355	0.145	1162071	keystroke	e	n/a
581.1555	0.1205	1162311	keystroke	r	n/a
581.4675	0.096	1162935	keystroke	Key.enter	n/a
581.569	6.0285	1163138	prompt	n/a	saddam became catering essence\n
582.204	0.1355	1164408	keystroke	s	n/a
582.4515	0.08	1164903	keystroke	a	n/a
582.7075	0.0965	1165415	keystroke	d	n/a
582.8755	0.104	1165751	keystroke	d	n/a
583.092	0.1285	1166184	keystroke	a	n/a
583.228	0.096	1166456	keystroke	m	n/a
583.364	0.088	1166728	keystroke	Key.space	n/a
583.564	0.112	1167128	keystroke	b	n/a
583.6675	0.096	1167335	keystroke	e	n/a
584.3	0.1435	1168600	keystroke	c	n/a
584.4835	0.121	1168967	keystroke	a	n/a
584.6115	0.104	1169223	keystroke	m	n/a
584.7075	0.1445	1169415	keystroke	e	n/a
584.828	0.08	1169656	keystroke	Key.space	n/a
585.092	0.1115	1170184	keystroke	c	n/a
585.243	0.137	1170486	keystroke	a	n/a
585.42	0.104	1170840	keystroke	t	n/a
585.603	0.145	1171206	keystroke	e	n/a
585.683	0.128	1171366	keystroke	r	n/a
585.828	0.1115	1171656	keystroke	i	n/a
585.9965	0.111	1171993	keystroke	n	n/a
586.1155	0.112	1172231	keystroke	g	n/a
586.2115	0.0885	1172423	keystroke	Key.space	n/a
586.3715	0.112	1172743	keystroke	e	n/a
586.6125	0.08	1173225	keystroke	s	n/a
586.7555	0.097	1173511	keystroke	s	n/a
586.924	0.1115	1173848	keystroke	e	n/a
587.0195	0.0805	1174039	keystroke	n	n/a
587.14	0.176	1174280	keystroke	c	n/a
587.3	0.1355	1174600	keystroke	e	n/a
587.524	0.0715	1175048	keystroke	Key.enter	n/a
587.6015	9.1325	1175203	prompt	n/a	leonard believes tropical forever\n
588.22	0.096	1176440	keystroke	l	n/a
588.38	0.152	1176760	keystroke	e	n/a
588.9405	0.0885	1177881	keystroke	o	n/a
589.1235	0.088	1178247	keystroke	n	n/a
589.22	0.143	1178440	keystroke	a	n/a
589.372	0.136	1178744	keystroke	r	n/a
589.684	0.136	1179368	keystroke	d	n/a
589.883	0.0965	1179766	keystroke	Key.space	n/a
590.188	0.1435	1180376	keystroke	b	n/a
590.371	0.112	1180742	keystroke	e	n/a
590.5555	0.2	1181111	keystroke	l	n/a
590.6765	0.112	1181353	keystroke	i	n/a
591.156	0.1035	1182312	keystroke	e	n/a
591.46	0.072	1182920	keystroke	v	n/a
591.8035	0.136	1183607	keystroke	e	n/a
592.0995	0.128	1184199	keystroke	s	n/a
592.3235	0.08	1184647	keystroke	Key.space	n/a
592.5155	0.0965	1185031	keystroke	t	n/a
592.716	0.1275	1185432	keystroke	r	n/a
593.388	0.088	1186776	keystroke	o	n/a
593.628	0.0955	1187256	keystroke	p	n/a
593.8515	0.0885	1187703	keystroke	i	n/a
594.052	0.12	1188104	keystroke	c	n/a
594.18	0.135	1188360	keystroke	a	n/a
594.292	0.088	1188584	keystroke	l	n/a
594.4275	0.0885	1188855	keystroke	Key.space	n/a
594.98	0.152	1189960	keystroke	f	n/a
595.411	0.08	1190822	keystroke	o	n/a
595.636	0.112	1191272	keystroke	r	n/a
595.972	0.096	1191944	keystroke	e	n/a
596.195	0.096	1192390	keystroke	v	n/a
596.396	0.152	1192792	keystroke	e	n/a
596.484	0.12	1192968	keystroke	r	n/a
596.628	0.104	1193256	keystroke	Key.enter	n/a
596.7385	9.3865	1193477	prompt	n/a	treasury removable commitment travels\n
597.3875	0.096	1194775	keystroke	t	n/a
597.5475	0.1685	1195095	keystroke	r	n/a
597.6915	0.224	1195383	keystroke	e	n/a
598.0435	0.0965	1196087	keystroke	a	n/a
598.236	0.095	1196472	keystroke	s	n/a
598.323	0.0885	1196646	keystroke	u	n/a
598.46	0.1595	1196920	keystroke	r	n/a
598.82	0.104	1197640	keystroke	y	n/a
598.995	0.096	1197990	keystroke	Key.space	n/a
599.2115	0.1445	1198423	keystroke	r	n/a
599.292	0.152	1198584	keystroke	e	n/a
599.5	0.191	1199000	keystroke	m	n/a
599.628	0.119	1199256	keystroke	o	n/a
599.788	0.128	1199576	keystroke	v	n/a
600.1075	0.056	1200215	keystroke	a	n/a
600.2755	0.128	1200551	keystroke	b	n/a
600.5475	0.112	1201095	keystroke	l	n/a
600.7	0.136	1201400	keystroke	e	n/a
600.8755	0.112	1201751	keystroke	Key.space	n/a
601.236	0.119	1202472	keystroke	c	n/a
601.324	0.0715	1202648	keystroke	o	n/a
601.755	0.097	1203510	keystroke	m	n/a
601.94	0.063	1203880	keystroke	m	n/a
602.092	0.0955	1204184	keystroke	i	n/a
602.2195	0.08	1204439	keystroke	t	n/a
602.3235	0.1045	1204647	keystroke	m	n/a
602.4435	0.112	1204887	keystroke	e	n/a
602.5475	0.088	1205095	keystroke	n	n/a
602.6835	0.12	1205367	keystroke	t	n/a
602.8115	0.096	1205623	keystroke	Key.space	n/a
603.0195	0.112	1206039	keystroke	t	n/a
603.14	0.1595	1206280	keystroke	r	n/a
603.2915	0.136	1206583	keystroke	a	n/a
603.627	0.1045	1207254	keystroke	v	n/a
605.043	0.104	1210086	keystroke	e	n/a
605.347	0.0965	1210694	keystroke	l	n/a
605.627	0.104	1211254	keystroke	s	n/a
606.019	0.104	1212038	keystroke	Key.enter	n/a
606.1285	7.4525	1212257	prompt	n/a	cheque farm illegal aging\n
606.9315	0.128	1213863	keystroke	c	n/a
607.0835	0.0965	1214167	keystroke	h	n/a
607.2835	0.112	1214567	keystroke	e	n/a
607.62	0.144	1215240	keystroke	q	n/a
607.755	0.089	1215510	keystroke	u	n/a
607.924	0.152	1215848	keystroke	e	n/a
608.196	0.119	1216392	keystroke	Key.space	n/a
608.595	0.1045	1217190	keystroke	f	n/a
608.931	0.137	1217862	keystroke	a	n/a
609.3155	0.112	1218631	keystroke	r	n/a
609.4835	0.08	1218967	keystroke	m	n/a
609.6115	0.112	1219223	keystroke	Key.space	n/a
609.7315	0.096	1219463	keystroke	i	n/a
609.9475	0.072	1219895	keystroke	l	n/a
610.0995	0.0885	1220199	keystroke	l	n/a
611.4355	0.1045	1222871	keystroke	e	n/a
611.779	0.089	1223558	keystroke	g	n/a
611.939	0.1365	1223878	keystroke	a	n/a
612.0675	0.0795	1224135	keystroke	l	n/a
612.235	0.12	1224470	keystroke	Key.space	n/a
612.603	0.0885	1225206	keystroke	a	n/a
612.764	0.08	1225528	keystroke	g	n/a
612.875	0.089	1225750	keystroke	i	n/a
613.0035	0.08	1226007	keystroke	n	n/a
613.1155	0.12	1226231	keystroke	g	n/a
613.2515	0.08	1226503	keystroke	Key.space	n/a
613.4675	0.112	1226935	keystroke	Key.enter	n/a
613.585	9.86	1227170	prompt	n/a	outline temporal dont rotary\n
614.3955	0.2325	1228791	keystroke	i	n/a
614.6035	0.104	1229207	keystroke	y	n/a
614.7475	0.12	1229495	keystroke	t	n/a
615.0995	0.0795	1230199	keystroke	Key.backspace	n/a
615.2355	0.072	1230471	keystroke	Key.backspace	n/a
615.3795	0.08	1230759	keystroke	Key.backspace	n/a
615.692	0.1995	1231384	keystroke	o	n/a
615.8515	0.1045	1231703	keystroke	u	n/a
615.932	0.12	1231864	keystroke	t	n/a
616.1235	0.152	1232247	keystroke	l	n/a
616.2115	0.1125	1232423	keystroke	i	n/a
616.388	0.0875	1232776	keystroke	n	n/a
616.4195	0.16	1232839	keystroke	e	n/a
616.5555	0.104	1233111	keystroke	Key.space	n/a
616.732	0.12	1233464	keystroke	t	n/a
616.8995	0.152	1233799	keystroke	e	n/a
617.02	0.0875	1234040	keystroke	m	n/a
617.195	0.0885	1234390	keystroke	p	n/a
617.4035	0.0805	1234807	keystroke	o	n/a
617.499	0.1445	1234998	keystroke	r	n/a
617.7235	0.1195	1235447	keystroke	a	n/a
617.907	0.041	1235814	keystroke	l	n/a
618.331	0.064	1236662	keystroke	l	n/a
618.8435	0.08	1237687	keystroke	Key.backspace	n/a
619.0515	0.111	1238103	keystroke	Key.space	n/a
619.2515	0.128	1238503	keystroke	d	n/a
619.4115	0.072	1238823	keystroke	o	n/a
619.5955	0.1115	1239191	keystroke	n	n/a
619.7625	0.097	1239525	keystroke	t	n/a
620.051	0.129	1240102	keystroke	Key.space	n/a
621.283	0.12	1242566	keystroke	r	n/a
621.499	0.0885	1242998	keystroke	o	n/a
621.691	0.112	1243382	keystroke	t	n/a
622.419	0.1205	1244838	keystroke	a	n/a
622.6195	0.104	1245239	keystroke	r	n/a
622.771	0.096	1245542	keystroke	y	n/a
623.3155	0.127	1246631	keystroke	Key.enter	n/a
623.449	12.292	1246898	prompt	n/a	appointment pointer study asus\n
624.0755	0.12	1248151	keystroke	a	n/a
624.1715	0.048	1248343	keystroke	o	n/a
624.3395	0.048	1248679	keystroke	o	n/a
625.0275	0.095	1250055	keystroke	Key.backspace	n/a
625.1945	0.088	1250389	keystroke	Key.backspace	n/a
625.6035	0.072	1251207	keystroke	p	n/a
626.148	0.0785	1252296	keystroke	p	n/a
626.348	0.1115	1252696	keystroke	o	n/a
626.6355	0.087	1253271	keystroke	i	n/a
626.7955	0.104	1253591	keystroke	n	n/a
626.9145	0.1205	1253829	keystroke	t	n/a
627.0595	0.088	1254119	keystroke	m	n/a
627.1555	0.152	1254311	keystroke	e	n/a
627.2675	0.096	1254535	keystroke	n	n/a
627.3555	0.128	1254711	keystroke	t	n/a
627.4675	0.127	1254935	keystroke	Key.space	n/a
627.6435	0.095	1255287	keystroke	o	n/a
628.2115	0.096	1256423	keystroke	Key.backspace	n/a
628.587	0.1045	1257174	keystroke	p	n/a
628.7955	0.0795	1257591	keystroke	o	n/a
629.0515	0.088	1258103	keystroke	i	n/a
629.2195	0.0635	1258439	keystroke	n	n/a
629.419	0.12	1258838	keystroke	t	n/a
629.707	0.192	1259414	keystroke	e	n/a
629.8115	0.1515	1259623	keystroke	r	n/a
629.964	0.087	1259928	keystroke	Key.space	n/a
630.1395	0.1435	1260279	keystroke	s	n/a
630.268	0.127	1260536	keystroke	t	n/a
630.3555	0.0965	1260711	keystroke	u	n/a
630.515	0.152	1261030	keystroke	d	n/a
630.6515	0.0875	1261303	keystroke	t	n/a
630.8435	0.128	1261687	keystroke	Key.space	n/a
631.8025	0.088	1263605	keystroke	Key.backspace	n/a
632.2345	0.121	1264469	keystroke	y	n/a
632.451	0.1115	1264902	keystroke	Key.space	n/a
632.6675	0.104	1265335	keystroke	a	n/a
633.1705	0.072	1266341	keystroke	Key.backspace	n/a
633.3145	0.0805	1266629	keystroke	Key.backspace	n/a
633.475	0.096	1266950	keystroke	Key.backspace	n/a
634.1235	0.08	1268247	keystroke	Key.backspace	n/a
634.4995	0.072	1268999	keystroke	y	n/a
634.6195	0.12	1269239	keystroke	Key.space	n/a
634.931	0.096	1269862	keystroke	a	n/a
635.123	0.144	1270246	keystroke	s	n/a
635.299	0.08	1270598	keystroke	u	n/a
635.419	0.12	1270838	keystroke	s	n/a
635.635	0.104	1271270	keystroke	Key.enter	n/a
635.745	15.6195	1271490	prompt	n/a	colin oxygen associated compressed\n
636.412	0.0955	1272824	keystroke	c	n/a
636.6995	0.064	1273399	keystroke	o	n/a
637.019	0.1995	1274038	keystroke	l	n/a
637.1715	0.1355	1274343	keystroke	i	n/a
637.379	0.0965	1274758	keystroke	n	n/a
637.5465	0.1045	1275093	keystroke	Key.space	n/a
637.6995	0.095	1275399	keystroke	e	n/a
637.9715	0.127	1275943	keystroke	x	n/a
639.347	0.1195	1278694	keystroke	y	n/a
639.5705	0.08	1279141	keystroke	g	n/a
639.7225	0.1365	1279445	keystroke	e	n/a
639.827	0.0885	1279654	keystroke	n	n/a
641.4105	0.096	1282821	keystroke	Key.backspace	n/a
641.6035	0.04	1283207	keystroke	Key.backspace	n/a
641.723	0.0875	1283446	keystroke	Key.backspace	n/a
641.883	0.08	1283766	keystroke	Key.backspace	n/a
642.0265	0.088	1284053	keystroke	Key.backspace	n/a
642.251	0.072	1284502	keystroke	Key.backspace	n/a
642.8345	0.0805	1285669	keystroke	o	n/a
643.5075	0.1115	1287015	keystroke	x	n/a
643.827	0.072	1287654	keystroke	y	n/a
643.955	0.104	1287910	keystroke	g	n/a
644.083	0.1515	1288166	keystroke	e	n/a
644.2105	0.072	1288421	keystroke	n	n/a
644.3305	0.12	1288661	keystroke	Key.space	n/a
644.7465	0.1125	1289493	keystroke	a	n/a
644.9635	0.087	1289927	keystroke	d	n/a
645.3305	0.0965	1290661	keystroke	Key.backspace	n/a
645.4665	0.113	1290933	keystroke	s	n/a
645.659	0.1205	1291318	keystroke	s	n/a
645.899	0.1355	1291798	keystroke	i	n/a
646.4425	0.104	1292885	keystroke	Key.backspace	n/a
646.7395	0.0475	1293479	keystroke	i	n/a
647.2745	0.0965	1294549	keystroke	Key.backspace	n/a
647.7475	0.0715	1295495	keystroke	o	n/a
647.9145	0.097	1295829	keystroke	c	n/a
648.0755	0.072	1296151	keystroke	i	n/a
648.2195	0.088	1296439	keystroke	a	n/a
648.3715	0.1355	1296743	keystroke	t	n/a
648.555	0.12	1297110	keystroke	e	n/a
648.771	0.152	1297542	keystroke	d	n/a
649.043	0.1195	1298086	keystroke	Key.space	n/a
649.7225	0.112	1299445	keystroke	c	n/a
649.8185	0.0885	1299637	keystroke	o	n/a
649.9785	0.08	1299957	keystroke	m	n/a
650.155	0.072	1300310	keystroke	p	n/a
650.2835	0.1835	1300567	keystroke	r	n/a
650.378	0.129	1300756	keystroke	e	n/a
650.603	0.1045	1301206	keystroke	s	n/a
650.795	0.096	1301590	keystroke	s	n/a
650.931	0.104	1301862	keystroke	e	n/a
651.1305	0.121	1302261	keystroke	d	n/a
651.259	0.1035	1302518	keystroke	Key.enter	n/a
651.371	5.9455	1302742	prompt	n/a	last rebate scenes funding\n
652.0665	0.104	1304133	keystroke	l	n/a
652.1795	0.111	1304359	keystroke	a	n/a
652.259	0.2725	1304518	keystroke	s	n/a
652.507	0.1365	1305014	keystroke	t	n/a
652.6265	0.136	1305253	keystroke	Key.space	n/a
653.075	0.1765	1306150	keystroke	r	n/a
653.179	0.1355	1306358	keystroke	e	n/a
653.3385	0.1205	1306677	keystroke	b	n/a
653.475	0.16	1306950	keystroke	a	n/a
653.6185	0.112	1307237	keystroke	t	n/a
653.7625	0.1445	1307525	keystroke	e	n/a
653.9225	0.1445	1307845	keystroke	Key.space	n/a
654.4195	0.112	1308839	keystroke	s	n/a
654.611	0.096	1309222	keystroke	c	n/a
654.8665	0.1125	1309733	keystroke	e	n/a
655.003	0.0955	1310006	keystroke	n	n/a
655.291	0.128	1310582	keystroke	e	n/a
655.4985	0.144	1310997	keystroke	s	n/a
655.6585	0.0725	1311317	keystroke	Key.space	n/a
655.8585	0.12	1311717	keystroke	f	n/a
655.995	0.0955	1311990	keystroke	u	n/a
656.1865	0.0885	1312373	keystroke	n	n/a
656.5545	0.096	1313109	keystroke	d	n/a
656.755	0.088	1313510	keystroke	i	n/a
656.883	0.096	1313766	keystroke	n	n/a
656.971	0.096	1313942	keystroke	g	n/a
657.227	0.088	1314454	keystroke	Key.enter	n/a
657.32	14.2685	1314640	prompt	n/a	narrative mistakes cruises growing\n
657.9865	0.0965	1315973	keystroke	n	n/a
658.0995	0.112	1316199	keystroke	a	n/a
658.2755	0.0875	1316551	keystroke	r	n/a
658.4195	0.103	1316839	keystroke	r	n/a
658.539	0.184	1317078	keystroke	a	n/a
658.6985	0.1045	1317397	keystroke	t	n/a
658.8265	0.096	1317653	keystroke	i	n/a
658.9795	0.151	1317959	keystroke	v	n/a
659.0995	0.1755	1318199	keystroke	e	n/a
659.259	0.135	1318518	keystroke	Key.space	n/a
659.523	0.2	1319046	keystroke	m	n/a
659.659	0.12	1319318	keystroke	i	n/a
659.795	0.128	1319590	keystroke	s	n/a
660.0665	0.112	1320133	keystroke	t	n/a
660.3865	0.0965	1320773	keystroke	a	n/a
660.507	0.0955	1321014	keystroke	k	n/a
660.6505	0.208	1321301	keystroke	e	n/a
660.763	0.16	1321526	keystroke	s	n/a
660.9385	0.128	1321877	keystroke	Key.space	n/a
661.3785	0.1365	1322757	keystroke	c	n/a
661.6195	0.0395	1323239	keystroke	u	n/a
662.179	0.088	1324358	keystroke	=	n/a
662.307	0.096	1324614	keystroke	r	n/a
662.4755	0.0955	1324951	keystroke	u	n/a
663.1315	0.087	1326263	keystroke	i	n/a
663.4345	0.296	1326869	keystroke	s	n/a
663.675	0.183	1327350	keystroke	e	n/a
663.9315	0.16	1327863	keystroke	s	n/a
664.179	0.1115	1328358	keystroke	Key.space	n/a
664.427	0.127	1328854	keystroke	g	n/a
664.787	0.112	1329574	keystroke	r	n/a
665.043	0.0955	1330086	keystroke	i	n/a
665.4025	0.0965	1330805	keystroke	Key.backspace	n/a
665.651	0.104	1331302	keystroke	o	n/a
666.3625	0.072	1332725	keystroke	Key.backspace	n/a
666.547	0.0555	1333094	keystroke	Key.backspace	n/a
666.699	0.0715	1333398	keystroke	Key.backspace	n/a
666.8505	0.0805	1333701	keystroke	Key.backspace	n/a
667.0025	0.096	1334005	keystroke	Key.backspace	n/a
667.179	0.0715	1334358	keystroke	Key.backspace	n/a
667.3465	0.0795	1334693	keystroke	Key.backspace	n/a
667.514	0.081	1335028	keystroke	Key.backspace	n/a
667.691	0.096	1335382	keystroke	Key.backspace	n/a
667.867	0.096	1335734	keystroke	Key.backspace	n/a
668.091	0.095	1336182	keystroke	Key.backspace	n/a
668.347	0.087	1336694	keystroke	Key.backspace	n/a
668.5145	0.096	1337029	keystroke	r	n/a
668.707	0.087	1337414	keystroke	u	n/a
669.203	0.0955	1338406	keystroke	i	n/a
669.3305	0.1205	1338661	keystroke	s	n/a
669.602	0.217	1339204	keystroke	e	n/a
669.77	0.145	1339540	keystroke	s	n/a
670.0505	0.1275	1340101	keystroke	Key.space	n/a
670.427	0.112	1340854	keystroke	g	n/a
670.579	0.136	1341158	keystroke	r	n/a
670.747	0.088	1341494	keystroke	o	n/a
670.915	0.128	1341830	keystroke	w	n/a
671.035	0.1035	1342070	keystroke	i	n/a
671.187	0.0875	1342374	keystroke	n	n/a
671.2905	0.1045	1342581	keystroke	g	n/a
671.53	0.0565	1343060	keystroke	Key.enter	n/a
671.593	9.067	1343186	prompt	n/a	urge times holidays classified\n
672.2665	0.1285	1344533	keystroke	u	n/a
672.5545	0.112	1345109	keystroke	r	n/a
673.291	0.0875	1346582	keystroke	g	n/a
673.4505	0.144	1346901	keystroke	e	n/a
673.6025	0.128	1347205	keystroke	Key.space	n/a
674.0025	0.088	1348005	keystroke	t	n/a
674.0745	0.104	1348149	keystroke	i	n/a
674.2265	0.16	1348453	keystroke	m	n/a
674.283	0.1675	1348566	keystroke	e	n/a
674.3705	0.152	1348741	keystroke	s	n/a
674.4985	0.112	1348997	keystroke	Key.space	n/a
674.643	0.1115	1349286	keystroke	h	n/a
674.883	0.0875	1349766	keystroke	o	n/a
675.1945	0.2715	1350389	keystroke	l	n/a
675.362	0.129	1350724	keystroke	i	n/a
675.4825	0.1685	1350965	keystroke	d	n/a
675.69	0.209	1351380	keystroke	a	n/a
675.8905	0.104	1351781	keystroke	t	n/a
676.0825	0.144	1352165	keystroke	s	n/a
676.2425	0.096	1352485	keystroke	Key.space	n/a
676.8585	0.0795	1353717	keystroke	Key.backspace	n/a
677.0105	0.096	1354021	keystroke	Key.backspace	n/a
677.5385	0.088	1355077	keystroke	Key.backspace	n/a
677.786	0.072	1355572	keystroke	y	n/a
677.9305	0.1115	1355861	keystroke	Key.space	n/a
678.4345	0.072	1356869	keystroke	Key.backspace	n/a
678.5545	0.12	1357109	keystroke	s	n/a
678.6585	0.152	1357317	keystroke	Key.space	n/a
679.026	0.1365	1358052	keystroke	c	n/a
679.1865	0.096	1358373	keystroke	a	n/a
679.323	0.0875	1358646	keystroke	l	n/a
679.4745	0.104	1358949	keystroke	s	n/a
679.658	0.0965	1359316	keystroke	s	n/a
679.834	0.097	1359668	keystroke	i	n/a
679.9625	0.1045	1359925	keystroke	f	n/a
680.0745	0.088	1360149	keystroke	i	n/a
680.1785	0.12	1360357	keystroke	e	n/a
680.3785	0.144	1360757	keystroke	d	n/a
680.5705	0.088	1361141	keystroke	Key.enter	n/a
680.6625	8.6615	1361325	prompt	n/a	witnesses broadcasting giving sisters\n
681.387	0.104	1362774	keystroke	w	n/a
681.483	0.072	1362966	keystroke	i	n/a
681.6905	0.104	1363381	keystroke	n	n/a
682.0825	0.096	1364165	keystroke	Key.backspace	n/a
682.211	0.1035	1364422	keystroke	t	n/a
682.3945	0.096	1364789	keystroke	n	n/a
682.531	0.1595	1365062	keystroke	e	n/a
682.7625	0.0965	1365525	keystroke	s	n/a
682.963	0.0715	1365926	keystroke	s	n/a
683.179	0.2	1366358	keystroke	e	n/a
683.323	0.1515	1366646	keystroke	s	n/a
683.4425	0.128	1366885	keystroke	Key.space	n/a
683.8745	0.04	1367749	keystroke	b	n/a
684.235	0.0875	1368470	keystroke	r	n/a
684.4025	0.0885	1368805	keystroke	o	n/a
684.6185	0.096	1369237	keystroke	a	n/a
684.8265	0.12	1369653	keystroke	d	n/a
685.0905	0.16	1370181	keystroke	c	n/a
685.2665	0.128	1370533	keystroke	a	n/a
685.5225	0.192	1371045	keystroke	s	n/a
685.707	0.1195	1371414	keystroke	t	n/a
685.8425	0.096	1371685	keystroke	i	n/a
686.0025	0.08	1372005	keystroke	n	n/a
686.0905	0.104	1372181	keystroke	g	n/a
686.1705	0.08	1372341	keystroke	Key.space	n/a
686.587	0.0795	1373174	keystroke	g	n/a
686.6825	0.088	1373365	keystroke	i	n/a
686.8025	0.104	1373605	keystroke	v	n/a
687.0105	0.08	1374021	keystroke	i	n/a
687.171	0.0715	1374342	keystroke	n	n/a
687.2345	0.128	1374469	keystroke	g	n/a
687.3545	0.088	1374709	keystroke	Key.space	n/a
687.6425	0.104	1375285	keystroke	s	n/a
687.7225	0.08	1375445	keystroke	i	n/a
687.851	0.104	1375702	keystroke	s	n/a
688.4265	0.0955	1376853	keystroke	t	n/a
688.6265	0.1765	1377253	keystroke	e	n/a
688.754	0.1365	1377508	keystroke	r	n/a
688.938	0.1285	1377876	keystroke	s	n/a
689.2425	0.08	1378485	keystroke	Key.enter	n/a
689.328	6.396	1378656	prompt	n/a	waters impossible winter belt\n
689.8665	0.16	1379733	keystroke	w	n/a
690.0185	0.184	1380037	keystroke	a	n/a
690.195	0.0875	1380390	keystroke	t	n/a
690.379	0.144	1380758	keystroke	e	n/a
690.467	0.12	1380934	keystroke	r	n/a
690.6665	0.144	1381333	keystroke	s	n/a
690.8265	0.08	1381653	keystroke	Key.space	n/a
690.9225	0.096	1381845	keystroke	i	n/a
691.0745	0.08	1382149	keystroke	m	n/a
691.234	0.064	1382468	keystroke	p	n/a
691.45	0.0965	1382900	keystroke	o	n/a
691.8265	0.0875	1383653	keystroke	r	n/a
692.0025	0.104	1384005	keystroke	r	n/a
692.538	0.0885	1385076	keystroke	Key.backspace	n/a
692.7055	0.072	1385411	keystroke	Key.backspace	n/a
692.8025	0.096	1385605	keystroke	s	n/a
692.97	0.1205	1385940	keystroke	s	n/a
693.362	0.08	1386724	keystroke	i	n/a
693.5065	0.0955	1387013	keystroke	b	n/a
693.706	0.12	1387412	keystroke	l	n/a
693.85	0.128	1387700	keystroke	e	n/a
693.938	0.136	1387876	keystroke	Key.space	n/a
694.1145	0.1355	1388229	keystroke	w	n/a
694.178	0.088	1388356	keystroke	i	n/a
694.2985	0.0955	1388597	keystroke	n	n/a
694.386	0.073	1388772	keystroke	t	n/a
694.5385	0.152	1389077	keystroke	e	n/a
694.6025	0.1445	1389205	keystroke	r	n/a
694.7145	0.095	1389429	keystroke	Key.space	n/a
694.858	0.1045	1389716	keystroke	b	n/a
694.97	0.12	1389940	keystroke	e	n/a
695.1215	0.088	1390243	keystroke	l	n/a
695.2505	0.104	1390501	keystroke	t	n/a
695.6185	0.104	1391237	keystroke	Key.enter	n/a
