onset	duration	sample	value	key	prompt_text
2.653	13.8495	5306	prompt	n/a	the quick brown fox jumps over a lazy dog\n
4.4075	0.1995	8815	keystroke	t	n/a
4.5915	0.144	9183	keystroke	h	n/a
4.6075	0.2395	9215	keystroke	e	n/a
4.7985	0.209	9597	keystroke	q	n/a
5.2865	0.092	10573	keystroke	Key.backspace	n/a
5.478	0.0845	10956	keystroke	Key.space	n/a
5.6515	0.0945	11303	keystroke	q	n/a
6.672	0.141	13344	keystroke	u	n/a
6.8315	0.187	13663	keystroke	i	n/a
7.063	0.139	14126	keystroke	c	n/a
7.185	0.153	14370	keystroke	k	n/a
7.4015	0.112	14803	keystroke	Key.space	n/a
7.9945	0.1035	15989	keystroke	b	n/a
8.2095	0.1125	16419	keystroke	r	n/a
8.3135	0.096	16627	keystroke	o	n/a
8.498	0.136	16996	keystroke	n	n/a
8.61	0.2005	17220	keystroke	w	n/a
9.3145	0.079	18629	keystroke	Key.backspace	n/a
9.482	0.1035	18964	keystroke	Key.backspace	n/a
9.57	0.169	19140	keystroke	w	n/a
9.794	0.1525	19588	keystroke	n	n/a
9.971	0.103	19942	keystroke	Key.space	n/a
10.2105	0.136	20421	keystroke	f	n/a
10.3945	0.1125	20789	keystroke	o	n/a
10.514	0.217	21028	keystroke	x	n/a
10.69	0.1285	21380	keystroke	Key.space	n/a
10.907	0.103	21814	keystroke	j	n/a
11.115	0.111	22230	keystroke	u	n/a
11.346	0.153	22692	keystroke	j	n/a
11.547	0.128	23094	keystroke	p	n/a
11.9625	0.088	23925	keystroke	Key.backspace	n/a
12.1225	0.104	24245	keystroke	Key.backspace	n/a
12.707	0.104	25414	keystroke	m	n/a
13.0825	0.096	26165	keystroke	p	n/a
13.243	0.263	26486	keystroke	s	n/a
13.4265	0.1195	26853	keystroke	Key.space	n/a
13.7385	0.12	27477	keystroke	o	n/a
13.8665	0.088	27733	keystroke	v	n/a
14.0265	0.232	28053	keystroke	e	n/a
14.155	0.1515	28310	keystroke	r	n/a
14.2425	0.1515	28485	keystroke	Key.space	n/a
14.4105	0.1925	28821	keystroke	a	n/a
14.571	0.079	29142	keystroke	Key.space	n/a
14.714	0.1765	29428	keystroke	l	n/a
14.8185	0.152	29637	keystroke	a	n/a
15.074	0.1525	30148	keystroke	z	n/a
15.2105	0.0875	30421	keystroke	y	n/a
15.3705	0.08	30741	keystroke	Key.space	n/a
15.7145	0.1205	31429	keystroke	d	n/a
15.859	0.12	31718	keystroke	o	n/a
16.155	0.152	32310	keystroke	g	n/a
16.387	0.112	32774	keystroke	Key.enter	n/a
16.5095	14.4175	33019	prompt	n/a	suffered somewhat speak assumptions\n
17.3945	0.112	34789	keystroke	f	n/a
17.842	0.1125	35684	keystroke	Key.backspace	n/a
17.9875	0.16	35975	keystroke	s	n/a
18.1315	0.1275	36263	keystroke	u	n/a
18.291	0.12	36582	keystroke	f	n/a
18.475	0.1355	36950	keystroke	f	n/a
18.707	0.112	37414	keystroke	e	n/a
18.811	0.16	37622	keystroke	r	n/a
18.939	0.104	37878	keystroke	e	n/a
19.131	0.1445	38262	keystroke	e	n/a
19.3785	0.208	38757	keystroke	d	n/a
19.547	0.1035	39094	keystroke	Key.space	n/a
19.7065	0.145	39413	keystroke	s	n/a
20.067	0.1045	40134	keystroke	o	n/a
20.2275	0.1365	40455	keystroke	m	n/a
20.3715	0.136	40743	keystroke	e	n/a
20.587	0.0965	41174	keystroke	h	n/a
21.2435	0.0555	42487	keystroke	Key.backspace	n/a
21.419	0.064	42838	keystroke	Key.backspace	n/a
21.587	0.072	43174	keystroke	Key.backspace	n/a
21.748	0.063	43496	keystroke	Key.backspace	n/a
21.9075	0.0715	43815	keystroke	Key.backspace	n/a
22.0675	0.072	44135	keystroke	Key.backspace	n/a
22.2195	0.0805	44439	keystroke	Key.backspace	n/a
22.3875	0.112	44775	keystroke	Key.backspace	n/a
22.6275	0.24	45255	keystroke	d	n/a
22.7875	0.144	45575	keystroke	Key.space	n/a
23.6035	0.1365	47207	keystroke	s	n/a
23.748	0.088	47496	keystroke	o	n/a
23.908	0.1515	47816	keystroke	m	n/a
24.004	0.112	48008	keystroke	e	n/a
24.204	0.1045	48408	keystroke	w	n/a
24.3485	0.1035	48697	keystroke	h	n/a
24.54	0.048	49080	keystroke	a	n/a
24.596	0.2155	49192	keystroke	t	n/a
24.756	0.1275	49512	keystroke	Key.space	n/a
25.404	0.128	50808	keystroke	s	n/a
25.612	0.12	51224	keystroke	p	n/a
25.7	0.176	51400	keystroke	e	n/a
26.4835	0.1605	52967	keystroke	a	n/a
26.628	0.1445	53256	keystroke	k	n/a
26.8685	0.12	53737	keystroke	Key.space	n/a
27.1245	0.1435	54249	keystroke	s	n/a
27.8445	0.128	55689	keystroke	Key.backspace	n/a
27.9245	0.1515	55849	keystroke	a	n/a
28.132	0.1045	56264	keystroke	s	n/a
28.348	0.1125	56696	keystroke	s	n/a
28.4195	0.105	56839	keystroke	u	n/a
28.7725	0.16	57545	keystroke	m	n/a
29.068	0.137	58136	keystroke	p	n/a
29.4525	0.1515	58905	keystroke	t	n/a
29.5965	0.136	59193	keystroke	i	n/a
29.733	0.1755	59466	keystroke	o	n/a
30.237	0.1675	60474	keystroke	n	n/a
30.484	0.2085	60968	keystroke	s	n/a
30.6285	0.112	61257	keystroke	Key.space	n/a
30.828	0.0965	61656	keystroke	Key.enter	n/a
30.933	10.8265	61866	prompt	n/a	champions applicant sessions valley\n
31.6845	0.2	63369	keystroke	c	n/a
31.941	0.1915	63882	keystroke	a	n/a
32.293	0.1355	64586	keystroke	h	n/a
32.6285	0.088	65257	keystroke	Key.backspace	n/a
32.8045	0.088	65609	keystroke	Key.backspace	n/a
33.0205	0.112	66041	keystroke	h	n/a
33.172	0.129	66344	keystroke	a	n/a
33.4685	0.1765	66937	keystroke	m	n/a
33.7255	0.144	67451	keystroke	p	n/a
34.2855	0.159	68571	keystroke	i	n/a
34.5245	0.1845	69049	keystroke	o	n/a
34.661	0.1755	69322	keystroke	n	n/a
34.9805	0.1845	69961	keystroke	s	n/a
35.117	0.104	70234	keystroke	Key.space	n/a
35.4855	0.0955	70971	keystroke	s	n/a
36.1015	0.111	72203	keystroke	Key.backspace	n/a
36.2695	0.136	72539	keystroke	a	n/a
36.4535	0.088	72907	keystroke	p	n/a
36.6135	0.12	73227	keystroke	p	n/a
36.8535	0.136	73707	keystroke	l	n/a
36.9655	0.128	73931	keystroke	i	n/a
37.0775	0.1035	74155	keystroke	c	n/a
37.1415	0.175	74283	keystroke	a	n/a
37.389	0.096	74778	keystroke	t	n/a
37.478	0.1275	74956	keystroke	n	n/a
38.2125	0.0805	76425	keystroke	Key.backspace	n/a
38.373	0.0885	76746	keystroke	Key.backspace	n/a
38.6055	0.1125	77211	keystroke	n	n/a
38.7255	0.176	77451	keystroke	t	n/a
38.83	0.1995	77660	keystroke	Key.space	n/a
39.1495	0.136	78299	keystroke	s	n/a
39.398	0.112	78796	keystroke	e	n/a
39.6375	0.0805	79275	keystroke	s	n/a
39.7815	0.136	79563	keystroke	s	n/a
39.91	0.12	79820	keystroke	i	n/a
40.022	0.1595	80044	keystroke	o	n/a
40.0935	0.168	80187	keystroke	n	n/a
40.2695	0.2085	80539	keystroke	s	n/a
40.414	0.104	80828	keystroke	Key.space	n/a
40.63	0.184	81260	keystroke	v	n/a
40.781	0.1525	81562	keystroke	a	n/a
40.9415	0.104	81883	keystroke	l	n/a
41.1505	0.1265	82301	keystroke	l	n/a
41.261	0.129	82522	keystroke	e	n/a
41.39	0.12	82780	keystroke	y	n/a
41.526	0.104	83052	keystroke	Key.space	n/a
41.654	0.104	83308	keystroke	Key.enter	n/a
41.7635	10.798	83527	prompt	n/a	comprehensive wildlife pattern jenny\n
42.3985	0.152	84797	keystroke	c	n/a
42.5335	0.105	85067	keystroke	o	n/a
42.6465	0.2075	85293	keystroke	m	n/a
43.0295	0.1205	86059	keystroke	p	n/a
43.1825	0.1835	86365	keystroke	r	n/a
43.2865	0.128	86573	keystroke	e	n/a
43.4785	0.112	86957	keystroke	h	n/a
43.6145	0.1275	87229	keystroke	e	n/a
43.726	0.12	87452	keystroke	n	n/a
43.894	0.1365	87788	keystroke	s	n/a
44.0065	0.1115	88013	keystroke	i	n/a
44.2785	0.224	88557	keystroke	e	n/a
44.446	0.08	88892	keystroke	Key.space	n/a
44.8065	0.0875	89613	keystroke	Key.backspace	n/a
45.0065	0.088	90013	keystroke	Key.backspace	n/a
45.111	0.176	90222	keystroke	v	n/a
45.1975	0.1925	90395	keystroke	e	n/a
45.318	0.136	90636	keystroke	Key.space	n/a
45.9585	0.1925	91917	keystroke	w	n/a
46.1985	0.0725	92397	keystroke	i	n/a
46.382	0.1365	92764	keystroke	l	n/a
46.4945	0.12	92989	keystroke	d	n/a
46.679	0.168	93358	keystroke	l	n/a
46.807	0.128	93614	keystroke	i	n/a
47.111	0.2475	94222	keystroke	f	n/a
47.279	0.1995	94558	keystroke	e	n/a
47.503	0.1115	95006	keystroke	Key.space	n/a
47.975	0.12	95950	keystroke	p	n/a
48.087	0.208	96174	keystroke	a	n/a
48.4395	0.1275	96879	keystroke	r	n/a
48.951	0.1355	97902	keystroke	Key.backspace	n/a
49.0715	0.112	98143	keystroke	t	n/a
49.2945	0.105	98589	keystroke	t	n/a
49.4715	0.216	98943	keystroke	e	n/a
49.6315	0.096	99263	keystroke	r	n/a
49.7115	0.152	99423	keystroke	n	n/a
49.927	0.0875	99854	keystroke	Key.space	n/a
50.1115	0.1275	100223	keystroke	j	n/a
50.2465	0.113	100493	keystroke	e	n/a
50.6715	0.0955	101343	keystroke	Key.backspace	n/a
50.871	0.08	101742	keystroke	Key.backspace	n/a
51.44	0.144	102880	keystroke	j	n/a
51.552	0.1275	103104	keystroke	e	n/a
51.8155	0.0805	103631	keystroke	n	n/a
51.975	0.073	103950	keystroke	n	n/a
52.176	0.104	104352	keystroke	y	n/a
52.36	0.1195	104720	keystroke	Key.space	n/a
52.432	0.1275	104864	keystroke	Key.enter	n/a
52.5675	10.7405	105135	prompt	n/a	speeds talking presently occupational\n
53.176	0.1515	106352	keystroke	s	n/a
53.368	0.08	106736	keystroke	p	n/a
53.544	0.0805	107088	keystroke	p	n/a
53.6245	0.119	107249	keystroke	e	n/a
53.8155	0.081	107631	keystroke	e	n/a
54.0165	0.2155	108033	keystroke	d	n/a
54.528	0.056	109056	keystroke	Key.backspace	n/a
54.672	0.088	109344	keystroke	Key.backspace	n/a
54.84	0.0715	109680	keystroke	Key.backspace	n/a
54.9915	0.113	109983	keystroke	Key.backspace	n/a
55.1355	0.129	110271	keystroke	e	n/a
55.4885	0.136	110977	keystroke	e	n/a
55.7925	0.4485	111585	keystroke	d	n/a
55.9765	0.16	111953	keystroke	s	n/a
56.617	0.104	113234	keystroke	Key.backspace	n/a
56.817	0.167	113634	keystroke	Key.space	n/a
57.3445	0.0875	114689	keystroke	Key.backspace	n/a
57.465	0.1675	114930	keystroke	s	n/a
57.569	0.151	115138	keystroke	Key.space	n/a
57.985	0.0955	115970	keystroke	t	n/a
58.057	0.2155	116114	keystroke	a	n/a
58.153	0.1915	116306	keystroke	l	n/a
58.6175	0.112	117235	keystroke	k	n/a
58.8255	0.136	117651	keystroke	i	n/a
58.9525	0.176	117905	keystroke	n	n/a
59.121	0.1915	118242	keystroke	g	n/a
59.257	0.1355	118514	keystroke	Key.space	n/a
59.561	0.1125	119122	keystroke	p	n/a
59.6565	0.16	119313	keystroke	r	n/a
59.7605	0.113	119521	keystroke	e	n/a
59.9925	0.2005	119985	keystroke	s	n/a
60.0965	0.1685	120193	keystroke	e	n/a
60.257	0.1445	120514	keystroke	n	n/a
60.377	0.1285	120754	keystroke	t	n/a
60.5215	0.104	121043	keystroke	l	n/a
60.705	0.12	121410	keystroke	y	n/a
60.8415	0.128	121683	keystroke	Key.space	n/a
61.201	0.1125	122402	keystroke	o	n/a
61.4735	0.08	122947	keystroke	c	n/a
61.6415	0.127	123283	keystroke	c	n/a
61.753	0.1285	123506	keystroke	u	n/a
61.961	0.1365	123922	keystroke	p	n/a
62.1295	0.1195	124259	keystroke	a	n/a
62.361	0.112	124722	keystroke	t	n/a
62.4405	0.1045	124881	keystroke	i	n/a
62.529	0.184	125058	keystroke	o	n/a
62.649	0.145	125298	keystroke	n	n/a
62.7695	0.1205	125539	keystroke	a	n/a
62.898	0.1115	125796	keystroke	l	n/a
63.0415	0.1195	126083	keystroke	Key.space	n/a
63.218	0.087	126436	keystroke	Key.enter	n/a
63.3135	5.3695	126627	prompt	n/a	demo fighter grams eyed\n
64.097	0.097	128194	keystroke	d	n/a
64.297	0.136	128594	keystroke	e	n/a
64.4255	0.175	128851	keystroke	m	n/a
64.5775	0.1445	129155	keystroke	o	n/a
64.7055	0.1115	129411	keystroke	Key.space	n/a
64.9215	0.128	129843	keystroke	f	n/a
65.0415	0.16	130083	keystroke	i	n/a
65.2265	0.103	130453	keystroke	g	n/a
65.3535	0.1205	130707	keystroke	h	n/a
65.4815	0.088	130963	keystroke	t	n/a
65.6655	0.224	131331	keystroke	e	n/a
65.817	0.2	131634	keystroke	r	n/a
66.001	0.1445	132002	keystroke	Key.space	n/a
66.4415	0.0955	132883	keystroke	g	n/a
66.6255	0.1125	133251	keystroke	r	n/a
66.8255	0.168	133651	keystroke	a	n/a
67.0015	0.1675	134003	keystroke	m	n/a
67.21	0.279	134420	keystroke	s	n/a
67.409	0.12	134818	keystroke	Key.space	n/a
67.6895	0.144	135379	keystroke	e	n/a
67.8895	0.152	135779	keystroke	y	n/a
68.1935	0.1445	136387	keystroke	e	n/a
68.458	0.1275	136916	keystroke	d	n/a
68.5615	0.12	137123	keystroke	Key.enter	n/a
68.6875	10.964	137375	prompt	n/a	promotion stars spin sitemap\n
69.4105	0.127	138821	keystroke	p	n/a
69.562	0.1835	139124	keystroke	r	n/a
69.65	0.104	139300	keystroke	o	n/a
69.9695	0.112	139939	keystroke	o	n/a
70.0825	0.111	140165	keystroke	t	n/a
70.21	0.104	140420	keystroke	i	n/a
70.298	0.1605	140596	keystroke	o	n/a
70.3945	0.1755	140789	keystroke	n	n/a
70.5215	0.152	141043	keystroke	Key.space	n/a
70.714	0.136	141428	keystroke	s	n/a
70.8265	0.1275	141653	keystroke	t	n/a
70.9705	0.3035	141941	keystroke	a	n/a
71.5215	0.072	143043	keystroke	Key.backspace	n/a
71.6975	0.065	143395	keystroke	Key.backspace	n/a
71.8665	0.0635	143733	keystroke	Key.backspace	n/a
72.0185	0.0635	144037	keystroke	Key.backspace	n/a
72.179	0.071	144358	keystroke	Key.backspace	n/a
72.3375	0.072	144675	keystroke	Key.backspace	n/a
72.4975	0.088	144995	keystroke	Key.backspace	n/a
72.6745	0.0715	145349	keystroke	Key.backspace	n/a
72.8175	0.105	145635	keystroke	Key.backspace	n/a
73.443	0.119	146886	keystroke	m	n/a
73.658	0.096	147316	keystroke	o	n/a
73.8895	0.105	147779	keystroke	t	n/a
73.9625	0.1035	147925	keystroke	i	n/a
74.058	0.1925	148116	keystroke	o	n/a
74.179	0.1675	148358	keystroke	n	n/a
74.386	0.128	148772	keystroke	Key.space	n/a
74.626	0.136	149252	keystroke	s	n/a
74.77	0.136	149540	keystroke	t	n/a
74.931	0.2075	149862	keystroke	a	n/a
75.074	0.097	150148	keystroke	r	n/a
75.2985	0.0965	150597	keystroke	t	n/a
76.0255	0.1045	152051	keystroke	Key.backspace	n/a
76.1785	0.2155	152357	keystroke	s	n/a
76.362	0.12	152724	keystroke	Key.space	n/a
76.8585	0.152	153717	keystroke	s	n/a
77.034	0.1045	154068	keystroke	p	n/a
77.2585	0.232	154517	keystroke	i	n/a
77.4265	0.184	154853	keystroke	n	n/a
77.674	0.088	155348	keystroke	Key.space	n/a
78.1465	0.104	156293	keystroke	s	n/a
78.5065	0.128	157013	keystroke	i	n/a
78.6585	0.1835	157317	keystroke	t	n/a
78.7865	0.176	157573	keystroke	e	n/a
78.9705	0.152	157941	keystroke	m	n/a
79.1465	0.1365	158293	keystroke	a	n/a
79.2585	0.111	158517	keystroke	p	n/a
79.442	0.112	158884	keystroke	Key.space	n/a
79.562	0.0875	159124	keystroke	Key.enter	n/a
79.667	6.2895	159334	prompt	n/a	detect evolution audit hughes\n
80.2585	0.0875	160517	keystroke	d	n/a
80.4345	0.1205	160869	keystroke	e	n/a
80.794	0.161	161588	keystroke	t	n/a
80.979	0.135	161958	keystroke	e	n/a
81.1865	0.088	162373	keystroke	c	n/a
81.395	0.175	162790	keystroke	t	n/a
81.53	0.1365	163060	keystroke	Key.space	n/a
81.722	0.1365	163444	keystroke	e	n/a
82.051	0.136	164102	keystroke	v	n/a
82.291	0.088	164582	keystroke	o	n/a
82.499	0.104	164998	keystroke	l	n/a
82.667	0.104	165334	keystroke	u	n/a
82.867	0.119	165734	keystroke	t	n/a
82.955	0.104	165910	keystroke	i	n/a
83.035	0.2	166070	keystroke	o	n/a
83.155	0.144	166310	keystroke	n	n/a
83.41	0.1125	166820	keystroke	Key.space	n/a
83.8025	0.136	167605	keystroke	a	n/a
83.9945	0.112	167989	keystroke	u	n/a
84.1225	0.112	168245	keystroke	d	n/a
84.2585	0.1205	168517	keystroke	i	n/a
84.426	0.193	168852	keystroke	t	n/a
84.595	0.12	169190	keystroke	Key.space	n/a
84.867	0.0875	169734	keystroke	h	n/a
85.083	0.0955	170166	keystroke	u	n/a
85.211	0.1115	170422	keystroke	g	n/a
85.3465	0.088	170693	keystroke	h	n/a
85.5305	0.216	171061	keystroke	e	n/a
85.6425	0.2165	171285	keystroke	s	n/a
85.8505	0.1045	171701	keystroke	Key.enter	n/a
85.96	7.3485	171920	prompt	n/a	lover comfort supplier divide\n
86.6665	0.112	173333	keystroke	l	n/a
86.883	0.104	173766	keystroke	o	n/a
86.995	0.16	173990	keystroke	v	n/a
87.0985	0.152	174197	keystroke	e	n/a
87.4105	0.2245	174821	keystroke	r	n/a
88.0665	0.12	176133	keystroke	Key.space	n/a
88.395	0.0795	176790	keystroke	c	n/a
88.4675	0.0945	176935	keystroke	o	n/a
88.5955	0.1755	177191	keystroke	m	n/a
88.827	0.1355	177654	keystroke	f	n/a
89.3795	0.1435	178759	keystroke	o	n/a
89.571	0.096	179142	keystroke	r	n/a
89.803	0.144	179606	keystroke	t	n/a
89.995	0.128	179990	keystroke	Key.space	n/a
90.2755	0.1445	180551	keystroke	s	n/a
90.428	0.095	180856	keystroke	u	n/a
90.611	0.072	181222	keystroke	p	n/a
90.755	0.112	181510	keystroke	p	n/a
91.003	0.136	182006	keystroke	l	n/a
91.107	0.136	182214	keystroke	i	n/a
91.243	0.232	182486	keystroke	e	n/a
91.3875	0.1915	182775	keystroke	r	n/a
91.531	0.136	183062	keystroke	Key.space	n/a
92.163	0.1365	184326	keystroke	d	n/a
92.323	0.1125	184646	keystroke	i	n/a
92.4755	0.127	184951	keystroke	v	n/a
92.6355	0.104	185271	keystroke	i	n/a
92.7865	0.08	185573	keystroke	d	n/a
92.979	0.168	185958	keystroke	e	n/a
93.0995	0.103	186199	keystroke	Key.space	n/a
93.2345	0.0725	186469	keystroke	Key.enter	n/a
93.3125	9.436	186625	prompt	n/a	plastics mild xbox oxide\n
94.2675	0.1115	188535	keystroke	p	n/a
94.539	0.12	189078	keystroke	l	n/a
94.7235	0.1435	189447	keystroke	a	n/a
94.8355	0.2315	189671	keystroke	s	n/a
95.0515	0.152	190103	keystroke	t	n/a
95.2265	0.12	190453	keystroke	i	n/a
95.4185	0.152	190837	keystroke	c	n/a
95.563	0.2235	191126	keystroke	s	n/a
95.739	0.1275	191478	keystroke	Key.space	n/a
96.2035	0.1515	192407	keystroke	m	n/a
96.3385	0.088	192677	keystroke	i	n/a
96.4505	0.1205	192901	keystroke	d	n/a
96.587	0.1285	193174	keystroke	l	n/a
96.795	0.112	193590	keystroke	Key.space	n/a
97.3945	0.08	194789	keystroke	Key.backspace	n/a
97.563	0.0715	195126	keystroke	Key.backspace	n/a
97.7305	0.0885	195461	keystroke	Key.backspace	n/a
97.9785	0.1125	195957	keystroke	l	n/a
98.0915	0.2235	196183	keystroke	d	n/a
98.259	0.1115	196518	keystroke	Key.space	n/a
98.675	0.1355	197350	keystroke	x	n/a
99.0505	0.121	198101	keystroke	b	n/a
99.2265	0.089	198453	keystroke	o	n/a
99.3715	0.176	198743	keystroke	x	n/a
99.5625	0.12	199125	keystroke	Key.space	n/a
99.923	0.104	199846	keystroke	o	n/a
101.787	0.152	203574	keystroke	x	n/a
102.0035	0.0955	204007	keystroke	i	n/a
102.131	0.1125	204262	keystroke	d	n/a
102.3465	0.185	204693	keystroke	e	n/a
102.651	0.0955	205302	keystroke	Key.enter	n/a
102.752	8.092	205504	prompt	n/a	tours approved worst conversations\n
103.7465	0.1285	207493	keystroke	t	n/a
103.875	0.16	207750	keystroke	o	n/a
103.9715	0.1595	207943	keystroke	u	n/a
104.067	0.103	208134	keystroke	r	n/a
104.299	0.183	208598	keystroke	s	n/a
104.442	0.1685	208884	keystroke	Key.space	n/a
104.7305	0.1045	209461	keystroke	a	n/a
104.819	0.0795	209638	keystroke	p	n/a
104.9945	0.12	209989	keystroke	p	n/a
105.811	0.136	211622	keystroke	r	n/a
106.123	0.1355	212246	keystroke	o	n/a
106.307	0.112	212614	keystroke	v	n/a
106.515	0.088	213030	keystroke	e	n/a
106.723	0.2	213446	keystroke	d	n/a
106.866	0.112	213732	keystroke	Key.space	n/a
107.083	0.12	214166	keystroke	w	n/a
107.211	0.119	214422	keystroke	o	n/a
107.315	0.128	214630	keystroke	r	n/a
107.547	0.2475	215094	keystroke	s	n/a
107.675	0.192	215350	keystroke	e	n/a
107.811	0.104	215622	keystroke	Key.space	n/a
108.067	0.135	216134	keystroke	c	n/a
108.194	0.16	216388	keystroke	o	n/a
108.2985	0.1595	216597	keystroke	n	n/a
108.45	0.1045	216900	keystroke	v	n/a
108.6425	0.1765	217285	keystroke	e	n/a
108.7545	0.1285	217509	keystroke	r	n/a
109.019	0.072	218038	keystroke	s	n/a
109.6505	0.1115	219301	keystroke	Key.backspace	n/a
109.7065	0.1915	219413	keystroke	s	n/a
109.842	0.112	219684	keystroke	a	n/a
110.034	0.1045	220068	keystroke	t	n/a
110.0985	0.072	220197	keystroke	i	n/a
110.139	0.1835	220278	keystroke	o	n/a
110.2665	0.143	220533	keystroke	n	n/a
110.5625	0.168	221125	keystroke	s	n/a
110.666	0.1285	221332	keystroke	Key.space	n/a
110.7465	0.096	221493	keystroke	Key.enter	n/a
110.849	16.355	221698	prompt	n/a	indicates consultant employer league\n
111.482	0.1045	222964	keystroke	i	n/a
111.6105	0.144	223221	keystroke	n	n/a
111.7225	0.136	223445	keystroke	d	n/a
111.8585	0.096	223717	keystroke	i	n/a
111.9785	0.104	223957	keystroke	c	n/a
112.1225	0.1755	224245	keystroke	a	n/a
112.275	0.119	224550	keystroke	t	n/a
113.242	0.312	226484	keystroke	e	n/a
113.418	0.2165	226836	keystroke	s	n/a
113.666	0.1365	227332	keystroke	Key.space	n/a
114.2505	0.16	228501	keystroke	c	n/a
114.3625	0.152	228725	keystroke	o	n/a
114.4505	0.152	228901	keystroke	n	n/a
114.5705	0.152	229141	keystroke	s	n/a
114.7385	0.1035	229477	keystroke	u	n/a
114.938	0.12	229876	keystroke	l	n/a
115.0905	0.1115	230181	keystroke	t	n/a
115.282	0.12	230564	keystroke	a	n/a
115.3945	0.1115	230789	keystroke	n	n/a
115.5305	0.1595	231061	keystroke	t	n/a
115.65	0.136	231300	keystroke	Key.space	n/a
115.9455	0.145	231891	keystroke	e	n/a
116.2105	0.176	232421	keystroke	m	n/a
116.4745	0.104	232949	keystroke	p	n/a
116.898	0.1125	233796	keystroke	o	n/a
117.13	0.0965	234260	keystroke	l	n/a
117.442	0.1195	234884	keystroke	y	n/a
117.6025	0.288	235205	keystroke	e	n/a
117.7625	0.2155	235525	keystroke	r	n/a
117.938	0.144	235876	keystroke	Key.space	n/a
118.586	0.1285	237172	keystroke	l	n/a
120.8095	0.1845	241619	keystroke	e	n/a
121.61	0.0955	243220	keystroke	Key.backspace	n/a
121.786	0.0795	243572	keystroke	Key.backspace	n/a
121.954	0.072	243908	keystroke	Key.backspace	n/a
122.1135	0.0725	244227	keystroke	Key.backspace	n/a
122.2735	0.0725	244547	keystroke	Key.backspace	n/a
122.425	0.089	244850	keystroke	Key.backspace	n/a
122.594	0.08	245188	keystroke	Key.backspace	n/a
122.754	0.096	245508	keystroke	Key.backspace	n/a
123.642	0.08	247284	keystroke	l	n/a
123.898	0.088	247796	keystroke	o	n/a
124.13	0.096	248260	keystroke	y	n/a
124.306	0.296	248612	keystroke	e	n/a
124.466	0.208	248932	keystroke	r	n/a
124.634	0.143	249268	keystroke	Key.space	n/a
125.082	0.104	250164	keystroke	l	n/a
125.194	0.168	250388	keystroke	e	n/a
125.3545	0.16	250709	keystroke	a	n/a
125.938	0.152	251876	keystroke	g	n/a
126.122	0.104	252244	keystroke	u	n/a
126.266	0.168	252532	keystroke	e	n/a
126.602	0.104	253204	keystroke	Key.space	n/a
127.058	0.1435	254116	keystroke	Key.enter	n/a
127.209	12.603	254418	prompt	n/a	belkin hours substantial failures\n
128.098	0.144	256196	keystroke	b	n/a
128.5225	0.2	257045	keystroke	e	n/a
128.7465	0.143	257493	keystroke	l	n/a
129.1455	0.112	258291	keystroke	i	n/a
129.298	0.1835	258596	keystroke	n	n/a
129.4895	0.136	258979	keystroke	Key.space	n/a
129.6335	0.112	259267	keystroke	h	n/a
129.8025	0.1355	259605	keystroke	o	n/a
129.866	0.167	259732	keystroke	u	n/a
130.034	0.112	260068	keystroke	r	n/a
130.33	0.2085	260660	keystroke	s	n/a
130.7295	0.08	261459	keystroke	Key.backspace	n/a
130.9055	0.072	261811	keystroke	Key.backspace	n/a
131.082	0.0635	262164	keystroke	Key.backspace	n/a
131.2415	0.0565	262483	keystroke	Key.backspace	n/a
131.3935	0.064	262787	keystroke	Key.backspace	n/a
131.5535	0.0725	263107	keystroke	Key.backspace	n/a
131.714	0.064	263428	keystroke	Key.backspace	n/a
131.865	0.0885	263730	keystroke	Key.backspace	n/a
132.8735	0.0715	265747	keystroke	k	n/a
133.0815	0.0805	266163	keystroke	i	n/a
133.233	0.144	266466	keystroke	n	n/a
133.513	0.12	267026	keystroke	Key.space	n/a
133.834	0.103	267668	keystroke	h	n/a
134.0095	0.136	268019	keystroke	o	n/a
134.0735	0.144	268147	keystroke	u	n/a
134.2335	0.128	268467	keystroke	r	n/a
134.482	0.24	268964	keystroke	s	n/a
134.649	0.128	269298	keystroke	Key.space	n/a
135.2095	0.168	270419	keystroke	s	n/a
135.545	0.104	271090	keystroke	u	n/a
135.769	0.121	271538	keystroke	b	n/a
136.081	0.12	272162	keystroke	s	n/a
136.361	0.1685	272722	keystroke	t	n/a
136.5775	0.1835	273155	keystroke	a	n/a
136.753	0.1205	273506	keystroke	n	n/a
136.9455	0.136	273891	keystroke	t	n/a
137.065	0.128	274130	keystroke	i	n/a
137.241	0.144	274482	keystroke	a	n/a
137.386	0.127	274772	keystroke	l	n/a
137.5615	0.128	275123	keystroke	Key.space	n/a
138.1455	0.1835	276291	keystroke	f	n/a
138.362	0.1595	276724	keystroke	a	n/a
138.5055	0.08	277011	keystroke	i	n/a
138.6575	0.144	277315	keystroke	l	n/a
138.8975	0.128	277795	keystroke	u	n/a
139.1455	0.1435	278291	keystroke	r	n/a
139.2815	0.3115	278563	keystroke	e	n/a
139.433	0.2245	278866	keystroke	s	n/a
139.689	0.1205	279378	keystroke	Key.enter	n/a
139.821	7.7575	279642	prompt	n/a	architects workflow doubt divorce\n
140.5775	0.168	281155	keystroke	a	n/a
140.818	0.143	281636	keystroke	r	n/a
141.138	0.127	282276	keystroke	c	n/a
141.321	0.136	282642	keystroke	h	n/a
141.4495	0.128	282899	keystroke	i	n/a
141.649	0.1915	283298	keystroke	t	n/a
141.8175	0.1515	283635	keystroke	e	n/a
142.089	0.065	284178	keystroke	c	n/a
142.2575	0.1275	284515	keystroke	t	n/a
142.4975	0.216	284995	keystroke	s	n/a
142.6575	0.127	285315	keystroke	Key.space	n/a
143.105	0.104	286210	keystroke	w	n/a
143.2165	0.0805	286433	keystroke	o	n/a
143.3135	0.1045	286627	keystroke	r	n/a
143.4415	0.1445	286883	keystroke	k	n/a
143.6175	0.1675	287235	keystroke	f	n/a
143.873	0.0725	287746	keystroke	l	n/a
144.049	0.12	288098	keystroke	o	n/a
144.257	0.1605	288514	keystroke	w	n/a
144.577	0.136	289154	keystroke	Key.space	n/a
144.969	0.153	289938	keystroke	d	n/a
145.089	0.16	290178	keystroke	o	n/a
145.186	0.151	290372	keystroke	u	n/a
145.321	0.104	290642	keystroke	b	n/a
145.714	0.1665	291428	keystroke	t	n/a
145.849	0.1365	291698	keystroke	Key.space	n/a
146.2975	0.1195	292595	keystroke	d	n/a
146.473	0.104	292946	keystroke	i	n/a
146.5935	0.1275	293187	keystroke	v	n/a
146.8335	0.1115	293667	keystroke	o	n/a
146.953	0.08	293906	keystroke	r	n/a
147.217	0.1925	294434	keystroke	c	n/a
147.3055	0.175	294611	keystroke	e	n/a
147.4965	0.0795	294993	keystroke	Key.enter	n/a
147.582	8.6765	295164	prompt	n/a	breeds muslim boat dressing\n
148.337	0.095	296674	keystroke	b	n/a
148.641	0.2085	297282	keystroke	r	n/a
148.8815	0.1275	297763	keystroke	e	n/a
149.1615	0.0955	298323	keystroke	e	n/a
149.401	0.312	298802	keystroke	d	n/a
149.553	0.1685	299106	keystroke	s	n/a
149.665	0.144	299330	keystroke	Key.space	n/a
149.985	0.088	299970	keystroke	m	n/a
150.177	0.104	300354	keystroke	u	n/a
150.3925	0.1205	300785	keystroke	l	n/a
152.057	0.0955	304114	keystroke	Key.backspace	n/a
152.2245	0.144	304449	keystroke	s	n/a
152.505	0.12	305010	keystroke	l	n/a
152.713	0.096	305426	keystroke	i	n/a
152.889	0.144	305778	keystroke	m	n/a
153.1205	0.104	306241	keystroke	Key.space	n/a
153.4725	0.129	306945	keystroke	b	n/a
153.793	0.104	307586	keystroke	o	n/a
153.937	0.207	307874	keystroke	a	n/a
154.104	0.185	308208	keystroke	t	n/a
154.433	0.111	308866	keystroke	Key.space	n/a
154.872	0.104	309744	keystroke	d	n/a
155.08	0.185	310160	keystroke	r	n/a
155.2085	0.128	310417	keystroke	e	n/a
155.456	0.08	310912	keystroke	s	n/a
155.6245	0.1035	311249	keystroke	s	n/a
155.713	0.096	311426	keystroke	i	n/a
155.8645	0.1525	311729	keystroke	n	n/a
155.9365	0.1445	311873	keystroke	g	n/a
156.1605	0.096	312321	keystroke	Key.enter	n/a
156.2645	14.657	312529	prompt	n/a	egyptian difficulties fundraising several\n
157.1285	0.176	314257	keystroke	e	n/a
157.6485	0.1605	315297	keystroke	y	n/a
158.3365	0.1275	316673	keystroke	Key.backspace	n/a
158.5365	0.12	317073	keystroke	g	n/a
158.761	0.152	317522	keystroke	y	n/a
159.465	0.1035	318930	keystroke	p	n/a
159.824	0.1205	319648	keystroke	t	n/a
159.9365	0.1285	319873	keystroke	i	n/a
160.1045	0.168	320209	keystroke	o	n/a
160.6645	0.088	321329	keystroke	Key.backspace	n/a
160.841	0.119	321682	keystroke	a	n/a
160.976	0.104	321952	keystroke	n	n/a
161.184	0.088	322368	keystroke	Key.space	n/a
161.3525	0.144	322705	keystroke	d	n/a
161.504	0.112	323008	keystroke	i	n/a
161.656	0.1115	323312	keystroke	f	n/a
161.8565	0.112	323713	keystroke	f	n/a
163.2325	0.104	326465	keystroke	i	n/a
163.528	0.1605	327056	keystroke	c	n/a
163.7205	0.0795	327441	keystroke	u	n/a
163.9435	0.105	327887	keystroke	l	n/a
164.1765	0.128	328353	keystroke	t	n/a
164.3125	0.087	328625	keystroke	i	n/a
164.4475	0.273	328895	keystroke	e	n/a
164.6	0.2645	329200	keystroke	s	n/a
164.872	0.1035	329744	keystroke	Key.space	n/a
165.3445	0.184	330689	keystroke	f	n/a
165.5205	0.064	331041	keystroke	u	n/a
165.7045	0.112	331409	keystroke	n	n/a
165.7845	0.144	331569	keystroke	d	n/a
166.0885	0.1435	332177	keystroke	r	n/a
166.3845	0.1435	332769	keystroke	a	n/a
166.5445	0.0955	333089	keystroke	i	n/a
167.0795	0.12	334159	keystroke	s	n/a
167.208	0.0875	334416	keystroke	i	n/a
167.3835	0.129	334767	keystroke	n	n/a
167.4955	0.12	334991	keystroke	g	n/a
167.7195	0.1125	335439	keystroke	Key.space	n/a
169.0155	0.1525	338031	keystroke	a	n/a
169.4075	0.1125	338815	keystroke	Key.backspace	n/a
169.536	0.1525	339072	keystroke	s	n/a
169.624	0.1515	339248	keystroke	e	n/a
169.92	0.1035	339840	keystroke	v	n/a
170.1195	0.168	340239	keystroke	e	n/a
170.2155	0.16	340431	keystroke	r	n/a
170.3835	0.1765	340767	keystroke	a	n/a
170.5435	0.0885	341087	keystroke	l	n/a
170.672	0.1035	341344	keystroke	Key.space	n/a
170.824	0.0955	341648	keystroke	Key.enter	n/a
170.927	6.3945	341854	prompt	n/a	within gauge funny consistent\n
171.6955	0.104	343391	keystroke	w	n/a
171.8005	0.119	343601	keystroke	i	n/a
171.9515	0.12	343903	keystroke	t	n/a
172.0475	0.096	344095	keystroke	h	n/a
172.1435	0.104	344287	keystroke	i	n/a
172.3115	0.176	344623	keystroke	n	n/a
172.5435	0.1125	345087	keystroke	Key.space	n/a
173.0075	0.168	346015	keystroke	g	n/a
173.1835	0.168	346367	keystroke	a	n/a
173.3835	0.136	346767	keystroke	u	n/a
173.5915	0.168	347183	keystroke	g	n/a
173.7355	0.248	347471	keystroke	e	n/a
173.9275	0.112	347855	keystroke	Key.space	n/a
174.16	0.1435	348320	keystroke	f	n/a
174.2795	0.096	348559	keystroke	u	n/a
174.5035	0.088	349007	keystroke	n	n/a
174.6635	0.088	349327	keystroke	n	n/a
174.8715	0.096	349743	keystroke	y	n/a
175.0795	0.136	350159	keystroke	Key.space	n/a
175.6475	0.128	351295	keystroke	c	n/a
175.7915	0.176	351583	keystroke	o	n/a
175.9195	0.144	351839	keystroke	n	n/a
176.0795	0.104	352159	keystroke	s	n/a
176.1915	0.08	352383	keystroke	i	n/a
176.3595	0.176	352719	keystroke	s	n/a
176.5035	0.208	353007	keystroke	t	n/a
176.6395	0.176	353279	keystroke	e	n/a
176.784	0.1275	353568	keystroke	n	n/a
176.9355	0.176	353871	keystroke	t	n/a
177.0635	0.12	354127	keystroke	Key.space	n/a
177.2155	0.104	354431	keystroke	Key.enter	n/a
177.328	10.3935	354656	prompt	n/a	entitled football script wages\n
178.1675	0.1515	356335	keystroke	e	n/a
178.343	0.128	356686	keystroke	n	n/a
178.487	0.1285	356974	keystroke	t	n/a
178.9835	0.12	357967	keystroke	i	n/a
179.5835	0.16	359167	keystroke	t	n/a
179.7995	0.144	359599	keystroke	l	n/a
179.9675	0.112	359935	keystroke	e	n/a
180.224	0.1755	360448	keystroke	d	n/a
180.4075	0.088	360815	keystroke	Key.space	n/a
180.9355	0.1845	361871	keystroke	f	n/a
181.1435	0.088	362287	keystroke	o	n/a
181.3355	0.104	362671	keystroke	o	n/a
181.5355	0.1755	363071	keystroke	t	n/a
181.9115	0.192	363823	keystroke	b	n/a
182.0635	0.192	364127	keystroke	a	n/a
182.287	0.0965	364574	keystroke	l	n/a
182.4795	0.128	364959	keystroke	l	n/a
182.6305	0.12	365261	keystroke	Key.space	n/a
182.9835	0.0955	365967	keystroke	s	n/a
183.175	0.0725	366350	keystroke	c	n/a
183.3515	0.128	366703	keystroke	r	n/a
183.887	0.088	367774	keystroke	o	n/a
184.1995	0.1285	368399	keystroke	p	n/a
184.735	0.0885	369470	keystroke	Key.backspace	n/a
184.919	0.0965	369838	keystroke	Key.backspace	n/a
185.4875	0.1125	370975	keystroke	i	n/a
185.7035	0.112	371407	keystroke	p	n/a
185.8875	0.128	371775	keystroke	t	n/a
186.1675	0.12	372335	keystroke	Key.space	n/a
186.6795	0.16	373359	keystroke	w	n/a
186.8875	0.176	373775	keystroke	a	n/a
187.144	0.2	374288	keystroke	g	n/a
187.2475	0.264	374495	keystroke	e	n/a
187.351	0.217	374702	keystroke	s	n/a
187.6155	0.1035	375231	keystroke	Key.enter	n/a
187.7265	10.293	375453	prompt	n/a	broadway hours troy bearing\n
188.448	0.1115	376896	keystroke	b	n/a
188.9115	0.127	377823	keystroke	r	n/a
189.1275	0.1195	378255	keystroke	o	n/a
189.2715	0.128	378543	keystroke	a	n/a
189.471	0.096	378942	keystroke	d	n/a
189.679	0.2085	379358	keystroke	w	n/a
189.8395	0.1285	379679	keystroke	a	n/a
189.975	0.104	379950	keystroke	y	n/a
190.1195	0.1115	380239	keystroke	Key.space	n/a
190.279	0.088	380558	keystroke	h	n/a
190.4475	0.135	380895	keystroke	o	n/a
190.5195	0.167	381039	keystroke	u	n/a
190.719	0.1365	381438	keystroke	r	n/a
193.159	0.2325	386318	keystroke	s	n/a
193.8395	0.1115	387679	keystroke	Key.space	n/a
195.1195	0.1195	390239	keystroke	t	n/a
195.327	0.104	390654	keystroke	r	n/a
195.447	0.096	390894	keystroke	o	n/a
195.663	0.1205	391326	keystroke	y	n/a
196.663	0.1275	393326	keystroke	Key.space	n/a
196.994	0.081	393988	keystroke	b	n/a
197.1705	0.2475	394341	keystroke	e	n/a
197.306	0.167	394612	keystroke	a	n/a
197.385	0.1595	394770	keystroke	r	n/a
197.5295	0.0875	395059	keystroke	i	n/a
197.6585	0.1275	395317	keystroke	n	n/a
197.7385	0.1265	395477	keystroke	g	n/a
197.9295	0.0875	395859	keystroke	Key.enter	n/a
198.0275	12.376	396055	prompt	n/a	boxes excerpt simple indicators\n
198.8175	0.113	397635	keystroke	b	n/a
199.01	0.1595	398020	keystroke	o	n/a
199.1535	0.1285	398307	keystroke	x	n/a
199.386	0.12	398772	keystroke	e	n/a
199.594	0.217	399188	keystroke	s	n/a
199.7775	0.1205	399555	keystroke	Key.space	n/a
200.194	0.096	400388	keystroke	e	n/a
200.4335	0.088	400867	keystroke	x	n/a
201.058	0.2085	402116	keystroke	c	n/a
201.194	0.176	402388	keystroke	e	n/a
201.634	0.168	403268	keystroke	r	n/a
201.93	0.1275	403860	keystroke	p	n/a
202.082	0.128	404164	keystroke	t	n/a
202.298	0.1355	404596	keystroke	Key.space	n/a
202.722	0.1115	405444	keystroke	i	n/a
202.794	0.2235	405588	keystroke	s	n/a
203.2655	0.0805	406531	keystroke	Key.backspace	n/a
203.4335	0.0795	406867	keystroke	Key.backspace	n/a
203.474	0.167	406948	keystroke	s	n/a
203.6895	0.0965	407379	keystroke	i	n/a
204.009	0.128	408018	keystroke	p	n/a
204.5055	0.0965	409011	keystroke	Key.backspace	n/a
204.7455	0.12	409491	keystroke	m	n/a
205.49	0.072	410980	keystroke	p	n/a
205.698	0.072	411396	keystroke	l	n/a
205.873	0.2165	411746	keystroke	e	n/a
206.073	0.0965	412146	keystroke	Key.space	n/a
206.338	0.072	412676	keystroke	i	n/a
206.457	0.153	412914	keystroke	n	n/a
206.578	0.1275	413156	keystroke	d	n/a
206.761	0.112	413522	keystroke	o	n/a
207.354	0.16	414708	keystroke	c	n/a
207.4895	0.128	414979	keystroke	a	n/a
207.7305	0.079	415461	keystroke	t	n/a
208.0095	0.0725	416019	keystroke	Key.backspace	n/a
208.1855	0.08	416371	keystroke	Key.backspace	n/a
208.3615	0.08	416723	keystroke	Key.backspace	n/a
208.537	0.1045	417074	keystroke	Key.backspace	n/a
208.8815	0.08	417763	keystroke	i	n/a
209.017	0.2005	418034	keystroke	c	n/a
209.1855	0.152	418371	keystroke	a	n/a
209.4975	0.12	418995	keystroke	t	n/a
209.6415	0.08	419283	keystroke	o	n/a
209.754	0.1035	419508	keystroke	r	n/a
209.9935	0.2	419987	keystroke	s	n/a
210.1455	0.12	420291	keystroke	Key.space	n/a
210.3295	0.072	420659	keystroke	Key.enter	n/a
210.408	6.5225	420816	prompt	n/a	linda left engage shipment\n
211.1135	0.144	422227	keystroke	l	n/a
211.2175	0.112	422435	keystroke	i	n/a
211.3375	0.144	422675	keystroke	n	n/a
211.4655	0.2	422931	keystroke	d	n/a
211.5855	0.184	423171	keystroke	a	n/a
211.762	0.1275	423524	keystroke	Key.space	n/a
212.0575	0.145	424115	keystroke	l	n/a
212.2415	0.12	424483	keystroke	e	n/a
212.4245	0.1205	424849	keystroke	f	n/a
212.658	0.1905	425316	keystroke	t	n/a
212.809	0.128	425618	keystroke	Key.space	n/a
213.8405	0.1445	427681	keystroke	e	n/a
214.009	0.112	428018	keystroke	n	n/a
214.129	0.112	428258	keystroke	g	n/a
214.2645	0.2	428529	keystroke	a	n/a
214.4575	0.2315	428915	keystroke	g	n/a
214.577	0.256	429154	keystroke	e	n/a
214.841	0.088	429682	keystroke	Key.space	n/a
215.5125	0.1365	431025	keystroke	s	n/a
215.6005	0.105	431201	keystroke	h	n/a
215.721	0.128	431442	keystroke	i	n/a
215.9045	0.144	431809	keystroke	p	n/a
216.1365	0.128	432273	keystroke	m	n/a
216.2965	0.112	432593	keystroke	e	n/a
216.3925	0.0885	432785	keystroke	n	n/a
216.536	0.193	433072	keystroke	t	n/a
216.688	0.104	433376	keystroke	Key.space	n/a
216.808	0.121	433616	keystroke	Key.enter	n/a
216.9335	9.9815	433867	prompt	n/a	carries responses bookings covers\n
217.785	0.152	435570	keystroke	c	n/a
217.961	0.144	435922	keystroke	a	n/a
218.169	0.088	436338	keystroke	r	n/a
218.329	0.12	436658	keystroke	r	n/a
218.481	0.128	436962	keystroke	i	n/a
218.569	0.312	437138	keystroke	e	n/a
218.713	0.232	437426	keystroke	s	n/a
218.921	0.119	437842	keystroke	Key.space	n/a
219.489	0.184	438978	keystroke	r	n/a
219.609	0.12	439218	keystroke	e	n/a
219.825	0.144	439650	keystroke	s	n/a
220.041	0.096	440082	keystroke	p	n/a
220.2085	0.201	440417	keystroke	o	n/a
220.337	0.1845	440674	keystroke	n	n/a
220.5375	0.143	441075	keystroke	s	n/a
220.697	0.1915	441394	keystroke	e	n/a
220.8565	0.2085	441713	keystroke	s	n/a
221.0245	0.128	442049	keystroke	Key.space	n/a
221.385	0.112	442770	keystroke	b	n/a
221.5045	0.1045	443009	keystroke	l	n/a
221.737	0.08	443474	keystroke	o	n/a
221.913	0.088	443826	keystroke	o	n/a
222.137	0.104	444274	keystroke	k	n/a
222.457	0.072	444914	keystroke	Key.backspace	n/a
222.625	0.08	445250	keystroke	Key.backspace	n/a
222.792	0.0805	445584	keystroke	Key.backspace	n/a
222.9445	0.096	445889	keystroke	Key.backspace	n/a
223.7845	0.088	447569	keystroke	o	n/a
223.9765	0.1035	447953	keystroke	o	n/a
224.201	0.1115	448402	keystroke	k	n/a
224.4245	0.088	448849	keystroke	i	n/a
224.5845	0.152	449169	keystroke	n	n/a
224.7125	0.104	449425	keystroke	g	n/a
224.8725	0.232	449745	keystroke	s	n/a
225.049	0.1275	450098	keystroke	Key.space	n/a
225.657	0.128	451314	keystroke	c	n/a
225.816	0.113	451632	keystroke	o	n/a
225.952	0.0805	451904	keystroke	v	n/a
226.1125	0.2	452225	keystroke	e	n/a
226.2325	0.136	452465	keystroke	r	n/a
226.4805	0.176	452961	keystroke	s	n/a
226.608	0.1115	453216	keystroke	Key.space	n/a
226.832	0.0805	453664	keystroke	Key.enter	n/a
226.9205	12.1775	453841	prompt	n/a	capital techniques burlington generous\n
227.6645	0.1755	455329	keystroke	c	n/a
227.776	0.1765	455552	keystroke	a	n/a
227.9445	0.1525	455889	keystroke	p	n/a
228.608	0.136	457216	keystroke	i	n/a
228.768	0.1765	457536	keystroke	t	n/a
228.953	0.175	457906	keystroke	a	n/a
229.1205	0.144	458241	keystroke	l	n/a
229.3275	0.137	458655	keystroke	Key.space	n/a
229.7925	0.1915	459585	keystroke	t	n/a
229.968	0.145	459936	keystroke	e	n/a
230.232	0.0965	460464	keystroke	c	n/a
230.3845	0.104	460769	keystroke	h	n/a
230.633	0.144	461266	keystroke	n	n/a
230.792	0.113	461584	keystroke	i	n/a
231.216	0.12	462432	keystroke	q	n/a
231.36	0.104	462720	keystroke	u	n/a
231.504	0.2965	463008	keystroke	e	n/a
231.6325	0.2315	463265	keystroke	s	n/a
232.1205	0.1195	464241	keystroke	Key.space	n/a
232.6885	0.1675	465377	keystroke	b	n/a
232.984	0.1125	465968	keystroke	u	n/a
233.176	0.1525	466352	keystroke	r	n/a
233.3285	0.1115	466657	keystroke	l	n/a
233.5045	0.104	467009	keystroke	i	n/a
233.6565	0.144	467313	keystroke	n	n/a
233.8565	0.136	467713	keystroke	g	n/a
234.1925	0.12	468385	keystroke	t	n/a
234.352	0.16	468704	keystroke	o	n/a
234.488	0.1525	468976	keystroke	n	n/a
234.6565	0.144	469313	keystroke	Key.space	n/a
234.9285	0.1515	469857	keystroke	g	n/a
235.024	0.1685	470048	keystroke	e	n/a
237.6715	0.105	475343	keystroke	n	n/a
237.92	0.2475	475840	keystroke	e	n/a
238.0565	0.144	476113	keystroke	r	n/a
238.336	0.216	476672	keystroke	o	n/a
238.448	0.1685	476896	keystroke	u	n/a
238.624	0.2395	477248	keystroke	s	n/a
238.832	0.0955	477664	keystroke	Key.space	n/a
239.016	0.0795	478032	keystroke	Key.enter	n/a
239.1025	12.083	478205	prompt	n/a	protection knowledgestorm azerbaijan tucson\n
239.9365	0.143	479873	keystroke	p	n/a
240.072	0.136	480144	keystroke	r	n/a
240.192	0.168	480384	keystroke	o	n/a
240.608	0.144	481216	keystroke	t	n/a
240.768	0.152	481536	keystroke	e	n/a
241.152	0.1195	482304	keystroke	c	n/a
241.448	0.136	482896	keystroke	t	n/a
241.568	0.127	483136	keystroke	i	n/a
241.727	0.161	483454	keystroke	o	n/a
241.784	0.183	483568	keystroke	n	n/a
241.959	0.12	483918	keystroke	Key.space	n/a
242.144	0.112	484288	keystroke	k	n/a
242.328	0.184	484656	keystroke	n	n/a
242.456	0.1605	484912	keystroke	o	n/a
242.648	0.168	485296	keystroke	w	n/a
242.8955	0.136	485791	keystroke	l	n/a
243.024	0.112	486048	keystroke	e	n/a
243.2635	0.16	486527	keystroke	d	n/a
243.4075	0.2245	486815	keystroke	g	n/a
243.552	0.1765	487104	keystroke	e	n/a
243.856	0.1435	487712	keystroke	s	n/a
244.1035	0.1445	488207	keystroke	t	n/a
244.263	0.1605	488526	keystroke	o	n/a
244.399	0.1045	488798	keystroke	r	n/a
244.6075	0.1445	489215	keystroke	m	n/a
244.936	0.16	489872	keystroke	Key.space	n/a
245.6155	0.1685	491231	keystroke	a	n/a
246.1675	0.1285	492335	keystroke	z	n/a
246.384	0.216	492768	keystroke	e	n/a
246.528	0.128	493056	keystroke	r	n/a
246.824	0.112	493648	keystroke	b	n/a
247.0075	0.1685	494015	keystroke	a	n/a
247.232	0.1275	494464	keystroke	i	n/a
247.64	0.136	495280	keystroke	j	n/a
247.8155	0.1445	495631	keystroke	a	n/a
247.928	0.1435	495856	keystroke	n	n/a
248.0795	0.12	496159	keystroke	Key.space	n/a
248.4875	0.12	496975	keystroke	t	n/a
249.1275	0.168	498255	keystroke	c	n/a
249.7035	0.12	499407	keystroke	Key.backspace	n/a
250.0395	0.112	500079	keystroke	u	n/a
250.2555	0.1045	500511	keystroke	c	n/a
250.56	0.136	501120	keystroke	s	n/a
250.664	0.1675	501328	keystroke	o	n/a
250.7835	0.1365	501567	keystroke	n	n/a
250.9995	0.1275	501999	keystroke	Key.space	n/a
251.08	0.104	502160	keystroke	Key.enter	n/a
251.1925	10.0725	502385	prompt	n/a	robust geology analysis severe\n
252.367	0.1205	504734	keystroke	r	n/a
252.503	0.145	505006	keystroke	o	n/a
252.712	0.0955	505424	keystroke	b	n/a
252.856	0.1115	505712	keystroke	u	n/a
252.928	0.2635	505856	keystroke	s	n/a
253.1115	0.208	506223	keystroke	t	n/a
253.2875	0.144	506575	keystroke	Key.space	n/a
253.6155	0.1845	507231	keystroke	g	n/a
253.7275	0.1595	507455	keystroke	e	n/a
254.0315	0.1285	508063	keystroke	o	n/a
254.3275	0.056	508655	keystroke	l	n/a
254.48	0.1195	508960	keystroke	o	n/a
254.6075	0.0965	509215	keystroke	g	n/a
254.767	0.1205	509534	keystroke	y	n/a
255.016	0.1515	510032	keystroke	Key.space	n/a
255.2955	0.1595	510591	keystroke	a	n/a
255.4795	0.1355	510959	keystroke	n	n/a
255.6235	0.136	511247	keystroke	a	n/a
255.8555	0.1355	511711	keystroke	l	n/a
256.024	0.1435	512048	keystroke	s	n/a
256.2315	0.096	512463	keystroke	y	n/a
256.9115	0.088	513823	keystroke	Key.backspace	n/a
257.0875	0.072	514175	keystroke	Key.backspace	n/a
257.2955	0.128	514591	keystroke	y	n/a
257.44	0.1195	514880	keystroke	s	n/a
257.584	0.1195	515168	keystroke	i	n/a
257.6955	0.2155	515391	keystroke	s	n/a
257.8715	0.1355	515743	keystroke	Key.space	n/a
258.191	0.144	516382	keystroke	s	n/a
258.343	0.3285	516686	keystroke	e	n/a
258.5675	0.16	517135	keystroke	r	n/a
259.5035	0.112	519007	keystroke	Key.backspace	n/a
259.6555	0.1285	519311	keystroke	v	n/a
259.8635	0.216	519727	keystroke	e	n/a
260.0235	0.16	520047	keystroke	r	n/a
260.367	0.2565	520734	keystroke	e	n/a
261.1435	0.1195	522287	keystroke	Key.enter	n/a
261.27	8.9475	522540	prompt	n/a	translations participating daughter types\n
262.1195	0.144	524239	keystroke	t	n/a
262.3115	0.176	524623	keystroke	r	n/a
262.5355	0.1195	525071	keystroke	n	n/a
263.1755	0.119	526351	keystroke	Key.backspace	n/a
263.5835	0.1515	527167	keystroke	a	n/a
263.7275	0.135	527455	keystroke	n	n/a
264.0545	0.112	528109	keystroke	s	n/a
264.2155	0.1275	528431	keystroke	l	n/a
264.375	0.112	528750	keystroke	a	n/a
264.5355	0.1435	529071	keystroke	t	n/a
264.655	0.0555	529310	keystroke	i	n/a
264.6955	0.184	529391	keystroke	o	n/a
264.8145	0.1525	529629	keystroke	n	n/a
264.967	0.2	529934	keystroke	s	n/a
265.1195	0.12	530239	keystroke	Key.space	n/a
265.3435	0.152	530687	keystroke	p	n/a
265.4475	0.1595	530895	keystroke	a	n/a
265.551	0.08	531102	keystroke	r	n/a
265.743	0.1125	531486	keystroke	t	n/a
265.8475	0.104	531695	keystroke	i	n/a
266.0555	0.1035	532111	keystroke	c	n/a
266.1435	0.096	532287	keystroke	i	n/a
266.3035	0.152	532607	keystroke	p	n/a
266.4395	0.112	532879	keystroke	a	n/a
266.8555	0.112	533711	keystroke	t	n/a
266.9755	0.104	533951	keystroke	i	n/a
267.1515	0.136	534303	keystroke	n	n/a
267.2395	0.208	534479	keystroke	g	n/a
267.3995	0.136	534799	keystroke	Key.space	n/a
267.9515	0.127	535903	keystroke	d	n/a
268.1915	0.136	536383	keystroke	a	n/a
268.3755	0.128	536751	keystroke	u	n/a
268.5675	0.112	537135	keystroke	g	n/a
268.6955	0.104	537391	keystroke	h	n/a
268.8155	0.095	537631	keystroke	t	n/a
268.9185	0.297	537837	keystroke	e	n/a
269.0875	0.135	538175	keystroke	r	n/a
269.174	0.1215	538348	keystroke	Key.space	n/a
269.4475	0.136	538895	keystroke	t	n/a
269.5505	0.097	539101	keystroke	y	n/a
269.702	0.1375	539404	keystroke	p	n/a
269.7595	0.296	539519	keystroke	e	n/a
269.8875	0.216	539775	keystroke	s	n/a
270.0795	0.095	540159	keystroke	Key.space	n/a
270.1195	0.096	540239	keystroke	Key.enter	n/a
270.2225	7.45	540445	prompt	n/a	print bobby filter mods\n
271.1915	0.112	542383	keystroke	p	n/a
271.4555	0.1355	542911	keystroke	r	n/a
271.559	0.096	543118	keystroke	i	n/a
271.687	0.1605	543374	keystroke	n	n/a
271.791	0.1845	543582	keystroke	t	n/a
271.919	0.136	543838	keystroke	Key.space	n/a
272.2555	0.0955	544511	keystroke	b	n/a
272.3675	0.1515	544735	keystroke	o	n/a
272.6075	0.063	545215	keystroke	g	n/a
272.7905	0.12	545581	keystroke	g	n/a
273.0865	0.088	546173	keystroke	Key.backspace	n/a
273.263	0.0795	546526	keystroke	Key.backspace	n/a
273.4305	0.1365	546861	keystroke	b	n/a
273.927	0.112	547854	keystroke	Key.backspace	n/a
274.415	0.1125	548830	keystroke	b	n/a
274.591	0.1275	549182	keystroke	b	n/a
274.7355	0.119	549471	keystroke	y	n/a
274.9665	0.1365	549933	keystroke	Key.space	n/a
275.3595	0.1675	550719	keystroke	f	n/a
275.503	0.08	551006	keystroke	i	n/a
275.671	0.136	551342	keystroke	l	n/a
275.887	0.096	551774	keystroke	t	n/a
276.007	0.264	552014	keystroke	e	n/a
276.143	0.16	552286	keystroke	r	n/a
276.263	0.096	552526	keystroke	Key.space	n/a
276.7755	0.1915	553551	keystroke	m	n/a
276.927	0.136	553854	keystroke	o	n/a
277.071	0.2885	554142	keystroke	d	n/a
277.374	0.185	554748	keystroke	s	n/a
277.5505	0.12	555101	keystroke	Key.enter	n/a
277.676	8.7815	555352	prompt	n/a	dynamic columbus happiness local\n
278.3835	0.1755	556767	keystroke	d	n/a
278.583	0.104	557166	keystroke	y	n/a
278.799	0.128	557598	keystroke	n	n/a
278.975	0.096	557950	keystroke	a	n/a
279.151	0.112	558302	keystroke	m	n/a
279.399	0.128	558798	keystroke	i	n/a
279.575	0.1595	559150	keystroke	c	n/a
279.799	0.1275	559598	keystroke	Key.space	n/a
280.3185	0.1365	560637	keystroke	c	n/a
280.479	0.072	560958	keystroke	o	n/a
280.679	0.0955	561358	keystroke	l	n/a
280.999	0.1115	561998	keystroke	u	n/a
281.231	0.12	562462	keystroke	m	n/a
281.5115	0.071	563023	keystroke	b	n/a
281.5905	0.1125	563181	keystroke	u	n/a
281.7435	0.2075	563487	keystroke	s	n/a
281.919	0.12	563838	keystroke	Key.space	n/a
282.119	0.128	564238	keystroke	h	n/a
282.255	0.16	564510	keystroke	a	n/a
282.407	0.072	564814	keystroke	p	n/a
282.575	0.112	565150	keystroke	p	n/a
284.007	0.104	568014	keystroke	i	n/a
284.199	0.1445	568398	keystroke	n	n/a
284.6705	0.145	569341	keystroke	e	n/a
284.935	0.096	569870	keystroke	s	n/a
285.1435	0.1835	570287	keystroke	s	n/a
285.271	0.112	570542	keystroke	Key.space	n/a
285.455	0.096	570910	keystroke	l	n/a
285.6635	0.104	571327	keystroke	o	n/a
285.711	0.176	571422	keystroke	c	n/a
285.823	0.2	571646	keystroke	a	n/a
286.039	0.1285	572078	keystroke	l	n/a
286.255	0.12	572510	keystroke	Key.space	n/a
286.3585	0.0965	572717	keystroke	Key.enter	n/a
286.463	8.3375	572926	prompt	n/a	scores fighter underlying annually\n
287.319	0.128	574638	keystroke	s	n/a
287.479	0.144	574958	keystroke	c	n/a
287.687	0.12	575374	keystroke	o	n/a
287.823	0.184	575646	keystroke	r	n/a
287.943	0.136	575886	keystroke	e	n/a
288.199	0.112	576398	keystroke	Key.space	n/a
289.063	0.088	578126	keystroke	g	n/a
289.543	0.128	579086	keystroke	Key.backspace	n/a
289.727	0.152	579454	keystroke	f	n/a
289.903	0.12	579806	keystroke	i	n/a
290.071	0.096	580142	keystroke	g	n/a
290.199	0.112	580398	keystroke	h	n/a
290.3185	0.12	580637	keystroke	t	n/a
290.527	0.224	581054	keystroke	e	n/a
290.6625	0.1765	581325	keystroke	r	n/a
290.799	0.112	581598	keystroke	Key.space	n/a
291.103	0.072	582206	keystroke	u	n/a
291.286	0.129	582572	keystroke	n	n/a
291.431	0.063	582862	keystroke	d	n/a
291.59	0.201	583180	keystroke	e	n/a
291.703	0.127	583406	keystroke	r	n/a
291.783	0.111	583566	keystroke	l	n/a
291.975	0.128	583950	keystroke	y	n/a
292.343	0.0715	584686	keystroke	i	n/a
292.4865	0.1525	584973	keystroke	n	n/a
292.606	0.161	585212	keystroke	g	n/a
292.807	0.104	585614	keystroke	Key.space	n/a
293.287	0.16	586574	keystroke	a	n/a
293.431	0.064	586862	keystroke	n	n/a
293.599	0.071	587198	keystroke	n	n/a
293.7585	0.1195	587517	keystroke	u	n/a
293.918	0.137	587836	keystroke	a	n/a
294.023	0.063	588046	keystroke	l	n/a
294.183	0.096	588366	keystroke	l	n/a
294.359	0.1365	588718	keystroke	y	n/a
294.4955	0.119	588991	keystroke	Key.space	n/a
294.6945	0.104	589389	keystroke	Key.enter	n/a
294.806	8.402	589612	prompt	n/a	passport knee beverly owner\n
295.479	0.1435	590958	keystroke	p	n/a
295.6145	0.1525	591229	keystroke	a	n/a
295.775	0.08	591550	keystroke	s	n/a
295.934	0.152	591868	keystroke	s	n/a
296.087	0.136	592174	keystroke	p	n/a
296.2865	0.1435	592573	keystroke	o	n/a
296.398	0.0805	592796	keystroke	r	n/a
296.598	0.1685	593196	keystroke	t	n/a
296.7105	0.12	593421	keystroke	Key.space	n/a
296.935	0.112	593870	keystroke	k	n/a
297.103	0.128	594206	keystroke	n	n/a
297.2635	0.1585	594527	keystroke	e	n/a
297.662	0.2245	595324	keystroke	e	n/a
297.8785	0.136	595757	keystroke	Key.space	n/a
298.982	0.1285	597964	keystroke	b	n/a
299.35	0.1205	598700	keystroke	e	n/a
299.9905	0.1435	599981	keystroke	b	n/a
300.782	0.1125	601564	keystroke	Key.backspace	n/a
300.8955	0.1035	601791	keystroke	v	n/a
301.1025	0.248	602205	keystroke	e	n/a
301.2465	0.1435	602493	keystroke	r	n/a
301.4145	0.128	602829	keystroke	l	n/a
301.6305	0.144	603261	keystroke	y	n/a
301.7815	0.121	603563	keystroke	Key.space	n/a
301.9745	0.136	603949	keystroke	o	n/a
302.1025	0.1355	604205	keystroke	w	n/a
302.254	0.12	604508	keystroke	n	n/a
302.398	0.2725	604796	keystroke	e	n/a
302.542	0.168	605084	keystroke	r	n/a
302.694	0.128	605388	keystroke	Key.space	n/a
303.086	0.12	606172	keystroke	Key.enter	n/a
303.216	13.5265	606432	prompt	n/a	aberdeen referral personals tigers\n
304.1735	0.1525	608347	keystroke	a	n/a
304.5665	0.111	609133	keystroke	v	n/a
305.0775	0.1365	610155	keystroke	Key.backspace	n/a
305.2215	0.1205	610443	keystroke	b	n/a
305.47	0.24	610940	keystroke	e	n/a
305.63	0.1125	611260	keystroke	r	n/a
305.8775	0.088	611755	keystroke	d	n/a
306.054	0.112	612108	keystroke	e	n/a
306.222	0.152	612444	keystroke	e	n/a
306.398	0.12	612796	keystroke	n	n/a
306.494	0.144	612988	keystroke	Key.space	n/a
306.726	0.16	613452	keystroke	r	n/a
306.838	0.128	613676	keystroke	e	n/a
307.11	0.1275	614220	keystroke	f	n/a
307.246	0.208	614492	keystroke	e	n/a
307.3655	0.168	614731	keystroke	r	n/a
307.79	0.1115	615580	keystroke	r	n/a
307.998	0.144	615996	keystroke	a	n/a
308.15	0.128	616300	keystroke	l	n/a
308.286	0.112	616572	keystroke	Key.space	n/a
308.646	0.1445	617292	keystroke	p	n/a
308.694	0.216	617388	keystroke	e	n/a
308.83	0.12	617660	keystroke	r	n/a
309.39	0.208	618780	keystroke	s	n/a
309.542	0.176	619084	keystroke	a	n/a
309.694	0.103	619388	keystroke	o	n/a
309.765	0.1445	619530	keystroke	n	n/a
310.054	0.152	620108	keystroke	l	n/a
310.3735	0.2245	620747	keystroke	s	n/a
310.606	0.096	621212	keystroke	Key.space	n/a
311.718	0.096	623436	keystroke	Key.backspace	n/a
311.894	0.08	623788	keystroke	Key.backspace	n/a
312.046	0.08	624092	keystroke	Key.backspace	n/a
312.206	0.072	624412	keystroke	Key.backspace	n/a
312.366	0.072	624732	keystroke	Key.backspace	n/a
312.526	0.088	625052	keystroke	Key.backspace	n/a
312.982	0.128	625964	keystroke	o	n/a
313.174	0.16	626348	keystroke	n	n/a
313.5185	0.1115	627037	keystroke	a	n/a
313.638	0.128	627276	keystroke	l	n/a
313.8375	0.2235	627675	keystroke	s	n/a
314.021	0.12	628042	keystroke	Key.space	n/a
315.4845	0.12	630969	keystroke	t	n/a
315.6765	0.1045	631353	keystroke	i	n/a
315.8055	0.087	631611	keystroke	g	n/a
315.9405	0.2475	631881	keystroke	e	n/a
316.0605	0.1515	632121	keystroke	r	n/a
316.405	0.184	632810	keystroke	s	n/a
316.6045	0.136	633209	keystroke	Key.enter	n/a
316.7475	5.9395	633495	prompt	n/a	late lifetime flags romance\n
317.389	0.144	634778	keystroke	l	n/a
317.5095	0.1835	635019	keystroke	a	n/a
317.661	0.2005	635322	keystroke	t	n/a
317.773	0.216	635546	keystroke	e	n/a
317.917	0.104	635834	keystroke	Key.space	n/a
318.293	0.1675	636586	keystroke	l	n/a
318.405	0.1285	636810	keystroke	i	n/a
318.5255	0.168	637051	keystroke	f	n/a
318.645	0.112	637290	keystroke	e	n/a
318.8365	0.1525	637673	keystroke	t	n/a
318.973	0.08	637946	keystroke	i	n/a
319.157	0.1355	638314	keystroke	m	n/a
319.2535	0.2315	638507	keystroke	e	n/a
319.4365	0.0965	638873	keystroke	Key.space	n/a
319.685	0.1355	639370	keystroke	f	n/a
319.8285	0.144	639657	keystroke	l	n/a
319.989	0.104	639978	keystroke	a	n/a
320.237	0.1355	640474	keystroke	g	n/a
320.541	0.208	641082	keystroke	s	n/a
320.7495	0.112	641499	keystroke	Key.space	n/a
321.453	0.136	642906	keystroke	r	n/a
321.621	0.096	643242	keystroke	o	n/a
321.813	0.12	643626	keystroke	m	n/a
321.941	0.144	643882	keystroke	a	n/a
322.0535	0.112	644107	keystroke	n	n/a
322.213	0.2005	644426	keystroke	c	n/a
322.325	0.144	644650	keystroke	e	n/a
322.573	0.1125	645146	keystroke	Key.enter	n/a
322.692	12.2595	645384	prompt	n/a	reynolds guarantees noticed buildings\n
323.6695	0.231	647339	keystroke	r	n/a
323.8365	0.1365	647673	keystroke	e	n/a
324.101	0.136	648202	keystroke	y	n/a
324.4455	0.151	648891	keystroke	n	n/a
324.5975	0.103	649195	keystroke	o	n/a
324.8125	0.136	649625	keystroke	l	n/a
324.9165	0.3365	649833	keystroke	d	n/a
325.149	0.2	650298	keystroke	s	n/a
325.3565	0.096	650713	keystroke	Key.space	n/a
327.541	0.1205	655082	keystroke	g	n/a
327.9085	0.1205	655817	keystroke	u	n/a
329.013	0.184	658026	keystroke	a	n/a
329.293	0.096	658586	keystroke	r	n/a
329.6135	0.1355	659227	keystroke	a	n/a
329.7735	0.12	659547	keystroke	n	n/a
330.045	0.1275	660090	keystroke	t	n/a
330.213	0.08	660426	keystroke	e	n/a
330.429	0.08	660858	keystroke	e	n/a
330.629	0.232	661258	keystroke	s	n/a
330.845	0.12	661690	keystroke	Key.space	n/a
331.2285	0.128	662457	keystroke	n	n/a
331.3495	0.1515	662699	keystroke	o	n/a
331.973	0.112	663946	keystroke	t	n/a
332.117	0.112	664234	keystroke	i	n/a
332.293	0.2075	664586	keystroke	c	n/a
332.3885	0.16	664777	keystroke	e	n/a
332.661	0.2	665322	keystroke	d	n/a
332.813	0.0955	665626	keystroke	Key.space	n/a
333.3725	0.121	666745	keystroke	b	n/a
333.5325	0.0965	667065	keystroke	u	n/a
333.749	0.104	667498	keystroke	i	n/a
333.957	0.1275	667914	keystroke	l	n/a
334.1085	0.16	668217	keystroke	d	n/a
334.2205	0.096	668441	keystroke	i	n/a
334.3805	0.137	668761	keystroke	n	n/a
334.4605	0.128	668921	keystroke	g	n/a
334.661	0.1595	669322	keystroke	s	n/a
334.8285	0.12	669657	keystroke	Key.enter	n/a
334.955	8.0115	669910	prompt	n/a	intensity chapters generating record\n
335.8605	0.0805	671721	keystroke	i	n/a
336.013	0.144	672026	keystroke	n	n/a
336.213	0.12	672426	keystroke	t	n/a
336.309	0.167	672618	keystroke	e	n/a
336.484	0.129	672968	keystroke	n	n/a
337.037	0.144	674074	keystroke	s	n/a
337.212	0.096	674424	keystroke	i	n/a
337.509	0.1515	675018	keystroke	t	n/a
337.628	0.113	675256	keystroke	y	n/a
337.829	0.087	675658	keystroke	Key.space	n/a
338.4685	0.1445	676937	keystroke	c	n/a
338.66	0.08	677320	keystroke	h	n/a
338.748	0.137	677496	keystroke	a	n/a
338.909	0.119	677818	keystroke	p	n/a
339.0365	0.1125	678073	keystroke	t	n/a
339.156	0.2165	678312	keystroke	e	n/a
339.3085	0.0965	678617	keystroke	r	n/a
339.493	0.2315	678986	keystroke	s	n/a
339.717	0.0875	679434	keystroke	Key.space	n/a
339.9805	0.168	679961	keystroke	g	n/a
340.1885	0.1285	680377	keystroke	e	n/a
340.493	0.119	680986	keystroke	n	n/a
340.62	0.193	681240	keystroke	e	n/a
340.725	0.1515	681450	keystroke	r	n/a
340.9405	0.192	681881	keystroke	a	n/a
341.061	0.112	682122	keystroke	t	n/a
341.18	0.104	682360	keystroke	i	n/a
341.364	0.1285	682728	keystroke	n	n/a
341.429	0.183	682858	keystroke	g	n/a
341.565	0.127	683130	keystroke	Key.space	n/a
341.805	0.1515	683610	keystroke	r	n/a
341.908	0.1205	683816	keystroke	e	n/a
342.1725	0.0955	684345	keystroke	c	n/a
342.277	0.119	684554	keystroke	o	n/a
342.389	0.096	684778	keystroke	r	n/a
342.596	0.1765	685192	keystroke	d	n/a
342.724	0.112	685448	keystroke	Key.space	n/a
342.8525	0.1115	685705	keystroke	Key.enter	n/a
342.9725	5.2665	685945	prompt	n/a	monster jade adjusted cheats\n
343.645	0.135	687290	keystroke	m	n/a
343.781	0.112	687562	keystroke	o	n/a
343.949	0.144	687898	keystroke	n	n/a
344.085	0.1595	688170	keystroke	s	n/a
344.1805	0.1275	688361	keystroke	t	n/a
344.341	0.2795	688682	keystroke	e	n/a
344.493	0.1515	688986	keystroke	r	n/a
344.5885	0.112	689177	keystroke	Key.space	n/a
344.7965	0.144	689593	keystroke	j	n/a
344.9245	0.112	689849	keystroke	a	n/a
345.109	0.088	690218	keystroke	d	n/a
345.285	0.152	690570	keystroke	e	n/a
345.389	0.103	690778	keystroke	Key.space	n/a
345.557	0.1275	691114	keystroke	a	n/a
345.741	0.16	691482	keystroke	d	n/a
345.925	0.064	691850	keystroke	j	n/a
346.085	0.12	692170	keystroke	u	n/a
346.181	0.175	692362	keystroke	s	n/a
346.317	0.143	692634	keystroke	t	n/a
346.5	0.1445	693000	keystroke	e	n/a
346.7405	0.184	693481	keystroke	d	n/a
346.8685	0.1115	693737	keystroke	Key.space	n/a
347.093	0.112	694186	keystroke	c	n/a
347.221	0.0955	694442	keystroke	h	n/a
347.3245	0.1445	694649	keystroke	e	n/a
347.4925	0.176	694985	keystroke	a	n/a
347.7565	0.128	695513	keystroke	t	n/a
347.957	0.152	695914	keystroke	s	n/a
348.116	0.121	696232	keystroke	Key.enter	n/a
348.2435	6.9945	696487	prompt	n/a	applied flooring slim tribal\n
348.8285	0.16	697657	keystroke	a	n/a
348.9725	0.072	697945	keystroke	p	n/a
349.1325	0.1045	698265	keystroke	p	n/a
349.3485	0.1365	698697	keystroke	l	n/a
349.4275	0.1455	698855	keystroke	i	n/a
349.557	0.087	699114	keystroke	e	n/a
349.749	0.191	699498	keystroke	d	n/a
349.8835	0.1125	699767	keystroke	Key.space	n/a
350.0285	0.192	700057	keystroke	f	n/a
350.2445	0.1195	700489	keystroke	l	n/a
350.461	0.0715	700922	keystroke	o	n/a
350.6365	0.104	701273	keystroke	o	n/a
351.4525	0.112	702905	keystroke	r	n/a
351.5965	0.096	703193	keystroke	i	n/a
351.7645	0.1355	703529	keystroke	n	n/a
351.868	0.16	703736	keystroke	g	n/a
351.9795	0.1045	703959	keystroke	Key.space	n/a
352.1005	0.184	704201	keystroke	s	n/a
352.2675	0.104	704535	keystroke	l	n/a
352.3245	0.087	704649	keystroke	i	n/a
352.5165	0.159	705033	keystroke	m	n/a
352.7395	0.112	705479	keystroke	Key.space	n/a
353.5885	0.112	707177	keystroke	t	n/a
353.812	0.1115	707624	keystroke	r	n/a
354.0605	0.1195	708121	keystroke	i	n/a
354.5805	0.1915	709161	keystroke	b	n/a
354.7325	0.1685	709465	keystroke	a	n/a
354.9085	0.088	709817	keystroke	l	n/a
355.1005	0.096	710201	keystroke	Key.space	n/a
355.1485	0.088	710297	keystroke	Key.enter	n/a
355.2435	8.7865	710487	prompt	n/a	fiber selective moreover discharge\n
355.932	0.168	711864	keystroke	f	n/a
356.1165	0.1035	712233	keystroke	i	n/a
356.26	0.0955	712520	keystroke	b	n/a
356.4205	0.2635	712841	keystroke	e	n/a
356.5555	0.1765	713111	keystroke	r	n/a
356.668	0.1365	713336	keystroke	Key.space	n/a
356.8605	0.192	713721	keystroke	s	n/a
357.0125	0.1835	714025	keystroke	l	n/a
357.116	0.144	714232	keystroke	e	n/a
357.8435	0.088	715687	keystroke	Key.backspace	n/a
358.0115	0.096	716023	keystroke	Key.backspace	n/a
358.0915	0.161	716183	keystroke	e	n/a
358.2915	0.1445	716583	keystroke	l	n/a
358.7245	0.112	717449	keystroke	c	n/a
359.228	0.12	718456	keystroke	Key.backspace	n/a
359.3245	0.135	718649	keystroke	e	n/a
359.5085	0.1115	719017	keystroke	c	n/a
359.748	0.088	719496	keystroke	t	n/a
359.82	0.1035	719640	keystroke	i	n/a
359.988	0.1435	719976	keystroke	v	n/a
360.1005	0.2	720201	keystroke	e	n/a
360.2515	0.105	720503	keystroke	Key.space	n/a
360.3725	0.1675	720745	keystroke	m	n/a
360.5	0.128	721000	keystroke	o	n/a
360.5885	0.16	721177	keystroke	r	n/a
360.7	0.072	721400	keystroke	e	n/a
360.836	0.096	721672	keystroke	m	n/a
360.908	0.136	721816	keystroke	o	n/a
361.268	0.088	722536	keystroke	Key.backspace	n/a
361.46	0.0955	722920	keystroke	Key.backspace	n/a
361.868	0.128	723736	keystroke	o	n/a
362.0365	0.088	724073	keystroke	v	n/a
362.22	0.2715	724440	keystroke	e	n/a
362.3795	0.136	724759	keystroke	r	n/a
362.4675	0.112	724935	keystroke	Key.space	n/a
362.7235	0.105	725447	keystroke	d	n/a
362.852	0.1125	725704	keystroke	i	n/a
362.9405	0.1355	725881	keystroke	s	n/a
363.1645	0.112	726329	keystroke	c	n/a
363.2845	0.1035	726569	keystroke	h	n/a
363.364	0.1525	726728	keystroke	a	n/a
363.4765	0.095	726953	keystroke	r	n/a
363.6765	0.16	727353	keystroke	g	n/a
363.7405	0.1755	727481	keystroke	e	n/a
363.932	0.0955	727864	keystroke	Key.enter	n/a
364.0345	9.1	728069	prompt	n/a	subscription looked environmental engagement\n
364.716	0.16	729432	keystroke	s	n/a
364.884	0.096	729768	keystroke	u	n/a
365.1	0.1125	730200	keystroke	b	n/a
365.268	0.16	730536	keystroke	s	n/a
365.772	0.088	731544	keystroke	c	n/a
365.996	0.0885	731992	keystroke	r	n/a
366.068	0.088	732136	keystroke	i	n/a
366.356	0.0965	732712	keystroke	p	n/a
366.4925	0.103	732985	keystroke	t	n/a
366.6125	0.088	733225	keystroke	i	n/a
366.6765	0.199	733353	keystroke	o	n/a
366.804	0.1675	733608	keystroke	n	n/a
367.0275	0.152	734055	keystroke	Key.space	n/a
367.372	0.096	734744	keystroke	l	n/a
367.5725	0.08	735145	keystroke	o	n/a
367.732	0.0965	735464	keystroke	o	n/a
367.94	0.128	735880	keystroke	k	n/a
368.052	0.12	736104	keystroke	e	n/a
368.284	0.192	736568	keystroke	d	n/a
368.452	0.112	736904	keystroke	Key.space	n/a
368.708	0.1595	737416	keystroke	e	n/a
368.9235	0.136	737847	keystroke	n	n/a
369.188	0.096	738376	keystroke	v	n/a
369.308	0.1045	738616	keystroke	i	n/a
369.476	0.1445	738952	keystroke	r	n/a
369.7965	0.12	739593	keystroke	o	n/a
369.9235	0.121	739847	keystroke	n	n/a
370.1485	0.1115	740297	keystroke	m	n/a
370.268	0.1285	740536	keystroke	e	n/a
370.372	0.12	740744	keystroke	n	n/a
370.516	0.128	741032	keystroke	t	n/a
370.6915	0.1525	741383	keystroke	a	n/a
370.828	0.128	741656	keystroke	l	n/a
371.02	0.1125	742040	keystroke	Key.space	n/a
371.5245	0.152	743049	keystroke	e	n/a
371.7085	0.104	743417	keystroke	n	n/a
371.8445	0.136	743689	keystroke	g	n/a
372.0355	0.169	744071	keystroke	a	n/a
372.1885	0.2075	744377	keystroke	g	n/a
372.3085	0.1595	744617	keystroke	e	n/a
372.484	0.1115	744968	keystroke	m	n/a
372.604	0.12	745208	keystroke	e	n/a
372.7155	0.105	745431	keystroke	n	n/a
372.828	0.1365	745656	keystroke	t	n/a
372.8995	0.1125	745799	keystroke	Key.space	n/a
373.0595	0.072	746119	keystroke	Key.enter	n/a
373.1395	6.8825	746279	prompt	n/a	defined where's shop under\n
374.5875	0.104	749175	keystroke	d	n/a
374.7725	0.119	749545	keystroke	e	n/a
374.9885	0.159	749977	keystroke	f	n/a
375.0835	0.0885	750167	keystroke	i	n/a
375.22	0.1285	750440	keystroke	n	n/a
375.316	0.1205	750632	keystroke	e	n/a
375.556	0.184	751112	keystroke	d	n/a
375.708	0.128	751416	keystroke	Key.space	n/a
375.9315	0.104	751863	keystroke	w	n/a
376.0925	0.111	752185	keystroke	h	n/a
376.1795	0.161	752359	keystroke	e	n/a
376.308	0.24	752616	keystroke	r	n/a
376.444	0.176	752888	keystroke	e	n/a
377.0435	0.12	754087	keystroke	'	n/a
377.1965	0.1595	754393	keystroke	s	n/a
377.5235	0.136	755047	keystroke	Key.space	n/a
377.78	0.144	755560	keystroke	s	n/a
377.9325	0.096	755865	keystroke	h	n/a
378.172	0.104	756344	keystroke	o	n/a
378.3005	0.135	756601	keystroke	p	n/a
378.4755	0.136	756951	keystroke	Key.space	n/a
378.9395	0.096	757879	keystroke	u	n/a
379.1885	0.1355	758377	keystroke	n	n/a
379.4525	0.111	758905	keystroke	d	n/a
379.6445	0.2155	759289	keystroke	e	n/a
379.756	0.1195	759512	keystroke	r	n/a
379.82	0.1355	759640	keystroke	Key.space	n/a
379.9	0.1195	759800	keystroke	Key.enter	n/a
380.0265	12.2745	760053	prompt	n/a	reuters combine assumptions substitute\n
381.284	0.176	762568	keystroke	r	n/a
381.844	0.184	763688	keystroke	e	n/a
382.0435	0.112	764087	keystroke	u	n/a
382.3155	0.1275	764631	keystroke	t	n/a
382.508	0.184	765016	keystroke	e	n/a
382.612	0.1195	765224	keystroke	r	n/a
382.8435	0.2405	765687	keystroke	s	n/a
383.0515	0.104	766103	keystroke	Key.space	n/a
383.3155	0.1365	766631	keystroke	c	n/a
383.396	0.1115	766792	keystroke	o	n/a
383.548	0.1355	767096	keystroke	m	n/a
383.748	0.1115	767496	keystroke	b	n/a
383.8115	0.072	767623	keystroke	i	n/a
383.948	0.1435	767896	keystroke	n	n/a
384.0765	0.199	768153	keystroke	e	n/a
384.2115	0.112	768423	keystroke	Key.space	n/a
385.1315	0.128	770263	keystroke	a	n/a
385.3645	0.095	770729	keystroke	s	n/a
385.5475	0.1445	771095	keystroke	s	n/a
385.6675	0.08	771335	keystroke	u	n/a
385.875	0.153	771750	keystroke	m	n/a
386.0995	0.16	772199	keystroke	p	n/a
386.364	0.12	772728	keystroke	t	n/a
386.468	0.08	772936	keystroke	i	n/a
386.5315	0.2005	773063	keystroke	o	n/a
386.6435	0.152	773287	keystroke	n	n/a
386.8355	0.2165	773671	keystroke	s	n/a
386.9875	0.112	773975	keystroke	Key.space	n/a
387.564	0.152	775128	keystroke	s	n/a
387.74	0.096	775480	keystroke	u	n/a
387.932	0.095	775864	keystroke	b	n/a
388.2115	0.1765	776423	keystroke	s	n/a
388.548	0.0955	777096	keystroke	i	n/a
388.8595	0.176	777719	keystroke	t	n/a
389.3315	0.088	778663	keystroke	Key.backspace	n/a
389.4995	0.0965	778999	keystroke	Key.backspace	n/a
389.5965	0.119	779193	keystroke	t	n/a
389.7555	0.1285	779511	keystroke	i	n/a
389.9075	0.1125	779815	keystroke	t	n/a
390.1235	0.128	780247	keystroke	u	n/a
390.243	0.2005	780486	keystroke	e	n/a
390.8835	0.08	781767	keystroke	Key.backspace	n/a
391.068	0.0635	782136	keystroke	Key.backspace	n/a
391.707	0.177	783414	keystroke	u	n/a
391.8915	0.192	783783	keystroke	t	n/a
392.0195	0.176	784039	keystroke	e	n/a
392.1875	0.112	784375	keystroke	Key.enter	n/a
392.306	8.0345	784612	prompt	n/a	puzzle spoke new content\n
393.108	0.1595	786216	keystroke	p	n/a
393.4115	0.1195	786823	keystroke	u	n/a
393.6755	0.1355	787351	keystroke	z	n/a
393.835	0.168	787670	keystroke	z	n/a
394.1155	0.128	788231	keystroke	l	n/a
394.1715	0.24	788343	keystroke	e	n/a
394.4035	0.0475	788807	keystroke	Key.space	n/a
394.6355	0.12	789271	keystroke	s	n/a
395.0755	0.1285	790151	keystroke	o	n/a
395.2995	0.088	790599	keystroke	p	n/a
395.803	0.0805	791606	keystroke	Key.backspace	n/a
395.987	0.1285	791974	keystroke	Key.backspace	n/a
396.4595	0.104	792919	keystroke	p	n/a
396.715	0.1125	793430	keystroke	o	n/a
396.939	0.12	793878	keystroke	k	n/a
397.051	0.208	794102	keystroke	e	n/a
397.219	0.08	794438	keystroke	Key.space	n/a
397.6195	0.1115	795239	keystroke	n	n/a
397.707	0.2645	795414	keystroke	e	n/a
397.803	0.216	795606	keystroke	w	n/a
397.987	0.1045	795974	keystroke	Key.space	n/a
398.3235	0.128	796647	keystroke	c	n/a
398.4035	0.12	796807	keystroke	o	n/a
398.6355	0.128	797271	keystroke	t	n/a
399.0915	0.104	798183	keystroke	Key.backspace	n/a
399.3235	0.152	798647	keystroke	n	n/a
399.4995	0.1595	798999	keystroke	t	n/a
399.651	0.1765	799302	keystroke	e	n/a
399.8435	0.136	799687	keystroke	n	n/a
399.9875	0.1755	799975	keystroke	t	n/a
400.123	0.104	800246	keystroke	Key.space	n/a
400.243	0.0955	800486	keystroke	Key.enter	n/a
400.345	7.7495	800690	prompt	n/a	assurance subdivision moon provide\n
401.1475	0.1115	802295	keystroke	a	n/a
401.419	0.064	802838	keystroke	s	n/a
401.595	0.12	803190	keystroke	s	n/a
401.907	0.1365	803814	keystroke	u	n/a
402.083	0.1125	804166	keystroke	r	n/a
402.2985	0.153	804597	keystroke	a	n/a
402.4435	0.104	804887	keystroke	n	n/a
402.579	0.2005	805158	keystroke	c	n/a
402.7075	0.1835	805415	keystroke	e	n/a
402.835	0.104	805670	keystroke	Key.space	n/a
403.059	0.1365	806118	keystroke	s	n/a
403.2275	0.104	806455	keystroke	u	n/a
403.4755	0.12	806951	keystroke	b	n/a
404.3145	0.176	808629	keystroke	d	n/a
404.4825	0.096	808965	keystroke	i	n/a
404.795	0.1205	809590	keystroke	v	n/a
404.987	0.0805	809974	keystroke	i	n/a
405.1315	0.136	810263	keystroke	s	n/a
405.2355	0.12	810471	keystroke	i	n/a
405.3795	0.144	810759	keystroke	o	n/a
405.4355	0.176	810871	keystroke	n	n/a
405.6595	0.128	811319	keystroke	Key.space	n/a
405.9555	0.136	811911	keystroke	m	n/a
406.1555	0.056	812311	keystroke	o	n/a
406.3075	0.096	812615	keystroke	o	n/a
406.4355	0.207	812871	keystroke	n	n/a
406.651	0.1275	813302	keystroke	Key.space	n/a
407.003	0.112	814006	keystroke	p	n/a
407.147	0.12	814294	keystroke	r	n/a
407.267	0.128	814534	keystroke	o	n/a
407.467	0.096	814934	keystroke	v	n/a
407.579	0.12	815158	keystroke	i	n/a
407.6755	0.08	815351	keystroke	d	n/a
407.8515	0.152	815703	keystroke	e	n/a
407.9315	0.127	815863	keystroke	Key.space	n/a
408.0105	0.08	816021	keystroke	Key.enter	n/a
408.1	7.521	816200	prompt	n/a	peer lands wifi subsidiary\n
408.835	0.136	817670	keystroke	p	n/a
409.0675	0.1035	818135	keystroke	e	n/a
409.267	0.1275	818534	keystroke	e	n/a
409.499	0.2315	818998	keystroke	r	n/a
409.6665	0.1365	819333	keystroke	Key.space	n/a
409.947	0.1205	819894	keystroke	l	n/a
410.0755	0.1115	820151	keystroke	a	n/a
410.171	0.136	820342	keystroke	n	n/a
410.315	0.28	820630	keystroke	d	n/a
410.4675	0.1835	820935	keystroke	s	n/a
410.635	0.08	821270	keystroke	Key.space	n/a
410.827	0.12	821654	keystroke	w	n/a
410.963	0.12	821926	keystroke	i	n/a
411.099	0.1365	822198	keystroke	f	n/a
411.3235	0.128	822647	keystroke	i	n/a
411.5795	0.112	823159	keystroke	Key.space	n/a
411.9465	0.145	823893	keystroke	s	n/a
412.1145	0.113	824229	keystroke	u	n/a
412.2835	0.096	824567	keystroke	b	n/a
412.5475	0.104	825095	keystroke	s	n/a
412.6115	0.1435	825223	keystroke	i	n/a
413.443	0.0885	826886	keystroke	Key.backspace	n/a
413.6195	0.104	827239	keystroke	Key.backspace	n/a
413.8915	0.1355	827783	keystroke	s	n/a
414.019	0.1445	828038	keystroke	i	n/a
414.2515	0.16	828503	keystroke	d	n/a
414.7385	0.169	829477	keystroke	i	n/a
414.9545	0.2	829909	keystroke	a	n/a
415.0755	0.151	830151	keystroke	r	n/a
415.219	0.1115	830438	keystroke	y	n/a
415.5075	0.1115	831015	keystroke	Key.enter	n/a
415.625	6.5075	831250	prompt	n/a	posters silent chair sessions\n
416.3545	0.113	832709	keystroke	p	n/a
416.5225	0.161	833045	keystroke	o	n/a
416.6675	0.111	833335	keystroke	s	n/a
416.8185	0.129	833637	keystroke	t	n/a
416.9555	0.216	833911	keystroke	e	n/a
417.0915	0.12	834183	keystroke	r	n/a
417.2915	0.216	834583	keystroke	s	n/a
417.4595	0.1115	834919	keystroke	Key.space	n/a
418.067	0.16	836134	keystroke	s	n/a
418.219	0.0795	836438	keystroke	i	n/a
418.427	0.1365	836854	keystroke	l	n/a
418.715	0.136	837430	keystroke	e	n/a
418.859	0.12	837718	keystroke	n	n/a
419.0275	0.16	838055	keystroke	t	n/a
419.115	0.144	838230	keystroke	Key.space	n/a
419.467	0.104	838934	keystroke	c	n/a
419.587	0.088	839174	keystroke	h	n/a
419.6995	0.1355	839399	keystroke	a	n/a
419.8515	0.112	839703	keystroke	i	n/a
419.9715	0.232	839943	keystroke	r	n/a
420.1315	0.1435	840263	keystroke	Key.space	n/a
420.7155	0.152	841431	keystroke	s	n/a
420.8275	0.12	841655	keystroke	e	n/a
421.2195	0.096	842439	keystroke	s	n/a
421.4355	0.112	842871	keystroke	s	n/a
421.5235	0.096	843047	keystroke	i	n/a
421.6595	0.152	843319	keystroke	o	n/a
421.7235	0.136	843447	keystroke	n	n/a
421.8035	0.1995	843607	keystroke	s	n/a
421.955	0.096	843910	keystroke	Key.space	n/a
422.035	0.096	844070	keystroke	Key.enter	n/a
422.1365	13.2045	844273	prompt	n/a	ronald evaluating readily apparently\n
423.299	0.1285	846598	keystroke	r	n/a
423.4595	0.0875	846919	keystroke	o	n/a
424.0825	0.137	848165	keystroke	n	n/a
424.2265	0.105	848453	keystroke	a	n/a
424.371	0.136	848742	keystroke	l	n/a
424.4835	0.216	848967	keystroke	d	n/a
424.651	0.1365	849302	keystroke	Key.space	n/a
425.2035	0.128	850407	keystroke	e	n/a
425.451	0.16	850902	keystroke	v	n/a
425.723	0.1685	851446	keystroke	a	n/a
425.8835	0.176	851767	keystroke	l	n/a
426.1555	0.112	852311	keystroke	u	n/a
426.3715	0.136	852743	keystroke	a	n/a
426.6515	0.128	853303	keystroke	t	n/a
426.7715	0.064	853543	keystroke	i	n/a
426.8035	0.1595	853607	keystroke	o	n/a
427.371	0.104	854742	keystroke	Key.backspace	n/a
428.0035	0.135	856007	keystroke	n	n/a
428.1715	0.1835	856343	keystroke	g	n/a
428.3235	0.1195	856647	keystroke	Key.space	n/a
428.6035	0.152	857207	keystroke	r	n/a
428.6755	0.112	857351	keystroke	e	n/a
428.8995	0.152	857799	keystroke	a	n/a
429.1395	0.136	858279	keystroke	d	n/a
429.2915	0.064	858583	keystroke	i	n/a
429.4515	0.1285	858903	keystroke	l	n/a
429.732	0.111	859464	keystroke	y	n/a
430.4835	0.112	860967	keystroke	Key.backspace	n/a
431.0115	0.1115	862023	keystroke	l	n/a
431.715	0.168	863430	keystroke	Key.backspace	n/a
432.308	0.1035	864616	keystroke	y	n/a
432.803	0.136	865606	keystroke	Key.space	n/a
433.203	0.152	866406	keystroke	a	n/a
433.3715	0.0475	866743	keystroke	p	n/a
433.54	0.095	867080	keystroke	p	n/a
433.668	0.1835	867336	keystroke	r	n/a
433.803	0.2	867606	keystroke	e	n/a
434.235	0.16	868470	keystroke	n	n/a
434.468	0.1435	868936	keystroke	t	n/a
434.6595	0.112	869319	keystroke	l	n/a
434.8355	0.128	869671	keystroke	y	n/a
435.0355	0.104	870071	keystroke	Key.space	n/a
435.2355	0.104	870471	keystroke	Key.enter	n/a
435.345	15.052	870690	prompt	n/a	controller tests architectural visit\n
436.1795	0.152	872359	keystroke	c	n/a
436.2915	0.1435	872583	keystroke	o	n/a
436.515	0.1365	873030	keystroke	t	n/a
436.995	0.096	873990	keystroke	Key.backspace	n/a
437.2435	0.1445	874487	keystroke	n	n/a
437.412	0.064	874824	keystroke	t	n/a
437.611	0.089	875222	keystroke	r	n/a
437.7	0.1115	875400	keystroke	o	n/a
437.94	0.0875	875880	keystroke	l	n/a
438.115	0.112	876230	keystroke	l	n/a
438.451	0.2725	876902	keystroke	e	n/a
438.5635	0.2165	877127	keystroke	r	n/a
438.78	0.0955	877560	keystroke	Key.space	n/a
439.1395	0.136	878279	keystroke	t	n/a
439.3715	0.304	878743	keystroke	e	n/a
439.5315	0.224	879063	keystroke	s	n/a
439.7315	0.192	879463	keystroke	t	n/a
439.9875	0.2075	879975	keystroke	s	n/a
440.2115	0.079	880423	keystroke	Key.space	n/a
440.507	0.2245	881014	keystroke	a	n/a
440.6995	0.096	881399	keystroke	r	n/a
440.9955	0.1275	881991	keystroke	c	n/a
441.163	0.12	882326	keystroke	h	n/a
441.299	0.128	882598	keystroke	i	n/a
441.548	0.16	883096	keystroke	t	n/a
441.883	0.1845	883766	keystroke	e	n/a
442.3795	0.128	884759	keystroke	c	n/a
442.667	0.136	885334	keystroke	t	n/a
442.827	0.128	885654	keystroke	u	n/a
442.972	0.151	885944	keystroke	a	n/a
443.1315	0.1515	886263	keystroke	l	n/a
443.3475	0.1355	886695	keystroke	Key.space	n/a
443.844	0.119	887688	keystroke	v	n/a
444.003	0.112	888006	keystroke	i	n/a
444.099	0.161	888198	keystroke	s	n/a
444.483	0.1045	888966	keystroke	i	n/a
446.563	0.1045	893126	keystroke	Key.backspace	n/a
446.771	0.088	893542	keystroke	Key.backspace	n/a
446.9555	0.079	893911	keystroke	Key.backspace	n/a
447.1235	0.08	894247	keystroke	Key.backspace	n/a
447.2915	0.0875	894583	keystroke	Key.backspace	n/a
447.475	0.112	894950	keystroke	Key.backspace	n/a
447.6995	0.0955	895399	keystroke	Key.backspace	n/a
447.939	0.113	895878	keystroke	r	n/a
448.14	0.1515	896280	keystroke	a	n/a
448.2435	0.1675	896487	keystroke	l	n/a
448.435	0.1125	896870	keystroke	Key.space	n/a
448.8275	0.104	897655	keystroke	i	n/a
449.203	0.104	898406	keystroke	Key.backspace	n/a
449.315	0.1045	898630	keystroke	v	n/a
449.5	0.0795	899000	keystroke	i	n/a
449.588	0.0875	899176	keystroke	s	n/a
449.7315	0.104	899463	keystroke	i	n/a
449.9875	0.1595	899975	keystroke	t	n/a
450.099	0.1205	900198	keystroke	Key.space	n/a
450.2915	0.104	900583	keystroke	Key.enter	n/a
450.409	8.5565	900818	prompt	n/a	kills renewal veterans quarters\n
451.116	0.071	902232	keystroke	k	n/a
451.2915	0.0715	902583	keystroke	i	n/a
451.467	0.065	902934	keystroke	l	n/a
451.635	0.104	903270	keystroke	l	n/a
451.715	0.2165	903430	keystroke	s	n/a
451.883	0.1205	903766	keystroke	Key.space	n/a
452.075	0.168	904150	keystroke	r	n/a
452.163	0.153	904326	keystroke	e	n/a
452.3555	0.1125	904711	keystroke	n	n/a
452.484	0.216	904968	keystroke	e	n/a
452.5875	0.136	905175	keystroke	w	n/a
452.8435	0.1355	905687	keystroke	a	n/a
452.987	0.128	905974	keystroke	l	n/a
453.123	0.1045	906246	keystroke	Key.space	n/a
453.4595	0.064	906919	keystroke	v	n/a
453.6275	0.104	907255	keystroke	e	n/a
453.8355	0.104	907671	keystroke	t	n/a
454.0515	0.216	908103	keystroke	e	n/a
454.1955	0.12	908391	keystroke	r	n/a
454.444	0.1675	908888	keystroke	a	n/a
454.6195	0.1045	909239	keystroke	n	n/a
454.772	0.168	909544	keystroke	c	n/a
454.844	0.1755	909688	keystroke	e	n/a
455.339	0.12	910678	keystroke	Key.backspace	n/a
455.475	0.208	910950	keystroke	s	n/a
455.643	0.112	911286	keystroke	Key.space	n/a
455.947	0.0885	911894	keystroke	Key.backspace	n/a
456.1315	0.1125	912263	keystroke	Key.backspace	n/a
456.308	0.1115	912616	keystroke	s	n/a
456.563	0.097	913126	keystroke	Key.backspace	n/a
456.747	0.1045	913494	keystroke	Key.backspace	n/a
456.843	0.2085	913686	keystroke	s	n/a
457.0035	0.136	914007	keystroke	Key.space	n/a
457.604	0.119	915208	keystroke	q	n/a
457.764	0.087	915528	keystroke	u	n/a
457.947	0.201	915894	keystroke	a	n/a
458.06	0.119	916120	keystroke	r	n/a
458.299	0.0805	916598	keystroke	t	n/a
458.4115	0.1925	916823	keystroke	e	n/a
458.5235	0.096	917047	keystroke	r	n/a
458.7	0.1435	917400	keystroke	s	n/a
458.8355	0.128	917671	keystroke	Key.enter	n/a
458.9725	8.424	917945	prompt	n/a	fuel opera requiring volleyball\n
459.6435	0.176	919287	keystroke	f	n/a
459.8035	0.0805	919607	keystroke	u	n/a
460.091	0.129	920182	keystroke	e	n/a
460.212	0.159	920424	keystroke	l	n/a
460.403	0.128	920806	keystroke	Key.space	n/a
460.595	0.1525	921190	keystroke	o	n/a
460.8115	0.16	921623	keystroke	p	n/a
460.931	0.137	921862	keystroke	e	n/a
461.012	0.127	922024	keystroke	r	n/a
461.1795	0.232	922359	keystroke	a	n/a
461.8595	0.1195	923719	keystroke	Key.space	n/a
462.3875	0.216	924775	keystroke	r	n/a
462.531	0.1845	925062	keystroke	e	n/a
462.6755	0.128	925351	keystroke	q	n/a
462.844	0.1915	925688	keystroke	u	n/a
463.0835	0.184	926167	keystroke	i	n/a
464.0515	0.1275	928103	keystroke	r	n/a
464.275	0.1125	928550	keystroke	i	n/a
464.451	0.16	928902	keystroke	n	n/a
464.563	0.1685	929126	keystroke	g	n/a
464.7075	0.1035	929415	keystroke	Key.space	n/a
465.4035	0.1755	930807	keystroke	v	n/a
465.6675	0.088	931335	keystroke	o	n/a
465.8915	0.064	931783	keystroke	l	n/a
466.0595	0.112	932119	keystroke	l	n/a
466.1955	0.136	932391	keystroke	e	n/a
466.3475	0.1115	932695	keystroke	y	n/a
466.523	0.1445	933046	keystroke	b	n/a
466.715	0.112	933430	keystroke	a	n/a
466.835	0.0565	933670	keystroke	l	n/a
466.9875	0.12	933975	keystroke	l	n/a
467.1635	0.1115	934327	keystroke	Key.space	n/a
467.275	0.12	934550	keystroke	Key.enter	n/a
467.4025	6.635	934805	prompt	n/a	equations belongs styles registration\n
468.1235	0.1835	936247	keystroke	e	n/a
468.291	0.1605	936582	keystroke	q	n/a
468.443	0.1205	936886	keystroke	u	n/a
468.6515	0.112	937303	keystroke	a	n/a
468.8915	0.128	937783	keystroke	t	n/a
468.9875	0.096	937975	keystroke	i	n/a
469.0755	0.192	938151	keystroke	o	n/a
469.187	0.176	938374	keystroke	n	n/a
469.308	0.183	938616	keystroke	s	n/a
469.4355	0.1035	938871	keystroke	Key.space	n/a
469.6435	0.0885	939287	keystroke	b	n/a
469.8195	0.1205	939639	keystroke	e	n/a
469.924	0.0635	939848	keystroke	l	n/a
470.1	0.1035	940200	keystroke	o	n/a
470.2595	0.136	940519	keystroke	n	n/a
470.3395	0.176	940679	keystroke	g	n/a
470.4755	0.16	940951	keystroke	s	n/a
470.6665	0.057	941333	keystroke	Key.space	n/a
470.8995	0.12	941799	keystroke	s	n/a
471.06	0.1515	942120	keystroke	t	n/a
471.1635	0.112	942327	keystroke	y	n/a
471.4035	0.1435	942807	keystroke	l	n/a
471.5315	0.304	943063	keystroke	e	n/a
471.6595	0.2075	943319	keystroke	s	n/a
471.819	0.136	943638	keystroke	Key.space	n/a
472.0995	0.1755	944199	keystroke	r	n/a
472.2035	0.1195	944407	keystroke	e	n/a
472.467	0.12	944934	keystroke	g	n/a
472.684	0.1115	945368	keystroke	i	n/a
472.764	0.199	945528	keystroke	s	n/a
472.923	0.096	945846	keystroke	t	n/a
473.115	0.1045	946230	keystroke	r	n/a
473.252	0.112	946504	keystroke	a	n/a
473.387	0.1355	946774	keystroke	t	n/a
473.4675	0.0795	946935	keystroke	i	n/a
473.539	0.1445	947078	keystroke	o	n/a
473.6515	0.1275	947303	keystroke	n	n/a
473.811	0.0805	947622	keystroke	Key.space	n/a
473.963	0.072	947926	keystroke	Key.enter	n/a
474.0415	7.8585	948083	prompt	n/a	began institutions shared escape\n
474.732	0.0955	949464	keystroke	b	n/a
474.8995	0.112	949799	keystroke	e	n/a
475.1395	0.1205	950279	keystroke	g	n/a
475.2755	0.104	950551	keystroke	a	n/a
475.4035	0.1365	950807	keystroke	n	n/a
475.595	0.112	951190	keystroke	Key.space	n/a
476.2115	0.088	952423	keystroke	i	n/a
476.3715	0.1435	952743	keystroke	n	n/a
476.475	0.2	952950	keystroke	s	n/a
477.491	0.12	954982	keystroke	t	n/a
477.6675	0.104	955335	keystroke	i	n/a
477.8835	0.136	955767	keystroke	t	n/a
478.0675	0.112	956135	keystroke	u	n/a
478.2755	0.119	956551	keystroke	t	n/a
478.3475	0.136	956695	keystroke	i	n/a
478.5395	0.1195	957079	keystroke	o	n/a
478.5625	0.1685	957125	keystroke	n	n/a
478.707	0.2155	957414	keystroke	s	n/a
478.8585	0.136	957717	keystroke	Key.space	n/a
479.379	0.12	958758	keystroke	s	n/a
479.507	0.112	959014	keystroke	h	n/a
479.627	0.216	959254	keystroke	a	n/a
479.755	0.184	959510	keystroke	r	n/a
479.875	0.096	959750	keystroke	e	n/a
480.083	0.176	960166	keystroke	d	n/a
480.235	0.104	960470	keystroke	Key.space	n/a
480.4675	0.1115	960935	keystroke	e	n/a
480.691	0.152	961382	keystroke	s	n/a
481.0195	0.2315	962039	keystroke	c	n/a
481.179	0.176	962358	keystroke	a	n/a
481.4035	0.127	962807	keystroke	p	n/a
481.571	0.1915	963142	keystroke	e	n/a
481.715	0.1035	963430	keystroke	Key.space	n/a
481.803	0.0955	963606	keystroke	Key.enter	n/a
481.9035	7.0445	963807	prompt	n/a	christine respondents should memo\n
482.9635	0.1435	965927	keystroke	c	n/a
483.147	0.1125	966294	keystroke	h	n/a
483.4265	0.152	966853	keystroke	r	n/a
483.6665	0.1045	967333	keystroke	i	n/a
483.819	0.192	967638	keystroke	s	n/a
484.019	0.12	968038	keystroke	t	n/a
484.107	0.064	968214	keystroke	i	n/a
484.2435	0.1355	968487	keystroke	n	n/a
484.323	0.1765	968646	keystroke	e	n/a
484.459	0.104	968918	keystroke	Key.space	n/a
484.731	0.176	969462	keystroke	r	n/a
484.835	0.128	969670	keystroke	e	n/a
485.0835	0.1515	970167	keystroke	s	n/a
485.275	0.112	970550	keystroke	p	n/a
485.843	0.12	971686	keystroke	o	n/a
485.979	0.192	971958	keystroke	n	n/a
486.1635	0.127	972327	keystroke	d	n/a
486.3945	0.105	972789	keystroke	e	n/a
486.483	0.1205	972966	keystroke	n	n/a
486.587	0.104	973174	keystroke	t	n/a
486.779	0.2165	973558	keystroke	s	n/a
486.955	0.12	973910	keystroke	Key.space	n/a
487.187	0.128	974374	keystroke	s	n/a
487.331	0.112	974662	keystroke	h	n/a
487.452	0.159	974904	keystroke	o	n/a
487.555	0.12	975110	keystroke	u	n/a
487.795	0.144	975590	keystroke	l	n/a
487.867	0.2165	975734	keystroke	d	n/a
488.027	0.104	976054	keystroke	Key.space	n/a
488.179	0.104	976358	keystroke	m	n/a
488.299	0.1195	976598	keystroke	e	n/a
488.3945	0.128	976789	keystroke	m	n/a
488.539	0.1445	977078	keystroke	o	n/a
488.731	0.104	977462	keystroke	Key.space	n/a
488.859	0.088	977718	keystroke	Key.enter	n/a
488.954	19.718	977908	prompt	n/a	shelter birmingham acrylic situated\n
489.707	0.16	979414	keystroke	s	n/a
489.867	0.104	979734	keystroke	h	n/a
489.995	0.1675	979990	keystroke	e	n/a
490.1545	0.152	980309	keystroke	l	n/a
490.3865	0.1045	980773	keystroke	f	n/a
490.611	0.1365	981222	keystroke	t	n/a
490.8345	0.2	981669	keystroke	e	n/a
490.939	0.1515	981878	keystroke	r	n/a
491.0425	0.104	982085	keystroke	Key.space	n/a
492.363	0.087	984726	keystroke	Key.backspace	n/a
492.546	0.0645	985092	keystroke	Key.backspace	n/a
492.699	0.087	985398	keystroke	Key.backspace	n/a
492.875	0.152	985750	keystroke	Key.backspace	n/a
493.195	0.112	986390	keystroke	Key.backspace	n/a
493.4435	0.1355	986887	keystroke	t	n/a
493.851	0.264	987702	keystroke	e	n/a
494.0025	0.16	988005	keystroke	r	n/a
494.4505	0.1765	988901	keystroke	Key.space	n/a
494.89	0.129	989780	keystroke	b	n/a
495.154	0.129	990308	keystroke	i	n/a
495.347	0.144	990694	keystroke	r	n/a
495.578	0.113	991156	keystroke	m	n/a
495.81	0.073	991620	keystroke	i	n/a
495.9305	0.1445	991861	keystroke	n	n/a
496.2345	0.1125	992469	keystroke	h	n/a
496.387	0.119	992774	keystroke	a	n/a
496.5385	0.1275	993077	keystroke	m	n/a
496.738	0.112	993476	keystroke	Key.space	n/a
497.2825	0.1285	994565	keystroke	a	n/a
497.6745	0.1285	995349	keystroke	c	n/a
497.979	0.136	995958	keystroke	r	n/a
498.171	0.1195	996342	keystroke	y	n/a
498.4835	0.207	996967	keystroke	l	n/a
498.643	0.1275	997286	keystroke	i	n/a
498.859	0.144	997718	keystroke	c	n/a
499.1545	0.136	998309	keystroke	Key.space	n/a
499.435	0.1435	998870	keystroke	s	n/a
499.5795	0.1745	999159	keystroke	i	n/a
499.826	0.144	999652	keystroke	t	n/a
500.01	0.1045	1000020	keystroke	u	n/a
500.147	0.1195	1000294	keystroke	a	n/a
500.354	0.185	1000708	keystroke	t	n/a
500.515	0.112	1001030	keystroke	e	n/a
500.763	0.144	1001526	keystroke	d	n/a
500.875	0.112	1001750	keystroke	Key.space	n/a
503.819	0.111	1007638	keystroke	Key.left	n/a
504.0265	0.08	1008053	keystroke	Key.left	n/a
505.946	0.104	1011892	keystroke	Key.left	n/a
506.122	0.096	1012244	keystroke	Key.left	n/a
506.3145	0.0875	1012629	keystroke	Key.left	n/a
506.49	0.088	1012980	keystroke	Key.left	n/a
506.6575	0.12	1013315	keystroke	Key.left	n/a
507.186	0.1435	1014372	keystroke	Key.left	n/a
508.2705	0.152	1016541	keystroke	g	n/a
508.5425	0.128	1017085	keystroke	Key.enter	n/a
508.677	10.604	1017354	prompt	n/a	fabric babe recommended harley\n
509.7105	0.184	1019421	keystroke	f	n/a
509.95	0.1605	1019900	keystroke	a	n/a
510.302	0.1045	1020604	keystroke	b	n/a
510.5345	0.0955	1021069	keystroke	r	n/a
510.6625	0.0875	1021325	keystroke	i	n/a
510.7985	0.152	1021597	keystroke	c	n/a
510.9905	0.136	1021981	keystroke	Key.space	n/a
511.3825	0.136	1022765	keystroke	b	n/a
511.5265	0.0875	1023053	keystroke	a	n/a
511.8705	0.12	1023741	keystroke	b	n/a
512.0305	0.208	1024061	keystroke	e	n/a
512.1585	0.16	1024317	keystroke	Key.space	n/a
512.83	0.1365	1025660	keystroke	r	n/a
512.926	0.112	1025852	keystroke	e	n/a
513.126	0.1125	1026252	keystroke	c	n/a
513.2225	0.103	1026445	keystroke	o	n/a
513.3905	0.096	1026781	keystroke	m	n/a
513.5735	0.073	1027147	keystroke	m	n/a
513.7025	0.096	1027405	keystroke	m	n/a
513.7905	0.127	1027581	keystroke	e	n/a
513.9255	0.1045	1027851	keystroke	n	n/a
514.062	0.096	1028124	keystroke	d	n/a
514.246	0.088	1028492	keystroke	e	n/a
514.4465	0.1835	1028893	keystroke	d	n/a
514.582	0.144	1029164	keystroke	Key.space	n/a
515.822	0.12	1031644	keystroke	Key.backspace	n/a
516.142	0.096	1032284	keystroke	Key.backspace	n/a
516.334	0.08	1032668	keystroke	Key.backspace	n/a
516.51	0.064	1033020	keystroke	Key.backspace	n/a
516.662	0.072	1033324	keystroke	Key.backspace	n/a
516.822	0.072	1033644	keystroke	Key.backspace	n/a
516.9815	0.104	1033963	keystroke	Key.backspace	n/a
517.1345	0.136	1034269	keystroke	e	n/a
517.2865	0.136	1034573	keystroke	n	n/a
517.4305	0.12	1034861	keystroke	d	n/a
517.6705	0.0955	1035341	keystroke	e	n/a
517.8705	0.176	1035741	keystroke	d	n/a
518.0225	0.12	1036045	keystroke	Key.space	n/a
518.294	0.104	1036588	keystroke	h	n/a
518.422	0.184	1036844	keystroke	a	n/a
518.542	0.128	1037084	keystroke	r	n/a
518.6945	0.096	1037389	keystroke	l	n/a
518.7825	0.184	1037565	keystroke	e	n/a
518.8865	0.128	1037773	keystroke	y	n/a
519.022	0.096	1038044	keystroke	Key.space	n/a
519.182	0.096	1038364	keystroke	Key.enter	n/a
519.2855	9.0425	1038571	prompt	n/a	dakota alarm casual intend\n
520.0295	0.1525	1040059	keystroke	d	n/a
520.278	0.1205	1040556	keystroke	a	n/a
520.7825	0.096	1041565	keystroke	k	n/a
520.9585	0.1435	1041917	keystroke	o	n/a
521.142	0.1205	1042284	keystroke	t	n/a
521.382	0.168	1042764	keystroke	a	n/a
521.558	0.128	1043116	keystroke	Key.space	n/a
522.5585	0.16	1045117	keystroke	a	n/a
522.7665	0.144	1045533	keystroke	l	n/a
523.2295	0.224	1046459	keystroke	a	n/a
523.3665	0.135	1046733	keystroke	r	n/a
523.542	0.136	1047084	keystroke	m	n/a
523.734	0.112	1047468	keystroke	Key.space	n/a
524.3975	0.16	1048795	keystroke	c	n/a
524.5735	0.129	1049147	keystroke	a	n/a
524.7185	0.16	1049437	keystroke	s	n/a
524.9585	0.104	1049917	keystroke	u	n/a
525.1425	0.144	1050285	keystroke	a	n/a
525.2705	0.167	1050541	keystroke	l	n/a
525.3975	0.1285	1050795	keystroke	Key.space	n/a
525.6305	0.0715	1051261	keystroke	i	n/a
525.774	0.136	1051548	keystroke	n	n/a
525.9265	0.168	1051853	keystroke	t	n/a
526.054	0.0885	1052108	keystroke	e	n/a
526.2625	0.104	1052525	keystroke	d	n/a
526.3665	0.12	1052733	keystroke	n	n/a
526.4945	0.1675	1052989	keystroke	d	n/a
526.622	0.128	1053244	keystroke	Key.space	n/a
527.07	0.096	1054140	keystroke	Key.backspace	n/a
527.2465	0.0795	1054493	keystroke	Key.backspace	n/a
527.414	0.064	1054828	keystroke	Key.backspace	n/a
527.566	0.096	1055132	keystroke	Key.backspace	n/a
527.814	0.1525	1055628	keystroke	n	n/a
527.9025	0.1995	1055805	keystroke	d	n/a
528.0545	0.1195	1056109	keystroke	Key.space	n/a
528.2225	0.104	1056445	keystroke	Key.enter	n/a
528.333	7.7635	1056666	prompt	n/a	covering rides unknown somehow\n
529.126	0.168	1058252	keystroke	c	n/a
529.326	0.128	1058652	keystroke	o	n/a
529.494	0.096	1058988	keystroke	v	n/a
529.678	0.2395	1059356	keystroke	e	n/a
529.8225	0.119	1059645	keystroke	r	n/a
529.9575	0.08	1059915	keystroke	i	n/a
530.11	0.1525	1060220	keystroke	n	n/a
530.2145	0.176	1060429	keystroke	g	n/a
530.3415	0.1125	1060683	keystroke	Key.space	n/a
530.5585	0.128	1061117	keystroke	r	n/a
530.6705	0.103	1061341	keystroke	i	n/a
530.9025	0.072	1061805	keystroke	d	n/a
531.103	0.271	1062206	keystroke	e	n/a
531.238	0.208	1062476	keystroke	s	n/a
531.398	0.1205	1062796	keystroke	Key.space	n/a
531.5985	0.064	1063197	keystroke	u	n/a
531.79	0.0965	1063580	keystroke	n	n/a
532.006	0.104	1064012	keystroke	k	n/a
532.1425	0.1835	1064285	keystroke	n	n/a
532.318	0.2405	1064636	keystroke	e	n/a
533.014	0.12	1066028	keystroke	Key.backspace	n/a
533.326	0.12	1066652	keystroke	o	n/a
533.4625	0.2315	1066925	keystroke	w	n/a
533.9425	0.104	1067885	keystroke	n	n/a
534.1265	0.1115	1068253	keystroke	Key.space	n/a
534.5665	0.144	1069133	keystroke	s	n/a
534.7105	0.08	1069421	keystroke	o	n/a
534.8705	0.12	1069741	keystroke	m	n/a
535.0065	0.12	1070013	keystroke	e	n/a
535.1185	0.104	1070237	keystroke	h	n/a
535.2305	0.136	1070461	keystroke	o	n/a
535.3345	0.1845	1070669	keystroke	w	n/a
535.4465	0.135	1070893	keystroke	Key.space	n/a
535.9345	0.1595	1071869	keystroke	Key.enter	n/a
536.1135	10.422	1072227	prompt	n/a	meters fisher mineral pathology\n
536.7825	0.1435	1073565	keystroke	m	n/a
536.902	0.128	1073804	keystroke	e	n/a
537.1185	0.12	1074237	keystroke	t	n/a
537.2785	0.1835	1074557	keystroke	e	n/a
537.398	0.104	1074796	keystroke	r	n/a
537.598	0.232	1075196	keystroke	s	n/a
537.8065	0.0955	1075613	keystroke	Key.space	n/a
538.054	0.128	1076108	keystroke	i	n/a
538.974	0.1605	1077948	keystroke	f	n/a
539.35	0.1035	1078700	keystroke	Key.backspace	n/a
539.5255	0.112	1079051	keystroke	Key.backspace	n/a
539.718	0.1435	1079436	keystroke	f	n/a
539.8625	0.1675	1079725	keystroke	i	n/a
540.046	0.12	1080092	keystroke	s	n/a
540.1575	0.128	1080315	keystroke	h	n/a
540.3175	0.2805	1080635	keystroke	e	n/a
540.4625	0.2235	1080925	keystroke	r	n/a
540.662	0.12	1081324	keystroke	Key.space	n/a
540.9745	0.1115	1081949	keystroke	m	n/a
541.1345	0.056	1082269	keystroke	i	n/a
541.238	0.1525	1082476	keystroke	n	n/a
541.534	0.168	1083068	keystroke	e	n/a
541.63	0.1205	1083260	keystroke	r	n/a
541.814	0.16	1083628	keystroke	a	n/a
541.9585	0.143	1083917	keystroke	l	n/a
542.1025	0.103	1084205	keystroke	Key.space	n/a
542.3495	0.161	1084699	keystroke	p	n/a
542.5425	0.144	1085085	keystroke	a	n/a
543.518	0.1595	1087036	keystroke	t	n/a
543.6855	0.161	1087371	keystroke	h	n/a
543.99	0.1035	1087980	keystroke	o	n/a
544.2305	0.0715	1088461	keystroke	l	n/a
544.3975	0.1445	1088795	keystroke	o	n/a
544.982	0.1925	1089964	keystroke	f	n/a
545.598	0.088	1091196	keystroke	Key.backspace	n/a
545.7905	0.1195	1091581	keystroke	g	n/a
545.918	0.112	1091836	keystroke	y	n/a
546.4135	0.12	1092827	keystroke	Key.enter	n/a
546.5395	20.7805	1093079	prompt	n/a	impaired period renewal expressed\n
547.326	0.0725	1094652	keystroke	i	n/a
547.486	0.152	1094972	keystroke	m	n/a
547.7105	0.1755	1095421	keystroke	p	n/a
547.91	0.2725	1095820	keystroke	a	n/a
548.03	0.2485	1096060	keystroke	r	n/a
548.1505	0.16	1096301	keystroke	e	n/a
548.4545	0.215	1096909	keystroke	d	n/a
548.6215	0.145	1097243	keystroke	Key.space	n/a
549.0945	0.152	1098189	keystroke	p	n/a
549.1985	0.2	1098397	keystroke	e	n/a
549.2945	0.176	1098589	keystroke	r	n/a
549.4385	0.1035	1098877	keystroke	i	n/a
549.6225	0.136	1099245	keystroke	o	n/a
549.742	0.264	1099484	keystroke	d	n/a
549.95	0.1435	1099900	keystroke	Key.space	n/a
553.374	0.072	1106748	keystroke	Key.left	n/a
553.542	0.072	1107084	keystroke	Key.left	n/a
553.7015	0.072	1107403	keystroke	Key.left	n/a
553.8615	0.064	1107723	keystroke	Key.left	n/a
554.0135	0.065	1108027	keystroke	Key.left	n/a
554.1665	0.0715	1108333	keystroke	Key.left	n/a
554.326	0.072	1108652	keystroke	Key.left	n/a
554.486	0.072	1108972	keystroke	Key.left	n/a
554.654	0.064	1109308	keystroke	Key.left	n/a
554.8215	0.056	1109643	keystroke	Key.left	n/a
554.982	0.0715	1109964	keystroke	Key.left	n/a
555.894	0.072	1111788	keystroke	i	n/a
559.758	0.312	1119516	keystroke	e	n/a
559.926	0.136	1119852	keystroke	w	n/a
560.246	0.104	1120492	keystroke	=	n/a
560.462	0.104	1120924	keystroke	Key.backspace	n/a
560.7265	0.2	1121453	keystroke	r	n/a
560.854	0.1365	1121708	keystroke	e	n/a
561.3745	0.1355	1122749	keystroke	n	n/a
561.526	0.176	1123052	keystroke	e	n/a
561.9655	0.08	1123931	keystroke	Key.backspace	n/a
562.1415	0.0725	1124283	keystroke	Key.backspace	n/a
562.3025	0.0715	1124605	keystroke	Key.backspace	n/a
562.4615	0.0645	1124923	keystroke	Key.backspace	n/a
562.606	0.08	1125212	keystroke	Key.backspace	n/a
562.774	0.104	1125548	keystroke	Key.backspace	n/a
563.7255	0.201	1127451	keystroke	r	n/a
563.8385	0.16	1127677	keystroke	e	n/a
564.062	0.1285	1128124	keystroke	n	n/a
564.1905	0.3115	1128381	keystroke	e	n/a
564.398	0.2085	1128796	keystroke	w	n/a
564.934	0.16	1129868	keystroke	a	n/a
565.086	0.128	1130172	keystroke	l	n/a
565.238	0.144	1130476	keystroke	Key.space	n/a
565.646	0.104	1131292	keystroke	e	n/a
565.8775	0.136	1131755	keystroke	x	n/a
566.0295	0.1045	1132059	keystroke	p	n/a
566.1815	0.1765	1132363	keystroke	r	n/a
566.3105	0.087	1132621	keystroke	e	n/a
566.55	0.088	1133100	keystroke	s	n/a
566.7495	0.152	1133499	keystroke	s	n/a
566.8775	0.088	1133755	keystroke	e	n/a
567.0535	0.1605	1134107	keystroke	d	n/a
567.206	0.112	1134412	keystroke	Key.enter	n/a
567.3235	13.548	1134647	prompt	n/a	vacuum philips reviewing beneath\n
568.1025	0.16	1136205	keystroke	v	n/a
568.3185	0.0715	1136637	keystroke	a	n/a
568.518	0.184	1137036	keystroke	c	n/a
568.702	0.0715	1137404	keystroke	u	n/a
568.9415	0.0885	1137883	keystroke	m	n/a
569.318	0.119	1138636	keystroke	Key.backspace	n/a
569.597	0.065	1139194	keystroke	u	n/a
569.805	0.121	1139610	keystroke	m	n/a
570.038	0.144	1140076	keystroke	Key.space	n/a
570.294	0.096	1140588	keystroke	p	n/a
570.438	0.1515	1140876	keystroke	h	n/a
570.686	0.112	1141372	keystroke	i	n/a
570.91	0.224	1141820	keystroke	l	n/a
571.142	0.104	1142284	keystroke	i	n/a
571.414	0.1365	1142828	keystroke	p	n/a
571.686	0.223	1143372	keystroke	s	n/a
571.861	0.129	1143722	keystroke	Key.space	n/a
572.2775	0.176	1144555	keystroke	r	n/a
572.406	0.1195	1144812	keystroke	e	n/a
572.654	0.119	1145308	keystroke	v	n/a
572.838	0.119	1145676	keystroke	i	n/a
572.942	0.232	1145884	keystroke	e	n/a
574.254	0.1285	1148508	keystroke	w	n/a
577.702	0.0715	1155404	keystroke	i	n/a
577.846	0.136	1155692	keystroke	n	n/a
577.974	0.167	1155948	keystroke	g	n/a
578.134	0.127	1156268	keystroke	Key.space	n/a
579.03	0.096	1158060	keystroke	b	n/a
579.2055	0.1845	1158411	keystroke	e	n/a
579.446	0.112	1158892	keystroke	n	n/a
579.5655	0.152	1159131	keystroke	e	n/a
579.974	0.144	1159948	keystroke	a	n/a
580.35	0.119	1160700	keystroke	t	n/a
580.446	0.112	1160892	keystroke	h	n/a
580.574	0.112	1161148	keystroke	Key.space	n/a
580.75	0.12	1161500	keystroke	Key.enter	n/a
580.8755	6.964	1161751	prompt	n/a	winds testimony mounts generic\n
581.734	0.136	1163468	keystroke	w	n/a
581.846	0.064	1163692	keystroke	i	n/a
581.966	0.144	1163932	keystroke	n	n/a
582.07	0.248	1164140	keystroke	d	n/a
582.2135	0.208	1164427	keystroke	s	n/a
582.3895	0.12	1164779	keystroke	Key.space	n/a
582.6855	0.1685	1165371	keystroke	t	n/a
582.79	0.136	1165580	keystroke	e	n/a
583.0215	0.176	1166043	keystroke	s	n/a
583.1975	0.144	1166395	keystroke	t	n/a
583.3895	0.08	1166779	keystroke	i	n/a
583.5895	0.1605	1167179	keystroke	m	n/a
583.886	0.064	1167772	keystroke	o	n/a
584.006	0.104	1168012	keystroke	n	n/a
584.2375	0.112	1168475	keystroke	y	n/a
584.422	0.0955	1168844	keystroke	Key.space	n/a
584.8455	0.1525	1169691	keystroke	m	n/a
585.0375	0.1605	1170075	keystroke	o	n/a
585.126	0.104	1170252	keystroke	u	n/a
585.3335	0.12	1170667	keystroke	n	n/a
585.4695	0.08	1170939	keystroke	t	n/a
585.646	0.2075	1171292	keystroke	s	n/a
585.814	0.0795	1171628	keystroke	Key.space	n/a
586.1415	0.1285	1172283	keystroke	g	n/a
586.4375	0.16	1172875	keystroke	e	n/a
586.6855	0.104	1173371	keystroke	n	n/a
586.7975	0.2085	1173595	keystroke	e	n/a
586.8935	0.1525	1173787	keystroke	r	n/a
587.197	0.104	1174394	keystroke	i	n/a
587.3415	0.1525	1174683	keystroke	c	n/a
587.6055	0.104	1175211	keystroke	Key.space	n/a
587.734	0.1035	1175468	keystroke	Key.enter	n/a
587.844	4.5555	1175688	prompt	n/a	intel fork keeps door\n
588.5575	0.064	1177115	keystroke	i	n/a
588.6855	0.144	1177371	keystroke	n	n/a
588.7895	0.168	1177579	keystroke	t	n/a
588.9175	0.16	1177835	keystroke	e	n/a
589.0535	0.1445	1178107	keystroke	l	n/a
589.189	0.0805	1178378	keystroke	Key.space	n/a
589.382	0.104	1178764	keystroke	f	n/a
589.494	0.111	1178988	keystroke	o	n/a
589.614	0.144	1179228	keystroke	r	n/a
589.782	0.143	1179564	keystroke	k	n/a
589.933	0.1125	1179866	keystroke	Key.space	n/a
590.206	0.128	1180412	keystroke	k	n/a
590.342	0.1035	1180684	keystroke	e	n/a
590.534	0.103	1181068	keystroke	e	n/a
590.685	0.1525	1181370	keystroke	p	n/a
590.8135	0.2395	1181627	keystroke	s	n/a
591.0215	0.1045	1182043	keystroke	Key.space	n/a
591.326	0.1355	1182652	keystroke	d	n/a
591.501	0.104	1183002	keystroke	o	n/a
591.886	0.1275	1183772	keystroke	o	n/a
592.0215	0.168	1184043	keystroke	r	n/a
592.1255	0.136	1184251	keystroke	Key.space	n/a
592.325	0.072	1184650	keystroke	Key.enter	n/a
592.404	9.147	1184808	prompt	n/a	raising faster landscape workstation\n
593.2935	0.144	1186587	keystroke	s	n/a
594.005	0.1205	1188010	keystroke	Key.backspace	n/a
594.141	0.1125	1188282	keystroke	r	n/a
594.382	0.1515	1188764	keystroke	a	n/a
594.5095	0.1045	1189019	keystroke	i	n/a
594.7735	0.1755	1189547	keystroke	s	n/a
594.957	0.0805	1189914	keystroke	i	n/a
595.133	0.16	1190266	keystroke	n	n/a
595.2775	0.16	1190555	keystroke	g	n/a
595.429	0.1125	1190858	keystroke	Key.space	n/a
595.8455	0.1685	1191691	keystroke	f	n/a
596.0375	0.1275	1192075	keystroke	a	n/a
596.198	0.2315	1192396	keystroke	s	n/a
596.3895	0.161	1192779	keystroke	t	n/a
596.59	0.223	1193180	keystroke	e	n/a
596.7175	0.1595	1193435	keystroke	r	n/a
596.837	0.104	1193674	keystroke	Key.space	n/a
597.19	0.136	1194380	keystroke	l	n/a
597.301	0.12	1194602	keystroke	a	n/a
597.422	0.1195	1194844	keystroke	n	n/a
597.5735	0.1685	1195147	keystroke	d	n/a
597.669	0.168	1195338	keystroke	s	n/a
597.933	0.136	1195866	keystroke	c	n/a
598.2935	0.1755	1196587	keystroke	a	n/a
598.477	0.144	1196954	keystroke	p	n/a
598.6775	0.2155	1197355	keystroke	e	n/a
598.861	0.104	1197722	keystroke	Key.space	n/a
599.677	0.104	1199354	keystroke	w	n/a
599.8135	0.0725	1199627	keystroke	o	n/a
599.9015	0.08	1199803	keystroke	r	n/a
600.0375	0.128	1200075	keystroke	k	n/a
600.1735	0.144	1200347	keystroke	s	n/a
600.3895	0.0885	1200779	keystroke	t	n/a
600.4935	0.1515	1200987	keystroke	a	n/a
600.613	0.177	1201226	keystroke	t	n/a
600.7815	0.087	1201563	keystroke	i	n/a
600.8775	0.1605	1201755	keystroke	o	n/a
600.9735	0.144	1201947	keystroke	n	n/a
601.4135	0.1355	1202827	keystroke	Key.enter	n/a
601.556	9.163	1203112	prompt	n/a	targets ordinance indexed function\n
602.6455	0.1675	1205291	keystroke	t	n/a
602.949	0.1925	1205898	keystroke	a	n/a
603.046	0.127	1206092	keystroke	r	n/a
603.301	0.0965	1206602	keystroke	g	n/a
603.3655	0.1995	1206731	keystroke	e	n/a
603.565	0.1445	1207130	keystroke	t	n/a
603.7895	0.2235	1207579	keystroke	s	n/a
603.981	0.0875	1207962	keystroke	Key.space	n/a
604.1575	0.144	1208315	keystroke	o	n/a
604.2765	0.0965	1208553	keystroke	r	n/a
604.477	0.1445	1208954	keystroke	d	n/a
604.6535	0.0795	1209307	keystroke	i	n/a
604.7965	0.144	1209593	keystroke	n	n/a
605.0215	0.199	1210043	keystroke	a	n/a
605.2285	0.129	1210457	keystroke	n	n/a
605.3805	0.233	1210761	keystroke	c	n/a
605.4935	0.216	1210987	keystroke	e	n/a
605.661	0.1125	1211322	keystroke	Key.space	n/a
606.0855	0.096	1212171	keystroke	i	n/a
606.2215	0.1515	1212443	keystroke	n	n/a
606.381	0.072	1212762	keystroke	d	n/a
606.549	0.1045	1213098	keystroke	e	n/a
606.7735	0.144	1213547	keystroke	x	n/a
607.0455	0.12	1214091	keystroke	e	n/a
607.2615	0.2	1214523	keystroke	d	n/a
607.4375	0.088	1214875	keystroke	Key.space	n/a
607.8935	0.152	1215787	keystroke	f	n/a
608.0215	0.064	1216043	keystroke	u	n/a
608.197	0.12	1216394	keystroke	n	n/a
608.4055	0.088	1216811	keystroke	c	n/a
608.6215	0.112	1217243	keystroke	t	n/a
608.6535	0.072	1217307	keystroke	i	n/a
608.8135	0.144	1217627	keystroke	n	n/a
609.0375	0.071	1218075	keystroke	Key.space	n/a
609.533	0.0885	1219066	keystroke	Key.backspace	n/a
609.733	0.0635	1219466	keystroke	Key.backspace	n/a
610.182	0.1425	1220364	keystroke	o	n/a
610.309	0.168	1220618	keystroke	n	n/a
610.517	0.096	1221034	keystroke	Key.space	n/a
610.621	0.096	1221242	keystroke	Key.enter	n/a
610.73	8.2205	1221460	prompt	n/a	entered enlarge wiley lighter\n
611.4375	0.1515	1222875	keystroke	e	n/a
611.6055	0.1035	1223211	keystroke	n	n/a
611.7175	0.104	1223435	keystroke	t	n/a
611.8445	0.152	1223689	keystroke	e	n/a
611.9735	0.216	1223947	keystroke	r	n/a
612.109	0.1365	1224218	keystroke	e	n/a
