onset	duration	sample	value	key	prompt_text
8.664	5.084	17328	prompt	n/a	the quick brown fox jumps over a lazy dog\n
9.773	0.027	19546	keystroke_t	t	n/a
9.815	0.09	19630	keystroke_h	h	n/a
9.86	0.09	19720	keystroke_e	e	n/a
9.965	0.0755	19930	keystroke_Key.space	Key.space	n/a
10.0555	0.075	20111	keystroke_q	q	n/a
10.1155	0.12	20231	keystroke_u	u	n/a
10.2055	0.12	20411	keystroke_i	i	n/a
10.3555	0.12	20711	keystroke_c	c	n/a
10.4455	0.0905	20891	keystroke_k	k	n/a
10.506	0.09	21012	keystroke_Key.space	Key.space	n/a
10.671	0.09	21342	keystroke_b	b	n/a
10.761	0.12	21522	keystroke_r	r	n/a
10.866	0.09	21732	keystroke_o	o	n/a
10.941	0.105	21882	keystroke_w	w	n/a
11.031	0.075	22062	keystroke_n	n	n/a
11.076	0.105	22152	keystroke_Key.space	Key.space	n/a
11.166	0.09	22332	keystroke_f	f	n/a
11.241	0.105	22482	keystroke_o	o	n/a
11.361	0.075	22722	keystroke_x	x	n/a
11.421	0.105	22842	keystroke_Key.space	Key.space	n/a
11.556	0.105	23112	keystroke_j	j	n/a
11.721	0.075	23442	keystroke_u	u	n/a
11.916	0.09	23832	keystroke_m	m	n/a
12.021	0.12	24042	keystroke_p	p	n/a
12.126	0.09	24252	keystroke_s	s	n/a
12.185	0.121	24370	keystroke_Key.space	Key.space	n/a
12.276	0.12	24552	keystroke_o	o	n/a
12.335	0.091	24670	keystroke_v	v	n/a
12.455	0.1505	24910	keystroke_e	e	n/a
12.5455	0.1045	25091	keystroke_r	r	n/a
12.651	0.0745	25302	keystroke_Key.space	Key.space	n/a
12.7105	0.1195	25421	keystroke_a	a	n/a
12.815	0.075	25630	keystroke_Key.space	Key.space	n/a
12.905	0.09	25810	keystroke_l	l	n/a
12.965	0.09	25930	keystroke_a	a	n/a
13.13	0.105	26260	keystroke_z	z	n/a
13.205	0.1055	26410	keystroke_y	y	n/a
13.25	0.0755	26500	keystroke_Key.space	Key.space	n/a
13.3265	0.089	26653	keystroke_d	d	n/a
13.4305	0.0905	26861	keystroke_o	o	n/a
13.551	0.075	27102	keystroke_g	g	n/a
13.641	0.105	27282	keystroke_Key.enter	Key.enter	n/a
13.7525	4.045	27505	prompt	n/a	those explosion sticky relocation\n
14.2405	0.075	28481	keystroke_t	t	n/a
14.345	0.076	28690	keystroke_h	h	n/a
14.4655	0.105	28931	keystroke_o	o	n/a
14.5255	0.12	29051	keystroke_s	s	n/a
14.5855	0.09	29171	keystroke_e	e	n/a
14.6305	0.105	29261	keystroke_Key.space	Key.space	n/a
14.7505	0.09	29501	keystroke_e	e	n/a
14.9155	0.09	29831	keystroke_x	x	n/a
14.9905	0.075	29981	keystroke_p	p	n/a
15.0205	0.12	30041	keystroke_l	l	n/a
15.2305	0.09	30461	keystroke_o	o	n/a
15.3655	0.1055	30731	keystroke_s	s	n/a
15.456	0.089	30912	keystroke_i	i	n/a
15.516	0.06	31032	keystroke_o	o	n/a
15.666	0.075	31332	keystroke_n	n	n/a
15.71	0.106	31420	keystroke_Key.space	Key.space	n/a
16.026	0.105	32052	keystroke_s	s	n/a
16.101	0.09	32202	keystroke_t	t	n/a
16.176	0.09	32352	keystroke_i	i	n/a
16.326	0.09	32652	keystroke_c	c	n/a
16.401	0.1045	32802	keystroke_k	k	n/a
16.5205	0.105	33041	keystroke_y	y	n/a
16.6105	0.06	33221	keystroke_Key.space	Key.space	n/a
16.7305	0.1045	33461	keystroke_r	r	n/a
16.79	0.121	33580	keystroke_e	e	n/a
16.865	0.09	33730	keystroke_l	l	n/a
17.075	0.0905	34150	keystroke_o	o	n/a
17.12	0.0905	34240	keystroke_c	c	n/a
17.1655	0.09	34331	keystroke_a	a	n/a
17.3305	0.105	34661	keystroke_t	t	n/a
17.3755	0.09	34751	keystroke_i	i	n/a
17.4505	0.06	34901	keystroke_o	o	n/a
17.5705	0.06	35141	keystroke_n	n	n/a
17.7055	0.09	35411	keystroke_Key.enter	Key.enter	n/a
17.8015	4.766	35603	prompt	n/a	meetings incident description discretion\n
18.561	0.074	37122	keystroke_m	m	n/a
18.621	0.09	37242	keystroke_e	e	n/a
18.771	0.105	37542	keystroke_e	e	n/a
18.83	0.105	37660	keystroke_t	t	n/a
18.921	0.105	37842	keystroke_i	i	n/a
18.981	0.12	37962	keystroke_n	n	n/a
19.041	0.09	38082	keystroke_g	g	n/a
19.071	0.105	38142	keystroke_s	s	n/a
19.146	0.0895	38292	keystroke_Key.space	Key.space	n/a
19.2505	0.105	38501	keystroke_i	i	n/a
19.3255	0.105	38651	keystroke_n	n	n/a
19.4005	0.105	38801	keystroke_c	c	n/a
19.566	0.12	39132	keystroke_i	i	n/a
19.656	0.104	39312	keystroke_d	d	n/a
19.731	0.09	39462	keystroke_e	e	n/a
19.835	0.09	39670	keystroke_n	n	n/a
19.911	0.09	39822	keystroke_t	t	n/a
20.03	0.075	40060	keystroke_Key.space	Key.space	n/a
20.21	0.12	40420	keystroke_d	d	n/a
20.286	0.134	40572	keystroke_e	e	n/a
20.361	0.089	40722	keystroke_s	s	n/a
20.5105	0.075	41021	keystroke_c	c	n/a
20.6905	0.09	41381	keystroke_r	r	n/a
20.7355	0.1195	41471	keystroke_i	i	n/a
20.8255	0.1055	41651	keystroke_p	p	n/a
20.975	0.0905	41950	keystroke_t	t	n/a
21.036	0.105	42072	keystroke_i	i	n/a
21.095	0.076	42190	keystroke_o	o	n/a
21.23	0.091	42460	keystroke_n	n	n/a
21.29	0.12	42580	keystroke_Key.space	Key.space	n/a
21.426	0.074	42852	keystroke_d	d	n/a
21.515	0.09	43030	keystroke_i	i	n/a
21.59	0.075	43180	keystroke_s	s	n/a
21.71	0.091	43420	keystroke_c	c	n/a
21.906	0.074	43812	keystroke_r	r	n/a
21.965	0.12	43930	keystroke_e	e	n/a
22.056	0.104	44112	keystroke_t	t	n/a
22.115	0.091	44230	keystroke_i	i	n/a
22.175	0.061	44350	keystroke_o	o	n/a
22.2955	0.075	44591	keystroke_n	n	n/a
22.4455	0.12	44891	keystroke_Key.enter	Key.enter	n/a
22.571	3.7915	45142	prompt	n/a	desktop basin removable accident\n
23.2705	0.0905	46541	keystroke_d	d	n/a
23.346	0.0595	46692	keystroke_e	e	n/a
23.376	0.0445	46752	keystroke_s	s	n/a
23.391	0.0445	46782	keystroke_k	k	n/a
23.4505	0.09	46901	keystroke_t	t	n/a
23.5555	0.0905	47111	keystroke_o	o	n/a
23.601	0.089	47202	keystroke_p	p	n/a
23.66	0.12	47320	keystroke_Key.space	Key.space	n/a
23.96	0.076	47920	keystroke_b	b	n/a
24.051	0.105	48102	keystroke_a	a	n/a
24.111	0.119	48222	keystroke_s	s	n/a
24.216	0.09	48432	keystroke_i	i	n/a
24.321	0.105	48642	keystroke_n	n	n/a
24.41	0.1055	48820	keystroke_Key.space	Key.space	n/a
24.6955	0.09	49391	keystroke_r	r	n/a
24.7555	0.12	49511	keystroke_e	e	n/a
24.8005	0.105	49601	keystroke_m	m	n/a
24.8605	0.09	49721	keystroke_o	o	n/a
24.965	0.105	49930	keystroke_v	v	n/a
25.025	0.105	50050	keystroke_a	a	n/a
25.205	0.075	50410	keystroke_b	b	n/a
25.295	0.075	50590	keystroke_l	l	n/a
25.355	0.09	50710	keystroke_e	e	n/a
25.43	0.09	50860	keystroke_Key.space	Key.space	n/a
25.565	0.09	51130	keystroke_a	a	n/a
25.595	0.105	51190	keystroke_c	c	n/a
25.775	0.045	51550	keystroke_c	c	n/a
25.85	0.12	51700	keystroke_i	i	n/a
25.925	0.09	51850	keystroke_d	d	n/a
25.985	0.09	51970	keystroke_e	e	n/a
26.045	0.09	52090	keystroke_n	n	n/a
26.15	0.105	52300	keystroke_t	t	n/a
26.27	0.09	52540	keystroke_Key.enter	Key.enter	n/a
26.3655	2.487	52731	prompt	n/a	lovers term step semi\n
26.931	0.09	53862	keystroke_l	l	n/a
27.081	0.09	54162	keystroke_o	o	n/a
27.156	0.105	54312	keystroke_v	v	n/a
27.291	0.15	54582	keystroke_e	e	n/a
27.396	0.105	54792	keystroke_r	r	n/a
27.441	0.12	54882	keystroke_s	s	n/a
27.531	0.09	55062	keystroke_Key.space	Key.space	n/a
27.621	0.0745	55242	keystroke_t	t	n/a
27.7105	0.1195	55421	keystroke_e	e	n/a
27.77	0.12	55540	keystroke_r	r	n/a
27.816	0.12	55632	keystroke_m	m	n/a
27.891	0.075	55782	keystroke_Key.space	Key.space	n/a
28.026	0.09	56052	keystroke_s	s	n/a
28.101	0.074	56202	keystroke_t	t	n/a
28.146	0.12	56292	keystroke_e	e	n/a
28.205	0.136	56410	keystroke_p	p	n/a
28.281	0.089	56562	keystroke_Key.space	Key.space	n/a
28.415	0.135	56830	keystroke_s	s	n/a
28.491	0.105	56982	keystroke_e	e	n/a
28.535	0.121	57070	keystroke_m	m	n/a
28.58	0.09	57160	keystroke_i	i	n/a
28.746	0.104	57492	keystroke_Key.enter	Key.enter	n/a
28.8555	5.9225	57711	prompt	n/a	arab adjacent conversion norton\n
29.541	0.075	59082	keystroke_a	a	n/a
29.766	0.105	59532	keystroke_r	r	n/a
29.811	0.12	59622	keystroke_a	a	n/a
29.886	0.09	59772	keystroke_b	b	n/a
29.961	0.12	59922	keystroke_Key.space	Key.space	n/a
30.1405	0.09	60281	keystroke_a	a	n/a
30.2155	0.1055	60431	keystroke_d	d	n/a
30.321	0.0895	60642	keystroke_j	j	n/a
30.9355	0.09	61871	keystroke_a	a	n/a
31.0405	0.12	62081	keystroke_c	c	n/a
31.1155	0.075	62231	keystroke_a	a	n/a
31.7305	0.0905	63461	keystroke_Key.backspace	Key.backspace	n/a
31.851	0.09	63702	keystroke_e	e	n/a
31.956	0.09	63912	keystroke_n	n	n/a
32.016	0.09	64032	keystroke_t	t	n/a
32.091	0.105	64182	keystroke_Key.space	Key.space	n/a
32.256	0.09	64512	keystroke_v	v	n/a
32.466	0.075	64932	keystroke_o	o	n/a
32.781	0.059	65562	keystroke_Key.backspace	Key.backspace	n/a
32.885	0.09	65770	keystroke_Key.backspace	Key.backspace	n/a
32.991	0.09	65982	keystroke_c	c	n/a
33.05	0.06	66100	keystroke_o	o	n/a
33.125	0.105	66250	keystroke_n	n	n/a
33.2	0.06	66400	keystroke_v	v	n/a
33.32	0.09	66640	keystroke_e	e	n/a
33.365	0.12	66730	keystroke_r	r	n/a
33.455	0.135	66910	keystroke_s	s	n/a
33.56	0.105	67120	keystroke_i	i	n/a
33.62	0.06	67240	keystroke_o	o	n/a
33.785	0.06	67570	keystroke_n	n	n/a
33.8	0.12	67600	keystroke_Key.space	Key.space	n/a
34.04	0.075	68080	keystroke_n	n	n/a
34.145	0.105	68290	keystroke_o	o	n/a
34.22	0.075	68440	keystroke_r	r	n/a
34.355	0.12	68710	keystroke_t	t	n/a
34.43	0.09	68860	keystroke_o	o	n/a
34.55	0.075	69100	keystroke_n	n	n/a
34.685	0.0905	69370	keystroke_Key.enter	Key.enter	n/a
34.7815	6.6855	69563	prompt	n/a	determined congratulations bolivia time\n
35.3305	0.105	70661	keystroke_d	d	n/a
35.4055	0.09	70811	keystroke_e	e	n/a
35.5405	0.105	71081	keystroke_t	t	n/a
35.6305	0.09	71261	keystroke_m	m	n/a
35.6905	0.105	71381	keystroke_i	i	n/a
35.7805	0.1055	71561	keystroke_n	n	n/a
35.8105	0.1055	71621	keystroke_e	e	n/a
36.62	0.075	73240	keystroke_Key.backspace	Key.backspace	n/a
36.785	0.105	73570	keystroke_Key.backspace	Key.backspace	n/a
37.371	0.06	74742	keystroke_Key.backspace	Key.backspace	n/a
37.731	0.09	75462	keystroke_Key.backspace	Key.backspace	n/a
38.016	0.06	76032	keystroke_e	e	n/a
38.061	0.12	76122	keystroke_r	r	n/a
38.166	0.09	76332	keystroke_m	m	n/a
38.211	0.15	76422	keystroke_i	i	n/a
38.346	0.105	76692	keystroke_n	n	n/a
38.406	0.105	76812	keystroke_e	e	n/a
38.451	0.105	76902	keystroke_d	d	n/a
38.526	0.09	77052	keystroke_Key.space	Key.space	n/a
38.721	0.09	77442	keystroke_c	c	n/a
38.751	0.09	77502	keystroke_o	o	n/a
38.901	0.105	77802	keystroke_n	n	n/a
39.021	0.075	78042	keystroke_g	g	n/a
39.201	0.09	78402	keystroke_r	r	n/a
39.246	0.09	78492	keystroke_a	a	n/a
39.411	0.09	78822	keystroke_t	t	n/a
39.471	0.09	78942	keystroke_u	u	n/a
39.576	0.105	79152	keystroke_l	l	n/a
39.666	0.09	79332	keystroke_a	a	n/a
39.696	0.105	79392	keystroke_t	t	n/a
39.771	0.09	79542	keystroke_i	i	n/a
39.831	0.06	79662	keystroke_o	o	n/a
39.951	0.105	79902	keystroke_n	n	n/a
39.996	0.12	79992	keystroke_s	s	n/a
40.071	0.105	80142	keystroke_Key.space	Key.space	n/a
40.221	0.105	80442	keystroke_b	b	n/a
40.281	0.075	80562	keystroke_o	o	n/a
40.461	0.074	80922	keystroke_l	l	n/a
40.52	0.106	81040	keystroke_i	i	n/a
40.656	0.074	81312	keystroke_v	v	n/a
40.746	0.089	81492	keystroke_i	i	n/a
40.82	0.09	81640	keystroke_a	a	n/a
40.911	0.074	81822	keystroke_Key.space	Key.space	n/a
41	0.075	82000	keystroke_t	t	n/a
41.045	0.105	82090	keystroke_i	i	n/a
41.136	0.075	82272	keystroke_m	m	n/a
41.195	0.09	82390	keystroke_e	e	n/a
41.361	0.104	82722	keystroke_Key.enter	Key.enter	n/a
41.473	6.594	82946	prompt	n/a	interfaces karaoke mesh recommends\n
42.066	0.074	84132	keystroke_i	i	n/a
42.156	0.105	84312	keystroke_n	n	n/a
42.2	0.075	84400	keystroke_t	t	n/a
42.29	0.105	84580	keystroke_e	e	n/a
42.35	0.105	84700	keystroke_r	r	n/a
42.771	0.12	85542	keystroke_f	f	n/a
42.861	0.09	85722	keystroke_a	a	n/a
42.996	0.12	85992	keystroke_c	c	n/a
43.071	0.12	86142	keystroke_e	e	n/a
43.131	0.105	86262	keystroke_s	s	n/a
43.176	0.075	86352	keystroke_Key.space	Key.space	n/a
43.3105	0.135	86621	keystroke_k	k	n/a
43.4005	0.195	86801	keystroke_a	a	n/a
43.4605	0.105	86921	keystroke_r	r	n/a
43.5805	0.09	87161	keystroke_o	o	n/a
43.641	0.1045	87282	keystroke_k	k	n/a
45.306	0.075	90612	keystroke_Key.backspace	Key.backspace	n/a
45.4705	0.105	90941	keystroke_Key.backspace	Key.backspace	n/a
45.7405	0.105	91481	keystroke_a	a	n/a
45.8305	0.12	91661	keystroke_o	o	n/a
45.9055	0.12	91811	keystroke_k	k	n/a
46.0105	0.09	92021	keystroke_e	e	n/a
46.0855	0.09	92171	keystroke_Key.space	Key.space	n/a
46.2355	0.09	92471	keystroke_m	m	n/a
46.2805	0.12	92561	keystroke_e	e	n/a
46.3405	0.12	92681	keystroke_s	s	n/a
46.4755	0.09	92951	keystroke_h	h	n/a
46.5355	0.105	93071	keystroke_Key.space	Key.space	n/a
46.7605	0.12	93521	keystroke_r	r	n/a
46.8355	0.105	93671	keystroke_e	e	n/a
47.0155	0.12	94031	keystroke_c	c	n/a
47.0755	0.09	94151	keystroke_o	o	n/a
47.2255	0.09	94451	keystroke_m	m	n/a
47.3755	0.09	94751	keystroke_m	m	n/a
47.5105	0.06	95021	keystroke_e	e	n/a
47.5855	0.09	95171	keystroke_n	n	n/a
47.6605	0.12	95321	keystroke_d	d	n/a
47.7055	0.12	95411	keystroke_s	s	n/a
47.9605	0.105	95921	keystroke_Key.enter	Key.enter	n/a
48.07	3.0575	96140	prompt	n/a	whom sonic agreed phones\n
48.681	0.105	97362	keystroke_w	w	n/a
48.7555	0.075	97511	keystroke_h	h	n/a
48.861	0.0595	97722	keystroke_o	o	n/a
48.9805	0.09	97961	keystroke_m	m	n/a
49.026	0.0895	98052	keystroke_Key.space	Key.space	n/a
49.146	0.09	98292	keystroke_s	s	n/a
49.221	0.0745	98442	keystroke_o	o	n/a
49.3855	0.12	98771	keystroke_n	n	n/a
49.4455	0.105	98891	keystroke_i	i	n/a
49.5655	0.075	99131	keystroke_c	c	n/a
49.6255	0.09	99251	keystroke_Key.space	Key.space	n/a
49.7305	0.075	99461	keystroke_a	a	n/a
49.8355	0.075	99671	keystroke_g	g	n/a
50.0005	0.105	100001	keystroke_r	r	n/a
50.0755	0.075	100151	keystroke_e	e	n/a
50.226	0.1045	100452	keystroke_e	e	n/a
50.2855	0.12	100571	keystroke_d	d	n/a
50.3905	0.06	100781	keystroke_Key.space	Key.space	n/a
50.4805	0.0905	100961	keystroke_p	p	n/a
50.601	0.0745	101202	keystroke_h	h	n/a
50.6905	0.075	101381	keystroke_o	o	n/a
50.7955	0.105	101591	keystroke_n	n	n/a
50.8405	0.135	101681	keystroke_e	e	n/a
50.9155	0.09	101831	keystroke_s	s	n/a
51.0205	0.105	102041	keystroke_Key.enter	Key.enter	n/a
51.13	4.8575	102260	prompt	n/a	proteins enjoy consultancy closely\n
51.8005	0.075	103601	keystroke_p	p	n/a
51.8905	0.105	103781	keystroke_r	r	n/a
52.0105	0.075	104021	keystroke_o	o	n/a
52.1005	0.09	104201	keystroke_t	t	n/a
52.1455	0.1205	104291	keystroke_e	e	n/a
52.236	0.105	104472	keystroke_i	i	n/a
52.295	0.121	104590	keystroke_n	n	n/a
52.356	0.105	104712	keystroke_s	s	n/a
52.446	0.105	104892	keystroke_Key.space	Key.space	n/a
52.596	0.089	105192	keystroke_e	e	n/a
52.686	0.074	105372	keystroke_n	n	n/a
53.12	0.121	106240	keystroke_j	j	n/a
53.4355	0.09	106871	keystroke_o	o	n/a
53.5105	0.0905	107021	keystroke_y	y	n/a
53.616	0.105	107232	keystroke_Key.space	Key.space	n/a
53.841	0.12	107682	keystroke_c	c	n/a
53.901	0.075	107802	keystroke_o	o	n/a
54.036	0.075	108072	keystroke_n	n	n/a
54.2155	0.09	108431	keystroke_s	s	n/a
54.3505	0.105	108701	keystroke_u	u	n/a
54.4255	0.105	108851	keystroke_l	l	n/a
54.6505	0.12	109301	keystroke_t	t	n/a
54.7255	0.105	109451	keystroke_a	a	n/a
54.8155	0.09	109631	keystroke_n	n	n/a
54.9505	0.1055	109901	keystroke_c	c	n/a
55.056	0.075	110112	keystroke_y	y	n/a
55.101	0.105	110202	keystroke_Key.space	Key.space	n/a
55.206	0.09	110412	keystroke_c	c	n/a
55.311	0.06	110622	keystroke_l	l	n/a
55.461	0.075	110922	keystroke_o	o	n/a
55.521	0.09	111042	keystroke_s	s	n/a
55.551	0.105	111102	keystroke_e	e	n/a
55.641	0.075	111282	keystroke_l	l	n/a
55.746	0.09	111492	keystroke_y	y	n/a
55.896	0.09	111792	keystroke_Key.enter	Key.enter	n/a
55.992	6.4455	111984	prompt	n/a	engineer fires mightn't champagne\n
56.6455	0.12	113291	keystroke_e	e	n/a
56.7655	0.09	113531	keystroke_n	n	n/a
56.8705	0.09	113741	keystroke_g	g	n/a
57.2755	0.09	114551	keystroke_i	i	n/a
57.4555	0.075	114911	keystroke_n	n	n/a
57.5605	0.075	115121	keystroke_e	e	n/a
57.71	0.12	115420	keystroke_e	e	n/a
57.785	0.12	115570	keystroke_r	r	n/a
57.89	0.12	115780	keystroke_Key.space	Key.space	n/a
58.16	0.12	116320	keystroke_f	f	n/a
58.34	0.105	116680	keystroke_i	i	n/a
58.415	0.1355	116830	keystroke_r	r	n/a
58.46	0.1655	116920	keystroke_e	e	n/a
58.5205	0.135	117041	keystroke_s	s	n/a
58.5955	0.09	117191	keystroke_Key.space	Key.space	n/a
58.8055	0.12	117611	keystroke_m	m	n/a
59.046	0.105	118092	keystroke_i	i	n/a
59.211	0.1195	118422	keystroke_g	g	n/a
59.3455	0.075	118691	keystroke_h	h	n/a
59.4505	0.09	118901	keystroke_t	t	n/a
59.6605	0.075	119321	keystroke_n	n	n/a
59.9155	0.105	119831	keystroke_'	'	n/a
60.0955	0.09	120191	keystroke_t	t	n/a
60.2005	0.105	120401	keystroke_Key.space	Key.space	n/a
60.3655	0.09	120731	keystroke_c	c	n/a
60.4255	0.09	120851	keystroke_h	h	n/a
60.5305	0.12	121061	keystroke_a	a	n/a
60.6355	0.06	121271	keystroke_m	m	n/a
61.58	0.075	123160	keystroke_p	p	n/a
61.715	0.0905	123430	keystroke_a	a	n/a
61.9255	0.09	123851	keystroke_g	g	n/a
62.0305	0.075	124061	keystroke_n	n	n/a
62.1205	0.12	124241	keystroke_e	e	n/a
62.3005	0.135	124601	keystroke_Key.enter	Key.enter	n/a
62.4405	4.7665	124881	prompt	n/a	players allocated dimension refined\n
62.9905	0.105	125981	keystroke_p	p	n/a
63.0505	0.1195	126101	keystroke_l	l	n/a
63.1255	0.0905	126251	keystroke_a	a	n/a
63.216	0.075	126432	keystroke_y	y	n/a
63.321	0.18	126642	keystroke_e	e	n/a
63.381	0.15	126762	keystroke_r	r	n/a
63.471	0.104	126942	keystroke_s	s	n/a
63.561	0.06	127122	keystroke_Key.space	Key.space	n/a
63.681	0.09	127362	keystroke_a	a	n/a
63.756	0.06	127512	keystroke_l	l	n/a
63.876	0.09	127752	keystroke_l	l	n/a
64.026	0.105	128052	keystroke_o	o	n/a
64.086	0.089	128172	keystroke_c	c	n/a
64.116	0.105	128232	keystroke_a	a	n/a
64.281	0.089	128562	keystroke_t	t	n/a
64.355	0.1505	128710	keystroke_e	e	n/a
64.461	0.1495	128922	keystroke_d	d	n/a
64.5955	0.09	129191	keystroke_Key.space	Key.space	n/a
65.0005	0.075	130001	keystroke_d	d	n/a
65.0455	0.075	130091	keystroke_i	i	n/a
65.2255	0.06	130451	keystroke_m	m	n/a
65.2865	0.1045	130573	keystroke_e	e	n/a
65.8855	0.09	131771	keystroke_n	n	n/a
65.9905	0.12	131981	keystroke_s	s	n/a
66.1255	0.105	132251	keystroke_i	i	n/a
66.1855	0.075	132371	keystroke_o	o	n/a
66.3655	0.075	132731	keystroke_n	n	n/a
66.4105	0.105	132821	keystroke_Key.space	Key.space	n/a
66.5455	0.09	133091	keystroke_r	r	n/a
66.5905	0.105	133181	keystroke_e	e	n/a
66.7405	0.09	133481	keystroke_f	f	n/a
66.7855	0.105	133571	keystroke_i	i	n/a
66.8455	0.09	133691	keystroke_n	n	n/a
66.9205	0.105	133841	keystroke_e	e	n/a
66.9655	0.135	133931	keystroke_d	d	n/a
67.0855	0.12	134171	keystroke_Key.enter	Key.enter	n/a
67.2105	3.732	134421	prompt	n/a	turkey defeat general proved\n
67.7755	0.105	135551	keystroke_t	t	n/a
67.8655	0.105	135731	keystroke_u	u	n/a
67.9705	0.09	135941	keystroke_r	r	n/a
68.0755	0.075	136151	keystroke_k	k	n/a
68.1205	0.12	136241	keystroke_e	e	n/a
68.1955	0.075	136391	keystroke_y	y	n/a
68.3005	0.075	136601	keystroke_Key.space	Key.space	n/a
68.4055	0.1345	136811	keystroke_d	d	n/a
68.495	0.12	136990	keystroke_e	e	n/a
68.645	0.0605	137290	keystroke_f	f	n/a
68.8105	0.075	137621	keystroke_e	e	n/a
68.8555	0.135	137711	keystroke_a	a	n/a
68.9605	0.09	137921	keystroke_t	t	n/a
69.0355	0.12	138071	keystroke_Key.space	Key.space	n/a
69.1705	0.105	138341	keystroke_g	g	n/a
69.2905	0.075	138581	keystroke_e	e	n/a
69.6655	0.075	139331	keystroke_n	n	n/a
69.7255	0.09	139451	keystroke_e	e	n/a
69.7705	0.1355	139541	keystroke_r	r	n/a
69.8605	0.1205	139721	keystroke_a	a	n/a
69.936	0.105	139872	keystroke_l	l	n/a
69.996	0.105	139992	keystroke_Key.space	Key.space	n/a
70.221	0.12	140442	keystroke_p	p	n/a
70.326	0.09	140652	keystroke_r	r	n/a
70.446	0.104	140892	keystroke_o	o	n/a
70.536	0.059	141072	keystroke_v	v	n/a
70.655	0.135	141310	keystroke_e	e	n/a
70.73	0.121	141460	keystroke_d	d	n/a
70.82	0.12	141640	keystroke_Key.enter	Key.enter	n/a
70.9455	5.5915	141891	prompt	n/a	serves task zimbabwe northeast\n
71.6605	0.12	143321	keystroke_s	s	n/a
71.7205	0.105	143441	keystroke_e	e	n/a
71.7655	0.09	143531	keystroke_r	r	n/a
71.9605	0.09	143921	keystroke_v	v	n/a
72.2455	0.12	144491	keystroke_e	e	n/a
72.2905	0.12	144581	keystroke_s	s	n/a
72.4255	0.135	144851	keystroke_Key.space	Key.space	n/a
72.6205	0.09	145241	keystroke_t	t	n/a
72.7105	0.15	145421	keystroke_a	a	n/a
72.8155	0.105	145631	keystroke_s	s	n/a
72.9055	0.09	145811	keystroke_k	k	n/a
72.9655	0.09	145931	keystroke_Key.space	Key.space	n/a
73.3255	0.105	146651	keystroke_z	z	n/a
73.4005	0.075	146801	keystroke_i	i	n/a
73.5805	0.105	147161	keystroke_m	m	n/a
73.8505	0.075	147701	keystroke_b	b	n/a
74.0155	0.075	148031	keystroke_a	a	n/a
74.1205	0.09	148241	keystroke_b	b	n/a
74.9755	0.09	149951	keystroke_w	w	n/a
75.0055	0.12	150011	keystroke_e	e	n/a
75.1105	0.15	150221	keystroke_Key.space	Key.space	n/a
75.3955	0.09	150791	keystroke_n	n	n/a
75.5455	0.12	151091	keystroke_o	o	n/a
75.6505	0.075	151301	keystroke_r	r	n/a
75.8305	0.075	151661	keystroke_t	t	n/a
75.9205	0.09	151841	keystroke_h	h	n/a
76.0405	0.12	152081	keystroke_e	e	n/a
76.1305	0.165	152261	keystroke_a	a	n/a
76.2055	0.15	152411	keystroke_s	s	n/a
76.2805	0.12	152561	keystroke_t	t	n/a
76.4155	0.1195	152831	keystroke_Key.enter	Key.enter	n/a
76.54	3.522	153080	prompt	n/a	intend jade meaning individually\n
77.195	0.09	154390	keystroke_i	i	n/a
77.345	0.105	154690	keystroke_n	n	n/a
77.375	0.105	154750	keystroke_t	t	n/a
77.435	0.105	154870	keystroke_e	e	n/a
77.555	0.105	155110	keystroke_n	n	n/a
77.615	0.12	155230	keystroke_d	d	n/a
77.72	0.075	155440	keystroke_Key.space	Key.space	n/a
77.825	0.12	155650	keystroke_j	j	n/a
77.9	0.105	155800	keystroke_a	a	n/a
77.99	0.105	155980	keystroke_d	d	n/a
78.02	0.1205	156040	keystroke_e	e	n/a
78.08	0.0755	156160	keystroke_Key.space	Key.space	n/a
78.2005	0.12	156401	keystroke_m	m	n/a
78.2755	0.09	156551	keystroke_e	e	n/a
78.3055	0.12	156611	keystroke_a	a	n/a
78.4105	0.0895	156821	keystroke_n	n	n/a
78.4855	0.1195	156971	keystroke_i	i	n/a
78.56	0.105	157120	keystroke_n	n	n/a
78.62	0.09	157240	keystroke_g	g	n/a
78.68	0.12	157360	keystroke_Key.space	Key.space	n/a
78.785	0.09	157570	keystroke_i	i	n/a
78.891	0.119	157782	keystroke_n	n	n/a
78.98	0.09	157960	keystroke_d	d	n/a
79.1	0.1055	158200	keystroke_i	i	n/a
79.2355	0.075	158471	keystroke_v	v	n/a
79.3855	0.09	158771	keystroke_u	u	n/a
79.4905	0.075	158981	keystroke_d	d	n/a
79.5805	0.105	159161	keystroke_a	a	n/a
79.6405	0.06	159281	keystroke_l	l	n/a
79.7455	0.09	159491	keystroke_l	l	n/a
79.8505	0.09	159701	keystroke_y	y	n/a
79.9555	0.105	159911	keystroke_Key.enter	Key.enter	n/a
80.0655	5.7265	160131	prompt	n/a	main universal symphony automobiles\n
80.6305	0.12	161261	keystroke_m	m	n/a
80.7355	0.105	161471	keystroke_a	a	n/a
80.7955	0.1505	161591	keystroke_i	i	n/a
80.901	0.09	161802	keystroke_n	n	n/a
80.961	0.105	161922	keystroke_Key.space	Key.space	n/a
81.111	0.03	162222	keystroke_u	u	n/a
81.5605	0.12	163121	keystroke_n	n	n/a
81.6655	0.0905	163331	keystroke_i	i	n/a
81.741	0.09	163482	keystroke_v	v	n/a
81.906	0.12	163812	keystroke_e	e	n/a
81.951	0.105	163902	keystroke_r	r	n/a
82.131	0.119	164262	keystroke_s	s	n/a
82.206	0.12	164412	keystroke_a	a	n/a
82.221	0.12	164442	keystroke_l	l	n/a
82.31	0.12	164620	keystroke_Key.space	Key.space	n/a
83.09	0.076	166180	keystroke_s	s	n/a
83.241	0.104	166482	keystroke_y	y	n/a
83.315	0.09	166630	keystroke_m	m	n/a
83.526	0.089	167052	keystroke_p	p	n/a
83.63	0.09	167260	keystroke_h	h	n/a
83.735	0.06	167470	keystroke_o	o	n/a
83.826	0.089	167652	keystroke_n	n	n/a
83.885	0.09	167770	keystroke_y	y	n/a
83.99	0.105	167980	keystroke_Key.space	Key.space	n/a
84.2	0.105	168400	keystroke_a	a	n/a
84.32	0.075	168640	keystroke_u	u	n/a
84.41	0.09	168820	keystroke_t	t	n/a
84.5605	0.105	169121	keystroke_o	o	n/a
85.086	0.075	170172	keystroke_m	m	n/a
85.19	0.105	170380	keystroke_o	o	n/a
85.28	0.09	170560	keystroke_b	b	n/a
85.371	0.134	170742	keystroke_i	i	n/a
85.445	0.09	170890	keystroke_l	l	n/a
85.475	0.135	170950	keystroke_e	e	n/a
85.55	0.105	171100	keystroke_s	s	n/a
85.67	0.12	171340	keystroke_Key.enter	Key.enter	n/a
85.795	6.327	171590	prompt	n/a	thompson steady programme nicaragua\n
86.4055	0.1045	172811	keystroke_t	t	n/a
86.4505	0.1055	172901	keystroke_h	h	n/a
86.676	0.165	173352	keystroke_m	m	n/a
86.765	0.15	173530	keystroke_o	o	n/a
87.53	0.046	175060	keystroke_Key.backspace	Key.backspace	n/a
87.635	0.09	175270	keystroke_Key.backspace	Key.backspace	n/a
87.831	0.104	175662	keystroke_o	o	n/a
87.906	0.134	175812	keystroke_m	m	n/a
88.056	0.074	176112	keystroke_p	p	n/a
88.131	0.119	176262	keystroke_s	s	n/a
88.235	0.061	176470	keystroke_o	o	n/a
88.355	0.076	176710	keystroke_n	n	n/a
88.4	0.135	176800	keystroke_Key.space	Key.space	n/a
88.5055	0.0595	177011	keystroke_s	s	n/a
88.595	0.075	177190	keystroke_t	t	n/a
88.745	0.09	177490	keystroke_e	e	n/a
88.79	0.135	177580	keystroke_a	a	n/a
88.91	0.12	177820	keystroke_d	d	n/a
88.955	0.106	177910	keystroke_y	y	n/a
89.015	0.106	178030	keystroke_Key.space	Key.space	n/a
89.286	0.09	178572	keystroke_p	p	n/a
89.361	0.09	178722	keystroke_r	r	n/a
89.466	0.09	178932	keystroke_o	o	n/a
89.556	0.075	179112	keystroke_g	g	n/a
89.706	0.105	179412	keystroke_r	r	n/a
89.751	0.105	179502	keystroke_a	a	n/a
89.871	0.06	179742	keystroke_m	m	n/a
89.991	0.09	179982	keystroke_m	m	n/a
90.051	0.12	180102	keystroke_e	e	n/a
90.156	0.09	180312	keystroke_Key.space	Key.space	n/a
90.456	0.12	180912	keystroke_n	n	n/a
90.591	0.12	181182	keystroke_i	i	n/a
90.786	0.09	181572	keystroke_c	c	n/a
90.831	0.12	181662	keystroke_a	a	n/a
91.011	0.105	182022	keystroke_r	r	n/a
91.191	0.12	182382	keystroke_a	a	n/a
91.311	0.06	182622	keystroke_g	g	n/a
91.386	0.105	182772	keystroke_u	u	n/a
91.476	0.09	182952	keystroke_a	a	n/a
92.016	0.104	184032	keystroke_Key.enter	Key.enter	n/a
92.1255	11.3665	184251	prompt	n/a	exhibitions officially script qualifying\n
92.826	0.06	185652	keystroke_e	e	n/a
93.38	0.09	186760	keystroke_x	x	n/a
93.575	0.105	187150	keystroke_h	h	n/a
93.695	0.1205	187390	keystroke_i	i	n/a
93.8305	0.12	187661	keystroke_b	b	n/a
93.9955	0.105	187991	keystroke_i	i	n/a
94.1155	0.0895	188231	keystroke_t	t	n/a
94.22	0.0905	188440	keystroke_i	i	n/a
94.265	0.0755	188530	keystroke_o	o	n/a
94.4005	0.105	188801	keystroke_n	n	n/a
94.4755	0.09	188951	keystroke_s	s	n/a
94.5655	0.12	189131	keystroke_Key.space	Key.space	n/a
94.7005	0.075	189401	keystroke_o	o	n/a
94.7905	0.075	189581	keystroke_f	f	n/a
94.9105	0.105	189821	keystroke_i	i	n/a
95.0605	0.075	190121	keystroke_c	c	n/a
95.1205	0.09	190241	keystroke_i	i	n/a
95.2255	0.09	190451	keystroke_a	a	n/a
95.3305	0.045	190661	keystroke_l	l	n/a
95.4355	0.075	190871	keystroke_l	l	n/a
95.5255	0.075	191051	keystroke_y	y	n/a
95.6155	0.105	191231	keystroke_Key.space	Key.space	n/a
95.8105	0.105	191621	keystroke_s	s	n/a
96.0055	0.09	192011	keystroke_c	c	n/a
96.6955	0.075	193391	keystroke_Key.backspace	Key.backspace	n/a
96.9355	0.06	193871	keystroke_Key.backspace	Key.backspace	n/a
97.1305	0.075	194261	keystroke_Key.backspace	Key.backspace	n/a
97.37	0.075	194740	keystroke_Key.backspace	Key.backspace	n/a
97.64	0.06	195280	keystroke_Key.backspace	Key.backspace	n/a
97.865	0.075	195730	keystroke_Key.backspace	Key.backspace	n/a
98.105	0.075	196210	keystroke_Key.backspace	Key.backspace	n/a
98.3	0.075	196600	keystroke_Key.backspace	Key.backspace	n/a
98.5555	0.075	197111	keystroke_Key.backspace	Key.backspace	n/a
98.7355	0.09	197471	keystroke_Key.backspace	Key.backspace	n/a
98.9605	0.09	197921	keystroke_f	f	n/a
99.1255	0.105	198251	keystroke_i	i	n/a
99.2455	0.06	198491	keystroke_c	c	n/a
99.3205	0.105	198641	keystroke_i	i	n/a
99.4105	0.09	198821	keystroke_a	a	n/a
99.5155	0.045	199031	keystroke_l	l	n/a
99.6205	0.09	199241	keystroke_l	l	n/a
99.6955	0.09	199391	keystroke_y	y	n/a
99.7865	0.104	199573	keystroke_Key.space	Key.space	n/a
99.9505	0.105	199901	keystroke_s	s	n/a
99.9805	0.105	199961	keystroke_c	c	n/a
100.535	0.09	201070	keystroke_r	r	n/a
100.595	0.1055	201190	keystroke_i	i	n/a
100.6555	0.12	201311	keystroke_p	p	n/a
100.7305	0.105	201461	keystroke_t	t	n/a
100.7905	0.12	201581	keystroke_Key.space	Key.space	n/a
100.9705	0.12	201941	keystroke_q	q	n/a
101.0755	0.09	202151	keystroke_u	u	n/a
101.1805	0.09	202361	keystroke_a	a	n/a
101.2855	0.1205	202571	keystroke_l	l	n/a
102.531	0.09	205062	keystroke_i	i	n/a
102.636	0.075	205272	keystroke_f	f	n/a
102.831	0.09	205662	keystroke_y	y	n/a
102.86	0.12	205720	keystroke_i	i	n/a
102.951	0.12	205902	keystroke_n	n	n/a
103.041	0.089	206082	keystroke_g	g	n/a
103.385	0.106	206770	keystroke_Key.enter	Key.enter	n/a
103.495	9.162	206990	prompt	n/a	arbitration encyclopedia olympic vegetarian\n
104.27	0.09	208540	keystroke_a	a	n/a
104.48	0.0905	208960	keystroke_r	r	n/a
105.1555	0.105	210311	keystroke_b	b	n/a
105.711	0.09	211422	keystroke_i	i	n/a
105.846	0.075	211692	keystroke_t	t	n/a
106.011	0.12	212022	keystroke_r	r	n/a
106.101	0.12	212202	keystroke_a	a	n/a
106.191	0.105	212382	keystroke_t	t	n/a
106.281	0.075	212562	keystroke_i	i	n/a
106.311	0.075	212622	keystroke_o	o	n/a
106.461	0.09	212922	keystroke_n	n	n/a
106.5055	0.1355	213011	keystroke_Key.space	Key.space	n/a
106.656	0.075	213312	keystroke_e	e	n/a
106.746	0.12	213492	keystroke_n	n	n/a
106.956	0.105	213912	keystroke_c	c	n/a
107.241	0.075	214482	keystroke_y	y	n/a
107.48	0.09	214960	keystroke_c	c	n/a
107.66	0.076	215320	keystroke_l	l	n/a
107.8255	0.09	215651	keystroke_o	o	n/a
108.5155	0.075	217031	keystroke_p	p	n/a
108.6055	0.105	217211	keystroke_e	e	n/a
108.6505	0.12	217301	keystroke_d	d	n/a
108.8005	0.075	217601	keystroke_i	i	n/a
108.8905	0.09	217781	keystroke_a	a	n/a
108.9655	0.09	217931	keystroke_Key.space	Key.space	n/a
109.0855	0.09	218171	keystroke_o	o	n/a
109.2955	0.075	218591	keystroke_l	l	n/a
109.3855	0.075	218771	keystroke_y	y	n/a
109.4455	0.0745	218891	keystroke_m	m	n/a
109.61	0.09	219220	keystroke_p	p	n/a
109.685	0.105	219370	keystroke_i	i	n/a
109.775	0.091	219550	keystroke_c	c	n/a
109.85	0.12	219700	keystroke_Key.space	Key.space	n/a
110.885	0.12	221770	keystroke_v	v	n/a
110.975	0.135	221950	keystroke_e	e	n/a
111.23	0.12	222460	keystroke_g	g	n/a
111.305	0.12	222610	keystroke_e	e	n/a
111.875	0.106	223750	keystroke_t	t	n/a
111.996	0.12	223992	keystroke_a	a	n/a
112.071	0.12	224142	keystroke_r	r	n/a
112.176	0.0895	224352	keystroke_i	i	n/a
112.2505	0.105	224501	keystroke_a	a	n/a
112.3255	0.1055	224651	keystroke_n	n	n/a
112.551	0.104	225102	keystroke_Key.enter	Key.enter	n/a
112.662	7.0005	225324	prompt	n/a	crest indicates hash importance\n
113.361	0.105	226722	keystroke_c	c	n/a
113.571	0.134	227142	keystroke_r	r	n/a
113.66	0.166	227320	keystroke_e	e	n/a
113.721	0.09	227442	keystroke_s	s	n/a
113.766	0.104	227532	keystroke_t	t	n/a
113.856	0.075	227712	keystroke_Key.space	Key.space	n/a
113.975	0.121	227950	keystroke_i	i	n/a
114.066	0.119	228132	keystroke_n	n	n/a
114.156	0.09	228312	keystroke_d	d	n/a
114.276	0.089	228552	keystroke_i	i	n/a
114.38	0.075	228760	keystroke_c	c	n/a
117.0075	0.028	234015	keystroke_a	a	n/a
117.0955	0.135	234191	keystroke_t	t	n/a
117.1405	0.18	234281	keystroke_e	e	n/a
117.2455	0.105	234491	keystroke_s	s	n/a
117.3805	0.135	234761	keystroke_Key.space	Key.space	n/a
117.9055	0.075	235811	keystroke_h	h	n/a
117.9655	0.105	235931	keystroke_a	a	n/a
118.0255	0.12	236051	keystroke_s	s	n/a
118.1005	0.105	236201	keystroke_h	h	n/a
118.1605	0.09	236321	keystroke_Key.space	Key.space	n/a
118.3105	0.12	236621	keystroke_i	i	n/a
118.4005	0.0905	236801	keystroke_m	m	n/a
118.5655	0.075	237131	keystroke_p	p	n/a
118.6255	0.09	237251	keystroke_o	o	n/a
118.7005	0.105	237401	keystroke_r	r	n/a
118.895	0.136	237790	keystroke_t	t	n/a
119.001	0.119	238002	keystroke_a	a	n/a
119.18	0.106	238360	keystroke_n	n	n/a
119.27	0.106	238540	keystroke_c	c	n/a
119.315	0.135	238630	keystroke_e	e	n/a
119.555	0.105	239110	keystroke_Key.enter	Key.enter	n/a
119.666	7.4665	239332	prompt	n/a	foundations spies tobago juvenile\n
120.261	0.1045	240522	keystroke_f	f	n/a
120.351	0.105	240702	keystroke_o	o	n/a
120.426	0.075	240852	keystroke_u	u	n/a
120.546	0.105	241092	keystroke_n	n	n/a
120.591	0.09	241182	keystroke_d	d	n/a
120.636	0.105	241272	keystroke_a	a	n/a
120.786	0.105	241572	keystroke_t	t	n/a
120.846	0.075	241692	keystroke_i	i	n/a
120.906	0.06	241812	keystroke_o	o	n/a
121.0105	0.0905	242021	keystroke_n	n	n/a
121.026	0.09	242052	keystroke_s	s	n/a
121.146	0.12	242292	keystroke_Key.space	Key.space	n/a
121.3255	0.075	242651	keystroke_s	s	n/a
121.386	0.0895	242772	keystroke_p	p	n/a
121.4455	0.09	242891	keystroke_i	i	n/a
121.5055	0.1355	243011	keystroke_e	e	n/a
121.566	0.105	243132	keystroke_s	s	n/a
121.6255	0.1355	243251	keystroke_Key.space	Key.space	n/a
121.911	0.089	243822	keystroke_t	t	n/a
122.015	0.075	244030	keystroke_o	o	n/a
122.195	0.09	244390	keystroke_b	b	n/a
122.33	0.105	244660	keystroke_a	a	n/a
122.39	0.135	244780	keystroke_g	g	n/a
122.48	0.1055	244960	keystroke_o	o	n/a
122.54	0.1055	245080	keystroke_Key.space	Key.space	n/a
122.8405	0.135	245681	keystroke_j	j	n/a
123.0055	0.09	246011	keystroke_u	u	n/a
123.2155	0.09	246431	keystroke_n	n	n/a
123.3355	0.105	246671	keystroke_v	v	n/a
123.4105	0.15	246821	keystroke_e	e	n/a
124.4905	0.09	248981	keystroke_Key.backspace	Key.backspace	n/a
124.7005	0.075	249401	keystroke_Key.backspace	Key.backspace	n/a
124.8955	0.06	249791	keystroke_Key.backspace	Key.backspace	n/a
125.2105	0.03	250421	keystroke_Key.backspace	Key.backspace	n/a
125.8105	0.0905	251621	keystroke_u	u	n/a
125.916	0.09	251832	keystroke_v	v	n/a
125.961	0.12	251922	keystroke_e	e	n/a
126.096	0.0745	252192	keystroke_n	n	n/a
126.3505	0.105	252701	keystroke_i	i	n/a
126.3955	0.12	252791	keystroke_l	l	n/a
126.5005	0.1345	253001	keystroke_e	e	n/a
127.0255	0.105	254051	keystroke_Key.enter	Key.enter	n/a
127.137	3.685	254274	prompt	n/a	keeping spice restriction flow\n
127.806	0.09	255612	keystroke_k	k	n/a
127.881	0.06	255762	keystroke_e	e	n/a
128.016	0.09	256032	keystroke_e	e	n/a
128.076	0.075	256152	keystroke_p	p	n/a
128.136	0.045	256272	keystroke_i	i	n/a
128.256	0.12	256512	keystroke_n	n	n/a
128.346	0.09	256692	keystroke_g	g	n/a
128.421	0.1045	256842	keystroke_Key.space	Key.space	n/a
128.5405	0.09	257081	keystroke_s	s	n/a
128.5705	0.09	257141	keystroke_p	p	n/a
128.6455	0.09	257291	keystroke_i	i	n/a
128.7205	0.12	257441	keystroke_c	c	n/a
128.7805	0.135	257561	keystroke_e	e	n/a
128.8555	0.135	257711	keystroke_Key.space	Key.space	n/a
129.0655	0.15	258131	keystroke_r	r	n/a
129.1405	0.1645	258281	keystroke_e	e	n/a
129.2455	0.1355	258491	keystroke_s	s	n/a
129.396	0.134	258792	keystroke_t	t	n/a
129.486	0.105	258972	keystroke_r	r	n/a
129.576	0.119	259152	keystroke_i	i	n/a
129.71	0.075	259420	keystroke_c	c	n/a
129.906	0.1045	259812	keystroke_t	t	n/a
129.9505	0.09	259901	keystroke_i	i	n/a
130.0105	0.075	260021	keystroke_o	o	n/a
130.1605	0.09	260321	keystroke_n	n	n/a
130.2055	0.075	260411	keystroke_Key.space	Key.space	n/a
130.2955	0.09	260591	keystroke_f	f	n/a
130.3555	0.075	260711	keystroke_l	l	n/a
130.505	0.075	261010	keystroke_o	o	n/a
130.565	0.105	261130	keystroke_w	w	n/a
130.73	0.09	261460	keystroke_Key.enter	Key.enter	n/a
130.825	3.8825	261650	prompt	n/a	roles discounts heavy treasures\n
131.4205	0.12	262841	keystroke_r	r	n/a
131.5255	0.075	263051	keystroke_o	o	n/a
131.6905	0.09	263381	keystroke_l	l	n/a
131.7355	0.135	263471	keystroke_e	e	n/a
131.7955	0.105	263591	keystroke_s	s	n/a
131.8405	0.105	263681	keystroke_Key.space	Key.space	n/a
132.0205	0.09	264041	keystroke_d	d	n/a
132.0805	0.105	264161	keystroke_i	i	n/a
132.2005	0.105	264401	keystroke_s	s	n/a
132.2755	0.12	264551	keystroke_c	c	n/a
132.3505	0.105	264701	keystroke_o	o	n/a
132.4255	0.06	264851	keystroke_u	u	n/a
132.575	0.091	265150	keystroke_n	n	n/a
132.62	0.12	265240	keystroke_t	t	n/a
132.68	0.106	265360	keystroke_s	s	n/a
132.77	0.105	265540	keystroke_Key.space	Key.space	n/a
133.056	0.06	266112	keystroke_h	h	n/a
133.101	0.09	266202	keystroke_e	e	n/a
133.161	0.1495	266322	keystroke_a	a	n/a
133.2805	0.105	266561	keystroke_v	v	n/a
133.3555	0.105	266711	keystroke_y	y	n/a
133.4005	0.12	266801	keystroke_Key.space	Key.space	n/a
133.6255	0.06	267251	keystroke_t	t	n/a
133.79	0.09	267580	keystroke_r	r	n/a
133.9855	0.135	267971	keystroke_e	e	n/a
134.0755	0.15	268151	keystroke_a	a	n/a
134.1805	0.105	268361	keystroke_s	s	n/a
134.3005	0.1055	268601	keystroke_u	u	n/a
134.376	0.1345	268752	keystroke_r	r	n/a
134.4205	0.15	268841	keystroke_e	e	n/a
134.4955	0.12	268991	keystroke_s	s	n/a
134.6005	0.105	269201	keystroke_Key.enter	Key.enter	n/a
134.7105	10.2415	269421	prompt	n/a	therapeutic compressed venue spanish\n
135.4255	0.09	270851	keystroke_t	t	n/a
135.5305	0.105	271061	keystroke_h	h	n/a
135.6655	0.12	271331	keystroke_e	e	n/a
135.8305	0.135	271661	keystroke_r	r	n/a
135.9205	0.12	271841	keystroke_a	a	n/a
136.1755	0.075	272351	keystroke_p	p	n/a
136.551	0.105	273102	keystroke_e	e	n/a
136.731	0.104	273462	keystroke_u	u	n/a
136.866	0.09	273732	keystroke_t	t	n/a
136.97	0.12	273940	keystroke_i	i	n/a
137.121	0.089	274242	keystroke_c	c	n/a
137.18	0.12	274360	keystroke_Key.space	Key.space	n/a
137.346	0.105	274692	keystroke_c	c	n/a
137.39	0.075	274780	keystroke_o	o	n/a
137.495	0.09	274990	keystroke_m	m	n/a
137.63	0.151	275260	keystroke_r	r	n/a
137.646	0.075	275292	keystroke_p	p	n/a
137.706	0.119	275412	keystroke_e	e	n/a
137.766	0.074	275532	keystroke_s	s	n/a
137.9	0.135	275800	keystroke_s	s	n/a
137.976	0.089	275952	keystroke_e	e	n/a
138.036	0.1045	276072	keystroke_d	d	n/a
138.11	0.1055	276220	keystroke_Key.space	Key.space	n/a
138.3055	0.105	276611	keystroke_v	v	n/a
138.3505	0.135	276701	keystroke_e	e	n/a
138.4255	0.105	276851	keystroke_n	n	n/a
138.4705	0.105	276941	keystroke_u	u	n/a
138.5905	0.105	277181	keystroke_t	t	n/a
139.55	0.06	279100	keystroke_Key.backspace	Key.backspace	n/a
139.805	0.06	279610	keystroke_Key.backspace	Key.backspace	n/a
140.075	0.06	280150	keystroke_Key.backspace	Key.backspace	n/a
140.3	0.075	280600	keystroke_Key.backspace	Key.backspace	n/a
140.555	0.06	281110	keystroke_Key.backspace	Key.backspace	n/a
140.795	0.06	281590	keystroke_Key.backspace	Key.backspace	n/a
141.02	0.075	282040	keystroke_Key.backspace	Key.backspace	n/a
141.245	0.075	282490	keystroke_Key.backspace	Key.backspace	n/a
141.5	0.075	283000	keystroke_Key.backspace	Key.backspace	n/a
141.755	0.075	283510	keystroke_Key.backspace	Key.backspace	n/a
142.04	0.045	284080	keystroke_Key.backspace	Key.backspace	n/a
142.295	0.046	284590	keystroke_Key.backspace	Key.backspace	n/a
142.5355	0.06	285071	keystroke_Key.backspace	Key.backspace	n/a
142.7305	0.105	285461	keystroke_p	p	n/a
142.8205	0.105	285641	keystroke_r	r	n/a
142.8505	0.12	285701	keystroke_e	e	n/a
142.9105	0.075	285821	keystroke_s	s	n/a
143.0455	0.12	286091	keystroke_s	s	n/a
143.1055	0.135	286211	keystroke_e	e	n/a
143.1655	0.12	286331	keystroke_d	d	n/a
143.2555	0.105	286511	keystroke_Key.space	Key.space	n/a
143.4505	0.06	286901	keystroke_v	v	n/a
143.4655	0.12	286931	keystroke_e	e	n/a
143.5705	0.135	287141	keystroke_n	n	n/a
143.6305	0.105	287261	keystroke_u	u	n/a
143.7205	0.09	287441	keystroke_e	e	n/a
143.7955	0.105	287591	keystroke_Key.space	Key.space	n/a
144.1555	0.09	288311	keystroke_s	s	n/a
144.2605	0.0895	288521	keystroke_p	p	n/a
144.3355	0.1055	288671	keystroke_a	a	n/a
144.471	0.0895	288942	keystroke_n	n	n/a
144.5155	0.105	289031	keystroke_i	i	n/a
144.6055	0.12	289211	keystroke_s	s	n/a
144.7105	0.045	289421	keystroke_h	h	n/a
144.8605	0.09	289721	keystroke_Key.enter	Key.enter	n/a
144.955	10.5715	289910	prompt	n/a	qualifying chemistry systems adults\n
145.5205	0.12	291041	keystroke_q	q	n/a
145.6255	0.105	291251	keystroke_u	u	n/a
146.0155	0.075	292031	keystroke_a	a	n/a
146.3455	0.105	292691	keystroke_l	l	n/a
146.9305	0.09	293861	keystroke_y	y	n/a
147.9955	0.105	295991	keystroke_f	f	n/a
148.2655	0.105	296531	keystroke_y	y	n/a
148.8355	0.09	297671	keystroke_Key.backspace	Key.backspace	n/a
149.0755	0.09	298151	keystroke_Key.backspace	Key.backspace	n/a
149.3305	0.09	298661	keystroke_Key.backspace	Key.backspace	n/a
150.7705	0.09	301541	keystroke_i	i	n/a
150.9055	0.1045	301811	keystroke_f	f	n/a
151.13	0.09	302260	keystroke_y	y	n/a
151.205	0.09	302410	keystroke_i	i	n/a
151.265	0.105	302530	keystroke_n	n	n/a
151.34	0.09	302680	keystroke_g	g	n/a
151.415	0.105	302830	keystroke_Key.space	Key.space	n/a
151.61	0.09	303220	keystroke_c	c	n/a
151.67	0.0755	303340	keystroke_h	h	n/a
151.8205	0.075	303641	keystroke_e	e	n/a
151.8655	0.105	303731	keystroke_m	m	n/a
152.0155	0.075	304031	keystroke_s	s	n/a
152.5555	0.075	305111	keystroke_Key.backspace	Key.backspace	n/a
152.7355	0.105	305471	keystroke_i	i	n/a
152.7955	0.09	305591	keystroke_s	s	n/a
152.8555	0.09	305711	keystroke_t	t	n/a
152.9605	0.135	305921	keystroke_r	r	n/a
153.0355	0.105	306071	keystroke_y	y	n/a
153.0955	0.105	306191	keystroke_Key.space	Key.space	n/a
153.2155	0.12	306431	keystroke_s	s	n/a
153.3505	0.075	306701	keystroke_y	y	n/a
154.1905	0.105	308381	keystroke_s	s	n/a
154.2805	0.105	308561	keystroke_t	t	n/a
154.3405	0.12	308681	keystroke_e	e	n/a
154.4455	0.105	308891	keystroke_m	m	n/a
154.5055	0.09	309011	keystroke_s	s	n/a
154.6255	0.105	309251	keystroke_Key.space	Key.space	n/a
154.7905	0.105	309581	keystroke_a	a	n/a
154.8805	0.105	309761	keystroke_d	d	n/a
154.9705	0.105	309941	keystroke_u	u	n/a
155.0455	0.12	310091	keystroke_l	l	n/a
155.1205	0.105	310241	keystroke_t	t	n/a
155.1505	0.135	310301	keystroke_s	s	n/a
155.3755	0.15	310751	keystroke_Key.enter	Key.enter	n/a
155.53	7.2575	311060	prompt	n/a	psychology advertisement willow there're\n
156.1405	0.105	312281	keystroke_p	p	n/a
156.3055	0.09	312611	keystroke_s	s	n/a
156.53	0.075	313060	keystroke_y	y	n/a
156.74	0.105	313480	keystroke_c	c	n/a
156.875	0.105	313750	keystroke_h	h	n/a
157.025	0.075	314050	keystroke_o	o	n/a
157.175	0.075	314350	keystroke_l	l	n/a
157.325	0.09	314650	keystroke_o	o	n/a
157.385	0.06	314770	keystroke_g	g	n/a
157.52	0.09	315040	keystroke_y	y	n/a
157.58	0.105	315160	keystroke_Key.space	Key.space	n/a
157.715	0.135	315430	keystroke_a	a	n/a
157.79	0.105	315580	keystroke_d	d	n/a
158.015	0.075	316030	keystroke_v	v	n/a
158.105	0.18	316210	keystroke_e	e	n/a
158.24	0.105	316480	keystroke_r	r	n/a
158.465	0.1055	316930	keystroke_t	t	n/a
158.7505	0.105	317501	keystroke_i	i	n/a
158.8405	0.105	317681	keystroke_s	s	n/a
158.9005	0.09	317801	keystroke_e	e	n/a
159.0055	0.0745	318011	keystroke_m	m	n/a
159.0655	0.075	318131	keystroke_e	e	n/a
159.1705	0.09	318341	keystroke_n	n	n/a
159.2155	0.105	318431	keystroke_t	t	n/a
159.3355	0.0755	318671	keystroke_Key.space	Key.space	n/a
159.44	0.1055	318880	keystroke_w	w	n/a
159.5605	0.09	319121	keystroke_i	i	n/a
159.6055	0.06	319211	keystroke_l	l	n/a
159.7255	0.105	319451	keystroke_l	l	n/a
159.8155	0.09	319631	keystroke_i	i	n/a
160.5205	0.09	321041	keystroke_Key.backspace	Key.backspace	n/a
160.7605	0.09	321521	keystroke_o	o	n/a
160.8355	0.105	321671	keystroke_w	w	n/a
160.9255	0.12	321851	keystroke_Key.space	Key.space	n/a
161.7055	0.09	323411	keystroke_t	t	n/a
161.8105	0.09	323621	keystroke_h	h	n/a
161.8705	0.12	323741	keystroke_e	e	n/a
161.9605	0.15	323921	keystroke_r	r	n/a
162.0505	0.09	324101	keystroke_e	e	n/a
162.3055	0.12	324611	keystroke_'	'	n/a
162.485	0.105	324970	keystroke_r	r	n/a
162.545	0.135	325090	keystroke_e	e	n/a
162.665	0.12	325330	keystroke_Key.enter	Key.enter	n/a
162.7915	3.8505	325583	prompt	n/a	stock electricity canal relates\n
163.475	0.03	326950	keystroke_s	s	n/a
163.58	0.09	327160	keystroke_t	t	n/a
163.685	0.105	327370	keystroke_o	o	n/a
163.82	0.105	327640	keystroke_c	c	n/a
163.88	0.121	327760	keystroke_k	k	n/a
163.94	0.135	327880	keystroke_Key.space	Key.space	n/a
164.135	0.0905	328270	keystroke_e	e	n/a
164.2405	0.09	328481	keystroke_l	l	n/a
164.3155	0.12	328631	keystroke_e	e	n/a
164.3755	0.09	328751	keystroke_c	c	n/a
164.5705	0.105	329141	keystroke_t	t	n/a
164.6155	0.12	329231	keystroke_r	r	n/a
164.7355	0.105	329471	keystroke_i	i	n/a
164.8255	0.105	329651	keystroke_c	c	n/a
164.9455	0.105	329891	keystroke_i	i	n/a
165.0355	0.075	330071	keystroke_t	t	n/a
165.2005	0.075	330401	keystroke_y	y	n/a
165.2605	0.105	330521	keystroke_Key.space	Key.space	n/a
165.44	0.091	330880	keystroke_c	c	n/a
165.47	0.106	330940	keystroke_a	a	n/a
165.546	0.09	331092	keystroke_n	n	n/a
165.651	0.09	331302	keystroke_a	a	n/a
165.725	0.105	331450	keystroke_l	l	n/a
165.8	0.12	331600	keystroke_Key.space	Key.space	n/a
165.965	0.12	331930	keystroke_r	r	n/a
166.055	0.105	332110	keystroke_e	e	n/a
166.13	0.09	332260	keystroke_l	l	n/a
166.235	0.105	332470	keystroke_a	a	n/a
166.325	0.12	332650	keystroke_t	t	n/a
166.385	0.18	332770	keystroke_e	e	n/a
166.46	0.135	332920	keystroke_s	s	n/a
166.58	0.06	333160	keystroke_Key.enter	Key.enter	n/a
166.645	4.302	333290	prompt	n/a	cables clip answer hazardous\n
167.33	0.106	334660	keystroke_c	c	n/a
167.36	0.105	334720	keystroke_a	a	n/a
167.586	0.089	335172	keystroke_b	b	n/a
167.66	0.105	335320	keystroke_l	l	n/a
167.735	0.135	335470	keystroke_e	e	n/a
167.78	0.105	335560	keystroke_s	s	n/a
167.855	0.105	335710	keystroke_Key.space	Key.space	n/a
167.975	0.1205	335950	keystroke_c	c	n/a
168.02	0.1055	336040	keystroke_l	l	n/a
168.1405	0.135	336281	keystroke_i	i	n/a
168.2455	0.09	336491	keystroke_p	p	n/a
168.3055	0.105	336611	keystroke_Key.space	Key.space	n/a
168.4255	0.105	336851	keystroke_a	a	n/a
168.5455	0.09	337091	keystroke_n	n	n/a
168.6055	0.06	337211	keystroke_s	s	n/a
168.7555	0.06	337511	keystroke_w	w	n/a
168.7705	0.105	337541	keystroke_e	e	n/a
168.9655	0.075	337931	keystroke_r	r	n/a
168.9955	0.075	337991	keystroke_Key.space	Key.space	n/a
169.1455	0.105	338291	keystroke_h	h	n/a
169.2955	0.06	338591	keystroke_a	a	n/a
169.6105	0.06	339221	keystroke_z	z	n/a
169.8355	0.045	339671	keystroke_a	a	n/a
169.9255	0.09	339851	keystroke_r	r	n/a
170.1355	0.075	340271	keystroke_d	d	n/a
170.4955	0.12	340991	keystroke_o	o	n/a
170.6005	0.09	341201	keystroke_u	u	n/a
170.6605	0.105	341321	keystroke_s	s	n/a
170.8255	0.12	341651	keystroke_Key.enter	Key.enter	n/a
170.95	4.797	341900	prompt	n/a	crystal symbols bonds fleet\n
171.5455	0.06	343091	keystroke_c	c	n/a
171.9055	0.09	343811	keystroke_r	r	n/a
172.0555	0.06	344111	keystroke_y	y	n/a
172.1305	0.09	344261	keystroke_s	s	n/a
172.2055	0.135	344411	keystroke_t	t	n/a
172.3105	0.09	344621	keystroke_a	a	n/a
172.4455	0.105	344891	keystroke_l	l	n/a
172.5205	0.105	345041	keystroke_Key.space	Key.space	n/a
172.9705	0.105	345941	keystroke_s	s	n/a
173.1955	0.06	346391	keystroke_y	y	n/a
173.5855	0.105	347171	keystroke_m	m	n/a
173.7055	0.12	347411	keystroke_b	b	n/a
173.7955	0.105	347591	keystroke_o	o	n/a
173.9455	0.09	347891	keystroke_l	l	n/a
174.0205	0.075	348041	keystroke_s	s	n/a
174.0655	0.105	348131	keystroke_Key.space	Key.space	n/a
174.275	0.09	348550	keystroke_b	b	n/a
174.38	0.076	348760	keystroke_o	o	n/a
174.546	0.074	349092	keystroke_n	n	n/a
174.59	0.106	349180	keystroke_d	d	n/a
174.636	0.105	349272	keystroke_s	s	n/a
174.71	0.106	349420	keystroke_Key.space	Key.space	n/a
174.845	0.09	349690	keystroke_f	f	n/a
174.965	0.06	349930	keystroke_l	l	n/a
175.295	0.075	350590	keystroke_e	e	n/a
175.445	0.12	350890	keystroke_e	e	n/a
175.55	0.12	351100	keystroke_t	t	n/a
175.655	0.09	351310	keystroke_Key.enter	Key.enter	n/a
175.7495	4.3925	351499	prompt	n/a	sucking yard rapidly establishment\n
176.3605	0.075	352721	keystroke_s	s	n/a
176.4505	0.0745	352901	keystroke_u	u	n/a
176.511	0.105	353022	keystroke_c	c	n/a
176.601	0.059	353202	keystroke_k	k	n/a
176.72	0.12	353440	keystroke_i	i	n/a
176.781	0.134	353562	keystroke_n	n	n/a
176.825	0.105	353650	keystroke_g	g	n/a
176.931	0.074	353862	keystroke_Key.space	Key.space	n/a
177.05	0.09	354100	keystroke_y	y	n/a
177.095	0.075	354190	keystroke_a	a	n/a
177.125	0.075	354250	keystroke_r	r	n/a
177.305	0.09	354610	keystroke_d	d	n/a
177.32	0.12	354640	keystroke_Key.space	Key.space	n/a
177.5455	0.135	355091	keystroke_r	r	n/a
177.6205	0.12	355241	keystroke_a	a	n/a
177.7255	0.075	355451	keystroke_p	p	n/a
177.9055	0.105	355811	keystroke_i	i	n/a
177.9805	0.09	355961	keystroke_d	d	n/a
178.0855	0.105	356171	keystroke_l	l	n/a
178.2205	0.09	356441	keystroke_y	y	n/a
178.2805	0.12	356561	keystroke_Key.space	Key.space	n/a
178.5955	0.1345	357191	keystroke_e	e	n/a
178.67	0.105	357340	keystroke_s	s	n/a
178.805	0.09	357610	keystroke_t	t	n/a
178.91	0.12	357820	keystroke_a	a	n/a
179.075	0.09	358150	keystroke_b	b	n/a
179.105	0.12	358210	keystroke_l	l	n/a
179.195	0.09	358390	keystroke_i	i	n/a
179.3	0.09	358600	keystroke_s	s	n/a
179.405	0.0755	358810	keystroke_h	h	n/a
179.7205	0.075	359441	keystroke_m	m	n/a
179.8405	0.045	359681	keystroke_e	e	n/a
179.8705	0.09	359741	keystroke_n	n	n/a
179.9455	0.105	359891	keystroke_t	t	n/a
180.0655	0.075	360131	keystroke_Key.enter	Key.enter	n/a
180.145	5.997	360290	prompt	n/a	available domestic register commented\n
180.86	0.09	361720	keystroke_a	a	n/a
181.145	0.075	362290	keystroke_v	v	n/a
181.205	0.105	362410	keystroke_a	a	n/a
181.64	0.106	363280	keystroke_i	i	n/a
182.615	0.09	365230	keystroke_l	l	n/a
182.72	0.105	365440	keystroke_a	a	n/a
182.781	0.089	365562	keystroke_b	b	n/a
182.855	0.105	365710	keystroke_l	l	n/a
182.975	0.091	365950	keystroke_e	e	n/a
183.05	0.12	366100	keystroke_Key.space	Key.space	n/a
183.305	0.12	366610	keystroke_d	d	n/a
183.365	0.075	366730	keystroke_o	o	n/a
183.515	0.105	367030	keystroke_m	m	n/a
183.545	0.135	367090	keystroke_e	e	n/a
183.621	0.104	367242	keystroke_s	s	n/a
183.845	0.075	367690	keystroke_t	t	n/a
183.921	0.104	367842	keystroke_i	i	n/a
184.115	0.105	368230	keystroke_c	c	n/a
184.19	0.105	368380	keystroke_Key.space	Key.space	n/a
184.37	0.105	368740	keystroke_r	r	n/a
184.445	0.09	368890	keystroke_e	e	n/a
184.58	0.0905	369160	keystroke_g	g	n/a
184.6855	0.105	369371	keystroke_i	i	n/a
184.7755	0.09	369551	keystroke_s	s	n/a
184.8055	0.075	369611	keystroke_t	t	n/a
184.91	0.1505	369820	keystroke_e	e	n/a
184.985	0.1205	369970	keystroke_r	r	n/a
185.0755	0.09	370151	keystroke_Key.space	Key.space	n/a
185.2255	0.12	370451	keystroke_c	c	n/a
185.3005	0.075	370601	keystroke_o	o	n/a
185.4655	0.045	370931	keystroke_m	m	n/a
185.5855	0.09	371171	keystroke_m	m	n/a
185.6605	0.075	371321	keystroke_e	e	n/a
185.7505	0.0745	371501	keystroke_n	n	n/a
185.7955	0.1045	371591	keystroke_t	t	n/a
185.885	0.1355	371770	keystroke_e	e	n/a
185.975	0.1055	371950	keystroke_d	d	n/a
186.0505	0.09	372101	keystroke_Key.enter	Key.enter	n/a
186.147	3.2345	372294	prompt	n/a	clinics invasion yellow guns\n
186.7855	0.09	373571	keystroke_c	c	n/a
186.8455	0.075	373691	keystroke_l	l	n/a
186.9055	0.075	373811	keystroke_i	i	n/a
187.1005	0.0905	374201	keystroke_n	n	n/a
187.145	0.106	374290	keystroke_i	i	n/a
187.265	0.105	374530	keystroke_c	c	n/a
187.341	0.105	374682	keystroke_s	s	n/a
187.43	0.09	374860	keystroke_Key.space	Key.space	n/a
187.566	0.075	375132	keystroke_i	i	n/a
187.686	0.119	375372	keystroke_n	n	n/a
187.76	0.09	375520	keystroke_v	v	n/a
187.82	0.09	375640	keystroke_a	a	n/a
187.94	0.12	375880	keystroke_s	s	n/a
188.015	0.091	376030	keystroke_i	i	n/a
188.075	0.06	376150	keystroke_o	o	n/a
188.21	0.09	376420	keystroke_n	n	n/a
188.255	0.09	376510	keystroke_Key.space	Key.space	n/a
188.33	0.075	376660	keystroke_y	y	n/a
188.36	0.135	376720	keystroke_e	e	n/a
188.45	0.06	376900	keystroke_l	l	n/a
188.585	0.045	377170	keystroke_l	l	n/a
188.705	0.09	377410	keystroke_o	o	n/a
188.75	0.09	377500	keystroke_w	w	n/a
188.87	0.06	377740	keystroke_Key.space	Key.space	n/a
188.945	0.09	377890	keystroke_g	g	n/a
189.005	0.09	378010	keystroke_u	u	n/a
189.08	0.105	378160	keystroke_n	n	n/a
189.14	0.105	378280	keystroke_s	s	n/a
189.305	0.075	378610	keystroke_Key.enter	Key.enter	n/a
189.385	5.727	378770	prompt	n/a	volleyball workout placing either\n
190.04	0.09	380080	keystroke_c	c	n/a
190.115	0.03	380230	keystroke_o	o	n/a
190.445	0.03	380890	keystroke_l	l	n/a
190.9405	0.06	381881	keystroke_Key.backspace	Key.backspace	n/a
191.0755	0.06	382151	keystroke_Key.backspace	Key.backspace	n/a
191.1955	0.075	382391	keystroke_Key.backspace	Key.backspace	n/a
191.2855	0.075	382571	keystroke_v	v	n/a
191.4055	0.045	382811	keystroke_o	o	n/a
191.5705	0.045	383141	keystroke_l	l	n/a
191.6905	0.075	383381	keystroke_l	l	n/a
191.7955	0.12	383591	keystroke_e	e	n/a
191.8555	0.105	383711	keystroke_y	y	n/a
192.1405	0.03	384281	keystroke_b	b	n/a
192.1555	0.105	384311	keystroke_a	a	n/a
192.6805	0.06	385361	keystroke_l	l	n/a
192.8155	0.09	385631	keystroke_l	l	n/a
192.8755	0.105	385751	keystroke_Key.space	Key.space	n/a
193.0255	0.09	386051	keystroke_w	w	n/a
193.1005	0.09	386201	keystroke_o	o	n/a
193.2355	0.06	386471	keystroke_r	r	n/a
193.2505	0.09	386501	keystroke_k	k	n/a
193.3855	0.105	386771	keystroke_o	o	n/a
193.4755	0.09	386951	keystroke_u	u	n/a
193.5055	0.09	387011	keystroke_t	t	n/a
193.5805	0.09	387161	keystroke_Key.space	Key.space	n/a
193.7155	0.105	387431	keystroke_p	p	n/a
193.7755	0.09	387551	keystroke_l	l	n/a
193.8505	0.105	387701	keystroke_a	a	n/a
193.8955	0.09	387791	keystroke_c	c	n/a
194.0005	0.12	388001	keystroke_i	i	n/a
194.0605	0.105	388121	keystroke_n	n	n/a
194.1505	0.105	388301	keystroke_g	g	n/a
194.2405	0.075	388481	keystroke_Key.space	Key.space	n/a
194.5255	0.12	389051	keystroke_e	e	n/a
194.6305	0.09	389261	keystroke_i	i	n/a
194.7055	0.075	389411	keystroke_t	t	n/a
194.7955	0.075	389591	keystroke_h	h	n/a
194.8555	0.12	389711	keystroke_e	e	n/a
194.9155	0.105	389831	keystroke_r	r	n/a
195.0355	0.075	390071	keystroke_Key.enter	Key.enter	n/a
195.115	7.857	390230	prompt	n/a	laboratories sentences winners imagination\n
195.8755	0.105	391751	keystroke_l	l	n/a
195.9505	0.105	391901	keystroke_a	a	n/a
196.0705	0.105	392141	keystroke_b	b	n/a
196.2655	0.075	392531	keystroke_o	o	n/a
197.0755	0.135	394151	keystroke_r	r	n/a
197.2255	0.09	394451	keystroke_a	a	n/a
197.3005	0.105	394601	keystroke_t	t	n/a
197.8405	0.045	395681	keystroke_o	o	n/a
197.9155	0.09	395831	keystroke_r	r	n/a
198.0355	0.09	396071	keystroke_i	i	n/a
198.0655	0.15	396131	keystroke_e	e	n/a
198.1405	0.135	396281	keystroke_s	s	n/a
198.2455	0.1195	396491	keystroke_Key.space	Key.space	n/a
198.395	0.12	396790	keystroke_s	s	n/a
198.455	0.135	396910	keystroke_e	e	n/a
198.575	0.09	397150	keystroke_n	n	n/a
198.65	0.1205	397300	keystroke_t	t	n/a
198.7255	0.105	397451	keystroke_e	e	n/a
198.8755	0.105	397751	keystroke_n	n	n/a
198.9955	0.105	397991	keystroke_c	c	n/a
199.0405	0.15	398081	keystroke_e	e	n/a
199.1155	0.12	398231	keystroke_s	s	n/a
199.1755	0.09	398351	keystroke_Key.space	Key.space	n/a
199.3405	0.09	398681	keystroke_w	w	n/a
199.4155	0.045	398831	keystroke_i	i	n/a
199.5205	0.06	399041	keystroke_n	n	n/a
199.6555	0.105	399311	keystroke_n	n	n/a
199.6855	0.21	399371	keystroke_e	e	n/a
199.7005	0.165	399401	keystroke_r	r	n/a
199.8505	0.09	399701	keystroke_s	s	n/a
199.8805	0.075	399761	keystroke_Key.space	Key.space	n/a
200.525	0.075	401050	keystroke_i	i	n/a
200.66	0.121	401320	keystroke_m	m	n/a
200.735	0.09	401470	keystroke_a	a	n/a
200.811	0.089	401622	keystroke_g	g	n/a
201.291	0.074	402582	keystroke_a	a	n/a
201.32	0.105	402640	keystroke_t	t	n/a
201.95	0.06	403900	keystroke_Key.backspace	Key.backspace	n/a
202.07	0.075	404140	keystroke_Key.backspace	Key.backspace	n/a
202.25	0.105	404500	keystroke_i	i	n/a
202.326	0.104	404652	keystroke_n	n	n/a
202.385	0.106	404770	keystroke_a	a	n/a
202.431	0.119	404862	keystroke_t	t	n/a
202.565	0.06	405130	keystroke_i	i	n/a
202.58	0.075	405160	keystroke_o	o	n/a
202.715	0.075	405430	keystroke_n	n	n/a
202.88	0.09	405760	keystroke_Key.enter	Key.enter	n/a
202.975	4.197	405950	prompt	n/a	super endangered travel squad\n
203.63	0.0305	407260	keystroke_s	s	n/a
203.645	0.03	407290	keystroke_u	u	n/a
203.705	0.0905	407410	keystroke_p	p	n/a
203.75	0.105	407500	keystroke_e	e	n/a
203.8105	0.105	407621	keystroke_r	r	n/a
203.87	0.09	407740	keystroke_Key.space	Key.space	n/a
203.975	0.105	407950	keystroke_e	e	n/a
204.08	0.075	408160	keystroke_n	n	n/a
204.2	0.12	408400	keystroke_d	d	n/a
204.3955	0.0745	408791	keystroke_a	a	n/a
204.7705	0.0895	409541	keystroke_n	n	n/a
205.145	0.105	410290	keystroke_g	g	n/a
205.34	0.09	410680	keystroke_e	e	n/a
205.415	0.105	410830	keystroke_r	r	n/a
205.505	0.15	411010	keystroke_e	e	n/a
205.625	0.135	411250	keystroke_d	d	n/a
205.715	0.12	411430	keystroke_Key.space	Key.space	n/a
205.88	0.075	411760	keystroke_t	t	n/a
206.03	0.105	412060	keystroke_r	r	n/a
206.105	0.09	412210	keystroke_a	a	n/a
206.2705	0.09	412541	keystroke_v	v	n/a
206.3155	0.105	412631	keystroke_e	e	n/a
206.3755	0.09	412751	keystroke_l	l	n/a
206.4355	0.09	412871	keystroke_Key.space	Key.space	n/a
206.5405	0.135	413081	keystroke_s	s	n/a
206.6305	0.135	413261	keystroke_q	q	n/a
206.7805	0.12	413561	keystroke_u	u	n/a
206.8855	0.12	413771	keystroke_a	a	n/a
206.9455	0.12	413891	keystroke_d	d	n/a
207.0805	0.09	414161	keystroke_Key.enter	Key.enter	n/a
207.175	6.357	414350	prompt	n/a	uploaded yemen mechanism enforcement\n
208.04	0.06	416080	keystroke_u	u	n/a
208.16	0.09	416320	keystroke_p	p	n/a
208.325	0.075	416650	keystroke_l	l	n/a
208.49	0.0755	416980	keystroke_o	o	n/a
208.5055	0.12	417011	keystroke_a	a	n/a
208.5955	0.105	417191	keystroke_d	d	n/a
208.7155	0.135	417431	keystroke_e	e	n/a
208.7755	0.12	417551	keystroke_d	d	n/a
208.8655	0.09	417731	keystroke_Key.space	Key.space	n/a
209.0305	0.105	418061	keystroke_y	y	n/a
209.0905	0.105	418181	keystroke_e	e	n/a
209.1655	0.09	418331	keystroke_m	m	n/a
209.2705	0.105	418541	keystroke_e	e	n/a
209.3605	0.09	418721	keystroke_n	n	n/a
209.4355	0.12	418871	keystroke_Key.space	Key.space	n/a
209.9455	0.075	419891	keystroke_m	m	n/a
209.9755	0.12	419951	keystroke_e	e	n/a
210.1105	0.165	420221	keystroke_c	c	n/a
210.2305	0.09	420461	keystroke_a	a	n/a
210.2455	0.09	420491	keystroke_h	h	n/a
210.965	0.045	421930	keystroke_Key.backspace	Key.backspace	n/a
211.085	0.09	422170	keystroke_Key.backspace	Key.backspace	n/a
211.355	0.075	422710	keystroke_h	h	n/a
211.445	0.09	422890	keystroke_a	a	n/a
211.55	0.09	423100	keystroke_n	n	n/a
211.595	0.15	423190	keystroke_i	i	n/a
211.7	0.105	423400	keystroke_s	s	n/a
211.775	0.12	423550	keystroke_m	m	n/a
211.85	0.135	423700	keystroke_Key.space	Key.space	n/a
212.15	0.03	424300	keystroke_e	e	n/a
212.165	0.075	424330	keystroke_n	n	n/a
212.255	0.105	424510	keystroke_f	f	n/a
212.48	0.075	424960	keystroke_o	o	n/a
212.57	0.075	425140	keystroke_r	r	n/a
212.9155	0.105	425831	keystroke_c	c	n/a
212.9595	0.106	425919	keystroke_e	e	n/a
213.0355	0.09	426071	keystroke_m	m	n/a
213.1555	0.105	426311	keystroke_e	e	n/a
213.2305	0.09	426461	keystroke_n	n	n/a
213.3355	0.09	426671	keystroke_t	t	n/a
213.4405	0.09	426881	keystroke_Key.enter	Key.enter	n/a
213.535	7.317	427070	prompt	n/a	cialis expenditures bring whenever\n
214.3855	0.1045	428771	keystroke_c	c	n/a
214.715	0.09	429430	keystroke_i	i	n/a
214.806	0.1035	429612	keystroke_a	a	n/a
215.21	0.105	430420	keystroke_l	l	n/a
215.3	0.075	430600	keystroke_i	i	n/a
215.376	0.104	430752	keystroke_s	s	n/a
215.495	0.12	430990	keystroke_Key.space	Key.space	n/a
215.705	0.075	431410	keystroke_e	e	n/a
215.9	0.105	431800	keystroke_x	x	n/a
215.975	0.075	431950	keystroke_p	p	n/a
216.695	0.09	433390	keystroke_e	e	n/a
216.786	0.104	433572	keystroke_n	n	n/a
217.01	0.075	434020	keystroke_d	d	n/a
217.13	0.1355	434260	keystroke_i	i	n/a
217.3705	0.0595	434741	keystroke_s	s	n/a
217.865	0.075	435730	keystroke_Key.backspace	Key.backspace	n/a
217.985	0.06	435970	keystroke_t	t	n/a
218.06	0.105	436120	keystroke_u	u	n/a
218.15	0.12	436300	keystroke_r	r	n/a
218.18	0.18	436360	keystroke_e	e	n/a
218.255	0.12	436510	keystroke_s	s	n/a
218.285	0.105	436570	keystroke_Key.space	Key.space	n/a
218.495	0.075	436990	keystroke_b	b	n/a
218.555	0.09	437110	keystroke_r	r	n/a
218.615	0.12	437230	keystroke_i	i	n/a
218.69	0.12	437380	keystroke_n	n	n/a
218.78	0.075	437560	keystroke_g	g	n/a
218.84	0.105	437680	keystroke_Key.space	Key.space	n/a
218.96	0.105	437920	keystroke_w	w	n/a
219.08	0.09	438160	keystroke_n	n	n/a
219.785	0.075	439570	keystroke_Key.backspace	Key.backspace	n/a
219.89	0.135	439780	keystroke_h	h	n/a
219.98	0.15	439960	keystroke_e	e	n/a
220.175	0.1055	440350	keystroke_n	n	n/a
220.3405	0.105	440681	keystroke_e	e	n/a
220.4305	0.09	440861	keystroke_v	v	n/a
220.5955	0.12	441191	keystroke_e	e	n/a
220.6405	0.12	441281	keystroke_r	r	n/a
220.7755	0.075	441551	keystroke_Key.enter	Key.enter	n/a
220.855	4.497	441710	prompt	n/a	surname todd cruz really\n
221.6905	0.045	443381	keystroke_s	s	n/a
221.7505	0.09	443501	keystroke_u	u	n/a
221.8705	0.09	443741	keystroke_r	r	n/a
221.9905	0.06	443981	keystroke_n	n	n/a
222.0655	0.105	444131	keystroke_a	a	n/a
222.1555	0.105	444311	keystroke_m	m	n/a
222.2455	0.105	444491	keystroke_e	e	n/a
222.3655	0.075	444731	keystroke_Key.space	Key.space	n/a
222.4555	0.0895	444911	keystroke_t	t	n/a
222.56	0.0755	445120	keystroke_o	o	n/a
222.6955	0.09	445391	keystroke_d	d	n/a
222.8455	0.075	445691	keystroke_d	d	n/a
222.9355	0.075	445871	keystroke_Key.space	Key.space	n/a
223.0705	0.09	446141	keystroke_c	c	n/a
223.2655	0.075	446531	keystroke_r	r	n/a
223.3705	0.075	446741	keystroke_u	u	n/a
223.5055	0.075	447011	keystroke_z	z	n/a
223.7005	0.045	447401	keystroke_z	z	n/a
224.1195	0.075	448239	keystroke_Key.backspace	Key.backspace	n/a
224.2095	0.12	448419	keystroke_Key.space	Key.space	n/a
224.4955	0.059	448991	keystroke_r	r	n/a
224.6605	0.0895	449321	keystroke_e	e	n/a
224.705	0.105	449410	keystroke_a	a	n/a
224.795	0.06	449590	keystroke_l	l	n/a
224.93	0.09	449860	keystroke_l	l	n/a
225.05	0.105	450100	keystroke_y	y	n/a
225.275	0.075	450550	keystroke_Key.enter	Key.enter	n/a
225.355	6.837	450710	prompt	n/a	didn't shooting cotton dispatched\n
226.055	0.075	452110	keystroke_d	d	n/a
226.145	0.075	452290	keystroke_i	i	n/a
226.205	0.09	452410	keystroke_d	d	n/a
226.31	0.075	452620	keystroke_n	n	n/a
226.565	0.09	453130	keystroke_t	t	n/a
226.97	0.09	453940	keystroke_Key.backspace	Key.backspace	n/a
227.24	0.09	454480	keystroke_;	;	n/a
227.39	0.075	454780	keystroke_t	t	n/a
227.81	0.045	455620	keystroke_Key.backspace	Key.backspace	n/a
227.945	0.075	455890	keystroke_Key.backspace	Key.backspace	n/a
228.635	0.09	457270	keystroke_'	'	n/a
228.74	0.06	457480	keystroke_t	t	n/a
228.845	0.075	457690	keystroke_Key.space	Key.space	n/a
228.935	0.105	457870	keystroke_s	s	n/a
229.01	0.075	458020	keystroke_h	h	n/a
229.16	0.06	458320	keystroke_o	o	n/a
229.625	0.105	459250	keystroke_o	o	n/a
229.76	0.105	459520	keystroke_t	t	n/a
229.85	0.09	459700	keystroke_i	i	n/a
229.91	0.12	459820	keystroke_n	n	n/a
229.97	0.09	459940	keystroke_g	g	n/a
230.075	0.075	460150	keystroke_Key.space	Key.space	n/a
230.21	0.135	460420	keystroke_c	c	n/a
230.3	0.105	460600	keystroke_o	o	n/a
230.48	0.045	460960	keystroke_t	t	n/a
230.6	0.105	461200	keystroke_t	t	n/a
230.645	0.075	461290	keystroke_o	o	n/a
230.78	0.0755	461560	keystroke_n	n	n/a
230.8255	0.105	461651	keystroke_Key.space	Key.space	n/a
231.0205	0.075	462041	keystroke_d	d	n/a
231.0805	0.12	462161	keystroke_i	i	n/a
231.2155	0.09	462431	keystroke_s	s	n/a
231.3205	0.09	462641	keystroke_p	p	n/a
231.4255	0.12	462851	keystroke_a	a	n/a
231.5305	0.075	463061	keystroke_t	t	n/a
231.7255	0.09	463451	keystroke_c	c	n/a
231.8455	0.09	463691	keystroke_h	h	n/a
231.9355	0.105	463871	keystroke_e	e	n/a
231.9805	0.12	463961	keystroke_d	d	n/a
232.1155	0.075	464231	keystroke_Key.enter	Key.enter	n/a
232.196	4.481	464392	prompt	n/a	register exciting settle religion\n
232.9255	0.12	465851	keystroke_r	r	n/a
233.0005	0.105	466001	keystroke_e	e	n/a
233.1655	0.09	466331	keystroke_g	g	n/a
233.2705	0.105	466541	keystroke_i	i	n/a
233.3455	0.105	466691	keystroke_s	s	n/a
233.4055	0.075	466811	keystroke_t	t	n/a
233.4805	0.165	466961	keystroke_e	e	n/a
233.5555	0.135	467111	keystroke_r	r	n/a
233.6605	0.105	467321	keystroke_Key.space	Key.space	n/a
233.7505	0.09	467501	keystroke_e	e	n/a
233.9605	0.105	467921	keystroke_x	x	n/a
234.1855	0.075	468371	keystroke_c	c	n/a
234.3805	0.12	468761	keystroke_i	i	n/a
234.5305	0.135	469061	keystroke_t	t	n/a
234.6355	0.105	469271	keystroke_i	i	n/a
234.7255	0.12	469451	keystroke_n	n	n/a
234.8005	0.075	469601	keystroke_g	g	n/a
234.9055	0.09	469811	keystroke_Key.space	Key.space	n/a
235.0255	0.12	470051	keystroke_s	s	n/a
235.0705	0.135	470141	keystroke_e	e	n/a
235.1905	0.045	470381	keystroke_t	t	n/a
235.2955	0.105	470591	keystroke_t	t	n/a
235.3705	0.09	470741	keystroke_l	l	n/a
235.4755	0.09	470951	keystroke_e	e	n/a
235.5355	0.09	471071	keystroke_Key.space	Key.space	n/a
235.7755	0.12	471551	keystroke_r	r	n/a
235.8505	0.12	471701	keystroke_e	e	n/a
235.9255	0.09	471851	keystroke_l	l	n/a
236.0305	0.075	472061	keystroke_i	i	n/a
236.1205	0.12	472241	keystroke_g	g	n/a
236.2255	0.09	472451	keystroke_i	i	n/a
236.2855	0.06	472571	keystroke_o	o	n/a
236.4205	0.075	472841	keystroke_n	n	n/a
236.57	0.105	473140	keystroke_Key.enter	Key.enter	n/a
236.68	5.052	473360	prompt	n/a	rhode cake antigua you'd\n
237.305	0.09	474610	keystroke_r	r	n/a
237.38	0.075	474760	keystroke_h	h	n/a
237.515	0.09	475030	keystroke_o	o	n/a
237.575	0.105	475150	keystroke_d	d	n/a
237.62	0.12	475240	keystroke_e	e	n/a
237.71	0.09	475420	keystroke_Key.space	Key.space	n/a
237.801	0.134	475602	keystroke_c	c	n/a
237.86	0.105	475720	keystroke_a	a	n/a
237.95	0.075	475900	keystroke_k	k	n/a
238.0695	0.06	476139	keystroke_e	e	n/a
238.1445	0.06	476289	keystroke_Key.space	Key.space	n/a
238.3395	0.09	476679	keystroke_a	a	n/a
238.4005	0.1045	476801	keystroke_n	n	n/a
238.835	0.105	477670	keystroke_t	t	n/a
238.955	0.09	477910	keystroke_i	i	n/a
239.315	0.075	478630	keystroke_g	g	n/a
239.39	0.105	478780	keystroke_u	u	n/a
239.48	0.12	478960	keystroke_a	a	n/a
239.69	0.09	479380	keystroke_Key.space	Key.space	n/a
239.885	0.06	479770	keystroke_y	y	n/a
239.93	0.09	479860	keystroke_o	o	n/a
239.99	0.09	479980	keystroke_u	u	n/a
240.2	0.135	480400	keystroke_;	;	n/a
240.4095	0.075	480819	keystroke_'	'	n/a
240.875	0.06	481750	keystroke_Key.backspace	Key.backspace	n/a
241.01	0.06	482020	keystroke_Key.backspace	Key.backspace	n/a
241.205	0.09	482410	keystroke_'	'	n/a
241.265	0.12	482530	keystroke_d	d	n/a
241.64	0.09	483280	keystroke_Key.enter	Key.enter	n/a
241.737	4.81	483474	prompt	n/a	last antibodies verified velvet\n
242.346	0.074	484692	keystroke_l	l	n/a
242.4345	0.106	484869	keystroke_a	a	n/a
242.4955	0.105	484991	keystroke_s	s	n/a
242.5415	0.104	485083	keystroke_t	t	n/a
242.6155	0.09	485231	keystroke_Key.space	Key.space	n/a
242.8105	0.09	485621	keystroke_a	a	n/a
242.9905	0.135	485981	keystroke_n	n	n/a
243.1555	0.105	486311	keystroke_t	t	n/a
243.2305	0.12	486461	keystroke_i	i	n/a
243.5305	0.075	487061	keystroke_b	b	n/a
243.6805	0.09	487361	keystroke_o	o	n/a
243.7855	0.075	487571	keystroke_d	d	n/a
243.8905	0.075	487781	keystroke_i	i	n/a
243.9355	0.135	487871	keystroke_e	e	n/a
243.9805	0.12	487961	keystroke_s	s	n/a
244.0555	0.12	488111	keystroke_Key.space	Key.space	n/a
244.1905	0.09	488381	keystroke_v	v	n/a
244.3555	0.12	488711	keystroke_e	e	n/a
244.4155	0.12	488831	keystroke_r	r	n/a
244.7605	0.09	489521	keystroke_i	i	n/a
245.2555	0.09	490511	keystroke_f	f	n/a
245.3755	0.105	490751	keystroke_i	i	n/a
245.4645	0.136	490929	keystroke_e	e	n/a
245.5405	0.105	491081	keystroke_d	d	n/a
245.5855	0.12	491171	keystroke_Key.space	Key.space	n/a
245.7355	0.12	491471	keystroke_v	v	n/a
245.8105	0.105	491621	keystroke_e	e	n/a
245.8995	0.106	491799	keystroke_l	l	n/a
246.0205	0.105	492041	keystroke_v	v	n/a
246.1405	0.195	492281	keystroke_e	e	n/a
246.2755	0.135	492551	keystroke_t	t	n/a
246.4255	0.119	492851	keystroke_Key.enter	Key.enter	n/a
246.5495	4.527	493099	prompt	n/a	ease ripe blades orchestra\n
247.265	0.09	494530	keystroke_e	e	n/a
247.445	0.165	494890	keystroke_s	s	n/a
247.566	0.089	495132	keystroke_e	e	n/a
248.285	0.09	496570	keystroke_Key.backspace	Key.backspace	n/a
248.39	0.06	496780	keystroke_Key.backspace	Key.backspace	n/a
248.435	0.12	496870	keystroke_a	a	n/a
248.48	0.105	496960	keystroke_s	s	n/a
248.54	0.12	497080	keystroke_e	e	n/a
248.615	0.105	497230	keystroke_Key.space	Key.space	n/a
248.75	0.105	497500	keystroke_r	r	n/a
248.81	0.12	497620	keystroke_i	i	n/a
248.885	0.105	497770	keystroke_p	p	n/a
248.96	0.09	497920	keystroke_e	e	n/a
249.02	0.12	498040	keystroke_Key.space	Key.space	n/a
249.2	0.045	498400	keystroke_b	b	n/a
249.275	0.1055	498550	keystroke_l	l	n/a
249.4105	0.12	498821	keystroke_a	a	n/a
249.5155	0.15	499031	keystroke_d	d	n/a
249.5905	0.165	499181	keystroke_e	e	n/a
249.7105	0.0745	499421	keystroke_s	s	n/a
249.7705	0.0745	499541	keystroke_Key.space	Key.space	n/a
249.89	0.105	499780	keystroke_o	o	n/a
249.98	0.075	499960	keystroke_r	r	n/a
250.205	0.105	500410	keystroke_c	c	n/a
250.34	0.105	500680	keystroke_h	h	n/a
250.43	0.1505	500860	keystroke_e	e	n/a
250.49	0.1055	500980	keystroke_s	s	n/a
250.6555	0.075	501311	keystroke_t	t	n/a
250.8205	0.105	501641	keystroke_r	r	n/a
250.8655	0.12	501731	keystroke_a	a	n/a
251.0005	0.075	502001	keystroke_Key.enter	Key.enter	n/a
251.0795	3.687	502159	prompt	n/a	pulled marriage sink charles\n
251.5555	0.105	503111	keystroke_r	r	n/a
251.8405	0.075	503681	keystroke_Key.backspace	Key.backspace	n/a
252.0205	0.075	504041	keystroke_p	p	n/a
252.1555	0.105	504311	keystroke_u	u	n/a
252.3055	0.06	504611	keystroke_l	l	n/a
252.4255	0.075	504851	keystroke_l	l	n/a
252.4855	0.135	504971	keystroke_e	e	n/a
252.5455	0.12	505091	keystroke_d	d	n/a
252.5905	0.09	505181	keystroke_Key.space	Key.space	n/a
252.7255	0.135	505451	keystroke_m	m	n/a
252.8155	0.09	505631	keystroke_a	a	n/a
252.8605	0.075	505721	keystroke_r	r	n/a
253.0105	0.09	506021	keystroke_r	r	n/a
253.1305	0.111	506261	keystroke_i	i	n/a
253.2805	0.09	506561	keystroke_a	a	n/a
253.3705	0.135	506741	keystroke_g	g	n/a
253.4455	0.09	506891	keystroke_e	e	n/a
253.5205	0.045	507041	keystroke_Key.space	Key.space	n/a
253.5955	0.12	507191	keystroke_s	s	n/a
253.6555	0.075	507311	keystroke_i	i	n/a
253.7605	0.12	507521	keystroke_n	n	n/a
253.8355	0.12	507671	keystroke_k	k	n/a
253.9255	0.09	507851	keystroke_Key.space	Key.space	n/a
254.0305	0.12	508061	keystroke_c	c	n/a
254.1355	0.12	508271	keystroke_h	h	n/a
254.256	0.1195	508512	keystroke_a	a	n/a
254.3455	0.105	508691	keystroke_r	r	n/a
254.4355	0.09	508871	keystroke_l	l	n/a
254.4955	0.135	508991	keystroke_e	e	n/a
254.5705	0.105	509141	keystroke_s	s	n/a
254.7055	0.06	509411	keystroke_Key.enter	Key.enter	n/a
254.77	3.747	509540	prompt	n/a	formatting zoning tired heel\n
255.3805	0.09	510761	keystroke_f	f	n/a
255.4555	0.105	510911	keystroke_o	o	n/a
255.5905	0.09	511181	keystroke_r	r	n/a
255.6955	0.09	511391	keystroke_m	m	n/a
255.7555	0.0895	511511	keystroke_a	a	n/a
255.8005	0.0895	511601	keystroke_t	t	n/a
256.19	0.09	512380	keystroke_t	t	n/a
256.31	0.12	512620	keystroke_i	i	n/a
256.4	0.105	512800	keystroke_n	n	n/a
256.475	0.09	512950	keystroke_g	g	n/a
256.565	0.09	513130	keystroke_Key.space	Key.space	n/a
256.7005	0.09	513401	keystroke_z	z	n/a
256.7455	0.075	513491	keystroke_o	o	n/a
256.8805	0.105	513761	keystroke_n	n	n/a
257.0005	0.105	514001	keystroke_i	i	n/a
257.0905	0.1045	514181	keystroke_n	n	n/a
257.18	0.075	514360	keystroke_g	g	n/a
257.255	0.1045	514510	keystroke_Key.space	Key.space	n/a
257.4055	0.075	514811	keystroke_t	t	n/a
257.4805	0.119	514961	keystroke_i	i	n/a
257.5555	0.089	515111	keystroke_r	r	n/a
257.6295	0.151	515259	keystroke_e	e	n/a
257.7505	0.09	515501	keystroke_d	d	n/a
257.7945	0.091	515589	keystroke_Key.space	Key.space	n/a
258.0205	0.1045	516041	keystroke_h	h	n/a
258.065	0.09	516130	keystroke_e	e	n/a
258.215	0.09	516430	keystroke_e	e	n/a
258.29	0.105	516580	keystroke_l	l	n/a
258.41	0.105	516820	keystroke_Key.enter	Key.enter	n/a
258.5215	11.305	517043	prompt	n/a	portugal cure country dedicated\n
259.13	0.09	518260	keystroke_p	p	n/a
259.415	0.09	518830	keystroke_o	o	n/a
259.6545	0.09	519309	keystroke_r	r	n/a
259.9095	0.075	519819	keystroke_t	t	n/a
259.9695	0.105	519939	keystroke_u	u	n/a
260.0755	0.089	520151	keystroke_a	a	n/a
260.1495	0.1055	520299	keystroke_l	l	n/a
260.2095	0.12	520419	keystroke_Key.space	Key.space	n/a
260.4195	0.09	520839	keystroke_c	c	n/a
260.5245	0.09	521049	keystroke_u	u	n/a
260.6155	0.0895	521231	keystroke_r	r	n/a
260.66	0.12	521320	keystroke_e	e	n/a
260.72	0.1055	521440	keystroke_Key.space	Key.space	n/a
261.1705	0.075	522341	keystroke_c	c	n/a
261.2155	0.12	522431	keystroke_o	o	n/a
261.3205	0.06	522641	keystroke_u	u	n/a
261.5155	0.09	523031	keystroke_n	n	n/a
261.5605	0.135	523121	keystroke_t	t	n/a
261.7105	0.105	523421	keystroke_r	r	n/a
261.7555	0.12	523511	keystroke_y	y	n/a
262.4905	0.105	524981	keystroke_Key.backspace	Key.backspace	n/a
262.9105	0.074	525821	keystroke_Key.backspace	Key.backspace	n/a
263.2105	0.075	526421	keystroke_Key.backspace	Key.backspace	n/a
263.4655	0.0595	526931	keystroke_Key.backspace	Key.backspace	n/a
263.72	0.06	527440	keystroke_Key.backspace	Key.backspace	n/a
263.96	0.09	527920	keystroke_Key.backspace	Key.backspace	n/a
264.215	0.075	528430	keystroke_Key.backspace	Key.backspace	n/a
264.44	0.075	528880	keystroke_Key.backspace	Key.backspace	n/a
264.665	0.075	529330	keystroke_Key.backspace	Key.backspace	n/a
264.86	0.09	529720	keystroke_Key.backspace	Key.backspace	n/a
265.055	0.075	530110	keystroke_Key.backspace	Key.backspace	n/a
265.28	0.09	530560	keystroke_Key.backspace	Key.backspace	n/a
265.475	0.0905	530950	keystroke_Key.backspace	Key.backspace	n/a
265.7005	0.06	531401	keystroke_Key.backspace	Key.backspace	n/a
266.3905	0.09	532781	keystroke_Key.backspace	Key.backspace	n/a
266.6755	0.105	533351	keystroke_g	g	n/a
266.7205	0.12	533441	keystroke_a	a	n/a
266.7955	0.12	533591	keystroke_l	l	n/a
266.8705	0.12	533741	keystroke_Key.space	Key.space	n/a
267.0055	0.105	534011	keystroke_c	c	n/a
267.0955	0.09	534191	keystroke_u	u	n/a
267.2155	0.12	534431	keystroke_r	r	n/a
267.2755	0.12	534551	keystroke_e	e	n/a
267.3205	0.105	534641	keystroke_Key.space	Key.space	n/a
267.6955	0.105	535391	keystroke_c	c	n/a
267.7555	0.09	535511	keystroke_o	o	n/a
268.1755	0.075	536351	keystroke_u	u	n/a
268.3555	0.075	536711	keystroke_n	n	n/a
268.4005	0.09	536801	keystroke_t	t	n/a
268.4605	0.165	536921	keystroke_r	r	n/a
268.5505	0.105	537101	keystroke_y	y	n/a
268.6405	0.09	537281	keystroke_Key.space	Key.space	n/a
268.8355	0.105	537671	keystroke_d	d	n/a
268.8805	0.12	537761	keystroke_e	e	n/a
269.0455	0.09	538091	keystroke_d	d	n/a
269.1505	0.09	538301	keystroke_i	i	n/a
269.2405	0.09	538481	keystroke_c	c	n/a
269.3155	0.089	538631	keystroke_a	a	n/a
269.465	0.075	538930	keystroke_t	t	n/a
269.5245	0.1655	539049	keystroke_e	e	n/a
269.63	0.1195	539260	keystroke_d	d	n/a
269.7345	0.0905	539469	keystroke_Key.enter	Key.enter	n/a
269.8295	2.7125	539659	prompt	n/a	achieved women yours me\n
270.455	0.1055	540910	keystroke_a	a	n/a
270.545	0.12	541090	keystroke_c	c	n/a
270.65	0.12	541300	keystroke_h	h	n/a
270.725	0.075	541450	keystroke_i	i	n/a
270.785	0.105	541570	keystroke_e	e	n/a
270.875	0.09	541750	keystroke_v	v	n/a
271.01	0.15	542020	keystroke_e	e	n/a
271.085	0.12	542170	keystroke_d	d	n/a
271.175	0.105	542350	keystroke_Key.space	Key.space	n/a
271.325	0.09	542650	keystroke_w	w	n/a
271.385	0.09	542770	keystroke_o	o	n/a
271.505	0.105	543010	keystroke_m	m	n/a
271.595	0.09	543190	keystroke_e	e	n/a
271.7	0.075	543400	keystroke_n	n	n/a
271.76	0.09	543520	keystroke_Key.space	Key.space	n/a
271.865	0.075	543730	keystroke_y	y	n/a
271.925	0.105	543850	keystroke_o	o	n/a
271.985	0.09	543970	keystroke_u	u	n/a
272.045	0.12	544090	keystroke_r	r	n/a
272.09	0.105	544180	keystroke_s	s	n/a
272.135	0.09	544270	keystroke_Key.space	Key.space	n/a
272.27	0.105	544540	keystroke_m	m	n/a
272.315	0.105	544630	keystroke_e	e	n/a
272.465	0.075	544930	keystroke_Key.enter	Key.enter	n/a
272.55	3.3965	545100	prompt	n/a	bookmark limiting bacon coast\n
273.23	0.075	546460	keystroke_b	b	n/a
273.29	0.06	546580	keystroke_o	o	n/a
273.41	0.09	546820	keystroke_o	o	n/a
273.47	0.09	546940	keystroke_k	k	n/a
273.65	0.09	547300	keystroke_m	m	n/a
273.71	0.105	547420	keystroke_a	a	n/a
273.755	0.105	547510	keystroke_r	r	n/a
273.83	0.075	547660	keystroke_k	k	n/a
273.875	0.105	547750	keystroke_Key.space	Key.space	n/a
274.07	0.105	548140	keystroke_l	l	n/a
274.28	0.075	548560	keystroke_i	i	n/a
274.4	0.1055	548800	keystroke_m	m	n/a
274.4755	0.09	548951	keystroke_i	i	n/a
274.5505	0.09	549101	keystroke_t	t	n/a
274.6555	0.075	549311	keystroke_i	i	n/a
274.7005	0.12	549401	keystroke_n	n	n/a
274.7905	0.09	549581	keystroke_g	g	n/a
274.8495	0.09	549699	keystroke_Key.space	Key.space	n/a
274.9705	0.105	549941	keystroke_b	b	n/a
275.0455	0.105	550091	keystroke_a	a	n/a
275.0905	0.12	550181	keystroke_c	c	n/a
275.1655	0.075	550331	keystroke_o	o	n/a
275.2845	0.076	550569	keystroke_n	n	n/a
275.3295	0.105	550659	keystroke_Key.space	Key.space	n/a
275.4505	0.119	550901	keystroke_c	c	n/a
275.5555	0.09	551111	keystroke_o	o	n/a
275.6295	0.136	551259	keystroke_a	a	n/a
275.7055	0.105	551411	keystroke_s	s	n/a
275.7505	0.12	551501	keystroke_t	t	n/a
275.8545	0.09	551709	keystroke_Key.enter	Key.enter	n/a
275.9535	3.113	551907	prompt	n/a	farmers temp saints streets\n
276.6205	0.12	553241	keystroke_f	f	n/a
276.6945	0.12	553389	keystroke_a	a	n/a
276.8305	0.09	553661	keystroke_r	r	n/a
276.9205	0.104	553841	keystroke_m	m	n/a
276.9795	0.15	553959	keystroke_e	e	n/a
277.0395	0.151	554079	keystroke_r	r	n/a
277.1755	0.045	554351	keystroke_s	s	n/a
277.2055	0.089	554411	keystroke_Key.space	Key.space	n/a
277.3395	0.105	554679	keystroke_t	t	n/a
277.3845	0.151	554769	keystroke_e	e	n/a
277.4295	0.09	554859	keystroke_m	m	n/a
277.5505	0.119	555101	keystroke_p	p	n/a
277.6545	0.075	555309	keystroke_Key.space	Key.space	n/a
277.7745	0.12	555549	keystroke_s	s	n/a
277.8345	0.105	555669	keystroke_a	a	n/a
277.9245	0.105	555849	keystroke_i	i	n/a
277.9995	0.105	555999	keystroke_n	n	n/a
278.0445	0.12	556089	keystroke_t	t	n/a
278.0895	0.105	556179	keystroke_s	s	n/a
278.1795	0.105	556359	keystroke_Key.space	Key.space	n/a
278.2995	0.1055	556599	keystroke_s	s	n/a
278.39	0.045	556780	keystroke_t	t	n/a
278.525	0.105	557050	keystroke_r	r	n/a
278.585	0.075	557170	keystroke_e	e	n/a
278.735	0.105	557470	keystroke_e	e	n/a
278.825	0.105	557650	keystroke_t	t	n/a
278.87	0.12	557740	keystroke_s	s	n/a
278.99	0.075	557980	keystroke_Key.enter	Key.enter	n/a
279.0695	4.137	558139	prompt	n/a	author horror misc knitting\n
279.695	0.09	559390	keystroke_a	a	n/a
279.7995	0.091	559599	keystroke_u	u	n/a
279.875	0.0905	559750	keystroke_t	t	n/a
279.9655	0.075	559931	keystroke_h	h	n/a
280.0555	0.09	560111	keystroke_o	o	n/a
280.1155	0.12	560231	keystroke_r	r	n/a
280.1905	0.09	560381	keystroke_Key.space	Key.space	n/a
280.3255	0.089	560651	keystroke_h	h	n/a
280.4755	0.09	560951	keystroke_o	o	n/a
280.5805	0.06	561161	keystroke_r	r	n/a
280.7155	0.105	561431	keystroke_r	r	n/a
280.7755	0.09	561551	keystroke_o	o	n/a
281.3755	0.105	562751	keystroke_r	r	n/a
281.4645	0.09	562929	keystroke_Key.space	Key.space	n/a
281.6905	0.105	563381	keystroke_m	m	n/a
281.7205	0.119	563441	keystroke_i	i	n/a
281.8405	0.105	563681	keystroke_s	s	n/a
282.0505	0.105	564101	keystroke_c	c	n/a
282.1845	0.09	564369	keystroke_Key.space	Key.space	n/a
282.4405	0.075	564881	keystroke_k	k	n/a
282.5305	0.1345	565061	keystroke_n	n	n/a
282.65	0.09	565300	keystroke_i	i	n/a
282.695	0.06	565390	keystroke_t	t	n/a
282.815	0.09	565630	keystroke_t	t	n/a
282.875	0.09	565750	keystroke_i	i	n/a
282.935	0.09	565870	keystroke_n	n	n/a
283.01	0.075	566020	keystroke_g	g	n/a
283.13	0.075	566260	keystroke_Key.enter	Key.enter	n/a
283.2095	5.787	566419	prompt	n/a	refuse organisms architects developmental\n
283.865	0.075	567730	keystroke_r	r	n/a
283.91	0.0905	567820	keystroke_e	e	n/a
284.0755	0.105	568151	keystroke_f	f	n/a
284.2255	0.105	568451	keystroke_u	u	n/a
284.2705	0.135	568541	keystroke_s	s	n/a
284.3605	0.105	568721	keystroke_e	e	n/a
284.4205	0.09	568841	keystroke_Key.space	Key.space	n/a
284.6905	0.09	569381	keystroke_o	o	n/a
284.7955	0.06	569591	keystroke_r	r	n/a
284.9155	0.105	569831	keystroke_g	g	n/a
284.9755	0.105	569951	keystroke_a	a	n/a
285.0355	0.075	570071	keystroke_n	n	n/a
285.0955	0.09	570191	keystroke_i	i	n/a
285.1705	0.105	570341	keystroke_s	s	n/a
285.2905	0.12	570581	keystroke_m	m	n/a
285.4555	0.09	570911	keystroke_s	s	n/a
285.7845	0.075	571569	keystroke_Key.space	Key.space	n/a
285.8895	0.106	571779	keystroke_a	a	n/a
285.9655	0.074	571931	keystroke_r	r	n/a
286.1905	0.074	572381	keystroke_c	c	n/a
286.2495	0.12	572499	keystroke_h	h	n/a
286.3245	0.12	572649	keystroke_i	i	n/a
286.5645	0.12	573129	keystroke_t	t	n/a
286.6695	0.166	573339	keystroke_e	e	n/a
286.9095	0.106	573819	keystroke_c	c	n/a
287.1505	0.119	574301	keystroke_t	t	n/a
287.1955	0.12	574391	keystroke_s	s	n/a
287.2845	0.106	574569	keystroke_Key.space	Key.space	n/a
287.4655	0.105	574931	keystroke_d	d	n/a
287.5105	0.104	575021	keystroke_e	e	n/a
287.6895	0.091	575379	keystroke_v	v	n/a
287.7345	0.136	575469	keystroke_e	e	n/a
287.8245	0.076	575649	keystroke_l	l	n/a
287.9905	0.0745	575981	keystroke_o	o	n/a
288.14	0.075	576280	keystroke_p	p	n/a
288.305	0.06	576610	keystroke_m	m	n/a
288.38	0.09	576760	keystroke_e	e	n/a
288.5005	0.1045	577001	keystroke_n	n	n/a
288.53	0.12	577060	keystroke_t	t	n/a
288.59	0.09	577180	keystroke_a	a	n/a
288.695	0.075	577390	keystroke_l	l	n/a
288.935	0.06	577870	keystroke_Key.enter	Key.enter	n/a
288.9995	5.157	577999	prompt	n/a	stated economy boot cooling\n
289.595	0.135	579190	keystroke_s	s	n/a
289.76	0.09	579520	keystroke_t	t	n/a
289.865	0.0905	579730	keystroke_a	a	n/a
289.925	0.0905	579850	keystroke_t	t	n/a
290.0305	0.15	580061	keystroke_e	e	n/a
290.1205	0.12	580241	keystroke_d	d	n/a
290.2255	0.105	580451	keystroke_Key.space	Key.space	n/a
290.3155	0.09	580631	keystroke_e	e	n/a
290.4955	0.104	580991	keystroke_c	c	n/a
290.6145	0.061	581229	keystroke_o	o	n/a
290.7345	0.06	581469	keystroke_n	n	n/a
290.8545	0.09	581709	keystroke_o	o	n/a
290.9295	0.12	581859	keystroke_m	m	n/a
291.0345	0.105	582069	keystroke_y	y	n/a
291.1545	0.06	582309	keystroke_Key.space	Key.space	n/a
291.3195	0.03	582639	keystroke_h	h	n/a
291.3945	0.045	582789	keystroke_b	b	n/a
291.875	0.045	583750	keystroke_Key.backspace	Key.backspace	n/a
291.98	0.09	583960	keystroke_Key.backspace	Key.backspace	n/a
292.055	0.075	584110	keystroke_b	b	n/a
292.1595	0.06	584319	keystroke_o	o	n/a
292.2795	0.09	584559	keystroke_o	o	n/a
292.3395	0.075	584679	keystroke_t	t	n/a
292.4295	0.09	584859	keystroke_Key.space	Key.space	n/a
292.58	0.12	585160	keystroke_c	c	n/a
293.345	0.06	586690	keystroke_o	o	n/a
293.465	0.075	586930	keystroke_o	o	n/a
293.63	0.06	587260	keystroke_l	l	n/a
293.78	0.12	587560	keystroke_i	i	n/a
293.87	0.09	587740	keystroke_n	n	n/a
293.915	0.075	587830	keystroke_g	g	n/a
294.065	0.09	588130	keystroke_Key.enter	Key.enter	n/a
294.1595	5.682	588319	prompt	n/a	traveller burn clusters notified\n
295.0845	0.09	590169	keystroke_t	t	n/a
295.2795	0.105	590559	keystroke_r	r	n/a
295.3395	0.105	590679	keystroke_a	a	n/a
295.5495	0.076	591099	keystroke_v	v	n/a
295.7145	0.105	591429	keystroke_e	e	n/a
295.8495	0.06	591699	keystroke_l	l	n/a
295.9695	0.09	591939	keystroke_l	l	n/a
296.0445	0.12	592089	keystroke_e	e	n/a
296.1045	0.105	592209	keystroke_r	r	n/a
296.1945	0.091	592389	keystroke_Key.space	Key.space	n/a
296.3455	0.12	592691	keystroke_b	b	n/a
296.4355	0.075	592871	keystroke_u	u	n/a
296.4805	0.09	592961	keystroke_r	r	n/a
296.5855	0.105	593171	keystroke_n	n	n/a
296.6455	0.12	593291	keystroke_Key.space	Key.space	n/a
296.8845	0.106	593769	keystroke_c	c	n/a
296.9455	0.12	593891	keystroke_l	l	n/a
297.0355	0.105	594071	keystroke_u	u	n/a
297.1105	0.105	594221	keystroke_s	s	n/a
297.1705	0.074	594341	keystroke_t	t	n/a
297.2605	0.165	594521	keystroke_e	e	n/a
297.3505	0.12	594701	keystroke_r	r	n/a
297.4105	0.105	594821	keystroke_s	s	n/a
297.5005	0.09	595001	keystroke_Key.space	Key.space	n/a
298.9695	0.105	597939	keystroke_n	n	n/a
299.1195	0.106	598239	keystroke_o	o	n/a
299.2095	0.09	598419	keystroke_t	t	n/a
299.3445	0.09	598689	keystroke_i	i	n/a
299.4355	0.089	598871	keystroke_f	f	n/a
299.5395	0.06	599079	keystroke_i	i	n/a
299.5695	0.12	599139	keystroke_e	e	n/a
299.6295	0.12	599259	keystroke_d	d	n/a
299.7645	0.075	599529	keystroke_Key.enter	Key.enter	n/a
299.845	5.4565	599690	prompt	n/a	hash funky activists using\n
300.605	0.0745	601210	keystroke_h	h	n/a
300.6805	0.089	601361	keystroke_a	a	n/a
300.7395	0.1055	601479	keystroke_s	s	n/a
300.83	0.09	601660	keystroke_h	h	n/a
300.8745	0.09	601749	keystroke_Key.space	Key.space	n/a
300.9945	0.091	601989	keystroke_f	f	n/a
301.0405	0.075	602081	keystroke_u	u	n/a
301.1605	0.075	602321	keystroke_b	b	n/a
301.2505	0.09	602501	keystroke_k	k	n/a
301.3555	0.105	602711	keystroke_y	y	n/a
301.9705	0.074	603941	keystroke_Key.backspace	Key.backspace	n/a
302.1655	0.06	604331	keystroke_Key.backspace	Key.backspace	n/a
302.3445	0.076	604689	keystroke_Key.backspace	Key.backspace	n/a
302.5705	0.075	605141	keystroke_n	n	n/a
302.6005	0.09	605201	keystroke_k	k	n/a
302.6605	0.09	605321	keystroke_y	y	n/a
302.7655	0.075	605531	keystroke_Key.space	Key.space	n/a
302.9595	0.091	605919	keystroke_a	a	n/a
303.0355	0.105	606071	keystroke_c	c	n/a
303.2905	0.059	606581	keystroke_t	t	n/a
303.3805	0.119	606761	keystroke_i	i	n/a
303.5145	0.09	607029	keystroke_v	v	n/a
303.6355	0.089	607271	keystroke_i	i	n/a
304.0995	0.075	608199	keystroke_s	s	n/a
304.1605	0.165	608321	keystroke_t	t	n/a
304.2805	0.119	608561	keystroke_s	s	n/a
304.415	0.105	608830	keystroke_Key.space	Key.space	n/a
304.76	0.09	609520	keystroke_u	u	n/a
304.835	0.09	609670	keystroke_s	s	n/a
304.94	0.09	609880	keystroke_i	i	n/a
305	0.105	610000	keystroke_n	n	n/a
305.075	0.09	610150	keystroke_g	g	n/a
305.195	0.105	610390	keystroke_Key.enter	Key.enter	n/a
305.3065	6.55	610613	prompt	n/a	arctic label methodology wilderness\n
306.0345	0.12	612069	keystroke_a	a	n/a
306.1095	0.105	612219	keystroke_r	r	n/a
306.4245	0.06	612849	keystroke_t	t	n/a
307.1445	0.09	614289	keystroke_Key.backspace	Key.backspace	n/a
307.2355	0.089	614471	keystroke_c	c	n/a
307.46	0.075	614920	keystroke_t	t	n/a
307.55	0.12	615100	keystroke_i	i	n/a
307.685	0.105	615370	keystroke_c	c	n/a
307.805	0.105	615610	keystroke_Key.space	Key.space	n/a
308.255	0.09	616510	keystroke_l	l	n/a
308.3	0.105	616600	keystroke_a	a	n/a
308.435	0.09	616870	keystroke_b	b	n/a
308.48	0.15	616960	keystroke_e	e	n/a
308.54	0.105	617080	keystroke_l	l	n/a
308.6	0.09	617200	keystroke_Key.space	Key.space	n/a
308.75	0.12	617500	keystroke_m	m	n/a
308.84	0.075	617680	keystroke_e	e	n/a
308.945	0.105	617890	keystroke_t	t	n/a
309.02	0.09	618040	keystroke_h	h	n/a
309.14	0.09	618280	keystroke_o	o	n/a
309.245	0.09	618490	keystroke_d	d	n/a
309.6195	0.045	619239	keystroke_o	o	n/a
309.755	0.06	619510	keystroke_l	l	n/a
309.89	0.09	619780	keystroke_o	o	n/a
309.92	0.075	619840	keystroke_g	g	n/a
310.1	0.075	620200	keystroke_y	y	n/a
310.16	0.105	620320	keystroke_Key.space	Key.space	n/a
310.34	0.12	620680	keystroke_w	w	n/a
310.445	0.09	620890	keystroke_i	i	n/a
310.73	0.0595	621460	keystroke_l	l	n/a
310.8645	0.106	621729	keystroke_d	d	n/a
311.2095	0.1055	622419	keystroke_e	e	n/a
311.2545	0.1055	622509	keystroke_r	r	n/a
311.39	0.09	622780	keystroke_n	n	n/a
311.465	0.12	622930	keystroke_e	e	n/a
311.525	0.075	623050	keystroke_s	s	n/a
311.66	0.09	623320	keystroke_s	s	n/a
311.78	0.0745	623560	keystroke_Key.enter	Key.enter	n/a
311.86	8.832	623720	prompt	n/a	televisions palestine apply perfectly\n
312.5305	0.12	625061	keystroke_t	t	n/a
312.6055	0.105	625211	keystroke_e	e	n/a
312.9655	0.09	625931	keystroke_l	l	n/a
313.0405	0.09	626081	keystroke_e	e	n/a
313.2055	0.09	626411	keystroke_v	v	n/a
313.2355	0.105	626471	keystroke_e	e	n/a
315.32	0.075	630640	keystroke_Key.backspace	Key.backspace	n/a
316.085	0.09	632170	keystroke_i	i	n/a
316.175	0.12	632350	keystroke_s	s	n/a
316.265	0.12	632530	keystroke_i	i	n/a
316.34	0.075	632680	keystroke_o	o	n/a
317.1505	0.09	634301	keystroke_n	n	n/a
317.2255	0.105	634451	keystroke_s	s	n/a
317.3155	0.105	634631	keystroke_Key.space	Key.space	n/a
317.5855	0.09	635171	keystroke_p	p	n/a
317.7955	0.105	635591	keystroke_a	a	n/a
317.9455	0.12	635891	keystroke_l	l	n/a
318.0505	0.15	636101	keystroke_e	e	n/a
318.1255	0.105	636251	keystroke_s	s	n/a
318.2605	0.105	636521	keystroke_t	t	n/a
318.3655	0.12	636731	keystroke_i	i	n/a
318.4705	0.1195	636941	keystroke_n	n	n/a
318.545	0.105	637090	keystroke_e	e	n/a
318.635	0.075	637270	keystroke_Key.space	Key.space	n/a
318.725	0.12	637450	keystroke_a	a	n/a
318.8	0.075	637600	keystroke_p	p	n/a
318.935	0.09	637870	keystroke_p	p	n/a
318.95	0.135	637900	keystroke_l	l	n/a
319.04	0.105	638080	keystroke_y	y	n/a
319.13	0.105	638260	keystroke_Key.space	Key.space	n/a
319.28	0.09	638560	keystroke_p	p	n/a
319.355	0.105	638710	keystroke_e	e	n/a
319.3995	0.1055	638799	keystroke_r	r	n/a
319.595	0.105	639190	keystroke_f	f	n/a
319.67	0.105	639340	keystroke_e	e	n/a
319.835	0.09	639670	keystroke_c	c	n/a
320.06	0.105	640120	keystroke_t	t	n/a
320.405	0.075	640810	keystroke_l	l	n/a
320.481	0.119	640962	keystroke_y	y	n/a
320.615	0.075	641230	keystroke_Key.enter	Key.enter	n/a
320.695	4.7815	641390	prompt	n/a	adams volumes psychology heavy\n
321.26	0.075	642520	keystroke_a	a	n/a
321.32	0.15	642640	keystroke_d	d	n/a
321.41	0.105	642820	keystroke_a	a	n/a
321.5	0.1055	643000	keystroke_m	m	n/a
321.5595	0.105	643119	keystroke_s	s	n/a
321.6795	0.075	643359	keystroke_Key.space	Key.space	n/a
321.7845	0.091	643569	keystroke_v	v	n/a
321.8445	0.076	643689	keystroke_o	o	n/a
321.9805	0.089	643961	keystroke_l	l	n/a
322.1005	0.075	644201	keystroke_u	u	n/a
322.2505	0.104	644501	keystroke_m	m	n/a
322.2955	0.104	644591	keystroke_e	e	n/a
322.3555	0.089	644711	keystroke_s	s	n/a
322.4145	0.075	644829	keystroke_Key.space	Key.space	n/a
322.5345	0.106	645069	keystroke_p	p	n/a
322.5655	0.09	645131	keystroke_s	s	n/a
322.7295	0.09	645459	keystroke_y	y	n/a
322.9855	0.12	645971	keystroke_c	c	n/a
323.0895	0.075	646179	keystroke_h	h	n/a
323.2405	0.06	646481	keystroke_o	o	n/a
323.3905	0.059	646781	keystroke_l	l	n/a
323.525	0.09	647050	keystroke_o	o	n/a
323.57	0.075	647140	keystroke_g	g	n/a
323.72	0.075	647440	keystroke_y	y	n/a
323.765	0.09	647530	keystroke_Key.space	Key.space	n/a
323.885	0.09	647770	keystroke_h	h	n/a
323.945	0.075	647890	keystroke_e	e	n/a
324.005	0.12	648010	keystroke_a	a	n/a
324.2	0.06	648400	keystroke_c	c	n/a
324.23	0.09	648460	keystroke_y	y	n/a
324.8445	0.106	649689	keystroke_Key.backspace	Key.backspace	n/a
324.9655	0.03	649931	keystroke_Key.backspace	Key.backspace	n/a
325.0105	0.105	650021	keystroke_v	v	n/a
325.1155	0.075	650231	keystroke_y	y	n/a
325.3845	0.09	650769	keystroke_Key.enter	Key.enter	n/a
325.4795	5.502	650959	prompt	n/a	bankruptcy trial dana bestsellers\n
326.1795	0.0905	652359	keystroke_b	b	n/a
326.255	0.09	652510	keystroke_a	a	n/a
326.645	0.09	653290	keystroke_n	n	n/a
326.72	0.075	653440	keystroke_k	k	n/a
326.93	0.12	653860	keystroke_r	r	n/a
327.095	0.09	654190	keystroke_u	u	n/a
327.155	0.105	654310	keystroke_p	p	n/a
327.245	0.09	654490	keystroke_t	t	n/a
327.455	0.105	654910	keystroke_c	c	n/a
327.515	0.09	655030	keystroke_y	y	n/a
327.575	0.12	655150	keystroke_Key.space	Key.space	n/a
328.085	0.06	656170	keystroke_t	t	n/a
328.22	0.105	656440	keystroke_r	r	n/a
328.295	0.09	656590	keystroke_i	i	n/a
328.4	0.105	656800	keystroke_a	a	n/a
328.46	0.1195	656920	keystroke_l	l	n/a
328.5195	0.105	657039	keystroke_Key.space	Key.space	n/a
328.9545	0.075	657909	keystroke_d	d	n/a
328.9995	0.075	657999	keystroke_a	a	n/a
329.12	0.06	658240	keystroke_n	n	n/a
329.135	0.105	658270	keystroke_a	a	n/a
329.255	0.06	658510	keystroke_Key.space	Key.space	n/a
329.765	0.06	659530	keystroke_b	b	n/a
329.8105	0.0445	659621	keystroke_e	e	n/a
329.84	0.045	659680	keystroke_s	s	n/a
329.87	0.045	659740	keystroke_t	t	n/a
330.185	0.105	660370	keystroke_s	s	n/a
330.245	0.1205	660490	keystroke_e	e	n/a
330.4105	0.06	660821	keystroke_l	l	n/a
330.56	0.09	661120	keystroke_l	l	n/a
330.665	0.12	661330	keystroke_e	e	n/a
330.71	0.105	661420	keystroke_r	r	n/a
330.77	0.105	661540	keystroke_s	s	n/a
330.875	0.105	661750	keystroke_Key.enter	Key.enter	n/a
330.9935	4.203	661987	prompt	n/a	nudist lobby combined bracket\n
331.625	0.1645	663250	keystroke_n	n	n/a
331.7305	0.1045	663461	keystroke_u	u	n/a
331.82	0.105	663640	keystroke_d	d	n/a
331.955	0.105	663910	keystroke_i	i	n/a
332.045	0.09	664090	keystroke_s	s	n/a
332.075	0.105	664150	keystroke_t	t	n/a
332.27	0.075	664540	keystroke_l	l	n/a
332.84	0.09	665680	keystroke_Key.backspace	Key.backspace	n/a
332.915	0.09	665830	keystroke_Key.space	Key.space	n/a
333.095	0.045	666190	keystroke_l	l	n/a
333.23	0.075	666460	keystroke_o	o	n/a
333.32	0.075	666640	keystroke_b	b	n/a
333.455	0.105	666910	keystroke_b	b	n/a
333.5305	0.09	667061	keystroke_y	y	n/a
333.575	0.105	667150	keystroke_Key.space	Key.space	n/a
333.7405	0.0895	667481	keystroke_c	c	n/a
333.785	0.075	667570	keystroke_o	o	n/a
333.905	0.105	667810	keystroke_m	m	n/a
333.995	0.09	667990	keystroke_b	b	n/a
334.1	0.1055	668200	keystroke_i	i	n/a
334.16	0.12	668320	keystroke_n	n	n/a
334.2205	0.1195	668441	keystroke_e	e	n/a
334.265	0.12	668530	keystroke_d	d	n/a
334.355	0.0745	668710	keystroke_Key.space	Key.space	n/a
334.4605	0.134	668921	keystroke_b	b	n/a
334.5205	0.09	669041	keystroke_r	r	n/a
334.5795	0.091	669159	keystroke_a	a	n/a
334.7295	0.105	669459	keystroke_c	c	n/a
334.8205	0.09	669641	keystroke_k	k	n/a
334.9245	0.135	669849	keystroke_e	e	n/a
334.9855	0.104	669971	keystroke_t	t	n/a
335.1045	0.09	670209	keystroke_Key.enter	Key.enter	n/a
335.1995	6.387	670399	prompt	n/a	evaluating carol processors excited\n
335.8855	0.105	671771	keystroke_e	e	n/a
336.1555	0.029	672311	keystroke_v	v	n/a
336.1695	0.091	672339	keystroke_a	a	n/a
336.92	0.105	673840	keystroke_l	l	n/a
337.265	0.105	674530	keystroke_u	u	n/a
337.385	0.075	674770	keystroke_a	a	n/a
337.43	0.09	674860	keystroke_t	t	n/a
337.49	0.105	674980	keystroke_i	i	n/a
337.565	0.12	675130	keystroke_n	n	n/a
337.64	0.09	675280	keystroke_g	g	n/a
337.715	0.12	675430	keystroke_Key.space	Key.space	n/a
337.865	0.09	675730	keystroke_c	c	n/a
337.91	0.105	675820	keystroke_a	a	n/a
338.06	0.105	676120	keystroke_r	r	n/a
338.12	0.075	676240	keystroke_o	o	n/a
338.285	0.075	676570	keystroke_l	l	n/a
338.315	0.105	676630	keystroke_Key.space	Key.space	n/a
338.48	0.09	676960	keystroke_p	p	n/a
338.555	0.105	677110	keystroke_r	r	n/a
338.675	0.09	677350	keystroke_o	o	n/a
338.795	0.135	677590	keystroke_c	c	n/a
338.855	0.12	677710	keystroke_e	e	n/a
339.05	0.105	678100	keystroke_s	s	n/a
339.29	0.09	678580	keystroke_s	s	n/a
339.455	0.09	678910	keystroke_o	o	n/a
339.515	0.105	679030	keystroke_r	r	n/a
339.575	0.105	679150	keystroke_s	s	n/a
339.68	0.105	679360	keystroke_Key.space	Key.space	n/a
339.9045	0.09	679809	keystroke_e	e	n/a
340.4445	0.1205	680889	keystroke_x	x	n/a
340.985	0.09	681970	keystroke_c	c	n/a
341.09	0.12	682180	keystroke_i	i	n/a
341.225	0.09	682450	keystroke_t	t	n/a
341.3	0.165	682600	keystroke_e	e	n/a
341.42	0.105	682840	keystroke_d	d	n/a
341.54	0.045	683080	keystroke_Key.enter	Key.enter	n/a
341.5905	4.781	683181	prompt	n/a	alpine seafood solaris birth\n
342.185	0.09	684370	keystroke_a	a	n/a
342.26	0.09	684520	keystroke_l	l	n/a
343.0845	0.0755	686169	keystroke_p	p	n/a
343.19	0.075	686380	keystroke_i	i	n/a
343.355	0.075	686710	keystroke_n	n	n/a
343.385	0.12	686770	keystroke_e	e	n/a
343.475	0.105	686950	keystroke_s	s	n/a
343.55	0.105	687100	keystroke_Key.space	Key.space	n/a
343.685	0.09	687370	keystroke_s	s	n/a
343.76	0.135	687520	keystroke_e	e	n/a
343.895	0.105	687790	keystroke_a	a	n/a
344.045	0.09	688090	keystroke_f	f	n/a
344.225	0.075	688450	keystroke_o	o	n/a
344.375	0.075	688750	keystroke_o	o	n/a
344.435	0.105	688870	keystroke_d	d	n/a
344.555	0.06	689110	keystroke_Key.space	Key.space	n/a
344.63	0.105	689260	keystroke_s	s	n/a
344.705	0.075	689410	keystroke_o	o	n/a
344.855	0.09	689710	keystroke_l	l	n/a
344.9	0.09	689800	keystroke_a	a	n/a
344.96	0.09	689920	keystroke_r	r	n/a
345.08	0.09	690160	keystroke_i	i	n/a
345.17	0.105	690340	keystroke_s	s	n/a
345.245	0.105	690490	keystroke_Key.space	Key.space	n/a
345.53	0.09	691060	keystroke_b	b	n/a
345.665	0.1045	691330	keystroke_i	i	n/a
345.8745	0.09	691749	keystroke_r	r	n/a
346.0405	0.104	692081	keystroke_t	t	n/a
346.0995	0.0905	692199	keystroke_h	h	n/a
346.28	0.09	692560	keystroke_Key.enter	Key.enter	n/a
346.3745	9.087	692749	prompt	n/a	thousands close reception injured\n
346.97	0.105	693940	keystroke_t	t	n/a
347.03	0.06	694060	keystroke_h	h	n/a
347.135	0.12	694270	keystroke_o	o	n/a
347.21	0.09	694420	keystroke_u	u	n/a
347.27	0.09	694540	keystroke_s	s	n/a
347.301	0.089	694602	keystroke_e	e	n/a
347.48	0.105	694960	keystroke_s	s	n/a
347.54	0.09	695080	keystroke_a	a	n/a
347.615	0.09	695230	keystroke_n	n	n/a
347.69	0.09	695380	keystroke_d	d	n/a
347.795	0.075	695590	keystroke_Key.space	Key.space	n/a
347.915	0.09	695830	keystroke_c	c	n/a
347.975	0.075	695950	keystroke_l	l	n/a
348.14	0.075	696280	keystroke_o	o	n/a
348.2	0.105	696400	keystroke_s	s	n/a
348.245	0.12	696490	keystroke_e	e	n/a
348.32	0.09	696640	keystroke_Key.space	Key.space	n/a
349.1445	0.345	698289	keystroke_Key.backspace	Key.backspace	n/a
349.745	0.0595	699490	keystroke_Key.backspace	Key.backspace	n/a
349.97	0.09	699940	keystroke_Key.backspace	Key.backspace	n/a
350.21	0.075	700420	keystroke_Key.backspace	Key.backspace	n/a
350.465	0.075	700930	keystroke_Key.backspace	Key.backspace	n/a
350.675	0.075	701350	keystroke_Key.backspace	Key.backspace	n/a
350.9	0.075	701800	keystroke_Key.backspace	Key.backspace	n/a
351.17	0.06	702340	keystroke_Key.backspace	Key.backspace	n/a
351.38	0.075	702760	keystroke_Key.backspace	Key.backspace	n/a
351.59	0.075	703180	keystroke_Key.backspace	Key.backspace	n/a
351.7845	0.06	703569	keystroke_Key.backspace	Key.backspace	n/a
351.9645	0.09	703929	keystroke_Key.backspace	Key.backspace	n/a
352.7455	0.119	705491	keystroke_a	a	n/a
352.8795	0.09	705759	keystroke_n	n	n/a
352.9405	0.104	705881	keystroke_d	d	n/a
352.9995	0.09	705999	keystroke_s	s	n/a
353.0745	0.075	706149	keystroke_Key.space	Key.space	n/a
353.1955	0.104	706391	keystroke_c	c	n/a
353.2545	0.075	706509	keystroke_l	l	n/a
353.4055	0.1045	706811	keystroke_o	o	n/a
353.4795	0.0905	706959	keystroke_s	s	n/a
353.525	0.105	707050	keystroke_e	e	n/a
353.585	0.105	707170	keystroke_Key.space	Key.space	n/a
353.705	0.105	707410	keystroke_r	r	n/a
353.78	0.105	707560	keystroke_e	e	n/a
353.96	0.135	707920	keystroke_c	c	n/a
354.005	0.135	708010	keystroke_e	e	n/a
354.155	0.075	708310	keystroke_p	p	n/a
354.26	0.0905	708520	keystroke_t	t	n/a
354.335	0.1055	708670	keystroke_i	i	n/a
354.3945	0.061	708789	keystroke_o	o	n/a
354.5305	0.075	709061	keystroke_n	n	n/a
354.5745	0.09	709149	keystroke_Key.space	Key.space	n/a
354.7255	0.104	709451	keystroke_i	i	n/a
354.8595	0.075	709719	keystroke_n	n	n/a
355.0545	0.075	710109	keystroke_u	u	n/a
355.1305	0.074	710261	keystroke_r	r	n/a
355.1895	0.15	710379	keystroke_e	e	n/a
355.3095	0.105	710619	keystroke_d	d	n/a
355.3845	0.075	710769	keystroke_Key.enter	Key.enter	n/a
355.4645	4.032	710929	prompt	n/a	forces charm side doctors\n
356.1945	0.0755	712389	keystroke_f	f	n/a
356.285	0.105	712570	keystroke_o	o	n/a
356.375	0.075	712750	keystroke_r	r	n/a
356.5705	0.075	713141	keystroke_c	c	n/a
356.705	0.1505	713410	keystroke_e	e	n/a
356.7655	0.135	713531	keystroke_d	d	n/a
356.9005	0.105	713801	keystroke_Key.space	Key.space	n/a
357.1705	0.105	714341	keystroke_c	c	n/a
357.2905	0.09	714581	keystroke_h	h	n/a
357.3805	0.09	714761	keystroke_a	a	n/a
357.4255	0.135	714851	keystroke_r	r	n/a
357.5155	0.0745	715031	keystroke_m	m	n/a
357.575	0.09	715150	keystroke_Key.space	Key.space	n/a
357.71	0.09	715420	keystroke_s	s	n/a
357.785	0.105	715570	keystroke_i	i	n/a
357.875	0.12	715750	keystroke_d	d	n/a
357.935	0.135	715870	keystroke_e	e	n/a
358.055	0.09	716110	keystroke_Key.space	Key.space	n/a
358.625	0.075	717250	keystroke_d	d	n/a
358.715	0.09	717430	keystroke_o	o	n/a
358.865	0.0745	717730	keystroke_c	c	n/a
359.0745	0.06	718149	keystroke_t	t	n/a
359.1645	0.105	718329	keystroke_o	o	n/a
359.2245	0.135	718449	keystroke_r	r	n/a
359.2845	0.135	718569	keystroke_s	s	n/a
359.3895	0.105	718779	keystroke_Key.enter	Key.enter	n/a
359.5	2.7865	719000	prompt	n/a	former game beings meaning\n
360.0645	0.09	720129	keystroke_f	f	n/a
360.1695	0.09	720339	keystroke_o	o	n/a
360.2745	0.06	720549	keystroke_r	r	n/a
360.3495	0.09	720699	keystroke_m	m	n/a
360.4095	0.1055	720819	keystroke_e	e	n/a
360.4545	0.0905	720909	keystroke_r	r	n/a
360.53	0.105	721060	keystroke_Key.space	Key.space	n/a
360.65	0.09	721300	keystroke_g	g	n/a
360.695	0.075	721390	keystroke_a	a	n/a
360.755	0.09	721510	keystroke_m	m	n/a
360.83	0.105	721660	keystroke_e	e	n/a
360.92	0.06	721840	keystroke_Key.space	Key.space	n/a
360.995	0.09	721990	keystroke_b	b	n/a
361.1	0.075	722200	keystroke_e	e	n/a
361.145	0.135	722290	keystroke_i	i	n/a
361.22	0.135	722440	keystroke_n	n	n/a
361.295	0.12	722590	keystroke_g	g	n/a
361.34	0.12	722680	keystroke_s	s	n/a
361.43	0.09	722860	keystroke_Key.space	Key.space	n/a
361.64	0.09	723280	keystroke_m	m	n/a
361.7	0.12	723400	keystroke_e	e	n/a
361.745	0.12	723490	keystroke_a	a	n/a
361.85	0.075	723700	keystroke_n	n	n/a
361.91	0.12	723820	keystroke_i	i	n/a
362	0.09	724000	keystroke_n	n	n/a
362.045	0.1045	724090	keystroke_g	g	n/a
362.1795	0.105	724359	keystroke_Key.enter	Key.enter	n/a
362.2895	6.7655	724579	prompt	n/a	safely republican commerce customs\n
362.9145	0.1205	725829	keystroke_s	s	n/a
362.9895	0.0605	725979	keystroke_e	e	n/a
363.605	0.075	727210	keystroke_Key.backspace	Key.backspace	n/a
363.68	0.09	727360	keystroke_a	a	n/a
363.725	0.12	727450	keystroke_f	f	n/a
363.785	0.12	727570	keystroke_e	e	n/a
363.89	0.105	727780	keystroke_l	l	n/a
364.01	0.09	728020	keystroke_y	y	n/a
364.085	0.09	728170	keystroke_Key.space	Key.space	n/a
364.22	0.09	728440	keystroke_r	r	n/a
364.265	0.1205	728530	keystroke_e	e	n/a
364.4	0.06	728800	keystroke_p	p	n/a
