onset	duration	sample	value	key	prompt_text
6.6205	10.41	13241	prompt	n/a	the quick brown fox jumps over a lazy dog\n
8.9135	0.058	17827	keystroke	t	n/a
9.017	0.0895	18034	keystroke	h	n/a
9.091	0.061	18182	keystroke	e	n/a
9.301	0.0905	18602	keystroke	Key.space	n/a
9.7065	0.09	19413	keystroke	q	n/a
9.812	0.1495	19624	keystroke	u	n/a
9.9015	0.0755	19803	keystroke	i	n/a
10.1265	0.0895	20253	keystroke	c	n/a
10.217	0.075	20434	keystroke	k	n/a
10.4115	0.075	20823	keystroke	Key.space	n/a
10.7565	0.0905	21513	keystroke	b	n/a
10.9065	0.1055	21813	keystroke	r	n/a
11.027	0.09	22054	keystroke	o	n/a
11.132	0.075	22264	keystroke	w	n/a
11.252	0.075	22504	keystroke	n	n/a
11.401	0.105	22802	keystroke	Key.space	n/a
11.837	0.075	23674	keystroke	f	n/a
11.927	0.089	23854	keystroke	o	n/a
12.166	0.106	24332	keystroke	x	n/a
12.287	0.075	24574	keystroke	Key.space	n/a
12.482	0.0745	24964	keystroke	j	n/a
12.6315	0.075	25263	keystroke	u	n/a
12.796	0.0905	25592	keystroke	m	n/a
12.9915	0.0755	25983	keystroke	p	n/a
13.067	0.09	26134	keystroke	s	n/a
13.217	0.09	26434	keystroke	Key.space	n/a
13.591	0.075	27182	keystroke	o	n/a
13.6965	0.0895	27393	keystroke	v	n/a
13.891	0.121	27782	keystroke	e	n/a
13.9665	0.0905	27933	keystroke	r	n/a
14.071	0.091	28142	keystroke	Key.space	n/a
14.177	0.075	28354	keystroke	a	n/a
14.2815	0.1055	28563	keystroke	Key.space	n/a
14.657	0.089	29314	keystroke	l	n/a
14.716	0.105	29432	keystroke	a	n/a
15.1215	0.1495	30243	keystroke	z	n/a
15.286	0.0755	30572	keystroke	y	n/a
15.841	0.1055	31682	keystroke	Key.space	n/a
16.112	0.09	32224	keystroke	d	n/a
16.217	0.075	32434	keystroke	o	n/a
16.472	0.075	32944	keystroke	g	n/a
16.9365	0.09	33873	keystroke	Key.enter	n/a
17.037	9.593	34074	prompt	n/a	publications realized obesity reed\n
18.077	0.09	36154	keystroke	p	n/a
18.2565	0.0905	36513	keystroke	u	n/a
18.4815	0.0605	36963	keystroke	b	n/a
18.5565	0.0905	37113	keystroke	l	n/a
18.752	0.0595	37504	keystroke	i	n/a
18.842	0.105	37684	keystroke	c	n/a
19.022	0.105	38044	keystroke	a	n/a
19.232	0.09	38464	keystroke	t	n/a
19.292	0.15	38584	keystroke	i	n/a
19.367	0.12	38734	keystroke	o	n/a
19.427	0.12	38854	keystroke	n	n/a
19.517	0.045	39034	keystroke	s	n/a
19.952	0.09	39904	keystroke	Key.space	n/a
20.2365	0.12	40473	keystroke	r	n/a
20.327	0.045	40654	keystroke	e	n/a
20.3865	0.105	40773	keystroke	a	n/a
20.5365	0.0905	41073	keystroke	l	n/a
20.7165	0.0605	41433	keystroke	i	n/a
20.8365	0.15	41673	keystroke	z	n/a
21.0915	0.0755	42183	keystroke	e	n/a
21.2565	0.105	42513	keystroke	d	n/a
21.3765	0.105	42753	keystroke	Key.space	n/a
22.1265	0.075	44253	keystroke	o	n/a
22.5775	0.074	45155	keystroke	b	n/a
22.667	0.075	45334	keystroke	e	n/a
22.802	0.09	45604	keystroke	s	n/a
23.042	0.09	46084	keystroke	i	n/a
23.147	0.075	46294	keystroke	t	n/a
23.326	0.061	46652	keystroke	y	n/a
24.4965	0.09	48993	keystroke	Key.space	n/a
24.6025	0.089	49205	keystroke	r	n/a
24.6625	0.074	49325	keystroke	e	n/a
25.0075	0.0895	50015	keystroke	e	n/a
25.2015	0.09	50403	keystroke	d	n/a
26.4915	0.136	52983	keystroke	Key.enter	n/a
26.635	5.919	53270	prompt	n/a	slim guardian draft consultants\n
27.422	0.0755	54844	keystroke	s	n/a
27.512	0.0905	55024	keystroke	l	n/a
27.707	0.075	55414	keystroke	i	n/a
27.857	0.09	55714	keystroke	m	n/a
28.0515	0.075	56103	keystroke	Key.space	n/a
28.4115	0.06	56823	keystroke	g	n/a
28.4575	0.0895	56915	keystroke	u	n/a
28.5625	0.1645	57125	keystroke	a	n/a
28.6815	0.09	57363	keystroke	r	n/a
28.8465	0.136	57693	keystroke	d	n/a
29.027	0.09	58054	keystroke	i	n/a
29.1325	0.074	58265	keystroke	a	n/a
29.252	0.0895	58504	keystroke	n	n/a
29.5065	0.0755	59013	keystroke	Key.space	n/a
29.777	0.1055	59554	keystroke	d	n/a
29.9415	0.091	59883	keystroke	r	n/a
30.0625	0.1495	60125	keystroke	a	n/a
30.167	0.105	60334	keystroke	f	n/a
30.347	0.075	60694	keystroke	t	n/a
30.467	0.09	60934	keystroke	Key.space	n/a
30.8265	0.075	61653	keystroke	c	n/a
30.9025	0.134	61805	keystroke	o	n/a
30.9615	0.09	61923	keystroke	n	n/a
31.1415	0.0755	62283	keystroke	s	n/a
31.2325	0.075	62465	keystroke	u	n/a
31.4415	0.091	62883	keystroke	l	n/a
31.5465	0.09	63093	keystroke	t	n/a
31.742	0.1055	63484	keystroke	a	n/a
31.8325	0.09	63665	keystroke	n	n/a
31.9365	0.105	63873	keystroke	t	n/a
32.102	0.105	64204	keystroke	s	n/a
32.4465	0.105	64893	keystroke	Key.enter	n/a
32.558	9.401	65116	prompt	n/a	screensavers switched frederick almost\n
33.2115	0.075	66423	keystroke	s	n/a
33.467	0.0895	66934	keystroke	c	n/a
33.692	0.0895	67384	keystroke	r	n/a
33.8115	0.1055	67623	keystroke	e	n/a
33.977	0.075	67954	keystroke	e	n/a
34.1115	0.0905	68223	keystroke	n	n/a
34.367	0.1045	68734	keystroke	s	n/a
34.547	0.105	69094	keystroke	a	n/a
34.8315	0.0905	69663	keystroke	v	n/a
34.9815	0.1205	69963	keystroke	e	n/a
35.072	0.0595	70144	keystroke	r	n/a
35.2065	0.1205	70413	keystroke	s	n/a
35.7315	0.09	71463	keystroke	Key.space	n/a
35.8365	0.0755	71673	keystroke	s	n/a
36.062	0.135	72124	keystroke	w	n/a
36.227	0.1045	72454	keystroke	i	n/a
36.3175	0.074	72635	keystroke	t	n/a
36.5275	0.075	73055	keystroke	c	n/a
36.617	0.0895	73234	keystroke	h	n/a
36.6765	0.075	73353	keystroke	e	n/a
36.827	0.09	73654	keystroke	d	n/a
36.932	0.09	73864	keystroke	Key.space	n/a
37.397	0.075	74794	keystroke	f	n/a
37.577	0.09	75154	keystroke	r	n/a
37.652	0.09	75304	keystroke	e	n/a
37.802	0.09	75604	keystroke	d	n/a
37.9675	0.1345	75935	keystroke	e	n/a
38.057	0.075	76114	keystroke	r	n/a
38.222	0.075	76444	keystroke	i	n/a
38.327	0.09	76654	keystroke	c	n/a
38.432	0.105	76864	keystroke	k	n/a
38.837	0.0745	77674	keystroke	Key.space	n/a
38.9565	0.0905	77913	keystroke	a	n/a
39.0775	0.105	78155	keystroke	l	n/a
39.197	0.0895	78394	keystroke	m	n/a
39.3175	0.1045	78635	keystroke	s	n/a
39.3765	0.105	78753	keystroke	o	n/a
39.677	0.0595	79354	keystroke	t	n/a
40.547	0.045	81094	keystroke	Key.backspace	n/a
40.6815	0.045	81363	keystroke	Key.backspace	n/a
40.9965	0.06	81993	keystroke	Key.backspace	n/a
41.402	0.075	82804	keystroke	o	n/a
41.4615	0.0905	82923	keystroke	s	n/a
41.6565	0.075	83313	keystroke	t	n/a
41.867	0.0895	83734	keystroke	Key.enter	n/a
41.964	9.041	83928	prompt	n/a	excellent energy dramatically stocks\n
42.692	0.045	85384	keystroke	w	n/a
43.247	0.0895	86494	keystroke	Key.backspace	n/a
43.3215	0.061	86643	keystroke	e	n/a
43.847	0.075	87694	keystroke	x	n/a
44.0565	0.105	88113	keystroke	c	n/a
44.2075	0.075	88415	keystroke	e	n/a
44.3415	0.091	88683	keystroke	l	n/a
44.4765	0.106	88953	keystroke	l	n/a
44.552	0.1055	89104	keystroke	e	n/a
44.7175	0.074	89435	keystroke	t	n/a
45.1215	0.0755	90243	keystroke	Key.backspace	n/a
45.3325	0.075	90665	keystroke	n	n/a
45.3775	0.075	90755	keystroke	t	n/a
45.8565	0.09	91713	keystroke	Key.space	n/a
46.1115	0.0605	92223	keystroke	e	n/a
46.1875	0.104	92375	keystroke	n	n/a
46.2765	0.0755	92553	keystroke	e	n/a
46.4115	0.0905	92823	keystroke	r	n/a
46.6225	0.089	93245	keystroke	g	n/a
46.787	0.09	93574	keystroke	y	n/a
46.922	0.0895	93844	keystroke	Key.space	n/a
47.2975	0.089	94595	keystroke	d	n/a
47.4765	0.0905	94953	keystroke	r	n/a
47.612	0.09	95224	keystroke	a	n/a
47.747	0.06	95494	keystroke	m	n/a
47.822	0.06	95644	keystroke	a	n/a
48.167	0.075	96334	keystroke	t	n/a
48.332	0.06	96664	keystroke	i	n/a
48.407	0.09	96814	keystroke	c	n/a
48.557	0.0895	97114	keystroke	a	n/a
48.6765	0.06	97353	keystroke	l	n/a
48.7815	0.105	97563	keystroke	l	n/a
48.917	0.06	97834	keystroke	y	n/a
49.0365	0.1055	98073	keystroke	Key.space	n/a
49.682	0.15	99364	keystroke	s	n/a
49.982	0.075	99964	keystroke	t	n/a
50.1625	0.074	100325	keystroke	o	n/a
50.3415	0.09	100683	keystroke	c	n/a
50.4325	0.0895	100865	keystroke	k	n/a
50.5065	0.09	101013	keystroke	s	n/a
50.897	0.105	101794	keystroke	Key.enter	n/a
51.009	11.486	102018	prompt	n/a	disclose veterinary prophet wages\n
51.9325	0.015	103865	keystroke	d	n/a
52.847	0.0895	105694	keystroke	i	n/a
52.9515	0.2255	105903	keystroke	s	n/a
53.2675	0.0895	106535	keystroke	c	n/a
53.402	0.0895	106804	keystroke	l	n/a
53.8525	0.09	107705	keystroke	o	n/a
54.0325	0.075	108065	keystroke	s	n/a
54.2115	0.0905	108423	keystroke	e	n/a
54.8715	0.09	109743	keystroke	Key.space	n/a
55.1565	0.105	110313	keystroke	v	n/a
55.352	0.165	110704	keystroke	e	n/a
55.5175	0.0595	111035	keystroke	t	n/a
55.622	0.105	111244	keystroke	e	n/a
55.6975	0.074	111395	keystroke	r	n/a
55.892	0.1505	111784	keystroke	i	n/a
55.9825	0.09	111965	keystroke	n	n/a
56.117	0.135	112234	keystroke	a	n/a
56.282	0.1055	112564	keystroke	r	n/a
56.492	0.0755	112984	keystroke	y	n/a
57.9325	0.089	115865	keystroke	Key.space	n/a
59.177	0.1045	118354	keystroke	p	n/a
59.4015	0.076	118803	keystroke	r	n/a
59.5525	0.09	119105	keystroke	o	n/a
59.9725	0.119	119945	keystroke	p	n/a
60.182	0.0895	120364	keystroke	h	n/a
60.3315	0.1055	120663	keystroke	e	n/a
60.497	0.06	120994	keystroke	t	n/a
60.752	0.075	121504	keystroke	Key.space	n/a
61.2175	0.0895	122435	keystroke	w	n/a
61.3825	0.0895	122765	keystroke	a	n/a
61.592	0.09	123184	keystroke	g	n/a
61.712	0.0605	123424	keystroke	e	n/a
62.057	0.0605	124114	keystroke	s	n/a
62.387	0.105	124774	keystroke	Key.enter	n/a
62.5005	10.524	125001	prompt	n/a	management cave located agriculture\n
63.2875	0.0895	126575	keystroke	m	n/a
63.3925	0.0595	126785	keystroke	a	n/a
63.4675	0.1195	126935	keystroke	n	n/a
63.572	0.0755	127144	keystroke	a	n/a
63.7225	0.1045	127445	keystroke	g	n/a
63.8425	0.105	127685	keystroke	e	n/a
63.9325	0.075	127865	keystroke	m	n/a
64.0675	0.074	128135	keystroke	e	n/a
64.1565	0.091	128313	keystroke	n	n/a
64.4875	0.0895	128975	keystroke	t	n/a
65.312	0.09	130624	keystroke	Key.space	n/a
65.4925	0.105	130985	keystroke	c	n/a
65.6125	0.105	131225	keystroke	a	n/a
65.7325	0.15	131465	keystroke	v	n/a
65.8975	0.105	131795	keystroke	e	n/a
66.1675	0.044	132335	keystroke	Key.space	n/a
66.5425	0.075	133085	keystroke	l	n/a
66.7525	0.09	133505	keystroke	o	n/a
66.7975	0.09	133595	keystroke	c	n/a
66.8725	0.15	133745	keystroke	a	n/a
67.0675	0.12	134135	keystroke	t	n/a
67.1875	0.105	134375	keystroke	e	n/a
67.3675	0.105	134735	keystroke	d	n/a
67.4875	0.09	134975	keystroke	Key.space	n/a
67.6675	0.12	135335	keystroke	a	n/a
68.0425	0.0895	136085	keystroke	g	n/a
68.1475	0.1195	136295	keystroke	r	n/a
68.282	0.1055	136564	keystroke	i	n/a
68.522	0.06	137044	keystroke	c	n/a
68.792	0.09	137584	keystroke	u	n/a
69.002	0.0905	138004	keystroke	l	n/a
69.1075	0.075	138215	keystroke	t	n/a
69.2715	0.105	138543	keystroke	r	n/a
69.3625	0.09	138725	keystroke	e	n/a
70.9825	0.1045	141965	keystroke	Key.backspace	n/a
71.507	0.09	143014	keystroke	Key.backspace	n/a
72.1675	0.075	144335	keystroke	u	n/a
72.2575	0.06	144515	keystroke	r	n/a
72.2875	0.075	144575	keystroke	e	n/a
72.9325	0.0895	145865	keystroke	Key.enter	n/a
73.0325	9.067	146065	prompt	n/a	pencil humans deal record\n
74.2515	0.1355	148503	keystroke	p	n/a
74.4315	0.091	148863	keystroke	e	n/a
74.7315	0.09	149463	keystroke	n	n/a
74.9275	0.089	149855	keystroke	c	n/a
75.0325	0.044	150065	keystroke	o	n/a
75.392	0.09	150784	keystroke	l	n/a
75.782	0.045	151564	keystroke	Key.backspace	n/a
75.902	0.06	151804	keystroke	Key.backspace	n/a
76.382	0.075	152764	keystroke	i	n/a
76.562	0.075	153124	keystroke	l	n/a
78.002	0.045	156004	keystroke	Key.space	n/a
78.4225	0.1045	156845	keystroke	h	n/a
78.6025	0.089	157205	keystroke	u	n/a
78.827	0.0905	157654	keystroke	m	n/a
78.932	0.09	157864	keystroke	a	n/a
79.0075	0.1045	158015	keystroke	n	n/a
79.2475	0.075	158495	keystroke	s	n/a
79.7425	0.0445	159485	keystroke	Key.space	n/a
80.207	0.0905	160414	keystroke	d	n/a
80.417	0.1505	160834	keystroke	e	n/a
80.612	0.0605	161224	keystroke	a	n/a
80.7175	0.075	161435	keystroke	l	n/a
80.942	0.09	161884	keystroke	Key.space	n/a
81.1975	0.0745	162395	keystroke	r	n/a
81.2565	0.091	162513	keystroke	e	n/a
81.452	0.1205	162904	keystroke	c	n/a
81.557	0.12	163114	keystroke	o	n/a
81.6925	0.0595	163385	keystroke	r	n/a
81.827	0.1205	163654	keystroke	d	n/a
82.007	0.09	164014	keystroke	Key.enter	n/a
82.1035	10.9665	164207	prompt	n/a	athletic moms ohio recognize\n
82.6975	0.12	165395	keystroke	a	n/a
82.9365	0.091	165873	keystroke	t	n/a
83.0425	0.075	166085	keystroke	h	n/a
83.222	0.1045	166444	keystroke	l	n/a
83.312	0.0895	166624	keystroke	e	n/a
83.462	0.0755	166924	keystroke	t	n/a
83.957	0.0755	167914	keystroke	i	n/a
84.0475	0.075	168095	keystroke	c	n/a
84.392	0.06	168784	keystroke	Key.space	n/a
84.5875	0.075	169175	keystroke	m	n/a
84.707	0.15	169414	keystroke	o	n/a
84.812	0.105	169624	keystroke	m	n/a
84.8875	0.075	169775	keystroke	s	n/a
85.352	0.045	170704	keystroke	Key.space	n/a
85.622	0.09	171244	keystroke	o	n/a
85.7725	0.1195	171545	keystroke	h	n/a
85.9375	0.0445	171875	keystroke	i	n/a
86.042	0.015	172084	keystroke	i	n/a
86.747	0.06	173494	keystroke	Key.backspace	n/a
87.2565	0.06	174513	keystroke	o	n/a
87.272	0.0155	174544	keystroke	p	n/a
88.067	0.09	176134	keystroke	Key.backspace	n/a
89.7175	0.089	179435	keystroke	Key.space	n/a
89.9425	0.09	179885	keystroke	r	n/a
90.0175	0.09	180035	keystroke	e	n/a
90.6925	0.075	181385	keystroke	c	n/a
90.9025	0.105	181805	keystroke	o	n/a
91.142	0.1055	182284	keystroke	g	n/a
91.307	0.105	182614	keystroke	n	n/a
91.457	0.075	182914	keystroke	i	n/a
91.577	0.15	183154	keystroke	z	n/a
91.8615	0.1055	183723	keystroke	e	n/a
92.9715	0.091	185943	keystroke	Key.enter	n/a
93.07	8.724	186140	prompt	n/a	instructors alot survival customize\n
93.857	0.12	187714	keystroke	i	n/a
93.947	0.075	187894	keystroke	n	n/a
94.052	0.0595	188104	keystroke	s	n/a
94.307	0.105	188614	keystroke	t	n/a
94.367	0.105	188734	keystroke	r	n/a
94.4425	0.0895	188885	keystroke	u	n/a
94.607	0.105	189214	keystroke	c	n/a
94.877	0.075	189754	keystroke	t	n/a
95.0425	0.105	190085	keystroke	o	n/a
95.1625	0.0445	190325	keystroke	r	n/a
95.3565	0.046	190713	keystroke	s	n/a
95.9575	0.074	191915	keystroke	Key.space	n/a
96.122	0.09	192244	keystroke	a	n/a
96.272	0.0905	192544	keystroke	l	n/a
96.4825	0.105	192965	keystroke	o	n/a
96.5725	0.09	193145	keystroke	t	n/a
96.9775	0.09	193955	keystroke	Key.space	n/a
97.232	0.1355	194464	keystroke	s	n/a
97.352	0.075	194704	keystroke	u	n/a
97.457	0.105	194914	keystroke	r	n/a
97.667	0.105	195334	keystroke	v	n/a
97.742	0.075	195484	keystroke	i	n/a
97.847	0.06	195694	keystroke	v	n/a
98.0565	0.0905	196113	keystroke	a	n/a
98.2365	0.06	196473	keystroke	l	n/a
99.1525	0.09	198305	keystroke	Key.space	n/a
99.4375	0.1045	198875	keystroke	c	n/a
99.557	0.075	199114	keystroke	u	n/a
99.617	0.105	199234	keystroke	s	n/a
99.812	0.135	199624	keystroke	t	n/a
99.872	0.12	199744	keystroke	o	n/a
99.948	0.089	199896	keystroke	m	n/a
100.2315	0.076	200463	keystroke	i	n/a
100.5165	0.106	201033	keystroke	z	n/a
100.7565	0.121	201513	keystroke	e	n/a
101.702	0.09	203404	keystroke	Key.enter	n/a
101.798	9.296	203596	prompt	n/a	nasty migration meyer probe\n
102.6025	0.089	205205	keystroke	n	n/a
102.7065	0.136	205413	keystroke	s	n/a
102.722	0.0455	205444	keystroke	a	n/a
102.9915	0.09	205983	keystroke	t	n/a
103.1565	0.091	206313	keystroke	y	n/a
103.967	0.0895	207934	keystroke	Key.backspace	n/a
104.1465	0.0755	208293	keystroke	Key.backspace	n/a
104.2965	0.075	208593	keystroke	Key.backspace	n/a
104.4615	0.091	208923	keystroke	Key.backspace	n/a
104.5815	0.09	209163	keystroke	a	n/a
104.6275	0.119	209255	keystroke	s	n/a
105.2265	0.061	210453	keystroke	t	n/a
105.3915	0.03	210783	keystroke	y	n/a
105.9915	0.091	211983	keystroke	Key.space	n/a
106.262	0.09	212524	keystroke	m	n/a
106.427	0.0905	212854	keystroke	i	n/a
106.592	0.135	213184	keystroke	g	n/a
106.712	0.09	213424	keystroke	r	n/a
106.952	0.105	213904	keystroke	a	n/a
107.087	0.12	214174	keystroke	t	n/a
107.192	0.18	214384	keystroke	i	n/a
107.237	0.15	214474	keystroke	o	n/a
107.327	0.12	214654	keystroke	n	n/a
107.612	0.09	215224	keystroke	Key.space	n/a
108.017	0.09	216034	keystroke	m	n/a
108.122	0.105	216244	keystroke	e	n/a
108.3475	0.06	216695	keystroke	y	n/a
108.6025	0.075	217205	keystroke	e	n/a
108.7975	0.09	217595	keystroke	r	n/a
109.1415	0.0755	218283	keystroke	Key.space	n/a
109.562	0.105	219124	keystroke	p	n/a
109.682	0.09	219364	keystroke	r	n/a
109.802	0.105	219604	keystroke	o	n/a
110.0425	0.0745	220085	keystroke	b	n/a
110.222	0.0905	220444	keystroke	e	n/a
111.002	0.0905	222004	keystroke	Key.enter	n/a
111.099	5.605	222198	prompt	n/a	brochure fibre latter cape\n
111.9025	0.075	223805	keystroke	b	n/a
112.0375	0.089	224075	keystroke	r	n/a
112.1125	0.105	224225	keystroke	o	n/a
112.247	0.0905	224494	keystroke	c	n/a
112.397	0.06	224794	keystroke	h	n/a
112.5615	0.075	225123	keystroke	u	n/a
112.6515	0.09	225303	keystroke	r	n/a
112.7265	0.075	225453	keystroke	e	n/a
113.1765	0.075	226353	keystroke	Key.space	n/a
113.522	0.0595	227044	keystroke	f	n/a
113.6425	0.1045	227285	keystroke	i	n/a
113.852	0.075	227704	keystroke	b	n/a
114.062	0.09	228124	keystroke	r	n/a
114.122	0.09	228244	keystroke	e	n/a
114.392	0.0895	228784	keystroke	Key.space	n/a
114.797	0.06	229594	keystroke	l	n/a
114.9625	0.105	229925	keystroke	a	n/a
115.202	0.06	230404	keystroke	t	n/a
115.3075	0.0895	230615	keystroke	t	n/a
115.472	0.105	230944	keystroke	e	n/a
115.562	0.09	231124	keystroke	r	n/a
115.682	0.075	231364	keystroke	Key.space	n/a
115.937	0.105	231874	keystroke	c	n/a
116.1025	0.0895	232205	keystroke	a	n/a
116.222	0.105	232444	keystroke	p	n/a
116.312	0.075	232624	keystroke	e	n/a
116.6275	0.075	233255	keystroke	Key.enter	n/a
116.708	5.246	233416	prompt	n/a	generally clouds test elder\n
117.5275	0.075	235055	keystroke	g	n/a
117.6925	0.075	235385	keystroke	e	n/a
117.7825	0.075	235565	keystroke	n	n/a
117.8725	0.105	235745	keystroke	e	n/a
117.9475	0.09	235895	keystroke	r	n/a
118.0975	0.105	236195	keystroke	a	n/a
118.2325	0.059	236465	keystroke	l	n/a
118.3825	0.09	236765	keystroke	l	n/a
118.4575	0.09	236915	keystroke	y	n/a
118.6215	0.09	237243	keystroke	Key.space	n/a
119.252	0.09	238504	keystroke	c	n/a
119.357	0.075	238714	keystroke	l	n/a
119.5075	0.15	239015	keystroke	o	n/a
119.6425	0.105	239285	keystroke	u	n/a
119.7625	0.105	239525	keystroke	d	n/a
119.8525	0.09	239705	keystroke	s	n/a
120.347	0.0905	240694	keystroke	Key.space	n/a
120.632	0.1045	241264	keystroke	t	n/a
120.722	0.0905	241444	keystroke	e	n/a
120.8875	0.09	241775	keystroke	s	n/a
121.0815	0.09	242163	keystroke	t	n/a
121.1415	0.09	242283	keystroke	Key.space	n/a
121.307	0.09	242614	keystroke	e	n/a
121.442	0.045	242884	keystroke	l	n/a
121.5175	0.1045	243035	keystroke	d	n/a
121.6675	0.1045	243335	keystroke	e	n/a
121.757	0.075	243514	keystroke	r	n/a
121.847	0.1055	243694	keystroke	Key.enter	n/a
121.9585	7.1955	243917	prompt	n/a	transform combining creek outlets\n
122.672	0.09	245344	keystroke	t	n/a
122.747	0.075	245494	keystroke	r	n/a
122.912	0.0755	245824	keystroke	a	n/a
123.017	0.0905	246034	keystroke	n	n/a
123.152	0.06	246304	keystroke	s	n/a
123.452	0.075	246904	keystroke	f	n/a
123.5275	0.0895	247055	keystroke	o	n/a
123.617	0.09	247234	keystroke	r	n/a
123.692	0.09	247384	keystroke	m	n/a
124.037	0.075	248074	keystroke	Key.space	n/a
124.5015	0.0765	249003	keystroke	c	n/a
124.6515	0.12	249303	keystroke	o	n/a
124.7565	0.091	249513	keystroke	m	n/a
124.9825	0.09	249965	keystroke	b	n/a
125.0875	0.0745	250175	keystroke	i	n/a
125.1175	0.1045	250235	keystroke	n	n/a
125.282	0.075	250564	keystroke	i	n/a
125.327	0.12	250654	keystroke	n	n/a
125.432	0.0755	250864	keystroke	g	n/a
125.9275	0.074	251855	keystroke	Key.space	n/a
126.287	0.09	252574	keystroke	c	n/a
126.4825	0.1045	252965	keystroke	r	n/a
126.572	0.075	253144	keystroke	e	n/a
126.7375	0.0745	253475	keystroke	e	n/a
126.8575	0.0895	253715	keystroke	k	n/a
127.5025	0.074	255005	keystroke	Key.space	n/a
127.9075	0.0745	255815	keystroke	o	n/a
128.1015	0.091	256203	keystroke	u	n/a
128.2075	0.06	256415	keystroke	t	n/a
128.3275	0.105	256655	keystroke	l	n/a
128.3875	0.104	256775	keystroke	e	n/a
128.4765	0.076	256953	keystroke	t	n/a
128.6575	0.12	257315	keystroke	s	n/a
129.0625	0.09	258125	keystroke	Key.enter	n/a
129.1575	12.8515	258315	prompt	n/a	bradley playlist extended canberra\n
130.3065	0.076	260613	keystroke	b	n/a
130.3975	0.0595	260795	keystroke	r	n/a
130.442	0.0605	260884	keystroke	e	n/a
130.5625	0.1195	261125	keystroke	a	n/a
130.712	0.09	261424	keystroke	d	n/a
130.997	0.0605	261994	keystroke	Key.backspace	n/a
131.147	0.0455	262294	keystroke	Key.backspace	n/a
131.297	0.0605	262594	keystroke	Key.backspace	n/a
131.4025	0.104	262805	keystroke	a	n/a
131.4325	0.105	262865	keystroke	d	n/a
131.9875	0.09	263975	keystroke	l	n/a
132.0925	0.0745	264185	keystroke	y	n/a
133.1715	0.031	266343	keystroke	Key.backspace	n/a
133.1875	0.105	266375	keystroke	e	n/a
133.697	0.0605	267394	keystroke	y	n/a
134.432	0.0155	268864	keystroke	Key.space	n/a
134.897	0.1055	269794	keystroke	p	n/a
135.0475	0.104	270095	keystroke	l	n/a
135.182	0.0745	270364	keystroke	a	n/a
135.392	0.09	270784	keystroke	y	n/a
135.737	0.1055	271474	keystroke	l	n/a
135.948	0.0895	271896	keystroke	i	n/a
136.007	0.0755	272014	keystroke	s	n/a
136.1725	0.0745	272345	keystroke	t	n/a
136.6525	0.09	273305	keystroke	Key.space	n/a
136.8025	0.105	273605	keystroke	e	n/a
137.027	0.1055	274054	keystroke	c	n/a
137.522	0.09	275044	keystroke	Key.backspace	n/a
137.598	0.164	275196	keystroke	x	n/a
137.9425	0.0895	275885	keystroke	t	n/a
138.033	0.1045	276066	keystroke	e	n/a
138.152	0.09	276304	keystroke	n	n/a
138.317	0.1345	276634	keystroke	d	n/a
138.4965	0.0905	276993	keystroke	e	n/a
138.6465	0.075	277293	keystroke	d	n/a
139.172	0.075	278344	keystroke	Key.space	n/a
139.3375	0.089	278675	keystroke	c	n/a
139.6515	0.075	279303	keystroke	n	n/a
139.9975	0.09	279995	keystroke	Key.backspace	n/a
140.0725	0.105	280145	keystroke	a	n/a
140.2225	0.105	280445	keystroke	n	n/a
140.8375	0.09	281675	keystroke	b	n/a
141.0175	0.09	282035	keystroke	e	n/a
141.1675	0.06	282335	keystroke	r	n/a
141.2725	0.075	282545	keystroke	r	n/a
141.4525	0.09	282905	keystroke	a	n/a
141.9325	0.075	283865	keystroke	Key.enter	n/a
142.0145	8.814	284029	prompt	n/a	observation terry wouldn't endorsement\n
142.9075	0.135	285815	keystroke	o	n/a
143.0875	0.105	286175	keystroke	b	n/a
143.4015	0.0905	286803	keystroke	s	n/a
143.5825	0.1195	287165	keystroke	e	n/a
143.687	0.105	287374	keystroke	r	n/a
143.912	0.0755	287824	keystroke	v	n/a
144.0325	0.1195	288065	keystroke	a	n/a
144.197	0.0905	288394	keystroke	t	n/a
144.3175	0.2095	288635	keystroke	i	n/a
144.377	0.135	288754	keystroke	o	n/a
144.467	0.1205	288934	keystroke	n	n/a
144.992	0.09	289984	keystroke	Key.space	n/a
145.292	0.0755	290584	keystroke	t	n/a
145.412	0.09	290824	keystroke	e	n/a
145.547	0.0455	291094	keystroke	r	n/a
145.667	0.0755	291334	keystroke	r	n/a
145.862	0.0755	291724	keystroke	y	n/a
145.9965	0.136	291993	keystroke	Key.space	n/a
146.4475	0.09	292895	keystroke	w	n/a
146.5515	0.1505	293103	keystroke	o	n/a
146.657	0.105	293314	keystroke	u	n/a
146.8825	0.0895	293765	keystroke	l	n/a
146.942	0.09	293884	keystroke	d	n/a
147.077	0.09	294154	keystroke	n	n/a
147.422	0.075	294844	keystroke	'	n/a
147.5125	0.075	295025	keystroke	t	n/a
148.0665	0.075	296133	keystroke	Key.space	n/a
148.3075	0.075	296615	keystroke	e	n/a
148.3965	0.075	296793	keystroke	n	n/a
148.8175	0.0745	297635	keystroke	d	n/a
148.9075	0.089	297815	keystroke	o	n/a
148.9825	0.089	297965	keystroke	r	n/a
149.0575	0.074	298115	keystroke	e	n/a
149.417	0.0905	298834	keystroke	Key.backspace	n/a
149.462	0.0895	298924	keystroke	s	n/a
149.6575	0.089	299315	keystroke	e	n/a
149.9725	0.03	299945	keystroke	m	n/a
150.0775	0.06	300155	keystroke	e	n/a
150.2275	0.06	300455	keystroke	n	n/a
150.3025	0.075	300605	keystroke	t	n/a
150.7375	0.089	301475	keystroke	Key.enter	n/a
150.833	6.1155	301666	prompt	n/a	command unified april cancer\n
151.6065	0.075	303213	keystroke	c	n/a
151.7115	0.061	303423	keystroke	o	n/a
151.8765	0.075	303753	keystroke	m	n/a
152.0115	0.075	304023	keystroke	m	n/a
152.1025	0.059	304205	keystroke	a	n/a
152.1915	0.0755	304383	keystroke	n	n/a
152.4015	0.075	304803	keystroke	d	n/a
152.717	0.0745	305434	keystroke	Key.space	n/a
153.017	0.12	306034	keystroke	u	n/a
153.1065	0.0605	306213	keystroke	n	n/a
153.2715	0.105	306543	keystroke	i	n/a
153.3615	0.0755	306723	keystroke	f	n/a
153.4815	0.09	306963	keystroke	i	n/a
153.5725	0.089	307145	keystroke	e	n/a
153.7525	0.0745	307505	keystroke	d	n/a
153.812	0.09	307624	keystroke	Key.space	n/a
154.382	0.09	308764	keystroke	a	n/a
154.577	0.0895	309154	keystroke	p	n/a
154.7565	0.091	309513	keystroke	r	n/a
154.907	0.0745	309814	keystroke	i	n/a
155.1015	0.09	310203	keystroke	l	n/a
155.2815	0.09	310563	keystroke	Key.space	n/a
155.4625	0.09	310925	keystroke	c	n/a
155.6115	0.076	311223	keystroke	a	n/a
155.7165	0.0905	311433	keystroke	n	n/a
156.332	0.1205	312664	keystroke	c	n/a
156.497	0.165	312994	keystroke	e	n/a
156.632	0.105	313264	keystroke	r	n/a
156.8725	0.074	313745	keystroke	Key.enter	n/a
156.953	5.741	313906	prompt	n/a	choosing wave source sentence\n
157.5615	0.09	315123	keystroke	c	n/a
157.6975	0.075	315395	keystroke	h	n/a
157.9225	0.0595	315845	keystroke	o	n/a
158.0575	0.074	316115	keystroke	o	n/a
158.162	0.105	316324	keystroke	s	n/a
158.3875	0.12	316775	keystroke	i	n/a
158.4625	0.104	316925	keystroke	n	n/a
158.5515	0.09	317103	keystroke	g	n/a
158.8515	0.075	317703	keystroke	Key.space	n/a
159.287	0.09	318574	keystroke	w	n/a
159.437	0.105	318874	keystroke	a	n/a
159.677	0.075	319354	keystroke	v	n/a
159.752	0.12	319504	keystroke	e	n/a
160.037	0.09	320074	keystroke	Key.space	n/a
160.322	0.0905	320644	keystroke	s	n/a
160.442	0.135	320884	keystroke	o	n/a
160.562	0.0895	321124	keystroke	u	n/a
160.637	0.075	321274	keystroke	r	n/a
160.817	0.09	321634	keystroke	c	n/a
160.907	0.1045	321814	keystroke	e	n/a
161.0275	0.09	322055	keystroke	Key.space	n/a
161.3875	0.075	322775	keystroke	s	n/a
161.6265	0.0905	323253	keystroke	e	n/a
161.7615	0.0755	323523	keystroke	n	n/a
161.867	0.1045	323734	keystroke	t	n/a
162.0465	0.1355	324093	keystroke	e	n/a
162.197	0.09	324394	keystroke	n	n/a
162.302	0.105	324604	keystroke	c	n/a
162.362	0.1205	324724	keystroke	e	n/a
162.602	0.09	325204	keystroke	Key.enter	n/a
162.701	12.6385	325402	prompt	n/a	switzerland excellent operator immediate\n
163.367	0.09	326734	keystroke	s	n/a
163.577	0.105	327154	keystroke	w	n/a
163.742	0.045	327484	keystroke	i	n/a
163.997	0.075	327994	keystroke	t	n/a
164.717	0.105	329434	keystroke	x	n/a
165.557	0.105	331114	keystroke	Key.backspace	n/a
165.632	0.06	331264	keystroke	z	n/a
165.872	0.1355	331744	keystroke	e	n/a
165.9925	0.089	331985	keystroke	r	n/a
166.202	0.0895	332404	keystroke	l	n/a
166.2925	0.0745	332585	keystroke	a	n/a
166.382	0.12	332764	keystroke	n	n/a
166.4865	0.0905	332973	keystroke	d	n/a
166.6215	0.075	333243	keystroke	Key.space	n/a
168.257	0.09	336514	keystroke	e	n/a
168.5275	0.1045	337055	keystroke	x	n/a
168.752	0.045	337504	keystroke	c	n/a
168.798	0.089	337596	keystroke	e	n/a
168.947	0.075	337894	keystroke	l	n/a
169.082	0.0905	338164	keystroke	l	n/a
169.232	0.075	338464	keystroke	t	n/a
169.427	0.0745	338854	keystroke	n	n/a
169.817	0.0295	339634	keystroke	Key.backspace	n/a
169.9065	0.075	339813	keystroke	Key.backspace	n/a
169.9965	0.075	339993	keystroke	e	n/a
170.132	0.1055	340264	keystroke	n	n/a
170.222	0.075	340444	keystroke	t	n/a
170.732	0.09	341464	keystroke	Key.space	n/a
171.002	0.15	342004	keystroke	o	n/a
171.092	0.105	342184	keystroke	p	n/a
171.2575	0.105	342515	keystroke	e	n/a
171.347	0.0905	342694	keystroke	r	n/a
171.5275	0.0895	343055	keystroke	a	n/a
171.752	0.06	343504	keystroke	t	n/a
171.797	0.09	343594	keystroke	o	n/a
171.932	0.09	343864	keystroke	r	n/a
172.517	0.0895	345034	keystroke	Key.space	n/a
172.7415	0.0605	345483	keystroke	i	n/a
172.892	0.075	345784	keystroke	m	n/a
173.0275	0.074	346055	keystroke	m	n/a
173.1015	0.0755	346203	keystroke	e	n/a
173.327	0.105	346654	keystroke	d	n/a
173.447	0.075	346894	keystroke	i	n/a
173.537	0.09	347074	keystroke	t	n/a
173.702	0.1045	347404	keystroke	a	n/a
174.167	0.0605	348334	keystroke	Key.backspace	n/a
174.3175	0.0745	348635	keystroke	Key.backspace	n/a
174.3315	0.0905	348663	keystroke	a	n/a
174.5275	0.1045	349055	keystroke	t	n/a
174.542	0.18	349084	keystroke	e	n/a
175.2625	0.0745	350525	keystroke	Key.enter	n/a
175.343	9.1905	350686	prompt	n/a	direction delegation typically except\n
176.252	0.09	352504	keystroke	d	n/a
176.9875	0.0595	353975	keystroke	i	n/a
177.122	0.105	354244	keystroke	r	n/a
177.272	0.09	354544	keystroke	e	n/a
177.527	0.105	355054	keystroke	c	n/a
177.782	0.075	355564	keystroke	t	n/a
177.8725	0.18	355745	keystroke	i	n/a
177.932	0.165	355864	keystroke	o	n/a
178.0375	0.0895	356075	keystroke	n	n/a
178.277	0.09	356554	keystroke	Key.space	n/a
178.517	0.0895	357034	keystroke	d	n/a
178.6665	0.061	357333	keystroke	e	n/a
178.817	0.045	357634	keystroke	l	n/a
178.8775	0.0895	357755	keystroke	e	n/a
179.6565	0.09	359313	keystroke	g	n/a
179.8065	0.106	359613	keystroke	a	n/a
179.9415	0.091	359883	keystroke	t	n/a
180.0765	0.1805	360153	keystroke	i	n/a
180.1225	0.1495	360245	keystroke	o	n/a
180.227	0.12	360454	keystroke	n	n/a
180.857	0.09	361714	keystroke	Key.space	n/a
181.1125	0.0895	362225	keystroke	t	n/a
181.322	0.09	362644	keystroke	y	n/a
181.427	0.075	362854	keystroke	p	n/a
181.6225	0.059	363245	keystroke	i	n/a
181.7275	0.09	363455	keystroke	c	n/a
181.8475	0.09	363695	keystroke	a	n/a
181.9375	0.074	363875	keystroke	l	n/a
182.1025	0.06	364205	keystroke	l	n/a
182.2225	0.09	364445	keystroke	y	n/a
182.867	0.0905	365734	keystroke	Key.space	n/a
183.017	0.0905	366034	keystroke	e	n/a
183.347	0.075	366694	keystroke	x	n/a
183.542	0.09	367084	keystroke	c	n/a
183.6775	0.089	367355	keystroke	e	n/a
183.8415	0.09	367683	keystroke	p	n/a
183.9175	0.074	367835	keystroke	t	n/a
184.4415	0.09	368883	keystroke	Key.enter	n/a
184.5375	8.2465	369075	prompt	n/a	achieving eyed acquisition oldest\n
185.1625	0.089	370325	keystroke	a	n/a
185.3875	0.119	370775	keystroke	c	n/a
185.5225	0.044	371045	keystroke	h	n/a
185.6415	0.075	371283	keystroke	i	n/a
185.7175	0.074	371435	keystroke	e	n/a
185.9415	0.0905	371883	keystroke	v	n/a
187.247	0.09	374494	keystroke	i	n/a
187.292	0.105	374584	keystroke	n	n/a
187.382	0.075	374764	keystroke	g	n/a
187.6075	0.0745	375215	keystroke	Key.space	n/a
187.757	0.135	375514	keystroke	e	n/a
188.0575	0.074	376115	keystroke	y	n/a
188.207	0.075	376414	keystroke	e	n/a
188.357	0.09	376714	keystroke	d	n/a
188.537	0.09	377074	keystroke	Key.space	n/a
188.717	0.135	377434	keystroke	a	n/a
189.452	0.09	378904	keystroke	c	n/a
189.692	0.09	379384	keystroke	q	n/a
189.8875	0.0445	379775	keystroke	u	n/a
190.0375	0.0745	380075	keystroke	i	n/a
190.097	0.06	380194	keystroke	s	n/a
190.2625	0.075	380525	keystroke	i	n/a
190.3665	0.0905	380733	keystroke	t	n/a
190.4575	0.135	380915	keystroke	i	n/a
190.5165	0.121	381033	keystroke	o	n/a
190.6075	0.09	381215	keystroke	n	n/a
191.2225	0.09	382445	keystroke	Key.space	n/a
191.4925	0.045	382985	keystroke	o	n/a
191.627	0.1055	383254	keystroke	l	n/a
191.6875	0.12	383375	keystroke	d	n/a
191.8515	0.1055	383703	keystroke	e	n/a
192.0315	0.1355	384063	keystroke	s	n/a
192.302	0.06	384604	keystroke	t	n/a
192.692	0.09	385384	keystroke	Key.enter	n/a
192.788	7.766	385576	prompt	n/a	worm suggestions msgstr foto\n
193.6065	0.091	387213	keystroke	w	n/a
193.7125	0.09	387425	keystroke	o	n/a
193.787	0.0905	387574	keystroke	r	n/a
193.9525	0.0745	387905	keystroke	m	n/a
194.1775	0.089	388355	keystroke	Key.space	n/a
194.687	0.075	389374	keystroke	s	n/a
194.777	0.0605	389554	keystroke	u	n/a
194.927	0.0605	389854	keystroke	g	n/a
195.032	0.09	390064	keystroke	g	n/a
195.227	0.075	390454	keystroke	e	n/a
195.392	0.1055	390784	keystroke	s	n/a
195.6315	0.075	391263	keystroke	t	n/a
195.7215	0.181	391443	keystroke	i	n/a
195.7965	0.121	391593	keystroke	o	n/a
195.857	0.12	391714	keystroke	n	n/a
196.0215	0.106	392043	keystroke	s	n/a
196.277	0.105	392554	keystroke	Key.space	n/a
196.7415	0.106	393483	keystroke	m	n/a
196.8615	0.076	393723	keystroke	s	n/a
197.8225	0.09	395645	keystroke	g	n/a
198.3465	0.105	396693	keystroke	s	n/a
198.6175	0.075	397235	keystroke	t	n/a
198.7675	0.09	397535	keystroke	r	n/a
199.0665	0.091	398133	keystroke	Key.space	n/a
199.7875	0.075	399575	keystroke	f	n/a
199.9075	0.06	399815	keystroke	o	n/a
199.9825	0.075	399965	keystroke	t	n/a
200.0725	0.075	400145	keystroke	o	n/a
200.432	0.12	400864	keystroke	Key.enter	n/a
200.558	6.2205	401116	prompt	n/a	my feel abilities highway\n
201.2715	0.0905	402543	keystroke	m	n/a
201.4215	0.076	402843	keystroke	y	n/a
201.5115	0.135	403023	keystroke	Key.space	n/a
201.7665	0.0605	403533	keystroke	f	n/a
201.902	0.0605	403804	keystroke	e	n/a
202.022	0.075	404044	keystroke	e	n/a
202.1275	0.0745	404255	keystroke	l	n/a
202.292	0.105	404584	keystroke	Key.space	n/a
202.442	0.0905	404884	keystroke	a	n/a
202.697	0.0905	405394	keystroke	b	n/a
202.7565	0.075	405513	keystroke	i	n/a
202.9525	0.075	405905	keystroke	l	n/a
203.1325	0.0895	406265	keystroke	i	n/a
203.267	0.015	406534	keystroke	t	n/a
203.372	0.09	406744	keystroke	i	n/a
203.537	0.0455	407074	keystroke	e	n/a
204.1075	0.045	408215	keystroke	s	n/a
204.482	0.09	408964	keystroke	Key.space	n/a
204.812	0.105	409624	keystroke	h	n/a
204.902	0.09	409804	keystroke	i	n/a
205.022	0.075	410044	keystroke	g	n/a
205.112	0.075	410224	keystroke	h	n/a
205.322	0.06	410644	keystroke	e	n/a
205.967	0.075	411934	keystroke	Key.backspace	n/a
206.0575	0.1045	412115	keystroke	w	n/a
206.147	0.0905	412294	keystroke	a	n/a
206.4025	0.104	412805	keystroke	y	n/a
206.6725	0.105	413345	keystroke	Key.enter	n/a
206.782	6.3415	413564	prompt	n/a	actual adams females identify\n
207.407	0.075	414814	keystroke	a	n/a
207.542	0.135	415084	keystroke	c	n/a
207.782	0.09	415564	keystroke	t	n/a
207.857	0.075	415714	keystroke	u	n/a
207.992	0.075	415984	keystroke	a	n/a
208.0825	0.0745	416165	keystroke	l	n/a
208.277	0.1055	416554	keystroke	Key.space	n/a
208.397	0.105	416794	keystroke	a	n/a
208.532	0.1195	417064	keystroke	d	n/a
208.6965	0.075	417393	keystroke	a	n/a
208.832	0.0895	417664	keystroke	m	n/a
208.937	0.0895	417874	keystroke	s	n/a
209.0715	0.09	418143	keystroke	Key.space	n/a
209.7765	0.0755	419553	keystroke	f	n/a
209.837	0.12	419674	keystroke	e	n/a
210.002	0.09	420004	keystroke	m	n/a
210.137	0.09	420274	keystroke	a	n/a
210.242	0.105	420484	keystroke	l	n/a
210.3325	0.0895	420665	keystroke	s	n/a
210.632	0.06	421264	keystroke	e	n/a
210.902	0.06	421804	keystroke	Key.backspace	n/a
211.022	0.075	422044	keystroke	Key.backspace	n/a
211.052	0.09	422104	keystroke	e	n/a
211.157	0.105	422314	keystroke	s	n/a
211.712	0.09	423424	keystroke	Key.space	n/a
211.907	0.0755	423814	keystroke	i	n/a
211.997	0.105	423994	keystroke	d	n/a
212.132	0.0905	424264	keystroke	e	n/a
212.2375	0.0895	424475	keystroke	n	n/a
212.3415	0.06	424683	keystroke	t	n/a
212.4315	0.075	424863	keystroke	i	n/a
212.5365	0.106	425073	keystroke	f	n/a
212.8215	0.09	425643	keystroke	y	n/a
213.0475	0.0745	426095	keystroke	Key.enter	n/a
213.127	7.5265	426254	prompt	n/a	response complaint venture households\n
213.9465	0.0905	427893	keystroke	r	n/a
213.9915	0.09	427983	keystroke	e	n/a
214.187	0.0905	428374	keystroke	s	n/a
214.2775	0.074	428555	keystroke	p	n/a
214.4415	0.1205	428883	keystroke	o	n/a
214.5175	0.134	429035	keystroke	n	n/a
214.637	0.09	429274	keystroke	s	n/a
214.8325	0.059	429665	keystroke	e	n/a
215.297	0.09	430594	keystroke	Key.space	n/a
215.507	0.105	431014	keystroke	c	n/a
215.5665	0.1205	431133	keystroke	o	n/a
215.627	0.0895	431254	keystroke	m	n/a
215.822	0.09	431644	keystroke	p	n/a
215.8815	0.0905	431763	keystroke	l	n/a
215.957	0.0755	431914	keystroke	a	n/a
216.062	0.135	432124	keystroke	i	n/a
216.137	0.105	432274	keystroke	n	n/a
216.857	0.0755	433714	keystroke	t	n/a
217.472	0.075	434944	keystroke	Key.space	n/a
217.817	0.075	435634	keystroke	v	n/a
217.997	0.0755	435994	keystroke	e	n/a
218.0725	0.0895	436145	keystroke	n	n/a
218.177	0.075	436354	keystroke	t	n/a
218.2825	0.0745	436565	keystroke	u	n/a
218.342	0.09	436684	keystroke	r	n/a
218.402	0.09	436804	keystroke	e	n/a
218.552	0.075	437104	keystroke	Key.space	n/a
218.8075	0.075	437615	keystroke	h	n/a
218.987	0.12	437974	keystroke	o	n/a
219.077	0.09	438154	keystroke	u	n/a
219.137	0.09	438274	keystroke	s	n/a
219.317	0.105	438634	keystroke	e	n/a
219.737	0.0745	439474	keystroke	h	n/a
219.9015	0.075	439803	keystroke	o	n/a
220.0665	0.106	440133	keystroke	l	n/a
220.112	0.105	440224	keystroke	d	n/a
220.187	0.105	440374	keystroke	s	n/a
220.562	0.0905	441124	keystroke	Key.enter	n/a
220.657	7.4365	441314	prompt	n/a	excessive abstract cables stupid\n
221.2065	0.076	442413	keystroke	e	n/a
221.5675	0.09	443135	keystroke	x	n/a
221.7625	0.105	443525	keystroke	c	n/a
221.9275	0.075	443855	keystroke	e	n/a
222.107	0.075	444214	keystroke	s	n/a
222.242	0.075	444484	keystroke	s	n/a
222.362	0.0905	444724	keystroke	i	n/a
222.467	0.09	444934	keystroke	v	n/a
222.6025	0.1045	445205	keystroke	e	n/a
222.722	0.09	445444	keystroke	Key.space	n/a
222.857	0.105	445714	keystroke	a	n/a
223.142	0.045	446284	keystroke	b	n/a
223.952	0.075	447904	keystroke	s	n/a
224.162	0.105	448324	keystroke	t	n/a
224.222	0.075	448444	keystroke	r	n/a
224.477	0.09	448954	keystroke	a	n/a
224.642	0.1355	449284	keystroke	c	n/a
224.897	0.09	449794	keystroke	t	n/a
225.5275	0.0895	451055	keystroke	Key.space	n/a
225.8275	0.0745	451655	keystroke	c	n/a
225.932	0.105	451864	keystroke	a	n/a
226.142	0.105	452284	keystroke	b	n/a
226.322	0.075	452644	keystroke	l	n/a
226.3825	0.0595	452765	keystroke	e	n/a
226.6075	0.0745	453215	keystroke	s	n/a
226.817	0.075	453634	keystroke	Key.space	n/a
227.042	0.135	454084	keystroke	s	n/a
227.252	0.15	454504	keystroke	t	n/a
227.327	0.09	454654	keystroke	u	n/a
227.537	0.105	455074	keystroke	p	n/a
227.687	0.09	455374	keystroke	i	n/a
227.762	0.09	455524	keystroke	d	n/a
228.002	0.09	456004	keystroke	Key.enter	n/a
228.0965	8.7275	456193	prompt	n/a	england pakistan daisy allen\n
228.7525	0.09	457505	keystroke	e	n/a
228.8425	0.105	457685	keystroke	n	n/a
228.9625	0.105	457925	keystroke	g	n/a
229.0825	0.105	458165	keystroke	l	n/a
229.3375	0.09	458675	keystroke	a	n/a
229.4725	0.149	458945	keystroke	n	n/a
229.5775	0.075	459155	keystroke	d	n/a
229.8325	0.089	459665	keystroke	Key.space	n/a
230.2965	0.075	460593	keystroke	p	n/a
230.3865	0.09	460773	keystroke	a	n/a
230.4915	0.091	460983	keystroke	k	n/a
230.6575	0.134	461315	keystroke	i	n/a
230.7925	0.044	461585	keystroke	s	n/a
230.9715	0.0755	461943	keystroke	t	n/a
231.1515	0.09	462303	keystroke	a	n/a
231.287	0.0455	462574	keystroke	n	n/a
231.4525	0.074	462905	keystroke	Key.space	n/a
231.7525	0.0745	463505	keystroke	d	n/a
231.932	0.0755	463864	keystroke	a	n/a
232.127	0.0745	464254	keystroke	i	n/a
232.247	0.105	464494	keystroke	s	n/a
232.5615	0.091	465123	keystroke	y	n/a
232.7115	0.0905	465423	keystroke	Key.space	n/a
232.8775	0.089	465755	keystroke	a	n/a
233.0425	0.074	466085	keystroke	l	n/a
233.1615	0.091	466323	keystroke	l	n/a
233.2815	0.1055	466563	keystroke	e	n/a
233.3265	0.015	466653	keystroke	w	n/a
233.4015	0.06	466803	keystroke	n	n/a
234.5575	0.0595	469115	keystroke	Key.backspace	n/a
234.707	0.09	469414	keystroke	Key.backspace	n/a
234.812	0.075	469624	keystroke	e	n/a
235.187	0.09	470374	keystroke	n	n/a
236.747	0.075	473494	keystroke	Key.enter	n/a
236.8285	10.045	473657	prompt	n/a	snake declaration adults jackson\n
237.857	0.1355	475714	keystroke	s	n/a
237.9175	0.09	475835	keystroke	n	n/a
238.022	0.075	476044	keystroke	a	n/a
238.1575	0.0745	476315	keystroke	k	n/a
238.217	0.09	476434	keystroke	e	n/a
238.397	0.09	476794	keystroke	Key.space	n/a
238.757	0.06	477514	keystroke	d	n/a
238.862	0.105	477724	keystroke	e	n/a
239.0725	0.105	478145	keystroke	c	n/a
239.222	0.09	478444	keystroke	l	n/a
239.8525	0.0895	479705	keystroke	a	n/a
239.972	0.12	479944	keystroke	r	n/a
240.287	0.09	480574	keystroke	a	n/a
240.8275	0.075	481655	keystroke	t	n/a
241.022	0.195	482044	keystroke	i	n/a
241.0825	0.1495	482165	keystroke	o	n/a
241.172	0.105	482344	keystroke	n	n/a
241.487	0.0905	482974	keystroke	Key.space	n/a
241.862	0.09	483724	keystroke	a	n/a
241.967	0.03	483934	keystroke	a	n/a
241.9825	0.1045	483965	keystroke	d	n/a
242.117	0.0905	484234	keystroke	u	n/a
242.3575	0.1045	484715	keystroke	l	n/a
242.4475	0.06	484895	keystroke	t	n/a
242.672	0.0755	485344	keystroke	s	n/a
243.062	0.03	486124	keystroke	Key.backspace	n/a
243.167	0.06	486334	keystroke	Key.backspace	n/a
243.317	0.045	486634	keystroke	Key.backspace	n/a
243.452	0.045	486904	keystroke	Key.backspace	n/a
243.572	0.045	487144	keystroke	Key.backspace	n/a
243.677	0.075	487354	keystroke	Key.backspace	n/a
244.322	0.0755	488644	keystroke	d	n/a
244.5175	0.075	489035	keystroke	u	n/a
244.7275	0.09	489455	keystroke	l	n/a
244.7575	0.075	489515	keystroke	t	n/a
244.922	0.0895	489844	keystroke	s	n/a
245.5225	0.0595	491045	keystroke	Key.space	n/a
245.807	0.105	491614	keystroke	j	n/a
245.8975	0.1195	491795	keystroke	a	n/a
246.062	0.1045	492124	keystroke	c	n/a
246.2115	0.046	492423	keystroke	k	n/a
246.2575	0.1045	492515	keystroke	s	n/a
246.377	0.1195	492754	keystroke	o	n/a
246.4515	0.09	492903	keystroke	n	n/a
246.782	0.09	493564	keystroke	Key.enter	n/a
246.8785	11.0655	493757	prompt	n/a	coal emphasis efficient interpreted\n
247.592	0.12	495184	keystroke	c	n/a
247.757	0.0905	495514	keystroke	o	n/a
247.832	0.0905	495664	keystroke	a	n/a
248.3415	0.1055	496683	keystroke	l	n/a
248.7325	0.0895	497465	keystroke	Key.space	n/a
249.0025	0.12	498005	keystroke	e	n/a
249.0775	0.0745	498155	keystroke	m	n/a
249.272	0.0755	498544	keystroke	p	n/a
249.3775	0.0595	498755	keystroke	a	n/a
249.467	0.09	498934	keystroke	h	n/a
250.022	0.0605	500044	keystroke	s	n/a
250.097	0.09	500194	keystroke	i	n/a
250.202	0.0605	500404	keystroke	s	n/a
250.5475	0.044	501095	keystroke	Key.backspace	n/a
250.6815	0.06	501363	keystroke	Key.backspace	n/a
250.817	0.0605	501634	keystroke	Key.backspace	n/a
250.967	0.045	501934	keystroke	Key.backspace	n/a
251.087	0.06	502174	keystroke	Key.backspace	n/a
251.6425	0.0745	503285	keystroke	h	n/a
251.8525	0.075	503705	keystroke	a	n/a
252.3475	0.1045	504695	keystroke	s	n/a
252.482	0.09	504964	keystroke	i	n/a
252.5575	0.0595	505115	keystroke	s	n/a
253.232	0.0895	506464	keystroke	Key.space	n/a
253.4125	0.0895	506825	keystroke	e	n/a
253.6075	0.075	507215	keystroke	f	n/a
253.727	0.075	507454	keystroke	f	n/a
253.892	0.06	507784	keystroke	i	n/a
254.012	0.0905	508024	keystroke	c	n/a
254.1765	0.075	508353	keystroke	i	n/a
254.2365	0.091	508473	keystroke	e	n/a
254.3875	0.09	508775	keystroke	n	n/a
254.4615	0.076	508923	keystroke	t	n/a
254.5965	0.09	509193	keystroke	Key.space	n/a
254.9125	0.12	509825	keystroke	i	n/a
255.0015	0.105	510003	keystroke	n	n/a
255.0925	0.075	510185	keystroke	t	n/a
255.2425	0.104	510485	keystroke	e	n/a
255.3165	0.091	510633	keystroke	r	n/a
256.562	0.075	513124	keystroke	p	n/a
256.6675	0.1045	513335	keystroke	r	n/a
256.7425	0.09	513485	keystroke	e	n/a
256.9225	0.0895	513845	keystroke	t	n/a
257.0575	0.09	514115	keystroke	e	n/a
257.2225	0.0895	514445	keystroke	d	n/a
257.822	0.12	515644	keystroke	Key.enter	n/a
257.9505	12.684	515901	prompt	n/a	we'd've heaven physicians concrete\n
258.692	0.09	517384	keystroke	w	n/a
258.8725	0.0895	517745	keystroke	e	n/a
259.247	0.09	518494	keystroke	'	n/a
259.352	0.0755	518704	keystroke	d	n/a
259.9975	0.075	519995	keystroke	'	n/a
260.507	0.075	521014	keystroke	v	n/a
260.642	0.0905	521284	keystroke	e	n/a
261.062	0.075	522124	keystroke	Key.space	n/a
261.2725	0.1045	522545	keystroke	h	n/a
261.482	0.045	522964	keystroke	a	n/a
261.902	0.09	523804	keystroke	Key.backspace	n/a
261.962	0.12	523924	keystroke	e	n/a
262.082	0.135	524164	keystroke	a	n/a
262.997	0.075	525994	keystroke	v	n/a
263.117	0.105	526234	keystroke	e	n/a
263.387	0.075	526774	keystroke	n	n/a
263.627	0.075	527254	keystroke	Key.space	n/a
263.912	0.045	527824	keystroke	o	n/a
264.782	0.0755	529564	keystroke	Key.backspace	n/a
266.1165	0.0905	532233	keystroke	p	n/a
266.4025	0.0745	532805	keystroke	h	n/a
266.553	0.089	533106	keystroke	y	n/a
267.2875	0.09	534575	keystroke	s	n/a
268.0675	0.0605	536135	keystroke	i	n/a
268.1875	0.12	536375	keystroke	c	n/a
268.3225	0.075	536645	keystroke	i	n/a
268.3975	0.104	536795	keystroke	a	n/a
268.5165	0.091	537033	keystroke	n	n/a
268.5925	0.105	537185	keystroke	s	n/a
268.847	0.105	537694	keystroke	Key.space	n/a
269.2075	0.09	538415	keystroke	c	n/a
269.3275	0.135	538655	keystroke	o	n/a
269.4175	0.074	538835	keystroke	n	n/a
269.5375	0.089	539075	keystroke	c	n/a
269.7775	0.09	539555	keystroke	r	n/a
269.837	0.1055	539674	keystroke	e	n/a
270.002	0.0755	540004	keystroke	t	n/a
270.092	0.0905	540184	keystroke	e	n/a
270.5275	0.1045	541055	keystroke	Key.enter	n/a
270.6385	9.1305	541277	prompt	n/a	addition provider settlement created\n
271.697	0.0755	543394	keystroke	a	n/a
271.8775	0.06	543755	keystroke	d	n/a
271.9975	0.105	543995	keystroke	d	n/a
272.1325	0.075	544265	keystroke	i	n/a
272.2375	0.09	544475	keystroke	t	n/a
272.3425	0.15	544685	keystroke	i	n/a
272.3875	0.135	544775	keystroke	o	n/a
272.4625	0.104	544925	keystroke	n	n/a
272.6725	0.105	545345	keystroke	Key.space	n/a
273.5725	0.074	547145	keystroke	p	n/a
273.7225	0.09	547445	keystroke	r	n/a
273.7965	0.091	547593	keystroke	o	n/a
274.1875	0.06	548375	keystroke	v	n/a
274.278	0.0745	548556	keystroke	i	n/a
274.3675	0.0745	548735	keystroke	d	n/a
274.547	0.105	549094	keystroke	e	n/a
274.622	0.105	549244	keystroke	r	n/a
274.8775	0.0895	549755	keystroke	Key.space	n/a
275.072	0.075	550144	keystroke	s	n/a
275.267	0.075	550534	keystroke	e	n/a
275.4325	0.2245	550865	keystroke	t	n/a
275.762	0.03	551524	keystroke	t	n/a
276.1365	0.061	552273	keystroke	l	n/a
276.182	0.09	552364	keystroke	e	n/a
276.497	0.0755	552994	keystroke	m	n/a
276.6175	0.0895	553235	keystroke	e	n/a
276.722	0.0755	553444	keystroke	n	n/a
276.782	0.0905	553564	keystroke	t	n/a
276.917	0.1055	553834	keystroke	Key.space	n/a
277.187	0.1055	554374	keystroke	c	n/a
277.3675	0.1045	554735	keystroke	r	n/a
277.4275	0.1045	554855	keystroke	e	n/a
277.6225	0.0895	555245	keystroke	a	n/a
277.787	0.1055	555574	keystroke	t	n/a
277.9665	0.1355	555933	keystroke	e	n/a
277.9825	0.075	555965	keystroke	r	n/a
278.1925	0.089	556385	keystroke	d	n/a
278.567	0.075	557134	keystroke	Key.backspace	n/a
278.7165	0.0905	557433	keystroke	Key.backspace	n/a
278.7915	0.061	557583	keystroke	d	n/a
279.6765	0.0905	559353	keystroke	Key.enter	n/a
279.7725	6.2215	559545	prompt	n/a	freelance kissing dispatched that\n
280.4875	0.075	560975	keystroke	f	n/a
280.6525	0.09	561305	keystroke	r	n/a
280.7875	0.06	561575	keystroke	e	n/a
280.9075	0.09	561815	keystroke	e	n/a
281.0875	0.09	562175	keystroke	l	n/a
281.1625	0.09	562325	keystroke	a	n/a
281.2675	0.12	562535	keystroke	n	n/a
281.4325	0.12	562865	keystroke	c	n/a
281.5375	0.105	563075	keystroke	e	n/a
281.6725	0.089	563345	keystroke	Key.space	n/a
281.8965	0.076	563793	keystroke	k	n/a
282.0765	0.075	564153	keystroke	i	n/a
282.1675	0.075	564335	keystroke	s	n/a
282.3175	0.0745	564635	keystroke	s	n/a
282.407	0.135	564814	keystroke	i	n/a
282.497	0.09	564994	keystroke	n	n/a
282.617	0.09	565234	keystroke	g	n/a
282.7525	0.0895	565505	keystroke	Key.space	n/a
283.082	0.0905	566164	keystroke	d	n/a
283.187	0.0905	566374	keystroke	i	n/a
283.262	0.1055	566524	keystroke	s	n/a
283.8025	0.0895	567605	keystroke	p	n/a
283.9075	0.105	567815	keystroke	a	n/a
284.1175	0.075	568235	keystroke	t	n/a
284.4925	0.105	568985	keystroke	c	n/a
284.5825	0.09	569165	keystroke	h	n/a
284.6875	0.06	569375	keystroke	e	n/a
284.8225	0.075	569645	keystroke	d	n/a
285.2725	0.075	570545	keystroke	Key.space	n/a
285.4225	0.09	570845	keystroke	t	n/a
285.5275	0.075	571055	keystroke	h	n/a
285.6025	0.135	571205	keystroke	a	n/a
285.7975	0.0895	571595	keystroke	t	n/a
285.9025	0.09	571805	keystroke	Key.enter	n/a
285.9985	16.8855	571997	prompt	n/a	district boundary libraries sweet\n
287.582	0.075	575164	keystroke	d	n/a
287.7475	0.0745	575495	keystroke	i	n/a
287.852	0.09	575704	keystroke	s	n/a
288.107	0.105	576214	keystroke	t	n/a
288.182	0.0905	576364	keystroke	r	n/a
288.3475	0.075	576695	keystroke	i	n/a
288.4825	0.105	576965	keystroke	c	n/a
288.8575	0.075	577715	keystroke	t	n/a
289.3375	0.075	578675	keystroke	Key.space	n/a
289.7275	0.075	579455	keystroke	b	n/a
289.8175	0.135	579635	keystroke	o	n/a
289.8925	0.105	579785	keystroke	u	n/a
290.1025	0.105	580205	keystroke	n	n/a
290.1925	0.075	580385	keystroke	d	n/a
290.3875	0.075	580775	keystroke	r	n/a
290.5975	0.0905	581195	keystroke	y	n/a
291.0475	0.0595	582095	keystroke	Key.space	n/a
291.4515	0.1055	582903	keystroke	l	n/a
291.587	0.0905	583174	keystroke	i	n/a
291.797	0.075	583594	keystroke	b	n/a
291.932	0.0905	583864	keystroke	r	n/a
292.172	0.075	584344	keystroke	a	n/a
292.3225	0.09	584645	keystroke	r	n/a
292.457	0.09	584914	keystroke	i	n/a
292.577	0.075	585154	keystroke	e	n/a
292.757	0.0905	585514	keystroke	s	n/a
295.5485	0.014	591097	keystroke	Key.backspace	n/a
295.6675	0.06	591335	keystroke	Key.backspace	n/a
295.8325	0.06	591665	keystroke	Key.backspace	n/a
295.9825	0.06	591965	keystroke	Key.backspace	n/a
296.117	0.0755	592234	keystroke	Key.backspace	n/a
296.2515	0.076	592503	keystroke	Key.backspace	n/a
296.3865	0.06	592773	keystroke	Key.backspace	n/a
296.507	0.06	593014	keystroke	Key.backspace	n/a
296.657	0.06	593314	keystroke	Key.backspace	n/a
296.8225	0.0595	593645	keystroke	Key.backspace	n/a
297.167	0.06	594334	keystroke	Key.backspace	n/a
297.5265	0.045	595053	keystroke	Key.backspace	n/a
297.8875	0.105	595775	keystroke	a	n/a
298.1275	0.1045	596255	keystroke	r	n/a
298.4425	0.06	596885	keystroke	y	n/a
299.2365	0.075	598473	keystroke	Key.space	n/a
299.492	0.0895	598984	keystroke	l	n/a
299.657	0.0895	599314	keystroke	i	n/a
299.807	0.075	599614	keystroke	b	n/a
299.912	0.106	599824	keystroke	r	n/a
300.107	0.1355	600214	keystroke	a	n/a
300.273	0.1045	600546	keystroke	r	n/a
300.422	0.09	600844	keystroke	i	n/a
300.4975	0.0445	600995	keystroke	e	n/a
300.812	0.0605	601624	keystroke	s	n/a
301.187	0.105	602374	keystroke	Key.space	n/a
301.337	0.075	602674	keystroke	s	n/a
301.907	0.0905	603814	keystroke	w	n/a
302.0875	0.059	604175	keystroke	e	n/a
302.2075	0.0905	604415	keystroke	e	n/a
302.4325	0.06	604865	keystroke	t	n/a
302.7925	0.09	605585	keystroke	Key.enter	n/a
302.8885	5.0955	605777	prompt	n/a	amber meeting collected used\n
303.5575	0.12	607115	keystroke	a	n/a
303.6625	0.12	607325	keystroke	m	n/a
303.9625	0.105	607925	keystroke	b	n/a
304.1715	0.106	608343	keystroke	e	n/a
304.2625	0.09	608525	keystroke	r	n/a
304.4565	0.075	608913	keystroke	Key.space	n/a
304.6375	0.089	609275	keystroke	m	n/a
304.6965	0.075	609393	keystroke	e	n/a
304.8325	0.089	609665	keystroke	e	n/a
305.0125	0.1195	610025	keystroke	t	n/a
305.0865	0.1205	610173	keystroke	i	n/a
305.1775	0.0895	610355	keystroke	n	n/a
305.2525	0.0895	610505	keystroke	g	n/a
305.357	0.105	610714	keystroke	Key.space	n/a
305.597	0.09	611194	keystroke	c	n/a
305.673	0.0745	611346	keystroke	o	n/a
305.898	0.0295	611796	keystroke	l	n/a
306.0025	0.075	612005	keystroke	l	n/a
306.0475	0.105	612095	keystroke	e	n/a
306.212	0.1055	612424	keystroke	c	n/a
306.4225	0.0895	612845	keystroke	t	n/a
306.527	0.0905	613054	keystroke	e	n/a
306.662	0.0905	613324	keystroke	d	n/a
306.782	0.09	613564	keystroke	Key.space	n/a
307.1725	0.0895	614345	keystroke	u	n/a
307.247	0.12	614494	keystroke	s	n/a
307.397	0.0755	614794	keystroke	e	n/a
307.5625	0.0745	615125	keystroke	d	n/a
307.907	0.075	615814	keystroke	Key.enter	n/a
307.988	9.7755	615976	prompt	n/a	modules biography pizza handles\n
308.6575	0.09	617315	keystroke	m	n/a
308.8675	0.09	617735	keystroke	o	n/a
308.9865	0.091	617973	keystroke	d	n/a
309.1525	0.0445	618305	keystroke	u	n/a
309.3475	0.105	618695	keystroke	l	n/a
309.3915	0.091	618783	keystroke	e	n/a
309.5425	0.09	619085	keystroke	s	n/a
309.6615	0.075	619323	keystroke	Key.space	n/a
310.7875	0.09	621575	keystroke	b	n/a
310.923	0.1345	621846	keystroke	i	n/a
310.9975	0.105	621995	keystroke	o	n/a
311.4625	0.105	622925	keystroke	g	n/a
311.5375	0.105	623075	keystroke	r	n/a
311.912	0.0905	623824	keystroke	a	n/a
312.0475	0.06	624095	keystroke	p	n/a
312.2275	0.09	624455	keystroke	h	n/a
312.4675	0.0745	624935	keystroke	y	n/a
313.2325	0.09	626465	keystroke	Key.space	n/a
314.162	0.1055	628324	keystroke	p	n/a
314.4465	0.031	628893	keystroke	o	n/a
315.0025	0.09	630005	keystroke	Key.backspace	n/a
315.273	0.0895	630546	keystroke	i	n/a
315.423	0.0885	630846	keystroke	z	n/a
315.5865	0.091	631173	keystroke	z	n/a
315.8425	0.06	631685	keystroke	a	n/a
316.172	0.0905	632344	keystroke	Key.space	n/a
316.6075	0.075	633215	keystroke	h	n/a
316.7125	0.09	633425	keystroke	a	n/a
316.8475	0.075	633695	keystroke	n	n/a
316.9675	0.09	633935	keystroke	d	n/a
317.1925	0.09	634385	keystroke	l	n/a
317.2375	0.045	634475	keystroke	e	n/a
317.508	0.059	635016	keystroke	s	n/a
317.6725	0.0895	635345	keystroke	Key.enter	n/a
317.767	10.182	635534	prompt	n/a	bradley waiting broken levitra\n
318.8275	0.1045	637655	keystroke	b	n/a
319.067	0.12	638134	keystroke	r	n/a
319.1725	0.0595	638345	keystroke	e	n/a
319.637	0.075	639274	keystroke	Key.backspace	n/a
319.7275	0.1045	639455	keystroke	a	n/a
319.8175	0.0895	639635	keystroke	d	n/a
320.582	0.075	641164	keystroke	l	n/a
320.717	0.03	641434	keystroke	e	n/a
320.8675	0.09	641735	keystroke	y	n/a
320.9865	0.09	641973	keystroke	Key.space	n/a
321.3475	0.0295	642695	keystroke	w	n/a
321.7375	0.074	643475	keystroke	a	n/a
321.8865	0.075	643773	keystroke	i	n/a
322.0075	0.104	644015	keystroke	t	n/a
322.0975	0.105	644195	keystroke	i	n/a
322.1575	0.105	644315	keystroke	n	n/a
322.277	0.0595	644554	keystroke	g	n/a
322.6215	0.076	645243	keystroke	Key.space	n/a
323.3575	0.104	646715	keystroke	b	n/a
323.5365	0.15	647073	keystroke	r	n/a
323.7325	0.075	647465	keystroke	o	n/a
323.9575	0.09	647915	keystroke	k	n/a
324.1375	0.074	648275	keystroke	e	n/a
324.2865	0.121	648573	keystroke	n	n/a
324.9475	0.1045	649895	keystroke	Key.space	n/a
325.3365	0.091	650673	keystroke	l	n/a
325.4715	0.076	650943	keystroke	e	n/a
325.8615	0.0905	651723	keystroke	v	n/a
326.027	0.0595	652054	keystroke	i	n/a
326.3275	0.09	652655	keystroke	t	n/a
326.8075	0.075	653615	keystroke	r	n/a
326.8675	0.0755	653735	keystroke	e	n/a
327.4975	0.09	654995	keystroke	Key.backspace	n/a
327.5725	0.075	655145	keystroke	a	n/a
327.8575	0.09	655715	keystroke	Key.enter	n/a
327.954	10.525	655908	prompt	n/a	contracts prepaid helicopter partners\n
328.7425	0.09	657485	keystroke	c	n/a
328.9675	0.135	657935	keystroke	o	n/a
329.0575	0.12	658115	keystroke	n	n/a
329.3115	0.121	658623	keystroke	t	n/a
329.3875	0.09	658775	keystroke	r	n/a
329.5525	0.1495	659105	keystroke	a	n/a
329.687	0.1205	659374	keystroke	c	n/a
329.9115	0.091	659823	keystroke	t	n/a
330.0775	0.1045	660155	keystroke	s	n/a
330.197	0.09	660394	keystroke	Key.space	n/a
330.677	0.105	661354	keystroke	p	n/a
330.977	0.075	661954	keystroke	r	n/a
331.037	0.12	662074	keystroke	e	n/a
331.367	0.09	662734	keystroke	p	n/a
331.502	0.0905	663004	keystroke	a	n/a
331.7425	0.09	663485	keystroke	i	n/a
331.847	0.0755	663694	keystroke	d	n/a
332.162	0.1055	664324	keystroke	Key.space	n/a
332.552	0.105	665104	keystroke	h	n/a
332.7475	0.075	665495	keystroke	e	n/a
332.897	0.09	665794	keystroke	l	n/a
333.0775	0.075	666155	keystroke	i	n/a
333.257	0.0905	666514	keystroke	c	n/a
333.4975	0.15	666995	keystroke	o	n/a
333.5875	0.105	667175	keystroke	p	n/a
333.7375	0.09	667475	keystroke	t	n/a
333.8725	0.105	667745	keystroke	e	n/a
333.9625	0.075	667925	keystroke	r	n/a
334.157	0.0905	668314	keystroke	Key.space	n/a
334.6675	0.0745	669335	keystroke	p	n/a
334.8175	0.1345	669635	keystroke	a	n/a
334.9375	0.0895	669875	keystroke	r	n/a
335.102	0.0905	670204	keystroke	t	n/a
335.2975	0.105	670595	keystroke	n	n/a
335.4175	0.1045	670835	keystroke	e	n/a
335.507	0.0605	671014	keystroke	t	n/a
335.9725	0.075	671945	keystroke	r	n/a
337.2625	0.09	674525	keystroke	Key.backspace	n/a
337.6825	0.075	675365	keystroke	Key.backspace	n/a
337.8625	0.089	675725	keystroke	r	n/a
338.0115	0.106	676023	keystroke	s	n/a
338.402	0.075	676804	keystroke	Key.enter	n/a
338.4825	11.7265	676965	prompt	n/a	holdings available conspiracy governments\n
339.7225	0.119	679445	keystroke	h	n/a
339.9615	0.0905	679923	keystroke	o	n/a
340.157	0.12	680314	keystroke	l	n/a
340.427	0.075	680854	keystroke	d	n/a
340.637	0.15	681274	keystroke	i	n/a
340.727	0.15	681454	keystroke	n	n/a
340.862	0.045	681724	keystroke	g	n/a
340.937	0.1055	681874	keystroke	s	n/a
341.102	0.09	682204	keystroke	Key.space	n/a
341.432	0.12	682864	keystroke	a	n/a
341.762	0.09	683524	keystroke	v	n/a
342.032	0.12	684064	keystroke	a	n/a
342.197	0.1055	684394	keystroke	i	n/a
342.3625	0.09	684725	keystroke	l	n/a
342.5575	0.059	685115	keystroke	a	n/a
342.7975	0.075	685595	keystroke	b	n/a
342.9175	0.075	685835	keystroke	l	n/a
342.9775	0.12	685955	keystroke	e	n/a
343.1575	0.105	686315	keystroke	Key.space	n/a
343.4425	0.075	686885	keystroke	c	n/a
343.9215	0.1055	687843	keystroke	o	n/a
343.9975	0.119	687995	keystroke	n	n/a
344.4475	0.0595	688895	keystroke	s	n/a
344.957	0.0155	689914	keystroke	p	n/a
345.257	0.075	690514	keystroke	i	n/a
345.377	0.0905	690754	keystroke	r	n/a
345.6175	0.0895	691235	keystroke	a	n/a
345.8125	0.1045	691625	keystroke	c	n/a
346.157	0.075	692314	keystroke	y	n/a
346.937	0.09	693874	keystroke	Key.space	n/a
348.0325	0.09	696065	keystroke	g	n/a
348.2875	0.0895	696575	keystroke	o	n/a
348.4825	0.105	696965	keystroke	v	n/a
348.6625	0.12	697325	keystroke	e	n/a
348.7375	0.089	697475	keystroke	r	n/a
348.8575	0.06	697715	keystroke	n	n/a
349.0225	0.06	698045	keystroke	m	n/a
349.0975	0.105	698195	keystroke	e	n/a
349.1865	0.09	698373	keystroke	n	n/a
349.2615	0.076	698523	keystroke	t	n/a
349.5325	0.089	699065	keystroke	s	n/a
350.1025	0.104	700205	keystroke	Key.enter	n/a
350.214	7.24	700428	prompt	n/a	safely officers took hall\n
350.852	0.105	701704	keystroke	s	n/a
351.0475	0.1195	702095	keystroke	a	n/a
351.1975	0.1045	702395	keystroke	f	n/a
351.2725	0.09	702545	keystroke	e	n/a
351.5125	0.045	703025	keystroke	t	n/a
352.4875	0.0895	704975	keystroke	Key.backspace	n/a
352.877	0.09	705754	keystroke	l	n/a
353.1625	0.0745	706325	keystroke	y	n/a
353.882	0.075	707764	keystroke	Key.space	n/a
354.2875	0.075	708575	keystroke	o	n/a
354.4225	0.09	708845	keystroke	f	n/a
354.5575	0.09	709115	keystroke	f	n/a
354.6925	0.09	709385	keystroke	i	n/a
354.7525	0.105	709505	keystroke	c	n/a
354.8575	0.165	709715	keystroke	e	n/a
354.9925	0.075	709985	keystroke	r	n/a
355.1575	0.105	710315	keystroke	s	n/a
355.3075	0.09	710615	keystroke	Key.space	n/a
355.6675	0.075	711335	keystroke	t	n/a
355.7875	0.075	711575	keystroke	o	n/a
355.9375	0.06	711875	keystroke	o	n/a
356.1025	0.075	712205	keystroke	k	n/a
356.4025	0.06	712805	keystroke	Key.space	n/a
356.5975	0.075	713195	keystroke	h	n/a
356.7025	0.09	713405	keystroke	a	n/a
356.8525	0.075	713705	keystroke	l	n/a
357.0025	0.075	714005	keystroke	l	n/a
357.3625	0.09	714725	keystroke	Key.enter	n/a
357.458	19.5265	714916	prompt	n/a	goals prairie mortgage reducing\n
358.517	0.091	717034	keystroke	g	n/a
358.667	0.075	717334	keystroke	a	n/a
358.787	0.061	717574	keystroke	o	n/a
358.968	0.105	717936	keystroke	l	n/a
359.058	0.105	718116	keystroke	s	n/a
359.2225	0.075	718445	keystroke	Key.space	n/a
359.4925	0.1055	718985	keystroke	p	n/a
359.627	0.06	719254	keystroke	r	n/a
359.9125	0.06	719825	keystroke	o	n/a
360.3625	0.0895	720725	keystroke	Key.backspace	n/a
360.527	0.09	721054	keystroke	a	n/a
361.562	0.061	723124	keystroke	=	n/a
362.7925	0.33	725585	keystroke	Key.backspace	n/a
363.257	0.1355	726514	keystroke	Key.backspace	n/a
363.572	0.06	727144	keystroke	Key.backspace	n/a
363.767	0.1055	727534	keystroke	Key.backspace	n/a
364.0225	0.075	728045	keystroke	Key.backspace	n/a
364.2175	0.0895	728435	keystroke	Key.backspace	n/a
364.427	0.0905	728854	keystroke	Key.backspace	n/a
364.757	0.09	729514	keystroke	Key.backspace	n/a
365.1175	0.0595	730235	keystroke	Key.backspace	n/a
365.7475	0.09	731495	keystroke	o	n/a
365.883	0.0895	731766	keystroke	a	n/a
365.9875	0.1055	731975	keystroke	l	n/a
366.0775	0.105	732155	keystroke	s	n/a
366.5575	0.09	733115	keystroke	Key.space	n/a
367.293	0.1045	734586	keystroke	p	n/a
367.4575	0.105	734915	keystroke	r	n/a
367.773	0.1345	735546	keystroke	a	n/a
368.0275	0.0905	736055	keystroke	i	n/a
368.1925	0.105	736385	keystroke	r	n/a
369.6925	0.06	739385	keystroke	i	n/a
369.783	0.09	739566	keystroke	e	n/a
370.442	0.06	740884	keystroke	Key.space	n/a
370.7425	0.075	741485	keystroke	m	n/a
370.9075	0.09	741815	keystroke	o	n/a
371.0125	0.06	742025	keystroke	r	n/a
371.1475	0.075	742295	keystroke	t	n/a
371.8225	0.0895	743645	keystroke	g	n/a
371.9725	0.1045	743945	keystroke	a	n/a
372.0625	0.105	744125	keystroke	g	n/a
372.198	0.1045	744396	keystroke	e	n/a
372.4225	0.1045	744845	keystroke	Key.space	n/a
372.648	0.074	745296	keystroke	r	n/a
372.692	0.091	745384	keystroke	e	n/a
372.932	0.09	745864	keystroke	d	n/a
373.083	0.09	746166	keystroke	u	n/a
373.127	0.121	746254	keystroke	c	n/a
373.473	0.1195	746946	keystroke	d	n/a
373.623	0.105	747246	keystroke	i	n/a
373.682	0.106	747364	keystroke	n	n/a
373.757	0.091	747514	keystroke	g	n/a
374.132	0.075	748264	keystroke	Key.backspace	n/a
374.283	0.074	748566	keystroke	Key.backspace	n/a
374.417	0.075	748834	keystroke	Key.backspace	n/a
374.582	0.06	749164	keystroke	Key.backspace	n/a
374.912	0.12	749824	keystroke	i	n/a
375.018	0.09	750036	keystroke	n	n/a
375.063	0.075	750126	keystroke	g	n/a
376.9075	0.075	753815	keystroke	Key.enter	n/a
376.9915	8.4675	753983	prompt	n/a	scary vids that'll published\n
377.7475	0.06	755495	keystroke	s	n/a
377.8975	0.12	755795	keystroke	c	n/a
378.0475	0.18	756095	keystroke	a	n/a
378.1975	0.06	756395	keystroke	r	n/a
378.3625	0.105	756725	keystroke	y	n/a
378.497	0.0905	756994	keystroke	Key.space	n/a
379.263	0.0445	758526	keystroke	v	n/a
379.3225	0.0605	758645	keystroke	i	n/a
379.4575	0.135	758915	keystroke	d	n/a
379.5475	0.09	759095	keystroke	s	n/a
379.7115	0.106	759423	keystroke	Key.space	n/a
380.058	0.074	760116	keystroke	t	n/a
380.1475	0.075	760295	keystroke	h	n/a
380.238	0.1345	760476	keystroke	a	n/a
380.387	0.09	760774	keystroke	t	n/a
381.1225	0.0905	762245	keystroke	'	n/a
381.392	0.061	762784	keystroke	l	n/a
381.827	0.09	763654	keystroke	l	n/a
382.082	0.106	764164	keystroke	Key.space	n/a
382.6525	0.075	765305	keystroke	p	n/a
382.8625	0.0755	765725	keystroke	u	n/a
383.508	0.09	767016	keystroke	b	n/a
383.763	0.0595	767526	keystroke	l	n/a
383.9725	0.105	767945	keystroke	i	n/a
384.5275	0.105	769055	keystroke	s	n/a
384.6475	0.075	769295	keystroke	h	n/a
384.7375	0.09	769475	keystroke	e	n/a
384.9025	0.06	769805	keystroke	d	n/a
385.3975	0.06	770795	keystroke	Key.enter	n/a
385.462	5.4275	770924	prompt	n/a	switches tests arrive euro\n
386.0575	0.0745	772115	keystroke	s	n/a
386.2525	0.09	772505	keystroke	w	n/a
386.3725	0.09	772745	keystroke	i	n/a
386.478	0.0895	772956	keystroke	t	n/a
386.672	0.09	773344	keystroke	c	n/a
386.793	0.089	773586	keystroke	h	n/a
386.822	0.106	773644	keystroke	e	n/a
387.003	0.09	774006	keystroke	s	n/a
387.077	0.1055	774154	keystroke	Key.space	n/a
387.212	0.166	774424	keystroke	t	n/a
387.303	0.089	774606	keystroke	e	n/a
387.482	0.0905	774964	keystroke	s	n/a
387.678	0.164	775356	keystroke	t	n/a
387.887	0.0455	775774	keystroke	s	n/a
387.992	0.09	775984	keystroke	Key.space	n/a
388.6225	0.105	777245	keystroke	a	n/a
388.8175	0.075	777635	keystroke	r	n/a
388.9375	0.09	777875	keystroke	r	n/a
389.1175	0.09	778235	keystroke	i	n/a
389.2225	0.06	778445	keystroke	v	n/a
389.357	0.0905	778714	keystroke	e	n/a
389.537	0.091	779074	keystroke	Key.space	n/a
390.138	0.09	780276	keystroke	e	n/a
390.318	0.075	780636	keystroke	u	n/a
390.408	0.075	780816	keystroke	r	n/a
390.543	0.089	781086	keystroke	o	n/a
390.767	0.121	781534	keystroke	Key.enter	n/a
390.8945	6.4605	781789	prompt	n/a	baptist submissions handy arrow\n
391.833	0.119	783666	keystroke	b	n/a
391.982	0.121	783964	keystroke	a	n/a
392.1175	0.09	784235	keystroke	p	n/a
392.2835	0.089	784567	keystroke	t	n/a
392.4335	0.089	784867	keystroke	i	n/a
392.792	0.075	785584	keystroke	s	n/a
393.0925	0.06	786185	keystroke	t	n/a
393.617	0.1055	787234	keystroke	Key.space	n/a
393.813	0.1345	787626	keystroke	s	n/a
393.902	0.075	787804	keystroke	u	n/a
394.067	0.0905	788134	keystroke	b	n/a
394.1725	0.0895	788345	keystroke	m	n/a
394.307	0.06	788614	keystroke	i	n/a
394.368	0.0745	788736	keystroke	s	n/a
394.533	0.0895	789066	keystroke	s	n/a
394.637	0.136	789274	keystroke	i	n/a
394.6975	0.1045	789395	keystroke	o	n/a
394.757	0.12	789514	keystroke	n	n/a
394.8475	0.0745	789695	keystroke	s	n/a
395.042	0.0755	790084	keystroke	Key.space	n/a
395.4475	0.105	790895	keystroke	h	n/a
395.5675	0.105	791135	keystroke	a	n/a
395.688	0.075	791376	keystroke	n	n/a
395.7775	0.1055	791555	keystroke	d	n/a
396.0475	0.075	792095	keystroke	y	n/a
396.137	0.091	792274	keystroke	Key.space	n/a
396.4975	0.0905	792995	keystroke	a	n/a
396.6625	0.075	793325	keystroke	r	n/a
396.7975	0.075	793595	keystroke	r	n/a
396.9175	0.09	793835	keystroke	o	n/a
396.9925	0.075	793985	keystroke	w	n/a
397.233	0.1195	794466	keystroke	Key.enter	n/a
397.3595	6.745	794719	prompt	n/a	dean distances cope lobby\n
398.058	0.0895	796116	keystroke	d	n/a
398.3725	0.075	796745	keystroke	e	n/a
398.5975	0.0455	797195	keystroke	a	n/a
398.613	0.0445	797226	keystroke	s	n/a
399.2275	0.0905	798455	keystroke	Key.backspace	n/a
399.468	0.089	798936	keystroke	n	n/a
399.903	0.0895	799806	keystroke	Key.space	n/a
400.2175	0.09	800435	keystroke	d	n/a
400.3225	0.0745	800645	keystroke	i	n/a
400.383	0.089	800766	keystroke	s	n/a
400.5775	0.075	801155	keystroke	t	n/a
400.7125	0.12	801425	keystroke	a	n/a
400.818	0.0895	801636	keystroke	n	n/a
400.9225	0.165	801845	keystroke	c	n/a
401.0425	0.105	802085	keystroke	e	n/a
401.4925	0.06	802985	keystroke	s	n/a
401.9425	0.045	803885	keystroke	Key.space	n/a
402.2875	0.09	804575	keystroke	c	n/a
402.4075	0.15	804815	keystroke	o	n/a
402.4825	0.12	804965	keystroke	p	n/a
402.5875	0.12	805175	keystroke	e	n/a
402.7375	0.105	805475	keystroke	Key.space	n/a
403.0525	0.06	806105	keystroke	l	n/a
403.2325	0.09	806465	keystroke	o	n/a
403.368	0.0745	806736	keystroke	b	n/a
403.5325	0.0745	807065	keystroke	b	n/a
403.787	0.0755	807574	keystroke	y	n/a
404.0125	0.0895	808025	keystroke	Key.enter	n/a
404.109	16.3905	808218	prompt	n/a	tribal universities samba acknowledged\n
405.0475	0.06	810095	keystroke	t	n/a
405.0925	0.06	810185	keystroke	r	n/a
405.1675	0.06	810335	keystroke	i	n/a
405.2875	0.075	810575	keystroke	b	n/a
405.4525	0.1055	810905	keystroke	a	n/a
405.5725	0.045	811145	keystroke	l	n/a
405.7375	0.075	811475	keystroke	Key.space	n/a
405.978	0.1195	811956	keystroke	u	n/a
406.0525	0.09	812105	keystroke	n	n/a
406.2025	0.09	812405	keystroke	i	n/a
406.3375	0.105	812675	keystroke	v	n/a
406.5625	0.105	813125	keystroke	e	n/a
406.6525	0.075	813305	keystroke	r	n/a
406.9675	0.105	813935	keystroke	s	n/a
407.0875	0.09	814175	keystroke	i	n/a
407.868	0.059	815736	keystroke	t	n/a
407.972	0.12	815944	keystroke	i	n/a
408.077	0.06	816154	keystroke	e	n/a
408.227	0.091	816454	keystroke	s	n/a
408.662	0.075	817324	keystroke	Key.space	n/a
408.9325	0.075	817865	keystroke	s	n/a
409.0975	0.075	818195	keystroke	a	n/a
409.218	0.1045	818436	keystroke	m	n/a
409.3525	0.075	818705	keystroke	d	n/a
409.8175	0.09	819635	keystroke	Key.backspace	n/a
409.9225	0.0745	819845	keystroke	b	n/a
410.0875	0.075	820175	keystroke	e	n/a
410.777	0.03	821554	keystroke	Key.backspace	n/a
410.8675	0.0755	821735	keystroke	a	n/a
411.212	0.075	822424	keystroke	Key.space	n/a
411.512	0.09	823024	keystroke	a	n/a
411.753	0.089	823506	keystroke	c	n/a
411.872	0.106	823744	keystroke	k	n/a
412.128	0.075	824256	keystroke	k	n/a
412.6375	0.0895	825275	keystroke	Key.backspace	n/a
413.178	0.105	826356	keystroke	n	n/a
413.538	0.105	827076	keystroke	o	n/a
416.0285	0.014	832057	keystroke	w	n/a
416.5675	0.09	833135	keystroke	l	n/a
418.939	0.014	837878	keystroke	e	n/a
419.192	0.0905	838384	keystroke	d	n/a
419.912	0.075	839824	keystroke	g	n/a
420.047	0.105	840094	keystroke	e	n/a
420.227	0.075	840454	keystroke	d	n/a
420.392	0.105	840784	keystroke	Key.enter	n/a
420.504	7.06	841008	prompt	n/a	dogs optimal buffalo flush\n
421.502	0.075	843004	keystroke	d	n/a
421.6675	0.1045	843335	keystroke	o	n/a
421.802	0.105	843604	keystroke	g	n/a
421.953	0.09	843906	keystroke	s	n/a
422.567	0.09	845134	keystroke	Key.space	n/a
422.8225	0.105	845645	keystroke	o	n/a
423.032	0.1055	846064	keystroke	p	n/a
423.3175	0.105	846635	keystroke	t	n/a
423.6475	0.09	847295	keystroke	i	n/a
423.8875	0.105	847775	keystroke	m	n/a
424.0375	0.045	848075	keystroke	a	n/a
424.1425	0.06	848285	keystroke	l	n/a
424.6825	0.09	849365	keystroke	Key.space	n/a
425.4025	0.075	850805	keystroke	b	n/a
425.5225	0.075	851045	keystroke	u	n/a
425.6575	0.06	851315	keystroke	f	n/a
425.7775	0.09	851555	keystroke	f	n/a
425.9275	0.09	851855	keystroke	a	n/a
426.0475	0.0905	852095	keystroke	l	n/a
426.2125	0.12	852425	keystroke	o	n/a
426.422	0.105	852844	keystroke	Key.space	n/a
426.707	0.075	853414	keystroke	f	n/a
426.798	0.075	853596	keystroke	l	n/a
427.007	0.075	854014	keystroke	u	n/a
427.083	0.089	854166	keystroke	s	n/a
427.157	0.12	854314	keystroke	h	n/a
427.457	0.1055	854914	keystroke	Key.enter	n/a
427.569	10.3755	855138	prompt	n/a	reconstruction learned pirates egyptian\n
428.4325	0.075	856865	keystroke	r	n/a
428.4475	0.105	856895	keystroke	e	n/a
428.6575	0.09	857315	keystroke	c	n/a
428.8075	0.12	857615	keystroke	o	n/a
428.8975	0.12	857795	keystroke	n	n/a
429.3625	0.0895	858725	keystroke	s	n/a
429.648	0.104	859296	keystroke	t	n/a
429.692	0.106	859384	keystroke	r	n/a
429.812	0.09	859624	keystroke	u	n/a
429.948	0.104	859896	keystroke	c	n/a
430.157	0.075	860314	keystroke	t	n/a
430.188	0.179	860376	keystroke	i	n/a
430.2625	0.1055	860525	keystroke	o	n/a
430.337	0.105	860674	keystroke	n	n/a
430.5025	0.0455	861005	keystroke	s	n/a
430.9675	0.1045	861935	keystroke	Key.backspace	n/a
431.2675	0.09	862535	keystroke	Key.space	n/a
431.4625	0.105	862925	keystroke	l	n/a
431.5525	0.09	863105	keystroke	e	n/a
431.7025	0.105	863405	keystroke	a	n/a
431.793	0.0895	863586	keystroke	r	n/a
431.8975	0.12	863795	keystroke	n	n/a
431.9575	0.0905	863915	keystroke	e	n/a
432.152	0.0755	864304	keystroke	d	n/a
432.2125	0.075	864425	keystroke	Key.space	n/a
433.263	0.0895	866526	keystroke	p	n/a
433.5175	0.075	867035	keystroke	i	n/a
433.6975	0.09	867395	keystroke	r	n/a
433.877	0.0905	867754	keystroke	a	n/a
434.028	0.119	868056	keystroke	t	n/a
434.1025	0.09	868205	keystroke	e	n/a
434.298	0.0895	868596	keystroke	s	n/a
434.432	0.075	868864	keystroke	Key.space	n/a
435.513	0.119	871026	keystroke	e	n/a
436.487	0.076	872974	keystroke	g	n/a
436.7425	0.0905	873485	keystroke	y	n/a
436.8925	0.0895	873785	keystroke	p	n/a
436.997	0.075	873994	keystroke	t	n/a
437.223	0.074	874446	keystroke	i	n/a
437.432	0.09	874864	keystroke	a	n/a
437.5375	0.0755	875075	keystroke	n	n/a
437.852	0.0905	875704	keystroke	Key.enter	n/a
437.9475	18.072	875895	prompt	n/a	calcium glen clearance construction\n
438.663	0.1045	877326	keystroke	c	n/a
438.783	0.0895	877566	keystroke	a	n/a
438.888	0.0895	877776	keystroke	l	n/a
439.1575	0.09	878315	keystroke	c	n/a
439.2925	0.1205	878585	keystroke	i	n/a
439.428	0.0895	878856	keystroke	u	n/a
439.6225	0.105	879245	keystroke	m	n/a
439.9525	0.09	879905	keystroke	Key.space	n/a
440.3875	0.0605	880775	keystroke	g	n/a
440.448	0.1045	880896	keystroke	l	n/a
440.5675	0.0905	881135	keystroke	e	n/a
440.6725	0.1055	881345	keystroke	n	n/a
440.9125	0.09	881825	keystroke	Key.space	n/a
441.408	0.089	882816	keystroke	c	n/a
441.5125	0.075	883025	keystroke	l	n/a
441.572	0.0905	883144	keystroke	e	n/a
441.7525	0.105	883505	keystroke	a	n/a
441.8425	0.1045	883685	keystroke	r	n/a
442.0075	0.135	884015	keystroke	a	n/a
442.157	0.09	884314	keystroke	n	n/a
442.2485	0.119	884497	keystroke	c	n/a
442.3375	0.105	884675	keystroke	e	n/a
442.6825	0.0895	885365	keystroke	Key.space	n/a
443.118	0.105	886236	keystroke	c	n/a
443.238	0.1195	886476	keystroke	o	n/a
443.3425	0.075	886685	keystroke	n	n/a
443.4475	0.105	886895	keystroke	t	n/a
443.5075	0.075	887015	keystroke	r	n/a
443.7025	0.06	887405	keystroke	a	n/a
444.1075	0.09	888215	keystroke	Key.backspace	n/a
444.1825	0.075	888365	keystroke	c	n/a
444.423	0.0445	888846	keystroke	u	n/a
444.7075	0.0445	889415	keystroke	Key.backspace	n/a
444.827	0.06	889654	keystroke	Key.backspace	n/a
445.083	0.0745	890166	keystroke	u	n/a
445.2175	0.075	890435	keystroke	c	n/a
445.923	0.09	891846	keystroke	s	n/a
446.163	0.075	892326	keystroke	t	n/a
446.2225	0.1805	892445	keystroke	i	n/a
446.253	0.1645	892506	keystroke	o	n/a
446.3275	0.105	892655	keystroke	n	n/a
446.7775	0.0755	893555	keystroke	Key.backspace	n/a
446.9875	0.0905	893975	keystroke	Key.backspace	n/a
447.2425	0.06	894485	keystroke	Key.backspace	n/a
447.5875	0.06	895175	keystroke	Key.backspace	n/a
447.9775	0.075	895955	keystroke	Key.backspace	n/a
448.7875	0.105	897575	keystroke	t	n/a
448.9075	0.1505	897815	keystroke	i	n/a
448.9825	0.1355	897965	keystroke	o	n/a
449.0875	0.0905	898175	keystroke	n	n/a
450.422	0.075	900844	keystroke	Key.shift_r	n/a
452.1175	0.075	904235	keystroke	Key.backspace	n/a
452.2825	0.06	904565	keystroke	Key.backspace	n/a
452.447	0.0455	904894	keystroke	Key.backspace	n/a
452.612	0.045	905224	keystroke	Key.backspace	n/a
452.777	0.045	905554	keystroke	Key.backspace	n/a
452.927	0.03	905854	keystroke	Key.backspace	n/a
453.063	0.0595	906126	keystroke	Key.backspace	n/a
453.2275	0.045	906455	keystroke	Key.backspace	n/a
453.8875	0.09	907775	keystroke	s	n/a
454.173	0.09	908346	keystroke	t	n/a
454.218	0.105	908436	keystroke	r	n/a
454.383	0.09	908766	keystroke	u	n/a
454.503	0.12	909006	keystroke	c	n/a
454.713	0.075	909426	keystroke	t	n/a
454.758	0.18	909516	keystroke	i	n/a
454.833	0.12	909666	keystroke	o	n/a
454.908	0.0895	909816	keystroke	n	n/a
455.9275	0.09	911855	keystroke	Key.enter	n/a
456.0245	9.235	912049	prompt	n/a	egypt clocks peoples angle\n
457.413	0.0745	914826	keystroke	e	n/a
458.028	0.12	916056	keystroke	g	n/a
458.283	0.12	916566	keystroke	y	n/a
458.508	0.075	917016	keystroke	p	n/a
458.643	0.09	917286	keystroke	t	n/a
459.273	0.09	918546	keystroke	Key.space	n/a
459.558	0.045	919116	keystroke	v	n/a
459.978	0.075	919956	keystroke	Key.backspace	n/a
460.0975	0.0905	920195	keystroke	c	n/a
460.263	0.0895	920526	keystroke	l	n/a
460.4575	0.0755	920915	keystroke	o	n/a
460.563	0.0745	921126	keystroke	c	n/a
460.788	0.045	921576	keystroke	k	n/a
460.9675	0.0905	921935	keystroke	s	n/a
461.733	0.119	923466	keystroke	Key.space	n/a
462.0325	0.0905	924065	keystroke	p	n/a
462.168	0.09	924336	keystroke	e	n/a
462.303	0.06	924606	keystroke	o	n/a
462.378	0.18	924756	keystroke	p	n/a
462.468	0.165	924936	keystroke	l	n/a
462.618	0.075	925236	keystroke	e	n/a
462.783	0.075	925566	keystroke	s	n/a
462.948	0.09	925896	keystroke	Key.space	n/a
463.323	0.1045	926646	keystroke	a	n/a
463.4725	0.075	926945	keystroke	n	n/a
463.683	0.0895	927366	keystroke	g	n/a
463.938	0.0445	927876	keystroke	e	n/a
464.0425	0.045	928085	keystroke	l	n/a
464.297	0.06	928594	keystroke	Key.backspace	n/a
464.418	0.09	928836	keystroke	Key.backspace	n/a
464.673	0.075	929346	keystroke	l	n/a
464.733	0.06	929466	keystroke	e	n/a
465.168	0.089	930336	keystroke	Key.enter	n/a
465.2635	7.181	930527	prompt	n/a	date searched suzuki truck\n
466.368	0.105	932736	keystroke	d	n/a
466.502	0.136	933004	keystroke	a	n/a
466.788	0.075	933576	keystroke	t	n/a
466.908	0.06	933816	keystroke	e	n/a
467.373	0.075	934746	keystroke	Key.space	n/a
467.627	0.106	935254	keystroke	s	n/a
467.793	0.12	935586	keystroke	e	n/a
467.973	0.135	935946	keystroke	a	n/a
468.063	0.105	936126	keystroke	r	n/a
468.288	0.09	936576	keystroke	c	n/a
468.393	0.105	936786	keystroke	h	n/a
468.468	0.09	936936	keystroke	e	n/a
468.6475	0.075	937295	keystroke	d	n/a
468.738	0.0895	937476	keystroke	Key.space	n/a
469.113	0.0745	938226	keystroke	s	n/a
469.232	0.091	938464	keystroke	u	n/a
469.352	0.091	938704	keystroke	s	n/a
469.787	0.091	939574	keystroke	Key.backspace	n/a
469.923	0.075	939846	keystroke	z	n/a
470.327	0.046	940654	keystroke	u	n/a
470.507	0.106	941014	keystroke	k	n/a
470.688	0.09	941376	keystroke	i	n/a
471.063	0.0745	942126	keystroke	Key.space	n/a
471.483	0.0745	942966	keystroke	t	n/a
471.4975	0.12	942995	keystroke	r	n/a
471.6925	0.075	943385	keystroke	u	n/a
471.783	0.15	943566	keystroke	c	n/a
471.8875	0.0905	943775	keystroke	k	n/a
472.338	0.1045	944676	keystroke	Key.enter	n/a
472.4495	7	944899	prompt	n/a	fluid associated sort paintball\n
473.2975	0.045	946595	keystroke	f	n/a
473.358	0.0895	946716	keystroke	l	n/a
473.583	0.0445	947166	keystroke	u	n/a
473.7625	0.06	947525	keystroke	i	n/a
473.8375	0.06	947675	keystroke	d	n/a
474.1225	0.075	948245	keystroke	Key.space	n/a
474.2275	0.0905	948455	keystroke	a	n/a
474.4525	0.09	948905	keystroke	s	n/a
474.6025	0.0895	949205	keystroke	s	n/a
474.723	0.089	949446	keystroke	o	n/a
474.932	0.091	949864	keystroke	c	n/a
475.0375	0.0605	950075	keystroke	i	n/a
475.1575	0.1055	950315	keystroke	a	n/a
475.3525	0.1045	950705	keystroke	t	n/a
475.472	0.12	950944	keystroke	e	n/a
475.7425	0.0905	951485	keystroke	d	n/a
476.0425	0.075	952085	keystroke	Key.space	n/a
476.2525	0.09	952505	keystroke	s	n/a
476.3725	0.075	952745	keystroke	o	n/a
476.4925	0.0605	952985	keystroke	r	n/a
476.613	0.1045	953226	keystroke	t	n/a
476.7025	0.09	953405	keystroke	Key.space	n/a
476.928	0.09	953856	keystroke	p	n/a
477.078	0.06	954156	keystroke	a	n/a
477.318	0.075	954636	keystroke	i	n/a
477.468	0.105	954936	keystroke	n	n/a
477.603	0.075	955206	keystroke	t	n/a
478.6225	0.0905	957245	keystroke	b	n/a
478.7575	0.075	957515	keystroke	a	n/a
478.953	0.06	957906	keystroke	l	n/a
479.088	0.0595	958176	keystroke	l	n/a
479.3425	0.105	958685	keystroke	Key.enter	n/a
479.4565	7.313	958913	prompt	n/a	dress coaches genes humans\n
480.123	0.075	960246	keystroke	d	n/a
480.3925	0.075	960785	keystroke	r	n/a
480.453	0.0895	960906	keystroke	e	n/a
480.6475	0.045	961295	keystroke	s	n/a
480.7675	0.075	961535	keystroke	s	n/a
481.053	0.0745	962106	keystroke	Key.space	n/a
481.3825	0.09	962765	keystroke	c	n/a
481.5175	0.105	963035	keystroke	o	n/a
481.713	0.1045	963426	keystroke	a	n/a
482.568	0.104	965136	keystroke	c	n/a
482.7025	0.0895	965405	keystroke	h	n/a
482.7625	0.1805	965525	keystroke	w	n/a
483.347	0.105	966694	keystroke	Key.backspace	n/a
483.483	0.075	966966	keystroke	e	n/a
483.633	0.075	967266	keystroke	s	n/a
484.113	0.104	968226	keystroke	Key.space	n/a
484.488	0.075	968976	keystroke	g	n/a
484.623	0.09	969246	keystroke	e	n/a
484.728	0.074	969456	keystroke	n	n/a
484.803	0.075	969606	keystroke	e	n/a
484.968	0.0895	969936	keystroke	s	n/a
485.192	0.091	970384	keystroke	Key.space	n/a
485.523	0.1045	971046	keystroke	h	n/a
485.643	0.104	971286	keystroke	u	n/a
485.853	0.089	971706	keystroke	m	n/a
485.927	0.105	971854	keystroke	a	n/a
486.048	0.09	972096	keystroke	n	n/a
486.108	0.105	972216	keystroke	s	n/a
486.663	0.1045	973326	keystroke	Key.enter	n/a
486.7735	20.216	973547	prompt	n/a	maximize acceptance political gilbert\n
487.443	0.105	974886	keystroke	m	n/a
487.533	0.105	975066	keystroke	a	n/a
487.878	0.09	975756	keystroke	z	n/a
487.997	0.075	975994	keystroke	i	n/a
489.1825	0.09	978365	keystroke	Key.backspace	n/a
489.3175	0.075	978635	keystroke	Key.backspace	n/a
490.338	0.1795	980676	keystroke	x	n/a
490.5325	0.015	981065	keystroke	m	n/a
490.563	0.0445	981126	keystroke	i	n/a
491.312	0.0755	982624	keystroke	z	n/a
491.6575	0.1055	983315	keystroke	e	n/a
492.693	0.075	985386	keystroke	Key.backspace	n/a
492.843	0.075	985686	keystroke	Key.backspace	n/a
492.993	0.075	985986	keystroke	Key.backspace	n/a
493.128	0.074	986256	keystroke	Key.backspace	n/a
493.713	0.06	987426	keystroke	i	n/a
493.923	0.09	987846	keystroke	m	n/a
494.1175	0.03	988235	keystroke	i	n/a
494.5675	0.075	989135	keystroke	z	n/a
495.168	0.06	990336	keystroke	w	n/a
495.663	0.09	991326	keystroke	Key.backspace	n/a
495.708	0.075	991416	keystroke	e	n/a
498.665	0.043	997330	keystroke	Key.space	n/a
498.783	0.074	997566	keystroke	a	n/a
499.323	0.24	998646	keystroke	c	n/a
499.638	0.044	999276	keystroke	c	n/a
500.133	0.135	1000266	keystroke	e	n/a
500.283	0.044	1000566	keystroke	p	n/a
500.388	0.12	1000776	keystroke	t	n/a
501.033	0.135	1002066	keystroke	a	n/a
501.123	0.075	1002246	keystroke	n	n/a
502.157	0.045	1004314	keystroke	c	n/a
502.218	0.104	1004436	keystroke	e	n/a
503.0125	0.0145	1006025	keystroke	Key.space	n/a
503.357	0.12	1006714	keystroke	p	n/a
503.4625	0.0595	1006925	keystroke	o	n/a
503.643	0.09	1007286	keystroke	l	n/a
503.837	0.0755	1007674	keystroke	i	n/a
503.943	0.075	1007886	keystroke	t	n/a
504.033	0.105	1008066	keystroke	i	n/a
504.168	0.104	1008336	keystroke	c	n/a
504.302	0.091	1008604	keystroke	a	n/a
504.468	0.075	1008936	keystroke	l	n/a
504.708	0.089	1009416	keystroke	Key.space	n/a
505.4875	0.06	1010975	keystroke	g	n/a
505.5325	0.075	1011065	keystroke	i	n/a
505.6825	0.12	1011365	keystroke	l	n/a
506.1775	0.06	1012355	keystroke	b	n/a
506.3125	0.075	1012625	keystroke	e	n/a
506.3575	0.09	1012715	keystroke	r	n/a
506.5375	0.09	1013075	keystroke	t	n/a
506.898	0.09	1013796	keystroke	Key.enter	n/a
506.9945	8.2905	1013989	prompt	n/a	parish blow closure collins\n
508.4275	0.1055	1016855	keystroke	p	n/a
508.6525	0.12	1017305	keystroke	a	n/a
508.833	0.0745	1017666	keystroke	r	n/a
509.1325	0.061	1018265	keystroke	i	n/a
509.2675	0.075	1018535	keystroke	s	n/a
509.3725	0.09	1018745	keystroke	h	n/a
509.7925	0.105	1019585	keystroke	Key.space	n/a
510.1975	0.12	1020395	keystroke	b	n/a
510.2725	0.105	1020545	keystroke	l	n/a
510.483	0.0895	1020966	keystroke	o	n/a
510.5875	0.045	1021175	keystroke	w	n/a
510.7975	0.075	1021595	keystroke	Key.space	n/a
511.4275	0.09	1022855	keystroke	c	n/a
511.5025	0.0755	1023005	keystroke	l	n/a
511.683	0.0895	1023366	keystroke	o	n/a
512.6575	0.09	1025315	keystroke	s	n/a
512.852	0.0755	1025704	keystroke	u	n/a
513.2125	0.1055	1026425	keystroke	r	n/a
513.272	0.1055	1026544	keystroke	e	n/a
513.948	0.105	1027896	keystroke	Key.space	n/a
514.068	0.105	1028136	keystroke	c	n/a
514.158	0.075	1028316	keystroke	o	n/a
514.353	0.06	1028706	keystroke	l	n/a
514.458	0.075	1028916	keystroke	l	n/a
514.668	0.1795	1029336	keystroke	i	n/a
514.7875	0.1055	1029575	keystroke	n	n/a
514.8625	0.0905	1029725	keystroke	s	n/a
515.178	0.1045	1030356	keystroke	Key.enter	n/a
515.2895	12.0545	1030579	prompt	n/a	contracting username jump denied\n
516.2575	0.0745	1032515	keystroke	c	n/a
517.4575	0.12	1034915	keystroke	o	n/a
517.743	0.075	1035486	keystroke	n	n/a
518.3875	0.1205	1036775	keystroke	t	n/a
518.4475	0.09	1036895	keystroke	r	n/a
518.6875	0.15	1037375	keystroke	a	n/a
519.2575	0.0155	1038515	keystroke	c	n/a
519.6925	0.075	1039385	keystroke	t	n/a
519.9485	0.179	1039897	keystroke	o	n/a
521.3875	0.09	1042775	keystroke	Key.backspace	n/a
521.598	0.0895	1043196	keystroke	i	n/a
521.7625	0.105	1043525	keystroke	n	n/a
522.1375	0.075	1044275	keystroke	g	n/a
522.9625	0.075	1045925	keystroke	Key.space	n/a
523.2175	0.1055	1046435	keystroke	u	n/a
523.338	0.12	1046676	keystroke	s	n/a
523.503	0.165	1047006	keystroke	e	n/a
523.623	0.12	1047246	keystroke	r	n/a
523.773	0.12	1047546	keystroke	n	n/a
523.908	0.105	1047816	keystroke	a	n/a
524.028	0.09	1048056	keystroke	m	n/a
524.177	0.1205	1048354	keystroke	e	n/a
524.328	0.119	1048656	keystroke	Key.space	n/a
524.898	0.06	1049796	keystroke	j	n/a
525.033	0.074	1050066	keystroke	u	n/a
525.243	0.105	1050486	keystroke	m	n/a
525.423	0.12	1050846	keystroke	p	n/a
526.098	0.075	1052196	keystroke	Key.space	n/a
526.443	0.105	1052886	keystroke	d	n/a
526.593	0.09	1053186	keystroke	e	n/a
526.683	0.09	1053366	keystroke	n	n/a
526.833	0.09	1053666	keystroke	i	n/a
526.938	0.059	1053876	keystroke	e	n/a
527.088	0.09	1054176	keystroke	d	n/a
527.238	0.1045	1054476	keystroke	Key.enter	n/a
527.3475	11.982	1054695	prompt	n/a	restructuring reset advertisers provides\n
528.258	0.09	1056516	keystroke	r	n/a
528.332	0.076	1056664	keystroke	e	n/a
528.588	0.06	1057176	keystroke	s	n/a
528.813	0.105	1057626	keystroke	t	n/a
528.858	0.12	1057716	keystroke	r	n/a
529.0235	0.0745	1058047	keystroke	u	n/a
529.1735	0.0895	1058347	keystroke	c	n/a
529.383	0.105	1058766	keystroke	t	n/a
530.147	0.03	1060294	keystroke	e	n/a
530.553	0.06	1061106	keystroke	Key.backspace	n/a
530.793	0.075	1061586	keystroke	u	n/a
530.913	0.045	1061826	keystroke	r	n/a
531.123	0.135	1062246	keystroke	i	n/a
531.198	0.105	1062396	keystroke	n	n/a
531.288	0.09	1062576	keystroke	g	n/a
531.858	0.075	1063716	keystroke	Key.space	n/a
532.083	0.09	1064166	keystroke	r	n/a
532.128	0.075	1064256	keystroke	e	n/a
532.293	0.105	1064586	keystroke	s	n/a
532.488	0.075	1064976	keystroke	e	n/a
532.697	0.1055	1065394	keystroke	t	n/a
533.2825	0.0895	1066565	keystroke	Key.space	n/a
533.402	0.121	1066804	keystroke	a	n/a
533.568	0.119	1067136	keystroke	d	n/a
534.002	0.1205	1068004	keystroke	v	n/a
534.1975	0.09	1068395	keystroke	e	n/a
534.258	0.075	1068516	keystroke	r	n/a
534.4675	0.0755	1068935	keystroke	t	n/a
534.6175	0.0755	1069235	keystroke	i	n/a
535.7125	0.075	1071425	keystroke	s	n/a
536.0125	0.1205	1072025	keystroke	e	n/a
536.1175	0.09	1072235	keystroke	r	n/a
536.3275	0.0755	1072655	keystroke	s	n/a
536.583	0.09	1073166	keystroke	Key.space	n/a
536.928	0.09	1073856	keystroke	p	n/a
537.063	0.09	1074126	keystroke	r	n/a
537.2575	0.09	1074515	keystroke	o	n/a
538.2775	0.0455	1076555	keystroke	v	n/a
538.3535	0.104	1076707	keystroke	i	n/a
538.472	0.0755	1076944	keystroke	d	n/a
538.683	0.03	1077366	keystroke	e	n/a
538.833	0.0745	1077666	keystroke	s	n/a
539.223	0.105	1078446	keystroke	Key.enter	n/a
539.334	10.8105	1078668	prompt	n/a	worlds creation veteran races\n
540.003	0.1195	1080006	keystroke	w	n/a
540.1375	0.09	1080275	keystroke	o	n/a
540.2425	0.0905	1080485	keystroke	r	n/a
540.3925	0.1055	1080785	keystroke	l	n/a
540.483	0.165	1080966	keystroke	d	n/a
540.5875	0.12	1081175	keystroke	s	n/a
540.8425	0.0905	1081685	keystroke	Key.space	n/a
541.353	0.09	1082706	keystroke	c	n/a
541.578	0.09	1083156	keystroke	r	n/a
541.607	0.106	1083214	keystroke	e	n/a
541.7885	0.1195	1083577	keystroke	a	n/a
542.538	0.015	1085076	keystroke	t	n/a
542.5535	0.1795	1085107	keystroke	i	n/a
542.5975	0.15	1085195	keystroke	o	n/a
542.6575	0.1345	1085315	keystroke	n	n/a
543.303	0.1045	1086606	keystroke	Key.space	n/a
543.588	0.105	1087176	keystroke	v	n/a
543.783	0.1205	1087566	keystroke	e	n/a
543.888	0.045	1087776	keystroke	r	n/a
545.2675	0.165	1090535	keystroke	Key.backspace	n/a
545.3875	0.06	1090775	keystroke	t	n/a
545.6125	0.135	1091225	keystroke	e	n/a
545.7025	0.135	1091405	keystroke	r	n/a
546.063	0.075	1092126	keystroke	a	n/a
546.168	0.105	1092336	keystroke	n	n/a
546.393	0.1045	1092786	keystroke	Key.space	n/a
546.543	0.1045	1093086	keystroke	r	n/a
546.7225	0.1195	1093445	keystroke	a	n/a
547.263	0.09	1094526	keystroke	x	n/a
548.268	0.09	1096536	keystroke	Key.backspace	n/a
548.493	0.09	1096986	keystroke	c	n/a
548.643	0.09	1097286	keystroke	e	n/a
548.838	0.09	1097676	keystroke	s	n/a
550.0375	0.1055	1100075	keystroke	Key.enter	n/a
550.157	9.737	1100314	prompt	n/a	demographic seminars enormous shanghai\n
550.908	0.105	1101816	keystroke	d	n/a
551.103	0.075	1102206	keystroke	e	n/a
551.1625	0.0905	1102325	keystroke	m	n/a
551.298	0.105	1102596	keystroke	o	n/a
551.643	0.0745	1103286	keystroke	g	n/a
551.673	0.1055	1103346	keystroke	r	n/a
551.9875	0.06	1103975	keystroke	p	n/a
552.3625	0.0455	1104725	keystroke	Key.backspace	n/a
552.4675	0.09	1104935	keystroke	a	n/a
552.6625	0.0905	1105325	keystroke	p	n/a
552.978	0.09	1105956	keystroke	h	n/a
553.1875	0.0905	1106375	keystroke	i	n/a
553.323	0.06	1106646	keystroke	c	n/a
553.503	0.0895	1107006	keystroke	Key.space	n/a
554.1475	0.1055	1108295	keystroke	s	n/a
554.343	0.0745	1108686	keystroke	e	n/a
554.4625	0.105	1108925	keystroke	m	n/a
554.6275	0.075	1109255	keystroke	i	n/a
554.7625	0.105	1109525	keystroke	n	n/a
554.883	0.12	1109766	keystroke	a	n/a
555.0175	0.12	1110035	keystroke	r	n/a
555.2125	0.1205	1110425	keystroke	s	n/a
555.603	0.09	1111206	keystroke	Key.space	n/a
556.023	0.0745	1112046	keystroke	e	n/a
556.1275	0.075	1112255	keystroke	n	n/a
556.353	0.0745	1112706	keystroke	o	n/a
556.5175	0.06	1113035	keystroke	r	n/a
556.7875	0.075	1113575	keystroke	m	n/a
556.9375	0.15	1113875	keystroke	o	n/a
557.073	0.0895	1114146	keystroke	u	n/a
557.1475	0.09	1114295	keystroke	s	n/a
557.523	0.0745	1115046	keystroke	Key.space	n/a
557.9425	0.0605	1115885	keystroke	s	n/a
558.048	0.0295	1116096	keystroke	h	n/a
558.1225	0.075	1116245	keystroke	a	n/a
558.2125	0.0905	1116425	keystroke	n	n/a
558.8125	0.076	1117625	keystroke	g	n/a
559.053	0.075	1118106	keystroke	h	n/a
559.1875	0.075	1118375	keystroke	a	n/a
559.2775	0.09	1118555	keystroke	i	n/a
559.7875	0.105	1119575	keystroke	Key.enter	n/a
559.898	5.8765	1119796	prompt	n/a	tools connections greater dense\n
560.6435	0.0895	1121287	keystroke	t	n/a
560.808	0.06	1121616	keystroke	o	n/a
560.928	0.075	1121856	keystroke	o	n/a
561.198	0.015	1122396	keystroke	l	n/a
561.213	0.06	1122426	keystroke	s	n/a
561.318	0.105	1122636	keystroke	Key.space	n/a
561.483	0.105	1122966	keystroke	c	n/a
561.573	0.075	1123146	keystroke	o	n/a
561.708	0.09	1123416	keystroke	n	n/a
561.843	0.075	1123686	keystroke	n	n/a
561.993	0.12	1123986	keystroke	e	n/a
562.143	0.1345	1124286	keystroke	c	n/a
562.398	0.105	1124796	keystroke	t	n/a
562.488	0.15	1124976	keystroke	i	n/a
562.533	0.18	1125066	keystroke	o	n/a
562.593	0.135	1125186	keystroke	n	n/a
562.668	0.075	1125336	keystroke	s	n/a
563.028	0.075	1126056	keystroke	Key.space	n/a
563.523	0.105	1127046	keystroke	g	n/a
563.613	0.09	1127226	keystroke	r	n/a
563.793	0.09	1127586	keystroke	e	n/a
563.973	0.12	1127946	keystroke	a	n/a
564.168	0.09	1128336	keystroke	t	n/a
564.272	0.136	1128544	keystroke	e	n/a
564.378	0.105	1128756	keystroke	r	n/a
564.617	0.091	1129234	keystroke	Key.space	n/a
564.918	0.074	1129836	keystroke	d	n/a
565.053	0.105	1130106	keystroke	e	n/a
565.233	0.075	1130466	keystroke	n	n/a
565.278	0.09	1130556	keystroke	s	n/a
565.458	0.075	1130916	keystroke	e	n/a
565.668	0.105	1131336	keystroke	Key.enter	n/a
565.778	10.587	1131556	prompt	n/a	screenshot acceptance directions referred\n
566.4625	0.06	1132925	keystroke	s	n/a
566.6125	0.1055	1133225	keystroke	c	n/a
566.8375	0.12	1133675	keystroke	r	n/a
566.9425	0.06	1133885	keystroke	e	n/a
567.0775	0.076	1134155	keystroke	e	n/a
567.2725	0.075	1134545	keystroke	n	n/a
567.498	0.0895	1134996	keystroke	s	n/a
567.6025	0.075	1135205	keystroke	h	n/a
567.8125	0.1055	1135625	keystroke	p	n/a
567.9625	0.045	1135925	keystroke	t	n/a
568.3075	0.06	1136615	keystroke	Key.backspace	n/a
568.4575	0.045	1136915	keystroke	Key.backspace	n/a
568.7125	0.105	1137425	keystroke	o	n/a
568.8625	0.0905	1137725	keystroke	t	n/a
569.2525	0.09	1138505	keystroke	Key.space	n/a
569.5375	0.06	1139075	keystroke	s	n/a
569.853	0.089	1139706	keystroke	Key.backspace	n/a
569.9275	0.09	1139855	keystroke	a	n/a
570.197	0.091	1140394	keystroke	c	n/a
570.363	0.06	1140726	keystroke	c	n/a
570.753	0.074	1141506	keystroke	e	n/a
570.872	0.0755	1141744	keystroke	p	n/a
570.992	0.105	1141984	keystroke	t	n/a
571.337	0.0905	1142674	keystroke	a	n/a
571.503	0.0745	1143006	keystroke	n	n/a
571.593	0.149	1143186	keystroke	c	n/a
571.7275	0.09	1143455	keystroke	e	n/a
572.3875	0.075	1144775	keystroke	Key.space	n/a
572.6125	0.105	1145225	keystroke	d	n/a
572.7625	0.09	1145525	keystroke	i	n/a
572.868	0.0895	1145736	keystroke	r	n/a
572.9575	0.09	1145915	keystroke	e	n/a
573.1375	0.105	1146275	keystroke	c	n/a
573.3475	0.09	1146695	keystroke	t	n/a
573.4075	0.195	1146815	keystroke	i	n/a
573.483	0.1045	1146966	keystroke	o	n/a
573.5275	0.1055	1147055	keystroke	n	n/a
573.6175	0.0755	1147235	keystroke	s	n/a
573.7675	0.105	1147535	keystroke	Key.space	n/a
574.2025	0.105	1148405	keystroke	r	n/a
574.2625	0.105	1148525	keystroke	e	n/a
574.458	0.0745	1148916	keystroke	f	n/a
575.2085	0.09	1150417	keystroke	e	n/a
575.4175	0.045	1150835	keystroke	r	n/a
575.5385	0.075	1151077	keystroke	r	n/a
575.7035	0.074	1151407	keystroke	e	n/a
575.8825	0.075	1151765	keystroke	d	n/a
576.243	0.12	1152486	keystroke	Key.enter	n/a
576.3695	10.2855	1152739	prompt	n/a	polymer recreation velocity threatened\n
577.593	0.12	1155186	keystroke	p	n/a
577.818	0.09	1155636	keystroke	o	n/a
578.0135	0.1045	1156027	keystroke	l	n/a
578.373	0.075	1156746	keystroke	y	n/a
578.523	0.09	1157046	keystroke	m	n/a
578.643	0.105	1157286	keystroke	e	n/a
578.718	0.1055	1157436	keystroke	r	n/a
579.6625	0.09	1159325	keystroke	Key.space	n/a
580.5325	0.045	1161065	keystroke	r	n/a
580.5475	0.1055	1161095	keystroke	e	n/a
580.8475	0.105	1161695	keystroke	c	n/a
581.103	0.12	1162206	keystroke	r	n/a
581.1625	0.091	1162325	keystroke	e	n/a
581.5225	0.1055	1163045	keystroke	a	n/a
581.7325	0.105	1163465	keystroke	t	n/a
581.8525	0.1955	1163705	keystroke	i	n/a
581.8825	0.18	1163765	keystroke	o	n/a
581.973	0.1045	1163946	keystroke	n	n/a
582.2725	0.075	1164545	keystroke	Key.space	n/a
582.9925	0.09	1165985	keystroke	v	n/a
583.1575	0.075	1166315	keystroke	e	n/a
583.278	0.045	1166556	keystroke	l	n/a
583.4275	0.0755	1166855	keystroke	o	n/a
583.7575	0.12	1167515	keystroke	c	n/a
583.893	0.0745	1167786	keystroke	i	n/a
584.0125	0.09	1168025	keystroke	t	n/a
584.1775	0.105	1168355	keystroke	y	n/a
584.4775	0.09	1168955	keystroke	Key.space	n/a
584.793	0.0895	1169586	keystroke	t	n/a
584.8975	0.075	1169795	keystroke	h	n/a
584.988	0.0895	1169976	keystroke	r	n/a
585.0625	0.1055	1170125	keystroke	e	n/a
585.2425	0.105	1170485	keystroke	a	n/a
585.453	0.0595	1170906	keystroke	t	n/a
585.8875	0.045	1171775	keystroke	e	n/a
585.963	0.075	1171926	keystroke	n	n/a
586.068	0.09	1172136	keystroke	e	n/a
586.248	0.0755	1172496	keystroke	d	n/a
586.548	0.105	1173096	keystroke	Key.enter	n/a
586.6595	6.61	1173319	prompt	n/a	reforms hills declared lucky\n
587.4625	0.0905	1174925	keystroke	r	n/a
587.5975	0.1055	1175195	keystroke	e	n/a
587.8375	0.0905	1175675	keystroke	f	n/a
587.943	0.1045	1175886	keystroke	o	n/a
588.048	0.0905	1176096	keystroke	r	n/a
588.1825	0.0905	1176365	keystroke	m	n/a
588.288	0.105	1176576	keystroke	s	n/a
588.438	0.105	1176876	keystroke	Key.space	n/a
588.723	0.06	1177446	keystroke	h	n/a
588.888	0.075	1177776	keystroke	i	n/a
589.367	0.076	1178734	keystroke	l	n/a
589.578	0.06	1179156	keystroke	l	n/a
589.803	0.075	1179606	keystroke	s	n/a
590.193	0.0745	1180386	keystroke	Key.space	n/a
590.4635	0.074	1180927	keystroke	d	n/a
590.643	0.105	1181286	keystroke	e	n/a
590.868	0.135	1181736	keystroke	c	n/a
591.1075	0.075	1182215	keystroke	l	n/a
591.258	0.12	1182516	keystroke	a	n/a
591.4225	0.09	1182845	keystroke	r	n/a
591.5875	0.0905	1183175	keystroke	e	n/a
591.753	0.1045	1183506	keystroke	d	n/a
591.873	0.0895	1183746	keystroke	Key.space	n/a
592.217	0.091	1184434	keystroke	l	n/a
592.472	0.0605	1184944	keystroke	u	n/a
592.6075	0.075	1185215	keystroke	c	n/a
592.698	0.105	1185396	keystroke	k	n/a
592.847	0.136	1185694	keystroke	y	n/a
593.162	0.105	1186324	keystroke	Key.enter	n/a
593.276	9.204	1186552	prompt	n/a	honolulu newly hang embassy\n
594.303	0.075	1188606	keystroke	h	n/a
594.4975	0.12	1188995	keystroke	o	n/a
594.603	0.075	1189206	keystroke	n	n/a
594.7075	0.0905	1189415	keystroke	o	n/a
595.308	0.075	1190616	keystroke	l	n/a
595.518	0.0895	1191036	keystroke	u	n/a
595.7275	0.0905	1191455	keystroke	l	n/a
595.9075	0.075	1191815	keystroke	u	n/a
597.573	0.09	1195146	keystroke	Key.space	n/a
597.843	0.06	1195686	keystroke	n	n/a
598.038	0.105	1196076	keystroke	e	n/a
598.098	0.075	1196196	keystroke	w	n/a
598.248	0.075	1196496	keystroke	l	n/a
598.428	0.06	1196856	keystroke	y	n/a
598.548	0.075	1197096	keystroke	Key.space	n/a
598.908	0.09	1197816	keystroke	h	n/a
599.013	0.09	1198026	keystroke	a	n/a
599.148	0.06	1198296	keystroke	n	n/a
599.253	0.06	1198506	keystroke	d	n/a
599.762	0.091	1199524	keystroke	Key.backspace	n/a
599.973	0.015	1199946	keystroke	g	n/a
600.093	0.1045	1200186	keystroke	Key.space	n/a
600.573	0.09	1201146	keystroke	e	n/a
600.708	0.059	1201416	keystroke	m	n/a
600.888	0.075	1201776	keystroke	b	n/a
601.068	0.09	1202136	keystroke	a	n/a
601.247	0.046	1202494	keystroke	s	n/a
601.368	0.105	1202736	keystroke	s	n/a
601.727	0.076	1203454	keystroke	y	n/a
602.373	0.105	1204746	keystroke	Key.enter	n/a
602.484	7.3755	1204968	prompt	n/a	snapshot personals scratch arrived\n
603.303	0.09	1206606	keystroke	s	n/a
603.378	0.0895	1206756	keystroke	n	n/a
603.543	0.0295	1207086	keystroke	a	n/a
603.618	0.089	1207236	keystroke	p	n/a
603.903	0.0745	1207806	keystroke	s	n/a
603.992	0.061	1207984	keystroke	h	n/a
604.1735	0.09	1208347	keystroke	o	n/a
604.278	0.075	1208556	keystroke	t	n/a
604.458	0.075	1208916	keystroke	Key.space	n/a
604.938	0.105	1209876	keystroke	p	n/a
605.0875	0.12	1210175	keystroke	e	n/a
605.163	0.1045	1210326	keystroke	r	n/a
605.703	0.0595	1211406	keystroke	s	n/a
605.748	0.12	1211496	keystroke	o	n/a
605.8075	0.09	1211615	keystroke	n	n/a
605.913	0.0745	1211826	keystroke	a	n/a
606.0175	0.12	1212035	keystroke	l	n/a
606.1225	0.0905	1212245	keystroke	s	n/a
606.258	0.1045	1212516	keystroke	Key.space	n/a
606.723	0.09	1213446	keystroke	s	n/a
606.918	0.135	1213836	keystroke	c	n/a
607.188	0.105	1214376	keystroke	r	n/a
607.413	0.09	1214826	keystroke	a	n/a
607.593	0.045	1215186	keystroke	t	n/a
608.133	0.075	1216266	keystroke	c	n/a
608.223	0.074	1216446	keystroke	h	n/a
608.5975	0.0905	1217195	keystroke	Key.space	n/a
608.7925	0.09	1217585	keystroke	a	n/a
608.9575	0.06	1217915	keystroke	r	n/a
609.078	0.089	1218156	keystroke	r	n/a
609.2125	0.09	1218425	keystroke	i	n/a
609.3175	0.09	1218635	keystroke	v	n/a
609.4825	0.0605	1218965	keystroke	e	n/a
609.618	0.0895	1219236	keystroke	d	n/a
609.7525	0.105	1219505	keystroke	Key.enter	n/a
609.864	10.0155	1219728	prompt	n/a	explicitly quantity pack concerning\n
610.743	0.03	1221486	keystroke	e	n/a
610.953	0.105	1221906	keystroke	x	n/a
611.1035	0.1345	1222207	keystroke	p	n/a
611.193	0.075	1222386	keystroke	l	n/a
611.387	0.106	1222774	keystroke	i	n/a
611.477	0.076	1222954	keystroke	c	n/a
611.597	0.09	1223194	keystroke	i	n/a
611.913	0.075	1223826	keystroke	t	n/a
612.978	0.105	1225956	keystroke	l	n/a
613.068	0.075	1226136	keystroke	y	n/a
613.803	0.075	1227606	keystroke	Key.space	n/a
614.418	0.075	1228836	keystroke	q	n/a
614.508	0.0745	1229016	keystroke	u	n/a
614.643	0.0745	1229286	keystroke	a	n/a
614.7325	0.09	1229465	keystroke	n	n/a
615.453	0.0745	1230906	keystroke	t	n/a
615.5125	0.1055	1231025	keystroke	i	n/a
615.648	0.1195	1231296	keystroke	t	n/a
616.023	0.075	1232046	keystroke	y	n/a
616.2925	0.105	1232585	keystroke	Key.space	n/a
616.7575	0.09	1233515	keystroke	p	n/a
616.9075	0.12	1233815	keystroke	a	n/a
617.148	0.1045	1234296	keystroke	c	n/a
617.267	0.061	1234534	keystroke	k	n/a
617.9585	0.1045	1235917	keystroke	Key.space	n/a
618.3325	0.15	1236665	keystroke	c	n/a
618.423	0.1345	1236846	keystroke	o	n/a
618.543	0.0745	1237086	keystroke	n	n/a
618.663	0.0895	1237326	keystroke	c	n/a
618.8125	0.09	1237625	keystroke	e	n/a
618.8875	0.075	1237775	keystroke	r	n/a
618.9635	0.0745	1237927	keystroke	n	n/a
619.0975	0.15	1238195	keystroke	i	n/a
619.188	0.0895	1238376	keystroke	n	n/a
619.2325	0.0905	1238465	keystroke	g	n/a
619.7875	0.09	1239575	keystroke	Key.enter	n/a
619.8845	10.3155	1239769	prompt	n/a	librarian everything summaries provincial\n
620.5525	0.09	1241105	keystroke	l	n/a
620.7175	0.09	1241435	keystroke	i	n/a
621.093	0.0745	1242186	keystroke	b	n/a
621.498	0.1195	1242996	keystroke	r	n/a
621.5875	0.075	1243175	keystroke	e	n/a
622.0975	0.12	1244195	keystroke	Key.backspace	n/a
622.2025	0.075	1244405	keystroke	a	n/a
622.6525	0.0905	1245305	keystroke	r	n/a
623.0425	0.105	1246085	keystroke	i	n/a
623.1775	0.075	1246355	keystroke	a	n/a
623.2675	0.09	1246535	keystroke	n	n/a
623.8675	0.075	1247735	keystroke	Key.space	n/a
624.0475	0.09	1248095	keystroke	e	n/a
624.2275	0.12	1248455	keystroke	v	n/a
624.4075	0.1355	1248815	keystroke	e	n/a
624.4975	0.075	1248995	keystroke	r	n/a
624.6775	0.06	1249355	keystroke	y	n/a
624.8275	0.0905	1249655	keystroke	t	n/a
624.9025	0.0905	1249805	keystroke	h	n/a
624.9475	0.15	1249895	keystroke	i	n/a
625.0525	0.09	1250105	keystroke	n	n/a
625.173	0.0895	1250346	keystroke	g	n/a
625.7725	0.12	1251545	keystroke	Key.space	n/a
625.9225	0.0905	1251845	keystroke	s	n/a
625.998	0.0745	1251996	keystroke	u	n/a
626.193	0.0595	1252386	keystroke	m	n/a
626.3125	0.12	1252625	keystroke	m	n/a
626.4475	0.0755	1252895	keystroke	a	n/a
626.598	0.0595	1253196	keystroke	r	n/a
626.7025	0.09	1253405	keystroke	i	n/a
626.9275	0.106	1253855	keystroke	e	n/a
627.1225	0.09	1254245	keystroke	s	n/a
627.2725	0.09	1254545	keystroke	Key.space	n/a
628.427	0.105	1256854	keystroke	p	n/a
628.562	0.09	1257124	keystroke	r	n/a
628.727	0.09	1257454	keystroke	o	n/a
629.0125	0.06	1258025	keystroke	v	n/a
629.117	0.121	1258234	keystroke	i	n/a
629.192	0.075	1258384	keystroke	n	n/a
629.342	0.1355	1258684	keystroke	c	n/a
629.432	0.0905	1258864	keystroke	i	n/a
629.537	0.121	1259074	keystroke	a	n/a
629.673	0.09	1259346	keystroke	l	n/a
630.1075	0.09	1260215	keystroke	Key.enter	n/a
630.2045	6.325	1260409	prompt	n/a	streams studying char hospital\n
630.917	0.076	1261834	keystroke	s	n/a
631.112	0.106	1262224	keystroke	t	n/a
631.173	0.09	1262346	keystroke	r	n/a
631.367	0.091	1262734	keystroke	e	n/a
631.577	0.061	1263154	keystroke	a	n/a
