onset	duration	sample	value	key	prompt_text
5.638	10.22	11276	prompt	n/a	the quick brown fox jumps over a lazy dog\n
9.014	0.121	18028	keystroke	t	n/a
9.584	0.075	19168	keystroke	h	n/a
9.749	0.075	19498	keystroke	e	n/a
9.899	0.105	19798	keystroke	Key.space	n/a
10.019	0.135	20038	keystroke	q	n/a
10.184	0.076	20368	keystroke	u	n/a
10.4095	0.075	20819	keystroke	i	n/a
10.53	0.105	21060	keystroke	c	n/a
10.68	0.1045	21360	keystroke	k	n/a
10.7695	0.1045	21539	keystroke	Key.space	n/a
10.965	0.0745	21930	keystroke	b	n/a
11.1745	0.075	22349	keystroke	r	n/a
11.2645	0.105	22529	keystroke	o	n/a
11.3855	0.104	22771	keystroke	w	n/a
11.5045	0.105	23009	keystroke	n	n/a
11.5945	0.09	23189	keystroke	Key.space	n/a
11.7295	0.075	23459	keystroke	f	n/a
11.8645	0.105	23729	keystroke	o	n/a
12.0455	0.104	24091	keystroke	x	n/a
12.2255	0.104	24451	keystroke	Key.space	n/a
12.495	0.06	24990	keystroke	j	n/a
12.735	0.03	25470	keystroke	u	n/a
13.035	0.15	26070	keystroke	m	n/a
13.17	0.105	26340	keystroke	p	n/a
13.35	0.105	26700	keystroke	s	n/a
13.4095	0.121	26819	keystroke	Key.space	n/a
13.6655	0.1045	27331	keystroke	o	n/a
13.755	0.06	27510	keystroke	v	n/a
13.905	0.119	27810	keystroke	e	n/a
13.965	0.1495	27930	keystroke	r	n/a
14.0845	0.135	28169	keystroke	Key.space	n/a
14.2045	0.166	28409	keystroke	a	n/a
14.3395	0.09	28679	keystroke	Key.space	n/a
14.5195	0.12	29039	keystroke	l	n/a
14.6555	0.09	29311	keystroke	a	n/a
14.8805	0.1045	29761	keystroke	z	n/a
15.015	0.09	30030	keystroke	y	n/a
15.1645	0.0905	30329	keystroke	Key.space	n/a
15.315	0.09	30630	keystroke	d	n/a
15.45	0.1045	30900	keystroke	o	n/a
15.5995	0.076	31199	keystroke	g	n/a
15.7795	0.075	31559	keystroke	Key.enter	n/a
15.8625	6.9845	31725	prompt	n/a	have arabia judicial chelsea\n
16.59	0.06	33180	keystroke	h	n/a
16.665	0.15	33330	keystroke	a	n/a
16.785	0.075	33570	keystroke	v	n/a
16.905	0.12	33810	keystroke	e	n/a
17.01	0.075	34020	keystroke	Key.space	n/a
17.1	0.15	34200	keystroke	a	n/a
17.4	0.075	34800	keystroke	a	n/a
18.1195	0.12	36239	keystroke	Key.backspace	n/a
18.4195	0.076	36839	keystroke	r	n/a
18.6145	0.12	37229	keystroke	a	n/a
18.855	0.075	37710	keystroke	b	n/a
19.02	0.075	38040	keystroke	i	n/a
19.155	0.105	38310	keystroke	a	n/a
19.335	0.075	38670	keystroke	Key.space	n/a
19.606	0.074	39212	keystroke	j	n/a
19.8145	0.076	39629	keystroke	u	n/a
19.9195	0.09	39839	keystroke	d	n/a
20.0855	0.074	40171	keystroke	i	n/a
20.2345	0.075	40469	keystroke	c	n/a
20.3245	0.09	40649	keystroke	i	n/a
20.4595	0.105	40919	keystroke	a	n/a
20.6245	0.106	41249	keystroke	l	n/a
21.1645	0.105	42329	keystroke	Key.space	n/a
21.5245	0.075	43049	keystroke	c	n/a
21.6445	0.075	43289	keystroke	h	n/a
21.7645	0.06	43529	keystroke	e	n/a
21.9305	0.1055	43861	keystroke	l	n/a
22.065	0.09	44130	keystroke	s	n/a
22.29	0.075	44580	keystroke	e	n/a
22.455	0.12	44910	keystroke	a	n/a
22.7555	0.09	45511	keystroke	Key.enter	n/a
22.8595	7.9825	45719	prompt	n/a	how're lovers libs overall\n
23.475	0.105	46950	keystroke	h	n/a
23.655	0.105	47310	keystroke	o	n/a
23.79	0.06	47580	keystroke	w	n/a
24.39	0.075	48780	keystroke	'	n/a
24.63	0.105	49260	keystroke	r	n/a
24.69	0.105	49380	keystroke	e	n/a
25.14	0.09	50280	keystroke	Key.space	n/a
25.365	0.075	50730	keystroke	l	n/a
25.575	0.06	51150	keystroke	o	n/a
25.65	0.075	51300	keystroke	v	n/a
25.8	0.255	51600	keystroke	e	n/a
25.89	0.15	51780	keystroke	r	n/a
26.01	0.12	52020	keystroke	s	n/a
26.145	0.09	52290	keystroke	Key.space	n/a
26.31	0.165	52620	keystroke	l	n/a
26.46	0.09	52920	keystroke	i	n/a
26.58	0.075	53160	keystroke	b	n/a
26.775	0.09	53550	keystroke	s	n/a
26.925	0.06	53850	keystroke	Key.space	n/a
27.1195	0.091	54239	keystroke	o	n/a
27.375	0.165	54750	keystroke	e	n/a
27.495	0.12	54990	keystroke	r	n/a
27.63	0.09	55260	keystroke	a	n/a
27.72	0.105	55440	keystroke	l	n/a
28.3195	0.075	56639	keystroke	Key.backspace	n/a
28.4845	0.075	56969	keystroke	Key.backspace	n/a
28.6345	0.061	57269	keystroke	Key.backspace	n/a
28.7705	0.075	57541	keystroke	Key.backspace	n/a
28.9805	0.06	57961	keystroke	v	n/a
29.1605	0.135	58321	keystroke	e	n/a
29.2355	0.105	58471	keystroke	r	n/a
29.3705	0.105	58741	keystroke	a	n/a
29.4905	0.09	58981	keystroke	l	n/a
29.6855	0.0895	59371	keystroke	l	n/a
30.7645	0.075	61529	keystroke	Key.enter	n/a
30.845	5.5775	61690	prompt	n/a	navy bless stake permission\n
31.4555	0.1045	62911	keystroke	n	n/a
31.59	0.15	63180	keystroke	a	n/a
31.755	0.09	63510	keystroke	v	n/a
31.98	0.0905	63960	keystroke	y	n/a
32.1155	0.0895	64231	keystroke	Key.space	n/a
32.34	0.075	64680	keystroke	b	n/a
32.49	0.105	64980	keystroke	l	n/a
32.61	0.12	65220	keystroke	e	n/a
32.715	0.09	65430	keystroke	s	n/a
32.925	0.105	65850	keystroke	s	n/a
33.045	0.105	66090	keystroke	Key.space	n/a
33.256	0.134	66512	keystroke	s	n/a
33.405	0.105	66810	keystroke	t	n/a
33.78	0.135	67560	keystroke	a	n/a
33.96	0.0895	67920	keystroke	k	n/a
34.0955	0.1045	68191	keystroke	e	n/a
34.26	0.105	68520	keystroke	Key.space	n/a
34.756	0.0745	69512	keystroke	p	n/a
34.8145	0.166	69629	keystroke	e	n/a
34.9055	0.104	69811	keystroke	r	n/a
35.0695	0.151	70139	keystroke	m	n/a
35.1905	0.089	70381	keystroke	i	n/a
35.3395	0.091	70679	keystroke	s	n/a
35.5055	0.119	71011	keystroke	s	n/a
35.61	0.2095	71220	keystroke	i	n/a
35.6995	0.15	71399	keystroke	o	n/a
35.8045	0.12	71609	keystroke	n	n/a
36.346	0.0735	72692	keystroke	Key.enter	n/a
36.4285	7.0435	72857	prompt	n/a	albany shipment bucks essentially\n
36.9905	0.1495	73981	keystroke	a	n/a
37.185	0.12	74370	keystroke	l	n/a
37.335	0.075	74670	keystroke	b	n/a
37.5	0.12	75000	keystroke	a	n/a
37.605	0.105	75210	keystroke	n	n/a
38.04	0.076	76080	keystroke	y	n/a
38.3105	0.1195	76621	keystroke	Key.space	n/a
38.505	0.09	77010	keystroke	s	n/a
38.625	0.09	77250	keystroke	h	n/a
38.805	0.15	77610	keystroke	i	n/a
38.94	0.105	77880	keystroke	p	n/a
39.195	0.12	78390	keystroke	m	n/a
39.345	0.09	78690	keystroke	e	n/a
39.48	0.075	78960	keystroke	n	n/a
39.6	0.09	79200	keystroke	t	n/a
40.065	0.09	80130	keystroke	Key.space	n/a
40.3955	0.0745	80791	keystroke	b	n/a
40.56	0.075	81120	keystroke	u	n/a
40.71	0.075	81420	keystroke	c	n/a
40.845	0.075	81690	keystroke	k	n/a
40.9645	0.09	81929	keystroke	s	n/a
41.0695	0.106	82139	keystroke	Key.space	n/a
41.296	0.104	82592	keystroke	e	n/a
41.565	0.045	83130	keystroke	s	n/a
41.73	0.075	83460	keystroke	s	n/a
41.895	0.09	83790	keystroke	e	n/a
42.045	0.09	84090	keystroke	n	n/a
42.165	0.075	84330	keystroke	t	n/a
42.3	0.075	84600	keystroke	i	n/a
42.42	0.105	84840	keystroke	a	n/a
42.555	0.075	85110	keystroke	l	n/a
42.735	0.09	85470	keystroke	l	n/a
42.96	0.09	85920	keystroke	y	n/a
43.38	0.09	86760	keystroke	Key.enter	n/a
43.475	8.352	86950	prompt	n/a	qualities memorial independence emotional\n
44.22	0.075	88440	keystroke	q	n/a
44.355	0.075	88710	keystroke	u	n/a
44.475	0.105	88950	keystroke	a	n/a
44.655	0.09	89310	keystroke	l	n/a
44.715	0.0895	89430	keystroke	i	n/a
44.9245	0.075	89849	keystroke	t	n/a
45.0305	0.06	90061	keystroke	i	n/a
45.1355	0.15	90271	keystroke	e	n/a
45.2405	0.135	90481	keystroke	s	n/a
45.3905	0.09	90781	keystroke	Key.space	n/a
45.7205	0.105	91441	keystroke	m	n/a
45.8705	0.045	91741	keystroke	e	n/a
45.9905	0.119	91981	keystroke	m	n/a
46.1705	0.09	92341	keystroke	o	n/a
46.3505	0.075	92701	keystroke	r	n/a
46.59	0.09	93180	keystroke	i	n/a
46.74	0.105	93480	keystroke	a	n/a
46.905	0.12	93810	keystroke	l	n/a
47.295	0.105	94590	keystroke	Key.space	n/a
47.9405	0.075	95881	keystroke	i	n/a
48.12	0.1055	96240	keystroke	n	n/a
48.2705	0.06	96541	keystroke	d	n/a
48.4805	0.075	96961	keystroke	e	n/a
48.6305	0.105	97261	keystroke	p	n/a
48.7805	0.075	97561	keystroke	e	n/a
48.8705	0.12	97741	keystroke	n	n/a
49.0505	0.075	98101	keystroke	d	n/a
49.2905	0.06	98581	keystroke	e	n/a
49.3655	0.105	98731	keystroke	n	n/a
49.5455	0.075	99091	keystroke	c	n/a
49.7855	0.0895	99571	keystroke	e	n/a
50.175	0.09	100350	keystroke	Key.space	n/a
50.445	0.06	100890	keystroke	e	n/a
50.565	0.09	101130	keystroke	m	n/a
50.745	0.075	101490	keystroke	o	n/a
50.865	0.075	101730	keystroke	t	n/a
50.985	0.225	101970	keystroke	i	n/a
51.105	0.12	102210	keystroke	o	n/a
51.195	0.09	102390	keystroke	n	n/a
51.27	0.12	102540	keystroke	a	n/a
51.435	0.1045	102870	keystroke	l	n/a
51.735	0.09	103470	keystroke	Key.enter	n/a
51.8315	8.141	103663	prompt	n/a	excellent fuji plus prevention\n
52.5605	0.075	105121	keystroke	e	n/a
52.8155	0.09	105631	keystroke	x	n/a
53.0405	0.06	106081	keystroke	c	n/a
53.2355	0.06	106471	keystroke	e	n/a
53.3405	0.075	106681	keystroke	l	n/a
53.4905	0.09	106981	keystroke	l	n/a
53.5955	0.09	107191	keystroke	e	n/a
53.7005	0.09	107401	keystroke	n	n/a
53.8355	0.09	107671	keystroke	t	n/a
53.9705	0.0745	107941	keystroke	Key.space	n/a
54.27	0.105	108540	keystroke	j	n/a
54.81	0.0605	109620	keystroke	Key.backspace	n/a
54.9305	0.09	109861	keystroke	f	n/a
55.0955	0.105	110191	keystroke	u	n/a
55.6655	0.105	111331	keystroke	j	n/a
55.8605	0.075	111721	keystroke	i	n/a
56.1905	0.09	112381	keystroke	Key.space	n/a
56.5955	0.105	113191	keystroke	p	n/a
56.7755	0.12	113551	keystroke	l	n/a
56.9705	0.06	113941	keystroke	u	n/a
57.1955	0.105	114391	keystroke	s	n/a
57.2855	0.135	114571	keystroke	Key.space	n/a
58.065	0.075	116130	keystroke	p	n/a
58.17	0.12	116340	keystroke	r	n/a
58.26	0.1055	116520	keystroke	e	n/a
58.5155	0.075	117031	keystroke	v	n/a
58.6205	0.105	117241	keystroke	e	n/a
58.7855	0.09	117571	keystroke	n	n/a
58.8905	0.09	117781	keystroke	t	n/a
59.0555	0.135	118111	keystroke	i	n/a
59.1455	0.135	118291	keystroke	o	n/a
59.2355	0.12	118471	keystroke	n	n/a
59.91	0.06	119820	keystroke	Key.enter	n/a
59.9795	8.917	119959	prompt	n/a	seafood quotations human responded\n
60.54	0.135	121080	keystroke	s	n/a
60.705	0.075	121410	keystroke	e	n/a
60.87	0.151	121740	keystroke	a	n/a
61.035	0.09	122070	keystroke	f	n/a
61.275	0.075	122550	keystroke	o	n/a
61.44	0.075	122880	keystroke	o	n/a
61.56	0.1055	123120	keystroke	d	n/a
61.6955	0.1045	123391	keystroke	Key.space	n/a
62.625	0.06	125250	keystroke	q	n/a
62.8645	0.09	125729	keystroke	u	n/a
63.5105	0.1045	127021	keystroke	o	n/a
63.705	0.075	127410	keystroke	t	n/a
63.855	0.195	127710	keystroke	a	n/a
64.02	0.105	128040	keystroke	t	n/a
64.14	0.195	128280	keystroke	i	n/a
64.245	0.12	128490	keystroke	o	n/a
64.35	0.105	128700	keystroke	n	n/a
64.575	0.105	129150	keystroke	s	n/a
64.785	0.0895	129570	keystroke	Key.space	n/a
65.2355	0.074	130471	keystroke	h	n/a
65.3995	0.076	130799	keystroke	u	n/a
65.6245	0.09	131249	keystroke	m	n/a
65.7445	0.12	131489	keystroke	a	n/a
65.8505	0.074	131701	keystroke	n	n/a
65.9545	0.1205	131909	keystroke	Key.space	n/a
66.195	0.12	132390	keystroke	r	n/a
66.225	0.15	132450	keystroke	e	n/a
66.33	0.12	132660	keystroke	s	n/a
66.465	0.09	132930	keystroke	p	n/a
66.54	0.165	133080	keystroke	o	n/a
66.66	0.15	133320	keystroke	n	n/a
66.93	0.09	133860	keystroke	d	n/a
67.185	0.06	134370	keystroke	e	n/a
67.381	0.059	134762	keystroke	d	n/a
67.575	0.03	135150	keystroke	e	n/a
68.37	0.06	136740	keystroke	Key.backspace	n/a
68.8355	0.06	137671	keystroke	Key.enter	n/a
68.8995	5.8475	137799	prompt	n/a	conference anything hugh frame\n
69.72	0.045	139440	keystroke	c	n/a
69.75	0.03	139500	keystroke	o	n/a
69.795	0.015	139590	keystroke	n	n/a
69.825	0.0605	139650	keystroke	f	n/a
69.9155	0.135	139831	keystroke	e	n/a
70.0355	0.09	140071	keystroke	r	n/a
70.095	0.1205	140190	keystroke	e	n/a
70.2305	0.0595	140461	keystroke	n	n/a
70.365	0.075	140730	keystroke	c	n/a
70.5605	0.075	141121	keystroke	e	n/a
70.6805	0.105	141361	keystroke	Key.space	n/a
70.8	0.1205	141600	keystroke	a	n/a
70.9055	0.075	141811	keystroke	n	n/a
71.1455	0.0745	142291	keystroke	y	n/a
71.2805	0.09	142561	keystroke	t	n/a
71.385	0.105	142770	keystroke	h	n/a
71.4755	0.1345	142951	keystroke	i	n/a
71.595	0.12	143190	keystroke	n	n/a
71.67	0.15	143340	keystroke	g	n/a
71.745	0.15	143490	keystroke	Key.space	n/a
71.97	0.105	143940	keystroke	h	n/a
72.18	0.075	144360	keystroke	u	n/a
72.3745	0.09	144749	keystroke	g	n/a
72.4955	0.089	144991	keystroke	h	n/a
72.6445	0.121	145289	keystroke	Key.space	n/a
72.8845	0.076	145769	keystroke	f	n/a
73.0645	0.091	146129	keystroke	r	n/a
73.1695	0.12	146339	keystroke	a	n/a
73.3355	0.09	146671	keystroke	m	n/a
74.2195	0.076	148439	keystroke	e	n/a
74.6545	0.09	149309	keystroke	Key.enter	n/a
74.7505	7.1065	149501	prompt	n/a	novels composer girls basketball\n
75.4795	0.0905	150959	keystroke	h	n/a
76.0805	0.075	152161	keystroke	Key.backspace	n/a
76.3355	0.12	152671	keystroke	n	n/a
76.56	0.12	153120	keystroke	o	n/a
76.725	0.075	153450	keystroke	v	n/a
76.875	0.105	153750	keystroke	e	n/a
76.995	0.135	153990	keystroke	l	n/a
77.175	0.105	154350	keystroke	s	n/a
77.295	0.105	154590	keystroke	Key.space	n/a
77.535	0.0895	155070	keystroke	c	n/a
77.6255	0.2095	155251	keystroke	o	n/a
77.76	0.1645	155520	keystroke	m	n/a
77.9095	0.105	155819	keystroke	p	n/a
78.045	0.1205	156090	keystroke	o	n/a
78.1955	0.1195	156391	keystroke	s	n/a
78.405	0.165	156810	keystroke	e	n/a
78.57	0.1355	157140	keystroke	r	n/a
78.7355	0.09	157471	keystroke	Key.space	n/a
78.9455	0.059	157891	keystroke	g	n/a
79.0805	0.075	158161	keystroke	i	n/a
79.1695	0.105	158339	keystroke	r	n/a
79.3505	0.104	158701	keystroke	l	n/a
79.4695	0.0905	158939	keystroke	s	n/a
79.575	0.12	159150	keystroke	Key.space	n/a
79.9645	0.09	159929	keystroke	b	n/a
80.1145	0.1655	160229	keystroke	a	n/a
80.25	0.105	160500	keystroke	s	n/a
80.385	0.09	160770	keystroke	k	n/a
80.505	0.165	161010	keystroke	e	n/a
80.7	0.09	161400	keystroke	t	n/a
80.955	0.075	161910	keystroke	b	n/a
81.105	0.12	162210	keystroke	a	n/a
81.24	0.09	162480	keystroke	l	n/a
81.435	0.075	162870	keystroke	l	n/a
81.78	0.0755	163560	keystroke	Key.enter	n/a
81.8605	7.0165	163721	prompt	n/a	commander muslims glad citations\n
82.53	0.09	165060	keystroke	c	n/a
82.605	0.12	165210	keystroke	o	n/a
82.71	0.09	165420	keystroke	m	n/a
82.905	0.075	165810	keystroke	m	n/a
83.01	0.12	166020	keystroke	a	n/a
83.13	0.0745	166260	keystroke	n	n/a
83.2345	0.075	166469	keystroke	d	n/a
83.4145	0.136	166829	keystroke	e	n/a
83.5645	0.15	167129	keystroke	r	n/a
83.6995	0.075	167399	keystroke	Key.space	n/a
83.8795	0.105	167759	keystroke	m	n/a
84.1645	0.046	168329	keystroke	u	n/a
84.2395	0.09	168479	keystroke	s	n/a
84.4045	0.1805	168809	keystroke	l	n/a
84.5245	0.1055	169049	keystroke	i	n/a
84.87	0.105	169740	keystroke	m	n/a
85.125	0.075	170250	keystroke	s	n/a
85.335	0.09	170670	keystroke	Key.space	n/a
85.65	0.075	171300	keystroke	g	n/a
86.22	0.09	172440	keystroke	l	n/a
86.37	0.075	172740	keystroke	a	n/a
86.865	0.09	173730	keystroke	d	n/a
87.015	0.105	174030	keystroke	Key.space	n/a
87.345	0.06	174690	keystroke	c	n/a
87.54	0.075	175080	keystroke	i	n/a
87.66	0.075	175320	keystroke	t	n/a
87.78	0.18	175560	keystroke	a	n/a
87.915	0.09	175830	keystroke	t	n/a
88.02	0.195	176040	keystroke	i	n/a
88.11	0.12	176220	keystroke	o	n/a
88.2	0.1205	176400	keystroke	n	n/a
88.3795	0.106	176759	keystroke	s	n/a
88.7695	0.105	177539	keystroke	Key.enter	n/a
88.8805	8.981	177761	prompt	n/a	invited cellular strand hdtv\n
89.5355	0.044	179071	keystroke	i	n/a
89.5805	0.089	179161	keystroke	n	n/a
89.7145	0.075	179429	keystroke	v	n/a
89.835	0.075	179670	keystroke	i	n/a
89.97	0.0745	179940	keystroke	t	n/a
90.0595	0.105	180119	keystroke	e	n/a
90.2995	0.09	180599	keystroke	d	n/a
90.4345	0.09	180869	keystroke	Key.space	n/a
90.6895	0.06	181379	keystroke	c	n/a
90.8695	0.075	181739	keystroke	e	n/a
90.9895	0.075	181979	keystroke	l	n/a
91.1695	0.105	182339	keystroke	l	n/a
91.4245	0.06	182849	keystroke	u	n/a
91.725	0.09	183450	keystroke	l	n/a
91.86	0.15	183720	keystroke	a	n/a
91.98	0.09	183960	keystroke	r	n/a
92.13	0.09	184260	keystroke	Key.space	n/a
92.31	0.09	184620	keystroke	s	n/a
92.46	0.075	184920	keystroke	t	n/a
92.64	0.105	185280	keystroke	r	n/a
92.745	0.1495	185490	keystroke	a	n/a
92.9105	0.074	185821	keystroke	n	n/a
93.195	0.09	186390	keystroke	d	n/a
93.344	0.121	186688	keystroke	Key.space	n/a
93.81	0.075	187620	keystroke	d	n/a
95.01	0.06	190020	keystroke	Key.backspace	n/a
95.22	0.09	190440	keystroke	h	n/a
95.535	0.09	191070	keystroke	d	n/a
95.94	0.0895	191880	keystroke	t	n/a
96.435	0.075	192870	keystroke	v	n/a
97.7695	0.09	195539	keystroke	Key.enter	n/a
97.864	6.6275	195728	prompt	n/a	descending fight gamma cross\n
98.49	0.03	196980	keystroke	s	n/a
98.521	0.179	197042	keystroke	d	n/a
99.12	0.06	198240	keystroke	Key.backspace	n/a
99.255	0.09	198510	keystroke	Key.backspace	n/a
99.36	0.075	198720	keystroke	d	n/a
99.5545	0.075	199109	keystroke	e	n/a
99.69	0.105	199380	keystroke	s	n/a
99.93	0.075	199860	keystroke	c	n/a
100.125	0.075	200250	keystroke	e	n/a
100.7695	0.105	201539	keystroke	n	n/a
100.95	0.075	201900	keystroke	d	n/a
101.07	0.104	202140	keystroke	i	n/a
101.159	0.105	202318	keystroke	n	n/a
101.279	0.136	202558	keystroke	g	n/a
101.384	0.121	202768	keystroke	Key.space	n/a
101.579	0.1055	203158	keystroke	f	n/a
101.6995	0.09	203399	keystroke	i	n/a
101.8345	0.075	203669	keystroke	g	n/a
101.9245	0.09	203849	keystroke	h	n/a
102.044	0.09	204088	keystroke	t	n/a
102.15	0.074	204300	keystroke	Key.space	n/a
102.3445	0.09	204689	keystroke	g	n/a
102.5545	0.105	205109	keystroke	a	n/a
102.7045	0.045	205409	keystroke	m	n/a
102.8545	0.09	205709	keystroke	m	n/a
103.0195	0.1195	206039	keystroke	a	n/a
103.124	0.075	206248	keystroke	Key.space	n/a
103.334	0.075	206668	keystroke	c	n/a
103.544	0.075	207088	keystroke	r	n/a
103.649	0.0755	207298	keystroke	o	n/a
103.8295	0.06	207659	keystroke	s	n/a
103.9945	0.06	207989	keystroke	s	n/a
104.3845	0.105	208769	keystroke	Key.enter	n/a
104.4955	10.5255	208991	prompt	n/a	portraits patients blanket progressive\n
105.1345	0.09	210269	keystroke	p	n/a
105.3595	0.105	210719	keystroke	o	n/a
105.4795	0.06	210959	keystroke	r	n/a
105.6595	0.075	211319	keystroke	t	n/a
105.8545	0.165	211709	keystroke	r	n/a
106.4545	0.15	212909	keystroke	a	n/a
106.6195	0.09	213239	keystroke	i	n/a
106.9945	0.09	213989	keystroke	t	n/a
107.2495	0.12	214499	keystroke	s	n/a
107.3845	0.105	214769	keystroke	Key.space	n/a
107.6545	0.105	215309	keystroke	p	n/a
107.8045	0.15	215609	keystroke	a	n/a
107.9695	0.1055	215939	keystroke	t	n/a
108.09	0.09	216180	keystroke	i	n/a
108.195	0.105	216390	keystroke	e	n/a
108.33	0.105	216660	keystroke	n	n/a
108.42	0.105	216840	keystroke	t	n/a
108.66	0.12	217320	keystroke	s	n/a
109.08	0.0895	218160	keystroke	Key.space	n/a
109.3045	0.06	218609	keystroke	b	n/a
109.4095	0.09	218819	keystroke	l	n/a
109.5295	0.12	219059	keystroke	a	n/a
109.6645	0.09	219329	keystroke	n	n/a
109.92	0.105	219840	keystroke	k	n/a
110.145	0.15	220290	keystroke	e	n/a
110.31	0.105	220620	keystroke	t	n/a
110.4745	0.105	220949	keystroke	Key.space	n/a
110.9095	0.075	221819	keystroke	p	n/a
111.0145	0.075	222029	keystroke	r	n/a
111.1045	0.105	222209	keystroke	o	n/a
111.2545	0.09	222509	keystroke	f	n/a
111.8545	0.06	223709	keystroke	e	n/a
112.365	0.075	224730	keystroke	Key.backspace	n/a
112.53	0.045	225060	keystroke	Key.backspace	n/a
112.635	0.075	225270	keystroke	g	n/a
112.89	0.12	225780	keystroke	e	n/a
113.4745	0.075	226949	keystroke	Key.backspace	n/a
113.5795	0.15	227159	keystroke	r	n/a
113.6545	0.15	227309	keystroke	e	n/a
113.7595	0.105	227519	keystroke	s	n/a
113.9545	0.075	227909	keystroke	s	n/a
114.1645	0.105	228329	keystroke	i	n/a
114.3145	0.075	228629	keystroke	v	n/a
114.4495	0.075	228899	keystroke	e	n/a
114.944	0.075	229888	keystroke	Key.enter	n/a
115.025	7.6505	230050	prompt	n/a	liable italic prayers directories\n
115.605	0.09	231210	keystroke	l	n/a
115.815	0.075	231630	keystroke	i	n/a
115.905	0.165	231810	keystroke	a	n/a
116.085	0.075	232170	keystroke	b	n/a
116.19	0.105	232380	keystroke	l	n/a
116.325	0.105	232650	keystroke	e	n/a
116.445	0.105	232890	keystroke	Key.space	n/a
116.67	0.09	233340	keystroke	i	n/a
116.925	0.075	233850	keystroke	t	n/a
117.105	0.105	234210	keystroke	a	n/a
117.329	0.21	234658	keystroke	l	n/a
117.524	0.075	235048	keystroke	i	n/a
117.794	0.076	235588	keystroke	c	n/a
117.989	0.0905	235978	keystroke	Key.space	n/a
118.3195	0.075	236639	keystroke	p	n/a
118.4695	0.075	236939	keystroke	r	n/a
118.6195	0.1205	237239	keystroke	a	n/a
119.07	0.06	238140	keystroke	y	n/a
119.265	0.255	238530	keystroke	e	n/a
119.34	0.165	238680	keystroke	r	n/a
119.46	0.165	238920	keystroke	s	n/a
119.61	0.105	239220	keystroke	Key.space	n/a
119.97	0.075	239940	keystroke	d	n/a
120.09	0.075	240180	keystroke	i	n/a
120.18	0.09	240360	keystroke	r	n/a
120.255	0.075	240510	keystroke	e	n/a
120.495	0.075	240990	keystroke	c	n/a
120.66	0.089	241320	keystroke	t	n/a
120.809	0.12	241618	keystroke	o	n/a
120.914	0.105	241828	keystroke	r	n/a
121.05	0.119	242100	keystroke	s	n/a
121.6645	0.075	243329	keystroke	Key.backspace	n/a
121.8595	0.06	243719	keystroke	i	n/a
121.9495	0.1205	243899	keystroke	e	n/a
122.0245	0.1355	244049	keystroke	s	n/a
122.565	0.1045	245130	keystroke	Key.enter	n/a
122.6755	5.9205	245351	prompt	n/a	triple presidential tall distant\n
123.375	0.075	246750	keystroke	t	n/a
123.57	0.09	247140	keystroke	r	n/a
123.69	0.15	247380	keystroke	i	n/a
123.885	0.104	247770	keystroke	p	n/a
124.095	0.135	248190	keystroke	l	n/a
124.259	0.121	248518	keystroke	e	n/a
124.41	0.09	248820	keystroke	Key.space	n/a
124.77	0.074	249540	keystroke	p	n/a
124.89	0.134	249780	keystroke	r	n/a
124.965	0.149	249930	keystroke	e	n/a
125.07	0.12	250140	keystroke	s	n/a
125.265	0.06	250530	keystroke	i	n/a
125.37	0.075	250740	keystroke	d	n/a
125.5345	0.105	251069	keystroke	e	n/a
125.6995	0.09	251399	keystroke	n	n/a
125.8045	0.09	251609	keystroke	t	n/a
125.9695	0.075	251939	keystroke	i	n/a
126.1195	0.135	252239	keystroke	a	n/a
126.2695	0.075	252539	keystroke	l	n/a
126.3745	0.09	252749	keystroke	Key.space	n/a
126.5845	0.075	253169	keystroke	t	n/a
126.6895	0.135	253379	keystroke	a	n/a
126.8395	0.075	253679	keystroke	l	n/a
127.0045	0.09	254009	keystroke	l	n/a
127.0795	0.105	254159	keystroke	Key.space	n/a
127.3045	0.075	254609	keystroke	d	n/a
127.4395	0.06	254879	keystroke	i	n/a
127.5295	0.12	255059	keystroke	s	n/a
127.6645	0.09	255329	keystroke	t	n/a
127.7695	0.135	255539	keystroke	a	n/a
127.8895	0.1045	255779	keystroke	n	n/a
128.099	0.076	256198	keystroke	t	n/a
128.52	0.074	257040	keystroke	Key.enter	n/a
128.5995	6.837	257199	prompt	n/a	wonderful pound email static\n
129.194	0.105	258388	keystroke	w	n/a
129.27	0.104	258540	keystroke	o	n/a
129.389	0.09	258778	keystroke	n	n/a
129.48	0.1045	258960	keystroke	d	n/a
129.6745	0.12	259349	keystroke	e	n/a
129.7645	0.06	259529	keystroke	r	n/a
129.9305	0.1045	259861	keystroke	f	n/a
130.7395	0.09	261479	keystroke	u	n/a
131.01	0.135	262020	keystroke	l	n/a
131.4	0.09	262800	keystroke	Key.space	n/a
131.805	0.06	263610	keystroke	p	n/a
131.97	0.105	263940	keystroke	o	n/a
132.105	0.105	264210	keystroke	u	n/a
132.375	0.09	264750	keystroke	n	n/a
132.525	0.09	265050	keystroke	d	n/a
132.585	0.165	265170	keystroke	Key.space	n/a
132.825	0.015	265650	keystroke	e	n/a
132.915	0.15	265830	keystroke	m	n/a
133.05	0.105	266100	keystroke	a	n/a
133.125	0.105	266250	keystroke	i	n/a
133.245	0.09	266490	keystroke	l	n/a
133.38	0.089	266760	keystroke	Key.space	n/a
133.515	0.104	267030	keystroke	s	n/a
133.6655	0.104	267331	keystroke	t	n/a
133.7845	0.165	267569	keystroke	a	n/a
133.9345	0.06	267869	keystroke	t	n/a
134.0995	0.075	268199	keystroke	i	n/a
134.279	0.06	268558	keystroke	s	n/a
134.729	0.09	269458	keystroke	Key.backspace	n/a
134.924	0.061	269848	keystroke	c	n/a
135.375	0.0595	270750	keystroke	Key.enter	n/a
135.4395	11.0815	270879	prompt	n/a	recorded agent footwear biographies\n
136.4395	0.12	272879	keystroke	r	n/a
136.5295	0.105	273059	keystroke	e	n/a
136.7995	0.09	273599	keystroke	c	n/a
136.9195	0.075	273839	keystroke	o	n/a
137.0095	0.09	274019	keystroke	r	n/a
137.1445	0.105	274289	keystroke	d	n/a
137.3545	0.06	274709	keystroke	e	n/a
137.5495	0.075	275099	keystroke	d	n/a
137.6695	0.09	275339	keystroke	Key.space	n/a
138.57	0.15	277140	keystroke	a	n/a
138.749	0.075	277498	keystroke	g	n/a
138.9	0.075	277800	keystroke	e	n/a
139.049	0.1055	278098	keystroke	n	n/a
139.2595	0.09	278519	keystroke	t	n/a
139.7845	0.09	279569	keystroke	Key.space	n/a
140.1145	0.09	280229	keystroke	f	n/a
140.2495	0.075	280499	keystroke	o	n/a
140.3995	0.1045	280799	keystroke	o	n/a
140.909	0.09	281818	keystroke	t	n/a
141.15	0.075	282300	keystroke	w	n/a
141.5245	0.135	283049	keystroke	e	n/a
141.6295	0.15	283259	keystroke	a	n/a
141.7045	0.12	283409	keystroke	r	n/a
141.8995	0.105	283799	keystroke	Key.space	n/a
142.2295	0.075	284459	keystroke	b	n/a
142.3945	0.06	284789	keystroke	i	n/a
142.5145	0.045	285029	keystroke	g	n/a
143.5195	0.09	287039	keystroke	Key.backspace	n/a
143.7445	0.075	287489	keystroke	o	n/a
144.045	0.059	288090	keystroke	g	n/a
144.225	0.074	288450	keystroke	r	n/a
144.329	0.12	288658	keystroke	a	n/a
144.51	0.149	289020	keystroke	p	n/a
144.645	0.119	289290	keystroke	h	n/a
144.795	0.105	289590	keystroke	a	n/a
145.244	0.106	290488	keystroke	Key.backspace	n/a
145.44	0.074	290880	keystroke	i	n/a
145.53	0.09	291060	keystroke	e	n/a
145.604	0.09	291208	keystroke	s	n/a
146.4445	0.075	292889	keystroke	Key.enter	n/a
146.5265	7.7195	293053	prompt	n/a	contribution suburban streaming easily\n
147.2545	0.09	294509	keystroke	c	n/a
147.3595	0.105	294719	keystroke	o	n/a
147.4795	0.075	294959	keystroke	n	n/a
147.5245	0.075	295049	keystroke	t	n/a
147.7045	0.075	295409	keystroke	r	n/a
147.7945	0.09	295589	keystroke	i	n/a
147.9595	0.03	295919	keystroke	b	n/a
148.0195	0.0895	296039	keystroke	u	n/a
148.169	0.0755	296338	keystroke	t	n/a
148.2895	0.18	296579	keystroke	i	n/a
148.3795	0.105	296759	keystroke	o	n/a
148.4395	0.091	296879	keystroke	n	n/a
149.0845	0.06	298169	keystroke	Key.space	n/a
149.3395	0.165	298679	keystroke	s	n/a
149.8345	0.075	299669	keystroke	u	n/a
149.9695	0.105	299939	keystroke	b	n/a
150.3595	0.075	300719	keystroke	u	n/a
150.4795	0.075	300959	keystroke	r	n/a
150.6895	0.075	301379	keystroke	b	n/a
150.8695	0.12	301739	keystroke	a	n/a
151.0045	0.075	302009	keystroke	n	n/a
151.2145	0.075	302429	keystroke	Key.space	n/a
151.5295	0.09	303059	keystroke	s	n/a
151.7245	0.06	303449	keystroke	t	n/a
151.8895	0.105	303779	keystroke	r	n/a
151.9645	0.12	303929	keystroke	e	n/a
152.0395	0.12	304079	keystroke	a	n/a
152.1445	0.105	304289	keystroke	m	n/a
152.2795	0.12	304559	keystroke	i	n/a
152.3845	0.09	304769	keystroke	n	n/a
152.5045	0.12	305009	keystroke	g	n/a
152.5945	0.12	305189	keystroke	Key.space	n/a
152.7745	0.135	305549	keystroke	e	n/a
152.8945	0.18	305789	keystroke	a	n/a
153.0445	0.09	306089	keystroke	s	n/a
153.1795	0.105	306359	keystroke	i	n/a
153.4195	0.12	306839	keystroke	l	n/a
153.6595	0.09	307319	keystroke	y	n/a
154.1695	0.075	308339	keystroke	Key.enter	n/a
154.249	10.182	308498	prompt	n/a	adopt occur premier lower\n
154.9795	0.105	309959	keystroke	a	n/a
155.1295	0.09	310259	keystroke	d	n/a
155.2795	0.105	310559	keystroke	o	n/a
155.5045	0.09	311009	keystroke	p	n/a
155.6845	0.09	311369	keystroke	t	n/a
155.8795	0.045	311759	keystroke	Key.space	n/a
156.119	0.076	312238	keystroke	o	n/a
156.269	0.075	312538	keystroke	c	n/a
156.4195	0.09	312839	keystroke	c	n/a
156.5695	0.06	313139	keystroke	u	n/a
156.7645	0.105	313529	keystroke	r	n/a
156.9145	0.12	313829	keystroke	Key.space	n/a
157.1695	0.105	314339	keystroke	r	n/a
157.2295	0.12	314459	keystroke	e	n/a
157.4695	0.12	314939	keystroke	m	n/a
157.6195	0.09	315239	keystroke	i	n/a
157.8145	0.2095	315629	keystroke	e	n/a
157.994	0.1205	315988	keystroke	r	n/a
158.1445	0.105	316289	keystroke	Key.space	n/a
158.3695	0.09	316739	keystroke	l	n/a
158.5795	0.09	317159	keystroke	o	n/a
158.6845	0.15	317369	keystroke	w	n/a
158.8045	0.195	317609	keystroke	e	n/a
158.9395	0.135	317879	keystroke	r	n/a
159.734	0.12	319468	keystroke	Key.backspace	n/a
159.869	0.045	319738	keystroke	Key.backspace	n/a
160.019	0.0455	320038	keystroke	Key.backspace	n/a
160.1545	0.06	320309	keystroke	Key.backspace	n/a
160.3045	0.075	320609	keystroke	Key.backspace	n/a
160.4695	0.06	320939	keystroke	Key.backspace	n/a
160.6345	0.06	321269	keystroke	Key.backspace	n/a
160.7845	0.06	321569	keystroke	Key.backspace	n/a
160.9495	0.045	321899	keystroke	Key.backspace	n/a
161.1145	0.045	322229	keystroke	Key.backspace	n/a
161.2645	0.06	322529	keystroke	Key.backspace	n/a
161.4445	0.06	322889	keystroke	Key.backspace	n/a
161.8045	0.09	323609	keystroke	p	n/a
161.9545	0.09	323909	keystroke	r	n/a
162.0895	0.09	324179	keystroke	e	n/a
162.2995	0.135	324599	keystroke	m	n/a
162.4045	0.12	324809	keystroke	i	n/a
162.584	0.18	325168	keystroke	e	n/a
162.749	0.105	325498	keystroke	r	n/a
162.914	0.06	325828	keystroke	Key.space	n/a
163.214	0.105	326428	keystroke	l	n/a
163.424	0.09	326848	keystroke	o	n/a
163.634	0.15	327268	keystroke	w	n/a
163.8145	0.1495	327629	keystroke	e	n/a
163.949	0.09	327898	keystroke	r	n/a
164.369	0.06	328738	keystroke	Key.enter	n/a
164.434	8.712	328868	prompt	n/a	suddenly creatures ratings bind\n
165.045	0.075	330090	keystroke	s	n/a
165.21	0.06	330420	keystroke	u	n/a
165.314	0.046	330628	keystroke	d	n/a
165.465	0.06	330930	keystroke	d	n/a
165.645	0.09	331290	keystroke	e	n/a
165.765	0.135	331530	keystroke	n	n/a
165.915	0.06	331830	keystroke	t	n/a
166.065	0.014	332130	keystroke	l	n/a
166.784	0.06	333568	keystroke	Key.backspace	n/a
166.934	0.075	333868	keystroke	Key.backspace	n/a
167.174	0.106	334348	keystroke	l	n/a
167.445	0.06	334890	keystroke	y	n/a
167.714	0.105	335428	keystroke	Key.space	n/a
168.15	0.089	336300	keystroke	c	n/a
168.36	0.134	336720	keystroke	r	n/a
168.434	0.12	336868	keystroke	e	n/a
168.524	0.135	337048	keystroke	a	n/a
168.644	0.105	337288	keystroke	t	n/a
169.019	0.06	338038	keystroke	u	n/a
169.0945	0.1345	338189	keystroke	r	n/a
169.154	0.121	338308	keystroke	e	n/a
169.244	0.105	338488	keystroke	s	n/a
169.619	0.09	339238	keystroke	Key.space	n/a
169.95	0.104	339900	keystroke	r	n/a
170.024	0.18	340048	keystroke	e	n/a
170.894	0.09	341788	keystroke	Key.backspace	n/a
171.089	0.15	342178	keystroke	a	n/a
171.255	0.089	342510	keystroke	t	n/a
171.389	0.105	342778	keystroke	i	n/a
171.479	0.1055	342958	keystroke	n	n/a
171.6295	0.06	343259	keystroke	g	n/a
171.8395	0.105	343679	keystroke	s	n/a
171.9745	0.105	343949	keystroke	Key.space	n/a
172.2145	0.075	344429	keystroke	b	n/a
172.3045	0.135	344609	keystroke	i	n/a
172.3945	0.105	344789	keystroke	n	n/a
172.6195	0.105	345239	keystroke	d	n/a
173.0395	0.105	346079	keystroke	Key.enter	n/a
173.1495	6.2065	346299	prompt	n/a	carb valuable special sims\n
173.8045	0.075	347609	keystroke	c	n/a
173.9995	0.1795	347999	keystroke	a	n/a
174.119	0.09	348238	keystroke	r	n/a
174.374	0.075	348748	keystroke	b	n/a
174.614	0.09	349228	keystroke	Key.space	n/a
174.854	0.075	349708	keystroke	v	n/a
175.08	0.104	350160	keystroke	a	n/a
175.259	0.12	350518	keystroke	l	n/a
175.409	0.09	350818	keystroke	u	n/a
175.619	0.135	351238	keystroke	a	n/a
175.814	0.075	351628	keystroke	b	n/a
175.994	0.105	351988	keystroke	l	n/a
176.129	0.09	352258	keystroke	e	n/a
176.234	0.105	352468	keystroke	Key.space	n/a
176.609	0.06	353218	keystroke	p	n/a
177.134	0.09	354268	keystroke	Key.backspace	n/a
177.314	0.09	354628	keystroke	s	n/a
177.449	0.105	354898	keystroke	p	n/a
177.584	0.06	355168	keystroke	e	n/a
177.794	0.06	355588	keystroke	c	n/a
177.929	0.075	355858	keystroke	i	n/a
178.064	0.105	356128	keystroke	a	n/a
178.214	0.09	356428	keystroke	l	n/a
178.319	0.09	356638	keystroke	Key.space	n/a
178.469	0.12	356938	keystroke	s	n/a
178.574	0.15	357148	keystroke	i	n/a
178.709	0.12	357418	keystroke	m	n/a
178.934	0.09	357868	keystroke	s	n/a
179.249	0.105	358498	keystroke	Key.enter	n/a
179.3595	7.8115	358719	prompt	n/a	corpus medline floral marker\n
180.044	0.09	360088	keystroke	c	n/a
180.299	0.12	360598	keystroke	o	n/a
180.8545	0.09	361709	keystroke	r	n/a
181.424	0.105	362848	keystroke	p	n/a
181.679	0.075	363358	keystroke	u	n/a
181.8745	0.12	363749	keystroke	s	n/a
182.0095	0.075	364019	keystroke	Key.space	n/a
182.3845	0.09	364769	keystroke	m	n/a
182.4755	0.074	364951	keystroke	e	n/a
182.6845	0.06	365369	keystroke	d	n/a
182.8795	0.15	365759	keystroke	l	n/a
182.9845	0.15	365969	keystroke	i	n/a
183.1045	0.12	366209	keystroke	n	n/a
183.2095	0.1345	366419	keystroke	e	n/a
183.3295	0.105	366659	keystroke	Key.space	n/a
183.5395	0.0895	367079	keystroke	f	n/a
183.644	0.135	367288	keystroke	l	n/a
184.919	0.105	369838	keystroke	o	n/a
185.099	0.075	370198	keystroke	r	n/a
185.249	0.135	370498	keystroke	a	n/a
185.414	0.12	370828	keystroke	l	n/a
185.549	0.09	371098	keystroke	Key.space	n/a
185.819	0.105	371638	keystroke	m	n/a
185.894	0.18	371788	keystroke	a	n/a
186.029	0.09	372058	keystroke	r	n/a
186.164	0.105	372328	keystroke	k	n/a
186.3	0.164	372600	keystroke	e	n/a
186.419	0.12	372838	keystroke	r	n/a
187.0935	0.075	374187	keystroke	Key.enter	n/a
187.174	6.732	374348	prompt	n/a	past extreme emacs henderson\n
187.7685	0.09	375537	keystroke	p	n/a
187.9635	0.031	375927	keystroke	a	n/a
187.9795	0.149	375959	keystroke	s	n/a
188.3695	0.09	376739	keystroke	t	n/a
188.5945	0.09	377189	keystroke	Key.space	n/a
189.1495	0.06	378299	keystroke	e	n/a
189.3745	0.09	378749	keystroke	x	n/a
189.5845	0.075	379169	keystroke	t	n/a
189.7795	0.105	379559	keystroke	r	n/a
189.8395	0.105	379679	keystroke	e	n/a
190.0645	0.075	380129	keystroke	m	n/a
190.1405	0.089	380281	keystroke	e	n/a
190.4245	0.09	380849	keystroke	Key.space	n/a
190.7545	0.06	381509	keystroke	e	n/a
190.9195	0.12	381839	keystroke	m	n/a
191.1595	0.09	382319	keystroke	a	n/a
191.3695	0.06	382739	keystroke	c	n/a
191.6245	0.075	383249	keystroke	s	n/a
191.7145	0.105	383429	keystroke	Key.space	n/a
191.9545	0.075	383909	keystroke	h	n/a
192.0445	0.075	384089	keystroke	e	n/a
192.1795	0.075	384359	keystroke	n	n/a
192.2845	0.045	384569	keystroke	d	n/a
192.4495	0.15	384899	keystroke	e	n/a
192.5695	0.135	385139	keystroke	r	n/a
192.6895	0.105	385379	keystroke	s	n/a
192.8845	0.15	385769	keystroke	o	n/a
193.0045	0.105	386009	keystroke	n	n/a
193.829	0.075	387658	keystroke	Key.enter	n/a
193.9095	7.5715	387819	prompt	n/a	characterized selective hash somebody\n
194.564	0.075	389128	keystroke	c	n/a
194.669	0.075	389338	keystroke	h	n/a
194.789	0.165	389578	keystroke	a	n/a
194.909	0.105	389818	keystroke	r	n/a
195.104	0.12	390208	keystroke	a	n/a
195.329	0.075	390658	keystroke	c	n/a
195.524	0.075	391048	keystroke	t	n/a
195.689	0.105	391378	keystroke	e	n/a
195.749	0.105	391498	keystroke	r	n/a
195.974	0.06	391948	keystroke	i	n/a
196.109	0.12	392218	keystroke	z	n/a
196.274	0.09	392548	keystroke	e	n/a
196.499	0.075	392998	keystroke	d	n/a
196.589	0.15	393178	keystroke	Key.space	n/a
196.799	0.09	393598	keystroke	s	n/a
196.964	0.075	393928	keystroke	e	n/a
196.979	0.075	393958	keystroke	l	n/a
197.129	0.075	394258	keystroke	e	n/a
197.354	0.075	394708	keystroke	c	n/a
197.789	0.075	395578	keystroke	t	n/a
197.9395	0.09	395879	keystroke	i	n/a
198.074	0.075	396148	keystroke	v	n/a
198.209	0.105	396418	keystroke	e	n/a
198.359	0.075	396718	keystroke	Key.space	n/a
198.554	0.091	397108	keystroke	h	n/a
198.629	0.165	397258	keystroke	a	n/a
198.809	0.09	397618	keystroke	s	n/a
198.989	0.06	397978	keystroke	h	n/a
199.094	0.12	398188	keystroke	Key.space	n/a
199.394	0.105	398788	keystroke	s	n/a
199.665	0.209	399330	keystroke	o	n/a
200.0395	0.09	400079	keystroke	m	n/a
200.2945	0.09	400589	keystroke	e	n/a
200.5495	0.075	401099	keystroke	b	n/a
200.7295	0.105	401459	keystroke	o	n/a
200.8645	0.075	401729	keystroke	d	n/a
201.0145	0.09	402029	keystroke	y	n/a
201.3895	0.089	402779	keystroke	Key.enter	n/a
201.484	11.472	402968	prompt	n/a	brochures properly actively techrepublic\n
202.1235	0.09	404247	keystroke	b	n/a
202.3335	0.09	404667	keystroke	r	n/a
202.4535	0.121	404907	keystroke	o	n/a
202.6645	0.075	405329	keystroke	c	n/a
202.7685	0.091	405537	keystroke	h	n/a
202.9785	0.075	405957	keystroke	u	n/a
203.1885	0.15	406377	keystroke	r	n/a
203.3235	0.15	406647	keystroke	e	n/a
203.4435	0.105	406887	keystroke	s	n/a
203.6535	0.105	407307	keystroke	Key.space	n/a
204.794	0.045	409588	keystroke	p	n/a
204.854	0.03	409708	keystroke	r	n/a
204.869	0.136	409738	keystroke	o	n/a
205.019	0.105	410038	keystroke	p	n/a
205.214	0.135	410428	keystroke	e	n/a
205.289	0.12	410578	keystroke	r	n/a
205.574	0.135	411148	keystroke	l	n/a
205.874	0.075	411748	keystroke	y	n/a
205.994	0.15	411988	keystroke	Key.space	n/a
206.369	0.075	412738	keystroke	a	n/a
206.564	0.075	413128	keystroke	c	n/a
206.729	0.075	413458	keystroke	t	n/a
206.819	0.075	413638	keystroke	i	n/a
206.939	0.09	413878	keystroke	v	n/a
207.089	0.075	414178	keystroke	e	n/a
207.15	0.134	414300	keystroke	l	n/a
207.404	0.075	414808	keystroke	y	n/a
207.494	0.135	414988	keystroke	Key.space	n/a
207.734	0.09	415468	keystroke	t	n/a
208.3045	0.0745	416609	keystroke	e	n/a
208.844	0.09	417688	keystroke	c	n/a
209.009	0.075	418018	keystroke	h	n/a
209.429	0.135	418858	keystroke	r	n/a
209.519	0.105	419038	keystroke	e	n/a
209.774	0.12	419548	keystroke	u	n/a
210.029	0.12	420058	keystroke	p	n/a
210.539	0.09	421078	keystroke	Key.backspace	n/a
210.704	0.09	421408	keystroke	Key.backspace	n/a
210.959	0.15	421918	keystroke	p	n/a
211.094	0.09	422188	keystroke	u	n/a
211.274	0.06	422548	keystroke	b	n/a
211.394	0.135	422788	keystroke	l	n/a
211.904	0.09	423808	keystroke	i	n/a
212.054	0.06	424108	keystroke	c	n/a
212.894	0.06	425788	keystroke	Key.enter	n/a
212.9585	6.3425	425917	prompt	n/a	delivers enter lance quarters\n
213.779	0.075	427558	keystroke	d	n/a
213.944	0.075	427888	keystroke	e	n/a
214.034	0.165	428068	keystroke	l	n/a
214.184	0.09	428368	keystroke	i	n/a
214.259	0.075	428518	keystroke	v	n/a
214.424	0.36	428848	keystroke	e	n/a
214.484	0.285	428968	keystroke	r	n/a
214.754	0.12	429508	keystroke	s	n/a
215.399	0.12	430798	keystroke	Key.space	n/a
215.565	0.074	431130	keystroke	e	n/a
215.684	0.09	431368	keystroke	n	n/a
215.789	0.09	431578	keystroke	t	n/a
215.894	0.12	431788	keystroke	e	n/a
215.999	0.135	431998	keystroke	r	n/a
216.104	0.105	432208	keystroke	Key.space	n/a
216.329	0.105	432658	keystroke	l	n/a
216.419	0.15	432838	keystroke	a	n/a
216.599	0.06	433198	keystroke	n	n/a
216.719	0.0905	433438	keystroke	c	n/a
216.9595	0.089	433919	keystroke	e	n/a
217.0935	0.075	434187	keystroke	Key.space	n/a
217.2585	0.105	434517	keystroke	q	n/a
217.4395	0.059	434879	keystroke	u	n/a
217.514	0.1955	435028	keystroke	a	n/a
217.6935	0.106	435387	keystroke	r	n/a
218.4745	0.105	436949	keystroke	t	n/a
218.6845	0.225	437369	keystroke	e	n/a
218.7895	0.135	437579	keystroke	r	n/a
218.9095	0.09	437819	keystroke	s	n/a
219.2395	0.06	438479	keystroke	Key.enter	n/a
219.306	6.7155	438612	prompt	n/a	realtors scales twisted annotated\n
219.9295	0.12	439859	keystroke	r	n/a
220.0045	0.135	440009	keystroke	e	n/a
220.0945	0.12	440189	keystroke	a	n/a
220.1845	0.135	440369	keystroke	l	n/a
220.4695	0.075	440939	keystroke	t	n/a
220.6195	0.09	441239	keystroke	o	n/a
220.7245	0.12	441449	keystroke	r	n/a
220.8295	0.12	441659	keystroke	s	n/a
220.9645	0.105	441929	keystroke	Key.space	n/a
221.1595	0.09	442319	keystroke	s	n/a
221.3845	0.075	442769	keystroke	c	n/a
221.5345	0.165	443069	keystroke	a	n/a
221.7745	0.12	443549	keystroke	l	n/a
221.9095	0.135	443819	keystroke	e	n/a
222.0145	0.15	444029	keystroke	s	n/a
222.1945	0.1045	444389	keystroke	Key.space	n/a
222.524	0.075	445048	keystroke	t	n/a
222.719	0.105	445438	keystroke	w	n/a
222.989	0.09	445978	keystroke	i	n/a
223.109	0.12	446218	keystroke	s	n/a
223.259	0.105	446518	keystroke	t	n/a
223.379	0.09	446758	keystroke	e	n/a
223.589	0.106	447178	keystroke	d	n/a
223.679	0.12	447358	keystroke	Key.space	n/a
223.8	0.134	447600	keystroke	a	n/a
223.949	0.075	447898	keystroke	n	n/a
224.144	0.075	448288	keystroke	n	n/a
224.429	0.015	448858	keystroke	o	n/a
224.459	0.09	448918	keystroke	t	n/a
225.044	0.12	450088	keystroke	a	n/a
225.194	0.105	450388	keystroke	t	n/a
225.374	0.075	450748	keystroke	e	n/a
225.569	0.075	451138	keystroke	d	n/a
225.944	0.075	451888	keystroke	Key.enter	n/a
226.025	8.066	452050	prompt	n/a	africa owner listed zimbabwe\n
226.6485	0.121	453297	keystroke	a	n/a
226.859	0.0745	453718	keystroke	f	n/a
227.0545	0.089	454109	keystroke	r	n/a
227.1735	0.09	454347	keystroke	i	n/a
227.3395	0.09	454679	keystroke	c	n/a
227.5635	0.1055	455127	keystroke	a	n/a
227.774	0.075	455548	keystroke	Key.space	n/a
228.059	0.075	456118	keystroke	o	n/a
228.164	0.12	456328	keystroke	w	n/a
228.359	0.106	456718	keystroke	n	n/a
228.569	0.165	457138	keystroke	e	n/a
228.704	0.136	457408	keystroke	r	n/a
230.114	0.09	460228	keystroke	Key.space	n/a
230.624	0.09	461248	keystroke	l	n/a
230.819	0.06	461638	keystroke	i	n/a
230.895	0.134	461790	keystroke	s	n/a
231.014	0.12	462028	keystroke	t	n/a
231.119	0.09	462238	keystroke	e	n/a
231.299	0.09	462598	keystroke	d	n/a
231.464	0.105	462928	keystroke	Key.space	n/a
231.944	0.135	463888	keystroke	z	n/a
232.244	0.075	464488	keystroke	i	n/a
232.454	0.135	464908	keystroke	m	n/a
232.754	0.09	465508	keystroke	b	n/a
232.934	0.15	465868	keystroke	a	n/a
233.039	0.105	466078	keystroke	b	n/a
233.4145	0.12	466829	keystroke	w	n/a
233.5785	0.09	467157	keystroke	e	n/a
234.0295	0.06	468059	keystroke	Key.enter	n/a
234.0975	6.1295	468195	prompt	n/a	coated protecting growth wrap\n
234.8245	0.075	469649	keystroke	c	n/a
234.9295	0.105	469859	keystroke	o	n/a
235.0195	0.15	470039	keystroke	a	n/a
235.1245	0.105	470249	keystroke	t	n/a
235.2445	0.09	470489	keystroke	e	n/a
235.4395	0.105	470879	keystroke	d	n/a
235.5595	0.12	471119	keystroke	Key.space	n/a
235.7395	0.075	471479	keystroke	p	n/a
235.8445	0.06	471689	keystroke	r	n/a
235.9195	0.1205	471839	keystroke	o	n/a
236.084	0.105	472168	keystroke	t	n/a
236.204	0.075	472408	keystroke	e	n/a
236.415	0.074	472830	keystroke	c	n/a
236.579	0.09	473158	keystroke	t	n/a
236.654	0.136	473308	keystroke	i	n/a
236.759	0.135	473518	keystroke	n	n/a
236.879	0.105	473758	keystroke	g	n/a
236.954	0.135	473908	keystroke	Key.space	n/a
237.464	0.061	474928	keystroke	g	n/a
237.6595	0.0895	475319	keystroke	r	n/a
237.839	0.09	475678	keystroke	o	n/a
237.944	0.09	475888	keystroke	w	n/a
238.139	0.09	476278	keystroke	t	n/a
238.289	0.075	476578	keystroke	h	n/a
238.394	0.105	476788	keystroke	Key.space	n/a
238.994	0.075	477988	keystroke	w	n/a
239.264	0.06	478528	keystroke	r	n/a
239.474	0.121	478948	keystroke	a	n/a
239.775	0.074	479550	keystroke	p	n/a
240.149	0.075	480298	keystroke	Key.enter	n/a
240.23	7.901	480460	prompt	n/a	steven bradford loss wonderful\n
240.824	0.15	481648	keystroke	s	n/a
241.019	0.105	482038	keystroke	t	n/a
241.139	0.09	482278	keystroke	e	n/a
241.319	0.105	482638	keystroke	v	n/a
241.394	0.105	482788	keystroke	e	n/a
241.544	0.09	483088	keystroke	n	n/a
241.649	0.075	483298	keystroke	Key.space	n/a
242.024	0.075	484048	keystroke	b	n/a
242.234	0.09	484468	keystroke	r	n/a
242.339	0.21	484678	keystroke	a	n/a
242.504	0.075	485008	keystroke	d	n/a
242.804	0.075	485608	keystroke	f	n/a
242.954	0.12	485908	keystroke	o	n/a
243.059	0.105	486118	keystroke	r	n/a
243.494	0.105	486988	keystroke	d	n/a
243.719	0.105	487438	keystroke	Key.space	n/a
244.034	0.09	488068	keystroke	l	n/a
244.244	0.09	488488	keystroke	o	n/a
244.364	0.09	488728	keystroke	s	n/a
244.559	0.09	489118	keystroke	s	n/a
244.679	0.12	489358	keystroke	Key.space	n/a
245.399	0.1045	490798	keystroke	w	n/a
245.5335	0.105	491067	keystroke	o	n/a
245.6235	0.091	491247	keystroke	n	n/a
245.7145	0.089	491429	keystroke	d	n/a
245.9085	0.12	491817	keystroke	e	n/a
246.0135	0.0455	492027	keystroke	r	n/a
246.179	0.075	492358	keystroke	f	n/a
246.809	0.09	493618	keystroke	u	n/a
247.169	0.12	494338	keystroke	l	n/a
248.039	0.09	496078	keystroke	Key.enter	n/a
248.135	8.2155	496270	prompt	n/a	increases caught introduced exec\n
248.729	0.105	497458	keystroke	i	n/a
248.819	0.09	497638	keystroke	n	n/a
248.984	0.075	497968	keystroke	c	n/a
249.179	0.15	498358	keystroke	r	n/a
249.254	0.12	498508	keystroke	e	n/a
249.344	0.195	498688	keystroke	a	n/a
249.479	0.165	498958	keystroke	s	n/a
249.645	0.089	499290	keystroke	e	n/a
250.0945	0.09	500189	keystroke	s	n/a
250.3045	0.105	500609	keystroke	Key.space	n/a
250.6045	0.075	501209	keystroke	c	n/a
250.7695	0.135	501539	keystroke	a	n/a
250.9345	0.075	501869	keystroke	u	n/a
251.0385	0.076	502077	keystroke	g	n/a
251.1595	0.075	502319	keystroke	h	n/a
251.2795	0.075	502559	keystroke	t	n/a
251.4145	0.105	502829	keystroke	Key.space	n/a
251.6545	0.12	503309	keystroke	i	n/a
251.7595	0.09	503519	keystroke	n	n/a
251.9245	0.09	503849	keystroke	t	n/a
252.1045	0.09	504209	keystroke	r	n/a
252.5545	0.135	505109	keystroke	o	n/a
253.2595	0.075	506519	keystroke	d	n/a
253.7395	0.06	507479	keystroke	u	n/a
253.8145	0.06	507629	keystroke	c	n/a
254.024	0.075	508048	keystroke	e	n/a
254.234	0.09	508468	keystroke	d	n/a
254.399	0.09	508798	keystroke	Key.space	n/a
255.134	0.06	510268	keystroke	e	n/a
255.269	0.06	510538	keystroke	x	n/a
255.479	0.045	510958	keystroke	e	n/a
255.659	0.075	511318	keystroke	c	n/a
256.274	0.075	512548	keystroke	Key.enter	n/a
256.3535	15.7635	512707	prompt	n/a	twisted expanding gzip antarctica\n
257.024	0.06	514048	keystroke	t	n/a
257.174	0.09	514348	keystroke	w	n/a
257.384	0.075	514768	keystroke	i	n/a
257.504	0.105	515008	keystroke	s	n/a
257.639	0.075	515278	keystroke	t	n/a
257.729	0.105	515458	keystroke	e	n/a
257.9395	0.089	515879	keystroke	d	n/a
258.0735	0.106	516147	keystroke	Key.space	n/a
258.1945	0.074	516389	keystroke	e	n/a
258.3895	0.075	516779	keystroke	x	n/a
258.5845	0.089	517169	keystroke	p	n/a
258.6895	0.134	517379	keystroke	a	n/a
258.8085	0.121	517617	keystroke	n	n/a
258.9595	0.075	517919	keystroke	d	n/a
259.1395	0.165	518279	keystroke	i	n/a
259.2435	0.135	518487	keystroke	n	n/a
259.4095	0.119	518819	keystroke	g	n/a
259.5135	0.105	519027	keystroke	Key.space	n/a
259.8145	0.074	519629	keystroke	g	n/a
260.144	0.135	520288	keystroke	z	n/a
260.6395	0.135	521279	keystroke	i	n/a
260.8495	0.105	521699	keystroke	p	n/a
261.0895	0.09	522179	keystroke	Key.space	n/a
261.2845	0.105	522569	keystroke	a	n/a
261.5095	0.135	523019	keystroke	n	n/a
261.8545	0.075	523709	keystroke	t	n/a
262.0795	0.15	524159	keystroke	a	n/a
262.2445	0.075	524489	keystroke	r	n/a
262.4845	0.06	524969	keystroke	t	n/a
262.7095	0.09	525419	keystroke	c	n/a
263.0245	0.075	526049	keystroke	t	n/a
263.1895	0.09	526379	keystroke	i	n/a
263.3395	0.075	526679	keystroke	c	n/a
263.5645	0.0895	527129	keystroke	a	n/a
264.1645	0.075	528329	keystroke	Key.backspace	n/a
264.3295	0.075	528659	keystroke	Key.backspace	n/a
264.4945	0.074	528989	keystroke	Key.backspace	n/a
264.6585	0.076	529317	keystroke	Key.backspace	n/a
264.9445	0.105	529889	keystroke	Key.backspace	n/a
265.799	0.09	531598	keystroke	Key.backspace	n/a
266.294	0.06	532588	keystroke	c	n/a
266.669	0.075	533338	keystroke	t	n/a
266.969	0.075	533938	keystroke	i	n/a
267.164	0.06	534328	keystroke	c	n/a
268.169	0.09	536338	keystroke	a	n/a
268.7845	0.06	537569	keystroke	Key.space	n/a
269.9995	0.09	539999	keystroke	Key.backspace	n/a
272.0245	0.09	544049	keystroke	Key.enter	n/a
272.121	7.8695	544242	prompt	n/a	caring routing assistance bryant\n
275.0415	0.027	550083	keystroke	c	n/a
275.1285	0.181	550257	keystroke	a	n/a
275.2195	0.104	550439	keystroke	r	n/a
275.3095	0.104	550619	keystroke	i	n/a
275.4	0.1035	550800	keystroke	n	n/a
275.4895	0.119	550979	keystroke	g	n/a
275.5935	0.09	551187	keystroke	Key.space	n/a
276.0885	0.0755	552177	keystroke	r	n/a
276.194	0.105	552388	keystroke	o	n/a
276.314	0.06	552628	keystroke	u	n/a
276.42	0.074	552840	keystroke	t	n/a
276.554	0.135	553108	keystroke	i	n/a
276.659	0.136	553318	keystroke	n	n/a
276.7485	0.1055	553497	keystroke	g	n/a
276.824	0.12	553648	keystroke	Key.space	n/a
277.004	0.166	554008	keystroke	a	n/a
277.139	0.075	554278	keystroke	s	n/a
277.304	0.075	554608	keystroke	s	n/a
277.38	0.089	554760	keystroke	i	n/a
277.484	0.166	554968	keystroke	s	n/a
277.635	0.105	555270	keystroke	t	n/a
277.74	0.119	555480	keystroke	a	n/a
277.829	0.09	555658	keystroke	n	n/a
278.009	0.045	556018	keystroke	c	n/a
278.174	0.09	556348	keystroke	e	n/a
278.279	0.105	556558	keystroke	Key.space	n/a
278.519	0.045	557038	keystroke	b	n/a
278.699	0.075	557398	keystroke	r	n/a
278.864	0.09	557728	keystroke	y	n/a
279.059	0.12	558118	keystroke	a	n/a
279.239	0.105	558478	keystroke	n	n/a
279.599	0.075	559198	keystroke	t	n/a
279.899	0.09	559798	keystroke	Key.enter	n/a
279.9935	12.147	559987	prompt	n/a	intelligence work voting suspended\n
280.6035	0.091	561207	keystroke	i	n/a
280.7245	0.09	561449	keystroke	n	n/a
280.8145	0.089	561629	keystroke	t	n/a
280.9195	0.074	561839	keystroke	e	n/a
281.1895	0.089	562379	keystroke	l	n/a
281.4745	0.014	562949	keystroke	l	n/a
281.5785	0.09	563157	keystroke	i	n/a
281.6985	0.061	563397	keystroke	g	n/a
281.8635	0.091	563727	keystroke	e	n/a
281.9985	0.075	563997	keystroke	n	n/a
282.1035	0.06	564207	keystroke	t	n/a
282.659	0.09	565318	keystroke	Key.backspace	n/a
282.809	0.06	565618	keystroke	c	n/a
283.304	0.075	566608	keystroke	e	n/a
283.499	0.075	566998	keystroke	Key.space	n/a
283.859	0.09	567718	keystroke	w	n/a
283.979	0.075	567958	keystroke	o	n/a
284.114	0.06	568228	keystroke	r	n/a
284.264	0.075	568528	keystroke	k	n/a
284.399	0.06	568798	keystroke	Key.space	n/a
284.909	0.045	569818	keystroke	v	n/a
284.999	0.09	569998	keystroke	o	n/a
285.134	0.06	570268	keystroke	t	n/a
285.254	0.105	570508	keystroke	i	n/a
285.344	0.105	570688	keystroke	n	n/a
285.449	0.09	570898	keystroke	g	n/a
285.524	0.12	571048	keystroke	Key.space	n/a
285.719	0.045	571438	keystroke	s	n/a
286.319	0.09	572638	keystroke	u	n/a
286.574	0.09	573148	keystroke	p	n/a
286.739	0.12	573478	keystroke	s	n/a
287.159	0.075	574318	keystroke	e	n/a
287.309	0.105	574618	keystroke	n	n/a
287.519	0.06	575038	keystroke	d	n/a
288.1645	0.075	576329	keystroke	Key.backspace	n/a
288.3295	0.075	576659	keystroke	Key.backspace	n/a
288.4795	0.0745	576959	keystroke	Key.backspace	n/a
288.629	0.075	577258	keystroke	Key.backspace	n/a
288.779	0.075	577558	keystroke	Key.backspace	n/a
288.989	0.09	577978	keystroke	s	n/a
289.304	0.105	578608	keystroke	p	n/a
289.454	0.075	578908	keystroke	e	n/a
289.574	0.09	579148	keystroke	n	n/a
289.694	0.09	579388	keystroke	d	n/a
289.844	0.105	579688	keystroke	i	n/a
289.934	0.09	579868	keystroke	n	n/a
290.369	0.0595	580738	keystroke	Key.backspace	n/a
290.5035	0.09	581007	keystroke	Key.backspace	n/a
290.7135	0.075	581427	keystroke	e	n/a
290.9235	0.091	581847	keystroke	d	n/a
292.064	0.075	584128	keystroke	Key.enter	n/a
292.144	6.8515	584288	prompt	n/a	framing tiffany treaty drilling\n
292.769	0.06	585538	keystroke	f	n/a
292.9495	0.075	585899	keystroke	r	n/a
293.0545	0.105	586109	keystroke	a	n/a
293.0845	0.15	586169	keystroke	m	n/a
293.2945	0.12	586589	keystroke	i	n/a
293.3995	0.105	586799	keystroke	n	n/a
293.4895	0.12	586979	keystroke	g	n/a
293.5945	0.135	587189	keystroke	Key.space	n/a
293.8495	0.075	587699	keystroke	t	n/a
294.3435	0.09	588687	keystroke	i	n/a
294.4485	0.06	588897	keystroke	f	n/a
294.5835	0.105	589167	keystroke	f	n/a
294.7335	0.12	589467	keystroke	a	n/a
294.8685	0.09	589737	keystroke	n	n/a
295.2285	0.076	590457	keystroke	y	n/a
295.7085	0.105	591417	keystroke	Key.space	n/a
296.0385	0.09	592077	keystroke	t	n/a
296.2635	0.135	592527	keystroke	r	n/a
296.3535	0.105	592707	keystroke	e	n/a
296.4435	0.135	592887	keystroke	a	n/a
296.5335	0.12	593067	keystroke	t	n/a
296.9685	0.06	593937	keystroke	y	n/a
297.1185	0.09	594237	keystroke	Key.space	n/a
297.374	0.075	594748	keystroke	d	n/a
297.554	0.09	595108	keystroke	r	n/a
297.704	0.06	595408	keystroke	i	n/a
297.929	0.06	595858	keystroke	l	n/a
298.079	0.12	596158	keystroke	l	n/a
298.214	0.12	596428	keystroke	i	n/a
298.319	0.12	596638	keystroke	n	n/a
298.454	0.0895	596908	keystroke	g	n/a
298.9185	0.075	597837	keystroke	Key.enter	n/a
298.9985	10.062	597997	prompt	n/a	yugoslavia invitation moral troy\n
299.789	0.1045	599578	keystroke	y	n/a
300.014	0.135	600028	keystroke	o	n/a
300.464	0.075	600928	keystroke	g	n/a
301.7235	0.06	603447	keystroke	Key.backspace	n/a
301.8595	0.074	603719	keystroke	Key.backspace	n/a
302.0395	0.09	604079	keystroke	u	n/a
302.2035	0.105	604407	keystroke	g	n/a
302.3835	0.105	604767	keystroke	o	n/a
303.2385	0.09	606477	keystroke	s	n/a
303.3595	0.104	606719	keystroke	l	n/a
303.4495	0.164	606899	keystroke	a	n/a
303.5985	0.09	607197	keystroke	v	n/a
303.8385	0.105	607677	keystroke	i	n/a
304.0185	0.09	608037	keystroke	a	n/a
304.8285	0.09	609657	keystroke	Key.space	n/a
305.2335	0.105	610467	keystroke	i	n/a
305.3235	0.12	610647	keystroke	n	n/a
305.4885	0.075	610977	keystroke	v	n/a
305.5945	0.104	611189	keystroke	i	n/a
305.8185	0.06	611637	keystroke	t	n/a
305.9385	0.165	611877	keystroke	a	n/a
306.0435	0.106	612087	keystroke	t	n/a
306.1785	0.18	612357	keystroke	i	n/a
306.2685	0.12	612537	keystroke	o	n/a
306.3445	0.134	612689	keystroke	n	n/a
306.4635	0.09	612927	keystroke	Key.space	n/a
306.8835	0.135	613767	keystroke	m	n/a
307.0195	0.119	614039	keystroke	o	n/a
307.1685	0.09	614337	keystroke	r	n/a
307.3185	0.12	614637	keystroke	a	n/a
307.4835	0.12	614967	keystroke	l	n/a
307.6185	0.075	615237	keystroke	Key.space	n/a
307.8285	0.075	615657	keystroke	t	n/a
307.994	0.1205	615988	keystroke	r	n/a
308.1895	0.105	616379	keystroke	o	n/a
308.5195	0.06	617039	keystroke	y	n/a
308.9845	0.075	617969	keystroke	Key.enter	n/a
309.0635	6.687	618127	prompt	n/a	profiles anger necessarily beans\n
309.7945	0.059	619589	keystroke	p	n/a
310.2745	0.074	620549	keystroke	r	n/a
310.4685	0.105	620937	keystroke	o	n/a
310.6185	0.075	621237	keystroke	f	n/a
310.7835	0.09	621567	keystroke	i	n/a
310.9935	0.105	621987	keystroke	l	n/a
311.1435	0.136	622287	keystroke	e	n/a
311.2335	0.136	622467	keystroke	s	n/a
311.3535	0.105	622707	keystroke	Key.space	n/a
311.5335	0.12	623067	keystroke	a	n/a
311.6385	0.076	623277	keystroke	n	n/a
311.7885	0.076	623577	keystroke	g	n/a
311.9985	0.12	623997	keystroke	e	n/a
312.2385	0.091	624477	keystroke	r	n/a
312.3585	0.105	624717	keystroke	Key.space	n/a
312.5685	0.1055	625137	keystroke	n	n/a
312.644	0.075	625288	keystroke	e	n/a
312.899	0.045	625798	keystroke	c	n/a
313.079	0.105	626158	keystroke	e	n/a
313.274	0.105	626548	keystroke	s	n/a
313.484	0.075	626968	keystroke	s	n/a
313.664	0.135	627328	keystroke	a	n/a
313.754	0.075	627508	keystroke	r	n/a
313.904	0.09	627808	keystroke	i	n/a
314.084	0.12	628168	keystroke	l	n/a
314.234	0.09	628468	keystroke	y	n/a
314.384	0.09	628768	keystroke	Key.space	n/a
314.624	0.075	629248	keystroke	b	n/a
314.804	0.105	629608	keystroke	e	n/a
314.879	0.165	629758	keystroke	a	n/a
314.999	0.105	629998	keystroke	n	n/a
315.269	0.09	630538	keystroke	s	n/a
315.659	0.09	631318	keystroke	Key.enter	n/a
315.754	6.9265	631508	prompt	n/a	yarn fabrics plots meanwhile\n
316.574	0.0905	633148	keystroke	y	n/a
316.694	0.15	633388	keystroke	a	n/a
316.799	0.105	633598	keystroke	r	n/a
316.964	0.105	633928	keystroke	n	n/a
317.084	0.09	634168	keystroke	Key.space	n/a
317.324	0.075	634648	keystroke	f	n/a
317.459	0.1205	634918	keystroke	a	n/a
317.699	0.045	635398	keystroke	b	n/a
317.879	0.075	635758	keystroke	r	n/a
318.1035	0.105	636207	keystroke	i	n/a
318.2535	0.075	636507	keystroke	c	n/a
318.4785	0.09	636957	keystroke	s	n/a
318.5845	0.089	637169	keystroke	Key.space	n/a
318.8235	0.12	637647	keystroke	p	n/a
319.0185	0.12	638037	keystroke	l	n/a
319.3035	0.105	638607	keystroke	o	n/a
319.4535	0.076	638907	keystroke	t	n/a
319.6335	0.135	639267	keystroke	s	n/a
319.7385	0.12	639477	keystroke	Key.space	n/a
319.9485	0.09	639897	keystroke	m	n/a
320.0535	0.09	640107	keystroke	e	n/a
320.2035	0.105	640407	keystroke	n	n/a
320.939	0.09	641878	keystroke	Key.backspace	n/a
321.074	0.105	642148	keystroke	a	n/a
321.239	0.105	642478	keystroke	n	n/a
321.614	0.09	643228	keystroke	w	n/a
321.7785	0.09	643557	keystroke	h	n/a
321.8385	0.15	643677	keystroke	i	n/a
321.9735	0.105	643947	keystroke	l	n/a
322.1385	0.075	644277	keystroke	e	n/a
322.5885	0.09	645177	keystroke	Key.enter	n/a
322.684	11.636	645368	prompt	n/a	malta installing toronto nevada\n
323.5485	0.0755	647097	keystroke	m	n/a
323.6685	0.1055	647337	keystroke	a	n/a
323.789	0.1045	647578	keystroke	l	n/a
323.9985	0.0905	647997	keystroke	t	n/a
324.119	0.15	648238	keystroke	a	n/a
324.314	0.075	648628	keystroke	Key.space	n/a
324.719	0.09	649438	keystroke	i	n/a
324.794	0.12	649588	keystroke	n	n/a
324.929	0.15	649858	keystroke	s	n/a
325.094	0.075	650188	keystroke	t	n/a
325.184	0.12	650368	keystroke	a	n/a
325.319	0.1045	650638	keystroke	l	n/a
325.5135	0.09	651027	keystroke	l	n/a
326.339	0.12	652678	keystroke	i	n/a
326.444	0.075	652888	keystroke	n	n/a
326.549	0.12	653098	keystroke	g	n/a
326.684	0.09	653368	keystroke	Key.space	n/a
326.999	0.075	653998	keystroke	t	n/a
327.194	0.105	654388	keystroke	o	n/a
327.329	0.09	654658	keystroke	r	n/a
327.494	0.135	654988	keystroke	o	n/a
327.674	0.15	655348	keystroke	n	n/a
327.809	0.135	655618	keystroke	o	n/a
328.004	0.09	656008	keystroke	t	n/a
328.229	0.105	656458	keystroke	o	n/a
328.859	0.059	657718	keystroke	Key.backspace	n/a
329.024	0.06	658048	keystroke	Key.backspace	n/a
329.174	0.075	658348	keystroke	Key.backspace	n/a
329.699	0.24	659398	keystroke	t	n/a
329.954	0.045	659908	keystroke	o	n/a
331.798	0.076	663596	keystroke	Key.space	n/a
332.083	0.061	664166	keystroke	n	n/a
332.4135	0.075	664827	keystroke	e	n/a
332.6095	0.074	665219	keystroke	v	n/a
332.7285	0.135	665457	keystroke	e	n/a
333.2685	0.105	666537	keystroke	Key.backspace	n/a
333.3885	0.12	666777	keystroke	a	n/a
333.6135	0.06	667227	keystroke	d	n/a
333.7485	0.105	667497	keystroke	a	n/a
334.2585	0.06	668517	keystroke	Key.enter	n/a
334.326	7.4345	668652	prompt	n/a	accordingly we classified hearing\n
335.0085	0.09	670017	keystroke	a	n/a
335.3535	0.045	670707	keystroke	c	n/a
335.4735	0.09	670947	keystroke	c	n/a
336.4495	0.104	672899	keystroke	o	n/a
336.599	0.045	673198	keystroke	r	n/a
336.734	0.075	673468	keystroke	d	n/a
336.869	0.135	673738	keystroke	i	n/a
336.974	0.12	673948	keystroke	n	n/a
337.409	0.09	674818	keystroke	g	n/a
337.649	0.165	675298	keystroke	l	n/a
338.024	0.075	676048	keystroke	y	n/a
338.294	0.105	676588	keystroke	Key.space	n/a
338.459	0.12	676918	keystroke	w	n/a
338.594	0.135	677188	keystroke	e	n/a
338.714	0.09	677428	keystroke	Key.space	n/a
338.939	0.06	677878	keystroke	c	n/a
339.044	0.12	678088	keystroke	l	n/a
339.149	0.15	678298	keystroke	a	n/a
339.284	0.075	678568	keystroke	s	n/a
339.449	0.075	678898	keystroke	s	n/a
339.569	0.075	679138	keystroke	i	n/a
339.689	0.075	679378	keystroke	f	n/a
339.809	0.075	679618	keystroke	i	n/a
339.914	0.075	679828	keystroke	e	n/a
340.109	0.09	680218	keystroke	d	n/a
340.214	0.15	680428	keystroke	Key.space	n/a
340.469	0.075	680938	keystroke	h	n/a
340.544	0.165	681088	keystroke	e	n/a
340.649	0.135	681298	keystroke	a	n/a
340.724	0.105	681448	keystroke	r	n/a
340.799	0.15	681598	keystroke	i	n/a
340.889	0.15	681778	keystroke	n	n/a
341.054	0.09	682108	keystroke	g	n/a
341.669	0.09	683338	keystroke	Key.enter	n/a
341.764	8.471	683528	prompt	n/a	powder mistake pairs contributing\n
342.524	0.09	685048	keystroke	p	n/a
342.629	0.165	685258	keystroke	o	n/a
342.749	0.15	685498	keystroke	w	n/a
342.854	0.18	685708	keystroke	e	n/a
342.959	0.105	685918	keystroke	r	n/a
343.394	0.045	686788	keystroke	d	n/a
343.7385	0.075	687477	keystroke	Key.backspace	n/a
343.8885	0.075	687777	keystroke	Key.backspace	n/a
344.0385	0.076	688077	keystroke	Key.backspace	n/a
344.1885	0.075	688377	keystroke	d	n/a
344.3985	0.135	688797	keystroke	e	n/a
344.5185	0.105	689037	keystroke	r	n/a
345.1185	0.075	690237	keystroke	Key.space	n/a
345.3885	0.075	690777	keystroke	m	n/a
345.4935	0.09	690987	keystroke	i	n/a
345.5535	0.15	691107	keystroke	s	n/a
345.6885	0.09	691377	keystroke	t	n/a
345.8235	0.15	691647	keystroke	a	n/a
346.0035	0.1195	692007	keystroke	k	n/a
346.109	0.09	692218	keystroke	e	n/a
346.199	0.074	692398	keystroke	Key.space	n/a
346.4235	0.105	692847	keystroke	p	n/a
346.5435	0.12	693087	keystroke	a	n/a
346.6935	0.06	693387	keystroke	i	n/a
346.8435	0.09	693687	keystroke	r	n/a
347.0385	0.09	694077	keystroke	s	n/a
347.1585	0.09	694317	keystroke	Key.space	n/a
347.3685	0.075	694737	keystroke	c	n/a
347.4585	0.105	694917	keystroke	o	n/a
347.5335	0.12	695067	keystroke	n	n/a
347.6385	0.075	695277	keystroke	t	n/a
347.7885	0.075	695577	keystroke	r	n/a
347.9085	0.105	695817	keystroke	i	n/a
348.058	0.076	696116	keystroke	b	n/a
348.209	0.089	696418	keystroke	u	n/a
348.358	0.09	696716	keystroke	t	n/a
348.568	0.1805	697136	keystroke	i	n/a
348.6885	0.135	697377	keystroke	n	n/a
348.8385	0.09	697677	keystroke	g	n/a
350.0085	0.225	700017	keystroke	Key.enter	n/a
350.2385	4.5715	700477	prompt	n/a	devices liked angry chuck\n
350.879	0.074	701758	keystroke	d	n/a
351.043	0.076	702086	keystroke	e	n/a
351.208	0.075	702416	keystroke	v	n/a
351.299	0.074	702598	keystroke	i	n/a
351.448	0.06	702896	keystroke	c	n/a
351.643	0.136	703286	keystroke	e	n/a
351.748	0.136	703496	keystroke	s	n/a
351.853	0.105	703706	keystroke	Key.space	n/a
352.003	0.1655	704006	keystroke	l	n/a
352.123	0.1055	704246	keystroke	i	n/a
352.3485	0.105	704697	keystroke	k	n/a
352.4685	0.061	704937	keystroke	e	n/a
352.6485	0.105	705297	keystroke	d	n/a
352.7685	0.075	705537	keystroke	Key.space	n/a
352.8885	0.106	705777	keystroke	a	n/a
352.9785	0.09	705957	keystroke	n	n/a
353.0985	0.0755	706197	keystroke	g	n/a
353.309	0.075	706618	keystroke	r	n/a
353.429	0.075	706858	keystroke	y	n/a
353.534	0.075	707068	keystroke	Key.space	n/a
353.744	0.075	707488	keystroke	c	n/a
353.834	0.075	707668	keystroke	h	n/a
354.0285	0.075	708057	keystroke	u	n/a
354.1635	0.075	708327	keystroke	c	n/a
354.3285	0.075	708657	keystroke	k	n/a
354.7185	0.09	709437	keystroke	Key.enter	n/a
354.8135	7.6915	709627	prompt	n/a	inspection finding threshold sapphire\n
355.4985	0.075	710997	keystroke	i	n/a
355.5885	0.09	711177	keystroke	n	n/a
355.7085	0.105	711417	keystroke	s	n/a
355.9485	0.075	711897	keystroke	p	n/a
356.0245	0.074	712049	keystroke	e	n/a
356.2335	0.075	712467	keystroke	c	n/a
356.4135	0.075	712827	keystroke	t	n/a
356.5335	0.21	713067	keystroke	i	n/a
356.6535	0.12	713307	keystroke	o	n/a
356.7295	0.119	713459	keystroke	n	n/a
356.8635	0.09	713727	keystroke	Key.space	n/a
357.0735	0.09	714147	keystroke	f	n/a
357.1935	0.105	714387	keystroke	i	n/a
357.2835	0.075	714567	keystroke	n	n/a
357.3885	0.06	714777	keystroke	d	n/a
357.4795	0.119	714959	keystroke	i	n/a
357.5835	0.105	715167	keystroke	n	n/a
357.7035	0.09	715407	keystroke	g	n/a
357.9445	0.0895	715889	keystroke	s	n/a
358.093	0.091	716186	keystroke	Key.space	n/a
358.664	0.045	717328	keystroke	t	n/a
358.769	0.09	717538	keystroke	h	n/a
358.844	0.15	717688	keystroke	r	n/a
358.934	0.18	717868	keystroke	e	n/a
359.084	0.15	718168	keystroke	s	n/a
359.414	0.12	718828	keystroke	h	n/a
359.699	0.09	719398	keystroke	o	n/a
359.9235	0.1055	719847	keystroke	l	n/a
360.074	0.105	720148	keystroke	d	n/a
360.224	0.105	720448	keystroke	Key.space	n/a
360.479	0.045	720958	keystroke	s	n/a
360.659	0.105	721318	keystroke	a	n/a
360.869	0.09	721738	keystroke	p	n/a
361.049	0.0755	722098	keystroke	p	n/a
361.4095	0.09	722819	keystroke	h	n/a
361.7085	0.09	723417	keystroke	i	n/a
361.8285	0.105	723657	keystroke	r	n/a
361.8885	0.105	723777	keystroke	e	n/a
362.4285	0.075	724857	keystroke	Key.enter	n/a
362.5085	7.7675	725017	prompt	n/a	requiring rage launches humor\n
363.1035	0.105	726207	keystroke	r	n/a
363.1335	0.12	726267	keystroke	e	n/a
363.4035	0.105	726807	keystroke	q	n/a
363.5385	0.12	727077	keystroke	i	n/a
363.7635	0.12	727527	keystroke	r	n/a
363.8235	0.09	727647	keystroke	e	n/a
364.1835	0.075	728367	keystroke	Key.backspace	n/a
364.3485	0.06	728697	keystroke	Key.backspace	n/a
364.5135	0.06	729027	keystroke	Key.backspace	n/a
364.6335	0.105	729267	keystroke	u	n/a
364.8735	0.105	729747	keystroke	i	n/a
365.4735	0.09	730947	keystroke	r	n/a
365.6235	0.135	731247	keystroke	i	n/a
365.7285	0.12	731457	keystroke	n	n/a
365.8785	0.165	731757	keystroke	g	n/a
366.1335	0.09	732267	keystroke	Key.space	n/a
366.8235	0.09	733647	keystroke	r	n/a
366.9285	0.18	733857	keystroke	a	n/a
367.0635	0.105	734127	keystroke	g	n/a
367.2135	0.105	734427	keystroke	e	n/a
367.3335	0.09	734667	keystroke	Key.space	n/a
367.5285	0.105	735057	keystroke	l	n/a
367.6035	0.135	735207	keystroke	a	n/a
368.084	0.075	736168	keystroke	u	n/a
368.279	0.09	736558	keystroke	n	n/a
368.444	0.075	736888	keystroke	c	n/a
368.594	0.09	737188	keystroke	h	n/a
368.744	0.135	737488	keystroke	e	n/a
368.834	0.15	737668	keystroke	s	n/a
368.969	0.09	737938	keystroke	Key.space	n/a
369.209	0.06	738418	keystroke	h	n/a
369.389	0.075	738778	keystroke	u	n/a
369.584	0.12	739168	keystroke	m	n/a
369.764	0.105	739528	keystroke	o	n/a
369.929	0.105	739858	keystroke	r	n/a
370.199	0.075	740398	keystroke	Key.enter	n/a
370.279	10.361	740558	prompt	n/a	exclusively administrators fantasy interview\n
370.994	0.06	741988	keystroke	e	n/a
371.189	0.075	742378	keystroke	x	n/a
371.399	0.075	742798	keystroke	c	n/a
371.579	0.15	743158	keystroke	l	n/a
371.744	0.105	743488	keystroke	u	n/a
372.1035	0.06	744207	keystroke	s	n/a
372.209	0.075	744418	keystroke	i	n/a
372.389	0.06	744778	keystroke	v	n/a
372.539	0.075	745078	keystroke	e	n/a
372.719	0.135	745438	keystroke	l	n/a
372.959	0.075	745918	keystroke	y	n/a
373.139	0.105	746278	keystroke	Key.space	n/a
373.529	0.135	747058	keystroke	a	n/a
373.679	0.075	747358	keystroke	d	n/a
373.799	0.12	747598	keystroke	m	n/a
373.934	0.105	747868	keystroke	i	n/a
374.039	0.12	748078	keystroke	n	n/a
374.129	0.105	748258	keystroke	i	n/a
374.264	0.104	748528	keystroke	s	n/a
374.414	0.105	748828	keystroke	t	n/a
374.594	0.105	749188	keystroke	r	n/a
375.494	0.179	750988	keystroke	a	n/a
375.658	0.106	751316	keystroke	t	n/a
375.868	0.091	751736	keystroke	o	n/a
375.974	0.09	751948	keystroke	r	n/a
376.438	0.09	752876	keystroke	s	n/a
376.918	0.075	753836	keystroke	Key.space	n/a
377.878	0.09	755756	keystroke	f	n/a
378.013	0.1505	756026	keystroke	a	n/a
378.1485	0.075	756297	keystroke	n	n/a
378.2535	0.09	756507	keystroke	t	n/a
378.3585	0.21	756717	keystroke	a	n/a
378.5385	0.105	757077	keystroke	s	n/a
378.7635	0.075	757527	keystroke	y	n/a
378.8985	0.105	757797	keystroke	Key.space	n/a
379.124	0.135	758248	keystroke	i	n/a
379.229	0.105	758458	keystroke	n	n/a
379.319	0.09	758638	keystroke	t	n/a
379.439	0.135	758878	keystroke	e	n/a
379.544	0.09	759088	keystroke	r	n/a
379.769	0.09	759538	keystroke	v	n/a
379.949	0.075	759898	keystroke	i	n/a
380.069	0.12	760138	keystroke	e	n/a
380.144	0.105	760288	keystroke	w	n/a
380.549	0.09	761098	keystroke	Key.enter	n/a
380.6435	14.3815	761287	prompt	n/a	crawford synopsis serving wishing\n
381.389	0.075	762778	keystroke	c	n/a
381.644	0.105	763288	keystroke	r	n/a
381.899	0.15	763798	keystroke	a	n/a
382.139	0.105	764278	keystroke	w	n/a
382.664	0.06	765328	keystroke	f	n/a
383.054	0.12	766108	keystroke	o	n/a
383.699	0.105	767398	keystroke	r	n/a
383.983	0.091	767966	keystroke	d	n/a
384.208	0.09	768416	keystroke	Key.space	n/a
384.494	0.089	768988	keystroke	s	n/a
384.689	0.09	769378	keystroke	y	n/a
385.544	0.12	771088	keystroke	n	n/a
385.904	0.1195	771808	keystroke	o	n/a
386.3985	0.12	772797	keystroke	Key.backspace	n/a
388.2135	0.15	776427	keystroke	o	n/a
388.4835	0.09	776967	keystroke	p	n/a
388.8735	0.105	777747	keystroke	s	n/a
388.9935	0.075	777987	keystroke	i	n/a
389.0985	0.105	778197	keystroke	s	n/a
389.6235	0.105	779247	keystroke	Key.space	n/a
389.8785	0.075	779757	keystroke	s	n/a
390.0585	0.12	780117	keystroke	e	n/a
390.1485	0.09	780297	keystroke	r	n/a
390.3735	0.09	780747	keystroke	v	n/a
390.4935	0.075	780987	keystroke	i	n/a
390.6285	0.12	781257	keystroke	n	n/a
390.7635	0.105	781527	keystroke	g	n/a
390.8685	0.105	781737	keystroke	Key.space	n/a
391.0485	0.075	782097	keystroke	s	n/a
391.4535	0.12	782907	keystroke	Key.backspace	n/a
391.6635	0.075	783327	keystroke	w	n/a
391.7535	0.075	783507	keystroke	i	n/a
391.8735	0.12	783747	keystroke	s	n/a
391.9635	0.135	783927	keystroke	i	n/a
392.1135	0.06	784227	keystroke	n	n/a
392.863	0.09	785726	keystroke	Key.backspace	n/a
393.043	0.075	786086	keystroke	Key.backspace	n/a
393.388	0.105	786776	keystroke	h	n/a
393.613	0.136	787226	keystroke	i	n/a
393.718	0.1205	787436	keystroke	n	n/a
394.0785	0.075	788157	keystroke	g	n/a
394.978	0.045	789956	keystroke	Key.enter	n/a
395.0295	8.875	790059	prompt	n/a	precisely hasn't stationery jeremy\n
395.6385	0.045	791277	keystroke	p	n/a
395.7285	0.075	791457	keystroke	r	n/a
395.8485	0.09	791697	keystroke	e	n/a
396.0735	0.075	792147	keystroke	c	n/a
396.1935	0.075	792387	keystroke	i	n/a
396.3435	0.09	792687	keystroke	s	n/a
396.6285	0.105	793257	keystroke	e	n/a
396.8235	0.12	793647	keystroke	l	n/a
397.1235	0.06	794247	keystroke	y	n/a
397.6035	0.09	795207	keystroke	Key.space	n/a
397.9485	0.09	795897	keystroke	h	n/a
398.0535	0.12	796107	keystroke	a	n/a
398.2785	0.075	796557	keystroke	s	n/a
398.6685	0.09	797337	keystroke	n	n/a
398.7735	0.135	797547	keystroke	'	n/a
398.9685	0.105	797937	keystroke	t	n/a
399.763	0.0905	799526	keystroke	Key.space	n/a
400.0485	0.105	800097	keystroke	s	n/a
400.1985	0.09	800397	keystroke	t	n/a
400.3035	0.165	800607	keystroke	a	n/a
400.4235	0.105	800847	keystroke	t	n/a
400.694	0.21	801388	keystroke	i	n/a
400.7985	0.15	801597	keystroke	o	n/a
400.904	0.1495	801808	keystroke	n	n/a
401.2035	0.15	802407	keystroke	e	n/a
401.3235	0.12	802647	keystroke	r	n/a
401.5485	0.075	803097	keystroke	y	n/a
402.194	0.09	804388	keystroke	Key.space	n/a
402.509	0.105	805018	keystroke	j	n/a
402.629	0.12	805258	keystroke	e	n/a
402.689	0.105	805378	keystroke	r	n/a
402.914	0.12	805828	keystroke	e	n/a
403.109	0.105	806218	keystroke	m	n/a
403.469	0.075	806938	keystroke	y	n/a
403.844	0.059	807688	keystroke	Key.enter	n/a
403.9085	7.2715	807817	prompt	n/a	commit digit compression acres\n
404.5485	0.045	809097	keystroke	c	n/a
404.5635	0.135	809127	keystroke	o	n/a
404.6685	0.075	809337	keystroke	m	n/a
404.8485	0.0905	809697	keystroke	m	n/a
404.984	0.09	809968	keystroke	i	n/a
405.209	0.09	810418	keystroke	t	n/a
405.658	0.09	811316	keystroke	Key.space	n/a
406.0035	0.105	812007	keystroke	i	n/a
406.4835	0.12	812967	keystroke	Key.backspace	n/a
406.7985	0.075	813597	keystroke	d	n/a
406.9335	0.09	813867	keystroke	i	n/a
407.0835	0.09	814167	keystroke	g	n/a
407.1885	0.06	814377	keystroke	i	n/a
407.4585	0.09	814917	keystroke	t	n/a
407.7885	0.075	815577	keystroke	Key.space	n/a
408.2835	0.075	816567	keystroke	c	n/a
408.4035	0.1805	816807	keystroke	o	n/a
408.4935	0.1795	816987	keystroke	m	n/a
408.6135	0.1195	817227	keystroke	p	n/a
408.809	0.149	817618	keystroke	r	n/a
408.868	0.136	817736	keystroke	e	n/a
408.959	0.089	817918	keystroke	s	n/a
409.138	0.09	818276	keystroke	s	n/a
409.288	0.18	818576	keystroke	i	n/a
409.348	0.135	818696	keystroke	o	n/a
409.438	0.121	818876	keystroke	n	n/a
409.603	0.105	819206	keystroke	Key.space	n/a
409.798	0.12	819596	keystroke	a	n/a
410.008	0.075	820016	keystroke	c	n/a
410.219	0.134	820438	keystroke	r	n/a
410.309	0.149	820618	keystroke	e	n/a
410.443	0.105	820886	keystroke	s	n/a
411.103	0.075	822206	keystroke	Key.enter	n/a
411.1845	5.756	822369	prompt	n/a	jackie ieee suffer court\n
411.838	0.075	823676	keystroke	j	n/a
411.928	0.105	823856	keystroke	a	n/a
412.093	0.105	824186	keystroke	c	n/a
412.228	0.09	824456	keystroke	k	n/a
412.423	0.075	824846	keystroke	i	n/a
412.528	0.09	825056	keystroke	e	n/a
412.678	0.105	825356	keystroke	Key.space	n/a
413.009	0.089	826018	keystroke	i	n/a
413.294	0.09	826588	keystroke	e	n/a
413.458	0.09	826916	keystroke	e	n/a
413.638	0.09	827276	keystroke	e	n/a
414.358	0.105	828716	keystroke	Key.space	n/a
414.583	0.105	829166	keystroke	s	n/a
414.838	0.06	829676	keystroke	u	n/a
414.913	0.045	829826	keystroke	f	n/a
415.048	0.075	830096	keystroke	f	n/a
415.213	0.15	830426	keystroke	e	n/a
415.318	0.105	830636	keystroke	r	n/a
415.468	0.105	830936	keystroke	Key.space	n/a
415.693	0.0905	831386	keystroke	c	n/a
415.814	0.1195	831628	keystroke	o	n/a
415.9035	0.105	831807	keystroke	u	n/a
416.0385	0.075	832077	keystroke	r	n/a
416.2335	0.09	832467	keystroke	t	n/a
416.8335	0.105	833667	keystroke	Key.enter	n/a
416.943	7.813	833886	prompt	n/a	configuration throw initially entire\n
417.5535	0.09	835107	keystroke	c	n/a
417.6885	0.105	835377	keystroke	o	n/a
417.7785	0.12	835557	keystroke	n	n/a
417.8835	0.075	835767	keystroke	f	n/a
418.0185	0.0895	836037	keystroke	i	n/a
418.244	0.059	836488	keystroke	g	n/a
418.393	0.06	836786	keystroke	u	n/a
418.558	0.09	837116	keystroke	r	n/a
418.753	0.165	837506	keystroke	a	n/a
418.873	0.105	837746	keystroke	t	n/a
418.963	0.165	837926	keystroke	i	n/a
419.023	0.135	838046	keystroke	o	n/a
419.098	0.12	838196	keystroke	n	n/a
419.668	0.12	839336	keystroke	Key.space	n/a
419.893	0.09	839786	keystroke	t	n/a
420.118	0.06	840236	keystroke	h	n/a
420.193	0.075	840386	keystroke	r	n/a
420.313	0.105	840626	keystroke	o	n/a
420.448	0.09	840896	keystroke	w	n/a
420.928	0.105	841856	keystroke	Key.space	n/a
421.213	0.1205	842426	keystroke	i	n/a
421.2885	0.135	842577	keystroke	n	n/a
421.4835	0.09	842967	keystroke	i	n/a
421.978	0.0755	843956	keystroke	t	n/a
422.1145	0.089	844229	keystroke	i	n/a
422.2185	0.105	844437	keystroke	a	n/a
422.3985	0.09	844797	keystroke	l	n/a
422.5935	0.0755	845187	keystroke	l	n/a
422.954	0.075	845908	keystroke	y	n/a
423.089	0.104	846178	keystroke	Key.space	n/a
423.509	0.09	847018	keystroke	e	n/a
423.674	0.105	847348	keystroke	n	n/a
423.809	0.074	847618	keystroke	t	n/a
423.913	0.09	847826	keystroke	i	n/a
424.049	0.104	848098	keystroke	r	n/a
424.093	0.105	848186	keystroke	e	n/a
424.6935	0.06	849387	keystroke	Key.enter	n/a
424.7595	12.836	849519	prompt	n/a	prizes hydrocodone finnish jokes\n
425.5485	0.015	851097	keystroke	p	n/a
425.5785	0.135	851157	keystroke	r	n/a
425.6835	0.105	851367	keystroke	e	n/a
426.1935	0.09	852387	keystroke	Key.backspace	n/a
426.3585	0.09	852717	keystroke	i	n/a
426.4785	0.135	852957	keystroke	z	n/a
426.6735	0.09	853347	keystroke	e	n/a
427.0035	0.09	854007	keystroke	s	n/a
427.4985	0.105	854997	keystroke	Key.space	n/a
427.9935	0.105	855987	keystroke	h	n/a
428.3835	0.075	856767	keystroke	y	n/a
428.8935	0.075	857787	keystroke	d	n/a
429.0585	0.105	858117	keystroke	r	n/a
429.2385	0.12	858477	keystroke	o	n/a
429.5685	0.09	859137	keystroke	c	n/a
429.7335	0.105	859467	keystroke	o	n/a
429.9135	0.075	859827	keystroke	d	n/a
430.1235	0.105	860247	keystroke	o	n/a
430.3035	0.075	860607	keystroke	d	n/a
430.6035	0.165	861207	keystroke	o	n/a
430.7385	0.12	861477	keystroke	n	n/a
431.2185	0.06	862437	keystroke	Key.backspace	n/a
431.3685	0.06	862737	keystroke	Key.backspace	n/a
431.5185	0.06	863037	keystroke	Key.backspace	n/a
431.6535	0.105	863307	keystroke	o	n/a
431.7435	0.12	863487	keystroke	n	n/a
432.433	0.105	864866	keystroke	Key.backspace	n/a
432.628	0.075	865256	keystroke	Key.backspace	n/a
432.793	0.105	865586	keystroke	n	n/a
433.003	0.06	866006	keystroke	e	n/a
433.438	0.075	866876	keystroke	Key.space	n/a
434.699	0.089	869398	keystroke	f	n/a
434.833	0.09	869666	keystroke	i	n/a
435.013	0.09	870026	keystroke	n	n/a
435.193	0.09	870386	keystroke	n	n/a
435.344	0.105	870688	keystroke	i	n/a
435.508	0.09	871016	keystroke	s	n/a
435.583	0.075	871166	keystroke	h	n/a
435.763	0.09	871526	keystroke	Key.space	n/a
436.004	0.119	872008	keystroke	j	n/a
436.168	0.1205	872336	keystroke	o	n/a
436.4235	0.105	872847	keystroke	k	n/a
436.9185	0.09	873837	keystroke	e	n/a
437.1735	0.075	874347	keystroke	s	n/a
437.5035	0.09	875007	keystroke	Key.enter	n/a
437.6005	12.3255	875201	prompt	n/a	silk city vocabulary greatly\n
438.8385	0.135	877677	keystroke	s	n/a
438.9885	0.09	877977	keystroke	i	n/a
439.1835	0.105	878367	keystroke	l	n/a
439.4535	0.09	878907	keystroke	k	n/a
439.7985	0.09	879597	keystroke	Key.space	n/a
440.0385	0.075	880077	keystroke	c	n/a
440.2935	0.105	880587	keystroke	i	n/a
440.4285	0.075	880857	keystroke	t	n/a
440.6085	0.075	881217	keystroke	y	n/a
440.6985	0.075	881397	keystroke	Key.space	n/a
440.9535	0.075	881907	keystroke	c	n/a
441.5835	0.09	883167	keystroke	Key.backspace	n/a
441.809	0.075	883618	keystroke	v	n/a
441.974	0.075	883948	keystroke	o	n/a
442.289	0.06	884578	keystroke	c	n/a
442.469	0.1195	884938	keystroke	a	n/a
442.649	0.059	885298	keystroke	c	n/a
443.0835	0.09	886167	keystroke	Key.backspace	n/a
443.2485	0.09	886497	keystroke	b	n/a
443.4435	0.075	886887	keystroke	u	n/a
443.6685	0.105	887337	keystroke	l	n/a
443.8035	0.195	887607	keystroke	a	n/a
443.9985	0.075	887997	keystroke	r	n/a
444.2085	0.06	888417	keystroke	y	n/a
444.5385	0.09	889077	keystroke	Key.space	n/a
444.8235	0.075	889647	keystroke	g	n/a
444.8685	0.015	889737	keystroke	h	n/a
444.9885	0.15	889977	keystroke	r	n/a
445.1085	0.12	890217	keystroke	e	n/a
445.1835	0.135	890367	keystroke	a	n/a
445.2735	0.105	890547	keystroke	t	n/a
445.3935	0.105	890787	keystroke	l	n/a
446.0685	0.09	892137	keystroke	Key.backspace	n/a
446.2335	0.075	892467	keystroke	Key.backspace	n/a
446.3985	0.06	892797	keystroke	Key.backspace	n/a
446.5335	0.075	893067	keystroke	Key.backspace	n/a
446.6985	0.06	893397	keystroke	Key.backspace	n/a
446.8335	0.09	893667	keystroke	Key.backspace	n/a
446.9685	0.1195	893937	keystroke	r	n/a
447.044	0.09	894088	keystroke	e	n/a
448.318	0.165	896636	keystroke	a	n/a
448.513	0.09	897026	keystroke	t	n/a
448.798	0.135	897596	keystroke	l	n/a
449.099	0.074	898198	keystroke	y	n/a
449.833	0.0905	899666	keystroke	Key.enter	n/a
449.929	10.601	899858	prompt	n/a	merchandise smoke barbados cats\n
450.6585	0.031	901317	keystroke	m	n/a
450.6735	0.12	901347	keystroke	e	n/a
450.7485	0.09	901497	keystroke	r	n/a
450.9735	0.075	901947	keystroke	c	n/a
451.1235	0.06	902247	keystroke	h	n/a
451.2285	0.135	902457	keystroke	a	n/a
451.3485	0.075	902697	keystroke	n	n/a
451.7385	0.09	903477	keystroke	d	n/a
451.9485	0.075	903897	keystroke	i	n/a
452.0385	0.135	904077	keystroke	z	n/a
452.2785	0.075	904557	keystroke	e	n/a
452.6535	0.075	905307	keystroke	Key.backspace	n/a
452.8035	0.075	905607	keystroke	Key.backspace	n/a
452.9085	0.105	905817	keystroke	s	n/a
453.0585	0.09	906117	keystroke	e	n/a
453.3885	0.09	906777	keystroke	Key.space	n/a
453.7185	0.075	907437	keystroke	s	n/a
453.8985	0.0905	907797	keystroke	m	n/a
454.124	0.12	908248	keystroke	o	n/a
454.499	0.105	908998	keystroke	k	n/a
454.649	0.105	909298	keystroke	e	n/a
455.098	0.03	910196	keystroke	Key.space	n/a
455.308	0.061	910616	keystroke	b	n/a
455.534	0.179	911068	keystroke	a	n/a
455.654	0.075	911308	keystroke	r	n/a
455.924	0.074	911848	keystroke	b	n/a
456.149	0.134	912298	keystroke	a	n/a
456.508	0.09	913016	keystroke	d	n/a
456.778	0.091	913556	keystroke	o	n/a
457.379	0.1045	914758	keystroke	s	n/a
457.5585	0.09	915117	keystroke	Key.space	n/a
457.7985	0.06	915597	keystroke	c	n/a
457.9635	0.1795	915927	keystroke	a	n/a
458.203	0.09	916406	keystroke	t	n/a
458.488	0.09	916976	keystroke	s	n/a
460.4235	0.105	920847	keystroke	Key.enter	n/a
460.533	7.137	921066	prompt	n/a	arrest adjacent nancy forums\n
460.9935	0.165	921987	keystroke	a	n/a
461.2035	0.06	922407	keystroke	r	n/a
461.3535	0.105	922707	keystroke	r	n/a
461.4735	0.135	922947	keystroke	e	n/a
461.5785	0.15	923157	keystroke	s	n/a
461.7585	0.105	923517	keystroke	t	n/a
461.9985	0.075	923997	keystroke	Key.space	n/a
462.374	0.119	924748	keystroke	a	n/a
462.583	0.0605	925166	keystroke	d	n/a
462.8085	0.12	925617	keystroke	j	n/a
462.9735	0.09	925947	keystroke	e	n/a
463.3935	0.09	926787	keystroke	Key.backspace	n/a
463.513	0.105	927026	keystroke	a	n/a
463.693	0.06	927386	keystroke	c	n/a
463.903	0.09	927806	keystroke	e	n/a
464.0385	0.105	928077	keystroke	n	n/a
464.1585	0.09	928317	keystroke	t	n/a
464.6835	0.105	929367	keystroke	Key.space	n/a
465.0585	0.09	930117	keystroke	n	n/a
465.1035	0.105	930207	keystroke	a	n/a
465.2235	0.105	930447	keystroke	n	n/a
465.4185	0.06	930837	keystroke	c	n/a
465.6435	0.075	931287	keystroke	y	n/a
465.9585	0.105	931917	keystroke	Key.space	n/a
466.1985	0.09	932397	keystroke	f	n/a
466.3635	0.12	932727	keystroke	o	n/a
466.5285	0.09	933057	keystroke	r	n/a
466.8435	0.06	933687	keystroke	u	n/a
467.0835	0.105	934167	keystroke	m	n/a
467.2935	0.075	934587	keystroke	s	n/a
467.5935	0.0745	935187	keystroke	Key.enter	n/a
467.6735	6.387	935347	prompt	n/a	stay arising participate regional\n
468.2685	0.105	936537	keystroke	s	n/a
468.4335	0.075	936867	keystroke	t	n/a
468.5235	0.12	937047	keystroke	a	n/a
468.7335	0.075	937467	keystroke	y	n/a
468.8385	0.09	937677	keystroke	Key.space	n/a
468.9885	0.18	937977	keystroke	a	n/a
469.1385	0.105	938277	keystroke	r	n/a
469.2885	0.075	938577	keystroke	i	n/a
469.4385	0.075	938877	keystroke	s	n/a
469.5285	0.135	939057	keystroke	i	n/a
469.6335	0.15	939267	keystroke	n	n/a
469.7985	0.09	939597	keystroke	g	n/a
469.8735	0.105	939747	keystroke	Key.space	n/a
470.1435	0.075	940287	keystroke	p	n/a
470.2335	0.15	940467	keystroke	a	n/a
470.3385	0.06	940677	keystroke	r	n/a
470.5185	0.09	941037	keystroke	t	n/a
470.6535	0.09	941307	keystroke	i	n/a
470.8335	0.075	941667	keystroke	c	n/a
470.9235	0.135	941847	keystroke	i	n/a
471.0435	0.135	942087	keystroke	p	n/a
471.5085	0.15	943017	keystroke	a	n/a
471.6285	0.12	943257	keystroke	t	n/a
471.7335	0.12	943467	keystroke	e	n/a
472.303	0.075	944606	keystroke	Key.space	n/a
472.664	0.09	945328	keystroke	r	n/a
472.708	0.105	945416	keystroke	e	n/a
472.9485	0.075	945897	keystroke	g	n/a
473.0535	0.1495	946107	keystroke	i	n/a
473.158	0.12	946316	keystroke	o	n/a
473.233	0.12	946466	keystroke	n	n/a
473.368	0.105	946736	keystroke	a	n/a
473.488	0.09	946976	keystroke	l	n/a
473.968	0.09	947936	keystroke	Key.enter	n/a
474.0635	6.686	948127	prompt	n/a	newcastle dish nylon response\n
474.703	0.09	949406	keystroke	n	n/a
474.808	0.12	949616	keystroke	e	n/a
474.868	0.12	949736	keystroke	w	n/a
475.469	0.0435	950938	keystroke	c	n/a
475.5585	0.134	951117	keystroke	a	n/a
475.6485	0.1495	951297	keystroke	s	n/a
475.813	0.091	951626	keystroke	t	n/a
475.978	0.136	951956	keystroke	l	n/a
476.399	0.074	952798	keystroke	e	n/a
476.938	0.075	953876	keystroke	Key.space	n/a
477.2385	0.06	954477	keystroke	d	n/a
477.3585	0.075	954717	keystroke	i	n/a
477.4635	0.09	954927	keystroke	s	n/a
477.5835	0.075	955167	keystroke	h	n/a
477.7035	0.09	955407	keystroke	Key.space	n/a
478.1235	0.075	956247	keystroke	n	n/a
478.3485	0.075	956697	keystroke	y	n/a
478.5885	0.105	957177	keystroke	l	n/a
478.7835	0.18	957567	keystroke	o	n/a
478.9485	0.105	957897	keystroke	n	n/a
479.1285	0.12	958257	keystroke	Key.space	n/a
479.3835	0.15	958767	keystroke	r	n/a
479.4585	0.165	958917	keystroke	e	n/a
479.5785	0.12	959157	keystroke	s	n/a
479.7435	0.1345	959487	keystroke	p	n/a
479.8635	0.21	959727	keystroke	o	n/a
480.0285	0.1195	960057	keystroke	n	n/a
480.163	0.18	960326	keystroke	s	n/a
480.313	0.12	960626	keystroke	e	n/a
480.658	0.09	961316	keystroke	Key.enter	n/a
480.754	8.666	961508	prompt	n/a	later tribute treasurer nested\n
481.513	0.105	963026	keystroke	l	n/a
481.603	0.12	963206	keystroke	a	n/a
481.678	0.105	963356	keystroke	t	n/a
481.843	0.12	963686	keystroke	e	n/a
481.919	0.1795	963838	keystroke	r	n/a
482.0685	0.105	964137	keystroke	Key.space	n/a
482.4285	0.075	964857	keystroke	t	n/a
482.5935	0.105	965187	keystroke	r	n/a
482.7135	0.075	965427	keystroke	i	n/a
482.8935	0.09	965787	keystroke	b	n/a
483.0285	0.075	966057	keystroke	u	n/a
483.1775	0.12	966355	keystroke	t	n/a
483.2535	0.12	966507	keystroke	e	n/a
483.778	0.0905	967556	keystroke	Key.space	n/a
484.0335	0.089	968067	keystroke	t	n/a
484.2425	0.15	968485	keystroke	r	n/a
484.3485	0.135	968697	keystroke	e	n/a
484.4535	0.194	968907	keystroke	a	n/a
484.7675	0.075	969535	keystroke	s	n/a
485.0675	0.045	970135	keystroke	u	n/a
485.1575	0.075	970315	keystroke	r	n/a
485.2025	0.135	970405	keystroke	e	n/a
485.5775	0.15	971155	keystroke	e	n/a
485.7125	0.12	971425	keystroke	r	n/a
486.2225	0.075	972445	keystroke	Key.backspace	n/a
486.3725	0.075	972745	keystroke	Key.backspace	n/a
486.8825	0.09	973765	keystroke	r	n/a
487.933	0.1205	975866	keystroke	Key.space	n/a
488.1285	0.105	976257	keystroke	n	n/a
488.2335	0.105	976467	keystroke	e	n/a
488.3685	0.15	976737	keystroke	s	n/a
488.5035	0.105	977007	keystroke	t	n/a
488.6235	0.075	977247	keystroke	e	n/a
488.8035	0.075	977607	keystroke	d	n/a
489.3285	0.09	978657	keystroke	Key.enter	n/a
489.4235	10.4065	978847	prompt	n/a	leslie deutschland saving haven't\n
490.049	0.104	980098	keystroke	l	n/a
490.1985	0.09	980397	keystroke	e	n/a
490.3625	0.105	980725	keystroke	s	n/a
490.6935	0.165	981387	keystroke	l	n/a
490.8275	0.106	981655	keystroke	i	n/a
490.9785	0.1495	981957	keystroke	e	n/a
491.1125	0.105	982225	keystroke	Key.space	n/a
491.5625	0.06	983125	keystroke	d	n/a
491.7435	0.075	983487	keystroke	e	n/a
493.3925	0.09	986785	keystroke	u	n/a
493.9175	0.075	987835	keystroke	t	n/a
494.188	0.061	988376	keystroke	s	n/a
494.398	0.075	988796	keystroke	c	n/a
494.608	0.075	989216	keystroke	h	n/a
494.863	0.09	989726	keystroke	l	n/a
494.968	0.12	989936	keystroke	a	n/a
495.103	0.105	990206	keystroke	n	n/a
495.298	0.076	990596	keystroke	d	n/a
496.498	0.075	992996	keystroke	Key.space	n/a
497.188	0.075	994376	keystroke	s	n/a
497.353	0.135	994706	keystroke	a	n/a
497.458	0.09	994916	keystroke	v	n/a
497.578	0.12	995156	keystroke	i	n/a
497.683	0.09	995366	keystroke	n	n/a
497.803	0.091	995606	keystroke	g	n/a
497.953	0.105	995906	keystroke	s	n/a
498.088	0.075	996176	keystroke	Key.space	n/a
498.253	0.09	996506	keystroke	h	n/a
498.328	0.136	996656	keystroke	a	n/a
498.418	0.09	996836	keystroke	v	n/a
498.568	0.105	997136	keystroke	e	n/a
498.643	0.135	997286	keystroke	n	n/a
498.779	0.15	997558	keystroke	'	n/a
499.153	0.09	998306	keystroke	t	n/a
499.753	0.075	999506	keystroke	Key.enter	n/a
499.834	7.346	999668	prompt	n/a	column proceed frank greatest\n
500.548	0.061	1001096	keystroke	c	n/a
500.623	0.105	1001246	keystroke	o	n/a
500.848	0.12	1001696	keystroke	l	n/a
500.998	0.0905	1001996	keystroke	u	n/a
501.223	0.105	1002446	keystroke	m	n/a
501.463	0.075	1002926	keystroke	n	n/a
501.7035	0.105	1003407	keystroke	Key.space	n/a
502.0335	0.09	1004067	keystroke	p	n/a
502.1685	0.075	1004337	keystroke	r	n/a
502.2585	0.09	1004517	keystroke	o	n/a
503.0235	0.06	1006047	keystroke	c	n/a
503.2335	0.09	1006467	keystroke	e	n/a
503.4435	0.075	1006887	keystroke	e	n/a
503.5785	0.045	1007157	keystroke	e	n/a
504.238	0.105	1008476	keystroke	Key.backspace	n/a
504.448	0.06	1008896	keystroke	d	n/a
504.643	0.09	1009286	keystroke	Key.space	n/a
504.913	0.075	1009826	keystroke	f	n/a
505.093	0.075	1010186	keystroke	r	n/a
505.183	0.105	1010366	keystroke	a	n/a
505.303	0.075	1010606	keystroke	n	n/a
505.528	0.09	1011056	keystroke	k	n/a
505.633	0.09	1011266	keystroke	Key.space	n/a
505.813	0.09	1011626	keystroke	g	n/a
506.038	0.105	1012076	keystroke	r	n/a
506.098	0.12	1012196	keystroke	e	n/a
506.188	0.1495	1012376	keystroke	a	n/a
506.2775	0.12	1012555	keystroke	t	n/a
506.4425	0.18	1012885	keystroke	e	n/a
506.5935	0.149	1013187	keystroke	s	n/a
506.7435	0.089	1013487	keystroke	t	n/a
507.103	0.075	1014206	keystroke	Key.enter	n/a
507.183	6.7615	1014366	prompt	n/a	newest monica now newark\n
507.868	0.105	1015736	keystroke	n	n/a
507.974	0.12	1015948	keystroke	e	n/a
508.033	0.12	1016066	keystroke	w	n/a
508.303	0.135	1016606	keystroke	e	n/a
508.543	0.106	1017086	keystroke	s	n/a
508.723	0.12	1017446	keystroke	t	n/a
508.858	0.09	1017716	keystroke	Key.space	n/a
509.008	0.12	1018016	keystroke	m	n/a
509.143	0.12	1018286	keystroke	o	n/a
509.293	0.15	1018586	keystroke	n	n/a
509.533	0.075	1019066	keystroke	i	n/a
509.728	0.075	1019456	keystroke	c	n/a
509.893	0.15	1019786	keystroke	a	n/a
510.028	0.105	1020056	keystroke	Key.space	n/a
510.253	0.12	1020506	keystroke	n	n/a
510.358	0.12	1020716	keystroke	o	n/a
510.538	0.105	1021076	keystroke	w	n/a
510.763	0.105	1021526	keystroke	Key.space	n/a
511.4385	0.12	1022877	keystroke	n	n/a
511.5285	0.135	1023057	keystroke	e	n/a
511.6185	0.12	1023237	keystroke	w	n/a
512.3085	0.165	1024617	keystroke	a	n/a
512.4435	0.105	1024887	keystroke	r	n/a
512.9685	0.075	1025937	keystroke	k	n/a
513.8385	0.105	1027677	keystroke	Key.enter	n/a
513.9485	9.506	1027897	prompt	n/a	ongoing sharp nelson trusted\n
514.6635	0.09	1029327	keystroke	o	n/a
514.7835	0.12	1029567	keystroke	n	n/a
515.1885	0.045	1030377	keystroke	g	n/a
515.2935	0.195	1030587	keystroke	o	n/a
515.4285	0.135	1030857	keystroke	i	n/a
515.5035	0.12	1031007	keystroke	n	n/a
515.6535	0.15	1031307	keystroke	g	n/a
515.8485	0.15	1031697	keystroke	Key.space	n/a
516.2235	0.075	1032447	keystroke	s	n/a
516.3435	0.075	1032687	keystroke	h	n/a
516.4335	0.135	1032867	keystroke	a	n/a
516.5235	0.09	1033047	keystroke	r	n/a
516.9585	0.105	1033917	keystroke	p	n/a
517.1535	0.105	1034307	keystroke	Key.space	n/a
517.5735	0.09	1035147	keystroke	n	n/a
517.6485	0.075	1035297	keystroke	e	n/a
517.8435	0.105	1035687	keystroke	l	n/a
518.0685	0.075	1036137	keystroke	s	n/a
518.233	0.135	1036466	keystroke	o	n/a
518.788	0.09	1037576	keystroke	n	n/a
518.983	0.105	1037966	keystroke	Key.space	n/a
519.268	0.075	1038536	keystroke	t	n/a
519.448	0.075	1038896	keystroke	r	n/a
519.598	0.075	1039196	keystroke	u	n/a
519.733	0.12	1039466	keystroke	s	n/a
519.868	0.12	1039736	keystroke	t	n/a
519.973	0.09	1039946	keystroke	e	n/a
520.183	0.09	1040366	keystroke	d	n/a
523.3955	0.058	1046791	keystroke	Key.enter	n/a
523.4575	8.9075	1046915	prompt	n/a	famous quarters matt latina\n
524.0235	0.089	1048047	keystroke	f	n/a
524.1435	0.1645	1048287	keystroke	a	n/a
524.293	0.076	1048586	keystroke	m	n/a
524.413	0.15	1048826	keystroke	o	n/a
524.533	0.106	1049066	keystroke	u	n/a
524.819	0.089	1049638	keystroke	s	n/a
524.923	0.105	1049846	keystroke	Key.space	n/a
525.808	0.09	1051616	keystroke	g	n/a
526.333	0.075	1052666	keystroke	q	n/a
526.738	0.075	1053476	keystroke	Key.backspace	n/a
526.903	0.06	1053806	keystroke	Key.backspace	n/a
527.053	0.09	1054106	keystroke	q	n/a
527.218	0.075	1054436	keystroke	u	n/a
527.354	0.149	1054708	keystroke	a	n/a
527.563	0.09	1055126	keystroke	r	n/a
527.803	0.075	1055606	keystroke	t	n/a
527.998	0.135	1055996	keystroke	e	n/a
528.088	0.135	1056176	keystroke	r	n/a
528.208	0.105	1056416	keystroke	s	n/a
528.808	0.09	1057616	keystroke	Key.space	n/a
529.1075	0.105	1058215	keystroke	n	n/a
529.663	0.105	1059326	keystroke	Key.backspace	n/a
529.888	0.09	1059776	keystroke	m	n/a
530.023	0.18	1060046	keystroke	a	n/a
530.173	0.076	1060346	keystroke	t	n/a
530.3235	0.075	1060647	keystroke	t	n/a
530.9385	0.09	1061877	keystroke	Key.space	n/a
531.0885	0.135	1062177	keystroke	l	n/a
531.2085	0.12	1062417	keystroke	a	n/a
531.2835	0.09	1062567	keystroke	t	n/a
531.4185	0.104	1062837	keystroke	i	n/a
531.4935	0.12	1062987	keystroke	n	n/a
531.6875	0.136	1063375	keystroke	a	n/a
532.2575	0.105	1064515	keystroke	Key.enter	n/a
532.3685	7.826	1064737	prompt	n/a	pulled hereby stones priorities\n
533.1125	0.12	1066225	keystroke	p	n/a
533.3075	0.09	1066615	keystroke	u	n/a
533.5185	0.075	1067037	keystroke	l	n/a
533.6675	0.105	1067335	keystroke	l	n/a
533.8035	0.09	1067607	keystroke	e	n/a
534.0275	0.09	1068055	keystroke	d	n/a
534.1475	0.105	1068295	keystroke	Key.space	n/a
534.388	0.0745	1068776	keystroke	h	n/a
534.5225	0.121	1069045	keystroke	e	n/a
534.6125	0.105	1069225	keystroke	r	n/a
534.7335	0.104	1069467	keystroke	e	n/a
535.0025	0.06	1070005	keystroke	b	n/a
535.4075	0.09	1070815	keystroke	y	n/a
535.888	0.12	1071776	keystroke	Key.space	n/a
536.2625	0.12	1072525	keystroke	s	n/a
536.3975	0.0905	1072795	keystroke	t	n/a
536.5035	0.134	1073007	keystroke	o	n/a
536.6085	0.12	1073217	keystroke	n	n/a
536.7885	0.119	1073577	keystroke	e	n/a
537.0735	0.074	1074147	keystroke	s	n/a
537.2975	0.1055	1074595	keystroke	Key.space	n/a
537.643	0.135	1075286	keystroke	p	n/a
537.808	0.075	1075616	keystroke	r	n/a
537.928	0.12	1075856	keystroke	i	n/a
538.198	0.105	1076396	keystroke	o	n/a
538.453	0.075	1076906	keystroke	r	n/a
538.738	0.09	1077476	keystroke	i	n/a
538.903	0.075	1077806	keystroke	t	n/a
539.173	0.105	1078346	keystroke	i	n/a
539.293	0.165	1078586	keystroke	e	n/a
539.413	0.105	1078826	keystroke	s	n/a
540.0885	0.105	1080177	keystroke	Key.enter	n/a
540.2005	10.119	1080401	prompt	n/a	accompanied mild perth boutique\n
541.258	0.12	1082516	keystroke	a	n/a
541.573	0.045	1083146	keystroke	c	n/a
541.723	0.075	1083446	keystroke	c	n/a
542.113	0.135	1084226	keystroke	o	n/a
542.338	0.15	1084676	keystroke	m	n/a
542.548	0.105	1085096	keystroke	p	n/a
542.728	0.12	1085456	keystroke	a	n/a
542.833	0.105	1085666	keystroke	n	n/a
543.028	0.09	1086056	keystroke	i	n/a
543.178	0.075	1086356	keystroke	e	n/a
543.418	0.09	1086836	keystroke	d	n/a
543.613	0.09	1087226	keystroke	Key.space	n/a
543.823	0.165	1087646	keystroke	m	n/a
543.973	0.105	1087946	keystroke	i	n/a
544.123	0.135	1088246	keystroke	l	n/a
544.438	0.075	1088876	keystroke	d	n/a
544.558	0.1195	1089116	keystroke	Key.space	n/a
544.8575	0.105	1089715	keystroke	p	n/a
544.9475	0.135	1089895	keystroke	e	n/a
545.0375	0.105	1090075	keystroke	r	n/a
545.2775	0.105	1090555	keystroke	t	n/a
545.4885	0.104	1090977	keystroke	h	n/a
545.6825	0.09	1091365	keystroke	Key.space	n/a
546.6735	0.075	1093347	keystroke	b	n/a
546.8385	0.105	1093677	keystroke	o	n/a
547.3185	0.105	1094637	keystroke	u	n/a
548.3535	0.075	1096707	keystroke	t	n/a
548.6985	0.075	1097397	keystroke	i	n/a
549.2685	0.12	1098537	keystroke	q	n/a
549.5085	0.074	1099017	keystroke	u	n/a
549.6425	0.106	1099285	keystroke	e	n/a
550.2425	0.075	1100485	keystroke	Key.enter	n/a
550.323	14.0665	1100646	prompt	n/a	strategic printers relax drivers\n
550.9185	0.09	1101837	keystroke	s	n/a
551.0835	0.089	1102167	keystroke	t	n/a
551.2335	0.24	1102467	keystroke	a	n/a
551.3835	0.044	1102767	keystroke	r	n/a
552.283	0.105	1104566	keystroke	Key.backspace	n/a
552.538	0.075	1105076	keystroke	t	n/a
552.958	0.075	1105916	keystroke	e	n/a
553.183	0.09	1106366	keystroke	g	n/a
553.333	0.105	1106666	keystroke	i	n/a
553.528	0.09	1107056	keystroke	c	n/a
554.098	0.105	1108196	keystroke	Key.space	n/a
554.428	0.075	1108856	keystroke	p	n/a
554.518	0.105	1109036	keystroke	r	n/a
554.638	0.105	1109276	keystroke	i	n/a
554.728	0.135	1109456	keystroke	n	n/a
554.848	0.09	1109696	keystroke	t	n/a
554.983	0.135	1109966	keystroke	e	n/a
555.058	0.21	1110116	keystroke	r	n/a
555.763	0.075	1111526	keystroke	Key.backspace	n/a
555.9425	0.06	1111885	keystroke	Key.backspace	n/a
556.0925	0.061	1112185	keystroke	Key.backspace	n/a
556.2435	0.059	1112487	keystroke	Key.backspace	n/a
556.3925	0.06	1112785	keystroke	Key.backspace	n/a
556.6185	0.014	1113237	keystroke	Key.backspace	n/a
556.6925	0.06	1113385	keystroke	Key.backspace	n/a
556.8435	0.06	1113687	keystroke	Key.backspace	n/a
556.9935	0.074	1113987	keystroke	Key.backspace	n/a
557.1425	0.075	1114285	keystroke	Key.backspace	n/a
557.2925	0.061	1114585	keystroke	Key.backspace	n/a
557.4585	0.059	1114917	keystroke	Key.backspace	n/a
557.6225	0.06	1115245	keystroke	Key.backspace	n/a
557.8185	0.059	1115637	keystroke	Key.backspace	n/a
558.2385	0.09	1116477	keystroke	r	n/a
558.4035	0.18	1116807	keystroke	a	n/a
558.5685	0.09	1117137	keystroke	t	n/a
558.7185	0.09	1117437	keystroke	e	n/a
558.8835	0.105	1117767	keystroke	g	n/a
559.1235	0.075	1118247	keystroke	i	n/a
559.2585	0.075	1118517	keystroke	c	n/a
559.4825	0.075	1118965	keystroke	Key.space	n/a
559.9185	0.09	1119837	keystroke	p	n/a
560.0385	0.075	1120077	keystroke	r	n/a
560.1585	0.135	1120317	keystroke	i	n/a
560.2785	0.105	1120557	keystroke	n	n/a
560.4135	0.075	1120827	keystroke	t	n/a
560.5935	0.15	1121187	keystroke	e	n/a
560.7285	0.135	1121457	keystroke	r	n/a
560.8785	0.075	1121757	keystroke	s	n/a
560.9985	0.105	1121997	keystroke	Key.space	n/a
561.2985	0.105	1122597	keystroke	r	n/a
561.358	0.1205	1122716	keystroke	e	n/a
561.703	0.075	1123406	keystroke	x	n/a
562.1235	0.0745	1124247	keystroke	Key.backspace	n/a
562.319	0.119	1124638	keystroke	l	n/a
562.408	0.105	1124816	keystroke	a	n/a
562.633	0.09	1125266	keystroke	x	n/a
562.842	0.105	1125684	keystroke	Key.space	n/a
563.053	0.09	1126106	keystroke	d	n/a
563.233	0.09	1126466	keystroke	r	n/a
563.353	0.09	1126706	keystroke	i	n/a
563.473	0.074	1126946	keystroke	v	n/a
563.623	0.165	1127246	keystroke	e	n/a
563.698	0.165	1127396	keystroke	r	n/a
563.893	0.09	1127786	keystroke	s	n/a
564.3125	0.075	1128625	keystroke	Key.enter	n/a
564.397	6.8785	1128794	prompt	n/a	achievements ends engaged prostate\n
565.0025	0.105	1130005	keystroke	a	n/a
565.2425	0.045	1130485	keystroke	c	n/a
565.3475	0.075	1130695	keystroke	h	n/a
565.5275	0.105	1131055	keystroke	i	n/a
565.6625	0.09	1131325	keystroke	e	n/a
565.933	0.09	1131866	keystroke	v	n/a
566.113	0.06	1132226	keystroke	e	n/a
566.323	0.075	1132646	keystroke	m	n/a
566.413	0.09	1132826	keystroke	e	n/a
566.548	0.075	1133096	keystroke	n	n/a
566.638	0.0895	1133276	keystroke	t	n/a
566.968	0.09	1133936	keystroke	s	n/a
567.103	0.1045	1134206	keystroke	Key.space	n/a
567.4025	0.075	1134805	keystroke	e	n/a
567.5075	0.09	1135015	keystroke	n	n/a
567.6575	0.076	1135315	keystroke	d	n/a
567.9125	0.075	1135825	keystroke	s	n/a
568.0175	0.105	1136035	keystroke	Key.space	n/a
568.1825	0.075	1136365	keystroke	e	n/a
568.2875	0.09	1136575	keystroke	n	n/a
568.4075	0.06	1136815	keystroke	g	n/a
568.5125	0.165	1137025	keystroke	a	n/a
568.6175	0.105	1137235	keystroke	g	n/a
568.7825	0.076	1137565	keystroke	e	n/a
569.0075	0.075	1138015	keystroke	d	n/a
569.1725	0.09	1138345	keystroke	Key.space	n/a
569.5625	0.075	1139125	keystroke	p	n/a
569.6825	0.075	1139365	keystroke	r	n/a
569.8625	0.105	1139725	keystroke	o	n/a
570.1175	0.105	1140235	keystroke	s	n/a
570.2675	0.09	1140535	keystroke	t	n/a
570.4025	0.165	1140805	keystroke	a	n/a
570.5225	0.105	1141045	keystroke	t	n/a
570.6125	0.09	1141225	keystroke	e	n/a
571.1825	0.09	1142365	keystroke	Key.enter	n/a
571.2785	7.421	1142557	prompt	n/a	spiritual positioning drunk scope\n
571.8725	0.12	1143745	keystroke	s	n/a
572.0525	0.105	1144105	keystroke	p	n/a
572.2625	0.075	1144525	keystroke	i	n/a
572.3825	0.06	1144765	keystroke	r	n/a
572.4875	0.09	1144975	keystroke	i	n/a
572.608	0.075	1145216	keystroke	t	n/a
573.418	0.075	1146836	keystroke	u	n/a
573.508	0.105	1147016	keystroke	a	n/a
573.673	0.105	1147346	keystroke	l	n/a
574.228	0.09	1148456	keystroke	Key.space	n/a
574.588	0.12	1149176	keystroke	p	n/a
574.753	0.12	1149506	keystroke	o	n/a
574.903	0.09	1149806	keystroke	s	n/a
575.083	0.09	1150166	keystroke	i	n/a
575.188	0.075	1150376	keystroke	t	n/a
575.278	0.21	1150556	keystroke	i	n/a
575.353	0.165	1150706	keystroke	o	n/a
575.458	0.135	1150916	keystroke	n	n/a
575.668	0.105	1151336	keystroke	i	n/a
575.758	0.105	1151516	keystroke	n	n/a
575.938	0.105	1151876	keystroke	g	n/a
576.058	0.105	1152116	keystroke	Key.space	n/a
576.268	0.09	1152536	keystroke	d	n/a
576.434	0.104	1152868	keystroke	r	n/a
576.553	0.075	1153106	keystroke	u	n/a
576.763	0.135	1153526	keystroke	n	n/a
576.958	0.105	1153916	keystroke	k	n/a
577.123	0.105	1154246	keystroke	Key.space	n/a
577.318	0.09	1154636	keystroke	s	n/a
577.528	0.075	1155056	keystroke	c	n/a
577.678	0.1655	1155356	keystroke	o	n/a
577.813	0.105	1155626	keystroke	p	n/a
578.023	0.09	1156046	keystroke	e	n/a
578.608	0.09	1157216	keystroke	Key.enter	n/a
578.7025	8.7575	1157405	prompt	n/a	altered decrease russian triumph\n
579.343	0.1345	1158686	keystroke	a	n/a
579.5085	0.12	1159017	keystroke	l	n/a
579.6435	0.06	1159287	keystroke	t	n/a
579.7785	0.12	1159557	keystroke	e	n/a
579.8675	0.136	1159735	keystroke	r	n/a
579.9885	0.104	1159977	keystroke	e	n/a
580.2135	0.105	1160427	keystroke	d	n/a
580.3785	0.104	1160757	keystroke	Key.space	n/a
580.648	0.06	1161296	keystroke	d	n/a
581.038	0.075	1162076	keystroke	e	n/a
581.263	0.075	1162526	keystroke	c	n/a
581.473	0.135	1162946	keystroke	r	n/a
581.578	0.18	1163156	keystroke	e	n/a
581.773	0.18	1163546	keystroke	a	n/a
581.908	0.18	1163816	keystroke	s	n/a
582.073	0.09	1164146	keystroke	e	n/a
582.313	0.09	1164626	keystroke	Key.space	n/a
582.5225	0.091	1165045	keystroke	r	n/a
582.7025	0.075	1165405	keystroke	u	n/a
582.8375	0.0605	1165675	keystroke	s	n/a
582.973	0.09	1165946	keystroke	s	n/a
583.153	0.075	1166306	keystroke	i	n/a
583.288	0.105	1166576	keystroke	a	n/a
583.423	0.075	1166846	keystroke	n	n/a
583.528	0.105	1167056	keystroke	Key.space	n/a
583.753	0.075	1167506	keystroke	t	n/a
583.933	0.09	1167866	keystroke	r	n/a
584.218	0.09	1168436	keystroke	i	n/a
585.493	0.09	1170986	keystroke	u	n/a
585.763	0.12	1171526	keystroke	m	n/a
586.048	0.105	1172096	keystroke	p	n/a
586.363	0.135	1172726	keystroke	h	n/a
587.368	0.09	1174736	keystroke	Key.enter	n/a
587.464	10.9605	1174928	prompt	n/a	essentials margaret recall blanket\n
588.103	0.105	1176206	keystroke	e	n/a
588.3275	0.09	1176655	keystroke	s	n/a
588.4935	0.089	1176987	keystroke	s	n/a
588.7475	0.06	1177495	keystroke	e	n/a
589.2575	0.09	1178515	keystroke	n	n/a
589.3625	0.075	1178725	keystroke	t	n/a
589.5125	0.09	1179025	keystroke	i	n/a
589.6175	0.12	1179235	keystroke	a	n/a
589.7985	0.089	1179597	keystroke	l	n/a
590.0375	0.1055	1180075	keystroke	s	n/a
590.263	0.105	1180526	keystroke	Key.space	n/a
590.548	0.135	1181096	keystroke	m	n/a
590.698	0.165	1181396	keystroke	a	n/a
590.833	0.075	1181666	keystroke	r	n/a
591.043	0.075	1182086	keystroke	g	n/a
591.268	0.18	1182536	keystroke	a	n/a
591.463	0.09	1182926	keystroke	r	n/a
591.613	0.1045	1183226	keystroke	e	n/a
591.8225	0.09	1183645	keystroke	t	n/a
592.0025	0.0905	1184005	keystroke	Key.space	n/a
592.243	0.12	1184486	keystroke	r	n/a
592.333	0.105	1184666	keystroke	e	n/a
592.588	0.06	1185176	keystroke	c	n/a
593.2635	0.134	1186527	keystroke	a	n/a
