onset	duration	sample	value	key	prompt_text
1.744	5.7715	3488	prompt	n/a	the quick brown fox jumps over a lazy dog\n
2.496	0.1345	4992	keystroke	t	n/a
2.653	0.0695	5306	keystroke	h	n/a
2.7425	0.091	5485	keystroke	e	n/a
2.8555	0.0685	5711	keystroke	Key.space	n/a
2.945	0.0905	5890	keystroke	q	n/a
3.055	0.094	6110	keystroke	u	n/a
3.08	0.0915	6160	keystroke	i	n/a
3.1725	0.088	6345	keystroke	c	n/a
3.282	0.07	6564	keystroke	k	n/a
3.442	0.088	6884	keystroke	Key.space	n/a
3.591	0.09	7182	keystroke	b	n/a
3.636	0.113	7272	keystroke	r	n/a
3.773	0.0675	7546	keystroke	o	n/a
3.7735	0.1545	7547	keystroke	w	n/a
3.9655	0.067	7931	keystroke	n	n/a
4.108	0.134	8216	keystroke	Key.space	n/a
4.244	0.065	8488	keystroke	f	n/a
4.331	0.091	8662	keystroke	o	n/a
4.4435	0.1115	8887	keystroke	x	n/a
4.5775	0.1125	9155	keystroke	Key.space	n/a
4.784	0.045	9568	keystroke	j	n/a
4.9155	0.0705	9831	keystroke	u	n/a
5.138	0.111	10276	keystroke	p	n/a
5.419	0.1135	10838	keystroke	Key.backspace	n/a
5.621	0.0895	11242	keystroke	m	n/a
5.643	0.1355	11286	keystroke	p	n/a
5.755	0.068	11510	keystroke	s	n/a
5.887	0.134	11774	keystroke	Key.space	n/a
5.9985	0.09	11997	keystroke	o	n/a
6.065	0.1135	12130	keystroke	v	n/a
6.156	0.0885	12312	keystroke	e	n/a
6.2665	0.0935	12533	keystroke	r	n/a
6.334	0.0945	12668	keystroke	Key.space	n/a
6.43	0.0865	12860	keystroke	a	n/a
6.5175	0.132	13035	keystroke	Key.space	n/a
6.627	0.09	13254	keystroke	l	n/a
6.6925	0.116	13385	keystroke	a	n/a
6.7845	0.112	13569	keystroke	z	n/a
6.874	0.0905	13748	keystroke	y	n/a
6.941	0.1135	13882	keystroke	Key.space	n/a
7.1265	0.113	14253	keystroke	d	n/a
7.2155	0.0885	14431	keystroke	o	n/a
7.3345	0.0885	14669	keystroke	g	n/a
7.424	0.0885	14848	keystroke	Key.enter	n/a
7.5205	4.8475	15041	prompt	n/a	resource delight looking consultancy\n
8.0475	0.0905	16095	keystroke	r	n/a
8.0925	0.111	16185	keystroke	e	n/a
8.2785	0.0675	16557	keystroke	s	n/a
8.3695	0.069	16739	keystroke	o	n/a
8.5325	0.09	17065	keystroke	u	n/a
8.5775	0.1115	17155	keystroke	r	n/a
8.7685	0.112	17537	keystroke	c	n/a
8.8355	0.09	17671	keystroke	e	n/a
8.9265	0.111	17853	keystroke	Key.space	n/a
9.014	0.1125	18028	keystroke	d	n/a
9.104	0.091	18208	keystroke	e	n/a
9.196	0.088	18392	keystroke	l	n/a
9.348	0.0935	18696	keystroke	i	n/a
9.4425	0.042	18885	keystroke	g	n/a
9.5355	0.09	19071	keystroke	h	n/a
9.6025	0.068	19205	keystroke	t	n/a
9.671	0.067	19342	keystroke	Key.space	n/a
9.7725	0.0915	19545	keystroke	l	n/a
9.9395	0.089	19879	keystroke	o	n/a
10.0665	0.091	20133	keystroke	o	n/a
10.2315	0.0675	20463	keystroke	k	n/a
10.383	0.0655	20766	keystroke	i	n/a
10.534	0.068	21068	keystroke	n	n/a
10.5575	0.089	21115	keystroke	g	n/a
10.6675	0.09	21335	keystroke	Key.space	n/a
10.7585	0.0895	21517	keystroke	c	n/a
10.916	0.114	21832	keystroke	o	n/a
11.149	0.092	22298	keystroke	n	n/a
11.2175	0.0925	22435	keystroke	s	n/a
11.3645	0.067	22729	keystroke	u	n/a
11.537	0.092	23074	keystroke	l	n/a
11.604	0.137	23208	keystroke	t	n/a
11.7185	0.136	23437	keystroke	a	n/a
11.9085	0.067	23817	keystroke	n	n/a
11.998	0.112	23996	keystroke	c	n/a
12.111	0.066	24222	keystroke	y	n/a
12.273	0.0925	24546	keystroke	Key.enter	n/a
12.372	7.2055	24744	prompt	n/a	strengthening sentences ontario transition\n
12.9095	0.0895	25819	keystroke	s	n/a
13.147	0.0695	26294	keystroke	t	n/a
13.35	0.091	26700	keystroke	r	n/a
13.568	0.07	27136	keystroke	e	n/a
13.8555	0.0885	27711	keystroke	n	n/a
13.92	0.069	27840	keystroke	g	n/a
14.12	0.091	28240	keystroke	h	n/a
14.1865	0.1125	28373	keystroke	t	n/a
14.3475	0.0895	28695	keystroke	e	n/a
14.483	0.092	28966	keystroke	n	n/a
14.5515	0.1125	29103	keystroke	i	n/a
14.665	0.089	29330	keystroke	n	n/a
14.7305	0.0905	29461	keystroke	g	n/a
14.8715	0.1115	29743	keystroke	Key.space	n/a
15.184	0.088	30368	keystroke	s	n/a
15.353	0.093	30706	keystroke	e	n/a
15.501	0.113	31002	keystroke	n	n/a
15.568	0.092	31136	keystroke	t	n/a
15.636	0.0895	31272	keystroke	e	n/a
15.892	0.089	31784	keystroke	n	n/a
15.957	0.0705	31914	keystroke	c	n/a
16.0035	0.067	32007	keystroke	e	n/a
16.172	0.0685	32344	keystroke	s	n/a
16.215	0.115	32430	keystroke	Key.space	n/a
16.3075	0.09	32615	keystroke	o	n/a
16.47	0.0925	32940	keystroke	n	n/a
16.5385	0.091	33077	keystroke	t	n/a
16.6295	0.11	33259	keystroke	a	n/a
16.7405	0.066	33481	keystroke	r	n/a
16.842	0.0925	33684	keystroke	i	n/a
16.9115	0.09	33823	keystroke	o	n/a
17.0785	0.1125	34157	keystroke	Key.space	n/a
17.192	0.088	34384	keystroke	t	n/a
17.3305	0.091	34661	keystroke	n	n/a
17.653	0.1145	35306	keystroke	Key.backspace	n/a
17.7205	0.1155	35441	keystroke	r	n/a
17.814	0.109	35628	keystroke	a	n/a
17.901	0.088	35802	keystroke	n	n/a
18.0125	0.1095	36025	keystroke	s	n/a
18.2705	0.0895	36541	keystroke	i	n/a
18.4	0.044	36800	keystroke	s	n/a
18.972	0.113	37944	keystroke	t	n/a
19.062	0.114	38124	keystroke	i	n/a
19.1285	0.0895	38257	keystroke	o	n/a
19.2965	0.0675	38593	keystroke	n	n/a
19.4845	0.091	38969	keystroke	Key.enter	n/a
19.5285	0.0225	39057	keystroke	\	n/a
19.5815	3.8905	39163	prompt	n/a	ordering lean chart kate\n
20.1675	0.0685	40335	keystroke	o	n/a
20.372	0.113	40744	keystroke	r	n/a
20.604	0.089	41208	keystroke	d	n/a
20.6705	0.113	41341	keystroke	e	n/a
20.7845	0.087	41569	keystroke	r	n/a
21.0285	0.1135	42057	keystroke	e	n/a
21.143	0.128	42286	keystroke	a	n/a
21.302	0.0895	42604	keystroke	Key.backspace	n/a
21.4495	0.0905	42899	keystroke	Key.backspace	n/a
21.517	0.114	43034	keystroke	i	n/a
21.7005	0.069	43401	keystroke	n	n/a
21.744	0.0695	43488	keystroke	g	n/a
21.8135	0.092	43627	keystroke	Key.space	n/a
21.927	0.0905	43854	keystroke	l	n/a
21.972	0.0915	43944	keystroke	e	n/a
22.039	0.1355	44078	keystroke	a	n/a
22.151	0.0675	44302	keystroke	n	n/a
22.238	0.07	44476	keystroke	Key.space	n/a
22.329	0.09	44658	keystroke	c	n/a
22.395	0.09	44790	keystroke	h	n/a
22.486	0.088	44972	keystroke	a	n/a
22.551	0.067	45102	keystroke	r	n/a
22.746	0.109	45492	keystroke	t	n/a
22.876	0.09	45752	keystroke	Key.space	n/a
23.066	0.091	46132	keystroke	k	n/a
23.131	0.116	46262	keystroke	a	n/a
23.248	0.1115	46496	keystroke	t	n/a
23.335	0.069	46670	keystroke	e	n/a
23.405	0.0655	46810	keystroke	Key.enter	n/a
23.4765	5.215	46953	prompt	n/a	walt vertical shipped arthritis\n
24.0165	0.0895	48033	keystroke	v	n/a
24.267	0.0905	48534	keystroke	Key.backspace	n/a
24.3585	0.114	48717	keystroke	w	n/a
24.423	0.1375	48846	keystroke	a	n/a
24.4935	0.089	48987	keystroke	l	n/a
24.684	0.113	49368	keystroke	t	n/a
24.7975	0.1115	49595	keystroke	Key.space	n/a
25.1635	0.0895	50327	keystroke	v	n/a
25.231	0.088	50462	keystroke	e	n/a
25.3625	0.0675	50725	keystroke	r	n/a
25.539	0.067	51078	keystroke	t	n/a
25.6365	0.068	51273	keystroke	i	n/a
25.744	0.093	51488	keystroke	c	n/a
25.8115	0.1145	51623	keystroke	a	n/a
25.8585	0.092	51717	keystroke	l	n/a
25.971	0.1125	51942	keystroke	Key.space	n/a
26.19	0.115	52380	keystroke	s	n/a
26.2595	0.1125	52519	keystroke	h	n/a
26.372	0.0445	52744	keystroke	i	n/a
26.5665	0.0675	53133	keystroke	p	n/a
26.704	0.068	53408	keystroke	p	n/a
26.749	0.069	53498	keystroke	e	n/a
26.818	0.111	53636	keystroke	d	n/a
27.026	0.111	54052	keystroke	Key.space	n/a
27.3375	0.1125	54675	keystroke	a	n/a
27.471	0.0675	54942	keystroke	r	n/a
27.638	0.0915	55276	keystroke	t	n/a
27.774	0.0895	55548	keystroke	h	n/a
28.0335	0.09	56067	keystroke	r	n/a
28.1765	0.068	56353	keystroke	i	n/a
28.2665	0.044	56533	keystroke	t	n/a
28.3835	0.09	56767	keystroke	i	n/a
28.532	0.067	57064	keystroke	s	n/a
28.6215	0.0685	57243	keystroke	Key.enter	n/a
28.696	19.491	57392	prompt	n/a	retro findings tunnel syria\n
29.8655	0.115	59731	keystroke	t	n/a
30.392	0.0665	60784	keystroke	e	n/a
30.7175	0.068	61435	keystroke	Key.backspace	n/a
30.8765	0.0905	61753	keystroke	Key.backspace	n/a
31.172	0.1115	62344	keystroke	r	n/a
31.2845	0.1325	62569	keystroke	e	n/a
31.5405	0.115	63081	keystroke	t	n/a
31.5855	0.115	63171	keystroke	r	n/a
32.363	0.1125	64726	keystroke	o	n/a
32.6165	0.16	65233	keystroke	Key.space	n/a
38.7295	0.092	77459	keystroke	f	n/a
38.8425	0.0915	77685	keystroke	i	n/a
39.0645	0.112	78129	keystroke	n	n/a
39.1775	0.086	78355	keystroke	d	n/a
39.5965	0.1125	79193	keystroke	i	n/a
39.7455	0.1315	79491	keystroke	n	n/a
39.832	0.157	79664	keystroke	g	n/a
39.9215	0.1335	79843	keystroke	s	n/a
41.7415	0.069	83483	keystroke	Key.space	n/a
43.3965	0.1105	86793	keystroke	Key.space	n/a
43.5375	0.0945	87075	keystroke	t	n/a
43.6055	0.093	87211	keystroke	u	n/a
43.7825	0.089	87565	keystroke	n	n/a
43.919	0.0905	87838	keystroke	n	n/a
43.986	0.113	87972	keystroke	e	n/a
44.177	0.0675	88354	keystroke	;	n/a
44.354	0.111	88708	keystroke	Key.space	n/a
44.768	0.069	89536	keystroke	Key.backspace	n/a
44.917	0.066	89834	keystroke	Key.backspace	n/a
45.021	0.112	90042	keystroke	l	n/a
45.1545	0.11	90309	keystroke	Key.space	n/a
45.3005	0.09	90601	keystroke	s	n/a
45.4585	0.0675	90917	keystroke	y	n/a
45.548	0.0905	91096	keystroke	r	n/a
45.877	0.133	91754	keystroke	a	n/a
45.878	0.086	91756	keystroke	i	n/a
46.4265	0.0675	92853	keystroke	Key.backspace	n/a
46.5485	0.068	93097	keystroke	Key.backspace	n/a
46.7125	0.1755	93425	keystroke	a	n/a
46.9425	0.087	93885	keystroke	Key.backspace	n/a
47.093	0.0685	94186	keystroke	Key.backspace	n/a
47.554	0.0925	95108	keystroke	r	n/a
47.6935	0.067	95387	keystroke	i	n/a
47.813	0.0695	95626	keystroke	a	n/a
48.119	0.066	96238	keystroke	Key.enter	n/a
48.192	8.583	96384	prompt	n/a	abraham talked outlet something\n
48.8895	0.132	97779	keystroke	a	n/a
49.0685	0.0675	98137	keystroke	b	n/a
49.906	0.1115	99812	keystroke	r	n/a
49.995	0.1115	99990	keystroke	a	n/a
50.1375	0.069	100275	keystroke	h	n/a
50.2405	0.09	100481	keystroke	a	n/a
50.3615	0.089	100723	keystroke	m	n/a
50.5265	0.0875	101053	keystroke	Key.space	n/a
50.7045	0.113	101409	keystroke	t	n/a
50.7945	0.11	101589	keystroke	a	n/a
50.8595	0.067	101719	keystroke	l	n/a
51.0145	0.0895	102029	keystroke	k	n/a
51.0805	0.091	102161	keystroke	e	n/a
51.1925	0.067	102385	keystroke	d	n/a
51.2355	0.09	102471	keystroke	Key.space	n/a
51.6115	0.0895	103223	keystroke	o	n/a
51.7965	0.0915	103593	keystroke	u	n/a
51.842	0.112	103684	keystroke	t	n/a
52.005	0.0915	104010	keystroke	l	n/a
52.051	0.0895	104102	keystroke	e	n/a
52.4075	0.066	104815	keystroke	t	n/a
52.516	0.1095	105032	keystroke	Key.space	n/a
53.049	0.0885	106098	keystroke	s	n/a
53.113	0.09	106226	keystroke	o	n/a
53.277	0.0905	106554	keystroke	e	n/a
53.3005	0.069	106601	keystroke	m	n/a
53.4835	0.0895	106967	keystroke	t	n/a
53.5735	0.0875	107147	keystroke	h	n/a
53.6385	0.089	107277	keystroke	i	n/a
53.873	0.0675	107746	keystroke	Key.backspace	n/a
54.042	0.069	108084	keystroke	Key.backspace	n/a
54.065	0.16	108130	keystroke	Key.cmd	n/a
54.426	0.07	108852	keystroke	Key.backspace	n/a
54.428	0.1145	108856	keystroke	Key.alt_l	n/a
54.697	0.089	109394	keystroke	Key.backspace	n/a
54.8865	0.067	109773	keystroke	Key.backspace	n/a
55.625	0.089	111250	keystroke	m	n/a
55.753	0.09	111506	keystroke	e	n/a
55.898	0.092	111796	keystroke	t	n/a
55.9215	0.0915	111843	keystroke	h	n/a
55.991	0.088	111982	keystroke	i	n/a
56.109	0.089	112218	keystroke	n	n/a
56.175	0.067	112350	keystroke	g	n/a
56.302	0.089	112604	keystroke	Key.space	n/a
56.5465	0.0685	113093	keystroke	Key.backspace	n/a
56.726	0.0455	113452	keystroke	Key.enter	n/a
56.782	16.8405	113564	prompt	n/a	icon organisation substance editions\n
59.1195	0.0905	118239	keystroke	i	n/a
59.212	0.066	118424	keystroke	c	n/a
59.299	0.046	118598	keystroke	o	n/a
59.443	0.068	118886	keystroke	n	n/a
59.532	0.11	119064	keystroke	Key.space	n/a
59.7365	0.0895	119473	keystroke	o	n/a
59.827	0.067	119654	keystroke	r	n/a
59.999	0.067	119998	keystroke	g	n/a
60.067	0.1125	120134	keystroke	a	n/a
60.18	0.066	120360	keystroke	n	n/a
61.107	0.068	122214	keystroke	i	n/a
61.472	0.071	122944	keystroke	s	n/a
61.684	0.11	123368	keystroke	t	n/a
61.852	0.108	123704	keystroke	o	n/a
62.153	0.068	124306	keystroke	Key.backspace	n/a
62.613	0.112	125226	keystroke	a	n/a
62.933	0.065	125866	keystroke	Key.backspace	n/a
63.092	0.089	126184	keystroke	Key.backspace	n/a
63.757	0.111	127514	keystroke	Key.backspace	n/a
64.91	0.131	129820	keystroke	s	n/a
65.3255	0.113	130651	keystroke	a	n/a
65.4155	0.114	130831	keystroke	t	n/a
65.5305	0.067	131061	keystroke	i	n/a
65.5735	0.069	131147	keystroke	o	n/a
65.7505	0.069	131501	keystroke	n	n/a
65.8405	0.1125	131681	keystroke	Key.space	n/a
66.231	0.109	132462	keystroke	s	n/a
66.3815	0.0905	132763	keystroke	u	n/a
66.5635	0.091	133127	keystroke	b	n/a
66.7005	0.111	133401	keystroke	s	n/a
66.962	0.1105	133924	keystroke	t	n/a
67.05	0.1345	134100	keystroke	a	n/a
67.1385	0.069	134277	keystroke	n	n/a
67.262	0.109	134524	keystroke	c	n/a
67.3485	0.066	134697	keystroke	e	n/a
67.4155	0.087	134831	keystroke	Key.space	n/a
72.142	0.0675	144284	keystroke	e	n/a
72.232	0.0895	144464	keystroke	d	n/a
72.3625	0.069	144725	keystroke	i	n/a
72.4645	0.0675	144929	keystroke	t	n/a
72.562	0.068	145124	keystroke	i	n/a
72.607	0.09	145214	keystroke	o	n/a
72.775	0.068	145550	keystroke	n	n/a
73.441	0.113	146882	keystroke	s	n/a
73.5295	0.091	147059	keystroke	Key.enter	n/a
73.6265	18.906	147253	prompt	n/a	liberal particles funds signed\n
76.543	0.111	153086	keystroke	l	n/a
76.7295	0.0875	153459	keystroke	i	n/a
76.966	0.112	153932	keystroke	b	n/a
77.0105	0.09	154021	keystroke	e	n/a
77.1015	0.1095	154203	keystroke	r	n/a
77.2315	0.134	154463	keystroke	a	n/a
77.4295	0.113	154859	keystroke	l	n/a
77.6775	0.135	155355	keystroke	Key.space	n/a
78.533	0.089	157066	keystroke	p	n/a
78.578	0.1335	157156	keystroke	a	n/a
78.667	0.088	157334	keystroke	r	n/a
78.843	0.066	157686	keystroke	t	n/a
78.931	0.09	157862	keystroke	i	n/a
79.053	0.089	158106	keystroke	c	n/a
79.172	0.093	158344	keystroke	l	n/a
79.266	0.0675	158532	keystroke	e	n/a
79.4195	0.091	158839	keystroke	s	n/a
79.4875	0.0895	158975	keystroke	Key.space	n/a
81.927	0.1125	163854	keystroke	f	n/a
82.0405	0.088	164081	keystroke	u	n/a
82.2155	0.089	164431	keystroke	n	n/a
82.2595	0.1145	164519	keystroke	d	n/a
82.326	0.1155	164652	keystroke	s	n/a
82.396	0.0925	164792	keystroke	Key.space	n/a
82.6015	0.114	165203	keystroke	s	n/a
82.6925	0.069	165385	keystroke	i	n/a
82.7905	0.09	165581	keystroke	g	n/a
82.8575	0.089	165715	keystroke	n	n/a
82.9235	0.089	165847	keystroke	e	n/a
83.0565	0.088	166113	keystroke	d	n/a
83.1215	0.089	166243	keystroke	Key.space	n/a
83.6925	0.0685	167385	keystroke	Key.backspace	n/a
92.3995	0.131	184799	keystroke	Key.enter	n/a
92.5365	5.1155	185073	prompt	n/a	crash drew idaho produces\n
93.161	0.1115	186322	keystroke	c	n/a
93.39	0.091	186780	keystroke	r	n/a
93.457	0.1585	186914	keystroke	a	n/a
93.591	0.091	187182	keystroke	s	n/a
93.637	0.089	187274	keystroke	h	n/a
93.727	0.11	187454	keystroke	Key.space	n/a
93.839	0.021	187678	keystroke	d	n/a
93.999	0.0895	187998	keystroke	r	n/a
94.0655	0.0675	188131	keystroke	e	n/a
94.2455	0.09	188491	keystroke	w	n/a
94.3575	0.089	188715	keystroke	Key.space	n/a
94.4475	0.092	188895	keystroke	i	n/a
94.5905	0.1125	189181	keystroke	d	n/a
94.736	0.132	189472	keystroke	a	n/a
94.9245	0.0665	189849	keystroke	h	n/a
95.1815	0.067	190363	keystroke	o	n/a
95.38	0.089	190760	keystroke	Key.space	n/a
95.5915	0.0885	191183	keystroke	p	n/a
95.657	0.066	191314	keystroke	r	n/a
95.775	0.09	191550	keystroke	o	n/a
95.887	0.088	191774	keystroke	d	n/a
96.013	0.0695	192026	keystroke	u	n/a
96.083	0.087	192166	keystroke	c	n/a
96.147	0.089	192294	keystroke	e	n/a
96.429	0.113	192858	keystroke	s	n/a
96.543	0.11	193086	keystroke	Key.space	n/a
97.336	0.068	194672	keystroke	Key.backspace	n/a
97.5815	0.0685	195163	keystroke	Key.enter	n/a
97.656	10.294	195312	prompt	n/a	accessible commodity communist applied\n
98.579	0.135	197158	keystroke	a	n/a
98.736	0.088	197472	keystroke	c	n/a
98.918	0.0695	197836	keystroke	c	n/a
99.0165	0.0675	198033	keystroke	e	n/a
99.21	0.0685	198420	keystroke	s	n/a
99.379	0.068	198758	keystroke	s	n/a
100.3425	0.091	200685	keystroke	Key.space	n/a
101.2695	0.11	202539	keystroke	Key.backspace	n/a
101.8965	0.112	203793	keystroke	i	n/a
101.986	0.1105	203972	keystroke	b	n/a
102.132	0.0885	204264	keystroke	l	n/a
102.2215	0.0685	204443	keystroke	e	n/a
102.312	0.113	204624	keystroke	Key.space	n/a
102.483	0.09	204966	keystroke	c	n/a
102.574	0.068	205148	keystroke	o	n/a
102.737	0.067	205474	keystroke	m	n/a
102.866	0.09	205732	keystroke	m	n/a
102.956	0.111	205912	keystroke	o	n/a
103.068	0.066	206136	keystroke	d	n/a
103.3955	0.0885	206791	keystroke	i	n/a
103.485	0.1105	206970	keystroke	t	n/a
103.6385	0.0695	207277	keystroke	y	n/a
103.662	0.1335	207324	keystroke	Key.space	n/a
104.5665	0.114	209133	keystroke	c	n/a
104.6345	0.07	209269	keystroke	o	n/a
104.8015	0.068	209603	keystroke	m	n/a
104.929	0.09	209858	keystroke	m	n/a
105.116	0.089	210232	keystroke	u	n/a
105.302	0.0705	210604	keystroke	n	n/a
105.3735	0.065	210747	keystroke	i	n/a
105.4155	0.134	210831	keystroke	s	n/a
105.5505	0.1115	211101	keystroke	t	n/a
105.6375	0.1125	211275	keystroke	Key.space	n/a
105.9205	0.09	211841	keystroke	o	n/a
106.1075	0.1125	212215	keystroke	Key.space	n/a
106.26	0.089	212520	keystroke	Key.backspace	n/a
106.459	0.023	212918	keystroke	Key.backspace	n/a
106.793	0.136	213586	keystroke	a	n/a
106.884	0.0675	213768	keystroke	p	n/a
107.025	0.089	214050	keystroke	p	n/a
107.175	0.09	214350	keystroke	l	n/a
107.345	0.067	214690	keystroke	i	n/a
107.413	0.066	214826	keystroke	e	n/a
107.523	0.0925	215046	keystroke	d	n/a
107.881	0.0665	215762	keystroke	Key.enter	n/a
107.954	4.918	215908	prompt	n/a	death baseball simpson open\n
108.496	0.133	216992	keystroke	d	n/a
108.6065	0.1125	217213	keystroke	e	n/a
108.673	0.137	217346	keystroke	a	n/a
108.831	0.091	217662	keystroke	t	n/a
108.9	0.067	217800	keystroke	h	n/a
109.0065	0.132	218013	keystroke	Key.space	n/a
109.531	0.067	219062	keystroke	b	n/a
109.5745	0.136	219149	keystroke	a	n/a
109.6645	0.113	219329	keystroke	s	n/a
109.829	0.1325	219658	keystroke	e	n/a
110.523	0.111	221046	keystroke	b	n/a
110.634	0.111	221268	keystroke	a	n/a
110.746	0.065	221492	keystroke	l	n/a
110.895	0.089	221790	keystroke	l	n/a
111.023	0.111	222046	keystroke	Key.space	n/a
111.2375	0.1115	222475	keystroke	s	n/a
111.326	0.0695	222652	keystroke	i	n/a
111.523	0.0705	223046	keystroke	m	n/a
111.547	0.0905	223094	keystroke	p	n/a
111.7045	0.068	223409	keystroke	s	n/a
111.7735	0.066	223547	keystroke	o	n/a
111.9375	0.068	223875	keystroke	n	n/a
112.183	0.091	224366	keystroke	Key.space	n/a
112.364	0.1145	224728	keystroke	o	n/a
112.454	0.071	224908	keystroke	p	n/a
112.501	0.089	225002	keystroke	e	n/a
112.638	0.069	225276	keystroke	n	n/a
112.825	0.0455	225650	keystroke	Key.enter	n/a
112.876	5.528	225752	prompt	n/a	addresses crafts reid last\n
114.2695	0.1095	228539	keystroke	a	n/a
114.3565	0.087	228713	keystroke	d	n/a
114.5185	0.069	229037	keystroke	d	n/a
114.708	0.091	229416	keystroke	r	n/a
114.7995	0.044	229599	keystroke	e	n/a
114.9475	0.07	229895	keystroke	s	n/a
115.099	0.0885	230198	keystroke	s	n/a
115.4195	0.09	230839	keystroke	e	n/a
115.6025	0.069	231205	keystroke	s	n/a
115.7045	0.111	231409	keystroke	Key.space	n/a
116.0385	0.07	232077	keystroke	c	n/a
116.2215	0.091	232443	keystroke	r	n/a
116.29	0.135	232580	keystroke	a	n/a
116.4015	0.0885	232803	keystroke	f	n/a
116.583	0.088	233166	keystroke	t	n/a
116.672	0.111	233344	keystroke	Key.space	n/a
116.784	0.0895	233568	keystroke	r	n/a
116.85	0.09	233700	keystroke	e	n/a
116.9765	0.089	233953	keystroke	i	n/a
117.042	0.091	234084	keystroke	d	n/a
117.22	0.113	234440	keystroke	Key.space	n/a
117.6735	0.091	235347	keystroke	l	n/a
117.719	0.1585	235438	keystroke	a	n/a
117.8305	0.0905	235661	keystroke	s	n/a
118.03	0.0895	236060	keystroke	t	n/a
118.3335	0.069	236667	keystroke	Key.enter	n/a
118.407	4.6855	236814	prompt	n/a	sensor novels frozen light\n
118.9825	0.09	237965	keystroke	s	n/a
119.1575	0.0665	238315	keystroke	e	n/a
119.2485	0.0885	238497	keystroke	n	n/a
119.338	0.0655	238676	keystroke	s	n/a
119.4685	0.069	238937	keystroke	o	n/a
119.538	0.066	239076	keystroke	r	n/a
119.636	0.089	239272	keystroke	Key.space	n/a
119.812	0.0685	239624	keystroke	n	n/a
119.858	0.0895	239716	keystroke	o	n/a
119.9015	0.1115	239803	keystroke	v	n/a
119.9685	0.0885	239937	keystroke	e	n/a
120.079	0.0685	240158	keystroke	l	n/a
120.5255	0.09	241051	keystroke	s	n/a
120.6155	0.1125	241231	keystroke	Key.space	n/a
121.155	0.0905	242310	keystroke	f	n/a
121.2	0.091	242400	keystroke	r	n/a
121.2915	0.0875	242583	keystroke	o	n/a
121.5275	0.1115	243055	keystroke	z	n/a
121.7735	0.0665	243547	keystroke	e	n/a
121.8635	0.0695	243727	keystroke	n	n/a
121.954	0.1115	243908	keystroke	Key.space	n/a
122.2175	0.089	244435	keystroke	l	n/a
122.3745	0.069	244749	keystroke	i	n/a
122.42	0.067	244840	keystroke	g	n/a
122.583	0.0915	245166	keystroke	h	n/a
122.607	0.069	245214	keystroke	t	n/a
123.024	0.067	246048	keystroke	Key.enter	n/a
123.0965	7.532	246193	prompt	n/a	trembl methodology cheats remembered\n
123.7365	0.088	247473	keystroke	t	n/a
124.0405	0.089	248081	keystroke	r	n/a
124.1065	0.091	248213	keystroke	e	n/a
124.1985	0.0915	248397	keystroke	m	n/a
124.333	0.1335	248666	keystroke	b	n/a
124.4675	0.0655	248935	keystroke	l	n/a
124.598	0.067	249196	keystroke	e	n/a
124.845	0.11	249690	keystroke	Key.backspace	n/a
125.075	0.116	250150	keystroke	Key.space	n/a
125.413	0.092	250826	keystroke	m	n/a
125.481	0.088	250962	keystroke	e	n/a
125.59	0.0905	251180	keystroke	t	n/a
125.682	0.0655	251364	keystroke	h	n/a
125.877	0.111	251754	keystroke	o	n/a
126.0705	0.091	252141	keystroke	l	n/a
126.2275	0.068	252455	keystroke	o	n/a
126.3185	0.113	252637	keystroke	d	n/a
126.4315	0.067	252863	keystroke	y	n/a
126.4995	0.1115	252999	keystroke	Key.space	n/a
127.736	0.068	255472	keystroke	c	n/a
127.8335	0.0675	255667	keystroke	h	n/a
127.902	0.088	255804	keystroke	e	n/a
127.9665	0.1385	255933	keystroke	a	n/a
128.106	0.1105	256212	keystroke	t	n/a
128.2175	0.0445	256435	keystroke	s	n/a
128.6725	0.114	257345	keystroke	Key.space	n/a
128.9305	0.091	257861	keystroke	m	n/a
128.9775	0.0905	257955	keystroke	e	n/a
129.197	0.068	258394	keystroke	Key.backspace	n/a
129.329	0.089	258658	keystroke	Key.backspace	n/a
129.351	0.112	258702	keystroke	r	n/a
129.419	0.068	258838	keystroke	e	n/a
129.5095	0.0695	259019	keystroke	m	n/a
129.62	0.0895	259240	keystroke	e	n/a
129.7395	0.09	259479	keystroke	m	n/a
129.967	0.0695	259934	keystroke	b	n/a
130.0125	0.093	260025	keystroke	e	n/a
130.058	0.1145	260116	keystroke	r	n/a
130.1945	0.0895	260389	keystroke	e	n/a
130.3155	0.111	260631	keystroke	d	n/a
130.5575	0.069	261115	keystroke	Key.enter	n/a
130.6335	5.1275	261267	prompt	n/a	edgar integrity children crop\n
131.129	0.136	262258	keystroke	e	n/a
131.2855	0.067	262571	keystroke	d	n/a
131.9705	0.092	263941	keystroke	g	n/a
132.0375	0.114	264075	keystroke	a	n/a
132.1525	0.0875	264305	keystroke	r	n/a
132.261	0.0905	264522	keystroke	Key.space	n/a
132.3735	0.067	264747	keystroke	i	n/a
132.538	0.067	265076	keystroke	n	n/a
132.6995	0.112	265399	keystroke	t	n/a
132.8495	0.111	265699	keystroke	e	n/a
133.0655	0.112	266131	keystroke	g	n/a
133.1315	0.1135	266263	keystroke	r	n/a
133.2205	0.1365	266441	keystroke	a	n/a
133.332	0.071	266664	keystroke	i	n/a
133.432	0.1135	266864	keystroke	t	n/a
133.546	0.088	267092	keystroke	y	n/a
133.636	0.109	267272	keystroke	Key.space	n/a
133.9835	0.0875	267967	keystroke	c	n/a
134.049	0.089	268098	keystroke	h	n/a
134.1155	0.067	268231	keystroke	i	n/a
134.3025	0.0905	268605	keystroke	l	n/a
134.3485	0.0905	268697	keystroke	d	n/a
134.5115	0.114	269023	keystroke	r	n/a
134.579	0.0915	269158	keystroke	e	n/a
134.6715	0.0645	269343	keystroke	n	n/a
134.8705	0.112	269741	keystroke	Key.space	n/a
135.004	0.091	270008	keystroke	c	n/a
135.071	0.089	270142	keystroke	o	n/a
135.299	0.088	270598	keystroke	Key.backspace	n/a
135.363	0.113	270726	keystroke	r	n/a
135.453	0.089	270906	keystroke	o	n/a
135.499	0.088	270998	keystroke	p	n/a
135.6705	0.0885	271341	keystroke	Key.enter	n/a
135.765	5.3735	271530	prompt	n/a	designer resistance scan trainers\n
136.251	0.111	272502	keystroke	d	n/a
136.3995	0.0885	272799	keystroke	e	n/a
136.581	0.068	273162	keystroke	s	n/a
136.6705	0.0915	273341	keystroke	i	n/a
136.762	0.067	273524	keystroke	g	n/a
136.8705	0.068	273741	keystroke	n	n/a
137.0165	0.135	274033	keystroke	e	n/a
137.129	0.0905	274258	keystroke	r	n/a
137.2205	0.1105	274441	keystroke	Key.space	n/a
137.391	0.1115	274782	keystroke	r	n/a
137.4575	0.088	274915	keystroke	e	n/a
137.6185	0.0675	275237	keystroke	s	n/a
137.7165	0.067	275433	keystroke	i	n/a
137.7845	0.0655	275569	keystroke	s	n/a
137.9705	0.0915	275941	keystroke	t	n/a
138.0625	0.088	276125	keystroke	a	n/a
138.1835	0.069	276367	keystroke	n	n/a
138.2545	0.088	276509	keystroke	c	n/a
138.3195	0.068	276639	keystroke	e	n/a
138.3875	0.068	276775	keystroke	Key.space	n/a
138.5305	0.09	277061	keystroke	s	n/a
138.6415	0.114	277283	keystroke	c	n/a
138.7325	0.09	277465	keystroke	a	n/a
138.779	0.0665	277558	keystroke	n	n/a
138.949	0.091	277898	keystroke	Key.space	n/a
139.0615	0.155	278123	keystroke	t	n/a
139.1935	0.0675	278387	keystroke	r	n/a
139.262	0.175	278524	keystroke	a	n/a
139.608	0.067	279216	keystroke	n	n/a
140.162	0.0675	280324	keystroke	Key.backspace	n/a
140.3435	0.0895	280687	keystroke	i	n/a
140.5105	0.0885	281021	keystroke	n	n/a
140.6	0.066	281200	keystroke	e	n/a
140.6415	0.1125	281283	keystroke	r	n/a
140.7835	0.045	281567	keystroke	s	n/a
141.066	0.071	282132	keystroke	Key.enter	n/a
141.1425	5.05	282285	prompt	n/a	hugo timber parts copies\n
141.8285	0.114	283657	keystroke	h	n/a
141.8965	0.091	283793	keystroke	u	n/a
141.9885	0.112	283977	keystroke	g	n/a
142.2045	0.133	284409	keystroke	Key.space	n/a
142.6705	0.112	285341	keystroke	Key.backspace	n/a
142.9525	0.046	285905	keystroke	Key.space	n/a
143.4505	0.1365	286901	keystroke	Key.backspace	n/a
143.608	0.0915	287216	keystroke	o	n/a
143.72	0.111	287440	keystroke	Key.space	n/a
143.832	0.068	287664	keystroke	t	n/a
143.875	0.091	287750	keystroke	i	n/a
144.042	0.0695	288084	keystroke	m	n/a
144.217	0.068	288434	keystroke	b	n/a
144.24	0.0885	288480	keystroke	e	n/a
144.3065	0.091	288613	keystroke	r	n/a
144.398	0.087	288796	keystroke	Key.space	n/a
144.663	0.091	289326	keystroke	p	n/a
144.7305	0.1135	289461	keystroke	a	n/a
144.798	0.089	289596	keystroke	r	n/a
144.978	0.114	289956	keystroke	t	n/a
145.0695	0.09	290139	keystroke	s	n/a
145.16	0.11	290320	keystroke	Key.space	n/a
145.559	0.0885	291118	keystroke	c	n/a
145.648	0.0885	291296	keystroke	o	n/a
145.712	0.091	291424	keystroke	p	n/a
145.833	0.07	291666	keystroke	i	n/a
145.879	0.0675	291758	keystroke	e	n/a
146.032	0.091	292064	keystroke	s	n/a
146.124	0.067	292248	keystroke	Key.enter	n/a
146.198	5.3635	292396	prompt	n/a	sphere crisis congress let's\n
146.708	0.133	293416	keystroke	s	n/a
146.919	0.07	293838	keystroke	p	n/a
147.088	0.069	294176	keystroke	h	n/a
147.134	0.068	294268	keystroke	e	n/a
147.203	0.131	294406	keystroke	r	n/a
147.29	0.068	294580	keystroke	e	n/a
147.359	0.089	294718	keystroke	Key.space	n/a
147.4695	0.1115	294939	keystroke	c	n/a
147.582	0.066	295164	keystroke	r	n/a
147.6695	0.0675	295339	keystroke	i	n/a
147.781	0.0685	295562	keystroke	s	n/a
147.886	0.069	295772	keystroke	i	n/a
147.956	0.068	295912	keystroke	s	n/a
148.303	0.1125	296606	keystroke	Key.space	n/a
148.8665	0.089	297733	keystroke	c	n/a
148.9325	0.092	297865	keystroke	o	n/a
149.104	0.09	298208	keystroke	n	n/a
149.216	0.067	298432	keystroke	g	n/a
149.3955	0.115	298791	keystroke	r	n/a
149.465	0.0675	298930	keystroke	e	n/a
149.663	0.0685	299326	keystroke	s	n/a
149.8205	0.0675	299641	keystroke	s	n/a
150.053	0.1125	300106	keystroke	Key.space	n/a
150.187	0.091	300374	keystroke	l	n/a
150.2535	0.1135	300507	keystroke	e	n/a
150.368	0.0895	300736	keystroke	t	n/a
150.5395	0.0665	301079	keystroke	s	n/a
150.583	0.112	301166	keystroke	'	n/a
150.811	0.07	301622	keystroke	Key.backspace	n/a
150.954	0.0665	301908	keystroke	Key.backspace	n/a
151.1925	0.0695	302385	keystroke	'	n/a
151.2385	0.068	302477	keystroke	s	n/a
151.5145	0.0455	303029	keystroke	Key.enter	n/a
151.565	11.969	303130	prompt	n/a	scenarios they heard reducing\n
152.1955	0.134	304391	keystroke	s	n/a
152.439	0.1125	304878	keystroke	c	n/a
152.5285	0.112	305057	keystroke	e	n/a
152.6415	0.0915	305283	keystroke	n	n/a
152.8265	0.155	305653	keystroke	a	n/a
152.958	0.0675	305916	keystroke	r	n/a
153.06	0.1325	306120	keystroke	i	n/a
153.1495	0.088	306299	keystroke	o	n/a
153.416	0.1345	306832	keystroke	s	n/a
153.5735	0.1345	307147	keystroke	Key.space	n/a
156.7035	0.092	313407	keystroke	t	n/a
156.817	0.067	313634	keystroke	h	n/a
156.885	0.089	313770	keystroke	e	n/a
156.996	0.07	313992	keystroke	y	n/a
157.019	0.136	314038	keystroke	Key.space	n/a
157.9385	0.091	315877	keystroke	h	n/a
157.9835	0.113	315967	keystroke	e	n/a
158.0505	0.156	316101	keystroke	a	n/a
158.1605	0.09	316321	keystroke	r	n/a
158.359	0.089	316718	keystroke	d	n/a
158.425	0.156	316850	keystroke	Key.space	n/a
159.865	0.068	319730	keystroke	r	n/a
159.888	0.0905	319776	keystroke	e	n/a
160.094	0.1345	320188	keystroke	d	n/a
160.38	0.089	320760	keystroke	u	n/a
160.4705	0.11	320941	keystroke	c	n/a
160.6105	0.1105	321221	keystroke	i	n/a
160.792	0.07	321584	keystroke	m	n/a
160.794	0.07	321588	keystroke	n	n/a
160.837	0.07	321674	keystroke	g	n/a
160.929	0.111	321858	keystroke	Key.space	n/a
161.2145	0.0875	322429	keystroke	Key.backspace	n/a
161.3975	0.0655	322795	keystroke	Key.backspace	n/a
161.566	0.0875	323132	keystroke	Key.backspace	n/a
161.773	0.134	323546	keystroke	Key.backspace	n/a
162.2345	0.09	324469	keystroke	g	n/a
162.2785	0.1125	324557	keystroke	n	n/a
162.517	0.247	325034	keystroke	Key.backspace	n/a
162.833	0.1335	325666	keystroke	Key.backspace	n/a
162.9675	0.1105	325935	keystroke	n	n/a
163.079	0.088	326158	keystroke	g	n/a
163.444	0.088	326888	keystroke	Key.enter	n/a
163.5375	18.9815	327075	prompt	n/a	craft recruitment resistance dude\n
168.02	0.091	336040	keystroke	c	n/a
168.224	0.0905	336448	keystroke	r	n/a
168.291	0.111	336582	keystroke	a	n/a
168.443	0.09	336886	keystroke	f	n/a
168.625	0.113	337250	keystroke	t	n/a
168.671	0.111	337342	keystroke	Key.space	n/a
175.9265	0.136	351853	keystroke	r	n/a
176.0155	0.094	352031	keystroke	e	n/a
176.2005	0.1135	352401	keystroke	c	n/a
176.4425	0.09	352885	keystroke	r	n/a
176.5945	0.1115	353189	keystroke	u	n/a
176.661	0.0885	353322	keystroke	i	n/a
176.7725	0.091	353545	keystroke	t	n/a
176.9035	0.114	353807	keystroke	m	n/a
176.9935	0.091	353987	keystroke	e	n/a
177.1225	0.0685	354245	keystroke	n	n/a
177.1915	0.09	354383	keystroke	t	n/a
177.3035	0.09	354607	keystroke	Key.space	n/a
178.02	0.111	356040	keystroke	r	n/a
178.085	0.0915	356170	keystroke	e	n/a
178.275	0.067	356550	keystroke	s	n/a
178.517	0.1115	357034	keystroke	i	n/a
178.581	0.1385	357162	keystroke	t	n/a
178.6955	0.135	357391	keystroke	a	n/a
178.8315	0.066	357663	keystroke	n	n/a
178.9185	0.111	357837	keystroke	c	n/a
178.985	0.092	357970	keystroke	e	n/a
179.0525	0.1135	358105	keystroke	Key.space	n/a
179.514	0.068	359028	keystroke	Key.backspace	n/a
179.6475	0.089	359295	keystroke	Key.backspace	n/a
179.8065	0.088	359613	keystroke	Key.backspace	n/a
179.9655	0.089	359931	keystroke	Key.backspace	n/a
180.1275	0.09	360255	keystroke	Key.backspace	n/a
180.299	0.0905	360598	keystroke	Key.backspace	n/a
180.6785	0.1105	361357	keystroke	s	n/a
180.871	0.1115	361742	keystroke	t	n/a
181.0035	0.113	362007	keystroke	a	n/a
181.139	0.068	362278	keystroke	n	n/a
181.229	0.0935	362458	keystroke	c	n/a
181.277	0.1125	362554	keystroke	e	n/a
181.3435	0.089	362687	keystroke	Key.space	n/a
181.7065	0.0895	363413	keystroke	d	n/a
181.797	0.045	363594	keystroke	u	n/a
181.8805	0.0675	363761	keystroke	e	n/a
182.225	0.068	364450	keystroke	Key.backspace	n/a
182.2945	0.11	364589	keystroke	d	n/a
182.36	0.0915	364720	keystroke	e	n/a
182.472	0.0445	364944	keystroke	Key.enter	n/a
182.523	20.3385	365046	prompt	n/a	looksmart units offerings oxide\n
185.6845	0.0905	371369	keystroke	l	n/a
185.869	0.089	371738	keystroke	o	n/a
186.01	0.068	372020	keystroke	o	n/a
186.183	0.0885	372366	keystroke	k	n/a
186.3455	0.1355	372691	keystroke	s	n/a
186.837	0.0915	373674	keystroke	m	n/a
186.9295	0.1075	373859	keystroke	a	n/a
187.015	0.089	374030	keystroke	r	n/a
187.1805	0.1105	374361	keystroke	t	n/a
187.2915	0.0865	374583	keystroke	Key.space	n/a
192.165	0.092	384330	keystroke	u	n/a
192.374	0.089	384748	keystroke	n	n/a
192.441	0.0895	384882	keystroke	i	n/a
192.508	0.1565	385016	keystroke	t	n/a
192.596	0.1355	385192	keystroke	s	n/a
192.6655	0.1325	385331	keystroke	Key.space	n/a
196.046	0.0905	392092	keystroke	o	n/a
196.1135	0.091	392227	keystroke	f	n/a
196.2765	0.1145	392553	keystroke	f	n/a
196.366	0.0935	392732	keystroke	e	n/a
196.482	0.089	392964	keystroke	r	n/a
196.606	0.089	393212	keystroke	i	n/a
196.771	0.0895	393542	keystroke	n	n/a
196.815	0.1135	393630	keystroke	g	n/a
196.883	0.111	393766	keystroke	s	n/a
196.971	0.135	393942	keystroke	Key.space	n/a
197.287	0.0895	394574	keystroke	o	n/a
197.377	0.087	394754	keystroke	v	n/a
197.9845	0.0905	395969	keystroke	Key.backspace	n/a
198.2355	0.0905	396471	keystroke	x	n/a
198.5985	0.089	397197	keystroke	i	n/a
198.7085	0.1575	397417	keystroke	d	n/a
198.7755	0.135	397551	keystroke	e	n/a
198.9115	0.134	397823	keystroke	Key.space	n/a
202.793	0.066	405586	keystroke	Key.enter	n/a
202.8645	8.6915	405729	prompt	n/a	sheets coral emergency cathedral\n
203.7055	0.112	407411	keystroke	s	n/a
203.8855	0.0675	407771	keystroke	h	n/a
203.9535	0.0665	407907	keystroke	e	n/a
204.1655	0.067	408331	keystroke	e	n/a
205.78	0.11	411560	keystroke	t	n/a
206.4685	0.0895	412937	keystroke	s	n/a
206.559	0.0905	413118	keystroke	Key.space	n/a
206.6705	0.0895	413341	keystroke	c	n/a
206.7815	0.0665	413563	keystroke	o	n/a
206.878	0.1355	413756	keystroke	r	n/a
206.968	0.161	413936	keystroke	a	n/a
207.014	0.089	414028	keystroke	l	n/a
207.105	0.1115	414210	keystroke	Key.space	n/a
207.299	0.0915	414598	keystroke	e	n/a
207.3915	0.088	414783	keystroke	m	n/a
207.4805	0.1115	414961	keystroke	e	n/a
207.568	0.0685	415136	keystroke	r	n/a
207.728	0.0885	415456	keystroke	g	n/a
207.8395	0.091	415679	keystroke	e	n/a
207.9315	0.065	415863	keystroke	n	n/a
208.0495	0.091	416099	keystroke	c	n/a
208.1415	0.066	416283	keystroke	y	n/a
208.2085	0.088	416417	keystroke	Key.space	n/a
209.2495	0.0895	418499	keystroke	c	n/a
209.36	0.138	418720	keystroke	a	n/a
209.5265	0.1125	419053	keystroke	t	n/a
209.661	0.068	419322	keystroke	h	n/a
210.048	0.112	420096	keystroke	e	n/a
210.24	0.089	420480	keystroke	d	n/a
210.421	0.0905	420842	keystroke	r	n/a
210.488	0.1385	420976	keystroke	a	n/a
210.5555	0.093	421111	keystroke	l	n/a
210.67	0.1095	421340	keystroke	Key.space	n/a
211.32	0.0685	422640	keystroke	Key.backspace	n/a
211.5095	0.0445	423019	keystroke	Key.enter	n/a
211.5605	8.5985	423121	prompt	n/a	editorial venture ruled pour\n
212.4665	0.115	424933	keystroke	e	n/a
212.5575	0.1135	425115	keystroke	d	n/a
212.764	0.069	425528	keystroke	i	n/a
212.834	0.089	425668	keystroke	t	n/a
212.9525	0.0915	425905	keystroke	o	n/a
213.045	0.065	426090	keystroke	r	n/a
213.3055	0.111	426611	keystroke	a	n/a
213.4175	0.0655	426835	keystroke	l	n/a
213.7115	0.0905	427423	keystroke	Key.space	n/a
213.8805	0.111	427761	keystroke	v	n/a
213.9695	0.0915	427939	keystroke	e	n/a
214.061	0.0665	428122	keystroke	n	n/a
214.149	0.09	428298	keystroke	t	n/a
214.2765	0.069	428553	keystroke	u	n/a
214.3455	0.09	428691	keystroke	r	n/a
214.3665	0.093	428733	keystroke	e	n/a
214.4595	0.066	428919	keystroke	Key.space	n/a
215.071	0.0895	430142	keystroke	r	n/a
215.214	0.0685	430428	keystroke	u	n/a
215.4195	0.07	430839	keystroke	l	n/a
215.4655	0.091	430931	keystroke	e	n/a
215.589	0.0675	431178	keystroke	Key.space	n/a
215.9395	0.068	431879	keystroke	Key.backspace	n/a
216.0095	0.087	432019	keystroke	d	n/a
217.6805	0.065	435361	keystroke	Key.space	n/a
218.862	0.113	437724	keystroke	p	n/a
219.085	0.045	438170	keystroke	o	n/a
219.2615	0.0665	438523	keystroke	u	n/a
219.8175	0.1325	439635	keystroke	r	n/a
220.112	0.045	440224	keystroke	Key.enter	n/a
220.1625	12.053	440325	prompt	n/a	resist sponsor prints puts\n
222.4865	0.115	444973	keystroke	r	n/a
222.5565	0.0675	445113	keystroke	e	n/a
222.751	0.0895	445502	keystroke	s	n/a
222.878	0.0905	445756	keystroke	i	n/a
222.989	0.114	445978	keystroke	s	n/a
223.173	0.1115	446346	keystroke	t	n/a
223.2845	0.1095	446569	keystroke	a	n/a
223.534	0.089	447068	keystroke	Key.backspace	n/a
223.802	0.112	447604	keystroke	Key.space	n/a
223.952	0.116	447904	keystroke	s	n/a
224.0445	0.0905	448089	keystroke	p	n/a
224.187	0.0895	448374	keystroke	o	n/a
224.3805	0.0665	448761	keystroke	n	n/a
224.424	0.0905	448848	keystroke	s	n/a
224.577	0.091	449154	keystroke	o	n/a
224.6445	0.089	449289	keystroke	r	n/a
224.7345	0.107	449469	keystroke	Key.space	n/a
230.1425	0.088	460285	keystroke	p	n/a
230.277	0.1115	460554	keystroke	r	n/a
230.3895	0.0875	460779	keystroke	i	n/a
230.644	0.0885	461288	keystroke	n	n/a
230.7335	0.092	461467	keystroke	t	n/a
230.8015	0.068	461603	keystroke	s	n/a
231.0245	0.1125	462049	keystroke	Key.space	n/a
231.2405	0.0665	462481	keystroke	p	n/a
231.4405	0.067	462881	keystroke	u	n/a
231.528	0.1365	463056	keystroke	t	n/a
231.618	0.0495	463236	keystroke	s	n/a
232.1685	0.0455	464337	keystroke	Key.enter	n/a
232.2185	11.932	464437	prompt	n/a	roster explosion interstate understanding\n
232.82	0.113	465640	keystroke	r	n/a
232.908	0.0695	465816	keystroke	o	n/a
232.999	0.0695	465998	keystroke	s	n/a
233.1625	0.112	466325	keystroke	t	n/a
233.251	0.068	466502	keystroke	e	n/a
233.353	0.092	466706	keystroke	r	n/a
233.376	0.1145	466752	keystroke	Key.space	n/a
233.57	0.088	467140	keystroke	e	n/a
233.7355	0.1335	467471	keystroke	x	n/a
233.845	0.087	467690	keystroke	p	n/a
234.0305	0.089	468061	keystroke	l	n/a
234.228	0.046	468456	keystroke	o	n/a
234.295	0.091	468590	keystroke	s	n/a
234.485	0.1105	468970	keystroke	i	n/a
234.5515	0.088	469103	keystroke	o	n/a
234.735	0.0685	469470	keystroke	n	n/a
234.8045	0.11	469609	keystroke	Key.space	n/a
235.739	0.066	471478	keystroke	i	n/a
235.9005	0.091	471801	keystroke	n	n/a
235.947	0.0905	471894	keystroke	t	n/a
236.0135	0.1375	472027	keystroke	e	n/a
236.128	0.1375	472256	keystroke	r	n/a
236.241	0.0455	472482	keystroke	e	n/a
236.481	0.133	472962	keystroke	s	n/a
236.635	0.111	473270	keystroke	t	n/a
236.896	0.136	473792	keystroke	a	n/a
237.033	0.11	474066	keystroke	t	n/a
237.0975	0.1335	474195	keystroke	e	n/a
237.252	0.1135	474504	keystroke	Key.space	n/a
237.82	0.045	475640	keystroke	Key.backspace	n/a
241.71	0.1115	483420	keystroke	Key.space	n/a
242.5095	0.0905	485019	keystroke	u	n/a
242.6715	0.092	485343	keystroke	n	n/a
242.6945	0.1165	485389	keystroke	d	n/a
242.7645	0.0915	485529	keystroke	e	n/a
242.8975	0.113	485795	keystroke	r	n/a
243.011	0.0655	486022	keystroke	s	n/a
243.155	0.111	486310	keystroke	t	n/a
243.2435	0.0885	486487	keystroke	a	n/a
243.368	0.0685	486736	keystroke	n	n/a
243.4695	0.091	486939	keystroke	d	n/a
243.5825	0.07	487165	keystroke	i	n/a
243.6065	0.1125	487213	keystroke	n	n/a
243.72	0.0885	487440	keystroke	g	n/a
244.0785	0.07	488157	keystroke	Key.enter	n/a
244.1615	11.1715	488323	prompt	n/a	occupied klein ever california\n
249.86	0.088	499720	keystroke	o	n/a
249.9705	0.091	499941	keystroke	c	n/a
250.1385	0.068	500277	keystroke	c	n/a
250.3055	0.046	500611	keystroke	c	n/a
250.9375	0.115	501875	keystroke	Key.backspace	n/a
251.0535	0.1335	502107	keystroke	u	n/a
251.306	0.09	502612	keystroke	p	n/a
251.526	0.067	503052	keystroke	e	n/a
251.7395	0.1305	503479	keystroke	Key.backspace	n/a
252.1575	0.092	504315	keystroke	i	n/a
252.2255	0.093	504451	keystroke	e	n/a
252.3185	0.0885	504637	keystroke	d	n/a
252.4075	0.087	504815	keystroke	Key.space	n/a
252.613	0.0895	505226	keystroke	k	n/a
252.7245	0.046	505449	keystroke	e	n/a
252.8015	0.089	505603	keystroke	l	n/a
252.968	0.068	505936	keystroke	Key.backspace	n/a
253.1075	0.092	506215	keystroke	Key.backspace	n/a
253.176	0.0905	506352	keystroke	l	n/a
253.2675	0.0935	506535	keystroke	e	n/a
253.3625	0.0665	506725	keystroke	i	n/a
253.509	0.068	507018	keystroke	n	n/a
253.578	0.1115	507156	keystroke	Key.space	n/a
253.7735	0.09	507547	keystroke	e	n/a
253.8955	0.1125	507791	keystroke	v	n/a
253.9845	0.0675	507969	keystroke	e	n/a
254.1215	0.092	508243	keystroke	r	n/a
254.2145	0.067	508429	keystroke	Key.space	n/a
254.3345	0.0925	508669	keystroke	c	n/a
254.427	0.113	508854	keystroke	a	n/a
254.472	0.1125	508944	keystroke	l	n/a
254.676	0.09	509352	keystroke	i	n/a
254.742	0.068	509484	keystroke	f	n/a
254.8645	0.068	509729	keystroke	o	n/a
254.887	0.0905	509774	keystroke	r	n/a
255.0415	0.0655	510083	keystroke	n	n/a
255.0835	0.0685	510167	keystroke	i	n/a
255.128	0.0895	510256	keystroke	a	n/a
255.2635	0.0675	510527	keystroke	Key.enter	n/a
255.3375	5.638	510675	prompt	n/a	cost gotten symptoms skip\n
256.411	0.0875	512822	keystroke	c	n/a
256.5525	0.091	513105	keystroke	o	n/a
256.6435	0.089	513287	keystroke	s	n/a
256.764	0.0685	513528	keystroke	t	n/a
256.8335	0.0865	513667	keystroke	Key.space	n/a
257.176	0.068	514352	keystroke	g	n/a
257.245	0.09	514490	keystroke	o	n/a
257.399	0.065	514798	keystroke	t	n/a
257.528	0.0685	515056	keystroke	t	n/a
257.69	0.067	515380	keystroke	e	n/a
257.943	0.09	515886	keystroke	n	n/a
258.111	0.0895	516222	keystroke	Key.space	n/a
258.5015	0.112	517003	keystroke	s	n/a
258.59	0.091	517180	keystroke	y	n/a
258.869	0.09	517738	keystroke	m	n/a
258.913	0.112	517826	keystroke	p	n/a
259.514	0.133	519028	keystroke	t	n/a
259.831	0.091	519662	keystroke	o	n/a
260.018	0.089	520036	keystroke	m	n/a
260.108	0.088	520216	keystroke	s	n/a
260.197	0.088	520394	keystroke	Key.space	n/a
260.442	0.113	520884	keystroke	s	n/a
260.487	0.07	520974	keystroke	k	n/a
260.6235	0.135	521247	keystroke	i	n/a
260.734	0.089	521468	keystroke	p	n/a
260.905	0.0685	521810	keystroke	Key.enter	n/a
260.9785	18.015	521957	prompt	n/a	neighborhood optics production gambling\n
262.1875	0.069	524375	keystroke	n	n/a
262.2785	0.07	524557	keystroke	e	n/a
262.4075	0.091	524815	keystroke	i	n/a
262.475	0.091	524950	keystroke	g	n/a
262.567	0.069	525134	keystroke	h	n/a
262.742	0.09	525484	keystroke	b	n/a
262.787	0.136	525574	keystroke	o	n/a
262.899	0.046	525798	keystroke	r	n/a
263.1955	0.067	526391	keystroke	h	n/a
263.2635	0.089	526527	keystroke	o	n/a
263.394	0.0885	526788	keystroke	o	n/a
263.461	0.1105	526922	keystroke	d	n/a
263.5465	0.136	527093	keystroke	Key.space	n/a
263.8755	0.111	527751	keystroke	o	n/a
263.9415	0.089	527883	keystroke	p	n/a
264.0705	0.09	528141	keystroke	t	n/a
264.1885	0.0685	528377	keystroke	i	n/a
264.2975	0.11	528595	keystroke	c	n/a
264.671	0.0885	529342	keystroke	s	n/a
275.0055	0.111	550011	keystroke	Key.space	n/a
275.565	0.1095	551130	keystroke	p	n/a
275.6755	0.1105	551351	keystroke	r	n/a
275.8075	0.1115	551615	keystroke	o	n/a
275.9195	0.088	551839	keystroke	d	n/a
276.114	0.089	552228	keystroke	u	n/a
276.204	0.092	552408	keystroke	c	n/a
276.449	0.091	552898	keystroke	t	n/a
276.541	0.0655	553082	keystroke	i	n/a
276.561	0.068	553122	keystroke	o	n/a
276.751	0.069	553502	keystroke	n	n/a
277.048	0.134	554096	keystroke	Key.space	n/a
277.204	0.09	554408	keystroke	g	n/a
277.295	0.1135	554590	keystroke	a	n/a
277.462	0.1115	554924	keystroke	m	n/a
277.594	0.1365	555188	keystroke	b	n/a
277.683	0.091	555366	keystroke	l	n/a
277.834	0.067	555668	keystroke	i	n/a
277.974	0.089	555948	keystroke	n	n/a
278.04	0.1125	556080	keystroke	g	n/a
278.1535	0.11	556307	keystroke	Key.space	n/a
278.7115	0.092	557423	keystroke	Key.backspace	n/a
278.9245	0.0675	557849	keystroke	Key.enter	n/a
278.9995	4.6255	557999	prompt	n/a	venue rocks movement fleece\n
280.213	0.113	560426	keystroke	v	n/a
280.302	0.112	560604	keystroke	e	n/a
280.557	0.0455	561114	keystroke	n	n/a
280.558	0.1325	561116	keystroke	u	n/a
280.7105	0.091	561421	keystroke	e	n/a
280.8015	0.0895	561603	keystroke	Key.space	n/a
280.9385	0.0655	561877	keystroke	r	n/a
281.034	0.088	562068	keystroke	o	n/a
281.1435	0.0885	562287	keystroke	c	n/a
281.233	0.088	562466	keystroke	k	n/a
281.362	0.0685	562724	keystroke	s	n/a
281.431	0.133	562862	keystroke	Key.space	n/a
282.0535	0.111	564107	keystroke	m	n/a
282.1185	0.095	564237	keystroke	o	n/a
282.2135	0.111	564427	keystroke	v	n/a
282.302	0.0895	564604	keystroke	e	n/a
282.3685	0.068	564737	keystroke	m	n/a
282.5515	0.0885	565103	keystroke	e	n/a
282.6625	0.09	565325	keystroke	n	n/a
282.7535	0.088	565507	keystroke	t	n/a
282.8425	0.088	565685	keystroke	Key.space	n/a
282.951	0.0675	565902	keystroke	f	n/a
283.0415	0.09	566083	keystroke	l	n/a
283.108	0.068	566216	keystroke	e	n/a
283.253	0.068	566506	keystroke	e	n/a
283.322	0.1345	566644	keystroke	c	n/a
283.4315	0.071	566863	keystroke	e	n/a
283.5575	0.0655	567115	keystroke	Key.enter	n/a
283.6295	7.967	567259	prompt	n/a	offer anger compensation cant\n
284.125	0.0895	568250	keystroke	o	n/a
284.2355	0.024	568471	keystroke	f	n/a
284.3945	0.087	568789	keystroke	f	n/a
284.4825	0.112	568965	keystroke	e	n/a
284.5955	0.11	569191	keystroke	r	n/a
284.6825	0.066	569365	keystroke	Key.space	n/a
284.7725	0.133	569545	keystroke	a	n/a
284.9075	0.066	569815	keystroke	n	n/a
284.9505	0.09	569901	keystroke	g	n/a
285.0185	0.0895	570037	keystroke	e	n/a
285.139	0.0885	570278	keystroke	r	n/a
285.2285	0.066	570457	keystroke	Key.space	n/a
285.3685	0.088	570737	keystroke	c	n/a
285.4335	0.069	570867	keystroke	o	n/a
285.617	0.067	571234	keystroke	m	n/a
285.6395	0.113	571279	keystroke	p	n/a
285.7735	0.092	571547	keystroke	e	n/a
286.022	0.0905	572044	keystroke	s	n/a
286.1135	0.067	572227	keystroke	n	n/a
286.3065	0.09	572613	keystroke	s	n/a
286.5695	0.112	573139	keystroke	t	n/a
286.7715	0.068	573543	keystroke	Key.backspace	n/a
286.9145	0.1125	573829	keystroke	Key.backspace	n/a
287.0275	0.11	574055	keystroke	a	n/a
287.2725	0.066	574545	keystroke	Key.backspace	n/a
287.4265	0.111	574853	keystroke	Key.backspace	n/a
287.58	0.1085	575160	keystroke	a	n/a
288.0615	0.1135	576123	keystroke	Key.backspace	n/a
288.412	0.1555	576824	keystroke	Key.backspace	n/a
288.9355	0.114	577871	keystroke	e	n/a
289.257	0.0915	578514	keystroke	Key.backspace	n/a
289.3705	0.068	578741	keystroke	n	n/a
289.439	0.11	578878	keystroke	s	n/a
289.6585	0.112	579317	keystroke	t	n/a
289.747	0.1135	579494	keystroke	a	n/a
289.861	0.066	579722	keystroke	t	n/a
289.9275	0.0415	579855	keystroke	u	n/a
290.3185	0.1315	580637	keystroke	Key.backspace	n/a
290.591	0.07	581182	keystroke	i	n/a
290.6135	0.0705	581227	keystroke	o	n/a
290.785	0.068	581570	keystroke	n	n/a
290.854	0.132	581708	keystroke	Key.space	n/a
291.065	0.113	582130	keystroke	c	n/a
291.238	0.0895	582476	keystroke	a	n/a
291.328	0.066	582656	keystroke	n	n/a
291.415	0.089	582830	keystroke	t	n/a
291.526	0.068	583052	keystroke	Key.enter	n/a
291.6005	6.111	583201	prompt	n/a	ottawa resumes virtually cooling\n
292.1635	0.091	584327	keystroke	o	n/a
292.285	0.1105	584570	keystroke	w	n/a
292.641	0.024	585282	keystroke	Key.backspace	n/a
292.921	0.065	585842	keystroke	t	n/a
293.079	0.09	586158	keystroke	t	n/a
293.17	0.132	586340	keystroke	a	n/a
293.303	0.065	586606	keystroke	w	n/a
293.54	0.0665	587080	keystroke	a	n/a
293.727	0.0905	587454	keystroke	Key.space	n/a
293.8395	0.089	587679	keystroke	r	n/a
293.8845	0.09	587769	keystroke	e	n/a
294.071	0.0895	588142	keystroke	s	n/a
294.1375	0.0895	588275	keystroke	u	n/a
294.3095	0.09	588619	keystroke	m	n/a
294.354	0.0465	588708	keystroke	e	n/a
294.4735	0.0665	588947	keystroke	s	n/a
294.561	0.068	589122	keystroke	Key.space	n/a
294.651	0.089	589302	keystroke	v	n/a
294.9765	0.068	589953	keystroke	r	n/a
295.2615	0.112	590523	keystroke	Key.backspace	n/a
295.396	0.1115	590792	keystroke	i	n/a
295.5635	0.089	591127	keystroke	r	n/a
295.7675	0.0665	591535	keystroke	t	n/a
295.8555	0.0675	591711	keystroke	u	n/a
295.944	0.0685	591888	keystroke	a	n/a
296.048	0.069	592096	keystroke	l	n/a
296.16	0.0665	592320	keystroke	l	n/a
296.655	0.0695	593310	keystroke	y	n/a
296.7455	0.067	593491	keystroke	Key.space	n/a
296.8335	0.091	593667	keystroke	c	n/a
296.925	0.0635	593850	keystroke	o	n/a
297.0405	0.0875	594081	keystroke	o	n/a
297.172	0.066	594344	keystroke	l	n/a
297.306	0.069	594612	keystroke	i	n/a
297.466	0.068	594932	keystroke	n	n/a
297.534	0.065	595068	keystroke	g	n/a
297.62	0.09	595240	keystroke	Key.enter	n/a
297.7165	8.716	595433	prompt	n/a	tribute enables battery uniform\n
298.244	0.115	596488	keystroke	t	n/a
298.3115	0.09	596623	keystroke	r	n/a
298.611	0.067	597222	keystroke	i	n/a
298.701	0.09	597402	keystroke	b	n/a
298.82	0.068	597640	keystroke	u	n/a
298.918	0.134	597836	keystroke	t	n/a
299.0295	0.067	598059	keystroke	e	n/a
299.1175	0.091	598235	keystroke	Key.space	n/a
299.429	0.09	598858	keystroke	e	n/a
299.43	0.043	598860	keystroke	n	n/a
299.8195	0.0675	599639	keystroke	Key.backspace	n/a
300.159	0.069	600318	keystroke	n	n/a
300.205	0.089	600410	keystroke	a	n/a
300.27	0.112	600540	keystroke	b	n/a
300.403	0.1135	600806	keystroke	l	n/a
300.538	0.0455	601076	keystroke	r	n/a
300.898	0.09	601796	keystroke	Key.backspace	n/a
300.989	0.089	601978	keystroke	e	n/a
301.161	0.091	602322	keystroke	s	n/a
301.227	0.092	602454	keystroke	Key.space	n/a
301.549	0.091	603098	keystroke	b	n/a
301.642	0.131	603284	keystroke	a	n/a
301.7515	0.0675	603503	keystroke	t	n/a
301.898	0.115	603796	keystroke	t	n/a
301.989	0.1365	603978	keystroke	e	n/a
302.1015	0.0925	604203	keystroke	r	n/a
302.1465	0.092	604293	keystroke	y	n/a
302.215	0.111	604430	keystroke	Key.space	n/a
302.7515	0.089	605503	keystroke	u	n/a
302.9905	0.0665	605981	keystroke	i	n/a
303.058	0.0215	606116	keystroke	f	n/a
303.2635	0.089	606527	keystroke	Key.backspace	n/a
303.4265	0.1125	606853	keystroke	Key.backspace	n/a
303.6505	0.0675	607301	keystroke	n	n/a
303.673	0.0895	607346	keystroke	i	n/a
303.879	0.0875	607758	keystroke	f	n/a
304.246	0.0895	608492	keystroke	u	n/a
304.3805	0.088	608761	keystroke	r	n/a
304.568	0.0655	609136	keystroke	Key.backspace	n/a
304.7085	0.092	609417	keystroke	Key.backspace	n/a
304.8025	0.111	609605	keystroke	r	n/a
304.8455	0.112	609691	keystroke	o	n/a
305.0665	0.09	610133	keystroke	m	n/a
305.454	0.065	610908	keystroke	Key.backspace	n/a
305.618	0.068	611236	keystroke	Key.backspace	n/a
305.802	0.069	611604	keystroke	Key.backspace	n/a
305.9675	0.134	611935	keystroke	o	n/a
306.0795	0.156	612159	keystroke	r	n/a
306.2115	0.0475	612423	keystroke	k	n/a
306.3845	0.046	612769	keystroke	Key.enter	n/a
306.4365	11.7965	612873	prompt	n/a	tulsa sucking fake beat\n
307.477	0.109	614954	keystroke	t	n/a
307.6255	0.089	615251	keystroke	u	n/a
307.773	0.045	615546	keystroke	s	n/a
307.848	0.0665	615696	keystroke	l	n/a
308.001	0.045	616002	keystroke	Key.backspace	n/a
308.144	0.0685	616288	keystroke	Key.backspace	n/a
308.3805	0.091	616761	keystroke	l	n/a
308.472	0.091	616944	keystroke	s	n/a
308.563	0.0875	617126	keystroke	Key.space	n/a
309.668	0.089	619336	keystroke	Key.backspace	n/a
309.843	0.1555	619686	keystroke	a	n/a
310.069	0.087	620138	keystroke	Key.space	n/a
311.9435	0.1125	623887	keystroke	s	n/a
312.088	0.068	624176	keystroke	u	n/a
312.1775	0.0905	624355	keystroke	c	n/a
312.2685	0.091	624537	keystroke	k	n/a
312.4365	0.0885	624873	keystroke	i	n/a
312.6195	0.069	625239	keystroke	n	n/a
312.6895	0.111	625379	keystroke	g	n/a
312.801	0.1125	625602	keystroke	Key.space	n/a
313.346	0.1595	626692	keystroke	f	n/a
313.4135	0.1145	626827	keystroke	a	n/a
313.557	0.0685	627114	keystroke	k	n/a
313.647	0.1335	627294	keystroke	e	n/a
313.781	0.0915	627562	keystroke	Key.space	n/a
314.599	0.068	629198	keystroke	b	n/a
314.643	0.156	629286	keystroke	e	n/a
314.73	0.1585	629460	keystroke	a	n/a
314.865	0.091	629730	keystroke	t	n/a
314.957	0.0875	629914	keystroke	Key.space	n/a
317.578	0.066	635156	keystroke	Key.backspace	n/a
318.186	0.0455	636372	keystroke	Key.enter	n/a
318.236	12.1215	636472	prompt	n/a	eventually acoustic consoles richards\n
323.8185	0.0865	647637	keystroke	e	n/a
324.063	0.11	648126	keystroke	v	n/a
324.635	0.066	649270	keystroke	e	n/a
324.723	0.0665	649446	keystroke	n	n/a
325.166	0.111	650332	keystroke	t	n/a
325.232	0.09	650464	keystroke	u	n/a
325.365	0.111	650730	keystroke	a	n/a
325.478	0.067	650956	keystroke	l	n/a
325.596	0.067	651192	keystroke	l	n/a
325.6845	0.112	651369	keystroke	y	n/a
325.753	0.112	651506	keystroke	Key.space	n/a
326.1755	0.1105	652351	keystroke	a	n/a
326.264	0.0915	652528	keystroke	c	n/a
326.5195	0.0885	653039	keystroke	o	n/a
326.71	0.0905	653420	keystroke	u	n/a
326.8015	0.088	653603	keystroke	s	n/a
326.8655	0.096	653731	keystroke	t	n/a
326.962	0.069	653924	keystroke	i	n/a
327.1265	0.068	654253	keystroke	c	n/a
327.1715	0.112	654343	keystroke	Key.space	n/a
327.7925	0.0905	655585	keystroke	c	n/a
327.8595	0.069	655719	keystroke	o	n/a
328.034	0.068	656068	keystroke	n	n/a
328.125	0.0685	656250	keystroke	s	n/a
328.2245	0.0885	656449	keystroke	o	n/a
328.375	0.09	656750	keystroke	l	n/a
328.419	0.0905	656838	keystroke	e	n/a
328.5295	0.1115	657059	keystroke	Key.space	n/a
328.789	0.091	657578	keystroke	r	n/a
328.9015	0.069	657803	keystroke	i	n/a
329	0.0685	658000	keystroke	c	n/a
329.098	0.091	658196	keystroke	h	n/a
329.19	0.112	658380	keystroke	a	n/a
329.2795	0.066	658559	keystroke	r	n/a
329.448	0.11	658896	keystroke	d	n/a
329.8485	0.0235	659697	keystroke	s	n/a
330.2885	0.0675	660577	keystroke	Key.enter	n/a
330.3605	5.203	660721	prompt	n/a	river police cats humans\n
331.3795	0.11	662759	keystroke	r	n/a
331.4665	0.09	662933	keystroke	i	n/a
331.6035	0.133	663207	keystroke	v	n/a
331.6925	0.088	663385	keystroke	e	n/a
331.8735	0.0895	663747	keystroke	r	n/a
331.964	0.1095	663928	keystroke	Key.space	n/a
332.1325	0.135	664265	keystroke	c	n/a
332.2225	0.089	664445	keystroke	o	n/a
332.4565	0.091	664913	keystroke	Key.backspace	n/a
332.6215	0.0875	665243	keystroke	Key.backspace	n/a
332.731	0.09	665462	keystroke	p	n/a
332.9255	0.09	665851	keystroke	o	n/a
333.0795	0.089	666159	keystroke	l	n/a
333.2565	0.068	666513	keystroke	i	n/a
333.3005	0.1345	666601	keystroke	c	n/a
333.466	0.111	666932	keystroke	e	n/a
333.5985	0.1355	667197	keystroke	Key.space	n/a
333.6885	0.134	667377	keystroke	c	n/a
333.7775	0.1155	667555	keystroke	a	n/a
333.981	0.092	667962	keystroke	t	n/a
334.048	0.091	668096	keystroke	s	n/a
334.14	0.0885	668280	keystroke	Key.space	n/a
334.433	0.0895	668866	keystroke	h	n/a
334.4995	0.0675	668999	keystroke	u	n/a
334.6585	0.0685	669317	keystroke	m	n/a
334.681	0.09	669362	keystroke	a	n/a
334.814	0.0905	669628	keystroke	n	n/a
334.881	0.113	669762	keystroke	d	n/a
335.23	0.0675	670460	keystroke	Key.backspace	n/a
335.319	0.1115	670638	keystroke	s	n/a
335.472	0.089	670944	keystroke	Key.enter	n/a
335.5675	8.7395	671135	prompt	n/a	you'll recipe point clips\n
338.0295	0.093	676059	keystroke	y	n/a
338.0755	0.1145	676151	keystroke	o	n/a
338.191	0.0885	676382	keystroke	u	n/a
338.8465	0.0685	677693	keystroke	'	n/a
339.083	0.0675	678166	keystroke	l	n/a
339.2095	0.088	678419	keystroke	l	n/a
339.3375	0.111	678675	keystroke	Key.space	n/a
339.6595	0.1115	679319	keystroke	e	n/a
339.9225	0.113	679845	keystroke	Key.backspace	n/a
340.013	0.0925	680026	keystroke	r	n/a
340.0585	0.069	680117	keystroke	e	n/a
340.2195	0.088	680439	keystroke	c	n/a
340.285	0.0885	680570	keystroke	i	n/a
340.329	0.111	680658	keystroke	p	n/a
340.462	0.089	680924	keystroke	e	n/a
340.597	0.1115	681194	keystroke	Key.space	n/a
341.094	0.112	682188	keystroke	o	n/a
341.519	0.113	683038	keystroke	Key.backspace	n/a
341.6715	0.11	683343	keystroke	p	n/a
341.8585	0.112	683717	keystroke	o	n/a
342.0255	0.0915	684051	keystroke	i	n/a
342.2085	0.068	684417	keystroke	n	n/a
342.2525	0.112	684505	keystroke	t	n/a
342.3855	0.0895	684771	keystroke	Key.space	n/a
343.024	0.132	686048	keystroke	c	n/a
343.157	0.0655	686314	keystroke	l	n/a
343.346	0.0655	686692	keystroke	i	n/a
343.4125	0.042	686825	keystroke	p	n/a
343.4995	0.089	686999	keystroke	s	n/a
344.2385	0.067	688477	keystroke	Key.enter	n/a
344.3105	19.5265	688621	prompt	n/a	positions adjust conclusion lincoln\n
345.852	0.089	691704	keystroke	p	n/a
346.025	0.09	692050	keystroke	o	n/a
346.202	0.115	692404	keystroke	s	n/a
346.294	0.0905	692588	keystroke	i	n/a
346.4305	0.135	692861	keystroke	t	n/a
346.5415	0.09	693083	keystroke	i	n/a
346.5665	0.087	693133	keystroke	o	n/a
346.7515	0.093	693503	keystroke	n	n/a
346.8205	0.135	693641	keystroke	Key.space	n/a
348.8935	0.091	697787	keystroke	Key.backspace	n/a
349.0065	0.1115	698013	keystroke	s	n/a
349.1185	0.133	698237	keystroke	Key.space	n/a
356.1255	0.11	712251	keystroke	a	n/a
356.213	0.1575	712426	keystroke	d	n/a
356.487	0.0455	712974	keystroke	j	n/a
356.6175	0.0915	713235	keystroke	u	n/a
356.7095	0.11	713419	keystroke	s	n/a
356.796	0.1585	713592	keystroke	t	n/a
356.8865	0.09	713773	keystroke	Key.space	n/a
357.3835	0.1135	714767	keystroke	c	n/a
357.451	0.0675	714902	keystroke	o	n/a
357.618	0.0895	715236	keystroke	n	n/a
357.7295	0.113	715459	keystroke	c	n/a
357.8435	0.068	715687	keystroke	l	n/a
358.0115	0.069	716023	keystroke	u	n/a
358.0575	0.068	716115	keystroke	s	n/a
358.1885	0.1375	716377	keystroke	i	n/a
358.2325	0.1615	716465	keystroke	o	n/a
358.4815	0.1115	716963	keystroke	n	n/a
358.593	0.111	717186	keystroke	Key.space	n/a
358.877	0.0685	717754	keystroke	l	n/a
359.0615	0.069	718123	keystroke	i	n/a
359.181	0.11	718362	keystroke	c	n/a
359.313	0.046	718626	keystroke	o	n/a
359.44	0.0905	718880	keystroke	l	n/a
359.64	0.067	719280	keystroke	n	n/a
359.9495	0.1345	719899	keystroke	Key.space	n/a
360.374	0.09	720748	keystroke	Key.backspace	n/a
360.555	0.089	721110	keystroke	Key.backspace	n/a
361.565	0.0905	723130	keystroke	n	n/a
361.6915	0.1335	723383	keystroke	Key.space	n/a
363.464	0.0685	726928	keystroke	Key.backspace	n/a
363.748	0.0875	727496	keystroke	Key.enter	n/a
363.8405	17.922	727681	prompt	n/a	courses stood certification constructed\n
366.081	0.111	732162	keystroke	c	n/a
366.327	0.09	732654	keystroke	u	n/a
366.509	0.111	733018	keystroke	r	n/a
366.774	0.09	733548	keystroke	Key.backspace	n/a
366.9245	0.1575	733849	keystroke	Key.backspace	n/a
367.084	0.045	734168	keystroke	o	n/a
367.1055	0.1125	734211	keystroke	u	n/a
367.239	0.1135	734478	keystroke	r	n/a
367.308	0.156	734616	keystroke	s	n/a
367.44	0.133	734880	keystroke	e	n/a
367.5505	0.1095	735101	keystroke	Key.space	n/a
368.1825	0.067	736365	keystroke	Key.backspace	n/a
368.3305	0.134	736661	keystroke	s	n/a
369.888	0.088	739776	keystroke	Key.space	n/a
370.0795	0.1355	740159	keystroke	s	n/a
370.1915	0.1335	740383	keystroke	t	n/a
370.302	0.067	740604	keystroke	o	n/a
370.459	0.09	740918	keystroke	o	n/a
370.611	0.1525	741222	keystroke	d	n/a
370.7395	0.112	741479	keystroke	Key.space	n/a
371.4175	0.1135	742835	keystroke	c	n/a
371.532	0.089	743064	keystroke	e	n/a
371.643	0.091	743286	keystroke	r	n/a
371.821	0.088	743642	keystroke	t	n/a
371.91	0.065	743820	keystroke	i	n/a
372.043	0.1085	744086	keystroke	f	n/a
372.347	0.09	744694	keystroke	i	n/a
372.437	0.086	744874	keystroke	c	n/a
372.5	0.0925	745000	keystroke	a	n/a
372.746	0.09	745492	keystroke	i	n/a
372.955	0.089	745910	keystroke	Key.backspace	n/a
373.078	0.113	746156	keystroke	t	n/a
373.167	0.089	746334	keystroke	i	n/a
373.233	0.088	746466	keystroke	o	n/a
373.3865	0.067	746773	keystroke	n	n/a
373.4545	0.1535	746909	keystroke	Key.space	n/a
379.7505	0.1555	759501	keystroke	c	n/a
379.957	0.0925	759914	keystroke	o	n/a
380.158	0.068	760316	keystroke	n	n/a
380.247	0.0895	760494	keystroke	s	n/a
380.438	0.1565	760876	keystroke	t	n/a
380.5475	0.114	761095	keystroke	r	n/a
380.5715	0.092	761143	keystroke	u	n/a
380.795	0.111	761590	keystroke	c	n/a
380.99	0.0895	761980	keystroke	t	n/a
381.08	0.0645	762160	keystroke	e	n/a
381.223	0.112	762446	keystroke	d	n/a
381.691	0.069	763382	keystroke	Key.enter	n/a
381.767	12.5265	763534	prompt	n/a	hotmail truth levitra qualify\n
383.251	0.069	766502	keystroke	h	n/a
383.274	0.091	766548	keystroke	o	n/a
383.366	0.087	766732	keystroke	t	n/a
383.474	0.09	766948	keystroke	m	n/a
383.565	0.089	767130	keystroke	a	n/a
383.655	0.089	767310	keystroke	i	n/a
383.818	0.069	767636	keystroke	l	n/a
383.9095	0.111	767819	keystroke	Key.space	n/a
384.2055	0.1125	768411	keystroke	t	n/a
384.319	0.066	768638	keystroke	u	n/a
384.409	0.046	768818	keystroke	r	n/a
384.544	0.0695	769088	keystroke	Key.backspace	n/a
384.678	0.1125	769356	keystroke	Key.backspace	n/a
384.7905	0.0455	769581	keystroke	r	n/a
384.875	0.0675	769750	keystroke	u	n/a
384.9435	0.1325	769887	keystroke	t	n/a
385.078	0.067	770156	keystroke	h	n/a
385.145	0.11	770290	keystroke	Key.space	n/a
388.108	0.1115	776216	keystroke	l	n/a
388.1975	0.112	776395	keystroke	e	n/a
388.3305	0.1335	776661	keystroke	v	n/a
389.318	0.1125	778636	keystroke	i	n/a
389.8145	0.133	779629	keystroke	t	n/a
389.9255	0.113	779851	keystroke	r	n/a
390.0725	0.179	780145	keystroke	a	n/a
390.183	0.1365	780366	keystroke	Key.space	n/a
390.682	0.157	781364	keystroke	q	n/a
390.957	0.069	781914	keystroke	u	n/a
391.2435	0.0915	782487	keystroke	a	n/a
391.3555	0.068	782711	keystroke	l	n/a
391.5135	0.0675	783027	keystroke	i	n/a
391.6025	0.111	783205	keystroke	f	n/a
391.7435	0.069	783487	keystroke	y	n/a
391.7895	0.111	783579	keystroke	Key.space	n/a
393.923	0.068	787846	keystroke	Key.backspace	n/a
394.224	0.068	788448	keystroke	Key.enter	n/a
394.299	9.048	788598	prompt	n/a	almost compatible effectively garlic\n
395.7125	0.136	791425	keystroke	a	n/a
395.8695	0.0685	791739	keystroke	l	n/a
396.103	0.1135	792206	keystroke	m	n/a
396.171	0.1135	792342	keystroke	o	n/a
396.2385	0.09	792477	keystroke	s	n/a
396.3295	0.1125	792659	keystroke	t	n/a
396.395	0.09	792790	keystroke	Key.space	n/a
397.113	0.1315	794226	keystroke	c	n/a
397.221	0.0915	794442	keystroke	o	n/a
397.3895	0.0905	794779	keystroke	m	n/a
397.455	0.135	794910	keystroke	p	n/a
397.894	0.1355	795788	keystroke	t	n/a
398.1395	0.112	796279	keystroke	Key.backspace	n/a
398.2285	0.0905	796457	keystroke	a	n/a
398.2955	0.09	796591	keystroke	t	n/a
398.4355	0.09	796871	keystroke	i	n/a
398.6765	0.113	797353	keystroke	b	n/a
398.8115	0.0685	797623	keystroke	l	n/a
398.8805	0.0895	797761	keystroke	e	n/a
398.9705	0.1095	797941	keystroke	Key.space	n/a
399.488	0.11	798976	keystroke	e	n/a
399.69	0.0675	799380	keystroke	f	n/a
399.864	0.133	799728	keystroke	f	n/a
400.244	0.0925	800488	keystroke	e	n/a
400.337	0.1085	800674	keystroke	c	n/a
400.554	0.0875	801108	keystroke	t	n/a
400.6425	0.0875	801285	keystroke	l	n/a
400.753	0.114	801506	keystroke	y	n/a
400.8885	0.091	801777	keystroke	Key.space	n/a
401.458	0.1125	802916	keystroke	g	n/a
401.5245	0.1115	803049	keystroke	a	n/a
401.674	0.067	803348	keystroke	r	n/a
401.7185	0.0455	803437	keystroke	l	n/a
402.214	0.068	804428	keystroke	i	n/a
402.283	0.1305	804566	keystroke	c	n/a
402.5345	0.088	805069	keystroke	Key.space	n/a
403.0555	0.089	806111	keystroke	Key.backspace	n/a
403.278	0.067	806556	keystroke	Key.enter	n/a
403.3515	6.499	806703	prompt	n/a	adding adaptive lycos told\n
404.0655	0.1145	808131	keystroke	a	n/a
404.1555	0.091	808311	keystroke	d	n/a
404.3235	0.111	808647	keystroke	d	n/a
404.4565	0.069	808913	keystroke	i	n/a
404.6095	0.068	809219	keystroke	n	n/a
404.6545	0.067	809309	keystroke	g	n/a
404.7435	0.068	809487	keystroke	Key.space	n/a
404.8635	0.1105	809727	keystroke	a	n/a
404.975	0.113	809950	keystroke	Key.space	n/a
405.2255	0.1095	810451	keystroke	Key.backspace	n/a
405.336	0.134	810672	keystroke	d	n/a
405.4025	0.1575	810805	keystroke	a	n/a
405.561	0.065	811122	keystroke	p	n/a
405.7475	0.135	811495	keystroke	a	n/a
405.8355	0.115	811671	keystroke	t	n/a
405.9705	0.09	811941	keystroke	i	n/a
406.2605	0.112	812521	keystroke	v	n/a
407.18	0.1125	814360	keystroke	e	n/a
407.4715	0.046	814943	keystroke	Key.space	n/a
407.708	0.0905	815416	keystroke	l	n/a
407.9465	0.071	815893	keystroke	y	n/a
408.253	0.067	816506	keystroke	c	n/a
408.3935	0.07	816787	keystroke	o	n/a
408.5885	0.067	817177	keystroke	s	n/a
408.6765	0.11	817353	keystroke	Key.space	n/a
408.923	0.112	817846	keystroke	t	n/a
408.989	0.09	817978	keystroke	o	n/a
409.146	0.068	818292	keystroke	l	n/a
409.192	0.092	818384	keystroke	d	n/a
409.285	0.0865	818570	keystroke	Key.space	n/a
409.61	0.069	819220	keystroke	Key.backspace	n/a
409.7825	0.066	819565	keystroke	Key.enter	n/a
409.854	3.333	819708	prompt	n/a	burner traditions cream gmbh\n
410.7255	0.0695	821451	keystroke	b	n/a
410.749	0.1135	821498	keystroke	u	n/a
410.8155	0.069	821631	keystroke	r	n/a
410.924	0.0685	821848	keystroke	n	n/a
411.0135	0.0915	822027	keystroke	e	n/a
411.0825	0.1145	822165	keystroke	r	n/a
411.1495	0.046	822299	keystroke	Key.space	n/a
411.5565	0.136	823113	keystroke	t	n/a
411.6685	0.113	823337	keystroke	r	n/a
411.7585	0.135	823517	keystroke	a	n/a
411.9145	0.0455	823829	keystroke	d	n/a
411.997	0.066	823994	keystroke	i	n/a
412.109	0.088	824218	keystroke	t	n/a
412.673	0.091	825346	keystroke	i	n/a
412.765	0.066	825530	keystroke	o	n/a
412.93	0.046	825860	keystroke	n	n/a
412.954	0.066	825908	keystroke	s	n/a
413.141	0.044	826282	keystroke	Key.enter	n/a
413.1905	12.948	826381	prompt	n/a	crude does cargo traveling\n
413.9525	0.089	827905	keystroke	c	n/a
414.1795	0.09	828359	keystroke	r	n/a
414.2705	0.065	828541	keystroke	u	n/a
414.374	0.1105	828748	keystroke	d	n/a
414.8555	0.091	829711	keystroke	e	n/a
415.2455	0.066	830491	keystroke	Key.space	n/a
417.236	0.136	834472	keystroke	c	n/a
417.484	0.1145	834968	keystroke	Key.backspace	n/a
417.5745	0.1135	835149	keystroke	d	n/a
417.688	0.088	835376	keystroke	o	n/a
417.7985	0.0455	835597	keystroke	e	n/a
417.93	0.0895	835860	keystroke	s	n/a
417.9955	0.113	835991	keystroke	Key.space	n/a
419.9605	0.092	839921	keystroke	c	n/a
420.34	0.1335	840680	keystroke	a	n/a
420.4495	0.089	840899	keystroke	r	n/a
421.138	0.1095	842276	keystroke	g	n/a
421.224	0.068	842448	keystroke	o	n/a
421.313	0.133	842626	keystroke	Key.space	n/a
421.593	0.0915	843186	keystroke	t	n/a
421.636	0.0945	843272	keystroke	r	n/a
421.7515	0.1365	843503	keystroke	a	n/a
421.8625	0.1165	843725	keystroke	v	n/a
421.933	0.1105	843866	keystroke	e	n/a
422.0005	0.0655	844001	keystroke	l	n/a
422.165	0.0665	844330	keystroke	i	n/a
422.321	0.07	844642	keystroke	n	n/a
422.366	0.093	844732	keystroke	g	n/a
422.435	0.1115	844870	keystroke	Key.space	n/a
425.707	0.086	851414	keystroke	Key.backspace	n/a
426.0235	0.113	852047	keystroke	Key.enter	n/a
426.0465	0.068	852093	keystroke	\	n/a
426.1425	8.9035	852285	prompt	n/a	give icons diagnosis worthy\n
428.6695	0.091	857339	keystroke	g	n/a
428.7615	0.0865	857523	keystroke	i	n/a
428.8795	0.1115	857759	keystroke	v	n/a
428.944	0.112	857888	keystroke	e	n/a
429.165	0.1105	858330	keystroke	s	n/a
429.2965	0.1365	858593	keystroke	Key.space	n/a
429.4675	0.091	858935	keystroke	Key.backspace	n/a
429.625	0.0895	859250	keystroke	Key.backspace	n/a
429.7485	0.09	859497	keystroke	Key.space	n/a
429.8595	0.0915	859719	keystroke	i	n/a
429.9275	0.1345	859855	keystroke	c	n/a
430.0625	0.0655	860125	keystroke	o	n/a
430.2445	0.07	860489	keystroke	n	n/a
430.3165	0.088	860633	keystroke	s	n/a
432.0585	0.112	864117	keystroke	Key.space	n/a
432.289	0.09	864578	keystroke	d	n/a
432.4	0.0685	864800	keystroke	i	n/a
432.4705	0.132	864941	keystroke	a	n/a
432.58	0.088	865160	keystroke	g	n/a
433.101	0.068	866202	keystroke	n	n/a
433.484	0.088	866968	keystroke	o	n/a
433.5945	0.0665	867189	keystroke	s	n/a
433.683	0.068	867366	keystroke	i	n/a
433.752	0.068	867504	keystroke	s	n/a
434.055	0.09	868110	keystroke	Key.space	n/a
434.208	0.112	868416	keystroke	w	n/a
434.341	0.07	868682	keystroke	o	n/a
434.412	0.0655	868824	keystroke	r	n/a
434.562	0.091	869124	keystroke	t	n/a
434.63	0.066	869260	keystroke	h	n/a
434.788	0.068	869576	keystroke	y	n/a
434.977	0.067	869954	keystroke	Key.enter	n/a
435.0495	6.612	870099	prompt	n/a	truly synthesis carol worldcat\n
435.992	0.132	871984	keystroke	t	n/a
436.057	0.089	872114	keystroke	r	n/a
436.183	0.068	872366	keystroke	u	n/a
436.3685	0.112	872737	keystroke	l	n/a
436.4345	0.114	872869	keystroke	y	n/a
436.5245	0.114	873049	keystroke	Key.space	n/a
437.3915	0.1085	874783	keystroke	s	n/a
437.521	0.0895	875042	keystroke	y	n/a
437.7155	0.11	875431	keystroke	n	n/a
438.2795	0.1125	876559	keystroke	t	n/a
438.368	0.0685	876736	keystroke	h	n/a
438.4575	0.0895	876915	keystroke	e	n/a
438.6885	0.089	877377	keystroke	s	n/a
438.8535	0.1125	877707	keystroke	i	n/a
438.9425	0.1125	877885	keystroke	s	n/a
439.057	0.106	878114	keystroke	Key.space	n/a
439.278	0.111	878556	keystroke	c	n/a
439.391	0.089	878782	keystroke	a	n/a
439.5095	0.0915	879019	keystroke	r	n/a
439.5315	0.093	879063	keystroke	o	n/a
439.686	0.088	879372	keystroke	l	n/a
440.184	0.091	880368	keystroke	Key.space	n/a
440.3045	0.09	880609	keystroke	w	n/a
440.417	0.0645	880834	keystroke	o	n/a
440.5035	0.112	881007	keystroke	r	n/a
440.638	0.09	881276	keystroke	l	n/a
440.7045	0.0925	881409	keystroke	d	n/a
441.03	0.09	882060	keystroke	c	n/a
441.121	0.132	882242	keystroke	a	n/a
441.336	0.066	882672	keystroke	t	n/a
441.593	0.067	883186	keystroke	Key.enter	n/a
441.6655	8.4715	883331	prompt	n/a	that ventures saddam consultant\n
442.327	0.112	884654	keystroke	t	n/a
442.4615	0.0665	884923	keystroke	h	n/a
442.549	0.09	885098	keystroke	a	n/a
442.64	0.065	885280	keystroke	t	n/a
442.66	0.09	885320	keystroke	Key.space	n/a
442.906	0.135	885812	keystroke	a	n/a
443.0175	0.046	886035	keystroke	v	n/a
443.1795	0.089	886359	keystroke	Key.backspace	n/a
443.3425	0.089	886685	keystroke	Key.backspace	n/a
443.4535	0.067	886907	keystroke	v	n/a
443.4965	0.136	886993	keystroke	a	n/a
443.786	0.068	887572	keystroke	t	n/a
444.073	0.066	888146	keystroke	Key.backspace	n/a
444.2195	0.089	888439	keystroke	Key.backspace	n/a
444.3305	0.092	888661	keystroke	e	n/a
444.542	0.1125	889084	keystroke	n	n/a
444.692	0.112	889384	keystroke	t	n/a
444.825	0.046	889650	keystroke	u	n/a
444.8935	0.156	889787	keystroke	r	n/a
444.961	0.111	889922	keystroke	e	n/a
445.3665	0.067	890733	keystroke	s	n/a
445.5605	0.1345	891121	keystroke	Key.space	n/a
445.859	0.09	891718	keystroke	s	n/a
446.001	0.112	892002	keystroke	a	n/a
446.352	0.0665	892704	keystroke	d	n/a
446.557	0.11	893114	keystroke	d	n/a
446.689	0.132	893378	keystroke	a	n/a
446.867	0.089	893734	keystroke	m	n/a
447.0085	0.1105	894017	keystroke	Key.space	n/a
447.338	0.111	894676	keystroke	c	n/a
447.45	0.089	894900	keystroke	o	n/a
447.6715	0.0665	895343	keystroke	n	n/a
447.7895	0.068	895579	keystroke	s	n/a
448.4165	0.0645	896833	keystroke	u	n/a
448.622	0.0905	897244	keystroke	l	n/a
448.7345	0.135	897469	keystroke	a	n/a
448.8445	0.0895	897689	keystroke	t	n/a
449.213	0.089	898426	keystroke	Key.backspace	n/a
449.3645	0.0445	898729	keystroke	Key.backspace	n/a
449.56	0.134	899120	keystroke	t	n/a
449.6705	0.134	899341	keystroke	a	n/a
449.826	0.069	899652	keystroke	n	n/a
449.917	0.0915	899834	keystroke	t	n/a
450.0645	0.0675	900129	keystroke	\	n/a
450.0655	0.0685	900131	keystroke	Key.enter	n/a
450.1405	4.086	900281	prompt	n/a	determine recall listed studio\n
450.631	0.1115	901262	keystroke	d	n/a
450.6975	0.09	901395	keystroke	e	n/a
450.8455	0.112	901691	keystroke	t	n/a
450.9335	0.0685	901867	keystroke	e	n/a
451.0225	0.091	902045	keystroke	r	n/a
451.1345	0.093	902269	keystroke	m	n/a
451.1805	0.092	902361	keystroke	i	n/a
451.3245	0.0915	902649	keystroke	n	n/a
451.3915	0.089	902783	keystroke	e	n/a
451.5005	0.09	903001	keystroke	Key.space	n/a
451.5915	0.069	903183	keystroke	c	n/a
451.816	0.066	903632	keystroke	Key.backspace	n/a
451.8585	0.068	903717	keystroke	r	n/a
451.9035	0.088	903807	keystroke	e	n/a
452.0585	0.092	904117	keystroke	c	n/a
452.1515	0.0895	904303	keystroke	a	n/a
452.173	0.0445	904346	keystroke	l	n/a
452.2845	0.068	904569	keystroke	l	n/a
452.3865	0.111	904773	keystroke	Key.space	n/a
452.5195	0.089	905039	keystroke	l	n/a
452.674	0.0895	905348	keystroke	i	n/a
452.7195	0.089	905439	keystroke	s	n/a
452.8095	0.1095	905619	keystroke	t	n/a
452.9195	0.043	905839	keystroke	e	n/a
453.0505	0.09	906101	keystroke	d	n/a
453.1425	0.0895	906285	keystroke	Key.space	n/a
453.4815	0.0685	906963	keystroke	s	n/a
453.6215	0.089	907243	keystroke	t	n/a
453.732	0.0685	907464	keystroke	u	n/a
453.8425	0.091	907685	keystroke	d	n/a
453.9095	0.0895	907819	keystroke	i	n/a
453.9545	0.0885	907909	keystroke	o	n/a
454.155	0.0685	908310	keystroke	Key.enter	n/a
454.2295	4.995	908459	prompt	n/a	winners disabled professor lucy\n
454.715	0.1105	909430	keystroke	w	n/a
454.8275	0.067	909655	keystroke	i	n/a
454.9905	0.068	909981	keystroke	n	n/a
455.1245	0.0705	910249	keystroke	n	n/a
455.146	0.0945	910292	keystroke	e	n/a
455.2165	0.0895	910433	keystroke	r	n/a
455.353	0.067	910706	keystroke	s	n/a
455.5835	0.1125	911167	keystroke	Key.space	n/a
455.806	0.0895	911612	keystroke	d	n/a
455.8955	0.092	911791	keystroke	i	n/a
455.9885	0.066	911977	keystroke	s	n/a
456.1125	0.112	912225	keystroke	a	n/a
456.2465	0.135	912493	keystroke	b	n/a
456.4025	0.0905	912805	keystroke	l	n/a
456.494	0.067	912988	keystroke	e	n/a
456.5985	0.0895	913197	keystroke	d	n/a
456.689	0.065	913378	keystroke	Key.space	n/a
456.829	0.0675	913658	keystroke	p	n/a
456.873	0.068	913746	keystroke	r	n/a
457.084	0.09	914168	keystroke	o	n/a
457.4545	0.136	914909	keystroke	f	n/a
457.5665	0.068	915133	keystroke	e	n/a
457.7445	0.044	915489	keystroke	s	n/a
457.8755	0.068	915751	keystroke	s	n/a
458.058	0.0875	916116	keystroke	o	n/a
458.1465	0.089	916293	keystroke	r	n/a
458.446	0.0645	916892	keystroke	Key.space	n/a
458.5665	0.087	917133	keystroke	l	n/a
458.761	0.069	917522	keystroke	u	n/a
458.831	0.1105	917662	keystroke	c	n/a
458.9625	0.0675	917925	keystroke	y	n/a
459.1565	0.066	918313	keystroke	Key.enter	n/a
459.2285	5.982	918457	prompt	n/a	he've creator stored packaging\n
459.801	0.0905	919602	keystroke	h	n/a
459.867	0.067	919734	keystroke	e	n/a
460.0565	0.0685	920113	keystroke	'	n/a
460.1005	0.094	920201	keystroke	v	n/a
460.17	0.0695	920340	keystroke	e	n/a
460.283	0.0905	920566	keystroke	Key.space	n/a
460.708	0.089	921416	keystroke	c	n/a
460.8925	0.0905	921785	keystroke	r	n/a
460.96	0.09	921920	keystroke	e	n/a
461.004	0.137	922008	keystroke	a	n/a
461.1165	0.0945	922233	keystroke	t	n/a
461.187	0.114	922374	keystroke	o	n/a
461.3385	0.067	922677	keystroke	r	n/a
461.7895	0.046	923579	keystroke	Key.backspace	n/a
461.9155	0.089	923831	keystroke	Key.backspace	n/a
462.1395	0.113	924279	keystroke	o	n/a
462.207	0.0915	924414	keystroke	r	n/a
462.2985	0.108	924597	keystroke	Key.space	n/a
462.701	0.093	925402	keystroke	s	n/a
462.943	0.065	925886	keystroke	t	n/a
463.029	0.0915	926058	keystroke	o	n/a
463.0955	0.114	926191	keystroke	r	n/a
463.1625	0.0915	926325	keystroke	e	n/a
463.508	0.1125	927016	keystroke	d	n/a
463.6415	0.0675	927283	keystroke	Key.space	n/a
463.731	0.0885	927462	keystroke	p	n/a
463.8205	0.09	927641	keystroke	a	n/a
463.9555	0.088	927911	keystroke	k	n/a
464.1645	0.088	928329	keystroke	Key.backspace	n/a
464.2875	0.0905	928575	keystroke	c	n/a
464.3995	0.067	928799	keystroke	k	n/a
464.4675	0.1105	928935	keystroke	a	n/a
464.644	0.134	929288	keystroke	g	n/a
464.733	0.112	929466	keystroke	i	n/a
464.9365	0.0685	929873	keystroke	n	n/a
465.006	0.0425	930012	keystroke	g	n/a
465.115	0.0935	930230	keystroke	Key.enter	n/a
465.2135	5.556	930427	prompt	n/a	sapphire number adjacent hist\n
465.746	0.114	931492	keystroke	s	n/a
465.836	0.1585	931672	keystroke	a	n/a
465.97	0.068	931940	keystroke	p	n/a
466.1	0.068	932200	keystroke	p	n/a
466.19	0.0455	932380	keystroke	h	n/a
466.4705	0.0875	932941	keystroke	i	n/a
466.605	0.14	933210	keystroke	r	n/a
466.673	0.115	933346	keystroke	e	n/a
466.789	0.1125	933578	keystroke	Key.space	n/a
467.0005	0.1155	934001	keystroke	n	n/a
467.0695	0.091	934139	keystroke	u	n/a
467.2175	0.089	934435	keystroke	m	n/a
467.3895	0.069	934779	keystroke	b	n/a
467.4345	0.0695	934869	keystroke	e	n/a
467.4795	0.1135	934959	keystroke	r	n/a
467.547	0.09	935094	keystroke	Key.space	n/a
467.7365	0.1125	935473	keystroke	a	n/a
467.8245	0.091	935649	keystroke	d	n/a
468.2395	0.09	936479	keystroke	h	n/a
468.353	0.1315	936706	keystroke	a	n/a
468.5065	0.0685	937013	keystroke	n	n/a
468.6045	0.114	937209	keystroke	c	n/a
468.7405	0.0675	937481	keystroke	Key.backspace	n/a
468.8885	0.089	937777	keystroke	Key.backspace	n/a
469.0005	0.135	938001	keystroke	c	n/a
469.199	0.1135	938398	keystroke	e	n/a
469.335	0.0905	938670	keystroke	n	n/a
469.6205	0.09	939241	keystroke	t	n/a
469.7325	0.0455	939465	keystroke	Key.space	n/a
469.8135	0.045	939627	keystroke	Key.space	n/a
470.1085	0.111	940217	keystroke	Key.backspace	n/a
470.405	0.091	940810	keystroke	h	n/a
470.4735	0.1105	940947	keystroke	i	n/a
470.517	0.092	941034	keystroke	s	n/a
470.585	0.115	941170	keystroke	t	n/a
470.701	0.0665	941402	keystroke	Key.enter	n/a
470.722	0.0475	941444	keystroke	\	n/a
470.776	5.346	941552	prompt	n/a	switching calendar phrase punishment\n
471.324	0.1575	942648	keystroke	s	n/a
471.412	0.113	942824	keystroke	w	n/a
471.5485	0.067	943097	keystroke	i	n/a
471.637	0.067	943274	keystroke	t	n/a
471.8165	0.0895	943633	keystroke	c	n/a
471.907	0.087	943814	keystroke	h	n/a
471.9495	0.0895	943899	keystroke	i	n/a
472.061	0.091	944122	keystroke	n	n/a
472.129	0.069	944258	keystroke	g	n/a
472.219	0.112	944438	keystroke	Key.space	n/a
472.4	0.112	944800	keystroke	c	n/a
472.4895	0.113	944979	keystroke	a	n/a
472.556	0.0895	945112	keystroke	l	n/a
472.6875	0.066	945375	keystroke	e	n/a
472.7905	0.089	945581	keystroke	n	n/a
472.8805	0.087	945761	keystroke	d	n/a
472.9695	0.1085	945939	keystroke	a	n/a
473.1165	0.09	946233	keystroke	r	n/a
473.2515	0.111	946503	keystroke	Key.space	n/a
473.8415	0.089	947683	keystroke	p	n/a
474.0435	0.069	948087	keystroke	h	n/a
474.0895	0.113	948179	keystroke	r	n/a
474.157	0.1125	948314	keystroke	a	n/a
474.2995	0.133	948599	keystroke	s	n/a
474.4335	0.0435	948867	keystroke	h	n/a
475.2125	0.114	950425	keystroke	e	n/a
475.483	0.0665	950966	keystroke	Key.backspace	n/a
475.6465	0.0905	951293	keystroke	Key.backspace	n/a
475.8585	0.132	951717	keystroke	e	n/a
476.0515	0.0675	952103	keystroke	Key.enter	n/a
476.1255	5.734	952251	prompt	n/a	iraqi swimming were lance\n
477.345	0.0905	954690	keystroke	i	n/a
477.69	0.1135	955380	keystroke	r	n/a
477.7795	0.1775	955559	keystroke	a	n/a
477.9345	0.09	955869	keystroke	q	n/a
477.9355	0.0915	955871	keystroke	w	n/a
478.1205	0.068	956241	keystroke	u	n/a
478.3705	0.111	956741	keystroke	Key.backspace	n/a
478.5435	0.092	957087	keystroke	Key.backspace	n/a
478.8235	0.067	957647	keystroke	i	n/a
478.9935	0.134	957987	keystroke	Key.space	n/a
479.365	0.156	958730	keystroke	s	n/a
479.476	0.111	958952	keystroke	w	n/a
479.795	0.069	959590	keystroke	i	n/a
479.9605	0.088	959921	keystroke	m	n/a
480.1225	0.068	960245	keystroke	m	n/a
480.1665	0.133	960333	keystroke	i	n/a
480.3005	0.066	960601	keystroke	n	n/a
480.3675	0.088	960735	keystroke	g	n/a
480.4765	0.089	960953	keystroke	Key.space	n/a
480.8175	0.068	961635	keystroke	w	n/a
480.9845	0.1145	961969	keystroke	e	n/a
481.099	0.1325	962198	keystroke	r	n/a
481.1865	0.1105	962373	keystroke	e	n/a
481.253	0.132	962506	keystroke	Key.space	n/a
481.362	0.0915	962724	keystroke	l	n/a
481.475	0.1105	962950	keystroke	a	n/a
481.607	0.0675	963214	keystroke	n	n/a
481.675	0.07	963350	keystroke	c	n/a
481.698	0.0935	963396	keystroke	e	n/a
481.813	0.045	963626	keystroke	Key.enter	n/a
481.864	3.162	963728	prompt	n/a	june chad recall collar\n
482.457	0.068	964914	keystroke	j	n/a
482.612	0.09	965224	keystroke	u	n/a
482.7785	0.069	965557	keystroke	n	n/a
482.8255	0.0895	965651	keystroke	e	n/a
482.9165	0.085	965833	keystroke	Key.space	n/a
483.1155	0.091	966231	keystroke	c	n/a
483.228	0.066	966456	keystroke	h	n/a
483.2945	0.0915	966589	keystroke	a	n/a
483.362	0.0905	966724	keystroke	d	n/a
483.4535	0.0885	966907	keystroke	Key.space	n/a
483.626	0.088	967252	keystroke	r	n/a
483.691	0.09	967382	keystroke	e	n/a
483.841	0.0695	967682	keystroke	c	n/a
483.9115	0.088	967823	keystroke	a	n/a
483.9755	0.069	967951	keystroke	l	n/a
484.115	0.0685	968230	keystroke	l	n/a
484.2705	0.109	968541	keystroke	Key.space	n/a
484.357	0.1345	968714	keystroke	c	n/a
484.4465	0.0685	968893	keystroke	o	n/a
484.6005	0.0685	969201	keystroke	l	n/a
484.7325	0.089	969465	keystroke	l	n/a
484.7985	0.09	969597	keystroke	a	n/a
484.866	0.1135	969732	keystroke	r	n/a
484.9555	0.068	969911	keystroke	Key.enter	n/a
485.03	11.163	970060	prompt	n/a	typically clarke josh lesbian\n
485.655	0.112	971310	keystroke	t	n/a
485.8195	0.0675	971639	keystroke	p	n/a
486.0875	0.139	972175	keystroke	y	n/a
486.111	0.0685	972222	keystroke	Key.backspace	n/a
486.2485	0.0675	972497	keystroke	p	n/a
486.4495	0.0445	972899	keystroke	u	n/a
486.652	0.1315	973304	keystroke	Key.backspace	n/a
486.8645	0.0915	973729	keystroke	Key.backspace	n/a
487.0385	0.09	974077	keystroke	Key.backspace	n/a
487.404	0.0675	974808	keystroke	y	n/a
487.6255	0.068	975251	keystroke	p	n/a
487.7335	0.0875	975467	keystroke	i	n/a
487.855	0.1115	975710	keystroke	c	n/a
488.0175	0.157	976035	keystroke	a	n/a
488.1955	0.046	976391	keystroke	l	n/a
488.3255	0.09	976651	keystroke	l	n/a
488.6185	0.091	977237	keystroke	y	n/a
488.7105	0.11	977421	keystroke	Key.space	n/a
488.9245	0.069	977849	keystroke	m	n/a
489.0175	0.0905	978035	keystroke	a	n/a
489.375	0.113	978750	keystroke	Key.backspace	n/a
489.753	0.1125	979506	keystroke	Key.backspace	n/a
489.8435	0.088	979687	keystroke	c	n/a
489.9885	0.0695	979977	keystroke	l	n/a
490.059	0.112	980118	keystroke	a	n/a
490.171	0.089	980342	keystroke	r	n/a
490.2605	0.0685	980521	keystroke	k	n/a
490.35	0.089	980700	keystroke	e	n/a
490.524	0.1095	981048	keystroke	Key.space	n/a
490.82	0.094	981640	keystroke	j	n/a
490.866	0.092	981732	keystroke	o	n/a
490.9145	0.09	981829	keystroke	s	n/a
491.035	0.09	982070	keystroke	h	n/a
491.126	0.1105	982252	keystroke	Key.space	n/a
491.661	0.09	983322	keystroke	Key.backspace	n/a
491.728	0.113	983456	keystroke	e	n/a
491.862	0.091	983724	keystroke	Key.space	n/a
492.411	0.088	984822	keystroke	Key.backspace	n/a
492.612	0.154	985224	keystroke	Key.backspace	n/a
492.767	0.11	985534	keystroke	Key.space	n/a
493.0925	0.067	986185	keystroke	l	n/a
493.182	0.0455	986364	keystroke	e	n/a
493.3465	0.068	986693	keystroke	s	n/a
493.6065	0.067	987213	keystroke	b	n/a
493.788	0.134	987576	keystroke	a	n/a
493.8555	0.09	987711	keystroke	i	n/a
493.923	0.1125	987846	keystroke	n	n/a
494.055	0.245	988110	keystroke	Key.space	n/a
494.601	0.089	989202	keystroke	Key.backspace	n/a
494.765	0.088	989530	keystroke	Key.backspace	n/a
494.9325	0.091	989865	keystroke	Key.backspace	n/a
495.1775	0.111	990355	keystroke	Key.backspace	n/a
495.357	0.1135	990714	keystroke	i	n/a
495.4925	0.135	990985	keystroke	a	n/a
495.5805	0.069	991161	keystroke	n	n/a
495.6715	0.087	991343	keystroke	Key.space	n/a
495.9395	0.0685	991879	keystroke	Key.backspace	n/a
496.1455	0.045	992291	keystroke	Key.enter	n/a
496.1975	9.9095	992395	prompt	n/a	connector architects week crest\n
496.817	0.091	993634	keystroke	c	n/a
496.946	0.0895	993892	keystroke	o	n/a
497.165	0.0675	994330	keystroke	n	n/a
497.2945	0.1105	994589	keystroke	n	n/a
497.382	0.068	994764	keystroke	e	n/a
497.451	0.087	994902	keystroke	c	n/a
497.662	0.089	995324	keystroke	t	n/a
497.752	0.086	995504	keystroke	o	n/a
497.859	0.067	995718	keystroke	r	n/a
497.927	0.089	995854	keystroke	Key.space	n/a
498.198	0.112	996396	keystroke	a	n/a
498.264	0.136	996528	keystroke	r	n/a
498.4885	0.0905	996977	keystroke	t	n/a
498.912	0.1135	997824	keystroke	Key.backspace	n/a
499.1665	0.111	998333	keystroke	c	n/a
499.2995	0.067	998599	keystroke	h	n/a
499.5205	0.1125	999041	keystroke	t	n/a
499.855	0.0905	999710	keystroke	e	n/a
500.218	0.0675	1000436	keystroke	Key.backspace	n/a
500.367	0.089	1000734	keystroke	Key.backspace	n/a
500.504	0.092	1001008	keystroke	i	n/a
500.631	0.1125	1001262	keystroke	t	n/a
501.028	0.088	1002056	keystroke	e	n/a
501.243	0.09	1002486	keystroke	c	n/a
501.463	0.134	1002926	keystroke	t	n/a
501.574	0.09	1003148	keystroke	s	n/a
501.665	0.1105	1003330	keystroke	Key.space	n/a
501.8855	0.091	1003771	keystroke	o	n/a
501.9775	0.109	1003955	keystroke	r	n/a
502.2275	0.136	1004455	keystroke	Key.backspace	n/a
502.404	0.137	1004808	keystroke	Key.backspace	n/a
502.657	0.09	1005314	keystroke	w	n/a
502.702	0.113	1005404	keystroke	e	n/a
502.875	0.0455	1005750	keystroke	k	n/a
502.945	0.046	1005890	keystroke	e	n/a
503.1375	0.0695	1006275	keystroke	Key.backspace	n/a
503.279	0.089	1006558	keystroke	Key.backspace	n/a
503.39	0.114	1006780	keystroke	e	n/a
503.533	0.067	1007066	keystroke	k	n/a
504.043	0.112	1008086	keystroke	Key.space	n/a
504.2235	0.0675	1008447	keystroke	w	n/a
504.41	0.088	1008820	keystroke	Key.backspace	n/a
504.65	0.0685	1009300	keystroke	c	n/a
504.8445	0.0905	1009689	keystroke	r	n/a
504.888	0.07	1009776	keystroke	e	n/a
505.11	0.1145	1010220	keystroke	s	n/a
505.2	0.092	1010400	keystroke	t	n/a
505.314	0.09	1010628	keystroke	Key.space	n/a
505.683	0.047	1011366	keystroke	Key.backspace	n/a
506.0605	0.044	1012121	keystroke	Key.enter	n/a
506.1115	6.809	1012223	prompt	n/a	evidence luggage invitation having\n
506.707	0.112	1013414	keystroke	e	n/a
507.076	0.0685	1014152	keystroke	v	n/a
507.181	0.065	1014362	keystroke	i	n/a
507.407	0.113	1014814	keystroke	d	n/a
507.581	0.0895	1015162	keystroke	e	n/a
507.716	0.0665	1015432	keystroke	n	n/a
507.8275	0.1115	1015655	keystroke	c	n/a
507.917	0.0685	1015834	keystroke	e	n/a
507.961	0.113	1015922	keystroke	Key.space	n/a
508.212	0.0665	1016424	keystroke	l	n/a
508.7765	0.0675	1017553	keystroke	u	n/a
508.865	0.069	1017730	keystroke	g	n/a
509.038	0.089	1018076	keystroke	g	n/a
509.149	0.134	1018298	keystroke	a	n/a
509.285	0.067	1018570	keystroke	g	n/a
509.3055	0.1115	1018611	keystroke	e	n/a
509.447	0.09	1018894	keystroke	Key.space	n/a
509.584	0.111	1019168	keystroke	Key.backspace	n/a
509.769	0.0885	1019538	keystroke	Key.backspace	n/a
510.1975	0.1365	1020395	keystroke	e	n/a
510.3095	0.1125	1020619	keystroke	Key.space	n/a
510.398	0.089	1020796	keystroke	i	n/a
510.548	0.0925	1021096	keystroke	n	n/a
510.616	0.068	1021232	keystroke	v	n/a
510.758	0.067	1021516	keystroke	i	n/a
510.87	0.092	1021740	keystroke	t	n/a
510.964	0.1095	1021928	keystroke	a	n/a
511.0745	0.0665	1022149	keystroke	t	n/a
511.1425	0.088	1022285	keystroke	i	n/a
511.186	0.0665	1022372	keystroke	o	n/a
511.3275	0.068	1022655	keystroke	n	n/a
511.3965	0.091	1022793	keystroke	Key.space	n/a
511.7235	0.09	1023447	keystroke	h	n/a
511.769	0.1105	1023538	keystroke	a	n/a
511.999	0.1115	1023998	keystroke	v	n/a
512.132	0.0675	1024264	keystroke	i	n/a
512.2295	0.091	1024459	keystroke	n	n/a
512.297	0.0895	1024594	keystroke	g	n/a
512.4075	0.091	1024815	keystroke	Key.space	n/a
512.6755	0.066	1025351	keystroke	Key.backspace	n/a
512.851	0.0675	1025702	keystroke	Key.enter	n/a
512.9245	9.168	1025849	prompt	n/a	function domestic antonio stored\n
513.751	0.0905	1027502	keystroke	f	n/a
513.8425	0.0655	1027685	keystroke	u	n/a
513.986	0.0705	1027972	keystroke	n	n/a
514.1265	0.0685	1028253	keystroke	c	n/a
514.3475	0.11	1028695	keystroke	t	n/a
514.479	0.045	1028958	keystroke	a	n/a
514.767	0.089	1029534	keystroke	Key.backspace	n/a
514.969	0.11	1029938	keystroke	i	n/a
515.057	0.067	1030114	keystroke	o	n/a
515.2	0.045	1030400	keystroke	n	n/a
515.267	0.114	1030534	keystroke	Key.space	n/a
515.746	0.132	1031492	keystroke	d	n/a
515.929	0.0665	1031858	keystroke	o	n/a
516.103	0.091	1032206	keystroke	m	n/a
516.213	0.0905	1032426	keystroke	e	n/a
516.399	0.067	1032798	keystroke	s	n/a
516.585	0.069	1033170	keystroke	t	n/a
516.9825	0.093	1033965	keystroke	i	n/a
517.0765	0.067	1034153	keystroke	c	n/a
517.198	0.0885	1034396	keystroke	Key.space	n/a
517.3725	0.132	1034745	keystroke	a	n/a
517.5055	0.09	1035011	keystroke	n	n/a
517.6275	0.088	1035255	keystroke	t	n/a
517.835	0.0915	1035670	keystroke	o	n/a
518.087	0.0925	1036174	keystroke	n	n/a
518.156	0.0905	1036312	keystroke	i	n/a
518.3785	0.067	1036757	keystroke	o	n/a
518.525	0.1105	1037050	keystroke	Key.space	n/a
518.7945	0.089	1037589	keystroke	s	n/a
518.9215	0.067	1037843	keystroke	o	n/a
519.019	0.047	1038038	keystroke	t	n/a
519.1735	0.091	1038347	keystroke	Key.backspace	n/a
519.318	0.0895	1038636	keystroke	Key.backspace	n/a
519.3625	0.068	1038725	keystroke	t	n/a
519.469	0.0685	1038938	keystroke	o	n/a
519.5385	0.1105	1039077	keystroke	r	n/a
519.6035	0.0905	1039207	keystroke	e	n/a
519.8075	0.111	1039615	keystroke	d	n/a
519.9415	0.09	1039883	keystroke	Key.space	n/a
521.7885	0.0905	1043577	keystroke	Key.backspace	n/a
522.0245	0.066	1044049	keystroke	Key.enter	n/a
522.097	7.4305	1044194	prompt	n/a	knitting geological copper suggest\n
522.9475	0.09	1045895	keystroke	k	n/a
523.126	0.068	1046252	keystroke	n	n/a
523.196	0.0655	1046392	keystroke	i	n/a
523.283	0.0685	1046566	keystroke	t	n/a
523.4035	0.0215	1046807	keystroke	i	n/a
523.686	0.1085	1047372	keystroke	Key.backspace	n/a
523.7955	0.1105	1047591	keystroke	t	n/a
523.906	0.0665	1047812	keystroke	i	n/a
524.097	0.069	1048194	keystroke	n	n/a
524.167	0.0885	1048334	keystroke	g	n/a
524.2315	0.1135	1048463	keystroke	Key.space	n/a
524.608	0.11	1049216	keystroke	g	n/a
524.696	0.1115	1049392	keystroke	e	n/a
524.8075	0.0675	1049615	keystroke	o	n/a
525.053	0.1115	1050106	keystroke	l	n/a
525.269	0.067	1050538	keystroke	o	n/a
525.424	0.0895	1050848	keystroke	Key.backspace	n/a
525.9065	0.09	1051813	keystroke	l	n/a
526.124	0.091	1052248	keystroke	o	n/a
526.216	0.087	1052432	keystroke	g	n/a
526.326	0.0675	1052652	keystroke	i	n/a
526.45	0.113	1052900	keystroke	c	n/a
526.54	0.134	1053080	keystroke	a	n/a
526.607	0.0915	1053214	keystroke	l	n/a
526.6985	0.088	1053397	keystroke	Key.space	n/a
527.3555	0.0905	1054711	keystroke	c	n/a
527.423	0.067	1054846	keystroke	o	n/a
527.554	0.0695	1055108	keystroke	p	n/a
527.6905	0.0895	1055381	keystroke	p	n/a
527.782	0.091	1055564	keystroke	e	n/a
527.8245	0.1145	1055649	keystroke	r	n/a
527.94	0.0645	1055880	keystroke	Key.space	n/a
528.1905	0.1115	1056381	keystroke	s	n/a
528.432	0.068	1056864	keystroke	u	n/a
528.476	0.0685	1056952	keystroke	g	n/a
528.62	0.09	1057240	keystroke	g	n/a
528.711	0.089	1057422	keystroke	e	n/a
528.942	0.089	1057884	keystroke	s	n/a
529.0075	0.088	1058015	keystroke	t	n/a
529.457	0.068	1058914	keystroke	Key.enter	n/a
529.5315	9.743	1059063	prompt	n/a	entertainment additional continuously thereby\n
530.6235	0.111	1061247	keystroke	e	n/a
530.8555	0.1095	1061711	keystroke	n	n/a
530.9215	0.1115	1061843	keystroke	t	n/a
531.034	0.134	1062068	keystroke	e	n/a
531.145	0.066	1062290	keystroke	r	n/a
531.5225	0.113	1063045	keystroke	t	n/a
531.6125	0.137	1063225	keystroke	a	n/a
531.6805	0.067	1063361	keystroke	i	n/a
531.8365	0.0895	1063673	keystroke	n	n/a
531.9965	0.0895	1063993	keystroke	m	n/a
532.0405	0.0885	1064081	keystroke	e	n/a
532.1755	0.068	1064351	keystroke	n	n/a
532.2205	0.091	1064441	keystroke	t	n/a
532.3115	0.113	1064623	keystroke	Key.space	n/a
532.3545	0.137	1064709	keystroke	a	n/a
532.4925	0.066	1064985	keystroke	d	n/a
532.6245	0.068	1065249	keystroke	d	n/a
532.7655	0.067	1065531	keystroke	i	n/a
532.8665	0.067	1065733	keystroke	c	n/a
533.145	0.0905	1066290	keystroke	Key.backspace	n/a
533.2115	0.114	1066423	keystroke	t	n/a
533.3265	0.1105	1066653	keystroke	i	n/a
533.391	0.091	1066782	keystroke	o	n/a
533.503	0.0695	1067006	keystroke	a	n/a
533.548	0.0925	1067096	keystroke	n	n/a
533.772	0.088	1067544	keystroke	Key.backspace	n/a
533.912	0.111	1067824	keystroke	Key.backspace	n/a
534.044	0.072	1068088	keystroke	n	n/a
534.117	0.066	1068234	keystroke	a	n/a
534.231	0.09	1068462	keystroke	l	n/a
534.343	0.0925	1068686	keystroke	Key.space	n/a
534.7095	0.0895	1069419	keystroke	c	n/a
534.776	0.067	1069552	keystroke	o	n/a
534.933	0.067	1069866	keystroke	n	n/a
535.021	0.0905	1070042	keystroke	t	n/a
535.0885	0.092	1070177	keystroke	i	n/a
535.2555	0.0895	1070511	keystroke	n	n/a
535.3015	0.1135	1070603	keystroke	u	n/a
535.459	0.091	1070918	keystroke	t	n/a
535.724	0.133	1071448	keystroke	Key.backspace	n/a
535.8785	0.134	1071757	keystroke	o	n/a
535.9885	0.0935	1071977	keystroke	u	n/a
536.0825	0.089	1072165	keystroke	s	n/a
536.2015	0.067	1072403	keystroke	l	n/a
536.3075	0.0905	1072615	keystroke	y	n/a
536.3985	0.107	1072797	keystroke	Key.space	n/a
536.648	0.0895	1073296	keystroke	t	n/a
536.7385	0.088	1073477	keystroke	h	n/a
536.8275	0.0655	1073655	keystroke	e	n/a
536.8935	0.1075	1073787	keystroke	r	n/a
537.1705	0.046	1074341	keystroke	b	n/a
537.1935	0.045	1074387	keystroke	y	n/a
537.2685	0.067	1074537	keystroke	e	n/a
537.4245	0.0895	1074849	keystroke	Key.backspace	n/a
537.5695	0.089	1075139	keystroke	Key.backspace	n/a
537.7455	0.067	1075491	keystroke	Key.backspace	n/a
537.8455	0.069	1075691	keystroke	e	n/a
537.965	0.071	1075930	keystroke	b	n/a
538.0115	0.046	1076023	keystroke	u	n/a
538.0125	0.048	1076025	keystroke	y	n/a
538.441	0.023	1076882	keystroke	Key.backspace	n/a
538.579	0.088	1077158	keystroke	Key.backspace	n/a
539.076	0.065	1078152	keystroke	y	n/a
539.2265	0.046	1078453	keystroke	Key.enter	n/a
539.279	9.997	1078558	prompt	n/a	married cloudy enforcement elsewhere\n
540.2265	0.068	1080453	keystroke	m	n/a
540.2945	0.066	1080589	keystroke	a	n/a
540.4995	0.0895	1080999	keystroke	r	n/a
540.675	0.068	1081350	keystroke	r	n/a
540.806	0.0925	1081612	keystroke	i	n/a
540.8995	0.044	1081799	keystroke	e	n/a
541.001	0.0885	1082002	keystroke	d	n/a
541.0665	0.11	1082133	keystroke	Key.space	n/a
541.419	0.111	1082838	keystroke	c	n/a
541.531	0.0855	1083062	keystroke	l	n/a
541.673	0.0895	1083346	keystroke	o	n/a
541.864	0.091	1083728	keystroke	u	n/a
541.9075	0.1375	1083815	keystroke	d	n/a
542.0455	0.087	1084091	keystroke	y	n/a
542.1095	0.114	1084219	keystroke	Key.space	n/a
545.6945	0.112	1091389	keystroke	e	n/a
545.8765	0.091	1091753	keystroke	n	n/a
545.9685	0.064	1091937	keystroke	f	n/a
546.1165	0.0895	1092233	keystroke	o	n/a
546.2265	0.0695	1092453	keystroke	r	n/a
546.7485	0.112	1093497	keystroke	c	n/a
546.8615	0.111	1093723	keystroke	e	n/a
547.006	0.067	1094012	keystroke	m	n/a
547.0955	0.092	1094191	keystroke	e	n/a
547.2085	0.0465	1094417	keystroke	n	n/a
547.3115	0.068	1094623	keystroke	t	n/a
547.3805	0.087	1094761	keystroke	Key.space	n/a
547.685	0.0895	1095370	keystroke	e	n/a
547.9265	0.0675	1095853	keystroke	l	n/a
548.165	0.0905	1096330	keystroke	s	n/a
548.3555	0.088	1096711	keystroke	e	n/a
548.5185	0.0695	1097037	keystroke	w	n/a
548.6815	0.0885	1097363	keystroke	h	n/a
548.7455	0.069	1097491	keystroke	e	n/a
548.836	0.112	1097672	keystroke	r	n/a
548.9035	0.0895	1097807	keystroke	e	n/a
549.2085	0.065	1098417	keystroke	Key.enter	n/a
549.2795	6.7335	1098559	prompt	n/a	returns grew slides commitment\n
549.8385	0.111	1099677	keystroke	r	n/a
549.8825	0.091	1099765	keystroke	e	n/a
550.0495	0.09	1100099	keystroke	t	n/a
550.1725	0.067	1100345	keystroke	u	n/a
550.2405	0.066	1100481	keystroke	r	n/a
550.365	0.09	1100730	keystroke	n	n/a
550.432	0.071	1100864	keystroke	s	n/a
550.5475	0.1115	1101095	keystroke	Key.space	n/a
551.101	0.0685	1102202	keystroke	Key.backspace	n/a
551.4535	0.112	1102907	keystroke	Key.space	n/a
551.5665	0.0655	1103133	keystroke	g	n/a
551.7425	0.11	1103485	keystroke	r	n/a
551.8295	0.069	1103659	keystroke	e	n/a
552.0135	0.069	1104027	keystroke	w	n/a
552.1255	0.116	1104251	keystroke	Key.space	n/a
552.581	0.0935	1105162	keystroke	s	n/a
552.6485	0.07	1105297	keystroke	l	n/a
552.8365	0.0695	1105673	keystroke	i	n/a
552.8825	0.09	1105765	keystroke	d	n/a
552.9275	0.0905	1105855	keystroke	e	n/a
553.1465	0.112	1106293	keystroke	s	n/a
553.315	0.1095	1106630	keystroke	Key.space	n/a
553.5955	0.092	1107191	keystroke	c	n/a
553.6645	0.0675	1107329	keystroke	o	n/a
553.8265	0.068	1107653	keystroke	m	n/a
553.9825	0.1115	1107965	keystroke	m	n/a
554.1165	0.091	1108233	keystroke	i	n/a
554.327	0.1125	1108654	keystroke	t	n/a
555.1985	0.069	1110397	keystroke	m	n/a
555.323	0.088	1110646	keystroke	e	n/a
555.4335	0.0895	1110867	keystroke	n	n/a
555.5425	0.1145	1111085	keystroke	t	n/a
555.9645	0.046	1111929	keystroke	Key.enter	n/a
556.021	8.583	1112042	prompt	n/a	standing torture consequently pensions\n
556.878	0.09	1113756	keystroke	s	n/a
556.999	0.113	1113998	keystroke	t	n/a
557.113	0.109	1114226	keystroke	a	n/a
557.2685	0.0675	1114537	keystroke	n	n/a
557.357	0.067	1114714	keystroke	d	n/a
557.446	0.1355	1114892	keystroke	i	n/a
557.557	0.093	1115114	keystroke	n	n/a
557.67	0.069	1115340	keystroke	g	n/a
557.771	0.11	1115542	keystroke	Key.space	n/a
557.883	0.067	1115766	keystroke	t	n/a
557.993	0.0915	1115986	keystroke	o	n/a
558.1485	0.089	1116297	keystroke	t	n/a
558.401	0.09	1116802	keystroke	Key.backspace	n/a
558.467	0.0905	1116934	keystroke	r	n/a
558.644	0.069	1117288	keystroke	t	n/a
558.736	0.088	1117472	keystroke	u	n/a
558.846	0.046	1117692	keystroke	t	n/a
559.014	0.11	1118028	keystroke	r	n/a
559.146	0.068	1118292	keystroke	Key.backspace	n/a
559.284	0.0905	1118568	keystroke	Key.backspace	n/a
559.3765	0.113	1118753	keystroke	r	n/a
559.444	0.09	1118888	keystroke	e	n/a
559.6775	0.1335	1119355	keystroke	Key.space	n/a
560.1245	0.069	1120249	keystroke	c	n/a
560.1935	0.066	1120387	keystroke	o	n/a
560.3675	0.089	1120735	keystroke	n	n/a
560.4575	0.113	1120915	keystroke	s	n/a
560.791	0.067	1121582	keystroke	e	n/a
561.142	0.112	1122284	keystroke	q	n/a
561.309	0.0895	1122618	keystroke	u	n/a
561.399	0.067	1122798	keystroke	e	n/a
561.633	0.0905	1123266	keystroke	n	n/a
561.7445	0.089	1123489	keystroke	t	n/a
562.0365	0.09	1124073	keystroke	y	n/a
562.3425	0.089	1124685	keystroke	l	n/a
562.5155	0.089	1125031	keystroke	Key.backspace	n/a
562.6705	0.092	1125341	keystroke	Key.backspace	n/a
562.7385	0.1145	1125477	keystroke	l	n/a
562.8065	0.091	1125613	keystroke	y	n/a
562.8985	0.088	1125797	keystroke	Key.space	n/a
563.169	0.069	1126338	keystroke	p	n/a
563.259	0.024	1126518	keystroke	r	n/a
563.4935	0.114	1126987	keystroke	Key.backspace	n/a
563.6295	0.089	1127259	keystroke	e	n/a
563.8065	0.067	1127613	keystroke	n	n/a
563.8945	0.0905	1127789	keystroke	s	n/a
564.019	0.0675	1128038	keystroke	i	n/a
564.0635	0.0675	1128127	keystroke	o	n/a
564.2065	0.0695	1128413	keystroke	n	n/a
564.277	0.066	1128554	keystroke	s	n/a
564.533	0.069	1129066	keystroke	Key.enter	n/a
564.608	5.146	1129216	prompt	n/a	ethnic samuel finished template\n
565.067	0.114	1130134	keystroke	e	n/a
565.2485	0.0875	1130497	keystroke	t	n/a
565.337	0.0445	1130674	keystroke	h	n/a
565.49	0.0915	1130980	keystroke	n	n/a
565.557	0.095	1131114	keystroke	i	n/a
565.606	0.0695	1131212	keystroke	c	n/a
565.704	0.0895	1131408	keystroke	Key.space	n/a
565.8635	0.1135	1131727	keystroke	s	n/a
565.952	0.113	1131904	keystroke	a	n/a
566.0195	0.0675	1132039	keystroke	m	n/a
566.191	0.068	1132382	keystroke	u	n/a
566.311	0.0905	1132622	keystroke	e	n/a
566.402	0.064	1132804	keystroke	l	n/a
566.4675	0.1085	1132935	keystroke	Key.space	n/a
566.607	0.092	1133214	keystroke	f	n/a
566.7	0.066	1133400	keystroke	i	n/a
566.8515	0.0685	1133703	keystroke	n	n/a
566.897	0.069	1133794	keystroke	i	n/a
566.966	0.0905	1133932	keystroke	s	n/a
567.0775	0.068	1134155	keystroke	h	n/a
567.1465	0.0645	1134293	keystroke	e	n/a
567.305	0.067	1134610	keystroke	d	n/a
567.348	0.091	1134696	keystroke	Key.space	n/a
567.606	0.09	1135212	keystroke	t	n/a
567.698	0.0665	1135396	keystroke	e	n/a
567.741	0.1145	1135482	keystroke	m	n/a
567.832	0.0905	1135664	keystroke	o	n/a
568.013	0.0895	1136026	keystroke	l	n/a
568.1815	0.0875	1136363	keystroke	Key.backspace	n/a
568.333	0.091	1136666	keystroke	Key.backspace	n/a
568.401	0.1105	1136802	keystroke	p	n/a
568.5325	0.049	1137065	keystroke	a	n/a
568.5825	0.0875	1137165	keystroke	l	n/a
568.761	0.068	1137522	keystroke	Key.backspace	n/a
568.899	0.0895	1137798	keystroke	Key.backspace	n/a
568.966	0.1145	1137932	keystroke	l	n/a
569.0555	0.095	1138111	keystroke	a	n/a
569.103	0.113	1138206	keystroke	t	n/a
569.152	0.108	1138304	keystroke	e	n/a
569.281	0.11	1138562	keystroke	Key.space	n/a
569.5235	0.0695	1139047	keystroke	Key.backspace	n/a
569.683	0.069	1139366	keystroke	Key.enter	n/a
569.758	10.7515	1139516	prompt	n/a	committees programming exhibitions participate\n
570.4265	0.1125	1140853	keystroke	c	n/a
570.516	0.0695	1141032	keystroke	o	n/a
570.6655	0.0875	1141331	keystroke	m	n/a
570.7985	0.0895	1141597	keystroke	m	n/a
571.001	0.068	1142002	keystroke	i	n/a
571.09	0.068	1142180	keystroke	t	n/a
571.24	0.091	1142480	keystroke	t	n/a
571.3525	0.0645	1142705	keystroke	e	n/a
571.518	0.047	1143036	keystroke	e	n/a
571.684	0.067	1143368	keystroke	s	n/a
571.845	0.129	1143690	keystroke	s	n/a
572.141	0.109	1144282	keystroke	Key.space	n/a
572.358	0.09	1144716	keystroke	r	n/a
572.6325	0.07	1145265	keystroke	Key.backspace	n/a
572.806	0.046	1145612	keystroke	Key.backspace	n/a
572.9535	0.088	1145907	keystroke	Key.backspace	n/a
573.496	0.112	1146992	keystroke	Key.space	n/a
573.7115	0.112	1147423	keystroke	p	n/a
573.7995	0.0475	1147599	keystroke	r	n/a
573.906	0.113	1147812	keystroke	o	n/a
573.9945	0.091	1147989	keystroke	g	n/a
574.062	0.0905	1148124	keystroke	r	n/a
574.207	0.1375	1148414	keystroke	a	n/a
574.3205	0.045	1148641	keystroke	m	n/a
574.443	0.0905	1148886	keystroke	m	n/a
574.5095	0.093	1149019	keystroke	i	n/a
574.6245	0.09	1149249	keystroke	n	n/a
574.7155	0.066	1149431	keystroke	g	n/a
574.8025	0.089	1149605	keystroke	Key.space	n/a
575.2455	0.0885	1150491	keystroke	e	n/a
575.5245	0.1155	1151049	keystroke	x	n/a
576.1685	0.0925	1152337	keystroke	b	n/a
577.426	0.1125	1154852	keystroke	h	n/a
577.5115	0.092	1155023	keystroke	i	n/a
577.561	0.1095	1155122	keystroke	t	n/a
578.311	0.1125	1156622	keystroke	t	n/a
