onset	duration	sample	value	key	prompt_text
8.008	8.52	16016	prompt	n/a	the quick brown fox jumps over a lazy dog\n
9.042	0.043	18084	keystroke_t	t	n/a
9.07	0.12	18140	keystroke_h	h	n/a
9.4305	0.0895	18861	keystroke_e	e	n/a
9.535	0.105	19070	keystroke_Key.space	Key.space	n/a
9.76	0.105	19520	keystroke_q	q	n/a
9.88	0.135	19760	keystroke_u	u	n/a
10.03	0.12	20060	keystroke_i	i	n/a
10.21	0.121	20420	keystroke_c	c	n/a
10.3	0.1505	20600	keystroke_k	k	n/a
10.51	0.12	21020	keystroke_Key.space	Key.space	n/a
10.646	0.119	21292	keystroke_b	b	n/a
10.796	0.105	21592	keystroke_r	r	n/a
10.975	0.046	21950	keystroke_o	o	n/a
11.035	0.091	22070	keystroke_w	w	n/a
11.41	0.091	22820	keystroke_n	n	n/a
11.56	0.1055	23120	keystroke_Key.space	Key.space	n/a
11.9645	0.0905	23929	keystroke_f	f	n/a
12.07	0.091	24140	keystroke_o	o	n/a
12.52	0.105	25040	keystroke_x	x	n/a
12.595	0.12	25190	keystroke_Key.space	Key.space	n/a
13.4205	0.1055	26841	keystroke_j	j	n/a
13.63	0.09	27260	keystroke_u	u	n/a
13.825	0.1195	27650	keystroke_m	m	n/a
13.9595	0.105	27919	keystroke_p	p	n/a
14.125	0.106	28250	keystroke_s	s	n/a
14.425	0.105	28850	keystroke_Key.space	Key.space	n/a
14.5745	0.1055	29149	keystroke_o	o	n/a
14.681	0.074	29362	keystroke_v	v	n/a
14.8145	0.105	29629	keystroke_e	e	n/a
14.8895	0.075	29779	keystroke_r	r	n/a
14.9945	0.075	29989	keystroke_Key.space	Key.space	n/a
15.1145	0.09	30229	keystroke_a	a	n/a
15.1745	0.06	30349	keystroke_Key.space	Key.space	n/a
15.3395	0.105	30679	keystroke_l	l	n/a
15.4145	0.09	30829	keystroke_a	a	n/a
15.6095	0.09	31219	keystroke_z	z	n/a
15.6695	0.12	31339	keystroke_y	y	n/a
15.8045	0.105	31609	keystroke_Key.space	Key.space	n/a
15.9395	0.12	31879	keystroke_d	d	n/a
16.0745	0.075	32149	keystroke_o	o	n/a
16.2095	0.075	32419	keystroke_g	g	n/a
16.4345	0.09	32869	keystroke_Key.enter	Key.enter	n/a
16.5345	7.6585	33069	prompt	n/a	armenia framework refuse producing\n
17.0945	0.09	34189	keystroke_a	a	n/a
17.4845	0.075	34969	keystroke_r	r	n/a
17.6795	0.106	35359	keystroke_m	m	n/a
18.0245	0.09	36049	keystroke_e	e	n/a
18.1005	0.1195	36201	keystroke_n	n	n/a
18.19	0.105	36380	keystroke_i	i	n/a
18.31	0.09	36620	keystroke_a	a	n/a
18.505	0.09	37010	keystroke_Key.space	Key.space	n/a
18.76	0.075	37520	keystroke_f	f	n/a
19.4505	0.075	38901	keystroke_r	r	n/a
19.6905	0.105	39381	keystroke_a	a	n/a
19.8105	0.105	39621	keystroke_m	m	n/a
20.2005	0.09	40401	keystroke_e	e	n/a
20.3945	0.09	40789	keystroke_w	w	n/a
20.5305	0.0895	41061	keystroke_o	o	n/a
20.6505	0.089	41301	keystroke_r	r	n/a
20.7245	0.09	41449	keystroke_k	k	n/a
20.8445	0.135	41689	keystroke_Key.space	Key.space	n/a
21.206	0.0885	42412	keystroke_r	r	n/a
21.3245	0.075	42649	keystroke_e	e	n/a
21.4445	0.09	42889	keystroke_f	f	n/a
21.5945	0.105	43189	keystroke_u	u	n/a
21.6695	0.06	43339	keystroke_s	s	n/a
21.8195	0.075	43639	keystroke_e	e	n/a
21.925	0.0745	43850	keystroke_Key.space	Key.space	n/a
22.1345	0.136	44269	keystroke_p	p	n/a
22.2855	0.09	44571	keystroke_r	r	n/a
22.4955	0.045	44991	keystroke_o	o	n/a
22.9005	0.075	45801	keystroke_d	d	n/a
23.0205	0.089	46041	keystroke_u	u	n/a
23.1705	0.12	46341	keystroke_c	c	n/a
23.5905	0.119	47181	keystroke_i	i	n/a
23.6205	0.12	47241	keystroke_n	n	n/a
23.8605	0.09	47721	keystroke_g	g	n/a
24.0855	0.1045	48171	keystroke_Key.enter	Key.enter	n/a
24.198	5.604	48396	prompt	n/a	cams graduation laptop adjusted\n
24.7	0.075	49400	keystroke_c	c	n/a
24.865	0.06	49730	keystroke_a	a	n/a
24.91	0.105	49820	keystroke_m	m	n/a
25.225	0.12	50450	keystroke_s	s	n/a
25.36	0.075	50720	keystroke_Key.space	Key.space	n/a
25.7505	0.045	51501	keystroke_g	g	n/a
25.9005	0.075	51801	keystroke_r	r	n/a
26.0205	0.089	52041	keystroke_a	a	n/a
26.2305	0.12	52461	keystroke_d	d	n/a
26.5005	0.09	53001	keystroke_u	u	n/a
26.6345	0.046	53269	keystroke_a	a	n/a
26.7395	0.076	53479	keystroke_t	t	n/a
26.8295	0.106	53659	keystroke_i	i	n/a
26.9195	0.15	53839	keystroke_o	o	n/a
27.0095	0.105	54019	keystroke_n	n	n/a
27.1745	0.15	54349	keystroke_Key.space	Key.space	n/a
27.4145	0.121	54829	keystroke_l	l	n/a
27.5645	0.105	55129	keystroke_a	a	n/a
27.6555	0.104	55311	keystroke_p	p	n/a
27.8205	0.075	55641	keystroke_t	t	n/a
27.8805	0.134	55761	keystroke_o	o	n/a
27.9555	0.104	55911	keystroke_p	p	n/a
28.1495	0.105	56299	keystroke_Key.space	Key.space	n/a
28.3605	0.09	56721	keystroke_a	a	n/a
28.5555	0.104	57111	keystroke_d	d	n/a
28.7495	0.091	57499	keystroke_j	j	n/a
28.9155	0.09	57831	keystroke_u	u	n/a
29.0205	0.075	58041	keystroke_s	s	n/a
29.1105	0.074	58221	keystroke_t	t	n/a
29.2905	0.105	58581	keystroke_e	e	n/a
29.3505	0.105	58701	keystroke_d	d	n/a
29.7255	0.074	59451	keystroke_Key.enter	Key.enter	n/a
29.807	6.6855	59614	prompt	n/a	motivation rapid rebound postcard\n
30.4155	0.09	60831	keystroke_m	m	n/a
30.5355	0.119	61071	keystroke_o	o	n/a
30.8655	0.015	61731	keystroke_i	i	n/a
31.0595	0.075	62119	keystroke_Key.backspace	Key.backspace	n/a
31.1505	0.06	62301	keystroke_t	t	n/a
31.2255	0.105	62451	keystroke_i	i	n/a
31.3755	0.09	62751	keystroke_v	v	n/a
31.5705	0.09	63141	keystroke_a	a	n/a
31.7205	0.06	63441	keystroke_t	t	n/a
31.7955	0.09	63591	keystroke_i	i	n/a
31.8695	0.151	63739	keystroke_o	o	n/a
31.9755	0.12	63951	keystroke_n	n	n/a
32.0805	0.12	64161	keystroke_Key.space	Key.space	n/a
32.3205	0.09	64641	keystroke_r	r	n/a
32.4705	0.075	64941	keystroke_a	a	n/a
32.5755	0.105	65151	keystroke_p	p	n/a
32.6355	0.135	65271	keystroke_i	i	n/a
32.7555	0.09	65511	keystroke_d	d	n/a
32.9645	0.105	65929	keystroke_Key.space	Key.space	n/a
33.3855	0.09	66771	keystroke_r	r	n/a
33.6545	0.076	67309	keystroke_b	b	n/a
33.9245	0.06	67849	keystroke_Key.backspace	Key.backspace	n/a
34.0005	0.075	68001	keystroke_e	e	n/a
34.1205	0.09	68241	keystroke_b	b	n/a
34.3145	0.136	68629	keystroke_o	o	n/a
34.3755	0.105	68751	keystroke_u	u	n/a
34.5855	0.074	69171	keystroke_n	n	n/a
34.6755	0.105	69351	keystroke_d	d	n/a
34.8095	0.091	69619	keystroke_Key.space	Key.space	n/a
35.2755	0.135	70551	keystroke_p	p	n/a
35.3505	0.105	70701	keystroke_o	o	n/a
35.4705	0.09	70941	keystroke_s	s	n/a
35.5755	0.06	71151	keystroke_t	t	n/a
35.8455	0.09	71691	keystroke_c	c	n/a
35.9955	0.075	71991	keystroke_a	a	n/a
36.0715	0.089	72143	keystroke_r	r	n/a
36.2655	0.09	72531	keystroke_d	d	n/a
36.3855	0.104	72771	keystroke_Key.enter	Key.enter	n/a
36.497	8.5305	72994	prompt	n/a	automatically athletic cambodia vintage\n
37.0155	0.09	74031	keystroke_a	a	n/a
37.1505	0.12	74301	keystroke_u	u	n/a
37.3005	0.06	74601	keystroke_t	t	n/a
37.3905	0.12	74781	keystroke_o	o	n/a
37.6305	0.09	75261	keystroke_m	m	n/a
37.7505	0.06	75501	keystroke_a	a	n/a
37.8855	0.06	75771	keystroke_t	t	n/a
37.9605	0.09	75921	keystroke_i	i	n/a
38.0805	0.075	76161	keystroke_c	c	n/a
38.2155	0.105	76431	keystroke_a	a	n/a
38.3205	0.075	76641	keystroke_l	l	n/a
38.4555	0.075	76911	keystroke_l	l	n/a
38.5455	0.075	77091	keystroke_y	y	n/a
38.7095	0.091	77419	keystroke_Key.space	Key.space	n/a
38.9645	0.046	77929	keystroke_a	a	n/a
39.1155	0.075	78231	keystroke_t	t	n/a
39.2055	0.09	78411	keystroke_h	h	n/a
39.3705	0.105	78741	keystroke_l	l	n/a
39.5355	0.075	79071	keystroke_e	e	n/a
39.6555	0.105	79311	keystroke_t	t	n/a
39.7755	0.105	79551	keystroke_i	i	n/a
39.9105	0.12	79821	keystroke_c	c	n/a
40.0605	0.09	80121	keystroke_Key.space	Key.space	n/a
40.4205	0.075	80841	keystroke_c	c	n/a
40.5855	0.075	81171	keystroke_a	a	n/a
40.6905	0.12	81381	keystroke_m	m	n/a
40.9005	0.105	81801	keystroke_b	b	n/a
41.1555	0.09	82311	keystroke_o	o	n/a
41.2755	0.09	82551	keystroke_d	d	n/a
41.3805	0.09	82761	keystroke_i	i	n/a
41.4705	0.105	82941	keystroke_a	a	n/a
41.6805	0.105	83361	keystroke_Key.space	Key.space	n/a
42.5055	0.12	85011	keystroke_v	v	n/a
42.6405	0.105	85281	keystroke_i	i	n/a
42.7005	0.105	85401	keystroke_n	n	n/a
42.8355	0.09	85671	keystroke_t	t	n/a
42.9855	0.06	85971	keystroke_a	a	n/a
43.1955	0.105	86391	keystroke_e	e	n/a
43.6905	0.06	87381	keystroke_g	g	n/a
44.1855	0.075	88371	keystroke_Key.backspace	Key.backspace	n/a
44.3355	0.06	88671	keystroke_Key.backspace	Key.backspace	n/a
44.5305	0.06	89061	keystroke_g	g	n/a
44.6505	0.075	89301	keystroke_e	e	n/a
44.9505	0.075	89901	keystroke_Key.enter	Key.enter	n/a
45.033	7.495	90066	prompt	n/a	musical gulf andrea finite\n
45.5955	0.135	91191	keystroke_m	m	n/a
45.8205	0.09	91641	keystroke_u	u	n/a
45.9255	0.09	91851	keystroke_s	s	n/a
46.0305	0.105	92061	keystroke_i	i	n/a
46.1655	0.075	92331	keystroke_c	c	n/a
46.3155	0.105	92631	keystroke_a	a	n/a
46.4055	0.09	92811	keystroke_l	l	n/a
46.5255	0.104	93051	keystroke_Key.space	Key.space	n/a
46.7955	0.105	93591	keystroke_g	g	n/a
46.9155	0.135	93831	keystroke_i	i	n/a
47.0055	0.03	94011	keystroke_l	l	n/a
47.3805	0.09	94761	keystroke_Key.backspace	Key.backspace	n/a
47.5605	0.075	95121	keystroke_Key.backspace	Key.backspace	n/a
47.7255	0.105	95451	keystroke_u	u	n/a
47.8605	0.105	95721	keystroke_l	l	n/a
48.1005	0.0895	96201	keystroke_f	f	n/a
48.28	0.105	96560	keystroke_Key.space	Key.space	n/a
49.031	0.09	98062	keystroke_a	a	n/a
49.121	0.105	98242	keystroke_n	n	n/a
49.211	0.09	98422	keystroke_d	d	n/a
49.421	0.075	98842	keystroke_r	r	n/a
49.45	0.091	98900	keystroke_e	e	n/a
49.63	0.106	99260	keystroke_a	a	n/a
49.75	0.105	99500	keystroke_Key.space	Key.space	n/a
50.081	0.075	100162	keystroke_f	f	n/a
50.141	0.105	100282	keystroke_i	i	n/a
50.2005	0.1195	100401	keystroke_n	n	n/a
50.38	0.06	100760	keystroke_t	t	n/a
50.455	0.105	100910	keystroke_i	i	n/a
50.68	0.03	101360	keystroke_e	e	n/a
51.0105	0.09	102021	keystroke_Key.backspace	Key.backspace	n/a
51.2055	0.06	102411	keystroke_Key.backspace	Key.backspace	n/a
51.4755	0.045	102951	keystroke_i	i	n/a
51.7755	0.06	103551	keystroke_Key.backspace	Key.backspace	n/a
51.9255	0.075	103851	keystroke_Key.backspace	Key.backspace	n/a
52.1205	0.09	104241	keystroke_i	i	n/a
52.2255	0.09	104451	keystroke_t	t	n/a
52.3305	0.075	104661	keystroke_e	e	n/a
52.4205	0.104	104841	keystroke_Key.enter	Key.enter	n/a
52.5355	5.0775	105071	prompt	n/a	lovers bread parking basement\n
53.215	0.09	106430	keystroke_l	l	n/a
53.41	0.09	106820	keystroke_o	o	n/a
53.53	0.06	107060	keystroke_v	v	n/a
53.62	0.12	107240	keystroke_e	e	n/a
53.71	0.075	107420	keystroke_r	r	n/a
53.83	0.09	107660	keystroke_Key.space	Key.space	n/a
54.28	0.09	108560	keystroke_Key.backspace	Key.backspace	n/a
54.356	0.1045	108712	keystroke_s	s	n/a
54.4905	0.105	108981	keystroke_Key.space	Key.space	n/a
54.6105	0.105	109221	keystroke_b	b	n/a
54.7005	0.075	109401	keystroke_r	r	n/a
54.7305	0.075	109461	keystroke_e	e	n/a
54.9255	0.06	109851	keystroke_a	a	n/a
55.0005	0.075	110001	keystroke_d	d	n/a
55.0905	0.105	110181	keystroke_Key.space	Key.space	n/a
55.3605	0.12	110721	keystroke_p	p	n/a
55.5255	0.045	111051	keystroke_a	a	n/a
55.6155	0.06	111231	keystroke_r	r	n/a
55.7355	0.105	111471	keystroke_k	k	n/a
55.9155	0.135	111831	keystroke_i	i	n/a
55.9755	0.12	111951	keystroke_n	n	n/a
56.0355	0.105	112071	keystroke_g	g	n/a
56.1255	0.135	112251	keystroke_Key.space	Key.space	n/a
56.4555	0.09	112911	keystroke_b	b	n/a
56.5005	0.105	113001	keystroke_a	a	n/a
56.5755	0.105	113151	keystroke_s	s	n/a
56.7855	0.09	113571	keystroke_e	e	n/a
56.8905	0.075	113781	keystroke_m	m	n/a
57.0405	0.075	114081	keystroke_e	e	n/a
57.1905	0.09	114381	keystroke_n	n	n/a
57.2955	0.075	114591	keystroke_t	t	n/a
57.5205	0.09	115041	keystroke_Key.enter	Key.enter	n/a
57.6185	7.4045	115237	prompt	n/a	explore polar appointment customize\n
58.1655	0.075	116331	keystroke_e	e	n/a
58.3605	0.09	116721	keystroke_x	x	n/a
58.4355	0.105	116871	keystroke_p	p	n/a
58.4805	0.075	116961	keystroke_l	l	n/a
58.6455	0.105	117291	keystroke_o	o	n/a
58.7655	0.075	117531	keystroke_r	r	n/a
59.2155	0.075	118431	keystroke_e	e	n/a
59.3055	0.09	118611	keystroke_Key.space	Key.space	n/a
59.5605	0.18	119121	keystroke_p	p	n/a
59.9205	0.09	119841	keystroke_o	o	n/a
60.0855	0.12	120171	keystroke_l	l	n/a
60.1905	0.09	120381	keystroke_a	a	n/a
60.2655	0.105	120531	keystroke_r	r	n/a
60.3855	0.09	120771	keystroke_Key.space	Key.space	n/a
60.5805	0.135	121161	keystroke_a	a	n/a
60.6705	0.09	121341	keystroke_p	p	n/a
60.8355	0.135	121671	keystroke_p	p	n/a
60.9105	0.105	121821	keystroke_o	o	n/a
61.1205	0.09	122241	keystroke_i	i	n/a
61.1505	0.105	122301	keystroke_n	n	n/a
61.2705	0.09	122541	keystroke_t	t	n/a
61.4805	0.09	122961	keystroke_m	m	n/a
61.5855	0.09	123171	keystroke_e	e	n/a
61.7055	0.09	123411	keystroke_n	n	n/a
61.7805	0.09	123561	keystroke_t	t	n/a
61.9155	0.09	123831	keystroke_Key.space	Key.space	n/a
62.2005	0.03	124401	keystroke_a	a	n/a
62.485	0.075	124970	keystroke_Key.backspace	Key.backspace	n/a
62.53	0.106	125060	keystroke_c	c	n/a
62.71	0.06	125420	keystroke_u	u	n/a
62.786	0.074	125572	keystroke_s	s	n/a
62.875	0.075	125750	keystroke_t	t	n/a
63.011	0.104	126022	keystroke_i	i	n/a
63.056	0.149	126112	keystroke_m	m	n/a
63.415	0.075	126830	keystroke_Key.backspace	Key.backspace	n/a
63.565	0.075	127130	keystroke_Key.backspace	Key.backspace	n/a
63.896	0.09	127792	keystroke_o	o	n/a
64.181	0.09	128362	keystroke_m	m	n/a
64.316	0.074	128632	keystroke_i	i	n/a
64.436	0.09	128872	keystroke_z	z	n/a
64.721	0.09	129442	keystroke_e	e	n/a
64.93	0.09	129860	keystroke_Key.enter	Key.enter	n/a
65.028	5.1095	130056	prompt	n/a	pike report observe exclude\n
65.606	0.18	131212	keystroke_p	p	n/a
65.741	0.089	131482	keystroke_i	i	n/a
65.936	0.09	131872	keystroke_k	k	n/a
66.011	0.105	132022	keystroke_e	e	n/a
66.13	0.12	132260	keystroke_Key.space	Key.space	n/a
66.311	0.119	132622	keystroke_r	r	n/a
66.401	0.059	132802	keystroke_e	e	n/a
66.491	0.0895	132982	keystroke_p	p	n/a
66.52	0.12	133040	keystroke_o	o	n/a
66.641	0.09	133282	keystroke_r	r	n/a
66.805	0.076	133610	keystroke_t	t	n/a
66.91	0.105	133820	keystroke_Key.space	Key.space	n/a
67.346	0.105	134692	keystroke_o	o	n/a
67.496	0.105	134992	keystroke_b	b	n/a
67.631	0.059	135262	keystroke_s	s	n/a
67.811	0.105	135622	keystroke_e	e	n/a
67.885	0.121	135770	keystroke_r	r	n/a
68.081	0.059	136162	keystroke_v	v	n/a
68.155	0.105	136310	keystroke_e	e	n/a
68.32	0.076	136640	keystroke_Key.space	Key.space	n/a
68.576	0.075	137152	keystroke_e	e	n/a
68.786	0.12	137572	keystroke_x	x	n/a
68.981	0.105	137962	keystroke_c	c	n/a
69.116	0.119	138232	keystroke_l	l	n/a
69.176	0.105	138352	keystroke_u	u	n/a
69.251	0.075	138502	keystroke_s	s	n/a
69.76	0.09	139520	keystroke_Key.backspace	Key.backspace	n/a
69.866	0.09	139732	keystroke_d	d	n/a
69.91	0.106	139820	keystroke_e	e	n/a
70.046	0.089	140092	keystroke_Key.enter	Key.enter	n/a
70.1425	7.6005	140285	prompt	n/a	nonprofit 'tis fresh needn't\n
70.66	0.091	141320	keystroke_n	n	n/a
70.796	0.12	141592	keystroke_o	o	n/a
70.871	0.12	141742	keystroke_n	n	n/a
71.576	0.075	143152	keystroke_p	p	n/a
71.666	0.105	143332	keystroke_r	r	n/a
71.785	0.075	143570	keystroke_o	o	n/a
71.906	0.089	143812	keystroke_f	f	n/a
72.011	0.12	144022	keystroke_i	i	n/a
72.146	0.06	144292	keystroke_t	t	n/a
72.716	0.105	145432	keystroke_Key.space	Key.space	n/a
73.001	0.105	146002	keystroke_'	'	n/a
73.24	0.045	146480	keystroke_t	t	n/a
73.421	0.03	146842	keystroke_i	i	n/a
73.796	0.075	147592	keystroke_s	s	n/a
74.02	0.076	148040	keystroke_Key.space	Key.space	n/a
74.3205	0.09	148641	keystroke_f	f	n/a
74.5005	0.09	149001	keystroke_r	r	n/a
74.561	0.0745	149122	keystroke_e	e	n/a
74.7255	0.105	149451	keystroke_s	s	n/a
74.8455	0.09	149691	keystroke_h	h	n/a
75.1905	0.09	150381	keystroke_Key.space	Key.space	n/a
75.3555	0.09	150711	keystroke_n	n	n/a
75.4605	0.075	150921	keystroke_e	e	n/a
75.6255	0.105	151251	keystroke_e	e	n/a
75.6855	0.105	151371	keystroke_d	d	n/a
76.1205	0.0905	152241	keystroke_n	n	n/a
76.796	0.06	153592	keystroke_'	'	n/a
76.961	0.075	153922	keystroke_t	t	n/a
77.051	0.135	154102	keystroke_Key.space	Key.space	n/a
77.636	0.105	155272	keystroke_Key.enter	Key.enter	n/a
77.748	5.515	155496	prompt	n/a	even dive caught nine\n
78.4755	0.06	156951	keystroke_e	e	n/a
78.6105	0.075	157221	keystroke_v	v	n/a
78.7005	0.075	157401	keystroke_e	e	n/a
78.7905	0.15	157581	keystroke_n	n	n/a
78.9555	0.105	157911	keystroke_Key.space	Key.space	n/a
79.1205	0.105	158241	keystroke_d	d	n/a
79.2265	0.089	158453	keystroke_i	i	n/a
79.3605	0.045	158721	keystroke_r	r	n/a
79.5255	0.06	159051	keystroke_v	v	n/a
79.6155	0.06	159231	keystroke_e	e	n/a
79.7505	0.09	159501	keystroke_Key.space	Key.space	n/a
80.366	0.044	160732	keystroke_Key.backspace	Key.backspace	n/a
80.5	0.075	161000	keystroke_Key.backspace	Key.backspace	n/a
80.771	0.045	161542	keystroke_Key.backspace	Key.backspace	n/a
81.16	0.09	162320	keystroke_Key.backspace	Key.backspace	n/a
81.266	0.089	162532	keystroke_v	v	n/a
81.416	0.075	162832	keystroke_e	e	n/a
81.58	0.09	163160	keystroke_Key.space	Key.space	n/a
81.791	0.105	163582	keystroke_c	c	n/a
81.97	0.076	163940	keystroke_a	a	n/a
82.016	0.09	164032	keystroke_u	u	n/a
82.166	0.0745	164332	keystroke_g	g	n/a
82.2265	0.089	164453	keystroke_h	h	n/a
82.3305	0.06	164661	keystroke_t	t	n/a
82.4205	0.075	164841	keystroke_Key.space	Key.space	n/a
82.6305	0.106	165261	keystroke_n	n	n/a
82.7505	0.105	165501	keystroke_i	i	n/a
82.8105	0.105	165621	keystroke_n	n	n/a
82.9455	0.09	165891	keystroke_e	e	n/a
83.1855	0.075	166371	keystroke_Key.enter	Key.enter	n/a
83.2685	10.239	166537	prompt	n/a	connecting simultaneously trackback shipments\n
83.8005	0.075	167601	keystroke_c	c	n/a
83.9655	0.12	167931	keystroke_o	o	n/a
84.0255	0.09	168051	keystroke_n	n	n/a
84.1605	0.12	168321	keystroke_n	n	n/a
84.5655	0.105	169131	keystroke_e	e	n/a
84.6405	0.075	169281	keystroke_c	c	n/a
84.8205	0.06	169641	keystroke_t	t	n/a
84.8955	0.09	169791	keystroke_i	i	n/a
84.9405	0.09	169881	keystroke_n	n	n/a
85.1205	0.045	170241	keystroke_g	g	n/a
85.1805	0.09	170361	keystroke_Key.space	Key.space	n/a
85.4505	0.075	170901	keystroke_s	s	n/a
85.6755	0.045	171351	keystroke_u	u	n/a
86.0205	0.075	172041	keystroke_Key.backspace	Key.backspace	n/a
86.1255	0.105	172251	keystroke_i	i	n/a
86.3355	0.06	172671	keystroke_m	m	n/a
86.5305	0.12	173061	keystroke_u	u	n/a
86.6355	0.075	173271	keystroke_l	l	n/a
86.7555	0.09	173511	keystroke_a	a	n/a
86.9205	0.076	173841	keystroke_t	t	n/a
87.2655	0.09	174531	keystroke_a	a	n/a
87.3705	0.09	174741	keystroke_n	n	n/a
88.3455	0.105	176691	keystroke_e	e	n/a
88.6155	0.105	177231	keystroke_o	o	n/a
88.6755	0.09	177351	keystroke_u	u	n/a
88.7805	0.12	177561	keystroke_s	s	n/a
88.8855	0.075	177771	keystroke_l	l	n/a
89.0655	0.075	178131	keystroke_y	y	n/a
89.2305	0.105	178461	keystroke_Key.space	Key.space	n/a
89.8605	0.06	179721	keystroke_t	t	n/a
90.0255	0.09	180051	keystroke_r	r	n/a
90.1605	0.09	180321	keystroke_a	a	n/a
90.3105	0.105	180621	keystroke_c	c	n/a
90.4005	0.12	180801	keystroke_k	k	n/a
90.6555	0.09	181311	keystroke_b	b	n/a
90.7305	0.075	181461	keystroke_a	a	n/a
90.8955	0.09	181791	keystroke_c	c	n/a
91.0005	0.105	182001	keystroke_k	k	n/a
91.1355	0.12	182271	keystroke_Key.space	Key.space	n/a
91.4955	0.105	182991	keystroke_s	s	n/a
91.5855	0.075	183171	keystroke_h	h	n/a
91.9005	0.12	183801	keystroke_p	p	n/a
92.2605	0.09	184521	keystroke_Key.backspace	Key.backspace	n/a
92.3655	0.12	184731	keystroke_i	i	n/a
92.5155	0.105	185031	keystroke_p	p	n/a
92.8005	0.105	185601	keystroke_m	m	n/a
92.9205	0.075	185841	keystroke_e	e	n/a
93.0105	0.09	186021	keystroke_n	n	n/a
93.1305	0.09	186261	keystroke_t	t	n/a
93.2655	0.09	186531	keystroke_s	s	n/a
93.4155	0.09	186831	keystroke_Key.enter	Key.enter	n/a
93.5125	8.351	187025	prompt	n/a	consistently utils warrant defines\n
94.0315	0.074	188063	keystroke_c	c	n/a
94.0905	0.135	188181	keystroke_o	o	n/a
94.1655	0.106	188331	keystroke_n	n	n/a
94.2855	0.105	188571	keystroke_s	s	n/a
94.4505	0.09	188901	keystroke_i	i	n/a
94.6905	0.12	189381	keystroke_s	s	n/a
94.8855	0.075	189771	keystroke_t	t	n/a
95.0055	0.105	190011	keystroke_e	e	n/a
95.1555	0.09	190311	keystroke_n	n	n/a
95.5455	0.075	191091	keystroke_t	t	n/a
95.6805	0.09	191361	keystroke_l	l	n/a
95.7855	0.061	191571	keystroke_y	y	n/a
95.9355	0.09	191871	keystroke_Key.space	Key.space	n/a
96.2055	0.09	192411	keystroke_u	u	n/a
96.3255	0.06	192651	keystroke_t	t	n/a
96.7455	0.121	193491	keystroke_i	i	n/a
97.1655	0.09	194331	keystroke_l	l	n/a
97.3005	0.075	194601	keystroke_s	s	n/a
97.4805	0.09	194961	keystroke_Key.space	Key.space	n/a
97.7355	0.075	195471	keystroke_w	w	n/a
97.9305	0.061	195861	keystroke_a	a	n/a
98.0955	0.09	196191	keystroke_r	r	n/a
99.505	0.105	199010	keystroke_r	r	n/a
100.1215	0.075	200243	keystroke_a	a	n/a
100.2255	0.121	200451	keystroke_n	n	n/a
100.361	0.0755	200722	keystroke_t	t	n/a
100.4805	0.12	200961	keystroke_Key.space	Key.space	n/a
100.9015	0.09	201803	keystroke_d	d	n/a
101.0665	0.119	202133	keystroke_e	e	n/a
101.201	0.075	202402	keystroke_f	f	n/a
101.321	0.12	202642	keystroke_i	i	n/a
101.3815	0.0895	202763	keystroke_n	n	n/a
101.4565	0.0735	202913	keystroke_e	e	n/a
101.635	0.076	203270	keystroke_s	s	n/a
101.755	0.1055	203510	keystroke_Key.enter	Key.enter	n/a
101.869	8.4685	203738	prompt	n/a	comedy inputs newer therapeutic\n
102.355	0.091	204710	keystroke_c	c	n/a
102.4615	0.1045	204923	keystroke_o	o	n/a
102.7465	0.105	205493	keystroke_e	e	n/a
102.806	0.1045	205612	keystroke_d	d	n/a
103.1355	0.091	206271	keystroke_Key.backspace	Key.backspace	n/a
103.3315	0.074	206663	keystroke_Key.backspace	Key.backspace	n/a
103.5565	0.104	207113	keystroke_m	m	n/a
103.7065	0.105	207413	keystroke_e	e	n/a
103.7355	0.106	207471	keystroke_d	d	n/a
103.8715	0.105	207743	keystroke_y	y	n/a
104.3355	0.135	208671	keystroke_Key.space	Key.space	n/a
104.4565	0.12	208913	keystroke_i	i	n/a
104.5165	0.105	209033	keystroke_n	n	n/a
104.7415	0.105	209483	keystroke_p	p	n/a
104.7865	0.09	209573	keystroke_u	u	n/a
104.8615	0.09	209723	keystroke_t	t	n/a
104.9515	0.104	209903	keystroke_s	s	n/a
105.1005	0.105	210201	keystroke_Key.space	Key.space	n/a
105.4915	0.104	210983	keystroke_n	n	n/a
105.6415	0.075	211283	keystroke_e	e	n/a
105.9865	0.075	211973	keystroke_w	w	n/a
106.181	0.105	212362	keystroke_e	e	n/a
106.256	0.105	212512	keystroke_r	r	n/a
106.376	0.09	212752	keystroke_Key.space	Key.space	n/a
106.916	0.075	213832	keystroke_t	t	n/a
107.141	0.075	214282	keystroke_e	e	n/a
107.501	0.09	215002	keystroke_Key.backspace	Key.backspace	n/a
107.651	0.075	215302	keystroke_h	h	n/a
107.771	0.075	215542	keystroke_e	e	n/a
107.831	0.075	215662	keystroke_r	r	n/a
108.041	0.105	216082	keystroke_a	a	n/a
108.3115	0.194	216623	keystroke_p	p	n/a
108.4005	0.12	216801	keystroke_u	u	n/a
109.1365	0.074	218273	keystroke_Key.backspace	Key.backspace	n/a
109.2265	0.09	218453	keystroke_e	e	n/a
109.3315	0.075	218663	keystroke_u	u	n/a
109.4515	0.075	218903	keystroke_t	t	n/a
109.6615	0.09	219323	keystroke_i	i	n/a
109.9915	0.09	219983	keystroke_c	c	n/a
110.231	0.105	220462	keystroke_Key.enter	Key.enter	n/a
110.3415	7.122	220683	prompt	n/a	cultural texts shopper hotels\n
110.9055	0.09	221811	keystroke_c	c	n/a
111.0255	0.105	222051	keystroke_u	u	n/a
111.1605	0.135	222321	keystroke_l	l	n/a
111.5355	0.075	223071	keystroke_t	t	n/a
111.6555	0.075	223311	keystroke_u	u	n/a
112.0305	0.075	224061	keystroke_e	e	n/a
112.301	0.105	224602	keystroke_Key.backspace	Key.backspace	n/a
112.361	0.105	224722	keystroke_r	r	n/a
112.526	0.09	225052	keystroke_a	a	n/a
112.601	0.12	225202	keystroke_l	l	n/a
112.826	0.135	225652	keystroke_Key.space	Key.space	n/a
113.291	0.105	226582	keystroke_t	t	n/a
113.411	0.09	226822	keystroke_e	e	n/a
113.651	0.06	227302	keystroke_x	x	n/a
113.726	0.09	227452	keystroke_t	t	n/a
113.891	0.105	227782	keystroke_s	s	n/a
114.026	0.09	228052	keystroke_Key.space	Key.space	n/a
114.3115	0.09	228623	keystroke_s	s	n/a
114.416	0.0455	228832	keystroke_h	h	n/a
114.6105	0.106	229221	keystroke_o	o	n/a
114.7605	0.091	229521	keystroke_p	p	n/a
114.9105	0.121	229821	keystroke_p	p	n/a
115.0015	0.09	230003	keystroke_e	e	n/a
115.0605	0.091	230121	keystroke_r	r	n/a
115.1805	0.105	230361	keystroke_Key.space	Key.space	n/a
115.5115	0.06	231023	keystroke_h	h	n/a
115.6015	0.074	231203	keystroke_o	o	n/a
115.6605	0.091	231321	keystroke_t	t	n/a
115.8265	0.09	231653	keystroke_a	a	n/a
115.9315	0.089	231863	keystroke_l	l	n/a
116.4415	0.059	232883	keystroke_Key.backspace	Key.backspace	n/a
116.5755	0.091	233151	keystroke_Key.backspace	Key.backspace	n/a
116.7255	0.076	233451	keystroke_e	e	n/a
116.8455	0.121	233691	keystroke_l	l	n/a
117.0265	0.105	234053	keystroke_s	s	n/a
117.3715	0.089	234743	keystroke_Key.enter	Key.enter	n/a
117.469	6.624	234938	prompt	n/a	throws christine logged limousines\n
117.9855	0.076	235971	keystroke_t	t	n/a
118.0465	0.105	236093	keystroke_h	h	n/a
118.1515	0.06	236303	keystroke_o	o	n/a
118.5415	0.074	237083	keystroke_Key.backspace	Key.backspace	n/a
118.6305	0.061	237261	keystroke_r	r	n/a
118.7365	0.09	237473	keystroke_o	o	n/a
118.8415	0.044	237683	keystroke_w	w	n/a
119.0215	0.09	238043	keystroke_s	s	n/a
119.1255	0.091	238251	keystroke_Key.space	Key.space	n/a
119.4565	0.09	238913	keystroke_c	c	n/a
119.5315	0.074	239063	keystroke_h	h	n/a
119.6355	0.075	239271	keystroke_r	r	n/a
119.7715	0.089	239543	keystroke_i	i	n/a
119.8005	0.136	239601	keystroke_s	s	n/a
120.0415	0.09	240083	keystroke_t	t	n/a
120.1765	0.105	240353	keystroke_i	i	n/a
120.2365	0.09	240473	keystroke_n	n	n/a
120.3415	0.075	240683	keystroke_e	e	n/a
120.4605	0.12	240921	keystroke_Key.space	Key.space	n/a
120.8065	0.075	241613	keystroke_l	l	n/a
120.9855	0.076	241971	keystroke_o	o	n/a
121.0755	0.06	242151	keystroke_g	g	n/a
121.2115	0.06	242423	keystroke_g	g	n/a
121.4805	0.106	242961	keystroke_e	e	n/a
121.7365	0.09	243473	keystroke_d	d	n/a
121.8565	0.09	243713	keystroke_Key.space	Key.space	n/a
122.1715	0.15	244343	keystroke_l	l	n/a
122.2915	0.12	244583	keystroke_i	i	n/a
122.5165	0.105	245033	keystroke_m	m	n/a
122.8915	0.12	245783	keystroke_o	o	n/a
122.9665	0.105	245933	keystroke_u	u	n/a
123.1165	0.075	246233	keystroke_s	s	n/a
123.4915	0.105	246983	keystroke_i	i	n/a
123.5365	0.12	247073	keystroke_n	n	n/a
123.6265	0.075	247253	keystroke_e	e	n/a
123.8065	0.09	247613	keystroke_s	s	n/a
124.0015	0.089	248003	keystroke_Key.enter	Key.enter	n/a
124.1005	7.672	248201	prompt	n/a	compliant anticipated coordinate specials\n
124.7665	0.105	249533	keystroke_c	c	n/a
124.8415	0.18	249683	keystroke_o	o	n/a
124.9915	0.12	249983	keystroke_m	m	n/a
125.2465	0.075	250493	keystroke_p	p	n/a
125.2615	0.12	250523	keystroke_l	l	n/a
125.5015	0.12	251003	keystroke_i	i	n/a
125.6815	0.09	251363	keystroke_a	a	n/a
125.7865	0.075	251573	keystroke_n	n	n/a
125.8915	0.059	251783	keystroke_t	t	n/a
125.9805	0.09	251961	keystroke_Key.space	Key.space	n/a
126.3715	0.105	252743	keystroke_a	a	n/a
126.4915	0.0895	252983	keystroke_n	n	n/a
126.671	0.075	253342	keystroke_t	t	n/a
126.761	0.105	253522	keystroke_i	i	n/a
126.896	0.09	253792	keystroke_c	c	n/a
127.301	0.12	254602	keystroke_i	i	n/a
127.706	0.105	255412	keystroke_p	p	n/a
127.931	0.075	255862	keystroke_a	a	n/a
128.111	0.045	256222	keystroke_t	t	n/a
128.276	0.09	256552	keystroke_e	e	n/a
128.336	0.045	256672	keystroke_d	d	n/a
128.501	0.105	257002	keystroke_Key.space	Key.space	n/a
129.026	0.09	258052	keystroke_c	c	n/a
129.131	0.075	258262	keystroke_o	o	n/a
129.266	0.105	258532	keystroke_o	o	n/a
129.386	0.075	258772	keystroke_r	r	n/a
129.551	0.105	259102	keystroke_d	d	n/a
129.671	0.12	259342	keystroke_i	i	n/a
129.731	0.105	259462	keystroke_n	n	n/a
130.016	0.075	260032	keystroke_a	a	n/a
130.151	0.09	260302	keystroke_t	t	n/a
130.256	0.105	260512	keystroke_e	e	n/a
130.331	0.12	260662	keystroke_Key.space	Key.space	n/a
130.691	0.12	261382	keystroke_s	s	n/a
130.826	0.135	261652	keystroke_p	p	n/a
130.946	0.06	261892	keystroke_e	e	n/a
131.007	0.074	262014	keystroke_c	c	n/a
131.096	0.09	262192	keystroke_i	i	n/a
131.201	0.075	262402	keystroke_a	a	n/a
131.321	0.09	262642	keystroke_l	l	n/a
131.426	0.06	262852	keystroke_s	s	n/a
131.696	0.075	263392	keystroke_Key.enter	Key.enter	n/a
131.777	7.091	263554	prompt	n/a	crystal fisher matches relevance\n
132.311	0.09	264622	keystroke_c	c	n/a
132.521	0.075	265042	keystroke_r	r	n/a
132.641	0.09	265282	keystroke_y	y	n/a
132.761	0.105	265522	keystroke_s	s	n/a
132.971	0.075	265942	keystroke_t	t	n/a
133.241	0.075	266482	keystroke_a	a	n/a
133.301	0.091	266602	keystroke_l	l	n/a
133.451	0.105	266902	keystroke_Key.space	Key.space	n/a
133.646	0.075	267292	keystroke_d	d	n/a
133.767	0.059	267534	keystroke_i	i	n/a
133.856	0.09	267712	keystroke_s	s	n/a
134.156	0.075	268312	keystroke_Key.backspace	Key.backspace	n/a
134.336	0.09	268672	keystroke_Key.backspace	Key.backspace	n/a
134.576	0.045	269152	keystroke_Key.backspace	Key.backspace	n/a
134.816	0.015	269632	keystroke_f	f	n/a
134.846	0.105	269692	keystroke_i	i	n/a
134.966	0.09	269932	keystroke_s	s	n/a
135.101	0.105	270202	keystroke_h	h	n/a
135.191	0.09	270382	keystroke_e	e	n/a
135.236	0.105	270472	keystroke_r	r	n/a
135.371	0.105	270742	keystroke_Key.space	Key.space	n/a
135.686	0.09	271372	keystroke_m	m	n/a
135.746	0.075	271492	keystroke_a	a	n/a
135.881	0.045	271762	keystroke_t	t	n/a
136.076	0.06	272152	keystroke_c	c	n/a
136.137	0.089	272274	keystroke_h	h	n/a
136.241	0.045	272482	keystroke_e	e	n/a
136.391	0.06	272782	keystroke_s	s	n/a
136.481	0.09	272962	keystroke_Key.space	Key.space	n/a
136.691	0.09	273382	keystroke_r	r	n/a
136.796	0.09	273592	keystroke_e	e	n/a
136.946	0.075	273892	keystroke_l	l	n/a
137.291	0.075	274582	keystroke_e	e	n/a
137.471	0.075	274942	keystroke_v	v	n/a
137.516	0.09	275032	keystroke_e	e	n/a
138.1465	0.0895	276293	keystroke_Key.backspace	Key.backspace	n/a
138.221	0.091	276442	keystroke_a	a	n/a
138.401	0.09	276802	keystroke_n	n	n/a
138.461	0.12	276922	keystroke_c	c	n/a
138.566	0.09	277132	keystroke_e	e	n/a
138.776	0.09	277552	keystroke_Key.enter	Key.enter	n/a
138.873	6.805	277746	prompt	n/a	pittsburgh stranger affected locator\n
139.436	0.135	278872	keystroke_p	p	n/a
139.601	0.09	279202	keystroke_i	i	n/a
139.751	0.075	279502	keystroke_t	t	n/a
139.916	0.06	279832	keystroke_t	t	n/a
140.066	0.105	280132	keystroke_s	s	n/a
140.441	0.105	280882	keystroke_b	b	n/a
140.696	0.075	281392	keystroke_r	r	n/a
140.966	0.09	281932	keystroke_Key.backspace	Key.backspace	n/a
141.072	0.134	282144	keystroke_u	u	n/a
141.221	0.105	282442	keystroke_r	r	n/a
141.536	0.09	283072	keystroke_g	g	n/a
141.641	0.1205	283282	keystroke_h	h	n/a
141.8065	0.105	283613	keystroke_Key.space	Key.space	n/a
142.0315	0.105	284063	keystroke_s	s	n/a
142.1515	0.075	284303	keystroke_t	t	n/a
142.3315	0.075	284663	keystroke_r	r	n/a
142.4515	0.09	284903	keystroke_a	a	n/a
142.5865	0.105	285173	keystroke_n	n	n/a
142.6765	0.06	285353	keystroke_g	g	n/a
142.7815	0.105	285563	keystroke_e	e	n/a
142.8565	0.09	285713	keystroke_r	r	n/a
142.9615	0.09	285923	keystroke_Key.space	Key.space	n/a
143.3965	0.075	286793	keystroke_a	a	n/a
143.5465	0.06	287093	keystroke_f	f	n/a
143.6965	0.09	287393	keystroke_f	f	n/a
143.8465	0.12	287693	keystroke_e	e	n/a
143.9365	0.075	287873	keystroke_c	c	n/a
144.1165	0.06	288233	keystroke_t	t	n/a
144.2665	0.12	288533	keystroke_e	e	n/a
144.3265	0.105	288653	keystroke_d	d	n/a
144.4165	0.075	288833	keystroke_Key.space	Key.space	n/a
144.5965	0.06	289193	keystroke_l	l	n/a
144.7615	0.075	289523	keystroke_o	o	n/a
144.8215	0.09	289643	keystroke_c	c	n/a
144.9565	0.075	289913	keystroke_a	a	n/a
145.0915	0.075	290183	keystroke_t	t	n/a
145.3315	0.09	290663	keystroke_o	o	n/a
145.4365	0.075	290873	keystroke_r	r	n/a
145.5865	0.09	291173	keystroke_Key.enter	Key.enter	n/a
145.682	6.582	291364	prompt	n/a	laura we'd scope sensitive\n
146.1865	0.105	292373	keystroke_l	l	n/a
146.2765	0.105	292553	keystroke_a	a	n/a
146.4565	0.074	292913	keystroke_u	u	n/a
146.5465	0.09	293093	keystroke_r	r	n/a
146.6665	0.089	293333	keystroke_a	a	n/a
146.8305	0.106	293661	keystroke_Key.space	Key.space	n/a
147.1315	0.074	294263	keystroke_w	w	n/a
147.3265	0.09	294653	keystroke_e	e	n/a
148.0305	0.076	296061	keystroke_'	'	n/a
148.1215	0.104	296243	keystroke_d	d	n/a
148.2715	0.119	296543	keystroke_Key.space	Key.space	n/a
148.6615	0.075	297323	keystroke_s	s	n/a
148.7505	0.091	297501	keystroke_c	c	n/a
148.8265	0.119	297653	keystroke_o	o	n/a
148.8865	0.105	297773	keystroke_p	p	n/a
149.0215	0.075	298043	keystroke_e	e	n/a
149.3205	0.105	298641	keystroke_Key.space	Key.space	n/a
149.6665	0.075	299333	keystroke_s	s	n/a
149.8315	0.06	299663	keystroke_e	e	n/a
149.9065	0.105	299813	keystroke_n	n	n/a
150.3405	0.06	300681	keystroke_s	s	n/a
151.0165	0.12	302033	keystroke_i	i	n/a
151.1955	0.091	302391	keystroke_t	t	n/a
151.3015	0.09	302603	keystroke_i	i	n/a
151.4215	0.09	302843	keystroke_v	v	n/a
151.5255	0.106	303051	keystroke_e	e	n/a
152.1865	0.074	304373	keystroke_Key.enter	Key.enter	n/a
152.269	8.184	304538	prompt	n/a	hewlett clubs phillips policy\n
152.9815	0.119	305963	keystroke_h	h	n/a
153.0865	0.09	306173	keystroke_e	e	n/a
153.4765	0.09	306953	keystroke_w	w	n/a
153.6715	0.075	307343	keystroke_l	l	n/a
153.8065	0.09	307613	keystroke_e	e	n/a
153.9715	0.075	307943	keystroke_t	t	n/a
154.1215	0.075	308243	keystroke_t	t	n/a
154.2415	0.089	308483	keystroke_Key.space	Key.space	n/a
154.7665	0.105	309533	keystroke_c	c	n/a
154.8865	0.105	309773	keystroke_l	l	n/a
154.9165	0.12	309833	keystroke_u	u	n/a
155.5165	0.075	311033	keystroke_b	b	n/a
155.7115	0.09	311423	keystroke_s	s	n/a
155.8305	0.06	311661	keystroke_Key.space	Key.space	n/a
156.3115	0.135	312623	keystroke_p	p	n/a
156.4765	0.075	312953	keystroke_u	u	n/a
156.7755	0.091	313551	keystroke_Key.backspace	Key.backspace	n/a
156.8505	0.091	313701	keystroke_g	g	n/a
157.0165	0.09	314033	keystroke_i	i	n/a
157.4505	0.075	314901	keystroke_Key.backspace	Key.backspace	n/a
157.6005	0.09	315201	keystroke_Key.backspace	Key.backspace	n/a
157.7065	0.089	315413	keystroke_h	h	n/a
158.0065	0.12	316013	keystroke_i	i	n/a
158.1565	0.074	316313	keystroke_l	l	n/a
158.3365	0.09	316673	keystroke_l	l	n/a
158.5005	0.136	317001	keystroke_i	i	n/a
158.6065	0.09	317213	keystroke_p	p	n/a
158.7265	0.105	317453	keystroke_s	s	n/a
158.9205	0.076	317841	keystroke_Key.space	Key.space	n/a
159.3555	0.181	318711	keystroke_p	p	n/a
159.5215	0.09	319043	keystroke_o	o	n/a
159.6865	0.075	319373	keystroke_l	l	n/a
159.8815	0.074	319763	keystroke_i	i	n/a
159.9865	0.105	319973	keystroke_c	c	n/a
160.1365	0.06	320273	keystroke_y	y	n/a
160.3615	0.089	320723	keystroke_Key.enter	Key.enter	n/a
160.4585	8.6055	320917	prompt	n/a	telecommunications quickly blues lotus\n
161.0815	0.12	322163	keystroke_t	t	n/a
161.2015	0.105	322403	keystroke_e	e	n/a
161.3065	0.105	322613	keystroke_l	l	n/a
161.4715	0.059	322943	keystroke_e	e	n/a
161.7265	0.09	323453	keystroke_c	c	n/a
161.8015	0.105	323603	keystroke_o	o	n/a
161.8615	0.075	323723	keystroke_m	m	n/a
162.011	0.09	324022	keystroke_m	m	n/a
162.221	0.09	324442	keystroke_u	u	n/a
162.296	0.12	324592	keystroke_n	n	n/a
162.671	0.09	325342	keystroke_c	c	n/a
163.016	0.105	326032	keystroke_Key.backspace	Key.backspace	n/a
163.076	0.12	326152	keystroke_i	i	n/a
163.181	0.09	326362	keystroke_c	c	n/a
163.346	0.075	326692	keystroke_a	a	n/a
163.481	0.06	326962	keystroke_t	t	n/a
163.526	0.105	327052	keystroke_i	i	n/a
163.676	0.09	327352	keystroke_o	o	n/a
163.706	0.09	327412	keystroke_n	n	n/a
163.826	0.06	327652	keystroke_s	s	n/a
163.976	0.09	327952	keystroke_Key.space	Key.space	n/a
164.381	0.09	328762	keystroke_u	u	n/a
164.681	0.075	329362	keystroke_Key.backspace	Key.backspace	n/a
164.786	0.12	329572	keystroke_u	u	n/a
164.801	0.09	329602	keystroke_q	q	n/a
165.071	0.075	330142	keystroke_i	i	n/a
165.311	0.06	330622	keystroke_Key.backspace	Key.backspace	n/a
165.491	0.075	330982	keystroke_Key.backspace	Key.backspace	n/a
165.671	0.075	331342	keystroke_Key.backspace	Key.backspace	n/a
165.836	0.09	331672	keystroke_q	q	n/a
165.911	0.105	331822	keystroke_u	u	n/a
166.106	0.0905	332212	keystroke_i	i	n/a
166.2265	0.09	332453	keystroke_c	c	n/a
166.3015	0.105	332603	keystroke_k	k	n/a
166.4515	0.075	332903	keystroke_l	l	n/a
166.5565	0.09	333113	keystroke_y	y	n/a
166.8415	0.09	333683	keystroke_Key.space	Key.space	n/a
167.4565	0.045	334913	keystroke_b	b	n/a
167.5015	0.135	335003	keystroke_l	l	n/a
167.5465	0.105	335093	keystroke_u	u	n/a
167.6525	0.074	335305	keystroke_e	e	n/a
167.8315	0.075	335663	keystroke_s	s	n/a
167.9365	0.105	335873	keystroke_Key.space	Key.space	n/a
168.1765	0.09	336353	keystroke_l	l	n/a
168.3865	0.105	336773	keystroke_o	o	n/a
168.5665	0.075	337133	keystroke_t	t	n/a
168.6715	0.105	337343	keystroke_u	u	n/a
168.7915	0.09	337583	keystroke_s	s	n/a
168.9565	0.105	337913	keystroke_Key.enter	Key.enter	n/a
169.069	5.019	338138	prompt	n/a	election polar ranks valves\n
169.6915	0.09	339383	keystroke_e	e	n/a
169.7965	0.09	339593	keystroke_l	l	n/a
169.8875	0.089	339775	keystroke_e	e	n/a
169.9915	0.09	339983	keystroke_c	c	n/a
170.2015	0.06	340403	keystroke_t	t	n/a
170.2915	0.09	340583	keystroke_i	i	n/a
170.3965	0.135	340793	keystroke_o	o	n/a
170.4865	0.105	340973	keystroke_n	n	n/a
170.6205	0.106	341241	keystroke_Key.space	Key.space	n/a
170.8015	0.135	341603	keystroke_p	p	n/a
170.9065	0.09	341813	keystroke_o	o	n/a
171.2965	0.12	342593	keystroke_l	l	n/a
171.4465	0.12	342893	keystroke_a	a	n/a
171.5515	0.105	343103	keystroke_r	r	n/a
171.6415	0.105	343283	keystroke_Key.space	Key.space	n/a
171.8515	0.075	343703	keystroke_r	r	n/a
171.9715	0.105	343943	keystroke_a	a	n/a
172.0465	0.1345	344093	keystroke_n	n	n/a
172.1065	0.1205	344213	keystroke_k	k	n/a
172.332	0.075	344664	keystroke_s	s	n/a
172.481	0.106	344962	keystroke_Key.space	Key.space	n/a
172.887	0.089	345774	keystroke_v	v	n/a
173.127	0.06	346254	keystroke_a	a	n/a
173.412	0.075	346824	keystroke_l	l	n/a
173.501	0.091	347002	keystroke_v	v	n/a
173.622	0.09	347244	keystroke_e	e	n/a
173.832	0.075	347664	keystroke_s	s	n/a
173.967	0.119	347934	keystroke_Key.enter	Key.enter	n/a
174.093	6.6405	348186	prompt	n/a	trek safety inquiry viewing\n
174.5965	0.075	349193	keystroke_t	t	n/a
174.7765	0.09	349553	keystroke_r	r	n/a
174.8815	0.105	349763	keystroke_e	e	n/a
175.0465	0.12	350093	keystroke_k	k	n/a
175.3165	0.12	350633	keystroke_Key.space	Key.space	n/a
175.4815	0.09	350963	keystroke_s	s	n/a
175.6615	0.06	351323	keystroke_a	a	n/a
175.8115	0.1055	351623	keystroke_f	f	n/a
175.9015	0.075	351803	keystroke_e	e	n/a
176.1565	0.105	352313	keystroke_t	t	n/a
176.3965	0.06	352793	keystroke_y	y	n/a
176.5015	0.104	353003	keystroke_Key.space	Key.space	n/a
176.9965	0.09	353993	keystroke_n	n	n/a
177.3715	0.105	354743	keystroke_Key.backspace	Key.backspace	n/a
177.5965	0.15	355193	keystroke_i	i	n/a
177.6865	0.075	355373	keystroke_n	n	n/a
178.7515	0.105	357503	keystroke_q	q	n/a
178.8715	0.075	357743	keystroke_u	u	n/a
178.9015	0.09	357803	keystroke_i	i	n/a
179.0965	0.09	358193	keystroke_r	r	n/a
179.201	0.106	358402	keystroke_y	y	n/a
179.4565	0.105	358913	keystroke_Key.space	Key.space	n/a
179.7865	0.075	359573	keystroke_v	v	n/a
179.9225	0.1035	359845	keystroke_i	i	n/a
179.996	0.09	359992	keystroke_e	e	n/a
180.2215	0.0905	360443	keystroke_w	w	n/a
180.3425	0.104	360685	keystroke_i	i	n/a
180.4015	0.1045	360803	keystroke_n	n	n/a
180.521	0.075	361042	keystroke_g	g	n/a
180.6415	0.0895	361283	keystroke_Key.enter	Key.enter	n/a
180.7375	11.1425	361475	prompt	n/a	suitable prefer flows charleston\n
181.226	0.075	362452	keystroke_s	s	n/a
181.511	0.105	363022	keystroke_u	u	n/a
181.766	0.1055	363532	keystroke_i	i	n/a
181.887	0.059	363774	keystroke_t	t	n/a
182.156	0.06	364312	keystroke_a	a	n/a
182.231	0.09	364462	keystroke_b	b	n/a
182.336	0.106	364672	keystroke_l	l	n/a
182.471	0.075	364942	keystroke_e	e	n/a
182.576	0.105	365152	keystroke_Key.space	Key.space	n/a
182.786	0.105	365572	keystroke_p	p	n/a
182.936	0.075	365872	keystroke_r	r	n/a
183.146	0.105	366292	keystroke_f	f	n/a
183.296	0.105	366592	keystroke_e	e	n/a
183.387	0.119	366774	keystroke_r	r	n/a
183.8215	0.0895	367643	keystroke_Key.space	Key.space	n/a
184.241	0.075	368482	keystroke_Key.backspace	Key.backspace	n/a
184.406	0.075	368812	keystroke_Key.backspace	Key.backspace	n/a
184.571	0.06	369142	keystroke_Key.backspace	Key.backspace	n/a
184.736	0.06	369472	keystroke_e	e	n/a
185.051	0.045	370102	keystroke_Key.backspace	Key.backspace	n/a
185.186	0.075	370372	keystroke_Key.backspace	Key.backspace	n/a
185.306	0.075	370612	keystroke_e	e	n/a
185.441	0.105	370882	keystroke_f	f	n/a
185.576	0.09	371152	keystroke_e	e	n/a
185.651	0.0905	371302	keystroke_r	r	n/a
185.801	0.09	371602	keystroke_Key.space	Key.space	n/a
186.266	0.09	372532	keystroke_f	f	n/a
186.341	0.06	372682	keystroke_l	l	n/a
186.491	0.105	372982	keystroke_o	o	n/a
186.566	0.075	373132	keystroke_w	w	n/a
186.746	0.09	373492	keystroke_s	s	n/a
186.851	0.09	373702	keystroke_Key.space	Key.space	n/a
187.061	0.076	374122	keystroke_c	c	n/a
187.151	0.09	374302	keystroke_h	h	n/a
187.286	0.09	374572	keystroke_a	a	n/a
187.407	0.059	374814	keystroke_r	r	n/a
187.571	0.061	375142	keystroke_e	e	n/a
188.066	0.075	376132	keystroke_Key.backspace	Key.backspace	n/a
188.276	0.105	376552	keystroke_l	l	n/a
188.366	0.045	376732	keystroke_e	e	n/a
188.516	0.09	377032	keystroke_s	s	n/a
188.712	0.089	377424	keystroke_s	s	n/a
188.816	0.075	377632	keystroke_t	t	n/a
188.876	0.105	377752	keystroke_o	o	n/a
188.907	0.119	377814	keystroke_n	n	n/a
189.521	0.015	379042	keystroke_=	=	n/a
190.106	0.075	380212	keystroke_Key.backspace	Key.backspace	n/a
190.271	0.06	380542	keystroke_Key.backspace	Key.backspace	n/a
190.436	0.075	380872	keystroke_Key.backspace	Key.backspace	n/a
190.676	0.105	381352	keystroke_Key.backspace	Key.backspace	n/a
191.051	0.03	382102	keystroke_Key.backspace	Key.backspace	n/a
191.291	0.075	382582	keystroke_t	t	n/a
191.351	0.196	382702	keystroke_o	o	n/a
191.501	0.106	383002	keystroke_n	n	n/a
191.801	0.075	383602	keystroke_Key.enter	Key.enter	n/a
191.885	7.2085	383770	prompt	n/a	untitled picked walks explaining\n
192.447	0.104	384894	keystroke_u	u	n/a
192.657	0.089	385314	keystroke_n	n	n/a
192.807	0.059	385614	keystroke_t	t	n/a
192.896	0.105	385792	keystroke_i	i	n/a
193.032	0.059	386064	keystroke_t	t	n/a
193.632	0.105	387264	keystroke_l	l	n/a
193.871	0.121	387742	keystroke_e	e	n/a
193.962	0.104	387924	keystroke_d	d	n/a
194.096	0.105	388192	keystroke_Key.space	Key.space	n/a
194.382	0.15	388764	keystroke_p	p	n/a
194.487	0.105	388974	keystroke_i	i	n/a
194.577	0.12	389154	keystroke_c	c	n/a
194.712	0.12	389424	keystroke_k	k	n/a
194.817	0.09	389634	keystroke_e	e	n/a
194.847	0.105	389694	keystroke_d	d	n/a
195.057	0.089	390114	keystroke_Key.space	Key.space	n/a
195.402	0.09	390804	keystroke_w	w	n/a
195.582	0.105	391164	keystroke_a	a	n/a
195.672	0.105	391344	keystroke_l	l	n/a
195.717	0.105	391434	keystroke_k	k	n/a
195.792	0.09	391584	keystroke_s	s	n/a
195.972	0.09	391944	keystroke_Key.space	Key.space	n/a
196.3165	0.075	392633	keystroke_e	e	n/a
196.5115	0.105	393023	keystroke_x	x	n/a
196.6015	0.075	393203	keystroke_p	p	n/a
196.6315	0.09	393263	keystroke_l	l	n/a
196.7975	0.06	393595	keystroke_a	a	n/a
197.2015	0.12	394403	keystroke_i	i	n/a
197.2915	0.09	394583	keystroke_n	n	n/a
197.5015	0.061	395003	keystroke_g	g	n/a
197.5765	0.12	395153	keystroke_i	i	n/a
197.6515	0.105	395303	keystroke_n	n	n/a
198.0865	0.0605	396173	keystroke_Key.backspace	Key.backspace	n/a
198.222	0.09	396444	keystroke_Key.backspace	Key.backspace	n/a
198.372	0.09	396744	keystroke_Key.backspace	Key.backspace	n/a
198.642	0.135	397284	keystroke_i	i	n/a
198.717	0.105	397434	keystroke_n	n	n/a
198.837	0.09	397674	keystroke_g	g	n/a
199.017	0.075	398034	keystroke_Key.enter	Key.enter	n/a
199.099	8.9055	398198	prompt	n/a	diagnostic singapore index engagement\n
199.632	0.09	399264	keystroke_d	d	n/a
199.707	0.09	399414	keystroke_i	i	n/a
199.812	0.09	399624	keystroke_a	a	n/a
200.007	0.075	400014	keystroke_g	g	n/a
200.2915	0.091	400583	keystroke_n	n	n/a
200.3965	0.091	400793	keystroke_o	o	n/a
200.4715	0.061	400943	keystroke_s	s	n/a
200.5325	0.074	401065	keystroke_t	t	n/a
200.6215	0.075	401243	keystroke_i	i	n/a
200.7565	0.09	401513	keystroke_c	c	n/a
200.9365	0.105	401873	keystroke_Key.space	Key.space	n/a
201.2815	0.075	402563	keystroke_s	s	n/a
201.3415	0.091	402683	keystroke_i	i	n/a
201.6575	0.074	403315	keystroke_n	n	n/a
201.9415	0.061	403883	keystroke_g	g	n/a
202.3015	0.09	404603	keystroke_a	a	n/a
202.9625	0.239	405925	keystroke_p	p	n/a
203.0365	0.18	406073	keystroke_o	o	n/a
203.2315	0.015	406463	keystroke_r	r	n/a
203.5015	0.09	407003	keystroke_e	e	n/a
203.6515	0.09	407303	keystroke_Key.space	Key.space	n/a
204.0575	0.1195	408115	keystroke_i	i	n/a
204.1465	0.0905	408293	keystroke_n	n	n/a
204.282	0.12	408564	keystroke_d	d	n/a
204.387	0.104	408774	keystroke_e	e	n/a
204.612	0.105	409224	keystroke_x	x	n/a
204.732	0.09	409464	keystroke_Key.space	Key.space	n/a
205.167	0.09	410334	keystroke_d	d	n/a
205.482	0.105	410964	keystroke_Key.backspace	Key.backspace	n/a
205.572	0.075	411144	keystroke_e	e	n/a
205.707	0.09	411414	keystroke_n	n	n/a
206.187	0.09	412374	keystroke_g	g	n/a
206.412	0.06	412824	keystroke_a	a	n/a
206.562	0.075	413124	keystroke_g	g	n/a
207.087	0.075	414174	keystroke_e	e	n/a
207.192	0.105	414384	keystroke_m	m	n/a
207.567	0.09	415134	keystroke_e	e	n/a
207.672	0.09	415344	keystroke_n	n	n/a
207.777	0.06	415554	keystroke_t	t	n/a
207.912	0.09	415824	keystroke_Key.enter	Key.enter	n/a
208.0105	6.233	416021	prompt	n/a	princess cleveland gotta evidence\n
208.5865	0.12	417173	keystroke_p	p	n/a
208.8115	0.06	417623	keystroke_r	r	n/a
208.9615	0.12	417923	keystroke_i	i	n/a
209.0365	0.105	418073	keystroke_n	n	n/a
209.1115	0.12	418223	keystroke_c	c	n/a
209.5915	0.06	419183	keystroke_e	e	n/a
209.7715	0.06	419543	keystroke_s	s	n/a
209.8915	0.075	419783	keystroke_s	s	n/a
209.9965	0.09	419993	keystroke_Key.space	Key.space	n/a
210.2665	0.076	420533	keystroke_c	c	n/a
210.3565	0.09	420713	keystroke_l	l	n/a
210.4165	0.09	420833	keystroke_e	e	n/a
210.5965	0.075	421193	keystroke_v	v	n/a
210.6725	0.089	421345	keystroke_e	e	n/a
210.8375	0.104	421675	keystroke_l	l	n/a
211.0015	0.075	422003	keystroke_a	a	n/a
211.1065	0.09	422213	keystroke_n	n	n/a
211.1815	0.06	422363	keystroke_d	d	n/a
211.2865	0.075	422573	keystroke_Key.space	Key.space	n/a
211.4665	0.045	422933	keystroke_g	g	n/a
211.5415	0.09	423083	keystroke_o	o	n/a
211.6465	0.045	423293	keystroke_t	t	n/a
211.7665	0.075	423533	keystroke_t	t	n/a
211.9015	0.105	423803	keystroke_a	a	n/a
212.0515	0.106	424103	keystroke_Key.space	Key.space	n/a
212.3515	0.075	424703	keystroke_e	e	n/a
212.5765	0.12	425153	keystroke_v	v	n/a
212.7575	0.089	425515	keystroke_i	i	n/a
213.5515	0.075	427103	keystroke_d	d	n/a
213.6565	0.09	427313	keystroke_e	e	n/a
213.7765	0.105	427553	keystroke_n	n	n/a
213.8965	0.075	427793	keystroke_c	c	n/a
213.9415	0.09	427883	keystroke_e	e	n/a
214.1515	0.09	428303	keystroke_Key.enter	Key.enter	n/a
214.2475	8.382	428495	prompt	n/a	ministries discrimination flexible scholar\n
214.8415	0.105	429683	keystroke_m	m	n/a
215.0065	0.136	430013	keystroke_i	i	n/a
215.0815	0.12	430163	keystroke_n	n	n/a
215.6375	0.074	431275	keystroke_i	i	n/a
215.7565	0.075	431513	keystroke_s	s	n/a
215.8915	0.061	431783	keystroke_t	t	n/a
216.0565	0.09	432113	keystroke_r	r	n/a
216.1765	0.09	432353	keystroke_i	i	n/a
216.2815	0.09	432563	keystroke_e	e	n/a
216.4765	0.075	432953	keystroke_s	s	n/a
216.5525	0.089	433105	keystroke_Key.space	Key.space	n/a
216.7615	0.075	433523	keystroke_d	d	n/a
216.8525	0.104	433705	keystroke_i	i	n/a
216.9715	0.075	433943	keystroke_s	s	n/a
217.1515	0.06	434303	keystroke_c	c	n/a
217.3325	0.074	434665	keystroke_r	r	n/a
217.4225	0.104	434845	keystroke_i	i	n/a
217.4665	0.135	434933	keystroke_m	m	n/a
218.0665	0.105	436133	keystroke_i	i	n/a
218.1265	0.09	436253	keystroke_n	n	n/a
218.1865	0.075	436373	keystroke_a	a	n/a
218.3365	0.076	436673	keystroke_t	t	n/a
218.4125	0.12	436825	keystroke_i	i	n/a
218.5625	0.104	437125	keystroke_o	o	n/a
218.6215	0.12	437243	keystroke_n	n	n/a
218.7575	0.119	437515	keystroke_Key.space	Key.space	n/a
219.2815	0.09	438563	keystroke_f	f	n/a
219.6415	0.075	439283	keystroke_e	e	n/a
219.9715	0.06	439943	keystroke_Key.backspace	Key.backspace	n/a
220.2415	0.105	440483	keystroke_l	l	n/a
220.3765	0.09	440753	keystroke_e	e	n/a
220.6015	0.121	441203	keystroke_x	x	n/a
220.7365	0.075	441473	keystroke_i	i	n/a
220.9915	0.091	441983	keystroke_b	b	n/a
221.1415	0.075	442283	keystroke_l	l	n/a
221.2315	0.06	442463	keystroke_e	e	n/a
221.3665	0.075	442733	keystroke_Key.space	Key.space	n/a
221.5465	0.09	443093	keystroke_s	s	n/a
221.6965	0.09	443393	keystroke_c	c	n/a
221.7715	0.091	443543	keystroke_h	h	n/a
221.8465	0.09	443693	keystroke_o	o	n/a
222.0265	0.106	444053	keystroke_l	l	n/a
222.311	0.09	444622	keystroke_a	a	n/a
222.386	0.076	444772	keystroke_r	r	n/a
222.536	0.09	445072	keystroke_Key.enter	Key.enter	n/a
222.635	5.6935	445270	prompt	n/a	gold shapes hardwood socks\n
223.211	0.09	446422	keystroke_g	g	n/a
223.256	0.09	446512	keystroke_o	o	n/a
223.436	0.09	446872	keystroke_l	l	n/a
223.542	0.09	447084	keystroke_d	d	n/a
223.661	0.09	447322	keystroke_Key.space	Key.space	n/a
223.797	0.104	447594	keystroke_s	s	n/a
223.917	0.074	447834	keystroke_h	h	n/a
224.097	0.075	448194	keystroke_a	a	n/a
224.336	0.076	448672	keystroke_r	r	n/a
224.457	0.105	448914	keystroke_p	p	n/a
224.787	0.045	449574	keystroke_Key.backspace	Key.backspace	n/a
224.921	0.06	449842	keystroke_Key.backspace	Key.backspace	n/a
225.117	0.075	450234	keystroke_p	p	n/a
225.207	0.06	450414	keystroke_e	e	n/a
225.387	0.075	450774	keystroke_s	s	n/a
225.462	0.089	450924	keystroke_Key.space	Key.space	n/a
225.866	0.091	451732	keystroke_h	h	n/a
226.047	0.074	452094	keystroke_a	a	n/a
226.181	0.075	452362	keystroke_r	r	n/a
226.346	0.075	452692	keystroke_d	d	n/a
226.586	0.09	453172	keystroke_w	w	n/a
226.706	0.075	453412	keystroke_o	o	n/a
226.826	0.106	453652	keystroke_o	o	n/a
226.946	0.076	453892	keystroke_d	d	n/a
227.081	0.09	454162	keystroke_Key.space	Key.space	n/a
227.351	0.09	454702	keystroke_s	s	n/a
227.622	0.104	455244	keystroke_o	o	n/a
227.712	0.075	455424	keystroke_c	c	n/a
227.966	0.09	455932	keystroke_k	k	n/a
228.072	0.0895	456144	keystroke_s	s	n/a
228.2215	0.105	456443	keystroke_Key.enter	Key.enter	n/a
228.333	6.086	456666	prompt	n/a	join merge authentic singh\n
228.9715	0.12	457943	keystroke_j	j	n/a
229.1065	0.12	458213	keystroke_o	o	n/a
229.1665	0.12	458333	keystroke_i	i	n/a
229.4215	0.091	458843	keystroke_n	n	n/a
229.5265	0.12	459053	keystroke_Key.space	Key.space	n/a
229.6475	0.104	459295	keystroke_m	m	n/a
229.7525	0.074	459505	keystroke_e	e	n/a
229.8115	0.075	459623	keystroke_r	r	n/a
229.9915	0.075	459983	keystroke_g	g	n/a
230.0515	0.075	460103	keystroke_e	e	n/a
230.1865	0.09	460373	keystroke_Key.space	Key.space	n/a
230.5165	0.09	461033	keystroke_a	a	n/a
230.6075	0.104	461215	keystroke_u	u	n/a
230.7415	0.06	461483	keystroke_t	t	n/a
230.8315	0.105	461663	keystroke_h	h	n/a
231.1015	0.09	462203	keystroke_e	e	n/a
231.2215	0.045	462443	keystroke_t	t	n/a
232.1215	0.0745	464243	keystroke_Key.backspace	Key.backspace	n/a
232.362	0.09	464724	keystroke_n	n	n/a
232.767	0.09	465534	keystroke_t	t	n/a
232.947	0.105	465894	keystroke_i	i	n/a
233.066	0.091	466132	keystroke_c	c	n/a
233.246	0.075	466492	keystroke_Key.space	Key.space	n/a
233.427	0.075	466854	keystroke_s	s	n/a
233.487	0.09	466974	keystroke_i	i	n/a
233.667	0.075	467334	keystroke_n	n	n/a
233.802	0.075	467604	keystroke_g	g	n/a
233.937	0.075	467874	keystroke_h	h	n/a
234.3115	0.105	468623	keystroke_Key.enter	Key.enter	n/a
234.4245	6.954	468849	prompt	n/a	bald tribunal infectious compressed\n
235.1515	0.06	470303	keystroke_b	b	n/a
235.3765	0.075	470753	keystroke_a	a	n/a
235.4665	0.09	470933	keystroke_l	l	n/a
235.5865	0.075	471173	keystroke_d	d	n/a
235.7515	0.09	471503	keystroke_Key.space	Key.space	n/a
235.9465	0.06	471893	keystroke_t	t	n/a
236.1115	0.075	472223	keystroke_r	r	n/a
236.2015	0.105	472403	keystroke_i	i	n/a
236.2765	0.105	472553	keystroke_b	b	n/a
236.6065	0.075	473213	keystroke_u	u	n/a
236.8015	0.105	473603	keystroke_n	n	n/a
236.8915	0.09	473783	keystroke_a	a	n/a
236.9965	0.09	473993	keystroke_l	l	n/a
237.1465	0.105	474293	keystroke_Key.space	Key.space	n/a
237.9565	0.12	475913	keystroke_i	i	n/a
238.0165	0.12	476033	keystroke_n	n	n/a
238.2565	0.075	476513	keystroke_f	f	n/a
238.3465	0.09	476693	keystroke_e	e	n/a
238.4665	0.075	476933	keystroke_c	c	n/a
238.6465	0.06	477293	keystroke_t	t	n/a
238.7215	0.09	477443	keystroke_i	i	n/a
238.7965	0.165	477593	keystroke_o	o	n/a
238.9015	0.09	477803	keystroke_u	u	n/a
238.9765	0.09	477953	keystroke_s	s	n/a
239.2015	0.09	478403	keystroke_Key.space	Key.space	n/a
239.3815	0.09	478763	keystroke_c	c	n/a
239.5165	0.12	479033	keystroke_m	m	n/a
239.9365	0.06	479873	keystroke_Key.backspace	Key.backspace	n/a
240.1165	0.12	480233	keystroke_o	o	n/a
240.1915	0.075	480383	keystroke_m	m	n/a
240.3565	0.12	480713	keystroke_p	p	n/a
240.4615	0.09	480923	keystroke_r	r	n/a
240.5365	0.105	481073	keystroke_e	e	n/a
240.6865	0.075	481373	keystroke_s	s	n/a
240.8215	0.075	481643	keystroke_s	s	n/a
241.0015	0.075	482003	keystroke_e	e	n/a
241.0315	0.105	482063	keystroke_d	d	n/a
241.2865	0.09	482573	keystroke_Key.enter	Key.enter	n/a
241.384	8.0955	482768	prompt	n/a	term souls render confidentiality\n
241.9015	0.06	483803	keystroke_t	t	n/a
241.9915	0.105	483983	keystroke_e	e	n/a
242.0975	0.059	484195	keystroke_r	r	n/a
242.1715	0.09	484343	keystroke_m	m	n/a
242.3815	0.12	484763	keystroke_Key.space	Key.space	n/a
242.6965	0.075	485393	keystroke_s	s	n/a
242.7115	0.135	485423	keystroke_o	o	n/a
242.7565	0.15	485513	keystroke_u	u	n/a
242.9515	0.075	485903	keystroke_l	l	n/a
243.0715	0.09	486143	keystroke_s	s	n/a
243.3865	0.09	486773	keystroke_Key.space	Key.space	n/a
243.7465	0.075	487493	keystroke_r	r	n/a
243.8515	0.075	487703	keystroke_e	e	n/a
243.9715	0.105	487943	keystroke_n	n	n/a
244.0465	0.09	488093	keystroke_d	d	n/a
244.1665	0.12	488333	keystroke_e	e	n/a
244.2415	0.075	488483	keystroke_r	r	n/a
244.3315	0.09	488663	keystroke_Key.space	Key.space	n/a
244.6315	0.075	489263	keystroke_c	c	n/a
244.6765	0.105	489353	keystroke_o	o	n/a
244.7365	0.105	489473	keystroke_n	n	n/a
244.9015	0.09	489803	keystroke_f	f	n/a
245.0365	0.135	490073	keystroke_i	i	n/a
245.4265	0.09	490853	keystroke_e	e	n/a
245.6365	0.105	491273	keystroke_n	n	n/a
245.8465	0.045	491693	keystroke_d	d	n/a
246.1465	0.09	492293	keystroke_Key.backspace	Key.backspace	n/a
246.4165	0.045	492833	keystroke_Key.backspace	Key.backspace	n/a
246.7765	0.075	493553	keystroke_Key.backspace	Key.backspace	n/a
246.9115	0.075	493823	keystroke_d	d	n/a
247.2265	0.075	494453	keystroke_e	e	n/a
247.3165	0.105	494633	keystroke_n	n	n/a
247.4665	0.075	494933	keystroke_t	t	n/a
247.6465	0.075	495293	keystroke_i	i	n/a
247.7965	0.105	495593	keystroke_a	a	n/a
247.8715	0.075	495743	keystroke_l	l	n/a
248.0365	0.06	496073	keystroke_l	l	n/a
248.4265	0.105	496853	keystroke_Key.backspace	Key.backspace	n/a
248.7415	0.105	497483	keystroke_i	i	n/a
248.8765	0.075	497753	keystroke_t	t	n/a
249.0415	0.03	498083	keystroke_y	y	n/a
249.4015	0.075	498803	keystroke_Key.enter	Key.enter	n/a
249.4845	6.924	498969	prompt	n/a	bloomberg it circumstances dylan\n
250.1065	0.105	500213	keystroke_b	b	n/a
250.5115	0.06	501023	keystroke_l	l	n/a
250.6615	0.075	501323	keystroke_o	o	n/a
250.7815	0.15	501563	keystroke_o	o	n/a
251.1115	0.106	502223	keystroke_m	m	n/a
251.3515	0.105	502703	keystroke_b	b	n/a
251.4715	0.09	502943	keystroke_e	e	n/a
251.5465	0.075	503093	keystroke_r	r	n/a
251.7415	0.075	503483	keystroke_g	g	n/a
251.8465	0.105	503693	keystroke_Key.space	Key.space	n/a
252.0565	0.105	504113	keystroke_i	i	n/a
252.2065	0.06	504413	keystroke_t	t	n/a
252.2965	0.09	504593	keystroke_Key.space	Key.space	n/a
252.4915	0.09	504983	keystroke_c	c	n/a
252.6265	0.12	505253	keystroke_i	i	n/a
253.3165	0.06	506633	keystroke_r	r	n/a
253.5115	0.09	507023	keystroke_c	c	n/a
253.6165	0.045	507233	keystroke_u	u	n/a
253.7965	0.075	507593	keystroke_m	m	n/a
254.157	0.105	508314	keystroke_s	s	n/a
254.247	0.06	508494	keystroke_t	t	n/a
254.366	0.076	508732	keystroke_a	a	n/a
254.471	0.106	508942	keystroke_n	n	n/a
254.547	0.09	509094	keystroke_c	c	n/a
254.607	0.075	509214	keystroke_e	e	n/a
254.786	0.105	509572	keystroke_s	s	n/a
254.906	0.076	509812	keystroke_Key.space	Key.space	n/a
255.192	0.089	510384	keystroke_d	d	n/a
255.372	0.105	510744	keystroke_y	y	n/a
255.897	0.09	511794	keystroke_l	l	n/a
256.002	0.075	512004	keystroke_a	a	n/a
256.107	0.0905	512214	keystroke_n	n	n/a
256.3165	0.09	512633	keystroke_Key.enter	Key.enter	n/a
256.414	5.9645	512828	prompt	n/a	entire customs acids recover\n
256.9325	0.089	513865	keystroke_e	e	n/a
257.0365	0.09	514073	keystroke_n	n	n/a
257.1575	0.074	514315	keystroke_t	t	n/a
257.2765	0.09	514553	keystroke_i	i	n/a
257.4265	0.09	514853	keystroke_r	r	n/a
257.5015	0.075	515003	keystroke_e	e	n/a
257.5915	0.105	515183	keystroke_Key.space	Key.space	n/a
257.8025	0.044	515605	keystroke_s	s	n/a
258.2965	0.076	516593	keystroke_c	c	n/a
258.5365	0.045	517073	keystroke_Key.backspace	Key.backspace	n/a
258.6715	0.075	517343	keystroke_Key.backspace	Key.backspace	n/a
258.7315	0.09	517463	keystroke_c	c	n/a
258.8075	0.12	517615	keystroke_u	u	n/a
258.9575	0.089	517915	keystroke_s	s	n/a
259.0615	0.075	518123	keystroke_t	t	n/a
259.1225	0.134	518245	keystroke_o	o	n/a
259.1825	0.134	518365	keystroke_m	m	n/a
259.3625	0.075	518725	keystroke_s	s	n/a
259.5115	0.105	519023	keystroke_Key.space	Key.space	n/a
259.8865	0.075	519773	keystroke_a	a	n/a
260.0975	0.075	520195	keystroke_c	c	n/a
260.187	0.1055	520374	keystroke_i	i	n/a
260.293	0.073	520586	keystroke_d	d	n/a
260.487	0.075	520974	keystroke_s	s	n/a
260.622	0.119	521244	keystroke_Key.space	Key.space	n/a
260.967	0.089	521934	keystroke_r	r	n/a
261.071	0.091	522142	keystroke_e	e	n/a
261.312	0.09	522624	keystroke_c	c	n/a
261.447	0.09	522894	keystroke_o	o	n/a
261.552	0.0605	523104	keystroke_v	v	n/a
261.672	0.09	523344	keystroke_e	e	n/a
261.746	0.075	523492	keystroke_r	r	n/a
262.286	0.091	524572	keystroke_Key.enter	Key.enter	n/a
262.3835	4.825	524767	prompt	n/a	diana nine water trustee\n
263.292	0.09	526584	keystroke_d	d	n/a
263.352	0.105	526704	keystroke_i	i	n/a
263.487	0.09	526974	keystroke_a	a	n/a
263.592	0.075	527184	keystroke_n	n	n/a
264.012	0.09	528024	keystroke_a	a	n/a
264.117	0.074	528234	keystroke_Key.space	Key.space	n/a
264.477	0.09	528954	keystroke_n	n	n/a
264.612	0.09	529224	keystroke_i	i	n/a
264.672	0.09	529344	keystroke_n	n	n/a
264.777	0.06	529554	keystroke_e	e	n/a
264.882	0.089	529764	keystroke_Key.space	Key.space	n/a
265.077	0.075	530154	keystroke_w	w	n/a
265.257	0.06	530514	keystroke_a	a	n/a
265.407	0.075	530814	keystroke_t	t	n/a
265.497	0.09	530994	keystroke_e	e	n/a
265.602	0.059	531204	keystroke_r	r	n/a
265.677	0.119	531354	keystroke_Key.space	Key.space	n/a
266.067	0.06	532134	keystroke_t	t	n/a
266.217	0.09	532434	keystroke_r	r	n/a
266.337	0.09	532674	keystroke_u	u	n/a
266.487	0.03	532974	keystroke_s	s	n/a
266.532	0.075	533064	keystroke_t	t	n/a
266.832	0.06	533664	keystroke_e	e	n/a
266.967	0.09	533934	keystroke_e	e	n/a
267.102	0.105	534204	keystroke_Key.enter	Key.enter	n/a
267.213	4.9155	534426	prompt	n/a	interracial was belle cause\n
267.747	0.15	535494	keystroke_i	i	n/a
267.852	0.12	535704	keystroke_n	n	n/a
268.107	0.03	536214	keystroke_t	t	n/a
268.197	0.09	536394	keystroke_e	e	n/a
268.272	0.075	536544	keystroke_r	r	n/a
268.452	0.075	536904	keystroke_r	r	n/a
268.737	0.12	537474	keystroke_a	a	n/a
268.947	0.09	537894	keystroke_c	c	n/a
269.052	0.12	538104	keystroke_i	i	n/a
269.187	0.09	538374	keystroke_a	a	n/a
269.291	0.106	538582	keystroke_l	l	n/a
269.472	0.135	538944	keystroke_Key.space	Key.space	n/a
269.877	0.075	539754	keystroke_w	w	n/a
270.027	0.105	540054	keystroke_a	a	n/a
270.087	0.105	540174	keystroke_s	s	n/a
270.177	0.09	540354	keystroke_Key.space	Key.space	n/a
270.372	0.09	540744	keystroke_b	b	n/a
270.447	0.075	540894	keystroke_e	e	n/a
270.627	0.06	541254	keystroke_l	l	n/a
270.762	0.09	541524	keystroke_l	l	n/a
270.837	0.09	541674	keystroke_e	e	n/a
271.002	0.105	542004	keystroke_Key.space	Key.space	n/a
271.452	0.075	542904	keystroke_c	c	n/a
271.587	0.06	543174	keystroke_a	a	n/a
271.677	0.105	543354	keystroke_u	u	n/a
271.767	0.075	543534	keystroke_s	s	n/a
271.932	0.06	543864	keystroke_e	e	n/a
272.007	0.12	544014	keystroke_Key.enter	Key.enter	n/a
272.1325	7.1665	544265	prompt	n/a	sections external smilies collect\n
272.622	0.075	545244	keystroke_s	s	n/a
272.787	0.09	545574	keystroke_e	e	n/a
272.862	0.09	545724	keystroke_c	c	n/a
273.057	0.06	546114	keystroke_t	t	n/a
273.102	0.09	546204	keystroke_i	i	n/a
273.207	0.15	546414	keystroke_o	o	n/a
273.282	0.09	546564	keystroke_n	n	n/a
273.387	0.075	546774	keystroke_s	s	n/a
273.507	0.075	547014	keystroke_Key.space	Key.space	n/a
273.807	0.09	547614	keystroke_e	e	n/a
274.032	0.075	548064	keystroke_x	x	n/a
274.182	0.09	548364	keystroke_t	t	n/a
274.332	0.12	548664	keystroke_e	e	n/a
274.677	0.09	549354	keystroke_r	r	n/a
274.812	0.105	549624	keystroke_n	n	n/a
274.947	0.09	549894	keystroke_a	a	n/a
275.052	0.105	550104	keystroke_l	l	n/a
275.277	0.12	550554	keystroke_Key.space	Key.space	n/a
275.517	0.105	551034	keystroke_s	s	n/a
275.607	0.09	551214	keystroke_m	m	n/a
276.642	0.105	553284	keystroke_i	i	n/a
276.792	0.105	553584	keystroke_l	l	n/a
276.942	0.09	553884	keystroke_i	i	n/a
277.047	0.075	554094	keystroke_e	e	n/a
277.227	0.09	554454	keystroke_s	s	n/a
277.362	0.09	554724	keystroke_Key.space	Key.space	n/a
278.202	0.09	556404	keystroke_c	c	n/a
278.277	0.06	556554	keystroke_o	o	n/a
278.457	0.06	556914	keystroke_l	l	n/a
278.607	0.075	557214	keystroke_l	l	n/a
278.697	0.09	557394	keystroke_e	e	n/a
278.727	0.12	557454	keystroke_c	c	n/a
278.967	0.06	557934	keystroke_t	t	n/a
279.207	0.0895	558414	keystroke_Key.enter	Key.enter	n/a
279.3055	7.6135	558611	prompt	n/a	javascript filing antibodies agreement\n
280.0465	0.0905	560093	keystroke_j	j	n/a
280.1065	0.075	560213	keystroke_a	a	n/a
280.3315	0.03	560663	keystroke_v	v	n/a
280.3775	0.014	560755	keystroke_v	v	n/a
280.4975	0.074	560995	keystroke_a	a	n/a
281.0515	0.075	562103	keystroke_Key.backspace	Key.backspace	n/a
281.2165	0.075	562433	keystroke_Key.backspace	Key.backspace	n/a
281.3215	0.075	562643	keystroke_a	a	n/a
281.5165	0.09	563033	keystroke_s	s	n/a
281.7265	0.09	563453	keystroke_c	c	n/a
281.9365	0.105	563873	keystroke_r	r	n/a
282.0275	0.119	564055	keystroke_i	i	n/a
282.0865	0.105	564173	keystroke_p	p	n/a
282.2215	0.06	564443	keystroke_t	t	n/a
282.3565	0.09	564713	keystroke_Key.space	Key.space	n/a
282.8375	0.074	565675	keystroke_f	f	n/a
282.8965	0.09	565793	keystroke_i	i	n/a
283.0015	0.135	566003	keystroke_l	l	n/a
283.1065	0.12	566213	keystroke_i	i	n/a
283.3015	0.09	566603	keystroke_i	i	n/a
283.3465	0.09	566693	keystroke_n	n	n/a
283.4515	0.075	566903	keystroke_g	g	n/a
283.5565	0.09	567113	keystroke_Key.space	Key.space	n/a
283.9315	0.09	567863	keystroke_a	a	n/a
284.0065	0.09	568013	keystroke_n	n	n/a
284.1275	0.075	568255	keystroke_t	t	n/a
284.2175	0.075	568435	keystroke_i	i	n/a
284.4725	0.075	568945	keystroke_b	b	n/a
284.5925	0.09	569185	keystroke_o	o	n/a
284.6975	0.075	569395	keystroke_d	d	n/a
284.8025	0.105	569605	keystroke_i	i	n/a
284.8925	0.06	569785	keystroke_e	e	n/a
285.0275	0.075	570055	keystroke_s	s	n/a
285.1475	0.09	570295	keystroke_Key.space	Key.space	n/a
285.4925	0.075	570985	keystroke_a	a	n/a
285.7025	0.06	571405	keystroke_g	g	n/a
285.8825	0.105	571765	keystroke_r	r	n/a
285.9725	0.105	571945	keystroke_e	e	n/a
286.1525	0.059	572305	keystroke_e	e	n/a
286.3165	0.091	572633	keystroke_m	m	n/a
286.4525	0.089	572905	keystroke_e	e	n/a
286.5575	0.09	573115	keystroke_n	n	n/a
286.6475	0.06	573295	keystroke_t	t	n/a
286.8425	0.074	573685	keystroke_Key.enter	Key.enter	n/a
286.924	6.1605	573848	prompt	n/a	aspects ours hammer arkansas\n
287.3825	0.075	574765	keystroke_a	a	n/a
287.5775	0.075	575155	keystroke_s	s	n/a
287.6975	0.075	575395	keystroke_p	p	n/a
287.7725	0.119	575545	keystroke_e	e	n/a
287.8615	0.091	575723	keystroke_c	c	n/a
288.0425	0.074	576085	keystroke_t	t	n/a
288.162	0.03	576324	keystroke_s	s	n/a
288.207	0.046	576414	keystroke_s	s	n/a
288.297	0.105	576594	keystroke_Key.space	Key.space	n/a
288.507	0.12	577014	keystroke_o	o	n/a
288.552	0.105	577104	keystroke_u	u	n/a
288.642	0.075	577284	keystroke_r	r	n/a
289.317	0.075	578634	keystroke_Key.space	Key.space	n/a
289.587	0.09	579174	keystroke_h	h	n/a
289.692	0.075	579384	keystroke_a	a	n/a
289.797	0.09	579594	keystroke_m	m	n/a
289.947	0.09	579894	keystroke_m	m	n/a
290.022	0.106	580044	keystroke_e	e	n/a
290.112	0.0905	580224	keystroke_r	r	n/a
290.5625	0.09	581125	keystroke_Key.space	Key.space	n/a
290.8925	0.105	581785	keystroke_a	a	n/a
291.2975	0.09	582595	keystroke_r	r	n/a
291.4325	0.09	582865	keystroke_k	k	n/a
291.7625	0.075	583525	keystroke_a	a	n/a
291.9425	0.105	583885	keystroke_n	n	n/a
292.1075	0.06	584215	keystroke_e	e	n/a
292.4525	0.074	584905	keystroke_Key.backspace	Key.backspace	n/a
292.5285	0.074	585057	keystroke_s	s	n/a
292.7225	0.075	585445	keystroke_a	a	n/a
292.7825	0.105	585565	keystroke_s	s	n/a
292.9925	0.089	585985	keystroke_Key.enter	Key.enter	n/a
293.088	5.366	586176	prompt	n/a	economic fluid five solving\n
293.7425	0.105	587485	keystroke_e	e	n/a
293.8925	0.075	587785	keystroke_c	c	n/a
293.9825	0.075	587965	keystroke_o	o	n/a
294.3125	0.105	588625	keystroke_n	n	n/a
294.4615	0.1055	588923	keystroke_o	o	n/a
294.522	0.105	589044	keystroke_m	m	n/a
294.672	0.06	589344	keystroke_i	i	n/a
294.733	0.089	589466	keystroke_c	c	n/a
294.882	0.06	589764	keystroke_Key.space	Key.space	n/a
295.047	0.09	590094	keystroke_f	f	n/a
295.152	0.06	590304	keystroke_l	l	n/a
295.227	0.105	590454	keystroke_u	u	n/a
295.527	0.135	591054	keystroke_i	i	n/a
295.782	0.09	591564	keystroke_d	d	n/a
295.887	0.105	591774	keystroke_Key.space	Key.space	n/a
296.262	0.075	592524	keystroke_f	f	n/a
296.367	0.105	592734	keystroke_i	i	n/a
296.502	0.09	593004	keystroke_x	x	n/a
296.877	0.075	593754	keystroke_Key.backspace	Key.backspace	n/a
296.922	0.09	593844	keystroke_v	v	n/a
297.027	0.09	594054	keystroke_e	e	n/a
297.147	0.105	594294	keystroke_Key.space	Key.space	n/a
297.522	0.09	595044	keystroke_s	s	n/a
297.613	0.089	595226	keystroke_o	o	n/a
297.807	0.075	595614	keystroke_l	l	n/a
297.883	0.074	595766	keystroke_v	v	n/a
298.017	0.12	596034	keystroke_i	i	n/a
298.092	0.105	596184	keystroke_n	n	n/a
298.152	0.06	596304	keystroke_g	g	n/a
298.362	0.09	596724	keystroke_Key.enter	Key.enter	n/a
298.4585	7.15	596917	prompt	n/a	momentum avenue punk jesse\n
299.038	0.104	598076	keystroke_m	m	n/a
299.232	0.105	598464	keystroke_o	o	n/a
299.307	0.105	598614	keystroke_m	m	n/a
299.682	0.09	599364	keystroke_e	e	n/a
299.787	0.09	599574	keystroke_n	n	n/a
300.027	0.075	600054	keystroke_t	t	n/a
300.117	0.105	600234	keystroke_u	u	n/a
300.372	0.09	600744	keystroke_m	m	n/a
300.657	0.12	601314	keystroke_Key.space	Key.space	n/a
300.837	0.09	601674	keystroke_a	a	n/a
301.047	0.075	602094	keystroke_v	v	n/a
301.137	0.105	602274	keystroke_e	e	n/a
301.227	0.135	602454	keystroke_n	n	n/a
301.377	0.09	602754	keystroke_u	u	n/a
301.527	0.09	603054	keystroke_e	e	n/a
301.632	0.09	603264	keystroke_Key.space	Key.space	n/a
302.052	0.15	604104	keystroke_p	p	n/a
302.622	0.09	605244	keystroke_u	u	n/a
302.832	0.12	605664	keystroke_n	n	n/a
302.922	0.105	605844	keystroke_k	k	n/a
303.102	0.105	606204	keystroke_Key.space	Key.space	n/a
303.327	0.105	606654	keystroke_j	j	n/a
303.478	0.059	606956	keystroke_e	e	n/a
303.747	0.075	607494	keystroke_e	e	n/a
303.942	0.075	607884	keystroke_s	s	n/a
304.707	0.075	609414	keystroke_Key.backspace	Key.backspace	n/a
304.872	0.075	609744	keystroke_Key.backspace	Key.backspace	n/a
305.007	0.09	610014	keystroke_s	s	n/a
305.172	0.09	610344	keystroke_s	s	n/a
305.367	0.075	610734	keystroke_e	e	n/a
305.502	0.105	611004	keystroke_Key.enter	Key.enter	n/a
305.6135	9.37	611227	prompt	n/a	excessive exploration encryption protest\n
306.162	0.075	612324	keystroke_e	e	n/a
306.387	0.105	612774	keystroke_c	c	n/a
306.807	0.09	613614	keystroke_Key.backspace	Key.backspace	n/a
306.882	0.105	613764	keystroke_x	x	n/a
307.062	0.09	614124	keystroke_c	c	n/a
307.227	0.06	614454	keystroke_e	e	n/a
307.392	0.075	614784	keystroke_s	s	n/a
308.007	0.075	616014	keystroke_s	s	n/a
308.127	0.09	616254	keystroke_u	u	n/a
308.232	0.09	616464	keystroke_v	v	n/a
308.337	0.105	616674	keystroke_e	e	n/a
308.487	0.075	616974	keystroke_Key.space	Key.space	n/a
308.772	0.06	617544	keystroke_e	e	n/a
308.967	0.09	617934	keystroke_x	x	n/a
309.087	0.105	618174	keystroke_p	p	n/a
309.117	0.1055	618234	keystroke_l	l	n/a
309.3125	0.105	618625	keystroke_o	o	n/a
309.4475	0.105	618895	keystroke_r	r	n/a
309.792	0.105	619584	keystroke_a	a	n/a
309.957	0.06	619914	keystroke_t	t	n/a
309.972	0.12	619944	keystroke_i	i	n/a
310.077	0.15	620154	keystroke_o	o	n/a
310.197	0.105	620394	keystroke_n	n	n/a
310.286	0.12	620572	keystroke_Key.space	Key.space	n/a
310.542	0.09	621084	keystroke_e	e	n/a
310.647	0.089	621294	keystroke_n	n	n/a
310.841	0.091	621682	keystroke_c	c	n/a
311.022	0.089	622044	keystroke_r	r	n/a
311.127	0.105	622254	keystroke_u	u	n/a
311.787	0.074	623574	keystroke_Key.backspace	Key.backspace	n/a
312.266	0.076	624532	keystroke_y	y	n/a
312.372	0.09	624744	keystroke_p	p	n/a
312.492	0.0745	624984	keystroke_t	t	n/a
313.0765	0.105	626153	keystroke_i	i	n/a
313.2415	0.135	626483	keystroke_o	o	n/a
313.3015	0.135	626603	keystroke_n	n	n/a
313.4515	0.105	626903	keystroke_Key.space	Key.space	n/a
313.8415	0.105	627683	keystroke_p	p	n/a
314.0365	0.09	628073	keystroke_r	r	n/a
314.1415	0.105	628283	keystroke_o	o	n/a
314.4115	0.075	628823	keystroke_t	t	n/a
314.5465	0.075	629093	keystroke_e	e	n/a
314.7265	0.075	629453	keystroke_s	s	n/a
314.8165	0.045	629633	keystroke_t	t	n/a
314.8915	0.09	629783	keystroke_Key.enter	Key.enter	n/a
314.9895	7.869	629979	prompt	n/a	pointed array bracelet qualifications\n
315.5365	0.12	631073	keystroke_p	p	n/a
315.6265	0.09	631253	keystroke_o	o	n/a
315.8365	0.105	631673	keystroke_i	i	n/a
315.8815	0.105	631763	keystroke_n	n	n/a
316.0315	0.075	632063	keystroke_t	t	n/a
316.227	0.12	632454	keystroke_e	e	n/a
316.332	0.12	632664	keystroke_d	d	n/a
316.407	0.105	632814	keystroke_Key.space	Key.space	n/a
316.572	0.0755	633144	keystroke_a	a	n/a
316.6915	0.105	633383	keystroke_r	r	n/a
316.8415	0.12	633683	keystroke_r	r	n/a
317.1865	0.09	634373	keystroke_a	a	n/a
317.3065	0.105	634613	keystroke_y	y	n/a
317.4265	0.12	634853	keystroke_Key.space	Key.space	n/a
317.8015	0.06	635603	keystroke_b	b	n/a
317.9515	0.09	635903	keystroke_r	r	n/a
318.0865	0.09	636173	keystroke_a	a	n/a
318.3565	0.105	636713	keystroke_c	c	n/a
318.5665	0.06	637133	keystroke_e	e	n/a
318.6565	0.09	637313	keystroke_l	l	n/a
318.7615	0.09	637523	keystroke_e	e	n/a
318.8975	0.059	637795	keystroke_t	t	n/a
318.9865	0.09	637973	keystroke_Key.space	Key.space	n/a
319.2415	0.105	638483	keystroke_q	q	n/a
319.3315	0.075	638663	keystroke_u	u	n/a
319.4815	0.09	638963	keystroke_a	a	n/a
319.6165	0.12	639233	keystroke_l	l	n/a
319.6765	0.105	639353	keystroke_i	i	n/a
320.0515	0.0905	640103	keystroke_f	f	n/a
320.202	0.09	640404	keystroke_i	i	n/a
321.312	0.09	642624	keystroke_c	c	n/a
321.462	0.075	642924	keystroke_a	a	n/a
321.582	0.075	643164	keystroke_t	t	n/a
321.732	0.105	643464	keystroke_o	o	n/a
322.092	0.074	644184	keystroke_Key.backspace	Key.backspace	n/a
322.212	0.1195	644424	keystroke_i	i	n/a
322.3925	0.105	644785	keystroke_o	o	n/a
322.4675	0.089	644935	keystroke_n	n	n/a
322.5725	0.075	645145	keystroke_s	s	n/a
322.7665	0.09	645533	keystroke_Key.enter	Key.enter	n/a
322.863	7.1065	645726	prompt	n/a	faced probability abstracts episodes\n
323.4575	0.105	646915	keystroke_f	f	n/a
323.6225	0.075	647245	keystroke_e	e	n/a
323.9365	0.091	647873	keystroke_Key.backspace	Key.backspace	n/a
323.9825	0.09	647965	keystroke_a	a	n/a
324.1475	0.0895	648295	keystroke_c	c	n/a
324.252	0.12	648504	keystroke_e	e	n/a
324.342	0.09	648684	keystroke_d	d	n/a
324.4775	0.105	648955	keystroke_Key.space	Key.space	n/a
324.7475	0.105	649495	keystroke_p	p	n/a
324.8825	0.075	649765	keystroke_r	r	n/a
324.9875	0.09	649975	keystroke_o	o	n/a
325.2575	0.075	650515	keystroke_b	b	n/a
325.3625	0.105	650725	keystroke_a	a	n/a
325.4375	0.075	650875	keystroke_b	b	n/a
326.0375	0.09	652075	keystroke_i	i	n/a
326.1875	0.135	652375	keystroke_l	l	n/a
326.2775	0.135	652555	keystroke_i	i	n/a
326.3525	0.075	652705	keystroke_t	t	n/a
326.5175	0.075	653035	keystroke_y	y	n/a
326.6975	0.09	653395	keystroke_Key.space	Key.space	n/a
327.042	0.075	654084	keystroke_a	a	n/a
327.237	0.09	654474	keystroke_b	b	n/a
327.627	0.0755	655254	keystroke_s	s	n/a
327.732	0.0455	655464	keystroke_t	t	n/a
327.8825	0.0745	655765	keystroke_r	r	n/a
327.9725	0.0895	655945	keystroke_a	a	n/a
328.122	0.075	656244	keystroke_c	c	n/a
328.287	0.075	656574	keystroke_t	t	n/a
328.407	0.075	656814	keystroke_s	s	n/a
328.512	0.075	657024	keystroke_Key.space	Key.space	n/a
328.812	0.09	657624	keystroke_e	e	n/a
328.992	0.0905	657984	keystroke_p	p	n/a
329.007	0.1505	658014	keystroke_i	i	n/a
329.1425	0.105	658285	keystroke_s	s	n/a
329.3975	0.09	658795	keystroke_o	o	n/a
329.5025	0.09	659005	keystroke_d	d	n/a
329.5775	0.075	659155	keystroke_e	e	n/a
329.757	0.075	659514	keystroke_s	s	n/a
329.862	0.105	659724	keystroke_Key.enter	Key.enter	n/a
329.9745	4.585	659949	prompt	n/a	minus hopes puppy passing\n
330.538	0.119	661076	keystroke_m	m	n/a
330.687	0.15	661374	keystroke_i	i	n/a
330.792	0.136	661584	keystroke_n	n	n/a
330.973	0.089	661946	keystroke_u	u	n/a
331.108	0.074	662216	keystroke_s	s	n/a
331.257	0.09	662514	keystroke_Key.space	Key.space	n/a
331.542	0.06	663084	keystroke_h	h	n/a
331.737	0.136	663474	keystroke_o	o	n/a
331.797	0.105	663594	keystroke_p	p	n/a
331.903	0.059	663806	keystroke_e	e	n/a
332.083	0.089	664166	keystroke_s	s	n/a
332.187	0.105	664374	keystroke_Key.space	Key.space	n/a
332.502	0.136	665004	keystroke_p	p	n/a
332.623	0.09	665246	keystroke_u	u	n/a
332.757	0.091	665514	keystroke_p	p	n/a
332.9515	0.075	665903	keystroke_p	p	n/a
333.012	0.0895	666024	keystroke_y	y	n/a
333.2365	0.09	666473	keystroke_Key.space	Key.space	n/a
333.5515	0.091	667103	keystroke_p	p	n/a
333.6575	0.119	667315	keystroke_a	a	n/a
333.7925	0.075	667585	keystroke_s	s	n/a
333.9575	0.06	667915	keystroke_s	s	n/a
334.1065	0.136	668213	keystroke_i	i	n/a
334.1815	0.12	668363	keystroke_n	n	n/a
334.3165	0.076	668633	keystroke_g	g	n/a
334.4815	0.076	668963	keystroke_Key.enter	Key.enter	n/a
334.564	7.15	669128	prompt	n/a	members softball hotels regulation\n
335.0375	0.105	670075	keystroke_m	m	n/a
335.2625	0.075	670525	keystroke_e	e	n/a
335.3225	0.075	670645	keystroke_m	m	n/a
335.5175	0.089	671035	keystroke_b	b	n/a
335.5925	0.119	671185	keystroke_e	e	n/a
335.6675	0.09	671335	keystroke_r	r	n/a
335.7865	0.076	671573	keystroke_s	s	n/a
335.9065	0.045	671813	keystroke_Key.space	Key.space	n/a
336.0425	0.12	672085	keystroke_s	s	n/a
336.1775	0.09	672355	keystroke_o	o	n/a
336.2515	0.076	672503	keystroke_f	f	n/a
336.4325	0.045	672865	keystroke_t	t	n/a
336.8065	0.106	673613	keystroke_b	b	n/a
336.9575	0.105	673915	keystroke_a	a	n/a
337.0475	0.059	674095	keystroke_l	l	n/a
337.1975	0.075	674395	keystroke_l	l	n/a
337.3615	0.075	674723	keystroke_Key.space	Key.space	n/a
337.4975	0.104	674995	keystroke_h	h	n/a
337.5875	0.09	675175	keystroke_o	o	n/a
337.7075	0.06	675415	keystroke_t	t	n/a
337.9025	0.09	675805	keystroke_a	a	n/a
338.0075	0.09	676015	keystroke_l	l	n/a
338.3365	0.09	676673	keystroke_Key.backspace	Key.backspace	n/a
338.4875	0.075	676975	keystroke_Key.backspace	Key.backspace	n/a
338.5775	0.074	677155	keystroke_e	e	n/a
338.7275	0.075	677455	keystroke_l	l	n/a
338.8325	0.105	677665	keystroke_s	s	n/a
338.9975	0.104	677995	keystroke_Key.space	Key.space	n/a
339.5375	0.135	679075	keystroke_r	r	n/a
339.6565	0.076	679313	keystroke_e	e	n/a
339.7775	0.075	679555	keystroke_g	g	n/a
339.8365	0.121	679673	keystroke_u	u	n/a
339.8975	0.105	679795	keystroke_l	l	n/a
340.0175	0.075	680035	keystroke_a	a	n/a
340.1075	0.074	680215	keystroke_r	r	n/a
340.8415	0.061	681683	keystroke_Key.backspace	Key.backspace	n/a
341.0225	0.06	682045	keystroke_t	t	n/a
341.1725	0.089	682345	keystroke_i	i	n/a
341.2625	0.15	682525	keystroke_o	o	n/a
341.3525	0.135	682705	keystroke_n	n	n/a
341.6225	0.09	683245	keystroke_Key.enter	Key.enter	n/a
341.719	5.26	683438	prompt	n/a	douglas oops ellen allocation\n
342.3575	0.105	684715	keystroke_d	d	n/a
342.4765	0.106	684953	keystroke_o	o	n/a
342.5365	0.106	685073	keystroke_u	u	n/a
342.7175	0.06	685435	keystroke_g	g	n/a
342.9425	0.075	685885	keystroke_l	l	n/a
343.0325	0.105	686065	keystroke_a	a	n/a
343.0925	0.12	686185	keystroke_s	s	n/a
343.2715	0.076	686543	keystroke_Key.space	Key.space	n/a
343.4825	0.105	686965	keystroke_o	o	n/a
343.6475	0.119	687295	keystroke_o	o	n/a
343.7375	0.105	687475	keystroke_p	p	n/a
343.8575	0.09	687715	keystroke_s	s	n/a
344.0065	0.105	688013	keystroke_Key.space	Key.space	n/a
344.352	0.06	688704	keystroke_e	e	n/a
344.397	0.075	688794	keystroke_l	l	n/a
344.547	0.105	689094	keystroke_l	l	n/a
344.592	0.09	689184	keystroke_e	e	n/a
345.027	0.09	690054	keystroke_n	n	n/a
345.162	0.12	690324	keystroke_Key.space	Key.space	n/a
345.432	0.075	690864	keystroke_a	a	n/a
345.492	0.075	690984	keystroke_l	l	n/a
345.627	0.09	691254	keystroke_l	l	n/a
345.807	0.09	691614	keystroke_o	o	n/a
346.032	0.105	692064	keystroke_c	c	n/a
346.272	0.09	692544	keystroke_a	a	n/a
346.407	0.06	692814	keystroke_t	t	n/a
346.437	0.09	692874	keystroke_i	i	n/a
346.512	0.15	693024	keystroke_o	o	n/a
346.617	0.105	693234	keystroke_n	n	n/a
346.872	0.105	693744	keystroke_Key.enter	Key.enter	n/a
346.987	6.517	693974	prompt	n/a	none charm he'd sometimes\n
347.607	0.09	695214	keystroke_n	n	n/a
347.727	0.105	695454	keystroke_o	o	n/a
347.787	0.12	695574	keystroke_n	n	n/a
348.027	0.075	696054	keystroke_e	e	n/a
348.3275	0.12	696655	keystroke_Key.space	Key.space	n/a
348.5525	0.075	697105	keystroke_c	c	n/a
348.6285	0.104	697257	keystroke_h	h	n/a
348.7475	0.075	697495	keystroke_a	a	n/a
348.8075	0.09	697615	keystroke_r	r	n/a
348.9125	0.09	697825	keystroke_m	m	n/a
349.3475	0.09	698695	keystroke_Key.space	Key.space	n/a
349.6925	0.09	699385	keystroke_h	h	n/a
349.7975	0.09	699595	keystroke_e	e	n/a
350.292	0.076	700584	keystroke_'	'	n/a
350.697	0.09	701394	keystroke_d	d	n/a
350.832	0.09	701664	keystroke_Key.space	Key.space	n/a
351.312	0.12	702624	keystroke_o	o	n/a
351.387	0.075	702774	keystroke_m	m	n/a
351.657	0.061	703314	keystroke_Key.backspace	Key.backspace	n/a
351.807	0.075	703614	keystroke_Key.backspace	Key.backspace	n/a
351.912	0.075	703824	keystroke_s	s	n/a
352.048	0.104	704096	keystroke_o	o	n/a
352.107	0.105	704214	keystroke_m	m	n/a
352.257	0.075	704514	keystroke_t	t	n/a
352.692	0.075	705384	keystroke_Key.backspace	Key.backspace	n/a
352.798	0.075	705596	keystroke_e	e	n/a
352.887	0.03	705774	keystroke_t	t	n/a
352.962	0.075	705924	keystroke_i	i	n/a
352.992	0.105	705984	keystroke_m	m	n/a
353.127	0.075	706254	keystroke_e	e	n/a
353.307	0.09	706614	keystroke_s	s	n/a
353.427	0.075	706854	keystroke_Key.enter	Key.enter	n/a
353.509	5.7105	707018	prompt	n/a	burton cage warranties gonna\n
354.133	0.1195	708266	keystroke_b	b	n/a
354.2675	0.09	708535	keystroke_u	u	n/a
354.3725	0.075	708745	keystroke_r	r	n/a
354.5375	0.06	709075	keystroke_t	t	n/a
354.7775	0.12	709555	keystroke_o	o	n/a
354.8375	0.119	709675	keystroke_n	n	n/a
354.9865	0.106	709973	keystroke_Key.space	Key.space	n/a
355.1675	0.09	710335	keystroke_c	c	n/a
355.2875	0.0895	710575	keystroke_a	a	n/a
355.467	0.06	710934	keystroke_g	g	n/a
355.528	0.074	711056	keystroke_e	e	n/a
355.632	0.105	711264	keystroke_Key.space	Key.space	n/a
355.9475	0.0745	711895	keystroke_w	w	n/a
356.127	0.06	712254	keystroke_a	a	n/a
356.3525	0.03	712705	keystroke_r	r	n/a
356.8925	0.09	713785	keystroke_r	r	n/a
357.0575	0.105	714115	keystroke_a	a	n/a
357.1925	0.105	714385	keystroke_n	n	n/a
357.4175	0.06	714835	keystroke_t	t	n/a
357.5225	0.105	715045	keystroke_i	i	n/a
357.6425	0.06	715285	keystroke_e	e	n/a
357.8375	0.09	715675	keystroke_s	s	n/a
357.9575	0.075	715915	keystroke_Key.space	Key.space	n/a
358.4075	0.105	716815	keystroke_g	g	n/a
358.4975	0.105	716995	keystroke_o	o	n/a
358.5725	0.15	717145	keystroke_n	n	n/a
358.7975	0.075	717595	keystroke_n	n	n/a
358.9925	0.09	717985	keystroke_a	a	n/a
359.1425	0.075	718285	keystroke_Key.enter	Key.enter	n/a
359.224	7.361	718448	prompt	n/a	adjusted cover louise metric\n
359.7275	0.075	719455	keystroke_a	a	n/a
360.1325	0.12	720265	keystroke_d	d	n/a
360.7175	0.09	721435	keystroke_j	j	n/a
360.8975	0.075	721795	keystroke_u	u	n/a
360.9575	0.045	721915	keystroke_s	s	n/a
361.0175	0.075	722035	keystroke_t	t	n/a
361.1975	0.12	722395	keystroke_e	e	n/a
361.2875	0.09	722575	keystroke_d	d	n/a
361.4225	0.105	722845	keystroke_Key.space	Key.space	n/a
361.9025	0.105	723805	keystroke_c	c	n/a
361.9925	0.105	723985	keystroke_o	o	n/a
362.1275	0.075	724255	keystroke_v	v	n/a
362.2325	0.12	724465	keystroke_e	e	n/a
362.3375	0.06	724675	keystroke_r	r	n/a
362.4425	0.09	724885	keystroke_Key.space	Key.space	n/a
362.7725	0.06	725545	keystroke_l	l	n/a
362.9825	0.135	725965	keystroke_o	o	n/a
363.0725	0.12	726145	keystroke_u	u	n/a
363.2825	0.09	726565	keystroke_s	s	n/a
363.4025	0.12	726805	keystroke_i	i	n/a
363.7625	0.045	727525	keystroke_Key.backspace	Key.backspace	n/a
363.8975	0.075	727795	keystroke_Key.backspace	Key.backspace	n/a
364.0175	0.09	728035	keystroke_i	i	n/a
364.0775	0.075	728155	keystroke_s	s	n/a
364.2585	0.059	728517	keystroke_e	e	n/a
364.3475	0.12	728695	keystroke_Key.space	Key.space	n/a
364.7075	0.075	729415	keystroke_m	m	n/a
364.9925	0.12	729985	keystroke_e	e	n/a
365.4275	0.09	730855	keystroke_r	r	n/a
365.7575	0.105	731515	keystroke_Key.backspace	Key.backspace	n/a
365.8175	0.09	731635	keystroke_t	t	n/a
365.9825	0.09	731965	keystroke_r	r	n/a
366.1025	0.105	732205	keystroke_i	i	n/a
366.2525	0.105	732505	keystroke_c	c	n/a
366.4925	0.09	732985	keystroke_Key.enter	Key.enter	n/a
366.59	7.7195	733180	prompt	n/a	oven lodging shakira privilege\n
367.1375	0.12	734275	keystroke_o	o	n/a
367.2585	0.074	734517	keystroke_v	v	n/a
367.3475	0.135	734695	keystroke_e	e	n/a
367.4525	0.06	734905	keystroke_r	r	n/a
367.5275	0.075	735055	keystroke_Key.space	Key.space	n/a
367.6925	0.075	735385	keystroke_l	l	n/a
367.8725	0.105	735745	keystroke_o	o	n/a
367.9625	0.105	735925	keystroke_d	d	n/a
368.2325	0.075	736465	keystroke_g	g	n/a
368.3375	0.135	736675	keystroke_i	i	n/a
368.4425	0.09	736885	keystroke_n	n	n/a
368.5475	0.075	737095	keystroke_g	g	n/a
368.6825	0.12	737365	keystroke_Key.space	Key.space	n/a
369.2525	0.09	738505	keystroke_s	s	n/a
369.3725	0.075	738745	keystroke_h	h	n/a
369.4925	0.105	738985	keystroke_a	a	n/a
369.8825	0.105	739765	keystroke_k	k	n/a
370.0325	0.105	740065	keystroke_i	i	n/a
370.1075	0.09	740215	keystroke_r	r	n/a
370.3035	0.074	740607	keystroke_a	a	n/a
370.3925	0.12	740785	keystroke_Key.space	Key.space	n/a
370.9175	0.12	741835	keystroke_p	p	n/a
371.0975	0.105	742195	keystroke_r	r	n/a
371.5175	0.12	743035	keystroke_i	i	n/a
371.6225	0.075	743245	keystroke_v	v	n/a
372.3125	0.12	744625	keystroke_i	i	n/a
372.4335	0.089	744867	keystroke_l	l	n/a
372.5675	0.105	745135	keystroke_e	e	n/a
373.7075	0.105	747415	keystroke_g	g	n/a
373.7975	0.105	747595	keystroke_e	e	n/a
374.2025	0.105	748405	keystroke_Key.enter	Key.enter	n/a
374.3145	6.01	748629	prompt	n/a	classified intel step officer\n
374.953	0.09	749906	keystroke_c	c	n/a
375.028	0.104	750056	keystroke_l	l	n/a
375.148	0.089	750296	keystroke_a	a	n/a
375.193	0.09	750386	keystroke_s	s	n/a
375.357	0.076	750714	keystroke_s	s	n/a
375.478	0.09	750956	keystroke_i	i	n/a
375.673	0.09	751346	keystroke_f	f	n/a
375.898	0.12	751796	keystroke_i	i	n/a
376.003	0.09	752006	keystroke_e	e	n/a
376.078	0.09	752156	keystroke_d	d	n/a
376.182	0.061	752364	keystroke_Key.space	Key.space	n/a
376.393	0.119	752786	keystroke_i	i	n/a
376.482	0.105	752964	keystroke_n	n	n/a
376.527	0.075	753054	keystroke_t	t	n/a
376.737	0.09	753474	keystroke_r	r	n/a
377.338	0.075	754676	keystroke_e	e	n/a
377.637	0.075	755274	keystroke_Key.backspace	Key.backspace	n/a
377.922	0.075	755844	keystroke_Key.backspace	Key.backspace	n/a
378.058	0.104	756116	keystroke_e	e	n/a
378.178	0.09	756356	keystroke_l	l	n/a
378.357	0.1055	756714	keystroke_Key.space	Key.space	n/a
378.5975	0.09	757195	keystroke_s	s	n/a
378.7175	0.075	757435	keystroke_t	t	n/a
378.9275	0.075	757855	keystroke_e	e	n/a
379.0475	0.09	758095	keystroke_p	p	n/a
379.1825	0.105	758365	keystroke_Key.space	Key.space	n/a
379.4075	0.09	758815	keystroke_o	o	n/a
379.4675	0.06	758935	keystroke_f	f	n/a
379.6175	0.075	759235	keystroke_f	f	n/a
379.7675	0.09	759535	keystroke_i	i	n/a
379.8585	0.074	759717	keystroke_c	c	n/a
379.9925	0.12	759985	keystroke_e	e	n/a
380.0825	0.075	760165	keystroke_r	r	n/a
380.2175	0.105	760435	keystroke_Key.enter	Key.enter	n/a
380.3295	7.33	760659	prompt	n/a	memories trivia outdoor opposite\n
380.863	0.105	761726	keystroke_m	m	n/a
380.998	0.075	761996	keystroke_e	e	n/a
381.088	0.09	762176	keystroke_m	m	n/a
381.179	0.089	762358	keystroke_o	o	n/a
381.388	0.075	762776	keystroke_r	r	n/a
381.628	0.12	763256	keystroke_i	i	n/a
381.778	0.06	763556	keystroke_e	e	n/a
381.943	0.1045	763886	keystroke_s	s	n/a
382.0625	0.075	764125	keystroke_Key.space	Key.space	n/a
382.2875	0.0605	764575	keystroke_t	t	n/a
382.4525	0.075	764905	keystroke_i	i	n/a
382.4675	0.045	764935	keystroke_r	r	n/a
382.9325	0.06	765865	keystroke_Key.backspace	Key.backspace	n/a
383.0525	0.09	766105	keystroke_Key.backspace	Key.backspace	n/a
383.1275	0.105	766255	keystroke_r	r	n/a
383.2625	0.105	766525	keystroke_i	i	n/a
383.3975	0.075	766795	keystroke_v	v	n/a
383.5025	0.06	767005	keystroke_i	i	n/a
383.6075	0.0905	767215	keystroke_a	a	n/a
383.728	0.0895	767456	keystroke_Key.space	Key.space	n/a
384.0425	0.105	768085	keystroke_o	o	n/a
384.2675	0.03	768535	keystroke_t	t	n/a
384.2825	0.075	768565	keystroke_u	u	n/a
384.6725	0.075	769345	keystroke_Key.backspace	Key.backspace	n/a
384.8375	0.0755	769675	keystroke_Key.backspace	Key.backspace	n/a
384.928	0.105	769856	keystroke_u	u	n/a
385.018	0.045	770036	keystroke_t	t	n/a
385.288	0.06	770576	keystroke_d	d	n/a
385.3625	0.09	770725	keystroke_o	o	n/a
385.483	0.135	770966	keystroke_o	o	n/a
385.9325	0.0905	771865	keystroke_r	r	n/a
386.0825	0.0905	772165	keystroke_Key.space	Key.space	n/a
386.4875	0.135	772975	keystroke_o	o	n/a
386.6375	0.09	773275	keystroke_p	p	n/a
386.833	0.1345	773666	keystroke_p	p	n/a
386.9075	0.1055	773815	keystroke_o	o	n/a
387.088	0.1195	774176	keystroke_s	s	n/a
387.2225	0.12	774445	keystroke_i	i	n/a
387.328	0.0445	774656	keystroke_t	t	n/a
387.3875	0.09	774775	keystroke_e	e	n/a
387.5675	0.09	775135	keystroke_Key.enter	Key.enter	n/a
387.664	5.6955	775328	prompt	n/a	honda labeled helping element\n
388.258	0.105	776516	keystroke_h	h	n/a
388.378	0.135	776756	keystroke_o	o	n/a
388.453	0.09	776906	keystroke_n	n	n/a
388.528	0.09	777056	keystroke_d	d	n/a
388.633	0.105	777266	keystroke_a	a	n/a
388.768	0.075	777536	keystroke_Key.space	Key.space	n/a
388.993	0.105	777986	keystroke_l	l	n/a
389.128	0.105	778256	keystroke_a	a	n/a
389.248	0.09	778496	keystroke_b	b	n/a
389.398	0.075	778796	keystroke_e	e	n/a
389.518	0.09	779036	keystroke_l	l	n/a
389.818	0.045	779636	keystroke_e	e	n/a
389.848	0.105	779696	keystroke_d	d	n/a
390.028	0.09	780056	keystroke_Key.space	Key.space	n/a
390.2525	0.075	780505	keystroke_h	h	n/a
390.3425	0.075	780685	keystroke_e	e	n/a
390.4325	0.09	780865	keystroke_l	l	n/a
390.6425	0.075	781285	keystroke_p	p	n/a
390.8375	0.105	781675	keystroke_i	i	n/a
390.8975	0.075	781795	keystroke_n	n	n/a
390.958	0.105	781916	keystroke_g	g	n/a
391.063	0.1045	782126	keystroke_Key.space	Key.space	n/a
391.2725	0.09	782545	keystroke_l	l	n/a
391.3625	0.06	782725	keystroke_e	e	n/a
391.6625	0.075	783325	keystroke_Key.backspace	Key.backspace	n/a
391.8275	0.06	783655	keystroke_Key.backspace	Key.backspace	n/a
391.9175	0.09	783835	keystroke_e	e	n/a
392.0525	0.09	784105	keystroke_l	l	n/a
392.188	0.0745	784376	keystroke_e	e	n/a
392.3225	0.105	784645	keystroke_m	m	n/a
392.6825	0.09	785365	keystroke_e	e	n/a
392.7875	0.09	785575	keystroke_n	n	n/a
392.8925	0.045	785785	keystroke_t	t	n/a
393.2975	0.06	786595	keystroke_Key.enter	Key.enter	n/a
393.3635	11.441	786727	prompt	n/a	representatives restricted bibliographic branch\n
393.9275	0.12	787855	keystroke_r	r	n/a
394.0025	0.0905	788005	keystroke_e	e	n/a
394.2725	0.1055	788545	keystroke_p	p	n/a
394.393	0.1045	788786	keystroke_r	r	n/a
394.4525	0.105	788905	keystroke_e	e	n/a
394.6625	0.0905	789325	keystroke_s	s	n/a
394.828	0.09	789656	keystroke_e	e	n/a
394.933	0.09	789866	keystroke_n	n	n/a
395.053	0.06	790106	keystroke_t	t	n/a
395.248	0.075	790496	keystroke_a	a	n/a
395.428	0.06	790856	keystroke_t	t	n/a
395.503	0.09	791006	keystroke_i	i	n/a
395.713	0.1195	791426	keystroke_v	v	n/a
395.8475	0.075	791695	keystroke_e	e	n/a
396.0725	0.075	792145	keystroke_s	s	n/a
396.283	0.09	792566	keystroke_Key.space	Key.space	n/a
396.598	0.1195	793196	keystroke_r	r	n/a
396.7775	0.1055	793555	keystroke_e	e	n/a
397.123	0.1045	794246	keystroke_s	s	n/a
397.2725	0.075	794545	keystroke_t	t	n/a
397.4075	0.09	794815	keystroke_i	i	n/a
397.5425	0.075	795085	keystroke_r	r	n/a
397.7525	0.075	795505	keystroke_c	c	n/a
397.9325	0.06	795865	keystroke_Key.backspace	Key.backspace	n/a
398.0825	0.06	796165	keystroke_Key.backspace	Key.backspace	n/a
398.2025	0.09	796405	keystroke_Key.backspace	Key.backspace	n/a
398.2775	0.09	796555	keystroke_r	r	n/a
398.4125	0.09	796825	keystroke_i	i	n/a
398.4875	0.075	796975	keystroke_c	c	n/a
398.683	0.06	797366	keystroke_t	t	n/a
398.803	0.135	797606	keystroke_e	e	n/a
398.908	0.105	797816	keystroke_d	d	n/a
399.028	0.105	798056	keystroke_Key.space	Key.space	n/a
399.8375	0.105	799675	keystroke_b	b	n/a
399.8975	0.105	799795	keystroke_i	i	n/a
400.0325	0.09	800065	keystroke_l	l	n/a
400.3925	0.06	800785	keystroke_Key.backspace	Key.backspace	n/a
400.4675	0.09	800935	keystroke_b	b	n/a
400.8875	0.105	801775	keystroke_l	l	n/a
400.9775	0.15	801955	keystroke_i	i	n/a
401.1135	0.105	802227	keystroke_p	p	n/a
401.5325	0.06	803065	keystroke_g	g	n/a
401.7875	0.06	803575	keystroke_Key.backspace	Key.backspace	n/a
401.9675	0.06	803935	keystroke_Key.backspace	Key.backspace	n/a
402.1185	0.104	804237	keystroke_o	o	n/a
402.3135	0.075	804627	keystroke_g	g	n/a
402.6285	0.074	805257	keystroke_r	r	n/a
402.8235	0.104	805647	keystroke_a	a	n/a
402.9575	0.06	805915	keystroke_p	p	n/a
403.1225	0.12	806245	keystroke_h	h	n/a
403.2125	0.076	806425	keystroke_i	i	n/a
403.3025	0.091	806605	keystroke_c	c	n/a
403.5875	0.105	807175	keystroke_Key.space	Key.space	n/a
403.9935	0.089	807987	keystroke_b	b	n/a
404.0525	0.09	808105	keystroke_r	r	n/a
404.189	0.0885	808378	keystroke_a	a	n/a
404.2925	0.0755	808585	keystroke_n	n	n/a
404.398	0.09	808796	keystroke_c	c	n/a
404.503	0.09	809006	keystroke_h	h	n/a
404.713	0.089	809426	keystroke_Key.enter	Key.enter	n/a
404.8085	4.316	809617	prompt	n/a	sounds prints vernon reads\n
405.313	0.09	810626	keystroke_s	s	n/a
405.373	0.134	810746	keystroke_o	o	n/a
405.448	0.075	810896	keystroke_u	u	n/a
405.838	0.09	811676	keystroke_n	n	n/a
405.943	0.105	811886	keystroke_d	d	n/a
406.033	0.075	812066	keystroke_s	s	n/a
406.1375	0.0745	812275	keystroke_Key.space	Key.space	n/a
406.333	0.104	812666	keystroke_p	p	n/a
406.438	0.089	812876	keystroke_r	r	n/a
406.573	0.104	813146	keystroke_i	i	n/a
406.632	0.09	813264	keystroke_n	n	n/a
406.737	0.06	813474	keystroke_t	t	n/a
406.813	0.075	813626	keystroke_s	s	n/a
406.947	0.09	813894	keystroke_Key.space	Key.space	n/a
407.413	0.059	814826	keystroke_v	v	n/a
407.547	0.105	815094	keystroke_e	e	n/a
407.637	0.076	815274	keystroke_r	r	n/a
407.773	0.09	815546	keystroke_n	n	n/a
407.938	0.119	815876	keystroke_o	o	n/a
407.983	0.12	815966	keystroke_n	n	n/a
408.1775	0.105	816355	keystroke_Key.space	Key.space	n/a
408.3425	0.105	816685	keystroke_r	r	n/a
408.4325	0.076	816865	keystroke_e	e	n/a
408.6125	0.045	817225	keystroke_a	a	n/a
408.6725	0.091	817345	keystroke_d	d	n/a
408.8835	0.059	817767	keystroke_s	s	n/a
409.0325	0.09	818065	keystroke_Key.enter	Key.enter	n/a
409.129	5.3665	818258	prompt	n/a	drilling other shipped quote\n
409.7225	0.09	819445	keystroke_d	d	n/a
409.9175	0.075	819835	keystroke_r	r	n/a
409.9775	0.09	819955	keystroke_i	i	n/a
410.293	0.075	820586	keystroke_l	l	n/a
410.427	0.075	820854	keystroke_l	l	n/a
410.638	0.135	821276	keystroke_i	i	n/a
410.727	0.105	821454	keystroke_n	n	n/a
410.863	0.089	821726	keystroke_g	g	n/a
410.967	0.09	821934	keystroke_Key.space	Key.space	n/a
411.163	0.089	822326	keystroke_o	o	n/a
411.283	0.074	822566	keystroke_t	t	n/a
411.373	0.089	822746	keystroke_h	h	n/a
411.433	0.09	822866	keystroke_e	e	n/a
411.492	0.106	822984	keystroke_r	r	n/a
411.627	0.075	823254	keystroke_Key.space	Key.space	n/a
411.8075	0.106	823615	keystroke_s	s	n/a
411.9275	0.105	823855	keystroke_h	h	n/a
412.1235	0.104	824247	keystroke_i	i	n/a
412.2425	0.09	824485	keystroke_p	p	n/a
412.3925	0.105	824785	keystroke_p	p	n/a
412.5875	0.105	825175	keystroke_e	e	n/a
412.6625	0.105	825325	keystroke_d	d	n/a
412.7975	0.075	825595	keystroke_Key.space	Key.space	n/a
413.2475	0.105	826495	keystroke_u	u	n/a
413.3225	0.045	826645	keystroke_o	o	n/a
413.5625	0.06	827125	keystroke_Key.backspace	Key.backspace	n/a
413.7275	0.075	827455	keystroke_Key.backspace	Key.backspace	n/a
413.8325	0.09	827665	keystroke_q	q	n/a
413.9525	0.105	827905	keystroke_u	u	n/a
413.9975	0.121	827995	keystroke_o	o	n/a
414.1025	0.0895	828205	keystroke_t	t	n/a
414.252	0.106	828504	keystroke_e	e	n/a
414.402	0.0905	828804	keystroke_Key.enter	Key.enter	n/a
414.5025	5.3025	829005	prompt	n/a	locations gathered mode graphics\n
415.0625	0.046	830125	keystroke_l	l	n/a
415.2725	0.09	830545	keystroke_o	o	n/a
415.3775	0.09	830755	keystroke_c	c	n/a
415.5275	0.09	831055	keystroke_a	a	n/a
415.708	0.045	831416	keystroke_t	t	n/a
415.768	0.09	831536	keystroke_i	i	n/a
415.828	0.165	831656	keystroke_o	o	n/a
415.948	0.09	831896	keystroke_n	n	n/a
416.053	0.06	832106	keystroke_s	s	n/a
416.158	0.09	832316	keystroke_Key.space	Key.space	n/a
416.413	0.045	832826	keystroke_g	g	n/a
416.533	0.09	833066	keystroke_a	a	n/a
416.683	0.09	833366	keystroke_t	t	n/a
416.878	0.09	833756	keystroke_h	h	n/a
417.043	0.09	834086	keystroke_e	e	n/a
417.088	0.105	834176	keystroke_r	r	n/a
417.268	0.12	834536	keystroke_e	e	n/a
417.358	0.105	834716	keystroke_d	d	n/a
417.478	0.105	834956	keystroke_Key.space	Key.space	n/a
418.078	0.12	836156	keystroke_m	m	n/a
418.153	0.105	836306	keystroke_o	o	n/a
418.243	0.105	836486	keystroke_d	d	n/a
418.318	0.12	836636	keystroke_e	e	n/a
418.423	0.105	836846	keystroke_Key.space	Key.space	n/a
418.708	0.045	837416	keystroke_g	g	n/a
418.858	0.09	837716	keystroke_r	r	n/a
418.978	0.12	837956	keystroke_a	a	n/a
419.083	0.09	838166	keystroke_p	p	n/a
419.263	0.105	838526	keystroke_h	h	n/a
419.353	0.09	838706	keystroke_i	i	n/a
419.429	0.104	838858	keystroke_c	c	n/a
419.5175	0.1355	839035	keystroke_s	s	n/a
419.683	0.12	839366	keystroke_Key.enter	Key.enter	n/a
419.81	7.285	839620	prompt	n/a	ceramic crops singer carpet\n
420.358	0.075	840716	keystroke_c	c	n/a
420.493	0.12	840986	keystroke_e	e	n/a
420.583	0.09	841166	keystroke_r	r	n/a
420.718	0.105	841436	keystroke_m	m	n/a
420.853	0.105	841706	keystroke_i	i	n/a
421.003	0.06	842006	keystroke_a	a	n/a
421.5575	0.0905	843115	keystroke_Key.backspace	Key.backspace	n/a
421.7225	0.09	843445	keystroke_Key.backspace	Key.backspace	n/a
422.5475	0.075	845095	keystroke_Key.backspace	Key.backspace	n/a
422.6675	0.075	845335	keystroke_a	a	n/a
423.2825	0.105	846565	keystroke_m	m	n/a
423.4175	0.09	846835	keystroke_i	i	n/a
423.4775	0.09	846955	keystroke_c	c	n/a
423.7175	0.075	847435	keystroke_Key.space	Key.space	n/a
424.0175	0.06	848035	keystroke_c	c	n/a
424.1825	0.075	848365	keystroke_r	r	n/a
424.2725	0.105	848545	keystroke_o	o	n/a
424.3175	0.09	848635	keystroke_p	p	n/a
424.4225	0.0755	848845	keystroke_s	s	n/a
424.572	0.09	849144	keystroke_Key.space	Key.space	n/a
424.857	0.106	849714	keystroke_s	s	n/a
424.947	0.106	849894	keystroke_i	i	n/a
424.993	0.12	849986	keystroke_n	n	n/a
425.098	0.044	850196	keystroke_g	g	n/a
425.173	0.105	850346	keystroke_e	e	n/a
425.233	0.09	850466	keystroke_r	r	n/a
425.352	0.075	850704	keystroke_Key.space	Key.space	n/a
425.533	0.105	851066	keystroke_c	c	n/a
425.743	0.075	851486	keystroke_a	a	n/a
425.833	0.09	851666	keystroke_r	r	n/a
425.952	0.106	851904	keystroke_p	p	n/a
426.103	0.165	852206	keystroke_e	e	n/a
426.658	0.105	853316	keystroke_t	t	n/a
426.988	0.105	853976	keystroke_Key.enter	Key.enter	n/a
427.099	4.0905	854198	prompt	n/a	store seems universal temp\n
427.588	0.09	855176	keystroke_s	s	n/a
427.708	0.06	855416	keystroke_t	t	n/a
427.783	0.09	855566	keystroke_o	o	n/a
427.873	0.12	855746	keystroke_r	r	n/a
427.933	0.105	855866	keystroke_e	e	n/a
428.083	0.089	856166	keystroke_Key.space	Key.space	n/a
428.293	0.075	856586	keystroke_s	s	n/a
428.458	0.045	856916	keystroke_e	e	n/a
428.578	0.06	857156	keystroke_e	e	n/a
428.698	0.09	857396	keystroke_m	m	n/a
428.803	0.12	857606	keystroke_s	s	n/a
428.908	0.075	857816	keystroke_Key.space	Key.space	n/a
429.103	0.09	858206	keystroke_u	u	n/a
429.178	0.09	858356	keystroke_n	n	n/a
429.298	0.105	858596	keystroke_i	i	n/a
429.388	0.075	858776	keystroke_v	v	n/a
429.523	0.12	859046	keystroke_e	e	n/a
429.613	0.105	859226	keystroke_r	r	n/a
429.748	0.09	859496	keystroke_s	s	n/a
429.943	0.09	859886	keystroke_a	a	n/a
430.018	0.09	860036	keystroke_l	l	n/a
430.183	0.105	860366	keystroke_Key.space	Key.space	n/a
430.438	0.105	860876	keystroke_t	t	n/a
430.528	0.075	861056	keystroke_e	e	n/a
430.588	0.105	861176	keystroke_m	m	n/a
430.843	0.105	861686	keystroke_p	p	n/a
431.098	0.09	862196	keystroke_Key.enter	Key.enter	n/a
431.194	5.4405	862388	prompt	n/a	nowhere glenn incurred fatty\n
431.863	0.015	863726	keystroke_n	n	n/a
431.893	0.075	863786	keystroke_o	o	n/a
431.983	0.06	863966	keystroke_w	w	n/a
432.433	0.105	864866	keystroke_h	h	n/a
432.538	0.075	865076	keystroke_e	e	n/a
432.628	0.105	865256	keystroke_r	r	n/a
432.748	0.045	865496	keystroke_e	e	n/a
432.823	0.09	865646	keystroke_Key.space	Key.space	n/a
433.438	0.06	866876	keystroke_g	g	n/a
433.483	0.105	866966	keystroke_l	l	n/a
433.723	0.075	867446	keystroke_e	e	n/a
433.858	0.075	867716	keystroke_n	n	n/a
433.993	0.09	867986	keystroke_n	n	n/a
434.113	0.0895	868226	keystroke_Key.space	Key.space	n/a
434.3085	0.134	868617	keystroke_i	i	n/a
434.3975	0.091	868795	keystroke_n	n	n/a
434.4585	0.089	868917	keystroke_c	c	n/a
434.6525	0.061	869305	keystroke_u	u	n/a
434.6975	0.091	869395	keystroke_r	r	n/a
434.8935	0.06	869787	keystroke_r	r	n/a
435.1785	0.105	870357	keystroke_e	e	n/a
435.2385	0.105	870477	keystroke_d	d	n/a
435.3575	0.09	870715	keystroke_Key.space	Key.space	n/a
435.6135	0.075	871227	keystroke_f	f	n/a
435.7635	0.09	871527	keystroke_a	a	n/a
435.9585	0.03	871917	keystroke_t	t	n/a
436.0335	0.075	872067	keystroke_t	t	n/a
436.3185	0.074	872637	keystroke_y	y	n/a
436.5275	0.105	873055	keystroke_Key.enter	Key.enter	n/a
436.639	8.276	873278	prompt	n/a	honey successfully eddie refer\n
437.1275	0.121	874255	keystroke_h	h	n/a
437.2625	0.12	874525	keystroke_o	o	n/a
437.3385	0.119	874677	keystroke_n	n	n/a
437.4275	0.075	874855	keystroke_e	e	n/a
437.8035	0.06	875607	keystroke_y	y	n/a
438.0125	0.075	876025	keystroke_Key.space	Key.space	n/a
438.178	0.09	876356	keystroke_s	s	n/a
438.388	0.09	876776	keystroke_c	c	n/a
438.778	0.105	877556	keystroke_Key.backspace	Key.backspace	n/a
438.868	0.105	877736	keystroke_u	u	n/a
438.943	0.105	877886	keystroke_c	c	n/a
439.243	0.015	878486	keystroke_e	e	n/a
439.993	0.105	879986	keystroke_Key.backspace	Key.backspace	n/a
440.083	0.1195	880166	keystroke_c	c	n/a
440.1875	0.075	880375	keystroke_e	e	n/a
440.3675	0.075	880735	keystroke_s	s	n/a
440.5175	0.03	881035	keystroke_s	s	n/a
440.7275	0.09	881455	keystroke_f	f	n/a
440.8025	0.105	881605	keystroke_u	u	n/a
440.8775	0.09	881755	keystroke_l	l	n/a
441.0275	0.075	882055	keystroke_y	y	n/a
441.0875	0.06	882175	keystroke_l	l	n/a
441.4175	0.075	882835	keystroke_Key.backspace	Key.backspace	n/a
441.5825	0.045	883165	keystroke_Key.backspace	Key.backspace	n/a
441.7625	0.076	883525	keystroke_l	l	n/a
441.8975	0.075	883795	keystroke_y	y	n/a
442.0175	0.105	884035	keystroke_Key.space	Key.space	n/a
442.483	0.105	884966	keystroke_e	e	n/a
442.888	0.075	885776	keystroke_d	d	n/a
443.038	0.09	886076	keystroke_d	d	n/a
443.113	0.0895	886226	keystroke_i	i	n/a
443.3985	0.075	886797	keystroke_e	e	n/a
443.5475	0.075	887095	keystroke_Key.space	Key.space	n/a
443.9085	0.044	887817	keystroke_f	f	n/a
444.178	0.075	888356	keystroke_Key.backspace	Key.backspace	n/a
444.238	0.12	888476	keystroke_r	r	n/a
444.328	0.09	888656	keystroke_e	e	n/a
444.463	0.09	888926	keystroke_f	f	n/a
444.583	0.105	889166	keystroke_e	e	n/a
444.658	0.075	889316	keystroke_r	r	n/a
444.808	0.105	889616	keystroke_Key.enter	Key.enter	n/a
444.9195	7.616	889839	prompt	n/a	pitch emperor fixes beautiful\n
445.573	0.15	891146	keystroke_p	p	n/a
445.753	0.135	891506	keystroke_u	u	n/a
445.903	0.045	891806	keystroke_t	t	n/a
446.083	0.09	892166	keystroke_c	c	n/a
446.278	0.075	892556	keystroke_Key.backspace	Key.backspace	n/a
446.428	0.09	892856	keystroke_Key.backspace	Key.backspace	n/a
446.563	0.12	893126	keystroke_Key.backspace	Key.backspace	n/a
446.9085	0.105	893817	keystroke_i	i	n/a
447.0135	0.06	894027	keystroke_t	t	n/a
447.2085	0.105	894417	keystroke_c	c	n/a
447.2835	0.09	894567	keystroke_h	h	n/a
447.4035	0.105	894807	keystroke_Key.space	Key.space	n/a
