onset	duration	sample	value	key	prompt_text
1.6815	12.5135	3363	prompt	n/a	the quick brown fox jumps over a lazy dog\n
3.5115	0.012	7023	keystroke	h	n/a
3.7325	0.03	7465	keystroke	Key.backspace	n/a
7.7015	0.011	15403	keystroke	t	n/a
7.7275	0.09	15455	keystroke	h	n/a
7.8315	0.121	15663	keystroke	e	n/a
7.9965	0.1055	15993	keystroke	Key.space	n/a
8.132	0.09	16264	keystroke	q	n/a
8.237	0.1045	16474	keystroke	u	n/a
8.3265	0.061	16653	keystroke	i	n/a
8.7325	0.059	17465	keystroke	k	n/a
8.9715	0.06	17943	keystroke	Key.backspace	n/a
9.0465	0.09	18093	keystroke	c	n/a
9.1815	0.075	18363	keystroke	k	n/a
9.2715	0.09	18543	keystroke	Key.space	n/a
9.4225	0.074	18845	keystroke	b	n/a
9.602	0.0895	19204	keystroke	r	n/a
9.7065	0.105	19413	keystroke	o	n/a
9.7965	0.12	19593	keystroke	w	n/a
9.9915	0.075	19983	keystroke	n	n/a
10.2465	0.09	20493	keystroke	Key.space	n/a
10.3515	0.0905	20703	keystroke	f	n/a
10.487	0.105	20974	keystroke	o	n/a
10.622	0.12	21244	keystroke	x	n/a
10.802	0.06	21604	keystroke	Key.space	n/a
10.847	0.09	21694	keystroke	j	n/a
11.177	0.06	22354	keystroke	u	n/a
11.357	0.09	22714	keystroke	m	n/a
11.597	0.09	23194	keystroke	p	n/a
11.762	0.1195	23524	keystroke	s	n/a
11.8965	0.1055	23793	keystroke	Key.space	n/a
12.077	0.1045	24154	keystroke	o	n/a
12.1515	0.09	24303	keystroke	v	n/a
12.272	0.1355	24544	keystroke	e	n/a
12.3775	0.09	24755	keystroke	r	n/a
12.4815	0.0905	24963	keystroke	Key.space	n/a
12.5865	0.135	25173	keystroke	a	n/a
12.707	0.105	25414	keystroke	Key.space	n/a
12.752	0.12	25504	keystroke	l	n/a
12.917	0.105	25834	keystroke	a	n/a
13.157	0.075	26314	keystroke	z	n/a
13.4125	0.09	26825	keystroke	y	n/a
13.5325	0.075	27065	keystroke	Key.space	n/a
13.7115	0.106	27423	keystroke	d	n/a
13.8315	0.075	27663	keystroke	o	n/a
13.9215	0.12	27843	keystroke	g	n/a
14.1015	0.09	28203	keystroke	Key.enter	n/a
14.201	10.928	28402	prompt	n/a	trackback carolina advertisements dollars\n
14.7915	0.075	29583	keystroke	t	n/a
15.0475	0.0595	30095	keystroke	r	n/a
15.227	0.09	30454	keystroke	a	n/a
15.392	0.105	30784	keystroke	c	n/a
15.602	0.09	31204	keystroke	k	n/a
15.962	0.06	31924	keystroke	b	n/a
16.082	0.075	32164	keystroke	l	n/a
16.1715	0.0605	32343	keystroke	a	n/a
16.501	0.106	33002	keystroke	Key.backspace	n/a
16.982	0.075	33964	keystroke	Key.backspace	n/a
17.072	0.12	34144	keystroke	a	n/a
17.162	0.12	34324	keystroke	c	n/a
17.297	0.105	34594	keystroke	k	n/a
17.762	0.09	35524	keystroke	Key.space	n/a
17.972	0.12	35944	keystroke	c	n/a
18.377	0.09	36754	keystroke	a	n/a
18.587	0.105	37174	keystroke	r	n/a
18.737	0.09	37474	keystroke	o	n/a
19.457	0.12	38914	keystroke	l	n/a
19.622	0.105	39244	keystroke	i	n/a
19.682	0.12	39364	keystroke	n	n/a
20.1325	0.135	40265	keystroke	a	n/a
20.3415	0.12	40683	keystroke	Key.space	n/a
20.5675	0.134	41135	keystroke	c	n/a
20.8815	0.075	41763	keystroke	Key.backspace	n/a
20.9565	0.0605	41913	keystroke	a	n/a
21.437	0.135	42874	keystroke	d	n/a
21.722	0.09	43444	keystroke	v	n/a
21.917	0.1345	43834	keystroke	e	n/a
22.0515	0.105	44103	keystroke	r	n/a
22.3965	0.075	44793	keystroke	t	n/a
22.5015	0.105	45003	keystroke	i	n/a
22.6365	0.09	45273	keystroke	s	n/a
22.952	0.09	45904	keystroke	e	n/a
23.237	0.075	46474	keystroke	m	n/a
23.327	0.105	46654	keystroke	e	n/a
23.447	0.075	46894	keystroke	n	n/a
23.537	0.045	47074	keystroke	t	n/a
23.687	0.135	47374	keystroke	s	n/a
23.807	0.105	47614	keystroke	Key.space	n/a
24.002	0.09	48004	keystroke	d	n/a
24.092	0.075	48184	keystroke	o	n/a
24.2565	0.075	48513	keystroke	l	n/a
24.4065	0.09	48813	keystroke	l	n/a
24.5415	0.06	49083	keystroke	a	n/a
24.6915	0.075	49383	keystroke	r	n/a
24.887	0.075	49774	keystroke	s	n/a
25.022	0.105	50044	keystroke	Key.enter	n/a
25.1445	9.195	50289	prompt	n/a	walk pieces refugees produced\n
25.667	0.075	51334	keystroke	w	n/a
25.787	0.12	51574	keystroke	a	n/a
25.847	0.18	51694	keystroke	l	n/a
25.937	0.12	51874	keystroke	k	n/a
26.087	0.1045	52174	keystroke	Key.space	n/a
26.3265	0.105	52653	keystroke	p	n/a
26.4915	0.105	52983	keystroke	e	n/a
26.6715	0.045	53343	keystroke	i	n/a
26.9865	0.075	53973	keystroke	Key.backspace	n/a
27.0925	0.104	54185	keystroke	c	n/a
27.3915	0.045	54783	keystroke	Key.backspace	n/a
27.5265	0.06	55053	keystroke	Key.backspace	n/a
27.6915	0.06	55383	keystroke	i	n/a
27.8115	0.075	55623	keystroke	e	n/a
28.0215	0.076	56043	keystroke	c	n/a
28.2015	0.06	56403	keystroke	e	n/a
28.4565	0.015	56913	keystroke	s	n/a
28.4865	0.075	56973	keystroke	Key.space	n/a
28.6965	0.12	57393	keystroke	r	n/a
28.8315	0.105	57663	keystroke	e	n/a
29.0265	0.09	58053	keystroke	g	n/a
29.2065	0.09	58413	keystroke	u	n/a
29.6115	0.075	59223	keystroke	g	n/a
30.0315	0.045	60063	keystroke	Key.backspace	n/a
30.1515	0.06	60303	keystroke	Key.backspace	n/a
30.2865	0.105	60573	keystroke	Key.backspace	n/a
30.4365	0.1205	60873	keystroke	f	n/a
30.9465	0.09	61893	keystroke	u	n/a
31.112	0.1205	62224	keystroke	g	n/a
31.3215	0.09	62643	keystroke	e	n/a
31.5765	0.03	63153	keystroke	s	n/a
31.8915	0.09	63783	keystroke	Key.backspace	n/a
31.9665	0.105	63933	keystroke	e	n/a
32.1915	0.105	64383	keystroke	s	n/a
32.3415	0.09	64683	keystroke	Key.space	n/a
32.5815	0.09	65163	keystroke	p	n/a
32.7165	0.105	65433	keystroke	r	n/a
32.8665	0.075	65733	keystroke	o	n/a
33.0915	0.105	66183	keystroke	d	n/a
33.2265	0.075	66453	keystroke	u	n/a
33.2865	0.105	66573	keystroke	c	n/a
33.8415	0.046	67683	keystroke	e	n/a
34.0065	0.09	68013	keystroke	d	n/a
34.2165	0.12	68433	keystroke	Key.enter	n/a
34.3445	14.1105	68689	prompt	n/a	infinite depression beings temporal\n
34.8925	0.164	69785	keystroke	i	n/a
35.0115	0.09	70023	keystroke	n	n/a
35.4615	0.09	70923	keystroke	f	n/a
35.5815	0.12	71163	keystroke	i	n/a
35.9115	0.09	71823	keystroke	n	n/a
36.0915	0.105	72183	keystroke	i	n/a
36.1815	0.076	72363	keystroke	t	n/a
36.3765	0.075	72753	keystroke	e	n/a
36.4965	0.12	72993	keystroke	Key.space	n/a
36.6465	0.09	73293	keystroke	d	n/a
36.7665	0.09	73533	keystroke	i	n/a
36.8415	0.075	73683	keystroke	s	n/a
36.9915	0.12	73983	keystroke	p	n/a
37.1265	0.09	74253	keystroke	r	n/a
37.2325	0.074	74465	keystroke	e	n/a
37.4115	0.045	74823	keystroke	s	n/a
37.5465	0.09	75093	keystroke	s	n/a
37.6965	0.225	75393	keystroke	i	n/a
37.7875	0.119	75575	keystroke	o	n/a
37.8615	0.105	75723	keystroke	n	n/a
38.0415	0.09	76083	keystroke	Key.space	n/a
38.2215	0.06	76443	keystroke	b	n/a
38.4315	0.105	76863	keystroke	i	n/a
38.7615	0.09	77523	keystroke	Key.backspace	n/a
38.8365	0.105	77673	keystroke	e	n/a
39.0015	0.15	78003	keystroke	i	n/a
39.0765	0.105	78153	keystroke	n	n/a
39.1665	0.105	78333	keystroke	g	n/a
42.5115	0.06	85023	keystroke	Key.backspace	n/a
42.6465	0.06	85293	keystroke	Key.backspace	n/a
42.7815	0.075	85563	keystroke	Key.backspace	n/a
42.9165	0.06	85833	keystroke	Key.backspace	n/a
43.0515	0.075	86103	keystroke	Key.backspace	n/a
43.2015	0.075	86403	keystroke	Key.backspace	n/a
43.3965	0.075	86793	keystroke	e	n/a
43.5765	0.1205	87153	keystroke	s	n/a
44.0265	0.075	88053	keystroke	Key.backspace	n/a
44.2515	0.12	88503	keystroke	p	n/a
44.3865	0.105	88773	keystroke	r	n/a
44.4765	0.105	88953	keystroke	e	n/a
44.6565	0.075	89313	keystroke	s	n/a
44.8065	0.105	89613	keystroke	s	n/a
44.9265	0.225	89853	keystroke	i	n/a
44.9865	0.15	89973	keystroke	o	n/a
45.0915	0.105	90183	keystroke	n	n/a
45.2715	0.105	90543	keystroke	s	n/a
45.4365	0.105	90873	keystroke	Key.space	n/a
45.6465	0.075	91293	keystroke	b	n/a
45.7965	0.105	91593	keystroke	e	n/a
45.9465	0.165	91893	keystroke	i	n/a
46.0515	0.09	92103	keystroke	n	n/a
46.1265	0.105	92253	keystroke	g	n/a
46.4115	0.12	92823	keystroke	s	n/a
46.5615	0.12	93123	keystroke	Key.space	n/a
47.0865	0.105	94173	keystroke	t	n/a
47.2665	0.09	94533	keystroke	e	n/a
47.3865	0.105	94773	keystroke	m	n/a
47.5065	0.135	95013	keystroke	p	n/a
47.7465	0.1055	95493	keystroke	o	n/a
47.8665	0.06	95733	keystroke	r	n/a
48.0315	0.135	96063	keystroke	a	n/a
48.1215	0.12	96243	keystroke	l	n/a
48.3465	0.105	96693	keystroke	Key.enter	n/a
48.4595	6.7595	96919	prompt	n/a	timber zambia howto nitrogen\n
49.0665	0.105	98133	keystroke	t	n/a
49.2015	0.15	98403	keystroke	i	n/a
49.3365	0.12	98673	keystroke	m	n/a
49.4575	0.059	98915	keystroke	e	n/a
49.7265	0.06	99453	keystroke	Key.backspace	n/a
49.8015	0.06	99603	keystroke	b	n/a
49.9515	0.135	99903	keystroke	e	n/a
50.1015	0.06	100203	keystroke	r	n/a
50.2215	0.075	100443	keystroke	Key.space	n/a
50.4765	0.075	100953	keystroke	z	n/a
50.6265	0.12	101253	keystroke	a	n/a
50.7615	0.075	101523	keystroke	m	n/a
50.9865	0.09	101973	keystroke	b	n/a
51.1065	0.105	102213	keystroke	i	n/a
51.2265	0.105	102453	keystroke	a	n/a
51.4365	0.105	102873	keystroke	Key.space	n/a
51.9465	0.12	103893	keystroke	h	n/a
52.0075	0.15	104015	keystroke	o	n/a
52.0965	0.091	104193	keystroke	w	n/a
52.3215	0.09	104643	keystroke	t	n/a
52.4265	0.076	104853	keystroke	o	n/a
52.6965	0.075	105393	keystroke	Key.space	n/a
52.9665	0.121	105933	keystroke	i	n/a
53.402	0.06	106804	keystroke	Key.backspace	n/a
53.597	0.121	107194	keystroke	n	n/a
53.672	0.105	107344	keystroke	i	n/a
53.897	0.09	107794	keystroke	t	n/a
54.287	0.105	108574	keystroke	r	n/a
54.407	0.09	108814	keystroke	o	n/a
54.587	0.075	109174	keystroke	g	n/a
54.782	0.075	109564	keystroke	e	n/a
54.872	0.105	109744	keystroke	n	n/a
55.112	0.105	110224	keystroke	Key.enter	n/a
55.2255	7.554	110451	prompt	n/a	analytical certificate protest list\n
55.727	0.135	111454	keystroke	a	n/a
55.832	0.105	111664	keystroke	n	n/a
56.057	0.12	112114	keystroke	a	n/a
56.222	0.1495	112444	keystroke	l	n/a
56.6565	0.06	113313	keystroke	y	n/a
57.0315	0.06	114063	keystroke	t	n/a
57.1075	0.104	114215	keystroke	i	n/a
57.2715	0.15	114543	keystroke	c	n/a
57.4365	0.121	114873	keystroke	a	n/a
57.5585	0.133	115117	keystroke	l	n/a
57.8115	0.09	115623	keystroke	Key.space	n/a
58.0825	0.089	116165	keystroke	c	n/a
58.277	0.075	116554	keystroke	e	n/a
58.397	0.09	116794	keystroke	r	n/a
58.622	0.105	117244	keystroke	t	n/a
58.862	0.06	117724	keystroke	i	n/a
59.8215	0.135	119643	keystroke	f	n/a
59.9415	0.105	119883	keystroke	i	n/a
60.1215	0.15	120243	keystroke	c	n/a
60.2865	0.09	120573	keystroke	a	n/a
60.4515	0.075	120903	keystroke	t	n/a
60.6315	0.12	121263	keystroke	e	n/a
60.7815	0.105	121563	keystroke	Key.space	n/a
60.9765	0.09	121953	keystroke	p	n/a
61.1265	0.09	122253	keystroke	r	n/a
61.2315	0.075	122463	keystroke	o	n/a
61.4115	0.09	122823	keystroke	t	n/a
61.5315	0.12	123063	keystroke	e	n/a
61.7115	0.075	123423	keystroke	s	n/a
61.8765	0.105	123753	keystroke	t	n/a
61.9965	0.09	123993	keystroke	Key.space	n/a
62.1015	0.12	124203	keystroke	l	n/a
62.2965	0.121	124593	keystroke	i	n/a
62.4015	0.06	124803	keystroke	s	n/a
62.5515	0.0755	125103	keystroke	t	n/a
62.656	0.121	125312	keystroke	Key.enter	n/a
62.7845	11.515	125569	prompt	n/a	decades acids hypothesis trailers\n
63.272	0.09	126544	keystroke	d	n/a
63.437	0.075	126874	keystroke	e	n/a
63.647	0.105	127294	keystroke	c	n/a
63.992	0.075	127984	keystroke	a	n/a
64.397	0.075	128794	keystroke	d	n/a
64.547	0.075	129094	keystroke	e	n/a
64.727	0.105	129454	keystroke	s	n/a
64.892	0.105	129784	keystroke	Key.space	n/a
65.267	0.1505	130534	keystroke	a	n/a
65.4615	0.075	130923	keystroke	c	n/a
65.6265	0.105	131253	keystroke	i	n/a
65.7615	0.1055	131523	keystroke	d	n/a
66.0915	0.105	132183	keystroke	Key.space	n/a
66.407	0.12	132814	keystroke	h	n/a
66.647	0.105	133294	keystroke	y	n/a
66.917	0.12	133834	keystroke	p	n/a
67.112	0.09	134224	keystroke	r	n/a
67.217	0.105	134434	keystroke	o	n/a
67.607	0.105	135214	keystroke	t	n/a
67.9215	0.0605	135843	keystroke	Key.backspace	n/a
68.057	0.06	136114	keystroke	Key.backspace	n/a
68.177	0.105	136354	keystroke	Key.backspace	n/a
68.777	0.015	137554	keystroke	o	n/a
68.837	0.12	137674	keystroke	t	n/a
68.928	0.119	137856	keystroke	h	n/a
69.062	0.105	138124	keystroke	e	n/a
69.272	0.105	138544	keystroke	s	n/a
69.467	0.0455	138934	keystroke	e	n/a
69.6465	0.106	139293	keystroke	s	n/a
70.2465	0.06	140493	keystroke	Key.backspace	n/a
70.397	0.06	140794	keystroke	Key.backspace	n/a
70.652	0.075	141304	keystroke	Key.backspace	n/a
71.447	0.06	142894	keystroke	s	n/a
71.552	0.075	143104	keystroke	i	n/a
71.627	0.105	143254	keystroke	s	n/a
71.837	0.105	143674	keystroke	Key.space	n/a
72.032	0.09	144064	keystroke	t	n/a
72.227	0.06	144454	keystroke	r	n/a
72.3915	0.136	144783	keystroke	a	n/a
72.6615	0.09	145323	keystroke	i	n/a
72.8415	0.12	145683	keystroke	l	n/a
72.9465	0.105	145893	keystroke	e	n/a
73.2475	0.014	146495	keystroke	r	n/a
73.3965	0.06	146793	keystroke	Key.backspace	n/a
73.5325	0.119	147065	keystroke	Key.backspace	n/a
73.6665	0.151	147333	keystroke	e	n/a
73.8465	0.075	147693	keystroke	r	n/a
74.0275	0.119	148055	keystroke	s	n/a
74.1765	0.12	148353	keystroke	Key.enter	n/a
74.3075	5.8865	148615	prompt	n/a	ship pill nationally sense\n
74.8665	0.105	149733	keystroke	s	n/a
75.0015	0.135	150003	keystroke	h	n/a
75.1825	0.089	150365	keystroke	i	n/a
75.2415	0.06	150483	keystroke	o	n/a
75.6015	0.06	151203	keystroke	Key.backspace	n/a
75.8575	0.104	151715	keystroke	p	n/a
76.0065	0.12	152013	keystroke	Key.space	n/a
76.2765	0.091	152553	keystroke	p	n/a
76.4115	0.105	152823	keystroke	i	n/a
76.5765	0.076	153153	keystroke	l	n/a
76.7265	0.09	153453	keystroke	l	n/a
76.9065	0.06	153813	keystroke	Key.space	n/a
76.9965	0.075	153993	keystroke	n	n/a
77.1465	0.09	154293	keystroke	a	n/a
77.3275	0.089	154655	keystroke	t	n/a
77.3865	0.21	154773	keystroke	i	n/a
77.4465	0.136	154893	keystroke	o	n/a
77.5075	0.12	155015	keystroke	n	n/a
77.7325	0.089	155465	keystroke	s	n/a
78.3315	0.06	156663	keystroke	Key.backspace	n/a
78.4075	0.104	156815	keystroke	a	n/a
78.5575	0.045	157115	keystroke	l	n/a
78.6915	0.105	157383	keystroke	l	n/a
78.8125	0.12	157625	keystroke	y	n/a
78.9615	0.09	157923	keystroke	Key.space	n/a
79.2025	0.0745	158405	keystroke	s	n/a
79.472	0.105	158944	keystroke	e	n/a
79.652	0.09	159304	keystroke	n	n/a
79.772	0.09	159544	keystroke	s	n/a
79.937	0.09	159874	keystroke	e	n/a
80.087	0.105	160174	keystroke	Key.enter	n/a
80.199	8.35	160398	prompt	n/a	poverty physical rewards bookmarks\n
80.792	0.12	161584	keystroke	p	n/a
81.062	0.12	162124	keystroke	o	n/a
81.617	0.075	163234	keystroke	v	n/a
81.767	0.135	163534	keystroke	e	n/a
81.857	0.12	163714	keystroke	r	n/a
82.097	0.1055	164194	keystroke	t	n/a
82.3075	0.105	164615	keystroke	y	n/a
82.4275	0.134	164855	keystroke	Key.space	n/a
82.607	0.09	165214	keystroke	p	n/a
82.772	0.09	165544	keystroke	h	n/a
82.982	0.135	165964	keystroke	s	n/a
84.167	0.075	168334	keystroke	Key.backspace	n/a
84.392	0.105	168784	keystroke	y	n/a
84.662	0.09	169324	keystroke	s	n/a
84.902	0.105	169804	keystroke	i	n/a
85.097	0.09	170194	keystroke	c	n/a
85.307	0.135	170614	keystroke	a	n/a
85.427	0.105	170854	keystroke	l	n/a
85.637	0.09	171274	keystroke	Key.space	n/a
85.892	0.09	171784	keystroke	r	n/a
85.952	0.105	171904	keystroke	e	n/a
86.237	0.135	172474	keystroke	w	n/a
86.417	0.045	172834	keystroke	a	n/a
86.507	0.06	173014	keystroke	r	n/a
86.687	0.12	173374	keystroke	d	n/a
86.762	0.136	173524	keystroke	s	n/a
86.942	0.105	173884	keystroke	Key.space	n/a
87.137	0.075	174274	keystroke	b	n/a
87.227	0.075	174454	keystroke	o	n/a
87.362	0.1495	174724	keystroke	o	n/a
87.437	0.1345	174874	keystroke	k	n/a
87.7365	0.09	175473	keystroke	m	n/a
87.8415	0.075	175683	keystroke	a	n/a
88.0365	0.075	176073	keystroke	r	n/a
88.1715	0.105	176343	keystroke	k	n/a
88.2465	0.105	176493	keystroke	s	n/a
88.4415	0.105	176883	keystroke	Key.enter	n/a
88.5535	10.525	177107	prompt	n/a	peripheral tension coupons athletics\n
89.0565	0.105	178113	keystroke	p	n/a
89.3415	0.135	178683	keystroke	e	n/a
89.5065	0.09	179013	keystroke	r	n/a
89.6115	0.12	179223	keystroke	i	n/a
89.9265	0.075	179853	keystroke	p	n/a
90.2565	0.09	180513	keystroke	h	n/a
90.557	0.105	181114	keystroke	e	n/a
90.707	0.075	181414	keystroke	r	n/a
90.9015	0.136	181803	keystroke	a	n/a
91.0215	0.09	182043	keystroke	l	n/a
91.1265	0.09	182253	keystroke	Key.space	n/a
91.3815	0.016	182763	keystroke	t	n/a
91.6665	0.12	183333	keystroke	e	n/a
91.8625	0.09	183725	keystroke	n	n/a
91.9825	0.149	183965	keystroke	s	n/a
92.2075	0.209	184415	keystroke	i	n/a
92.3865	0.105	184773	keystroke	o	n/a
92.3875	0.164	184775	keystroke	n	n/a
93.0915	0.105	186183	keystroke	Key.space	n/a
93.4065	0.136	186813	keystroke	c	n/a
93.5725	0.134	187145	keystroke	o	n/a
93.7365	0.15	187473	keystroke	u	n/a
94.0215	0.09	188043	keystroke	p	n/a
94.277	0.135	188554	keystroke	o	n/a
94.382	0.09	188764	keystroke	n	n/a
94.517	0.119	189034	keystroke	s	n/a
94.6665	0.0905	189333	keystroke	Key.space	n/a
94.861	0.106	189722	keystroke	a	n/a
95.057	0.09	190114	keystroke	t	n/a
95.252	0.12	190504	keystroke	h	n/a
95.416	0.106	190832	keystroke	e	n/a
95.537	0.135	191074	keystroke	l	n/a
95.687	0.06	191374	keystroke	e	n/a
96.077	0.075	192154	keystroke	t	n/a
96.737	0.0295	193474	keystroke	Key.backspace	n/a
96.8415	0.09	193683	keystroke	Key.backspace	n/a
96.9765	0.075	193953	keystroke	Key.backspace	n/a
97.1265	0.075	194253	keystroke	Key.backspace	n/a
97.8165	0.15	195633	keystroke	l	n/a
97.9215	0.105	195843	keystroke	e	n/a
98.0715	0.09	196143	keystroke	t	n/a
98.3415	0.075	196683	keystroke	i	n/a
98.4765	0.12	196953	keystroke	c	n/a
98.6265	0.105	197253	keystroke	s	n/a
98.9725	0.104	197945	keystroke	Key.enter	n/a
99.0835	14.066	198167	prompt	n/a	horn corporations manhattan recipients\n
100.6515	0.135	201303	keystroke	h	n/a
100.8015	0.12	201603	keystroke	o	n/a
100.9365	0.105	201873	keystroke	r	n/a
101.3415	0.06	202683	keystroke	n	n/a
101.5365	0.105	203073	keystroke	Key.space	n/a
102.091	0.091	204182	keystroke	c	n/a
102.197	0.0895	204394	keystroke	o	n/a
102.5415	0.105	205083	keystroke	r	n/a
103.0665	0.135	206133	keystroke	p	n/a
103.277	0.12	206554	keystroke	o	n/a
103.802	0.075	207604	keystroke	r	n/a
104.027	0.105	208054	keystroke	a	n/a
104.222	0.075	208444	keystroke	t	n/a
104.282	0.2245	208564	keystroke	i	n/a
104.3715	0.165	208743	keystroke	o	n/a
104.4315	0.165	208863	keystroke	n	n/a
104.6265	0.12	209253	keystroke	s	n/a
105.0015	0.12	210003	keystroke	Key.space	n/a
105.2565	0.1055	210513	keystroke	m	n/a
105.3765	0.12	210753	keystroke	a	n/a
105.5415	0.09	211083	keystroke	n	n/a
106.0065	0.06	212013	keystroke	h	n/a
106.3815	0.12	212763	keystroke	a	n/a
106.6365	0.09	213273	keystroke	p	n/a
107.1465	0.09	214293	keystroke	Key.backspace	n/a
107.2665	0.105	214533	keystroke	t	n/a
107.4615	0.12	214923	keystroke	t	n/a
107.7015	0.105	215403	keystroke	e	n/a
107.9565	0.09	215913	keystroke	Key.backspace	n/a
108.0615	0.135	216123	keystroke	a	n/a
108.1965	0.105	216393	keystroke	n	n/a
108.3615	0.12	216723	keystroke	Key.space	n/a
108.6615	0.09	217323	keystroke	r	n/a
108.7665	0.1355	217533	keystroke	e	n/a
109.937	0.075	219874	keystroke	c	n/a
110.057	0.09	220114	keystroke	i	n/a
110.237	0.105	220474	keystroke	p	n/a
110.477	0.135	220954	keystroke	e	n/a
111.257	0.09	222514	keystroke	Key.backspace	n/a
111.4665	0.075	222933	keystroke	i	n/a
111.6315	0.12	223263	keystroke	e	n/a
111.7525	0.0585	223505	keystroke	n	n/a
111.901	0.075	223802	keystroke	t	n/a
112.142	0.119	224284	keystroke	s	n/a
113.041	0.106	226082	keystroke	Key.enter	n/a
113.155	6.1885	226310	prompt	n/a	kong terror pictures distance\n
113.8665	0.09	227733	keystroke	k	n/a
114.0165	0.135	228033	keystroke	o	n/a
114.1215	0.105	228243	keystroke	n	n/a
114.3615	0.09	228723	keystroke	g	n/a
114.6465	0.09	229293	keystroke	Key.space	n/a
114.8265	0.06	229653	keystroke	t	n/a
115.0815	0.105	230163	keystroke	e	n/a
115.4565	0.045	230913	keystroke	r	n/a
115.6065	0.09	231213	keystroke	r	n/a
115.7115	0.135	231423	keystroke	o	n/a
115.8315	0.12	231663	keystroke	r	n/a
115.9365	0.105	231873	keystroke	Key.space	n/a
116.177	0.075	232354	keystroke	p	n/a
116.341	0.09	232682	keystroke	i	n/a
116.492	0.12	232984	keystroke	c	n/a
116.732	0.09	233464	keystroke	t	n/a
116.836	0.075	233672	keystroke	u	n/a
116.926	0.06	233852	keystroke	r	n/a
117.016	0.15	234032	keystroke	e	n/a
117.256	0.166	234512	keystroke	s	n/a
117.436	0.121	234872	keystroke	Key.space	n/a
117.9765	0.12	235953	keystroke	d	n/a
118.0815	0.12	236163	keystroke	i	n/a
118.1565	0.09	236313	keystroke	s	n/a
118.4715	0.075	236943	keystroke	t	n/a
118.6365	0.105	237273	keystroke	a	n/a
118.7565	0.075	237513	keystroke	n	n/a
118.8465	0.075	237693	keystroke	c	n/a
119.0575	0.074	238115	keystroke	e	n/a
119.2365	0.105	238473	keystroke	Key.enter	n/a
119.349	9.0545	238698	prompt	n/a	preference jets soon procedure\n
119.9875	0.104	239975	keystroke	p	n/a
120.0925	0.104	240185	keystroke	e	n/a
120.1975	0.104	240395	keystroke	r	n/a
120.9465	0.06	241893	keystroke	Key.backspace	n/a
121.0515	0.09	242103	keystroke	Key.backspace	n/a
121.1715	0.12	242343	keystroke	r	n/a
121.4565	0.12	242913	keystroke	e	n/a
121.6665	0.12	243333	keystroke	f	n/a
121.8165	0.106	243633	keystroke	e	n/a
121.9665	0.09	243933	keystroke	r	n/a
122.0725	0.1335	244145	keystroke	e	n/a
122.281	0.12	244562	keystroke	n	n/a
122.386	0.105	244772	keystroke	c	n/a
122.596	0.09	245192	keystroke	e	n/a
122.701	0.105	245402	keystroke	Key.space	n/a
123.196	0.0755	246392	keystroke	j	n/a
123.361	0.076	246722	keystroke	e	n/a
123.677	0.0595	247354	keystroke	t	n/a
123.8565	0.105	247713	keystroke	s	n/a
123.9765	0.105	247953	keystroke	Key.space	n/a
124.3065	0.045	248613	keystroke	s	n/a
124.3665	0.075	248733	keystroke	o	n/a
124.5165	0.105	249033	keystroke	o	n/a
124.6065	0.105	249213	keystroke	n	n/a
124.8465	0.105	249693	keystroke	Key.space	n/a
125.1165	0.09	250233	keystroke	p	n/a
125.3715	0.09	250743	keystroke	r	n/a
125.6865	0.1195	251373	keystroke	o	n/a
125.896	0.091	251792	keystroke	c	n/a
126.107	0.059	252214	keystroke	e	n/a
126.361	0.075	252722	keystroke	s	n/a
126.706	0.046	253412	keystroke	Key.backspace	n/a
126.781	0.075	253562	keystroke	d	n/a
126.917	0.1205	253834	keystroke	u	n/a
127.0215	0.09	254043	keystroke	e	n/a
127.3815	0.0605	254763	keystroke	Key.backspace	n/a
127.907	0.075	255814	keystroke	r	n/a
128.072	0.09	256144	keystroke	e	n/a
128.266	0.135	256532	keystroke	Key.enter	n/a
128.409	8.874	256818	prompt	n/a	jane appeals exhaust cultural\n
129.167	0.12	258334	keystroke	j	n/a
129.317	0.119	258634	keystroke	a	n/a
129.617	0.075	259234	keystroke	n	n/a
129.962	0.135	259924	keystroke	e	n/a
130.112	0.105	260224	keystroke	Key.space	n/a
130.277	0.15	260554	keystroke	a	n/a
130.412	0.075	260824	keystroke	p	n/a
130.592	0.105	261184	keystroke	p	n/a
130.832	0.09	261664	keystroke	e	n/a
131.102	0.1195	262204	keystroke	a	n/a
131.2365	0.12	262473	keystroke	l	n/a
131.3265	0.105	262653	keystroke	s	n/a
131.4615	0.105	262923	keystroke	Key.space	n/a
131.7915	0.09	263583	keystroke	e	n/a
132.0015	0.105	264003	keystroke	x	n/a
132.3315	0.09	264663	keystroke	h	n/a
132.5715	0.075	265143	keystroke	u	n/a
132.6915	0.15	265383	keystroke	a	n/a
133.3965	0.045	266793	keystroke	Key.backspace	n/a
133.4865	0.165	266973	keystroke	Key.backspace	n/a
133.9665	0.135	267933	keystroke	a	n/a
134.1315	0.1205	268263	keystroke	u	n/a
134.267	0.075	268534	keystroke	s	n/a
134.522	0.105	269044	keystroke	t	n/a
134.717	0.09	269434	keystroke	Key.space	n/a
134.942	0.105	269884	keystroke	c	n/a
135.3315	0.09	270663	keystroke	u	n/a
135.5105	0.0915	271021	keystroke	l	n/a
135.6315	0.0905	271263	keystroke	t	n/a
135.8115	0.12	271623	keystroke	e	n/a
136.1415	0.06	272283	keystroke	Key.backspace	n/a
136.3215	0.105	272643	keystroke	u	n/a
136.3965	0.09	272793	keystroke	r	n/a
136.682	0.0745	273364	keystroke	a	n/a
136.8915	0.09	273783	keystroke	l	n/a
137.1465	0.135	274293	keystroke	Key.enter	n/a
137.2875	6.5515	274575	prompt	n/a	benz minimal howdy digest\n
137.8815	0.06	275763	keystroke	b	n/a
138.0015	0.12	276003	keystroke	e	n/a
138.2115	0.06	276423	keystroke	n	n/a
138.3465	0.12	276693	keystroke	z	n/a
138.6465	0.075	277293	keystroke	Key.space	n/a
138.9615	0.105	277923	keystroke	m	n/a
139.1115	0.135	278223	keystroke	i	n/a
139.2015	0.12	278403	keystroke	n	n/a
139.4875	0.074	278975	keystroke	i	n/a
139.9815	0.06	279963	keystroke	m	n/a
140.1315	0.15	280263	keystroke	a	n/a
140.2825	0.089	280565	keystroke	l	n/a
140.4465	0.12	280893	keystroke	Key.space	n/a
140.7165	0.12	281433	keystroke	h	n/a
140.8215	0.105	281643	keystroke	o	n/a
140.9415	0.06	281883	keystroke	w	n/a
141.1815	0.1195	282363	keystroke	d	n/a
141.481	0.135	282962	keystroke	y	n/a
141.661	0.105	283322	keystroke	Key.space	n/a
141.871	0.09	283742	keystroke	d	n/a
142.006	0.105	284012	keystroke	i	n/a
142.096	0.061	284192	keystroke	s	n/a
142.576	0.09	285152	keystroke	Key.backspace	n/a
142.652	0.104	285304	keystroke	g	n/a
143.236	0.0755	286472	keystroke	e	n/a
143.3715	0.12	286743	keystroke	s	n/a
143.5805	0.106	287161	keystroke	t	n/a
143.7315	0.104	287463	keystroke	Key.enter	n/a
143.8445	6.5195	287689	prompt	n/a	bracket hist italic holds\n
144.3615	0.06	288723	keystroke	b	n/a
144.5715	0.06	289143	keystroke	r	n/a
144.7515	0.135	289503	keystroke	a	n/a
144.9315	0.12	289863	keystroke	c	n/a
145.0525	0.104	290105	keystroke	k	n/a
145.1715	0.09	290343	keystroke	e	n/a
145.3815	0.09	290763	keystroke	t	n/a
145.5165	0.105	291033	keystroke	Key.space	n/a
145.6665	0.15	291333	keystroke	h	n/a
145.7265	0.121	291453	keystroke	i	n/a
145.8315	0.135	291663	keystroke	s	n/a
146.1165	0.105	292233	keystroke	t	n/a
146.3715	0.105	292743	keystroke	Key.space	n/a
146.6115	0.075	293223	keystroke	t	n/a
146.8665	0.06	293733	keystroke	Key.backspace	n/a
147.0465	0.075	294093	keystroke	i	n/a
147.1815	0.09	294363	keystroke	t	n/a
147.9915	0.12	295983	keystroke	a	n/a
148.2765	0.135	296553	keystroke	l	n/a
148.3965	0.105	296793	keystroke	i	n/a
148.5315	0.135	297063	keystroke	c	n/a
149.0715	0.075	298143	keystroke	Key.space	n/a
149.2365	0.12	298473	keystroke	h	n/a
149.3265	0.105	298653	keystroke	o	n/a
149.792	0.134	299584	keystroke	l	n/a
149.942	0.059	299884	keystroke	d	n/a
150.136	0.06	300272	keystroke	s	n/a
150.256	0.105	300512	keystroke	Key.enter	n/a
150.3695	8.034	300739	prompt	n/a	spring studies anyone editors\n
151.052	0.09	302104	keystroke	s	n/a
151.187	0.074	302374	keystroke	p	n/a
151.321	0.106	302642	keystroke	r	n/a
151.367	0.195	302734	keystroke	i	n/a
151.4415	0.1355	302883	keystroke	n	n/a
151.562	0.12	303124	keystroke	g	n/a
151.831	0.121	303662	keystroke	Key.space	n/a
152.057	0.06	304114	keystroke	s	n/a
152.236	0.091	304472	keystroke	t	n/a
152.342	0.09	304684	keystroke	u	n/a
152.462	0.105	304924	keystroke	d	n/a
152.627	0.09	305254	keystroke	i	n/a
152.702	0.06	305404	keystroke	e	n/a
152.852	0.105	305704	keystroke	s	n/a
153.3015	0.09	306603	keystroke	Key.space	n/a
153.6315	0.09	307263	keystroke	a	n/a
153.7065	0.09	307413	keystroke	n	n/a
153.8715	0.075	307743	keystroke	y	n/a
154.2315	0.135	308463	keystroke	o	n/a
154.3215	0.105	308643	keystroke	n	n/a
154.4415	0.105	308883	keystroke	e	n/a
154.7115	0.105	309423	keystroke	Key.space	n/a
154.9665	0.06	309933	keystroke	d	n/a
155.2365	0.075	310473	keystroke	Key.backspace	n/a
155.3265	0.075	310653	keystroke	e	n/a
155.537	0.06	311074	keystroke	d	n/a
155.567	0.075	311134	keystroke	i	n/a
156.5565	0.105	313113	keystroke	r	n/a
156.6615	0.105	313323	keystroke	o	n/a
157.2165	0.09	314433	keystroke	Key.backspace	n/a
157.3815	0.075	314763	keystroke	Key.backspace	n/a
157.4865	0.075	314973	keystroke	t	n/a
157.6065	0.105	315213	keystroke	o	n/a
157.7265	0.09	315453	keystroke	r	n/a
158.0415	0.12	316083	keystroke	s	n/a
158.2665	0.135	316533	keystroke	Key.enter	n/a
158.4085	8.186	316817	prompt	n/a	daughters deviant sagem geography\n
159.1065	0.12	318213	keystroke	d	n/a
159.3165	0.09	318633	keystroke	a	n/a
159.4665	0.09	318933	keystroke	u	n/a
159.9015	0.105	319803	keystroke	g	n/a
160.0815	0.105	320163	keystroke	h	n/a
160.4715	0.045	320943	keystroke	t	n/a
160.6065	0.135	321213	keystroke	e	n/a
160.7265	0.09	321453	keystroke	r	n/a
160.9365	0.1195	321873	keystroke	s	n/a
161.086	0.09	322172	keystroke	Key.space	n/a
161.342	0.09	322684	keystroke	d	n/a
161.5515	0.06	323103	keystroke	e	n/a
161.7765	0.075	323553	keystroke	v	n/a
162.0465	0.075	324093	keystroke	i	n/a
162.1965	0.15	324393	keystroke	a	n/a
162.3315	0.075	324663	keystroke	n	n/a
162.4665	0.105	324933	keystroke	t	n/a
162.6165	0.075	325233	keystroke	Key.space	n/a
162.8265	0.09	325653	keystroke	s	n/a
162.9765	0.105	325953	keystroke	a	n/a
163.3215	0.015	326643	keystroke	g	n/a
163.5015	0.09	327003	keystroke	e	n/a
163.6665	0.09	327333	keystroke	m	n/a
164.1915	0.09	328383	keystroke	Key.space	n/a
164.6265	0.06	329253	keystroke	g	n/a
164.9265	0.12	329853	keystroke	e	n/a
165.0615	0.105	330123	keystroke	o	n/a
165.2715	0.075	330543	keystroke	g	n/a
165.4815	0.06	330963	keystroke	r	n/a
165.6765	0.12	331353	keystroke	a	n/a
165.8865	0.09	331773	keystroke	p	n/a
166.0815	0.075	332163	keystroke	h	n/a
166.2765	0.09	332553	keystroke	y	n/a
166.5015	0.09	333003	keystroke	Key.enter	n/a
166.6045	7.7595	333209	prompt	n/a	artists dodge break establishment\n
167.0865	0.105	334173	keystroke	a	n/a
167.5515	0.09	335103	keystroke	r	n/a
167.7765	0.105	335553	keystroke	t	n/a
168.1215	0.09	336243	keystroke	i	n/a
168.3165	0.09	336633	keystroke	s	n/a
168.4965	0.09	336993	keystroke	t	n/a
168.7515	0.12	337503	keystroke	s	n/a
168.9315	0.12	337863	keystroke	Key.space	n/a
169.1565	0.075	338313	keystroke	d	n/a
169.2465	0.12	338493	keystroke	o	n/a
169.3515	0.135	338703	keystroke	d	n/a
169.5615	0.075	339123	keystroke	g	n/a
169.7415	0.105	339483	keystroke	e	n/a
169.8915	0.105	339783	keystroke	Key.space	n/a
170.1015	0.09	340203	keystroke	b	n/a
170.2975	0.104	340595	keystroke	r	n/a
170.4025	0.164	340805	keystroke	e	n/a
170.5815	0.12	341163	keystroke	a	n/a
170.7165	0.105	341433	keystroke	k	n/a
170.9715	0.105	341943	keystroke	Key.space	n/a
171.1065	0.135	342213	keystroke	a	n/a
171.4065	0.105	342813	keystroke	Key.backspace	n/a
171.4965	0.105	342993	keystroke	e	n/a
171.6615	0.105	343323	keystroke	s	n/a
171.8715	0.09	343743	keystroke	t	n/a
172.067	0.119	344134	keystroke	a	n/a
172.246	0.09	344492	keystroke	b	n/a
172.321	0.165	344642	keystroke	l	n/a
172.411	0.12	344822	keystroke	i	n/a
172.516	0.105	345032	keystroke	s	n/a
172.666	0.075	345332	keystroke	h	n/a
172.906	0.045	345812	keystroke	e	n/a
172.921	0.09	345842	keystroke	m	n/a
173.311	0.06	346622	keystroke	Key.backspace	n/a
173.446	0.075	346892	keystroke	Key.backspace	n/a
173.656	0.06	347312	keystroke	m	n/a
173.761	0.105	347522	keystroke	e	n/a
173.836	0.105	347672	keystroke	n	n/a
173.972	0.089	347944	keystroke	t	n/a
174.256	0.105	348512	keystroke	Key.enter	n/a
174.3695	7.508	348739	prompt	n/a	personals policies german install\n
174.901	0.105	349802	keystroke	p	n/a
175.021	0.165	350042	keystroke	e	n/a
175.171	0.0605	350342	keystroke	r	n/a
175.3215	0.1045	350643	keystroke	s	n/a
175.396	0.1505	350792	keystroke	o	n/a
175.531	0.09	351062	keystroke	n	n/a
175.666	0.105	351332	keystroke	a	n/a
175.756	0.12	351512	keystroke	l	n/a
176.026	0.1055	352052	keystroke	s	n/a
176.2355	0.091	352471	keystroke	Key.space	n/a
176.4755	0.106	352951	keystroke	p	n/a
176.6715	0.09	353343	keystroke	o	n/a
176.8665	0.119	353733	keystroke	l	n/a
176.9255	0.135	353851	keystroke	i	n/a
177.0465	0.09	354093	keystroke	c	n/a
177.2715	0.105	354543	keystroke	e	n/a
177.4215	0.105	354843	keystroke	i	n/a
177.5565	0.105	355113	keystroke	s	n/a
177.7965	0.105	355593	keystroke	Key.space	n/a
178.0655	0.075	356131	keystroke	Key.backspace	n/a
178.2005	0.075	356401	keystroke	Key.backspace	n/a
178.3355	0.09	356671	keystroke	Key.backspace	n/a
178.4715	0.104	356943	keystroke	Key.backspace	n/a
178.6965	0.059	357393	keystroke	i	n/a
178.7715	0.105	357543	keystroke	e	n/a
178.9815	0.105	357963	keystroke	s	n/a
179.1755	0.091	358351	keystroke	Key.space	n/a
179.5515	0.045	359103	keystroke	g	n/a
179.6415	0.165	359283	keystroke	e	n/a
179.7615	0.12	359523	keystroke	r	n/a
179.9555	0.1055	359911	keystroke	m	n/a
180.106	0.105	360212	keystroke	a	n/a
180.271	0.09	360542	keystroke	n	n/a
180.466	0.09	360932	keystroke	Key.space	n/a
180.736	0.12	361472	keystroke	i	n/a
180.826	0.09	361652	keystroke	n	n/a
180.931	0.105	361862	keystroke	s	n/a
181.0965	0.09	362193	keystroke	t	n/a
181.2915	0.135	362583	keystroke	a	n/a
181.3965	0.09	362793	keystroke	l	n/a
181.5765	0.075	363153	keystroke	l	n/a
181.7565	0.12	363513	keystroke	Key.enter	n/a
181.8835	6.8945	363767	prompt	n/a	finally growth transcription daddy\n
182.4315	0.09	364863	keystroke	f	n/a
182.5065	0.135	365013	keystroke	i	n/a
182.5965	0.09	365193	keystroke	n	n/a
182.7765	0.03	365553	keystroke	n	n/a
183.091	0.06	366182	keystroke	Key.backspace	n/a
183.211	0.09	366422	keystroke	a	n/a
183.331	0.061	366662	keystroke	l	n/a
183.466	0.091	366932	keystroke	l	n/a
183.602	0.119	367204	keystroke	y	n/a
183.826	0.0905	367652	keystroke	Key.space	n/a
184.0065	0.09	368013	keystroke	g	n/a
184.1715	0.105	368343	keystroke	r	n/a
184.3065	0.165	368613	keystroke	o	n/a
184.5765	0.09	369153	keystroke	w	n/a
184.7415	0.09	369483	keystroke	t	n/a
184.8765	0.105	369753	keystroke	h	n/a
185.0265	0.075	370053	keystroke	Key.space	n/a
185.2065	0.06	370413	keystroke	t	n/a
185.5365	0.09	371073	keystroke	r	n/a
185.7315	0.1205	371463	keystroke	a	n/a
185.8665	0.0745	371733	keystroke	n	n/a
185.956	0.0905	371912	keystroke	s	n/a
186.331	0.1055	372662	keystroke	c	n/a
186.616	0.075	373232	keystroke	r	n/a
186.721	0.12	373442	keystroke	i	n/a
186.946	0.09	373892	keystroke	p	n/a
187.141	0.106	374282	keystroke	t	n/a
187.262	0.225	374524	keystroke	i	n/a
187.322	0.15	374644	keystroke	o	n/a
187.397	0.119	374794	keystroke	n	n/a
187.606	0.105	375212	keystroke	Key.space	n/a
187.816	0.135	375632	keystroke	d	n/a
187.936	0.12	375872	keystroke	a	n/a
188.041	0.135	376082	keystroke	d	n/a
188.251	0.076	376502	keystroke	d	n/a
188.476	0.09	376952	keystroke	y	n/a
188.641	0.135	377282	keystroke	Key.enter	n/a
188.784	4.4195	377568	prompt	n/a	folding pain violin done\n
189.376	0.121	378752	keystroke	f	n/a
189.527	0.09	379054	keystroke	o	n/a
189.706	0.12	379412	keystroke	l	n/a
189.812	0.119	379624	keystroke	d	n/a
189.901	0.166	379802	keystroke	i	n/a
189.991	0.105	379982	keystroke	n	n/a
190.127	0.119	380254	keystroke	g	n/a
190.261	0.135	380522	keystroke	Key.space	n/a
190.531	0.06	381062	keystroke	p	n/a
190.666	0.09	381332	keystroke	a	n/a
190.742	0.1345	381484	keystroke	i	n/a
190.801	0.1055	381602	keystroke	n	n/a
190.9965	0.105	381993	keystroke	Key.space	n/a
191.1915	0.12	382383	keystroke	v	n/a
191.3415	0.03	382683	keystroke	o	n/a
191.5965	0.075	383193	keystroke	Key.backspace	n/a
191.7765	0.075	383553	keystroke	i	n/a
191.8965	0.09	383793	keystroke	o	n/a
192.0915	0.105	384183	keystroke	l	n/a
192.1815	0.135	384363	keystroke	i	n/a
192.2865	0.09	384573	keystroke	n	n/a
192.4515	0.075	384903	keystroke	Key.space	n/a
192.5715	0.09	385143	keystroke	d	n/a
192.6615	0.105	385323	keystroke	o	n/a
192.8115	0.075	385623	keystroke	n	n/a
192.9315	0.09	385863	keystroke	e	n/a
193.0965	0.105	386193	keystroke	Key.enter	n/a
193.208	7.99	386416	prompt	n/a	woman waiting pursuit conditional\n
193.6815	0.119	387363	keystroke	w	n/a
194.1165	0.09	388233	keystroke	o	n/a
194.2215	0.075	388443	keystroke	m	n/a
194.3115	0.09	388623	keystroke	e	n/a
194.6555	0.061	389311	keystroke	Key.backspace	n/a
194.9715	0.105	389943	keystroke	a	n/a
195.0765	0.09	390153	keystroke	n	n/a
195.1805	0.12	390361	keystroke	Key.space	n/a
195.3315	0.12	390663	keystroke	w	n/a
195.5115	0.105	391023	keystroke	a	n/a
195.8265	0.075	391653	keystroke	t	n/a
195.9315	0.09	391863	keystroke	i	n/a
196.1865	0.044	392373	keystroke	Key.backspace	n/a
196.3055	0.076	392611	keystroke	Key.backspace	n/a
196.4865	0.075	392973	keystroke	i	n/a
196.5765	0.09	393153	keystroke	t	n/a
196.6815	0.165	393363	keystroke	i	n/a
196.8015	0.09	393603	keystroke	n	n/a
196.8915	0.1055	393783	keystroke	g	n/a
197.446	0.105	394892	keystroke	Key.space	n/a
197.671	0.076	395342	keystroke	p	n/a
197.836	0.106	395672	keystroke	u	n/a
197.987	0.104	395974	keystroke	r	n/a
198.526	0.12	397052	keystroke	s	n/a
198.631	0.075	397262	keystroke	u	n/a
198.841	0.09	397682	keystroke	i	n/a
199.037	0.03	398074	keystroke	t	n/a
199.306	0.105	398612	keystroke	Key.space	n/a
199.517	0.105	399034	keystroke	c	n/a
199.591	0.121	399182	keystroke	o	n/a
199.651	0.105	399302	keystroke	n	n/a
199.802	0.134	399604	keystroke	d	n/a
199.921	0.09	399842	keystroke	i	n/a
200.251	0.105	400502	keystroke	t	n/a
200.342	0.239	400684	keystroke	i	n/a
200.432	0.119	400864	keystroke	o	n/a
200.491	0.121	400982	keystroke	n	n/a
200.627	0.135	401254	keystroke	a	n/a
200.777	0.12	401554	keystroke	l	n/a
201.076	0.12	402152	keystroke	Key.enter	n/a
201.2045	10.074	402409	prompt	n/a	voyuer curious tripadvisor france\n
201.7065	0.105	403413	keystroke	v	n/a
201.9755	0.121	403951	keystroke	o	n/a
202.2455	0.091	404491	keystroke	y	n/a
202.471	0.0905	404942	keystroke	u	n/a
202.6215	0.1205	405243	keystroke	e	n/a
202.8305	0.091	405661	keystroke	r	n/a
202.9805	0.09	405961	keystroke	Key.space	n/a
203.1755	0.121	406351	keystroke	c	n/a
203.4615	0.075	406923	keystroke	u	n/a
203.5965	0.105	407193	keystroke	r	n/a
203.8805	0.106	407761	keystroke	i	n/a
204.0755	0.091	408151	keystroke	o	n/a
204.1955	0.106	408391	keystroke	u	n/a
204.3315	0.105	408663	keystroke	s	n/a
206.1155	0.18	412231	keystroke	Key.space	n/a
206.3115	0.015	412623	keystroke	t	n/a
206.4165	0.075	412833	keystroke	r	n/a
206.5665	0.135	413133	keystroke	i	n/a
206.7615	0.15	413523	keystroke	p	n/a
207.1665	0.135	414333	keystroke	a	n/a
207.5715	0.135	415143	keystroke	d	n/a
207.8115	0.135	415623	keystroke	a	n/a
208.1115	0.045	416223	keystroke	v	n/a
208.4115	0.075	416823	keystroke	i	n/a
208.7265	0.045	417453	keystroke	s	n/a
208.8765	0.105	417753	keystroke	o	n/a
209.1765	0.105	418353	keystroke	r	n/a
209.3715	0.105	418743	keystroke	Key.space	n/a
209.612	0.059	419224	keystroke	f	n/a
209.776	0.136	419552	keystroke	a	n/a
210.076	0.075	420152	keystroke	Key.backspace	n/a
210.212	0.105	420424	keystroke	r	n/a
210.481	0.121	420962	keystroke	a	n/a
210.631	0.09	421262	keystroke	n	n/a
210.737	0.105	421474	keystroke	c	n/a
210.962	0.075	421924	keystroke	e	n/a
211.141	0.135	422282	keystroke	Key.enter	n/a
211.284	11.305	422568	prompt	n/a	linked evaluations entertaining algeria\n
212.012	0.15	424024	keystroke	l	n/a
212.101	0.105	424202	keystroke	i	n/a
212.672	0.149	425344	keystroke	n	n/a
212.747	0.089	425494	keystroke	k	n/a
212.911	0.075	425822	keystroke	e	n/a
213.106	0.09	426212	keystroke	d	n/a
213.226	0.105	426452	keystroke	Key.space	n/a
213.481	0.075	426962	keystroke	e	n/a
213.631	0.12	427262	keystroke	v	n/a
213.931	0.135	427862	keystroke	a	n/a
214.081	0.12	428162	keystroke	l	n/a
214.291	0.091	428582	keystroke	u	n/a
214.606	0.105	429212	keystroke	a	n/a
214.876	0.045	429752	keystroke	t	n/a
214.906	0.24	429812	keystroke	i	n/a
214.966	0.15	429932	keystroke	o	n/a
215.056	0.105	430112	keystroke	n	n/a
215.176	0.12	430352	keystroke	s	n/a
215.311	0.09	430622	keystroke	Key.space	n/a
215.491	0.09	430982	keystroke	e	n/a
215.701	0.06	431402	keystroke	r	n/a
216.106	0.06	432212	keystroke	Key.backspace	n/a
216.301	0.046	432602	keystroke	n	n/a
216.376	0.09	432752	keystroke	t	n/a
216.526	0.135	433052	keystroke	e	n/a
216.631	0.106	433262	keystroke	r	n/a
216.721	0.196	433442	keystroke	i	n/a
216.811	0.12	433622	keystroke	n	n/a
217.156	0.075	434312	keystroke	Key.backspace	n/a
217.306	0.105	434612	keystroke	Key.backspace	n/a
217.712	0.089	435424	keystroke	t	n/a
217.936	0.106	435872	keystroke	a	n/a
218.042	0.179	436084	keystroke	i	n/a
218.191	0.105	436382	keystroke	n	n/a
218.941	0.105	437882	keystroke	i	n/a
219.001	0.091	438002	keystroke	n	n/a
219.121	0.135	438242	keystroke	g	n/a
219.271	0.105	438542	keystroke	Key.space	n/a
219.751	0.135	439502	keystroke	a	n/a
219.871	0.12	439742	keystroke	l	n/a
220.036	0.12	440072	keystroke	g	n/a
220.321	0.0755	440642	keystroke	r	n/a
220.5615	0.135	441123	keystroke	e	n/a
220.9215	0.06	441843	keystroke	Key.backspace	n/a
221.0575	0.073	442115	keystroke	Key.backspace	n/a
221.1465	0.09	442293	keystroke	e	n/a
221.3115	0.12	442623	keystroke	r	n/a
221.5665	0.09	443133	keystroke	i	n/a
221.8805	0.076	443761	keystroke	b	n/a
222.1955	0.105	444391	keystroke	Key.backspace	n/a
222.2865	0.135	444573	keystroke	a	n/a
222.4665	0.12	444933	keystroke	Key.enter	n/a
222.5935	5.5455	445187	prompt	n/a	raising get basement limitation\n
223.2915	0.09	446583	keystroke	r	n/a
223.4565	0.12	446913	keystroke	a	n/a
223.637	0.075	447274	keystroke	i	n/a
223.756	0.09	447512	keystroke	s	n/a
223.862	0.165	447724	keystroke	i	n/a
224.012	0.059	448024	keystroke	n	n/a
224.146	0.0755	448292	keystroke	g	n/a
224.5505	0.091	449101	keystroke	Key.space	n/a
224.7465	0.075	449493	keystroke	g	n/a
224.8515	0.135	449703	keystroke	e	n/a
225.0015	0.09	450003	keystroke	t	n/a
225.1075	0.089	450215	keystroke	Key.space	n/a
225.2415	0.09	450483	keystroke	b	n/a
225.3765	0.09	450753	keystroke	a	n/a
225.5115	0.09	451023	keystroke	s	n/a
225.6915	0.09	451383	keystroke	e	n/a
225.8265	0.106	451653	keystroke	m	n/a
225.9165	0.105	451833	keystroke	e	n/a
226.0365	0.09	452073	keystroke	n	n/a
226.1415	0.105	452283	keystroke	t	n/a
226.2615	0.105	452523	keystroke	Key.space	n/a
226.3965	0.15	452793	keystroke	l	n/a
226.5165	0.135	453033	keystroke	i	n/a
226.6815	0.15	453363	keystroke	m	n/a
226.8465	0.12	453693	keystroke	i	n/a
226.9815	0.09	453963	keystroke	t	n/a
227.2065	0.09	454413	keystroke	a	n/a
227.3865	0.09	454773	keystroke	t	n/a
227.4315	0.255	454863	keystroke	i	n/a
227.4925	0.164	454985	keystroke	o	n/a
227.5515	0.165	455103	keystroke	n	n/a
228.0015	0.135	456003	keystroke	Key.enter	n/a
228.1465	8.9165	456293	prompt	n/a	tongue exclude soldiers grounds\n
228.7065	0.09	457413	keystroke	t	n/a
228.8265	0.12	457653	keystroke	o	n/a
228.9615	0.135	457923	keystroke	u	n/a
229.2915	0.06	458583	keystroke	Key.backspace	n/a
229.5175	0.089	459035	keystroke	n	n/a
229.7565	0.105	459513	keystroke	g	n/a
229.8915	0.105	459783	keystroke	u	n/a
230.0415	0.09	460083	keystroke	e	n/a
230.4915	0.105	460983	keystroke	Key.space	n/a
230.6415	0.09	461283	keystroke	e	n/a
230.8815	0.09	461763	keystroke	x	n/a
231.0315	0.09	462063	keystroke	c	n/a
231.1065	0.135	462213	keystroke	l	n/a
231.4965	0.09	462993	keystroke	u	n/a
231.5715	0.075	463143	keystroke	d	n/a
231.7815	0.09	463563	keystroke	e	n/a
232.2765	0.105	464553	keystroke	Key.space	n/a
232.4115	0.105	464823	keystroke	s	n/a
232.5175	0.104	465035	keystroke	o	n/a
232.6965	0.12	465393	keystroke	l	n/a
233.0715	0.09	466143	keystroke	i	n/a
233.5065	0.045	467013	keystroke	Key.backspace	n/a
233.6715	0.09	467343	keystroke	d	n/a
233.8365	0.09	467673	keystroke	i	n/a
234.0765	0.105	468153	keystroke	e	n/a
234.5715	0.09	469143	keystroke	r	n/a
235.2165	0.09	470433	keystroke	s	n/a
235.4115	0.09	470823	keystroke	Key.space	n/a
235.6365	0.06	471273	keystroke	g	n/a
235.8015	0.09	471603	keystroke	r	n/a
235.9065	0.06	471813	keystroke	o	n/a
235.9815	0.09	471963	keystroke	u	n/a
236.1765	0.09	472353	keystroke	n	n/a
236.2815	0.12	472563	keystroke	d	n/a
236.7915	0.105	473583	keystroke	s	n/a
236.9265	0.135	473853	keystroke	Key.enter	n/a
237.0675	9.4315	474135	prompt	n/a	armstrong refined herbs boston\n
237.5715	0.12	475143	keystroke	a	n/a
237.8415	0.06	475683	keystroke	r	n/a
238.0065	0.12	476013	keystroke	m	n/a
238.1865	0.12	476373	keystroke	s	n/a
238.3815	0.09	476763	keystroke	t	n/a
238.576	0.09	477152	keystroke	r	n/a
238.7715	0.135	477543	keystroke	o	n/a
238.8755	0.106	477751	keystroke	n	n/a
239.0105	0.09	478021	keystroke	g	n/a
239.4455	0.09	478891	keystroke	Key.space	n/a
239.6265	0.089	479253	keystroke	r	n/a
239.7315	0.12	479463	keystroke	e	n/a
242.6295	0.071	485259	keystroke	i	n/a
242.6565	0.075	485313	keystroke	n	n/a
242.8955	0.075	485791	keystroke	Key.backspace	n/a
243.046	0.06	486092	keystroke	Key.backspace	n/a
243.151	0.105	486302	keystroke	f	n/a
243.286	0.15	486572	keystroke	i	n/a
243.361	0.105	486722	keystroke	n	n/a
243.481	0.075	486962	keystroke	e	n/a
243.676	0.09	487352	keystroke	d	n/a
243.751	0.12	487502	keystroke	Key.space	n/a
244.126	0.105	488252	keystroke	h	n/a
244.216	0.135	488432	keystroke	e	n/a
244.352	0.104	488704	keystroke	r	n/a
244.591	0.09	489182	keystroke	b	n/a
244.846	0.09	489692	keystroke	s	n/a
244.951	0.09	489902	keystroke	Key.space	n/a
245.281	0.075	490562	keystroke	b	n/a
245.341	0.135	490682	keystroke	o	n/a
245.431	0.09	490862	keystroke	s	n/a
245.596	0.105	491192	keystroke	t	n/a
245.866	0.135	491732	keystroke	o	n/a
245.971	0.09	491942	keystroke	n	n/a
246.361	0.135	492722	keystroke	Key.enter	n/a
246.5045	9.624	493009	prompt	n/a	bernard protect shade cultural\n
247.171	0.03	494342	keystroke	b	n/a
247.321	0.12	494642	keystroke	e	n/a
247.531	0.075	495062	keystroke	r	n/a
247.681	0.105	495362	keystroke	n	n/a
247.846	0.135	495692	keystroke	a	n/a
248.1915	0.075	496383	keystroke	r	n/a
248.4015	0.135	496803	keystroke	d	n/a
248.5655	0.121	497131	keystroke	Key.space	n/a
248.8065	0.075	497613	keystroke	p	n/a
248.9415	0.09	497883	keystroke	r	n/a
249.0465	0.075	498093	keystroke	o	n/a
249.4365	0.105	498873	keystroke	t	n/a
249.6615	0.06	499323	keystroke	e	n/a
249.8565	0.09	499713	keystroke	c	n/a
250.0815	0.135	500163	keystroke	t	n/a
250.2315	0.12	500463	keystroke	Key.space	n/a
250.6215	0.09	501243	keystroke	a	n/a
250.9215	0.09	501843	keystroke	Key.backspace	n/a
250.9965	0.105	501993	keystroke	s	n/a
251.1165	0.165	502233	keystroke	a	n/a
251.7765	0.045	503553	keystroke	Key.backspace	n/a
251.957	0.0745	503914	keystroke	h	n/a
252.0465	0.12	504093	keystroke	a	n/a
252.1675	0.089	504335	keystroke	d	n/a
252.3615	0.105	504723	keystroke	e	n/a
252.6615	0.09	505323	keystroke	Key.space	n/a
252.9015	0.105	505803	keystroke	c	n/a
253.0215	0.105	506043	keystroke	u	n/a
253.2015	0.06	506403	keystroke	t	n/a
253.2765	0.12	506553	keystroke	l	n/a
253.7265	0.015	507453	keystroke	Key.backspace	n/a
253.8165	0.075	507633	keystroke	Key.backspace	n/a
254.0415	0.09	508083	keystroke	l	n/a
254.1465	0.075	508293	keystroke	t	n/a
254.6715	0.075	509343	keystroke	u	n/a
254.7765	0.09	509553	keystroke	r	n/a
254.9715	0.135	509943	keystroke	a	n/a
255.0615	0.12	510123	keystroke	l	n/a
256.0215	0.105	512043	keystroke	Key.enter	n/a
256.1335	9.205	512267	prompt	n/a	employer lexington brands surname\n
256.6515	0.075	513303	keystroke	e	n/a
256.9965	0.105	513993	keystroke	m	n/a
257.1765	0.105	514353	keystroke	p	n/a
257.3715	0.09	514743	keystroke	l	n/a
257.5515	0.12	515103	keystroke	o	n/a
257.7165	0.09	515433	keystroke	t	n/a
258.0015	0.09	516003	keystroke	e	n/a
258.1815	0.0745	516363	keystroke	Key.backspace	n/a
258.331	0.075	516662	keystroke	Key.backspace	n/a
258.361	0.105	516722	keystroke	y	n/a
258.587	0.089	517174	keystroke	e	n/a
258.736	0.121	517472	keystroke	r	n/a
258.901	0.09	517802	keystroke	Key.space	n/a
259.126	0.105	518252	keystroke	l	n/a
259.216	0.075	518432	keystroke	e	n/a
259.426	0.136	518852	keystroke	x	n/a
259.696	0.09	519392	keystroke	i	n/a
259.9365	0.09	519873	keystroke	n	n/a
260.0565	0.1195	520113	keystroke	g	n/a
260.371	0.09	520742	keystroke	t	n/a
260.476	0.105	520952	keystroke	o	n/a
260.582	0.074	521164	keystroke	n	n/a
260.851	0.09	521702	keystroke	Key.space	n/a
261.166	0.06	522332	keystroke	b	n/a
262.4565	0.089	524913	keystroke	r	n/a
262.6505	0.091	525301	keystroke	a	n/a
262.7265	0.119	525453	keystroke	n	n/a
262.8615	0.105	525723	keystroke	d	n/a
263.1165	0.06	526233	keystroke	s	n/a
263.3565	0.105	526713	keystroke	Key.space	n/a
263.6715	0.12	527343	keystroke	s	n/a
263.8365	0.075	527673	keystroke	u	n/a
263.9565	0.09	527913	keystroke	r	n/a
264.7815	0.105	529563	keystroke	n	n/a
264.9015	0.075	529803	keystroke	a	n/a
264.9915	0.105	529983	keystroke	m	n/a
265.0665	0.105	530133	keystroke	e	n/a
265.2315	0.105	530463	keystroke	Key.enter	n/a
265.347	8.047	530694	prompt	n/a	worry outdoor disorders mumbai\n
265.8615	0.1045	531723	keystroke	w	n/a
265.981	0.075	531962	keystroke	o	n/a
266.086	0.075	532172	keystroke	r	n/a
266.236	0.09	532472	keystroke	r	n/a
266.476	0.105	532952	keystroke	y	n/a
266.626	0.105	533252	keystroke	Key.space	n/a
266.941	0.105	533882	keystroke	o	n/a
267.091	0.12	534182	keystroke	u	n/a
267.212	0.089	534424	keystroke	t	n/a
267.616	0.135	535232	keystroke	d	n/a
267.856	0.09	535712	keystroke	o	n/a
268.021	0.09	536042	keystroke	o	n/a
268.171	0.12	536342	keystroke	r	n/a
268.381	0.135	536762	keystroke	Key.space	n/a
268.651	0.1055	537302	keystroke	d	n/a
268.7415	0.105	537483	keystroke	i	n/a
268.8315	0.0895	537663	keystroke	s	n/a
268.996	0.135	537992	keystroke	c	n/a
269.162	0.104	538324	keystroke	o	n/a
269.461	0.06	538922	keystroke	Key.backspace	n/a
269.596	0.075	539192	keystroke	Key.backspace	n/a
270.062	0.074	540124	keystroke	o	n/a
270.241	0.06	540482	keystroke	r	n/a
270.421	0.091	540842	keystroke	d	n/a
270.707	0.074	541414	keystroke	e	n/a
270.842	0.059	541684	keystroke	r	n/a
271.066	0.091	542132	keystroke	s	n/a
271.321	0.12	542642	keystroke	Key.space	n/a
272.086	0.091	544172	keystroke	m	n/a
272.312	0.059	544624	keystroke	u	n/a
272.536	0.076	545072	keystroke	m	n/a
272.732	0.105	545464	keystroke	b	n/a
272.986	0.12	545972	keystroke	a	n/a
273.091	0.09	546182	keystroke	i	n/a
273.286	0.1055	546572	keystroke	Key.enter	n/a
273.3975	7.781	546795	prompt	n/a	wayne utah declare constraint\n
273.917	0.104	547834	keystroke	w	n/a
274.112	0.119	548224	keystroke	a	n/a
274.351	0.09	548702	keystroke	y	n/a
274.531	0.09	549062	keystroke	n	n/a
274.756	0.105	549512	keystroke	e	n/a
275.326	0.105	550652	keystroke	Key.space	n/a
275.566	0.09	551132	keystroke	u	n/a
275.701	0.075	551402	keystroke	t	n/a
275.926	0.105	551852	keystroke	a	n/a
276.196	0.105	552392	keystroke	h	n/a
276.451	0.075	552902	keystroke	Key.space	n/a
276.676	0.105	553352	keystroke	d	n/a
277.021	0.09	554042	keystroke	e	n/a
277.231	0.12	554462	keystroke	l	n/a
277.531	0.075	555062	keystroke	Key.backspace	n/a
277.591	0.12	555182	keystroke	c	n/a
277.741	0.105	555482	keystroke	l	n/a
277.891	0.135	555782	keystroke	a	n/a
278.191	0.12	556382	keystroke	r	n/a
278.326	0.15	556652	keystroke	e	n/a
278.461	0.12	556922	keystroke	Key.space	n/a
278.686	0.09	557372	keystroke	c	n/a
278.791	0.12	557582	keystroke	o	n/a
278.866	0.075	557732	keystroke	n	n/a
278.986	0.09	557972	keystroke	s	n/a
279.211	0.105	558422	keystroke	t	n/a
279.9015	0.135	559803	keystroke	r	n/a
280.3665	0.12	560733	keystroke	a	n/a
280.5165	0.15	561033	keystroke	i	n/a
280.6215	0.12	561243	keystroke	n	n/a
280.7865	0.075	561573	keystroke	t	n/a
281.0715	0.105	562143	keystroke	Key.enter	n/a
281.184	8.5145	562368	prompt	n/a	awards representations buildings tracking\n
281.7765	0.03	563553	keystroke	a	n/a
281.9865	0.09	563973	keystroke	w	n/a
282.1215	0.15	564243	keystroke	a	n/a
282.4515	0.06	564903	keystroke	r	n/a
282.6465	0.105	565293	keystroke	d	n/a
282.7665	0.135	565533	keystroke	s	n/a
282.9465	0.09	565893	keystroke	Key.space	n/a
283.2465	0.09	566493	keystroke	r	n/a
283.3515	0.105	566703	keystroke	e	n/a
283.5165	0.105	567033	keystroke	p	n/a
283.6365	0.075	567273	keystroke	r	n/a
283.7415	0.12	567483	keystroke	e	n/a
283.9965	0.09	567993	keystroke	s	n/a
284.2215	0.075	568443	keystroke	e	n/a
284.3415	0.09	568683	keystroke	n	n/a
284.4465	0.09	568893	keystroke	t	n/a
284.6865	0.09	569373	keystroke	a	n/a
284.8515	0.09	569703	keystroke	t	n/a
284.9265	0.225	569853	keystroke	i	n/a
285.0165	0.105	570033	keystroke	o	n/a
285.0615	0.135	570123	keystroke	n	n/a
285.1815	0.105	570363	keystroke	s	n/a
285.3015	0.105	570603	keystroke	Key.space	n/a
285.4975	0.074	570995	keystroke	b	n/a
285.7065	0.075	571413	keystroke	r	n/a
286.066	0.06	572132	keystroke	Key.backspace	n/a
286.2455	0.136	572491	keystroke	u	n/a
286.3215	0.075	572643	keystroke	9	n/a
286.7405	0.06	573481	keystroke	Key.backspace	n/a
286.8915	0.09	573783	keystroke	i	n/a
287.0265	0.12	574053	keystroke	l	n/a
287.1465	0.12	574293	keystroke	d	n/a
287.6715	0.165	575343	keystroke	i	n/a
287.7465	0.12	575493	keystroke	n	n/a
287.8815	0.1045	575763	keystroke	g	n/a
288.091	0.105	576182	keystroke	s	n/a
288.211	0.09	576422	keystroke	Key.space	n/a
288.421	0.06	576842	keystroke	t	n/a
288.571	0.06	577142	keystroke	r	n/a
288.751	0.075	577502	keystroke	a	n/a
288.901	0.105	577802	keystroke	c	n/a
288.991	0.075	577982	keystroke	k	n/a
289.246	0.15	578492	keystroke	i	n/a
289.336	0.105	578672	keystroke	n	n/a
289.381	0.09	578762	keystroke	g	n/a
289.591	0.105	579182	keystroke	Key.enter	n/a
289.7025	9.341	579405	prompt	n/a	economics hospital canvas historical\n
290.281	0.105	580562	keystroke	e	n/a
290.716	0.09	581432	keystroke	n	n/a
291.181	0.075	582362	keystroke	Key.backspace	n/a
291.331	0.075	582662	keystroke	c	n/a
291.511	0.105	583022	keystroke	o	n/a
291.721	0.06	583442	keystroke	n	n/a
291.9615	0.12	583923	keystroke	o	n/a
292.1115	0.06	584223	keystroke	m	n/a
292.4265	0.09	584853	keystroke	i	n/a
292.8015	0.135	585603	keystroke	c	n/a
293.0115	0.135	586023	keystroke	s	n/a
293.2815	0.105	586563	keystroke	Key.space	n/a
293.5365	0.134	587073	keystroke	h	n/a
293.6565	0.12	587313	keystroke	o	n/a
293.9865	0.075	587973	keystroke	p	n/a
294.3015	0.06	588603	keystroke	Key.backspace	n/a
294.3765	0.09	588753	keystroke	s	n/a
294.5865	0.12	589173	keystroke	p	n/a
294.7365	0.09	589473	keystroke	o	n/a
295.1565	0.045	590313	keystroke	Key.backspace	n/a
295.3065	0.075	590613	keystroke	i	n/a
295.4415	0.105	590883	keystroke	t	n/a
295.6965	0.12	591393	keystroke	a	n/a
295.8315	0.075	591663	keystroke	l	n/a
296.1165	0.105	592233	keystroke	Key.space	n/a
296.3865	0.135	592773	keystroke	c	n/a
296.5365	0.135	593073	keystroke	a	n/a
296.6865	0.06	593373	keystroke	n	n/a
296.8065	0.09	593613	keystroke	v	n/a
296.9715	0.12	593943	keystroke	a	n/a
297.1365	0.105	594273	keystroke	s	n/a
297.2705	0.121	594541	keystroke	Key.space	n/a
297.4665	0.12	594933	keystroke	h	n/a
297.6025	0.0885	595205	keystroke	i	n/a
297.706	0.061	595412	keystroke	s	n/a
297.917	0.09	595834	keystroke	t	n/a
298.007	0.134	596014	keystroke	o	n/a
298.157	0.06	596314	keystroke	r	n/a
298.262	0.105	596524	keystroke	i	n/a
298.457	0.12	596914	keystroke	c	n/a
298.592	0.104	597184	keystroke	a	n/a
298.667	0.104	597334	keystroke	l	n/a
298.921	0.12	597842	keystroke	Key.enter	n/a
299.048	9.295	598096	prompt	n/a	opening instructors wizard highlight\n
299.612	0.1045	599224	keystroke	o	n/a
299.8065	0.1045	599613	keystroke	p	n/a
300.076	0.105	600152	keystroke	e	n/a
300.196	0.075	600392	keystroke	n	n/a
300.391	0.165	600782	keystroke	i	n/a
300.466	0.12	600932	keystroke	n	n/a
300.646	0.12	601292	keystroke	g	n/a
300.826	0.105	601652	keystroke	Key.space	n/a
301.096	0.165	602192	keystroke	i	n/a
301.186	0.105	602372	keystroke	n	n/a
301.351	0.09	602702	keystroke	s	n/a
301.576	0.06	603152	keystroke	t	n/a
301.741	0.09	603482	keystroke	r	n/a
301.921	0.075	603842	keystroke	u	n/a
302.041	0.12	604082	keystroke	c	n/a
302.297	0.0745	604594	keystroke	t	n/a
302.4015	0.105	604803	keystroke	o	n/a
302.6115	0.045	605223	keystroke	r	n/a
302.8215	0.12	605643	keystroke	s	n/a
303.0155	0.091	606031	keystroke	Key.space	n/a
303.2865	0.06	606573	keystroke	w	n/a
303.5265	0.09	607053	keystroke	i	n/a
304.0365	0.09	608073	keystroke	z	n/a
304.261	0.09	608522	keystroke	a	n/a
304.441	0.075	608882	keystroke	r	n/a
304.6365	0.1045	609273	keystroke	d	n/a
304.846	0.075	609692	keystroke	Key.space	n/a
305.027	0.105	610054	keystroke	h	n/a
305.146	0.076	610292	keystroke	i	n/a
305.252	0.105	610504	keystroke	g	n/a
305.357	0.12	610714	keystroke	h	n/a
305.521	0.165	611042	keystroke	l	n/a
305.642	0.09	611284	keystroke	i	n/a
305.822	0.075	611644	keystroke	g	n/a
305.882	0.12	611764	keystroke	h	n/a
306.2705	0.0315	612541	keystroke	Key.backspace	n/a
306.737	0.045	613474	keystroke	h	n/a
306.796	0.045	613592	keystroke	t	n/a
307.037	0.105	614074	keystroke	s	n/a
307.966	0.09	615932	keystroke	Key.backspace	n/a
308.221	0.12	616442	keystroke	Key.enter	n/a
308.349	10.1495	616698	prompt	n/a	conferencing races prayer cardiff\n
308.972	0.135	617944	keystroke	c	n/a
309.077	0.12	618154	keystroke	o	n/a
309.347	0.09	618694	keystroke	n	n/a
309.586	0.06	619172	keystroke	g	n/a
310.0215	0.074	620043	keystroke	Key.backspace	n/a
310.1565	0.075	620313	keystroke	f	n/a
310.3365	0.104	620673	keystroke	e	n/a
310.501	0.075	621002	keystroke	r	n/a
310.591	0.105	621182	keystroke	e	n/a
310.741	0.105	621482	keystroke	n	n/a
310.876	0.105	621752	keystroke	c	n/a
311.041	0.15	622082	keystroke	i	n/a
311.131	0.0905	622262	keystroke	n	n/a
311.236	0.105	622472	keystroke	g	n/a
311.4915	0.1195	622983	keystroke	Key.space	n/a
311.881	0.09	623762	keystroke	r	n/a
312.061	0.12	624122	keystroke	a	n/a
312.286	0.12	624572	keystroke	c	n/a
312.4965	0.06	624993	keystroke	e	n/a
312.6465	0.106	625293	keystroke	s	n/a
312.7665	0.075	625533	keystroke	Key.space	n/a
312.9315	0.09	625863	keystroke	p	n/a
313.0665	0.075	626133	keystroke	a	n/a
313.1565	0.15	626313	keystroke	l	n/a
313.3215	0.075	626643	keystroke	y	n/a
313.5315	0.105	627063	keystroke	e	n/a
313.8465	0.06	627693	keystroke	Key.backspace	n/a
313.9815	0.06	627963	keystroke	Key.backspace	n/a
314.1015	0.09	628203	keystroke	Key.backspace	n/a
314.4765	0.06	628953	keystroke	Key.backspace	n/a
314.5965	0.09	629193	keystroke	r	n/a
314.7615	0.135	629523	keystroke	a	n/a
315.0015	0.09	630003	keystroke	y	n/a
315.2265	0.15	630453	keystroke	e	n/a
315.3615	0.09	630723	keystroke	r	n/a
315.4965	0.09	630993	keystroke	Key.space	n/a
315.7065	0.135	631413	keystroke	d	n/a
316.0365	0.09	632073	keystroke	Key.backspace	n/a
316.1115	0.12	632223	keystroke	c	n/a
316.2165	0.06	632433	keystroke	a	n/a
316.3815	0.075	632763	keystroke	r	n/a
316.6665	0.105	633333	keystroke	d	n/a
316.9065	0.075	633813	keystroke	f	n/a
317.0115	0.105	634023	keystroke	i	n/a
317.2365	0.09	634473	keystroke	f	n/a
317.4765	0.045	634953	keystroke	Key.backspace	n/a
317.5965	0.06	635193	keystroke	Key.backspace	n/a
317.7465	0.06	635493	keystroke	Key.backspace	n/a
317.9115	0.09	635823	keystroke	i	n/a
318.0315	0.06	636063	keystroke	f	n/a
318.1665	0.12	636333	keystroke	f	n/a
318.3915	0.105	636783	keystroke	Key.enter	n/a
318.503	8.921	637006	prompt	n/a	strategies wallace weblogs install\n
319.2315	0.075	638463	keystroke	s	n/a
319.4565	0.09	638913	keystroke	t	n/a
319.8315	0.09	639663	keystroke	r	n/a
320.1765	0.09	640353	keystroke	a	n/a
320.3565	0.075	640713	keystroke	t	n/a
320.5215	0.12	641043	keystroke	e	n/a
320.8965	0.09	641793	keystroke	g	n/a
321.0165	0.12	642033	keystroke	i	n/a
321.0765	0.09	642153	keystroke	e	n/a
321.2865	0.09	642573	keystroke	s	n/a
321.3915	0.075	642783	keystroke	Key.space	n/a
321.5265	0.09	643053	keystroke	w	n/a
321.6765	0.105	643353	keystroke	a	n/a
321.7665	0.075	643533	keystroke	l	n/a
321.9165	0.09	643833	keystroke	l	n/a
321.9915	0.09	643983	keystroke	e	n/a
322.4715	0.06	644943	keystroke	Key.backspace	n/a
322.5915	0.12	645183	keystroke	a	n/a
322.7415	0.075	645483	keystroke	n	n/a
322.9515	0.075	645903	keystroke	c	n/a
323.2065	0.045	646413	keystroke	Key.backspace	n/a
323.3565	0.045	646713	keystroke	Key.backspace	n/a
323.6415	0.09	647283	keystroke	c	n/a
323.8515	0.105	647703	keystroke	e	n/a
324.0015	0.105	648003	keystroke	Key.space	n/a
324.1815	0.0595	648363	keystroke	w	n/a
324.466	0.075	648932	keystroke	e	n/a
324.6615	0.09	649323	keystroke	b	n/a
325.0815	0.075	650163	keystroke	l	n/a
325.2615	0.09	650523	keystroke	o	n/a
325.3065	0.09	650613	keystroke	g	n/a
325.5315	0.09	651063	keystroke	s	n/a
325.7265	0.105	651453	keystroke	Key.space	n/a
325.9815	0.135	651963	keystroke	i	n/a
326.0715	0.075	652143	keystroke	n	n/a
326.2365	0.045	652473	keystroke	s	n/a
326.3565	0.09	652713	keystroke	t	n/a
326.8815	0.12	653763	keystroke	a	n/a
326.9865	0.06	653973	keystroke	l	n/a
327.1365	0.075	654273	keystroke	l	n/a
327.3165	0.105	654633	keystroke	Key.enter	n/a
327.43	8.588	654860	prompt	n/a	strategic assessment employers healthy\n
327.841	0.09	655682	keystroke	s	n/a
328.096	0.09	656192	keystroke	t	n/a
328.291	0.075	656582	keystroke	r	n/a
328.501	0.09	657002	keystroke	a	n/a
328.696	0.075	657392	keystroke	t	n/a
328.876	0.075	657752	keystroke	e	n/a
329.071	0.03	658142	keystroke	g	n/a
329.146	0.12	658292	keystroke	i	n/a
329.312	0.119	658624	keystroke	c	n/a
329.491	0.105	658982	keystroke	Key.space	n/a
329.611	0.12	659222	keystroke	a	n/a
329.701	0.091	659402	keystroke	s	n/a
329.911	0.03	659822	keystroke	s	n/a
330.121	0.09	660242	keystroke	e	n/a
330.346	0.06	660692	keystroke	s	n/a
330.526	0.06	661052	keystroke	s	n/a
330.751	0.09	661502	keystroke	m	n/a
330.857	0.074	661714	keystroke	e	n/a
330.946	0.09	661892	keystroke	n	n/a
331.051	0.09	662102	keystroke	t	n/a
331.381	0.105	662762	keystroke	Key.space	n/a
331.606	0.106	663212	keystroke	e	n/a
331.831	0.135	663662	keystroke	m	n/a
331.981	0.105	663962	keystroke	p	n/a
332.146	0.15	664292	keystroke	l	n/a
332.356	0.075	664712	keystroke	y	n/a
332.821	0.045	665642	keystroke	Key.backspace	n/a
332.986	0.09	665972	keystroke	o	n/a
333.106	0.075	666212	keystroke	y	n/a
333.301	0.12	666602	keystroke	e	n/a
333.406	0.075	666812	keystroke	r	n/a
333.586	0.12	667172	keystroke	s	n/a
333.736	0.09	667472	keystroke	Key.space	n/a
333.976	0.1355	667952	keystroke	h	n/a
334.0965	0.075	668193	keystroke	e	n/a
334.2755	0.121	668551	keystroke	a	n/a
334.5615	0.105	669123	keystroke	l	n/a
334.7255	0.121	669451	keystroke	t	n/a
334.8905	0.12	669781	keystroke	h	n/a
335.0565	0.12	670113	keystroke	y	n/a
335.8965	0.119	671793	keystroke	Key.enter	n/a
336.0225	7.0315	672045	prompt	n/a	summer agency proceed siemens\n
336.721	0.09	673442	keystroke	s	n/a
336.826	0.06	673652	keystroke	u	n/a
337.021	0.06	674042	keystroke	m	n/a
337.141	0.09	674282	keystroke	m	n/a
337.246	0.1655	674492	keystroke	e	n/a
337.366	0.12	674732	keystroke	r	n/a
337.471	0.105	674942	keystroke	Key.space	n/a
337.726	0.1055	675452	keystroke	a	n/a
338.176	0.105	676352	keystroke	g	n/a
338.431	0.105	676862	keystroke	e	n/a
338.551	0.1055	677102	keystroke	n	n/a
338.6715	0.105	677343	keystroke	c	n/a
338.9565	0.09	677913	keystroke	y	n/a
339.2265	0.089	678453	keystroke	Key.space	n/a
339.7815	0.075	679563	keystroke	p	n/a
339.9165	0.105	679833	keystroke	r	n/a
340.0365	0.1045	680073	keystroke	o	n/a
340.186	0.09	680372	keystroke	c	n/a
340.396	0.06	680792	keystroke	e	n/a
340.636	0.09	681272	keystroke	e	n/a
340.861	0.075	681722	keystroke	d	n/a
341.011	0.09	682022	keystroke	Key.space	n/a
341.221	0.075	682442	keystroke	s	n/a
341.297	0.104	682594	keystroke	i	n/a
341.641	0.105	683282	keystroke	e	n/a
341.851	0.105	683702	keystroke	m	n/a
342.271	0.106	684542	keystroke	e	n/a
342.436	0.09	684872	keystroke	n	n/a
342.527	0.104	685054	keystroke	s	n/a
342.946	0.105	685892	keystroke	Key.enter	n/a
343.0595	12.3845	686119	prompt	n/a	total mauritius verification court\n
343.621	0.075	687242	keystroke	t	n/a
343.711	0.105	687422	keystroke	o	n/a
343.816	0.09	687632	keystroke	t	n/a
344.206	0.135	688412	keystroke	a	n/a
344.311	0.12	688622	keystroke	l	n/a
344.506	0.12	689012	keystroke	Key.space	n/a
344.641	0.09	689282	keystroke	n	n/a
344.971	0.075	689942	keystroke	Key.backspace	n/a
345.181	0.105	690362	keystroke	m	n/a
345.331	0.12	690662	keystroke	a	n/a
345.752	0.104	691504	keystroke	u	n/a
345.991	0.106	691982	keystroke	r	n/a
346.486	0.075	692972	keystroke	i	n/a
346.636	0.105	693272	keystroke	t	n/a
346.846	0.09	693692	keystroke	i	n/a
347.086	0.06	694172	keystroke	u	n/a
347.251	0.105	694502	keystroke	s	n/a
347.461	0.075	694922	keystroke	Key.space	n/a
347.686	0.105	695372	keystroke	v	n/a
350.4495	0.0725	700899	keystroke	e	n/a
350.5065	0.1205	701013	keystroke	r	n/a
350.6565	0.12	701313	keystroke	i	n/a
350.7905	0.046	701581	keystroke	f	n/a
351.0765	0.105	702153	keystroke	i	n/a
351.2115	0.105	702423	keystroke	c	n/a
351.3305	0.106	702661	keystroke	a	n/a
351.4965	0.3	702993	keystroke	i	n/a
351.5415	0.06	703083	keystroke	t	n/a
351.6165	0.15	703233	keystroke	o	n/a
351.7065	0.135	703413	keystroke	n	n/a
352.0965	0.0445	704193	keystroke	Key.backspace	n/a
352.2305	0.06	704461	keystroke	Key.backspace	n/a
352.3805	0.046	704761	keystroke	Key.backspace	n/a
352.4855	0.091	704971	keystroke	Key.backspace	n/a
353.2365	0.105	706473	keystroke	t	n/a
353.3115	0.255	706623	keystroke	i	n/a
353.4015	0.15	706803	keystroke	o	n/a
353.4765	0.12	706953	keystroke	n	n/a
353.8215	0.119	707643	keystroke	Key.space	n/a
354.091	0.105	708182	keystroke	c	n/a
354.136	0.12	708272	keystroke	o	n/a
354.271	0.135	708542	keystroke	u	n/a
354.466	0.105	708932	keystroke	t	n/a
354.901	0.075	709802	keystroke	Key.backspace	n/a
354.992	0.09	709984	keystroke	r	n/a
355.156	0.105	710312	keystroke	t	n/a
355.291	0.15	710582	keystroke	Key.enter	n/a
355.454	9.769	710908	prompt	n/a	until norman manor institute\n
356.026	0.075	712052	keystroke	i	n/a
356.266	0.06	712532	keystroke	Key.backspace	n/a
356.432	0.074	712864	keystroke	u	n/a
356.596	0.09	713192	keystroke	n	n/a
356.806	0.075	713612	keystroke	t	n/a
356.971	0.09	713942	keystroke	i	n/a
357.197	0.059	714394	keystroke	l	n/a
357.301	0.09	714602	keystroke	Key.space	n/a
357.466	0.12	714932	keystroke	o	n/a
357.602	0.089	715204	keystroke	r	n/a
357.706	0.105	715412	keystroke	m	n/a
357.827	0.135	715654	keystroke	a	n/a
358.066	0.06	716132	keystroke	Key.backspace	n/a
358.201	0.075	716402	keystroke	Key.backspace	n/a
358.336	0.06	716672	keystroke	Key.backspace	n/a
358.471	0.06	716942	keystroke	Key.backspace	n/a
358.666	0.091	717332	keystroke	n	n/a
358.786	0.105	717572	keystroke	o	n/a
358.906	0.106	717812	keystroke	r	n/a
359.086	0.09	718172	keystroke	m	n/a
359.297	0.134	718594	keystroke	a	n/a
359.416	0.136	718832	keystroke	l	n/a
359.866	0.06	719732	keystroke	Key.backspace	n/a
360.047	0.075	720094	keystroke	n	n/a
360.661	0.076	721322	keystroke	Key.space	n/a
360.872	0.09	721744	keystroke	m	n/a
360.977	0.12	721954	keystroke	a	n/a
361.202	0.09	722404	keystroke	n	n/a
361.322	0.104	722644	keystroke	o	n/a
361.487	0.119	722974	keystroke	r	n/a
361.756	0.105	723512	keystroke	Key.space	n/a
361.952	0.135	723904	keystroke	i	n/a
362.057	0.074	724114	keystroke	n	n/a
362.267	0.0745	724534	keystroke	s	n/a
362.792	0.075	725584	keystroke	t	n/a
363.061	0.105	726122	keystroke	i	n/a
363.6165	0.075	727233	keystroke	t	n/a
364.0815	0.105	728163	keystroke	u	n/a
364.4115	0.03	728823	keystroke	d	n/a
364.7265	0.06	729453	keystroke	Key.backspace	n/a
364.7715	0.09	729543	keystroke	t	n/a
364.9065	0.12	729813	keystroke	e	n/a
365.0715	0.15	730143	keystroke	Key.enter	n/a
365.228	9.0555	730456	prompt	n/a	breeds doctors worried smell\n
365.9265	0.075	731853	keystroke	b	n/a
366.1365	0.12	732273	keystroke	r	n/a
366.2715	0.075	732543	keystroke	e	n/a
366.4365	0.09	732873	keystroke	e	n/a
366.6015	0.15	733203	keystroke	s	n/a
366.7815	0.135	733563	keystroke	Key.space	n/a
366.9915	0.12	733983	keystroke	d	n/a
367.1265	0.12	734253	keystroke	o	n/a
367.2315	0.12	734463	keystroke	c	n/a
367.5165	0.045	735033	keystroke	t	n/a
367.5915	0.12	735183	keystroke	o	n/a
367.7265	0.12	735453	keystroke	r	n/a
368.6115	0.06	737223	keystroke	Key.backspace	n/a
368.7615	0.06	737523	keystroke	Key.backspace	n/a
368.8815	0.075	737763	keystroke	Key.backspace	n/a
369.0165	0.075	738033	keystroke	Key.backspace	n/a
369.1665	0.06	738333	keystroke	Key.backspace	n/a
369.3015	0.075	738603	keystroke	Key.backspace	n/a
369.4515	0.075	738903	keystroke	Key.backspace	n/a
369.8865	0.075	739773	keystroke	Key.backspace	n/a
370.0365	0.15	740073	keystroke	d	n/a
370.1715	0.12	740343	keystroke	s	n/a
370.3365	0.135	740673	keystroke	Key.space	n/a
370.5465	0.075	741093	keystroke	c	n/a
370.8015	0.075	741603	keystroke	Key.backspace	n/a
370.9065	0.075	741813	keystroke	d	n/a
370.9965	0.12	741993	keystroke	o	n/a
371.0715	0.12	742143	keystroke	c	n/a
371.3115	0.105	742623	keystroke	t	n/a
371.4315	0.09	742863	keystroke	o	n/a
371.5215	0.135	743043	keystroke	r	n/a
371.8515	0.075	743703	keystroke	Key.space	n/a
372.0465	0.12	744093	keystroke	w	n/a
372.1815	0.105	744363	keystroke	o	n/a
372.3165	0.06	744633	keystroke	r	n/a
372.4515	0.105	744903	keystroke	r	n/a
372.5715	0.09	745143	keystroke	i	n/a
372.6465	0.105	745293	keystroke	e	n/a
372.8415	0.1195	745683	keystroke	d	n/a
372.962	0.104	745924	keystroke	Key.space	n/a
373.051	0.12	746102	keystroke	s	n/a
373.247	0.075	746494	keystroke	m	n/a
373.441	0.09	746882	keystroke	e	n/a
373.546	0.225	747092	keystroke	l	n/a
373.966	0.075	747932	keystroke	l	n/a
374.176	0.105	748352	keystroke	Key.enter	n/a
374.289	5.589	748578	prompt	n/a	occur walker genius resources\n
374.822	0.104	749644	keystroke	o	n/a
374.956	0.075	749912	keystroke	c	n/a
375.106	0.105	750212	keystroke	c	n/a
375.256	0.136	750512	keystroke	u	n/a
375.377	0.119	750754	keystroke	r	n/a
375.661	0.105	751322	keystroke	Key.space	n/a
375.841	0.09	751682	keystroke	w	n/a
376.081	0.12	752162	keystroke	a	n/a
376.156	0.166	752312	keystroke	l	n/a
376.231	0.135	752462	keystroke	k	n/a
376.351	0.1205	752702	keystroke	e	n/a
376.4865	0.105	752973	keystroke	r	n/a
376.7865	0.0895	753573	keystroke	Key.space	n/a
376.996	0.09	753992	keystroke	g	n/a
377.146	0.09	754292	keystroke	e	n/a
377.266	0.12	754532	keystroke	n	n/a
377.506	0.09	755012	keystroke	i	n/a
377.656	0.12	755312	keystroke	u	n/a
377.777	0.09	755554	keystroke	s	n/a
378.001	0.09	756002	keystroke	Key.space	n/a
378.361	0.121	756722	keystroke	r	n/a
378.512	0.12	757024	keystroke	e	n/a
378.706	0.105	757412	keystroke	s	n/a
378.856	0.091	757712	keystroke	o	n/a
378.992	0.105	757984	keystroke	u	n/a
379.082	0.105	758164	keystroke	r	n/a
379.322	0.059	758644	keystroke	c	n/a
379.486	0.075	758972	keystroke	e	n/a
379.606	0.12	759212	keystroke	s	n/a
379.741	0.135	759482	keystroke	Key.enter	n/a
379.8825	7.707	759765	prompt	n/a	describing ensuring riding search\n
380.401	0.105	760802	keystroke	d	n/a
380.582	0.059	761164	keystroke	i	n/a
380.986	0.09	761972	keystroke	Key.backspace	n/a
381.106	0.09	762212	keystroke	e	n/a
381.316	0.0605	762632	keystroke	s	n/a
381.4665	0.105	762933	keystroke	c	n/a
381.7065	0.075	763413	keystroke	r	n/a
381.8265	0.105	763653	keystroke	i	n/a
381.9465	0.0745	763893	keystroke	b	n/a
382.051	0.15	764102	keystroke	i	n/a
382.141	0.105	764282	keystroke	n	n/a
382.261	0.106	764522	keystroke	g	n/a
382.8615	0.09	765723	keystroke	Key.space	n/a
383.1165	0.12	766233	keystroke	e	n/a
383.2515	0.135	766503	keystroke	n	n/a
383.4915	0.06	766983	keystroke	s	n/a
383.7315	0.09	767463	keystroke	u	n/a
383.8065	0.135	767613	keystroke	r	n/a
383.9265	0.135	767853	keystroke	i	n/a
384.0015	0.091	768003	keystroke	n	n/a
384.1065	0.135	768213	keystroke	g	n/a
384.2565	0.135	768513	keystroke	Key.space	n/a
384.6915	0.075	769383	keystroke	r	n/a
384.7815	0.12	769563	keystroke	i	n/a
384.8865	0.09	769773	keystroke	d	n/a
385.0665	0.075	770133	keystroke	e	n/a
385.5165	0.06	771033	keystroke	Key.backspace	n/a
385.6965	0.135	771393	keystroke	i	n/a
385.7715	0.0905	771543	keystroke	n	n/a
385.876	0.121	771752	keystroke	g	n/a
386.042	0.074	772084	keystroke	Key.space	n/a
386.161	0.061	772322	keystroke	e	n/a
386.401	0.06	772802	keystroke	Key.backspace	n/a
386.492	0.06	772984	keystroke	s	n/a
386.612	0.165	773224	keystroke	e	n/a
386.792	0.075	773584	keystroke	a	n/a
386.927	0.075	773854	keystroke	r	n/a
387.151	0.091	774302	keystroke	c	n/a
387.257	0.104	774514	keystroke	h	n/a
387.451	0.135	774902	keystroke	Key.enter	n/a
387.5955	6.0985	775191	prompt	n/a	severe fixtures roland suggest\n
388.1115	0.09	776223	keystroke	s	n/a
388.2915	0.09	776583	keystroke	e	n/a
388.547	0.06	777094	keystroke	v	n/a
388.697	0.134	777394	keystroke	e	n/a
388.847	0.0745	777694	keystroke	r	n/a
388.9965	0.15	777993	keystroke	e	n/a
389.2365	0.075	778473	keystroke	Key.space	n/a
389.4465	0.09	778893	keystroke	f	n/a
389.5815	0.105	779163	keystroke	i	n/a
389.8665	0.075	779733	keystroke	x	n/a
390.1215	0.075	780243	keystroke	t	n/a
390.2265	0.105	780453	keystroke	u	n/a
390.3165	0.105	780633	keystroke	r	n/a
390.3915	0.12	780783	keystroke	e	n/a
390.6615	0.105	781323	keystroke	s	n/a
390.7965	0.105	781593	keystroke	Key.space	n/a
391.0965	0.075	782193	keystroke	r	n/a
391.472	0.0745	782944	keystroke	o	n/a
391.6365	0.09	783273	keystroke	l	n/a
391.7415	0.105	783483	keystroke	a	n/a
391.8605	0.076	783721	keystroke	n	n/a
391.9665	0.135	783933	keystroke	d	n/a
392.2515	0.134	784503	keystroke	Key.space	n/a
392.462	0.135	784924	keystroke	s	n/a
392.597	0.089	785194	keystroke	u	n/a
392.791	0.0755	785582	keystroke	g	n/a
392.986	0.076	785972	keystroke	g	n/a
393.076	0.106	786152	keystroke	e	n/a
393.211	0.121	786422	keystroke	s	n/a
393.392	0.104	786784	keystroke	t	n/a
393.572	0.12	787144	keystroke	Key.enter	n/a
393.6995	6.9085	787399	prompt	n/a	difficult stuff transition resident\n
394.202	0.119	788404	keystroke	d	n/a
394.336	0.1205	788672	keystroke	i	n/a
394.426	0.076	788852	keystroke	f	n/a
394.637	0.06	789274	keystroke	f	n/a
394.831	0.105	789662	keystroke	i	n/a
395.056	0.121	790112	keystroke	c	n/a
395.312	0.044	790624	keystroke	u	n/a
395.4615	0.09	790923	keystroke	l	n/a
395.5805	0.106	791161	keystroke	t	n/a
395.7305	0.121	791461	keystroke	Key.space	n/a
395.8965	0.12	791793	keystroke	s	n/a
396.1815	0.09	792363	keystroke	t	n/a
396.6915	0.09	793383	keystroke	u	n/a
396.8115	0.06	793623	keystroke	f	n/a
396.9615	0.12	793923	keystroke	f	n/a
397.0965	0.09	794193	keystroke	Key.space	n/a
397.2915	0.0595	794583	keystroke	t	n/a
397.426	0.12	794852	keystroke	r	n/a
397.606	0.135	795212	keystroke	a	n/a
397.756	0.06	795512	keystroke	n	n/a
397.831	0.12	795662	keystroke	s	n/a
398.386	0.09	796772	keystroke	i	n/a
398.596	0.09	797192	keystroke	t	n/a
398.671	0.241	797342	keystroke	i	n/a
398.776	0.105	797552	keystroke	o	n/a
398.836	0.106	797672	keystroke	n	n/a
399.2865	0.075	798573	keystroke	Key.space	n/a
399.4665	0.075	798933	keystroke	r	n/a
399.5565	0.105	799113	keystroke	e	n/a
399.7515	0.105	799503	keystroke	s	n/a
399.8865	0.09	799773	keystroke	i	n/a
399.9915	0.09	799983	keystroke	d	n/a
400.1715	0.09	800343	keystroke	e	n/a
400.2765	0.105	800553	keystroke	n	n/a
400.3665	0.09	800733	keystroke	t	n/a
400.5015	0.105	801003	keystroke	Key.enter	n/a
400.612	10.6925	801224	prompt	n/a	verzeichnis promotion specifics preparation\n
401.2215	0.09	802443	keystroke	v	n/a
401.4315	0.12	802863	keystroke	e	n/a
401.6865	0.075	803373	keystroke	r	n/a
401.9715	0.09	803943	keystroke	z	n/a
402.1665	0.12	804333	keystroke	e	n/a
402.4665	0.1195	804933	keystroke	i	n/a
402.616	0.105	805232	keystroke	c	n/a
402.826	0.09	805652	keystroke	h	n/a
403.336	0.06	806672	keystroke	n	n/a
403.517	0.089	807034	keystroke	i	n/a
403.711	0.105	807422	keystroke	s	n/a
403.921	0.075	807842	keystroke	Key.space	n/a
404.041	0.12	808082	keystroke	p	n/a
404.206	0.105	808412	keystroke	r	n/a
404.326	0.075	808652	keystroke	o	n/a
404.522	0.089	809044	keystroke	m	n/a
404.6715	0.105	809343	keystroke	o	n/a
404.9715	0.0745	809943	keystroke	t	n/a
405.031	0.21	810062	keystroke	i	n/a
405.121	0.105	810242	keystroke	o	n/a
405.166	0.09	810332	keystroke	n	n/a
405.556	0.075	811112	keystroke	Key.space	n/a
405.766	0.105	811532	keystroke	s	n/a
405.901	0.12	811802	keystroke	p	n/a
406.022	0.074	812044	keystroke	e	n/a
406.231	0.12	812462	keystroke	c	n/a
406.486	0.12	812972	keystroke	t	n/a
407.056	0.045	814112	keystroke	Key.backspace	n/a
407.236	0.075	814472	keystroke	i	n/a
407.401	0.165	814802	keystroke	f	n/a
407.551	0.105	815102	keystroke	i	n/a
408.016	0.1205	816032	keystroke	c	n/a
408.3765	0.105	816753	keystroke	s	n/a
408.5865	0.075	817173	keystroke	Key.space	n/a
409.142	0.075	818284	keystroke	p	n/a
409.292	0.059	818584	keystroke	e	n/a
409.546	0.061	819092	keystroke	Key.backspace	n/a
409.622	0.134	819244	keystroke	r	n/a
409.697	0.15	819394	keystroke	e	n/a
409.981	0.091	819962	keystroke	p	n/a
410.101	0.121	820202	keystroke	a	n/a
410.326	0.091	820652	keystroke	r	n/a
410.507	0.12	821014	keystroke	a	n/a
410.687	0.089	821374	keystroke	t	n/a
410.762	0.224	821524	keystroke	i	n/a
410.821	0.135	821642	keystroke	o	n/a
410.882	0.135	821764	keystroke	n	n/a
411.182	0.12	822364	keystroke	Key.enter	n/a
411.31	8.979	822620	prompt	n/a	mixing rating shareholders workstation\n
412.037	0.075	824074	keystroke	m	n/a
412.202	0.105	824404	keystroke	i	n/a
412.322	0.059	824644	keystroke	s	n/a
412.667	0.059	825334	keystroke	Key.backspace	n/a
412.742	0.089	825484	keystroke	x	n/a
412.877	0.164	825754	keystroke	i	n/a
412.951	0.105	825902	keystroke	n	n/a
413.057	0.104	826114	keystroke	g	n/a
413.236	0.09	826472	keystroke	Key.space	n/a
413.371	0.075	826742	keystroke	r	n/a
413.536	0.135	827072	keystroke	a	n/a
414.091	0.076	828182	keystroke	t	n/a
414.196	0.135	828392	keystroke	i	n/a
414.287	0.089	828574	keystroke	n	n/a
414.346	0.12	828692	keystroke	g	n/a
414.706	0.09	829412	keystroke	Key.space	n/a
414.901	0.105	829802	keystroke	s	n/a
415.276	0.075	830552	keystroke	h	n/a
415.441	0.06	830882	keystroke	a	n/a
415.606	0.09	831212	keystroke	r	n/a
415.711	0.135	831422	keystroke	e	n/a
415.981	0.045	831962	keystroke	f	n/a
416.266	0.075	832532	keystroke	Key.backspace	n/a
416.476	0.105	832952	keystroke	h	n/a
416.536	0.09	833072	keystroke	o	n/a
416.791	0.06	833582	keystroke	l	n/a
416.896	0.09	833792	keystroke	d	n/a
417.076	0.135	834152	keystroke	e	n/a
417.196	0.075	834392	keystroke	r	n/a
417.407	0.134	834814	keystroke	s	n/a
417.556	0.105	835112	keystroke	Key.space	n/a
417.796	0.105	835592	keystroke	w	n/a
417.886	0.105	835772	keystroke	o	n/a
418.006	0.12	836012	keystroke	r	n/a
418.096	0.12	836192	keystroke	k	n/a
418.486	0.105	836972	keystroke	s	n/a
418.666	0.105	837332	keystroke	t	n/a
418.846	0.12	837692	keystroke	a	n/a
418.951	0.105	837902	keystroke	t	n/a
419.101	0.15	838202	keystroke	e	n/a
419.491	0.06	838982	keystroke	Key.backspace	n/a
419.671	0.255	839342	keystroke	i	n/a
419.731	0.15	839462	keystroke	o	n/a
419.821	0.135	839642	keystroke	n	n/a
420.166	0.12	840332	keystroke	Key.enter	n/a
420.2935	7.84	840587	prompt	n/a	logo skating respectively armstrong\n
420.991	0.075	841982	keystroke	l	n/a
421.141	0.12	842282	keystroke	o	n/a
421.246	0.09	842492	keystroke	g	n/a
421.456	0.105	842912	keystroke	o	n/a
421.816	0.06	843632	keystroke	Key.space	n/a
421.981	0.12	843962	keystroke	s	n/a
422.386	0.135	844772	keystroke	k	n/a
422.566	0.1505	845132	keystroke	a	n/a
422.926	0.09	845852	keystroke	t	n/a
423.031	0.15	846062	keystroke	i	n/a
423.136	0.075	846272	keystroke	n	n/a
423.256	0.075	846512	keystroke	g	n/a
423.361	0.075	846722	keystroke	Key.space	n/a
423.616	0.105	847232	keystroke	r	n/a
423.751	0.075	847502	keystroke	e	n/a
423.931	0.12	847862	keystroke	s	n/a
424.096	0.09	848192	keystroke	p	n/a
424.216	0.075	848432	keystroke	e	n/a
424.411	0.06	848822	keystroke	c	n/a
424.621	0.0755	849242	keystroke	t	n/a
424.786	0.105	849572	keystroke	i	n/a
424.876	0.09	849752	keystroke	v	n/a
425.086	0.075	850172	keystroke	e	n/a
425.236	0.135	850472	keystroke	l	n/a
425.4315	0.135	850863	keystroke	y	n/a
425.806	0.12	851612	keystroke	Key.space	n/a
426.076	0.105	852152	keystroke	a	n/a
426.256	0.091	852512	keystroke	r	n/a
426.451	0.105	852902	keystroke	m	n/a
426.677	0.074	853354	keystroke	s	n/a
427.097	0.074	854194	keystroke	t	n/a
427.306	0.091	854612	keystroke	r	n/a
427.412	0.104	854824	keystroke	o	n/a
427.456	0.12	854912	keystroke	n	n/a
427.592	0.104	855184	keystroke	g	n/a
428.011	0.12	856022	keystroke	Key.enter	n/a
428.139	11.2295	856278	prompt	n/a	waste stanley urgent ethnic\n
428.626	0.105	857252	keystroke	w	n/a
428.776	0.105	857552	keystroke	a	n/a
429.151	0.135	858302	keystroke	t	n/a
429.601	0.09	859202	keystroke	Key.backspace	n/a
429.647	0.104	859294	keystroke	s	n/a
429.901	0.06	859802	keystroke	t	n/a
430.081	0.135	860162	keystroke	e	n/a
430.231	0.12	860462	keystroke	Key.space	n/a
431.251	0.09	862502	keystroke	s	n/a
431.521	0.09	863042	keystroke	t	n/a
431.836	0.12	863672	keystroke	a	n/a
431.986	0.135	863972	keystroke	n	n/a
432.511	0.06	865022	keystroke	e	n/a
432.541	0.105	865082	keystroke	l	n/a
432.916	0.075	865832	keystroke	Key.backspace	n/a
433.051	0.075	866102	keystroke	Key.backspace	n/a
433.246	0.1055	866492	keystroke	l	n/a
433.336	0.09	866672	keystroke	e	n/a
433.546	0.09	867092	keystroke	y	n/a
433.651	0.075	867302	keystroke	Key.space	n/a
433.921	0.075	867842	keystroke	u	n/a
434.116	0.06	868232	keystroke	Key.backspace	n/a
434.236	0.075	868472	keystroke	Key.backspace	n/a
434.506	0.0755	869012	keystroke	Key.space	n/a
434.7465	0.09	869493	keystroke	u	n/a
434.8665	0.105	869733	keystroke	r	n/a
435.1365	0.12	870273	keystroke	g	n/a
435.4965	0.06	870993	keystroke	Key.backspace	n/a
435.6315	0.075	871263	keystroke	Key.backspace	n/a
435.7665	0.0895	871533	keystroke	Key.backspace	n/a
436.607	0.074	873214	keystroke	u	n/a
436.711	0.09	873422	keystroke	r	n/a
436.906	0.075	873812	keystroke	g	n/a
437.056	0.075	874112	keystroke	e	n/a
437.146	0.09	874292	keystroke	n	n/a
437.237	0.104	874474	keystroke	t	n/a
437.356	0.075	874712	keystroke	Key.space	n/a
437.506	0.105	875012	keystroke	e	n/a
437.716	0.105	875432	keystroke	t	n/a
437.836	0.09	875672	keystroke	h	n/a
437.9715	0.074	875943	keystroke	i	n/a
438.3305	0.015	876661	keystroke	Key.backspace	n/a
438.7965	0.075	877593	keystroke	n	n/a
438.9615	0.089	877923	keystroke	i	n/a
439.0955	0.091	878191	keystroke	c	n/a
439.2605	0.106	878521	keystroke	Key.enter	n/a
439.374	7.704	878748	prompt	n/a	congressional gothic realistic cooperation\n
439.9665	0.12	879933	keystroke	c	n/a
440.0415	0.104	880083	keystroke	o	n/a
440.1005	0.136	880201	keystroke	n	n/a
440.2505	0.091	880501	keystroke	g	n/a
440.4315	0.089	880863	keystroke	r	n/a
440.5805	0.106	881161	keystroke	e	n/a
440.7765	0.074	881553	keystroke	s	n/a
440.9705	0.061	881941	keystroke	s	n/a
441.0315	0.224	882063	keystroke	i	n/a
441.1205	0.121	882241	keystroke	o	n/a
441.1815	0.119	882363	keystroke	n	n/a
441.3165	0.15	882633	keystroke	a	n/a
441.4505	0.105	882901	keystroke	l	n/a
441.5705	0.075	883141	keystroke	Key.space	n/a
441.7505	0.106	883501	keystroke	g	n/a
441.9005	0.106	883801	keystroke	o	n/a
442.0205	0.121	884041	keystroke	t	n/a
442.1565	0.105	884313	keystroke	h	n/a
442.3065	0.1045	884613	keystroke	i	n/a
442.426	0.105	884852	keystroke	c	n/a
442.576	0.105	885152	keystroke	Key.space	n/a
442.756	0.09	885512	keystroke	r	n/a
442.876	0.091	885752	keystroke	e	n/a
443.086	0.105	886172	keystroke	a	n/a
443.236	0.105	886472	keystroke	l	n/a
443.416	0.105	886832	keystroke	i	n/a
443.701	0.09	887402	keystroke	s	n/a
443.927	0.074	887854	keystroke	i	n/a
444.2405	0.1205	888481	keystroke	Key.backspace	n/a
444.3765	0.074	888753	keystroke	t	n/a
444.4805	0.09	888961	keystroke	i	n/a
444.6455	0.12	889291	keystroke	c	n/a
445.1555	0.06	890311	keystroke	Key.space	n/a
445.4555	0.106	890911	keystroke	c	n/a
445.5455	0.06	891091	keystroke	o	n/a
445.6955	0.076	891391	keystroke	o	n/a
445.8605	0.105	891721	keystroke	p	n/a
445.9965	0.1795	891993	keystroke	e	n/a
446.161	0.075	892322	keystroke	r	n/a
446.326	0.12	892652	keystroke	a	n/a
446.491	0.06	892982	keystroke	t	n/a
446.521	0.24	893042	keystroke	i	n/a
446.596	0.105	893192	keystroke	o	n/a
446.641	0.15	893282	keystroke	n	n/a
446.971	0.105	893942	keystroke	Key.enter	n/a
447.0875	5.9305	894175	prompt	n/a	needed cheaper contact creating\n
447.676	0.0745	895352	keystroke	n	n/a
447.7655	0.06	895531	keystroke	e	n/a
447.9005	0.075	895801	keystroke	e	n/a
448.0655	0.075	896131	keystroke	d	n/a
448.231	0.0745	896462	keystroke	e	n/a
448.4255	0.0755	896851	keystroke	d	n/a
448.516	0.09	897032	keystroke	Key.space	n/a
448.771	0.075	897542	keystroke	c	n/a
448.906	0.106	897812	keystroke	h	n/a
449.146	0.105	898292	keystroke	e	n/a
449.326	0.1205	898652	keystroke	a	n/a
449.5065	0.105	899013	keystroke	p	n/a
449.6415	0.1345	899283	keystroke	e	n/a
449.761	0.1055	899522	keystroke	r	n/a
449.851	0.135	899702	keystroke	Key.space	n/a
450.061	0.0905	900122	keystroke	c	n/a
450.136	0.12	900272	keystroke	o	n/a
450.1965	0.1045	900393	keystroke	n	n/a
450.346	0.105	900692	keystroke	t	n/a
450.556	0.09	901112	keystroke	r	n/a
450.811	0.09	901622	keystroke	Key.backspace	n/a
450.931	0.12	901862	keystroke	a	n/a
451.066	0.105	902132	keystroke	c	n/a
451.291	0.12	902582	keystroke	t	n/a
451.456	0.1055	902912	keystroke	Key.space	n/a
451.8915	0.104	903783	keystroke	c	n/a
452.1015	0.09	904203	keystroke	r	n/a
452.1465	0.18	904293	keystroke	e	n/a
452.3115	0.075	904623	keystroke	a	n/a
452.4615	0.105	904923	keystroke	t	n/a
452.5505	0.15	905101	keystroke	i	n/a
452.6265	0.12	905253	keystroke	n	n/a
452.7165	0.09	905433	keystroke	g	n/a
452.8815	0.135	905763	keystroke	Key.enter	n/a
453.0235	7.089	906047	prompt	n/a	parcel york austria latinas\n
453.5715	0.09	907143	keystroke	p	n/a
453.8865	0.1045	907773	keystroke	a	n/a
454.036	0.12	908072	keystroke	r	n/a
454.276	0.09	908552	keystroke	c	n/a
454.486	0.09	908972	keystroke	e	n/a
454.591	0.105	909182	keystroke	l	n/a
454.711	0.075	909422	keystroke	Key.space	n/a
455.116	0.105	910232	keystroke	o	n/a
455.386	0.075	910772	keystroke	y	n/a
455.431	0.09	910862	keystroke	Key.backspace	n/a
455.611	0.075	911222	keystroke	Key.backspace	n/a
455.761	0.075	911522	keystroke	y	n/a
455.866	0.12	911732	keystroke	o	n/a
456.001	0.075	912002	keystroke	r	n/a
456.091	0.105	912182	keystroke	k	n/a
456.421	0.105	912842	keystroke	Key.space	n/a
456.691	0.09	913382	keystroke	a	n/a
456.901	0.075	913802	keystroke	u	n/a
456.991	0.09	913982	keystroke	s	n/a
457.216	0.105	914432	keystroke	t	n/a
457.411	0.09	914822	keystroke	i	n/a
457.741	0.075	915482	keystroke	Key.backspace	n/a
457.861	0.09	915722	keystroke	r	n/a
457.966	0.075	915932	keystroke	i	n/a
458.071	0.135	916142	keystroke	a	n/a
458.431	0.105	916862	keystroke	Key.space	n/a
458.701	0.15	917402	keystroke	l	n/a
458.852	0.119	917704	keystroke	a	n/a
459.091	0.105	918182	keystroke	t	n/a
459.271	0.12	918542	keystroke	i	n/a
459.481	0.075	918962	keystroke	n	n/a
459.706	0.09	919412	keystroke	a	n/a
459.871	0.1045	919742	keystroke	s	n/a
460.0205	0.09	920041	keystroke	Key.enter	n/a
460.117	6.446	920234	prompt	n/a	evolution extending speeches must\n
460.831	0.075	921662	keystroke	e	n/a
461.056	0.1055	922112	keystroke	v	n/a
461.4165	0.09	922833	keystroke	o	n/a
461.6705	0.105	923341	keystroke	l	n/a
461.8955	0.121	923791	keystroke	u	n/a
462.1055	0.091	924211	keystroke	t	n/a
462.1815	0.224	924363	keystroke	i	n/a
462.2715	0.104	924543	keystroke	o	n/a
462.3155	0.1205	924631	keystroke	n	n/a
462.661	0.075	925322	keystroke	Key.space	n/a
462.796	0.09	925592	keystroke	e	n/a
463.036	0.075	926072	keystroke	x	n/a
463.2455	0.075	926491	keystroke	t	n/a
463.4255	0.091	926851	keystroke	e	n/a
463.5615	0.06	927123	keystroke	n	n/a
463.6355	0.105	927271	keystroke	d	n/a
463.7565	0.119	927513	keystroke	i	n/a
463.8155	0.1055	927631	keystroke	n	n/a
463.966	0.135	927932	keystroke	g	n/a
464.266	0.09	928532	keystroke	Key.space	n/a
464.521	0.09	929042	keystroke	s	n/a
464.671	0.09	929342	keystroke	p	n/a
464.791	0.075	929582	keystroke	e	n/a
464.941	0.105	929882	keystroke	e	n/a
465.181	0.075	930362	keystroke	c	n/a
465.301	0.09	930602	keystroke	h	n/a
465.406	0.045	930812	keystroke	e	n/a
465.511	0.135	931022	keystroke	s	n/a
465.661	0.075	931322	keystroke	Key.space	n/a
465.796	0.09	931592	keystroke	m	n/a
465.991	0.0895	931982	keystroke	u	n/a
466.082	0.0735	932164	keystroke	s	n/a
466.261	0.105	932522	keystroke	t	n/a
466.426	0.135	932852	keystroke	Key.enter	n/a
466.568	8.6805	933136	prompt	n/a	telling offshore registration sentences\n
467.116	0.075	934232	keystroke	t	n/a
467.281	0.075	934562	keystroke	e	n/a
467.386	0.045	934772	keystroke	l	n/a
467.521	0.075	935042	keystroke	l	n/a
467.641	0.15	935282	keystroke	i	n/a
467.731	0.105	935462	keystroke	n	n/a
467.821	0.105	935642	keystroke	g	n/a
467.896	0.105	935792	keystroke	Key.space	n/a
468.016	0.12	936032	keystroke	o	n/a
468.136	0.045	936272	keystroke	f	n/a
468.271	0.09	936542	keystroke	f	n/a
468.601	0.105	937202	keystroke	s	n/a
468.901	0.12	937802	keystroke	h	n/a
469.006	0.135	938012	keystroke	o	n/a
469.126	0.09	938252	keystroke	r	n/a
469.291	0.135	938582	keystroke	e	n/a
469.411	0.075	938822	keystroke	Key.space	n/a
469.561	0.0895	939122	keystroke	r	n/a
469.7555	0.075	939511	keystroke	e	n/a
470.3105	0.03	940621	keystroke	Key.backspace	n/a
470.6705	0.075	941341	keystroke	e	n/a
470.8505	0.075	941701	keystroke	g	n/a
470.9555	0.09	941911	keystroke	i	n/a
471.121	0.0595	942242	keystroke	s	n/a
471.2855	0.09	942571	keystroke	t	n/a
471.4655	0.075	942931	keystroke	r	n/a
471.6455	0.105	943291	keystroke	a	n/a
471.8105	0.075	943621	keystroke	t	n/a
471.8565	0.239	943713	keystroke	i	n/a
471.9155	0.15	943831	keystroke	o	n/a
472.0055	0.105	944011	keystroke	n	n/a
472.3055	0.105	944611	keystroke	Key.space	n/a
472.5755	0.06	945151	keystroke	s	n/a
472.8755	0.075	945751	keystroke	n	n/a
473.3705	0.06	946741	keystroke	Key.backspace	n/a
473.4765	0.12	946953	keystroke	e	n/a
473.5805	0.076	947161	keystroke	n	n/a
473.6705	0.105	947341	keystroke	t	n/a
473.8815	0.104	947763	keystroke	e	n/a
474.1055	0.105	948211	keystroke	n	n/a
474.3905	0.076	948781	keystroke	c	n/a
474.6165	0.104	949233	keystroke	e	n/a
474.856	0.09	949712	keystroke	s	n/a
475.141	0.105	950282	keystroke	Key.enter	n/a
475.254	7.5235	950508	prompt	n/a	enzyme medical practice lexington\n
475.906	0.09	951812	keystroke	e	n/a
476.16	0.076	952320	keystroke	n	n/a
476.445	0.121	952890	keystroke	z	n/a
476.746	0.104	953492	keystroke	y	n/a
476.925	0.106	953850	keystroke	m	n/a
477.015	0.151	954030	keystroke	e	n/a
477.285	0.0905	954570	keystroke	Key.space	n/a
477.5405	0.121	955081	keystroke	m	n/a
477.6455	0.075	955291	keystroke	e	n/a
477.8255	0.091	955651	keystroke	d	n/a
477.9005	0.09	955801	keystroke	i	n/a
478.1105	0.105	956221	keystroke	c	n/a
478.2305	0.135	956461	keystroke	a	n/a
478.3955	0.136	956791	keystroke	l	n/a
478.5905	0.12	957181	keystroke	Key.space	n/a
478.8455	0.091	957691	keystroke	p	n/a
478.9955	0.09	957991	keystroke	r	n/a
479.1905	0.091	958381	keystroke	a	n/a
479.3405	0.12	958681	keystroke	c	n/a
479.5815	0.104	959163	keystroke	t	n/a
479.9405	0.075	959881	keystroke	Key.backspace	n/a
480.3165	0.09	960633	keystroke	t	n/a
480.5255	0.091	961051	keystroke	i	n/a
480.6315	0.09	961263	keystroke	c	n/a
480.8555	0.075	961711	keystroke	e	n/a
481.02	0.076	962040	keystroke	Key.space	n/a
481.171	0.12	962342	keystroke	l	n/a
481.306	0.09	962612	keystroke	e	n/a
481.651	0.075	963302	keystroke	x	n/a
481.816	0.135	963632	keystroke	i	n/a
481.966	0.0755	963932	keystroke	n	n/a
482.0555	0.0895	964111	keystroke	g	n/a
482.28	0.031	964560	keystroke	t	n/a
482.295	0.12	964590	keystroke	o	n/a
482.37	0.121	964740	keystroke	n	n/a
482.67	0.105	965340	keystroke	Key.enter	n/a
482.782	13.0905	965564	prompt	n/a	fragrances coal princeton commander\n
483.315	0.091	966630	keystroke	f	n/a
483.495	0.105	966990	keystroke	r	n/a
483.766	0.09	967532	keystroke	a	n/a
484.006	0.089	968012	keystroke	g	n/a
484.411	0.104	968822	keystroke	r	n/a
484.576	0.12	969152	keystroke	e	n/a
484.996	0.105	969992	keystroke	a	n/a
485.191	0.12	970382	keystroke	n	n/a
485.296	0.075	970592	keystroke	c	n/a
485.491	0.045	970982	keystroke	e	n/a
485.641	0.12	971282	keystroke	s	n/a
485.776	0.12	971552	keystroke	Key.space	n/a
485.971	0.105	971942	keystroke	c	n/a
486.3005	0.09	972601	keystroke	o	n/a
486.4355	0.135	972871	keystroke	a	n/a
486.5555	0.105	973111	keystroke	l	n/a
487.4865	0.074	974973	keystroke	Key.backspace	n/a
487.6355	0.075	975271	keystroke	Key.backspace	n/a
487.7705	0.075	975541	keystroke	Key.backspace	n/a
487.9055	0.09	975811	keystroke	Key.backspace	n/a
488.0555	0.075	976111	keystroke	Key.backspace	n/a
488.2055	0.06	976411	keystroke	Key.backspace	n/a
488.3405	0.09	976681	keystroke	Key.backspace	n/a
488.4905	0.075	976981	keystroke	Key.backspace	n/a
488.6555	0.075	977311	keystroke	Key.backspace	n/a
488.9555	0.12	977911	keystroke	Key.backspace	n/a
489.2855	0.09	978571	keystroke	Key.backspace	n/a
489.6755	0.12	979351	keystroke	a	n/a
489.7965	0.104	979593	keystroke	n	n/a
490.2005	0.075	980401	keystroke	c	n/a
490.3655	0.075	980731	keystroke	e	n/a
490.5455	0.12	981091	keystroke	s	n/a
490.6805	0.12	981361	keystroke	Key.space	n/a
490.9655	0.1205	981931	keystroke	c	n/a
491.071	0.12	982142	keystroke	o	n/a
491.206	0.12	982412	keystroke	a	n/a
491.356	0.15	982712	keystroke	l	n/a
491.626	0.105	983252	keystroke	Key.space	n/a
491.971	0.06	983942	keystroke	p	n/a
492.136	0.105	984272	keystroke	r	n/a
492.196	0.165	984392	keystroke	i	n/a
492.301	0.105	984602	keystroke	n	n/a
492.541	0.06	985082	keystroke	s	n/a
492.81	0.076	985620	keystroke	Key.backspace	n/a
492.871	0.075	985742	keystroke	c	n/a
493.051	0.0895	986102	keystroke	e	n/a
493.2455	0.09	986491	keystroke	t	n/a
493.3205	0.12	986641	keystroke	o	n/a
493.3955	0.09	986791	keystroke	n	n/a
493.5905	0.09	987181	keystroke	Key.space	n/a
493.9055	0.12	987811	keystroke	c	n/a
494.0405	0.12	988081	keystroke	o	n/a
494.1755	0.06	988351	keystroke	m	n/a
494.3405	0.09	988681	keystroke	m	n/a
494.4605	0.135	988921	keystroke	a	n/a
494.6105	0.09	989221	keystroke	n	n/a
494.6855	0.105	989371	keystroke	d	n/a
495.0005	0.09	990001	keystroke	o	n/a
495.1205	0.03	990241	keystroke	e	n/a
495.3005	0.045	990601	keystroke	Key.backspace	n/a
495.4055	0.105	990811	keystroke	Key.backspace	n/a
495.5115	0.134	991023	keystroke	e	n/a
495.6155	0.12	991231	keystroke	r	n/a
495.7505	0.1195	991501	keystroke	Key.enter	n/a
495.878	8.4995	991756	prompt	n/a	savings notre fraction arthritis\n
496.546	0.074	993092	keystroke	s	n/a
496.636	0.075	993272	keystroke	a	n/a
496.756	0.059	993512	keystroke	v	n/a
496.816	0.135	993632	keystroke	i	n/a
496.906	0.09	993812	keystroke	n	n/a
497.026	0.105	994052	keystroke	g	n/a
497.281	0.105	994562	keystroke	s	n/a
497.4	0.09	994800	keystroke	Key.space	n/a
497.6405	0.1055	995281	keystroke	n	n/a
497.776	0.105	995552	keystroke	o	n/a
497.911	0.09	995822	keystroke	t	n/a
498.106	0.075	996212	keystroke	r	n/a
498.286	0.105	996572	keystroke	e	n/a
498.541	0.105	997082	keystroke	Key.space	n/a
498.8405	0.075	997681	keystroke	f	n/a
499.0205	0.105	998041	keystroke	r	n/a
499.3655	0.0905	998731	keystroke	a	n/a
499.531	0.089	999062	keystroke	c	n/a
499.741	0.09	999482	keystroke	t	n/a
499.815	0.256	999630	keystroke	i	n/a
499.891	0.165	999782	keystroke	o	n/a
499.95	0.136	999900	keystroke	n	n/a
500.145	0.091	1000290	keystroke	Key.space	n/a
500.4	0.091	1000800	keystroke	a	n/a
500.611	0.09	1001222	keystroke	r	n/a
500.806	0.09	1001612	keystroke	t	n/a
501.12	0.106	1002240	keystroke	h	n/a
502.711	0.12	1005422	keystroke	r	n/a
502.965	0.075	1005930	keystroke	i	n/a
503.686	0.104	1007372	keystroke	t	n/a
503.911	0.104	1007822	keystroke	i	n/a
504.061	0.105	1008122	keystroke	s	n/a
504.27	0.105	1008540	keystroke	Key.enter	n/a
504.384	8.484	1008768	prompt	n/a	reserved carol looksmart flexible\n
504.886	0.09	1009772	keystroke	r	n/a
505.02	0.121	1010040	keystroke	e	n/a
505.231	0.09	1010462	keystroke	s	n/a
505.396	0.12	1010792	keystroke	e	n/a
505.501	0.09	1011002	keystroke	r	n/a
505.711	0.059	1011422	keystroke	v	n/a
506.1005	0.0755	1012201	keystroke	e	n/a
506.296	0.09	1012592	keystroke	d	n/a
506.566	0.104	1013132	keystroke	Key.space	n/a
506.761	0.135	1013522	keystroke	c	n/a
506.911	0.09	1013822	keystroke	a	n/a
507.121	0.09	1014242	keystroke	r	n/a
507.24	0.091	1014480	keystroke	o	n/a
507.42	0.135	1014840	keystroke	l	n/a
507.57	0.1055	1015140	keystroke	Key.space	n/a
508.3655	0.09	1016731	keystroke	l	n/a
508.5455	0.075	1017091	keystroke	o	n/a
508.7255	0.195	1017451	keystroke	o	n/a
508.8155	0.15	1017631	keystroke	k	n/a
509.0405	0.12	1018081	keystroke	s	n/a
509.4305	0.06	1018861	keystroke	m	n/a
509.5505	0.09	1019101	keystroke	a	n/a
509.7605	0.03	1019521	keystroke	k	n/a
510.0905	0.09	1020181	keystroke	Key.backspace	n/a
510.1965	0.104	1020393	keystroke	r	n/a
510.4055	0.12	1020811	keystroke	t	n/a
510.4955	0.135	1020991	keystroke	Key.space	n/a
510.7355	0.105	1021471	keystroke	f	n/a
510.8705	0.06	1021741	keystroke	i	n/a
511.1105	0.06	1022221	keystroke	Key.backspace	n/a
511.306	0.105	1022612	keystroke	l	n/a
511.351	0.09	1022702	keystroke	e	n/a
511.576	0.135	1023152	keystroke	x	n/a
512.206	0.045	1024412	keystroke	i	n/a
512.266	0.014	1024532	keystroke	b	n/a
512.295	0.121	1024590	keystroke	l	n/a
512.401	0.1045	1024802	keystroke	e	n/a
512.7455	0.12	1025491	keystroke	Key.enter	n/a
512.873	6.6095	1025746	prompt	n/a	margaret touched nearby meat\n
513.451	0.089	1026902	keystroke	m	n/a
513.586	0.09	1027172	keystroke	a	n/a
513.826	0.075	1027652	keystroke	r	n/a
514.006	0.09	1028012	keystroke	g	n/a
514.306	0.075	1028612	keystroke	a	n/a
514.501	0.075	1029002	keystroke	r	n/a
514.786	0.135	1029572	keystroke	e	n/a
514.995	0.106	1029990	keystroke	t	n/a
515.161	0.104	1030322	keystroke	Key.space	n/a
515.431	0.075	1030862	keystroke	t	n/a
515.551	0.12	1031102	keystroke	o	n/a
515.746	0.12	1031492	keystroke	u	n/a
516.001	0.09	1032002	keystroke	c	n/a
516.106	0.105	1032212	keystroke	h	n/a
516.211	0.09	1032422	keystroke	e	n/a
516.406	0.09	1032812	keystroke	d	n/a
516.481	0.135	1032962	keystroke	Key.space	n/a
516.721	0.105	1033442	keystroke	n	n/a
516.811	0.135	1033622	keystroke	e	n/a
516.961	0.105	1033922	keystroke	a	n/a
517.096	0.12	1034192	keystroke	r	n/a
517.606	0.075	1035212	keystroke	y	n/a
517.921	0.075	1035842	keystroke	Key.backspace	n/a
517.981	0.1045	1035962	keystroke	b	n/a
518.2515	0.105	1036503	keystroke	y	n/a
518.4155	0.09	1036831	keystroke	Key.space	n/a
518.6105	0.105	1037221	keystroke	m	n/a
518.6855	0.18	1037371	keystroke	e	n/a
518.9115	0.135	1037823	keystroke	a	n/a
519.0905	0.135	1038181	keystroke	t	n/a
519.3455	0.135	1038691	keystroke	Key.enter	n/a
519.4875	7.2405	1038975	prompt	n/a	nail principal disk clinical\n
520.0655	0.105	1040131	keystroke	n	n/a
520.1855	0.12	1040371	keystroke	a	n/a
520.2755	0.09	1040551	keystroke	i	n/a
520.4555	0.105	1040911	keystroke	l	n/a
520.6655	0.12	1041331	keystroke	Key.space	n/a
520.9355	0.09	1041871	keystroke	p	n/a
521.1005	0.0905	1042201	keystroke	r	n/a
521.176	0.18	1042352	keystroke	i	n/a
521.281	0.12	1042562	keystroke	n	n/a
521.6255	0.105	1043251	keystroke	c	n/a
521.6855	0.105	1043371	keystroke	i	n/a
521.9555	0.09	1043911	keystroke	p	n/a
522.2105	0.12	1044421	keystroke	l	n/a
522.3605	0.09	1044721	keystroke	e	n/a
522.6305	0.06	1045261	keystroke	Key.backspace	n/a
522.7505	0.075	1045501	keystroke	Key.backspace	n/a
522.8415	0.134	1045683	keystroke	a	n/a
522.9905	0.075	1045981	keystroke	l	n/a
523.1705	0.075	1046341	keystroke	Key.space	n/a
523.3805	0.105	1046761	keystroke	d	n/a
523.4705	0.09	1046941	keystroke	i	n/a
523.5305	0.09	1047061	keystroke	s	n/a
523.8605	0.135	1047721	keystroke	k	n/a
524.1455	0.045	1048291	keystroke	Key.space	n/a
524.371	0.12	1048742	keystroke	c	n/a
524.551	0.15	1049102	keystroke	l	n/a
524.656	0.12	1049312	keystroke	i	n/a
525.2715	0.09	1050543	keystroke	n	n/a
525.4965	0.074	1050993	keystroke	i	n/a
525.6155	0.1355	1051231	keystroke	c	n/a
525.885	0.091	1051770	keystroke	l	n/a
526.2155	0.075	1052431	keystroke	Key.backspace	n/a
526.3065	0.105	1052613	keystroke	a	n/a
526.3955	0.12	1052791	keystroke	l	n/a
526.6205	0.105	1053241	keystroke	Key.enter	n/a
526.734	9.144	1053468	prompt	n/a	charles diamond portions disorders\n
527.2055	0.12	1054411	keystroke	d	n/a
527.5205	0.06	1055041	keystroke	Key.backspace	n/a
527.5955	0.135	1055191	keystroke	c	n/a
527.7155	0.09	1055431	keystroke	h	n/a
527.8205	0.12	1055641	keystroke	a	n/a
528.0905	0.09	1056181	keystroke	r	n/a
528.3605	0.06	1056721	keystroke	e	n/a
528.6455	0.075	1057291	keystroke	Key.backspace	n/a
528.8405	0.09	1057681	keystroke	l	n/a
528.9005	0.075	1057801	keystroke	e	n/a
529.0805	0.075	1058161	keystroke	s	n/a
529.1565	0.089	1058313	keystroke	Key.space	n/a
529.2755	0.135	1058551	keystroke	d	n/a
529.4555	0.09	1058911	keystroke	i	n/a
529.5155	0.135	1059031	keystroke	a	n/a
529.6955	0.09	1059391	keystroke	m	n/a
530.3105	0.12	1060621	keystroke	o	n/a
530.4005	0.12	1060801	keystroke	n	n/a
530.6105	0.105	1061221	keystroke	d	n/a
530.8355	0.09	1061671	keystroke	Key.space	n/a
531.0455	0.1055	1062091	keystroke	p	n/a
531.271	0.15	1062542	keystroke	o	n/a
531.436	0.09	1062872	keystroke	r	n/a
531.601	0.12	1063202	keystroke	t	n/a
531.751	0.12	1063502	keystroke	i	n/a
531.991	0.135	1063982	keystroke	o	n/a
532.096	0.12	1064192	keystroke	n	n/a
532.336	0.105	1064672	keystroke	s	n/a
532.576	0.0895	1065152	keystroke	Key.space	n/a
532.816	0.12	1065632	keystroke	d	n/a
532.951	0.1045	1065902	keystroke	i	n/a
533.0405	0.09	1066081	keystroke	s	n/a
533.2505	0.1205	1066501	keystroke	c	n/a
533.446	0.105	1066892	keystroke	o	n/a
534.061	0.09	1068122	keystroke	Key.backspace	n/a
534.5705	0.0755	1069141	keystroke	Key.backspace	n/a
534.8405	0.0905	1069681	keystroke	o	n/a
534.9905	0.0905	1069981	keystroke	r	n/a
535.156	0.0895	1070312	keystroke	d	n/a
535.3355	0.135	1070671	keystroke	e	n/a
535.4405	0.09	1070881	keystroke	r	n/a
535.6205	0.1055	1071241	keystroke	s	n/a
535.7555	0.12	1071511	keystroke	Key.enter	n/a
535.8825	6.1	1071765	prompt	n/a	vehicles wagon rolling wesley\n
536.4005	0.09	1072801	keystroke	v	n/a
536.5805	0.09	1073161	keystroke	e	n/a
536.7755	0.0755	1073551	keystroke	h	n/a
537.046	0.015	1074092	keystroke	i	n/a
537.076	0.09	1074152	keystroke	c	n/a
537.2855	0.105	1074571	keystroke	l	n/a
537.4355	0.075	1074871	keystroke	e	n/a
537.6155	0.12	1075231	keystroke	s	n/a
537.7505	0.12	1075501	keystroke	Key.space	n/a
537.9905	0.1205	1075981	keystroke	v	n/a
538.141	0.105	1076282	keystroke	a	n/a
538.396	0.0445	1076792	keystroke	Key.backspace	n/a
538.5155	0.105	1077031	keystroke	Key.backspace	n/a
538.6055	0.09	1077211	keystroke	w	n/a
538.6815	0.134	1077363	keystroke	a	n/a
538.8305	0.105	1077661	keystroke	g	n/a
539.2205	0.135	1078441	keystroke	o	n/a
539.3255	0.09	1078651	keystroke	n	n/a
539.4905	0.105	1078981	keystroke	Key.space	n/a
539.7755	0.09	1079551	keystroke	r	n/a
539.8665	0.074	1079733	keystroke	o	n/a
540.0305	0.075	1080061	keystroke	l	n/a
540.1955	0.09	1080391	keystroke	l	n/a
540.331	0.15	1080662	keystroke	i	n/a
540.406	0.09	1080812	keystroke	n	n/a
540.526	0.12	1081052	keystroke	g	n/a
540.616	0.12	1081232	keystroke	Key.space	n/a
