onset	duration	sample	value	key	prompt_text
25.7345	0.105	51469	keystroke_s	s	n/a
25.7345	0.12	51469	keystroke_d	d	n/a
25.7795	0.15	51559	keystroke_j	j	n/a
25.7945	0.12	51589	keystroke_f	f	n/a
25.8845	0.09	51769	keystroke_k	k	n/a
25.9595	0.03	51919	keystroke_l	l	n/a
26.679	0.075	53358	keystroke_Key.backspace	Key.backspace	n/a
26.859	0.06	53718	keystroke_Key.backspace	Key.backspace	n/a
27.0245	0.075	54049	keystroke_Key.backspace	Key.backspace	n/a
27.2195	0.045	54439	keystroke_Key.backspace	Key.backspace	n/a
27.3695	0.06	54739	keystroke_Key.backspace	Key.backspace	n/a
27.5795	0.015	55159	keystroke_Key.backspace	Key.backspace	n/a
31.692	8.152	63384	prompt	n/a	the quick brown fox jumps over a lazy dog\n
33.057	0.012	66114	keystroke_t	t	n/a
33.085	0.074	66170	keystroke_h	h	n/a
33.189	0.075	66378	keystroke_e	e	n/a
33.294	0.075	66588	keystroke_Key.space	Key.space	n/a
33.489	0.075	66978	keystroke_q	q	n/a
33.6095	0.075	67219	keystroke_u	u	n/a
33.7745	0.06	67549	keystroke_i	i	n/a
33.8945	0.0895	67789	keystroke_c	c	n/a
33.999	0.06	67998	keystroke_k	k	n/a
34.179	0.06	68358	keystroke_Key.space	Key.space	n/a
34.569	0.06	69138	keystroke_b	b	n/a
34.794	0.075	69588	keystroke_r	r	n/a
34.959	0.0605	69918	keystroke_o	o	n/a
35.0495	0.075	70099	keystroke_w	w	n/a
35.2145	0.075	70429	keystroke_n	n	n/a
35.4395	0.06	70879	keystroke_Key.space	Key.space	n/a
35.8145	0.06	71629	keystroke_f	f	n/a
35.9345	0.0595	71869	keystroke_o	o	n/a
36.009	0.075	72018	keystroke_x	x	n/a
36.1445	0.045	72289	keystroke_Key.space	Key.space	n/a
36.3095	0.045	72619	keystroke_j	j	n/a
36.5045	0.06	73009	keystroke_u	u	n/a
36.7445	0.06	73489	keystroke_m	m	n/a
36.865	0.09	73730	keystroke_p	p	n/a
37.015	0.0745	74030	keystroke_s	s	n/a
37.1345	0.06	74269	keystroke_Key.space	Key.space	n/a
37.434	0.06	74868	keystroke_o	o	n/a
37.539	0.045	75078	keystroke_v	v	n/a
37.7195	0.18	75439	keystroke_e	e	n/a
37.8545	0.075	75709	keystroke_r	r	n/a
38.0195	0.0595	76039	keystroke_Key.space	Key.space	n/a
38.124	0.0905	76248	keystroke_a	a	n/a
38.259	0.045	76518	keystroke_Key.space	Key.space	n/a
38.499	0.0605	76998	keystroke_l	l	n/a
38.6045	0.06	77209	keystroke_a	a	n/a
38.7995	0.09	77599	keystroke_z	z	n/a
39.0095	0.0595	78019	keystroke_y	y	n/a
39.174	0.06	78348	keystroke_Key.space	Key.space	n/a
39.354	0.06	78708	keystroke_d	d	n/a
39.459	0.06	78918	keystroke_o	o	n/a
39.579	0.075	79158	keystroke_g	g	n/a
39.759	0.075	79518	keystroke_Key.enter	Key.enter	n/a
39.8495	11.4765	79699	prompt	n/a	consumer adverse vernon grades\n
40.75	0.075	81500	keystroke_c	c	n/a
40.87	0.0595	81740	keystroke_o	o	n/a
41.0645	0.06	82129	keystroke_n	n	n/a
41.1845	0.075	82369	keystroke_s	s	n/a
41.3045	0.06	82609	keystroke_u	u	n/a
41.5445	0.06	83089	keystroke_m	m	n/a
41.6345	0.1495	83269	keystroke_e	e	n/a
41.7395	0.0745	83479	keystroke_r	r	n/a
41.919	0.06	83838	keystroke_Key.space	Key.space	n/a
42.2945	0.105	84589	keystroke_a	a	n/a
42.4145	0.06	84829	keystroke_d	d	n/a
42.6545	0.075	85309	keystroke_v	v	n/a
42.8645	0.15	85729	keystroke_s	s	n/a
42.9695	0.105	85939	keystroke_e	e	n/a
43.1945	0.06	86389	keystroke_Key.space	Key.space	n/a
43.659	0.076	87318	keystroke_v	v	n/a
43.989	0.06	87978	keystroke_e	e	n/a
44.004	0.076	88008	keystroke_r	r	n/a
44.229	0.045	88458	keystroke_n	n	n/a
44.38	0.059	88760	keystroke_o	o	n/a
44.5445	0.075	89089	keystroke_n	n	n/a
44.7395	0.045	89479	keystroke_Key.space	Key.space	n/a
45.549	0.06	91098	keystroke_Key.backspace	Key.backspace	n/a
45.729	0.06	91458	keystroke_Key.backspace	Key.backspace	n/a
45.8945	0.06	91789	keystroke_Key.backspace	Key.backspace	n/a
46.0445	0.06	92089	keystroke_Key.backspace	Key.backspace	n/a
46.2095	0.06	92419	keystroke_Key.backspace	Key.backspace	n/a
46.3745	0.06	92749	keystroke_Key.backspace	Key.backspace	n/a
46.5395	0.0595	93079	keystroke_Key.backspace	Key.backspace	n/a
46.704	0.0605	93408	keystroke_Key.backspace	Key.backspace	n/a
46.8695	0.06	93739	keystroke_Key.backspace	Key.backspace	n/a
47.0345	0.06	94069	keystroke_Key.backspace	Key.backspace	n/a
47.7395	0.12	95479	keystroke_e	e	n/a
47.8145	0.075	95629	keystroke_r	r	n/a
48.07	0.15	96140	keystroke_s	s	n/a
48.175	0.09	96350	keystroke_e	e	n/a
48.4745	0.045	96949	keystroke_Key.space	Key.space	n/a
48.835	0.075	97670	keystroke_v	v	n/a
49.045	0.105	98090	keystroke_e	e	n/a
49.105	0.105	98210	keystroke_r	r	n/a
49.255	0.06	98510	keystroke_n	n	n/a
49.435	0.06	98870	keystroke_o	o	n/a
49.585	0.075	99170	keystroke_n	n	n/a
49.75	0.045	99500	keystroke_Key.space	Key.space	n/a
49.915	0.075	99830	keystroke_g	g	n/a
50.11	0.0895	100220	keystroke_r	r	n/a
50.2005	0.134	100401	keystroke_a	a	n/a
50.3045	0.105	100609	keystroke_d	d	n/a
50.5145	0.09	101029	keystroke_e	e	n/a
50.6795	0.0745	101359	keystroke_s	s	n/a
51.264	0.0605	102528	keystroke_Key.enter	Key.enter	n/a
51.329	5.412	102658	prompt	n/a	grill hugh outlined gaps\n
51.9395	0.075	103879	keystroke_g	g	n/a
52.1495	0.06	104299	keystroke_r	r	n/a
52.2395	0.06	104479	keystroke_i	i	n/a
52.4195	0.06	104839	keystroke_l	l	n/a
52.584	0.075	105168	keystroke_l	l	n/a
52.674	0.0605	105348	keystroke_Key.space	Key.space	n/a
53.71	0.045	107420	keystroke_h	h	n/a
53.875	0.045	107750	keystroke_u	u	n/a
53.995	0.075	107990	keystroke_g	g	n/a
54.115	0.075	108230	keystroke_h	h	n/a
54.4	0.03	108800	keystroke_Key.space	Key.space	n/a
55	0.09	110000	keystroke_o	o	n/a
55.135	0.06	110270	keystroke_u	u	n/a
55.225	0.06	110450	keystroke_t	t	n/a
55.315	0.09	110630	keystroke_l	l	n/a
55.465	0.075	110930	keystroke_i	i	n/a
55.5845	0.06	111169	keystroke_n	n	n/a
55.6145	0.075	111229	keystroke_e	e	n/a
55.8245	0.06	111649	keystroke_d	d	n/a
55.944	0.06	111888	keystroke_Key.space	Key.space	n/a
56.08	0.0745	112160	keystroke_g	g	n/a
56.1845	0.09	112369	keystroke_a	a	n/a
56.3345	0.06	112669	keystroke_p	p	n/a
56.4395	0.075	112879	keystroke_s	s	n/a
56.6645	0.075	113329	keystroke_Key.enter	Key.enter	n/a
56.744	6.477	113488	prompt	n/a	intense resolution suits indexes\n
57.4445	0.045	114889	keystroke_i	i	n/a
57.5945	0.06	115189	keystroke_n	n	n/a
57.6695	0.075	115339	keystroke_t	t	n/a
57.8195	0.075	115639	keystroke_e	e	n/a
57.9545	0.075	115909	keystroke_n	n	n/a
58.4345	0.105	116869	keystroke_s	s	n/a
58.4945	0.105	116989	keystroke_e	e	n/a
58.69	0.06	117380	keystroke_Key.space	Key.space	n/a
59.005	0.1195	118010	keystroke_r	r	n/a
59.0945	0.06	118189	keystroke_e	e	n/a
59.2895	0.075	118579	keystroke_s	s	n/a
59.4095	0.06	118819	keystroke_o	o	n/a
59.59	0.075	119180	keystroke_l	l	n/a
59.725	0.06	119450	keystroke_u	u	n/a
59.8	0.06	119600	keystroke_t	t	n/a
59.89	0.12	119780	keystroke_i	i	n/a
59.98	0.09	119960	keystroke_o	o	n/a
60.085	0.09	120170	keystroke_n	n	n/a
60.265	0.045	120530	keystroke_Key.space	Key.space	n/a
60.355	0.09	120710	keystroke_s	s	n/a
60.52	0.045	121040	keystroke_u	u	n/a
60.715	0.045	121430	keystroke_i	i	n/a
60.79	0.06	121580	keystroke_t	t	n/a
60.9395	0.06	121879	keystroke_s	s	n/a
61.044	0.06	122088	keystroke_Key.space	Key.space	n/a
61.419	0.045	122838	keystroke_i	i	n/a
61.57	0.074	123140	keystroke_n	n	n/a
61.629	0.075	123258	keystroke_d	d	n/a
61.809	0.061	123618	keystroke_e	e	n/a
62.274	0.075	124548	keystroke_x	x	n/a
62.7845	0.135	125569	keystroke_e	e	n/a
62.8895	0.12	125779	keystroke_s	s	n/a
63.144	0.075	126288	keystroke_Key.enter	Key.enter	n/a
63.224	6.612	126448	prompt	n/a	specially firefox replica seem\n
63.9095	0.06	127819	keystroke_s	s	n/a
64.0445	0.075	128089	keystroke_p	p	n/a
64.1945	0.06	128389	keystroke_e	e	n/a
64.3745	0.09	128749	keystroke_c	c	n/a
64.4945	0.06	128989	keystroke_i	i	n/a
64.6295	0.06	129259	keystroke_a	a	n/a
64.7195	0.06	129439	keystroke_l	l	n/a
64.8845	0.06	129769	keystroke_l	l	n/a
65.0795	0.0605	130159	keystroke_y	y	n/a
65.274	0.06	130548	keystroke_Key.space	Key.space	n/a
65.619	0.06	131238	keystroke_f	f	n/a
65.739	0.045	131478	keystroke_i	i	n/a
65.829	0.12	131658	keystroke_r	r	n/a
65.904	0.09	131808	keystroke_e	e	n/a
66.1595	0.06	132319	keystroke_f	f	n/a
66.2945	0.0595	132589	keystroke_o	o	n/a
66.414	0.075	132828	keystroke_x	x	n/a
66.549	0.06	133098	keystroke_Key.space	Key.space	n/a
66.804	0.12	133608	keystroke_r	r	n/a
66.894	0.075	133788	keystroke_e	e	n/a
67.074	0.06	134148	keystroke_p	p	n/a
67.254	0.075	134508	keystroke_l	l	n/a
67.389	0.075	134778	keystroke_i	i	n/a
67.524	0.09	135048	keystroke_c	c	n/a
67.584	0.075	135168	keystroke_a	a	n/a
67.78	0.045	135560	keystroke_Key.space	Key.space	n/a
68.005	0.0745	136010	keystroke_s	s	n/a
68.1845	0.06	136369	keystroke_e	e	n/a
68.3495	0.045	136699	keystroke_e	e	n/a
68.4395	0.075	136879	keystroke_m	m	n/a
68.6045	0.06	137209	keystroke_s	s	n/a
69.0395	0.06	138079	keystroke_Key.backspace	Key.backspace	n/a
69.7745	0.06	139549	keystroke_Key.enter	Key.enter	n/a
69.839	6.762	139678	prompt	n/a	eagles mozilla herb number\n
70.6595	0.06	141319	keystroke_e	e	n/a
70.9295	0.075	141859	keystroke_a	a	n/a
71.0645	0.075	142129	keystroke_g	g	n/a
71.1995	0.075	142399	keystroke_l	l	n/a
71.3345	0.06	142669	keystroke_e	e	n/a
71.4845	0.06	142969	keystroke_Key.space	Key.space	n/a
71.7395	0.0755	143479	keystroke_m	m	n/a
72.1595	0.06	144319	keystroke_o	o	n/a
72.369	0.076	144738	keystroke_z	z	n/a
72.67	0.06	145340	keystroke_i	i	n/a
73.5245	0.06	147049	keystroke_l	l	n/a
73.6895	0.06	147379	keystroke_l	l	n/a
73.8245	0.075	147649	keystroke_a	a	n/a
74.0045	0.045	148009	keystroke_Key.space	Key.space	n/a
74.2745	0.06	148549	keystroke_h	h	n/a
74.3795	0.15	148759	keystroke_e	e	n/a
74.4995	0.06	148999	keystroke_r	r	n/a
75.19	0.06	150380	keystroke_b	b	n/a
75.3845	0.06	150769	keystroke_Key.space	Key.space	n/a
75.6995	0.06	151399	keystroke_n	n	n/a
75.8795	0.06	151759	keystroke_u	u	n/a
76.074	0.06	152148	keystroke_m	m	n/a
76.149	0.06	152298	keystroke_b	b	n/a
76.2995	0.12	152599	keystroke_e	e	n/a
76.3895	0.075	152779	keystroke_r	r	n/a
76.5245	0.075	153049	keystroke_Key.enter	Key.enter	n/a
76.606	7.1055	153212	prompt	n/a	allow everyone's carpet texas\n
77.3495	0.075	154699	keystroke_a	a	n/a
77.4695	0.0745	154939	keystroke_l	l	n/a
77.634	0.06	155268	keystroke_l	l	n/a
77.769	0.075	155538	keystroke_o	o	n/a
77.889	0.06	155778	keystroke_w	w	n/a
77.979	0.045	155958	keystroke_Key.space	Key.space	n/a
78.1445	0.075	156289	keystroke_e	e	n/a
78.3545	0.06	156709	keystroke_v	v	n/a
78.5345	0.135	157069	keystroke_e	e	n/a
78.6245	0.06	157249	keystroke_r	r	n/a
78.834	0.06	157668	keystroke_y	y	n/a
78.969	0.0605	157938	keystroke_o	o	n/a
79.1495	0.06	158299	keystroke_n	n	n/a
79.2395	0.06	158479	keystroke_e	e	n/a
79.4795	0.06	158959	keystroke_'	'	n/a
79.5995	0.075	159199	keystroke_s	s	n/a
80.1995	0.06	160399	keystroke_Key.space	Key.space	n/a
80.3645	0.105	160729	keystroke_c	c	n/a
80.4995	0.15	160999	keystroke_a	a	n/a
80.6345	0.09	161269	keystroke_r	r	n/a
80.7995	0.09	161599	keystroke_p	p	n/a
80.9495	0.135	161899	keystroke_e	e	n/a
81.0395	0.09	162079	keystroke_r	r	n/a
81.429	0.075	162858	keystroke_Key.backspace	Key.backspace	n/a
81.565	0.075	163130	keystroke_t	t	n/a
81.744	0.045	163488	keystroke_Key.space	Key.space	n/a
82.2545	0.075	164509	keystroke_t	t	n/a
82.4495	0.06	164899	keystroke_e	e	n/a
82.674	0.06	165348	keystroke_x	x	n/a
82.854	0.06	165708	keystroke_Key.space	Key.space	n/a
83.2595	0.075	166519	keystroke_Key.backspace	Key.backspace	n/a
83.3795	0.1045	166759	keystroke_a	a	n/a
83.4395	0.1205	166879	keystroke_s	s	n/a
83.649	0.0605	167298	keystroke_Key.enter	Key.enter	n/a
83.717	5.829	167434	prompt	n/a	cake versus laws attribute\n
84.3995	0.105	168799	keystroke_c	c	n/a
84.4895	0.045	168979	keystroke_a	a	n/a
84.5645	0.075	169129	keystroke_k	k	n/a
84.6845	0.075	169369	keystroke_e	e	n/a
84.8045	0.045	169609	keystroke_Key.space	Key.space	n/a
84.985	0.09	169970	keystroke_v	v	n/a
85.179	0.121	170358	keystroke_e	e	n/a
85.27	0.06	170540	keystroke_r	r	n/a
85.525	0.06	171050	keystroke_u	u	n/a
85.645	0.075	171290	keystroke_s	s	n/a
85.899	0.06	171798	keystroke_Key.backspace	Key.backspace	n/a
86.034	0.075	172068	keystroke_Key.backspace	Key.backspace	n/a
86.17	0.06	172340	keystroke_s	s	n/a
86.2745	0.075	172549	keystroke_u	u	n/a
86.3795	0.075	172759	keystroke_s	s	n/a
86.514	0.06	173028	keystroke_Key.space	Key.space	n/a
87.009	0.076	174018	keystroke_l	l	n/a
87.0695	0.0905	174139	keystroke_a	a	n/a
87.28	0.075	174560	keystroke_w	w	n/a
87.505	0.075	175010	keystroke_s	s	n/a
87.6845	0.045	175369	keystroke_Key.space	Key.space	n/a
88.105	0.0595	176210	keystroke_a	a	n/a
88.2845	0.045	176569	keystroke_t	t	n/a
88.4645	0.0455	176929	keystroke_t	t	n/a
88.675	0.06	177350	keystroke_r	r	n/a
88.825	0.045	177650	keystroke_i	i	n/a
88.96	0.06	177920	keystroke_b	b	n/a
89.05	0.06	178100	keystroke_u	u	n/a
89.17	0.12	178340	keystroke_t	t	n/a
89.275	0.075	178550	keystroke_e	e	n/a
89.4845	0.06	178969	keystroke_Key.enter	Key.enter	n/a
89.549	9.2895	179098	prompt	n/a	generally organizational confused journals\n
90.3395	0.06	180679	keystroke_g	g	n/a
90.5045	0.075	181009	keystroke_e	e	n/a
90.6245	0.06	181249	keystroke_n	n	n/a
90.7145	0.105	181429	keystroke_e	e	n/a
90.7745	0.075	181549	keystroke_r	r	n/a
90.955	0.075	181910	keystroke_a	a	n/a
91.045	0.06	182090	keystroke_l	l	n/a
91.21	0.06	182420	keystroke_l	l	n/a
91.315	0.06	182630	keystroke_y	y	n/a
91.42	0.06	182840	keystroke_Key.space	Key.space	n/a
91.7795	0.06	183559	keystroke_o	o	n/a
91.9745	0.075	183949	keystroke_r	r	n/a
92.3645	0.075	184729	keystroke_g	g	n/a
92.5295	0.075	185059	keystroke_a	a	n/a
92.7245	0.0755	185449	keystroke_n	n	n/a
92.95	0.059	185900	keystroke_i	i	n/a
93.1	0.12	186200	keystroke_z	z	n/a
93.265	0.06	186530	keystroke_a	a	n/a
93.7745	0.06	187549	keystroke_Key.backspace	Key.backspace	n/a
94.3	0.09	188600	keystroke_a	a	n/a
94.495	0.06	188990	keystroke_t	t	n/a
94.6	0.12	189200	keystroke_i	i	n/a
94.675	0.075	189350	keystroke_o	o	n/a
94.795	0.06	189590	keystroke_n	n	n/a
94.93	0.09	189860	keystroke_a	a	n/a
95.035	0.06	190070	keystroke_l	l	n/a
95.2	0.045	190400	keystroke_Key.space	Key.space	n/a
95.545	0.09	191090	keystroke_c	c	n/a
95.65	0.045	191300	keystroke_o	o	n/a
95.8	0.06	191600	keystroke_n	n	n/a
95.89	0.075	191780	keystroke_f	f	n/a
96.0545	0.06	192109	keystroke_u	u	n/a
96.6245	0.12	193249	keystroke_s	s	n/a
96.7145	0.09	193429	keystroke_e	e	n/a
96.9545	0.045	193909	keystroke_d	d	n/a
97.1795	0.045	194359	keystroke_Key.space	Key.space	n/a
97.6145	0.0595	195229	keystroke_j	j	n/a
97.809	0.06	195618	keystroke_o	o	n/a
97.944	0.075	195888	keystroke_r	r	n/a
98.079	0.06	196158	keystroke_n	n	n/a
98.319	0.03	196638	keystroke_a	a	n/a
98.439	0.06	196878	keystroke_l	l	n/a
98.589	0.06	197178	keystroke_s	s	n/a
98.784	0.045	197568	keystroke_Key.enter	Key.enter	n/a
98.8425	9.131	197685	prompt	n/a	abroad incorrect doesn't club\n
99.669	0.06	199338	keystroke_a	a	n/a
100.0595	0.06	200119	keystroke_b	b	n/a
100.2095	0.045	200419	keystroke_o	o	n/a
100.3745	0.105	200749	keystroke_a	a	n/a
100.4495	0.12	200899	keystroke_r	r	n/a
101.125	0.015	202250	keystroke_Key.backspace	Key.backspace	n/a
101.245	0.06	202490	keystroke_Key.backspace	Key.backspace	n/a
101.41	0.06	202820	keystroke_Key.backspace	Key.backspace	n/a
101.5	0.105	203000	keystroke_r	r	n/a
101.575	0.09	203150	keystroke_a	a	n/a
101.74	0.075	203480	keystroke_o	o	n/a
101.875	0.075	203750	keystroke_d	d	n/a
102.25	0.045	204500	keystroke_Key.backspace	Key.backspace	n/a
102.4	0.06	204800	keystroke_Key.backspace	Key.backspace	n/a
102.535	0.06	205070	keystroke_Key.backspace	Key.backspace	n/a
102.73	0.0595	205460	keystroke_o	o	n/a
102.8045	0.105	205609	keystroke_a	a	n/a
102.8795	0.09	205759	keystroke_d	d	n/a
103.525	0.045	207050	keystroke_Key.space	Key.space	n/a
103.705	0.06	207410	keystroke_i	i	n/a
103.914	0.061	207828	keystroke_n	n	n/a
104.32	0.074	208640	keystroke_c	c	n/a
104.455	0.06	208910	keystroke_o	o	n/a
104.59	0.075	209180	keystroke_r	r	n/a
104.769	0.075	209538	keystroke_r	r	n/a
104.829	0.076	209658	keystroke_e	e	n/a
105.039	0.106	210078	keystroke_c	c	n/a
105.294	0.046	210588	keystroke_t	t	n/a
105.504	0.061	211008	keystroke_Key.space	Key.space	n/a
105.699	0.06	211398	keystroke_d	d	n/a
105.834	0.0605	211668	keystroke_o	o	n/a
105.9245	0.105	211849	keystroke_e	e	n/a
106.0595	0.105	212119	keystroke_s	s	n/a
106.2095	0.06	212419	keystroke_n	n	n/a
106.4045	0.06	212809	keystroke_'	'	n/a
106.5245	0.06	213049	keystroke_t	t	n/a
106.6895	0.045	213379	keystroke_Key.space	Key.space	n/a
107.0945	0.09	214189	keystroke_c	c	n/a
107.2145	0.075	214429	keystroke_l	l	n/a
107.3795	0.045	214759	keystroke_u	u	n/a
107.4845	0.075	214969	keystroke_b	b	n/a
107.9045	0.06	215809	keystroke_Key.enter	Key.enter	n/a
107.9775	8.846	215955	prompt	n/a	specifications serial synthesis question\n
108.6245	0.0605	217249	keystroke_s	s	n/a
108.7145	0.075	217429	keystroke_p	p	n/a
108.8495	0.06	217699	keystroke_e	e	n/a
109.0295	0.09	218059	keystroke_c	c	n/a
109.1645	0.075	218329	keystroke_i	i	n/a
109.33	0.045	218660	keystroke_f	f	n/a
109.45	0.045	218900	keystroke_i	i	n/a
109.525	0.09	219050	keystroke_c	c	n/a
109.63	0.105	219260	keystroke_a	a	n/a
109.81	0.0745	219620	keystroke_t	t	n/a
109.9145	0.1055	219829	keystroke_i	i	n/a
109.989	0.075	219978	keystroke_o	o	n/a
110.154	0.076	220308	keystroke_n	n	n/a
110.319	0.045	220638	keystroke_Key.space	Key.space	n/a
110.665	0.059	221330	keystroke_Key.backspace	Key.backspace	n/a
110.74	0.09	221480	keystroke_s	s	n/a
110.905	0.045	221810	keystroke_Key.space	Key.space	n/a
111.13	0.075	222260	keystroke_s	s	n/a
111.5495	0.12	223099	keystroke_e	e	n/a
111.6395	0.06	223279	keystroke_r	r	n/a
111.8195	0.06	223639	keystroke_i	i	n/a
111.9245	0.09	223849	keystroke_a	a	n/a
112.0595	0.075	224119	keystroke_l	l	n/a
112.2395	0.075	224479	keystroke_s	s	n/a
112.5995	0.06	225199	keystroke_Key.backspace	Key.backspace	n/a
112.7795	0.045	225559	keystroke_Key.space	Key.space	n/a
112.8995	0.09	225799	keystroke_s	s	n/a
113.1245	0.06	226249	keystroke_y	y	n/a
113.3495	0.06	226699	keystroke_n	n	n/a
113.544	0.06	227088	keystroke_t	t	n/a
113.724	0.06	227448	keystroke_h	h	n/a
113.844	0.075	227688	keystroke_e	e	n/a
114.085	0.075	228170	keystroke_s	s	n/a
114.22	0.075	228440	keystroke_i	i	n/a
114.34	0.075	228680	keystroke_s	s	n/a
114.625	0.06	229250	keystroke_Key.space	Key.space	n/a
115.075	0.015	230150	keystroke_a	a	n/a
115.4495	0.06	230899	keystroke_Key.backspace	Key.backspace	n/a
115.555	0.075	231110	keystroke_q	q	n/a
115.69	0.075	231380	keystroke_u	u	n/a
115.81	0.105	231620	keystroke_e	e	n/a
115.9	0.134	231800	keystroke_s	s	n/a
116.02	0.0745	232040	keystroke_t	t	n/a
116.1545	0.105	232309	keystroke_i	i	n/a
116.2145	0.075	232429	keystroke_o	o	n/a
116.35	0.09	232700	keystroke_n	n	n/a
116.755	0.06	233510	keystroke_Key.enter	Key.enter	n/a
116.8275	10.151	233655	prompt	n/a	jumping whats calgary effects\n
117.445	0.06	234890	keystroke_j	j	n/a
117.625	0.045	235250	keystroke_u	u	n/a
117.805	0.075	235610	keystroke_m	m	n/a
117.925	0.09	235850	keystroke_p	p	n/a
118.1495	0.06	236299	keystroke_i	i	n/a
118.2995	0.075	236599	keystroke_n	n	n/a
118.4195	0.06	236839	keystroke_g	g	n/a
118.524	0.075	237048	keystroke_Key.space	Key.space	n/a
118.749	0.105	237498	keystroke_w	w	n/a
118.959	0.061	237918	keystroke_h	h	n/a
119.1995	0.12	238399	keystroke_a	a	n/a
119.3045	0.075	238609	keystroke_t	t	n/a
119.65	0.075	239300	keystroke_s	s	n/a
119.875	0.03	239750	keystroke_Key.space	Key.space	n/a
120.325	0.105	240650	keystroke_c	c	n/a
120.625	0.09	241250	keystroke_a	a	n/a
120.8345	0.06	241669	keystroke_l	l	n/a
121.254	0.091	242508	keystroke_g	g	n/a
121.435	0.12	242870	keystroke_a	a	n/a
121.525	0.105	243050	keystroke_r	r	n/a
121.765	0.06	243530	keystroke_y	y	n/a
121.899	0.061	243798	keystroke_Key.space	Key.space	n/a
122.0495	0.06	244099	keystroke_e	e	n/a
122.1995	0.075	244399	keystroke_f	f	n/a
122.3795	0.06	244759	keystroke_f	f	n/a
122.6045	0.06	245209	keystroke_c	c	n/a
123.1745	0.075	246349	keystroke_Key.backspace	Key.backspace	n/a
123.2795	0.06	246559	keystroke_e	e	n/a
123.3545	0.09	246709	keystroke_c	c	n/a
123.61	0.045	247220	keystroke_t	t	n/a
123.715	0.105	247430	keystroke_i	i	n/a
123.76	0.075	247520	keystroke_o	o	n/a
124.21	0.06	248420	keystroke_Key.backspace	Key.backspace	n/a
124.3	0.09	248600	keystroke_s	s	n/a
124.8545	0.045	249709	keystroke_Key.backspace	Key.backspace	n/a
125.0495	0.0155	250099	keystroke_Key.backspace	Key.backspace	n/a
125.08	0.075	250160	keystroke_s	s	n/a
126.909	0.06	253818	keystroke_Key.enter	Key.enter	n/a
126.982	8.336	253964	prompt	n/a	purse visits complex onto\n
127.84	0.06	255680	keystroke_p	p	n/a
128.005	0.06	256010	keystroke_u	u	n/a
128.32	0.12	256640	keystroke_s	s	n/a
128.41	0.075	256820	keystroke_e	e	n/a
128.935	0.06	257870	keystroke_Key.backspace	Key.backspace	n/a
129.1	0.06	258200	keystroke_Key.backspace	Key.backspace	n/a
129.205	0.09	258410	keystroke_r	r	n/a
129.37	0.1495	258740	keystroke_s	s	n/a
129.4895	0.09	258979	keystroke_e	e	n/a
129.6845	0.06	259369	keystroke_Key.space	Key.space	n/a
130.2995	0.075	260599	keystroke_v	v	n/a
130.45	0.06	260900	keystroke_i	i	n/a
130.54	0.105	261080	keystroke_s	s	n/a
130.75	0.06	261500	keystroke_i	i	n/a
130.885	0.0595	261770	keystroke_t	t	n/a
131.0795	0.075	262159	keystroke_Key.space	Key.space	n/a
131.9645	0.06	263929	keystroke_Key.backspace	Key.backspace	n/a
132.1445	0.06	264289	keystroke_s	s	n/a
132.7595	0.06	265519	keystroke_Key.space	Key.space	n/a
133.0895	0.075	266179	keystroke_c	c	n/a
133.1795	0.06	266359	keystroke_o	o	n/a
133.3295	0.075	266659	keystroke_m	m	n/a
133.4495	0.075	266899	keystroke_p	p	n/a
133.6745	0.0755	267349	keystroke_l	l	n/a
133.8245	0.0605	267649	keystroke_e	e	n/a
134.035	0.06	268070	keystroke_x	x	n/a
134.214	0.06	268428	keystroke_Key.space	Key.space	n/a
134.605	0.0595	269210	keystroke_o	o	n/a
134.77	0.06	269540	keystroke_n	n	n/a
134.875	0.06	269750	keystroke_t	t	n/a
134.995	0.075	269990	keystroke_o	o	n/a
135.235	0.074	270470	keystroke_Key.enter	Key.enter	n/a
135.3225	8.2165	270645	prompt	n/a	crowd newfoundland traveling ones\n
135.9995	0.09	271999	keystroke_c	c	n/a
136.1195	0.061	272239	keystroke_o	o	n/a
136.2995	0.06	272599	keystroke_r	r	n/a
136.4955	0.059	272991	keystroke_w	w	n/a
136.84	0.06	273680	keystroke_Key.backspace	Key.backspace	n/a
137.02	0.045	274040	keystroke_Key.backspace	Key.backspace	n/a
137.14	0.045	274280	keystroke_Key.backspace	Key.backspace	n/a
137.2445	0.075	274489	keystroke_r	r	n/a
137.3945	0.06	274789	keystroke_o	o	n/a
137.4995	0.06	274999	keystroke_w	w	n/a
137.7095	0.06	275419	keystroke_d	d	n/a
138.4895	0.045	276979	keystroke_Key.space	Key.space	n/a
138.8345	0.075	277669	keystroke_n	n	n/a
139.0745	0.135	278149	keystroke_e	e	n/a
139.1345	0.105	278269	keystroke_w	w	n/a
139.4045	0.075	278809	keystroke_f	f	n/a
139.5095	0.045	279019	keystroke_o	o	n/a
139.6445	0.06	279289	keystroke_u	u	n/a
139.8245	0.075	279649	keystroke_n	n	n/a
139.93	0.075	279860	keystroke_d	d	n/a
140.125	0.075	280250	keystroke_l	l	n/a
140.245	0.075	280490	keystroke_a	a	n/a
140.365	0.075	280730	keystroke_n	n	n/a
140.5	0.075	281000	keystroke_d	d	n/a
140.665	0.045	281330	keystroke_Key.space	Key.space	n/a
140.8	0.075	281600	keystroke_t	t	n/a
141.04	0.06	282080	keystroke_r	r	n/a
141.2495	0.0905	282499	keystroke_a	a	n/a
141.385	0.09	282770	keystroke_v	v	n/a
141.685	0.06	283370	keystroke_e	e	n/a
141.835	0.075	283670	keystroke_l	l	n/a
142.06	0.06	284120	keystroke_i	i	n/a
142.225	0.075	284450	keystroke_n	n	n/a
142.345	0.06	284690	keystroke_g	g	n/a
142.495	0.06	284990	keystroke_Key.space	Key.space	n/a
142.87	0.045	285740	keystroke_o	o	n/a
143.02	0.075	286040	keystroke_n	n	n/a
143.11	0.0595	286220	keystroke_e	e	n/a
143.3045	0.06	286609	keystroke_s	s	n/a
143.4695	0.06	286939	keystroke_Key.enter	Key.enter	n/a
143.5435	9.266	287087	prompt	n/a	senators tremendous displayed expo\n
144.16	0.06	288320	keystroke_s	s	n/a
144.34	0.075	288680	keystroke_e	e	n/a
144.445	0.06	288890	keystroke_n	n	n/a
144.85	0.075	289700	keystroke_a	a	n/a
145.105	0.06	290210	keystroke_t	t	n/a
145.27	0.03	290540	keystroke_o	o	n/a
145.3895	0.06	290779	keystroke_r	r	n/a
145.5845	0.075	291169	keystroke_s	s	n/a
146.425	0.045	292850	keystroke_Key.space	Key.space	n/a
146.8	0.075	293600	keystroke_t	t	n/a
147.055	0.135	294110	keystroke_r	r	n/a
147.205	0.09	294410	keystroke_e	e	n/a
147.37	0.06	294740	keystroke_m	m	n/a
147.52	0.06	295040	keystroke_e	e	n/a
149.02	0.06	298040	keystroke_n	n	n/a
149.35	0.075	298700	keystroke_d	d	n/a
149.44	0.0595	298880	keystroke_o	o	n/a
149.5895	0.075	299179	keystroke_u	u	n/a
149.7545	0.06	299509	keystroke_s	s	n/a
149.9045	0.045	299809	keystroke_Key.space	Key.space	n/a
150.1745	0.0755	300349	keystroke_d	d	n/a
150.325	0.045	300650	keystroke_i	i	n/a
150.415	0.0895	300830	keystroke_s	s	n/a
150.535	0.075	301070	keystroke_p	p	n/a
150.73	0.06	301460	keystroke_l	l	n/a
150.82	0.1195	301640	keystroke_a	a	n/a
150.9255	0.09	301851	keystroke_y	y	n/a
151.165	0.06	302330	keystroke_e	e	n/a
151.36	0.06	302720	keystroke_d	d	n/a
151.5845	0.06	303169	keystroke_Key.space	Key.space	n/a
151.9895	0.045	303979	keystroke_e	e	n/a
152.1995	0.06	304399	keystroke_x	x	n/a
152.3195	0.105	304639	keystroke_p	p	n/a
152.4395	0.075	304879	keystroke_o	o	n/a
152.74	0.06	305480	keystroke_Key.enter	Key.enter	n/a
152.814	7.172	305628	prompt	n/a	ferry garbage converted chef\n
153.3845	0.06	306769	keystroke_f	f	n/a
153.5945	0.105	307189	keystroke_e	e	n/a
153.7595	0.06	307519	keystroke_r	r	n/a
153.9245	0.075	307849	keystroke_r	r	n/a
154.1495	0.045	308299	keystroke_y	y	n/a
154.2845	0.06	308569	keystroke_Key.space	Key.space	n/a
154.4645	0.075	308929	keystroke_g	g	n/a
154.6295	0.1055	309259	keystroke_a	a	n/a
154.7045	0.0755	309409	keystroke_r	r	n/a
154.9445	0.075	309889	keystroke_b	b	n/a
155.125	0.09	310250	keystroke_a	a	n/a
155.29	0.12	310580	keystroke_g	g	n/a
155.455	0.09	310910	keystroke_e	e	n/a
155.65	0.06	311300	keystroke_Key.space	Key.space	n/a
155.89	0.09	311780	keystroke_c	c	n/a
155.995	0.06	311990	keystroke_o	o	n/a
156.175	0.075	312350	keystroke_n	n	n/a
156.265	0.075	312530	keystroke_v	v	n/a
156.46	0.135	312920	keystroke_e	e	n/a
156.565	0.075	313130	keystroke_r	r	n/a
156.79	0.06	313580	keystroke_t	t	n/a
156.925	0.1045	313850	keystroke_e	e	n/a
157.195	0.06	314390	keystroke_d	d	n/a
157.48	0.045	314960	keystroke_Key.space	Key.space	n/a
157.854	0.091	315708	keystroke_c	c	n/a
158.08	0.06	316160	keystroke_e	e	n/a
158.185	0.075	316370	keystroke_h	h	n/a
158.35	0.03	316700	keystroke_g	g	n/a
158.74	0.0745	317480	keystroke_Key.backspace	Key.backspace	n/a
158.9195	0.06	317839	keystroke_Key.backspace	Key.backspace	n/a
159.069	0.06	318138	keystroke_Key.backspace	Key.backspace	n/a
159.3245	0.0605	318649	keystroke_h	h	n/a
159.415	0.075	318830	keystroke_e	e	n/a
159.625	0.075	319250	keystroke_f	f	n/a
159.925	0.06	319850	keystroke_Key.enter	Key.enter	n/a
159.9895	6.664	319979	prompt	n/a	ordinary elite brands lake\n
160.8245	0.045	321649	keystroke_o	o	n/a
160.9895	0.06	321979	keystroke_r	r	n/a
161.1845	0.075	322369	keystroke_d	d	n/a
161.3045	0.03	322609	keystroke_i	i	n/a
161.4395	0.075	322879	keystroke_n	n	n/a
161.5295	0.135	323059	keystroke_a	a	n/a
161.6345	0.09	323269	keystroke_r	r	n/a
161.8745	0.045	323749	keystroke_y	y	n/a
162.0695	0.06	324139	keystroke_Key.space	Key.space	n/a
162.4295	0.075	324859	keystroke_e	e	n/a
162.6395	0.06	325279	keystroke_l	l	n/a
162.805	0.045	325610	keystroke_i	i	n/a
162.88	0.135	325760	keystroke_t	t	n/a
163.03	0.06	326060	keystroke_e	e	n/a
163.21	0.045	326420	keystroke_Key.space	Key.space	n/a
163.7045	0.045	327409	keystroke_b	b	n/a
163.975	0.12	327950	keystroke_r	r	n/a
164.11	0.075	328220	keystroke_a	a	n/a
164.23	0.06	328460	keystroke_n	n	n/a
164.35	0.075	328700	keystroke_d	d	n/a
164.559	0.045	329118	keystroke_Key.space	Key.space	n/a
165.28	0.075	330560	keystroke_Key.backspace	Key.backspace	n/a
165.4	0.075	330800	keystroke_s	s	n/a
165.5345	0.06	331069	keystroke_Key.space	Key.space	n/a
165.7445	0.0755	331489	keystroke_l	l	n/a
165.91	0.06	331820	keystroke_a	a	n/a
166.03	0.075	332060	keystroke_k	k	n/a
166.195	0.06	332390	keystroke_e	e	n/a
166.6	0.045	333200	keystroke_Key.enter	Key.enter	n/a
166.6575	11.759	333315	prompt	n/a	momentum constitution pope pattern\n
167.5	0.075	335000	keystroke_m	m	n/a
167.665	0.06	335330	keystroke_o	o	n/a
167.905	0.045	335810	keystroke_m	m	n/a
168.025	0.075	336050	keystroke_e	e	n/a
168.175	0.06	336350	keystroke_n	n	n/a
168.325	0.06	336650	keystroke_t	t	n/a
169.33	0.075	338660	keystroke_u	u	n/a
169.54	0.09	339080	keystroke_m	m	n/a
169.75	0.06	339500	keystroke_Key.space	Key.space	n/a
170.095	0.09	340190	keystroke_c	c	n/a
170.2	0.06	340400	keystroke_o	o	n/a
170.395	0.06	340790	keystroke_n	n	n/a
170.53	0.09	341060	keystroke_s	s	n/a
170.68	0.045	341360	keystroke_i	i	n/a
170.8295	0.06	341659	keystroke_t	t	n/a
170.9795	0.06	341959	keystroke_u	u	n/a
172.2245	0.06	344449	keystroke_Key.backspace	Key.backspace	n/a
172.3895	0.06	344779	keystroke_Key.backspace	Key.backspace	n/a
172.5545	0.045	345109	keystroke_Key.backspace	Key.backspace	n/a
172.6595	0.06	345319	keystroke_t	t	n/a
173.1245	0.06	346249	keystroke_i	i	n/a
173.2445	0.075	346489	keystroke_t	t	n/a
173.4095	0.06	346819	keystroke_u	u	n/a
173.635	0.15	347270	keystroke_i	i	n/a
173.755	0.075	347510	keystroke_o	o	n/a
173.98	0.0745	347960	keystroke_n	n	n/a
174.2795	0.015	348559	keystroke_Key.space	Key.space	n/a
174.5345	0.06	349069	keystroke_Key.backspace	Key.backspace	n/a
174.6995	0.06	349399	keystroke_Key.backspace	Key.backspace	n/a
174.865	0.06	349730	keystroke_Key.backspace	Key.backspace	n/a
175.03	0.075	350060	keystroke_Key.backspace	Key.backspace	n/a
175.135	0.06	350270	keystroke_t	t	n/a
175.27	0.15	350540	keystroke_i	i	n/a
175.345	0.09	350690	keystroke_o	o	n/a
175.495	0.105	350990	keystroke_n	n	n/a
175.765	0.045	351530	keystroke_Key.space	Key.space	n/a
175.9895	0.06	351979	keystroke_p	p	n/a
176.2895	0.0755	352579	keystroke_o	o	n/a
176.485	0.075	352970	keystroke_p	p	n/a
176.62	0.075	353240	keystroke_e	e	n/a
176.8295	0.045	353659	keystroke_Key.space	Key.space	n/a
177.3095	0.06	354619	keystroke_p	p	n/a
177.4295	0.09	354859	keystroke_a	a	n/a
177.5945	0.075	355189	keystroke_t	t	n/a
177.7745	0.045	355549	keystroke_t	t	n/a
177.9245	0.105	355849	keystroke_e	e	n/a
178.0145	0.06	356029	keystroke_r	r	n/a
178.1495	0.0605	356299	keystroke_n	n	n/a
178.345	0.06	356690	keystroke_Key.enter	Key.enter	n/a
178.425	8.348	356850	prompt	n/a	webshots hobbies reggae attacked\n
179.05	0.09	358100	keystroke_w	w	n/a
179.245	0.075	358490	keystroke_e	e	n/a
179.4845	0.075	358969	keystroke_b	b	n/a
179.6945	0.09	359389	keystroke_s	s	n/a
179.7995	0.06	359599	keystroke_h	h	n/a
179.9345	0.06	359869	keystroke_o	o	n/a
180.0095	0.06	360019	keystroke_t	t	n/a
180.1595	0.09	360319	keystroke_s	s	n/a
180.3095	0.06	360619	keystroke_Key.space	Key.space	n/a
180.5795	0.0455	361159	keystroke_h	h	n/a
180.715	0.075	361430	keystroke_o	o	n/a
180.8795	0.06	361759	keystroke_b	b	n/a
181.045	0.06	362090	keystroke_b	b	n/a
181.15	0.075	362300	keystroke_i	i	n/a
181.285	0.12	362570	keystroke_e	e	n/a
181.555	0.165	363110	keystroke_s	s	n/a
182.185	0.0445	364370	keystroke_Key.space	Key.space	n/a
182.3795	0.106	364759	keystroke_r	r	n/a
182.5595	0.09	365119	keystroke_a	a	n/a
182.9945	0.075	365989	keystroke_Key.backspace	Key.backspace	n/a
183.0995	0.06	366199	keystroke_e	e	n/a
183.2795	0.06	366559	keystroke_g	g	n/a
183.4445	0.06	366889	keystroke_g	g	n/a
183.6395	0.06	367279	keystroke_a	a	n/a
183.8495	0.06	367699	keystroke_e	e	n/a
184.0895	0.045	368179	keystroke_Key.space	Key.space	n/a
185.2895	0.09	370579	keystroke_a	a	n/a
185.6045	0.046	371209	keystroke_t	t	n/a
185.7395	0.075	371479	keystroke_t	t	n/a
185.9195	0.121	371839	keystroke_a	a	n/a
186.0095	0.1205	372019	keystroke_c	c	n/a
186.205	0.06	372410	keystroke_k	k	n/a
186.3095	0.045	372619	keystroke_e	e	n/a
186.4895	0.06	372979	keystroke_d	d	n/a
186.6845	0.075	373369	keystroke_Key.enter	Key.enter	n/a
186.7815	7.8395	373563	prompt	n/a	decades sector hilton reference\n
187.375	0.075	374750	keystroke_d	d	n/a
187.6	0.0595	375200	keystroke_e	e	n/a
187.8245	0.09	375649	keystroke_c	c	n/a
188.2595	0.075	376519	keystroke_a	a	n/a
189.025	0.0445	378050	keystroke_d	d	n/a
189.2045	0.06	378409	keystroke_e	e	n/a
189.3845	0.075	378769	keystroke_s	s	n/a
189.5495	0.06	379099	keystroke_Key.space	Key.space	n/a
190.0295	0.075	380059	keystroke_s	s	n/a
190.2095	0.06	380419	keystroke_e	e	n/a
190.375	0.09	380750	keystroke_c	c	n/a
190.615	0.06	381230	keystroke_t	t	n/a
190.765	0.075	381530	keystroke_o	o	n/a
190.93	0.045	381860	keystroke_r	r	n/a
191.05	0.044	382100	keystroke_Key.space	Key.space	n/a
191.245	0.045	382490	keystroke_h	h	n/a
191.41	0.06	382820	keystroke_i	i	n/a
191.679	0.075	383358	keystroke_l	l	n/a
191.86	0.06	383720	keystroke_t	t	n/a
191.995	0.089	383990	keystroke_o	o	n/a
192.159	0.091	384318	keystroke_n	n	n/a
192.354	0.06	384708	keystroke_Key.space	Key.space	n/a
192.6695	0.1345	385339	keystroke_r	r	n/a
192.774	0.076	385548	keystroke_e	e	n/a
192.984	0.075	385968	keystroke_f	f	n/a
193.1495	0.12	386299	keystroke_e	e	n/a
193.2845	0.12	386569	keystroke_r	r	n/a
193.3895	0.075	386779	keystroke_e	e	n/a
193.5095	0.045	387019	keystroke_n	n	n/a
193.6145	0.1055	387229	keystroke_c	c	n/a
193.6905	0.1045	387381	keystroke_e	e	n/a
194.56	0.06	389120	keystroke_Key.enter	Key.enter	n/a
194.625	17.2995	389250	prompt	n/a	cognitive friendly profile indeed\n
195.2945	0.09	390589	keystroke_c	c	n/a
195.3995	0.06	390799	keystroke_o	o	n/a
195.5645	0.075	391129	keystroke_n	n	n/a
195.6995	0.06	391399	keystroke_g	g	n/a
195.82	0.06	391640	keystroke_i	i	n/a
195.955	0.06	391910	keystroke_t	t	n/a
196.09	0.075	392180	keystroke_i	i	n/a
196.3	0.06	392600	keystroke_v	v	n/a
197.079	0.061	394158	keystroke_e	e	n/a
197.32	0.06	394640	keystroke_Key.space	Key.space	n/a
201.942	0	403884	keystroke_Key.backspace	Key.backspace	n/a
202.045	0.0745	404090	keystroke_Key.backspace	Key.backspace	n/a
202.1945	0.06	404389	keystroke_Key.backspace	Key.backspace	n/a
202.3595	0.06	404719	keystroke_Key.backspace	Key.backspace	n/a
202.5245	0.06	405049	keystroke_Key.backspace	Key.backspace	n/a
202.6745	0.075	405349	keystroke_Key.backspace	Key.backspace	n/a
202.8395	0.06	405679	keystroke_Key.backspace	Key.backspace	n/a
202.9755	0.0595	405951	keystroke_Key.backspace	Key.backspace	n/a
203.125	0.0605	406250	keystroke_g	g	n/a
203.2745	0.061	406549	keystroke_n	n	n/a
203.8	0.06	407600	keystroke_i	i	n/a
203.965	0.06	407930	keystroke_t	t	n/a
204.07	0.06	408140	keystroke_i	i	n/a
204.2795	0.076	408559	keystroke_v	v	n/a
204.4905	0.06	408981	keystroke_e	e	n/a
204.6695	0.06	409339	keystroke_Key.space	Key.space	n/a
204.985	0.075	409970	keystroke_f	f	n/a
205.225	0.075	410450	keystroke_r	r	n/a
205.51	0.075	411020	keystroke_e	e	n/a
205.735	0.045	411470	keystroke_i	i	n/a
206.155	0.045	412310	keystroke_Key.backspace	Key.backspace	n/a
206.305	0.075	412610	keystroke_Key.backspace	Key.backspace	n/a
206.575	0.075	413150	keystroke_i	i	n/a
206.725	0.0595	413450	keystroke_e	e	n/a
206.8895	0.06	413779	keystroke_n	n	n/a
206.9945	0.06	413989	keystroke_d	d	n/a
207.1445	0.06	414289	keystroke_l	l	n/a
207.2945	0.045	414589	keystroke_y	y	n/a
207.4595	0.06	414919	keystroke_Key.space	Key.space	n/a
208.315	0.045	416630	keystroke_p	p	n/a
208.84	0.075	417680	keystroke_r	r	n/a
208.96	0.075	417920	keystroke_o	o	n/a
209.1545	0.075	418309	keystroke_f	f	n/a
209.575	0.045	419150	keystroke_i	i	n/a
209.755	0.075	419510	keystroke_l	l	n/a
209.845	0.06	419690	keystroke_e	e	n/a
210.025	0.06	420050	keystroke_Key.space	Key.space	n/a
210.6395	0.045	421279	keystroke_i	i	n/a
210.8045	0.06	421609	keystroke_n	n	n/a
210.8795	0.075	421759	keystroke_d	d	n/a
211.0745	0.0605	422149	keystroke_e	e	n/a
211.225	0.075	422450	keystroke_e	e	n/a
211.585	0.06	423170	keystroke_d	d	n/a
211.855	0.06	423710	keystroke_Key.enter	Key.enter	n/a
211.929	7.359	423858	prompt	n/a	daughters top premiere experiment\n
212.53	0.0595	425060	keystroke_d	d	n/a
212.74	0.075	425480	keystroke_a	a	n/a
212.965	0.0455	425930	keystroke_u	u	n/a
213.1445	0.06	426289	keystroke_g	g	n/a
213.31	0.06	426620	keystroke_h	h	n/a
213.52	0.015	427040	keystroke_t	t	n/a
213.7905	0.1195	427581	keystroke_e	e	n/a
213.94	0.045	427880	keystroke_r	r	n/a
214.495	0.06	428990	keystroke_s	s	n/a
214.69	0.045	429380	keystroke_Key.space	Key.space	n/a
214.87	0.06	429740	keystroke_t	t	n/a
215.0645	0.15	430129	keystroke_o	o	n/a
215.1695	0.075	430339	keystroke_p	p	n/a
215.3645	0.06	430729	keystroke_Key.space	Key.space	n/a
215.6645	0.06	431329	keystroke_p	p	n/a
215.8745	0.15	431749	keystroke_r	r	n/a
215.9795	0.075	431959	keystroke_e	e	n/a
216.175	0.06	432350	keystroke_m	m	n/a
216.43	0.045	432860	keystroke_i	i	n/a
216.8805	0.075	433761	keystroke_e	e	n/a
216.9555	0.165	433911	keystroke_r	r	n/a
217.0905	0.059	434181	keystroke_e	e	n/a
217.24	0.06	434480	keystroke_Key.space	Key.space	n/a
217.57	0.045	435140	keystroke_e	e	n/a
217.7795	0.06	435559	keystroke_x	x	n/a
217.9445	0.075	435889	keystroke_p	p	n/a
218.1245	0.135	436249	keystroke_e	e	n/a
218.2145	0.09	436429	keystroke_r	r	n/a
218.5145	0.045	437029	keystroke_i	i	n/a
218.6945	0.0755	437389	keystroke_m	m	n/a
218.83	0.06	437660	keystroke_e	e	n/a
218.95	0.0595	437900	keystroke_n	n	n/a
219.0695	0.06	438139	keystroke_t	t	n/a
219.205	0.075	438410	keystroke_Key.enter	Key.enter	n/a
219.292	14.8315	438584	prompt	n/a	blond livestock veterans gained\n
220.03	0.075	440060	keystroke_b	b	n/a
220.15	0.075	440300	keystroke_l	l	n/a
220.315	0.06	440630	keystroke_o	o	n/a
220.465	0.09	440930	keystroke_n	n	n/a
220.54	0.075	441080	keystroke_d	d	n/a
220.675	0.0595	441350	keystroke_Key.space	Key.space	n/a
220.8705	0.06	441741	keystroke_l	l	n/a
221.0205	0.06	442041	keystroke_i	i	n/a
221.1405	0.075	442281	keystroke_v	v	n/a
221.3355	0.075	442671	keystroke_e	e	n/a
221.6805	0.0745	443361	keystroke_s	s	n/a
221.845	0.06	443690	keystroke_t	t	n/a
222.01	0.075	444020	keystroke_o	o	n/a
222.115	0.09	444230	keystroke_c	c	n/a
222.25	0.075	444500	keystroke_k	k	n/a
222.49	0.03	444980	keystroke_Key.space	Key.space	n/a
222.64	0.075	445280	keystroke_v	v	n/a
222.895	0.135	445790	keystroke_e	e	n/a
223	0.06	446000	keystroke_r	r	n/a
223.2545	0.045	446509	keystroke_t	t	n/a
223.45	0.105	446900	keystroke_e	e	n/a
223.525	0.06	447050	keystroke_r	r	n/a
223.735	0.06	447470	keystroke_a	a	n/a
223.87	0.06	447740	keystroke_n	n	n/a
223.975	0.09	447950	keystroke_s	s	n/a
224.14	0.06	448280	keystroke_Key.space	Key.space	n/a
224.4105	0.059	448821	keystroke_g	g	n/a
224.8745	0.09	449749	keystroke_a	a	n/a
225.6395	0.06	451279	keystroke_i	i	n/a
225.7895	0.09	451579	keystroke_n	n	n/a
225.8945	0.045	451789	keystroke_e	e	n/a
226.0745	0.06	452149	keystroke_d	d	n/a
228.327	0.103	456654	keystroke_Key.backspace	Key.backspace	n/a
228.565	0.045	457130	keystroke_Key.backspace	Key.backspace	n/a
228.73	0.0455	457460	keystroke_Key.backspace	Key.backspace	n/a
228.9105	0.045	457821	keystroke_Key.backspace	Key.backspace	n/a
229.0755	0.045	458151	keystroke_Key.backspace	Key.backspace	n/a
229.2405	0.06	458481	keystroke_Key.backspace	Key.backspace	n/a
229.4055	0.06	458811	keystroke_Key.backspace	Key.backspace	n/a
229.5705	0.06	459141	keystroke_Key.backspace	Key.backspace	n/a
229.7355	0.06	459471	keystroke_Key.backspace	Key.backspace	n/a
229.9	0.06	459800	keystroke_Key.backspace	Key.backspace	n/a
230.08	0.045	460160	keystroke_Key.backspace	Key.backspace	n/a
230.26	0.06	460520	keystroke_Key.backspace	Key.backspace	n/a
230.515	0.045	461030	keystroke_Key.backspace	Key.backspace	n/a
230.71	0.06	461420	keystroke_Key.backspace	Key.backspace	n/a
231.325	0.015	462650	keystroke_t	t	n/a
231.445	0.105	462890	keystroke_e	e	n/a
231.52	0.09	463040	keystroke_r	r	n/a
232.045	0.075	464090	keystroke_a	a	n/a
232.195	0.06	464390	keystroke_n	n	n/a
232.33	0.105	464660	keystroke_s	s	n/a
233.0195	0.06	466039	keystroke_Key.space	Key.space	n/a
233.2295	0.075	466459	keystroke_g	g	n/a
233.3505	0.104	466701	keystroke_a	a	n/a
233.4695	0.061	466939	keystroke_i	i	n/a
233.62	0.06	467240	keystroke_n	n	n/a
233.695	0.075	467390	keystroke_e	e	n/a
233.905	0.06	467810	keystroke_d	d	n/a
234.07	0.045	468140	keystroke_Key.enter	Key.enter	n/a
234.1275	7.084	468255	prompt	n/a	experience nursery south my\n
234.76	0.06	469520	keystroke_e	e	n/a
234.955	0.09	469910	keystroke_x	x	n/a
235.06	0.075	470120	keystroke_p	p	n/a
235.24	0.1345	470480	keystroke_e	e	n/a
235.33	0.0755	470660	keystroke_r	r	n/a
235.5095	0.031	471019	keystroke_i	i	n/a
235.795	0.06	471590	keystroke_e	e	n/a
235.99	0.045	471980	keystroke_n	n	n/a
236.125	0.15	472250	keystroke_c	c	n/a
236.245	0.075	472490	keystroke_e	e	n/a
236.455	0.06	472910	keystroke_Key.space	Key.space	n/a
237.0545	0.06	474109	keystroke_n	n	n/a
237.2345	0.06	474469	keystroke_u	u	n/a
237.4145	0.03	474829	keystroke_r	r	n/a
237.6245	0.135	475249	keystroke_s	s	n/a
237.7145	0.12	475429	keystroke_e	e	n/a
238.1945	0.045	476389	keystroke_y	y	n/a
238.6595	0.075	477319	keystroke_Key.backspace	Key.backspace	n/a
238.765	0.06	477530	keystroke_r	r	n/a
238.975	0.06	477950	keystroke_y	y	n/a
239.155	0.06	478310	keystroke_Key.space	Key.space	n/a
239.635	0.09	479270	keystroke_s	s	n/a
239.755	0.09	479510	keystroke_o	o	n/a
239.95	0.045	479900	keystroke_u	u	n/a
240.13	0.06	480260	keystroke_t	t	n/a
240.25	0.075	480500	keystroke_h	h	n/a
240.475	0.045	480950	keystroke_Key.space	Key.space	n/a
240.8795	0.06	481759	keystroke_m	m	n/a
241	0.0745	482000	keystroke_y	y	n/a
241.1495	0.06	482299	keystroke_Key.enter	Key.enter	n/a
241.214	5.8025	482428	prompt	n/a	ongoing mature break watson\n
241.7945	0.0755	483589	keystroke_o	o	n/a
241.945	0.09	483890	keystroke_n	n	n/a
242.14	0.045	484280	keystroke_g	g	n/a
242.32	0.075	484640	keystroke_o	o	n/a
243.13	0.06	486260	keystroke_i	i	n/a
243.295	0.075	486590	keystroke_n	n	n/a
243.415	0.075	486830	keystroke_g	g	n/a
243.52	0.0745	487040	keystroke_Key.space	Key.space	n/a
243.7905	0.09	487581	keystroke_m	m	n/a
243.9405	0.0895	487881	keystroke_a	a	n/a
244.09	0.075	488180	keystroke_t	t	n/a
244.285	0.045	488570	keystroke_u	u	n/a
244.36	0.135	488720	keystroke_r	r	n/a
244.435	0.105	488870	keystroke_e	e	n/a
244.615	0.06	489230	keystroke_Key.space	Key.space	n/a
244.9745	0.046	489949	keystroke_b	b	n/a
245.2295	0.135	490459	keystroke_r	r	n/a
245.3195	0.135	490639	keystroke_e	e	n/a
245.4395	0.105	490879	keystroke_a	a	n/a
245.5895	0.075	491179	keystroke_k	k	n/a
245.7695	0.06	491539	keystroke_Key.space	Key.space	n/a
245.9945	0.091	491989	keystroke_w	w	n/a
246.1455	0.119	492291	keystroke_a	a	n/a
246.2795	0.06	492559	keystroke_t	t	n/a
246.4745	0.075	492949	keystroke_s	s	n/a
246.5795	0.075	493159	keystroke_o	o	n/a
246.7445	0.075	493489	keystroke_n	n	n/a
246.9545	0.06	493909	keystroke_Key.enter	Key.enter	n/a
247.019	10.1625	494038	prompt	n/a	focuses develops vision accordingly\n
247.8555	0.06	495711	keystroke_f	f	n/a
248.0205	0.06	496041	keystroke_o	o	n/a
248.2005	0.045	496401	keystroke_u	u	n/a
248.905	0.06	497810	keystroke_Key.backspace	Key.backspace	n/a
249.07	0.09	498140	keystroke_c	c	n/a
249.565	0.045	499130	keystroke_u	u	n/a
250.27	0.0895	500540	keystroke_s	s	n/a
250.4495	0.075	500899	keystroke_e	e	n/a
250.6145	0.075	501229	keystroke_s	s	n/a
250.81	0.06	501620	keystroke_Key.space	Key.space	n/a
251.05	0.06	502100	keystroke_d	d	n/a
251.23	0.06	502460	keystroke_e	e	n/a
251.395	0.06	502790	keystroke_v	v	n/a
251.59	0.03	503180	keystroke_e	e	n/a
251.665	0.09	503330	keystroke_l	l	n/a
251.86	0.105	503720	keystroke_o	o	n/a
251.92	0.075	503840	keystroke_p	p	n/a
252.07	0.075	504140	keystroke_s	s	n/a
252.22	0.0595	504440	keystroke_Key.space	Key.space	n/a
252.49	0.09	504980	keystroke_v	v	n/a
252.67	0.0605	505340	keystroke_i	i	n/a
252.7455	0.075	505491	keystroke_s	s	n/a
252.8805	0.135	505761	keystroke_i	i	n/a
252.9705	0.089	505941	keystroke_o	o	n/a
253.1345	0.09	506269	keystroke_n	n	n/a
253.3145	0.045	506629	keystroke_Key.space	Key.space	n/a
253.5995	0.075	507199	keystroke_a	a	n/a
253.7945	0.09	507589	keystroke_c	c	n/a
253.9445	0.075	507889	keystroke_c	c	n/a
254.1095	0.06	508219	keystroke_o	o	n/a
254.4245	0.061	508849	keystroke_d	d	n/a
254.6355	0.06	509271	keystroke_i	i	n/a
255.1455	0.06	510291	keystroke_Key.backspace	Key.backspace	n/a
255.3255	0.06	510651	keystroke_Key.backspace	Key.backspace	n/a
255.4305	0.075	510861	keystroke_r	r	n/a
255.6555	0.075	511311	keystroke_d	d	n/a
255.805	0.06	511610	keystroke_i	i	n/a
255.985	0.06	511970	keystroke_n	n	n/a
256.105	0.06	512210	keystroke_g	g	n/a
256.615	0.06	513230	keystroke_l	l	n/a
256.72	0.06	513440	keystroke_y	y	n/a
257.125	0.0445	514250	keystroke_Key.enter	Key.enter	n/a
257.187	8.6315	514374	prompt	n/a	idaho fitted miscellaneous be\n
257.845	0.06	515690	keystroke_i	i	n/a
258.025	0.075	516050	keystroke_a	a	n/a
258.445	0.06	516890	keystroke_Key.backspace	Key.backspace	n/a
258.535	0.1045	517070	keystroke_d	d	n/a
258.6095	0.105	517219	keystroke_a	a	n/a
259.075	0.06	518150	keystroke_h	h	n/a
259.24	0.06	518480	keystroke_o	o	n/a
259.42	0.06	518840	keystroke_Key.space	Key.space	n/a
260.0645	0.06	520129	keystroke_i	i	n/a
260.4395	0.045	520879	keystroke_Key.backspace	Key.backspace	n/a
260.5295	0.075	521059	keystroke_f	f	n/a
260.6945	0.06	521389	keystroke_i	i	n/a
260.8145	0.06	521629	keystroke_t	t	n/a
260.9945	0.06	521989	keystroke_t	t	n/a
261.0995	0.075	522199	keystroke_e	e	n/a
261.3095	0.06	522619	keystroke_d	d	n/a
261.4445	0.0755	522889	keystroke_Key.space	Key.space	n/a
261.64	0.075	523280	keystroke_m	m	n/a
261.82	0.045	523640	keystroke_i	i	n/a
261.91	0.09	523820	keystroke_s	s	n/a
262.18	0.105	524360	keystroke_c	c	n/a
262.4205	0.0745	524841	keystroke_e	e	n/a
262.57	0.06	525140	keystroke_l	l	n/a
262.7505	0.045	525501	keystroke_l	l	n/a
262.9905	0.075	525981	keystroke_a	a	n/a
263.1555	0.06	526311	keystroke_n	n	n/a
263.71	0.06	527420	keystroke_e	e	n/a
264.085	0.09	528170	keystroke_o	o	n/a
264.265	0.045	528530	keystroke_u	u	n/a
264.37	0.0895	528740	keystroke_s	s	n/a
264.5045	0.06	529009	keystroke_Key.space	Key.space	n/a
264.6695	0.0755	529339	keystroke_b	b	n/a
264.865	0.06	529730	keystroke_e	e	n/a
265	0.0595	530000	keystroke_Key.space	Key.space	n/a
265.54	0.06	531080	keystroke_Key.backspace	Key.backspace	n/a
265.735	0.075	531470	keystroke_Key.enter	Key.enter	n/a
265.8225	4.609	531645	prompt	n/a	in fraction lived ladder\n
266.5	0.06	533000	keystroke_i	i	n/a
266.65	0.075	533300	keystroke_n	n	n/a
266.785	0.06	533570	keystroke_Key.space	Key.space	n/a
266.905	0.06	533810	keystroke_f	f	n/a
267.1	0.09	534200	keystroke_r	r	n/a
267.175	0.165	534350	keystroke_a	a	n/a
267.31	0.105	534620	keystroke_c	c	n/a
267.55	0.045	535100	keystroke_t	t	n/a
267.58	0.12	535160	keystroke_i	i	n/a
267.64	0.09	535280	keystroke_o	o	n/a
267.76	0.105	535520	keystroke_n	n	n/a
267.895	0.06	535790	keystroke_Key.space	Key.space	n/a
268.075	0.075	536150	keystroke_l	l	n/a
268.4795	0.06	536959	keystroke_i	i	n/a
268.6445	0.045	537289	keystroke_v	v	n/a
268.8245	0.06	537649	keystroke_e	e	n/a
269.0045	0.0605	538009	keystroke_d	d	n/a
269.155	0.06	538310	keystroke_Key.space	Key.space	n/a
269.41	0.06	538820	keystroke_l	l	n/a
269.545	0.075	539090	keystroke_a	a	n/a
269.725	0.06	539450	keystroke_d	d	n/a
269.89	0.045	539780	keystroke_d	d	n/a
270.07	0.09	540140	keystroke_e	e	n/a
270.145	0.075	540290	keystroke_r	r	n/a
270.355	0.075	540710	keystroke_Key.enter	Key.enter	n/a
270.4355	8.0135	540871	prompt	n/a	save springs obtained nasdaq\n
271.0305	0.044	542061	keystroke_s	s	n/a
271.1945	0.12	542389	keystroke_a	a	n/a
271.2995	0.09	542599	keystroke_v	v	n/a
271.495	0.06	542990	keystroke_e	e	n/a
271.645	0.06	543290	keystroke_Key.space	Key.space	n/a
272.0495	0.06	544099	keystroke_s	s	n/a
272.1245	0.0755	544249	keystroke_p	p	n/a
272.305	0.06	544610	keystroke_r	r	n/a
272.425	0.045	544850	keystroke_i	i	n/a
272.56	0.0605	545120	keystroke_n	n	n/a
272.635	0.06	545270	keystroke_g	g	n/a
272.8145	0.075	545629	keystroke_s	s	n/a
273.0245	0.0455	546049	keystroke_Key.space	Key.space	n/a
273.535	0.0755	547070	keystroke_o	o	n/a
273.7005	0.06	547401	keystroke_b	b	n/a
274.15	0.075	548300	keystroke_a	a	n/a
274.51	0.06	549020	keystroke_Key.backspace	Key.backspace	n/a
274.615	0.105	549230	keystroke_t	t	n/a
274.705	0.075	549410	keystroke_a	a	n/a
274.855	0.0605	549710	keystroke_i	i	n/a
275.0205	0.0745	550041	keystroke_n	n	n/a
275.14	0.06	550280	keystroke_e	e	n/a
275.32	0.075	550640	keystroke_d	d	n/a
275.6205	0.06	551241	keystroke_Key.space	Key.space	n/a
275.8755	0.045	551751	keystroke_n	n	n/a
275.9805	0.15	551961	keystroke_a	a	n/a
276.1155	0.09	552231	keystroke_d	d	n/a
276.7455	0.059	553491	keystroke_Key.backspace	Key.backspace	n/a
276.8655	0.135	553731	keystroke_s	s	n/a
277.3445	0.1355	554689	keystroke_d	d	n/a
277.4345	0.105	554869	keystroke_a	a	n/a
277.75	0.09	555500	keystroke_q	q	n/a
278.38	0.06	556760	keystroke_Key.enter	Key.enter	n/a
278.4535	9.0405	556907	prompt	n/a	objects physical recipes graphics\n
279.1455	0.059	558291	keystroke_o	o	n/a
279.3405	0.059	558681	keystroke_b	b	n/a
279.4605	0.059	558921	keystroke_j	j	n/a
279.5795	0.06	559159	keystroke_e	e	n/a
279.7595	0.075	559519	keystroke_c	c	n/a
279.9845	0.045	559969	keystroke_t	t	n/a
280.2395	0.076	560479	keystroke_s	s	n/a
280.4195	0.045	560839	keystroke_Key.space	Key.space	n/a
280.6745	0.0605	561349	keystroke_p	p	n/a
280.87	0.045	561740	keystroke_h	h	n/a
281.005	0.06	562010	keystroke_y	y	n/a
281.23	0.09	562460	keystroke_s	s	n/a
281.5	0.06	563000	keystroke_i	i	n/a
282.055	0.135	564110	keystroke_c	c	n/a
282.145	0.09	564290	keystroke_a	a	n/a
282.265	0.09	564530	keystroke_l	l	n/a
282.445	0.06	564890	keystroke_Key.space	Key.space	n/a
282.73	0.15	565460	keystroke_r	r	n/a
282.85	0.075	565700	keystroke_e	e	n/a
283.2245	0.1205	566449	keystroke_c	c	n/a
284.14	0.06	568280	keystroke_i	i	n/a
284.335	0.06	568670	keystroke_p	p	n/a
284.74	0.06	569480	keystroke_e	e	n/a
285.175	0.075	570350	keystroke_s	s	n/a
285.37	0.06	570740	keystroke_Key.space	Key.space	n/a
285.685	0.075	571370	keystroke_g	g	n/a
285.895	0.12	571790	keystroke_r	r	n/a
285.985	0.09	571970	keystroke_a	a	n/a
286.105	0.06	572210	keystroke_p	p	n/a
286.255	0.0605	572510	keystroke_h	h	n/a
286.4205	0.0595	572841	keystroke_i	i	n/a
286.555	0.09	573110	keystroke_c	c	n/a
286.7645	0.06	573529	keystroke_Key.space	Key.space	n/a
287.1695	0.06	574339	keystroke_Key.backspace	Key.backspace	n/a
287.2755	0.059	574551	keystroke_s	s	n/a
287.4245	0.06	574849	keystroke_Key.enter	Key.enter	n/a
287.498	6.6185	574996	prompt	n/a	attached middle brandon herbs\n
288.2355	0.06	576471	keystroke_a	a	n/a
288.3695	0.075	576739	keystroke_t	t	n/a
288.535	0.06	577070	keystroke_t	t	n/a
288.64	0.21	577280	keystroke_a	a	n/a
288.79	0.105	577580	keystroke_c	c	n/a
288.955	0.06	577910	keystroke_h	h	n/a
289.105	0.06	578210	keystroke_e	e	n/a
289.2845	0.075	578569	keystroke_d	d	n/a
289.4045	0.075	578809	keystroke_Key.space	Key.space	n/a
289.6295	0.045	579259	keystroke_m	m	n/a
289.96	0.045	579920	keystroke_i	i	n/a
290.065	0.06	580130	keystroke_d	d	n/a
290.2455	0.06	580491	keystroke_d	d	n/a
290.4095	0.06	580819	keystroke_l	l	n/a
290.5145	0.075	581029	keystroke_e	e	n/a
290.6645	0.06	581329	keystroke_Key.space	Key.space	n/a
290.9205	0.059	581841	keystroke_b	b	n/a
291.1445	0.1055	582289	keystroke_r	r	n/a
291.2345	0.0905	582469	keystroke_a	a	n/a
291.4	0.045	582800	keystroke_n	n	n/a
291.49	0.075	582980	keystroke_d	d	n/a
292.075	0.075	584150	keystroke_o	o	n/a
292.255	0.075	584510	keystroke_n	n	n/a
292.57	0.045	585140	keystroke_Key.space	Key.space	n/a
293.035	0.06	586070	keystroke_h	h	n/a
293.17	0.15	586340	keystroke_e	e	n/a
293.275	0.06	586550	keystroke_r	r	n/a
293.515	0.06	587030	keystroke_b	b	n/a
293.71	0.075	587420	keystroke_s	s	n/a
294.07	0.045	588140	keystroke_Key.enter	Key.enter	n/a
294.119	9.35	588238	prompt	n/a	blessed trader baseball container\n
295	0.045	590000	keystroke_b	b	n/a
295.06	0.045	590120	keystroke_l	l	n/a
295.21	0.06	590420	keystroke_e	e	n/a
295.8245	0.046	591649	keystroke_s	s	n/a
295.9445	0.0755	591889	keystroke_s	s	n/a
296.14	0.045	592280	keystroke_e	e	n/a
296.29	0.06	592580	keystroke_d	d	n/a
296.455	0.045	592910	keystroke_Key.space	Key.space	n/a
296.635	0.06	593270	keystroke_t	t	n/a
296.845	0.15	593690	keystroke_r	r	n/a
296.965	0.12	593930	keystroke_a	a	n/a
297.205	0.06	594410	keystroke_d	d	n/a
297.64	0.06	595280	keystroke_e	e	n/a
297.82	0.09	595640	keystroke_s	s	n/a
298.33	0.0595	596660	keystroke_Key.backspace	Key.backspace	n/a
298.4955	0.074	596991	keystroke_r	r	n/a
298.7045	0.09	597409	keystroke_Key.space	Key.space	n/a
299.545	0.075	599090	keystroke_b	b	n/a
299.68	0.165	599360	keystroke_a	a	n/a
299.935	0.12	599870	keystroke_e	e	n/a
300.6855	0.06	601371	keystroke_Key.backspace	Key.backspace	n/a
300.88	0.09	601760	keystroke_s	s	n/a
300.94	0.0755	601880	keystroke_e	e	n/a
301.2995	0.075	602599	keystroke_b	b	n/a
301.4355	0.104	602871	keystroke_a	a	n/a
301.5695	0.075	603139	keystroke_l	l	n/a
301.7505	0.06	603501	keystroke_l	l	n/a
301.9455	0.029	603891	keystroke_Key.space	Key.space	n/a
302.335	0.09	604670	keystroke_c	c	n/a
302.44	0.045	604880	keystroke_o	o	n/a
302.575	0.075	605150	keystroke_n	n	n/a
302.68	0.09	605360	keystroke_t	t	n/a
302.83	0.075	605660	keystroke_a	a	n/a
302.92	0.06	605840	keystroke_i	i	n/a
303.055	0.075	606110	keystroke_n	n	n/a
303.145	0.135	606290	keystroke_e	e	n/a
303.235	0.09	606470	keystroke_r	r	n/a
303.385	0.075	606770	keystroke_Key.enter	Key.enter	n/a
303.4735	9.0275	606947	prompt	n/a	baskets jump negotiations coat\n
304.1645	0.06	608329	keystroke_b	b	n/a
304.525	0.12	609050	keystroke_a	a	n/a
304.615	0.09	609230	keystroke_s	s	n/a
304.78	0.06	609560	keystroke_k	k	n/a
305.245	0.105	610490	keystroke_e	e	n/a
305.335	0.105	610670	keystroke_t	t	n/a
306.685	0.0745	613370	keystroke_s	s	n/a
306.8945	0.03	613789	keystroke_Key.space	Key.space	n/a
307.09	0.06	614180	keystroke_j	j	n/a
307.24	0.06	614480	keystroke_u	u	n/a
307.42	0.075	614840	keystroke_m	m	n/a
307.525	0.075	615050	keystroke_p	p	n/a
307.705	0.06	615410	keystroke_s	s	n/a
308.005	0.06	616010	keystroke_Key.backspace	Key.backspace	n/a
308.215	0.045	616430	keystroke_Key.space	Key.space	n/a
308.6195	0.076	617239	keystroke_n	n	n/a
308.755	0.06	617510	keystroke_e	e	n/a
308.9955	0.06	617991	keystroke_g	g	n/a
309.1455	0.075	618291	keystroke_a	a	n/a
309.2655	0.09	618531	keystroke_t	t	n/a
309.4755	0.045	618951	keystroke_i	i	n/a
310.6	0.045	621200	keystroke_a	a	n/a
310.7505	0.075	621501	keystroke_t	t	n/a
310.8555	0.12	621711	keystroke_i	i	n/a
310.9605	0.045	621921	keystroke_o	o	n/a
311.0505	0.09	622101	keystroke_n	n	n/a
311.1855	0.09	622371	keystroke_s	s	n/a
311.335	0.0605	622670	keystroke_Key.space	Key.space	n/a
311.6505	0.1045	623301	keystroke_c	c	n/a
311.785	0.06	623570	keystroke_o	o	n/a
311.875	0.135	623750	keystroke_a	a	n/a
311.98	0.09	623960	keystroke_t	t	n/a
312.415	0.075	624830	keystroke_Key.enter	Key.enter	n/a
312.5065	11.1975	625013	prompt	n/a	resource accident deferred retained\n
313.165	0.15	626330	keystroke_r	r	n/a
313.27	0.12	626540	keystroke_e	e	n/a
313.69	0.06	627380	keystroke_s	s	n/a
313.765	0.09	627530	keystroke_o	o	n/a
313.915	0.075	627830	keystroke_u	u	n/a
314.56	0.09	629120	keystroke_r	r	n/a
314.8145	0.181	629629	keystroke_c	c	n/a
314.9345	0.105	629869	keystroke_e	e	n/a
315.1895	0.06	630379	keystroke_Key.space	Key.space	n/a
315.4155	0.075	630831	keystroke_a	a	n/a
315.6255	0.075	631251	keystroke_c	c	n/a
315.8055	0.059	631611	keystroke_c	c	n/a
315.9545	0.061	631909	keystroke_i	i	n/a
316.0595	0.075	632119	keystroke_d	d	n/a
316.4795	0.061	632959	keystroke_e	e	n/a
316.6145	0.046	633229	keystroke_n	n	n/a
316.7345	0.045	633469	keystroke_t	t	n/a
316.885	0.06	633770	keystroke_Key.space	Key.space	n/a
317.9045	0.06	635809	keystroke_f	f	n/a
318.565	0.06	637130	keystroke_Key.backspace	Key.backspace	n/a
318.655	0.06	637310	keystroke_d	d	n/a
318.8345	0.06	637669	keystroke_e	e	n/a
319.1345	0.06	638269	keystroke_f	f	n/a
319.3595	0.06	638719	keystroke_e	e	n/a
319.5695	0.06	639139	keystroke_r	r	n/a
319.7495	0.061	639499	keystroke_r	r	n/a
319.9	0.06	639800	keystroke_e	e	n/a
320.095	0.06	640190	keystroke_d	d	n/a
320.23	0.075	640460	keystroke_Key.space	Key.space	n/a
320.59	0.15	641180	keystroke_r	r	n/a
320.71	0.075	641420	keystroke_e	e	n/a
320.905	0.12	641810	keystroke_t	t	n/a
321.01	0.09	642020	keystroke_a	a	n/a
321.16	0.03	642320	keystroke_i	i	n/a
321.3105	0.059	642621	keystroke_n	n	n/a
321.3855	0.044	642771	keystroke_e	e	n/a
321.5795	0.061	643159	keystroke_d	d	n/a
322.4505	0.06	644901	keystroke_Key.backspace	Key.backspace	n/a
323.1255	0.06	646251	keystroke_d	d	n/a
323.6205	0.075	647241	keystroke_Key.enter	Key.enter	n/a
323.7085	15.2355	647417	prompt	n/a	prefix tripadvisor continued discharge\n
324.4605	0.09	648921	keystroke_p	p	n/a
324.9105	0.075	649821	keystroke_r	r	n/a
324.9405	0.09	649881	keystroke_e	e	n/a
325.705	0.09	651410	keystroke_f	f	n/a
325.855	0.06	651710	keystroke_i	i	n/a
326.02	0.06	652040	keystroke_x	x	n/a
326.305	0.045	652610	keystroke_Key.space	Key.space	n/a
326.9355	0.09	653871	keystroke_t	t	n/a
327.3395	0.0305	654679	keystroke_r	r	n/a
327.52	0.045	655040	keystroke_i	i	n/a
327.685	0.075	655370	keystroke_p	p	n/a
328.6445	0.075	657289	keystroke_a	a	n/a
328.855	0.075	657710	keystroke_d	d	n/a
330.8655	0.06	661731	keystroke_v	v	n/a
331.0155	0.06	662031	keystroke_i	i	n/a
331.2105	0.06	662421	keystroke_s	s	n/a
331.99	0.045	663980	keystroke_o	o	n/a
332.125	0.075	664250	keystroke_r	r	n/a
332.305	0.06	664610	keystroke_Key.space	Key.space	n/a
332.86	0.075	665720	keystroke_c	c	n/a
332.92	0.06	665840	keystroke_o	o	n/a
333.1	0.075	666200	keystroke_n	n	n/a
333.28	0.075	666560	keystroke_t	t	n/a
334.195	0.06	668390	keystroke_i	i	n/a
334.705	0.0755	669410	keystroke_n	n	n/a
335.0505	0.044	670101	keystroke_u	u	n/a
335.23	0.045	670460	keystroke_i	i	n/a
335.6945	0.06	671389	keystroke_Key.backspace	Key.backspace	n/a
335.8145	0.06	671629	keystroke_e	e	n/a
336.0095	0.045	672019	keystroke_d	d	n/a
336.1595	0.0755	672319	keystroke_Key.space	Key.space	n/a
336.415	0.075	672830	keystroke_d	d	n/a
336.52	0.075	673040	keystroke_i	i	n/a
336.655	0.0755	673310	keystroke_s	s	n/a
337.0895	0.091	674179	keystroke_c	c	n/a
337.2245	0.09	674449	keystroke_h	h	n/a
337.3005	0.104	674601	keystroke_a	a	n/a
337.3905	0.074	674781	keystroke_r	r	n/a
337.6305	0.06	675261	keystroke_g	g	n/a
337.8105	0.165	675621	keystroke_e	e	n/a
337.96	0.0605	675920	keystroke_r	r	n/a
338.62	0.06	677240	keystroke_Key.backspace	Key.backspace	n/a
338.875	0.06	677750	keystroke_Key.enter	Key.enter	n/a
338.948	13.2715	677896	prompt	n/a	madison model restaurants retreat\n
339.6855	0.075	679371	keystroke_m	m	n/a
339.8355	0.06	679671	keystroke_a	a	n/a
340.0605	0.045	680121	keystroke_d	d	n/a
340.195	0.03	680390	keystroke_i	i	n/a
340.345	0.075	680690	keystroke_s	s	n/a
340.435	0.09	680870	keystroke_o	o	n/a
340.63	0.06	681260	keystroke_n	n	n/a
341.0805	0.03	682161	keystroke_Key.space	Key.space	n/a
341.3055	0.06	682611	keystroke_m	m	n/a
341.4855	0.045	682971	keystroke_o	o	n/a
341.6205	0.045	683241	keystroke_d	d	n/a
341.8	0.045	683600	keystroke_e	e	n/a
341.905	0.075	683810	keystroke_l	l	n/a
342.1	0.075	684200	keystroke_Key.space	Key.space	n/a
342.565	0.105	685130	keystroke_r	r	n/a
342.625	0.075	685250	keystroke_e	e	n/a
342.8205	0.105	685641	keystroke_s	s	n/a
343.0455	0.045	686091	keystroke_u	u	n/a
343.7195	0.075	687439	keystroke_Key.backspace	Key.backspace	n/a
343.9005	0.074	687801	keystroke_t	t	n/a
344.0955	0.225	688191	keystroke_u	u	n/a
344.9805	0.059	689961	keystroke_Key.backspace	Key.backspace	n/a
345.0705	0.09	690141	keystroke_a	a	n/a
345.5655	0.06	691131	keystroke_u	u	n/a
345.8505	0.1045	691701	keystroke_r	r	n/a
345.91	0.105	691820	keystroke_a	a	n/a
346.12	0.045	692240	keystroke_n	n	n/a
346.195	0.06	692390	keystroke_t	t	n/a
346.345	0.075	692690	keystroke_s	s	n/a
346.525	0.075	693050	keystroke_Key.space	Key.space	n/a
346.7945	0.1205	693589	keystroke_r	r	n/a
346.87	0.1055	693740	keystroke_e	e	n/a
347.125	0.0755	694250	keystroke_t	t	n/a
347.3355	0.0445	694671	keystroke_u	u	n/a
347.44	0.136	694880	keystroke_r	r	n/a
347.545	0.105	695090	keystroke_e	e	n/a
347.665	0.15	695330	keystroke_a	a	n/a
347.816	0.104	695632	keystroke_t	t	n/a
348.295	0.075	696590	keystroke_Key.backspace	Key.backspace	n/a
348.475	0.06	696950	keystroke_Key.backspace	Key.backspace	n/a
348.64	0.06	697280	keystroke_Key.backspace	Key.backspace	n/a
348.8055	0.045	697611	keystroke_Key.backspace	Key.backspace	n/a
348.9555	0.06	697911	keystroke_Key.backspace	Key.backspace	n/a
351.148	0.042	702296	keystroke_r	r	n/a
351.175	0.03	702350	keystroke_e	e	n/a
351.22	0.0605	702440	keystroke_a	a	n/a
351.235	0.1205	702470	keystroke_t	t	n/a
352.15	0.06	704300	keystroke_Key.enter	Key.enter	n/a
352.224	7.525	704448	prompt	n/a	backing changing hook powell\n
352.9155	0.075	705831	keystroke_b	b	n/a
353.0805	0.12	706161	keystroke_a	a	n/a
353.1855	0.1045	706371	keystroke_c	c	n/a
353.305	0.06	706610	keystroke_k	k	n/a
353.47	0.06	706940	keystroke_i	i	n/a
353.59	0.09	707180	keystroke_n	n	n/a
353.71	0.06	707420	keystroke_g	g	n/a
353.815	0.075	707630	keystroke_Key.space	Key.space	n/a
354.145	0.12	708290	keystroke_c	c	n/a
354.28	0.06	708560	keystroke_h	h	n/a
354.385	0.09	708770	keystroke_a	a	n/a
354.505	0.075	709010	keystroke_n	n	n/a
354.61	0.076	709220	keystroke_g	g	n/a
354.745	0.06	709490	keystroke_i	i	n/a
354.91	0.075	709820	keystroke_n	n	n/a
355	0.075	710000	keystroke_g	g	n/a
355.1955	0.0745	710391	keystroke_Key.space	Key.space	n/a
355.615	0.06	711230	keystroke_b	b	n/a
355.765	0.075	711530	keystroke_h	h	n/a
356.005	0.06	712010	keystroke_Key.backspace	Key.backspace	n/a
356.14	0.075	712280	keystroke_Key.backspace	Key.backspace	n/a
356.3355	0.06	712671	keystroke_h	h	n/a
356.5005	0.06	713001	keystroke_o	o	n/a
356.6505	0.0895	713301	keystroke_o	o	n/a
356.785	0.075	713570	keystroke_k	k	n/a
356.98	0.06	713960	keystroke_Key.space	Key.space	n/a
357.235	0.06	714470	keystroke_p	p	n/a
357.4605	0.06	714921	keystroke_w	w	n/a
358.2255	0.06	716451	keystroke_Key.backspace	Key.backspace	n/a
358.4355	0.06	716871	keystroke_o	o	n/a
358.6005	0.1345	717201	keystroke_w	w	n/a
358.7205	0.0895	717441	keystroke_e	e	n/a
358.945	0.0455	717890	keystroke_l	l	n/a
359.1105	0.06	718221	keystroke_l	l	n/a
359.6955	0.045	719391	keystroke_Key.enter	Key.enter	n/a
359.7525	9.147	719505	prompt	n/a	suffered classifieds cakes except\n
360.445	0.075	720890	keystroke_s	s	n/a
360.61	0.03	721220	keystroke_u	u	n/a
360.745	0.06	721490	keystroke_f	f	n/a
360.91	0.06	721820	keystroke_f	f	n/a
361.075	0.105	722150	keystroke_e	e	n/a
361.165	0.1355	722330	keystroke_r	r	n/a
361.2855	0.0895	722571	keystroke_e	e	n/a
361.5105	0.0595	723021	keystroke_d	d	n/a
361.63	0.075	723260	keystroke_Key.space	Key.space	n/a
362.1255	0.09	724251	keystroke_c	c	n/a
362.2755	0.09	724551	keystroke_l	l	n/a
362.3955	0.075	724791	keystroke_a	a	n/a
362.6055	0.06	725211	keystroke_s	s	n/a
362.77	0.075	725540	keystroke_s	s	n/a
363.04	0.045	726080	keystroke_i	i	n/a
363.205	0.075	726410	keystroke_f	f	n/a
363.325	0.075	726650	keystroke_i	i	n/a
365.3055	0.075	730611	keystroke_e	e	n/a
365.5455	0.075	731091	keystroke_d	d	n/a
366.1005	0.06	732201	keystroke_s	s	n/a
366.25	0.075	732500	keystroke_Key.space	Key.space	n/a
366.385	0.12	732770	keystroke_c	c	n/a
366.535	0.1055	733070	keystroke_a	a	n/a
366.6705	0.06	733341	keystroke_k	k	n/a
366.7605	0.075	733521	keystroke_e	e	n/a
366.9705	0.075	733941	keystroke_s	s	n/a
367.1655	0.06	734331	keystroke_Key.space	Key.space	n/a
367.4805	0.075	734961	keystroke_e	e	n/a
367.7205	0.06	735441	keystroke_x	x	n/a
367.9005	0.075	735801	keystroke_c	c	n/a
368.1105	0.075	736221	keystroke_e	e	n/a
368.2305	0.075	736461	keystroke_p	p	n/a
368.3655	0.045	736731	keystroke_t	t	n/a
368.8305	0.0595	737661	keystroke_Key.enter	Key.enter	n/a
368.9045	7.555	737809	prompt	n/a	yorkshire take substances chase\n
369.641	0.074	739282	keystroke_y	y	n/a
369.865	0.06	739730	keystroke_o	o	n/a
370.03	0.06	740060	keystroke_r	r	n/a
370.165	0.061	740330	keystroke_k	k	n/a
370.255	0.0755	740510	keystroke_s	s	n/a
370.3905	0.075	740781	keystroke_h	h	n/a
370.5705	0.06	741141	keystroke_i	i	n/a
370.6905	0.0745	741381	keystroke_t	t	n/a
371.41	0.045	742820	keystroke_Key.backspace	Key.backspace	n/a
371.515	0.12	743030	keystroke_r	r	n/a
371.59	0.09	743180	keystroke_e	e	n/a
372.01	0.06	744020	keystroke_Key.space	Key.space	n/a
372.415	0.09	744830	keystroke_t	t	n/a
372.52	0.09	745040	keystroke_a	a	n/a
372.67	0.06	745340	keystroke_k	k	n/a
372.745	0.0755	745490	keystroke_e	e	n/a
372.9255	0.075	745851	keystroke_Key.space	Key.space	n/a
373.4805	0.06	746961	keystroke_s	s	n/a
373.6305	0.045	747261	keystroke_u	u	n/a
373.7355	0.075	747471	keystroke_b	b	n/a
373.961	0.075	747922	keystroke_s	s	n/a
374.081	0.134	748162	keystroke_t	t	n/a
374.201	0.135	748402	keystroke_a	a	n/a
374.3805	0.075	748761	keystroke_n	n	n/a
374.4855	0.105	748971	keystroke_c	c	n/a
374.5755	0.075	749151	keystroke_e	e	n/a
374.77	0.0905	749540	keystroke_s	s	n/a
375.025	0.06	750050	keystroke_Key.space	Key.space	n/a
375.7755	0.075	751551	keystroke_c	c	n/a
375.9105	0.075	751821	keystroke_h	h	n/a
375.9705	0.105	751941	keystroke_a	a	n/a
376.0305	0.165	752061	keystroke_s	s	n/a
376.1505	0.105	752301	keystroke_e	e	n/a
376.3755	0.075	752751	keystroke_Key.enter	Key.enter	n/a
376.4635	9.461	752927	prompt	n/a	message scenarios desk maximum\n
377.2155	0.075	754431	keystroke_m	m	n/a
377.3805	0.12	754761	keystroke_e	e	n/a
377.8305	0.06	755661	keystroke_s	s	n/a
377.9805	0.075	755961	keystroke_s	s	n/a
378.1305	0.12	756261	keystroke_a	a	n/a
378.2205	0.15	756441	keystroke_g	g	n/a
378.3555	0.075	756711	keystroke_e	e	n/a
378.5205	0.075	757041	keystroke_Key.space	Key.space	n/a
378.9105	0.09	757821	keystroke_s	s	n/a
379.1355	0.105	758271	keystroke_c	c	n/a
379.4055	0.06	758811	keystroke_e	e	n/a
379.5705	0.075	759141	keystroke_n	n	n/a
379.9905	0.09	759981	keystroke_a	a	n/a
380.3505	0.075	760701	keystroke_r	r	n/a
380.7705	0.045	761541	keystroke_i	i	n/a
380.935	0.075	761870	keystroke_o	o	n/a
381.1	0.06	762200	keystroke_s	s	n/a
381.685	0.06	763370	keystroke_Key.space	Key.space	n/a
381.85	0.075	763700	keystroke_d	d	n/a
382.045	0.105	764090	keystroke_e	e	n/a
382.135	0.105	764270	keystroke_s	s	n/a
382.33	0.045	764660	keystroke_k	k	n/a
382.45	0.06	764900	keystroke_Key.space	Key.space	n/a
382.6455	0.0895	765291	keystroke_m	m	n/a
382.78	0.075	765560	keystroke_a	a	n/a
382.99	0.075	765980	keystroke_x	x	n/a
383.4555	0.075	766911	keystroke_i	i	n/a
384.82	0.09	769640	keystroke_m	m	n/a
385.105	0.075	770210	keystroke_u	u	n/a
385.3305	0.09	770661	keystroke_m	m	n/a
385.855	0.06	771710	keystroke_Key.enter	Key.enter	n/a
385.929	10.315	771858	prompt	n/a	immediately sleep reynolds julian\n
386.605	0.061	773210	keystroke_i	i	n/a
386.875	0.061	773750	keystroke_m	m	n/a
387.04	0.06	774080	keystroke_m	m	n/a
387.91	0.1055	775820	keystroke_e	e	n/a
388.2855	0.06	776571	keystroke_d	d	n/a
388.4505	0.06	776901	keystroke_i	i	n/a
390.1305	0.1195	780261	keystroke_a	a	n/a
390.355	0.12	780710	keystroke_t	t	n/a
390.445	0.075	780890	keystroke_e	e	n/a
390.625	0.045	781250	keystroke_l	l	n/a
390.73	0.0755	781460	keystroke_y	y	n/a
390.9105	0.06	781821	keystroke_Key.space	Key.space	n/a
391.4805	0.075	782961	keystroke_s	s	n/a
391.6455	0.045	783291	keystroke_l	l	n/a
391.8405	0.06	783681	keystroke_e	e	n/a
392.0055	0.075	784011	keystroke_e	e	n/a
392.1705	0.06	784341	keystroke_p	p	n/a
392.3355	0.06	784671	keystroke_Key.space	Key.space	n/a
392.6505	0.135	785301	keystroke_r	r	n/a
392.7705	0.09	785541	keystroke_e	e	n/a
393.0255	0.075	786051	keystroke_y	y	n/a
393.2205	0.075	786441	keystroke_n	n	n/a
393.4155	0.045	786831	keystroke_o	o	n/a
393.6105	0.075	787221	keystroke_l	l	n/a
393.7455	0.105	787491	keystroke_d	d	n/a
393.8955	0.075	787791	keystroke_s	s	n/a
394.0905	0.06	788181	keystroke_Key.space	Key.space	n/a
394.4055	0.075	788811	keystroke_j	j	n/a
394.6305	0.09	789261	keystroke_u	u	n/a
395.1555	0.06	790311	keystroke_l	l	n/a
395.2755	0.06	790551	keystroke_i	i	n/a
395.3955	0.09	790791	keystroke_a	a	n/a
395.5155	0.09	791031	keystroke_n	n	n/a
396.1755	0.0595	792351	keystroke_Key.enter	Key.enter	n/a
396.248	16.4065	792496	prompt	n/a	formation frequently assured fares\n
396.971	0.059	793942	keystroke_f	f	n/a
397.166	0.06	794332	keystroke_o	o	n/a
397.585	0.045	795170	keystroke_r	r	n/a
397.781	0.059	795562	keystroke_m	m	n/a
397.9	0.105	795800	keystroke_a	a	n/a
397.99	0.06	795980	keystroke_t	t	n/a
398.111	0.134	796222	keystroke_i	i	n/a
398.185	0.09	796370	keystroke_o	o	n/a
398.321	0.089	796642	keystroke_n	n	n/a
398.455	0.06	796910	keystroke_Key.space	Key.space	n/a
398.605	0.075	797210	keystroke_f	f	n/a
398.845	0.166	797690	keystroke_r	r	n/a
398.996	0.089	797992	keystroke_e	e	n/a
399.205	0.09	798410	keystroke_q	q	n/a
399.356	0.074	798712	keystroke_u	u	n/a
399.67	0.075	799340	keystroke_e	e	n/a
399.985	0.045	799970	keystroke_n	n	n/a
400.165	0.06	800330	keystroke_e	e	n/a
400.33	0.075	800660	keystroke_l	l	n/a
400.435	0.075	800870	keystroke_t	t	n/a
400.69	0.0605	801380	keystroke_y	y	n/a
400.9305	0.059	801861	keystroke_Key.space	Key.space	n/a
401.5305	0.06	803061	keystroke_Key.backspace	Key.backspace	n/a
401.6955	0.06	803391	keystroke_Key.backspace	Key.backspace	n/a
401.8755	0.06	803751	keystroke_Key.backspace	Key.backspace	n/a
402.0855	0.015	804171	keystroke_Key.backspace	Key.backspace	n/a
402.1305	0.06	804261	keystroke_t	t	n/a
402.2805	0.075	804561	keystroke_l	l	n/a
402.4155	0.09	804831	keystroke_y	y	n/a
402.6105	0.06	805221	keystroke_Key.space	Key.space	n/a
406.513	0.001	813026	keystroke_Key.backspace	Key.backspace	n/a
406.645	0.06	813290	keystroke_Key.backspace	Key.backspace	n/a
406.84	0.06	813680	keystroke_Key.backspace	Key.backspace	n/a
407.02	0.06	814040	keystroke_Key.backspace	Key.backspace	n/a
407.2305	0.045	814461	keystroke_Key.backspace	Key.backspace	n/a
408.0555	0.075	816111	keystroke_t	t	n/a
408.1905	0.06	816381	keystroke_l	l	n/a
408.3105	0.075	816621	keystroke_y	y	n/a
408.6405	0.045	817281	keystroke_Key.space	Key.space	n/a
409.1955	0.09	818391	keystroke_a	a	n/a
409.4205	0.045	818841	keystroke_s	s	n/a
409.5855	0.075	819171	keystroke_s	s	n/a
409.7505	0.0745	819501	keystroke_u	u	n/a
409.826	0.119	819652	keystroke_r	r	n/a
409.885	0.12	819770	keystroke_e	e	n/a
410.125	0.075	820250	keystroke_d	d	n/a
410.275	0.06	820550	keystroke_Key.space	Key.space	n/a
410.4855	0.12	820971	keystroke_f	f	n/a
410.5605	0.15	821121	keystroke_a	a	n/a
410.7255	0.075	821451	keystroke_f	f	n/a
410.8305	0.195	821661	keystroke_e	e	n/a
411.4605	0.015	822921	keystroke_Key.backspace	Key.backspace	n/a
411.5955	0.06	823191	keystroke_Key.backspace	Key.backspace	n/a
411.7305	0.105	823461	keystroke_r	r	n/a
411.7905	0.075	823581	keystroke_e	e	n/a
412.2405	0.06	824481	keystroke_s	s	n/a
412.586	0.06	825172	keystroke_Key.enter	Key.enter	n/a
412.658	6.019	825316	prompt	n/a	beaches layout implemented send\n
413.2905	0.09	826581	keystroke_b	b	n/a
413.5905	0.09	827181	keystroke_e	e	n/a
413.7705	0.1495	827541	keystroke_a	a	n/a
413.9055	0.0745	827811	keystroke_c	c	n/a
414.07	0.06	828140	keystroke_h	h	n/a
414.175	0.06	828350	keystroke_e	e	n/a
414.34	0.09	828680	keystroke_s	s	n/a
414.505	0.06	829010	keystroke_Key.space	Key.space	n/a
414.7	0.0755	829400	keystroke_l	l	n/a
414.7905	0.12	829581	keystroke_a	a	n/a
414.8955	0.075	829791	keystroke_y	y	n/a
415.0755	0.045	830151	keystroke_o	o	n/a
415.1805	0.075	830361	keystroke_u	u	n/a
415.3155	0.075	830631	keystroke_t	t	n/a
415.4355	0.075	830871	keystroke_Key.space	Key.space	n/a
415.6305	0.06	831261	keystroke_i	i	n/a
415.8105	0.105	831621	keystroke_m	m	n/a
415.9905	0.09	831981	keystroke_p	p	n/a
416.2005	0.06	832401	keystroke_l	l	n/a
416.3205	0.06	832641	keystroke_e	e	n/a
416.4705	0.075	832941	keystroke_m	m	n/a
416.5905	0.06	833181	keystroke_e	e	n/a
416.7255	0.06	833451	keystroke_n	n	n/a
416.8005	0.075	833601	keystroke_t	t	n/a
416.935	0.075	833870	keystroke_e	e	n/a
417.145	0.06	834290	keystroke_d	d	n/a
417.325	0.045	834650	keystroke_Key.space	Key.space	n/a
417.67	0.075	835340	keystroke_s	s	n/a
417.805	0.06	835610	keystroke_e	e	n/a
418	0.045	836000	keystroke_n	n	n/a
418.105	0.06	836210	keystroke_d	d	n/a
418.615	0.06	837230	keystroke_Key.enter	Key.enter	n/a
418.681	15.0335	837362	prompt	n/a	palestine amenities plates throws\n
419.336	0.075	838672	keystroke_p	p	n/a
419.621	0.06	839242	keystroke_l	l	n/a
419.951	0.1495	839902	keystroke_a	a	n/a
420.8805	0.06	841761	keystroke_Key.backspace	Key.backspace	n/a
421.0605	0.045	842121	keystroke_Key.backspace	Key.backspace	n/a
421.1805	0.09	842361	keystroke_a	a	n/a
421.7505	0.06	843501	keystroke_l	l	n/a
422.695	0.075	845390	keystroke_e	e	n/a
422.8	0.105	845600	keystroke_s	s	n/a
422.9955	0.06	845991	keystroke_t	t	n/a
423.1005	0.06	846201	keystroke_i	i	n/a
423.2505	0.075	846501	keystroke_n	n	n/a
423.3405	0.06	846681	keystroke_e	e	n/a
423.4905	0.06	846981	keystroke_Key.space	Key.space	n/a
423.8055	0.075	847611	keystroke_a	a	n/a
423.9705	0.075	847941	keystroke_m	m	n/a
424.2405	0.06	848481	keystroke_e	e	n/a
424.4205	0.075	848841	keystroke_n	n	n/a
424.6005	0.075	849201	keystroke_t	t	n/a
424.7205	0.075	849441	keystroke_i	i	n/a
424.8705	0.06	849741	keystroke_t	t	n/a
424.9605	0.06	849921	keystroke_i	i	n/a
425.1105	0.105	850221	keystroke_s	s	n/a
425.2005	0.075	850401	keystroke_e	e	n/a
425.6505	0.06	851301	keystroke_Key.backspace	Key.backspace	n/a
425.8155	0.06	851631	keystroke_Key.backspace	Key.backspace	n/a
425.9055	0.135	851811	keystroke_e	e	n/a
425.9955	0.09	851991	keystroke_s	s	n/a
426.6555	0.24	853311	keystroke_Key.space	Key.space	n/a
427.825	0.061	855650	keystroke_Key.backspace	Key.backspace	n/a
428.006	0.0445	856012	keystroke_Key.backspace	Key.backspace	n/a
428.1705	0.06	856341	keystroke_Key.backspace	Key.backspace	n/a
428.3505	0.06	856701	keystroke_Key.backspace	Key.backspace	n/a
428.531	0.0595	857062	keystroke_Key.backspace	Key.backspace	n/a
428.7105	0.06	857421	keystroke_Key.backspace	Key.backspace	n/a
428.8905	0.06	857781	keystroke_Key.backspace	Key.backspace	n/a
429.805	0.045	859610	keystroke_i	i	n/a
430.21	0.075	860420	keystroke_t	t	n/a
430.39	0.03	860780	keystroke_i	i	n/a
430.825	0.18	861650	keystroke_e	e	n/a
430.96	0.09	861920	keystroke_s	s	n/a
431.185	0.06	862370	keystroke_Key.space	Key.space	n/a
431.5	0.06	863000	keystroke_p	p	n/a
431.665	0.075	863330	keystroke_l	l	n/a
431.71	0.12	863420	keystroke_a	a	n/a
431.815	0.105	863630	keystroke_t	t	n/a
431.935	0.075	863870	keystroke_e	e	n/a
432.115	0.09	864230	keystroke_s	s	n/a
432.295	0.045	864590	keystroke_Key.space	Key.space	n/a
432.4455	0.06	864891	keystroke_t	t	n/a
432.58	0.0605	865160	keystroke_h	h	n/a
432.76	0.075	865520	keystroke_r	r	n/a
432.895	0.06	865790	keystroke_o	o	n/a
433.0155	0.09	866031	keystroke_w	w	n/a
433.3155	0.075	866631	keystroke_s	s	n/a
433.646	0.0595	867292	keystroke_Key.enter	Key.enter	n/a
433.7185	7.48	867437	prompt	n/a	xerox blind donna login\n
434.5605	0.075	869121	keystroke_s	s	n/a
434.905	0.075	869810	keystroke_Key.backspace	Key.backspace	n/a
434.996	0.075	869992	keystroke_x	x	n/a
435.416	0.119	870832	keystroke_e	e	n/a
435.505	0.076	871010	keystroke_r	r	n/a
435.67	0.061	871340	keystroke_o	o	n/a
435.821	0.06	871642	keystroke_s	s	n/a
436.331	0.044	872662	keystroke_Key.backspace	Key.backspace	n/a
436.421	0.075	872842	keystroke_x	x	n/a
436.66	0.061	873320	keystroke_Key.space	Key.space	n/a
437.111	0.075	874222	keystroke_b	b	n/a
437.2	0.046	874400	keystroke_l	l	n/a
437.336	0.06	874672	keystroke_i	i	n/a
437.47	0.076	874940	keystroke_n	n	n/a
437.56	0.075	875120	keystroke_d	d	n/a
437.71	0.06	875420	keystroke_Key.space	Key.space	n/a
437.9505	0.075	875901	keystroke_d	d	n/a
438.1155	0.06	876231	keystroke_o	o	n/a
438.2955	0.06	876591	keystroke_n	n	n/a
438.4455	0.06	876891	keystroke_n	n	n/a
438.5355	0.09	877071	keystroke_a	a	n/a
438.6855	0.06	877371	keystroke_Key.space	Key.space	n/a
439.2705	0.06	878541	keystroke_l	l	n/a
439.4205	0.06	878841	keystroke_g	g	n/a
439.5255	0.075	879051	keystroke_i	i	n/a
439.6755	0.09	879351	keystroke_n	n	n/a
440.0505	0.06	880101	keystroke_Key.backspace	Key.backspace	n/a
440.2155	0.045	880431	keystroke_Key.backspace	Key.backspace	n/a
440.3655	0.045	880731	keystroke_Key.backspace	Key.backspace	n/a
440.5455	0.06	881091	keystroke_o	o	n/a
440.6355	0.075	881271	keystroke_g	g	n/a
440.7405	0.075	881481	keystroke_i	i	n/a
440.8755	0.105	881751	keystroke_n	n	n/a
441.1305	0.06	882261	keystroke_Key.enter	Key.enter	n/a
441.2025	11.8765	882405	prompt	n/a	abstracts claimed organizing feedback\n
442.0155	0.09	884031	keystroke_a	a	n/a
442.2105	0.075	884421	keystroke_b	b	n/a
442.4655	0.075	884931	keystroke_s	s	n/a
442.855	0.075	885710	keystroke_r	r	n/a
443.665	0.075	887330	keystroke_Key.backspace	Key.backspace	n/a
443.755	0.075	887510	keystroke_t	t	n/a
443.95	0.1055	887900	keystroke_r	r	n/a
444.0705	0.135	888141	keystroke_a	a	n/a
444.1905	0.12	888381	keystroke_c	c	n/a
444.4455	0.045	888891	keystroke_t	t	n/a
444.5205	0.105	889041	keystroke_i	i	n/a
444.5655	0.09	889131	keystroke_o	o	n/a
445.151	0.06	890302	keystroke_Key.backspace	Key.backspace	n/a
445.601	0.06	891202	keystroke_Key.backspace	Key.backspace	n/a
445.751	0.075	891502	keystroke_s	s	n/a
445.886	0.06	891772	keystroke_Key.space	Key.space	n/a
446.276	0.09	892552	keystroke_c	c	n/a
446.621	0.06	893242	keystroke_l	l	n/a
446.9355	0.075	893871	keystroke_a	a	n/a
447.2805	0.0445	894561	keystroke_i	i	n/a
447.46	0.076	894920	keystroke_m	m	n/a
447.58	0.061	895160	keystroke_e	e	n/a
447.76	0.06	895520	keystroke_d	d	n/a
447.88	0.06	895760	keystroke_Key.space	Key.space	n/a
448.165	0.045	896330	keystroke_o	o	n/a
448.27	0.075	896540	keystroke_r	r	n/a
448.496	0.089	896992	keystroke_g	g	n/a
448.6005	0.105	897201	keystroke_a	a	n/a
448.9155	0.06	897831	keystroke_n	n	n/a
449.365	0.06	898730	keystroke_i	i	n/a
449.53	0.075	899060	keystroke_z	z	n/a
449.665	0.075	899330	keystroke_i	i	n/a
450.1005	0.06	900201	keystroke_n	n	n/a
450.2205	0.06	900441	keystroke_g	g	n/a
450.3555	0.075	900711	keystroke_Key.space	Key.space	n/a
450.6705	0.0755	901341	keystroke_f	f	n/a
450.881	0.06	901762	keystroke_e	e	n/a
451.0455	0.045	902091	keystroke_e	e	n/a
451.2255	0.06	902451	keystroke_d	d	n/a
451.3905	0.09	902781	keystroke_b	b	n/a
451.5555	0.165	903111	keystroke_a	a	n/a
451.6755	0.12	903351	keystroke_c	c	n/a
451.9155	0.045	903831	keystroke_k	k	n/a
452.9955	0.075	905991	keystroke_Key.enter	Key.enter	n/a
453.083	7.511	906166	prompt	n/a	coverage whatever government florida\n
453.791	0.105	907582	keystroke_c	c	n/a
453.956	0.06	907912	keystroke_o	o	n/a
454.106	0.06	908212	keystroke_v	v	n/a
454.301	0.135	908602	keystroke_e	e	n/a
454.376	0.09	908752	keystroke_r	r	n/a
454.571	0.105	909142	keystroke_a	a	n/a
454.661	0.135	909322	keystroke_g	g	n/a
454.766	0.09	909532	keystroke_e	e	n/a
454.946	0.075	909892	keystroke_Key.space	Key.space	n/a
455.2455	0.06	910491	keystroke_w	w	n/a
455.3805	0.06	910761	keystroke_h	h	n/a
455.4855	0.105	910971	keystroke_a	a	n/a
455.5905	0.075	911181	keystroke_t	t	n/a
455.7855	0.06	911571	keystroke_e	e	n/a
455.9805	0.075	911961	keystroke_v	v	n/a
456.1755	0.1345	912351	keystroke_e	e	n/a
456.25	0.091	912500	keystroke_r	r	n/a
456.506	0.06	913012	keystroke_Key.space	Key.space	n/a
456.821	0.03	913642	keystroke_g	g	n/a
456.971	0.06	913942	keystroke_o	o	n/a
457.151	0.06	914302	keystroke_v	v	n/a
457.361	0.12	914722	keystroke_e	e	n/a
457.451	0.074	914902	keystroke_r	r	n/a
457.601	0.06	915202	keystroke_n	n	n/a
457.811	0.045	915622	keystroke_m	m	n/a
457.901	0.075	915802	keystroke_e	e	n/a
458.035	0.061	916070	keystroke_n	n	n/a
458.171	0.075	916342	keystroke_t	t	n/a
458.32	0.06	916640	keystroke_Key.space	Key.space	n/a
458.636	0.06	917272	keystroke_f	f	n/a
458.8155	0.075	917631	keystroke_l	l	n/a
459.01	0.06	918020	keystroke_o	o	n/a
459.191	0.06	918382	keystroke_r	r	n/a
459.626	0.045	919252	keystroke_i	i	n/a
459.731	0.195	919462	keystroke_d	d	n/a
459.851	0.135	919702	keystroke_a	a	n/a
460.5255	0.06	921051	keystroke_Key.enter	Key.enter	n/a
460.5975	6.7545	921195	prompt	n/a	boost data blanket discretion\n
461.2455	0.105	922491	keystroke_b	b	n/a
461.6205	0.075	923241	keystroke_o	o	n/a
461.7855	0.075	923571	keystroke_o	o	n/a
461.8905	0.135	923781	keystroke_s	s	n/a
462.0105	0.075	924021	keystroke_t	t	n/a
462.2205	0.06	924441	keystroke_Key.space	Key.space	n/a
462.3405	0.105	924681	keystroke_d	d	n/a
462.4755	0.135	924951	keystroke_a	a	n/a
462.5955	0.1495	925191	keystroke_t	t	n/a
462.7305	0.0905	925461	keystroke_a	a	n/a
462.955	0.075	925910	keystroke_Key.space	Key.space	n/a
463.421	0.09	926842	keystroke_b	b	n/a
463.735	0.06	927470	keystroke_l	l	n/a
463.916	0.06	927832	keystroke_a	a	n/a
464.081	0.044	928162	keystroke_n	n	n/a
464.23	0.06	928460	keystroke_k	k	n/a
464.666	0.1495	929332	keystroke_e	e	n/a
464.8305	0.0895	929661	keystroke_t	t	n/a
465.1	0.06	930200	keystroke_Key.space	Key.space	n/a
465.34	0.075	930680	keystroke_d	d	n/a
465.475	0.075	930950	keystroke_i	i	n/a
465.595	0.075	931190	keystroke_s	s	n/a
465.79	0.09	931580	keystroke_c	c	n/a
466.045	0.12	932090	keystroke_r	r	n/a
466.135	0.105	932270	keystroke_e	e	n/a
466.345	0.075	932690	keystroke_t	t	n/a
466.48	0.121	932960	keystroke_i	i	n/a
466.57	0.09	933140	keystroke_o	o	n/a
466.72	0.0905	933440	keystroke_n	n	n/a
467.305	0.045	934610	keystroke_Key.enter	Key.enter	n/a
467.3585	9.691	934717	prompt	n/a	fantastic salon legends pills\n
467.9655	0.09	935931	keystroke_f	f	n/a
468.1005	0.105	936201	keystroke_a	a	n/a
468.2805	0.075	936561	keystroke_n	n	n/a
468.4605	0.09	936921	keystroke_t	t	n/a
468.7005	0.135	937401	keystroke_a	a	n/a
468.7305	0.165	937461	keystroke_s	s	n/a
469.0155	0.075	938031	keystroke_t	t	n/a
469.1805	0.045	938361	keystroke_i	i	n/a
469.3305	0.09	938661	keystroke_c	c	n/a
469.6305	0.075	939261	keystroke_s	s	n/a
470.0805	0.06	940161	keystroke_Key.backspace	Key.backspace	n/a
470.8005	0.06	941601	keystroke_Key.space	Key.space	n/a
471.1005	0.105	942201	keystroke_s	s	n/a
471.3405	0.09	942681	keystroke_a	a	n/a
471.4905	0.075	942981	keystroke_l	l	n/a
471.7005	0.06	943401	keystroke_o	o	n/a
471.8355	0.09	943671	keystroke_n	n	n/a
472.0305	0.045	944061	keystroke_Key.space	Key.space	n/a
472.2405	0.06	944481	keystroke_l	l	n/a
472.3455	0.075	944691	keystroke_e	e	n/a
472.8255	0.045	945651	keystroke_g	g	n/a
473.0355	0.075	946071	keystroke_e	e	n/a
473.1855	0.075	946371	keystroke_n	n	n/a
474.1755	0.09	948351	keystroke_d	d	n/a
474.3855	0.12	948771	keystroke_s	s	n/a
474.6405	0.06	949281	keystroke_Key.space	Key.space	n/a
475.661	0.06	951322	keystroke_p	p	n/a
475.916	0.06	951832	keystroke_i	i	n/a
476.111	0.075	952222	keystroke_l	l	n/a
476.306	0.06	952612	keystroke_l	l	n/a
476.771	0.075	953542	keystroke_s	s	n/a
476.981	0.06	953962	keystroke_Key.enter	Key.enter	n/a
477.053	15.5085	954106	prompt	n/a	measures substitute politics tells\n
477.7455	0.0755	955491	keystroke_m	m	n/a
477.895	0.136	955790	keystroke_e	e	n/a
478.015	0.121	956030	keystroke_a	a	n/a
478.121	0.075	956242	keystroke_s	s	n/a
478.301	0.06	956602	keystroke_u	u	n/a
478.436	0.165	956872	keystroke_r	r	n/a
478.541	0.12	957082	keystroke_e	e	n/a
479.3205	0.0605	958641	keystroke_s	s	n/a
479.47	0.06	958940	keystroke_Key.space	Key.space	n/a
479.83	0.075	959660	keystroke_s	s	n/a
480.071	0.059	960142	keystroke_u	u	n/a
480.175	0.076	960350	keystroke_b	b	n/a
480.52	0.075	961040	keystroke_s	s	n/a
480.64	0.061	961280	keystroke_i	i	n/a
481.0905	0.06	962181	keystroke_Key.backspace	Key.backspace	n/a
481.2555	0.075	962511	keystroke_t	t	n/a
481.3755	0.06	962751	keystroke_i	i	n/a
481.5105	0.06	963021	keystroke_t	t	n/a
481.6305	0.06	963261	keystroke_i	i	n/a
482.2605	0.0745	964521	keystroke_u	u	n/a
482.3955	0.0755	964791	keystroke_e	e	n/a
482.9055	0.06	965811	keystroke_Key.backspace	Key.backspace	n/a
483.0255	0.1205	966051	keystroke_t	t	n/a
483.131	0.09	966262	keystroke_e	e	n/a
483.386	0.06	966772	keystroke_Key.space	Key.space	n/a
486.313	0.001	972626	keystroke_Key.backspace	Key.backspace	n/a
486.4005	0.06	972801	keystroke_Key.backspace	Key.backspace	n/a
486.5655	0.06	973131	keystroke_Key.backspace	Key.backspace	n/a
486.746	0.06	973492	keystroke_Key.backspace	Key.backspace	n/a
486.896	0.06	973792	keystroke_Key.backspace	Key.backspace	n/a
487.961	0.06	975922	keystroke_u	u	n/a
488.081	0.15	976162	keystroke_t	t	n/a
488.186	0.09	976372	keystroke_e	e	n/a
488.396	0.045	976792	keystroke_Key.space	Key.space	n/a
488.996	0.1195	977992	keystroke_p	p	n/a
489.2355	0.075	978471	keystroke_o	o	n/a
489.6105	0.075	979221	keystroke_l	l	n/a
489.955	0.06	979910	keystroke_i	i	n/a
490.151	0.074	980302	keystroke_t	t	n/a
490.4805	0.03	980961	keystroke_i	i	n/a
490.7655	0.12	981531	keystroke_c	c	n/a
490.8865	0.074	981773	keystroke_s	s	n/a
491.0955	0.06	982191	keystroke_Key.space	Key.space	n/a
491.711	0.045	983422	keystroke_t	t	n/a
491.771	0.09	983542	keystroke_e	e	n/a
491.951	0.06	983902	keystroke_l	l	n/a
492.101	0.075	984202	keystroke_l	l	n/a
492.191	0.075	984382	keystroke_s	s	n/a
492.506	0.045	985012	keystroke_Key.enter	Key.enter	n/a
492.5655	10.0885	985131	prompt	n/a	assessing hotels analysis recommendation\n
493.166	0.075	986332	keystroke_a	a	n/a
493.376	0.045	986752	keystroke_s	s	n/a
493.526	0.06	987052	keystroke_s	s	n/a
493.721	0.045	987442	keystroke_e	e	n/a
493.871	0.075	987742	keystroke_s	s	n/a
494.066	0.03	988132	keystroke_s	s	n/a
494.666	0.03	989332	keystroke_i	i	n/a
494.801	0.0745	989602	keystroke_n	n	n/a
494.9055	0.06	989811	keystroke_g	g	n/a
495.056	0.0595	990112	keystroke_Key.space	Key.space	n/a
495.5055	0.045	991011	keystroke_h	h	n/a
495.6555	0.075	991311	keystroke_o	o	n/a
495.7905	0.075	991581	keystroke_t	t	n/a
495.8955	0.09	991791	keystroke_e	e	n/a
496.046	0.075	992092	keystroke_l	l	n/a
496.316	0.06	992632	keystroke_s	s	n/a
496.511	0.06	993022	keystroke_Key.space	Key.space	n/a
496.706	0.06	993412	keystroke_a	a	n/a
496.856	0.06	993712	keystroke_n	n	n/a
496.976	0.075	993952	keystroke_a	a	n/a
497.0955	0.075	994191	keystroke_l	l	n/a
497.261	0.059	994522	keystroke_y	y	n/a
497.47	0.076	994940	keystroke_s	s	n/a
497.695	0.06	995390	keystroke_i	i	n/a
497.815	0.06	995630	keystroke_s	s	n/a
497.965	0.075	995930	keystroke_Key.space	Key.space	n/a
498.641	0.1045	997282	keystroke_r	r	n/a
498.701	0.1045	997402	keystroke_e	e	n/a
498.9555	0.09	997911	keystroke_c	c	n/a
499.2105	0.045	998421	keystroke_o	o	n/a
499.6755	0.06	999351	keystroke_m	m	n/a
499.8405	0.06	999681	keystroke_m	m	n/a
500.6355	0.06	1001271	keystroke_e	e	n/a
500.9505	0.075	1001901	keystroke_n	n	n/a
501.5355	0.135	1003071	keystroke_d	d	n/a
501.6855	0.105	1003371	keystroke_a	a	n/a
501.8055	0.06	1003611	keystroke_t	t	n/a
501.9255	0.12	1003851	keystroke_i	i	n/a
501.9855	0.09	1003971	keystroke_o	o	n/a
502.1355	0.105	1004271	keystroke_n	n	n/a
502.5715	0.074	1005143	keystroke_Key.enter	Key.enter	n/a
502.658	20.3815	1005316	prompt	n/a	lectures based subscriptions specialist\n
503.231	0.059	1006462	keystroke_l	l	n/a
503.5155	0.06	1007031	keystroke_e	e	n/a
503.7105	0.105	1007421	keystroke_c	c	n/a
503.9805	0.06	1007961	keystroke_t	t	n/a
504.1455	0.045	1008291	keystroke_u	u	n/a
504.2055	0.1345	1008411	keystroke_r	r	n/a
504.295	0.105	1008590	keystroke_e	e	n/a
504.49	0.0905	1008980	keystroke_s	s	n/a
504.67	0.06	1009340	keystroke_Key.space	Key.space	n/a
504.8655	0.0755	1009731	keystroke_b	b	n/a
505.001	0.165	1010002	keystroke_a	a	n/a
505.211	0.12	1010422	keystroke_e	e	n/a
505.466	0.09	1010932	keystroke_d	d	n/a
505.721	0.06	1011442	keystroke_Key.space	Key.space	n/a
505.931	0.075	1011862	keystroke_s	s	n/a
506.066	0.06	1012132	keystroke_u	u	n/a
506.201	0.075	1012402	keystroke_b	b	n/a
506.8005	0.0905	1013601	keystroke_c	c	n/a
507.7755	0.045	1015551	keystroke_Key.backspace	Key.backspace	n/a
507.8505	0.09	1015701	keystroke_s	s	n/a
507.9555	0.15	1015911	keystroke_c	c	n/a
508.886	0.06	1017772	keystroke_r	r	n/a
509.861	0.075	1019722	keystroke_p	p	n/a
510.131	0.06	1020262	keystroke_t	t	n/a
510.251	0.165	1020502	keystroke_i	i	n/a
510.341	0.105	1020682	keystroke_o	o	n/a
510.61	0.076	1021220	keystroke_n	n	n/a
510.7905	0.075	1021581	keystroke_s	s	n/a
510.985	0.045	1021970	keystroke_Key.space	Key.space	n/a
516.1775	0.001	1032355	keystroke_Key.backspace	Key.backspace	n/a
516.2655	0.045	1032531	keystroke_Key.backspace	Key.backspace	n/a
516.416	0.075	1032832	keystroke_Key.backspace	Key.backspace	n/a
516.58	0.076	1033160	keystroke_Key.backspace	Key.backspace	n/a
516.7605	0.06	1033521	keystroke_Key.backspace	Key.backspace	n/a
516.9255	0.06	1033851	keystroke_Key.backspace	Key.backspace	n/a
517.361	0.059	1034722	keystroke_Key.backspace	Key.backspace	n/a
518.1855	0.045	1036371	keystroke_i	i	n/a
518.3965	0.06	1036793	keystroke_p	p	n/a
518.9055	0.075	1037811	keystroke_t	t	n/a
518.9955	0.1205	1037991	keystroke_i	i	n/a
519.0705	0.0905	1038141	keystroke_o	o	n/a
519.206	0.075	1038412	keystroke_n	n	n/a
519.311	0.075	1038622	keystroke_s	s	n/a
519.491	0.06	1038982	keystroke_Key.space	Key.space	n/a
519.986	0.09	1039972	keystroke_s	s	n/a
520.106	0.075	1040212	keystroke_p	p	n/a
520.2855	0.075	1040571	keystroke_e	e	n/a
520.4955	0.105	1040991	keystroke_c	c	n/a
520.6305	0.06	1041261	keystroke_i	i	n/a
520.78	0.076	1041560	keystroke_a	a	n/a
520.916	0.089	1041832	keystroke_l	l	n/a
521.126	0.045	1042252	keystroke_i	i	n/a
521.26	0.151	1042520	keystroke_s	s	n/a
521.395	0.076	1042790	keystroke_t	t	n/a
522.9705	0.06	1045941	keystroke_Key.enter	Key.enter	n/a
523.0435	8.8755	1046087	prompt	n/a	flow revelation defeat sword\n
523.7205	0.06	1047441	keystroke_f	f	n/a
523.8255	0.06	1047651	keystroke_l	l	n/a
524.0055	0.045	1048011	keystroke_o	o	n/a
524.0955	0.075	1048191	keystroke_w	w	n/a
524.2455	0.075	1048491	keystroke_Key.space	Key.space	n/a
524.8455	0.12	1049691	keystroke_r	r	n/a
524.9355	0.09	1049871	keystroke_e	e	n/a
525.5955	0.075	1051191	keystroke_v	v	n/a
525.761	0.06	1051522	keystroke_a	a	n/a
526.1355	0.075	1052271	keystroke_Key.backspace	Key.backspace	n/a
526.2565	0.075	1052513	keystroke_e	e	n/a
526.4805	0.075	1052961	keystroke_l	l	n/a
526.6455	0.09	1053291	keystroke_a	a	n/a
526.7215	0.074	1053443	keystroke_t	t	n/a
526.8255	0.12	1053651	keystroke_i	i	n/a
526.8855	0.105	1053771	keystroke_o	o	n/a
527.0355	0.0755	1054071	keystroke_n	n	n/a
527.2305	0.06	1054461	keystroke_Key.space	Key.space	n/a
527.4255	0.06	1054851	keystroke_d	d	n/a
527.6205	0.06	1055241	keystroke_e	e	n/a
527.9205	0.06	1055841	keystroke_f	f	n/a
528.491	0.12	1056982	keystroke_e	e	n/a
528.626	0.09	1057252	keystroke_a	a	n/a
528.8205	0.075	1057641	keystroke_t	t	n/a
529.0305	0.075	1058061	keystroke_Key.space	Key.space	n/a
529.5715	0.045	1059143	keystroke_w	w	n/a
529.6605	0.061	1059321	keystroke_o	o	n/a
529.7815	0.0745	1059563	keystroke_r	r	n/a
530.276	0.06	1060552	keystroke_Key.backspace	Key.backspace	n/a
530.456	0.045	1060912	keystroke_Key.backspace	Key.backspace	n/a
530.561	0.075	1061122	keystroke_Key.backspace	Key.backspace	n/a
530.651	0.06	1061302	keystroke_s	s	n/a
530.846	0.0595	1061692	keystroke_w	w	n/a
531.0405	0.06	1062081	keystroke_o	o	n/a
531.266	0.06	1062532	keystroke_r	r	n/a
531.476	0.075	1062952	keystroke_d	d	n/a
531.851	0.06	1063702	keystroke_Key.enter	Key.enter	n/a
531.9235	8.306	1063847	prompt	n/a	talent arbor relaxation objectives\n
532.6615	0.1045	1065323	keystroke_t	t	n/a
532.781	0.105	1065562	keystroke_a	a	n/a
532.916	0.075	1065832	keystroke_l	l	n/a
533.066	0.09	1066132	keystroke_e	e	n/a
533.216	0.075	1066432	keystroke_n	n	n/a
533.381	0.06	1066762	keystroke_t	t	n/a
533.621	0.045	1067242	keystroke_Key.space	Key.space	n/a
533.9805	0.075	1067961	keystroke_a	a	n/a
534.2355	0.0605	1068471	keystroke_r	r	n/a
534.476	0.06	1068952	keystroke_b	b	n/a
534.596	0.06	1069192	keystroke_o	o	n/a
534.716	0.0745	1069432	keystroke_r	r	n/a
534.8655	0.06	1069731	keystroke_Key.space	Key.space	n/a
535.1655	0.06	1070331	keystroke_e	e	n/a
535.5255	0.03	1071051	keystroke_Key.backspace	Key.backspace	n/a
535.6155	0.12	1071231	keystroke_r	r	n/a
535.6905	0.09	1071381	keystroke_e	e	n/a
535.8705	0.075	1071741	keystroke_l	l	n/a
536.2755	0.045	1072551	keystroke_a	a	n/a
536.8755	0.075	1073751	keystroke_x	x	n/a
537.4455	0.015	1074891	keystroke_a	a	n/a
537.5655	0.0455	1075131	keystroke_t	t	n/a
537.641	0.135	1075282	keystroke_i	i	n/a
537.731	0.09	1075462	keystroke_o	o	n/a
537.866	0.09	1075732	keystroke_n	n	n/a
538.016	0.075	1076032	keystroke_Key.space	Key.space	n/a
538.376	0.06	1076752	keystroke_o	o	n/a
538.541	0.06	1077082	keystroke_b	b	n/a
538.646	0.075	1077292	keystroke_j	j	n/a
538.781	0.075	1077562	keystroke_e	e	n/a
538.991	0.0745	1077982	keystroke_c	c	n/a
539.2005	0.06	1078401	keystroke_t	t	n/a
539.3355	0.075	1078671	keystroke_i	i	n/a
539.4555	0.075	1078911	keystroke_v	v	n/a
539.6355	0.06	1079271	keystroke_e	e	n/a
539.8905	0.075	1079781	keystroke_s	s	n/a
540.1605	0.06	1080321	keystroke_Key.enter	Key.enter	n/a
540.233	12.1315	1080466	prompt	n/a	institution sculpture isolation ctrl\n
540.866	0.06	1081732	keystroke_i	i	n/a
541.0305	0.075	1082061	keystroke_n	n	n/a
541.2105	0.075	1082421	keystroke_s	s	n/a
541.3455	0.06	1082691	keystroke_i	i	n/a
541.5405	0.06	1083081	keystroke_t	t	n/a
541.8555	0.03	1083711	keystroke_i	i	n/a
542.3655	0.075	1084731	keystroke_Key.backspace	Key.backspace	n/a
542.5305	0.045	1085061	keystroke_Key.backspace	Key.backspace	n/a
542.6805	0.045	1085361	keystroke_Key.backspace	Key.backspace	n/a
542.801	0.06	1085602	keystroke_t	t	n/a
542.921	0.06	1085842	keystroke_i	i	n/a
543.0405	0.06	1086081	keystroke_t	t	n/a
543.671	0.075	1087342	keystroke_u	u	n/a
543.881	0.06	1087762	keystroke_t	t	n/a
543.985	0.106	1087970	keystroke_i	i	n/a
544.061	0.09	1088122	keystroke_o	o	n/a
544.211	0.105	1088422	keystroke_n	n	n/a
544.405	0.061	1088810	keystroke_Key.space	Key.space	n/a
544.676	0.09	1089352	keystroke_s	s	n/a
545.1555	0.09	1090311	keystroke_c	c	n/a
545.426	0.0745	1090852	keystroke_u	u	n/a
545.936	0.06	1091872	keystroke_l	l	n/a
546.716	0.045	1093432	keystroke_p	p	n/a
547.3455	0.075	1094691	keystroke_t	t	n/a
547.4655	0.06	1094931	keystroke_u	u	n/a
547.5705	0.12	1095141	keystroke_r	r	n/a
547.6605	0.09	1095321	keystroke_e	e	n/a
547.8705	0.06	1095741	keystroke_Key.space	Key.space	n/a
548.3655	0.075	1096731	keystroke_i	i	n/a
548.5155	0.105	1097031	keystroke_s	s	n/a
549.221	0.075	1098442	keystroke_o	o	n/a
549.551	0.075	1099102	keystroke_l	l	n/a
549.671	0.12	1099342	keystroke_a	a	n/a
549.761	0.105	1099522	keystroke_t	t	n/a
549.881	0.075	1099762	keystroke_i	i	n/a
549.926	0.105	1099852	keystroke_o	o	n/a
550.046	0.105	1100092	keystroke_n	n	n/a
550.241	0.0595	1100482	keystroke_Key.space	Key.space	n/a
550.6455	0.06	1101291	keystroke_s	s	n/a
550.9305	0.06	1101861	keystroke_Key.backspace	Key.backspace	n/a
551.0205	0.09	1102041	keystroke_c	c	n/a
551.2905	0.075	1102581	keystroke_t	t	n/a
551.5155	0.06	1103031	keystroke_r	r	n/a
551.9355	0.075	1103871	keystroke_l	l	n/a
552.2955	0.06	1104591	keystroke_Key.enter	Key.enter	n/a
552.3685	5.659	1104737	prompt	n/a	route concord shore trauma\n
553.211	0.074	1106422	keystroke_r	r	n/a
553.33	0.046	1106660	keystroke_o	o	n/a
553.451	0.075	1106902	keystroke_u	u	n/a
553.57	0.151	1107140	keystroke_t	t	n/a
553.706	0.075	1107412	keystroke_e	e	n/a
553.945	0.076	1107890	keystroke_Key.space	Key.space	n/a
554.501	0.075	1109002	keystroke_c	c	n/a
554.576	0.06	1109152	keystroke_o	o	n/a
554.756	0.06	1109512	keystroke_n	n	n/a
555.011	0.06	1110022	keystroke_c	c	n/a
555.116	0.06	1110232	keystroke_o	o	n/a
555.266	0.06	1110532	keystroke_r	r	n/a
555.446	0.075	1110892	keystroke_d	d	n/a
555.596	0.06	1111192	keystroke_Key.space	Key.space	n/a
555.821	0.06	1111642	keystroke_s	s	n/a
555.911	0.06	1111822	keystroke_h	h	n/a
556.091	0.06	1112182	keystroke_o	o	n/a
556.121	0.165	1112242	keystroke_r	r	n/a
556.256	0.06	1112512	keystroke_e	e	n/a
556.376	0.075	1112752	keystroke_Key.space	Key.space	n/a
556.586	0.075	1113172	keystroke_t	t	n/a
556.811	0.105	1113622	keystroke_r	r	n/a
556.901	0.09	1113802	keystroke_a	a	n/a
557.2605	0.06	1114521	keystroke_u	u	n/a
557.4855	0.06	1114971	keystroke_m	m	n/a
557.6055	0.075	1115211	keystroke_a	a	n/a
557.9805	0.045	1115961	keystroke_Key.enter	Key.enter	n/a
558.03	11.0745	1116060	prompt	n/a	thomas bank thumbnail bodies\n
558.716	0.075	1117432	keystroke_t	t	n/a
558.971	0.06	1117942	keystroke_h	h	n/a
559.346	0.06	1118692	keystroke_m	m	n/a
559.556	0.075	1119112	keystroke_o	o	n/a
559.916	0.165	1119832	keystroke_a	a	n/a
560.051	0.075	1120102	keystroke_s	s	n/a
560.276	0.06	1120552	keystroke_Key.backspace	Key.backspace	n/a
560.456	0.045	1120912	keystroke_Key.backspace	Key.backspace	n/a
560.6055	0.045	1121211	keystroke_Key.backspace	Key.backspace	n/a
561.1755	0.06	1122351	keystroke_Key.backspace	Key.backspace	n/a
561.3855	0.06	1122771	keystroke_o	o	n/a
561.5355	0.075	1123071	keystroke_m	m	n/a
561.6855	0.15	1123371	keystroke_a	a	n/a
561.7755	0.12	1123551	keystroke_s	s	n/a
562.0005	0.045	1124001	keystroke_Key.space	Key.space	n/a
562.5855	0.09	1125171	keystroke_b	b	n/a
562.766	0.09	1125532	keystroke_a	a	n/a
562.901	0.075	1125802	keystroke_n	n	n/a
563.081	0.06	1126162	keystroke_k	k	n/a
563.321	0.03	1126642	keystroke_Key.space	Key.space	n/a
564.011	0.06	1128022	keystroke_t	t	n/a
564.251	0.06	1128502	keystroke_h	h	n/a
565.001	0.06	1130002	keystroke_u	u	n/a
565.2855	0.06	1130571	keystroke_b	b	n/a
565.8105	0.075	1131621	keystroke_Key.backspace	Key.backspace	n/a
566.231	0.075	1132462	keystroke_m	m	n/a
566.501	0.06	1133002	keystroke_b	b	n/a
566.7855	0.06	1133571	keystroke_n	n	n/a
566.9055	0.075	1133811	keystroke_a	a	n/a
567.0105	0.06	1134021	keystroke_i	i	n/a
567.1905	0.06	1134381	keystroke_l	l	n/a
567.3555	0.06	1134711	keystroke_Key.space	Key.space	n/a
567.5805	0.06	1135161	keystroke_b	b	n/a
567.7005	0.12	1135401	keystroke_o	o	n/a
568.1505	0.075	1136301	keystroke_d	d	n/a
568.4355	0.06	1136871	keystroke_i	i	n/a
568.5555	0.075	1137111	keystroke_e	e	n/a
568.7655	0.075	1137531	keystroke_s	s	n/a
569.0205	0.075	1138041	keystroke_Key.enter	Key.enter	n/a
569.1085	10.781	1138217	prompt	n/a	garmin fragrance employee healing\n
569.7855	0.06	1139571	keystroke_g	g	n/a
570.0405	0.12	1140081	keystroke_a	a	n/a
570.1305	0.09	1140261	keystroke_r	r	n/a
570.3555	0.06	1140711	keystroke_m	m	n/a
570.5355	0.06	1141071	keystroke_i	i	n/a
570.7005	0.06	1141401	keystroke_n	n	n/a
570.8505	0.06	1141701	keystroke_Key.space	Key.space	n/a
571.181	0.09	1142362	keystroke_f	f	n/a
571.436	0.105	1142872	keystroke_r	r	n/a
571.586	0.09	1143172	keystroke_a	a	n/a
571.736	0.075	1143472	keystroke_g	g	n/a
573.416	0.15	1146832	keystroke_r	r	n/a
573.551	0.09	1147102	keystroke_a	a	n/a
573.731	0.075	1147462	keystroke_n	n	n/a
573.851	0.15	1147702	keystroke_c	c	n/a
573.956	0.09	1147912	keystroke_e	e	n/a
574.151	0.059	1148302	keystroke_Key.space	Key.space	n/a
574.436	0.075	1148872	keystroke_e	e	n/a
574.586	0.06	1149172	keystroke_m	m	n/a
574.766	0.074	1149532	keystroke_p	p	n/a
574.96	0.06	1149920	keystroke_l	l	n/a
575.321	0.074	1150642	keystroke_o	o	n/a
575.531	0.06	1151062	keystroke_y	y	n/a
575.8305	0.06	1151661	keystroke_e	e	n/a
575.9955	0.06	1151991	keystroke_e	e	n/a
576.206	0.06	1152412	keystroke_Key.space	Key.space	n/a
577.1505	0.06	1154301	keystroke_h	h	n/a
577.2405	0.12	1154481	keystroke_e	e	n/a
577.331	0.0895	1154662	keystroke_a	a	n/a
577.4505	0.045	1154901	keystroke_l	l	n/a
577.5855	0.045	1155171	keystroke_l	l	n/a
577.9605	0.06	1155921	keystroke_Key.backspace	Key.backspace	n/a
578.1705	0.06	1156341	keystroke_i	i	n/a
578.3355	0.06	1156671	keystroke_n	n	n/a
578.4405	0.06	1156881	keystroke_g	g	n/a
579.2205	0.0595	1158441	keystroke_s	s	n/a
579.581	0.059	1159162	keystroke_Key.backspace	Key.backspace	n/a
579.805	0.0755	1159610	keystroke_Key.enter	Key.enter	n/a
579.895	13.6895	1159790	prompt	n/a	building vulnerability asus crossing\n
580.571	0.075	1161142	keystroke_b	b	n/a
580.661	0.074	1161322	keystroke_u	u	n/a
580.871	0.075	1161742	keystroke_i	i	n/a
581.051	0.09	1162102	keystroke_l	l	n/a
581.231	0.06	1162462	keystroke_d	d	n/a
581.411	0.045	1162822	keystroke_i	i	n/a
581.561	0.0745	1163122	keystroke_n	n	n/a
581.6955	0.06	1163391	keystroke_g	g	n/a
581.9355	0.06	1163871	keystroke_Key.space	Key.space	n/a
582.2505	0.06	1164501	keystroke_v	v	n/a
582.881	0.06	1165762	keystroke_u	u	n/a
583.4955	0.06	1166991	keystroke_l	l	n/a
583.7355	0.075	1167471	keystroke_n	n	n/a
583.8555	0.135	1167711	keystroke_e	e	n/a
583.9305	0.09	1167861	keystroke_r	r	n/a
584.861	0.09	1169722	keystroke_a	a	n/a
585.026	0.075	1170052	keystroke_b	b	n/a
585.176	0.075	1170352	keystroke_l	l	n/a
585.491	0.06	1170982	keystroke_i	i	n/a
585.626	0.09	1171252	keystroke_l	l	n/a
585.746	0.045	1171492	keystroke_i	i	n/a
585.896	0.045	1171792	keystroke_t	t	n/a
586.1955	0.06	1172391	keystroke_y	y	n/a
586.4055	0.06	1172811	keystroke_Key.space	Key.space	n/a
587.4855	0.075	1174971	keystroke_Key.backspace	Key.backspace	n/a
587.7105	0.06	1175421	keystroke_Key.backspace	Key.backspace	n/a
587.9205	0.06	1175841	keystroke_Key.backspace	Key.backspace	n/a
588.1455	0.045	1176291	keystroke_Key.backspace	Key.backspace	n/a
588.5655	0.06	1177131	keystroke_Key.backspace	Key.backspace	n/a
588.7605	0.03	1177521	keystroke_Key.backspace	Key.backspace	n/a
589.4355	0.06	1178871	keystroke_Key.backspace	Key.backspace	n/a
589.7065	0.059	1179413	keystroke_i	i	n/a
589.9005	0.045	1179801	keystroke_l	l	n/a
590.0505	0.06	1180101	keystroke_i	i	n/a
590.1855	0.06	1180371	keystroke_t	t	n/a
590.3655	0.045	1180731	keystroke_y	y	n/a
590.5005	0.06	1181001	keystroke_Key.space	Key.space	n/a
591.0555	0.1055	1182111	keystroke_a	a	n/a
591.341	0.09	1182682	keystroke_s	s	n/a
591.461	0.06	1182922	keystroke_u	u	n/a
591.566	0.09	1183132	keystroke_s	s	n/a
591.701	0.06	1183402	keystroke_Key.space	Key.space	n/a
592.016	0.09	1184032	keystroke_c	c	n/a
