onset	duration	sample	value	key	prompt_text
4.56	7.761	9120	prompt	n/a	the quick brown fox jumps over a lazy dog\n
6.1235	0.0425	12247	keystroke	t	n/a
6.1235	0.117	12247	keystroke	h	n/a
6.2555	0.136	12511	keystroke	e	n/a
6.3615	0.09	12723	keystroke	Key.space	n/a
6.467	0.1045	12934	keystroke	q	n/a
6.557	0.1345	13114	keystroke	u	n/a
6.662	0.0895	13324	keystroke	i	n/a
6.677	0.1195	13354	keystroke	c	n/a
6.8565	0.135	13713	keystroke	c	n/a
7.067	0.0895	14134	keystroke	k	n/a
7.2615	0.061	14523	keystroke	Key.space	n/a
7.4575	0.075	14915	keystroke	Key.backspace	n/a
7.6375	0.06	15275	keystroke	Key.backspace	n/a
7.7875	0.075	15575	keystroke	Key.backspace	n/a
7.923	0.1045	15846	keystroke	k	n/a
8.087	0.1205	16174	keystroke	Key.space	n/a
8.1925	0.105	16385	keystroke	b	n/a
8.3125	0.1345	16625	keystroke	r	n/a
8.432	0.0605	16864	keystroke	o	n/a
8.5225	0.12	17045	keystroke	w	n/a
8.5975	0.105	17195	keystroke	n	n/a
8.717	0.1205	17434	keystroke	Key.space	n/a
8.792	0.1055	17584	keystroke	f	n/a
8.8825	0.1045	17765	keystroke	o	n/a
9.0025	0.1495	18005	keystroke	x	n/a
9.1375	0.12	18275	keystroke	Key.space	n/a
9.2425	0.09	18485	keystroke	j	n/a
9.4375	0.09	18875	keystroke	u	n/a
9.633	0.0745	19266	keystroke	m	n/a
9.7675	0.105	19535	keystroke	p	n/a
9.843	0.104	19686	keystroke	s	n/a
9.9625	0.105	19925	keystroke	Key.space	n/a
10.0825	0.075	20165	keystroke	o	n/a
10.1275	0.045	20255	keystroke	v	n/a
10.2775	0.0745	20555	keystroke	e	n/a
10.3675	0.135	20735	keystroke	r	n/a
10.4575	0.105	20915	keystroke	Key.space	n/a
10.5775	0.1345	21155	keystroke	a	n/a
10.6825	0.1505	21365	keystroke	Key.space	n/a
11.0875	0.09	22175	keystroke	l	n/a
11.2085	0.089	22417	keystroke	a	n/a
11.403	0.0895	22806	keystroke	z	n/a
11.477	0.15	22954	keystroke	y	n/a
11.7775	0.105	23555	keystroke	Key.space	n/a
11.898	0.0745	23796	keystroke	d	n/a
11.988	0.1045	23976	keystroke	o	n/a
12.0775	0.12	24155	keystroke	g	n/a
12.2125	0.1055	24425	keystroke	Key.enter	n/a
12.327	4.777	24654	prompt	n/a	been balance july advertisers\n
12.813	0.06	25626	keystroke	t	n/a
13.1415	0.0755	26283	keystroke	Key.backspace	n/a
13.353	0.075	26706	keystroke	b	n/a
13.443	0.0595	26886	keystroke	e	n/a
13.592	0.106	27184	keystroke	e	n/a
13.6375	0.105	27275	keystroke	n	n/a
13.7575	0.0745	27515	keystroke	Key.space	n/a
13.833	0.0895	27666	keystroke	b	n/a
13.938	0.1195	27876	keystroke	a	n/a
14.0425	0.0745	28085	keystroke	l	n/a
14.132	0.091	28264	keystroke	a	n/a
14.2375	0.1355	28475	keystroke	n	n/a
14.343	0.105	28686	keystroke	c	n/a
14.5375	0.105	29075	keystroke	e	n/a
14.6125	0.105	29225	keystroke	Key.space	n/a
14.853	0.105	29706	keystroke	j	n/a
15.0175	0.075	30035	keystroke	u	n/a
15.1975	0.09	30395	keystroke	l	n/a
15.2885	0.089	30577	keystroke	y	n/a
15.3625	0.105	30725	keystroke	Key.space	n/a
15.5275	0.09	31055	keystroke	a	n/a
15.6775	0.105	31355	keystroke	d	n/a
15.7675	0.09	31535	keystroke	v	n/a
15.8875	0.105	31775	keystroke	e	n/a
16.0075	0.105	32015	keystroke	r	n/a
16.1875	0.09	32375	keystroke	t	n/a
16.3075	0.09	32615	keystroke	i	n/a
16.4125	0.09	32825	keystroke	s	n/a
16.6525	0.0755	33305	keystroke	e	n/a
16.7575	0.105	33515	keystroke	r	n/a
16.9225	0.105	33845	keystroke	s	n/a
17.0125	0.09	34025	keystroke	Key.enter	n/a
17.1075	5.5765	34215	prompt	n/a	leon revolution transcript advocate\n
17.673	0.1345	35346	keystroke	l	n/a
17.8375	0.119	35675	keystroke	e	n/a
17.943	0.09	35886	keystroke	o	n/a
18.1225	0.1205	36245	keystroke	n	n/a
18.2575	0.105	36515	keystroke	Key.space	n/a
18.333	0.1045	36666	keystroke	r	n/a
18.4525	0.105	36905	keystroke	e	n/a
18.662	0.09	37324	keystroke	v	n/a
18.782	0.091	37564	keystroke	o	n/a
18.977	0.0755	37954	keystroke	l	n/a
19.1425	0.105	38285	keystroke	u	n/a
19.2325	0.105	38465	keystroke	t	n/a
19.3525	0.18	38705	keystroke	i	n/a
19.473	0.0895	38946	keystroke	o	n/a
19.6675	0.105	39335	keystroke	n	n/a
19.7575	0.0895	39515	keystroke	Key.space	n/a
19.788	0.1195	39576	keystroke	t	n/a
19.923	0.075	39846	keystroke	r	n/a
20.088	0.135	40176	keystroke	a	n/a
20.208	0.105	40416	keystroke	n	n/a
20.313	0.09	40626	keystroke	s	n/a
20.492	0.106	40984	keystroke	c	n/a
20.7025	0.09	41405	keystroke	r	n/a
20.8075	0.0605	41615	keystroke	i	n/a
20.9125	0.1195	41825	keystroke	p	n/a
21.0475	0.075	42095	keystroke	t	n/a
21.137	0.12	42274	keystroke	Key.space	n/a
21.273	0.09	42546	keystroke	a	n/a
21.437	0.106	42874	keystroke	d	n/a
21.662	0.06	43324	keystroke	v	n/a
21.752	0.0905	43504	keystroke	o	n/a
21.887	0.105	43774	keystroke	c	n/a
22.097	0.061	44194	keystroke	a	n/a
22.293	0.059	44586	keystroke	t	n/a
22.472	0.106	44944	keystroke	e	n/a
22.592	0.0905	45184	keystroke	Key.enter	n/a
22.687	7.273	45374	prompt	n/a	stanley adoption uniprotkb trustees\n
23.283	0.1045	46566	keystroke	s	n/a
23.448	0.0895	46896	keystroke	t	n/a
23.6425	0.15	47285	keystroke	a	n/a
23.8075	0.075	47615	keystroke	n	n/a
24.123	0.089	48246	keystroke	l	n/a
24.2425	0.1055	48485	keystroke	e	n/a
24.377	0.105	48754	keystroke	y	n/a
24.483	0.104	48966	keystroke	Key.space	n/a
24.573	0.119	49146	keystroke	a	n/a
24.752	0.105	49504	keystroke	d	n/a
24.842	0.15	49684	keystroke	o	n/a
24.918	0.119	49836	keystroke	p	n/a
25.0525	0.0895	50105	keystroke	t	n/a
25.157	0.151	50314	keystroke	i	n/a
25.232	0.1055	50464	keystroke	o	n/a
25.443	0.044	50886	keystroke	n	n/a
25.727	0.105	51454	keystroke	Key.space	n/a
25.817	0.0905	51634	keystroke	u	n/a
26.013	0.0735	52026	keystroke	n	n/a
26.1615	0.076	52323	keystroke	i	n/a
26.7025	0.15	53405	keystroke	p	n/a
26.8375	0.12	53675	keystroke	r	n/a
26.9725	0.135	53945	keystroke	o	n/a
27.4225	0.12	54845	keystroke	t	n/a
27.5575	0.105	55115	keystroke	k	n/a
27.9025	0.09	55805	keystroke	b	n/a
28.1415	0.106	56283	keystroke	Key.space	n/a
28.2625	0.1205	56525	keystroke	t	n/a
28.443	0.104	56886	keystroke	r	n/a
28.6375	0.1055	57275	keystroke	u	n/a
28.833	0.0895	57666	keystroke	s	n/a
29.0125	0.09	58025	keystroke	t	n/a
29.1775	0.1055	58355	keystroke	e	n/a
29.5975	0.075	59195	keystroke	e	n/a
29.7475	0.105	59495	keystroke	s	n/a
29.8675	0.09	59735	keystroke	Key.enter	n/a
29.9655	8.0645	59931	prompt	n/a	probability obviously opponent generations\n
30.5425	0.1195	61085	keystroke	p	n/a
30.6475	0.09	61295	keystroke	r	n/a
30.707	0.091	61414	keystroke	o	n/a
31.0075	0.015	62015	keystroke	b	n/a
31.0375	0.06	62075	keystroke	a	n/a
31.1125	0.075	62225	keystroke	b	n/a
31.2625	0.09	62525	keystroke	i	n/a
31.4275	0.09	62855	keystroke	l	n/a
31.5625	0.105	63125	keystroke	i	n/a
31.6375	0.09	63275	keystroke	t	n/a
31.8025	0.105	63605	keystroke	y	n/a
31.8775	0.135	63755	keystroke	Key.space	n/a
31.9675	0.105	63935	keystroke	o	n/a
32.192	0.1205	64384	keystroke	b	n/a
32.463	0.1045	64926	keystroke	c	n/a
32.5825	0.06	65165	keystroke	i	n/a
32.837	0.0755	65674	keystroke	Key.backspace	n/a
33.002	0.0755	66004	keystroke	Key.backspace	n/a
33.0925	0.1205	66185	keystroke	v	n/a
33.1975	0.1955	66395	keystroke	i	n/a
33.3025	0.1205	66605	keystroke	o	n/a
33.798	0.089	67596	keystroke	u	n/a
33.9625	0.1205	67925	keystroke	s	n/a
34.083	0.104	68166	keystroke	l	n/a
34.233	0.104	68466	keystroke	y	n/a
34.352	0.12	68704	keystroke	Key.space	n/a
34.7125	0.06	69425	keystroke	p	n/a
34.9975	0.09	69995	keystroke	Key.backspace	n/a
35.1325	0.1355	70265	keystroke	o	n/a
35.312	0.12	70624	keystroke	p	n/a
35.522	0.1205	71044	keystroke	p	n/a
35.748	0.075	71496	keystroke	o	n/a
35.958	0.075	71916	keystroke	n	n/a
36.048	0.12	72096	keystroke	e	n/a
36.153	0.12	72306	keystroke	n	n/a
36.2425	0.1205	72485	keystroke	t	n/a
36.3775	0.12	72755	keystroke	Key.space	n/a
36.5425	0.12	73085	keystroke	g	n/a
36.738	0.12	73476	keystroke	e	n/a
36.8125	0.12	73625	keystroke	n	n/a
36.9175	0.1205	73835	keystroke	e	n/a
37.008	0.12	74016	keystroke	r	n/a
37.1875	0.0895	74375	keystroke	a	n/a
37.3825	0.1055	74765	keystroke	t	n/a
37.457	0.135	74914	keystroke	i	n/a
37.488	0.1195	74976	keystroke	o	n/a
37.698	0.1195	75396	keystroke	n	n/a
37.7875	0.105	75575	keystroke	s	n/a
37.9075	0.12	75815	keystroke	Key.enter	n/a
38.034	7.1065	76068	prompt	n/a	hanging accepts generally negotiations\n
38.5525	0.1055	77105	keystroke	h	n/a
38.6875	0.0905	77375	keystroke	a	n/a
38.7625	0.1045	77525	keystroke	n	n/a
38.9125	0.1345	77825	keystroke	g	n/a
39.0175	0.105	78035	keystroke	i	n/a
39.1675	0.135	78335	keystroke	n	n/a
39.243	0.0895	78486	keystroke	g	n/a
39.3625	0.12	78725	keystroke	Key.space	n/a
39.4525	0.0905	78905	keystroke	a	n/a
39.6175	0.075	79235	keystroke	c	n/a
39.798	0.0745	79596	keystroke	c	n/a
39.9925	0.06	79985	keystroke	e	n/a
40.0975	0.105	80195	keystroke	p	n/a
40.1875	0.075	80375	keystroke	t	n/a
40.3375	0.1195	80675	keystroke	s	n/a
40.427	0.12	80854	keystroke	Key.space	n/a
40.5625	0.0745	81125	keystroke	g	n/a
40.727	0.0905	81454	keystroke	e	n/a
40.818	0.12	81636	keystroke	n	n/a
40.922	0.105	81844	keystroke	e	n/a
41.042	0.091	82084	keystroke	r	n/a
41.313	0.06	82626	keystroke	l	n/a
41.6575	0.075	83315	keystroke	Key.backspace	n/a
41.763	0.075	83526	keystroke	a	n/a
41.8975	0.0905	83795	keystroke	l	n/a
42.078	0.0745	84156	keystroke	l	n/a
42.1675	0.075	84335	keystroke	y	n/a
42.2575	0.105	84515	keystroke	Key.space	n/a
42.4075	0.09	84815	keystroke	n	n/a
42.4825	0.075	84965	keystroke	e	n/a
42.678	0.1045	85356	keystroke	g	n/a
42.7525	0.12	85505	keystroke	o	n/a
42.8875	0.1195	85775	keystroke	t	n/a
42.9925	0.135	85985	keystroke	i	n/a
43.203	0.105	86406	keystroke	a	n/a
44.387	0.106	88774	keystroke	t	n/a
44.493	0.195	88986	keystroke	i	n/a
44.597	0.1205	89194	keystroke	o	n/a
44.8075	0.0905	89615	keystroke	n	n/a
44.868	0.1045	89736	keystroke	s	n/a
45.0325	0.105	90065	keystroke	Key.enter	n/a
45.1495	4.9545	90299	prompt	n/a	is sperm daren't litigation\n
45.753	0.089	91506	keystroke	i	n/a
45.828	0.1045	91656	keystroke	s	n/a
45.947	0.105	91894	keystroke	Key.space	n/a
46.067	0.105	92134	keystroke	s	n/a
46.1425	0.0905	92285	keystroke	p	n/a
46.2775	0.1045	92555	keystroke	e	n/a
46.472	0.106	92944	keystroke	r	n/a
46.548	0.105	93096	keystroke	m	n/a
46.697	0.135	93394	keystroke	Key.space	n/a
46.788	0.09	93576	keystroke	d	n/a
46.953	0.09	93906	keystroke	a	n/a
47.1325	0.1055	94265	keystroke	r	n/a
47.253	0.134	94506	keystroke	e	n/a
47.373	0.0745	94746	keystroke	n	n/a
47.6125	0.1205	95225	keystroke	'	n/a
48.1375	0.105	96275	keystroke	t	n/a
48.288	0.12	96576	keystroke	Key.space	n/a
48.5575	0.075	97115	keystroke	l	n/a
48.6925	0.12	97385	keystroke	i	n/a
48.872	0.135	97744	keystroke	t	n/a
48.963	0.1045	97926	keystroke	i	n/a
49.1125	0.1055	98225	keystroke	g	n/a
49.338	0.06	98676	keystroke	a	n/a
49.503	0.12	99006	keystroke	t	n/a
49.5625	0.1355	99125	keystroke	i	n/a
49.608	0.12	99216	keystroke	o	n/a
49.818	0.074	99636	keystroke	n	n/a
50.0125	0.09	100025	keystroke	Key.enter	n/a
50.1095	6.145	100219	prompt	n/a	pending growth downloadable modem\n
50.673	0.1045	101346	keystroke	p	n/a
50.7625	0.09	101525	keystroke	e	n/a
51.0025	0.09	102005	keystroke	n	n/a
51.1075	0.105	102215	keystroke	d	n/a
51.243	0.075	102486	keystroke	i	n/a
51.3775	0.12	102755	keystroke	n	n/a
51.4525	0.105	102905	keystroke	g	n/a
51.5725	0.1195	103145	keystroke	Key.space	n/a
51.663	0.119	103326	keystroke	g	n/a
51.933	0.1045	103866	keystroke	r	n/a
52.142	0.106	104284	keystroke	w	n/a
52.2625	0.1055	104525	keystroke	o	n/a
52.652	0.0755	105304	keystroke	Key.backspace	n/a
52.8175	0.045	105635	keystroke	Key.backspace	n/a
52.9525	0.09	105905	keystroke	o	n/a
53.0575	0.06	106115	keystroke	w	n/a
53.1925	0.1355	106385	keystroke	t	n/a
53.2225	0.1355	106445	keystroke	h	n/a
53.433	0.1195	106866	keystroke	Key.space	n/a
53.537	0.135	107074	keystroke	d	n/a
53.6875	0.0595	107375	keystroke	o	n/a
53.793	0.09	107586	keystroke	w	n/a
53.883	0.09	107766	keystroke	n	n/a
54.0625	0.0755	108125	keystroke	l	n/a
54.228	0.1045	108456	keystroke	o	n/a
54.3025	0.1055	108605	keystroke	a	n/a
54.4525	0.105	108905	keystroke	d	n/a
54.6025	0.135	109205	keystroke	a	n/a
54.6625	0.09	109325	keystroke	b	n/a
54.8425	0.09	109685	keystroke	l	n/a
54.9625	0.105	109925	keystroke	e	n/a
55.083	0.0745	110166	keystroke	Key.space	n/a
55.143	0.0895	110286	keystroke	m	n/a
55.2925	0.12	110585	keystroke	o	n/a
55.3825	0.105	110765	keystroke	d	n/a
55.788	0.105	111576	keystroke	e	n/a
55.908	0.09	111816	keystroke	m	n/a
56.118	0.135	112236	keystroke	Key.enter	n/a
56.263	3.846	112526	prompt	n/a	apply bids kodak jury\n
56.958	0.1045	113916	keystroke	a	n/a
57.0475	0.075	114095	keystroke	p	n/a
57.198	0.09	114396	keystroke	p	n/a
57.378	0.104	114756	keystroke	l	n/a
57.483	0.09	114966	keystroke	y	n/a
57.587	0.09	115174	keystroke	Key.space	n/a
57.753	0.075	115506	keystroke	b	n/a
57.918	0.104	115836	keystroke	i	n/a
58.008	0.1195	116016	keystroke	d	n/a
58.1575	0.12	116315	keystroke	s	n/a
58.2625	0.105	116525	keystroke	Key.space	n/a
58.4125	0.105	116825	keystroke	k	n/a
58.5775	0.09	117155	keystroke	o	n/a
58.8025	0.1205	117605	keystroke	d	n/a
58.9825	0.1055	117965	keystroke	a	n/a
59.0725	0.0905	118145	keystroke	k	n/a
59.1925	0.135	118385	keystroke	Key.space	n/a
59.358	0.09	118716	keystroke	j	n/a
59.568	0.12	119136	keystroke	u	n/a
59.673	0.105	119346	keystroke	r	n/a
59.793	0.09	119586	keystroke	y	n/a
60.017	0.0905	120034	keystroke	Key.enter	n/a
60.116	6.4285	120232	prompt	n/a	appreciation electron estimates sorted\n
60.678	0.105	121356	keystroke	a	n/a
61.4425	0.06	122885	keystroke	p	n/a
61.578	0.0895	123156	keystroke	p	n/a
61.6075	0.105	123215	keystroke	r	n/a
61.7275	0.0905	123455	keystroke	e	n/a
61.893	0.1345	123786	keystroke	c	n/a
61.9975	0.09	123995	keystroke	i	n/a
62.1025	0.09	124205	keystroke	a	n/a
62.3275	0.075	124655	keystroke	t	n/a
62.343	0.1195	124686	keystroke	i	n/a
62.4175	0.09	124835	keystroke	o	n/a
62.6125	0.12	125225	keystroke	n	n/a
62.747	0.1055	125494	keystroke	Key.space	n/a
62.867	0.09	125734	keystroke	e	n/a
62.972	0.09	125944	keystroke	l	n/a
63.018	0.105	126036	keystroke	e	n/a
63.1975	0.105	126395	keystroke	c	n/a
63.408	0.12	126816	keystroke	t	n/a
63.5725	0.1355	127145	keystroke	r	n/a
63.663	0.09	127326	keystroke	o	n/a
63.828	0.1345	127656	keystroke	n	n/a
63.9325	0.12	127865	keystroke	Key.space	n/a
64.1575	0.12	128315	keystroke	e	n/a
64.337	0.075	128674	keystroke	s	n/a
64.503	0.104	129006	keystroke	t	n/a
64.562	0.076	129124	keystroke	i	n/a
64.743	0.134	129486	keystroke	m	n/a
64.758	0.075	129516	keystroke	a	n/a
64.938	0.0895	129876	keystroke	t	n/a
65.1025	0.075	130205	keystroke	e	n/a
65.2825	0.0905	130565	keystroke	s	n/a
65.3875	0.12	130775	keystroke	Key.space	n/a
65.553	0.075	131106	keystroke	s	n/a
65.808	0.1195	131616	keystroke	o	n/a
65.882	0.0905	131764	keystroke	r	n/a
66.0025	0.12	132005	keystroke	t	n/a
66.1675	0.12	132335	keystroke	e	n/a
66.317	0.121	132634	keystroke	d	n/a
66.452	0.09	132904	keystroke	Key.enter	n/a
66.555	4.4745	133110	prompt	n/a	welfare page shape poly\n
67.1725	0.135	134345	keystroke	w	n/a
67.3225	0.12	134645	keystroke	e	n/a
67.4125	0.1055	134825	keystroke	l	n/a
67.5925	0.06	135185	keystroke	f	n/a
68.402	0.1355	136804	keystroke	a	n/a
68.6125	0.09	137225	keystroke	r	n/a
68.718	0.1345	137436	keystroke	e	n/a
68.8225	0.105	137645	keystroke	Key.space	n/a
68.898	0.09	137796	keystroke	p	n/a
69.018	0.09	138036	keystroke	a	n/a
69.138	0.105	138276	keystroke	g	n/a
69.1975	0.12	138395	keystroke	e	n/a
69.347	0.1055	138694	keystroke	Key.space	n/a
69.4525	0.09	138905	keystroke	s	n/a
69.6775	0.1055	139355	keystroke	h	n/a
69.7975	0.09	139595	keystroke	a	n/a
69.9025	0.12	139805	keystroke	p	n/a
69.9775	0.1345	139955	keystroke	e	n/a
70.0975	0.1045	140195	keystroke	Key.space	n/a
70.217	0.0455	140434	keystroke	p	n/a
70.517	0.075	141034	keystroke	o	n/a
70.698	0.104	141396	keystroke	l	n/a
70.818	0.1195	141636	keystroke	y	n/a
70.9225	0.105	141845	keystroke	Key.enter	n/a
71.0345	5.11	142069	prompt	n/a	ashley guide forty danny\n
71.6275	0.105	143255	keystroke	a	n/a
71.837	0.0155	143674	keystroke	s	n/a
71.9575	0.06	143915	keystroke	s	n/a
72.0475	0.045	144095	keystroke	h	n/a
72.407	0.06	144814	keystroke	Key.backspace	n/a
72.557	0.0605	145114	keystroke	Key.backspace	n/a
72.7225	0.075	145445	keystroke	h	n/a
72.963	0.105	145926	keystroke	l	n/a
73.143	0.135	146286	keystroke	e	n/a
73.293	0.1195	146586	keystroke	y	n/a
73.4575	0.09	146915	keystroke	Key.space	n/a
74.1625	0.105	148325	keystroke	g	n/a
74.2225	0.1505	148445	keystroke	u	n/a
74.2975	0.1205	148595	keystroke	i	n/a
74.3735	0.104	148747	keystroke	d	n/a
74.583	0.0895	149166	keystroke	e	n/a
74.6575	0.105	149315	keystroke	Key.space	n/a
74.8225	0.12	149645	keystroke	f	n/a
74.8975	0.1205	149795	keystroke	o	n/a
74.9725	0.1355	149945	keystroke	r	n/a
75.137	0.1355	150274	keystroke	t	n/a
75.212	0.1205	150424	keystroke	y	n/a
75.3025	0.12	150605	keystroke	Key.space	n/a
75.4375	0.09	150875	keystroke	d	n/a
75.5875	0.12	151175	keystroke	a	n/a
75.6625	0.075	151325	keystroke	n	n/a
75.798	0.1045	151596	keystroke	n	n/a
75.9035	0.104	151807	keystroke	y	n/a
76.037	0.105	152074	keystroke	Key.enter	n/a
76.151	5.019	152302	prompt	n/a	helping brain thumbs bahamas\n
76.742	0.091	153484	keystroke	h	n/a
76.8475	0.1205	153695	keystroke	e	n/a
76.968	0.0895	153936	keystroke	l	n/a
77.178	0.0895	154356	keystroke	p	n/a
77.5375	0.09	155075	keystroke	i	n/a
77.7325	0.1205	155465	keystroke	n	n/a
77.823	0.09	155646	keystroke	g	n/a
77.9275	0.09	155855	keystroke	Key.space	n/a
78.0325	0.12	156065	keystroke	b	n/a
78.1375	0.105	156275	keystroke	r	n/a
78.318	0.1195	156636	keystroke	a	n/a
78.393	0.0895	156786	keystroke	i	n/a
78.5875	0.09	157175	keystroke	n	n/a
78.6925	0.105	157385	keystroke	Key.space	n/a
78.7525	0.106	157505	keystroke	t	n/a
78.8425	0.105	157685	keystroke	h	n/a
78.9775	0.105	157955	keystroke	u	n/a
79.173	0.0745	158346	keystroke	m	n/a
79.3525	0.105	158705	keystroke	b	n/a
79.4425	0.12	158885	keystroke	s	n/a
79.5325	0.105	159065	keystroke	Key.space	n/a
79.6525	0.12	159305	keystroke	b	n/a
79.6975	0.1055	159395	keystroke	a	n/a
80.2225	0.1055	160445	keystroke	h	n/a
80.3425	0.0905	160685	keystroke	a	n/a
80.493	0.12	160986	keystroke	m	n/a
80.718	0.119	161436	keystroke	a	n/a
80.958	0.135	161916	keystroke	s	n/a
81.047	0.12	162094	keystroke	Key.enter	n/a
81.1745	4.5855	162349	prompt	n/a	tolerance english sally tires\n
81.8725	0.06	163745	keystroke	t	n/a
81.9175	0.031	163835	keystroke	o	n/a
82.023	0.119	164046	keystroke	l	n/a
82.128	0.0745	164256	keystroke	e	n/a
82.232	0.12	164464	keystroke	r	n/a
82.4425	0.1055	164885	keystroke	a	n/a
82.5625	0.12	165125	keystroke	n	n/a
82.637	0.0905	165274	keystroke	c	n/a
82.848	0.09	165696	keystroke	e	n/a
82.9225	0.09	165845	keystroke	Key.space	n/a
83.0425	0.1205	166085	keystroke	e	n/a
83.147	0.0905	166294	keystroke	n	n/a
83.298	0.1195	166596	keystroke	g	n/a
83.4025	0.0905	166805	keystroke	l	n/a
83.5525	0.1055	167105	keystroke	i	n/a
83.6725	0.1205	167345	keystroke	s	n/a
83.763	0.105	167526	keystroke	h	n/a
83.868	0.104	167736	keystroke	Key.space	n/a
83.9875	0.075	167975	keystroke	s	n/a
84.1675	0.1055	168335	keystroke	a	n/a
84.2575	0.075	168515	keystroke	l	n/a
84.392	0.09	168784	keystroke	l	n/a
84.6325	0.1045	169265	keystroke	y	n/a
84.827	0.0755	169654	keystroke	Key.space	n/a
84.887	0.1205	169774	keystroke	t	n/a
84.993	0.1045	169986	keystroke	i	n/a
85.1125	0.12	170225	keystroke	r	n/a
85.2925	0.09	170585	keystroke	e	n/a
85.458	0.09	170916	keystroke	s	n/a
85.593	0.1645	171186	keystroke	Key.enter	n/a
85.7645	5.7855	171529	prompt	n/a	fixed provide sanyo trademark\n
86.538	0.105	173076	keystroke	f	n/a
86.628	0.089	173256	keystroke	i	n/a
86.748	0.1195	173496	keystroke	x	n/a
86.9575	0.09	173915	keystroke	e	n/a
87.1375	0.1055	174275	keystroke	d	n/a
87.2275	0.0745	174455	keystroke	Key.space	n/a
87.317	0.136	174634	keystroke	p	n/a
87.4225	0.1055	174845	keystroke	r	n/a
87.528	0.1195	175056	keystroke	o	n/a
87.7375	0.09	175475	keystroke	v	n/a
87.9325	0.09	175865	keystroke	i	n/a
88.0525	0.105	176105	keystroke	d	n/a
88.2325	0.09	176465	keystroke	e	n/a
88.3825	0.135	176765	keystroke	Key.space	n/a
88.5625	0.105	177125	keystroke	s	n/a
88.878	0.1195	177756	keystroke	a	n/a
88.9675	0.09	177935	keystroke	n	n/a
89.298	0.104	178596	keystroke	y	n/a
89.372	0.12	178744	keystroke	o	n/a
89.477	0.165	178954	keystroke	Key.space	n/a
89.6575	0.0905	179315	keystroke	t	n/a
89.808	0.09	179616	keystroke	r	n/a
90.017	0.1055	180034	keystroke	a	n/a
90.2125	0.09	180425	keystroke	d	n/a
90.3925	0.0905	180785	keystroke	e	n/a
90.5275	0.0755	181055	keystroke	m	n/a
91.0525	0.0445	182105	keystroke	a	n/a
91.1275	0.12	182255	keystroke	r	n/a
91.2175	0.165	182435	keystroke	k	n/a
91.4425	0.105	182885	keystroke	Key.enter	n/a
91.5545	5.8295	183109	prompt	n/a	mistress collectables thing macromedia\n
92.208	0.119	184416	keystroke	m	n/a
92.372	0.12	184744	keystroke	i	n/a
92.463	0.089	184926	keystroke	s	n/a
92.658	0.0895	185316	keystroke	t	n/a
92.8225	0.09	185645	keystroke	r	n/a
93.018	0.075	186036	keystroke	e	n/a
93.1675	0.0745	186335	keystroke	s	n/a
93.318	0.1045	186636	keystroke	s	n/a
93.3925	0.135	186785	keystroke	Key.space	n/a
93.498	0.09	186996	keystroke	c	n/a
93.5725	0.09	187145	keystroke	o	n/a
93.767	0.076	187534	keystroke	l	n/a
93.9175	0.12	187835	keystroke	l	n/a
94.0075	0.0745	188015	keystroke	e	n/a
94.203	0.075	188406	keystroke	c	n/a
94.3975	0.0905	188795	keystroke	t	n/a
94.5925	0.135	189185	keystroke	a	n/a
94.652	0.0905	189304	keystroke	b	n/a
94.818	0.0895	189636	keystroke	l	n/a
94.8925	0.105	189785	keystroke	e	n/a
95.0425	0.105	190085	keystroke	s	n/a
95.1325	0.12	190265	keystroke	Key.space	n/a
95.237	0.105	190474	keystroke	t	n/a
95.313	0.0745	190626	keystroke	h	n/a
95.432	0.0755	190864	keystroke	i	n/a
95.568	0.09	191136	keystroke	n	n/a
95.643	0.105	191286	keystroke	g	n/a
95.7625	0.135	191525	keystroke	Key.space	n/a
95.8675	0.15	191735	keystroke	m	n/a
95.973	0.0895	191946	keystroke	a	n/a
96.1675	0.075	192335	keystroke	c	n/a
96.393	0.105	192786	keystroke	r	n/a
96.482	0.06	192964	keystroke	o	n/a
96.738	0.12	193476	keystroke	m	n/a
96.842	0.076	193684	keystroke	e	n/a
96.993	0.1045	193986	keystroke	d	n/a
97.067	0.136	194134	keystroke	i	n/a
97.187	0.121	194374	keystroke	a	n/a
97.3225	0.06	194645	keystroke	Key.enter	n/a
97.389	6.3255	194778	prompt	n/a	seeing infants peeing antiques\n
97.9835	0.119	195967	keystroke	s	n/a
98.1475	0.09	196295	keystroke	e	n/a
98.313	0.1195	196626	keystroke	e	n/a
98.3875	0.075	196775	keystroke	i	n/a
98.5225	0.105	197045	keystroke	n	n/a
98.5975	0.105	197195	keystroke	g	n/a
98.7175	0.075	197435	keystroke	Key.space	n/a
98.7775	0.075	197555	keystroke	i	n/a
98.9285	0.089	197857	keystroke	n	n/a
99.3325	0.075	198665	keystroke	f	n/a
99.4975	0.105	198995	keystroke	a	n/a
99.6175	0.12	199235	keystroke	n	n/a
99.7075	0.075	199415	keystroke	c	n/a
99.9775	0.09	199955	keystroke	t	n/a
100.412	0.076	200824	keystroke	Key.backspace	n/a
100.578	0.089	201156	keystroke	Key.backspace	n/a
100.652	0.076	201304	keystroke	t	n/a
100.818	0.12	201636	keystroke	s	n/a
101.147	0.105	202294	keystroke	Key.space	n/a
101.658	0.12	203316	keystroke	p	n/a
101.732	0.1055	203464	keystroke	e	n/a
101.9135	0.104	203827	keystroke	e	n/a
101.972	0.075	203944	keystroke	i	n/a
102.107	0.121	204214	keystroke	n	n/a
102.198	0.074	204396	keystroke	g	n/a
102.302	0.105	204604	keystroke	Key.space	n/a
102.4675	0.121	204935	keystroke	a	n/a
102.572	0.046	205144	keystroke	n	n/a
102.888	0.1045	205776	keystroke	t	n/a
103.008	0.0895	206016	keystroke	i	n/a
103.112	0.105	206224	keystroke	q	n/a
103.218	0.105	206436	keystroke	u	n/a
103.307	0.1055	206614	keystroke	e	n/a
103.488	0.105	206976	keystroke	s	n/a
103.623	0.089	207246	keystroke	Key.enter	n/a
103.722	5.1375	207444	prompt	n/a	hanging location pros injuries\n
104.3425	0.1055	208685	keystroke	h	n/a
104.4025	0.105	208805	keystroke	a	n/a
104.5525	0.075	209105	keystroke	n	n/a
104.6725	0.105	209345	keystroke	g	n/a
104.7475	0.105	209495	keystroke	i	n/a
104.8975	0.105	209795	keystroke	n	n/a
104.9875	0.09	209975	keystroke	g	n/a
105.0925	0.12	210185	keystroke	Key.space	n/a
105.2425	0.0905	210485	keystroke	l	n/a
105.4075	0.12	210815	keystroke	o	n/a
105.5875	0.06	211175	keystroke	a	n/a
105.9175	0.105	211835	keystroke	Key.backspace	n/a
106.008	0.06	212016	keystroke	c	n/a
106.1575	0.075	212315	keystroke	a	n/a
106.3375	0.135	212675	keystroke	t	n/a
106.3825	0.1355	212765	keystroke	i	n/a
106.458	0.09	212916	keystroke	o	n/a
106.623	0.12	213246	keystroke	n	n/a
106.803	0.119	213606	keystroke	Key.space	n/a
106.938	0.09	213876	keystroke	p	n/a
107.043	0.165	214086	keystroke	r	n/a
107.223	0.135	214446	keystroke	o	n/a
107.418	0.1195	214836	keystroke	s	n/a
107.5075	0.135	215015	keystroke	Key.space	n/a
107.6275	0.075	215255	keystroke	i	n/a
107.8075	0.075	215615	keystroke	n	n/a
107.9875	0.09	215975	keystroke	j	n/a
108.1525	0.1055	216305	keystroke	u	n/a
108.2275	0.12	216455	keystroke	r	n/a
108.3325	0.1055	216665	keystroke	i	n/a
108.453	0.105	216906	keystroke	e	n/a
108.618	0.1045	217236	keystroke	s	n/a
108.7375	0.1195	217475	keystroke	Key.enter	n/a
108.863	5.816	217726	prompt	n/a	perspective tony alfred identify\n
109.458	0.119	218916	keystroke	p	n/a
109.533	0.105	219066	keystroke	e	n/a
109.668	0.135	219336	keystroke	r	n/a
109.908	0.0895	219816	keystroke	s	n/a
109.9985	0.089	219997	keystroke	p	n/a
110.1325	0.12	220265	keystroke	e	n/a
110.3575	0.0605	220715	keystroke	c	n/a
110.5525	0.105	221105	keystroke	t	n/a
110.6425	0.105	221285	keystroke	i	n/a
110.793	0.0595	221586	keystroke	v	n/a
110.9575	0.105	221915	keystroke	e	n/a
111.0775	0.1055	222155	keystroke	Key.space	n/a
111.167	0.136	222334	keystroke	t	n/a
111.258	0.09	222516	keystroke	o	n/a
111.378	0.119	222756	keystroke	n	n/a
111.468	0.0895	222936	keystroke	y	n/a
111.573	0.1495	223146	keystroke	Key.space	n/a
111.753	0.09	223506	keystroke	a	n/a
111.917	0.1215	223834	keystroke	l	n/a
112.0825	0.1045	224165	keystroke	f	n/a
112.428	0.12	224856	keystroke	r	n/a
112.563	0.1045	225126	keystroke	e	n/a
112.7125	0.12	225425	keystroke	d	n/a
112.803	0.12	225606	keystroke	Key.space	n/a
113.133	0.105	226266	keystroke	i	n/a
113.223	0.075	226446	keystroke	d	n/a
113.373	0.09	226746	keystroke	e	n/a
113.613	0.06	227226	keystroke	n	n/a
113.928	0.1045	227856	keystroke	t	n/a
114.048	0.104	228096	keystroke	i	n/a
114.272	0.106	228544	keystroke	f	n/a
114.392	0.106	228784	keystroke	y	n/a
114.603	0.075	229206	keystroke	Key.enter	n/a
114.6825	4.362	229365	prompt	n/a	been racial choir cocktail\n
115.3525	0.1055	230705	keystroke	b	n/a
115.442	0.12	230884	keystroke	e	n/a
115.622	0.121	231244	keystroke	e	n/a
115.683	0.1195	231366	keystroke	n	n/a
115.8025	0.12	231605	keystroke	Key.space	n/a
115.8775	0.09	231755	keystroke	r	n/a
116.0425	0.09	232085	keystroke	a	n/a
116.1925	0.105	232385	keystroke	c	n/a
116.2825	0.105	232565	keystroke	i	n/a
116.4025	0.105	232805	keystroke	a	n/a
116.508	0.0895	233016	keystroke	l	n/a
116.6575	0.105	233315	keystroke	Key.space	n/a
116.792	0.12	233584	keystroke	c	n/a
116.882	0.06	233764	keystroke	h	n/a
117.003	0.1645	234006	keystroke	o	n/a
117.0935	0.119	234187	keystroke	i	n/a
117.2425	0.135	234485	keystroke	r	n/a
117.407	0.1055	234814	keystroke	Key.space	n/a
117.5875	0.09	235175	keystroke	c	n/a
117.7675	0.0755	235535	keystroke	o	n/a
117.858	0.1495	235716	keystroke	c	n/a
118.008	0.075	236016	keystroke	k	n/a
118.292	0.136	236584	keystroke	t	n/a
118.518	0.149	237036	keystroke	a	n/a
118.577	0.1205	237154	keystroke	i	n/a
118.773	0.135	237546	keystroke	l	n/a
118.9375	0.1045	237875	keystroke	Key.enter	n/a
119.049	7.33	238098	prompt	n/a	integration reached kruger internationally\n
119.687	0.0755	239374	keystroke	i	n/a
119.8375	0.165	239675	keystroke	n	n/a
119.9575	0.09	239915	keystroke	t	n/a
120.3475	0.015	240695	keystroke	e	n/a
120.5125	0.105	241025	keystroke	g	n/a
120.993	0.044	241986	keystroke	r	n/a
121.112	0.091	242224	keystroke	a	n/a
121.293	0.12	242586	keystroke	t	n/a
121.353	0.135	242706	keystroke	i	n/a
121.427	0.075	242854	keystroke	o	n/a
121.608	0.12	243216	keystroke	n	n/a
121.728	0.1045	243456	keystroke	Key.space	n/a
121.8025	0.1205	243605	keystroke	r	n/a
121.937	0.1055	243874	keystroke	e	n/a
122.1335	0.059	244267	keystroke	a	n/a
122.253	0.0895	244506	keystroke	c	n/a
122.343	0.1045	244686	keystroke	h	n/a
122.4625	0.09	244925	keystroke	e	n/a
122.7325	0.09	245465	keystroke	d	n/a
122.8375	0.12	245675	keystroke	Key.space	n/a
123.0625	0.135	246125	keystroke	k	n/a
123.2425	0.105	246485	keystroke	r	n/a
123.3925	0.1205	246785	keystroke	u	n/a
123.5425	0.1195	247085	keystroke	g	n/a
123.737	0.09	247474	keystroke	e	n/a
123.857	0.1205	247714	keystroke	r	n/a
123.9475	0.0895	247895	keystroke	Key.space	n/a
124.022	0.106	248044	keystroke	i	n/a
124.217	0.121	248434	keystroke	n	n/a
124.667	0.1055	249334	keystroke	t	n/a
124.8625	0.0745	249725	keystroke	e	n/a
124.952	0.105	249904	keystroke	r	n/a
125.042	0.09	250084	keystroke	n	n/a
125.163	0.105	250326	keystroke	a	n/a
125.373	0.104	250746	keystroke	t	n/a
125.432	0.136	250864	keystroke	i	n/a
125.492	0.1055	250984	keystroke	o	n/a
125.6875	0.09	251375	keystroke	n	n/a
125.7475	0.075	251495	keystroke	a	n/a
125.8825	0.1045	251765	keystroke	l	n/a
126.0475	0.1345	252095	keystroke	l	n/a
126.152	0.09	252304	keystroke	y	n/a
126.257	0.12	252514	keystroke	Key.enter	n/a
126.384	6.7755	252768	prompt	n/a	myrtle steps composed excluding\n
126.9925	0.1055	253985	keystroke	m	n/a
127.142	0.061	254284	keystroke	y	n/a
127.548	0.1045	255096	keystroke	r	n/a
127.7125	0.12	255425	keystroke	t	n/a
127.803	0.1045	255606	keystroke	l	n/a
127.968	0.1045	255936	keystroke	e	n/a
128.0575	0.09	256115	keystroke	Key.space	n/a
128.2075	0.0745	256415	keystroke	s	n/a
128.463	0.1045	256926	keystroke	t	n/a
128.597	0.03	257194	keystroke	p	n/a
128.6575	0.1045	257315	keystroke	e	n/a
128.957	0.0605	257914	keystroke	Key.backspace	n/a
129.0925	0.06	258185	keystroke	Key.backspace	n/a
129.198	0.105	258396	keystroke	e	n/a
129.288	0.1045	258576	keystroke	p	n/a
129.4375	0.135	258875	keystroke	s	n/a
129.5575	0.104	259115	keystroke	Key.space	n/a
129.6925	0.1045	259385	keystroke	c	n/a
129.753	0.09	259506	keystroke	o	n/a
129.9025	0.075	259805	keystroke	m	n/a
130.0525	0.165	260105	keystroke	p	n/a
130.1275	0.1345	260255	keystroke	o	n/a
130.5175	0.0905	261035	keystroke	s	n/a
130.9525	0.0455	261905	keystroke	e	n/a
131.1025	0.0755	262205	keystroke	d	n/a
131.1925	0.0895	262385	keystroke	Key.space	n/a
131.6875	0.0905	263375	keystroke	e	n/a
131.9425	0.15	263885	keystroke	x	n/a
132.1375	0.1055	264275	keystroke	c	n/a
132.2575	0.0755	264515	keystroke	l	n/a
132.452	0.0905	264904	keystroke	u	n/a
132.573	0.0895	265146	keystroke	d	n/a
132.6925	0.075	265385	keystroke	i	n/a
132.8425	0.0895	265685	keystroke	n	n/a
132.888	0.074	265776	keystroke	g	n/a
133.067	0.09	266134	keystroke	Key.enter	n/a
133.1625	6.267	266325	prompt	n/a	savage preceding orleans reggae\n
133.7275	0.12	267455	keystroke	s	n/a
133.9375	0.09	267875	keystroke	a	n/a
134.0125	0.105	268025	keystroke	v	n/a
134.1175	0.09	268235	keystroke	a	n/a
134.253	0.1345	268506	keystroke	f	n/a
134.4325	0.12	268865	keystroke	e	n/a
134.9125	0.075	269825	keystroke	Key.backspace	n/a
135.092	0.045	270184	keystroke	Key.backspace	n/a
135.123	0.06	270246	keystroke	g	n/a
135.242	0.12	270484	keystroke	e	n/a
135.332	0.105	270664	keystroke	Key.space	n/a
135.452	0.1355	270904	keystroke	p	n/a
135.558	0.105	271116	keystroke	r	n/a
135.707	0.09	271414	keystroke	e	n/a
135.887	0.12	271774	keystroke	c	n/a
136.2025	0.015	272405	keystroke	e	n/a
136.2635	0.089	272527	keystroke	d	n/a
136.3225	0.075	272645	keystroke	i	n/a
136.5175	0.09	273035	keystroke	n	n/a
136.5475	0.1045	273095	keystroke	g	n/a
136.6675	0.1045	273335	keystroke	Key.space	n/a
136.787	0.105	273574	keystroke	o	n/a
136.908	0.105	273816	keystroke	r	n/a
137.057	0.121	274114	keystroke	l	n/a
137.208	0.075	274416	keystroke	e	n/a
137.448	0.1195	274896	keystroke	a	n/a
137.5525	0.105	275105	keystroke	n	n/a
137.6125	0.12	275225	keystroke	s	n/a
137.7775	0.135	275555	keystroke	Key.space	n/a
137.8525	0.105	275705	keystroke	r	n/a
137.9875	0.09	275975	keystroke	e	n/a
138.1825	0.06	276365	keystroke	g	n/a
138.332	0.06	276664	keystroke	g	n/a
138.498	0.09	276996	keystroke	a	n/a
138.693	0.0595	277386	keystroke	r	n/a
139.0225	0.105	278045	keystroke	Key.backspace	n/a
139.1125	0.105	278225	keystroke	e	n/a
139.3225	0.105	278645	keystroke	Key.enter	n/a
139.433	6.2965	278866	prompt	n/a	carb tobacco grade subsidiary\n
140.057	0.1055	280114	keystroke	c	n/a
140.2675	0.09	280535	keystroke	a	n/a
140.4325	0.105	280865	keystroke	r	n/a
140.4775	0.105	280955	keystroke	b	n/a
140.6875	0.09	281375	keystroke	Key.space	n/a
140.7625	0.09	281525	keystroke	t	n/a
141.0325	0.075	282065	keystroke	a	n/a
141.3625	0.03	282725	keystroke	Key.backspace	n/a
141.6175	0.12	283235	keystroke	o	n/a
141.9025	0.1055	283805	keystroke	b	n/a
142.0525	0.075	284105	keystroke	a	n/a
142.2325	0.09	284465	keystroke	c	n/a
142.4425	0.091	284885	keystroke	c	n/a
142.5485	0.1045	285097	keystroke	o	n/a
142.6975	0.135	285395	keystroke	Key.space	n/a
143.0125	0.1355	286025	keystroke	g	n/a
143.162	0.09	286324	keystroke	r	n/a
143.373	0.0745	286746	keystroke	a	n/a
143.4925	0.105	286985	keystroke	d	n/a
143.673	0.119	287346	keystroke	e	n/a
143.7775	0.0745	287555	keystroke	Key.space	n/a
143.973	0.1195	287946	keystroke	s	n/a
144.0625	0.075	288125	keystroke	u	n/a
144.258	0.1045	288516	keystroke	b	n/a
144.423	0.12	288846	keystroke	s	n/a
144.5875	0.105	289175	keystroke	i	n/a
144.8875	0.105	289775	keystroke	d	n/a
144.9775	0.12	289955	keystroke	i	n/a
145.143	0.074	290286	keystroke	a	n/a
145.354	0.104	290708	keystroke	r	n/a
145.443	0.09	290886	keystroke	y	n/a
145.608	0.12	291216	keystroke	Key.enter	n/a
145.734	6.805	291468	prompt	n/a	pics announcement conventional math\n
146.358	0.09	292716	keystroke	p	n/a
146.5375	0.12	293075	keystroke	i	n/a
146.6275	0.0755	293255	keystroke	c	n/a
146.8075	0.09	293615	keystroke	s	n/a
146.8675	0.105	293735	keystroke	Key.space	n/a
147.0185	0.074	294037	keystroke	a	n/a
147.258	0.0595	294516	keystroke	n	n/a
147.423	0.06	294846	keystroke	n	n/a
147.5575	0.105	295115	keystroke	o	n/a
147.6475	0.0755	295295	keystroke	u	n/a
147.8275	0.1205	295655	keystroke	n	n/a
147.903	0.0905	295806	keystroke	c	n/a
148.1275	0.075	296255	keystroke	e	n/a
148.2175	0.105	296435	keystroke	m	n/a
148.3075	0.12	296615	keystroke	e	n/a
148.4125	0.1205	296825	keystroke	n	n/a
148.518	0.12	297036	keystroke	t	n/a
148.6525	0.09	297305	keystroke	Key.space	n/a
148.7875	0.12	297575	keystroke	c	n/a
148.8475	0.0755	297695	keystroke	o	n/a
148.9975	0.105	297995	keystroke	n	n/a
149.0725	0.09	298145	keystroke	v	n/a
149.523	0.0605	299046	keystroke	e	n/a
149.853	0.105	299706	keystroke	n	n/a
150.0025	0.105	300005	keystroke	t	n/a
150.1375	0.1205	300275	keystroke	i	n/a
151.0225	0.09	302045	keystroke	o	n/a
151.277	0.09	302554	keystroke	n	n/a
151.428	0.135	302856	keystroke	a	n/a
151.548	0.0895	303096	keystroke	l	n/a
151.6975	0.105	303395	keystroke	Key.space	n/a
151.8775	0.105	303755	keystroke	m	n/a
151.9225	0.12	303845	keystroke	a	n/a
152.148	0.1195	304296	keystroke	t	n/a
152.2525	0.075	304505	keystroke	h	n/a
152.4475	0.09	304895	keystroke	Key.enter	n/a
152.5435	5.411	305087	prompt	n/a	outdoors modification guns get\n
153.183	0.075	306366	keystroke	o	n/a
153.333	0.1195	306666	keystroke	u	n/a
153.4075	0.09	306815	keystroke	t	n/a
153.873	0.105	307746	keystroke	d	n/a
153.933	0.089	307866	keystroke	o	n/a
154.098	0.075	308196	keystroke	o	n/a
154.188	0.105	308376	keystroke	r	n/a
154.4125	0.105	308825	keystroke	s	n/a
154.4875	0.09	308975	keystroke	Key.space	n/a
154.608	0.0895	309216	keystroke	m	n/a
154.7725	0.12	309545	keystroke	o	n/a
154.8775	0.1055	309755	keystroke	d	n/a
155.3275	0.135	310655	keystroke	i	n/a
155.4775	0.09	310955	keystroke	f	n/a
155.5825	0.135	311165	keystroke	i	n/a
155.733	0.0745	311466	keystroke	c	n/a
155.913	0.0595	311826	keystroke	a	n/a
156.0925	0.105	312185	keystroke	t	n/a
156.1375	0.1355	312275	keystroke	i	n/a
156.2125	0.0755	312425	keystroke	o	n/a
156.3925	0.105	312785	keystroke	n	n/a
156.4825	0.105	312965	keystroke	Key.space	n/a
156.5875	0.0905	313175	keystroke	g	n/a
156.663	0.0895	313326	keystroke	u	n/a
156.813	0.12	313626	keystroke	n	n/a
156.918	0.09	313836	keystroke	s	n/a
157.023	0.119	314046	keystroke	Key.space	n/a
157.203	0.045	314406	keystroke	g	n/a
157.218	0.075	314436	keystroke	e	n/a
157.728	0.135	315456	keystroke	t	n/a
157.818	0.135	315636	keystroke	Key.enter	n/a
157.9575	5.367	315915	prompt	n/a	ohio dated initiated technician\n
158.733	0.075	317466	keystroke	o	n/a
158.8975	0.075	317795	keystroke	h	n/a
159.1075	0.2095	318215	keystroke	i	n/a
159.228	0.119	318456	keystroke	o	n/a
159.393	0.1345	318786	keystroke	Key.space	n/a
159.4825	0.0905	318965	keystroke	d	n/a
159.648	0.1045	319296	keystroke	a	n/a
159.8725	0.075	319745	keystroke	t	n/a
159.9925	0.12	319985	keystroke	e	n/a
160.157	0.1055	320314	keystroke	d	n/a
160.2475	0.09	320495	keystroke	Key.space	n/a
160.3225	0.0895	320645	keystroke	i	n/a
160.488	0.075	320976	keystroke	n	n/a
160.608	0.104	321216	keystroke	i	n/a
160.743	0.105	321486	keystroke	t	n/a
160.878	0.15	321756	keystroke	i	n/a
161.1785	0.119	322357	keystroke	a	n/a
161.4025	0.105	322805	keystroke	t	n/a
161.5525	0.105	323105	keystroke	e	n/a
161.7025	0.1055	323405	keystroke	d	n/a
161.808	0.105	323616	keystroke	Key.space	n/a
161.958	0.045	323916	keystroke	t	n/a
162.063	0.105	324126	keystroke	e	n/a
162.273	0.09	324546	keystroke	c	n/a
162.318	0.09	324636	keystroke	h	n/a
162.4825	0.06	324965	keystroke	n	n/a
162.588	0.1045	325176	keystroke	i	n/a
162.6625	0.1045	325325	keystroke	c	n/a
162.7825	0.1045	325565	keystroke	i	n/a
162.918	0.089	325836	keystroke	a	n/a
162.993	0.09	325986	keystroke	n	n/a
163.2175	0.105	326435	keystroke	Key.enter	n/a
163.33	4.374	326660	prompt	n/a	as lions mistress hospital\n
163.892	0.15	327784	keystroke	a	n/a
164.028	0.119	328056	keystroke	s	n/a
164.117	0.121	328234	keystroke	Key.space	n/a
164.252	0.105	328504	keystroke	l	n/a
164.4475	0.135	328895	keystroke	i	n/a
164.5675	0.09	329135	keystroke	o	n/a
164.7775	0.105	329555	keystroke	n	n/a
164.8525	0.12	329705	keystroke	s	n/a
164.9425	0.1195	329885	keystroke	Key.space	n/a
165.047	0.091	330094	keystroke	m	n/a
165.227	0.12	330454	keystroke	i	n/a
165.2875	0.0905	330575	keystroke	s	n/a
165.453	0.12	330906	keystroke	t	n/a
165.602	0.105	331204	keystroke	r	n/a
165.798	0.105	331596	keystroke	e	n/a
165.9625	0.105	331925	keystroke	s	n/a
166.1425	0.105	332285	keystroke	s	n/a
166.2485	0.1345	332497	keystroke	Key.space	n/a
166.353	0.105	332706	keystroke	h	n/a
166.518	0.1205	333036	keystroke	o	n/a
166.592	0.121	333184	keystroke	s	n/a
166.953	0.105	333906	keystroke	p	n/a
167.0875	0.0905	334175	keystroke	i	n/a
167.1625	0.0755	334325	keystroke	t	n/a
167.372	0.106	334744	keystroke	a	n/a
167.4325	0.0905	334865	keystroke	l	n/a
167.598	0.105	335196	keystroke	Key.enter	n/a
167.7115	4.913	335423	prompt	n/a	sussex weights cultures i'll\n
168.362	0.0905	336724	keystroke	s	n/a
168.437	0.091	336874	keystroke	u	n/a
168.558	0.105	337116	keystroke	s	n/a
168.798	0.1055	337596	keystroke	s	n/a
168.978	0.105	337956	keystroke	e	n/a
169.1875	0.1345	338375	keystroke	x	n/a
169.307	0.09	338614	keystroke	Key.space	n/a
169.4425	0.135	338885	keystroke	w	n/a
169.5925	0.12	339185	keystroke	e	n/a
169.683	0.09	339366	keystroke	i	n/a
169.803	0.12	339606	keystroke	g	n/a
169.8775	0.135	339755	keystroke	h	n/a
169.983	0.0745	339966	keystroke	t	n/a
170.1775	0.09	340355	keystroke	s	n/a
170.2525	0.105	340505	keystroke	Key.space	n/a
170.3425	0.075	340685	keystroke	c	n/a
170.403	0.0745	340806	keystroke	u	n/a
170.598	0.0745	341196	keystroke	l	n/a
170.7175	0.09	341435	keystroke	t	n/a
170.8225	0.12	341645	keystroke	u	n/a
170.9135	0.104	341827	keystroke	r	n/a
171.1075	0.075	342215	keystroke	e	n/a
171.243	0.1345	342486	keystroke	s	n/a
171.3625	0.105	342725	keystroke	Key.space	n/a
171.4375	0.12	342875	keystroke	i	n/a
171.993	0.06	343986	keystroke	'	n/a
172.218	0.0595	344436	keystroke	l	n/a
172.352	0.09	344704	keystroke	l	n/a
172.533	0.09	345066	keystroke	Key.enter	n/a
172.628	5.6215	345256	prompt	n/a	meyer affiliation spell details\n
173.328	0.0895	346656	keystroke	m	n/a
173.3875	0.1355	346775	keystroke	e	n/a
173.5675	0.1205	347135	keystroke	y	n/a
173.658	0.1205	347316	keystroke	e	n/a
173.9425	0.1205	347885	keystroke	r	n/a
174.078	0.074	348156	keystroke	Key.space	n/a
174.258	0.075	348516	keystroke	a	n/a
174.422	0.1055	348844	keystroke	f	n/a
174.558	0.1045	349116	keystroke	i	n/a
175.083	0.0595	350166	keystroke	Key.backspace	n/a
175.1725	0.09	350345	keystroke	f	n/a
175.2775	0.09	350555	keystroke	i	n/a
175.4725	0.09	350945	keystroke	l	n/a
175.638	0.12	351276	keystroke	i	n/a
175.7425	0.09	351485	keystroke	a	n/a
175.907	0.12	351814	keystroke	t	n/a
175.9675	0.1205	351935	keystroke	i	n/a
176.012	0.0905	352024	keystroke	o	n/a
176.208	0.1195	352416	keystroke	n	n/a
176.3875	0.0895	352775	keystroke	Key.space	n/a
176.5225	0.105	353045	keystroke	s	n/a
176.6125	0.0755	353225	keystroke	p	n/a
176.7025	0.12	353405	keystroke	e	n/a
176.8375	0.0605	353675	keystroke	l	n/a
177.0025	0.075	354005	keystroke	l	n/a
177.0925	0.135	354185	keystroke	Key.space	n/a
177.168	0.1195	354336	keystroke	d	n/a
177.318	0.1045	354636	keystroke	e	n/a
177.4975	0.0905	354995	keystroke	t	n/a
177.693	0.0895	355386	keystroke	a	n/a
177.7525	0.0905	355505	keystroke	i	n/a
177.948	0.12	355896	keystroke	l	n/a
178.0375	0.1055	356075	keystroke	s	n/a
178.158	0.09	356316	keystroke	Key.enter	n/a
178.2545	5.966	356509	prompt	n/a	verified reveals perspectives receipt\n
178.953	0.0895	357906	keystroke	v	n/a
179.148	0.09	358296	keystroke	e	n/a
179.253	0.104	358506	keystroke	r	n/a
179.3275	0.105	358655	keystroke	i	n/a
179.478	0.12	358956	keystroke	f	n/a
179.583	0.1345	359166	keystroke	i	n/a
179.7025	0.105	359405	keystroke	e	n/a
179.8675	0.1055	359735	keystroke	d	n/a
179.9425	0.135	359885	keystroke	Key.space	n/a
180.0925	0.09	360185	keystroke	r	n/a
180.1975	0.106	360395	keystroke	e	n/a
180.4225	0.06	360845	keystroke	v	n/a
180.5575	0.12	361115	keystroke	e	n/a
180.7535	0.1195	361507	keystroke	a	n/a
180.8575	0.12	361715	keystroke	l	n/a
180.9925	0.1055	361985	keystroke	s	n/a
181.1125	0.1355	362225	keystroke	Key.space	n/a
181.338	0.09	362676	keystroke	p	n/a
181.397	0.12	362794	keystroke	e	n/a
181.533	0.09	363066	keystroke	r	n/a
181.6825	0.12	363365	keystroke	s	n/a
181.803	0.105	363606	keystroke	p	n/a
181.878	0.1045	363756	keystroke	e	n/a
182.0875	0.0605	364175	keystroke	c	n/a
182.283	0.075	364566	keystroke	t	n/a
182.358	0.1195	364716	keystroke	i	n/a
182.4925	0.0755	364985	keystroke	v	n/a
182.628	0.1195	365256	keystroke	e	n/a
182.823	0.105	365646	keystroke	s	n/a
182.9125	0.1055	365825	keystroke	Key.space	n/a
183.033	0.09	366066	keystroke	r	n/a
183.1675	0.0755	366335	keystroke	e	n/a
183.333	0.1195	366666	keystroke	c	n/a
183.5735	0.1045	367147	keystroke	e	n/a
183.678	0.135	367356	keystroke	i	n/a
183.858	0.104	367716	keystroke	p	n/a
183.993	0.105	367986	keystroke	t	n/a
184.158	0.059	368316	keystroke	Key.enter	n/a
184.2245	9.2205	368449	prompt	n/a	metallica subscribers framework depot\n
184.818	0.1195	369636	keystroke	m	n/a
184.8925	0.1355	369785	keystroke	e	n/a
185.1325	0.075	370265	keystroke	t	n/a
185.3425	0.09	370685	keystroke	a	n/a
185.3875	0.105	370775	keystroke	l	n/a
185.5525	0.0755	371105	keystroke	l	n/a
185.7025	0.12	371405	keystroke	i	n/a
185.7485	0.089	371497	keystroke	c	n/a
185.9125	0.1055	371825	keystroke	a	n/a
186.0325	0.12	372065	keystroke	Key.space	n/a
186.273	0.12	372546	keystroke	s	n/a
186.3625	0.09	372725	keystroke	u	n/a
186.5425	0.1355	373085	keystroke	s	n/a
186.692	0.106	373384	keystroke	b	n/a
187.368	0.0745	374736	keystroke	c	n/a
187.577	0.091	375154	keystroke	r	n/a
187.653	0.075	375306	keystroke	i	n/a
187.833	0.12	375666	keystroke	b	n/a
187.9085	0.0885	375817	keystroke	e	n/a
188.028	0.105	376056	keystroke	r	n/a
188.223	0.075	376446	keystroke	s	n/a
188.313	0.1195	376626	keystroke	Key.space	n/a
188.448	0.0445	376896	keystroke	t	n/a
188.8075	0.09	377615	keystroke	Key.backspace	n/a
188.8835	0.119	377767	keystroke	f	n/a
189.0175	0.135	378035	keystroke	r	n/a
189.2725	0.1055	378545	keystroke	e	n/a
189.6475	0.075	379295	keystroke	Key.backspace	n/a
189.7675	0.135	379535	keystroke	a	n/a
189.8725	0.12	379745	keystroke	m	n/a
190.2625	0.12	380525	keystroke	w	n/a
190.713	0.0895	381426	keystroke	Key.backspace	n/a
190.878	0.135	381756	keystroke	e	n/a
191.133	0.1045	382266	keystroke	w	n/a
191.6585	0.119	383317	keystroke	o	n/a
192.0925	0.15	384185	keystroke	r	n/a
192.2725	0.15	384545	keystroke	k	n/a
192.6175	0.105	385235	keystroke	Key.space	n/a
192.7525	0.0905	385505	keystroke	d	n/a
192.9175	0.135	385835	keystroke	e	n/a
192.9935	0.1795	385987	keystroke	p	n/a
193.0825	0.1505	386165	keystroke	o	n/a
193.188	0.105	386376	keystroke	t	n/a
193.368	0.075	386736	keystroke	Key.enter	n/a
193.4495	4.8545	386899	prompt	n/a	math headset careful answering\n
194.088	0.135	388176	keystroke	m	n/a
194.208	0.06	388416	keystroke	a	n/a
194.388	0.0895	388776	keystroke	t	n/a
194.4625	0.12	388925	keystroke	h	n/a
194.568	0.1195	389136	keystroke	Key.space	n/a
194.6725	0.1355	389345	keystroke	h	n/a
194.718	0.1045	389436	keystroke	e	n/a
194.883	0.105	389766	keystroke	a	n/a
195.033	0.105	390066	keystroke	d	n/a
195.182	0.136	390364	keystroke	s	n/a
195.378	0.135	390756	keystroke	e	n/a
195.573	0.1045	391146	keystroke	t	n/a
195.662	0.121	391324	keystroke	Key.space	n/a
195.813	0.09	391626	keystroke	c	n/a
196.008	0.045	392016	keystroke	a	n/a
196.1575	0.12	392315	keystroke	r	n/a
196.293	0.0895	392586	keystroke	e	n/a
196.4425	0.135	392885	keystroke	f	n/a
196.5475	0.075	393095	keystroke	u	n/a
196.743	0.104	393486	keystroke	l	n/a
196.878	0.104	393756	keystroke	Key.space	n/a
196.998	0.15	393996	keystroke	a	n/a
197.133	0.135	394266	keystroke	n	n/a
197.282	0.076	394564	keystroke	s	n/a
197.4325	0.105	394865	keystroke	w	n/a
197.5525	0.1355	395105	keystroke	e	n/a
197.7025	0.12	395405	keystroke	r	n/a
197.8075	0.09	395615	keystroke	i	n/a
197.9425	0.12	395885	keystroke	n	n/a
198.0775	0.1205	396155	keystroke	g	n/a
198.1825	0.12	396365	keystroke	Key.enter	n/a
198.3075	5.682	396615	prompt	n/a	mysterious describes mind john\n
198.888	0.104	397776	keystroke	m	n/a
199.112	0.1205	398224	keystroke	y	n/a
199.1725	0.105	398345	keystroke	s	n/a
199.3535	0.089	398707	keystroke	t	n/a
199.5175	0.1055	399035	keystroke	e	n/a
199.682	0.1365	399364	keystroke	r	n/a
199.773	0.21	399546	keystroke	i	n/a
199.8775	0.135	399755	keystroke	o	n/a
200.1035	0.1345	400207	keystroke	u	n/a
200.2075	0.1055	400415	keystroke	s	n/a
200.3425	0.15	400685	keystroke	Key.space	n/a
200.4325	0.0905	400865	keystroke	d	n/a
200.6275	0.1055	401255	keystroke	e	n/a
200.808	0.0895	401616	keystroke	s	n/a
201.003	0.0895	402006	keystroke	c	n/a
201.468	0.1195	402936	keystroke	r	n/a
201.5725	0.06	403145	keystroke	i	n/a
201.753	0.1195	403506	keystroke	b	n/a
201.8275	0.1055	403655	keystroke	e	n/a
202.128	0.03	404256	keystroke	s	n/a
202.1425	0.09	404285	keystroke	Key.space	n/a
202.233	0.09	404466	keystroke	m	n/a
202.443	0.0745	404886	keystroke	i	n/a
202.5925	0.09	405185	keystroke	n	n/a
202.7125	0.09	405425	keystroke	d	n/a
202.9375	0.1055	405875	keystroke	Key.space	n/a
203.1775	0.1055	406355	keystroke	j	n/a
203.342	0.0905	406684	keystroke	o	n/a
203.477	0.091	406954	keystroke	h	n/a
203.6875	0.076	407375	keystroke	n	n/a
203.9125	0.075	407825	keystroke	Key.enter	n/a
203.994	7.3605	407988	prompt	n/a	get connector cleared pennsylvania\n
204.6925	0.105	409385	keystroke	g	n/a
204.7675	0.075	409535	keystroke	e	n/a
204.903	0.1195	409806	keystroke	t	n/a
205.0075	0.09	410015	keystroke	Key.space	n/a
205.142	0.106	410284	keystroke	c	n/a
205.458	0.075	410916	keystroke	i	n/a
206.0725	0.075	412145	keystroke	Key.backspace	n/a
206.2675	0.075	412535	keystroke	o	n/a
206.4775	0.06	412955	keystroke	n	n/a
206.6125	0.105	413225	keystroke	n	n/a
206.658	0.09	413316	keystroke	e	n/a
206.8525	0.0755	413705	keystroke	c	n/a
207.0325	0.1205	414065	keystroke	t	n/a
207.1075	0.1205	414215	keystroke	o	n/a
207.213	0.105	414426	keystroke	r	n/a
207.303	0.12	414606	keystroke	Key.space	n/a
207.408	0.075	414816	keystroke	d	n/a
207.708	0.09	415416	keystroke	Key.backspace	n/a
207.828	0.06	415656	keystroke	c	n/a
208.022	0.135	416044	keystroke	l	n/a
208.457	0.03	416914	keystroke	e	n/a
208.668	0.12	417336	keystroke	a	n/a
208.983	0.09	417966	keystroke	r	n/a
209.103	0.1195	418206	keystroke	e	n/a
209.268	0.135	418536	keystroke	d	n/a
209.388	0.0745	418776	keystroke	Key.space	n/a
209.493	0.0895	418986	keystroke	p	n/a
209.5975	0.1055	419195	keystroke	e	n/a
209.7175	0.045	419435	keystroke	n	n/a
209.8525	0.0755	419705	keystroke	n	n/a
210.1375	0.1355	420275	keystroke	s	n/a
210.2575	0.105	420515	keystroke	y	n/a
210.498	0.15	420996	keystroke	l	n/a
210.663	0.059	421326	keystroke	v	n/a
210.8425	0.075	421685	keystroke	a	n/a
210.9025	0.09	421805	keystroke	n	n/a
211.0525	0.1195	422105	keystroke	i	n/a
211.157	0.1055	422314	keystroke	a	n/a
211.277	0.075	422554	keystroke	Key.enter	n/a
211.359	5.9805	422718	prompt	n/a	athletics team beverages tones\n
212.073	0.0905	424146	keystroke	a	n/a
212.268	0.1045	424536	keystroke	t	n/a
212.3425	0.09	424685	keystroke	h	n/a
212.5525	0.09	425105	keystroke	l	n/a
212.6575	0.09	425315	keystroke	e	n/a
212.853	0.0895	425706	keystroke	t	n/a
213.513	0.09	427026	keystroke	i	n/a
213.632	0.0755	427264	keystroke	c	n/a
213.843	0.09	427686	keystroke	s	n/a
213.918	0.119	427836	keystroke	Key.space	n/a
214.082	0.076	428164	keystroke	t	n/a
214.2625	0.0905	428525	keystroke	e	n/a
214.4275	0.1055	428855	keystroke	a	n/a
214.518	0.0745	429036	keystroke	m	n/a
214.6075	0.105	429215	keystroke	Key.space	n/a
214.7275	0.135	429455	keystroke	b	n/a
214.818	0.06	429636	keystroke	e	n/a
214.9835	0.0595	429967	keystroke	e	n/a
215.4175	0.0905	430835	keystroke	Key.backspace	n/a
215.4925	0.0755	430985	keystroke	v	n/a
215.6575	0.105	431315	keystroke	e	n/a
215.8225	0.12	431645	keystroke	r	n/a
216.108	0.1045	432216	keystroke	a	n/a
216.1975	0.1505	432395	keystroke	g	n/a
216.3025	0.09	432605	keystroke	e	n/a
216.498	0.09	432996	keystroke	s	n/a
216.6025	0.09	433205	keystroke	Key.space	n/a
216.7075	0.1055	433415	keystroke	t	n/a
216.7675	0.0905	433535	keystroke	o	n/a
216.9025	0.105	433805	keystroke	n	n/a
216.9625	0.1055	433925	keystroke	e	n/a
217.158	0.105	434316	keystroke	s	n/a
217.278	0.059	434556	keystroke	Key.enter	n/a
217.344	5.5605	434688	prompt	n/a	securities bath towns beginner\n
218.073	0.075	436146	keystroke	s	n/a
218.223	0.09	436446	keystroke	e	n/a
218.418	0.06	436836	keystroke	c	n/a
218.793	0.12	437586	keystroke	u	n/a
218.958	0.089	437916	keystroke	r	n/a
219.1675	0.12	438335	keystroke	i	n/a
219.2725	0.09	438545	keystroke	t	n/a
219.393	0.1195	438786	keystroke	i	n/a
219.498	0.0895	438996	keystroke	e	n/a
219.648	0.1195	439296	keystroke	s	n/a
219.7375	0.09	439475	keystroke	Key.space	n/a
219.858	0.1495	439716	keystroke	b	n/a
219.9625	0.06	439925	keystroke	a	n/a
220.1425	0.12	440285	keystroke	t	n/a
220.2475	0.1205	440495	keystroke	h	n/a
220.382	0.105	440764	keystroke	Key.space	n/a
220.712	0.1055	441424	keystroke	t	n/a
220.8325	0.105	441665	keystroke	o	n/a
220.953	0.1045	441906	keystroke	w	n/a
221.118	0.119	442236	keystroke	n	n/a
221.282	0.1205	442564	keystroke	s	n/a
221.387	0.1055	442774	keystroke	Key.space	n/a
221.568	0.104	443136	keystroke	b	n/a
221.7775	0.09	443555	keystroke	e	n/a
221.958	0.09	443916	keystroke	g	n/a
222.033	0.0595	444066	keystroke	i	n/a
222.1675	0.0905	444335	keystroke	n	n/a
222.437	0.121	444874	keystroke	n	n/a
222.572	0.091	445144	keystroke	e	n/a
222.708	0.119	445416	keystroke	r	n/a
222.7975	0.1045	445595	keystroke	Key.enter	n/a
222.909	5.4705	445818	prompt	n/a	peace juan ferrari satisfied\n
223.578	0.09	447156	keystroke	p	n/a
223.622	0.106	447244	keystroke	e	n/a
223.802	0.0905	447604	keystroke	a	n/a
223.9675	0.0755	447935	keystroke	c	n/a
224.1475	0.076	448295	keystroke	e	n/a
224.2075	0.0895	448415	keystroke	Key.space	n/a
224.267	0.135	448534	keystroke	j	n/a
224.4475	0.12	448895	keystroke	u	n/a
224.6425	0.105	449285	keystroke	a	n/a
224.7175	0.18	449435	keystroke	n	n/a
224.8525	0.135	449705	keystroke	Key.space	n/a
225.0175	0.0745	450035	keystroke	f	n/a
225.318	0.089	450636	keystroke	e	n/a
225.528	0.074	451056	keystroke	r	n/a
225.707	0.0905	451414	keystroke	r	n/a
225.9325	0.075	451865	keystroke	a	n/a
226.1275	0.0905	452255	keystroke	r	n/a
226.1875	0.12	452375	keystroke	i	n/a
226.3225	0.15	452645	keystroke	Key.space	n/a
226.4875	0.105	452975	keystroke	s	n/a
226.8025	0.045	453605	keystroke	a	n/a
226.9825	0.09	453965	keystroke	t	n/a
227.252	0.091	454504	keystroke	i	n/a
227.433	0.1195	454866	keystroke	s	n/a
227.6725	0.135	455345	keystroke	f	n/a
227.8525	0.121	455705	keystroke	i	n/a
228.0625	0.075	456125	keystroke	e	n/a
228.2575	0.0305	456515	keystroke	d	n/a
228.2725	0.105	456545	keystroke	Key.enter	n/a
228.3835	5.817	456767	prompt	n/a	chef cargo software attitudes\n
229.023	0.12	458046	keystroke	c	n/a
229.144	0.104	458288	keystroke	h	n/a
229.278	0.12	458556	keystroke	e	n/a
229.548	0.075	459096	keystroke	f	n/a
229.713	0.149	459426	keystroke	Key.space	n/a
229.923	0.0745	459846	keystroke	c	n/a
230.1175	0.075	460235	keystroke	a	n/a
230.3125	0.0755	460625	keystroke	r	n/a
230.508	0.075	461016	keystroke	g	n/a
230.538	0.105	461076	keystroke	o	n/a
230.658	0.12	461316	keystroke	Key.space	n/a
230.763	0.105	461526	keystroke	s	n/a
230.853	0.105	461706	keystroke	o	n/a
230.973	0.075	461946	keystroke	f	n/a
231.453	0.09	462906	keystroke	t	n/a
231.678	0.0895	463356	keystroke	w	n/a
232.038	0.0745	464076	keystroke	a	n/a
232.187	0.0905	464374	keystroke	r	n/a
232.3225	0.0905	464645	keystroke	e	n/a
232.458	0.0895	464916	keystroke	Key.space	n/a
232.5625	0.105	465125	keystroke	a	n/a
232.9225	0.105	465845	keystroke	t	n/a
233.0875	0.1055	466175	keystroke	t	n/a
233.1775	0.1345	466355	keystroke	i	n/a
233.328	0.089	466656	keystroke	t	n/a
233.4325	0.1645	466865	keystroke	u	n/a
233.568	0.1045	467136	keystroke	d	n/a
233.747	0.0905	467494	keystroke	e	n/a
233.942	0.091	467884	keystroke	s	n/a
234.062	0.1355	468124	keystroke	Key.enter	n/a
234.209	6.815	468418	prompt	n/a	wives egyptian selection compared\n
234.858	0.089	469716	keystroke	w	n/a
234.962	0.196	469924	keystroke	i	n/a
235.1125	0.0895	470225	keystroke	v	n/a
235.308	0.104	470616	keystroke	e	n/a
235.5175	0.1055	471035	keystroke	s	n/a
235.637	0.105	471274	keystroke	Key.space	n/a
235.787	0.09	471574	keystroke	e	n/a
235.9825	0.1205	471965	keystroke	g	n/a
236.133	0.074	472266	keystroke	u	n/a
236.5225	0.075	473045	keystroke	Key.backspace	n/a
236.7325	0.12	473465	keystroke	y	n/a
236.9275	0.12	473855	keystroke	p	n/a
237.078	0.12	474156	keystroke	t	n/a
237.213	0.119	474426	keystroke	i	n/a
237.377	0.106	474754	keystroke	a	n/a
237.453	0.24	474906	keystroke	n	n/a
237.648	0.135	475296	keystroke	Key.space	n/a
237.783	0.12	475566	keystroke	e	n/a
238.1875	0.0895	476375	keystroke	Key.backspace	n/a
238.338	0.1045	476676	keystroke	s	n/a
238.548	0.06	477096	keystroke	e	n/a
238.578	0.12	477156	keystroke	l	n/a
238.712	0.091	477424	keystroke	e	n/a
238.923	0.075	477846	keystroke	c	n/a
239.103	0.1345	478206	keystroke	t	n/a
239.1475	0.135	478295	keystroke	i	n/a
239.2075	0.105	478415	keystroke	o	n/a
239.403	0.1045	478806	keystroke	n	n/a
239.657	0.105	479314	keystroke	Key.space	n/a
239.852	0.0905	479704	keystroke	c	n/a
239.943	0.075	479886	keystroke	o	n/a
240.153	0.06	480306	keystroke	m	n/a
240.332	0.061	480664	keystroke	p	n/a
240.3775	0.075	480755	keystroke	a	n/a
240.543	0.135	481086	keystroke	r	n/a
240.693	0.0745	481386	keystroke	e	n/a
240.8275	0.1355	481655	keystroke	s	n/a
240.9475	0.075	481895	keystroke	Key.enter	n/a
241.0275	7.332	482055	prompt	n/a	scuba observation stays messaging\n
241.6975	0.135	483395	keystroke	s	n/a
241.8175	0.0755	483635	keystroke	u	n/a
242.1625	0.06	484325	keystroke	Key.backspace	n/a
242.238	0.089	484476	keystroke	c	n/a
242.3425	0.09	484685	keystroke	u	n/a
242.5375	0.12	485075	keystroke	b	n/a
242.7175	0.09	485435	keystroke	a	n/a
242.8825	0.105	485765	keystroke	Key.space	n/a
243.1825	0.1195	486365	keystroke	o	n/a
244.007	0.09	488014	keystroke	b	n/a
244.188	0.0895	488376	keystroke	s	n/a
244.3825	0.105	488765	keystroke	e	n/a
244.518	0.1195	489036	keystroke	r	n/a
244.653	0.075	489306	keystroke	v	n/a
244.743	0.105	489486	keystroke	a	n/a
244.9675	0.09	489935	keystroke	t	n/a
245.028	0.1645	490056	keystroke	i	n/a
245.0875	0.1195	490175	keystroke	o	n/a
245.298	0.12	490596	keystroke	n	n/a
245.477	0.091	490954	keystroke	Key.space	n/a
245.598	0.134	491196	keystroke	s	n/a
245.7925	0.1195	491585	keystroke	t	n/a
246.0625	0.075	492125	keystroke	y	n/a
246.438	0.059	492876	keystroke	Key.backspace	n/a
246.558	0.075	493116	keystroke	a	n/a
246.663	0.09	493326	keystroke	y	n/a
246.813	0.12	493626	keystroke	s	n/a
246.917	0.09	493834	keystroke	Key.space	n/a
247.097	0.0905	494194	keystroke	m	n/a
247.1425	0.075	494285	keystroke	e	n/a
247.323	0.09	494646	keystroke	s	n/a
247.473	0.135	494946	keystroke	s	n/a
247.6525	0.1055	495305	keystroke	a	n/a
247.7275	0.0605	495455	keystroke	g	n/a
247.8925	0.09	495785	keystroke	i	n/a
248.0425	0.105	496085	keystroke	n	n/a
248.118	0.1195	496236	keystroke	g	n/a
248.2675	0.09	496535	keystroke	Key.enter	n/a
248.364	4.8555	496728	prompt	n/a	town institute lottery cambridge\n
248.9275	0.105	497855	keystroke	t	n/a
249.048	0.089	498096	keystroke	o	n/a
249.153	0.0745	498306	keystroke	w	n/a
249.363	0.12	498726	keystroke	n	n/a
249.497	0.12	498994	keystroke	Key.space	n/a
249.603	0.075	499206	keystroke	i	n/a
249.723	0.1195	499446	keystroke	n	n/a
249.888	0.165	499776	keystroke	s	n/a
250.1425	0.1205	500285	keystroke	t	n/a
250.247	0.09	500494	keystroke	i	n/a
250.353	0.134	500706	keystroke	t	n/a
250.4725	0.1045	500945	keystroke	u	n/a
250.593	0.1045	501186	keystroke	t	n/a
250.7575	0.12	501515	keystroke	e	n/a
250.8475	0.09	501695	keystroke	Key.space	n/a
250.9975	0.09	501995	keystroke	l	n/a
251.1775	0.09	502355	keystroke	o	n/a
251.2375	0.105	502475	keystroke	t	n/a
251.3875	0.12	502775	keystroke	t	n/a
251.5675	0.09	503135	keystroke	e	n/a
251.673	0.105	503346	keystroke	r	n/a
251.732	0.105	503464	keystroke	y	n/a
251.8225	0.1055	503645	keystroke	Key.space	n/a
251.929	0.103	503858	keystroke	c	n/a
252.122	0.106	504244	keystroke	a	n/a
252.183	0.09	504366	keystroke	m	n/a
252.378	0.0895	504756	keystroke	b	n/a
252.4825	0.105	504965	keystroke	r	n/a
252.5725	0.09	505145	keystroke	i	n/a
252.7075	0.105	505415	keystroke	d	n/a
252.9025	0.105	505805	keystroke	g	n/a
253.0225	0.09	506045	keystroke	e	n/a
253.1275	0.0895	506255	keystroke	Key.enter	n/a
253.2225	5.862	506445	prompt	n/a	passion sold russell interpreted\n
253.773	0.1045	507546	keystroke	p	n/a
253.893	0.0895	507786	keystroke	a	n/a
254.028	0.12	508056	keystroke	s	n/a
254.223	0.1345	508446	keystroke	s	n/a
254.297	0.1505	508594	keystroke	i	n/a
254.372	0.1205	508744	keystroke	o	n/a
254.5825	0.12	509165	keystroke	n	n/a
254.6875	0.135	509375	keystroke	Key.space	n/a
254.8075	0.0905	509615	keystroke	s	n/a
254.8675	0.0905	509735	keystroke	o	n/a
255.0625	0.075	510125	keystroke	l	n/a
255.182	0.09	510364	keystroke	d	n/a
255.257	0.105	510514	keystroke	Key.space	n/a
255.452	0.105	510904	keystroke	r	n/a
255.572	0.09	511144	keystroke	u	n/a
255.7075	0.1055	511415	keystroke	s	n/a
255.903	0.09	511806	keystroke	s	n/a
256.052	0.106	512104	keystroke	e	n/a
256.128	0.12	512256	keystroke	l	n/a
256.323	0.09	512646	keystroke	Key.space	n/a
256.7275	0.06	513455	keystroke	Key.backspace	n/a
256.9375	0.0755	513875	keystroke	l	n/a
257.298	0.09	514596	keystroke	l	n/a
257.462	0.075	514924	keystroke	Key.space	n/a
257.507	0.1205	515014	keystroke	i	n/a
257.7025	0.1205	515405	keystroke	n	n/a
257.792	0.075	515584	keystroke	t	n/a
257.9425	0.076	515885	keystroke	e	n/a
258.033	0.105	516066	keystroke	r	n/a
258.1075	0.09	516215	keystroke	p	n/a
258.242	0.09	516484	keystroke	r	n/a
258.408	0.0595	516816	keystroke	e	n/a
258.5575	0.09	517115	keystroke	t	n/a
258.7075	0.105	517415	keystroke	e	n/a
258.8425	0.12	517685	keystroke	d	n/a
258.978	0.1045	517956	keystroke	Key.enter	n/a
259.087	6.4625	518174	prompt	n/a	shoe antivirus endorsement announces\n
259.788	0.09	519576	keystroke	s	n/a
259.8475	0.1045	519695	keystroke	h	n/a
259.998	0.09	519996	keystroke	o	n/a
260.118	0.15	520236	keystroke	e	n/a
260.252	0.0905	520504	keystroke	Key.space	n/a
260.373	0.105	520746	keystroke	a	n/a
260.463	0.105	520926	keystroke	n	n/a
260.628	0.105	521256	keystroke	t	n/a
260.7175	0.12	521435	keystroke	i	n/a
260.8675	0.1055	521735	keystroke	v	n/a
261.2425	0.091	522485	keystroke	i	n/a
261.3475	0.09	522695	keystroke	r	n/a
261.453	0.1195	522906	keystroke	u	n/a
261.5875	0.105	523175	keystroke	s	n/a
261.6775	0.1055	523355	keystroke	Key.space	n/a
262.008	0.014	524016	keystroke	e	n/a
262.038	0.075	524076	keystroke	n	n/a
262.368	0.12	524736	keystroke	d	n/a
262.443	0.09	524886	keystroke	o	n/a
263.073	0.105	526146	keystroke	r	n/a
263.2975	0.105	526595	keystroke	s	n/a
263.448	0.1195	526896	keystroke	e	n/a
263.5825	0.105	527165	keystroke	m	n/a
263.673	0.1345	527346	keystroke	e	n/a
263.7775	0.1505	527555	keystroke	n	n/a
263.912	0.1055	527824	keystroke	t	n/a
264.0325	0.075	528065	keystroke	Key.space	n/a
264.183	0.105	528366	keystroke	a	n/a
264.3025	0.0605	528605	keystroke	n	n/a
264.467	0.061	528934	keystroke	n	n/a
264.648	0.075	529296	keystroke	o	n/a
264.768	0.09	529536	keystroke	u	n/a
264.948	0.12	529896	keystroke	n	n/a
265.008	0.06	530016	keystroke	c	n/a
265.2025	0.0755	530405	keystroke	e	n/a
265.368	0.089	530736	keystroke	s	n/a
265.443	0.105	530886	keystroke	Key.enter	n/a
265.5535	5.561	531107	prompt	n/a	penny hearing wicked prototype\n
266.162	0.105	532324	keystroke	p	n/a
266.253	0.12	532506	keystroke	e	n/a
266.388	0.06	532776	keystroke	n	n/a
266.523	0.1045	533046	keystroke	n	n/a
266.6575	0.0905	533315	keystroke	y	n/a
266.763	0.1045	533526	keystroke	Key.space	n/a
267.063	0.105	534126	keystroke	h	n/a
267.108	0.1045	534216	keystroke	e	n/a
267.378	0.014	534756	keystroke	a	n/a
267.453	0.119	534906	keystroke	r	n/a
267.543	0.0895	535086	keystroke	i	n/a
267.6775	0.12	535355	keystroke	n	n/a
267.768	0.089	535536	keystroke	g	n/a
267.872	0.1205	535744	keystroke	Key.space	n/a
267.978	0.09	535956	keystroke	w	n/a
268.082	0.0905	536164	keystroke	i	n/a
268.188	0.134	536376	keystroke	c	n/a
268.3075	0.1045	536615	keystroke	k	n/a
268.4275	0.106	536855	keystroke	e	n/a
268.592	0.121	537184	keystroke	d	n/a
268.682	0.105	537364	keystroke	Key.space	n/a
268.774	0.164	537548	keystroke	p	n/a
268.968	0.1045	537936	keystroke	r	n/a
269.057	0.09	538114	keystroke	o	n/a
269.9875	0.105	539975	keystroke	t	n/a
270.078	0.1355	540156	keystroke	o	n/a
270.4675	0.0755	540935	keystroke	t	n/a
270.6175	0.1205	541235	keystroke	y	n/a
270.678	0.135	541356	keystroke	p	n/a
270.9025	0.09	541805	keystroke	e	n/a
271.038	0.0745	542076	keystroke	Key.enter	n/a
271.119	5.1255	542238	prompt	n/a	spare attend where're agencies\n
272.0725	0.1205	544145	keystroke	s	n/a
272.178	0.105	544356	keystroke	p	n/a
272.343	0.105	544686	keystroke	a	n/a
272.493	0.105	544986	keystroke	r	n/a
272.643	0.104	545286	keystroke	e	n/a
272.718	0.1345	545436	keystroke	Key.space	n/a
272.838	0.0605	545676	keystroke	a	n/a
272.988	0.0895	545976	keystroke	t	n/a
273.167	0.076	546334	keystroke	t	n/a
273.303	0.0895	546606	keystroke	e	n/a
273.378	0.12	546756	keystroke	n	n/a
273.483	0.105	546966	keystroke	d	n/a
273.573	0.0895	547146	keystroke	Key.space	n/a
273.633	0.135	547266	keystroke	w	n/a
273.723	0.135	547446	keystroke	h	n/a
273.782	0.105	547564	keystroke	e	n/a
273.9025	0.135	547805	keystroke	r	n/a
274.0225	0.0905	548045	keystroke	e	n/a
274.263	0.09	548526	keystroke	'	n/a
274.3985	0.119	548797	keystroke	r	n/a
274.6225	0.0905	549245	keystroke	e	n/a
274.7425	0.1195	549485	keystroke	Key.space	n/a
275.073	0.075	550146	keystroke	a	n/a
275.2675	0.12	550535	keystroke	g	n/a
275.3725	0.09	550745	keystroke	e	n/a
275.5235	0.0895	551047	keystroke	n	n/a
275.6275	0.0755	551255	keystroke	c	n/a
275.7625	0.12	551525	keystroke	i	n/a
275.8675	0.12	551735	keystroke	e	n/a
276.0325	0.0905	552065	keystroke	s	n/a
276.1375	0.1055	552275	keystroke	Key.enter	n/a
276.2495	7.2545	552499	prompt	n/a	societies engaging telephony barrier\n
276.858	0.12	553716	keystroke	s	n/a
276.933	0.105	553866	keystroke	o	n/a
277.053	0.075	554106	keystroke	c	n/a
277.158	0.1205	554316	keystroke	i	n/a
277.263	0.12	554526	keystroke	e	n/a
277.4875	0.1055	554975	keystroke	t	n/a
277.548	0.15	555096	keystroke	i	n/a
277.743	0.105	555486	keystroke	e	n/a
277.938	0.105	555876	keystroke	s	n/a
278.0275	0.0905	556055	keystroke	Key.space	n/a
278.1925	0.121	556385	keystroke	e	n/a
278.268	0.0895	556536	keystroke	n	n/a
278.447	0.06	556894	keystroke	g	n/a
278.6585	0.09	557317	keystroke	a	n/a
278.852	0.091	557704	keystroke	g	n/a
278.913	0.089	557826	keystroke	i	n/a
279.048	0.1345	558096	keystroke	n	n/a
279.1835	0.089	558367	keystroke	g	n/a
279.2875	0.105	558575	keystroke	Key.space	n/a
279.4525	0.105	558905	keystroke	t	n/a
279.6475	0.105	559295	keystroke	e	n/a
279.7075	0.105	559415	keystroke	l	n/a
279.8585	0.104	559717	keystroke	e	n/a
279.993	0.18	559986	keystroke	o	n/a
280.098	0.1195	560196	keystroke	p	n/a
280.338	0.105	560676	keystroke	h	n/a
280.728	0.06	561456	keystroke	Key.backspace	n/a
280.893	0.06	561786	keystroke	Key.backspace	n/a
281.058	0.06	562116	keystroke	Key.backspace	n/a
281.283	0.0745	562566	keystroke	p	n/a
281.5985	0.0745	563197	keystroke	h	n/a
281.853	0.0755	563706	keystroke	o	n/a
282.033	0.09	564066	keystroke	n	n/a
282.138	0.075	564276	keystroke	y	n/a
282.317	0.106	564634	keystroke	Key.space	n/a
282.513	0.105	565026	keystroke	b	n/a
282.618	0.089	565236	keystroke	a	n/a
282.8725	0.0155	565745	keystroke	r	n/a
282.947	0.09	565894	keystroke	r	n/a
283.038	0.105	566076	keystroke	i	n/a
283.113	0.12	566226	keystroke	e	n/a
283.263	0.1195	566526	keystroke	r	n/a
283.4125	0.0905	566825	keystroke	Key.enter	n/a
283.507	6.949	567014	prompt	n/a	rain manufacturers desktops woods\n
284.1175	0.1055	568235	keystroke	r	n/a
284.3285	0.1035	568657	keystroke	a	n/a
284.418	0.075	568836	keystroke	i	n/a
284.553	0.15	569106	keystroke	n	n/a
284.672	0.105	569344	keystroke	Key.space	n/a
284.823	0.104	569646	keystroke	m	n/a
284.897	0.1365	569794	keystroke	a	n/a
285.034	0.0895	570068	keystroke	n	n/a
285.2125	0.1205	570425	keystroke	u	n/a
285.3625	0.1055	570725	keystroke	f	n/a
285.6175	0.0905	571235	keystroke	a	n/a
285.7975	0.0605	571595	keystroke	c	n/a
285.9775	0.12	571955	keystroke	t	n/a
286.053	0.105	572106	keystroke	u	n/a
286.1585	0.06	572317	keystroke	r	n/a
286.338	0.09	572676	keystroke	e	n/a
286.893	0.0305	573786	keystroke	r	n/a
287.1775	0.09	574355	keystroke	s	n/a
287.3275	0.09	574655	keystroke	Key.space	n/a
287.553	0.075	575106	keystroke	d	n/a
287.7175	0.0755	575435	keystroke	e	n/a
287.883	0.06	575766	keystroke	s	n/a
288.0485	0.0595	576097	keystroke	c	n/a
288.333	0.0745	576666	keystroke	Key.backspace	n/a
288.513	0.1045	577026	keystroke	k	n/a
288.963	0.12	577926	keystroke	t	n/a
289.0675	0.21	578135	keystroke	o	n/a
289.1875	0.165	578375	keystroke	p	n/a
289.3535	0.1045	578707	keystroke	s	n/a
289.473	0.105	578946	keystroke	Key.space	n/a
289.608	0.12	579216	keystroke	w	n/a
289.698	0.09	579396	keystroke	o	n/a
289.863	0.12	579726	keystroke	o	n/a
290.013	0.1195	580026	keystroke	d	n/a
290.238	0.0745	580476	keystroke	s	n/a
290.3275	0.1205	580655	keystroke	Key.enter	n/a
290.4655	5.414	580931	prompt	n/a	it's toner passing bring\n
291.1235	0.074	582247	keystroke	i	n/a
291.1825	0.0895	582365	keystroke	t	n/a
291.4085	0.0445	582817	keystroke	s	n/a
291.453	0.104	582906	keystroke	'	n/a
292.068	0.06	584136	keystroke	Key.backspace	n/a
292.218	0.06	584436	keystroke	Key.backspace	n/a
292.533	0.1195	585066	keystroke	'	n/a
292.683	0.0755	585366	keystroke	s	n/a
292.803	0.1195	585606	keystroke	Key.space	n/a
293.148	0.075	586296	keystroke	t	n/a
293.208	0.075	586416	keystroke	o	n/a
293.3735	0.1495	586747	keystroke	n	n/a
293.478	0.12	586956	keystroke	e	n/a
293.598	0.15	587196	keystroke	r	n/a
293.703	0.105	587406	keystroke	Key.space	n/a
293.823	0.105	587646	keystroke	p	n/a
293.913	0.12	587826	keystroke	a	n/a
294.1075	0.0905	588215	keystroke	s	n/a
294.288	0.089	588576	keystroke	s	n/a
294.348	0.075	588696	keystroke	i	n/a
294.528	0.105	589056	keystroke	n	n/a
294.588	0.105	589176	keystroke	g	n/a
294.723	0.0745	589446	keystroke	Key.space	n/a
294.8125	0.0905	589625	keystroke	b	n/a
294.9035	0.1045	589807	keystroke	r	n/a
295.008	0.1195	590016	keystroke	i	n/a
295.1425	0.12	590285	keystroke	n	n/a
295.6235	0.119	591247	keystroke	g	n/a
295.7735	0.104	591547	keystroke	Key.enter	n/a
295.883	6.869	591766	prompt	n/a	person items fragrances headphones\n
296.5675	0.045	593135	keystroke	p	n/a
296.748	0.09	593496	keystroke	e	n/a
296.8675	0.105	593735	keystroke	r	n/a
297.063	0.1195	594126	keystroke	s	n/a
297.1535	0.074	594307	keystroke	o	n/a
297.3035	0.104	594607	keystroke	n	n/a
297.4225	0.105	594845	keystroke	Key.space	n/a
297.5125	0.105	595025	keystroke	i	n/a
297.573	0.1045	595146	keystroke	t	n/a
297.7375	0.135	595475	keystroke	e	n/a
297.843	0.1345	595686	keystroke	m	n/a
298.0375	0.03	596075	keystroke	s	n/a
298.098	0.105	596196	keystroke	Key.space	n/a
298.2925	0.075	596585	keystroke	f	n/a
298.9085	0.12	597817	keystroke	r	n/a
299.1625	0.0455	598325	keystroke	a	n/a
299.493	0.1055	598986	keystroke	g	n/a
299.703	0.1205	599406	keystroke	r	n/a
299.958	0.165	599916	keystroke	a	n/a
300.153	0.105	600306	keystroke	n	n/a
300.273	0.075	600546	keystroke	c	n/a
300.4685	0.075	600937	keystroke	e	n/a
300.6325	0.09	601265	keystroke	s	n/a
300.6925	0.1205	601385	keystroke	Key.space	n/a
300.828	0.105	601656	keystroke	h	n/a
300.8875	0.1205	601775	keystroke	e	n/a
301.0825	0.0905	602165	keystroke	a	n/a
301.3075	0.135	602615	keystroke	d	n/a
301.6085	0.089	603217	keystroke	p	n/a
301.788	0.0895	603576	keystroke	h	n/a
302.0875	0.076	604175	keystroke	o	n/a
302.2525	0.1055	604505	keystroke	n	n/a
302.3125	0.09	604625	keystroke	e	n/a
302.4775	0.1205	604955	keystroke	s	n/a
302.6125	0.135	605225	keystroke	Key.enter	n/a
302.759	7.1305	605518	prompt	n/a	membership throwing brief celebrities\n
303.333	0.105	606666	keystroke	m	n/a
303.4385	0.1195	606877	keystroke	e	n/a
303.5425	0.105	607085	keystroke	m	n/a
303.768	0.135	607536	keystroke	b	n/a
303.873	0.105	607746	keystroke	e	n/a
303.993	0.105	607986	keystroke	r	n/a
304.173	0.135	608346	keystroke	s	n/a
304.8175	0.075	609635	keystroke	h	n/a
304.9975	0.091	609995	keystroke	i	n/a
305.1785	0.089	610357	keystroke	p	n/a
305.3275	0.105	610655	keystroke	Key.space	n/a
305.3575	0.105	610715	keystroke	t	n/a
305.5375	0.0605	611075	keystroke	h	n/a
305.6875	0.12	611375	keystroke	r	n/a
305.9125	0.105	611825	keystroke	o	n/a
306.0625	0.1205	612125	keystroke	w	n/a
306.1535	0.0745	612307	keystroke	i	n/a
306.288	0.12	612576	keystroke	n	n/a
306.393	0.09	612786	keystroke	g	n/a
306.484	0.089	612968	keystroke	Key.space	n/a
306.588	0.09	613176	keystroke	b	n/a
306.948	0.12	613896	keystroke	r	n/a
307.083	0.1795	614166	keystroke	i	n/a
307.203	0.105	614406	keystroke	e	n/a
307.458	0.0895	614916	keystroke	f	n/a
307.5625	0.12	615125	keystroke	Key.space	n/a
307.728	0.0595	615456	keystroke	c	n/a
308.0725	0.105	616145	keystroke	e	n/a
308.1785	0.09	616357	keystroke	l	n/a
308.5825	0.105	617165	keystroke	e	n/a
308.7475	0.0905	617495	keystroke	b	n/a
309.0475	0.0905	618095	keystroke	r	n/a
309.1225	0.1055	618245	keystroke	i	n/a
309.2575	0.12	618515	keystroke	t	n/a
309.3625	0.1205	618725	keystroke	i	n/a
309.498	0.075	618996	keystroke	e	n/a
309.708	0.09	619416	keystroke	s	n/a
309.828	0.059	619656	keystroke	Key.enter	n/a
309.894	4.541	619788	prompt	n/a	neck float tigers verizon\n
310.563	0.1045	621126	keystroke	n	n/a
310.6225	0.0905	621245	keystroke	e	n/a
310.848	0.09	621696	keystroke	c	n/a
310.938	0.0895	621876	keystroke	k	n/a
311.0725	0.1355	622145	keystroke	Key.space	n/a
311.328	0.12	622656	keystroke	f	n/a
311.433	0.1055	622866	keystroke	l	n/a
311.643	0.105	623286	keystroke	o	n/a
311.703	0.0895	623406	keystroke	a	n/a
311.9275	0.0905	623855	keystroke	t	n/a
311.973	0.075	623946	keystroke	Key.space	n/a
312.198	0.105	624396	keystroke	t	n/a
312.317	0.106	624634	keystroke	i	n/a
312.438	0.0905	624876	keystroke	g	n/a
312.647	0.061	625294	keystroke	e	n/a
312.7675	0.0905	625535	keystroke	r	n/a
312.962	0.091	625924	keystroke	s	n/a
313.0675	0.105	626135	keystroke	Key.space	n/a
313.188	0.0895	626376	keystroke	v	n/a
313.3825	0.105	626765	keystroke	e	n/a
313.533	0.1045	627066	keystroke	r	n/a
313.668	0.135	627336	keystroke	i	n/a
313.833	0.1345	627666	keystroke	z	n/a
313.983	0.09	627966	keystroke	o	n/a
314.133	0.1045	628266	keystroke	n	n/a
314.3425	0.0905	628685	keystroke	Key.enter	n/a
314.439	7.6155	628878	prompt	n/a	terrorism discusses refuse stunning\n
315.093	0.0905	630186	keystroke	t	n/a
315.273	0.09	630546	keystroke	e	n/a
315.393	0.105	630786	keystroke	r	n/a
315.558	0.12	631116	keystroke	r	n/a
315.648	0.1195	631296	keystroke	o	n/a
315.7525	0.106	631505	keystroke	r	n/a
315.888	0.0895	631776	keystroke	i	n/a
316.083	0.105	632166	keystroke	s	n/a
316.1725	0.105	632345	keystroke	m	n/a
316.3075	0.105	632615	keystroke	Key.space	n/a
316.4575	0.1055	632915	keystroke	d	n/a
316.5925	0.12	633185	keystroke	i	n/a
316.6825	0.121	633365	keystroke	s	n/a
316.8625	0.105	633725	keystroke	c	n/a
316.9525	0.1205	633905	keystroke	u	n/a
317.118	0.09	634236	keystroke	s	n/a
317.313	0.09	634626	keystroke	s	n/a
317.478	0.105	634956	keystroke	e	n/a
317.688	0.075	635376	keystroke	s	n/a
317.793	0.12	635586	keystroke	Key.space	n/a
317.973	0.045	635946	keystroke	r	n/a
318.258	0.1195	636516	keystroke	e	n/a
318.453	0.104	636906	keystroke	g	n/a
318.5435	0.149	637087	keystroke	u	n/a
318.7075	0.091	637415	keystroke	s	n/a
319.112	0.09	638224	keystroke	Key.backspace	n/a
319.308	0.06	638616	keystroke	Key.backspace	n/a
319.458	0.089	638916	keystroke	Key.backspace	n/a
319.998	0.105	639996	keystroke	f	n/a
320.088	0.105	640176	keystroke	u	n/a
320.208	0.09	640416	keystroke	s	n/a
320.388	0.09	640776	keystroke	e	n/a
320.478	0.135	640956	keystroke	Key.space	n/a
320.658	0.075	641316	keystroke	s	n/a
320.898	0.075	641796	keystroke	t	n/a
320.913	0.075	641826	keystroke	u	n/a
321.0775	0.075	642155	keystroke	n	n/a
321.2585	0.045	642517	keystroke	n	n/a
321.378	0.09	642756	keystroke	i	n/a
321.5125	0.121	643025	keystroke	n	n/a
321.708	0.1195	643416	keystroke	g	n/a
321.948	0.105	643896	keystroke	Key.enter	n/a
322.0595	9.565	644119	prompt	n/a	practitioners hypothesis chemical outcome\n
322.683	0.105	645366	keystroke	p	n/a
322.923	0.1045	645846	keystroke	r	n/a
323.1325	0.09	646265	keystroke	a	n/a
323.2985	0.074	646597	keystroke	c	n/a
323.4785	0.1345	646957	keystroke	t	n/a
323.5975	0.091	647195	keystroke	i	n/a
325.128	0.1205	650256	keystroke	t	n/a
325.2625	0.1205	650525	keystroke	i	n/a
325.4875	0.135	650975	keystroke	o	n/a
325.713	0.1195	651426	keystroke	n	n/a
325.8175	0.105	651635	keystroke	e	n/a
326.0125	0.0905	652025	keystroke	r	n/a
326.178	0.1195	652356	keystroke	s	n/a
326.253	0.1195	652506	keystroke	Key.space	n/a
326.3575	0.105	652715	keystroke	h	n/a
326.5825	0.061	653165	keystroke	y	n/a
326.883	0.195	653766	keystroke	p	n/a
327.003	0.1345	654006	keystroke	o	n/a
327.183	0.09	654366	keystroke	t	n/a
327.393	0.06	654786	keystroke	e	n/a
328.203	0.105	656406	keystroke	Key.backspace	n/a
328.4275	0.121	656855	keystroke	h	n/a
328.728	0.1045	657456	keystroke	e	n/a
328.908	0.1055	657816	keystroke	s	n/a
329.0135	0.134	658027	keystroke	i	n/a
329.1325	0.1215	658265	keystroke	s	n/a
329.2975	0.1055	658595	keystroke	Key.space	n/a
329.613	0.0905	659226	keystroke	c	n/a
329.688	0.075	659376	keystroke	h	n/a
329.823	0.105	659646	keystroke	e	n/a
329.898	0.105	659796	keystroke	m	n/a
330.078	0.12	660156	keystroke	i	n/a
330.093	0.09	660186	keystroke	c	n/a
330.303	0.105	660606	keystroke	a	n/a
330.4235	0.0745	660847	keystroke	l	n/a
330.528	0.09	661056	keystroke	Key.space	n/a
330.633	0.15	661266	keystroke	o	n/a
330.798	0.075	661596	keystroke	u	n/a
330.858	0.075	661716	keystroke	t	n/a
331.053	0.1045	662106	keystroke	c	n/a
331.1425	0.075	662285	keystroke	o	n/a
331.323	0.09	662646	keystroke	m	n/a
331.4425	0.0755	662885	keystroke	e	n/a
331.5325	0.09	663065	keystroke	Key.enter	n/a
331.628	5.666	663256	prompt	n/a	florist inquiry viewed explicit\n
332.2375	0.1055	664475	keystroke	f	n/a
332.3885	0.1045	664777	keystroke	l	n/a
332.583	0.09	665166	keystroke	o	n/a
332.717	0.091	665434	keystroke	r	n/a
332.8225	0.1205	665645	keystroke	i	n/a
332.972	0.1055	665944	keystroke	s	n/a
333.1675	0.12	666335	keystroke	t	n/a
333.2725	0.09	666545	keystroke	Key.space	n/a
333.348	0.0895	666696	keystroke	i	n/a
333.5275	0.075	667055	keystroke	n	n/a
333.648	0.0745	667296	keystroke	q	n/a
333.7975	0.1805	667595	keystroke	u	n/a
333.933	0.1195	667866	keystroke	i	n/a
334.038	0.134	668076	keystroke	r	n/a
334.187	0.136	668374	keystroke	y	n/a
334.308	0.1195	668616	keystroke	Key.space	n/a
334.443	0.1205	668886	keystroke	v	n/a
334.578	0.1195	669156	keystroke	i	n/a
334.6825	0.105	669365	keystroke	e	n/a
334.8325	0.1205	669665	keystroke	w	n/a
334.983	0.12	669966	keystroke	e	n/a
335.178	0.121	670356	keystroke	d	n/a
335.299	0.134	670598	keystroke	Key.space	n/a
335.448	0.045	670896	keystroke	e	n/a
335.613	0.1355	671226	keystroke	x	n/a
335.718	0.0905	671436	keystroke	p	n/a
335.898	0.075	671796	keystroke	l	n/a
336.048	0.09	672096	keystroke	i	n/a
336.1075	0.075	672215	keystroke	c	n/a
336.228	0.12	672456	keystroke	i	n/a
336.363	0.089	672726	keystroke	t	n/a
336.542	0.075	673084	keystroke	y	n/a
336.932	0.091	673864	keystroke	Key.backspace	n/a
337.188	0.1045	674376	keystroke	Key.enter	n/a
337.2985	5.426	674597	prompt	n/a	accent cadillac anaheim relations\n
337.8475	0.106	675695	keystroke	a	n/a
338.0425	0.0755	676085	keystroke	c	n/a
338.2075	0.09	676415	keystroke	c	n/a
338.403	0.1045	676806	keystroke	e	n/a
338.4475	0.121	676895	keystroke	n	n/a
338.5975	0.076	677195	keystroke	t	n/a
338.688	0.0895	677376	keystroke	Key.space	n/a
338.8225	0.06	677645	keystroke	c	n/a
339.003	0.06	678006	keystroke	a	n/a
339.1675	0.075	678335	keystroke	d	n/a
339.2575	0.09	678515	keystroke	i	n/a
339.513	0.105	679026	keystroke	l	n/a
339.678	0.119	679356	keystroke	l	n/a
339.813	0.075	679626	keystroke	a	n/a
339.963	0.105	679926	keystroke	c	n/a
340.068	0.09	680136	keystroke	Key.space	n/a
340.2925	0.0905	680585	keystroke	a	n/a
340.3685	0.1195	680737	keystroke	n	n/a
340.5025	0.06	681005	keystroke	a	n/a
340.7875	0.1055	681575	keystroke	h	n/a
340.908	0.135	681816	keystroke	e	n/a
341.013	0.075	682026	keystroke	i	n/a
341.1625	0.1205	682325	keystroke	m	n/a
341.2975	0.12	682595	keystroke	Key.space	n/a
341.4925	0.076	682985	keystroke	r	n/a
341.6275	0.0905	683255	keystroke	e	n/a
341.733	0.12	683466	keystroke	l	n/a
341.868	0.09	683736	keystroke	a	n/a
342.138	0.03	684276	keystroke	t	n/a
342.153	0.1195	684306	keystroke	i	n/a
342.183	0.12	684366	keystroke	o	n/a
342.4075	0.1045	684815	keystroke	n	n/a
342.4825	0.091	684965	keystroke	s	n/a
342.662	0.061	685324	keystroke	Key.enter	n/a
342.729	6.3555	685458	prompt	n/a	french valuation maternity quarters\n
343.608	0.1495	687216	keystroke	f	n/a
343.893	0.09	687786	keystroke	r	n/a
344.0875	0.105	688175	keystroke	e	n/a
344.1625	0.1055	688325	keystroke	n	n/a
344.3575	0.106	688715	keystroke	c	n/a
344.448	0.135	688896	keystroke	h	n/a
344.568	0.135	689136	keystroke	Key.space	n/a
344.673	0.075	689346	keystroke	v	n/a
344.898	0.09	689796	keystroke	a	n/a
345.0335	0.074	690067	keystroke	l	n/a
345.2125	0.1205	690425	keystroke	u	n/a
345.348	0.044	690696	keystroke	a	n/a
345.558	0.0895	691116	keystroke	t	n/a
345.588	0.12	691176	keystroke	i	n/a
345.6475	0.1195	691295	keystroke	o	n/a
345.858	0.119	691716	keystroke	n	n/a
345.962	0.12	691924	keystroke	Key.space	n/a
346.158	0.105	692316	keystroke	m	n/a
346.2025	0.0905	692405	keystroke	a	n/a
346.413	0.09	692826	keystroke	t	n/a
346.607	0.0765	693214	keystroke	e	n/a
346.7285	0.1345	693457	keystroke	r	n/a
346.8485	0.12	693697	keystroke	n	n/a
347.043	0.1195	694086	keystroke	i	n/a
347.193	0.1195	694386	keystroke	t	n/a
347.3275	0.135	694655	keystroke	y	n/a
347.5075	0.105	695015	keystroke	Key.space	n/a
347.778	0.1195	695556	keystroke	q	n/a
347.9125	0.1505	695825	keystroke	u	n/a
348.0775	0.09	696155	keystroke	a	n/a
348.2425	0.1055	696485	keystroke	r	n/a
348.4375	0.0755	696875	keystroke	t	n/a
348.573	0.105	697146	keystroke	e	n/a
348.723	0.09	697446	keystroke	r	n/a
348.888	0.105	697776	keystroke	s	n/a
349.008	0.075	698016	keystroke	Key.enter	n/a
349.089	6.3865	698178	prompt	n/a	sparc translation searched dancing\n
349.758	0.135	699516	keystroke	s	n/a
349.8775	0.1205	699755	keystroke	p	n/a
350.0275	0.0605	700055	keystroke	a	n/a
350.4335	0.059	700867	keystroke	r	n/a
350.6425	0.105	701285	keystroke	c	n/a
350.733	0.1495	701466	keystroke	Key.space	n/a
350.8985	0.09	701797	keystroke	t	n/a
351.033	0.09	702066	keystroke	r	n/a
351.2275	0.106	702455	keystroke	a	n/a
351.3175	0.135	702635	keystroke	n	n/a
351.8575	0.1055	703715	keystroke	s	n/a
351.978	0.09	703956	keystroke	l	n/a
352.0975	0.09	704195	keystroke	a	n/a
352.3075	0.106	704615	keystroke	t	n/a
352.368	0.1505	704736	keystroke	i	n/a
352.428	0.135	704856	keystroke	o	n/a
352.653	0.12	705306	keystroke	n	n/a
352.758	0.15	705516	keystroke	Key.space	n/a
352.8185	0.1345	705637	keystroke	s	n/a
352.998	0.105	705996	keystroke	e	n/a
353.193	0.09	706386	keystroke	a	n/a
353.388	0.0745	706776	keystroke	r	n/a
353.5825	0.105	707165	keystroke	c	n/a
353.673	0.1205	707346	keystroke	h	n/a
353.7935	0.089	707587	keystroke	e	n/a
353.958	0.0905	707916	keystroke	d	n/a
354.063	0.135	708126	keystroke	Key.space	n/a
354.318	0.0895	708636	keystroke	d	n/a
354.4975	0.091	708995	keystroke	a	n/a
354.5425	0.12	709085	keystroke	n	n/a
354.7235	0.119	709447	keystroke	c	n/a
354.828	0.0745	709656	keystroke	i	n/a
354.9485	0.1195	709897	keystroke	n	n/a
355.0975	0.0605	710195	keystroke	g	n/a
355.338	0.135	710676	keystroke	Key.enter	n/a
355.4795	6.5355	710959	prompt	n/a	here minimal republicans increases\n
356.118	0.135	712236	keystroke	h	n/a
356.163	0.104	712326	keystroke	e	n/a
356.298	0.12	712596	keystroke	r	n/a
356.4335	0.1345	712867	keystroke	e	n/a
356.553	0.0895	713106	keystroke	Key.space	n/a
356.673	0.09	713346	keystroke	m	n/a
356.8525	0.075	713705	keystroke	i	n/a
356.988	0.075	713976	keystroke	n	n/a
357.108	0.0905	714216	keystroke	i	n/a
357.2575	0.1055	714515	keystroke	m	n/a
357.3485	0.1195	714697	keystroke	a	n/a
357.453	0.09	714906	keystroke	l	n/a
357.6175	0.1205	715235	keystroke	Key.space	n/a
357.678	0.0905	715356	keystroke	r	n/a
357.8275	0.1205	715655	keystroke	e	n/a
358.3385	0.0895	716677	keystroke	p	n/a
358.518	0.089	717036	keystroke	u	n/a
358.622	0.121	717244	keystroke	b	n/a
358.818	0.045	717636	keystroke	l	n/a
359.042	0.0905	718084	keystroke	i	n/a
359.208	0.09	718416	keystroke	c	n/a
359.538	0.09	719076	keystroke	a	n/a
359.658	0.09	719316	keystroke	n	n/a
359.808	0.15	719616	keystroke	s	n/a
359.943	0.12	719886	keystroke	Key.space	n/a
360.168	0.075	720336	keystroke	i	n/a
360.348	0.135	720696	keystroke	n	n/a
360.498	0.105	720996	keystroke	c	n/a
360.693	0.135	721386	keystroke	r	n/a
360.8585	0.0895	721717	keystroke	e	n/a
361.023	0.15	722046	keystroke	a	n/a
361.443	0.09	722886	keystroke	s	n/a
361.578	0.15	723156	keystroke	e	n/a
361.818	0.105	723636	keystroke	s	n/a
361.938	0.074	723876	keystroke	Key.enter	n/a
362.0195	5.2445	724039	prompt	n/a	implied suspected bill frank\n
362.5975	0.075	725195	keystroke	i	n/a
362.7775	0.0605	725555	keystroke	m	n/a
362.9285	0.1045	725857	keystroke	p	n/a
363.1085	0.0895	726217	keystroke	l	n/a
363.258	0.135	726516	keystroke	i	n/a
363.318	0.1195	726636	keystroke	e	n/a
363.828	0.12	727656	keystroke	d	n/a
363.918	0.105	727836	keystroke	Key.space	n/a
364.128	0.1055	728256	keystroke	s	n/a
364.1875	0.105	728375	keystroke	u	n/a
364.3375	0.105	728675	keystroke	s	n/a
364.428	0.12	728856	keystroke	p	n/a
364.5925	0.1055	729185	keystroke	e	n/a
364.803	0.06	729606	keystroke	c	n/a
365.0275	0.091	730055	keystroke	t	n/a
365.178	0.105	730356	keystroke	e	n/a
365.328	0.12	730656	keystroke	d	n/a
365.493	0.09	730986	keystroke	Key.space	n/a
365.613	0.06	731226	keystroke	b	n/a
365.793	0.0905	731586	keystroke	i	n/a
366.003	0.0905	732006	keystroke	l	n/a
366.153	0.134	732306	keystroke	l	n/a
366.303	0.1495	732606	keystroke	Key.space	n/a
366.438	0.105	732876	keystroke	f	n/a
366.5875	0.0905	733175	keystroke	r	n/a
366.7825	0.12	733565	keystroke	a	n/a
366.858	0.0895	733716	keystroke	n	n/a
366.993	0.12	733986	keystroke	k	n/a
367.173	0.09	734346	keystroke	Key.enter	n/a
367.267	5.0825	734534	prompt	n/a	missing paying genetics keeping\n
367.908	0.075	735816	keystroke	m	n/a
368.058	0.12	736116	keystroke	i	n/a
368.163	0.105	736326	keystroke	s	n/a
368.2835	0.1345	736567	keystroke	s	n/a
368.373	0.105	736746	keystroke	i	n/a
369.0175	0.106	738035	keystroke	n	n/a
369.108	0.09	738216	keystroke	g	n/a
369.2125	0.09	738425	keystroke	Key.space	n/a
369.3175	0.0905	738635	keystroke	p	n/a
369.4985	0.0745	738997	keystroke	a	n/a
369.5885	0.105	739177	keystroke	y	n/a
369.7535	0.09	739507	keystroke	i	n/a
369.903	0.1195	739806	keystroke	n	n/a
369.9785	0.104	739957	keystroke	g	n/a
370.0675	0.15	740135	keystroke	Key.space	n/a
370.2325	0.09	740465	keystroke	g	n/a
370.3985	0.074	740797	keystroke	e	n/a
370.4575	0.106	740915	keystroke	n	n/a
370.5785	0.074	741157	keystroke	e	n/a
370.7435	0.0745	741487	keystroke	t	n/a
370.8185	0.104	741637	keystroke	i	n/a
370.968	0.075	741936	keystroke	c	n/a
371.148	0.059	742296	keystroke	s	n/a
371.193	0.12	742386	keystroke	Key.space	n/a
371.283	0.135	742566	keystroke	k	n/a
371.403	0.09	742806	keystroke	e	n/a
371.5985	0.0895	743197	keystroke	e	n/a
371.7035	0.089	743407	keystroke	p	n/a
371.868	0.0745	743736	keystroke	i	n/a
372.0185	0.1345	744037	keystroke	n	n/a
372.1375	0.0755	744275	keystroke	g	n/a
372.243	0.105	744486	keystroke	Key.enter	n/a
372.353	4.1815	744706	prompt	n/a	christ agenda beer listing\n
373.0085	0.1045	746017	keystroke	c	n/a
373.0835	0.0745	746167	keystroke	h	n/a
373.233	0.09	746466	keystroke	r	n/a
373.353	0.151	746706	keystroke	i	n/a
373.519	0.059	747038	keystroke	s	n/a
373.638	0.105	747276	keystroke	t	n/a
373.758	0.09	747516	keystroke	Key.space	n/a
373.983	0.09	747966	keystroke	a	n/a
374.149	0.104	748298	keystroke	g	n/a
374.282	0.0915	748564	keystroke	e	n/a
374.3735	0.12	748747	keystroke	n	n/a
374.5085	0.0895	749017	keystroke	d	n/a
374.6725	0.09	749345	keystroke	a	n/a
374.748	0.0895	749496	keystroke	Key.space	n/a
374.8685	0.134	749737	keystroke	b	n/a
374.9735	0.09	749947	keystroke	e	n/a
375.1375	0.121	750275	keystroke	e	n/a
375.3025	0.121	750605	keystroke	r	n/a
375.3925	0.105	750785	keystroke	Key.space	n/a
375.6035	0.074	751207	keystroke	l	n/a
375.7675	0.106	751535	keystroke	i	n/a
375.8285	0.09	751657	keystroke	s	n/a
376.0085	0.105	752017	keystroke	t	n/a
376.0385	0.09	752077	keystroke	i	n/a
376.2035	0.09	752407	keystroke	n	n/a
376.3375	0.076	752675	keystroke	g	n/a
376.4275	0.105	752855	keystroke	Key.enter	n/a
376.5415	6.428	753083	prompt	n/a	terminology dedicated forward tribute\n
377.178	0.105	754356	keystroke	t	n/a
377.358	0.09	754716	keystroke	e	n/a
377.463	0.12	754926	keystroke	r	n/a
377.568	0.105	755136	keystroke	m	n/a
377.748	0.075	755496	keystroke	i	n/a
377.883	0.09	755766	keystroke	n	n/a
378.063	0.09	756126	keystroke	o	n/a
378.2285	0.0885	756457	keystroke	l	n/a
378.378	0.105	756756	keystroke	o	n/a
378.483	0.12	756966	keystroke	g	n/a
378.603	0.135	757206	keystroke	y	n/a
378.723	0.135	757446	keystroke	Key.space	n/a
378.813	0.09	757626	keystroke	d	n/a
378.993	0.0905	757986	keystroke	e	n/a
379.1735	0.105	758347	keystroke	d	n/a
379.2635	0.104	758527	keystroke	i	n/a
379.383	0.09	758766	keystroke	c	n/a
379.578	0.0595	759156	keystroke	a	n/a
379.713	0.1205	759426	keystroke	t	n/a
379.9225	0.075	759845	keystroke	e	n/a
380.073	0.1055	760146	keystroke	d	n/a
380.163	0.0895	760326	keystroke	Key.space	n/a
380.2975	0.106	760595	keystroke	f	n/a
380.388	0.0745	760776	keystroke	o	n/a
380.4475	0.12	760895	keystroke	r	n/a
380.658	0.105	761316	keystroke	w	n/a
380.8085	0.1045	761617	keystroke	a	n/a
381.213	0.0745	762426	keystroke	r	n/a
381.4375	0.09	762875	keystroke	d	n/a
381.543	0.1345	763086	keystroke	Key.space	n/a
381.6925	0.135	763385	keystroke	t	n/a
381.8725	0.1355	763745	keystroke	r	n/a
382.0375	0.105	764075	keystroke	i	n/a
382.3075	0.1055	764615	keystroke	b	n/a
382.473	0.12	764946	keystroke	u	n/a
382.5785	0.0895	765157	keystroke	t	n/a
382.758	0.105	765516	keystroke	e	n/a
382.908	0.06	765816	keystroke	Key.enter	n/a
382.9735	4.946	765947	prompt	n/a	maintaining weed attract rising\n
383.568	0.105	767136	keystroke	m	n/a
383.613	0.12	767226	keystroke	a	n/a
383.793	0.09	767586	keystroke	i	n/a
383.9425	0.106	767885	keystroke	n	n/a
384.0775	0.091	768155	keystroke	t	n/a
384.3325	0.0605	768665	keystroke	a	n/a
384.3775	0.076	768755	keystroke	i	n/a
384.4985	0.105	768997	keystroke	n	n/a
384.6475	0.106	769295	keystroke	i	n/a
384.768	0.1505	769536	keystroke	n	n/a
384.858	0.0905	769716	keystroke	g	n/a
384.9925	0.12	769985	keystroke	Key.space	n/a
385.0375	0.1055	770075	keystroke	w	n/a
385.308	0.12	770616	keystroke	e	n/a
385.518	0.0905	771036	keystroke	e	n/a
385.7135	0.1045	771427	keystroke	d	n/a
385.803	0.15	771606	keystroke	Key.space	n/a
386.043	0.075	772086	keystroke	a	n/a
386.223	0.09	772446	keystroke	t	n/a
386.403	0.0755	772806	keystroke	t	n/a
386.493	0.0905	772986	keystroke	r	n/a
386.6885	0.075	773377	keystroke	a	n/a
386.8385	0.104	773677	keystroke	c	n/a
386.9125	0.105	773825	keystroke	t	n/a
387.0175	0.135	774035	keystroke	Key.space	n/a
387.1225	0.1045	774245	keystroke	r	n/a
387.2425	0.0905	774485	keystroke	i	n/a
387.333	0.135	774666	keystroke	s	n/a
387.452	0.076	774904	keystroke	i	n/a
387.6335	0.105	775267	keystroke	n	n/a
387.723	0.1055	775446	keystroke	g	n/a
387.842	0.076	775684	keystroke	Key.enter	n/a
387.923	5.8015	775846	prompt	n/a	pregnancy flag existence personnel\n
388.548	0.0905	777096	keystroke	p	n/a
388.713	0.135	777426	keystroke	r	n/a
388.878	0.1055	777756	keystroke	e	n/a
389.0885	0.0745	778177	keystroke	g	n/a
389.253	0.12	778506	keystroke	n	n/a
389.433	0.1055	778866	keystroke	a	n/a
389.5535	0.089	779107	keystroke	n	n/a
389.6585	0.119	779317	keystroke	c	n/a
389.7925	0.1205	779585	keystroke	y	n/a
389.9575	0.105	779915	keystroke	Key.space	n/a
390.0775	0.105	780155	keystroke	f	n/a
390.273	0.1045	780546	keystroke	l	n/a
390.423	0.1055	780846	keystroke	a	n/a
390.5735	0.105	781147	keystroke	g	n/a
390.738	0.12	781476	keystroke	Key.space	n/a
390.873	0.0905	781746	keystroke	e	n/a
391.083	0.1055	782166	keystroke	x	n/a
391.1725	0.106	782345	keystroke	i	n/a
391.308	0.075	782616	keystroke	s	n/a
391.488	0.0755	782976	keystroke	t	n/a
391.6535	0.09	783307	keystroke	e	n/a
391.7575	0.105	783515	keystroke	n	n/a
391.8775	0.06	783755	keystroke	c	n/a
392.0575	0.091	784115	keystroke	e	n/a
392.1325	0.09	784265	keystroke	Key.space	n/a
392.223	0.0895	784446	keystroke	p	n/a
392.2975	0.135	784595	keystroke	e	n/a
392.463	0.075	784926	keystroke	r	n/a
392.628	0.1045	785256	keystroke	s	n/a
392.718	0.0755	785436	keystroke	o	n/a
392.853	0.0895	785706	keystroke	n	n/a
393.228	0.09	786456	keystroke	n	n/a
393.3035	0.105	786607	keystroke	e	n/a
393.438	0.1205	786876	keystroke	l	n/a
393.633	0.0895	787266	keystroke	Key.enter	n/a
393.729	4.7955	787458	prompt	n/a	dying designated milan casio\n
394.338	0.1195	788676	keystroke	d	n/a
394.4275	0.09	788855	keystroke	y	n/a
394.5935	0.074	789187	keystroke	i	n/a
394.7435	0.1195	789487	keystroke	n	n/a
394.818	0.09	789636	keystroke	g	n/a
394.923	0.12	789846	keystroke	Key.space	n/a
395.028	0.09	790056	keystroke	d	n/a
395.2225	0.076	790445	keystroke	e	n/a
395.4635	0.104	790927	keystroke	s	n/a
395.5825	0.0755	791165	keystroke	i	n/a
395.733	0.1045	791466	keystroke	g	n/a
395.868	0.1055	791736	keystroke	n	n/a
396.0485	0.09	792097	keystroke	a	n/a
396.2425	0.09	792485	keystroke	t	n/a
396.4075	0.0905	792815	keystroke	e	n/a
396.5575	0.105	793115	keystroke	d	n/a
396.633	0.0895	793266	keystroke	Key.space	n/a
396.738	0.09	793476	keystroke	m	n/a
396.8875	0.09	793775	keystroke	i	n/a
397.1435	0.0145	794287	keystroke	l	n/a
397.1725	0.061	794345	keystroke	a	n/a
397.2475	0.12	794495	keystroke	n	n/a
397.3525	0.1205	794705	keystroke	Key.space	n/a
397.488	0.0905	794976	keystroke	c	n/a
397.683	0.1045	795366	keystroke	a	n/a
397.7725	0.105	795545	keystroke	s	n/a
397.8925	0.225	795785	keystroke	i	n/a
398.0285	0.104	796057	keystroke	o	n/a
398.4775	0.045	796955	keystroke	Key.enter	n/a
398.5295	5.5895	797059	prompt	n/a	construction worked yacht roberts\n
399.289	0.1045	798578	keystroke	c	n/a
399.348	0.09	798696	keystroke	o	n/a
399.5125	0.106	799025	keystroke	n	n/a
399.6635	0.075	799327	keystroke	s	n/a
399.8275	0.091	799655	keystroke	t	n/a
400.1585	0.09	800317	keystroke	r	n/a
400.263	0.1055	800526	keystroke	u	n/a
400.5925	0.121	801185	keystroke	c	n/a
400.8175	0.12	801635	keystroke	t	n/a
400.9075	0.135	801815	keystroke	i	n/a
400.9675	0.091	801935	keystroke	o	n/a
401.178	0.105	802356	keystroke	n	n/a
401.297	0.105	802594	keystroke	Key.space	n/a
401.418	0.0905	802836	keystroke	w	n/a
401.523	0.1045	803046	keystroke	o	n/a
401.643	0.1055	803286	keystroke	r	n/a
401.763	0.105	803526	keystroke	k	n/a
401.8835	0.09	803767	keystroke	e	n/a
402.048	0.12	804096	keystroke	d	n/a
402.138	0.09	804276	keystroke	Key.space	n/a
402.333	0.1205	804666	keystroke	y	n/a
402.423	0.09	804846	keystroke	a	n/a
402.588	0.09	805176	keystroke	c	n/a
402.648	0.12	805296	keystroke	h	n/a
402.8135	0.1195	805627	keystroke	t	n/a
402.917	0.091	805834	keystroke	Key.space	n/a
403.1725	0.1205	806345	keystroke	r	n/a
403.278	0.0605	806556	keystroke	o	n/a
403.4275	0.1205	806855	keystroke	b	n/a
403.473	0.1045	806946	keystroke	e	n/a
403.5925	0.105	807185	keystroke	r	n/a
403.758	0.1045	807516	keystroke	t	n/a
403.9385	0.119	807877	keystroke	s	n/a
404.073	0.0445	808146	keystroke	Key.enter	n/a
404.1245	5.0505	808249	prompt	n/a	hero bahamas sport drag\n
404.7635	0.119	809527	keystroke	h	n/a
404.8525	0.1205	809705	keystroke	e	n/a
404.9875	0.135	809975	keystroke	r	n/a
405.078	0.09	810156	keystroke	o	n/a
405.1975	0.1055	810395	keystroke	Key.space	n/a
405.318	0.1355	810636	keystroke	b	n/a
405.363	0.1355	810726	keystroke	a	n/a
405.558	0.1205	811116	keystroke	h	n/a
405.6925	0.1055	811385	keystroke	a	n/a
405.843	0.105	811686	keystroke	m	n/a
405.933	0.09	811866	keystroke	a	n/a
406.218	0.12	812436	keystroke	s	n/a
406.353	0.105	812706	keystroke	Key.space	n/a
406.578	0.105	813156	keystroke	s	n/a
406.6535	0.1945	813307	keystroke	p	n/a
406.758	0.15	813516	keystroke	o	n/a
406.863	0.105	813726	keystroke	r	n/a
407.0135	0.135	814027	keystroke	t	n/a
407.133	0.1195	814266	keystroke	Key.space	n/a
407.8835	0.074	815767	keystroke	d	n/a
408.603	0.075	817206	keystroke	r	n/a
408.813	0.075	817626	keystroke	a	n/a
408.903	0.075	817806	keystroke	g	n/a
409.068	0.105	818136	keystroke	Key.enter	n/a
409.179	6.086	818358	prompt	n/a	indicated having either copper\n
409.8635	0.1045	819727	keystroke	i	n/a
410.013	0.09	820026	keystroke	n	n/a
410.193	0.12	820386	keystroke	i	n/a
410.763	0.045	821526	keystroke	Key.backspace	n/a
410.823	0.12	821646	keystroke	d	n/a
410.913	0.135	821826	keystroke	i	n/a
411.333	0.0455	822666	keystroke	c	n/a
411.453	0.0595	822906	keystroke	a	n/a
411.6325	0.105	823265	keystroke	t	n/a
411.8125	0.0905	823625	keystroke	e	n/a
411.963	0.09	823926	keystroke	d	n/a
412.068	0.06	824136	keystroke	Key.space	n/a
412.113	0.135	824226	keystroke	h	n/a
412.233	0.105	824466	keystroke	a	n/a
412.338	0.06	824676	keystroke	v	n/a
412.5335	0.0745	825067	keystroke	i	n/a
412.668	0.1055	825336	keystroke	n	n/a
412.7885	0.0745	825577	keystroke	g	n/a
412.9075	0.1055	825815	keystroke	Key.space	n/a
413.073	0.1045	826146	keystroke	e	n/a
413.1635	0.105	826327	keystroke	i	n/a
413.2685	0.104	826537	keystroke	t	n/a
413.3435	0.119	826687	keystroke	h	n/a
413.4485	0.089	826897	keystroke	e	n/a
413.5675	0.1205	827135	keystroke	r	n/a
413.643	0.12	827286	keystroke	Key.space	n/a
413.838	0.1045	827676	keystroke	c	n/a
413.9285	0.105	827857	keystroke	o	n/a
414.1225	0.09	828245	keystroke	o	n/a
414.4675	0.075	828935	keystroke	Key.backspace	n/a
414.6935	0.0745	829387	keystroke	p	n/a
414.8585	0.12	829717	keystroke	p	n/a
414.9035	0.12	829807	keystroke	e	n/a
415.038	0.1205	830076	keystroke	r	n/a
415.1585	0.1045	830317	keystroke	Key.enter	n/a
415.2695	5.32	830539	prompt	n/a	asin warning download tobago\n
415.848	0.0905	831696	keystroke	a	n/a
415.9975	0.0755	831995	keystroke	s	n/a
416.103	0.09	832206	keystroke	i	n/a
416.2975	0.12	832595	keystroke	n	n/a
416.403	0.1195	832806	keystroke	Key.space	n/a
416.493	0.1045	832986	keystroke	w	n/a
416.718	0.0455	833436	keystroke	a	n/a
416.883	0.12	833766	keystroke	r	n/a
416.973	0.105	833946	keystroke	n	n/a
417.108	0.105	834216	keystroke	i	n/a
417.2575	0.105	834515	keystroke	n	n/a
417.348	0.1045	834696	keystroke	g	n/a
417.4535	0.1195	834907	keystroke	Key.space	n/a
417.588	0.1195	835176	keystroke	d	n/a
417.6625	0.105	835325	keystroke	o	n/a
418.233	0.09	836466	keystroke	w	n/a
418.308	0.1205	836616	keystroke	n	n/a
418.563	0.09	837126	keystroke	l	n/a
418.728	0.12	837456	keystroke	o	n/a
418.818	0.075	837636	keystroke	a	n/a
418.968	0.1055	837936	keystroke	d	n/a
419.058	0.1045	838116	keystroke	Key.space	n/a
419.193	0.0905	838386	keystroke	t	n/a
419.2835	0.1345	838567	keystroke	o	n/a
419.643	0.09	839286	keystroke	b	n/a
419.9275	0.0905	839855	keystroke	a	n/a
420.063	0.1045	840126	keystroke	g	n/a
420.2725	0.0905	840545	keystroke	o	n/a
420.498	0.0895	840996	keystroke	Key.enter	n/a
420.5935	4.8865	841187	prompt	n/a	adidas charles golden versus\n
421.1435	0.0895	842287	keystroke	a	n/a
421.338	0.0905	842676	keystroke	d	n/a
421.458	0.12	842916	keystroke	i	n/a
421.563	0.09	843126	keystroke	d	n/a
421.848	0.105	843696	keystroke	a	n/a
421.998	0.1345	843996	keystroke	s	n/a
422.1335	0.1045	844267	keystroke	Key.space	n/a
422.298	0.1195	844596	keystroke	c	n/a
422.388	0.1045	844776	keystroke	h	n/a
422.5085	0.0745	845017	keystroke	a	n/a
422.6885	0.1045	845377	keystroke	r	n/a
422.793	0.105	845586	keystroke	l	n/a
422.883	0.1045	845766	keystroke	e	n/a
423.063	0.105	846126	keystroke	s	n/a
423.153	0.135	846306	keystroke	Key.space	n/a
423.3935	0.1045	846787	keystroke	g	n/a
423.4375	0.12	846875	keystroke	o	n/a
423.6475	0.09	847295	keystroke	l	n/a
423.798	0.0755	847596	keystroke	d	n/a
423.9935	0.089	847987	keystroke	e	n/a
424.068	0.105	848136	keystroke	n	n/a
424.2025	0.1355	848405	keystroke	Key.space	n/a
424.3675	0.0755	848735	keystroke	v	n/a
424.683	0.0905	849366	keystroke	e	n/a
424.803	0.105	849606	keystroke	r	n/a
424.983	0.12	849966	keystroke	s	n/a
425.148	0.135	850296	keystroke	u	n/a
425.268	0.09	850536	keystroke	s	n/a
425.433	0.045	850866	keystroke	Key.enter	n/a
425.484	5.6355	850968	prompt	n/a	ranks makeup entrance necklace\n
426.1525	0.135	852305	keystroke	r	n/a
426.3775	0.09	852755	keystroke	a	n/a
426.4375	0.09	852875	keystroke	n	n/a
426.5425	0.12	853085	keystroke	k	n/a
426.6485	0.12	853297	keystroke	s	n/a
426.7535	0.15	853507	keystroke	Key.space	n/a
426.8575	0.15	853715	keystroke	m	n/a
426.9335	0.105	853867	keystroke	a	n/a
427.158	0.15	854316	keystroke	k	n/a
427.293	0.105	854586	keystroke	e	n/a
427.4735	0.105	854947	keystroke	u	n/a
427.6385	0.104	855277	keystroke	p	n/a
427.818	0.12	855636	keystroke	Key.space	n/a
427.9835	0.104	855967	keystroke	e	n/a
428.1035	0.119	856207	keystroke	n	n/a
428.1925	0.106	856385	keystroke	t	n/a
428.3275	0.1065	856655	keystroke	r	n/a
428.5375	0.0905	857075	keystroke	a	n/a
428.748	0.15	857496	keystroke	n	n/a
428.868	0.09	857736	keystroke	c	n/a
429.093	0.1205	858186	keystroke	e	n/a
429.198	0.1045	858396	keystroke	Key.space	n/a
429.798	0.105	859596	keystroke	n	n/a
430.0535	0.0895	860107	keystroke	e	n/a
430.2475	0.1205	860495	keystroke	c	n/a
430.293	0.135	860586	keystroke	k	n/a
430.5175	0.0905	861035	keystroke	l	n/a
430.5925	0.0755	861185	keystroke	a	n/a
430.7425	0.09	861485	keystroke	c	n/a
430.938	0.105	861876	keystroke	e	n/a
431.058	0.06	862116	keystroke	Key.enter	n/a
431.1225	6.4025	862245	prompt	n/a	tucson condo participation defense\n
431.898	0.1505	863796	keystroke	t	n/a
432.0935	0.12	864187	keystroke	u	n/a
432.5735	0.12	865147	keystroke	c	n/a
432.8135	0.09	865627	keystroke	s	n/a
432.8885	0.104	865777	keystroke	o	n/a
433.0525	0.1655	866105	keystroke	n	n/a
433.1725	0.135	866345	keystroke	Key.space	n/a
433.3675	0.18	866735	keystroke	c	n/a
433.5335	0.0745	867067	keystroke	o	n/a
433.683	0.105	867366	keystroke	n	n/a
433.8325	0.12	867665	keystroke	d	n/a
433.968	0.105	867936	keystroke	o	n/a
434.0875	0.1205	868175	keystroke	Key.space	n/a
434.314	0.0885	868628	keystroke	p	n/a
434.373	0.0755	868746	keystroke	a	n/a
434.5685	0.074	869137	keystroke	r	n/a
434.7625	0.09	869525	keystroke	t	n/a
434.8385	0.105	869677	keystroke	i	n/a
435.0175	0.12	870035	keystroke	c	n/a
435.1075	0.1505	870215	keystroke	i	n/a
435.2735	0.119	870547	keystroke	p	n/a
435.378	0.0595	870756	keystroke	a	n/a
435.5435	0.12	871087	keystroke	t	n/a
435.618	0.12	871236	keystroke	i	n/a
435.6775	0.09	871355	keystroke	o	n/a
435.8875	0.09	871775	keystroke	n	n/a
435.963	0.1345	871926	keystroke	Key.space	n/a
436.023	0.0895	872046	keystroke	d	n/a
436.2175	0.0905	872435	keystroke	e	n/a
436.4135	0.105	872827	keystroke	f	n/a
436.7435	0.12	873487	keystroke	e	n/a
436.848	0.1205	873696	keystroke	n	n/a
437.1785	0.0595	874357	keystroke	s	n/a
437.2975	0.1055	874595	keystroke	e	n/a
437.448	0.075	874896	keystroke	Key.enter	n/a
437.53	5.62	875060	prompt	n/a	mpegs must've stem disaster\n
438.1835	0.09	876367	keystroke	m	n/a
