onset	duration	sample	value	key	prompt_text
11.9175	8.134	23835	prompt	n/a	the quick brown fox jumps over a lazy dog\n
12.9865	0.028	25973	keystroke_t	t	n/a
13.0595	0.15	26119	keystroke_h	h	n/a
13.1495	0.12	26299	keystroke_e	e	n/a
13.3145	0.12	26629	keystroke_Key.space	Key.space	n/a
13.4495	0.15	26899	keystroke_q	q	n/a
13.5845	0.09	27169	keystroke_u	u	n/a
13.7945	0.105	27589	keystroke_i	i	n/a
13.8845	0.1495	27769	keystroke_c	c	n/a
14.064	0.135	28128	keystroke_k	k	n/a
14.184	0.15	28368	keystroke_Key.space	Key.space	n/a
14.349	0.12	28698	keystroke_b	b	n/a
14.799	0.075	29598	keystroke_r	r	n/a
15.054	0.075	30108	keystroke_w	w	n/a
15.429	0.09	30858	keystroke_Key.backspace	Key.backspace	n/a
15.699	0.135	31398	keystroke_o	o	n/a
15.864	0.12	31728	keystroke_w	w	n/a
15.954	0.1355	31908	keystroke_n	n	n/a
16.1045	0.12	32209	keystroke_Key.space	Key.space	n/a
16.2095	0.09	32419	keystroke_f	f	n/a
16.2995	0.15	32599	keystroke_o	o	n/a
16.5095	0.105	33019	keystroke_x	x	n/a
16.5695	0.105	33139	keystroke_Key.space	Key.space	n/a
16.7195	0.12	33439	keystroke_j	j	n/a
16.9295	0.075	33859	keystroke_u	u	n/a
17.1545	0.105	34309	keystroke_m	m	n/a
17.3795	0.15	34759	keystroke_p	p	n/a
17.4845	0.12	34969	keystroke_s	s	n/a
17.6195	0.165	35239	keystroke_Key.space	Key.space	n/a
17.7695	0.135	35539	keystroke_o	o	n/a
17.8895	0.09	35779	keystroke_v	v	n/a
18.0395	0.165	36079	keystroke_e	e	n/a
18.1745	0.105	36349	keystroke_r	r	n/a
18.3095	0.105	36619	keystroke_Key.space	Key.space	n/a
18.4595	0.09	36919	keystroke_a	a	n/a
18.5645	0.09	37129	keystroke_Key.space	Key.space	n/a
18.6695	0.18	37339	keystroke_l	l	n/a
18.7895	0.075	37579	keystroke_a	a	n/a
18.9845	0.074	37969	keystroke_z	z	n/a
19.2095	0.089	38419	keystroke_y	y	n/a
19.3435	0.105	38687	keystroke_Key.space	Key.space	n/a
19.4635	0.135	38927	keystroke_d	d	n/a
19.6135	0.12	39227	keystroke_o	o	n/a
19.7185	0.105	39437	keystroke_g	g	n/a
19.9735	0.0755	39947	keystroke_Key.enter	Key.enter	n/a
20.06	9.1705	40120	prompt	n/a	crowd bahrain magazines polar\n
20.829	0.105	41658	keystroke_c	c	n/a
21.099	0.105	42198	keystroke_r	r	n/a
21.249	0.105	42498	keystroke_o	o	n/a
21.369	0.09	42738	keystroke_w	w	n/a
21.654	0.105	43308	keystroke_d	d	n/a
21.834	0.105	43668	keystroke_Key.space	Key.space	n/a
22.344	0.135	44688	keystroke_b	b	n/a
22.554	0.09	45108	keystroke_a	a	n/a
23.409	0.135	46818	keystroke_h	h	n/a
23.814	0.105	47628	keystroke_r	r	n/a
23.949	0.165	47898	keystroke_a	a	n/a
24.144	0.105	48288	keystroke_i	i	n/a
24.219	0.195	48438	keystroke_n	n	n/a
24.504	0.12	49008	keystroke_Key.space	Key.space	n/a
24.909	0.12	49818	keystroke_m	m	n/a
25.344	0.09	50688	keystroke_a	a	n/a
25.764	0.075	51528	keystroke_g	g	n/a
26.184	0.135	52368	keystroke_i	i	n/a
26.709	0.09	53418	keystroke_Key.backspace	Key.backspace	n/a
26.859	0.105	53718	keystroke_a	a	n/a
27.114	0.075	54228	keystroke_z	z	n/a
27.279	0.135	54558	keystroke_i	i	n/a
27.369	0.18	54738	keystroke_n	n	n/a
27.534	0.075	55068	keystroke_e	e	n/a
27.759	0.135	55518	keystroke_s	s	n/a
27.924	0.105	55848	keystroke_Key.space	Key.space	n/a
28.089	0.15	56178	keystroke_p	p	n/a
28.209	0.135	56418	keystroke_o	o	n/a
28.494	0.12	56988	keystroke_l	l	n/a
28.734	0.06	57468	keystroke_a	a	n/a
28.869	0.105	57738	keystroke_r	r	n/a
29.154	0.075	58308	keystroke_Key.enter	Key.enter	n/a
29.234	6.746	58468	prompt	n/a	slide habits depth typically\n
29.769	0.165	59538	keystroke_s	s	n/a
29.949	0.165	59898	keystroke_l	l	n/a
30.054	0.15	60108	keystroke_i	i	n/a
30.204	0.12	60408	keystroke_d	d	n/a
30.444	0.09	60888	keystroke_e	e	n/a
30.624	0.09	61248	keystroke_Key.space	Key.space	n/a
30.789	0.12	61578	keystroke_h	h	n/a
30.894	0.135	61788	keystroke_a	a	n/a
31.044	0.075	62088	keystroke_b	b	n/a
31.239	0.1195	62478	keystroke_i	i	n/a
31.3435	0.105	62687	keystroke_t	t	n/a
31.5535	0.135	63107	keystroke_s	s	n/a
31.7335	0.09	63467	keystroke_Key.space	Key.space	n/a
31.8385	0.12	63677	keystroke_d	d	n/a
32.0485	0.09	64097	keystroke_e	e	n/a
32.1835	0.09	64367	keystroke_p	p	n/a
32.3485	0.105	64697	keystroke_t	t	n/a
32.5435	0.135	65087	keystroke_h	h	n/a
32.8135	0.09	65627	keystroke_Key.space	Key.space	n/a
33.0235	0.105	66047	keystroke_t	t	n/a
33.2335	0.09	66467	keystroke_y	y	n/a
33.3835	0.105	66767	keystroke_p	p	n/a
33.6235	0.12	67247	keystroke_i	i	n/a
33.7585	0.105	67517	keystroke_c	c	n/a
33.9235	0.12	67847	keystroke_l	l	n/a
34.0585	0.09	68117	keystroke_a	a	n/a
34.449	0.09	68898	keystroke_Key.backspace	Key.backspace	n/a
34.764	0.06	69528	keystroke_Key.backspace	Key.backspace	n/a
34.9145	0.1345	69829	keystroke_a	a	n/a
35.034	0.135	70068	keystroke_l	l	n/a
35.214	0.1205	70428	keystroke_l	l	n/a
35.604	0.09	71208	keystroke_y	y	n/a
35.904	0.075	71808	keystroke_Key.enter	Key.enter	n/a
35.983	5.8625	71966	prompt	n/a	useful it drunk million\n
36.609	0.105	73218	keystroke_u	u	n/a
36.819	0.165	73638	keystroke_s	s	n/a
36.909	0.105	73818	keystroke_e	e	n/a
37.134	0.12	74268	keystroke_f	f	n/a
37.224	0.075	74448	keystroke_u	u	n/a
37.494	0.15	74988	keystroke_l	l	n/a
37.854	0.09	75708	keystroke_Key.space	Key.space	n/a
37.974	0.18	75948	keystroke_i	i	n/a
38.139	0.12	76278	keystroke_f	f	n/a
38.244	0.135	76488	keystroke_Key.space	Key.space	n/a
38.649	0.12	77298	keystroke_d	d	n/a
38.874	0.12	77748	keystroke_r	r	n/a
39.009	0.03	78018	keystroke_i	i	n/a
39.354	0.06	78708	keystroke_Key.backspace	Key.backspace	n/a
39.639	0.12	79278	keystroke_u	u	n/a
39.849	0.195	79698	keystroke_n	n	n/a
39.984	0.21	79968	keystroke_k	k	n/a
40.179	0.12	80358	keystroke_Key.space	Key.space	n/a
40.479	0.105	80958	keystroke_m	m	n/a
40.704	0.105	81408	keystroke_i	i	n/a
40.869	0.12	81738	keystroke_l	l	n/a
41.079	0.09	82158	keystroke_l	l	n/a
41.184	0.165	82368	keystroke_i	i	n/a
41.334	0.18	82668	keystroke_o	o	n/a
41.424	0.165	82848	keystroke_n	n	n/a
41.769	0.075	83538	keystroke_Key.enter	Key.enter	n/a
41.8485	5.0665	83697	prompt	n/a	scared forbes hotel starts\n
42.369	0.105	84738	keystroke_s	s	n/a
42.579	0.12	85158	keystroke_c	c	n/a
42.744	0.165	85488	keystroke_a	a	n/a
42.879	0.12	85758	keystroke_r	r	n/a
43.044	0.12	86088	keystroke_e	e	n/a
43.269	0.09	86538	keystroke_d	d	n/a
43.419	0.1045	86838	keystroke_Key.space	Key.space	n/a
43.5985	0.12	87197	keystroke_f	f	n/a
43.7485	0.09	87497	keystroke_o	o	n/a
43.8685	0.12	87737	keystroke_r	r	n/a
44.094	0.105	88188	keystroke_b	b	n/a
44.199	0.135	88398	keystroke_e	e	n/a
44.364	0.135	88728	keystroke_s	s	n/a
44.528	0.135	89056	keystroke_Key.space	Key.space	n/a
44.693	0.181	89386	keystroke_h	h	n/a
44.874	0.149	89748	keystroke_o	o	n/a
45.008	0.091	90016	keystroke_t	t	n/a
45.218	0.106	90436	keystroke_e	e	n/a
45.369	0.135	90738	keystroke_l	l	n/a
45.519	0.135	91038	keystroke_Key.space	Key.space	n/a
45.684	0.12	91368	keystroke_s	s	n/a
45.879	0.1055	91758	keystroke_t	t	n/a
46.0285	0.195	92057	keystroke_a	a	n/a
46.1335	0.12	92267	keystroke_r	r	n/a
46.374	0.09	92748	keystroke_t	t	n/a
46.584	0.12	93168	keystroke_s	s	n/a
46.794	0.1195	93588	keystroke_Key.enter	Key.enter	n/a
46.919	5.021	93838	prompt	n/a	moore minimal hosted step\n
47.5435	0.1355	95087	keystroke_m	m	n/a
47.724	0.045	95448	keystroke_o	o	n/a
47.874	0.105	95748	keystroke_o	o	n/a
47.964	0.135	95928	keystroke_r	r	n/a
48.084	0.135	96168	keystroke_e	e	n/a
48.264	0.12	96528	keystroke_Key.space	Key.space	n/a
48.564	0.12	97128	keystroke_m	m	n/a
48.729	0.135	97458	keystroke_i	i	n/a
48.849	0.135	97698	keystroke_n	n	n/a
48.954	0.12	97908	keystroke_i	i	n/a
49.224	0.12	98448	keystroke_m	m	n/a
49.374	0.12	98748	keystroke_a	a	n/a
49.5235	0.165	99047	keystroke_l	l	n/a
49.734	0.1045	99468	keystroke_Key.space	Key.space	n/a
49.9585	0.165	99917	keystroke_h	h	n/a
50.1385	0.12	100277	keystroke_o	o	n/a
50.2285	0.18	100457	keystroke_s	s	n/a
50.3935	0.106	100787	keystroke_t	t	n/a
50.5885	0.105	101177	keystroke_e	e	n/a
50.8145	0.089	101629	keystroke_d	d	n/a
50.9335	0.09	101867	keystroke_Key.space	Key.space	n/a
51.0395	0.194	102079	keystroke_s	s	n/a
51.2035	0.121	102407	keystroke_t	t	n/a
51.458	0.105	102916	keystroke_e	e	n/a
51.609	0.09	103218	keystroke_p	p	n/a
51.8635	0.075	103727	keystroke_Key.enter	Key.enter	n/a
51.943	6.822	103886	prompt	n/a	phenomenon seeker resolved mobile\n
52.659	0.09	105318	keystroke_p	p	n/a
52.974	0.12	105948	keystroke_h	h	n/a
53.199	0.105	106398	keystroke_e	e	n/a
53.484	0.09	106968	keystroke_n	n	n/a
53.724	0.105	107448	keystroke_o	o	n/a
54.024	0.135	108048	keystroke_m	m	n/a
54.249	0.105	108498	keystroke_e	e	n/a
54.369	0.09	108738	keystroke_n	n	n/a
54.624	0.195	109248	keystroke_o	o	n/a
54.774	0.18	109548	keystroke_n	n	n/a
54.984	0.12	109968	keystroke_Key.space	Key.space	n/a
55.119	0.165	110238	keystroke_s	s	n/a
55.269	0.075	110538	keystroke_e	e	n/a
55.434	0.105	110868	keystroke_e	e	n/a
55.524	0.135	111048	keystroke_k	k	n/a
55.674	0.18	111348	keystroke_e	e	n/a
55.7785	0.1505	111557	keystroke_r	r	n/a
55.944	0.09	111888	keystroke_Key.space	Key.space	n/a
56.049	0.135	112098	keystroke_r	r	n/a
56.199	0.135	112398	keystroke_e	e	n/a
56.424	0.12	112848	keystroke_s	s	n/a
56.589	0.06	113178	keystroke_o	o	n/a
56.784	0.12	113568	keystroke_l	l	n/a
56.889	0.09	113778	keystroke_v	v	n/a
57.054	0.105	114108	keystroke_e	e	n/a
57.264	0.12	114528	keystroke_d	d	n/a
57.399	0.135	114798	keystroke_Key.space	Key.space	n/a
57.519	0.21	115038	keystroke_m	m	n/a
57.714	0.12	115428	keystroke_o	o	n/a
57.924	0.12	115848	keystroke_b	b	n/a
58.119	0.12	116238	keystroke_i	i	n/a
58.329	0.165	116658	keystroke_l	l	n/a
58.494	0.105	116988	keystroke_e	e	n/a
58.719	0.044	117438	keystroke_Key.enter	Key.enter	n/a
58.77	5.5155	117540	prompt	n/a	craig circles dishes dialog\n
59.4535	0.12	118907	keystroke_c	c	n/a
59.7085	0.12	119417	keystroke_r	r	n/a
59.8735	0.165	119747	keystroke_a	a	n/a
60.0535	0.135	120107	keystroke_i	i	n/a
60.2185	0.12	120437	keystroke_g	g	n/a
60.3835	0.09	120767	keystroke_Key.space	Key.space	n/a
60.6235	0.105	121247	keystroke_c	c	n/a
60.7435	0.1345	121487	keystroke_i	i	n/a
60.923	0.075	121846	keystroke_r	r	n/a
61.208	0.1055	122416	keystroke_c	c	n/a
61.5235	0.1795	123047	keystroke_l	l	n/a
61.6585	0.21	123317	keystroke_e	e	n/a
61.7935	0.12	123587	keystroke_s	s	n/a
61.9285	0.09	123857	keystroke_Key.space	Key.space	n/a
62.0335	0.136	124067	keystroke_d	d	n/a
62.1535	0.121	124307	keystroke_i	i	n/a
62.2585	0.135	124517	keystroke_s	s	n/a
62.4235	0.136	124847	keystroke_h	h	n/a
62.5885	0.1805	125177	keystroke_e	e	n/a
62.7535	0.135	125507	keystroke_s	s	n/a
62.9335	0.0905	125867	keystroke_Key.space	Key.space	n/a
63.039	0.105	126078	keystroke_d	d	n/a
63.279	0.12	126558	keystroke_i	i	n/a
63.444	0.12	126888	keystroke_a	a	n/a
63.714	0.12	127428	keystroke_l	l	n/a
63.864	0.12	127728	keystroke_o	o	n/a
63.999	0.12	127998	keystroke_g	g	n/a
64.209	0.075	128418	keystroke_Key.enter	Key.enter	n/a
64.289	6.7465	128578	prompt	n/a	frank poster heather nintendo\n
65.169	0.09	130338	keystroke_f	f	n/a
65.394	0.075	130788	keystroke_r	r	n/a
65.619	0.135	131238	keystroke_a	a	n/a
65.754	0.12	131508	keystroke_n	n	n/a
65.979	0.165	131958	keystroke_k	k	n/a
66.159	0.1195	132318	keystroke_Key.space	Key.space	n/a
66.3235	0.1505	132647	keystroke_p	p	n/a
66.4585	0.1345	132917	keystroke_o	o	n/a
66.609	0.149	133218	keystroke_s	s	n/a
66.743	0.106	133486	keystroke_t	t	n/a
66.908	0.226	133816	keystroke_e	e	n/a
67.014	0.134	134028	keystroke_r	r	n/a
67.178	0.1355	134356	keystroke_Key.space	Key.space	n/a
67.3285	0.1205	134657	keystroke_h	h	n/a
67.4635	0.075	134927	keystroke_e	e	n/a
67.6585	0.12	135317	keystroke_a	a	n/a
67.8835	0.105	135767	keystroke_t	t	n/a
68.0335	0.15	136067	keystroke_h	h	n/a
68.1685	0.18	136337	keystroke_e	e	n/a
68.2735	0.15	136547	keystroke_r	r	n/a
68.6185	0.09	137237	keystroke_Key.space	Key.space	n/a
69.699	0.135	139398	keystroke_n	n	n/a
69.879	0.12	139758	keystroke_i	i	n/a
69.984	0.15	139968	keystroke_n	n	n/a
70.119	0.09	140238	keystroke_t	t	n/a
70.269	0.105	140538	keystroke_e	e	n/a
70.419	0.09	140838	keystroke_n	n	n/a
70.494	0.105	140988	keystroke_d	d	n/a
70.644	0.1195	141288	keystroke_o	o	n/a
70.944	0.09	141888	keystroke_Key.enter	Key.enter	n/a
71.038	7.1225	142076	prompt	n/a	conditioning fundamental bali dynamics\n
71.724	0.135	143448	keystroke_c	c	n/a
71.904	0.18	143808	keystroke_o	o	n/a
72.054	0.12	144108	keystroke_n	n	n/a
72.204	0.135	144408	keystroke_d	d	n/a
72.324	0.12	144648	keystroke_i	i	n/a
72.534	0.12	145068	keystroke_t	t	n/a
72.669	0.105	145338	keystroke_i	i	n/a
72.759	0.15	145518	keystroke_o	o	n/a
72.864	0.12	145728	keystroke_n	n	n/a
73.104	0.12	146208	keystroke_i	i	n/a
73.194	0.18	146388	keystroke_n	n	n/a
73.389	0.12	146778	keystroke_g	g	n/a
73.5685	0.105	147137	keystroke_Key.space	Key.space	n/a
73.7485	0.075	147497	keystroke_f	f	n/a
73.8385	0.105	147677	keystroke_u	u	n/a
74.049	0.135	148098	keystroke_n	n	n/a
74.199	0.105	148398	keystroke_d	d	n/a
74.439	0.12	148878	keystroke_a	a	n/a
74.649	0.1505	149298	keystroke_m	m	n/a
74.8735	0.15	149747	keystroke_e	e	n/a
75.0095	0.089	150019	keystroke_n	n	n/a
75.1435	0.091	150287	keystroke_t	t	n/a
75.3385	0.135	150677	keystroke_a	a	n/a
75.4885	0.106	150977	keystroke_l	l	n/a
75.6085	0.136	151217	keystroke_Key.space	Key.space	n/a
75.8195	0.104	151639	keystroke_b	b	n/a
76.014	0.15	152028	keystroke_a	a	n/a
76.164	0.12	152328	keystroke_l	l	n/a
76.404	0.15	152808	keystroke_i	i	n/a
76.539	0.135	153078	keystroke_Key.space	Key.space	n/a
76.659	0.1055	153318	keystroke_d	d	n/a
76.8835	0.105	153767	keystroke_y	y	n/a
77.0785	0.105	154157	keystroke_n	n	n/a
77.2435	0.105	154487	keystroke_a	a	n/a
77.3185	0.105	154637	keystroke_m	m	n/a
77.5435	0.12	155087	keystroke_i	i	n/a
77.6335	0.12	155267	keystroke_c	c	n/a
77.7985	0.15	155597	keystroke_s	s	n/a
78.084	0.075	156168	keystroke_Key.enter	Key.enter	n/a
78.1635	5.9065	156327	prompt	n/a	preston random conduct screens\n
78.804	0.09	157608	keystroke_p	p	n/a
78.939	0.1655	157878	keystroke_r	r	n/a
79.0435	0.225	158087	keystroke_e	e	n/a
79.1945	0.194	158389	keystroke_s	s	n/a
79.4035	0.105	158807	keystroke_t	t	n/a
79.6435	0.18	159287	keystroke_o	o	n/a
79.7935	0.135	159587	keystroke_n	n	n/a
79.9435	0.1505	159887	keystroke_Key.space	Key.space	n/a
80.079	0.09	160158	keystroke_r	r	n/a
80.229	0.18	160458	keystroke_a	a	n/a
80.469	0.15	160938	keystroke_n	n	n/a
80.634	0.135	161268	keystroke_d	d	n/a
80.814	0.135	161628	keystroke_o	o	n/a
80.964	0.15	161928	keystroke_m	m	n/a
81.129	0.12	162258	keystroke_Key.space	Key.space	n/a
81.294	0.135	162588	keystroke_c	c	n/a
81.384	0.15	162768	keystroke_o	o	n/a
81.474	0.165	162948	keystroke_n	n	n/a
81.624	0.135	163248	keystroke_d	d	n/a
81.789	0.09	163578	keystroke_u	u	n/a
81.939	0.12	163878	keystroke_c	c	n/a
82.224	0.105	164448	keystroke_t	t	n/a
82.404	0.105	164808	keystroke_Key.space	Key.space	n/a
82.554	0.12	165108	keystroke_s	s	n/a
82.734	0.135	165468	keystroke_c	c	n/a
83.004	0.105	166008	keystroke_r	r	n/a
83.124	0.105	166248	keystroke_e	e	n/a
83.364	0.09	166728	keystroke_e	e	n/a
83.604	0.105	167208	keystroke_n	n	n/a
83.724	0.12	167448	keystroke_s	s	n/a
83.994	0.075	167988	keystroke_Key.enter	Key.enter	n/a
84.073	6.2675	168146	prompt	n/a	travels italic computation settlement\n
84.669	0.09	169338	keystroke_t	t	n/a
84.879	0.105	169758	keystroke_r	r	n/a
84.999	0.15	169998	keystroke_a	a	n/a
85.254	0.105	170508	keystroke_v	v	n/a
85.389	0.09	170778	keystroke_e	e	n/a
85.524	0.15	171048	keystroke_l	l	n/a
85.689	0.1195	171378	keystroke_s	s	n/a
85.8535	0.09	171707	keystroke_Key.space	Key.space	n/a
85.9585	0.135	171917	keystroke_i	i	n/a
86.0785	0.105	172157	keystroke_t	t	n/a
86.2585	0.15	172517	keystroke_a	a	n/a
86.3935	0.165	172787	keystroke_l	l	n/a
86.5135	0.12	173027	keystroke_i	i	n/a
86.6485	0.1355	173297	keystroke_c	c	n/a
86.814	0.09	173628	keystroke_Key.space	Key.space	n/a
86.964	0.135	173928	keystroke_c	c	n/a
87.084	0.1495	174168	keystroke_o	o	n/a
87.2035	0.135	174407	keystroke_m	m	n/a
87.5035	0.165	175007	keystroke_p	p	n/a
87.6235	0.15	175247	keystroke_u	u	n/a
87.8185	0.105	175637	keystroke_t	t	n/a
87.9845	0.239	175969	keystroke_a	a	n/a
88.1335	0.105	176267	keystroke_t	t	n/a
88.2685	0.135	176537	keystroke_i	i	n/a
88.4195	0.21	176839	keystroke_o	o	n/a
88.4935	0.165	176987	keystroke_n	n	n/a
88.6435	0.1205	177287	keystroke_Key.space	Key.space	n/a
88.7195	0.1645	177439	keystroke_s	s	n/a
88.824	0.12	177648	keystroke_e	e	n/a
89.019	0.09	178038	keystroke_t	t	n/a
89.184	0.0895	178368	keystroke_t	t	n/a
89.3035	0.105	178607	keystroke_l	l	n/a
89.4235	0.105	178847	keystroke_e	e	n/a
89.6035	0.1355	179207	keystroke_m	m	n/a
89.784	0.075	179568	keystroke_e	e	n/a
89.874	0.1055	179748	keystroke_n	n	n/a
89.9945	0.104	179989	keystroke_t	t	n/a
90.2495	0.089	180499	keystroke_Key.enter	Key.enter	n/a
90.343	13.2725	180686	prompt	n/a	ecuador totally justice prescription\n
90.9835	0.075	181967	keystroke_e	e	n/a
91.2985	0.105	182597	keystroke_c	c	n/a
91.5985	0.12	183197	keystroke_u	u	n/a
91.7935	0.09	183587	keystroke_d	d	n/a
92.1235	0.09	184247	keystroke_a	a	n/a
93.2335	0.075	186467	keystroke_Key.backspace	Key.backspace	n/a
93.3985	0.075	186797	keystroke_Key.backspace	Key.backspace	n/a
93.4585	0.105	186917	keystroke_a	a	n/a
93.6685	0.135	187337	keystroke_d	d	n/a
93.8185	0.135	187637	keystroke_o	o	n/a
94.0285	0.12	188057	keystroke_r	r	n/a
94.2235	0.12	188447	keystroke_Key.space	Key.space	n/a
94.4185	0.09	188837	keystroke_t	t	n/a
94.6585	0.09	189317	keystroke_o	o	n/a
94.7785	0.09	189557	keystroke_t	t	n/a
94.9735	0.075	189947	keystroke_l	l	n/a
95.0035	0.1205	190007	keystroke_a	a	n/a
95.349	0.09	190698	keystroke_Key.backspace	Key.backspace	n/a
95.529	0.06	191058	keystroke_Key.backspace	Key.backspace	n/a
95.634	0.135	191268	keystroke_a	a	n/a
95.829	0.105	191658	keystroke_l	l	n/a
96.039	0.105	192078	keystroke_l	l	n/a
96.339	0.09	192678	keystroke_y	y	n/a
96.5935	0.105	193187	keystroke_Key.space	Key.space	n/a
96.879	0.09	193758	keystroke_i	i	n/a
97.314	0.075	194628	keystroke_Key.backspace	Key.backspace	n/a
97.614	0.105	195228	keystroke_j	j	n/a
97.869	0.09	195738	keystroke_u	u	n/a
97.974	0.105	195948	keystroke_s	s	n/a
98.139	0.12	196278	keystroke_t	t	n/a
98.274	0.135	196548	keystroke_i	i	n/a
98.454	0.105	196908	keystroke_c	c	n/a
98.694	0.105	197388	keystroke_e	e	n/a
98.919	0.135	197838	keystroke_Key.space	Key.space	n/a
99.309	0.105	198618	keystroke_p	p	n/a
99.414	0.135	198828	keystroke_r	r	n/a
99.519	0.135	199038	keystroke_e	e	n/a
99.804	0.06	199608	keystroke_c	c	n/a
100.134	0.105	200268	keystroke_Key.backspace	Key.backspace	n/a
100.239	0.12	200478	keystroke_s	s	n/a
100.449	0.135	200898	keystroke_c	c	n/a
101.0645	0.12	202129	keystroke_p	p	n/a
101.7545	0.075	203509	keystroke_Key.backspace	Key.backspace	n/a
102.3385	0.106	204677	keystroke_r	r	n/a
102.5195	0.105	205039	keystroke_i	i	n/a
102.7595	0.105	205519	keystroke_p	p	n/a
102.9095	0.104	205819	keystroke_t	t	n/a
102.9995	0.18	205999	keystroke_i	i	n/a
103.1485	0.136	206297	keystroke_o	o	n/a
103.2545	0.105	206509	keystroke_n	n	n/a
103.5245	0.09	207049	keystroke_Key.enter	Key.enter	n/a
103.6185	6.897	207237	prompt	n/a	multiple benchmark grain fitting\n
104.3185	0.12	208637	keystroke_m	m	n/a
104.5585	0.09	209117	keystroke_u	u	n/a
104.7835	0.12	209567	keystroke_l	l	n/a
104.8895	0.089	209779	keystroke_t	t	n/a
105.0985	0.12	210197	keystroke_i	i	n/a
105.3085	0.105	210617	keystroke_p	p	n/a
105.9085	0.1355	211817	keystroke_l	l	n/a
106.269	0.12	212538	keystroke_e	e	n/a
106.449	0.12	212898	keystroke_Key.space	Key.space	n/a
106.809	0.15	213618	keystroke_b	b	n/a
106.96	0.059	213920	keystroke_e	e	n/a
107.079	0.12	214158	keystroke_n	n	n/a
107.349	0.15	214698	keystroke_c	c	n/a
107.484	0.105	214968	keystroke_h	h	n/a
107.724	0.15	215448	keystroke_m	m	n/a
107.829	0.105	215658	keystroke_a	a	n/a
107.994	0.135	215988	keystroke_r	r	n/a
108.144	0.135	216288	keystroke_k	k	n/a
108.294	0.135	216588	keystroke_Key.space	Key.space	n/a
108.474	0.09	216948	keystroke_g	g	n/a
108.699	0.105	217398	keystroke_r	r	n/a
108.819	0.165	217638	keystroke_a	a	n/a
108.954	0.18	217908	keystroke_i	i	n/a
109.119	0.21	218238	keystroke_n	n	n/a
109.269	0.105	218538	keystroke_Key.space	Key.space	n/a
109.404	0.12	218808	keystroke_f	f	n/a
109.539	0.12	219078	keystroke_i	i	n/a
109.689	0.105	219378	keystroke_t	t	n/a
109.869	0.09	219738	keystroke_t	t	n/a
109.944	0.15	219888	keystroke_i	i	n/a
110.064	0.1195	220128	keystroke_n	n	n/a
110.1685	0.1055	220337	keystroke_g	g	n/a
110.424	0.09	220848	keystroke_Key.enter	Key.enter	n/a
110.518	5.8625	221036	prompt	n/a	manuals hist deposits trance\n
111.1145	0.12	222229	keystroke_m	m	n/a
111.2635	0.136	222527	keystroke_a	a	n/a
111.3845	0.135	222769	keystroke_n	n	n/a
111.6695	0.09	223339	keystroke_u	u	n/a
111.7745	0.15	223549	keystroke_a	a	n/a
111.9385	0.136	223877	keystroke_l	l	n/a
112.2695	0.105	224539	keystroke_s	s	n/a
112.4495	0.134	224899	keystroke_Key.space	Key.space	n/a
112.5985	0.135	225197	keystroke_h	h	n/a
112.7485	0.136	225497	keystroke_i	i	n/a
112.8695	0.119	225739	keystroke_s	s	n/a
113.1835	0.105	226367	keystroke_t	t	n/a
113.3635	0.12	226727	keystroke_Key.space	Key.space	n/a
113.4985	0.106	226997	keystroke_d	d	n/a
113.7085	0.09	227417	keystroke_e	e	n/a
113.8135	0.12	227627	keystroke_p	p	n/a
113.8885	0.135	227777	keystroke_o	o	n/a
113.9935	0.135	227987	keystroke_s	s	n/a
114.1445	0.105	228289	keystroke_i	i	n/a
114.3235	0.09	228647	keystroke_t	t	n/a
114.4885	0.15	228977	keystroke_s	s	n/a
114.8635	0.12	229727	keystroke_Key.space	Key.space	n/a
115.3285	0.06	230657	keystroke_t	t	n/a
115.5835	0.12	231167	keystroke_r	r	n/a
115.7185	0.135	231437	keystroke_a	a	n/a
115.8235	0.09	231647	keystroke_n	n	n/a
115.9585	0.18	231917	keystroke_c	c	n/a
116.1085	0.12	232217	keystroke_e	e	n/a
116.3035	0.075	232607	keystroke_Key.enter	Key.enter	n/a
116.384	8.3215	232768	prompt	n/a	priorities aren't marble python\n
117.1285	0.09	234257	keystroke_p	p	n/a
117.2485	0.135	234497	keystroke_r	r	n/a
117.3985	0.18	234797	keystroke_i	i	n/a
117.5935	0.12	235187	keystroke_o	o	n/a
117.7435	0.105	235487	keystroke_r	r	n/a
117.9085	0.075	235817	keystroke_i	i	n/a
118.1785	0.09	236357	keystroke_u	u	n/a
118.6735	0.075	237347	keystroke_Key.backspace	Key.backspace	n/a
118.8685	0.105	237737	keystroke_t	t	n/a
119.0335	0.135	238067	keystroke_i	i	n/a
119.2285	0.195	238457	keystroke_e	e	n/a
119.3935	0.165	238787	keystroke_s	s	n/a
119.6185	0.105	239237	keystroke_Key.space	Key.space	n/a
119.7985	0.135	239597	keystroke_a	a	n/a
119.9635	0.165	239927	keystroke_r	r	n/a
120.1135	0.18	240227	keystroke_e	e	n/a
120.2485	0.09	240497	keystroke_n	n	n/a
120.5495	0.134	241099	keystroke_'	'	n/a
120.7135	0.135	241427	keystroke_t	t	n/a
120.9985	0.12	241997	keystroke_Key.space	Key.space	n/a
121.479	0.1645	242958	keystroke_m	m	n/a
121.5835	0.1805	243167	keystroke_a	a	n/a
121.704	0.12	243408	keystroke_r	r	n/a
121.809	0.09	243618	keystroke_b	b	n/a
122.079	0.135	244158	keystroke_l	l	n/a
122.199	0.135	244398	keystroke_e	e	n/a
122.364	0.12	244728	keystroke_Key.space	Key.space	n/a
122.649	0.105	245298	keystroke_p	p	n/a
122.8735	0.06	245747	keystroke_h	h	n/a
123.4435	0.09	246887	keystroke_Key.backspace	Key.backspace	n/a
123.4885	0.105	246977	keystroke_y	y	n/a
123.8185	0.12	247637	keystroke_t	t	n/a
123.984	0.1345	247968	keystroke_h	h	n/a
124.1785	0.15	248357	keystroke_o	o	n/a
124.2835	0.12	248567	keystroke_n	n	n/a
124.6135	0.09	249227	keystroke_Key.enter	Key.enter	n/a
124.7105	6.986	249421	prompt	n/a	incurred furnishings clay shipments\n
125.424	0.135	250848	keystroke_i	i	n/a
125.529	0.135	251058	keystroke_n	n	n/a
126.099	0.12	252198	keystroke_c	c	n/a
126.234	0.12	252468	keystroke_u	u	n/a
126.384	0.09	252768	keystroke_r	r	n/a
126.549	0.09	253098	keystroke_r	r	n/a
126.774	0.075	253548	keystroke_e	e	n/a
126.969	0.12	253938	keystroke_d	d	n/a
127.209	0.105	254418	keystroke_Key.space	Key.space	n/a
127.419	0.12	254838	keystroke_f	f	n/a
127.569	0.12	255138	keystroke_u	u	n/a
127.704	0.105	255408	keystroke_r	r	n/a
127.929	0.09	255858	keystroke_n	n	n/a
128.109	0.12	256218	keystroke_i	i	n/a
128.214	0.12	256428	keystroke_s	s	n/a
128.349	0.105	256698	keystroke_h	h	n/a
128.484	0.135	256968	keystroke_i	i	n/a
128.574	0.195	257148	keystroke_n	n	n/a
128.754	0.12	257508	keystroke_g	g	n/a
129.024	0.105	258048	keystroke_s	s	n/a
129.189	0.105	258378	keystroke_Key.space	Key.space	n/a
129.429	0.105	258858	keystroke_c	c	n/a
129.519	0.1505	259038	keystroke_l	l	n/a
129.6395	0.105	259279	keystroke_a	a	n/a
129.8945	0.105	259789	keystroke_y	y	n/a
130.0445	0.105	260089	keystroke_Key.space	Key.space	n/a
130.1945	0.135	260389	keystroke_s	s	n/a
130.3145	0.135	260629	keystroke_h	h	n/a
130.4195	0.12	260839	keystroke_i	i	n/a
130.6745	0.0895	261349	keystroke_p	p	n/a
130.8995	0.105	261799	keystroke_m	m	n/a
131.0045	0.105	262009	keystroke_e	e	n/a
131.1245	0.12	262249	keystroke_n	n	n/a
131.2295	0.12	262459	keystroke_t	t	n/a
131.3795	0.18	262759	keystroke_s	s	n/a
131.6645	0.03	263329	keystroke_Key.enter	Key.enter	n/a
131.6995	6.266	263399	prompt	n/a	proceed killed regardless proof\n
132.2945	0.105	264589	keystroke_p	p	n/a
132.4145	0.105	264829	keystroke_r	r	n/a
132.5045	0.135	265009	keystroke_o	o	n/a
132.6995	0.12	265399	keystroke_c	c	n/a
132.8945	0.09	265789	keystroke_e	e	n/a
133.1045	0.075	266209	keystroke_e	e	n/a
133.2845	0.105	266569	keystroke_d	d	n/a
133.4345	0.15	266869	keystroke_Key.space	Key.space	n/a
133.6295	0.12	267259	keystroke_k	k	n/a
133.8395	0.075	267679	keystroke_i	i	n/a
134.0495	0.105	268099	keystroke_l	l	n/a
134.2145	0.12	268429	keystroke_l	l	n/a
134.3195	0.09	268639	keystroke_e	e	n/a
134.5295	0.12	269059	keystroke_d	d	n/a
134.8745	0.1345	269749	keystroke_Key.space	Key.space	n/a
135.099	0.1355	270198	keystroke_r	r	n/a
135.2195	0.12	270439	keystroke_e	e	n/a
135.5495	0.015	271099	keystroke_g	g	n/a
135.6995	0.195	271399	keystroke_a	a	n/a
135.8645	0.12	271729	keystroke_r	r	n/a
136.1345	0.105	272269	keystroke_d	d	n/a
136.3295	0.135	272659	keystroke_l	l	n/a
136.4795	0.195	272959	keystroke_e	e	n/a
136.5995	0.15	273199	keystroke_s	s	n/a
136.8545	0.09	273709	keystroke_s	s	n/a
137.0045	0.075	274009	keystroke_Key.space	Key.space	n/a
137.1245	0.135	274249	keystroke_p	p	n/a
137.2745	0.105	274549	keystroke_r	r	n/a
137.3945	0.075	274789	keystroke_o	o	n/a
137.5595	0.1045	275119	keystroke_o	o	n/a
137.679	0.09	275358	keystroke_f	f	n/a
137.919	0.045	275838	keystroke_Key.enter	Key.enter	n/a
137.97	8.7855	275940	prompt	n/a	mediterranean columbia stat minute\n
138.639	0.135	277278	keystroke_m	m	n/a
138.819	0.09	277638	keystroke_e	e	n/a
139.029	0.135	278058	keystroke_d	d	n/a
139.254	0.165	278508	keystroke_i	i	n/a
139.434	0.09	278868	keystroke_t	t	n/a
139.734	0.165	279468	keystroke_e	e	n/a
139.9	0.104	279800	keystroke_r	r	n/a
140.094	0.09	280188	keystroke_r	r	n/a
140.274	0.1355	280548	keystroke_a	a	n/a
140.4245	0.105	280849	keystroke_n	n	n/a
140.6195	0.105	281239	keystroke_e	e	n/a
140.8595	0.12	281719	keystroke_a	a	n/a
140.9795	0.12	281959	keystroke_n	n	n/a
141.1445	0.135	282289	keystroke_Key.space	Key.space	n/a
141.4295	0.135	282859	keystroke_c	c	n/a
141.7445	0.105	283489	keystroke_o	o	n/a
141.9845	0.135	283969	keystroke_l	l	n/a
142.1945	0.09	284389	keystroke_u	u	n/a
142.4495	0.105	284899	keystroke_m	m	n/a
142.6295	0.09	285259	keystroke_b	b	n/a
142.8395	0.135	285679	keystroke_i	i	n/a
143.0195	0.12	286039	keystroke_a	a	n/a
143.1545	0.12	286309	keystroke_Key.space	Key.space	n/a
143.3345	0.12	286669	keystroke_s	s	n/a
143.5145	0.135	287029	keystroke_t	t	n/a
143.6645	0.165	287329	keystroke_a	a	n/a
143.9345	0.12	287869	keystroke_t	t	n/a
144.1295	0.135	288259	keystroke_Key.space	Key.space	n/a
144.3995	0.105	288799	keystroke_m	m	n/a
144.7895	0.09	289579	keystroke_i	i	n/a
145.269	0.105	290538	keystroke_u	u	n/a
145.674	0.075	291348	keystroke_Key.backspace	Key.backspace	n/a
145.929	0.135	291858	keystroke_n	n	n/a
146.154	0.105	292308	keystroke_u	u	n/a
146.244	0.0905	292488	keystroke_t	t	n/a
146.439	0.12	292878	keystroke_e	e	n/a
146.664	0.0905	293328	keystroke_Key.enter	Key.enter	n/a
146.7585	5.487	293517	prompt	n/a	falling racial team receiving\n
147.4745	0.105	294949	keystroke_f	f	n/a
147.6695	0.15	295339	keystroke_a	a	n/a
147.8345	0.105	295669	keystroke_l	l	n/a
148.0445	0.09	296089	keystroke_l	l	n/a
148.1795	0.18	296359	keystroke_i	i	n/a
148.3145	0.165	296629	keystroke_n	n	n/a
148.4495	0.105	296899	keystroke_g	g	n/a
148.5845	0.105	297169	keystroke_Key.space	Key.space	n/a
148.884	0.12	297768	keystroke_r	r	n/a
149.019	0.15	298038	keystroke_a	a	n/a
149.289	0.12	298578	keystroke_c	c	n/a
149.394	0.12	298788	keystroke_i	i	n/a
149.574	0.18	299148	keystroke_a	a	n/a
149.679	0.165	299358	keystroke_l	l	n/a
149.859	0.105	299718	keystroke_Key.space	Key.space	n/a
149.949	0.12	299898	keystroke_t	t	n/a
150.084	0.105	300168	keystroke_e	e	n/a
150.309	0.135	300618	keystroke_a	a	n/a
150.399	0.15	300798	keystroke_m	m	n/a
150.564	0.135	301128	keystroke_Key.space	Key.space	n/a
150.8045	0.12	301609	keystroke_r	r	n/a
150.8945	0.12	301789	keystroke_e	e	n/a
151.1495	0.135	302299	keystroke_c	c	n/a
151.2545	0.09	302509	keystroke_e	e	n/a
151.4045	0.135	302809	keystroke_i	i	n/a
151.5545	0.12	303109	keystroke_v	v	n/a
151.6895	0.12	303379	keystroke_i	i	n/a
151.7645	0.15	303529	keystroke_n	n	n/a
151.8995	0.12	303799	keystroke_g	g	n/a
152.1695	0.075	304339	keystroke_Key.enter	Key.enter	n/a
152.249	6.117	304498	prompt	n/a	throat construction fully spell\n
152.8745	0.105	305749	keystroke_t	t	n/a
152.9945	0.09	305989	keystroke_h	h	n/a
153.0995	0.105	306199	keystroke_r	r	n/a
153.2645	0.15	306529	keystroke_o	o	n/a
153.3995	0.135	306799	keystroke_a	a	n/a
153.7295	0.105	307459	keystroke_t	t	n/a
153.9545	0.119	307909	keystroke_Key.space	Key.space	n/a
154.1195	0.12	308239	keystroke_c	c	n/a
154.2095	0.1645	308419	keystroke_o	o	n/a
154.314	0.165	308628	keystroke_n	n	n/a
154.464	0.105	308928	keystroke_s	s	n/a
154.614	0.12	309228	keystroke_t	t	n/a
155.1695	0.075	310339	keystroke_r	r	n/a
155.3345	0.09	310669	keystroke_u	u	n/a
155.4695	0.105	310939	keystroke_c	c	n/a
155.6945	0.105	311389	keystroke_t	t	n/a
155.8445	0.15	311689	keystroke_i	i	n/a
155.9645	0.195	311929	keystroke_o	o	n/a
156.0095	0.225	312019	keystroke_n	n	n/a
156.1895	0.165	312379	keystroke_Key.space	Key.space	n/a
156.3395	0.12	312679	keystroke_f	f	n/a
156.4895	0.105	312979	keystroke_u	u	n/a
156.7145	0.105	313429	keystroke_l	l	n/a
156.9095	0.12	313819	keystroke_l	l	n/a
156.9995	0.12	313999	keystroke_y	y	n/a
157.1345	0.12	314269	keystroke_Key.space	Key.space	n/a
157.2695	0.15	314539	keystroke_s	s	n/a
157.4345	0.075	314869	keystroke_p	p	n/a
157.5545	0.105	315109	keystroke_e	e	n/a
157.8545	0.09	315709	keystroke_l	l	n/a
158.0045	0.105	316009	keystroke_l	l	n/a
158.2745	0.09	316549	keystroke_Key.enter	Key.enter	n/a
158.3705	9.8505	316741	prompt	n/a	revolutionary seriously folding proceedings\n
159.1295	0.105	318259	keystroke_r	r	n/a
159.2195	0.12	318439	keystroke_e	e	n/a
159.4745	0.105	318949	keystroke_v	v	n/a
159.5945	0.075	319189	keystroke_o	o	n/a
159.8045	0.075	319609	keystroke_l	l	n/a
159.9695	0.135	319939	keystroke_u	u	n/a
160.2845	0.09	320569	keystroke_t	t	n/a
160.4495	0.135	320899	keystroke_i	i	n/a
160.5845	0.18	321169	keystroke_o	o	n/a
160.6895	0.18	321379	keystroke_n	n	n/a
160.8545	0.18	321709	keystroke_a	a	n/a
160.9595	0.105	321919	keystroke_r	r	n/a
161.1845	0.105	322369	keystroke_y	y	n/a
161.3495	0.09	322699	keystroke_Key.space	Key.space	n/a
161.4995	0.18	322999	keystroke_s	s	n/a
161.6495	0.135	323299	keystroke_e	e	n/a
161.7395	0.105	323479	keystroke_r	r	n/a
161.9945	0.12	323989	keystroke_v	v	n/a
162.5645	0.06	325129	keystroke_Key.backspace	Key.backspace	n/a
162.849	0.135	325698	keystroke_i	i	n/a
163.014	0.151	326028	keystroke_o	o	n/a
163.119	0.121	326238	keystroke_u	u	n/a
163.24	0.134	326480	keystroke_s	s	n/a
163.389	0.121	326778	keystroke_l	l	n/a
163.554	0.12	327108	keystroke_y	y	n/a
163.675	0.134	327350	keystroke_Key.space	Key.space	n/a
163.854	0.105	327708	keystroke_f	f	n/a
163.96	0.089	327920	keystroke_o	o	n/a
164.154	0.105	328308	keystroke_l	l	n/a
164.214	0.18	328428	keystroke_d	d	n/a
164.44	0.134	328880	keystroke_i	i	n/a
164.529	0.165	329058	keystroke_n	n	n/a
164.679	0.1205	329358	keystroke_g	g	n/a
164.8145	0.105	329629	keystroke_Key.space	Key.space	n/a
164.9345	0.12	329869	keystroke_p	p	n/a
165.0695	0.09	330139	keystroke_r	r	n/a
165.1745	0.135	330349	keystroke_o	o	n/a
165.3395	0.105	330679	keystroke_c	c	n/a
165.4895	0.09	330979	keystroke_e	e	n/a
165.7145	0.06	331429	keystroke_d	d	n/a
165.8645	0.12	331729	keystroke_d	d	n/a
166.1495	0.09	332299	keystroke_i	i	n/a
166.5395	0.075	333079	keystroke_Key.backspace	Key.backspace	n/a
166.7045	0.06	333409	keystroke_Key.backspace	Key.backspace	n/a
166.8695	0.06	333739	keystroke_Key.backspace	Key.backspace	n/a
166.9895	0.075	333979	keystroke_e	e	n/a
167.1995	0.09	334399	keystroke_d	d	n/a
167.3045	0.18	334609	keystroke_i	i	n/a
167.4545	0.12	334909	keystroke_n	n	n/a
167.5595	0.105	335119	keystroke_g	g	n/a
167.8745	0.12	335749	keystroke_s	s	n/a
168.1295	0.09	336259	keystroke_Key.enter	Key.enter	n/a
168.2235	5.848	336447	prompt	n/a	believes shaped editorial manager\n
168.8945	0.1205	337789	keystroke_b	b	n/a
169.03	0.105	338060	keystroke_e	e	n/a
169.165	0.24	338330	keystroke_l	l	n/a
169.345	0.15	338690	keystroke_i	i	n/a
169.39	0.09	338780	keystroke_e	e	n/a
169.645	0.105	339290	keystroke_v	v	n/a
169.81	0.195	339620	keystroke_e	e	n/a
169.945	0.135	339890	keystroke_s	s	n/a
170.095	0.12	340190	keystroke_Key.space	Key.space	n/a
170.23	0.105	340460	keystroke_s	s	n/a
170.32	0.105	340640	keystroke_h	h	n/a
170.5	0.105	341000	keystroke_a	a	n/a
170.62	0.135	341240	keystroke_p	p	n/a
170.8	0.09	341600	keystroke_e	e	n/a
170.995	0.12	341990	keystroke_d	d	n/a
171.145	0.12	342290	keystroke_Key.space	Key.space	n/a
171.31	0.075	342620	keystroke_e	e	n/a
171.505	0.105	343010	keystroke_d	d	n/a
171.595	0.119	343190	keystroke_i	i	n/a
171.774	0.105	343548	keystroke_t	t	n/a
171.939	0.12	343878	keystroke_o	o	n/a
172.044	0.105	344088	keystroke_r	r	n/a
172.179	0.135	344358	keystroke_i	i	n/a
172.359	0.135	344718	keystroke_a	a	n/a
172.554	0.165	345108	keystroke_l	l	n/a
172.689	0.15	345378	keystroke_Key.space	Key.space	n/a
172.899	0.1655	345798	keystroke_m	m	n/a
173.019	0.135	346038	keystroke_a	a	n/a
173.169	0.12	346338	keystroke_n	n	n/a
173.274	0.09	346548	keystroke_a	a	n/a
173.499	0.09	346998	keystroke_g	g	n/a
173.634	0.196	347268	keystroke_e	e	n/a
173.769	0.135	347538	keystroke_r	r	n/a
173.979	0.09	347958	keystroke_Key.enter	Key.enter	n/a
174.074	7.917	348148	prompt	n/a	bloomberg specs deadly appreciated\n
174.744	0.076	349488	keystroke_b	b	n/a
174.955	0.1495	349910	keystroke_l	l	n/a
175.1945	0.09	350389	keystroke_o	o	n/a
175.375	0.105	350750	keystroke_o	o	n/a
175.54	0.09	351080	keystroke_m	m	n/a
175.765	0.1345	351530	keystroke_b	b	n/a
175.9145	0.18	351829	keystroke_e	e	n/a
176.0345	0.105	352069	keystroke_r	r	n/a
176.3645	0.09	352729	keystroke_g	g	n/a
176.6195	0.105	353239	keystroke_Key.space	Key.space	n/a
176.7545	0.165	353509	keystroke_s	s	n/a
176.9345	0.09	353869	keystroke_p	p	n/a
177.0395	0.075	354079	keystroke_e	e	n/a
177.2645	0.12	354529	keystroke_c	c	n/a
177.4295	0.165	354859	keystroke_s	s	n/a
177.6545	0.135	355309	keystroke_Key.space	Key.space	n/a
177.8945	0.12	355789	keystroke_d	d	n/a
178.1195	0.075	356239	keystroke_e	e	n/a
178.2695	0.165	356539	keystroke_a	a	n/a
178.4045	0.15	356809	keystroke_d	d	n/a
178.5845	0.105	357169	keystroke_l	l	n/a
178.7645	0.105	357529	keystroke_y	y	n/a
178.9895	0.12	357979	keystroke_Key.space	Key.space	n/a
179.1245	0.09	358249	keystroke_s	s	n/a
179.4395	0.075	358879	keystroke_Key.backspace	Key.backspace	n/a
179.5295	0.15	359059	keystroke_a	a	n/a
179.7245	0.09	359449	keystroke_p	p	n/a
179.9195	0.09	359839	keystroke_p	p	n/a
180.0545	0.12	360109	keystroke_r	r	n/a
180.2645	0.12	360529	keystroke_e	e	n/a
180.5645	0.12	361129	keystroke_c	c	n/a
180.6995	0.12	361399	keystroke_i	i	n/a
180.9095	0.105	361819	keystroke_a	a	n/a
181.1195	0.105	362239	keystroke_t	t	n/a
181.2095	0.135	362419	keystroke_e	e	n/a
181.4645	0.12	362929	keystroke_d	d	n/a
181.8995	0.09	363799	keystroke_Key.enter	Key.enter	n/a
181.994	6.672	363988	prompt	n/a	pumps identification across dollars\n
182.6945	0.105	365389	keystroke_p	p	n/a
182.9495	0.09	365899	keystroke_u	u	n/a
183.2495	0.105	366499	keystroke_m	m	n/a
183.5345	0.135	367069	keystroke_p	p	n/a
183.6845	0.18	367369	keystroke_s	s	n/a
183.9095	0.12	367819	keystroke_Key.space	Key.space	n/a
184.1345	0.105	368269	keystroke_i	i	n/a
184.3295	0.075	368659	keystroke_d	d	n/a
184.5245	0.105	369049	keystroke_e	e	n/a
184.6445	0.09	369289	keystroke_n	n	n/a
184.7495	0.12	369499	keystroke_t	t	n/a
184.8995	0.12	369799	keystroke_i	i	n/a
185.0495	0.09	370099	keystroke_f	f	n/a
185.1545	0.12	370309	keystroke_i	i	n/a
185.3045	0.105	370609	keystroke_c	c	n/a
185.4545	0.135	370909	keystroke_a	a	n/a
185.6645	0.135	371329	keystroke_t	t	n/a
185.7545	0.12	371509	keystroke_i	i	n/a
185.8595	0.21	371719	keystroke_o	o	n/a
185.9945	0.165	371989	keystroke_n	n	n/a
186.1295	0.135	372259	keystroke_Key.space	Key.space	n/a
186.2945	0.105	372589	keystroke_a	a	n/a
186.5495	0.09	373099	keystroke_c	c	n/a
186.7895	0.12	373579	keystroke_r	r	n/a
186.9545	0.135	373909	keystroke_o	o	n/a
187.0595	0.12	374119	keystroke_s	s	n/a
187.2695	0.105	374539	keystroke_s	s	n/a
187.4045	0.105	374809	keystroke_Key.space	Key.space	n/a
187.5245	0.135	375049	keystroke_d	d	n/a
187.6295	0.105	375259	keystroke_o	o	n/a
187.8545	0.075	375709	keystroke_l	l	n/a
188.0045	0.09	376009	keystroke_l	l	n/a
188.0795	0.135	376159	keystroke_a	a	n/a
188.1695	0.12	376339	keystroke_r	r	n/a
188.3645	0.15	376729	keystroke_s	s	n/a
188.59	0.075	377180	keystroke_Key.enter	Key.enter	n/a
188.6705	8.2005	377341	prompt	n/a	let's commitments raleigh inspections\n
189.25	0.135	378500	keystroke_l	l	n/a
189.355	0.135	378710	keystroke_e	e	n/a
189.55	0.12	379100	keystroke_t	t	n/a
189.7	0.15	379400	keystroke_'	'	n/a
189.955	0.15	379910	keystroke_s	s	n/a
190.285	0.135	380570	keystroke_Key.space	Key.space	n/a
190.54	0.15	381080	keystroke_c	c	n/a
190.615	0.15	381230	keystroke_o	o	n/a
190.735	0.12	381470	keystroke_m	m	n/a
190.945	0.09	381890	keystroke_m	m	n/a
191.125	0.105	382250	keystroke_i	i	n/a
191.32	0.12	382640	keystroke_t	t	n/a
191.575	0.105	383150	keystroke_m	m	n/a
191.695	0.12	383390	keystroke_e	e	n/a
191.83	0.12	383660	keystroke_n	n	n/a
191.935	0.12	383870	keystroke_t	t	n/a
192.145	0.165	384290	keystroke_s	s	n/a
192.325	0.135	384650	keystroke_Key.space	Key.space	n/a
192.49	0.135	384980	keystroke_r	r	n/a
192.595	0.165	385190	keystroke_e	e	n/a
193.255	0.075	386510	keystroke_Key.backspace	Key.backspace	n/a
193.405	0.135	386810	keystroke_a	a	n/a
193.57	0.135	387140	keystroke_l	l	n/a
193.9745	0.1195	387949	keystroke_e	e	n/a
194.154	0.105	388308	keystroke_i	i	n/a
194.274	0.135	388548	keystroke_g	g	n/a
194.424	0.09	388848	keystroke_h	h	n/a
194.784	0.105	389568	keystroke_Key.space	Key.space	n/a
194.979	0.151	389958	keystroke_i	i	n/a
195.099	0.1205	390198	keystroke_n	n	n/a
195.2205	0.149	390441	keystroke_s	s	n/a
195.415	0.12	390830	keystroke_p	p	n/a
195.595	0.105	391190	keystroke_e	e	n/a
195.835	0.135	391670	keystroke_c	c	n/a
196.0895	0.105	392179	keystroke_t	t	n/a
196.1645	0.15	392329	keystroke_i	i	n/a
196.2995	0.165	392599	keystroke_o	o	n/a
196.4045	0.135	392809	keystroke_n	n	n/a
196.5095	0.15	393019	keystroke_s	s	n/a
196.7645	0.105	393529	keystroke_Key.enter	Key.enter	n/a
196.874	7.017	393748	prompt	n/a	action partners someone's hamilton\n
197.4845	0.1345	394969	keystroke_a	a	n/a
197.725	0.1045	395450	keystroke_c	c	n/a
197.979	0.1205	395958	keystroke_t	t	n/a
198.1145	0.15	396229	keystroke_i	i	n/a
198.1895	0.195	396379	keystroke_o	o	n/a
198.3095	0.165	396619	keystroke_n	n	n/a
198.4595	0.12	396919	keystroke_Key.space	Key.space	n/a
198.6095	0.15	397219	keystroke_p	p	n/a
198.7295	0.165	397459	keystroke_a	a	n/a
198.8495	0.09	397699	keystroke_r	r	n/a
199.18	0.105	398360	keystroke_t	t	n/a
199.525	0.105	399050	keystroke_n	n	n/a
199.6	0.105	399200	keystroke_e	e	n/a
199.885	0.105	399770	keystroke_r	r	n/a
200.1095	0.12	400219	keystroke_s	s	n/a
200.2445	0.12	400489	keystroke_Key.space	Key.space	n/a
200.4095	0.15	400819	keystroke_s	s	n/a
200.4995	0.165	400999	keystroke_o	o	n/a
200.5895	0.195	401179	keystroke_m	m	n/a
200.7995	0.135	401599	keystroke_e	e	n/a
201.0545	0.165	402109	keystroke_o	o	n/a
201.1895	0.12	402379	keystroke_n	n	n/a
201.3995	0.12	402799	keystroke_e	e	n/a
201.5645	0.12	403129	keystroke_'	'	n/a
201.9095	0.105	403819	keystroke_s	s	n/a
202.209	0.105	404418	keystroke_Key.space	Key.space	n/a
202.434	0.09	404868	keystroke_h	h	n/a
202.569	0.121	405138	keystroke_a	a	n/a
202.735	0.1045	405470	keystroke_m	m	n/a
202.975	0.0895	405950	keystroke_i	i	n/a
203.1545	0.12	406309	keystroke_l	l	n/a
203.2755	0.104	406551	keystroke_t	t	n/a
203.4095	0.15	406819	keystroke_o	o	n/a
203.4995	0.12	406999	keystroke_n	n	n/a
203.7995	0.09	407599	keystroke_Key.enter	Key.enter	n/a
203.894	6.207	407788	prompt	n/a	formatting plate lows requiring\n
204.4445	0.12	408889	keystroke_f	f	n/a
204.7445	0.09	409489	keystroke_o	o	n/a
204.8495	0.105	409699	keystroke_r	r	n/a
205.0145	0.12	410029	keystroke_m	m	n/a
205.1195	0.135	410239	keystroke_a	a	n/a
205.3295	0.09	410659	keystroke_t	t	n/a
205.4945	0.09	410989	keystroke_t	t	n/a
205.6295	0.165	411259	keystroke_i	i	n/a
205.7345	0.165	411469	keystroke_n	n	n/a
205.8545	0.135	411709	keystroke_g	g	n/a
206.0045	0.12	412009	keystroke_Key.space	Key.space	n/a
206.1095	0.09	412219	keystroke_p	p	n/a
206.3195	0.12	412639	keystroke_l	l	n/a
206.3945	0.105	412789	keystroke_a	a	n/a
206.5745	0.12	413149	keystroke_t	t	n/a
206.7095	0.135	413419	keystroke_e	e	n/a
206.8455	0.104	413691	keystroke_Key.space	Key.space	n/a
206.9645	0.18	413929	keystroke_l	l	n/a
207.1145	0.165	414229	keystroke_o	o	n/a
207.2495	0.105	414499	keystroke_w	w	n/a
207.5345	0.09	415069	keystroke_s	s	n/a
207.8795	0.12	415759	keystroke_Key.space	Key.space	n/a
208.1795	0.135	416359	keystroke_r	r	n/a
208.2545	0.12	416509	keystroke_e	e	n/a
208.5245	0.105	417049	keystroke_q	q	n/a
208.6895	0.1205	417379	keystroke_u	u	n/a
208.7795	0.1355	417559	keystroke_i	i	n/a
208.899	0.105	417798	keystroke_r	r	n/a
209.035	0.239	418070	keystroke_i	i	n/a
209.29	0.179	418580	keystroke_n	n	n/a
209.725	0.105	419450	keystroke_g	g	n/a
209.994	0.105	419988	keystroke_Key.enter	Key.enter	n/a
210.1055	7.1505	420211	prompt	n/a	establish nuke headphones saves\n
210.715	0.075	421430	keystroke_e	e	n/a
210.91	0.105	421820	keystroke_s	s	n/a
211.089	0.121	422178	keystroke_t	t	n/a
211.27	0.15	422540	keystroke_a	a	n/a
211.359	0.105	422718	keystroke_b	b	n/a
211.585	0.149	423170	keystroke_l	l	n/a
211.719	0.06	423438	keystroke_e	e	n/a
212.124	0.06	424248	keystroke_Key.backspace	Key.backspace	n/a
212.365	0.119	424730	keystroke_i	i	n/a
212.499	0.136	424998	keystroke_s	s	n/a
212.65	0.134	425300	keystroke_h	h	n/a
212.904	0.12	425808	keystroke_Key.space	Key.space	n/a
213.174	0.18	426348	keystroke_n	n	n/a
213.369	0.106	426738	keystroke_u	u	n/a
213.624	0.165	427248	keystroke_k	k	n/a
213.805	0.09	427610	keystroke_e	e	n/a
213.955	0.104	427910	keystroke_Key.space	Key.space	n/a
214.1945	0.105	428389	keystroke_h	h	n/a
214.2845	0.09	428569	keystroke_a	a	n/a
214.6595	0.09	429319	keystroke_Key.backspace	Key.backspace	n/a
214.7195	0.09	429439	keystroke_e	e	n/a
214.9295	0.165	429859	keystroke_a	a	n/a
215.0195	0.151	430039	keystroke_d	d	n/a
215.2145	0.075	430429	keystroke_p	p	n/a
215.4245	0.1205	430849	keystroke_h	h	n/a
215.515	0.195	431030	keystroke_o	o	n/a
215.695	0.15	431390	keystroke_n	n	n/a
215.8	0.195	431600	keystroke_e	e	n/a
215.98	0.12	431960	keystroke_s	s	n/a
216.205	0.105	432410	keystroke_Key.space	Key.space	n/a
216.295	0.075	432590	keystroke_s	s	n/a
216.475	0.075	432950	keystroke_a	a	n/a
216.67	0.105	433340	keystroke_v	v	n/a
216.805	0.18	433610	keystroke_e	e	n/a
216.97	0.105	433940	keystroke_s	s	n/a
217.165	0.09	434330	keystroke_Key.enter	Key.enter	n/a
217.26	7.316	434520	prompt	n/a	freely bathroom characteristics hughes\n
217.87	0.105	435740	keystroke_f	f	n/a
218.11	0.105	436220	keystroke_r	r	n/a
218.2	0.105	436400	keystroke_e	e	n/a
218.41	0.105	436820	keystroke_e	e	n/a
218.515	0.165	437030	keystroke_l	l	n/a
218.695	0.105	437390	keystroke_y	y	n/a
218.89	0.135	437780	keystroke_Key.space	Key.space	n/a
219.16	0.12	438320	keystroke_b	b	n/a
219.25	0.105	438500	keystroke_a	a	n/a
219.475	0.105	438950	keystroke_t	t	n/a
219.595	0.135	439190	keystroke_h	h	n/a
219.82	0.12	439640	keystroke_r	r	n/a
219.97	0.075	439940	keystroke_o	o	n/a
220.15	0.12	440300	keystroke_o	o	n/a
220.24	0.195	440480	keystroke_m	m	n/a
220.42	0.105	440840	keystroke_Key.space	Key.space	n/a
220.57	0.135	441140	keystroke_c	c	n/a
220.675	0.15	441350	keystroke_h	h	n/a
220.84	0.15	441680	keystroke_a	a	n/a
220.96	0.15	441920	keystroke_r	r	n/a
221.14	0.12	442280	keystroke_a	a	n/a
221.41	0.105	442820	keystroke_c	c	n/a
221.68	0.09	443360	keystroke_t	t	n/a
221.89	0.15	443780	keystroke_e	e	n/a
221.98	0.105	443960	keystroke_r	r	n/a
222.115	0.1345	444230	keystroke_i	i	n/a
222.2505	0.134	444501	keystroke_s	s	n/a
222.4445	0.105	444889	keystroke_t	t	n/a
222.5645	0.12	445129	keystroke_i	i	n/a
222.7145	0.1355	445429	keystroke_c	c	n/a
222.94	0.1195	445880	keystroke_s	s	n/a
223.0745	0.12	446149	keystroke_Key.space	Key.space	n/a
223.2395	0.165	446479	keystroke_h	h	n/a
223.4495	0.1355	446899	keystroke_u	u	n/a
223.645	0.135	447290	keystroke_g	g	n/a
223.8695	0.135	447739	keystroke_h	h	n/a
224.0955	0.209	448191	keystroke_e	e	n/a
224.2445	0.136	448489	keystroke_s	s	n/a
224.4995	0.075	448999	keystroke_Key.enter	Key.enter	n/a
224.579	7.782	449158	prompt	n/a	tremendous alliance superb wicked\n
225.2045	0.09	450409	keystroke_t	t	n/a
225.4145	0.105	450829	keystroke_r	r	n/a
225.6395	0.12	451279	keystroke_e	e	n/a
225.8195	0.12	451639	keystroke_m	m	n/a
226.015	0.12	452030	keystroke_e	e	n/a
226.345	0.03	452690	keystroke_n	n	n/a
226.555	0.105	453110	keystroke_d	d	n/a
226.735	0.135	453470	keystroke_o	o	n/a
226.945	0.12	453890	keystroke_u	u	n/a
227.125	0.12	454250	keystroke_s	s	n/a
227.26	0.09	454520	keystroke_Key.space	Key.space	n/a
227.395	0.15	454790	keystroke_a	a	n/a
227.53	0.12	455060	keystroke_l	l	n/a
227.755	0.12	455510	keystroke_l	l	n/a
227.83	0.135	455660	keystroke_i	i	n/a
227.995	0.15	455990	keystroke_a	a	n/a
228.159	0.151	456318	keystroke_n	n	n/a
228.294	0.151	456588	keystroke_c	c	n/a
228.4755	0.104	456951	keystroke_e	e	n/a
228.6095	0.12	457219	keystroke_Key.space	Key.space	n/a
228.7445	0.12	457489	keystroke_s	s	n/a
228.9245	0.105	457849	keystroke_u	u	n/a
229.7345	0.09	459469	keystroke_p	p	n/a
229.9295	0.18	459859	keystroke_e	e	n/a
230.0345	0.12	460069	keystroke_r	r	n/a
230.2595	0.12	460519	keystroke_b	b	n/a
230.5145	0.12	461029	keystroke_Key.space	Key.space	n/a
230.7095	0.135	461419	keystroke_w	w	n/a
230.8145	0.12	461629	keystroke_i	i	n/a
231.0545	0.105	462109	keystroke_c	c	n/a
231.7295	0.135	463459	keystroke_k	k	n/a
231.8345	0.09	463669	keystroke_e	e	n/a
232.045	0.105	464090	keystroke_d	d	n/a
232.285	0.075	464570	keystroke_Key.enter	Key.enter	n/a
232.364	6.702	464728	prompt	n/a	informal softball england gamespot\n
232.885	0.105	465770	keystroke_t	t	n/a
233.3195	0.075	466639	keystroke_Key.backspace	Key.backspace	n/a
233.5745	0.15	467149	keystroke_i	i	n/a
233.7095	0.165	467419	keystroke_n	n	n/a
233.8595	0.105	467719	keystroke_f	f	n/a
233.9655	0.089	467931	keystroke_o	o	n/a
234.0845	0.12	468169	keystroke_r	r	n/a
234.1895	0.105	468379	keystroke_m	m	n/a
234.3395	0.1505	468679	keystroke_a	a	n/a
234.46	0.1645	468920	keystroke_l	l	n/a
234.6395	0.1355	469279	keystroke_Key.space	Key.space	n/a
234.7595	0.1205	469519	keystroke_s	s	n/a
234.895	0.12	469790	keystroke_o	o	n/a
235.09	0.12	470180	keystroke_f	f	n/a
235.345	0.075	470690	keystroke_t	t	n/a
235.5695	0.105	471139	keystroke_b	b	n/a
235.7045	0.165	471409	keystroke_a	a	n/a
235.8545	0.105	471709	keystroke_l	l	n/a
236.0495	0.135	472099	keystroke_l	l	n/a
236.1995	0.135	472399	keystroke_Key.space	Key.space	n/a
236.3945	0.105	472789	keystroke_e	e	n/a
236.4845	0.135	472969	keystroke_n	n	n/a
236.6345	0.105	473269	keystroke_g	g	n/a
236.7545	0.135	473509	keystroke_l	l	n/a
237.0095	0.105	474019	keystroke_a	a	n/a
237.1295	0.12	474259	keystroke_n	n	n/a
237.2645	0.12	474529	keystroke_d	d	n/a
237.3995	0.12	474799	keystroke_Key.space	Key.space	n/a
237.5795	0.105	475159	keystroke_g	g	n/a
237.7895	0.12	475579	keystroke_a	a	n/a
237.8945	0.135	475789	keystroke_m	m	n/a
238.0595	0.21	476119	keystroke_e	e	n/a
238.2095	0.135	476419	keystroke_s	s	n/a
238.3595	0.135	476719	keystroke_p	p	n/a
238.5095	0.12	477019	keystroke_o	o	n/a
238.6895	0.12	477379	keystroke_t	t	n/a
238.9895	0.075	477979	keystroke_Key.enter	Key.enter	n/a
239.069	6.567	478138	prompt	n/a	toolkit reproduce laid environment\n
239.7095	0.105	479419	keystroke_t	t	n/a
239.9045	0.09	479809	keystroke_o	o	n/a
240.0995	0.03	480199	keystroke_o	o	n/a
240.2645	0.09	480529	keystroke_l	l	n/a
240.4295	0.12	480859	keystroke_k	k	n/a
240.6545	0.105	481309	keystroke_i	i	n/a
240.8045	0.105	481609	keystroke_t	t	n/a
241.0145	0.105	482029	keystroke_Key.space	Key.space	n/a
241.2095	0.135	482419	keystroke_r	r	n/a
241.3595	0.105	482719	keystroke_e	e	n/a
241.5095	0.105	483019	keystroke_p	p	n/a
241.6295	0.135	483259	keystroke_r	r	n/a
241.7495	0.12	483499	keystroke_o	o	n/a
241.8995	0.12	483799	keystroke_d	d	n/a
242.0795	0.09	484159	keystroke_u	u	n/a
242.1395	0.12	484279	keystroke_c	c	n/a
242.4995	0.135	484999	keystroke_e	e	n/a
242.7095	0.105	485419	keystroke_Key.space	Key.space	n/a
242.9345	0.18	485869	keystroke_l	l	n/a
243.0995	0.105	486199	keystroke_a	a	n/a
243.2495	0.135	486499	keystroke_i	i	n/a
243.3545	0.135	486709	keystroke_d	d	n/a
243.5345	0.12	487069	keystroke_Key.space	Key.space	n/a
243.7445	0.105	487489	keystroke_e	e	n/a
243.8645	0.1205	487729	keystroke_n	n	n/a
244.105	0.105	488210	keystroke_v	v	n/a
244.24	0.105	488480	keystroke_i	i	n/a
244.39	0.12	488780	keystroke_r	r	n/a
244.511	0.089	489022	keystroke_o	o	n/a
244.705	0.12	489410	keystroke_n	n	n/a
244.9	0.12	489800	keystroke_m	m	n/a
245.02	0.12	490040	keystroke_e	e	n/a
245.155	0.12	490310	keystroke_n	n	n/a
245.276	0.119	490552	keystroke_t	t	n/a
245.545	0.09	491090	keystroke_Key.enter	Key.enter	n/a
245.6395	6.087	491279	prompt	n/a	finished rebound totals phoenix\n
246.295	0.105	492590	keystroke_f	f	n/a
246.34	0.18	492680	keystroke_i	i	n/a
246.49	0.165	492980	keystroke_n	n	n/a
246.625	0.12	493250	keystroke_i	i	n/a
246.775	0.165	493550	keystroke_s	s	n/a
246.91	0.105	493820	keystroke_h	h	n/a
247.075	0.105	494150	keystroke_e	e	n/a
247.255	0.135	494510	keystroke_d	d	n/a
247.405	0.105	494810	keystroke_Key.space	Key.space	n/a
247.555	0.105	495110	keystroke_r	r	n/a
247.765	0.105	495530	keystroke_e	e	n/a
247.915	0.12	495830	keystroke_b	b	n/a
248.065	0.12	496130	keystroke_o	o	n/a
248.125	0.21	496250	keystroke_u	u	n/a
248.29	0.195	496580	keystroke_n	n	n/a
248.47	0.135	496940	keystroke_d	d	n/a
248.65	0.135	497300	keystroke_Key.space	Key.space	n/a
248.875	0.105	497750	keystroke_t	t	n/a
248.995	0.105	497990	keystroke_o	o	n/a
249.115	0.09	498230	keystroke_t	t	n/a
249.265	0.165	498530	keystroke_a	a	n/a
249.3995	0.1205	498799	keystroke_l	l	n/a
249.58	0.135	499160	keystroke_s	s	n/a
249.73	0.09	499460	keystroke_Key.space	Key.space	n/a
249.865	0.12	499730	keystroke_p	p	n/a
250.06	0.12	500120	keystroke_h	h	n/a
250.645	0.105	501290	keystroke_o	o	n/a
250.7955	0.12	501591	keystroke_e	e	n/a
251.0205	0.105	502041	keystroke_n	n	n/a
251.275	0.105	502550	keystroke_i	i	n/a
251.395	0.135	502790	keystroke_x	x	n/a
251.6355	0.09	503271	keystroke_Key.enter	Key.enter	n/a
251.7295	6.267	503459	prompt	n/a	sierra sail alloy undefined\n
252.34	0.12	504680	keystroke_s	s	n/a
252.595	0.12	505190	keystroke_i	i	n/a
252.76	0.12	505520	keystroke_r	r	n/a
253.18	0.075	506360	keystroke_Key.backspace	Key.backspace	n/a
253.27	0.105	506540	keystroke_e	e	n/a
253.465	0.09	506930	keystroke_r	r	n/a
253.645	0.06	507290	keystroke_r	r	n/a
253.825	0.12	507650	keystroke_a	a	n/a
253.946	0.134	507892	keystroke_Key.space	Key.space	n/a
254.23	0.105	508460	keystroke_s	s	n/a
254.425	0.12	508850	keystroke_a	a	n/a
254.545	0.15	509090	keystroke_i	i	n/a
254.635	0.195	509270	keystroke_l	l	n/a
254.86	0.135	509720	keystroke_Key.space	Key.space	n/a
255.235	0.12	510470	keystroke_a	a	n/a
255.34	0.09	510680	keystroke_l	l	n/a
255.505	0.12	511010	keystroke_l	l	n/a
255.64	0.135	511280	keystroke_o	o	n/a
255.76	0.1045	511520	keystroke_y	y	n/a
255.9545	0.12	511909	keystroke_Key.space	Key.space	n/a
256.2845	0.105	512569	keystroke_u	u	n/a
256.4345	0.135	512869	keystroke_n	n	n/a
256.6295	0.12	513259	keystroke_d	d	n/a
256.8545	0.09	513709	keystroke_e	e	n/a
257.0195	0.15	514039	keystroke_f	f	n/a
257.1545	0.18	514309	keystroke_i	i	n/a
257.3495	0.12	514699	keystroke_n	n	n/a
257.4545	0.105	514909	keystroke_e	e	n/a
257.6645	0.105	515329	keystroke_d	d	n/a
257.8895	0.105	515779	keystroke_Key.enter	Key.enter	n/a
257.9995	8.352	515999	prompt	n/a	accessible recording murder invitation\n
258.6695	0.12	517339	keystroke_a	a	n/a
258.9095	0.075	517819	keystroke_c	c	n/a
259.1795	0.015	518359	keystroke_c	c	n/a
259.2395	0.105	518479	keystroke_e	e	n/a
259.3895	0.105	518779	keystroke_s	s	n/a
259.5695	0.12	519139	keystroke_s	s	n/a
259.6745	0.075	519349	keystroke_i	i	n/a
259.8695	0.105	519739	keystroke_b	b	n/a
260.0655	0.059	520131	keystroke_e	e	n/a
260.1255	0.149	520251	keystroke_l	l	n/a
260.59	0.0895	521180	keystroke_Key.backspace	Key.backspace	n/a
260.7545	0.06	521509	keystroke_Key.backspace	Key.backspace	n/a
260.9945	0.165	521989	keystroke_l	l	n/a
261.1445	0.12	522289	keystroke_e	e	n/a
261.2495	0.15	522499	keystroke_Key.space	Key.space	n/a
261.4445	0.135	522889	keystroke_r	r	n/a
261.5945	0.1055	523189	keystroke_e	e	n/a
261.835	0.12	523670	keystroke_c	c	n/a
261.94	0.105	523880	keystroke_o	o	n/a
262.06	0.105	524120	keystroke_r	r	n/a
262.27	0.165	524540	keystroke_d	d	n/a
262.42	0.12	524840	keystroke_i	i	n/a
262.525	0.165	525050	keystroke_n	n	n/a
262.66	0.135	525320	keystroke_g	g	n/a
262.81	0.105	525620	keystroke_Key.space	Key.space	n/a
263.065	0.105	526130	keystroke_m	m	n/a
263.38	0.105	526760	keystroke_u	u	n/a
263.53	0.105	527060	keystroke_r	r	n/a
263.815	0.09	527630	keystroke_d	d	n/a
264.025	0.15	528050	keystroke_e	e	n/a
264.115	0.165	528230	keystroke_r	r	n/a
264.265	0.12	528530	keystroke_Key.space	Key.space	n/a
264.415	0.135	528830	keystroke_i	i	n/a
264.535	0.12	529070	keystroke_n	n	n/a
264.715	0.12	529430	keystroke_v	v	n/a
264.85	0.12	529700	keystroke_i	i	n/a
264.985	0.09	529970	keystroke_t	t	n/a
265.18	0.135	530360	keystroke_a	a	n/a
265.54	0.09	531080	keystroke_t	t	n/a
265.69	0.1645	531380	keystroke_i	i	n/a
265.8395	0.18	531679	keystroke_o	o	n/a
265.9595	0.106	531919	keystroke_n	n	n/a
266.2745	0.075	532549	keystroke_Key.enter	Key.enter	n/a
266.3555	6.476	532711	prompt	n/a	locked opinions scoop internet\n
266.9495	0.15	533899	keystroke_l	l	n/a
267.115	0.0895	534230	keystroke_o	o	n/a
267.2645	0.12	534529	keystroke_c	c	n/a
267.3395	0.135	534679	keystroke_k	k	n/a
267.49	0.0895	534980	keystroke_e	e	n/a
267.685	0.1045	535370	keystroke_d	d	n/a
267.7745	0.15	535549	keystroke_Key.space	Key.space	n/a
267.9395	0.21	535879	keystroke_o	o	n/a
268.3745	0.06	536749	keystroke_n	n	n/a
268.6905	0.075	537381	keystroke_Key.backspace	Key.backspace	n/a
268.945	0.12	537890	keystroke_p	p	n/a
269.395	0.12	538790	keystroke_i	i	n/a
269.5755	0.1495	539151	keystroke_n	n	n/a
269.77	0.1505	539540	keystroke_i	i	n/a
269.8905	0.165	539781	keystroke_o	o	n/a
269.9805	0.18	539961	keystroke_n	n	n/a
270.1905	0.105	540381	keystroke_s	s	n/a
270.3555	0.12	540711	keystroke_Key.space	Key.space	n/a
270.5205	0.12	541041	keystroke_s	s	n/a
270.7455	0.135	541491	keystroke_c	c	n/a
270.9555	0.06	541911	keystroke_o	o	n/a
271.1205	0.06	542241	keystroke_o	o	n/a
271.2105	0.165	542421	keystroke_p	p	n/a
271.3905	0.12	542781	keystroke_Key.space	Key.space	n/a
271.5555	0.165	543111	keystroke_i	i	n/a
271.7055	0.135	543411	keystroke_n	n	n/a
271.7805	0.119	543561	keystroke_t	t	n/a
271.9455	0.179	543891	keystroke_e	e	n/a
272.0655	0.134	544131	keystroke_r	r	n/a
272.2305	0.105	544461	keystroke_n	n	n/a
272.3055	0.105	544611	keystroke_e	e	n/a
272.4855	0.105	544971	keystroke_t	t	n/a
272.7395	0.09	545479	keystroke_Key.enter	Key.enter	n/a
272.834	6.4775	545668	prompt	n/a	tiny simple deployment laser\n
273.4605	0.104	546921	keystroke_t	t	n/a
273.6105	0.135	547221	keystroke_i	i	n/a
273.6695	0.195	547339	keystroke_n	n	n/a
273.8955	0.104	547791	keystroke_y	y	n/a
274.1955	0.119	548391	keystroke_Key.space	Key.space	n/a
274.3905	0.12	548781	keystroke_s	s	n/a
274.5405	0.149	549081	keystroke_i	i	n/a
274.6755	0.135	549351	keystroke_m	m	n/a
274.8395	0.075	549679	keystroke_p	p	n/a
275.0505	0.119	550101	keystroke_l	l	n/a
275.1705	0.074	550341	keystroke_e	e	n/a
275.3345	0.12	550669	keystroke_Key.space	Key.space	n/a
275.4395	0.106	550879	keystroke_d	d	n/a
275.65	0.1045	551300	keystroke_e	e	n/a
276.0095	0.105	552019	keystroke_p	p	n/a
276.4605	0.104	552921	keystroke_l	l	n/a
276.7145	0.0905	553429	keystroke_o	o	n/a
277.03	0.12	554060	keystroke_y	y	n/a
277.3	0.12	554600	keystroke_m	m	n/a
277.45	0.105	554900	keystroke_e	e	n/a
277.54	0.15	555080	keystroke_n	n	n/a
277.675	0.105	555350	keystroke_t	t	n/a
277.81	0.105	555620	keystroke_Key.space	Key.space	n/a
277.975	0.15	555950	keystroke_l	l	n/a
278.08	0.105	556160	keystroke_a	a	n/a
278.275	0.0905	556550	keystroke_s	s	n/a
278.47	0.12	556940	keystroke_t	t	n/a
278.8305	0.105	557661	keystroke_Key.backspace	Key.backspace	n/a
278.9055	0.15	557811	keystroke_e	e	n/a
279.0105	0.135	558021	keystroke_r	r	n/a
279.2205	0.09	558441	keystroke_Key.enter	Key.enter	n/a
279.32	5.7515	558640	prompt	n/a	wide switching contests reserved\n
279.8955	0.09	559791	keystroke_w	w	n/a
280.0005	0.15	560001	keystroke_i	i	n/a
280.1655	0.09	560331	keystroke_d	d	n/a
280.3605	0.09	560721	keystroke_e	e	n/a
280.4805	0.12	560961	keystroke_Key.space	Key.space	n/a
280.6155	0.135	561231	keystroke_s	s	n/a
280.8705	0.09	561741	keystroke_w	w	n/a
280.9605	0.12	561921	keystroke_i	i	n/a
281.1105	0.12	562221	keystroke_t	t	n/a
281.4105	0.12	562821	keystroke_c	c	n/a
281.4855	0.12	562971	keystroke_h	h	n/a
281.6205	0.135	563241	keystroke_i	i	n/a
281.7405	0.15	563481	keystroke_n	n	n/a
281.8455	0.105	563691	keystroke_g	g	n/a
281.9655	0.12	563931	keystroke_Key.space	Key.space	n/a
282.1305	0.15	564261	keystroke_c	c	n/a
282.2655	0.09	564531	keystroke_o	o	n/a
282.2955	0.18	564591	keystroke_n	n	n/a
282.4605	0.105	564921	keystroke_t	t	n/a
282.6405	0.06	565281	keystroke_e	e	n/a
282.8955	0.12	565791	keystroke_s	s	n/a
283.0905	0.12	566181	keystroke_t	t	n/a
283.2555	0.15	566511	keystroke_s	s	n/a
283.4355	0.164	566871	keystroke_Key.space	Key.space	n/a
283.6295	0.12	567259	keystroke_r	r	n/a
283.7195	0.135	567439	keystroke_e	e	n/a
283.8695	0.21	567739	keystroke_s	s	n/a
284.0045	0.21	568009	keystroke_e	e	n/a
284.1095	0.121	568219	keystroke_r	r	n/a
284.3655	0.089	568731	keystroke_v	v	n/a
284.5595	0.075	569119	keystroke_e	e	n/a
284.7545	0.09	569509	keystroke_d	d	n/a
284.9795	0.09	569959	keystroke_Key.enter	Key.enter	n/a
285.077	5.8895	570154	prompt	n/a	taste riding concern harrison\n
285.6395	0.106	571279	keystroke_t	t	n/a
285.8045	0.15	571609	keystroke_a	a	n/a
286.0595	0.09	572119	keystroke_s	s	n/a
286.1945	0.12	572389	keystroke_t	t	n/a
286.3595	0.15	572719	keystroke_e	e	n/a
286.5395	0.12	573079	keystroke_Key.space	Key.space	n/a
286.6745	0.105	573349	keystroke_r	r	n/a
286.8095	0.135	573619	keystroke_i	i	n/a
286.9895	0.15	573979	keystroke_d	d	n/a
287.0945	0.15	574189	keystroke_i	i	n/a
287.2295	0.18	574459	keystroke_n	n	n/a
287.3495	0.12	574699	keystroke_g	g	n/a
287.4845	0.12	574969	keystroke_Key.space	Key.space	n/a
287.6645	0.06	575329	keystroke_c	c	n/a
288.3095	0.135	576619	keystroke_o	o	n/a
288.4745	0.15	576949	keystroke_n	n	n/a
288.7745	0.105	577549	keystroke_c	c	n/a
288.9995	0.165	577999	keystroke_e	e	n/a
289.1045	0.135	578209	keystroke_r	r	n/a
289.2695	0.135	578539	keystroke_n	n	n/a
289.4495	0.09	578899	keystroke_Key.space	Key.space	n/a
289.5995	0.135	579199	keystroke_h	h	n/a
289.7195	0.18	579439	keystroke_a	a	n/a
289.8695	0.075	579739	keystroke_r	r	n/a
290.0195	0.105	580039	keystroke_r	r	n/a
290.1545	0.12	580309	keystroke_i	i	n/a
290.3045	0.15	580609	keystroke_s	s	n/a
290.4555	0.1495	580911	keystroke_o	o	n/a
290.5745	0.075	581149	keystroke_n	n	n/a
290.8895	0.075	581779	keystroke_Key.enter	Key.enter	n/a
290.974	13.7475	581948	prompt	n/a	consisting conversion refers criterion\n
291.6845	0.15	583369	keystroke_c	c	n/a
291.8045	0.165	583609	keystroke_o	o	n/a
291.9095	0.105	583819	keystroke_n	n	n/a
292.0445	0.12	584089	keystroke_s	s	n/a
292.1795	0.1355	584359	keystroke_i	i	n/a
292.285	0.1045	584570	keystroke_s	s	n/a
292.4795	0.12	584959	keystroke_t	t	n/a
292.675	0.135	585350	keystroke_i	i	n/a
292.7795	0.1655	585559	keystroke_n	n	n/a
292.975	0.12	585950	keystroke_g	g	n/a
293.155	0.12	586310	keystroke_Key.space	Key.space	n/a
293.395	0.135	586790	keystroke_c	c	n/a
293.515	0.165	587030	keystroke_o	o	n/a
293.605	0.165	587210	keystroke_n	n	n/a
293.8	0.18	587600	keystroke_s	s	n/a
293.935	0.105	587870	keystroke_e	e	n/a
294.265	0.105	588530	keystroke_Key.backspace	Key.backspace	n/a
294.4	0.105	588800	keystroke_v	v	n/a
294.64	0.09	589280	keystroke_Key.backspace	Key.backspace	n/a
294.805	0.09	589610	keystroke_Key.backspace	Key.backspace	n/a
294.91	0.12	589820	keystroke_v	v	n/a
295.135	0.135	590270	keystroke_e	e	n/a
295.21	0.135	590420	keystroke_r	r	n/a
295.48	0.135	590960	keystroke_s	s	n/a
296.005	0.075	592010	keystroke_i	i	n/a
296.335	0.105	592670	keystroke_Key.backspace	Key.backspace	n/a
296.62	0.15	593240	keystroke_i	i	n/a
296.8	0.18	593600	keystroke_o	o	n/a
296.935	0.18	593870	keystroke_n	n	n/a
297.16	0.165	594320	keystroke_Key.space	Key.space	n/a
297.58	0.12	595160	keystroke_r	r	n/a
297.701	0.104	595402	keystroke_e	e	n/a
297.835	0.12	595670	keystroke_f	f	n/a
297.97	0.135	595940	keystroke_e	e	n/a
298.106	0.119	596212	keystroke_r	r	n/a
298.24	0.12	596480	keystroke_e	e	n/a
298.4795	0.1355	596959	keystroke_s	s	n/a
298.72	0.12	597440	keystroke_Key.space	Key.space	n/a
299.215	0.105	598430	keystroke_c	c	n/a
299.515	0.105	599030	keystroke_r	r	n/a
300.3705	0.075	600741	keystroke_Key.backspace	Key.backspace	n/a
300.5355	0.09	601071	keystroke_Key.backspace	Key.backspace	n/a
300.7005	0.09	601401	keystroke_Key.backspace	Key.backspace	n/a
300.8805	0.135	601761	keystroke_Key.backspace	Key.backspace	n/a
301.3455	0.09	602691	keystroke_Key.backspace	Key.backspace	n/a
301.6305	0.135	603261	keystroke_s	s	n/a
301.9905	0.12	603981	keystroke_Key.space	Key.space	n/a
302.2305	0.12	604461	keystroke_c	c	n/a
302.3805	0.075	604761	keystroke_i	i	n/a
302.7405	0.06	605481	keystroke_Key.backspace	Key.backspace	n/a
302.8755	0.09	605751	keystroke_r	r	n/a
303.0855	0.105	606171	keystroke_i	i	n/a
303.2355	0.105	606471	keystroke_t	t	n/a
303.7005	0.165	607401	keystroke_e	e	n/a
303.8205	0.135	607641	keystroke_r	r	n/a
304.0145	0.135	608029	keystroke_i	i	n/a
304.2095	0.18	608419	keystroke_o	o	n/a
304.3745	0.09	608749	keystroke_n	n	n/a
304.6445	0.075	609289	keystroke_Key.enter	Key.enter	n/a
304.7245	5.472	609449	prompt	n/a	pontiac abraham back trim\n
305.4105	0.195	610821	keystroke_p	p	n/a
305.5905	0.09	611181	keystroke_o	o	n/a
305.8155	0.12	611631	keystroke_n	n	n/a
305.9955	0.105	611991	keystroke_t	t	n/a
306.1605	0.15	612321	keystroke_i	i	n/a
306.3705	0.105	612741	keystroke_a	a	n/a
306.67	0.105	613340	keystroke_c	c	n/a
306.88	0.09	613760	keystroke_Key.space	Key.space	n/a
307	0.12	614000	keystroke_a	a	n/a
307.255	0.105	614510	keystroke_b	b	n/a
307.495	0.105	614990	keystroke_r	r	n/a
307.765	0.135	615530	keystroke_a	a	n/a
308.005	0.1055	616010	keystroke_h	h	n/a
308.3655	0.104	616731	keystroke_a	a	n/a
308.4555	0.165	616911	keystroke_m	m	n/a
308.6505	0.12	617301	keystroke_Key.space	Key.space	n/a
308.8145	0.12	617629	keystroke_b	b	n/a
308.9045	0.12	617809	keystroke_a	a	n/a
309.1595	0.12	618319	keystroke_c	c	n/a
309.2345	0.12	618469	keystroke_k	k	n/a
309.3395	0.1355	618679	keystroke_Key.space	Key.space	n/a
309.445	0.105	618890	keystroke_t	t	n/a
309.64	0.135	619280	keystroke_r	r	n/a
309.73	0.135	619460	keystroke_i	i	n/a
309.85	0.12	619700	keystroke_m	m	n/a
310.12	0.075	620240	keystroke_Key.enter	Key.enter	n/a
310.1995	7.8725	620399	prompt	n/a	encyclopedia throws weekly attitudes\n
310.9	0.105	621800	keystroke_e	e	n/a
311.14	0.12	622280	keystroke_n	n	n/a
311.38	0.135	622760	keystroke_c	c	n/a
311.68	0.09	623360	keystroke_y	y	n/a
312.1755	0.135	624351	keystroke_c	c	n/a
312.4005	0.105	624801	keystroke_l	l	n/a
312.6255	0.12	625251	keystroke_o	o	n/a
312.8505	0.105	625701	keystroke_p	p	n/a
312.9855	0.105	625971	keystroke_e	e	n/a
313.1805	0.105	626361	keystroke_d	d	n/a
313.2555	0.135	626511	keystroke_i	i	n/a
313.4205	0.12	626841	keystroke_a	a	n/a
313.5255	0.12	627051	keystroke_Key.space	Key.space	n/a
313.6905	0.105	627381	keystroke_t	t	n/a
313.8105	0.09	627621	keystroke_h	h	n/a
313.9455	0.09	627891	keystroke_r	r	n/a
314.0505	0.12	628101	keystroke_o	o	n/a
314.1855	0.09	628371	keystroke_w	w	n/a
314.4705	0.105	628941	keystroke_s	s	n/a
314.9805	0.12	629961	keystroke_Key.space	Key.space	n/a
315.4155	0.165	630831	keystroke_w	w	n/a
315.5955	0.075	631191	keystroke_e	e	n/a
315.7905	0.075	631581	keystroke_e	e	n/a
315.8505	0.15	631701	keystroke_k	k	n/a
316.0905	0.165	632181	keystroke_l	l	n/a
316.2405	0.135	632481	keystroke_y	y	n/a
316.4655	0.12	632931	keystroke_Key.space	Key.space	n/a
316.6155	0.105	633231	keystroke_a	a	n/a
316.8105	0.09	633621	keystroke_t	t	n/a
317.0055	0.09	634011	keystroke_t	t	n/a
317.0655	0.105	634131	keystroke_i	i	n/a
317.1855	0.105	634371	keystroke_t	t	n/a
317.3355	0.105	634671	keystroke_u	u	n/a
317.4255	0.09	634851	keystroke_d	d	n/a
317.6205	0.12	635241	keystroke_e	e	n/a
317.7705	0.135	635541	keystroke_s	s	n/a
317.9805	0.09	635961	keystroke_Key.enter	Key.enter	n/a
318.076	5.696	636152	prompt	n/a	racks toolbox quickly programmers\n
318.6255	0.105	637251	keystroke_r	r	n/a
318.8055	0.105	637611	keystroke_a	a	n/a
319.0305	0.105	638061	keystroke_c	c	n/a
319.0755	0.12	638151	keystroke_k	k	n/a
319.2255	0.15	638451	keystroke_s	s	n/a
319.3905	0.15	638781	keystroke_Key.space	Key.space	n/a
319.5855	0.135	639171	keystroke_t	t	n/a
319.7355	0.075	639471	keystroke_o	o	n/a
319.9305	0.06	639861	keystroke_o	o	n/a
320.1105	0.09	640221	keystroke_l	l	n/a
320.2755	0.15	640551	keystroke_b	b	n/a
320.4405	0.15	640881	keystroke_o	o	n/a
320.6055	0.12	641211	keystroke_x	x	n/a
320.7105	0.21	641421	keystroke_Key.space	Key.space	n/a
320.9355	0.075	641871	keystroke_q	q	n/a
321.0405	0.15	642081	keystroke_u	u	n/a
321.1755	0.105	642351	keystroke_i	i	n/a
321.2955	0.21	642591	keystroke_c	c	n/a
321.4905	0.045	642981	keystroke_k	k	n/a
321.7005	0.075	643401	keystroke_l	l	n/a
321.7305	0.12	643461	keystroke_y	y	n/a
321.9255	0.195	643851	keystroke_Key.space	Key.space	n/a
322.1355	0.09	644271	keystroke_p	p	n/a
322.2105	0.105	644421	keystroke_r	r	n/a
322.33	0.15	644660	keystroke_o	o	n/a
322.465	0.105	644930	keystroke_g	g	n/a
322.675	0.09	645350	keystroke_r	r	n/a
322.825	0.165	645650	keystroke_a	a	n/a
322.975	0.09	645950	keystroke_m	m	n/a
323.14	0.12	646280	keystroke_m	m	n/a
323.215	0.18	646430	keystroke_e	e	n/a
323.305	0.1805	646610	keystroke_r	r	n/a
323.455	0.1955	646910	keystroke_s	s	n/a
323.6805	0.09	647361	keystroke_Key.enter	Key.enter	n/a
323.7775	6.235	647555	prompt	n/a	botswana dice somewhere lang\n
324.401	0.075	648802	keystroke_b	b	n/a
324.596	0.135	649192	keystroke_o	o	n/a
324.686	0.165	649372	keystroke_s	s	n/a
325.226	0.075	650452	keystroke_Key.backspace	Key.backspace	n/a
325.346	0.105	650692	keystroke_t	t	n/a
325.586	0.15	651172	keystroke_s	s	n/a
326.141	0.135	652282	keystroke_w	w	n/a
326.291	0.15	652582	keystroke_a	a	n/a
326.426	0.12	652852	keystroke_n	n	n/a
326.561	0.105	653122	keystroke_a	a	n/a
326.681	0.134	653362	keystroke_Key.space	Key.space	n/a
326.936	0.135	653872	keystroke_d	d	n/a
327.026	0.135	654052	keystroke_i	i	n/a
327.206	0.12	654412	keystroke_c	c	n/a
327.431	0.12	654862	keystroke_e	e	n/a
327.596	0.104	655192	keystroke_Key.space	Key.space	n/a
327.746	0.135	655492	keystroke_s	s	n/a
327.881	0.18	655762	keystroke_o	o	n/a
328.016	0.135	656032	keystroke_m	m	n/a
328.12	0.106	656240	keystroke_e	e	n/a
328.421	0.0905	656842	keystroke_w	w	n/a
328.5115	0.119	657023	keystroke_h	h	n/a
328.6455	0.151	657291	keystroke_e	e	n/a
328.8105	0.181	657621	keystroke_r	r	n/a
328.9615	0.135	657923	keystroke_e	e	n/a
329.1255	0.15	658251	keystroke_Key.space	Key.space	n/a
329.3355	0.151	658671	keystroke_l	l	n/a
329.4405	0.091	658881	keystroke_a	a	n/a
329.5905	0.136	659181	keystroke_n	n	n/a
329.7265	0.105	659453	keystroke_g	g	n/a
329.9205	0.09	659841	keystroke_Key.enter	Key.enter	n/a
330.015	7.9325	660030	prompt	n/a	investments received beef terminology\n
330.5505	0.15	661101	keystroke_i	i	n/a
330.6855	0.1205	661371	keystroke_n	n	n/a
330.881	0.09	661762	keystroke_v	v	n/a
331.031	0.15	662062	keystroke_e	e	n/a
331.151	0.225	662302	keystroke_s	s	n/a
331.316	0.12	662632	keystroke_t	t	n/a
331.451	0.12	662902	keystroke_m	m	n/a
331.601	0.12	663202	keystroke_e	e	n/a
331.706	0.135	663412	keystroke_n	n	n/a
331.826	0.12	663652	keystroke_t	t	n/a
332.051	0.135	664102	keystroke_s	s	n/a
332.201	0.12	664402	keystroke_Key.space	Key.space	n/a
332.351	0.12	664702	keystroke_r	r	n/a
332.456	0.105	664912	keystroke_e	e	n/a
332.696	0.135	665392	keystroke_c	c	n/a
332.816	0.09	665632	keystroke_e	e	n/a
332.921	0.15	665842	keystroke_i	i	n/a
333.056	0.105	666112	keystroke_v	v	n/a
333.266	0.075	666532	keystroke_e	e	n/a
333.446	0.12	666892	keystroke_d	d	n/a
333.626	0.075	667252	keystroke_Key.space	Key.space	n/a
333.806	0.12	667612	keystroke_b	b	n/a
333.881	0.09	667762	keystroke_e	e	n/a
334.1505	0.06	668301	keystroke_f	f	n/a
334.5105	0.105	669021	keystroke_Key.backspace	Key.backspace	n/a
334.6305	0.105	669261	keystroke_e	e	n/a
334.8555	0.15	669711	keystroke_f	f	n/a
335.0805	0.135	670161	keystroke_Key.space	Key.space	n/a
335.3355	0.105	670671	keystroke_t	t	n/a
335.4855	0.18	670971	keystroke_e	e	n/a
335.6205	0.15	671241	keystroke_r	r	n/a
335.7255	0.12	671451	keystroke_m	m	n/a
335.9355	0.045	671871	keystroke_n	n	n/a
336.2805	0.09	672561	keystroke_Key.backspace	Key.backspace	n/a
336.5655	0.1505	673131	keystroke_i	i	n/a
336.701	0.1655	673402	keystroke_n	n	n/a
336.8665	0.105	673733	keystroke_o	o	n/a
337.1215	0.09	674243	keystroke_l	l	n/a
337.3315	0.075	674663	keystroke_o	o	n/a
337.4215	0.075	674843	keystroke_g	g	n/a
337.6315	0.09	675263	keystroke_y	y	n/a
337.8715	0.075	675743	keystroke_Key.enter	Key.enter	n/a
337.9505	6.733	675901	prompt	n/a	orders strike penetration madness\n
338.5165	0.12	677033	keystroke_o	o	n/a
338.6215	0.09	677243	keystroke_r	r	n/a
338.8315	0.105	677663	keystroke_d	d	n/a
339.0415	0.15	678083	keystroke_e	e	n/a
339.1015	0.195	678203	keystroke_r	r	n/a
339.3115	0.135	678623	keystroke_s	s	n/a
339.4615	0.105	678923	keystroke_Key.space	Key.space	n/a
339.6115	0.165	679223	keystroke_s	s	n/a
339.7615	0.105	679523	keystroke_t	t	n/a
339.9715	0.105	679943	keystroke_r	r	n/a
340.0915	0.075	680183	keystroke_i	i	n/a
340.2865	0.105	680573	keystroke_k	k	n/a
340.4065	0.105	680813	keystroke_e	e	n/a
340.5715	0.135	681143	keystroke_Key.space	Key.space	n/a
340.7965	0.105	681593	keystroke_p	p	n/a
340.9465	0.105	681893	keystroke_e	e	n/a
341.0665	0.12	682133	keystroke_n	n	n/a
341.2465	0.09	682493	keystroke_e	e	n/a
341.4715	0.09	682943	keystroke_t	t	n/a
341.6815	0.12	683363	keystroke_r	r	n/a
341.8165	0.12	683633	keystroke_a	a	n/a
342.0115	0.12	684023	keystroke_t	t	n/a
342.0715	0.135	684143	keystroke_i	i	n/a
342.1765	0.21	684353	keystroke_o	o	n/a
342.2665	0.18	684533	keystroke_n	n	n/a
342.4015	0.135	684803	keystroke_Key.space	Key.space	n/a
342.5965	0.15	685193	keystroke_m	m	n/a
342.6865	0.12	685373	keystroke_a	a	n/a
342.9865	0.09	685973	keystroke_d	d	n/a
343.3015	0.075	686603	keystroke_e	e	n/a
343.6765	0.075	687353	keystroke_Key.backspace	Key.backspace	n/a
343.9465	0.135	687893	keystroke_n	n	n/a
344.0665	0.165	688133	keystroke_e	e	n/a
344.1865	0.12	688373	keystroke_s	s	n/a
344.3815	0.105	688763	keystroke_s	s	n/a
344.6665	0.015	689333	keystroke_Key.enter	Key.enter	n/a
344.686	7.4215	689372	prompt	n/a	thickness exploring bikini acting\n
345.3115	0.09	690623	keystroke_t	t	n/a
345.4315	0.12	690863	keystroke_h	h	n/a
345.6715	0.105	691343	keystroke_i	i	n/a
345.8515	0.15	691703	keystroke_c	c	n/a
345.9715	0.135	691943	keystroke_k	k	n/a
346.256	0.135	692512	keystroke_n	n	n/a
346.496	0.12	692992	keystroke_e	e	n/a
346.706	0.105	693412	keystroke_s	s	n/a
346.916	0.105	693832	keystroke_s	s	n/a
347.051	0.135	694102	keystroke_Key.space	Key.space	n/a
347.216	0.075	694432	keystroke_e	e	n/a
347.411	0.15	694822	keystroke_x	x	n/a
347.562	0.104	695124	keystroke_p	p	n/a
347.786	0.105	695572	keystroke_l	l	n/a
348.026	0.105	696052	keystroke_o	o	n/a
348.116	0.105	696232	keystroke_r	r	n/a
348.266	0.165	696532	keystroke_i	i	n/a
348.401	0.18	696802	keystroke_n	n	n/a
348.582	0.089	697164	keystroke_g	g	n/a
348.686	0.12	697372	keystroke_Key.space	Key.space	n/a
348.836	0.15	697672	keystroke_b	b	n/a
349.061	0.105	698122	keystroke_i	i	n/a
349.301	0.105	698602	keystroke_k	k	n/a
349.466	0.09	698932	keystroke_i	i	n/a
349.631	0.18	699262	keystroke_n	n	n/a
349.826	0.18	699652	keystroke_i	i	n/a
349.976	0.135	699952	keystroke_n	n	n/a
350.531	0.105	701062	keystroke_Key.backspace	Key.backspace	n/a
350.801	0.105	701602	keystroke_Key.space	Key.space	n/a
350.981	0.1055	701962	keystroke_a	a	n/a
351.1915	0.15	702383	keystroke_c	c	n/a
351.4765	0.09	702953	keystroke_t	t	n/a
351.5815	0.12	703163	keystroke_i	i	n/a
351.6715	0.135	703343	keystroke_n	n	n/a
351.7915	0.135	703583	keystroke_g	g	n/a
352.0015	0.105	704003	keystroke_Key.enter	Key.enter	n/a
352.11	9.103	704220	prompt	n/a	macintosh nobody relax recommendation\n
352.8115	0.165	705623	keystroke_m	m	n/a
353.0365	0.135	706073	keystroke_a	a	n/a
353.2915	0.135	706583	keystroke_c	c	n/a
353.4565	0.12	706913	keystroke_i	i	n/a
353.6215	0.135	707243	keystroke_n	n	n/a
353.9065	0.12	707813	keystroke_t	t	n/a
354.0565	0.12	708113	keystroke_o	o	n/a
354.1615	0.165	708323	keystroke_s	s	n/a
354.3865	0.15	708773	keystroke_h	h	n/a
354.5965	0.09	709193	keystroke_Key.space	Key.space	n/a
354.7915	0.135	709583	keystroke_n	n	n/a
354.9265	0.135	709853	keystroke_o	o	n/a
355.1065	0.135	710213	keystroke_d	d	n/a
355.2265	0.075	710453	keystroke_b	b	n/a
355.5865	0.075	711173	keystroke_Key.backspace	Key.backspace	n/a
355.7515	0.045	711503	keystroke_Key.backspace	Key.backspace	n/a
356.0065	0.06	712013	keystroke_b	b	n/a
356.1865	0.135	712373	keystroke_o	o	n/a
356.2465	0.12	712493	keystroke_d	d	n/a
356.5015	0.105	713003	keystroke_y	y	n/a
356.6215	0.135	713243	keystroke_Key.space	Key.space	n/a
356.8465	0.165	713693	keystroke_r	r	n/a
356.9965	0.12	713993	keystroke_e	e	n/a
357.1615	0.135	714323	keystroke_l	l	n/a
357.2665	0.12	714533	keystroke_a	a	n/a
357.5365	0.105	715073	keystroke_x	x	n/a
358.1065	0.09	716213	keystroke_Key.space	Key.space	n/a
358.3165	0.105	716633	keystroke_r	r	n/a
358.3765	0.15	716753	keystroke_e	e	n/a
358.7065	0.12	717413	keystroke_c	c	n/a
358.7815	0.12	717563	keystroke_o	o	n/a
358.9465	0.09	717893	keystroke_m	m	n/a
359.1115	0.09	718223	keystroke_m	m	n/a
359.337	0.105	718674	keystroke_n	n	n/a
359.6965	0.0755	719393	keystroke_Key.backspace	Key.backspace	n/a
359.862	0.105	719724	keystroke_e	e	n/a
359.982	0.135	719964	keystroke_n	n	n/a
360.117	0.105	720234	keystroke_d	d	n/a
360.297	0.135	720594	keystroke_a	a	n/a
360.507	0.12	721014	keystroke_t	t	n/a
360.627	0.135	721254	keystroke_i	i	n/a
360.716	0.1655	721432	keystroke_o	o	n/a
360.8065	0.12	721613	keystroke_n	n	n/a
361.1215	0.09	722243	keystroke_Key.enter	Key.enter	n/a
361.2175	5.9205	722435	prompt	n/a	loss tracks barbados forms\n
361.7665	0.135	723533	keystroke_l	l	n/a
361.9915	0.12	723983	keystroke_o	o	n/a
362.1415	0.12	724283	keystroke_s	s	n/a
362.3365	0.105	724673	keystroke_s	s	n/a
362.4715	0.135	724943	keystroke_Key.space	Key.space	n/a
362.5915	0.075	725183	keystroke_t	t	n/a
362.7415	0.12	725483	keystroke_r	r	n/a
362.8915	0.135	725783	keystroke_a	a	n/a
363.1915	0.135	726383	keystroke_c	c	n/a
363.5965	0.12	727193	keystroke_k	k	n/a
363.7615	0.15	727523	keystroke_s	s	n/a
363.9565	0.12	727913	keystroke_Key.space	Key.space	n/a
364.2115	0.135	728423	keystroke_b	b	n/a
364.4515	0.12	728903	keystroke_a	a	n/a
364.6765	0.12	729353	keystroke_r	r	n/a
364.9915	0.09	729983	keystroke_b	b	n/a
365.1715	0.135	730343	keystroke_a	a	n/a
365.5615	0.165	731123	keystroke_d	d	n/a
365.6965	0.15	731393	keystroke_o	o	n/a
365.8615	0.12	731723	keystroke_s	s	n/a
366.0415	0.105	732083	keystroke_Key.space	Key.space	n/a
366.2515	0.12	732503	keystroke_f	f	n/a
366.3865	0.075	732773	keystroke_o	o	n/a
366.5065	0.105	733013	keystroke_r	r	n/a
366.6415	0.12	733283	keystroke_m	m	n/a
366.7915	0.135	733583	keystroke_s	s	n/a
367.0465	0.09	734093	keystroke_Key.enter	Key.enter	n/a
367.1405	4.917	734281	prompt	n/a	bird laws over massage\n
367.796	0.09	735592	keystroke_b	b	n/a
368.006	0.12	736012	keystroke_i	i	n/a
368.111	0.09	736222	keystroke_r	r	n/a
368.336	0.15	736672	keystroke_d	d	n/a
368.501	0.12	737002	keystroke_Key.space	Key.space	n/a
368.651	0.18	737302	keystroke_l	l	n/a
368.816	0.09	737632	keystroke_w	w	n/a
369.176	0.09	738352	keystroke_Key.backspace	Key.backspace	n/a
369.281	0.15	738562	keystroke_a	a	n/a
369.401	0.09	738802	keystroke_w	w	n/a
369.6115	0.135	739223	keystroke_s	s	n/a
369.821	0.1205	739642	keystroke_Key.space	Key.space	n/a
370.0015	0.1645	740003	keystroke_o	o	n/a
370.181	0.12	740362	keystroke_v	v	n/a
370.376	0.1505	740752	keystroke_e	e	n/a
370.4815	0.1195	740963	keystroke_r	r	n/a
370.586	0.1505	741172	keystroke_Key.space	Key.space	n/a
370.7215	0.15	741443	keystroke_m	m	n/a
370.8265	0.105	741653	keystroke_a	a	n/a
371.0515	0.06	742103	keystroke_s	s	n/a
371.1865	0.075	742373	keystroke_s	s	n/a
371.3815	0.075	742763	keystroke_a	a	n/a
371.5915	0.105	743183	keystroke_g	g	n/a
371.7415	0.105	743483	keystroke_e	e	n/a
371.9815	0.075	743963	keystroke_Key.enter	Key.enter	n/a
372.061	6.732	744122	prompt	n/a	classic crude remarkable marilyn\n
372.6715	0.1045	745343	keystroke_c	c	n/a
372.836	0.135	745672	keystroke_l	l	n/a
372.956	0.12	745912	keystroke_a	a	n/a
373.166	0.075	746332	keystroke_s	s	n/a
373.346	0.075	746692	keystroke_s	s	n/a
373.436	0.12	746872	keystroke_i	i	n/a
373.616	0.135	747232	keystroke_c	c	n/a
374.051	0.105	748102	keystroke_Key.space	Key.space	n/a
374.501	0.105	749002	keystroke_c	c	n/a
374.7415	0.0895	749483	keystroke_r	r	n/a
374.846	0.09	749692	keystroke_u	u	n/a
374.981	0.12	749962	keystroke_d	d	n/a
375.206	0.105	750412	keystroke_e	e	n/a
375.326	0.1205	750652	keystroke_Key.space	Key.space	n/a
375.5365	0.135	751073	keystroke_r	r	n/a
375.6265	0.135	751253	keystroke_e	e	n/a
375.7915	0.15	751583	keystroke_m	m	n/a
375.9265	0.15	751853	keystroke_a	a	n/a
376.0315	0.12	752063	keystroke_r	r	n/a
376.1665	0.12	752333	keystroke_k	k	n/a
376.3315	0.15	752663	keystroke_a	a	n/a
376.4965	0.075	752993	keystroke_b	b	n/a
376.7065	0.135	753413	keystroke_l	l	n/a
376.8415	0.15	753683	keystroke_e	e	n/a
377.0215	0.105	754043	keystroke_Key.space	Key.space	n/a
377.2315	0.15	754463	keystroke_m	m	n/a
377.3965	0.105	754793	keystroke_a	a	n/a
377.6215	0.12	755243	keystroke_r	r	n/a
377.8765	0.09	755753	keystroke_i	i	n/a
378.1015	0.12	756203	keystroke_l	l	n/a
378.1915	0.105	756383	keystroke_y	y	n/a
378.3865	0.12	756773	keystroke_n	n	n/a
378.7165	0.075	757433	keystroke_Key.enter	Key.enter	n/a
378.7955	6.3275	757591	prompt	n/a	financing hotels sellers module\n
379.391	0.105	758782	keystroke_f	f	n/a
379.466	0.165	758932	keystroke_i	i	n/a
379.616	0.105	759232	keystroke_n	n	n/a
379.736	0.15	759472	keystroke_a	a	n/a
379.871	0.105	759742	keystroke_n	n	n/a
380.006	0.135	760012	keystroke_c	c	n/a
380.126	0.195	760252	keystroke_i	i	n/a
380.261	0.165	760522	keystroke_n	n	n/a
380.396	0.135	760792	keystroke_g	g	n/a
380.501	0.135	761002	keystroke_Key.space	Key.space	n/a
380.651	0.18	761302	keystroke_h	h	n/a
380.801	0.12	761602	keystroke_o	o	n/a
380.936	0.09	761872	keystroke_t	t	n/a
381.056	0.135	762112	keystroke_e	e	n/a
381.206	0.135	762412	keystroke_l	l	n/a
381.356	0.165	762712	keystroke_s	s	n/a
381.566	0.105	763132	keystroke_Key.space	Key.space	n/a
381.761	0.15	763522	keystroke_s	s	n/a
381.881	0.09	763762	keystroke_e	e	n/a
382.2115	0.105	764423	keystroke_l	l	n/a
382.4065	0.0895	764813	keystroke_l	l	n/a
382.526	0.165	765052	keystroke_e	e	n/a
382.646	0.1505	765292	keystroke_r	r	n/a
382.8415	0.15	765683	keystroke_s	s	n/a
383.0215	0.12	766043	keystroke_Key.space	Key.space	n/a
383.1715	0.195	766343	keystroke_m	m	n/a
383.3215	0.135	766643	keystroke_o	o	n/a
383.4115	0.105	766823	keystroke_d	d	n/a
383.6365	0.075	767273	keystroke_e	e	n/a
384.176	0.075	768352	keystroke_Key.backspace	Key.backspace	n/a
384.4465	0.09	768893	keystroke_u	u	n/a
384.6715	0.135	769343	keystroke_l	l	n/a
384.8215	0.09	769643	keystroke_e	e	n/a
385.0315	0.09	770063	keystroke_Key.enter	Key.enter	n/a
385.126	7.4365	770252	prompt	n/a	retreat affairs earnings newsletter\n
385.7665	0.15	771533	keystroke_r	r	n/a
385.9315	0.09	771863	keystroke_e	e	n/a
386.0965	0.105	772193	keystroke_t	t	n/a
386.3065	0.12	772613	keystroke_r	r	n/a
386.4115	0.12	772823	keystroke_e	e	n/a
386.6065	0.135	773213	keystroke_a	a	n/a
386.7865	0.12	773573	keystroke_t	t	n/a
386.9365	0.1495	773873	keystroke_Key.space	Key.space	n/a
387.176	0.1205	774352	keystroke_a	a	n/a
387.3715	0.09	774743	keystroke_f	f	n/a
387.5515	0.09	775103	keystroke_f	f	n/a
387.7765	0.105	775553	keystroke_a	a	n/a
388.0765	0.12	776153	keystroke_i	i	n/a
388.3465	0.09	776693	keystroke_r	r	n/a
388.5565	0.165	777113	keystroke_s	s	n/a
388.7515	0.12	777503	keystroke_Key.space	Key.space	n/a
388.9615	0.135	777923	keystroke_e	e	n/a
389.3065	0.135	778613	keystroke_a	a	n/a
389.5315	0.105	779063	keystroke_r	r	n/a
389.6665	0.105	779333	keystroke_n	n	n/a
389.8165	0.165	779633	keystroke_i	i	n/a
389.9515	0.18	779903	keystroke_n	n	n/a
390.1165	0.105	780233	keystroke_g	g	n/a
390.3115	0.149	780623	keystroke_s	s	n/a
390.4455	0.106	780891	keystroke_Key.space	Key.space	n/a
390.6105	0.166	781221	keystroke_n	n	n/a
390.7005	0.2105	781401	keystroke_e	e	n/a
390.881	0.12	781762	keystroke_w	w	n/a
391.106	0.12	782212	keystroke_s	s	n/a
391.331	0.12	782662	keystroke_l	l	n/a
391.4665	0.105	782933	keystroke_e	e	n/a
391.6165	0.1345	783233	keystroke_t	t	n/a
392.021	0.12	784042	keystroke_t	t	n/a
392.2015	0.18	784403	keystroke_e	e	n/a
392.3065	0.135	784613	keystroke_r	r	n/a
392.5015	0.0595	785003	keystroke_Key.enter	Key.enter	n/a
392.5655	7.6175	785131	prompt	n/a	mounted photographic educators defects\n
393.191	0.135	786382	keystroke_m	m	n/a
393.341	0.135	786682	keystroke_o	o	n/a
393.477	0.134	786954	keystroke_u	u	n/a
393.566	0.165	787132	keystroke_n	n	n/a
393.701	0.09	787402	keystroke_t	t	n/a
393.866	0.12	787732	keystroke_e	e	n/a
394.091	0.15	788182	keystroke_d	d	n/a
394.301	0.09	788602	keystroke_Key.space	Key.space	n/a
394.481	0.09	788962	keystroke_p	p	n/a
394.691	0.12	789382	keystroke_h	h	n/a
394.841	0.12	789682	keystroke_o	o	n/a
394.976	0.105	789952	keystroke_t	t	n/a
395.096	0.12	790192	keystroke_o	o	n/a
395.291	0.075	790582	keystroke_g	g	n/a
395.501	0.105	791002	keystroke_r	r	n/a
395.621	0.165	791242	keystroke_a	a	n/a
395.831	0.12	791662	keystroke_p	p	n/a
395.996	0.135	791992	keystroke_h	h	n/a
396.161	0.12	792322	keystroke_i	i	n/a
396.311	0.165	792622	keystroke_c	c	n/a
396.461	0.12	792922	keystroke_Key.space	Key.space	n/a
396.596	0.1055	793192	keystroke_e	e	n/a
396.8215	0.09	793643	keystroke_d	d	n/a
396.9415	0.15	793883	keystroke_u	u	n/a
397.1065	0.105	794213	keystroke_c	c	n/a
397.2265	0.105	794453	keystroke_a	a	n/a
397.4815	0.105	794963	keystroke_t	t	n/a
397.6615	0.09	795323	keystroke_o	o	n/a
397.7665	0.104	795533	keystroke_r	r	n/a
397.9615	0.165	795923	keystroke_s	s	n/a
398.1565	0.12	796313	keystroke_Key.space	Key.space	n/a
398.4265	0.0455	796853	keystroke_d	d	n/a
398.7415	0.1055	797483	keystroke_e	e	n/a
399.027	0.1045	798054	keystroke_f	f	n/a
399.192	0.12	798384	keystroke_e	e	n/a
399.446	0.09	798892	keystroke_c	c	n/a
399.672	0.105	799344	keystroke_t	t	n/a
399.882	0.12	799764	keystroke_s	s	n/a
400.077	0.104	800154	keystroke_Key.enter	Key.enter	n/a
400.186	6.252	800372	prompt	n/a	hosts dispute african fighter\n
401.021	0.12	802042	keystroke_h	h	n/a
401.366	0.105	802732	keystroke_o	o	n/a
401.516	0.12	803032	keystroke_s	s	n/a
401.712	0.119	803424	keystroke_t	t	n/a
401.876	0.15	803752	keystroke_s	s	n/a
402.041	0.135	804082	keystroke_Key.space	Key.space	n/a
402.221	0.136	804442	keystroke_d	d	n/a
402.386	0.12	804772	keystroke_i	i	n/a
402.491	0.195	804982	keystroke_s	s	n/a
402.671	0.12	805342	keystroke_p	p	n/a
402.806	0.135	805612	keystroke_u	u	n/a
402.926	0.135	805852	keystroke_t	t	n/a
403.091	0.12	806182	keystroke_e	e	n/a
403.256	0.105	806512	keystroke_Key.space	Key.space	n/a
403.376	0.135	806752	keystroke_a	a	n/a
403.556	0.09	807112	keystroke_f	f	n/a
403.797	0.119	807594	keystroke_r	r	n/a
404.036	0.105	808072	keystroke_i	i	n/a
404.231	0.105	808462	keystroke_c	c	n/a
404.366	0.15	808732	keystroke_a	a	n/a
404.501	0.12	809002	keystroke_n	n	n/a
404.636	0.12	809272	keystroke_Key.space	Key.space	n/a
404.771	0.105	809542	keystroke_f	f	n/a
404.891	0.135	809782	keystroke_i	i	n/a
405.027	0.104	810054	keystroke_g	g	n/a
405.671	0.09	811342	keystroke_h	h	n/a
405.806	0.105	811612	keystroke_t	t	n/a
406.016	0.181	812032	keystroke_e	e	n/a
406.151	0.135	812302	keystroke_r	r	n/a
406.346	0.09	812692	keystroke_Key.enter	Key.enter	n/a
406.4425	9.6855	812885	prompt	n/a	claire memorabilia helen participants\n
407.1265	0.165	814253	keystroke_c	c	n/a
407.3365	0.135	814673	keystroke_l	l	n/a
407.4865	0.135	814973	keystroke_a	a	n/a
407.7265	0.03	815453	keystroke_r	r	n/a
408.3265	0.09	816653	keystroke_Key.backspace	Key.backspace	n/a
408.6265	0.105	817253	keystroke_i	i	n/a
408.7615	0.12	817523	keystroke_r	r	n/a
408.8515	0.15	817703	keystroke_e	e	n/a
408.9715	0.135	817943	keystroke_Key.space	Key.space	n/a
409.1365	0.15	818273	keystroke_m	m	n/a
409.3315	0.135	818663	keystroke_e	e	n/a
409.4515	0.15	818903	keystroke_m	m	n/a
409.6465	0.09	819293	keystroke_o	o	n/a
409.7665	0.105	819533	keystroke_r	r	n/a
409.9465	0.0755	819893	keystroke_i	i	n/a
410.322	0.075	820644	keystroke_Key.backspace	Key.backspace	n/a
410.517	0.135	821034	keystroke_a	a	n/a
410.697	0.135	821394	keystroke_b	b	n/a
411.267	0.1045	822534	keystroke_i	i	n/a
411.4765	0.21	822953	keystroke_l	l	n/a
411.6265	0.1345	823253	keystroke_i	i	n/a
411.7465	0.165	823493	keystroke_a	a	n/a
411.9265	0.075	823853	keystroke_Key.space	Key.space	n/a
412.1065	0.105	824213	keystroke_h	h	n/a
412.1815	0.105	824363	keystroke_e	e	n/a
412.3315	0.135	824663	keystroke_l	l	n/a
412.4815	0.1195	824963	keystroke_e	e	n/a
412.5865	0.135	825173	keystroke_n	n	n/a
412.7365	0.12	825473	keystroke_Key.space	Key.space	n/a
412.8865	0.105	825773	keystroke_p	p	n/a
412.9315	0.12	825863	keystroke_a	a	n/a
413.1565	0.09	826313	keystroke_r	r	n/a
413.3665	0.105	826733	keystroke_t	t	n/a
413.5315	0.105	827063	keystroke_i	i	n/a
413.9515	0.12	827903	keystroke_c	c	n/a
414.5365	0.135	829073	keystroke_i	i	n/a
415.2265	0.09	830453	keystroke_p	p	n/a
415.4065	0.105	830813	keystroke_a	a	n/a
415.5265	0.105	831053	keystroke_n	n	n/a
415.6325	0.104	831265	keystroke_t	t	n/a
415.8115	0.105	831623	keystroke_s	s	n/a
416.0365	0.09	832073	keystroke_Key.enter	Key.enter	n/a
416.1305	5.9975	832261	prompt	n/a	gotten legislation stones aaron\n
416.7565	0.12	833513	keystroke_g	g	n/a
416.8315	0.105	833663	keystroke_o	o	n/a
417.0115	0.09	834023	keystroke_t	t	n/a
417.1915	0.09	834383	keystroke_t	t	n/a
417.3865	0.12	834773	keystroke_e	e	n/a
417.4915	0.12	834983	keystroke_n	n	n/a
417.6415	0.135	835283	keystroke_Key.space	Key.space	n/a
417.8065	0.165	835613	keystroke_l	l	n/a
417.9715	0.105	835943	keystroke_e	e	n/a
418.2565	0.12	836513	keystroke_g	g	n/a
418.3775	0.104	836755	keystroke_i	i	n/a
418.5265	0.105	837053	keystroke_s	s	n/a
418.7815	0.12	837563	keystroke_l	l	n/a
418.8865	0.075	837773	keystroke_a	a	n/a
419.0815	0.12	838163	keystroke_t	t	n/a
419.1565	0.135	838313	keystroke_i	i	n/a
419.2765	0.165	838553	keystroke_o	o	n/a
419.3815	0.15	838763	keystroke_n	n	n/a
419.6365	0.12	839273	keystroke_Key.space	Key.space	n/a
419.8015	0.12	839603	keystroke_s	s	n/a
419.9815	0.135	839963	keystroke_t	t	n/a
420.1465	0.135	840293	keystroke_o	o	n/a
420.2665	0.135	840533	keystroke_n	n	n/a
420.3865	0.225	840773	keystroke_e	e	n/a
420.5515	0.135	841103	keystroke_s	s	n/a
420.7015	0.09	841403	keystroke_Key.space	Key.space	n/a
420.9415	0.15	841883	keystroke_a	a	n/a
421.2115	0.165	842423	keystroke_a	a	n/a
421.4815	0.12	842963	keystroke_r	r	n/a
421.6165	0.15	843233	keystroke_o	o	n/a
421.6765	0.15	843353	keystroke_n	n	n/a
422.0515	0.075	844103	keystroke_Key.enter	Key.enter	n/a
422.1305	5.6675	844261	prompt	n/a	hear fotos motels figured\n
422.7565	0.12	845513	keystroke_h	h	n/a
422.8615	0.09	845723	keystroke_e	e	n/a
423.0715	0.15	846143	keystroke_a	a	n/a
423.1615	0.105	846323	keystroke_r	r	n/a
423.2965	0.105	846593	keystroke_Key.space	Key.space	n/a
423.4165	0.12	846833	keystroke_f	f	n/a
423.5815	0.075	847163	keystroke_o	o	n/a
423.6715	0.12	847343	keystroke_t	t	n/a
423.8365	0.12	847673	keystroke_o	o	n/a
423.9865	0.135	847973	keystroke_s	s	n/a
424.1065	0.12	848213	keystroke_Key.space	Key.space	n/a
424.4065	0.18	848813	keystroke_m	m	n/a
424.4215	0.105	848843	keystroke_o	o	n/a
425.0815	0.075	850163	keystroke_t	t	n/a
425.261	0.105	850522	keystroke_e	e	n/a
425.381	0.165	850762	keystroke_l	l	n/a
425.531	0.12	851062	keystroke_s	s	n/a
425.606	0.15	851212	keystroke_Key.space	Key.space	n/a
425.846	0.105	851692	keystroke_f	f	n/a
425.996	0.12	851992	keystroke_i	i	n/a
426.191	0.12	852382	keystroke_g	g	n/a
426.356	0.12	852712	keystroke_u	u	n/a
426.566	0.105	853132	keystroke_r	r	n/a
426.776	0.105	853552	keystroke_e	e	n/a
426.986	0.075	853972	keystroke_s	s	n/a
427.376	0.105	854752	keystroke_Key.backspace	Key.backspace	n/a
427.496	0.105	854992	keystroke_d	d	n/a
427.721	0.075	855442	keystroke_Key.enter	Key.enter	n/a
427.801	7.272	855602	prompt	n/a	yang groundwater licensing colleague\n
428.531	0.09	857062	keystroke_y	y	n/a
428.756	0.12	857512	keystroke_a	a	n/a
428.846	0.165	857692	keystroke_n	n	n/a
429.026	0.09	858052	keystroke_g	g	n/a
429.1175	0.119	858235	keystroke_Key.space	Key.space	n/a
429.506	0.12	859012	keystroke_g	g	n/a
429.731	0.105	859462	keystroke_r	r	n/a
430.376	0.105	860752	keystroke_o	o	n/a
430.451	0.165	860902	keystroke_u	u	n/a
430.571	0.195	861142	keystroke_n	n	n/a
430.676	0.105	861352	keystroke_d	d	n/a
430.9165	0.15	861833	keystroke_w	w	n/a
431.0215	0.165	862043	keystroke_a	a	n/a
431.2165	0.12	862433	keystroke_t	t	n/a
431.3815	0.18	862763	keystroke_e	e	n/a
431.5015	0.165	863003	keystroke_r	r	n/a
431.6215	0.12	863243	keystroke_Key.space	Key.space	n/a
431.7865	0.24	863573	keystroke_l	l	n/a
431.9815	0.105	863963	keystroke_i	i	n/a
432.1315	0.135	864263	keystroke_c	c	n/a
432.4165	0.12	864833	keystroke_e	e	n/a
432.6115	0.12	865223	keystroke_n	n	n/a
432.8215	0.15	865643	keystroke_s	s	n/a
432.9725	0.149	865945	keystroke_i	i	n/a
433.1065	0.165	866213	keystroke_n	n	n/a
433.287	0.1195	866574	keystroke_g	g	n/a
433.4215	0.1055	866843	keystroke_Key.space	Key.space	n/a
433.647	0.135	867294	keystroke_c	c	n/a
433.737	0.09	867474	keystroke_o	o	n/a
434.0215	0.015	868043	keystroke_l	l	n/a
434.0965	0.09	868193	keystroke_l	l	n/a
434.1565	0.075	868313	keystroke_e	e	n/a
434.3215	0.12	868643	keystroke_a	a	n/a
434.5315	0.105	869063	keystroke_g	g	n/a
434.6365	0.105	869273	keystroke_u	u	n/a
434.7565	0.105	869513	keystroke_e	e	n/a
435.0115	0.0595	870023	keystroke_Key.enter	Key.enter	n/a
435.078	6.6845	870156	prompt	n/a	light excel brunette conditional\n
435.671	0.195	871342	keystroke_l	l	n/a
435.806	0.135	871612	keystroke_i	i	n/a
435.911	0.1055	871822	keystroke_g	g	n/a
436.0465	0.135	872093	keystroke_h	h	n/a
436.1665	0.105	872333	keystroke_t	t	n/a
436.3165	0.105	872633	keystroke_Key.space	Key.space	n/a
436.4365	0.075	872873	keystroke_e	e	n/a
436.6465	0.12	873293	keystroke_x	x	n/a
436.8415	0.18	873683	keystroke_c	c	n/a
437.0065	0.12	874013	keystroke_e	e	n/a
437.1715	0.135	874343	keystroke_l	l	n/a
437.3215	0.105	874643	keystroke_Key.space	Key.space	n/a
437.5315	0.134	875063	keystroke_b	b	n/a
437.6965	0.135	875393	keystroke_r	r	n/a
437.8765	0.105	875753	keystroke_u	u	n/a
438.101	0.105	876202	keystroke_n	n	n/a
438.311	0.045	876622	keystroke_t	t	n/a
439.151	0.09	878302	keystroke_Key.backspace	Key.backspace	n/a
439.271	0.12	878542	keystroke_e	e	n/a
439.481	0.09	878962	keystroke_t	t	n/a
439.6615	0.09	879323	keystroke_t	t	n/a
439.8415	0.105	879683	keystroke_e	e	n/a
439.9915	0.1195	879983	keystroke_Key.space	Key.space	n/a
440.126	0.135	880252	keystroke_c	c	n/a
440.246	0.135	880492	keystroke_o	o	n/a
440.3665	0.1195	880733	keystroke_n	n	n/a
440.501	0.135	881002	keystroke_d	d	n/a
440.621	0.12	881242	keystroke_i	i	n/a
440.801	0.12	881602	keystroke_t	t	n/a
440.876	0.135	881752	keystroke_i	i	n/a
440.996	0.15	881992	keystroke_o	o	n/a
441.072	0.134	882144	keystroke_n	n	n/a
441.251	0.12	882502	keystroke_a	a	n/a
441.356	0.12	882712	keystroke_l	l	n/a
441.701	0.06	883402	keystroke_Key.enter	Key.enter	n/a
441.7655	6.027	883531	prompt	n/a	current previously feels adjacent\n
442.3915	0.105	884783	keystroke_c	c	n/a
442.4815	0.12	884963	keystroke_u	u	n/a
442.6465	0.105	885293	keystroke_r	r	n/a
442.8105	0.1055	885621	keystroke_r	r	n/a
442.9615	0.149	885923	keystroke_e	e	n/a
443.081	0.105	886162	keystroke_n	n	n/a
443.2165	0.119	886433	keystroke_t	t	n/a
443.5005	0.12	887001	keystroke_Key.space	Key.space	n/a
443.636	0.1505	887272	keystroke_p	p	n/a
443.7715	0.105	887543	keystroke_r	r	n/a
443.8465	0.12	887693	keystroke_e	e	n/a
444.0865	0.135	888173	keystroke_v	v	n/a
444.1915	0.1495	888383	keystroke_i	i	n/a
444.371	0.15	888742	keystroke_o	o	n/a
444.476	0.105	888952	keystroke_u	u	n/a
444.611	0.135	889222	keystroke_s	s	n/a
444.747	0.134	889494	keystroke_l	l	n/a
444.926	0.105	889852	keystroke_y	y	n/a
445.151	0.12	890302	keystroke_Key.space	Key.space	n/a
445.286	0.105	890572	keystroke_f	f	n/a
445.436	0.105	890872	keystroke_e	e	n/a
445.616	0.0905	891232	keystroke_e	e	n/a
445.7365	0.18	891473	keystroke_l	l	n/a
445.8865	0.12	891773	keystroke_s	s	n/a
446.0215	0.12	892043	keystroke_Key.space	Key.space	n/a
446.1265	0.12	892253	keystroke_a	a	n/a
446.3365	0.15	892673	keystroke_d	d	n/a
446.5765	0.105	893153	keystroke_j	j	n/a
446.6965	0.1045	893393	keystroke_a	a	n/a
446.906	0.1205	893812	keystroke_c	c	n/a
447.2815	0.105	894563	keystroke_e	e	n/a
447.4015	0.09	894803	keystroke_n	n	n/a
447.5065	0.135	895013	keystroke_t	t	n/a
447.7165	0.075	895433	keystroke_Key.enter	Key.enter	n/a
447.7985	5.994	895597	prompt	n/a	metres once interpreted charges\n
448.496	0.105	896992	keystroke_m	m	n/a
448.586	0.105	897172	keystroke_e	e	n/a
448.751	0.09	897502	keystroke_t	t	n/a
448.991	0.12	897982	keystroke_r	r	n/a
449.081	0.225	898162	keystroke_e	e	n/a
449.231	0.15	898462	keystroke_s	s	n/a
449.396	0.135	898792	keystroke_Key.space	Key.space	n/a
449.561	0.18	899122	keystroke_o	o	n/a
449.712	0.1645	899424	keystroke_n	n	n/a
449.8465	0.165	899693	keystroke_c	c	n/a
449.9965	0.15	899993	keystroke_e	e	n/a
450.0715	0.135	900143	keystroke_Key.space	Key.space	n/a
450.237	0.135	900474	keystroke_i	i	n/a
450.326	0.195	900652	keystroke_n	n	n/a
450.507	0.104	901014	keystroke_t	t	n/a
450.732	0.134	901464	keystroke_e	e	n/a
450.956	0.135	901912	keystroke_r	r	n/a
451.346	0.105	902692	keystroke_p	p	n/a
451.496	0.15	902992	keystroke_r	r	n/a
451.631	0.135	903262	keystroke_e	e	n/a
451.931	0.12	903862	keystroke_t	t	n/a
452.201	0.09	904402	keystroke_e	e	n/a
452.411	0.1805	904822	keystroke_d	d	n/a
452.6065	0.03	905213	keystroke_Key.space	Key.space	n/a
452.6515	0.1645	905303	keystroke_c	c	n/a
452.801	0.105	905602	keystroke_h	h	n/a
452.876	0.225	905752	keystroke_a	a	n/a
453.041	0.09	906082	keystroke_r	r	n/a
453.266	0.075	906532	keystroke_g	g	n/a
453.371	0.21	906742	keystroke_e	e	n/a
453.506	0.165	907012	keystroke_s	s	n/a
453.686	0.105	907372	keystroke_Key.enter	Key.enter	n/a
453.7955	9.627	907591	prompt	n/a	jacksonville kuwait luxury yemen\n
454.601	0.075	909202	keystroke_j	j	n/a
454.661	0.135	909322	keystroke_a	a	n/a
454.901	0.15	909802	keystroke_c	c	n/a
455.036	0.105	910072	keystroke_k	k	n/a
455.276	0.135	910552	keystroke_s	s	n/a
455.501	0.18	911002	keystroke_o	o	n/a
455.636	0.1355	911272	keystroke_n	n	n/a
455.7865	0.1195	911573	keystroke_v	v	n/a
455.921	0.105	911842	keystroke_i	i	n/a
456.041	0.15	912082	keystroke_l	l	n/a
456.266	0.135	912532	keystroke_l	l	n/a
456.446	0.12	912892	keystroke_e	e	n/a
456.581	0.12	913162	keystroke_Key.space	Key.space	n/a
456.746	0.1205	913492	keystroke_k	k	n/a
457.0015	0.105	914003	keystroke_u	u	n/a
457.3165	0.12	914633	keystroke_w	w	n/a
457.5265	0.12	915053	keystroke_a	a	n/a
457.7215	0.12	915443	keystroke_i	i	n/a
457.8715	0.12	915743	keystroke_t	t	n/a
458.0215	0.12	916043	keystroke_Key.space	Key.space	n/a
458.2465	0.09	916493	keystroke_l	l	n/a
458.4115	0.12	916823	keystroke_u	u	n/a
458.5615	0.15	917123	keystroke_x	x	n/a
458.7865	0.12	917573	keystroke_u	u	n/a
458.9665	0.09	917933	keystroke_r	r	n/a
459.1915	0.105	918383	keystroke_y	y	n/a
459.3565	0.12	918713	keystroke_Key.space	Key.space	n/a
459.5365	0.12	919073	keystroke_t	t	n/a
459.7915	0.105	919583	keystroke_e	e	n/a
459.9115	0.12	919823	keystroke_m	m	n/a
460.1065	0.105	920213	keystroke_e	e	n/a
460.1965	0.105	920393	keystroke_n	n	n/a
460.7065	0.075	921413	keystroke_Key.backspace	Key.backspace	n/a
460.8865	0.06	921773	keystroke_Key.backspace	Key.backspace	n/a
461.0215	0.09	922043	keystroke_Key.backspace	Key.backspace	n/a
461.2315	0.075	922463	keystroke_Key.backspace	Key.backspace	n/a
461.8015	0.045	923603	keystroke_y	y	n/a
462.026	0.09	924052	keystroke_Key.backspace	Key.backspace	n/a
462.206	0.09	924412	keystroke_Key.backspace	Key.backspace	n/a
462.461	0.0905	924922	keystroke_y	y	n/a
462.671	0.121	925342	keystroke_e	e	n/a
462.776	0.12	925552	keystroke_m	m	n/a
462.9415	0.105	925883	keystroke_e	e	n/a
463.0615	0.075	926123	keystroke_n	n	n/a
463.3465	0.0745	926693	keystroke_Key.enter	Key.enter	n/a
463.4285	6.7145	926857	prompt	n/a	detector belly levitra recycling\n
463.9915	0.105	927983	keystroke_d	d	n/a
464.2015	0.09	928403	keystroke_e	e	n/a
464.3515	0.12	928703	keystroke_t	t	n/a
464.5165	0.15	929033	keystroke_e	e	n/a
464.786	0.105	929572	keystroke_c	c	n/a
465.026	0.105	930052	keystroke_t	t	n/a
465.146	0.105	930292	keystroke_o	o	n/a
465.266	0.12	930532	keystroke_r	r	n/a
465.401	0.12	930802	keystroke_Key.space	Key.space	n/a
465.566	0.105	931132	keystroke_b	b	n/a
465.686	0.12	931372	keystroke_e	e	n/a
465.821	0.09	931642	keystroke_l	l	n/a
465.986	0.1505	931972	keystroke_l	l	n/a
466.106	0.1205	932212	keystroke_y	y	n/a
466.2415	0.105	932483	keystroke_Key.space	Key.space	n/a
466.5865	0.12	933173	keystroke_l	l	n/a
466.826	0.09	933652	keystroke_e	e	n/a
467.0515	0.12	934103	keystroke_v	v	n/a
467.2015	0.105	934403	keystroke_i	i	n/a
467.3365	0.105	934673	keystroke_t	t	n/a
467.5765	0.105	935153	keystroke_r	r	n/a
467.7415	0.15	935483	keystroke_a	a	n/a
467.8765	0.12	935753	keystroke_Key.space	Key.space	n/a
468.281	0.12	936562	keystroke_r	r	n/a
468.371	0.12	936742	keystroke_e	e	n/a
468.656	0.105	937312	keystroke_c	c	n/a
469.0165	0.09	938033	keystroke_y	y	n/a
469.3015	0.135	938603	keystroke_c	c	n/a
469.421	0.15	938842	keystroke_l	l	n/a
469.541	0.1205	939082	keystroke_i	i	n/a
469.6315	0.1345	939263	keystroke_n	n	n/a
469.796	0.12	939592	keystroke_g	g	n/a
470.066	0.076	940132	keystroke_Key.enter	Key.enter	n/a
470.1525	8.3005	940305	prompt	n/a	bachelor characteristic belts austin\n
470.7865	0.105	941573	keystroke_b	b	n/a
470.9515	0.105	941903	keystroke_a	a	n/a
471.1915	0.15	942383	keystroke_c	c	n/a
471.5065	0.0895	943013	keystroke_h	h	n/a
471.701	0.1205	943402	keystroke_e	e	n/a
471.8065	0.165	943613	keystroke_l	l	n/a
471.9865	0.1495	943973	keystroke_o	o	n/a
472.121	0.135	944242	keystroke_r	r	n/a
472.271	0.135	944542	keystroke_Key.space	Key.space	n/a
472.541	0.045	945082	keystroke_d	d	n/a
472.871	0.075	945742	keystroke_Key.backspace	Key.backspace	n/a
473.052	0.104	946104	keystroke_c	c	n/a
473.171	0.12	946342	keystroke_h	h	n/a
473.412	0.134	946824	keystroke_a	a	n/a
473.576	0.1205	947152	keystroke_r	r	n/a
473.8765	0.09	947753	keystroke_a	a	n/a
474.1015	0.09	948203	keystroke_c	c	n/a
474.3115	0.1045	948623	keystroke_t	t	n/a
474.476	0.21	948952	keystroke_e	e	n/a
474.596	0.135	949192	keystroke_r	r	n/a
474.746	0.1355	949492	keystroke_i	i	n/a
474.8665	0.18	949733	keystroke_s	s	n/a
475.1215	0.09	950243	keystroke_t	t	n/a
475.2115	0.135	950423	keystroke_i	i	n/a
475.3915	0.135	950783	keystroke_c	c	n/a
475.5115	0.105	951023	keystroke_Key.space	Key.space	n/a
475.6915	0.105	951383	keystroke_b	b	n/a
475.8115	0.12	951623	keystroke_e	e	n/a
475.9465	0.12	951893	keystroke_l	l	n/a
476.0515	0.135	952103	keystroke_t	t	n/a
476.2015	0.1495	952403	keystroke_s	s	n/a
476.366	0.135	952732	keystroke_Key.space	Key.space	n/a
476.486	0.135	952972	keystroke_a	a	n/a
476.651	0.12	953302	keystroke_u	u	n/a
476.8015	0.12	953603	keystroke_s	s	n/a
477.761	0.105	955522	keystroke_t	t	n/a
477.926	0.135	955852	keystroke_i	i	n/a
478.031	0.105	956062	keystroke_n	n	n/a
