onset	duration	sample	value	key	prompt_text
5.4855	8.525	10971	prompt	n/a	the quick brown fox jumps over a lazy dog\n
6.3305	0.069	12661	keystroke_t	t	n/a
6.4145	0.1225	12829	keystroke_h	h	n/a
6.537	0.134	13074	keystroke_e	e	n/a
6.687	0.104	13374	keystroke_Key.space	Key.space	n/a
6.942	0.1635	13884	keystroke_q	q	n/a
7.0605	0.135	14121	keystroke_u	u	n/a
7.1205	0.15	14241	keystroke_i	i	n/a
7.3005	0.1505	14601	keystroke_c	c	n/a
7.4205	0.166	14841	keystroke_k	k	n/a
7.6465	0.09	15293	keystroke_Key.space	Key.space	n/a
7.8865	0.1495	15773	keystroke_b	b	n/a
8.021	0.0895	16042	keystroke_r	r	n/a
8.1555	0.1655	16311	keystroke_o	o	n/a
8.306	0.1345	16612	keystroke_w	w	n/a
8.4555	0.075	16911	keystroke_n	n	n/a
8.5605	0.075	17121	keystroke_n	n	n/a
9.0105	0.15	18021	keystroke_Key.backspace	Key.backspace	n/a
9.4605	0.12	18921	keystroke_Key.space	Key.space	n/a
9.6405	0.135	19281	keystroke_f	f	n/a
10.032	0.119	20064	keystroke_o	o	n/a
10.076	0.166	20152	keystroke_x	x	n/a
10.286	0.135	20572	keystroke_Key.space	Key.space	n/a
10.467	0.1045	20934	keystroke_j	j	n/a
10.6765	0.09	21353	keystroke_u	u	n/a
10.8865	0.165	21773	keystroke_m	m	n/a
11.0065	0.18	22013	keystroke_p	p	n/a
11.1415	0.135	22283	keystroke_s	s	n/a
11.4865	0.134	22973	keystroke_Key.space	Key.space	n/a
11.6965	0.164	23393	keystroke_o	o	n/a
11.7865	0.15	23573	keystroke_v	v	n/a
11.9805	0.18	23961	keystroke_e	e	n/a
12.1155	0.12	24231	keystroke_r	r	n/a
12.2055	0.15	24411	keystroke_Key.space	Key.space	n/a
12.4005	0.105	24801	keystroke_a	a	n/a
12.5215	0.135	25043	keystroke_Key.space	Key.space	n/a
12.6715	0.195	25343	keystroke_l	l	n/a
12.7755	0.105	25551	keystroke_a	a	n/a
13.031	0.136	26062	keystroke_z	z	n/a
13.151	0.105	26302	keystroke_y	y	n/a
13.3015	0.18	26603	keystroke_Key.space	Key.space	n/a
13.4515	0.15	26903	keystroke_d	d	n/a
13.5715	0.135	27143	keystroke_o	o	n/a
13.7365	0.12	27473	keystroke_g	g	n/a
13.8715	0.135	27743	keystroke_Key.enter	Key.enter	n/a
14.0165	8.917	28033	prompt	n/a	confused geological locked shake\n
14.621	0.1505	29242	keystroke_c	c	n/a
14.7115	0.2095	29423	keystroke_o	o	n/a
14.8165	0.1495	29633	keystroke_n	n	n/a
14.936	0.135	29872	keystroke_f	f	n/a
15.116	0.105	30232	keystroke_u	u	n/a
15.236	0.1505	30472	keystroke_s	s	n/a
15.3115	0.15	30623	keystroke_e	e	n/a
15.8065	0.135	31613	keystroke_Key.space	Key.space	n/a
16.3765	0.12	32753	keystroke_g	g	n/a
16.4665	0.165	32933	keystroke_e	e	n/a
16.6465	0.09	33293	keystroke_l	l	n/a
16.8115	0.12	33623	keystroke_o	o	n/a
17.2015	0.045	34403	keystroke_Key.backspace	Key.backspace	n/a
17.3365	0.075	34673	keystroke_Key.backspace	Key.backspace	n/a
17.6815	0.015	35363	keystroke_l	l	n/a
18.1765	0.105	36353	keystroke_Key.backspace	Key.backspace	n/a
18.5065	0.075	37013	keystroke_o	o	n/a
18.5215	0.03	37043	keystroke_i	i	n/a
18.9565	0.12	37913	keystroke_Key.backspace	Key.backspace	n/a
19.5715	0.09	39143	keystroke_l	l	n/a
19.7365	0.15	39473	keystroke_o	o	n/a
19.8715	0.12	39743	keystroke_g	g	n/a
20.0215	0.135	40043	keystroke_i	i	n/a
20.1415	0.18	40283	keystroke_c	c	n/a
20.2615	0.165	40523	keystroke_a	a	n/a
20.3665	0.135	40733	keystroke_l	l	n/a
20.5615	0.15	41123	keystroke_Key.space	Key.space	n/a
20.9365	0.12	41873	keystroke_l	l	n/a
21.1465	0.165	42293	keystroke_o	o	n/a
21.2515	0.165	42503	keystroke_c	c	n/a
21.4315	0.15	42863	keystroke_k	k	n/a
21.5365	0.15	43073	keystroke_e	e	n/a
21.7915	0.12	43583	keystroke_d	d	n/a
21.9265	0.15	43853	keystroke_Key.space	Key.space	n/a
22.0465	0.15	44093	keystroke_s	s	n/a
22.2115	0.135	44423	keystroke_h	h	n/a
22.3315	0.15	44663	keystroke_a	a	n/a
22.4665	0.165	44933	keystroke_k	k	n/a
22.6165	0.15	45233	keystroke_e	e	n/a
22.7815	0.15	45563	keystroke_Key.enter	Key.enter	n/a
22.938	19.2715	45876	prompt	n/a	tennessee suggestion acquired homeland\n
23.4565	0.045	46913	keystroke_c	c	n/a
23.7115	0.12	47423	keystroke_Key.backspace	Key.backspace	n/a
23.9215	0.15	47843	keystroke_t	t	n/a
24.3265	0.135	48653	keystroke_e	e	n/a
24.5515	0.12	49103	keystroke_n	n	n/a
24.7615	0.12	49523	keystroke_n	n	n/a
24.8665	0.165	49733	keystroke_e	e	n/a
25.0165	0.255	50033	keystroke_s	s	n/a
25.3915	0.24	50783	keystroke_s	s	n/a
25.5865	0.21	51173	keystroke_e	e	n/a
26.5465	0.105	53093	keystroke_e	e	n/a
26.9365	0.12	53873	keystroke_Key.space	Key.space	n/a
27.5965	0.09	55193	keystroke_Key.backspace	Key.backspace	n/a
27.7765	0.06	55553	keystroke_Key.backspace	Key.backspace	n/a
27.8965	0.09	55793	keystroke_Key.backspace	Key.backspace	n/a
28.0465	0.09	56093	keystroke_Key.backspace	Key.backspace	n/a
28.2115	0.075	56423	keystroke_Key.backspace	Key.backspace	n/a
28.3615	0.09	56723	keystroke_Key.backspace	Key.backspace	n/a
29.3515	0.15	58703	keystroke_e	e	n/a
29.7415	0.075	59483	keystroke_s	s	n/a
29.9215	0.195	59843	keystroke_s	s	n/a
30.0865	0.135	60173	keystroke_e	e	n/a
30.2815	0.15	60563	keystroke_e	e	n/a
30.7765	0.09	61553	keystroke_Key.space	Key.space	n/a
31.1515	0.165	62303	keystroke_s	s	n/a
33.2815	0.075	66563	keystroke_u	u	n/a
35.2015	0.15	70403	keystroke_g	g	n/a
35.7265	0.105	71453	keystroke_e	e	n/a
36.0565	0.135	72113	keystroke_Key.backspace	Key.backspace	n/a
36.6115	0.075	73223	keystroke_g	g	n/a
37.0765	0.075	74153	keystroke_u	u	n/a
37.1665	0.15	74333	keystroke_e	e	n/a
37.3915	0.09	74783	keystroke_s	s	n/a
37.6015	0.105	75203	keystroke_Key.backspace	Key.backspace	n/a
37.7965	0.105	75593	keystroke_Key.backspace	Key.backspace	n/a
37.9915	0.075	75983	keystroke_Key.backspace	Key.backspace	n/a
38.0365	0.12	76073	keystroke_e	e	n/a
38.0965	0.21	76193	keystroke_s	s	n/a
38.3075	0.149	76615	keystroke_t	t	n/a
38.5765	0.15	77153	keystroke_i	i	n/a
38.6965	0.18	77393	keystroke_o	o	n/a
38.8165	0.135	77633	keystroke_n	n	n/a
38.9815	0.15	77963	keystroke_Key.space	Key.space	n/a
39.1465	0.15	78293	keystroke_a	a	n/a
39.3115	0.165	78623	keystroke_c	c	n/a
39.5815	0.165	79163	keystroke_q	q	n/a
39.8065	0.195	79613	keystroke_u	u	n/a
39.9115	0.195	79823	keystroke_i	i	n/a
40.0315	0.12	80063	keystroke_r	r	n/a
40.1215	0.12	80243	keystroke_e	e	n/a
40.3765	0.18	80753	keystroke_d	d	n/a
40.5575	0.134	81115	keystroke_Key.space	Key.space	n/a
40.7965	0.165	81593	keystroke_h	h	n/a
40.9315	0.195	81863	keystroke_o	o	n/a
41.0815	0.151	82163	keystroke_m	m	n/a
41.1565	0.105	82313	keystroke_e	e	n/a
41.3815	0.165	82763	keystroke_l	l	n/a
41.5165	0.105	83033	keystroke_a	a	n/a
41.6515	0.15	83303	keystroke_n	n	n/a
41.7865	0.12	83573	keystroke_d	d	n/a
42.0715	0.135	84143	keystroke_Key.enter	Key.enter	n/a
42.2145	7.705	84429	prompt	n/a	panasonic judy liabilities advertise\n
42.8815	0.15	85763	keystroke_p	p	n/a
42.9865	0.135	85973	keystroke_a	a	n/a
43.1515	0.12	86303	keystroke_n	n	n/a
43.2565	0.165	86513	keystroke_a	a	n/a
43.5415	0.135	87083	keystroke_s	s	n/a
43.8115	0.255	87623	keystroke_o	o	n/a
44.0515	0.24	88103	keystroke_n	n	n/a
44.2015	0.165	88403	keystroke_i	i	n/a
44.3065	0.12	88613	keystroke_c	c	n/a
44.5615	0.12	89123	keystroke_Key.space	Key.space	n/a
44.7415	0.105	89483	keystroke_j	j	n/a
44.9665	0.105	89933	keystroke_u	u	n/a
45.2515	0.06	90503	keystroke_d	d	n/a
45.5215	0.135	91043	keystroke_y	y	n/a
45.9265	0.15	91853	keystroke_Key.space	Key.space	n/a
46.1515	0.15	92303	keystroke_l	l	n/a
46.2715	0.15	92543	keystroke_i	i	n/a
46.4515	0.135	92903	keystroke_a	a	n/a
46.6015	0.135	93203	keystroke_b	b	n/a
46.9165	0.15	93833	keystroke_i	i	n/a
47.0965	0.225	94193	keystroke_l	l	n/a
47.2165	0.135	94433	keystroke_i	i	n/a
47.3365	0.12	94673	keystroke_t	t	n/a
47.5025	0.105	95005	keystroke_i	i	n/a
47.5915	0.196	95183	keystroke_e	e	n/a
47.7715	0.136	95543	keystroke_s	s	n/a
47.9365	0.135	95873	keystroke_Key.space	Key.space	n/a
48.1015	0.15	96203	keystroke_a	a	n/a
48.2815	0.15	96563	keystroke_d	d	n/a
48.5515	0.15	97103	keystroke_v	v	n/a
48.7165	0.18	97433	keystroke_e	e	n/a
48.8515	0.15	97703	keystroke_r	r	n/a
49.0465	0.181	98093	keystroke_t	t	n/a
49.2115	0.195	98423	keystroke_i	i	n/a
49.3315	0.165	98663	keystroke_s	s	n/a
49.4215	0.136	98843	keystroke_e	e	n/a
49.7825	0.134	99565	keystroke_Key.enter	Key.enter	n/a
49.9245	8.249	99849	prompt	n/a	specializing terrorism destination ambient\n
50.4415	0.12	100883	keystroke_s	s	n/a
50.6075	0.179	101215	keystroke_p	p	n/a
50.6965	0.165	101393	keystroke_e	e	n/a
50.9075	0.164	101815	keystroke_c	c	n/a
51.0875	0.149	102175	keystroke_i	i	n/a
51.2515	0.136	102503	keystroke_a	a	n/a
51.4315	0.255	102863	keystroke_l	l	n/a
51.5975	0.165	103195	keystroke_i	i	n/a
51.7475	0.135	103495	keystroke_z	z	n/a
51.9265	0.241	103853	keystroke_i	i	n/a
52.0925	0.149	104185	keystroke_n	n	n/a
52.2265	0.136	104453	keystroke_g	g	n/a
52.3765	0.135	104753	keystroke_Key.space	Key.space	n/a
52.5575	0.179	105115	keystroke_t	t	n/a
52.6915	0.225	105383	keystroke_e	e	n/a
52.8725	0.119	105745	keystroke_r	r	n/a
53.0515	0.165	106103	keystroke_r	r	n/a
53.2615	0.166	106523	keystroke_o	o	n/a
53.4415	0.105	106883	keystroke_r	r	n/a
53.5765	0.151	107153	keystroke_i	i	n/a
53.7565	0.12	107513	keystroke_s	s	n/a
53.8915	0.135	107783	keystroke_m	m	n/a
54.2075	0.134	108415	keystroke_Key.space	Key.space	n/a
54.2815	0.12	108563	keystroke_d	d	n/a
54.5215	0.166	109043	keystroke_e	e	n/a
54.6575	0.165	109315	keystroke_s	s	n/a
54.8665	0.136	109733	keystroke_t	t	n/a
55.0315	0.226	110063	keystroke_i	i	n/a
55.1675	0.149	110335	keystroke_n	n	n/a
55.6025	0.03	111205	keystroke_a	a	n/a
55.6175	0.12	111235	keystroke_t	t	n/a
55.7075	0.149	111415	keystroke_i	i	n/a
55.8125	0.164	111625	keystroke_o	o	n/a
55.9175	0.165	111835	keystroke_n	n	n/a
56.1265	0.135	112253	keystroke_Key.space	Key.space	n/a
56.3075	0.15	112615	keystroke_a	a	n/a
56.6075	0.09	113215	keystroke_m	m	n/a
56.9075	0.15	113815	keystroke_b	b	n/a
57.1475	0.165	114295	keystroke_i	i	n/a
57.2675	0.135	114535	keystroke_e	e	n/a
57.4325	0.104	114865	keystroke_n	n	n/a
57.5525	0.135	115105	keystroke_t	t	n/a
58.0175	0.149	116035	keystroke_Key.enter	Key.enter	n/a
58.1785	6.2645	116357	prompt	n/a	findlaw obviously carol assured\n
58.7375	0.135	117475	keystroke_f	f	n/a
58.8415	0.211	117683	keystroke_i	i	n/a
58.9325	0.135	117865	keystroke_n	n	n/a
59.0675	0.12	118135	keystroke_d	d	n/a
59.2025	0.195	118405	keystroke_l	l	n/a
59.3525	0.18	118705	keystroke_a	a	n/a
59.4875	0.15	118975	keystroke_w	w	n/a
59.8915	0.12	119783	keystroke_Key.space	Key.space	n/a
60.0275	0.225	120055	keystroke_o	o	n/a
60.2225	0.105	120445	keystroke_b	b	n/a
60.3425	0.134	120685	keystroke_v	v	n/a
60.5075	0.165	121015	keystroke_i	i	n/a
60.6575	0.255	121315	keystroke_o	o	n/a
60.8075	0.135	121615	keystroke_u	u	n/a
61.0925	0.12	122185	keystroke_s	s	n/a
61.3325	0.15	122665	keystroke_l	l	n/a
61.5575	0.105	123115	keystroke_y	y	n/a
61.8115	0.105	123623	keystroke_Key.space	Key.space	n/a
61.9475	0.15	123895	keystroke_c	c	n/a
62.0825	0.21	124165	keystroke_a	a	n/a
62.2775	0.135	124555	keystroke_r	r	n/a
62.3975	0.105	124795	keystroke_o	o	n/a
62.5925	0.18	125185	keystroke_l	l	n/a
62.7425	0.18	125485	keystroke_Key.space	Key.space	n/a
62.8325	0.225	125665	keystroke_a	a	n/a
62.9825	0.105	125965	keystroke_s	s	n/a
63.1625	0.12	126325	keystroke_s	s	n/a
63.3425	0.15	126685	keystroke_u	u	n/a
63.4475	0.15	126895	keystroke_r	r	n/a
63.5225	0.15	127045	keystroke_e	e	n/a
63.8375	0.15	127675	keystroke_d	d	n/a
64.4075	0.03	128815	keystroke_Key.enter	Key.enter	n/a
64.451	5.523	128902	prompt	n/a	trails barnes existed globe\n
65.2175	0.12	130435	keystroke_t	t	n/a
65.4425	0.165	130885	keystroke_r	r	n/a
65.5475	0.165	131095	keystroke_a	a	n/a
65.7275	0.18	131455	keystroke_i	i	n/a
65.8325	0.165	131665	keystroke_l	l	n/a
65.9225	0.15	131845	keystroke_s	s	n/a
66.1025	0.105	132205	keystroke_Key.space	Key.space	n/a
66.3275	0.15	132655	keystroke_b	b	n/a
66.4175	0.15	132835	keystroke_a	a	n/a
66.5075	0.15	133015	keystroke_r	r	n/a
66.7175	0.165	133435	keystroke_n	n	n/a
66.8075	0.21	133615	keystroke_e	e	n/a
66.9425	0.15	133885	keystroke_s	s	n/a
67.1075	0.135	134215	keystroke_Key.space	Key.space	n/a
67.3025	0.105	134605	keystroke_e	e	n/a
67.5725	0.18	135145	keystroke_x	x	n/a
67.8425	0.165	135685	keystroke_i	i	n/a
68.0675	0.135	136135	keystroke_s	s	n/a
68.3075	0.15	136615	keystroke_t	t	n/a
68.4125	0.15	136825	keystroke_e	e	n/a
68.6825	0.12	137365	keystroke_d	d	n/a
68.8175	0.135	137635	keystroke_Key.space	Key.space	n/a
68.9675	0.105	137935	keystroke_g	g	n/a
69.0875	0.09	138175	keystroke_l	l	n/a
69.2675	0.12	138535	keystroke_o	o	n/a
69.4775	0.195	138955	keystroke_b	b	n/a
69.5975	0.12	139195	keystroke_e	e	n/a
69.8225	0.15	139645	keystroke_Key.enter	Key.enter	n/a
69.979	6.0255	139958	prompt	n/a	stay looksmart mars stake\n
70.5875	0.195	141175	keystroke_s	s	n/a
70.7835	0.179	141567	keystroke_t	t	n/a
70.8725	0.18	141745	keystroke_a	a	n/a
71.1125	0.105	142225	keystroke_y	y	n/a
71.2925	0.165	142585	keystroke_Key.space	Key.space	n/a
71.4425	0.105	142885	keystroke_l	l	n/a
71.6375	0.075	143275	keystroke_o	o	n/a
71.7875	0.225	143575	keystroke_o	o	n/a
71.8775	0.015	143755	keystroke_k	k	n/a
71.9375	0.12	143875	keystroke_k	k	n/a
72.1175	0.135	144235	keystroke_s	s	n/a
72.4475	0.06	144895	keystroke_Key.backspace	Key.backspace	n/a
72.5825	0.12	145165	keystroke_Key.backspace	Key.backspace	n/a
72.8975	0.12	145795	keystroke_s	s	n/a
73.0925	0.135	146185	keystroke_m	m	n/a
73.2425	0.195	146485	keystroke_a	a	n/a
73.3925	0.135	146785	keystroke_r	r	n/a
73.6475	0.105	147295	keystroke_t	t	n/a
73.8275	0.135	147655	keystroke_Key.space	Key.space	n/a
74.1125	0.12	148225	keystroke_m	m	n/a
74.2175	0.195	148435	keystroke_a	a	n/a
74.3975	0.21	148795	keystroke_r	r	n/a
74.5775	0.165	149155	keystroke_s	s	n/a
74.8325	0.12	149665	keystroke_Key.space	Key.space	n/a
75.0575	0.18	150115	keystroke_s	s	n/a
75.2225	0.165	150445	keystroke_t	t	n/a
75.3275	0.15	150655	keystroke_a	a	n/a
75.5375	0.165	151075	keystroke_k	k	n/a
75.6275	0.15	151255	keystroke_e	e	n/a
75.8375	0.165	151675	keystroke_Key.enter	Key.enter	n/a
76.0095	6.355	152019	prompt	n/a	lesbian infection patio devon\n
76.5575	0.15	153115	keystroke_l	l	n/a
76.6175	0.21	153235	keystroke_e	e	n/a
76.7975	0.135	153595	keystroke_s	s	n/a
76.8875	0.165	153775	keystroke_b	b	n/a
77.2025	0.135	154405	keystroke_i	i	n/a
77.7875	0.12	155575	keystroke_a	a	n/a
78.1325	0.03	156265	keystroke_n	n	n/a
78.2525	0.03	156505	keystroke_n	n	n/a
78.7025	0.12	157405	keystroke_Key.backspace	Key.backspace	n/a
78.9725	0.18	157945	keystroke_Key.space	Key.space	n/a
79.1525	0.24	158305	keystroke_i	i	n/a
79.3325	0.09	158665	keystroke_n	n	n/a
79.4375	0.12	158875	keystroke_f	f	n/a
79.5425	0.135	159085	keystroke_e	e	n/a
79.7825	0.12	159565	keystroke_c	c	n/a
80.0525	0.12	160105	keystroke_t	t	n/a
80.1575	0.09	160315	keystroke_i	i	n/a
80.2025	0.21	160405	keystroke_o	o	n/a
80.3375	0.195	160675	keystroke_n	n	n/a
80.5025	0.18	161005	keystroke_Key.space	Key.space	n/a
80.6225	0.195	161245	keystroke_p	p	n/a
80.7725	0.15	161545	keystroke_a	a	n/a
80.8775	0.15	161755	keystroke_t	t	n/a
80.9825	0.165	161965	keystroke_i	i	n/a
81.0875	0.165	162175	keystroke_o	o	n/a
81.2075	0.165	162415	keystroke_Key.space	Key.space	n/a
81.3575	0.135	162715	keystroke_d	d	n/a
81.5525	0.15	163105	keystroke_e	e	n/a
81.7475	0.15	163495	keystroke_v	v	n/a
81.8675	0.195	163735	keystroke_o	o	n/a
81.9875	0.12	163975	keystroke_n	n	n/a
82.2425	0.12	164485	keystroke_Key.enter	Key.enter	n/a
82.37	4.824	164740	prompt	n/a	machines mounts animal monica\n
82.9625	0.135	165925	keystroke_m	m	n/a
83.0225	0.15	166045	keystroke_a	a	n/a
83.1875	0.135	166375	keystroke_c	c	n/a
83.2775	0.165	166555	keystroke_h	h	n/a
83.3825	0.24	166765	keystroke_i	i	n/a
83.5175	0.165	167035	keystroke_n	n	n/a
83.5775	0.165	167155	keystroke_e	e	n/a
83.6975	0.135	167395	keystroke_s	s	n/a
83.7875	0.225	167575	keystroke_Key.space	Key.space	n/a
83.9975	0.12	167995	keystroke_m	m	n/a
84.2075	0.135	168415	keystroke_o	o	n/a
84.2825	0.105	168565	keystroke_u	u	n/a
84.5075	0.135	169015	keystroke_n	n	n/a
84.6275	0.18	169255	keystroke_t	t	n/a
84.7175	0.15	169435	keystroke_s	s	n/a
84.9425	0.15	169885	keystroke_Key.space	Key.space	n/a
85.1675	0.135	170335	keystroke_a	a	n/a
85.2875	0.135	170575	keystroke_n	n	n/a
85.3925	0.21	170785	keystroke_i	i	n/a
85.4975	0.135	170995	keystroke_m	m	n/a
85.6475	0.165	171295	keystroke_a	a	n/a
85.7975	0.135	171595	keystroke_l	l	n/a
85.9625	0.21	171925	keystroke_Key.space	Key.space	n/a
86.1875	0.18	172375	keystroke_m	m	n/a
86.3225	0.195	172645	keystroke_o	o	n/a
86.4875	0.18	172975	keystroke_n	n	n/a
86.6225	0.165	173245	keystroke_i	i	n/a
86.7575	0.15	173515	keystroke_c	c	n/a
86.8475	0.165	173695	keystroke_a	a	n/a
87.0725	0.12	174145	keystroke_Key.enter	Key.enter	n/a
87.198	7.977	174396	prompt	n/a	that'll bandwidth juice trans\n
87.9275	0.12	175855	keystroke_t	t	n/a
88.0175	0.135	176035	keystroke_h	h	n/a
88.1225	0.15	176245	keystroke_a	a	n/a
88.4525	0.09	176905	keystroke_'	'	n/a
88.7525	0.12	177505	keystroke_Key.backspace	Key.backspace	n/a
88.8575	0.12	177715	keystroke_t	t	n/a
89.0525	0.135	178105	keystroke_'	'	n/a
89.2925	0.12	178585	keystroke_l	l	n/a
89.4885	0.134	178977	keystroke_l	l	n/a
89.6675	0.15	179335	keystroke_Key.space	Key.space	n/a
89.9375	0.135	179875	keystroke_b	b	n/a
90.0425	0.105	180085	keystroke_a	a	n/a
90.1925	0.135	180385	keystroke_n	n	n/a
90.3425	0.105	180685	keystroke_d	d	n/a
90.5825	0.15	181165	keystroke_w	w	n/a
90.7325	0.165	181465	keystroke_i	i	n/a
90.8825	0.12	181765	keystroke_t	t	n/a
91.0475	0.15	182095	keystroke_h	h	n/a
91.7225	0.105	183445	keystroke_Key.backspace	Key.backspace	n/a
91.9025	0.12	183805	keystroke_Key.backspace	Key.backspace	n/a
92.0375	0.18	184075	keystroke_d	d	n/a
92.5775	0.135	185155	keystroke_t	t	n/a
92.8025	0.045	185605	keystroke_h	h	n/a
93.2075	0.15	186415	keystroke_Key.space	Key.space	n/a
93.4325	0.105	186865	keystroke_j	j	n/a
93.6585	0.089	187317	keystroke_u	u	n/a
93.7325	0.15	187465	keystroke_i	i	n/a
93.8675	0.135	187735	keystroke_c	c	n/a
93.9275	0.165	187855	keystroke_e	e	n/a
94.0475	0.135	188095	keystroke_Key.space	Key.space	n/a
94.2275	0.105	188455	keystroke_t	t	n/a
94.4375	0.15	188875	keystroke_r	r	n/a
94.5125	0.165	189025	keystroke_a	a	n/a
94.6925	0.136	189385	keystroke_n	n	n/a
94.8425	0.12	189685	keystroke_s	s	n/a
95.0525	0.12	190105	keystroke_Key.enter	Key.enter	n/a
95.1795	6.2655	190359	prompt	n/a	stevens philip capital algebra\n
95.6525	0.225	191305	keystroke_s	s	n/a
95.8925	0.166	191785	keystroke_t	t	n/a
96.0425	0.165	192085	keystroke_e	e	n/a
96.3125	0.151	192625	keystroke_v	v	n/a
96.4175	0.12	192835	keystroke_e	e	n/a
96.5525	0.105	193105	keystroke_n	n	n/a
96.7025	0.12	193405	keystroke_s	s	n/a
97.0625	0.09	194125	keystroke_Key.space	Key.space	n/a
97.3325	0.18	194665	keystroke_p	p	n/a
97.4975	0.24	194995	keystroke_h	h	n/a
97.6325	0.18	195265	keystroke_i	i	n/a
97.8275	0.21	195655	keystroke_l	l	n/a
98.0975	0.181	196195	keystroke_i	i	n/a
98.3225	0.18	196645	keystroke_p	p	n/a
98.6825	0.12	197365	keystroke_Key.space	Key.space	n/a
98.8925	0.165	197785	keystroke_c	c	n/a
98.9825	0.225	197965	keystroke_a	a	n/a
99.1175	0.18	198235	keystroke_p	p	n/a
99.3425	0.135	198685	keystroke_i	i	n/a
99.4475	0.1645	198895	keystroke_t	t	n/a
99.5375	0.1795	199075	keystroke_a	a	n/a
99.733	0.119	199466	keystroke_l	l	n/a
99.9425	0.1345	199885	keystroke_Key.space	Key.space	n/a
100.122	0.1365	200244	keystroke_a	a	n/a
100.2725	0.105	200545	keystroke_l	l	n/a
100.422	0.181	200844	keystroke_g	g	n/a
100.572	0.165	201144	keystroke_e	e	n/a
100.798	0.149	201596	keystroke_b	b	n/a
100.932	0.15	201864	keystroke_r	r	n/a
101.007	0.195	202014	keystroke_a	a	n/a
101.292	0.15	202584	keystroke_Key.enter	Key.enter	n/a
101.4505	11.604	202901	prompt	n/a	obligations issn suitable boutique\n
102.132	0.135	204264	keystroke_o	o	n/a
102.327	0.1945	204654	keystroke_b	b	n/a
102.5075	0.179	205015	keystroke_l	l	n/a
102.6265	0.165	205253	keystroke_i	i	n/a
103.0015	0.151	206003	keystroke_g	g	n/a
103.1365	0.18	206273	keystroke_a	a	n/a
103.3025	0.15	206605	keystroke_t	t	n/a
103.4665	0.121	206933	keystroke_i	i	n/a
103.5275	0.225	207055	keystroke_o	o	n/a
103.6915	0.106	207383	keystroke_n	n	n/a
103.7975	0.134	207595	keystroke_s	s	n/a
103.9915	0.15	207983	keystroke_Key.space	Key.space	n/a
104.1865	0.165	208373	keystroke_i	i	n/a
104.4725	0.104	208945	keystroke_s	s	n/a
104.6815	0.105	209363	keystroke_s	s	n/a
104.8325	0.119	209665	keystroke_n	n	n/a
105.1465	0.135	210293	keystroke_Key.space	Key.space	n/a
105.6725	0.119	211345	keystroke_s	s	n/a
105.8225	0.165	211645	keystroke_u	u	n/a
105.9125	0.195	211825	keystroke_i	i	n/a
106.1515	0.121	212303	keystroke_t	t	n/a
106.3475	0.075	212695	keystroke_t	t	n/a
106.7515	0.135	213503	keystroke_Key.backspace	Key.backspace	n/a
107.0375	0.135	214075	keystroke_a	a	n/a
107.3975	0.149	214795	keystroke_b	b	n/a
107.5325	0.18	215065	keystroke_l	l	n/a
107.6525	0.134	215305	keystroke_e	e	n/a
107.9065	0.15	215813	keystroke_Key.space	Key.space	n/a
108.3415	0.106	216683	keystroke_b	b	n/a
108.4915	0.225	216983	keystroke_o	o	n/a
108.7915	0.076	217583	keystroke_q	q	n/a
109.1815	0.12	218363	keystroke_Key.backspace	Key.backspace	n/a
109.4665	0.151	218933	keystroke_u	u	n/a
109.6765	0.196	219353	keystroke_q	q	n/a
110.1115	0.105	220223	keystroke_Key.backspace	Key.backspace	n/a
110.1725	0.18	220345	keystroke_t	t	n/a
110.3375	0.09	220675	keystroke_q	q	n/a
111.4315	0.09	222863	keystroke_Key.backspace	Key.backspace	n/a
111.7775	0.105	223555	keystroke_i	i	n/a
111.8975	0.135	223795	keystroke_q	q	n/a
112.0925	0.135	224185	keystroke_u	u	n/a
112.2415	0.12	224483	keystroke_e	e	n/a
112.9025	0.15	225805	keystroke_Key.enter	Key.enter	n/a
113.059	6.865	226118	prompt	n/a	limiting beings arbitration rebate\n
113.6365	0.136	227273	keystroke_l	l	n/a
113.7125	0.225	227425	keystroke_i	i	n/a
113.9065	0.181	227813	keystroke_m	m	n/a
114.1325	0.195	228265	keystroke_i	i	n/a
114.5075	0.165	229015	keystroke_t	t	n/a
114.6575	0.225	229315	keystroke_i	i	n/a
114.7775	0.12	229555	keystroke_n	n	n/a
114.9125	0.135	229825	keystroke_g	g	n/a
115.0165	0.105	230033	keystroke_Key.space	Key.space	n/a
115.2275	0.134	230455	keystroke_b	b	n/a
115.3475	0.15	230695	keystroke_e	e	n/a
115.4675	0.24	230935	keystroke_i	i	n/a
115.5875	0.149	231175	keystroke_n	n	n/a
115.7225	0.134	231445	keystroke_g	g	n/a
115.8275	0.12	231655	keystroke_s	s	n/a
115.9625	0.135	231925	keystroke_Key.space	Key.space	n/a
116.1865	0.196	232373	keystroke_a	a	n/a
116.3525	0.12	232705	keystroke_r	r	n/a
116.6075	0.12	233215	keystroke_b	b	n/a
116.8025	0.15	233605	keystroke_i	i	n/a
116.9675	0.135	233935	keystroke_t	t	n/a
117.2225	0.179	234445	keystroke_r	r	n/a
117.3275	0.21	234655	keystroke_a	a	n/a
117.5375	0.12	235075	keystroke_t	t	n/a
117.6875	0.164	235375	keystroke_i	i	n/a
117.7625	0.225	235525	keystroke_o	o	n/a
117.9275	0.165	235855	keystroke_n	n	n/a
118.2715	0.136	236543	keystroke_Key.space	Key.space	n/a
118.5425	0.165	237085	keystroke_r	r	n/a
118.6625	0.165	237325	keystroke_e	e	n/a
118.8725	0.135	237745	keystroke_b	b	n/a
119.0375	0.165	238075	keystroke_a	a	n/a
119.2175	0.12	238435	keystroke_t	t	n/a
119.4575	0.135	238915	keystroke_e	e	n/a
119.7875	0.135	239575	keystroke_Key.enter	Key.enter	n/a
119.9295	7.12	239859	prompt	n/a	supplies microphone then sequences\n
120.4625	0.12	240925	keystroke_s	s	n/a
120.6275	0.15	241255	keystroke_u	u	n/a
120.7625	0.135	241525	keystroke_p	p	n/a
120.9575	0.135	241915	keystroke_p	p	n/a
121.2115	0.241	242423	keystroke_l	l	n/a
121.3625	0.18	242725	keystroke_i	i	n/a
121.4825	0.18	242965	keystroke_e	e	n/a
121.5575	0.15	243115	keystroke_s	s	n/a
121.7525	0.135	243505	keystroke_Key.space	Key.space	n/a
121.9175	0.165	243835	keystroke_m	m	n/a
122.0525	0.165	244105	keystroke_i	i	n/a
122.2325	0.105	244465	keystroke_c	c	n/a
122.5625	0.15	245125	keystroke_r	r	n/a
122.6825	0.135	245365	keystroke_o	o	n/a
122.8925	0.18	245785	keystroke_p	p	n/a
123.0575	0.195	246115	keystroke_h	h	n/a
123.2075	0.225	246415	keystroke_o	o	n/a
123.3725	0.105	246745	keystroke_n	n	n/a
123.4475	0.135	246895	keystroke_e	e	n/a
123.6125	0.15	247225	keystroke_Key.space	Key.space	n/a
123.7325	0.15	247465	keystroke_t	t	n/a
123.8825	0.09	247765	keystroke_h	h	n/a
123.9875	0.105	247975	keystroke_e	e	n/a
124.1075	0.15	248215	keystroke_n	n	n/a
124.2425	0.15	248485	keystroke_Key.space	Key.space	n/a
124.5275	0.135	249055	keystroke_s	s	n/a
124.7525	0.135	249505	keystroke_e	e	n/a
124.9775	0.18	249955	keystroke_q	q	n/a
125.2025	0.15	250405	keystroke_u	u	n/a
125.4575	0.135	250915	keystroke_e	e	n/a
125.9225	0.09	251845	keystroke_n	n	n/a
126.1325	0.225	252265	keystroke_c	c	n/a
126.3275	0.195	252655	keystroke_e	e	n/a
126.4475	0.18	252895	keystroke_s	s	n/a
126.8975	0.15	253795	keystroke_Key.enter	Key.enter	n/a
127.0555	5.7085	254111	prompt	n/a	monitoring charles tables tribute\n
127.6625	0.15	255325	keystroke_m	m	n/a
127.7825	0.225	255565	keystroke_o	o	n/a
127.9325	0.225	255865	keystroke_n	n	n/a
128.0825	0.165	256165	keystroke_i	i	n/a
128.2625	0.165	256525	keystroke_t	t	n/a
128.4125	0.165	256825	keystroke_o	o	n/a
128.5625	0.15	257125	keystroke_r	r	n/a
128.7275	0.255	257455	keystroke_i	i	n/a
128.8925	0.135	257785	keystroke_n	n	n/a
129.0425	0.12	258085	keystroke_g	g	n/a
129.1475	0.1195	258295	keystroke_Key.space	Key.space	n/a
129.312	0.166	258624	keystroke_c	c	n/a
129.417	0.135	258834	keystroke_h	h	n/a
129.522	0.165	259044	keystroke_a	a	n/a
129.642	0.136	259284	keystroke_r	r	n/a
129.792	0.15	259584	keystroke_l	l	n/a
129.927	0.18	259854	keystroke_e	e	n/a
130.002	0.195	260004	keystroke_s	s	n/a
130.212	0.15	260424	keystroke_Key.space	Key.space	n/a
130.377	0.165	260754	keystroke_t	t	n/a
130.497	0.15	260994	keystroke_a	a	n/a
130.662	0.165	261324	keystroke_b	b	n/a
130.767	0.21	261534	keystroke_l	l	n/a
130.887	0.166	261774	keystroke_e	e	n/a
130.993	0.134	261986	keystroke_s	s	n/a
131.217	0.15	262434	keystroke_Key.space	Key.space	n/a
131.503	0.149	263006	keystroke_t	t	n/a
131.757	0.121	263514	keystroke_r	r	n/a
131.848	0.164	263696	keystroke_i	i	n/a
132.042	0.12	264084	keystroke_b	b	n/a
132.297	0.136	264594	keystroke_u	u	n/a
132.402	0.12	264804	keystroke_t	t	n/a
132.447	0.15	264894	keystroke_e	e	n/a
132.627	0.135	265254	keystroke_Key.enter	Key.enter	n/a
132.7685	9.056	265537	prompt	n/a	primarily investigation grades works\n
135.181	0.086	270362	keystroke_p	p	n/a
135.237	0.15	270474	keystroke_r	r	n/a
135.358	0.254	270716	keystroke_i	i	n/a
135.537	0.12	271074	keystroke_m	m	n/a
135.687	0.21	271374	keystroke_a	a	n/a
135.867	0.15	271734	keystroke_r	r	n/a
136.033	0.15	272066	keystroke_i	i	n/a
136.122	0.181	272244	keystroke_l	l	n/a
136.407	0.12	272814	keystroke_y	y	n/a
136.617	0.135	273234	keystroke_Key.space	Key.space	n/a
136.873	0.21	273746	keystroke_i	i	n/a
136.962	0.165	273924	keystroke_n	n	n/a
137.188	0.165	274376	keystroke_v	v	n/a
137.338	0.194	274676	keystroke_e	e	n/a
137.473	0.225	274946	keystroke_s	s	n/a
137.667	0.135	275334	keystroke_t	t	n/a
137.803	0.149	275606	keystroke_i	i	n/a
138.193	0.18	276386	keystroke_g	g	n/a
138.373	0.164	276746	keystroke_a	a	n/a
138.523	0.134	277046	keystroke_t	t	n/a
138.643	0.135	277286	keystroke_i	i	n/a
138.732	0.211	277464	keystroke_o	o	n/a
138.853	0.164	277706	keystroke_n	n	n/a
139.032	0.135	278064	keystroke_Key.space	Key.space	n/a
139.182	0.121	278364	keystroke_g	g	n/a
139.453	0.164	278906	keystroke_r	r	n/a
139.587	0.105	279174	keystroke_a	a	n/a
139.798	0.15	279596	keystroke_d	d	n/a
140.053	0.195	280106	keystroke_e	e	n/a
140.203	0.105	280406	keystroke_s	s	n/a
140.802	0.15	281604	keystroke_Key.space	Key.space	n/a
141.043	0.12	282086	keystroke_w	w	n/a
141.148	0.119	282296	keystroke_o	o	n/a
141.253	0.105	282506	keystroke_r	r	n/a
141.387	0.166	282774	keystroke_k	k	n/a
141.478	0.12	282956	keystroke_s	s	n/a
141.673	0.15	283346	keystroke_Key.enter	Key.enter	n/a
141.832	10.252	283664	prompt	n/a	cool generating came chemicals\n
142.363	0.165	284726	keystroke_c	c	n/a
142.423	0.12	284846	keystroke_o	o	n/a
142.633	0.06	285266	keystroke_o	o	n/a
142.812	0.106	285624	keystroke_l	l	n/a
142.962	0.136	285924	keystroke_Key.space	Key.space	n/a
143.173	0.165	286346	keystroke_g	g	n/a
143.323	0.135	286646	keystroke_e	e	n/a
143.443	0.12	286886	keystroke_n	n	n/a
143.578	0.179	287156	keystroke_e	e	n/a
143.698	0.21	287396	keystroke_r	r	n/a
143.833	0.195	287666	keystroke_a	a	n/a
144.013	0.18	288026	keystroke_t	t	n/a
144.118	0.06	288236	keystroke_e	e	n/a
144.253	0.045	288506	keystroke_t	t	n/a
144.492	0.061	288984	keystroke_Key.backspace	Key.backspace	n/a
144.627	0.106	289254	keystroke_Key.backspace	Key.backspace	n/a
145.648	0.254	291296	keystroke_i	i	n/a
145.828	0.134	291656	keystroke_n	n	n/a
145.978	0.15	291956	keystroke_g	g	n/a
146.112	0.106	292224	keystroke_Key.space	Key.space	n/a
146.668	0.225	293336	keystroke_c	c	n/a
146.863	0.18	293726	keystroke_a	a	n/a
147.028	0.105	294056	keystroke_m	m	n/a
147.148	0.089	294296	keystroke_e	e	n/a
147.253	0.104	294506	keystroke_Key.space	Key.space	n/a
147.388	0.06	294776	keystroke_c	c	n/a
147.463	0.105	294926	keystroke_c	c	n/a
147.628	0.105	295256	keystroke_h	h	n/a
147.777	0.061	295554	keystroke_e	e	n/a
147.943	0.089	295886	keystroke_Key.backspace	Key.backspace	n/a
148.093	0.059	296186	keystroke_Key.backspace	Key.backspace	n/a
148.227	0.091	296454	keystroke_Key.backspace	Key.backspace	n/a
148.468	0.12	296936	keystroke_h	h	n/a
148.828	0.045	297656	keystroke_e	e	n/a
149.143	0.105	298286	keystroke_m	m	n/a
149.323	0.045	298646	keystroke_m	m	n/a
149.338	0.135	298676	keystroke_i	i	n/a
149.443	0.15	298886	keystroke_c	c	n/a
149.518	0.18	299036	keystroke_a	a	n/a
149.638	0.135	299276	keystroke_l	l	n/a
150.043	0.09	300086	keystroke_Key.backspace	Key.backspace	n/a
150.193	0.075	300386	keystroke_Key.backspace	Key.backspace	n/a
150.328	0.09	300656	keystroke_Key.backspace	Key.backspace	n/a
150.523	0.12	301046	keystroke_Key.backspace	Key.backspace	n/a
151.003	0.075	302006	keystroke_Key.backspace	Key.backspace	n/a
151.273	0.15	302546	keystroke_i	i	n/a
151.438	0.165	302876	keystroke_c	c	n/a
151.528	0.165	303056	keystroke_a	a	n/a
151.678	0.12	303356	keystroke_l	l	n/a
151.783	0.105	303566	keystroke_s	s	n/a
151.963	0.12	303926	keystroke_Key.enter	Key.enter	n/a
152.0885	7.331	304177	prompt	n/a	rose portland nearby browse\n
153.988	0.135	307976	keystroke_r	r	n/a
154.138	0.15	308276	keystroke_o	o	n/a
154.243	0.165	308486	keystroke_s	s	n/a
154.363	0.12	308726	keystroke_e	e	n/a
154.498	0.135	308996	keystroke_Key.space	Key.space	n/a
154.693	0.195	309386	keystroke_p	p	n/a
154.813	0.195	309626	keystroke_o	o	n/a
154.918	0.105	309836	keystroke_r	r	n/a
155.128	0.18	310256	keystroke_t	t	n/a
155.398	0.15	310796	keystroke_l	l	n/a
155.518	0.12	311036	keystroke_a	a	n/a
155.698	0.105	311396	keystroke_n	n	n/a
155.833	0.135	311666	keystroke_d	d	n/a
155.998	0.12	311996	keystroke_Key.space	Key.space	n/a
156.253	0.135	312506	keystroke_n	n	n/a
156.403	0.165	312806	keystroke_e	e	n/a
156.508	0.179	313016	keystroke_a	a	n/a
156.627	0.166	313254	keystroke_r	r	n/a
156.867	0.0905	313734	keystroke_b	b	n/a
157.152	0.121	314304	keystroke_y	y	n/a
157.362	0.105	314724	keystroke_Key.space	Key.space	n/a
157.587	0.15	315174	keystroke_b	b	n/a
157.708	0.179	315416	keystroke_r	r	n/a
157.902	0.061	315804	keystroke_w	w	n/a
158.352	0.075	316704	keystroke_Key.backspace	Key.backspace	n/a
158.623	0.135	317246	keystroke_o	o	n/a
158.712	0.136	317424	keystroke_w	w	n/a
158.967	0.18	317934	keystroke_s	s	n/a
159.132	0.136	318264	keystroke_e	e	n/a
159.327	0.09	318654	keystroke_Key.enter	Key.enter	n/a
159.4235	6.776	318847	prompt	n/a	usgs replacing isolated consisting\n
160.257	0.105	320514	keystroke_u	u	n/a
160.377	0.12	320754	keystroke_s	s	n/a
161.202	0.18	322404	keystroke_g	g	n/a
161.337	0.15	322674	keystroke_s	s	n/a
161.607	0.135	323214	keystroke_Key.space	Key.space	n/a
162.073	0.164	324146	keystroke_r	r	n/a
162.177	0.18	324354	keystroke_e	e	n/a
162.343	0.135	324686	keystroke_p	p	n/a
162.582	0.15	325164	keystroke_l	l	n/a
162.672	0.135	325344	keystroke_a	a	n/a
162.823	0.149	325646	keystroke_c	c	n/a
162.957	0.195	325914	keystroke_i	i	n/a
163.062	0.12	326124	keystroke_n	n	n/a
163.198	0.119	326396	keystroke_g	g	n/a
163.287	0.181	326574	keystroke_Key.space	Key.space	n/a
163.423	0.15	326846	keystroke_i	i	n/a
163.588	0.12	327176	keystroke_s	s	n/a
163.723	0.09	327446	keystroke_o	o	n/a
164.052	0.031	328104	keystroke_l	l	n/a
164.068	0.12	328136	keystroke_a	a	n/a
164.158	0.149	328316	keystroke_t	t	n/a
164.262	0.166	328524	keystroke_e	e	n/a
164.532	0.135	329064	keystroke_Key.space	Key.space	n/a
164.608	0.18	329216	keystroke_c	c	n/a
164.803	0.18	329606	keystroke_o	o	n/a
164.923	0.12	329846	keystroke_n	n	n/a
165.012	0.106	330024	keystroke_s	s	n/a
165.163	0.135	330326	keystroke_i	i	n/a
165.237	0.196	330474	keystroke_s	s	n/a
165.462	0.15	330924	keystroke_t	t	n/a
165.628	0.21	331256	keystroke_i	i	n/a
165.748	0.165	331496	keystroke_n	n	n/a
165.928	0.104	331856	keystroke_g	g	n/a
166.107	0.091	332214	keystroke_Key.enter	Key.enter	n/a
166.204	7.015	332408	prompt	n/a	leisure humor ncaa bryant\n
167.893	0.15	335786	keystroke_l	l	n/a
168.013	0.18	336026	keystroke_e	e	n/a
168.883	0.105	337766	keystroke_i	i	n/a
169.003	0.12	338006	keystroke_s	s	n/a
169.348	0.12	338696	keystroke_u	u	n/a
169.483	0.12	338966	keystroke_r	r	n/a
169.558	0.135	339116	keystroke_e	e	n/a
169.648	0.104	339296	keystroke_Key.space	Key.space	n/a
169.813	0.105	339626	keystroke_h	h	n/a
169.993	0.089	339986	keystroke_u	u	n/a
170.203	0.18	340406	keystroke_m	m	n/a
170.308	0.18	340616	keystroke_o	o	n/a
170.443	0.15	340886	keystroke_r	r	n/a
170.563	0.104	341126	keystroke_Key.space	Key.space	n/a
170.893	0.12	341786	keystroke_n	n	n/a
171.178	0.15	342356	keystroke_c	c	n/a
171.463	0.105	342926	keystroke_a	a	n/a
171.673	0.12	343346	keystroke_a	a	n/a
171.807	0.09	343614	keystroke_Key.space	Key.space	n/a
172.003	0.12	344006	keystroke_b	b	n/a
172.138	0.12	344276	keystroke_r	r	n/a
172.363	0.135	344726	keystroke_y	y	n/a
172.528	0.18	345056	keystroke_a	a	n/a
172.693	0.15	345386	keystroke_n	n	n/a
172.918	0.12	345836	keystroke_t	t	n/a
173.098	0.119	346196	keystroke_Key.enter	Key.enter	n/a
173.2235	9.461	346447	prompt	n/a	becomes sport andreas oasis\n
175.531	0.072	351062	keystroke_b	b	n/a
175.828	0.135	351656	keystroke_e	e	n/a
176.1875	0.135	352375	keystroke_c	c	n/a
176.428	0.2695	352856	keystroke_o	o	n/a
176.6225	0.18	353245	keystroke_m	m	n/a
176.7875	0.15	353575	keystroke_e	e	n/a
176.8775	0.15	353755	keystroke_s	s	n/a
177.1025	0.135	354205	keystroke_Key.space	Key.space	n/a
177.2985	0.119	354597	keystroke_s	s	n/a
177.4625	0.195	354925	keystroke_p	p	n/a
177.5825	0.21	355165	keystroke_o	o	n/a
177.7325	0.1045	355465	keystroke_r	r	n/a
177.9725	0.151	355945	keystroke_t	t	n/a
178.1235	0.119	356247	keystroke_Key.space	Key.space	n/a
178.3325	0.12	356665	keystroke_a	a	n/a
178.4675	0.12	356935	keystroke_n	n	n/a
178.6025	0.15	357205	keystroke_d	d	n/a
178.9025	0.18	357805	keystroke_r	r	n/a
179.0225	0.15	358045	keystroke_e	e	n/a
179.112	0.1505	358224	keystroke_s	s	n/a
179.6825	0.1345	359365	keystroke_Key.backspace	Key.backspace	n/a
179.7585	0.224	359517	keystroke_a	a	n/a
179.8935	0.164	359787	keystroke_s	s	n/a
180.2675	0.105	360535	keystroke_Key.space	Key.space	n/a
181.2425	0.21	362485	keystroke_o	o	n/a
181.3025	0.165	362605	keystroke_u	u	n/a
181.767	0.12	363534	keystroke_Key.backspace	Key.backspace	n/a
181.9025	0.2245	363805	keystroke_a	a	n/a
182.0675	0.1345	364135	keystroke_s	s	n/a
182.262	0.1655	364524	keystroke_i	i	n/a
182.3825	0.105	364765	keystroke_s	s	n/a
182.5625	0.12	365125	keystroke_Key.enter	Key.enter	n/a
182.6905	8.739	365381	prompt	n/a	overseas pursuit hello cardiovascular\n
183.297	0.18	366594	keystroke_o	o	n/a
183.418	0.15	366836	keystroke_v	v	n/a
183.582	0.195	367164	keystroke_e	e	n/a
183.7185	0.1785	367437	keystroke_r	r	n/a
184.017	0.06	368034	keystroke_a	a	n/a
184.302	0.12	368604	keystroke_Key.backspace	Key.backspace	n/a
184.393	0.1495	368786	keystroke_s	s	n/a
184.4825	0.195	368965	keystroke_e	e	n/a
184.647	0.255	369294	keystroke_a	a	n/a
184.812	0.181	369624	keystroke_s	s	n/a
185.097	0.1505	370194	keystroke_Key.space	Key.space	n/a
185.368	0.2395	370736	keystroke_p	p	n/a
185.5775	0.165	371155	keystroke_u	u	n/a
185.7575	0.136	371515	keystroke_r	r	n/a
186.1025	0.091	372205	keystroke_Key.backspace	Key.backspace	n/a
186.2235	0.104	372447	keystroke_s	s	n/a
186.702	0.1055	373404	keystroke_Key.backspace	Key.backspace	n/a
186.762	0.106	373524	keystroke_r	r	n/a
187.1075	0.1195	374215	keystroke_s	s	n/a
187.242	0.165	374484	keystroke_u	u	n/a
187.348	0.134	374696	keystroke_i	i	n/a
187.4985	0.09	374997	keystroke_t	t	n/a
187.572	0.12	375144	keystroke_Key.space	Key.space	n/a
187.768	0.135	375536	keystroke_h	h	n/a
187.873	0.15	375746	keystroke_e	e	n/a
188.0075	0.0745	376015	keystroke_l	l	n/a
188.143	0.089	376286	keystroke_l	l	n/a
188.3235	0.1335	376647	keystroke_o	o	n/a
188.472	0.1205	376944	keystroke_Key.space	Key.space	n/a
188.6985	0.1345	377397	keystroke_c	c	n/a
188.788	0.194	377576	keystroke_a	a	n/a
188.9375	0.12	377875	keystroke_r	r	n/a
189.162	0.105	378324	keystroke_d	d	n/a
189.343	0.15	378686	keystroke_i	i	n/a
189.583	0.164	379166	keystroke_v	v	n/a
189.688	0.255	379376	keystroke_a	a	n/a
189.882	0.166	379764	keystroke_s	s	n/a
190.182	0.181	380364	keystroke_c	c	n/a
190.333	0.165	380666	keystroke_u	u	n/a
190.452	0.18	380904	keystroke_l	l	n/a
190.5735	0.2245	381147	keystroke_a	a	n/a
190.932	0.195	381864	keystroke_r	r	n/a
191.307	0.1205	382614	keystroke_Key.enter	Key.enter	n/a
191.436	6.8495	382872	prompt	n/a	relates daughter maryland listprice\n
192.223	0.165	384446	keystroke_r	r	n/a
192.343	0.209	384686	keystroke_e	e	n/a
192.538	0.15	385076	keystroke_l	l	n/a
192.703	0.149	385406	keystroke_a	a	n/a
192.822	0.18	385644	keystroke_t	t	n/a
192.927	0.196	385854	keystroke_e	e	n/a
193.063	0.119	386126	keystroke_s	s	n/a
193.183	0.134	386366	keystroke_Key.space	Key.space	n/a
193.332	0.2115	386664	keystroke_d	d	n/a
193.5285	0.224	387057	keystroke_a	a	n/a
193.9485	0.105	387897	keystroke_u	u	n/a
194.1285	0.15	388257	keystroke_g	g	n/a
194.4435	0.15	388887	keystroke_h	h	n/a
194.6085	0.15	389217	keystroke_t	t	n/a
194.7435	0.195	389487	keystroke_e	e	n/a
194.8935	0.135	389787	keystroke_r	r	n/a
194.9685	0.15	389937	keystroke_Key.space	Key.space	n/a
195.1935	0.135	390387	keystroke_m	m	n/a
195.3135	0.165	390627	keystroke_a	a	n/a
195.4335	0.105	390867	keystroke_r	r	n/a
195.5535	0.105	391107	keystroke_y	y	n/a
195.7785	0.105	391557	keystroke_l	l	n/a
196.003	0.165	392006	keystroke_a	a	n/a
196.213	0.12	392426	keystroke_n	n	n/a
196.303	0.165	392606	keystroke_d	d	n/a
196.513	0.135	393026	keystroke_Key.space	Key.space	n/a
196.768	0.165	393536	keystroke_l	l	n/a
196.918	0.105	393836	keystroke_i	i	n/a
197.188	0.165	394376	keystroke_s	s	n/a
197.338	0.12	394676	keystroke_t	t	n/a
197.503	0.165	395006	keystroke_p	p	n/a
197.653	0.105	395306	keystroke_r	r	n/a
197.773	0.195	395546	keystroke_i	i	n/a
197.923	0.15	395846	keystroke_c	c	n/a
198.028	0.135	396056	keystroke_e	e	n/a
198.193	0.09	396386	keystroke_Key.enter	Key.enter	n/a
198.2915	11.408	396583	prompt	n/a	cnet missed important epinions\n
200.957	0.086	401914	keystroke_c	c	n/a
200.983	0.18	401966	keystroke_e	e	n/a
201.193	0.12	402386	keystroke_n	n	n/a
201.343	0.15	402686	keystroke_t	t	n/a
201.553	0.12	403106	keystroke_Key.space	Key.space	n/a
201.943	0.06	403886	keystroke_Key.backspace	Key.backspace	n/a
202.078	0.105	404156	keystroke_Key.backspace	Key.backspace	n/a
202.243	0.075	404486	keystroke_Key.backspace	Key.backspace	n/a
202.423	0.105	404846	keystroke_Key.backspace	Key.backspace	n/a
202.858	0.075	405716	keystroke_n	n	n/a
203.128	0.165	406256	keystroke_e	e	n/a
203.248	0.15	406496	keystroke_t	t	n/a
203.458	0.18	406916	keystroke_Key.space	Key.space	n/a
203.908	0.21	407816	keystroke_m	m	n/a
204.088	0.135	408176	keystroke_i	i	n/a
204.208	0.09	408416	keystroke_s	s	n/a
204.418	0.165	408836	keystroke_s	s	n/a
204.493	0.165	408986	keystroke_e	e	n/a
204.793	0.105	409586	keystroke_d	d	n/a
204.973	0.135	409946	keystroke_Key.space	Key.space	n/a
205.123	0.24	410246	keystroke_i	i	n/a
205.243	0.15	410486	keystroke_m	m	n/a
205.408	0.165	410816	keystroke_p	p	n/a
205.528	0.15	411056	keystroke_o	o	n/a
205.618	0.15	411236	keystroke_r	r	n/a
205.858	0.195	411716	keystroke_t	t	n/a
206.008	0.165	412016	keystroke_a	a	n/a
206.263	0.12	412526	keystroke_n	n	n/a
206.398	0.12	412796	keystroke_t	t	n/a
206.683	0.135	413366	keystroke_Key.space	Key.space	n/a
207.0425	0.12	414085	keystroke_e	e	n/a
207.1775	0.15	414355	keystroke_p	p	n/a
207.4475	0.225	414895	keystroke_i	i	n/a
207.6885	0.014	415377	keystroke_o	o	n/a
208.1075	0.09	416215	keystroke_Key.backspace	Key.backspace	n/a
208.4375	0.045	416875	keystroke_n	n	n/a
208.6925	0.27	417385	keystroke_i	i	n/a
208.9325	0.255	417865	keystroke_o	o	n/a
209.0975	0.15	418195	keystroke_n	n	n/a
209.2325	0.105	418465	keystroke_s	s	n/a
209.5775	0.12	419155	keystroke_Key.enter	Key.enter	n/a
209.704	6.3405	419408	prompt	n/a	scanned strategic gentle visit\n
210.2685	0.119	420537	keystroke_s	s	n/a
210.4625	0.195	420925	keystroke_c	c	n/a
210.6135	0.135	421227	keystroke_a	a	n/a
210.7775	0.09	421555	keystroke_n	n	n/a
210.9435	0.104	421887	keystroke_n	n	n/a
211.0625	0.075	422125	keystroke_e	e	n/a
211.2725	0.136	422545	keystroke_d	d	n/a
211.4225	0.135	422845	keystroke_Key.space	Key.space	n/a
211.5435	0.195	423087	keystroke_s	s	n/a
211.6925	0.12	423385	keystroke_t	t	n/a
211.9325	0.18	423865	keystroke_r	r	n/a
212.0375	0.18	424075	keystroke_a	a	n/a
212.3375	0.135	424675	keystroke_t	t	n/a
212.5325	0.15	425065	keystroke_e	e	n/a
212.7875	0.105	425575	keystroke_g	g	n/a
212.9675	0.165	425935	keystroke_i	i	n/a
213.1185	0.164	426237	keystroke_c	c	n/a
213.2675	0.15	426535	keystroke_Key.space	Key.space	n/a
213.4625	0.181	426925	keystroke_g	g	n/a
213.6125	0.135	427225	keystroke_e	e	n/a
213.7935	0.119	427587	keystroke_n	n	n/a
214.0475	0.151	428095	keystroke_t	t	n/a
214.2425	0.165	428485	keystroke_l	l	n/a
214.3775	0.105	428755	keystroke_e	e	n/a
214.5275	0.12	429055	keystroke_Key.space	Key.space	n/a
214.8425	0.06	429685	keystroke_v	v	n/a
215.2775	0.15	430555	keystroke_i	i	n/a
215.4425	0.12	430885	keystroke_s	s	n/a
215.5925	0.15	431185	keystroke_i	i	n/a
215.7275	0.15	431455	keystroke_t	t	n/a
215.9375	0.105	431875	keystroke_Key.enter	Key.enter	n/a
216.051	7.524	432102	prompt	n/a	maple football packet click\n
217.4685	0.134	434937	keystroke_m	m	n/a
217.6335	0.134	435267	keystroke_a	a	n/a
217.7985	0.149	435597	keystroke_p	p	n/a
217.9635	0.119	435927	keystroke_e	e	n/a
218.3375	0.135	436675	keystroke_Key.space	Key.space	n/a
218.7575	0.06	437515	keystroke_Key.backspace	Key.backspace	n/a
218.8775	0.09	437755	keystroke_Key.backspace	Key.backspace	n/a
219.1185	0.134	438237	keystroke_l	l	n/a
219.2385	0.15	438477	keystroke_e	e	n/a
219.3725	0.12	438745	keystroke_Key.space	Key.space	n/a
219.5075	0.106	439015	keystroke_f	f	n/a
219.5835	0.075	439167	keystroke_o	o	n/a
219.7335	0.135	439467	keystroke_o	o	n/a
219.8825	0.151	439765	keystroke_t	t	n/a
220.2585	0.119	440517	keystroke_b	b	n/a
220.3925	0.121	440785	keystroke_a	a	n/a
220.4975	0.091	440995	keystroke_l	l	n/a
220.6635	0.09	441327	keystroke_l	l	n/a
220.9025	0.105	441805	keystroke_Key.space	Key.space	n/a
221.3085	0.15	442617	keystroke_p	p	n/a
221.3835	0.21	442767	keystroke_a	a	n/a
221.5775	0.106	443155	keystroke_c	c	n/a
221.7435	0.15	443487	keystroke_k	k	n/a
221.9235	0.195	443847	keystroke_e	e	n/a
222.1035	0.134	444207	keystroke_t	t	n/a
222.4775	0.12	444955	keystroke_Key.space	Key.space	n/a
222.7485	0.12	445497	keystroke_c	c	n/a
222.8385	0.164	445677	keystroke_l	l	n/a
222.9585	0.135	445917	keystroke_i	i	n/a
223.1235	0.15	446247	keystroke_c	c	n/a
223.2435	0.105	446487	keystroke_k	k	n/a
223.4835	0.089	446967	keystroke_Key.enter	Key.enter	n/a
223.582	5.3175	447164	prompt	n/a	nuke sexuality asian daddy\n
224.2035	0.105	448407	keystroke_n	n	n/a
224.4135	0.089	448827	keystroke_u	u	n/a
224.6235	0.135	449247	keystroke_k	k	n/a
224.7435	0.135	449487	keystroke_e	e	n/a
224.9535	0.135	449907	keystroke_Key.space	Key.space	n/a
225.1035	0.165	450207	keystroke_s	s	n/a
225.2085	0.12	450417	keystroke_e	e	n/a
225.4935	0.12	450987	keystroke_x	x	n/a
225.6585	0.12	451317	keystroke_u	u	n/a
225.8085	0.135	451617	keystroke_a	a	n/a
225.9585	0.195	451917	keystroke_l	l	n/a
226.0785	0.165	452157	keystroke_i	i	n/a
226.2585	0.09	452517	keystroke_t	t	n/a
226.3785	0.09	452757	keystroke_y	y	n/a
226.5135	0.135	453027	keystroke_Key.space	Key.space	n/a
226.6185	0.195	453237	keystroke_a	a	n/a
226.7835	0.165	453567	keystroke_s	s	n/a
227.0235	0.165	454047	keystroke_i	i	n/a
227.1585	0.135	454317	keystroke_a	a	n/a
227.3685	0.165	454737	keystroke_n	n	n/a
227.5925	0.121	455185	keystroke_Key.space	Key.space	n/a
227.8635	0.195	455727	keystroke_d	d	n/a
228.0285	0.15	456057	keystroke_a	a	n/a
228.2235	0.165	456447	keystroke_d	d	n/a
228.4335	0.075	456867	keystroke_d	d	n/a
228.5535	0.12	457107	keystroke_y	y	n/a
228.7935	0.104	457587	keystroke_Key.enter	Key.enter	n/a
228.904	12.0565	457808	prompt	n/a	yoga fioricet lord mpegs\n
229.6335	0.195	459267	keystroke_y	y	n/a
229.7835	0.18	459567	keystroke_o	o	n/a
229.9485	0.105	459897	keystroke_g	g	n/a
230.0985	0.045	460197	keystroke_g	g	n/a
230.1135	0.18	460227	keystroke_a	a	n/a
230.7135	0.075	461427	keystroke_Key.backspace	Key.backspace	n/a
230.8485	0.12	461697	keystroke_Key.backspace	Key.backspace	n/a
230.9985	0.135	461997	keystroke_a	a	n/a
231.3435	0.12	462687	keystroke_Key.space	Key.space	n/a
231.6285	0.12	463257	keystroke_f	f	n/a
232.5435	0.135	465087	keystroke_i	i	n/a
232.8285	0.12	465657	keystroke_o	o	n/a
233.1135	0.105	466227	keystroke_r	r	n/a
233.5785	0.045	467157	keystroke_i	i	n/a
234.0585	0.15	468117	keystroke_c	c	n/a
235.8135	0.105	471627	keystroke_e	e	n/a
236.2185	0.165	472437	keystroke_t	t	n/a
238.2585	0.03	476517	keystroke_Key.space	Key.space	n/a
238.8285	0.12	477657	keystroke_l	l	n/a
239.0235	0.135	478047	keystroke_o	o	n/a
239.1435	0.12	478287	keystroke_r	r	n/a
239.3985	0.09	478797	keystroke_d	d	n/a
239.5335	0.12	479067	keystroke_Key.space	Key.space	n/a
239.7285	0.15	479457	keystroke_m	m	n/a
239.9835	0.135	479967	keystroke_p	p	n/a
240.3435	0.105	480687	keystroke_e	e	n/a
240.5235	0.18	481047	keystroke_g	g	n/a
240.6585	0.12	481317	keystroke_s	s	n/a
240.8235	0.135	481647	keystroke_Key.enter	Key.enter	n/a
240.966	5.0495	481932	prompt	n/a	deny mainstream cakes luther\n
241.5585	0.12	483117	keystroke_d	d	n/a
241.7685	0.12	483537	keystroke_e	e	n/a
241.9035	0.135	483807	keystroke_n	n	n/a
242.2635	0.09	484527	keystroke_y	y	n/a
242.5485	0.105	485097	keystroke_Key.space	Key.space	n/a
242.7735	0.105	485547	keystroke_m	m	n/a
242.8485	0.165	485697	keystroke_a	a	n/a
243.0285	0.21	486057	keystroke_i	i	n/a
243.1635	0.105	486327	keystroke_n	n	n/a
243.2535	0.18	486507	keystroke_s	s	n/a
243.3885	0.12	486777	keystroke_t	t	n/a
243.6435	0.165	487287	keystroke_r	r	n/a
243.6885	0.18	487377	keystroke_e	e	n/a
243.7935	0.195	487587	keystroke_a	a	n/a
243.9285	0.12	487857	keystroke_m	m	n/a
244.1985	0.105	488397	keystroke_Key.space	Key.space	n/a
244.3785	0.18	488757	keystroke_c	c	n/a
244.4985	0.135	488997	keystroke_a	a	n/a
244.6635	0.135	489327	keystroke_k	k	n/a
244.7535	0.195	489507	keystroke_e	e	n/a
244.8885	0.15	489777	keystroke_s	s	n/a
245.0235	0.12	490047	keystroke_Key.space	Key.space	n/a
245.0535	0.24	490107	keystroke_l	l	n/a
245.2785	0.105	490557	keystroke_u	u	n/a
245.4285	0.12	490857	keystroke_t	t	n/a
245.5335	0.135	491067	keystroke_h	h	n/a
245.6385	0.165	491277	keystroke_e	e	n/a
245.7435	0.135	491487	keystroke_r	r	n/a
245.8785	0.135	491757	keystroke_Key.enter	Key.enter	n/a
246.0205	6.6695	492041	prompt	n/a	bracelet suggested national creator\n
246.5985	0.15	493197	keystroke_b	b	n/a
246.8685	0.135	493737	keystroke_r	r	n/a
246.9585	0.195	493917	keystroke_a	a	n/a
247.1985	0.18	494397	keystroke_c	c	n/a
247.3335	0.135	494667	keystroke_e	e	n/a
247.4985	0.15	494997	keystroke_l	l	n/a
247.5885	0.21	495177	keystroke_e	e	n/a
247.7995	0.164	495599	keystroke_t	t	n/a
247.9635	0.12	495927	keystroke_Key.space	Key.space	n/a
248.5335	0.195	497067	keystroke_s	s	n/a
248.7435	0.09	497487	keystroke_u	u	n/a
248.8485	0.105	497697	keystroke_g	g	n/a
249.0585	0.1495	498117	keystroke_g	g	n/a
249.2385	0.225	498477	keystroke_e	e	n/a
249.4335	0.18	498867	keystroke_s	s	n/a
249.6585	0.15	499317	keystroke_t	t	n/a
249.7785	0.135	499557	keystroke_e	e	n/a
250.0485	0.12	500097	keystroke_d	d	n/a
250.1835	0.135	500367	keystroke_Key.space	Key.space	n/a
250.3785	0.15	500757	keystroke_n	n	n/a
250.5135	0.165	501027	keystroke_a	a	n/a
250.6485	0.135	501297	keystroke_t	t	n/a
250.7385	0.225	501477	keystroke_i	i	n/a
250.8285	0.18	501657	keystroke_o	o	n/a
250.9485	0.165	501897	keystroke_n	n	n/a
251.0685	0.1345	502137	keystroke_a	a	n/a
251.1885	0.15	502377	keystroke_l	l	n/a
251.3385	0.15	502677	keystroke_Key.space	Key.space	n/a
251.4285	0.12	502857	keystroke_c	c	n/a
251.668	0.1955	503336	keystroke_r	r	n/a
251.743	0.1955	503486	keystroke_e	e	n/a
251.878	0.24	503756	keystroke_a	a	n/a
252.073	0.135	504146	keystroke_t	t	n/a
252.283	0.135	504566	keystroke_o	o	n/a
252.4335	0.0895	504867	keystroke_r	r	n/a
252.583	0.1055	505166	keystroke_Key.enter	Key.enter	n/a
252.6955	7.0295	505391	prompt	n/a	preston grows vids questions\n
253.303	0.1655	506606	keystroke_p	p	n/a
253.408	0.195	506816	keystroke_r	r	n/a
253.438	0.195	506876	keystroke_e	e	n/a
253.588	0.1805	507176	keystroke_s	s	n/a
253.963	0.0905	507926	keystroke_o	o	n/a
254.2935	0.0895	508587	keystroke_Key.backspace	Key.backspace	n/a
254.3985	0.12	508797	keystroke_t	t	n/a
254.608	0.18	509216	keystroke_o	o	n/a
254.8185	0.1495	509637	keystroke_n	n	n/a
255.1035	0.1195	510207	keystroke_Key.space	Key.space	n/a
255.253	0.105	510506	keystroke_g	g	n/a
255.463	0.15	510926	keystroke_r	r	n/a
255.583	0.18	511166	keystroke_o	o	n/a
255.703	0.12	511406	keystroke_w	w	n/a
255.973	0.12	511946	keystroke_s	s	n/a
256.108	0.1205	512216	keystroke_Key.space	Key.space	n/a
256.363	0.15	512726	keystroke_v	v	n/a
256.483	0.15	512966	keystroke_i	i	n/a
256.648	0.195	513296	keystroke_d	d	n/a
256.798	0.135	513596	keystroke_s	s	n/a
257.053	0.12	514106	keystroke_Key.space	Key.space	n/a
257.458	0.135	514916	keystroke_q	q	n/a
257.623	0.06	515246	keystroke_q	q	n/a
257.698	0.135	515396	keystroke_u	u	n/a
257.833	0.09	515666	keystroke_e	e	n/a
258.103	0.06	516206	keystroke_Key.backspace	Key.backspace	n/a
258.238	0.075	516476	keystroke_Key.backspace	Key.backspace	n/a
258.358	0.09	516716	keystroke_Key.backspace	Key.backspace	n/a
258.628	0.12	517256	keystroke_u	u	n/a
258.718	0.135	517436	keystroke_e	e	n/a
258.778	0.21	517556	keystroke_s	s	n/a
258.973	0.105	517946	keystroke_t	t	n/a
258.974	0.164	517948	keystroke_i	i	n/a
259.093	0.21	518186	keystroke_o	o	n/a
259.213	0.135	518426	keystroke_n	n	n/a
259.318	0.105	518636	keystroke_s	s	n/a
259.618	0.105	519236	keystroke_Key.enter	Key.enter	n/a
259.73	7.5255	519460	prompt	n/a	builder browser jaguar pharmacy\n
260.863	0.09	521726	keystroke_b	b	n/a
261.118	0.195	522236	keystroke_u	u	n/a
261.298	0.061	522596	keystroke_i	i	n/a
261.343	0.18	522686	keystroke_l	l	n/a
261.553	0.105	523106	keystroke_d	d	n/a
261.763	0.195	523526	keystroke_e	e	n/a
261.928	0.12	523856	keystroke_r	r	n/a
262.123	0.135	524246	keystroke_Key.space	Key.space	n/a
262.378	0.15	524756	keystroke_b	b	n/a
262.498	0.12	524996	keystroke_r	r	n/a
262.648	0.15	525296	keystroke_o	o	n/a
262.768	0.09	525536	keystroke_w	w	n/a
263.008	0.226	526016	keystroke_s	s	n/a
263.173	0.18	526346	keystroke_e	e	n/a
263.323	0.12	526646	keystroke_r	r	n/a
263.413	0.15	526826	keystroke_Key.space	Key.space	n/a
263.608	0.12	527216	keystroke_j	j	n/a
263.788	0.15	527576	keystroke_a	a	n/a
264.163	0.075	528326	keystroke_g	g	n/a
264.403	0.12	528806	keystroke_u	u	n/a
264.508	0.24	529016	keystroke_a	a	n/a
264.688	0.135	529376	keystroke_r	r	n/a
264.853	0.12	529706	keystroke_Key.space	Key.space	n/a
265.093	0.166	530186	keystroke_p	p	n/a
265.303	0.12	530606	keystroke_h	h	n/a
265.393	0.18	530786	keystroke_a	a	n/a
265.528	0.136	531056	keystroke_r	r	n/a
265.843	0.12	531686	keystroke_m	m	n/a
265.978	0.135	531956	keystroke_a	a	n/a
266.488	0.135	532976	keystroke_c	c	n/a
266.653	0.105	533306	keystroke_y	y	n/a
267.118	0.135	534236	keystroke_Key.enter	Key.enter	n/a
267.259	7.377	534518	prompt	n/a	performances sapphire signature symbols\n
267.914	0.149	535828	keystroke_p	p	n/a
268.064	0.15	536128	keystroke_e	e	n/a
268.168	0.121	536336	keystroke_r	r	n/a
268.468	0.12	536936	keystroke_f	f	n/a
268.618	0.195	537236	keystroke_o	o	n/a
268.768	0.135	537536	keystroke_r	r	n/a
268.933	0.151	537866	keystroke_m	m	n/a
269.098	0.151	538196	keystroke_a	a	n/a
269.233	0.12	538466	keystroke_n	n	n/a
269.368	0.15	538736	keystroke_c	c	n/a
269.473	0.165	538946	keystroke_e	e	n/a
269.578	0.135	539156	keystroke_s	s	n/a
269.833	0.12	539666	keystroke_Key.space	Key.space	n/a
269.983	0.121	539966	keystroke_s	s	n/a
270.134	0.195	540268	keystroke_a	a	n/a
270.314	0.149	540628	keystroke_p	p	n/a
270.524	0.135	541048	keystroke_p	p	n/a
270.629	0.18	541258	keystroke_h	h	n/a
270.868	0.151	541736	keystroke_i	i	n/a
271.049	0.164	542098	keystroke_r	r	n/a
271.138	0.135	542276	keystroke_e	e	n/a
271.348	0.12	542696	keystroke_Key.space	Key.space	n/a
271.483	0.121	542966	keystroke_s	s	n/a
271.648	0.15	543296	keystroke_i	i	n/a
271.903	0.075	543806	keystroke_g	g	n/a
272.098	0.106	544196	keystroke_n	n	n/a
272.233	0.225	544466	keystroke_a	a	n/a
272.413	0.12	544826	keystroke_t	t	n/a
272.638	0.105	545276	keystroke_u	u	n/a
272.729	0.119	545458	keystroke_r	r	n/a
272.803	0.12	545606	keystroke_e	e	n/a
272.938	0.12	545876	keystroke_Key.space	Key.space	n/a
273.088	0.105	546176	keystroke_s	s	n/a
273.238	0.12	546476	keystroke_y	y	n/a
273.554	0.105	547108	keystroke_m	m	n/a
273.884	0.165	547768	keystroke_b	b	n/a
273.959	0.15	547918	keystroke_o	o	n/a
274.229	0.119	548458	keystroke_l	l	n/a
274.334	0.135	548668	keystroke_s	s	n/a
274.544	0.09	549088	keystroke_Key.enter	Key.enter	n/a
274.6415	8.5595	549283	prompt	n/a	dairy that'll victorian needs\n
275.279	0.15	550558	keystroke_d	d	n/a
275.414	0.165	550828	keystroke_a	a	n/a
275.714	0.12	551428	keystroke_i	i	n/a
275.834	0.12	551668	keystroke_r	r	n/a
276.088	0.105	552176	keystroke_Key.space	Key.space	n/a
276.344	0.135	552688	keystroke_t	t	n/a
276.464	0.15	552928	keystroke_h	h	n/a
276.568	0.136	553136	keystroke_a	a	n/a
276.644	0.12	553288	keystroke_t	t	n/a
276.749	0.15	553498	keystroke_'	'	n/a
277.093	0.046	554186	keystroke_Key.backspace	Key.backspace	n/a
277.199	0.074	554398	keystroke_Key.backspace	Key.backspace	n/a
277.348	0.075	554696	keystroke_Key.backspace	Key.backspace	n/a
277.483	0.076	554966	keystroke_Key.backspace	Key.backspace	n/a
277.664	0.09	555328	keystroke_Key.backspace	Key.backspace	n/a
277.858	0.105	555716	keystroke_Key.backspace	Key.backspace	n/a
278.234	0.09	556468	keystroke_y	y	n/a
278.579	0.089	557158	keystroke_Key.space	Key.space	n/a
278.789	0.135	557578	keystroke_t	t	n/a
278.909	0.12	557818	keystroke_h	h	n/a
278.999	0.1495	557998	keystroke_a	a	n/a
279.089	0.1195	558178	keystroke_t	t	n/a
279.2085	0.15	558417	keystroke_'	'	n/a
279.4185	0.105	558837	keystroke_l	l	n/a
279.5985	0.105	559197	keystroke_l	l	n/a
280.0785	0.105	560157	keystroke_Key.space	Key.space	n/a
280.5135	0.12	561027	keystroke_v	v	n/a
280.6785	0.15	561357	keystroke_i	i	n/a
280.8135	0.135	561627	keystroke_c	c	n/a
281.0835	0.135	562167	keystroke_t	t	n/a
281.2635	0.15	562527	keystroke_o	o	n/a
281.3985	0.12	562797	keystroke_r	r	n/a
281.5335	0.15	563067	keystroke_i	i	n/a
281.6985	0.15	563397	keystroke_a	a	n/a
281.8635	0.105	563727	keystroke_n	n	n/a
282.0285	0.12	564057	keystroke_Key.space	Key.space	n/a
282.2985	0.12	564597	keystroke_n	n	n/a
282.3735	0.12	564747	keystroke_e	e	n/a
282.5685	0.09	565137	keystroke_e	e	n/a
282.8235	0.12	565647	keystroke_d	d	n/a
282.9285	0.105	565857	keystroke_s	s	n/a
283.0785	0.12	566157	keystroke_Key.enter	Key.enter	n/a
283.206	7.479	566412	prompt	n/a	specified webmasters critics atomic\n
283.7995	0.089	567599	keystroke_s	s	n/a
283.9035	0.18	567807	keystroke_p	p	n/a
284.0235	0.15	568047	keystroke_e	e	n/a
284.2185	0.165	568437	keystroke_c	c	n/a
284.4285	0.105	568857	keystroke_i	i	n/a
284.5485	0.15	569097	keystroke_f	f	n/a
284.6835	0.135	569367	keystroke_i	i	n/a
284.8035	0.105	569607	keystroke_e	e	n/a
285.0285	0.105	570057	keystroke_d	d	n/a
285.1485	0.1205	570297	keystroke_Key.space	Key.space	n/a
285.299	0.21	570598	keystroke_w	w	n/a
285.434	0.165	570868	keystroke_e	e	n/a
285.584	0.135	571168	keystroke_b	b	n/a
285.764	0.105	571528	keystroke_s	s	n/a
286.259	0.075	572518	keystroke_Key.backspace	Key.backspace	n/a
286.484	0.09	572968	keystroke_m	m	n/a
286.589	0.15	573178	keystroke_a	a	n/a
286.709	0.165	573418	keystroke_s	s	n/a
286.844	0.165	573688	keystroke_t	t	n/a
286.979	0.195	573958	keystroke_e	e	n/a
287.129	0.15	574258	keystroke_r	r	n/a
287.519	0.12	575038	keystroke_s	s	n/a
287.789	0.135	575578	keystroke_Key.space	Key.space	n/a
287.939	0.12	575878	keystroke_c	c	n/a
288.164	0.135	576328	keystroke_r	r	n/a
288.284	0.1195	576568	keystroke_i	i	n/a
288.4335	0.105	576867	keystroke_t	t	n/a
288.5385	0.135	577077	keystroke_i	i	n/a
288.9735	0.165	577947	keystroke_c	c	n/a
289.0935	0.18	578187	keystroke_s	s	n/a
289.4385	0.12	578877	keystroke_Key.space	Key.space	n/a
289.6185	0.195	579237	keystroke_a	a	n/a
289.7685	0.165	579537	keystroke_t	t	n/a
289.9185	0.21	579837	keystroke_o	o	n/a
290.0535	0.165	580107	keystroke_m	m	n/a
290.2935	0.18	580587	keystroke_i	i	n/a
290.4285	0.105	580857	keystroke_c	c	n/a
290.6085	0.075	581217	keystroke_Key.enter	Key.enter	n/a
290.6885	6.821	581377	prompt	n/a	never ping sugar prepared\n
292.5735	0.165	585147	keystroke_n	n	n/a
292.7235	0.15	585447	keystroke_e	e	n/a
293.0085	0.165	586017	keystroke_v	v	n/a
293.2335	0.15	586467	keystroke_e	e	n/a
293.3685	0.09	586737	keystroke_r	r	n/a
293.4885	0.135	586977	keystroke_Key.space	Key.space	n/a
293.6835	0.165	587367	keystroke_p	p	n/a
293.9085	0.255	587817	keystroke_i	i	n/a
294.0435	0.15	588087	keystroke_n	n	n/a
294.2085	0.15	588417	keystroke_g	g	n/a
294.5085	0.15	589017	keystroke_Key.space	Key.space	n/a
294.8535	0.09	589707	keystroke_s	s	n/a
294.9885	0.12	589977	keystroke_u	u	n/a
295.1235	0.15	590247	keystroke_g	g	n/a
295.4985	0.18	590997	keystroke_a	a	n/a
295.6335	0.135	591267	keystroke_r	r	n/a
295.7985	0.105	591597	keystroke_Key.space	Key.space	n/a
296.0985	0.195	592197	keystroke_p	p	n/a
296.2335	0.135	592467	keystroke_r	r	n/a
296.3085	0.18	592617	keystroke_e	e	n/a
296.5635	0.135	593127	keystroke_p	p	n/a
296.6685	0.18	593337	keystroke_a	a	n/a
296.8635	0.135	593727	keystroke_r	r	n/a
296.9685	0.135	593937	keystroke_e	e	n/a
297.2085	0.12	594417	keystroke_d	d	n/a
297.3735	0.135	594747	keystroke_Key.enter	Key.enter	n/a
297.5135	6.0565	595027	prompt	n/a	adopt viking products lasting\n
298.5135	0.135	597027	keystroke_a	a	n/a
298.6935	0.165	597387	keystroke_d	d	n/a
298.8585	0.135	597717	keystroke_o	o	n/a
298.9035	0.195	597807	keystroke_p	p	n/a
299.1135	0.12	598227	keystroke_t	t	n/a
299.2935	0.15	598587	keystroke_Key.space	Key.space	n/a
299.4585	0.165	598917	keystroke_v	v	n/a
299.5785	0.12	599157	keystroke_i	i	n/a
299.8335	0.09	599667	keystroke_k	k	n/a
300.0285	0.24	600057	keystroke_i	i	n/a
300.2085	0.12	600417	keystroke_n	n	n/a
300.4485	0.12	600897	keystroke_g	g	n/a
300.6285	0.12	601257	keystroke_Key.space	Key.space	n/a
300.9735	0.15	601947	keystroke_p	p	n/a
301.1385	0.135	602277	keystroke_r	r	n/a
301.2735	0.15	602547	keystroke_o	o	n/a
301.4535	0.15	602907	keystroke_d	d	n/a
301.5735	0.12	603147	keystroke_u	u	n/a
301.7385	0.15	603477	keystroke_c	c	n/a
302.0235	0.21	604047	keystroke_t	t	n/a
302.1735	0.135	604347	keystroke_s	s	n/a
302.4135	0.12	604827	keystroke_Key.space	Key.space	n/a
302.5485	0.165	605097	keystroke_l	l	n/a
302.6385	0.18	605277	keystroke_a	a	n/a
302.7885	0.195	605577	keystroke_s	s	n/a
302.9685	0.135	605937	keystroke_t	t	n/a
303.0735	0.195	606147	keystroke_i	i	n/a
303.1635	0.15	606327	keystroke_n	n	n/a
303.3285	0.105	606657	keystroke_g	g	n/a
303.4785	0.09	606957	keystroke_Key.enter	Key.enter	n/a
303.5775	6.4275	607155	prompt	n/a	tennis valve crafts lower\n
305.0685	0.165	610137	keystroke_t	t	n/a
305.1885	0.195	610377	keystroke_e	e	n/a
305.3985	0.12	610797	keystroke_n	n	n/a
305.5935	0.165	611187	keystroke_i	i	n/a
306.1635	0.09	612327	keystroke_Key.backspace	Key.backspace	n/a
306.4485	0.15	612897	keystroke_n	n	n/a
306.5535	0.15	613107	keystroke_i	i	n/a
306.7045	0.104	613409	keystroke_s	s	n/a
306.8385	0.12	613677	keystroke_Key.space	Key.space	n/a
306.9885	0.165	613977	keystroke_v	v	n/a
307.0935	0.15	614187	keystroke_a	a	n/a
307.2735	0.12	614547	keystroke_l	l	n/a
307.3935	0.18	614787	keystroke_v	v	n/a
307.5585	0.15	615117	keystroke_e	e	n/a
307.7685	0.15	615537	keystroke_Key.space	Key.space	n/a
308.0985	0.12	616197	keystroke_c	c	n/a
308.3385	0.165	616677	keystroke_r	r	n/a
308.4435	0.195	616887	keystroke_a	a	n/a
308.6535	0.12	617307	keystroke_f	f	n/a
308.8635	0.195	617727	keystroke_t	t	n/a
308.9835	0.135	617967	keystroke_s	s	n/a
309.1485	0.135	618297	keystroke_Key.space	Key.space	n/a
309.2535	0.12	618507	keystroke_l	l	n/a
309.4635	0.105	618927	keystroke_o	o	n/a
309.5535	0.18	619107	keystroke_w	w	n/a
309.6135	0.165	619227	keystroke_e	e	n/a
309.7485	0.12	619497	keystroke_r	r	n/a
309.8985	0.105	619797	keystroke_Key.enter	Key.enter	n/a
310.0095	8.3805	620019	prompt	n/a	scenarios incident finland doors\n
310.5735	0.135	621147	keystroke_s	s	n/a
310.7385	0.21	621477	keystroke_c	c	n/a
310.9185	0.105	621837	keystroke_e	e	n/a
311.3535	0.15	622707	keystroke_n	n	n/a
311.5035	0.165	623007	keystroke_a	a	n/a
311.6235	0.135	623247	keystroke_r	r	n/a
311.8035	0.165	623607	keystroke_i	i	n/a
311.9085	0.165	623817	keystroke_o	o	n/a
312.0285	0.135	624057	keystroke_s	s	n/a
312.5535	0.12	625107	keystroke_Key.space	Key.space	n/a
312.8535	0.24	625707	keystroke_i	i	n/a
312.9885	0.12	625977	keystroke_n	n	n/a
313.0785	0.105	626157	keystroke_c	c	n/a
313.2135	0.15	626427	keystroke_i	i	n/a
313.3185	0.105	626637	keystroke_d	d	n/a
313.5135	0.135	627027	keystroke_e	e	n/a
313.6785	0.12	627357	keystroke_n	n	n/a
313.7995	0.104	627599	keystroke_t	t	n/a
313.9185	0.12	627837	keystroke_Key.space	Key.space	n/a
314.0535	0.12	628107	keystroke_f	f	n/a
314.1735	0.195	628347	keystroke_i	i	n/a
314.2635	0.12	628527	keystroke_n	n	n/a
314.3985	0.12	628797	keystroke_a	a	n/a
314.7435	0.075	629487	keystroke_l	l	n/a
314.9985	0.075	629997	keystroke_Key.backspace	Key.backspace	n/a
315.1335	0.09	630267	keystroke_Key.backspace	Key.backspace	n/a
315.5095	0.104	631019	keystroke_a	a	n/a
316.0035	0.105	632007	keystroke_Key.backspace	Key.backspace	n/a
316.3785	0.105	632757	keystroke_l	l	n/a
316.7235	0.135	633447	keystroke_a	a	n/a
317.0535	0.135	634107	keystroke_n	n	n/a
317.1735	0.105	634347	keystroke_d	d	n/a
317.3245	0.149	634649	keystroke_Key.space	Key.space	n/a
317.5635	0.105	635127	keystroke_d	d	n/a
317.6695	0.089	635339	keystroke_o	o	n/a
317.8335	0.12	635667	keystroke_o	o	n/a
317.9385	0.195	635877	keystroke_r	r	n/a
318.0735	0.15	636147	keystroke_s	s	n/a
318.2535	0.135	636507	keystroke_Key.enter	Key.enter	n/a
318.394	7.3765	636788	prompt	n/a	papua portugal classification japan\n
319.0185	0.165	638037	keystroke_p	p	n/a
319.1385	0.165	638277	keystroke_a	a	n/a
319.4685	0.18	638937	keystroke_p	p	n/a
319.6935	0.12	639387	keystroke_u	u	n/a
319.8435	0.105	639687	keystroke_a	a	n/a
320.1585	0.135	640317	keystroke_Key.space	Key.space	n/a
320.4735	0.195	640947	keystroke_p	p	n/a
320.6085	0.18	641217	keystroke_o	o	n/a
320.7285	0.121	641457	keystroke_r	r	n/a
320.9385	0.12	641877	keystroke_t	t	n/a
321.0885	0.15	642177	keystroke_u	u	n/a
321.2535	0.15	642507	keystroke_g	g	n/a
321.3585	0.15	642717	keystroke_a	a	n/a
321.4935	0.135	642987	keystroke_l	l	n/a
321.6295	0.134	643259	keystroke_Key.space	Key.space	n/a
321.7785	0.135	643557	keystroke_c	c	n/a
321.8985	0.195	643797	keystroke_l	l	n/a
322.0035	0.15	644007	keystroke_a	a	n/a
322.1245	0.134	644249	keystroke_s	s	n/a
322.3335	0.135	644667	keystroke_s	s	n/a
322.4835	0.105	644967	keystroke_i	i	n/a
322.7385	0.15	645477	keystroke_c	c	n/a
322.9485	0.12	645897	keystroke_i	i	n/a
323.2635	0.06	646527	keystroke_Key.backspace	Key.backspace	n/a
323.3985	0.09	646797	keystroke_Key.backspace	Key.backspace	n/a
323.5045	0.119	647009	keystroke_f	f	n/a
323.6685	0.15	647337	keystroke_i	i	n/a
323.8035	0.15	647607	keystroke_c	c	n/a
323.8635	0.225	647727	keystroke_a	a	n/a
324.1185	0.136	648237	keystroke_t	t	n/a
324.2385	0.135	648477	keystroke_i	i	n/a
324.3285	0.165	648657	keystroke_o	o	n/a
324.4635	0.135	648927	keystroke_n	n	n/a
324.6135	0.135	649227	keystroke_Key.space	Key.space	n/a
324.7635	0.166	649527	keystroke_j	j	n/a
324.9135	0.165	649827	keystroke_a	a	n/a
325.0635	0.135	650127	keystroke_p	p	n/a
325.2135	0.12	650427	keystroke_a	a	n/a
325.3635	0.15	650727	keystroke_n	n	n/a
325.6485	0.12	651297	keystroke_Key.enter	Key.enter	n/a
325.7755	7.196	651551	prompt	n/a	continues arthritis glad applying\n
326.3085	0.18	652617	keystroke_c	c	n/a
326.3685	0.195	652737	keystroke_o	o	n/a
326.4735	0.18	652947	keystroke_n	n	n/a
326.7135	0.105	653427	keystroke_t	t	n/a
326.9385	0.21	653877	keystroke_i	i	n/a
327.0735	0.09	654147	keystroke_n	n	n/a
327.3135	0.135	654627	keystroke_u	u	n/a
327.4635	0.105	654927	keystroke_e	e	n/a
327.5235	0.12	655047	keystroke_s	s	n/a
327.7785	0.135	655557	keystroke_Key.space	Key.space	n/a
327.9885	0.166	655977	keystroke_a	a	n/a
328.0935	0.165	656187	keystroke_r	r	n/a
328.3485	0.12	656697	keystroke_t	t	n/a
328.4235	0.12	656847	keystroke_h	h	n/a
328.6035	0.12	657207	keystroke_r	r	n/a
328.7385	0.106	657477	keystroke_i	i	n/a
328.9045	0.149	657809	keystroke_s	s	n/a
329.2785	0.075	658557	keystroke_Key.backspace	Key.backspace	n/a
329.3845	0.104	658769	keystroke_t	t	n/a
329.5485	0.15	659097	keystroke_i	i	n/a
329.7135	0.121	659427	keystroke_s	s	n/a
330.0435	0.12	660087	keystroke_Key.space	Key.space	n/a
330.6735	0.15	661347	keystroke_g	g	n/a
330.7935	0.181	661587	keystroke_l	l	n/a
330.9285	0.136	661857	keystroke_a	a	n/a
331.1095	0.134	662219	keystroke_d	d	n/a
331.2745	0.119	662549	keystroke_Key.space	Key.space	n/a
331.4395	0.149	662879	keystroke_a	a	n/a
331.5585	0.091	663117	keystroke_p	p	n/a
331.7535	0.105	663507	keystroke_p	p	n/a
331.9795	0.135	663959	keystroke_l	l	n/a
332.2645	0.119	664529	keystroke_y	y	n/a
332.4595	0.239	664919	keystroke_i	i	n/a
332.5935	0.121	665187	keystroke_n	n	n/a
332.7445	0.09	665489	keystroke_g	g	n/a
332.8635	0.105	665727	keystroke_Key.enter	Key.enter	n/a
332.976	7.6295	665952	prompt	n/a	edges devoted much fantastic\n
333.4935	0.1195	666987	keystroke_e	e	n/a
333.5085	0.016	667017	keystroke_w	w	n/a
333.733	0.1815	667466	keystroke_d	d	n/a
334.1085	0.06	668217	keystroke_Key.backspace	Key.backspace	n/a
334.258	0.105	668516	keystroke_Key.backspace	Key.backspace	n/a
334.364	0.1055	668728	keystroke_d	d	n/a
334.604	0.1655	669208	keystroke_g	g	n/a
334.754	0.239	669508	keystroke_e	e	n/a
334.9645	0.1345	669929	keystroke_s	s	n/a
335.233	0.12	670466	keystroke_Key.space	Key.space	n/a
335.578	0.121	671156	keystroke_d	d	n/a
335.789	0.149	671578	keystroke_e	e	n/a
335.954	0.15	671908	keystroke_v	v	n/a
336.118	0.121	672236	keystroke_o	o	n/a
336.299	0.15	672598	keystroke_t	t	n/a
336.404	0.12	672808	keystroke_e	e	n/a
336.644	0.15	673288	keystroke_d	d	n/a
336.763	0.135	673526	keystroke_Key.space	Key.space	n/a
336.959	0.09	673918	keystroke_m	m	n/a
337.214	0.075	674428	keystroke_u	u	n/a
337.304	0.0905	674608	keystroke_c	c	n/a
337.604	0.12	675208	keystroke_h	h	n/a
337.858	0.166	675716	keystroke_Key.space	Key.space	n/a
338.039	0.15	676078	keystroke_f	f	n/a
338.204	0.09	676408	keystroke_f	f	n/a
338.279	0.195	676558	keystroke_a	a	n/a
338.668	0.061	677336	keystroke_Key.backspace	Key.backspace	n/a
338.834	0.074	677668	keystroke_Key.backspace	Key.backspace	n/a
338.894	0.165	677788	keystroke_a	a	n/a
339.104	0.12	678208	keystroke_n	n	n/a
339.254	0.165	678508	keystroke_t	t	n/a
339.494	0.24	678988	keystroke_a	a	n/a
339.689	0.18	679378	keystroke_s	s	n/a
339.929	0.105	679858	keystroke_t	t	n/a
340.109	0.135	680218	keystroke_i	i	n/a
340.289	0.12	680578	keystroke_c	c	n/a
340.499	0.105	680998	keystroke_Key.enter	Key.enter	n/a
340.6095	11.006	681219	prompt	n/a	acquisition helmet static volleyball\n
343.802	0.132	687604	keystroke_a	a	n/a
344.009	0.135	688018	keystroke_c	c	n/a
344.594	0.12	689188	keystroke_q	q	n/a
344.759	0.18	689518	keystroke_u	u	n/a
344.894	0.165	689788	keystroke_i	i	n/a
345.074	0.135	690148	keystroke_s	s	n/a
345.284	0.135	690568	keystroke_i	i	n/a
345.404	0.135	690808	keystroke_t	t	n/a
345.554	0.15	691108	keystroke_i	i	n/a
345.659	0.18	691318	keystroke_o	o	n/a
345.779	0.15	691558	keystroke_n	n	n/a
345.989	0.09	691978	keystroke_Key.space	Key.space	n/a
346.154	0.15	692308	keystroke_h	h	n/a
346.259	0.12	692518	keystroke_e	e	n/a
346.364	0.12	692728	keystroke_l	l	n/a
346.544	0.15	693088	keystroke_m	m	n/a
346.754	0.18	693508	keystroke_e	e	n/a
346.949	0.12	693898	keystroke_t	t	n/a
347.084	0.12	694168	keystroke_Key.space	Key.space	n/a
347.339	0.15	694678	keystroke_s	s	n/a
347.474	0.165	694948	keystroke_t	t	n/a
347.624	0.15	695248	keystroke_a	a	n/a
347.759	0.12	695518	keystroke_t	t	n/a
347.924	0.15	695848	keystroke_i	i	n/a
348.134	0.165	696268	keystroke_c	c	n/a
348.269	0.135	696538	keystroke_Key.space	Key.space	n/a
348.419	0.15	696838	keystroke_v	v	n/a
348.539	0.105	697078	keystroke_o	o	n/a
348.734	0.075	697468	keystroke_l	l	n/a
348.899	0.105	697798	keystroke_l	l	n/a
349.124	0.105	698248	keystroke_e	e	n/a
350.429	0.06	700858	keystroke_y	y	n/a
350.789	0.135	701578	keystroke_b	b	n/a
350.924	0.18	701848	keystroke_a	a	n/a
351.044	0.075	702088	keystroke_l	l	n/a
351.209	0.105	702418	keystroke_l	l	n/a
351.569	0.045	703138	keystroke_Key.enter	Key.enter	n/a
351.622	6.7745	703244	prompt	n/a	retention mysql number guns\n
352.349	0.165	704698	keystroke_r	r	n/a
352.469	0.165	704938	keystroke_e	e	n/a
352.769	0.135	705538	keystroke_t	t	n/a
352.874	0.135	705748	keystroke_e	e	n/a
352.994	0.135	705988	keystroke_n	n	n/a
353.159	0.12	706318	keystroke_t	t	n/a
353.294	0.165	706588	keystroke_i	i	n/a
353.444	0.165	706888	keystroke_o	o	n/a
353.564	0.09	707128	keystroke_n	n	n/a
353.744	0.12	707488	keystroke_Key.space	Key.space	n/a
353.924	0.12	707848	keystroke_m	m	n/a
354.194	0.135	708388	keystroke_y	y	n/a
354.719	0.045	709438	keystroke_s	s	n/a
355.589	0.165	711178	keystroke_q	q	n/a
355.934	0.135	711868	keystroke_l	l	n/a
356.294	0.12	712588	keystroke_Key.space	Key.space	n/a
356.504	0.09	713008	keystroke_n	n	n/a
356.699	0.105	713398	keystroke_u	u	n/a
356.939	0.09	713878	keystroke_m	m	n/a
357.164	0.12	714328	keystroke_b	b	n/a
357.299	0.15	714598	keystroke_e	e	n/a
357.404	0.12	714808	keystroke_r	r	n/a
357.509	0.105	715018	keystroke_Key.space	Key.space	n/a
357.674	0.135	715348	keystroke_g	g	n/a
357.764	0.09	715528	keystroke_u	u	n/a
357.974	0.12	715948	keystroke_n	n	n/a
358.109	0.12	716218	keystroke_s	s	n/a
358.259	0.135	716518	keystroke_Key.enter	Key.enter	n/a
358.401	8.86	716802	prompt	n/a	glory compensation semiconductor beautifully\n
359.024	0.105	718048	keystroke_g	g	n/a
359.114	0.09	718228	keystroke_l	l	n/a
359.294	0.15	718588	keystroke_o	o	n/a
359.429	0.105	718858	keystroke_r	r	n/a
359.579	0.105	719158	keystroke_y	y	n/a
359.744	0.15	719488	keystroke_Key.space	Key.space	n/a
360.119	0.165	720238	keystroke_c	c	n/a
360.179	0.18	720358	keystroke_o	o	n/a
360.239	0.165	720478	keystroke_m	m	n/a
360.434	0.15	720868	keystroke_p	p	n/a
360.599	0.12	721198	keystroke_e	e	n/a
360.779	0.105	721558	keystroke_n	n	n/a
361.094	0.105	722188	keystroke_t	t	n/a
361.379	0.105	722758	keystroke_Key.backspace	Key.backspace	n/a
361.499	0.15	722998	keystroke_s	s	n/a
361.634	0.18	723268	keystroke_a	a	n/a
361.784	0.12	723568	keystroke_t	t	n/a
361.889	0.15	723778	keystroke_i	i	n/a
362.009	0.165	724018	keystroke_o	o	n/a
362.114	0.165	724228	keystroke_n	n	n/a
362.309	0.105	724618	keystroke_Key.space	Key.space	n/a
362.549	0.225	725098	keystroke_s	s	n/a
362.744	0.12	725488	keystroke_e	e	n/a
362.894	0.15	725788	keystroke_m	m	n/a
363.074	0.135	726148	keystroke_i	i	n/a
363.374	0.15	726748	keystroke_d	d	n/a
363.704	0.105	727408	keystroke_Key.backspace	Key.backspace	n/a
363.81	0.164	727620	keystroke_c	c	n/a
363.959	0.225	727918	keystroke_o	o	n/a
364.079	0.135	728158	keystroke_n	n	n/a
364.199	0.135	728398	keystroke_d	d	n/a
364.379	0.06	728758	keystroke_u	u	n/a
364.514	0.135	729028	keystroke_c	c	n/a
364.799	0.135	729598	keystroke_t	t	n/a
364.949	0.165	729898	keystroke_o	o	n/a
365.129	0.12	730258	keystroke_r	r	n/a
365.264	0.09	730528	keystroke_Key.space	Key.space	n/a
365.474	0.12	730948	keystroke_b	b	n/a
365.564	0.21	731128	keystroke_e	e	n/a
365.684	0.18	731368	keystroke_a	a	n/a
365.879	0.135	731758	keystroke_u	u	n/a
366.044	0.135	732088	keystroke_t	t	n/a
366.209	0.12	732418	keystroke_i	i	n/a
366.344	0.12	732688	keystroke_f	f	n/a
366.479	0.105	732958	keystroke_u	u	n/a
366.554	0.12	733108	keystroke_l	l	n/a
366.779	0.09	733558	keystroke_l	l	n/a
366.974	0.09	733948	keystroke_y	y	n/a
367.139	0.12	734278	keystroke_Key.enter	Key.enter	n/a
367.2665	5.455	734533	prompt	n/a	showers rugby otherwise lite\n
367.844	0.12	735688	keystroke_s	s	n/a
367.919	0.15	735838	keystroke_h	h	n/a
367.994	0.18	735988	keystroke_o	o	n/a
368.084	0.165	736168	keystroke_w	w	n/a
368.189	0.18	736378	keystroke_e	e	n/a
368.324	0.195	736648	keystroke_r	r	n/a
368.444	0.15	736888	keystroke_s	s	n/a
368.639	0.15	737278	keystroke_Key.space	Key.space	n/a
368.85	0.149	737700	keystroke_r	r	n/a
369.029	0.12	738058	keystroke_u	u	n/a
369.194	0.105	738388	keystroke_g	g	n/a
369.614	0.12	739228	keystroke_b	b	n/a
369.869	0.105	739738	keystroke_y	y	n/a
370.079	0.105	740158	keystroke_Key.space	Key.space	n/a
370.394	0.135	740788	keystroke_o	o	n/a
370.604	0.135	741208	keystroke_t	t	n/a
370.709	0.12	741418	keystroke_h	h	n/a
370.754	0.225	741508	keystroke_e	e	n/a
370.949	0.18	741898	keystroke_r	r	n/a
371.369	0.12	742738	keystroke_w	w	n/a
371.595	0.164	743190	keystroke_i	i	n/a
371.729	0.135	743458	keystroke_s	s	n/a
371.834	0.105	743668	keystroke_e	e	n/a
371.984	0.18	743968	keystroke_Key.space	Key.space	n/a
372.134	0.18	744268	keystroke_l	l	n/a
372.224	0.165	744448	keystroke_i	i	n/a
372.404	0.12	744808	keystroke_t	t	n/a
372.494	0.165	744988	keystroke_e	e	n/a
372.599	0.12	745198	keystroke_Key.enter	Key.enter	n/a
372.726	6.82	745452	prompt	n/a	homepage bangladesh isbn print\n
373.275	0.149	746550	keystroke_h	h	n/a
373.379	0.24	746758	keystroke_o	o	n/a
373.544	0.12	747088	keystroke_m	m	n/a
373.574	0.15	747148	keystroke_e	e	n/a
373.784	0.15	747568	keystroke_p	p	n/a
373.89	0.179	747780	keystroke_a	a	n/a
374.054	0.12	748108	keystroke_g	g	n/a
374.159	0.12	748318	keystroke_e	e	n/a
374.234	0.135	748468	keystroke_Key.space	Key.space	n/a
374.504	0.105	749008	keystroke_b	b	n/a
374.895	0.149	749790	keystroke_a	a	n/a
375.059	0.12	750118	keystroke_n	n	n/a
375.329	0.075	750658	keystroke_g	g	n/a
375.465	0.15	750930	keystroke_l	l	n/a
375.629	0.121	751258	keystroke_a	a	n/a
376.0035	0.09	752007	keystroke_d	d	n/a
376.4085	0.121	752817	keystroke_e	e	n/a
376.5585	0.211	753117	keystroke_s	s	n/a
376.8885	0.165	753777	keystroke_h	h	n/a
377.1885	0.12	754377	keystroke_Key.space	Key.space	n/a
377.3985	0.135	754797	keystroke_i	i	n/a
377.7735	0.135	755547	keystroke_s	s	n/a
377.8945	0.105	755789	keystroke_b	b	n/a
378.1485	0.105	756297	keystroke_n	n	n/a
378.4635	0.12	756927	keystroke_Key.space	Key.space	n/a
378.7945	0.089	757589	keystroke_p	p	n/a
378.8985	0.135	757797	keystroke_r	r	n/a
379.0195	0.209	758039	keystroke_i	i	n/a
379.1535	0.121	758307	keystroke_n	n	n/a
379.2135	0.09	758427	keystroke_t	t	n/a
379.4385	0.105	758877	keystroke_Key.enter	Key.enter	n/a
379.5505	8.8605	759101	prompt	n/a	calculations designing evening cleveland\n
380.8195	0.12	761639	keystroke_c	c	n/a
380.8485	0.18	761697	keystroke_a	a	n/a
381.1195	0.149	762239	keystroke_l	l	n/a
381.9135	0.151	763827	keystroke_c	c	n/a
382.0035	0.135	764007	keystroke_u	u	n/a
382.1085	0.225	764217	keystroke_l	l	n/a
382.2885	0.181	764577	keystroke_a	a	n/a
382.4395	0.134	764879	keystroke_t	t	n/a
382.5445	0.149	765089	keystroke_i	i	n/a
382.6485	0.196	765297	keystroke_o	o	n/a
382.7835	0.15	765567	keystroke_n	n	n/a
382.9195	0.164	765839	keystroke_s	s	n/a
383.1285	0.165	766257	keystroke_Key.space	Key.space	n/a
383.3685	0.106	766737	keystroke_d	d	n/a
383.6535	0.15	767307	keystroke_e	e	n/a
383.7445	0.15	767489	keystroke_s	s	n/a
384.0735	0.121	768147	keystroke_i	i	n/a
384.3745	0.104	768749	keystroke_g	g	n/a
384.5395	0.18	769079	keystroke_n	n	n/a
384.7035	0.21	769407	keystroke_i	i	n/a
384.8245	0.119	769649	keystroke_n	n	n/a
384.9295	0.104	769859	keystroke_g	g	n/a
385.0785	0.12	770157	keystroke_Key.space	Key.space	n/a
385.1845	0.135	770369	keystroke_e	e	n/a
385.3945	0.119	770789	keystroke_v	v	n/a
385.5285	0.136	771057	keystroke_e	e	n/a
385.6495	0.12	771299	keystroke_n	n	n/a
385.7985	0.21	771597	keystroke_i	i	n/a
385.9185	0.121	771837	keystroke_n	n	n/a
386.0695	0.12	772139	keystroke_g	g	n/a
386.2035	0.135	772407	keystroke_Key.space	Key.space	n/a
386.4595	0.165	772919	keystroke_c	c	n/a
386.6255	0.163	773251	keystroke_l	l	n/a
386.7595	0.15	773519	keystroke_e	e	n/a
387.0745	0.195	774149	keystroke_v	v	n/a
387.4645	0.059	774929	keystroke_e	e	n/a
387.7035	0.166	775407	keystroke_l	l	n/a
387.8395	0.135	775679	keystroke_a	a	n/a
387.9895	0.135	775979	keystroke_n	n	n/a
388.1395	0.075	776279	keystroke_d	d	n/a
388.3045	0.104	776609	keystroke_Key.enter	Key.enter	n/a
388.417	6.1445	776834	prompt	n/a	roof marking suspect specifies\n
388.9795	0.12	777959	keystroke_r	r	n/a
389.0695	0.089	778139	keystroke_o	o	n/a
389.2195	0.12	778439	keystroke_o	o	n/a
389.3545	0.135	778709	keystroke_f	f	n/a
389.7585	0.09	779517	keystroke_Key.space	Key.space	n/a
390.0145	0.105	780029	keystroke_m	m	n/a
390.1495	0.165	780299	keystroke_a	a	n/a
390.2835	0.136	780567	keystroke_r	r	n/a
390.3745	0.105	780749	keystroke_k	k	n/a
390.5995	0.18	781199	keystroke_i	i	n/a
390.6895	0.119	781379	keystroke_n	n	n/a
390.7645	0.12	781529	keystroke_g	g	n/a
390.8985	0.105	781797	keystroke_Key.space	Key.space	n/a
391.0335	0.106	782067	keystroke_s	s	n/a
391.1095	0.135	782219	keystroke_u	u	n/a
391.2595	0.135	782519	keystroke_s	s	n/a
391.5895	0.135	783179	keystroke_p	p	n/a
391.7095	0.119	783419	keystroke_e	e	n/a
392.0095	0.119	784019	keystroke_c	c	n/a
392.3395	0.12	784679	keystroke_t	t	n/a
392.4595	0.135	784919	keystroke_Key.space	Key.space	n/a
392.6095	0.135	785219	keystroke_s	s	n/a
392.8345	0.15	785669	keystroke_p	p	n/a
392.9695	0.075	785939	keystroke_e	e	n/a
393.2545	0.105	786509	keystroke_c	c	n/a
393.4195	0.12	786839	keystroke_i	i	n/a
393.5545	0.105	787109	keystroke_f	f	n/a
393.6745	0.12	787349	keystroke_i	i	n/a
393.9445	0.21	787889	keystroke_e	e	n/a
394.1095	0.15	788219	keystroke_s	s	n/a
394.4545	0.105	788909	keystroke_Key.enter	Key.enter	n/a
394.5655	5.6205	789131	prompt	n/a	accurate milk both pressure\n
395.1745	0.135	790349	keystroke_a	a	n/a
395.3245	0.12	790649	keystroke_c	c	n/a
395.5345	0.135	791069	keystroke_c	c	n/a
395.7595	0.135	791519	keystroke_u	u	n/a
395.9095	0.135	791819	keystroke_r	r	n/a
396.0745	0.225	792149	keystroke_a	a	n/a
396.2845	0.15	792569	keystroke_t	t	n/a
396.3895	0.165	792779	keystroke_e	e	n/a
396.5695	0.12	793139	keystroke_Key.space	Key.space	n/a
397.1095	0.135	794219	keystroke_m	m	n/a
397.3195	0.18	794639	keystroke_i	i	n/a
397.4845	0.21	794969	keystroke_l	l	n/a
397.6495	0.165	795299	keystroke_k	k	n/a
397.9195	0.09	795839	keystroke_Key.space	Key.space	n/a
398.0995	0.165	796199	keystroke_b	b	n/a
398.1895	0.135	796379	keystroke_o	o	n/a
398.3245	0.15	796649	keystroke_t	t	n/a
398.4445	0.105	796889	keystroke_h	h	n/a
398.6095	0.135	797219	keystroke_Key.space	Key.space	n/a
398.8345	0.135	797669	keystroke_p	p	n/a
398.9545	0.225	797909	keystroke_r	r	n/a
399.0745	0.225	798149	keystroke_e	e	n/a
399.2695	0.105	798539	keystroke_s	s	n/a
399.4495	0.105	798899	keystroke_s	s	n/a
399.5995	0.135	799199	keystroke_u	u	n/a
399.7495	0.135	799499	keystroke_r	r	n/a
399.8545	0.12	799709	keystroke_e	e	n/a
400.0495	0.135	800099	keystroke_Key.enter	Key.enter	n/a
400.1905	5.396	800381	prompt	n/a	kitty rewards fairly muslim\n
400.7995	0.075	801599	keystroke_k	k	n/a
400.9795	0.12	801959	keystroke_i	i	n/a
401.0695	0.105	802139	keystroke_t	t	n/a
401.3695	0.015	802739	keystroke_t	t	n/a
401.3995	0.06	802799	keystroke_y	y	n/a
401.5045	0.15	803009	keystroke_Key.space	Key.space	n/a
401.6845	0.165	803369	keystroke_r	r	n/a
401.7895	0.195	803579	keystroke_e	e	n/a
401.9245	0.24	803849	keystroke_w	w	n/a
402.1345	0.27	804269	keystroke_a	a	n/a
402.3595	0.12	804719	keystroke_r	r	n/a
402.5995	0.165	805199	keystroke_d	d	n/a
402.7195	0.12	805439	keystroke_s	s	n/a
402.9295	0.15	805859	keystroke_Key.space	Key.space	n/a
403.1845	0.195	806369	keystroke_f	f	n/a
403.3495	0.195	806699	keystroke_a	a	n/a
403.5295	0.18	807059	keystroke_i	i	n/a
403.6945	0.105	807389	keystroke_r	r	n/a
403.8445	0.12	807689	keystroke_l	l	n/a
404.0695	0.105	808139	keystroke_y	y	n/a
404.2045	0.15	808409	keystroke_Key.space	Key.space	n/a
404.3845	0.105	808769	keystroke_m	m	n/a
404.5945	0.105	809189	keystroke_u	u	n/a
404.7005	0.104	809401	keystroke_s	s	n/a
404.8055	0.209	809611	keystroke_l	l	n/a
404.9995	0.225	809999	keystroke_i	i	n/a
405.1495	0.15	810299	keystroke_m	m	n/a
405.4645	0.12	810929	keystroke_Key.enter	Key.enter	n/a
405.5925	6.7135	811185	prompt	n/a	schema requiring manor benchmark\n
406.1545	0.15	812309	keystroke_s	s	n/a
406.3195	0.15	812639	keystroke_c	c	n/a
406.4245	0.09	812849	keystroke_h	h	n/a
406.5295	0.135	813059	keystroke_e	e	n/a
406.7095	0.09	813419	keystroke_m	m	n/a
406.8445	0.12	813689	keystroke_a	a	n/a
406.9945	0.135	813989	keystroke_Key.space	Key.space	n/a
407.1895	0.24	814379	keystroke_r	r	n/a
407.3245	0.165	814649	keystroke_e	e	n/a
407.5045	0.15	815009	keystroke_q	q	n/a
407.7745	0.12	815549	keystroke_u	u	n/a
408.0745	0.105	816149	keystroke_i	i	n/a
408.2095	0.15	816419	keystroke_r	r	n/a
408.3745	0.225	816749	keystroke_i	i	n/a
408.4945	0.15	816989	keystroke_n	n	n/a
408.6745	0.105	817349	keystroke_g	g	n/a
409.0945	0.12	818189	keystroke_Key.space	Key.space	n/a
409.3045	0.105	818609	keystroke_m	m	n/a
409.4545	0.18	818909	keystroke_a	a	n/a
409.5895	0.165	819179	keystroke_n	n	n/a
409.6945	0.18	819389	keystroke_o	o	n/a
409.8295	0.15	819659	keystroke_r	r	n/a
410.0545	0.105	820109	keystroke_Key.space	Key.space	n/a
410.4145	0.165	820829	keystroke_b	b	n/a
410.6995	0.105	821399	keystroke_e	e	n/a
410.8795	0.135	821759	keystroke_n	n	n/a
411.0745	0.135	822149	keystroke_c	c	n/a
411.2845	0.105	822569	keystroke_h	h	n/a
411.5695	0.105	823139	keystroke_m	m	n/a
411.6895	0.165	823379	keystroke_a	a	n/a
411.8095	0.135	823619	keystroke_r	r	n/a
411.9295	0.135	823859	keystroke_k	k	n/a
412.2145	0.09	824429	keystroke_Key.enter	Key.enter	n/a
412.311	6.595	824622	prompt	n/a	booking knitting remain movers\n
413.1145	0.165	826229	keystroke_b	b	n/a
413.2645	0.105	826529	keystroke_o	o	n/a
413.4745	0.18	826949	keystroke_o	o	n/a
413.6095	0.135	827219	keystroke_k	k	n/a
414.1345	0.21	828269	keystroke_i	i	n/a
414.2695	0.165	828539	keystroke_n	n	n/a
414.4645	0.135	828929	keystroke_g	g	n/a
414.6445	0.12	829289	keystroke_Key.space	Key.space	n/a
414.9595	0.21	829919	keystroke_k	k	n/a
415.0945	0.24	830189	keystroke_n	n	n/a
415.2745	0.15	830549	keystroke_i	i	n/a
415.4095	0.12	830819	keystroke_t	t	n/a
415.5895	0.15	831179	keystroke_t	t	n/a
415.7095	0.24	831419	keystroke_i	i	n/a
415.8295	0.121	831659	keystroke_n	n	n/a
415.9345	0.12	831869	keystroke_g	g	n/a
416.2945	0.105	832589	keystroke_Key.space	Key.space	n/a
416.4595	0.18	832919	keystroke_r	r	n/a
416.5795	0.165	833159	keystroke_e	e	n/a
416.7295	0.12	833459	keystroke_m	m	n/a
416.8645	0.21	833729	keystroke_a	a	n/a
417.0145	0.21	834029	keystroke_i	i	n/a
417.1345	0.12	834269	keystroke_n	n	n/a
417.3895	0.105	834779	keystroke_Key.space	Key.space	n/a
417.5545	0.165	835109	keystroke_m	m	n/a
417.6895	0.18	835379	keystroke_o	o	n/a
417.7795	0.135	835559	keystroke_v	v	n/a
417.9745	0.165	835949	keystroke_e	e	n/a
418.0945	0.195	836189	keystroke_r	r	n/a
418.2595	0.135	836519	keystroke_s	s	n/a
418.7845	0.12	837569	keystroke_Key.enter	Key.enter	n/a
418.9115	9.0255	837823	prompt	n/a	henry contrary seasons operators\n
419.6695	0.1045	839339	keystroke_h	h	n/a
419.7445	0.135	839489	keystroke_e	e	n/a
419.9095	0.135	839819	keystroke_n	n	n/a
420.2545	0.1495	840509	keystroke_r	r	n/a
420.449	0.1055	840898	keystroke_y	y	n/a
420.6745	0.1345	841349	keystroke_Key.space	Key.space	n/a
421.1095	0.165	842219	keystroke_c	c	n/a
421.1995	0.18	842399	keystroke_o	o	n/a
421.304	0.135	842608	keystroke_n	n	n/a
421.454	0.1655	842908	keystroke_t	t	n/a
421.6205	0.149	843241	keystroke_a	a	n/a
421.724	0.15	843448	keystroke_r	r	n/a
421.859	0.09	843718	keystroke_y	y	n/a
422.0695	0.1045	844139	keystroke_Key.space	Key.space	n/a
422.1895	0.1645	844379	keystroke_s	s	n/a
422.309	0.105	844618	keystroke_e	e	n/a
422.609	0.045	845218	keystroke_Key.backspace	Key.backspace	n/a
422.744	0.06	845488	keystroke_Key.backspace	Key.backspace	n/a
422.8795	0.0595	845759	keystroke_Key.backspace	Key.backspace	n/a
423.014	0.075	846028	keystroke_Key.backspace	Key.backspace	n/a
423.179	0.135	846358	keystroke_Key.backspace	Key.backspace	n/a
423.4195	0.075	846839	keystroke_r	r	n/a
423.539	0.06	847078	keystroke_Key.backspace	Key.backspace	n/a
423.704	0.075	847408	keystroke_Key.backspace	Key.backspace	n/a
423.78	0.179	847560	keystroke_r	r	n/a
423.989	0.21	847978	keystroke_a	a	n/a
424.214	0.165	848428	keystroke_r	r	n/a
424.469	0.09	848938	keystroke_y	y	n/a
424.919	0.135	849838	keystroke_Key.space	Key.space	n/a
425.174	0.21	850348	keystroke_s	s	n/a
425.339	0.15	850678	keystroke_e	e	n/a
425.474	0.165	850948	keystroke_a	a	n/a
425.609	0.165	851218	keystroke_s	s	n/a
425.775	0.179	851550	keystroke_o	o	n/a
425.864	0.165	851728	keystroke_n	n	n/a
426.014	0.09	852028	keystroke_s	s	n/a
426.224	0.135	852448	keystroke_Key.space	Key.space	n/a
426.464	0.195	852928	keystroke_o	o	n/a
426.6295	0.1945	853259	keystroke_p	p	n/a
426.794	0.165	853588	keystroke_e	e	n/a
426.914	0.18	853828	keystroke_r	r	n/a
427.034	0.24	854068	keystroke_a	a	n/a
427.259	0.12	854518	keystroke_t	t	n/a
427.394	0.15	854788	keystroke_o	o	n/a
427.529	0.15	855058	keystroke_r	r	n/a
427.814	0.12	855628	keystroke_Key.enter	Key.enter	n/a
427.942	4.7495	855884	prompt	n/a	pottery motels funds lonely\n
428.564	0.165	857128	keystroke_p	p	n/a
428.67	0.224	857340	keystroke_o	o	n/a
428.864	0.12	857728	keystroke_t	t	n/a
429.074	0.15	858148	keystroke_t	t	n/a
429.209	0.195	858418	keystroke_e	e	n/a
429.359	0.105	858718	keystroke_r	r	n/a
429.584	0.075	859168	keystroke_y	y	n/a
429.824	0.135	859648	keystroke_Key.space	Key.space	n/a
430.049	0.12	860098	keystroke_m	m	n/a
430.139	0.15	860278	keystroke_o	o	n/a
430.229	0.12	860458	keystroke_t	t	n/a
430.29	0.149	860580	keystroke_e	e	n/a
430.454	0.15	860908	keystroke_l	l	n/a
430.589	0.105	861178	keystroke_s	s	n/a
430.724	0.135	861448	keystroke_Key.space	Key.space	n/a
430.844	0.105	861688	keystroke_f	f	n/a
430.965	0.089	861930	keystroke_u	u	n/a
431.174	0.135	862348	keystroke_n	n	n/a
431.279	0.135	862558	keystroke_d	d	n/a
431.384	0.105	862768	keystroke_s	s	n/a
431.49	0.119	862980	keystroke_Key.space	Key.space	n/a
431.549	0.15	863098	keystroke_l	l	n/a
431.774	0.195	863548	keystroke_o	o	n/a
431.909	0.151	863818	keystroke_n	n	n/a
432.044	0.135	864088	keystroke_e	e	n/a
432.18	0.134	864360	keystroke_l	l	n/a
432.374	0.105	864748	keystroke_y	y	n/a
432.599	0.09	865198	keystroke_Key.enter	Key.enter	n/a
432.696	7.016	865392	prompt	n/a	health million preventing democrat\n
433.409	0.12	866818	keystroke_h	h	n/a
433.544	0.135	867088	keystroke_e	e	n/a
433.604	0.15	867208	keystroke_a	a	n/a
433.709	0.15	867418	keystroke_l	l	n/a
433.874	0.15	867748	keystroke_t	t	n/a
434.009	0.105	868018	keystroke_h	h	n/a
434.519	0.061	869038	keystroke_y	y	n/a
434.864	0.06	869728	keystroke_Key.backspace	Key.backspace	n/a
435.074	0.105	870148	keystroke_Key.space	Key.space	n/a
435.374	0.18	870748	keystroke_m	m	n/a
435.54	0.134	871080	keystroke_i	i	n/a
435.615	0.135	871230	keystroke_l	l	n/a
435.839	0.12	871678	keystroke_l	l	n/a
435.974	0.165	871948	keystroke_i	i	n/a
436.125	0.15	872250	keystroke_o	o	n/a
436.23	0.149	872460	keystroke_n	n	n/a
436.349	0.135	872698	keystroke_Key.space	Key.space	n/a
436.469	0.196	872938	keystroke_p	p	n/a
436.604	0.135	873208	keystroke_r	r	n/a
436.679	0.18	873358	keystroke_e	e	n/a
436.905	0.164	873810	keystroke_v	v	n/a
437.025	0.165	874050	keystroke_e	e	n/a
437.175	0.119	874350	keystroke_n	n	n/a
437.34	0.12	874680	keystroke_t	t	n/a
437.474	0.241	874948	keystroke_i	i	n/a
437.625	0.134	875250	keystroke_n	n	n/a
437.775	0.135	875550	keystroke_g	g	n/a
437.894	0.12	875788	keystroke_Key.space	Key.space	n/a
437.985	0.15	875970	keystroke_d	d	n/a
438.209	0.135	876418	keystroke_e	e	n/a
438.329	0.15	876658	keystroke_m	m	n/a
438.464	0.196	876928	keystroke_o	o	n/a
438.69	0.225	877380	keystroke_c	c	n/a
439.094	0.196	878188	keystroke_r	r	n/a
439.215	0.194	878430	keystroke_a	a	n/a
439.41	0.105	878820	keystroke_t	t	n/a
439.574	0.135	879148	keystroke_Key.enter	Key.enter	n/a
439.715	11.1425	879430	prompt	n/a	cambridge consultation ocean customize\n
440.295	0.18	880590	keystroke_c	c	n/a
440.459	0.15	880918	keystroke_a	a	n/a
440.579	0.136	881158	keystroke_m	m	n/a
440.835	0.164	881670	keystroke_b	b	n/a
440.984	0.12	881968	keystroke_r	r	n/a
441.119	0.121	882238	keystroke_i	i	n/a
441.285	0.15	882570	keystroke_d	d	n/a
441.449	0.031	882898	keystroke_d	d	n/a
441.659	0.121	883318	keystroke_g	g	n/a
441.929	0.075	883858	keystroke_Key.backspace	Key.backspace	n/a
442.064	0.105	884128	keystroke_Key.backspace	Key.backspace	n/a
442.155	0.165	884310	keystroke_g	g	n/a
442.26	0.18	884520	keystroke_e	e	n/a
442.574	0.15	885148	keystroke_Key.space	Key.space	n/a
442.814	0.135	885628	keystroke_c	c	n/a
443.084	0.12	886168	keystroke_o	o	n/a
443.385	0.06	886770	keystroke_n	n	n/a
443.64	0.12	887280	keystroke_s	s	n/a
443.97	0.09	887940	keystroke_u	u	n/a
444.36	0.135	888720	keystroke_l	l	n/a
444.81	0.134	889620	keystroke_t	t	n/a
444.93	0.194	889860	keystroke_a	a	n/a
445.109	0.106	890218	keystroke_t	t	n/a
445.304	0.135	890608	keystroke_o	o	n/a
446.43	0.119	892860	keystroke_Key.backspace	Key.backspace	n/a
447.03	0.119	894060	keystroke_i	i	n/a
447.3	0.21	894600	keystroke_o	o	n/a
447.495	0.134	894990	keystroke_n	n	n/a
447.749	0.105	895498	keystroke_Key.space	Key.space	n/a
448.005	0.165	896010	keystroke_o	o	n/a
448.185	0.15	896370	keystroke_c	c	n/a
448.32	0.15	896640	keystroke_e	e	n/a
448.44	0.134	896880	keystroke_a	a	n/a
448.545	0.12	897090	keystroke_n	n	n/a
448.71	0.135	897420	keystroke_Key.space	Key.space	n/a
448.89	0.165	897780	keystroke_c	c	n/a
449.07	0.12	898140	keystroke_u	u	n/a
449.205	0.18	898410	keystroke_s	s	n/a
449.37	0.165	898740	keystroke_t	t	n/a
449.52	0.225	899040	keystroke_o	o	n/a
449.64	0.165	899280	keystroke_m	m	n/a
449.895	0.18	899790	keystroke_i	i	n/a
450.18	0.165	900360	keystroke_z	z	n/a
450.42	0.165	900840	keystroke_e	e	n/a
450.72	0.135	901440	keystroke_Key.enter	Key.enter	n/a
450.8615	6.3255	901723	prompt	n/a	preventing santa beijing dogs\n
451.485	0.195	902970	keystroke_p	p	n/a
451.635	0.12	903270	keystroke_r	r	n/a
451.725	0.12	903450	keystroke_e	e	n/a
451.905	0.18	903810	keystroke_v	v	n/a
452.04	0.165	904080	keystroke_e	e	n/a
452.175	0.165	904350	keystroke_n	n	n/a
452.355	0.135	904710	keystroke_t	t	n/a
452.475	0.255	904950	keystroke_i	i	n/a
452.64	0.15	905280	keystroke_n	n	n/a
452.805	0.105	905610	keystroke_g	g	n/a
452.97	0.12	905940	keystroke_Key.space	Key.space	n/a
453.165	0.195	906330	keystroke_s	s	n/a
453.315	0.18	906630	keystroke_a	a	n/a
453.495	0.18	906990	keystroke_n	n	n/a
453.66	0.165	907320	keystroke_t	t	n/a
453.78	0.135	907560	keystroke_a	a	n/a
453.93	0.12	907860	keystroke_Key.space	Key.space	n/a
454.29	0.15	908580	keystroke_b	b	n/a
454.425	0.135	908850	keystroke_e	e	n/a
454.575	0.135	909150	keystroke_i	i	n/a
454.995	0.135	909990	keystroke_j	j	n/a
455.145	0.24	910290	keystroke_i	i	n/a
455.295	0.165	910590	keystroke_n	n	n/a
455.97	0.135	911940	keystroke_g	g	n/a
456.24	0.15	912480	keystroke_Key.space	Key.space	n/a
456.54	0.12	913080	keystroke_d	d	n/a
456.63	0.135	913260	keystroke_o	o	n/a
456.795	0.135	913590	keystroke_g	g	n/a
456.9	0.135	913800	keystroke_s	s	n/a
457.05	0.135	914100	keystroke_Key.enter	Key.enter	n/a
457.192	7.9895	914384	prompt	n/a	establishment permitted boolean bits\n
458.085	0.165	916170	keystroke_e	e	n/a
458.22	0.135	916440	keystroke_s	s	n/a
458.685	0.15	917370	keystroke_t	t	n/a
458.85	0.135	917700	keystroke_a	a	n/a
459	0.135	918000	keystroke_b	b	n/a
459.195	0.18	918390	keystroke_l	l	n/a
459.27	0.165	918540	keystroke_i	i	n/a
459.39	0.12	918780	keystroke_s	s	n/a
459.54	0.135	919080	keystroke_h	h	n/a
459.915	0.105	919830	keystroke_m	m	n/a
460.035	0.135	920070	keystroke_e	e	n/a
460.215	0.135	920430	keystroke_n	n	n/a
460.335	0.09	920670	keystroke_t	t	n/a
460.485	0.12	920970	keystroke_Key.space	Key.space	n/a
460.785	0.15	921570	keystroke_p	p	n/a
460.92	0.165	921840	keystroke_e	e	n/a
461.04	0.15	922080	keystroke_r	r	n/a
461.19	0.21	922380	keystroke_m	m	n/a
461.34	0.165	922680	keystroke_i	i	n/a
461.565	0.135	923130	keystroke_t	t	n/a
461.76	0.12	923520	keystroke_t	t	n/a
461.85	0.135	923700	keystroke_e	e	n/a
462.12	0.105	924240	keystroke_d	d	n/a
462.21	0.09	924420	keystroke_Key.space	Key.space	n/a
462.42	0.195	924840	keystroke_b	b	n/a
462.585	0.105	925170	keystroke_l	l	n/a
462.96	0.075	925920	keystroke_Key.backspace	Key.backspace	n/a
463.185	0.105	926370	keystroke_o	o	n/a
463.38	0.075	926760	keystroke_o	o	n/a
463.545	0.135	927090	keystroke_l	l	n/a
463.665	0.135	927330	keystroke_e	e	n/a
463.86	0.18	927720	keystroke_a	a	n/a
464.025	0.105	928050	keystroke_n	n	n/a
464.25	0.075	928500	keystroke_Key.space	Key.space	n/a
464.46	0.15	928920	keystroke_b	b	n/a
464.58	0.165	929160	keystroke_i	i	n/a
464.73	0.18	929460	keystroke_t	t	n/a
464.88	0.15	929760	keystroke_s	s	n/a
465.045	0.135	930090	keystroke_Key.enter	Key.enter	n/a
465.187	5.335	930374	prompt	n/a	town essentially posting menu\n
465.78	0.105	931560	keystroke_t	t	n/a
465.9	0.15	931800	keystroke_o	o	n/a
466.02	0.135	932040	keystroke_w	w	n/a
466.2	0.09	932400	keystroke_n	n	n/a
466.395	0.12	932790	keystroke_Key.space	Key.space	n/a
466.605	0.165	933210	keystroke_e	e	n/a
466.83	0.165	933660	keystroke_s	s	n/a
467.085	0.18	934170	keystroke_s	s	n/a
467.22	0.165	934440	keystroke_e	e	n/a
467.4	0.105	934800	keystroke_n	n	n/a
467.52	0.12	935040	keystroke_t	t	n/a
467.67	0.135	935340	keystroke_i	i	n/a
467.79	0.15	935580	keystroke_a	a	n/a
467.955	0.09	935910	keystroke_l	l	n/a
468.105	0.12	936210	keystroke_l	l	n/a
468.33	0.09	936660	keystroke_y	y	n/a
468.495	0.12	936990	keystroke_Key.space	Key.space	n/a
468.69	0.18	937380	keystroke_p	p	n/a
468.81	0.195	937620	keystroke_o	o	n/a
468.9	0.18	937800	keystroke_s	s	n/a
469.05	0.15	938100	keystroke_t	t	n/a
469.185	0.21	938370	keystroke_i	i	n/a
469.32	0.12	938640	keystroke_n	n	n/a
469.425	0.105	938850	keystroke_g	g	n/a
469.515	0.135	939030	keystroke_Key.space	Key.space	n/a
469.665	0.135	939330	keystroke_m	m	n/a
469.815	0.12	939630	keystroke_e	e	n/a
469.92	0.12	939840	keystroke_n	n	n/a
470.16	0.105	940320	keystroke_u	u	n/a
470.415	0.105	940830	keystroke_Key.enter	Key.enter	n/a
470.5265	11.125	941053	prompt	n/a	emerald wanna caps kazakhstan\n
471	0.165	942000	keystroke_e	e	n/a
471.15	0.12	942300	keystroke_m	m	n/a
471.285	0.15	942570	keystroke_e	e	n/a
471.39	0.18	942780	keystroke_r	r	n/a
471.525	0.135	943050	keystroke_e	e	n/a
472.23	0.12	944460	keystroke_Key.backspace	Key.backspace	n/a
473.2345	0.045	946469	keystroke_e	e	n/a
473.6545	0.09	947309	keystroke_Key.backspace	Key.backspace	n/a
473.7595	0.12	947519	keystroke_a	a	n/a
473.9095	0.195	947819	keystroke_l	l	n/a
474.0895	0.09	948179	keystroke_d	d	n/a
474.2395	0.135	948479	keystroke_Key.space	Key.space	n/a
474.3595	0.165	948719	keystroke_w	w	n/a
474.5695	0.12	949139	keystroke_a	a	n/a
474.7045	0.075	949409	keystroke_n	n	n/a
474.8845	0.12	949769	keystroke_n	n	n/a
475.0345	0.18	950069	keystroke_a	a	n/a
475.1995	0.12	950399	keystroke_Key.space	Key.space	n/a
475.4245	0.15	950849	keystroke_c	c	n/a
475.4995	0.165	950999	keystroke_a	a	n/a
475.6495	0.15	951299	keystroke_p	p	n/a
475.8145	0.12	951629	keystroke_s	s	n/a
475.9495	0.12	951899	keystroke_Key.space	Key.space	n/a
476.2195	0.12	952439	keystroke_k	k	n/a
476.3545	0.12	952709	keystroke_a	a	n/a
476.9395	0.135	953879	keystroke_z	z	n/a
477.1945	0.21	954389	keystroke_a	a	n/a
478.9945	0.06	957989	keystroke_s	s	n/a
479.3995	0.105	958799	keystroke_Key.backspace	Key.backspace	n/a
479.7745	0.12	959549	keystroke_k	k	n/a
480.3295	0.09	960659	keystroke_h	h	n/a
480.8995	0.105	961799	keystroke_s	s	n/a
481.0195	0.165	962039	keystroke_t	t	n/a
481.1245	0.165	962249	keystroke_a	a	n/a
481.2745	0.135	962549	keystroke_n	n	n/a
481.5595	0.09	963119	keystroke_Key.enter	Key.enter	n/a
481.655	14.4115	963310	prompt	n/a	veterinary valuable flashing carrying\n
483.4355	0.149	966871	keystroke_v	v	n/a
483.5545	0.15	967109	keystroke_e	e	n/a
483.9595	0.165	967919	keystroke_t	t	n/a
484.1395	0.15	968279	keystroke_e	e	n/a
484.2595	0.135	968519	keystroke_r	r	n/a
485.1745	0.135	970349	keystroke_i	i	n/a
485.4595	0.165	970919	keystroke_n	n	n/a
485.8045	0.18	971609	keystroke_a	a	n/a
485.9245	0.15	971849	keystroke_r	r	n/a
486.0895	0.135	972179	keystroke_y	y	n/a
486.2995	0.135	972599	keystroke_Key.space	Key.space	n/a
486.7045	0.015	973409	keystroke_v	v	n/a
486.8395	0.15	973679	keystroke_v	v	n/a
486.8995	0.195	973799	keystroke_a	a	n/a
487.3795	0.075	974759	keystroke_Key.backspace	Key.backspace	n/a
487.5445	0.105	975089	keystroke_Key.backspace	Key.backspace	n/a
487.6645	0.135	975329	keystroke_a	a	n/a
488.0545	0.151	976109	keystroke_l	l	n/a
488.2645	0.106	976529	keystroke_u	u	n/a
488.4745	0.12	976949	keystroke_a	a	n/a
488.6545	0.195	977309	keystroke_b	b	n/a
488.8055	0.149	977611	keystroke_l	l	n/a
488.8945	0.15	977789	keystroke_e	e	n/a
489.3595	0.12	978719	keystroke_Key.space	Key.space	n/a
489.6745	0.045	979349	keystroke_f	f	n/a
489.6905	0.1195	979381	keystroke_a	a	n/a
489.7795	0.135	979559	keystroke_l	l	n/a
489.9005	0.164	979801	keystroke_s	s	n/a
490.0345	0.18	980069	keystroke_h	h	n/a
490.1695	0.27	980339	keystroke_i	i	n/a
490.3495	0.12	980699	keystroke_n	n	n/a
490.4555	0.119	980911	keystroke_g	g	n/a
490.6045	0.12	981209	keystroke_Key.space	Key.space	n/a
490.7395	0.165	981479	keystroke_c	c	n/a
490.9055	0.179	981811	keystroke_a	a	n/a
491.0395	0.121	982079	keystroke_r	r	n/a
491.3095	0.075	982619	keystroke_Key.backspace	Key.backspace	n/a
491.4595	0.06	982919	keystroke_Key.backspace	Key.backspace	n/a
491.5945	0.06	983189	keystroke_Key.backspace	Key.backspace	n/a
491.7295	0.075	983459	keystroke_Key.backspace	Key.backspace	n/a
491.8645	0.09	983729	keystroke_Key.backspace	Key.backspace	n/a
492.0145	0.06	984029	keystroke_Key.backspace	Key.backspace	n/a
492.1495	0.075	984299	keystroke_Key.backspace	Key.backspace	n/a
492.3145	0.09	984629	keystroke_Key.backspace	Key.backspace	n/a
492.4795	0.075	984959	keystroke_Key.backspace	Key.backspace	n/a
492.6745	0.09	985349	keystroke_Key.backspace	Key.backspace	n/a
493.1095	0.09	986219	keystroke_Key.backspace	Key.backspace	n/a
493.5755	0.135	987151	keystroke_l	l	n/a
493.6805	0.225	987361	keystroke_a	a	n/a
493.8605	0.15	987721	keystroke_s	s	n/a
493.9945	0.18	987989	keystroke_h	h	n/a
494.1305	0.224	988261	keystroke_i	i	n/a
494.2645	0.105	988529	keystroke_n	n	n/a
494.4145	0.121	988829	keystroke_g	g	n/a
494.5195	0.15	989039	keystroke_Key.space	Key.space	n/a
494.7295	0.165	989459	keystroke_c	c	n/a
494.8955	0.194	989791	keystroke_a	a	n/a
495.0155	0.134	990031	keystroke_r	r	n/a
495.2095	0.12	990419	keystroke_r	r	n/a
495.3305	0.134	990661	keystroke_y	y	n/a
495.5105	0.21	991021	keystroke_i	i	n/a
495.6145	0.135	991229	keystroke_n	n	n/a
495.7645	0.121	991529	keystroke_g	g	n/a
495.9605	0.104	991921	keystroke_Key.enter	Key.enter	n/a
496.0705	6.791	992141	prompt	n/a	plymouth carolina pastor suddenly\n
496.6645	0.181	993329	keystroke_p	p	n/a
496.9645	0.151	993929	keystroke_l	l	n/a
497.2345	0.136	994469	keystroke_y	y	n/a
497.6695	0.105	995339	keystroke_m	m	n/a
497.8345	0.15	995669	keystroke_o	o	n/a
497.9245	0.136	995849	keystroke_u	u	n/a
498.0295	0.151	996059	keystroke_t	t	n/a
498.1495	0.15	996299	keystroke_h	h	n/a
498.3145	0.121	996629	keystroke_Key.space	Key.space	n/a
498.4945	0.15	996989	keystroke_c	c	n/a
498.6005	0.24	997201	keystroke_a	a	n/a
498.7805	0.135	997561	keystroke_r	r	n/a
498.8545	0.151	997709	keystroke_o	o	n/a
499.1095	0.211	998219	keystroke_l	l	n/a
499.2905	0.194	998581	keystroke_i	i	n/a
499.4105	0.119	998821	keystroke_n	n	n/a
499.5005	0.15	999001	keystroke_a	a	n/a
499.6195	0.135	999239	keystroke_Key.space	Key.space	n/a
499.8305	0.165	999661	keystroke_p	p	n/a
499.8895	0.196	999779	keystroke_a	a	n/a
500.0105	0.195	1000021	keystroke_s	s	n/a
500.2205	0.149	1000441	keystroke_t	t	n/a
500.6245	0.136	1001249	keystroke_o	o	n/a
500.7295	0.106	1001459	keystroke_r	r	n/a
500.8645	0.135	1001729	keystroke_Key.space	Key.space	n/a
501.0745	0.106	1002149	keystroke_s	s	n/a
501.2255	0.089	1002451	keystroke_u	u	n/a
501.3445	0.15	1002689	keystroke_d	d	n/a
501.6005	0.135	1003201	keystroke_d	d	n/a
501.8255	0.12	1003651	keystroke_e	e	n/a
501.9305	0.119	1003861	keystroke_n	n	n/a
502.3055	0.105	1004611	keystroke_l	l	n/a
502.4705	0.15	1004941	keystroke_y	y	n/a
