onset	duration	sample	value	key	prompt_text
4.453	11.107	8906	prompt	n/a	the quick brown fox jumps over a lazy dog\n
5.8075	0.0285	11615	keystroke_t	t	n/a
5.851	0.075	11702	keystroke_h	h	n/a
5.911	0.105	11822	keystroke_e	e	n/a
6.106	0.03	12212	keystroke_Key.space	Key.space	n/a
6.7515	0.09	13503	keystroke_q	q	n/a
6.932	0.12	13864	keystroke_u	u	n/a
7.022	0.09	14044	keystroke_i	i	n/a
7.187	0.06	14374	keystroke_c	c	n/a
7.337	0.15	14674	keystroke_k	k	n/a
7.487	0.075	14974	keystroke_Key.space	Key.space	n/a
7.697	0.09	15394	keystroke_b	b	n/a
7.877	0.09	15754	keystroke_r	r	n/a
8.012	0.075	16024	keystroke_o	o	n/a
8.117	0.09	16234	keystroke_w	w	n/a
8.312	0.1495	16624	keystroke_n	n	n/a
8.4465	0.075	16893	keystroke_Key.space	Key.space	n/a
8.6715	0.06	17343	keystroke_f	f	n/a
8.7915	0.0905	17583	keystroke_o	o	n/a
9.092	0.06	18184	keystroke_x	x	n/a
9.4215	0.105	18843	keystroke_Key.space	Key.space	n/a
9.6165	0.0905	19233	keystroke_j	j	n/a
9.827	0.0745	19654	keystroke_u	u	n/a
10.0365	0.105	20073	keystroke_m	m	n/a
10.232	0.0895	20464	keystroke_p	p	n/a
10.4115	0.0905	20823	keystroke_s	s	n/a
10.712	0.075	21424	keystroke_Key.space	Key.space	n/a
10.862	0.09	21724	keystroke_o	o	n/a
11.012	0.12	22024	keystroke_v	v	n/a
11.147	0.165	22294	keystroke_e	e	n/a
11.267	0.105	22534	keystroke_r	r	n/a
11.387	0.09	22774	keystroke_Key.space	Key.space	n/a
11.552	0.06	23104	keystroke_a	a	n/a
11.702	0.06	23404	keystroke_Key.space	Key.space	n/a
12.0915	0.1055	24183	keystroke_l	l	n/a
12.5415	0.0905	25083	keystroke_a	a	n/a
12.737	0.09	25474	keystroke_z	z	n/a
12.902	0.1345	25804	keystroke_y	y	n/a
13.022	0.1045	26044	keystroke_Key.space	Key.space	n/a
13.817	0.0905	27634	keystroke_d	d	n/a
13.9225	0.105	27845	keystroke_o	o	n/a
14.072	0.0755	28144	keystroke_g	g	n/a
15.482	0.075	30964	keystroke_Key.enter	Key.enter	n/a
15.564	15.9485	31128	prompt	n/a	diversity nose oregon reviewing\n
16.7125	0.075	33425	keystroke_d	d	n/a
16.8625	0.09	33725	keystroke_i	i	n/a
16.9675	0.12	33935	keystroke_v	v	n/a
17.1625	0.135	34325	keystroke_e	e	n/a
17.2525	0.09	34505	keystroke_r	r	n/a
17.5225	0.12	35045	keystroke_s	s	n/a
17.6575	0.075	35315	keystroke_i	i	n/a
18.0925	0.06	36185	keystroke_t	t	n/a
18.542	0.075	37084	keystroke_t	t	n/a
19.262	0.09	38524	keystroke_Key.backspace	Key.backspace	n/a
19.382	0.045	38764	keystroke_y	y	n/a
21.332	0.12	42664	keystroke_n	n	n/a
21.407	0.12	42814	keystroke_o	o	n/a
21.497	0.105	42994	keystroke_s	s	n/a
21.722	0.075	43444	keystroke_e	e	n/a
21.857	0.09	43714	keystroke_Key.space	Key.space	n/a
22.502	0.06	45004	keystroke_Key.backspace	Key.backspace	n/a
22.667	0.06	45334	keystroke_Key.backspace	Key.backspace	n/a
22.8175	0.06	45635	keystroke_Key.backspace	Key.backspace	n/a
22.9675	0.075	45935	keystroke_Key.backspace	Key.backspace	n/a
23.1475	0.075	46295	keystroke_Key.backspace	Key.backspace	n/a
23.3725	0.09	46745	keystroke_Key.space	Key.space	n/a
23.6125	0.105	47225	keystroke_n	n	n/a
23.7925	0.105	47585	keystroke_o	o	n/a
23.9125	0.075	47825	keystroke_s	s	n/a
24.0925	0.105	48185	keystroke_e	e	n/a
24.2275	0.105	48455	keystroke_Key.space	Key.space	n/a
24.4225	0.1045	48845	keystroke_o	o	n/a
24.542	0.1055	49084	keystroke_r	r	n/a
24.7075	0.09	49415	keystroke_e	e	n/a
24.9925	0.105	49985	keystroke_g	g	n/a
25.1575	0.12	50315	keystroke_o	o	n/a
25.2475	0.105	50495	keystroke_n	n	n/a
25.5325	0.09	51065	keystroke_Key.space	Key.space	n/a
26.747	0.135	53494	keystroke_r	r	n/a
26.897	0.09	53794	keystroke_e	e	n/a
27.302	0.105	54604	keystroke_v	v	n/a
27.452	0.075	54904	keystroke_i	i	n/a
27.542	0.165	55084	keystroke_e	e	n/a
27.722	0.105	55444	keystroke_w	w	n/a
28.2475	0.09	56495	keystroke_i	i	n/a
28.4575	0.06	56915	keystroke_g	g	n/a
28.9075	0.045	57815	keystroke_Key.backspace	Key.backspace	n/a
29.1175	0.09	58235	keystroke_n	n	n/a
29.2225	0.12	58445	keystroke_g	g	n/a
31.4595	0.043	62919	keystroke_Key.enter	Key.enter	n/a
31.5185	9.8705	63037	prompt	n/a	below viral pixels buyers\n
32.657	0.075	65314	keystroke_b	b	n/a
32.987	0.075	65974	keystroke_e	e	n/a
33.0925	0.0895	66185	keystroke_l	l	n/a
33.302	0.076	66604	keystroke_o	o	n/a
33.4225	0.09	66845	keystroke_w	w	n/a
33.6025	0.105	67205	keystroke_Key.space	Key.space	n/a
33.9925	0.12	67985	keystroke_v	v	n/a
34.142	0.09	68284	keystroke_i	i	n/a
34.292	0.09	68584	keystroke_r	r	n/a
34.532	0.09	69064	keystroke_a	a	n/a
34.9975	0.135	69995	keystroke_l	l	n/a
35.2675	0.09	70535	keystroke_Key.space	Key.space	n/a
35.477	0.045	70954	keystroke_p	p	n/a
35.792	0.015	71584	keystroke_i	i	n/a
36.842	0.0605	73684	keystroke_x	x	n/a
37.0525	0.075	74105	keystroke_e	e	n/a
37.2475	0.09	74495	keystroke_l	l	n/a
38.1175	0.075	76235	keystroke_s	s	n/a
38.3425	0.09	76685	keystroke_Key.space	Key.space	n/a
38.6725	0.09	77345	keystroke_b	b	n/a
39.137	0.076	78274	keystroke_y	y	n/a
39.662	0.0605	79324	keystroke_Key.backspace	Key.backspace	n/a
39.9325	0.06	79865	keystroke_u	u	n/a
40.1425	0.06	80285	keystroke_y	y	n/a
40.4275	0.15	80855	keystroke_e	e	n/a
40.5025	0.105	81005	keystroke_r	r	n/a
40.7725	0.105	81545	keystroke_s	s	n/a
41.312	0.075	82624	keystroke_Key.enter	Key.enter	n/a
41.3915	11.3225	82783	prompt	n/a	individually spain case bride\n
41.957	0.105	83914	keystroke_i	i	n/a
42.092	0.135	84184	keystroke_n	n	n/a
42.872	0.09	85744	keystroke_d	d	n/a
42.992	0.09	85984	keystroke_i	i	n/a
43.337	0.075	86674	keystroke_v	v	n/a
43.517	0.075	87034	keystroke_i	i	n/a
44.012	0.075	88024	keystroke_d	d	n/a
44.7925	0.045	89585	keystroke_u	u	n/a
45.2875	0.105	90575	keystroke_a	a	n/a
45.4075	0.0605	90815	keystroke_l	l	n/a
45.5725	0.06	91145	keystroke_l	l	n/a
45.7675	0.15	91535	keystroke_y	y	n/a
45.9025	0.105	91805	keystroke_Key.space	Key.space	n/a
46.4125	0.0745	92825	keystroke_s	s	n/a
46.563	0.075	93126	keystroke_p	p	n/a
46.6975	0.105	93395	keystroke_a	a	n/a
47.2225	0.12	94445	keystroke_i	i	n/a
47.298	0.1495	94596	keystroke_n	n	n/a
47.4325	0.105	94865	keystroke_Key.space	Key.space	n/a
47.6275	0.135	95255	keystroke_c	c	n/a
47.7475	0.1795	95495	keystroke_a	a	n/a
47.852	0.135	95704	keystroke_s	s	n/a
48.303	0.089	96606	keystroke_e	e	n/a
49.5925	0.09	99185	keystroke_Key.space	Key.space	n/a
50.0425	0.105	100085	keystroke_b	b	n/a
50.2075	0.105	100415	keystroke_r	r	n/a
50.3275	0.105	100655	keystroke_i	i	n/a
50.7475	0.105	101495	keystroke_f	f	n/a
51.0175	0.075	102035	keystroke_e	e	n/a
51.3175	0.09	102635	keystroke_Key.backspace	Key.backspace	n/a
51.4825	0.075	102965	keystroke_Key.backspace	Key.backspace	n/a
51.5875	0.1045	103175	keystroke_g	g	n/a
52.1425	0.09	104285	keystroke_Key.backspace	Key.backspace	n/a
52.3975	0.09	104795	keystroke_d	d	n/a
52.532	0.106	105064	keystroke_e	e	n/a
52.653	0.059	105306	keystroke_Key.enter	Key.enter	n/a
52.7165	10.7825	105433	prompt	n/a	economics default stress patients\n
55.16	0.043	110320	keystroke_e	e	n/a
55.2775	0.0755	110555	keystroke_c	c	n/a
55.4725	0.075	110945	keystroke_o	o	n/a
55.7275	0.075	111455	keystroke_n	n	n/a
55.9675	0.075	111935	keystroke_o	o	n/a
56.1925	0.09	112385	keystroke_m	m	n/a
56.4025	0.075	112805	keystroke_i	i	n/a
56.5975	0.15	113195	keystroke_c	c	n/a
56.8075	0.105	113615	keystroke_s	s	n/a
57.032	0.105	114064	keystroke_Key.space	Key.space	n/a
57.3925	0.135	114785	keystroke_d	d	n/a
57.4975	0.105	114995	keystroke_e	e	n/a
58.0225	0.105	116045	keystroke_f	f	n/a
58.2325	0.12	116465	keystroke_a	a	n/a
58.3825	0.09	116765	keystroke_u	u	n/a
58.6075	0.0895	117215	keystroke_l	l	n/a
58.758	0.09	117516	keystroke_t	t	n/a
58.907	0.09	117814	keystroke_Key.space	Key.space	n/a
59.147	0.12	118294	keystroke_s	s	n/a
59.432	0.09	118864	keystroke_t	t	n/a
59.628	0.105	119256	keystroke_r	r	n/a
59.688	0.105	119376	keystroke_e	e	n/a
59.927	0.075	119854	keystroke_s	s	n/a
60.092	0.075	120184	keystroke_s	s	n/a
60.227	0.105	120454	keystroke_Key.space	Key.space	n/a
60.528	0.1045	121056	keystroke_p	p	n/a
60.783	0.075	121566	keystroke_a	a	n/a
61.2475	0.1055	122495	keystroke_t	t	n/a
62.133	0.075	124266	keystroke_i	i	n/a
62.283	0.09	124566	keystroke_e	e	n/a
62.418	0.089	124836	keystroke_n	n	n/a
62.567	0.09	125134	keystroke_t	t	n/a
62.793	0.0895	125586	keystroke_s	s	n/a
63.4225	0.075	126845	keystroke_Key.enter	Key.enter	n/a
63.502	12.6425	127004	prompt	n/a	anticipated feedback absence norfolk\n
64.0825	0.225	128165	keystroke_a	a	n/a
64.3525	0.015	128705	keystroke_n	n	n/a
64.4275	0.0755	128855	keystroke_t	t	n/a
64.578	0.09	129156	keystroke_i	i	n/a
64.743	0.1045	129486	keystroke_c	c	n/a
64.9375	0.06	129875	keystroke_i	i	n/a
65.2375	0.075	130475	keystroke_p	p	n/a
65.4475	0.09	130895	keystroke_a	a	n/a
65.7025	0.09	131405	keystroke_t	t	n/a
65.8975	0.15	131795	keystroke_e	e	n/a
66.0325	0.105	132065	keystroke_d	d	n/a
66.4375	0.105	132875	keystroke_Key.space	Key.space	n/a
66.663	0.135	133326	keystroke_f	f	n/a
66.783	0.09	133566	keystroke_e	e	n/a
67.008	0.105	134016	keystroke_e	e	n/a
67.143	0.105	134286	keystroke_d	d	n/a
67.488	0.09	134976	keystroke_b	b	n/a
67.638	0.165	135276	keystroke_a	a	n/a
67.878	0.105	135756	keystroke_c	c	n/a
68.058	0.105	136116	keystroke_k	k	n/a
68.298	0.075	136596	keystroke_Key.space	Key.space	n/a
68.523	0.09	137046	keystroke_b	b	n/a
68.673	0.1495	137346	keystroke_a	a	n/a
69.4375	0.075	138875	keystroke_Key.backspace	Key.backspace	n/a
69.782	0.06	139564	keystroke_Key.backspace	Key.backspace	n/a
69.932	0.09	139864	keystroke_a	a	n/a
70.067	0.105	140134	keystroke_b	b	n/a
70.412	0.09	140824	keystroke_s	s	n/a
70.623	0.089	141246	keystroke_e	e	n/a
71.102	0.0755	142204	keystroke_n	n	n/a
71.327	0.046	142654	keystroke_c	c	n/a
71.5975	0.105	143195	keystroke_e	e	n/a
71.8825	0.09	143765	keystroke_Key.space	Key.space	n/a
72.2725	0.15	144545	keystroke_n	n	n/a
72.3925	0.1055	144785	keystroke_o	o	n/a
72.498	0.089	144996	keystroke_r	r	n/a
72.813	0.074	145626	keystroke_f	f	n/a
73.338	0.074	146676	keystroke_Key.backspace	Key.backspace	n/a
73.458	0.075	146916	keystroke_g	g	n/a
74.087	0.105	148174	keystroke_Key.backspace	Key.backspace	n/a
74.417	0.045	148834	keystroke_f	f	n/a
74.913	0.075	149826	keystroke_o	o	n/a
75.108	0.105	150216	keystroke_l	l	n/a
75.528	0.09	151056	keystroke_k	k	n/a
76.053	0.09	152106	keystroke_Key.enter	Key.enter	n/a
76.1485	14.449	152297	prompt	n/a	relationships uncertainty optics even\n
76.8025	0.15	153605	keystroke_r	r	n/a
76.8775	0.105	153755	keystroke_e	e	n/a
77.0875	0.075	154175	keystroke_l	l	n/a
77.1775	0.09	154355	keystroke_a	a	n/a
77.4025	0.075	154805	keystroke_t	t	n/a
77.5225	0.2855	155045	keystroke_i	i	n/a
77.6725	0.1505	155345	keystroke_o	o	n/a
77.808	0.09	155616	keystroke_n	n	n/a
78.018	0.075	156036	keystroke_s	s	n/a
78.123	0.165	156246	keystroke_h	h	n/a
78.243	0.09	156486	keystroke_i	i	n/a
78.438	0.089	156876	keystroke_p	p	n/a
80.9595	0.013	161919	keystroke_s	s	n/a
82.697	0.105	165394	keystroke_Key.space	Key.space	n/a
82.9225	0.105	165845	keystroke_u	u	n/a
83.058	0.119	166116	keystroke_n	n	n/a
83.462	0.12	166924	keystroke_c	c	n/a
83.552	0.2105	167104	keystroke_e	e	n/a
83.732	0.12	167464	keystroke_r	r	n/a
84.288	0.1345	168576	keystroke_t	t	n/a
84.4525	0.1055	168905	keystroke_a	a	n/a
85.3525	0.135	170705	keystroke_i	i	n/a
85.4575	0.105	170915	keystroke_n	n	n/a
85.7425	0.075	171485	keystroke_t	t	n/a
85.9525	0.09	171905	keystroke_y	y	n/a
86.672	0.105	173344	keystroke_Key.space	Key.space	n/a
87.137	0.045	174274	keystroke_o	o	n/a
87.347	0.076	174694	keystroke_p	p	n/a
87.512	0.046	175024	keystroke_t	t	n/a
87.662	0.076	175324	keystroke_i	i	n/a
87.842	0.135	175684	keystroke_c	c	n/a
88.082	0.091	176164	keystroke_s	s	n/a
88.262	0.12	176524	keystroke_Key.space	Key.space	n/a
88.938	0.045	177876	keystroke_e	e	n/a
89.028	0.105	178056	keystroke_v	v	n/a
89.088	0.12	178176	keystroke_e	e	n/a
89.223	0.135	178446	keystroke_n	n	n/a
90.513	0.075	181026	keystroke_Key.enter	Key.enter	n/a
90.6035	9.001	181207	prompt	n/a	computing held owen producers\n
91.278	0.134	182556	keystroke_c	c	n/a
91.3975	0.1805	182795	keystroke_o	o	n/a
91.533	0.105	183066	keystroke_m	m	n/a
91.698	0.09	183396	keystroke_p	p	n/a
91.922	0.0755	183844	keystroke_u	u	n/a
92.0875	0.075	184175	keystroke_t	t	n/a
92.1775	0.15	184355	keystroke_i	i	n/a
92.3125	0.09	184625	keystroke_n	n	n/a
92.4625	0.0455	184925	keystroke_g	g	n/a
92.733	0.1045	185466	keystroke_Key.space	Key.space	n/a
92.9725	0.12	185945	keystroke_h	h	n/a
93.1375	0.09	186275	keystroke_e	e	n/a
93.3025	0.105	186605	keystroke_l	l	n/a
93.4825	0.105	186965	keystroke_d	d	n/a
93.7375	0.12	187475	keystroke_Key.space	Key.space	n/a
94.1575	0.09	188315	keystroke_o	o	n/a
94.3675	0.06	188735	keystroke_e	e	n/a
94.803	0.0595	189606	keystroke_Key.backspace	Key.backspace	n/a
94.893	0.075	189786	keystroke_w	w	n/a
95.088	0.0595	190176	keystroke_e	e	n/a
95.2075	0.1805	190415	keystroke_n	n	n/a
95.403	0.105	190806	keystroke_Key.space	Key.space	n/a
95.718	0.09	191436	keystroke_p	p	n/a
95.913	0.09	191826	keystroke_r	r	n/a
96.093	0.105	192186	keystroke_o	o	n/a
96.8125	0.09	193625	keystroke_d	d	n/a
97.4425	0.09	194885	keystroke_u	u	n/a
97.7725	0.15	195545	keystroke_c	c	n/a
97.9375	0.18	195875	keystroke_e	e	n/a
98.0725	0.09	196145	keystroke_r	r	n/a
98.327	0.076	196654	keystroke_s	s	n/a
99.528	0.075	199056	keystroke_Key.enter	Key.enter	n/a
99.607	11.75	199214	prompt	n/a	fabulous caught bali earning\n
100.278	0.135	200556	keystroke_f	f	n/a
100.428	0.12	200856	keystroke_a	a	n/a
100.653	0.09	201306	keystroke_b	b	n/a
101.043	0.105	202086	keystroke_u	u	n/a
101.283	0.075	202566	keystroke_l	l	n/a
101.508	0.165	203016	keystroke_o	o	n/a
101.613	0.105	203226	keystroke_u	u	n/a
101.8825	0.09	203765	keystroke_s	s	n/a
102.3025	0.1195	204605	keystroke_Key.space	Key.space	n/a
102.812	0.091	205624	keystroke_c	c	n/a
103.053	0.165	206106	keystroke_a	a	n/a
103.293	0.105	206586	keystroke_i	i	n/a
103.428	0.105	206856	keystroke_g	g	n/a
103.8325	0.03	207665	keystroke_Key.backspace	Key.backspace	n/a
103.9375	0.075	207875	keystroke_Key.backspace	Key.backspace	n/a
104.163	0.0895	208326	keystroke_u	u	n/a
104.2975	0.09	208595	keystroke_g	g	n/a
104.4325	0.12	208865	keystroke_h	h	n/a
104.6425	0.075	209285	keystroke_Key.space	Key.space	n/a
104.8825	0.075	209765	keystroke_b	b	n/a
105.0025	0.105	210005	keystroke_a	a	n/a
105.3325	0.06	210665	keystroke_l	l	n/a
105.7375	0.06	211475	keystroke_Key.backspace	Key.backspace	n/a
105.9625	0.015	211925	keystroke_Key.backspace	Key.backspace	n/a
106.0525	0.06	212105	keystroke_Key.backspace	Key.backspace	n/a
106.2175	0.045	212435	keystroke_Key.backspace	Key.backspace	n/a
106.413	0.105	212826	keystroke_t	t	n/a
106.7425	0.1355	213485	keystroke_Key.space	Key.space	n/a
107.193	0.12	214386	keystroke_b	b	n/a
107.328	0.075	214656	keystroke_a	a	n/a
107.553	0.15	215106	keystroke_l	l	n/a
107.673	0.105	215346	keystroke_i	i	n/a
107.928	0.105	215856	keystroke_Key.space	Key.space	n/a
108.888	0.2545	217776	keystroke_e	e	n/a
108.993	0.1645	217986	keystroke_a	a	n/a
109.098	0.1045	218196	keystroke_r	r	n/a
109.2925	0.075	218585	keystroke_n	n	n/a
109.5325	0.06	219065	keystroke_n	n	n/a
109.8775	0.06	219755	keystroke_Key.backspace	Key.backspace	n/a
110.1025	0.075	220205	keystroke_i	i	n/a
110.1925	0.0755	220385	keystroke_n	n	n/a
110.268	0.075	220536	keystroke_g	g	n/a
111.273	0.0745	222546	keystroke_Key.enter	Key.enter	n/a
111.361	14.576	222722	prompt	n/a	sufficient dept spain sacred\n
111.9775	0.105	223955	keystroke_s	s	n/a
112.3075	0.09	224615	keystroke_u	u	n/a
112.5025	0.06	225005	keystroke_f	f	n/a
112.6825	0.075	225365	keystroke_f	f	n/a
112.8175	0.09	225635	keystroke_i	i	n/a
113.433	0.105	226866	keystroke_c	c	n/a
114.048	0.075	228096	keystroke_i	i	n/a
114.168	0.105	228336	keystroke_e	e	n/a
114.363	0.075	228726	keystroke_n	n	n/a
114.513	0.105	229026	keystroke_t	t	n/a
114.693	0.09	229386	keystroke_Key.space	Key.space	n/a
115.038	0.12	230076	keystroke_d	d	n/a
115.2775	0.09	230555	keystroke_e	e	n/a
115.6225	0.09	231245	keystroke_p	p	n/a
115.8025	0.105	231605	keystroke_t	t	n/a
115.9825	0.105	231965	keystroke_Key.space	Key.space	n/a
116.2075	0.105	232415	keystroke_s	s	n/a
116.3725	0.045	232745	keystroke_p	p	n/a
117.573	0.135	235146	keystroke_a	a	n/a
117.723	0.105	235446	keystroke_i	i	n/a
117.843	0.09	235686	keystroke_n	n	n/a
123.35	0.043	246700	keystroke_Key.space	Key.space	n/a
123.738	0.075	247476	keystroke_s	s	n/a
124.383	0.1045	248766	keystroke_a	a	n/a
124.5475	0.1055	249095	keystroke_c	c	n/a
125.0575	0.105	250115	keystroke_r	r	n/a
125.2525	0.09	250505	keystroke_e	e	n/a
125.4925	0.0905	250985	keystroke_d	d	n/a
125.8385	0.09	251677	keystroke_Key.enter	Key.enter	n/a
125.9415	14.2605	251883	prompt	n/a	pictures letting lips legislature\n
127.428	0.09	254856	keystroke_p	p	n/a
127.818	0.075	255636	keystroke_i	i	n/a
128.028	0.105	256056	keystroke_c	c	n/a
128.358	0.09	256716	keystroke_t	t	n/a
128.6125	0.031	257225	keystroke_r	r	n/a
128.7035	0.074	257407	keystroke_u	u	n/a
129.2425	0.015	258485	keystroke_Key.backspace	Key.backspace	n/a
129.3625	0.015	258725	keystroke_Key.backspace	Key.backspace	n/a
129.5875	0.075	259175	keystroke_u	u	n/a
129.7075	0.121	259415	keystroke_r	r	n/a
129.7675	0.105	259535	keystroke_e	e	n/a
130.0225	0.09	260045	keystroke_s	s	n/a
130.1575	0.075	260315	keystroke_Key.space	Key.space	n/a
130.3525	0.09	260705	keystroke_l	l	n/a
130.4725	0.091	260945	keystroke_e	e	n/a
130.6685	0.06	261337	keystroke_t	t	n/a
130.8335	0.075	261667	keystroke_t	t	n/a
131.0435	0.075	262087	keystroke_i	i	n/a
131.2535	0.075	262507	keystroke_n	n	n/a
131.3575	0.091	262715	keystroke_g	g	n/a
131.718	0.12	263436	keystroke_Key.space	Key.space	n/a
131.9435	0.09	263887	keystroke_l	l	n/a
132.2435	0.03	264487	keystroke_o	o	n/a
132.6035	0.0745	265207	keystroke_Key.backspace	Key.backspace	n/a
133.083	0.06	266166	keystroke_i	i	n/a
133.2335	0.0895	266467	keystroke_p	p	n/a
133.398	0.09	266796	keystroke_s	s	n/a
133.6385	0.1345	267277	keystroke_Key.space	Key.space	n/a
134.163	0.075	268326	keystroke_l	l	n/a
134.9725	0.075	269945	keystroke_e	e	n/a
135.3475	0.09	270695	keystroke_g	g	n/a
135.5425	0.076	271085	keystroke_i	i	n/a
135.6335	0.105	271267	keystroke_s	s	n/a
136.0085	0.105	272017	keystroke_t	t	n/a
137.493	0.06	274986	keystroke_Key.backspace	Key.backspace	n/a
138.048	0.09	276096	keystroke_l	l	n/a
138.168	0.075	276336	keystroke_a	a	n/a
138.768	0.075	277536	keystroke_t	t	n/a
138.948	0.06	277896	keystroke_u	u	n/a
139.083	0.135	278166	keystroke_r	r	n/a
139.188	0.075	278376	keystroke_e	e	n/a
140.148	0.045	280296	keystroke_Key.enter	Key.enter	n/a
140.2065	9.303	280413	prompt	n/a	epic organ congo commentary\n
140.763	0.075	281526	keystroke_e	e	n/a
141.1075	0.105	282215	keystroke_p	p	n/a
141.2875	0.09	282575	keystroke_i	i	n/a
141.4375	0.09	282875	keystroke_c	c	n/a
141.7525	0.09	283505	keystroke_Key.space	Key.space	n/a
141.9785	0.09	283957	keystroke_o	o	n/a
142.1285	0.105	284257	keystroke_r	r	n/a
142.5935	0.12	285187	keystroke_g	g	n/a
142.8185	0.06	285637	keystroke_n	n	n/a
142.9085	0.105	285817	keystroke_a	a	n/a
143.343	0.06	286686	keystroke_Key.backspace	Key.backspace	n/a
143.463	0.06	286926	keystroke_Key.backspace	Key.backspace	n/a
143.568	0.12	287136	keystroke_a	a	n/a
143.703	0.12	287406	keystroke_n	n	n/a
143.913	0.075	287826	keystroke_Key.space	Key.space	n/a
144.123	0.09	288246	keystroke_c	c	n/a
144.228	0.135	288456	keystroke_o	o	n/a
144.318	0.12	288636	keystroke_n	n	n/a
144.5125	0.09	289025	keystroke_g	g	n/a
144.7225	0.21	289445	keystroke_o	o	n/a
144.9175	0.12	289835	keystroke_Key.space	Key.space	n/a
145.1275	0.105	290255	keystroke_c	c	n/a
145.2625	0.135	290525	keystroke_o	o	n/a
145.6075	0.075	291215	keystroke_m	m	n/a
145.8325	0.075	291665	keystroke_m	m	n/a
146.028	0.09	292056	keystroke_e	e	n/a
147.888	0.09	295776	keystroke_n	n	n/a
148.413	0.12	296826	keystroke_t	t	n/a
148.578	0.135	297156	keystroke_a	a	n/a
148.683	0.105	297366	keystroke_r	r	n/a
148.893	0.09	297786	keystroke_y	y	n/a
149.448	0.06	298896	keystroke_Key.enter	Key.enter	n/a
149.5125	6.882	299025	prompt	n/a	conversations hence summit tactics\n
150.333	0.09	300666	keystroke_c	c	n/a
150.438	0.12	300876	keystroke_o	o	n/a
150.513	0.105	301026	keystroke_n	n	n/a
150.588	0.105	301176	keystroke_v	v	n/a
150.753	0.135	301506	keystroke_e	e	n/a
150.843	0.12	301686	keystroke_r	r	n/a
151.068	0.135	302136	keystroke_s	s	n/a
151.263	0.09	302526	keystroke_a	a	n/a
151.4585	0.075	302917	keystroke_t	t	n/a
151.5625	0.24	303125	keystroke_i	i	n/a
151.6675	0.15	303335	keystroke_o	o	n/a
151.7725	0.075	303545	keystroke_n	n	n/a
151.8625	0.09	303725	keystroke_s	s	n/a
151.9975	0.105	303995	keystroke_Key.space	Key.space	n/a
152.148	0.12	304296	keystroke_h	h	n/a
152.253	0.105	304506	keystroke_e	e	n/a
152.448	0.09	304896	keystroke_n	n	n/a
152.508	0.18	305016	keystroke_c	c	n/a
152.628	0.075	305256	keystroke_e	e	n/a
152.808	0.075	305616	keystroke_Key.space	Key.space	n/a
152.943	0.075	305886	keystroke_s	s	n/a
153.063	0.075	306126	keystroke_u	u	n/a
153.303	0.075	306606	keystroke_m	m	n/a
153.483	0.075	306966	keystroke_m	m	n/a
153.663	0.075	307326	keystroke_i	i	n/a
153.813	0.12	307626	keystroke_t	t	n/a
153.978	0.105	307956	keystroke_Key.space	Key.space	n/a
154.3235	0.075	308647	keystroke_t	t	n/a
154.5635	0.09	309127	keystroke_a	a	n/a
154.6685	0.12	309337	keystroke_c	c	n/a
154.9385	0.06	309877	keystroke_t	t	n/a
155.0585	0.09	310117	keystroke_i	i	n/a
155.5075	0.1055	311015	keystroke_c	c	n/a
155.883	0.045	311766	keystroke_s	s	n/a
156.318	0.075	312636	keystroke_Key.enter	Key.enter	n/a
156.3975	9.267	312795	prompt	n/a	taste knock governments startup\n
157.158	0.12	314316	keystroke_t	t	n/a
157.383	0.135	314766	keystroke_a	a	n/a
157.443	0.12	314886	keystroke_s	s	n/a
157.698	0.105	315396	keystroke_t	t	n/a
157.773	0.12	315546	keystroke_e	e	n/a
158.238	0.09	316476	keystroke_Key.space	Key.space	n/a
158.403	0.09	316806	keystroke_k	k	n/a
158.658	0.105	317316	keystroke_n	n	n/a
158.808	0.105	317616	keystroke_o	o	n/a
158.943	0.09	317886	keystroke_c	c	n/a
159.078	0.165	318156	keystroke_k	k	n/a
159.183	0.15	318366	keystroke_Key.space	Key.space	n/a
159.6025	0.075	319205	keystroke_g	g	n/a
159.9475	0.105	319895	keystroke_o	o	n/a
160.0975	0.12	320195	keystroke_v	v	n/a
160.2325	0.165	320465	keystroke_e	e	n/a
160.4575	0.061	320915	keystroke_n	n	n/a
160.8025	0.061	321605	keystroke_Key.backspace	Key.backspace	n/a
160.8785	0.105	321757	keystroke_r	r	n/a
161.0285	0.09	322057	keystroke_n	n	n/a
161.2535	0.06	322507	keystroke_m	m	n/a
161.5085	0.12	323017	keystroke_e	e	n/a
161.6435	0.09	323287	keystroke_n	n	n/a
161.7485	0.089	323497	keystroke_t	t	n/a
162.0325	0.045	324065	keystroke_s	s	n/a
162.4225	0.12	324845	keystroke_Key.space	Key.space	n/a
162.6025	0.106	325205	keystroke_s	s	n/a
162.8735	0.075	325747	keystroke_t	t	n/a
163.0385	0.105	326077	keystroke_a	a	n/a
163.0985	0.09	326197	keystroke_r	r	n/a
163.3235	0.075	326647	keystroke_t	t	n/a
163.6985	0.09	327397	keystroke_u	u	n/a
164.298	0.0445	328596	keystroke_p	p	n/a
165.5735	0.09	331147	keystroke_Key.enter	Key.enter	n/a
165.6675	8.7575	331335	prompt	n/a	paul cart buzz protecting\n
167.283	0.075	334566	keystroke_p	p	n/a
167.418	0.06	334836	keystroke_a	a	n/a
167.538	0.06	335076	keystroke_i	i	n/a
167.883	0.06	335766	keystroke_Key.backspace	Key.backspace	n/a
168.108	0.075	336216	keystroke_u	u	n/a
168.303	0.165	336606	keystroke_l	l	n/a
168.423	0.09	336846	keystroke_Key.space	Key.space	n/a
168.618	0.105	337236	keystroke_a	a	n/a
169.6985	0.075	339397	keystroke_Key.backspace	Key.backspace	n/a
170.0435	0.12	340087	keystroke_c	c	n/a
170.1185	0.135	340237	keystroke_a	a	n/a
170.3135	0.105	340627	keystroke_r	r	n/a
170.5535	0.09	341107	keystroke_t	t	n/a
170.7185	0.105	341437	keystroke_Key.space	Key.space	n/a
171.2425	0.076	342485	keystroke_b	b	n/a
171.4375	0.075	342875	keystroke_u	u	n/a
171.6475	0.09	343295	keystroke_z	z	n/a
171.8425	0.06	343685	keystroke_z	z	n/a
172.0375	0.105	344075	keystroke_Key.space	Key.space	n/a
172.4435	0.09	344887	keystroke_p	p	n/a
172.5635	0.09	345127	keystroke_r	r	n/a
172.6835	0.09	345367	keystroke_o	o	n/a
172.9235	0.09	345847	keystroke_t	t	n/a
173.0435	0.09	346087	keystroke_e	e	n/a
173.1935	0.1495	346387	keystroke_c	c	n/a
173.493	0.06	346986	keystroke_t	t	n/a
173.613	0.135	347226	keystroke_i	i	n/a
173.703	0.075	347406	keystroke_n	n	n/a
173.763	0.075	347526	keystroke_g	g	n/a
174.333	0.09	348666	keystroke_Key.enter	Key.enter	n/a
174.4275	21.758	348855	prompt	n/a	responsibility archive saskatchewan book\n
175.248	0.135	350496	keystroke_r	r	n/a
175.338	0.105	350676	keystroke_e	e	n/a
175.563	0.105	351126	keystroke_s	s	n/a
175.683	0.075	351366	keystroke_p	p	n/a
175.893	0.09	351786	keystroke_o	o	n/a
176.028	0.12	352056	keystroke_n	n	n/a
176.298	0.06	352596	keystroke_s	s	n/a
176.373	0.075	352746	keystroke_i	i	n/a
177.048	0.12	354096	keystroke_b	b	n/a
177.183	0.1055	354366	keystroke_i	i	n/a
177.348	0.15	354696	keystroke_l	l	n/a
177.438	0.12	354876	keystroke_i	i	n/a
177.618	0.09	355236	keystroke_t	t	n/a
177.753	0.12	355506	keystroke_y	y	n/a
177.918	0.12	355836	keystroke_Key.space	Key.space	n/a
178.383	0.105	356766	keystroke_a	a	n/a
178.7585	0.105	357517	keystroke_r	r	n/a
178.9985	0.09	357997	keystroke_c	c	n/a
179.2985	0.015	358597	keystroke_h	h	n/a
179.4335	0.06	358867	keystroke_i	i	n/a
180.873	0.075	361746	keystroke_v	v	n/a
181.488	0.105	362976	keystroke_e	e	n/a
181.8935	0.1195	363787	keystroke_Key.space	Key.space	n/a
182.673	0.105	365346	keystroke_s	s	n/a
183.693	0.12	367386	keystroke_a	a	n/a
183.873	0.09	367746	keystroke_s	s	n/a
184.053	0.09	368106	keystroke_k	k	n/a
184.8185	0.12	369637	keystroke_a	a	n/a
184.9685	0.12	369937	keystroke_t	t	n/a
185.2535	0.105	370507	keystroke_c	c	n/a
185.4335	0.0895	370867	keystroke_h	h	n/a
185.7935	0.089	371587	keystroke_e	e	n/a
186.1225	0.105	372245	keystroke_w	w	n/a
186.2125	0.12	372425	keystroke_a	a	n/a
186.3475	0.09	372695	keystroke_n	n	n/a
191.136	0.001	382272	keystroke_Key.space	Key.space	n/a
191.283	0.075	382566	keystroke_b	b	n/a
191.509	0.029	383018	keystroke_o	o	n/a
191.628	0.0905	383256	keystroke_o	o	n/a
191.688	0.0755	383376	keystroke_k	k	n/a
196.1755	0.001	392351	keystroke_Key.enter	Key.enter	n/a
196.19	14.3775	392380	prompt	n/a	surveillance cartoons opens developmental\n
196.908	0.09	393816	keystroke_s	s	n/a
197.028	0.09	394056	keystroke_u	u	n/a
197.208	0.075	394416	keystroke_r	r	n/a
197.763	0.135	395526	keystroke_v	v	n/a
198.333	0.09	396666	keystroke_e	e	n/a
198.4985	0.0745	396997	keystroke_i	i	n/a
198.6785	0.075	397357	keystroke_l	l	n/a
198.9185	0.0745	397837	keystroke_l	l	n/a
199.3685	0.09	398737	keystroke_a	a	n/a
199.5185	0.06	399037	keystroke_n	n	n/a
199.7435	0.045	399487	keystroke_e	e	n/a
200.3885	0.06	400777	keystroke_Key.backspace	Key.backspace	n/a
200.4935	0.135	400987	keystroke_c	c	n/a
200.5835	0.15	401167	keystroke_e	e	n/a
200.8385	0.075	401677	keystroke_Key.space	Key.space	n/a
201.2435	0.12	402487	keystroke_c	c	n/a
201.3785	0.15	402757	keystroke_a	a	n/a
201.813	0.09	403626	keystroke_r	r	n/a
202.038	0.075	404076	keystroke_t	t	n/a
202.203	0.045	404406	keystroke_o	o	n/a
202.368	0.1205	404736	keystroke_o	o	n/a
202.473	0.1205	404946	keystroke_n	n	n/a
202.8935	0.105	405787	keystroke_s	s	n/a
203.2235	0.105	406447	keystroke_Key.space	Key.space	n/a
203.5835	0.075	407167	keystroke_o	o	n/a
203.7785	0.09	407557	keystroke_p	p	n/a
203.8835	0.075	407767	keystroke_e	e	n/a
204.0485	0.09	408097	keystroke_n	n	n/a
204.1685	0.06	408337	keystroke_s	s	n/a
204.3935	0.075	408787	keystroke_Key.space	Key.space	n/a
205.3085	0.12	410617	keystroke_d	d	n/a
205.3985	0.15	410797	keystroke_e	e	n/a
205.8785	0.1055	411757	keystroke_c	c	n/a
206.373	0.0755	412746	keystroke_Key.backspace	Key.backspace	n/a
206.5235	0.105	413047	keystroke_v	v	n/a
206.5985	0.105	413197	keystroke_e	e	n/a
207.0485	0.075	414097	keystroke_l	l	n/a
207.2585	0.075	414517	keystroke_o	o	n/a
207.4535	0.075	414907	keystroke_p	p	n/a
207.6785	0.09	415357	keystroke_m	m	n/a
208.3385	0.09	416677	keystroke_e	e	n/a
208.5185	0.075	417037	keystroke_n	n	n/a
208.6385	0.09	417277	keystroke_t	t	n/a
208.8785	0.105	417757	keystroke_a	a	n/a
209.0285	0.06	418057	keystroke_l	l	n/a
210.498	0.06	420996	keystroke_Key.enter	Key.enter	n/a
210.5715	7.2335	421143	prompt	n/a	circular crop town relating\n
211.293	0.1355	422586	keystroke_c	c	n/a
211.4135	0.09	422827	keystroke_i	i	n/a
211.5335	0.1045	423067	keystroke_r	r	n/a
211.803	0.09	423606	keystroke_c	c	n/a
211.908	0.075	423816	keystroke_u	u	n/a
212.103	0.09	424206	keystroke_l	l	n/a
212.223	0.105	424446	keystroke_a	a	n/a
212.358	0.165	424716	keystroke_r	r	n/a
212.643	0.135	425286	keystroke_Key.space	Key.space	n/a
212.898	0.09	425796	keystroke_c	c	n/a
213.123	0.105	426246	keystroke_r	r	n/a
213.258	0.195	426516	keystroke_o	o	n/a
213.378	0.135	426756	keystroke_p	p	n/a
213.558	0.1205	427116	keystroke_Key.space	Key.space	n/a
214.128	0.031	428256	keystroke_t	t	n/a
214.204	0.0895	428408	keystroke_o	o	n/a
214.2625	0.1055	428525	keystroke_w	w	n/a
214.458	0.1505	428916	keystroke_n	n	n/a
214.5785	0.105	429157	keystroke_Key.space	Key.space	n/a
215.1485	0.1345	430297	keystroke_r	r	n/a
215.2235	0.1645	430447	keystroke_e	e	n/a
215.523	0.091	431046	keystroke_l	l	n/a
215.629	0.09	431258	keystroke_a	a	n/a
215.8085	0.075	431617	keystroke_t	t	n/a
216.8435	0.1345	433687	keystroke_i	i	n/a
216.948	0.135	433896	keystroke_n	n	n/a
217.068	0.075	434136	keystroke_g	g	n/a
217.7585	0.0455	435517	keystroke_Key.enter	Key.enter	n/a
217.809	10.1735	435618	prompt	n/a	witnesses casinos concentration twice\n
218.5235	0.075	437047	keystroke_w	w	n/a
218.6585	0.06	437317	keystroke_i	i	n/a
218.7935	0.1045	437587	keystroke_t	t	n/a
219.4985	0.075	438997	keystroke_h	h	n/a
219.8135	0.045	439627	keystroke_Key.backspace	Key.backspace	n/a
219.9035	0.06	439807	keystroke_n	n	n/a
220.0235	0.075	440047	keystroke_e	e	n/a
220.2335	0.06	440467	keystroke_s	s	n/a
220.3685	0.075	440737	keystroke_s	s	n/a
220.578	0.075	441156	keystroke_e	e	n/a
220.818	0.045	441636	keystroke_s	s	n/a
221.103	0.09	442206	keystroke_Key.space	Key.space	n/a
221.553	0.12	443106	keystroke_c	c	n/a
221.613	0.18	443226	keystroke_a	a	n/a
221.763	0.091	443526	keystroke_s	s	n/a
222.019	0.134	444038	keystroke_i	i	n/a
222.573	0.09	445146	keystroke_n	n	n/a
222.798	0.1055	445596	keystroke_o	o	n/a
222.9185	0.075	445837	keystroke_s	s	n/a
223.1585	0.09	446317	keystroke_Key.space	Key.space	n/a
223.743	0.105	447486	keystroke_c	c	n/a
223.893	0.09	447786	keystroke_o	o	n/a
223.969	0.105	447938	keystroke_n	n	n/a
224.103	0.15	448206	keystroke_c	c	n/a
224.238	0.121	448476	keystroke_e	e	n/a
224.388	0.1205	448776	keystroke_n	n	n/a
224.5685	0.09	449137	keystroke_t	t	n/a
224.733	0.12	449466	keystroke_r	r	n/a
224.823	0.12	449646	keystroke_a	a	n/a
225.4085	0.09	450817	keystroke_t	t	n/a
225.6485	0.18	451297	keystroke_i	i	n/a
225.7085	0.15	451417	keystroke_o	o	n/a
225.8135	0.09	451627	keystroke_n	n	n/a
226.0385	0.075	452077	keystroke_Key.space	Key.space	n/a
226.6835	0.075	453367	keystroke_t	t	n/a
226.8635	0.09	453727	keystroke_w	w	n/a
227.0135	0.06	454027	keystroke_i	i	n/a
227.1635	0.15	454327	keystroke_c	c	n/a
227.3435	0.075	454687	keystroke_e	e	n/a
227.884	0.09	455768	keystroke_Key.enter	Key.enter	n/a
227.9865	9.536	455973	prompt	n/a	burn pricing military range\n
228.859	0.1195	457718	keystroke_b	b	n/a
229.0235	0.1045	458047	keystroke_r	r	n/a
229.368	0.105	458736	keystroke_i	i	n/a
229.848	0.06	459696	keystroke_Key.backspace	Key.backspace	n/a
229.983	0.075	459966	keystroke_Key.backspace	Key.backspace	n/a
230.523	0.075	461046	keystroke_u	u	n/a
230.658	0.09	461316	keystroke_r	r	n/a
230.808	0.09	461616	keystroke_n	n	n/a
230.943	0.105	461886	keystroke_Key.space	Key.space	n/a
231.138	0.075	462276	keystroke_p	p	n/a
231.303	0.105	462606	keystroke_r	r	n/a
231.423	0.105	462846	keystroke_i	i	n/a
231.573	0.09	463146	keystroke_c	c	n/a
231.723	0.1205	463446	keystroke_i	i	n/a
231.813	0.1055	463626	keystroke_n	n	n/a
232.0085	0.09	464017	keystroke_g	g	n/a
232.2485	0.09	464497	keystroke_Key.space	Key.space	n/a
232.533	0.121	465066	keystroke_m	m	n/a
232.698	0.136	465396	keystroke_i	i	n/a
232.878	0.15	465756	keystroke_l	l	n/a
232.983	0.06	465966	keystroke_i	i	n/a
233.793	0.105	467586	keystroke_a	a	n/a
234.273	0.045	468546	keystroke_Key.backspace	Key.backspace	n/a
234.333	0.06	468666	keystroke_t	t	n/a
234.468	0.1805	468936	keystroke_a	a	n/a
234.6335	0.12	469267	keystroke_r	r	n/a
234.8585	0.105	469717	keystroke_y	y	n/a
235.2335	0.105	470467	keystroke_Key.space	Key.space	n/a
235.5935	0.135	471187	keystroke_r	r	n/a
235.7285	0.135	471457	keystroke_a	a	n/a
235.8785	0.12	471757	keystroke_n	n	n/a
236.1635	0.075	472327	keystroke_e	e	n/a
236.599	0.09	473198	keystroke_Key.backspace	Key.backspace	n/a
236.674	0.09	473348	keystroke_g	g	n/a
236.749	0.105	473498	keystroke_e	e	n/a
237.423	0.09	474846	keystroke_Key.enter	Key.enter	n/a
237.5265	6.5285	475053	prompt	n/a	tree identification bank amend\n
238.249	0.09	476498	keystroke_t	t	n/a
238.443	0.1355	476886	keystroke_r	r	n/a
238.5335	0.06	477067	keystroke_e	e	n/a
238.699	0.075	477398	keystroke_e	e	n/a
238.804	0.1345	477608	keystroke_Key.space	Key.space	n/a
239.044	0.0745	478088	keystroke_i	i	n/a
239.314	0.135	478628	keystroke_d	d	n/a
239.434	0.105	478868	keystroke_e	e	n/a
239.569	0.12	479138	keystroke_n	n	n/a
239.719	0.105	479438	keystroke_t	t	n/a
239.854	0.105	479708	keystroke_i	i	n/a
240.1085	0.075	480217	keystroke_f	f	n/a
240.3935	0.09	480787	keystroke_i	i	n/a
240.5885	0.105	481177	keystroke_c	c	n/a
240.7085	0.12	481417	keystroke_a	a	n/a
240.9035	0.09	481807	keystroke_t	t	n/a
240.9635	0.255	481927	keystroke_i	i	n/a
241.0535	0.18	482107	keystroke_o	o	n/a
241.1735	0.09	482347	keystroke_n	n	n/a
241.2485	0.105	482497	keystroke_Key.space	Key.space	n/a
241.563	0.09	483126	keystroke_b	b	n/a
241.668	0.121	483336	keystroke_a	a	n/a
241.849	0.15	483698	keystroke_n	n	n/a
241.954	0.18	483908	keystroke_k	k	n/a
242.089	0.105	484178	keystroke_Key.space	Key.space	n/a
242.374	0.105	484748	keystroke_a	a	n/a
242.494	0.075	484988	keystroke_m	m	n/a
242.7935	0.105	485587	keystroke_e	e	n/a
242.9135	0.075	485827	keystroke_d	d	n/a
243.2585	0.03	486517	keystroke_Key.backspace	Key.backspace	n/a
243.424	0.09	486848	keystroke_n	n	n/a
243.5285	0.075	487057	keystroke_d	d	n/a
243.979	0.0745	487958	keystroke_Key.enter	Key.enter	n/a
244.0575	10.94	488115	prompt	n/a	somalia harassment pantyhose parameter\n
244.984	0.075	489968	keystroke_s	s	n/a
245.0885	0.135	490177	keystroke_o	o	n/a
245.1785	0.105	490357	keystroke_m	m	n/a
245.3135	0.135	490627	keystroke_a	a	n/a
245.493	0.15	490986	keystroke_l	l	n/a
245.614	0.104	491228	keystroke_i	i	n/a
245.823	0.135	491646	keystroke_a	a	n/a
246.138	0.12	492276	keystroke_Key.space	Key.space	n/a
247.923	0.075	495846	keystroke_h	h	n/a
248.028	0.12	496056	keystroke_a	a	n/a
248.2835	0.0905	496567	keystroke_r	r	n/a
248.4485	0.1355	496897	keystroke_a	a	n/a
248.614	0.1045	497228	keystroke_s	s	n/a
248.8235	0.0905	497647	keystroke_s	s	n/a
248.974	0.09	497948	keystroke_m	m	n/a
249.109	0.09	498218	keystroke_e	e	n/a
249.229	0.09	498458	keystroke_n	n	n/a
249.349	0.105	498698	keystroke_t	t	n/a
249.6635	0.12	499327	keystroke_Key.space	Key.space	n/a
249.9935	0.105	499987	keystroke_p	p	n/a
250.1285	0.12	500257	keystroke_a	a	n/a
250.2335	0.09	500467	keystroke_n	n	n/a
250.4435	0.075	500887	keystroke_y	y	n/a
251.1335	0.06	502267	keystroke_Key.backspace	Key.backspace	n/a
251.2085	0.09	502417	keystroke_t	t	n/a
251.4035	0.0905	502807	keystroke_y	y	n/a
251.8395	0.119	503679	keystroke_h	h	n/a
251.9285	0.09	503857	keystroke_o	o	n/a
252.0485	0.135	504097	keystroke_s	s	n/a
252.7835	0.075	505567	keystroke_e	e	n/a
252.9635	0.105	505927	keystroke_Key.space	Key.space	n/a
253.2035	0.12	506407	keystroke_p	p	n/a
253.3085	0.09	506617	keystroke_a	a	n/a
253.4435	0.135	506887	keystroke_r	r	n/a
253.8785	0.12	507757	keystroke_a	a	n/a
254.1185	0.06	508237	keystroke_m	m	n/a
254.2685	0.105	508537	keystroke_e	e	n/a
254.4335	0.1055	508867	keystroke_t	t	n/a
254.583	0.091	509166	keystroke_e	e	n/a
254.659	0.075	509318	keystroke_r	r	n/a
254.944	0.045	509888	keystroke_Key.enter	Key.enter	n/a
255.002	9.956	510004	prompt	n/a	puerto jessica worldwide influences\n
255.664	0.09	511328	keystroke_p	p	n/a
255.904	0.09	511808	keystroke_u	u	n/a
256.4735	0.105	512947	keystroke_e	e	n/a
257.1935	0.09	514387	keystroke_r	r	n/a
257.3435	0.0755	514687	keystroke_t	t	n/a
258.034	0.089	516068	keystroke_o	o	n/a
258.453	0.0905	516906	keystroke_Key.space	Key.space	n/a
258.949	0.1195	517898	keystroke_j	j	n/a
259.084	0.0595	518168	keystroke_e	e	n/a
259.2785	0.06	518557	keystroke_s	s	n/a
259.4135	0.045	518827	keystroke_s	s	n/a
259.4735	0.09	518947	keystroke_i	i	n/a
259.6085	0.12	519217	keystroke_c	c	n/a
259.7135	0.105	519427	keystroke_a	a	n/a
259.9235	0.09	519847	keystroke_Key.space	Key.space	n/a
260.1335	0.09	520267	keystroke_w	w	n/a
260.2385	0.06	520477	keystroke_o	o	n/a
260.3585	0.09	520717	keystroke_r	r	n/a
260.509	0.09	521018	keystroke_l	l	n/a
260.673	0.106	521346	keystroke_d	d	n/a
261.004	0.074	522008	keystroke_w	w	n/a
261.093	0.09	522186	keystroke_i	i	n/a
261.228	0.18	522456	keystroke_d	d	n/a
261.393	0.09	522786	keystroke_e	e	n/a
261.738	0.106	523476	keystroke_Key.space	Key.space	n/a
262.084	0.135	524168	keystroke_i	i	n/a
262.189	0.12	524378	keystroke_n	n	n/a
262.399	0.12	524798	keystroke_f	f	n/a
263.089	0.1195	526178	keystroke_l	l	n/a
263.3435	0.075	526687	keystroke_u	u	n/a
263.6885	0.075	527377	keystroke_e	e	n/a
263.8685	0.075	527737	keystroke_n	n	n/a
263.9885	0.12	527977	keystroke_c	c	n/a
264.0485	0.105	528097	keystroke_e	e	n/a
264.2585	0.075	528517	keystroke_s	s	n/a
264.8885	0.06	529777	keystroke_Key.enter	Key.enter	n/a
264.962	9.491	529924	prompt	n/a	disabilities behalf donated hours\n
265.7585	0.12	531517	keystroke_d	d	n/a
265.909	0.075	531818	keystroke_i	i	n/a
266.014	0.06	532028	keystroke_s	s	n/a
266.2385	0.09	532477	keystroke_a	a	n/a
266.4785	0.09	532957	keystroke_b	b	n/a
266.7335	0.135	533467	keystroke_i	i	n/a
266.8835	0.135	533767	keystroke_l	l	n/a
266.9885	0.06	533977	keystroke_i	i	n/a
267.1085	0.075	534217	keystroke_t	t	n/a
267.274	0.075	534548	keystroke_i	i	n/a
267.754	0.09	535508	keystroke_e	e	n/a
267.979	0.075	535958	keystroke_s	s	n/a
268.114	0.09	536228	keystroke_Key.space	Key.space	n/a
268.339	0.06	536678	keystroke_h	h	n/a
268.699	0.06	537398	keystroke_Key.backspace	Key.backspace	n/a
268.9085	0.09	537817	keystroke_b	b	n/a
269.3285	0.06	538657	keystroke_e	e	n/a
269.4785	0.09	538957	keystroke_h	h	n/a
269.5985	0.09	539197	keystroke_a	a	n/a
269.8085	0.075	539617	keystroke_l	l	n/a
270.424	0.06	540848	keystroke_d	d	n/a
270.6035	0.105	541207	keystroke_Key.space	Key.space	n/a
271.0235	0.045	542047	keystroke_Key.backspace	Key.backspace	n/a
271.1435	0.075	542287	keystroke_Key.backspace	Key.backspace	n/a
271.2485	0.1055	542497	keystroke_f	f	n/a
271.3835	0.09	542767	keystroke_Key.space	Key.space	n/a
271.8035	0.105	543607	keystroke_d	d	n/a
271.9385	0.12	543877	keystroke_o	o	n/a
272.4335	0.1205	544867	keystroke_n	n	n/a
272.569	0.075	545138	keystroke_a	a	n/a
272.764	0.1195	545528	keystroke_t	t	n/a
272.8685	0.18	545737	keystroke_e	e	n/a
273.0185	0.12	546037	keystroke_d	d	n/a
273.1235	0.135	546247	keystroke_Key.space	Key.space	n/a
273.3035	0.1505	546607	keystroke_h	h	n/a
273.4235	0.1355	546847	keystroke_o	o	n/a
273.514	0.104	547028	keystroke_u	u	n/a
273.588	0.106	547176	keystroke_r	r	n/a
273.844	0.104	547688	keystroke_s	s	n/a
274.369	0.075	548738	keystroke_Key.enter	Key.enter	n/a
274.4565	8.096	548913	prompt	n/a	proper photoshop inch royal\n
274.984	0.09	549968	keystroke_p	p	n/a
275.134	0.105	550268	keystroke_r	r	n/a
275.254	0.06	550508	keystroke_o	o	n/a
275.4785	0.06	550957	keystroke_p	p	n/a
275.6585	0.12	551317	keystroke_e	e	n/a
275.7335	0.12	551467	keystroke_r	r	n/a
275.9435	0.105	551887	keystroke_Key.space	Key.space	n/a
276.2285	0.135	552457	keystroke_h	h	n/a
276.7385	0.0605	553477	keystroke_Key.backspace	Key.backspace	n/a
277.1285	0.09	554257	keystroke_o	o	n/a
277.3835	0.105	554767	keystroke_h	h	n/a
277.714	0.075	555428	keystroke_Key.backspace	Key.backspace	n/a
277.864	0.06	555728	keystroke_Key.backspace	Key.backspace	n/a
278.089	0.09	556178	keystroke_p	p	n/a
278.314	0.12	556628	keystroke_h	h	n/a
278.404	0.12	556808	keystroke_o	o	n/a
278.569	0.105	557138	keystroke_t	t	n/a
278.719	0.105	557438	keystroke_o	o	n/a
279.169	0.09	558338	keystroke_s	s	n/a
279.304	0.12	558608	keystroke_h	h	n/a
279.379	0.105	558758	keystroke_o	o	n/a
279.604	0.0895	559208	keystroke_p	p	n/a
279.8285	0.075	559657	keystroke_Key.space	Key.space	n/a
280.0235	0.105	560047	keystroke_i	i	n/a
280.1135	0.06	560227	keystroke_n	n	n/a
280.2785	0.075	560557	keystroke_c	c	n/a
280.3985	0.1355	560797	keystroke_h	h	n/a
280.4885	0.1055	560977	keystroke_Key.space	Key.space	n/a
281.2085	0.091	562417	keystroke_r	r	n/a
281.3445	0.074	562689	keystroke_o	o	n/a
281.7035	0.075	563407	keystroke_y	y	n/a
281.8385	0.105	563677	keystroke_a	a	n/a
281.9735	0.135	563947	keystroke_l	l	n/a
282.514	0.03	565028	keystroke_Key.enter	Key.enter	n/a
282.557	8.9355	565114	prompt	n/a	encouraged opponents nightmare ruled\n
283.1585	0.09	566317	keystroke_e	e	n/a
283.3085	0.12	566617	keystroke_n	n	n/a
283.7135	0.12	567427	keystroke_c	c	n/a
283.9695	0.104	567939	keystroke_o	o	n/a
284.1785	0.105	568357	keystroke_u	u	n/a
284.3735	0.09	568747	keystroke_r	r	n/a
284.974	0.12	569948	keystroke_a	a	n/a
285.154	0.12	570308	keystroke_g	g	n/a
285.259	0.105	570518	keystroke_e	e	n/a
285.439	0.12	570878	keystroke_d	d	n/a
285.604	0.135	571208	keystroke_Key.space	Key.space	n/a
285.964	0.06	571928	keystroke_o	o	n/a
286.159	0.045	572318	keystroke_p	p	n/a
286.294	0.09	572588	keystroke_p	p	n/a
286.489	0.1045	572978	keystroke_o	o	n/a
286.6385	0.1205	573277	keystroke_n	n	n/a
286.774	0.075	573548	keystroke_e	e	n/a
286.954	0.09	573908	keystroke_n	n	n/a
287.449	0.075	574898	keystroke_t	t	n/a
287.659	0.09	575318	keystroke_s	s	n/a
287.779	0.09	575558	keystroke_Key.space	Key.space	n/a
288.049	0.075	576098	keystroke_n	n	n/a
288.244	0.03	576488	keystroke_i	i	n/a
288.304	0.075	576608	keystroke_g	g	n/a
288.529	0.075	577058	keystroke_h	h	n/a
288.589	0.075	577178	keystroke_t	t	n/a
289.114	0.09	578228	keystroke_m	m	n/a
289.278	0.15	578556	keystroke_a	a	n/a
289.399	0.15	578798	keystroke_r	r	n/a
289.489	0.09	578978	keystroke_e	e	n/a
289.668	0.06	579336	keystroke_Key.space	Key.space	n/a
290.0285	0.12	580057	keystroke_r	r	n/a
290.1785	0.06	580357	keystroke_u	u	n/a
290.4035	0.1055	580807	keystroke_l	l	n/a
290.524	0.045	581048	keystroke_e	e	n/a
290.854	0.105	581708	keystroke_d	d	n/a
291.3935	0.09	582787	keystroke_Key.enter	Key.enter	n/a
291.497	9.2805	582994	prompt	n/a	churches thousand deny october\n
292.2185	0.12	584437	keystroke_c	c	n/a
292.3985	0.105	584797	keystroke_h	h	n/a
292.6235	0.075	585247	keystroke_u	u	n/a
292.7585	0.09	585517	keystroke_r	r	n/a
293.0885	0.09	586177	keystroke_c	c	n/a
293.2535	0.12	586507	keystroke_h	h	n/a
293.3585	0.09	586717	keystroke_e	e	n/a
293.5685	0.09	587137	keystroke_s	s	n/a
293.7335	0.09	587467	keystroke_Key.space	Key.space	n/a
294.0035	0.09	588007	keystroke_t	t	n/a
294.1235	0.15	588247	keystroke_h	h	n/a
294.2435	0.165	588487	keystroke_o	o	n/a
294.5435	0.105	589087	keystroke_u	u	n/a
294.7835	0.09	589567	keystroke_g	g	n/a
295.2335	0.075	590467	keystroke_Key.backspace	Key.backspace	n/a
295.3385	0.09	590677	keystroke_s	s	n/a
295.6385	0.045	591277	keystroke_a	a	n/a
296.0585	0.09	592117	keystroke_n	n	n/a
296.1935	0.105	592387	keystroke_d	d	n/a
296.3585	0.09	592717	keystroke_Key.space	Key.space	n/a
296.5385	0.135	593077	keystroke_d	d	n/a
296.6435	0.105	593287	keystroke_e	e	n/a
296.7935	0.075	593587	keystroke_n	n	n/a
297.0185	0.09	594037	keystroke_y	y	n/a
297.274	0.105	594548	keystroke_Key.space	Key.space	n/a
297.634	0.105	595268	keystroke_o	o	n/a
297.904	0.12	595808	keystroke_c	c	n/a
298.249	0.09	596498	keystroke_t	t	n/a
298.399	0.09	596798	keystroke_o	o	n/a
298.504	0.06	597008	keystroke_r	r	n/a
299.0885	0.1205	598177	keystroke_Key.backspace	Key.backspace	n/a
299.299	0.105	598598	keystroke_b	b	n/a
299.389	0.09	598778	keystroke_e	e	n/a
299.434	0.105	598868	keystroke_r	r	n/a
300.6635	0.105	601327	keystroke_Key.enter	Key.enter	n/a
300.782	12.716	601564	prompt	n/a	rapids metallica peoples conversion\n
301.699	0.15	603398	keystroke_r	r	n/a
301.819	0.15	603638	keystroke_a	a	n/a
301.954	0.09	603908	keystroke_p	p	n/a
302.209	0.075	604418	keystroke_i	i	n/a
302.404	0.135	604808	keystroke_d	d	n/a
302.479	0.135	604958	keystroke_s	s	n/a
302.9285	0.09	605857	keystroke_Key.space	Key.space	n/a
303.1685	0.105	606337	keystroke_m	m	n/a
303.2585	0.12	606517	keystroke_e	e	n/a
303.4385	0.09	606877	keystroke_t	t	n/a
303.6035	0.1355	607207	keystroke_a	a	n/a
303.754	0.105	607508	keystroke_l	l	n/a
303.964	0.075	607928	keystroke_l	l	n/a
304.024	0.1195	608048	keystroke_i	i	n/a
304.1735	0.12	608347	keystroke_c	c	n/a
304.2485	0.135	608497	keystroke_a	a	n/a
304.593	0.1055	609186	keystroke_Key.space	Key.space	n/a
308.4215	0.013	616843	keystroke_p	p	n/a
308.5085	0.12	617017	keystroke_e	e	n/a
308.6435	0.0905	617287	keystroke_o	o	n/a
308.704	0.165	617408	keystroke_p	p	n/a
308.809	0.12	617618	keystroke_l	l	n/a
308.914	0.105	617828	keystroke_e	e	n/a
309.154	0.075	618308	keystroke_s	s	n/a
310.084	0.105	620168	keystroke_Key.space	Key.space	n/a
311.8695	0.089	623739	keystroke_c	c	n/a
311.9735	0.12	623947	keystroke_o	o	n/a
312.0785	0.105	624157	keystroke_n	n	n/a
312.2595	0.12	624519	keystroke_v	v	n/a
312.409	0.1505	624818	keystroke_e	e	n/a
312.5145	0.09	625029	keystroke_r	r	n/a
312.8145	0.09	625629	keystroke_s	s	n/a
312.9345	0.195	625869	keystroke_i	i	n/a
313.0245	0.135	626049	keystroke_o	o	n/a
313.0995	0.135	626199	keystroke_n	n	n/a
313.4295	0.06	626859	keystroke_Key.enter	Key.enter	n/a
313.5035	14.9645	627007	prompt	n/a	vitamins mines postposted receives\n
314.8695	0.09	629739	keystroke_v	v	n/a
314.9895	0.0895	629979	keystroke_i	i	n/a
315.154	0.0905	630308	keystroke_t	t	n/a
315.319	0.1355	630638	keystroke_a	a	n/a
315.6795	0.09	631359	keystroke_m	m	n/a
315.8595	0.149	631719	keystroke_i	i	n/a
315.9635	0.076	631927	keystroke_n	n	n/a
316.0835	0.091	632167	keystroke_s	s	n/a
316.4145	0.0745	632829	keystroke_m	m	n/a
316.4585	0.1055	632917	keystroke_Key.space	Key.space	n/a
316.834	0.075	633668	keystroke_Key.backspace	Key.backspace	n/a
316.969	0.09	633938	keystroke_Key.backspace	Key.backspace	n/a
317.119	0.135	634238	keystroke_Key.space	Key.space	n/a
317.284	0.105	634568	keystroke_m	m	n/a
317.374	0.15	634748	keystroke_i	i	n/a
317.494	0.09	634988	keystroke_n	n	n/a
317.599	0.09	635198	keystroke_e	e	n/a
317.794	0.075	635588	keystroke_s	s	n/a
318.049	0.135	636098	keystroke_Key.space	Key.space	n/a
318.289	0.09	636578	keystroke_p	p	n/a
318.559	0.075	637118	keystroke_o	o	n/a
318.664	0.09	637328	keystroke_s	s	n/a
318.889	0.09	637778	keystroke_t	t	n/a
319.849	0.135	639698	keystroke_p	p	n/a
319.954	0.1045	639908	keystroke_o	o	n/a
320.014	0.0905	640028	keystroke_s	s	n/a
320.5535	0.105	641107	keystroke_t	t	n/a
320.7485	0.12	641497	keystroke_e	e	n/a
320.8535	0.09	641707	keystroke_d	d	n/a
321.1685	0.1205	642337	keystroke_Key.space	Key.space	n/a
323.6765	0.0575	647353	keystroke_r	r	n/a
323.6765	0.1175	647353	keystroke_e	e	n/a
324.079	0.105	648158	keystroke_c	c	n/a
325.249	0.075	650498	keystroke_i	i	n/a
325.459	0.075	650918	keystroke_e	e	n/a
325.984	0.075	651968	keystroke_Key.backspace	Key.backspace	n/a
326.344	0.075	652688	keystroke_Key.backspace	Key.backspace	n/a
326.554	0.075	653108	keystroke_e	e	n/a
326.674	0.06	653348	keystroke_i	i	n/a
326.914	0.12	653828	keystroke_v	v	n/a
327.184	0.105	654368	keystroke_e	e	n/a
327.394	0.045	654788	keystroke_s	s	n/a
328.3395	0.119	656679	keystroke_Key.enter	Key.enter	n/a
328.4725	6.918	656945	prompt	n/a	fountain education estimate gets\n
329.299	0.09	658598	keystroke_f	f	n/a
329.689	0.165	659378	keystroke_o	o	n/a
329.779	0.135	659558	keystroke_u	u	n/a
329.839	0.15	659678	keystroke_n	n	n/a
330.049	0.09	660098	keystroke_t	t	n/a
330.229	0.12	660458	keystroke_a	a	n/a
330.364	0.165	660728	keystroke_i	i	n/a
330.454	0.18	660908	keystroke_n	n	n/a
330.604	0.12	661208	keystroke_Key.space	Key.space	n/a
330.784	0.105	661568	keystroke_e	e	n/a
330.949	0.105	661898	keystroke_d	d	n/a
331.114	0.075	662228	keystroke_u	u	n/a
331.4445	0.134	662889	keystroke_c	c	n/a
331.5345	0.12	663069	keystroke_a	a	n/a
331.7595	0.089	663519	keystroke_t	t	n/a
331.8335	0.24	663667	keystroke_i	i	n/a
331.9235	0.135	663847	keystroke_o	o	n/a
332.0435	0.09	664087	keystroke_n	n	n/a
332.0885	0.12	664177	keystroke_Key.space	Key.space	n/a
332.2545	0.075	664509	keystroke_e	e	n/a
332.4185	0.0905	664837	keystroke_s	s	n/a
332.614	0.09	665228	keystroke_t	t	n/a
332.764	0.1495	665528	keystroke_i	i	n/a
332.8835	0.15	665767	keystroke_m	m	n/a
333.0185	0.09	666037	keystroke_a	a	n/a
333.1685	0.12	666337	keystroke_t	t	n/a
333.2895	0.119	666579	keystroke_e	e	n/a
333.529	0.09	667058	keystroke_Key.space	Key.space	n/a
334.054	0.1205	668108	keystroke_g	g	n/a
334.2795	0.134	668559	keystroke_e	e	n/a
334.3835	0.076	668767	keystroke_t	t	n/a
334.6685	0.105	669337	keystroke_s	s	n/a
335.3135	0.075	670627	keystroke_Key.enter	Key.enter	n/a
335.3935	10.489	670787	prompt	n/a	promotes integrity allocated craig\n
335.974	0.0895	671948	keystroke_p	p	n/a
336.1385	0.09	672277	keystroke_r	r	n/a
336.2585	0.105	672517	keystroke_o	o	n/a
336.4385	0.1355	672877	keystroke_m	m	n/a
336.559	0.09	673118	keystroke_o	o	n/a
336.769	0.1205	673538	keystroke_t	t	n/a
336.8745	0.12	673749	keystroke_e	e	n/a
337.0995	0.12	674199	keystroke_s	s	n/a
337.2045	0.105	674409	keystroke_Key.space	Key.space	n/a
337.3545	0.135	674709	keystroke_i	i	n/a
337.4445	0.134	674889	keystroke_n	n	n/a
337.5935	0.12	675187	keystroke_t	t	n/a
337.729	0.12	675458	keystroke_e	e	n/a
338.1945	0.105	676389	keystroke_f	f	n/a
338.4045	0.0895	676809	keystroke_r	r	n/a
338.719	0.06	677438	keystroke_Key.backspace	Key.backspace	n/a
338.854	0.09	677708	keystroke_Key.backspace	Key.backspace	n/a
338.959	0.09	677918	keystroke_g	g	n/a
339.169	0.06	678338	keystroke_r	r	n/a
339.244	0.105	678488	keystroke_i	i	n/a
339.724	0.105	679448	keystroke_t	t	n/a
339.934	0.06	679868	keystroke_u	u	n/a
340.5495	0.075	681099	keystroke_Key.backspace	Key.backspace	n/a
340.8345	0.105	681669	keystroke_y	y	n/a
340.9095	0.105	681819	keystroke_Key.space	Key.space	n/a
341.0895	0.105	682179	keystroke_a	a	n/a
341.1795	0.06	682359	keystroke_l	l	n/a
341.3145	0.075	682629	keystroke_l	l	n/a
341.5995	0.075	683199	keystroke_o	o	n/a
342.7395	0.12	685479	keystroke_c	c	n/a
342.8745	0.09	685749	keystroke_a	a	n/a
343.1585	0.091	686317	keystroke_e	e	n/a
343.7285	0.076	687457	keystroke_Key.backspace	Key.backspace	n/a
343.7895	0.09	687579	keystroke_t	t	n/a
343.9245	0.15	687849	keystroke_e	e	n/a
344.0145	0.135	688029	keystroke_d	d	n/a
344.1645	0.105	688329	keystroke_Key.space	Key.space	n/a
344.4345	0.12	688869	keystroke_c	c	n/a
344.6745	0.09	689349	keystroke_r	r	n/a
344.8245	0.12	689649	keystroke_a	a	n/a
344.9595	0.0745	689919	keystroke_i	i	n/a
345.304	0.03	690608	keystroke_g	g	n/a
345.829	0.045	691658	keystroke_Key.enter	Key.enter	n/a
345.887	8.786	691774	prompt	n/a	promise triangle letting joke\n
346.459	0.075	692918	keystroke_p	p	n/a
346.594	0.09	693188	keystroke_r	r	n/a
346.759	0.18	693518	keystroke_o	o	n/a
346.909	0.105	693818	keystroke_m	m	n/a
347.059	0.09	694118	keystroke_i	i	n/a
347.164	0.075	694328	keystroke_s	s	n/a
347.389	0.075	694778	keystroke_e	e	n/a
347.539	0.12	695078	keystroke_Key.space	Key.space	n/a
347.809	0.12	695618	keystroke_r	r	n/a
348.349	0.09	696698	keystroke_Key.backspace	Key.backspace	n/a
348.424	0.0755	696848	keystroke_t	t	n/a
348.6645	0.075	697329	keystroke_r	r	n/a
348.7695	0.059	697539	keystroke_i	i	n/a
349.249	0.045	698498	keystroke_a	a	n/a
349.474	0.09	698948	keystroke_n	n	n/a
349.714	0.075	699428	keystroke_g	g	n/a
349.864	0.06	699728	keystroke_l	l	n/a
350.0135	0.06	700027	keystroke_e	e	n/a
350.2085	0.09	700417	keystroke_Key.space	Key.space	n/a
350.5395	0.105	701079	keystroke_l	l	n/a
350.7045	0.09	701409	keystroke_e	e	n/a
350.8695	0.06	701739	keystroke_t	t	n/a
350.9895	0.075	701979	keystroke_t	t	n/a
351.0945	0.12	702189	keystroke_i	i	n/a
351.1845	0.105	702369	keystroke_n	n	n/a
351.2595	0.105	702519	keystroke_g	g	n/a
351.4095	0.09	702819	keystroke_Key.space	Key.space	n/a
352.3685	0.136	704737	keystroke_j	j	n/a
352.4885	0.151	704977	keystroke_o	o	n/a
352.6095	0.09	705219	keystroke_k	k	n/a
352.8945	0.105	705789	keystroke_e	e	n/a
354.5735	0.09	709147	keystroke_Key.enter	Key.enter	n/a
354.678	4.8625	709356	prompt	n/a	tagged scope meals we're\n
355.3535	0.105	710707	keystroke_t	t	n/a
355.5185	0.12	711037	keystroke_a	a	n/a
355.6685	0.09	711337	keystroke_g	g	n/a
355.8185	0.105	711637	keystroke_g	g	n/a
355.8935	0.12	711787	keystroke_e	e	n/a
356.0735	0.12	712147	keystroke_d	d	n/a
356.2385	0.105	712477	keystroke_Key.space	Key.space	n/a
356.4185	0.106	712837	keystroke_s	s	n/a
356.5845	0.12	713169	keystroke_c	c	n/a
356.8695	0.135	713739	keystroke_o	o	n/a
356.9595	0.105	713919	keystroke_p	p	n/a
357.0945	0.09	714189	keystroke_e	e	n/a
357.2295	0.0895	714459	keystroke_Key.space	Key.space	n/a
357.514	0.0905	715028	keystroke_m	m	n/a
357.6185	0.121	715237	keystroke_e	e	n/a
357.7245	0.135	715449	keystroke_a	a	n/a
357.8445	0.075	715689	keystroke_l	l	n/a
357.9495	0.09	715899	keystroke_s	s	n/a
358.0845	0.105	716169	keystroke_Key.space	Key.space	n/a
358.3545	0.1795	716709	keystroke_w	w	n/a
358.4745	0.1495	716949	keystroke_e	e	n/a
358.609	0.12	717218	keystroke_'	'	n/a
358.714	0.1205	717428	keystroke_r	r	n/a
358.789	0.1195	717578	keystroke_e	e	n/a
359.494	0.045	718988	keystroke_Key.enter	Key.enter	n/a
359.5435	13.4945	719087	prompt	n/a	render exception translations publicly\n
360.199	0.135	720398	keystroke_r	r	n/a
360.304	0.09	720608	keystroke_e	e	n/a
360.454	0.105	720908	keystroke_n	n	n/a
360.5745	0.12	721149	keystroke_d	d	n/a
360.6795	0.1945	721359	keystroke_e	e	n/a
360.8145	0.1195	721629	keystroke_r	r	n/a
360.949	0.135	721898	keystroke_Key.space	Key.space	n/a
361.174	0.09	722348	keystroke_e	e	n/a
361.3985	0.03	722797	keystroke_c	c	n/a
361.8185	0.075	723637	keystroke_Key.backspace	Key.backspace	n/a
361.9235	0.09	723847	keystroke_x	x	n/a
362.6295	0.12	725259	keystroke_v	v	n/a
362.8245	0.135	725649	keystroke_e	e	n/a
362.9745	0.06	725949	keystroke_p	p	n/a
363.2895	0.045	726579	keystroke_Key.backspace	Key.backspace	n/a
363.4085	0.076	726817	keystroke_Key.backspace	Key.backspace	n/a
363.559	0.075	727118	keystroke_Key.backspace	Key.backspace	n/a
364.1435	0.135	728287	keystroke_c	c	n/a
364.2935	0.105	728587	keystroke_e	e	n/a
364.5185	0.046	729037	keystroke_p	p	n/a
364.7585	0.091	729517	keystroke_t	t	n/a
364.8935	0.2705	729787	keystroke_i	i	n/a
365.044	0.105	730088	keystroke_o	o	n/a
365.104	0.12	730208	keystroke_n	n	n/a
365.434	0.12	730868	keystroke_Key.space	Key.space	n/a
365.884	0.1355	731768	keystroke_t	t	n/a
366.0795	0.1195	732159	keystroke_r	r	n/a
366.1845	0.1045	732369	keystroke_a	a	n/a
366.304	0.12	732608	keystroke_n	n	n/a
366.409	0.075	732818	keystroke_s	s	n/a
366.5745	0.075	733149	keystroke_l	l	n/a
366.6945	0.089	733389	keystroke_a	a	n/a
366.9045	0.059	733809	keystroke_t	t	n/a
366.9645	0.24	733929	keystroke_i	i	n/a
367.0235	0.166	734047	keystroke_o	o	n/a
367.1595	0.09	734319	keystroke_n	n	n/a
367.2795	0.074	734559	keystroke_s	s	n/a
367.4135	0.09	734827	keystroke_Key.space	Key.space	n/a
367.879	0.045	735758	keystroke_p	p	n/a
368.119	0.06	736238	keystroke_u	u	n/a
368.359	0.075	736718	keystroke_b	b	n/a
368.7035	0.09	737407	keystroke_l	l	n/a
368.854	0.075	737708	keystroke_i	i	n/a
369.049	0.12	738098	keystroke_c	c	n/a
369.139	0.075	738278	keystroke_a	a	n/a
369.814	0.12	739628	keystroke_Key.backspace	Key.backspace	n/a
370.534	0.09	741068	keystroke_l	l	n/a
370.849	0.0755	741698	keystroke_y	y	n/a
373.027	0.001	746054	keystroke_Key.enter	Key.enter	n/a
373.0425	7.85	746085	prompt	n/a	meat invasion addiction double\n
373.8195	0.1045	747639	keystroke_m	m	n/a
373.9545	0.15	747909	keystroke_e	e	n/a
374.0595	0.09	748119	keystroke_a	a	n/a
374.1495	0.045	748299	keystroke_n	n	n/a
374.5845	0.045	749169	keystroke_Key.backspace	Key.backspace	n/a
374.659	0.09	749318	keystroke_t	t	n/a
374.7795	0.09	749559	keystroke_Key.space	Key.space	n/a
375.0935	0.12	750187	keystroke_i	i	n/a
375.2145	0.1495	750429	keystroke_n	n	n/a
375.589	0.135	751178	keystroke_v	v	n/a
375.769	0.15	751538	keystroke_a	a	n/a
376.129	0.09	752258	keystroke_t	t	n/a
376.609	0.09	753218	keystroke_Key.backspace	Key.backspace	n/a
376.714	0.075	753428	keystroke_s	s	n/a
376.819	0.225	753638	keystroke_i	i	n/a
376.954	0.105	753908	keystroke_o	o	n/a
376.984	0.15	753968	keystroke_n	n	n/a
377.254	0.105	754508	keystroke_Key.space	Key.space	n/a
377.8095	0.135	755619	keystroke_a	a	n/a
377.9295	0.075	755859	keystroke_d	d	n/a
378.0795	0.105	756159	keystroke_d	d	n/a
378.1845	0.105	756369	keystroke_i	i	n/a
378.5895	0.149	757179	keystroke_c	c	n/a
378.9045	0.075	757809	keystroke_t	t	n/a
379.0095	0.21	758019	keystroke_i	i	n/a
379.0995	0.135	758199	keystroke_o	o	n/a
379.1745	0.12	758349	keystroke_n	n	n/a
379.3545	0.09	758709	keystroke_Key.space	Key.space	n/a
379.5945	0.105	759189	keystroke_d	d	n/a
379.7295	0.15	759459	keystroke_o	o	n/a
379.8195	0.105	759639	keystroke_u	u	n/a
379.9095	0.12	759819	keystroke_b	b	n/a
380.1045	0.09	760209	keystroke_l	l	n/a
380.2245	0.09	760449	keystroke_e	e	n/a
380.8395	0.045	761679	keystroke_Key.enter	Key.enter	n/a
380.897	9.2815	761794	prompt	n/a	socks younger mirrors decisions\n
381.4985	0.075	762997	keystroke_s	s	n/a
381.5885	0.091	763177	keystroke_o	o	n/a
381.6935	0.105	763387	keystroke_c	c	n/a
381.8135	0.09	763627	keystroke_k	k	n/a
381.9185	0.09	763837	keystroke_s	s	n/a
382.0985	0.09	764197	keystroke_Key.space	Key.space	n/a
382.5785	0.121	765157	keystroke_y	y	n/a
382.6995	0.149	765399	keystroke_o	o	n/a
382.7885	0.105	765577	keystroke_u	u	n/a
383.0295	0.1045	766059	keystroke_n	n	n/a
383.5995	0.135	767199	keystroke_d	d	n/a
383.7045	0.105	767409	keystroke_e	e	n/a
384.004	0.06	768008	keystroke_Key.backspace	Key.backspace	n/a
384.139	0.075	768278	keystroke_Key.backspace	Key.backspace	n/a
384.229	0.12	768458	keystroke_f	f	n/a
384.364	0.09	768728	keystroke_e	e	n/a
384.7245	0.06	769449	keystroke_Key.backspace	Key.backspace	n/a
384.8745	0.06	769749	keystroke_Key.backspace	Key.backspace	n/a
384.9645	0.12	769929	keystroke_g	g	n/a
385.0845	0.18	770169	keystroke_e	e	n/a
385.2345	0.09	770469	keystroke_r	r	n/a
385.6085	0.106	771217	keystroke_Key.space	Key.space	n/a
385.9395	0.075	771879	keystroke_m	m	n/a
386.1045	0.075	772209	keystroke_i	i	n/a
386.2545	0.075	772509	keystroke_r	r	n/a
386.3745	0.09	772749	keystroke_r	r	n/a
386.509	0.075	773018	keystroke_o	o	n/a
386.809	0.105	773618	keystroke_r	r	n/a
387.034	0.09	774068	keystroke_s	s	n/a
387.199	0.105	774398	keystroke_Key.space	Key.space	n/a
387.3945	0.12	774789	keystroke_d	d	n/a
387.6045	0.09	775209	keystroke_e	e	n/a
387.799	0.12	775598	keystroke_c	c	n/a
388.3395	0.075	776679	keystroke_i	i	n/a
388.4445	0.045	776889	keystroke_s	s	n/a
388.999	0.225	777998	keystroke_i	i	n/a
389.179	0.105	778358	keystroke_o	o	n/a
389.194	0.12	778388	keystroke_n	n	n/a
389.359	0.09	778718	keystroke_s	s	n/a
390.124	0.045	780248	keystroke_Key.enter	Key.enter	n/a
390.183	8.5445	780366	prompt	n/a	their employee liability fault\n
390.7985	0.105	781597	keystroke_t	t	n/a
390.9185	0.105	781837	keystroke_h	h	n/a
390.979	0.105	781958	keystroke_e	e	n/a
391.114	0.075	782228	keystroke_i	i	n/a
391.1895	0.0895	782379	keystroke_r	r	n/a
391.324	0.09	782648	keystroke_Key.space	Key.space	n/a
391.519	0.09	783038	keystroke_e	e	n/a
391.654	0.105	783308	keystroke_m	m	n/a
391.819	0.1655	783638	keystroke_p	p	n/a
391.9095	0.09	783819	keystroke_l	l	n/a
392.2695	0.105	784539	keystroke_o	o	n/a
393.0485	0.075	786097	keystroke_y	y	n/a
393.2595	0.075	786519	keystroke_e	e	n/a
393.4235	0.0755	786847	keystroke_e	e	n/a
393.544	0.105	787088	keystroke_Key.space	Key.space	n/a
393.799	0.165	787598	keystroke_l	l	n/a
393.934	0.105	787868	keystroke_i	i	n/a
394.279	0.12	788558	keystroke_a	a	n/a
394.444	0.075	788888	keystroke_b	b	n/a
394.654	0.135	789308	keystroke_i	i	n/a
394.804	0.12	789608	keystroke_l	l	n/a
394.894	0.06	789788	keystroke_i	i	n/a
395.449	0.1055	790898	keystroke_t	t	n/a
396.2295	0.105	792459	keystroke_y	y	n/a
396.469	0.0755	792938	keystroke_Key.space	Key.space	n/a
397.324	0.075	794648	keystroke_f	f	n/a
397.564	0.06	795128	keystroke_a	a	n/a
397.654	0.0905	795308	keystroke_u	u	n/a
397.8495	0.09	795699	keystroke_l	l	n/a
397.9545	0.105	795909	keystroke_t	t	n/a
398.674	0.045	797348	keystroke_Key.enter	Key.enter	n/a
398.734	8.034	797468	prompt	n/a	houston tabs behalf handmade\n
399.4395	0.1345	798879	keystroke_h	h	n/a
399.544	0.18	799088	keystroke_o	o	n/a
399.649	0.1055	799298	keystroke_u	u	n/a
399.7845	0.105	799569	keystroke_s	s	n/a
400.0395	0.09	800079	keystroke_t	t	n/a
400.1595	0.105	800319	keystroke_o	o	n/a
400.2195	0.105	800439	keystroke_n	n	n/a
400.7595	0.09	801519	keystroke_Key.space	Key.space	n/a
401.0895	0.105	802179	keystroke_t	t	n/a
401.2395	0.135	802479	keystroke_a	a	n/a
401.3745	0.135	802749	keystroke_b	b	n/a
401.8695	0.09	803739	keystroke_s	s	n/a
402.0945	0.09	804189	keystroke_Key.space	Key.space	n/a
402.304	0.12	804608	keystroke_b	b	n/a
402.439	0.0605	804878	keystroke_e	e	n/a
402.739	0.12	805478	keystroke_h	h	n/a
402.874	0.075	805748	keystroke_a	a	n/a
402.9645	0.075	805929	keystroke_l	l	n/a
403.1745	0.09	806349	keystroke_d	d	n/a
403.7145	0.059	807429	keystroke_Key.backspace	Key.backspace	n/a
403.7885	0.121	807577	keystroke_f	f	n/a
403.9985	0.075	807997	keystroke_Key.space	Key.space	n/a
404.4185	0.0755	808837	keystroke_h	h	n/a
404.9595	0.09	809919	keystroke_a	a	n/a
405.0795	0.105	810159	keystroke_n	n	n/a
405.2295	0.12	810459	keystroke_d	d	n/a
405.6645	0.09	811329	keystroke_m	m	n/a
405.7395	0.15	811479	keystroke_a	a	n/a
405.8745	0.165	811749	keystroke_d	d	n/a
406.2195	0.1045	812439	keystroke_e	e	n/a
406.669	0.09	813338	keystroke_Key.enter	Key.enter	n/a
406.774	8.169	813548	prompt	n/a	miracle pizza hide strain\n
407.494	0.105	814988	keystroke_m	m	n/a
407.6745	0.105	815349	keystroke_i	i	n/a
407.7495	0.119	815499	keystroke_r	r	n/a
407.9295	0.135	815859	keystroke_a	a	n/a
408.3485	0.121	816697	keystroke_v	v	n/a
408.4845	0.0895	816969	keystroke_l	l	n/a
408.5885	0.1055	817177	keystroke_e	e	n/a
408.9785	0.06	817957	keystroke_Key.backspace	Key.backspace	n/a
409.1135	0.06	818227	keystroke_Key.backspace	Key.backspace	n/a
409.2345	0.09	818469	keystroke_Key.backspace	Key.backspace	n/a
409.3245	0.105	818649	keystroke_c	c	n/a
409.4595	0.09	818919	keystroke_l	l	n/a
409.5795	0.09	819159	keystroke_e	e	n/a
409.729	0.09	819458	keystroke_Key.space	Key.space	n/a
410.074	0.03	820148	keystroke_p	p	n/a
410.089	0.09	820178	keystroke_i	i	n/a
410.4195	0.09	820839	keystroke_z	z	n/a
410.7045	0.075	821409	keystroke_a	a	n/a
411.1095	0.105	822219	keystroke_Key.backspace	Key.backspace	n/a
411.1695	0.12	822339	keystroke_z	z	n/a
411.2445	0.105	822489	keystroke_a	a	n/a
411.4545	0.09	822909	keystroke_Key.space	Key.space	n/a
411.814	0.075	823628	keystroke_h	h	n/a
411.934	0.12	823868	keystroke_a	a	n/a
412.384	0.075	824768	keystroke_Key.backspace	Key.backspace	n/a
412.594	0.03	825188	keystroke_i	i	n/a
412.639	0.1205	825278	keystroke_d	d	n/a
412.699	0.09	825398	keystroke_e	e	n/a
413.089	0.0905	826178	keystroke_Key.space	Key.space	n/a
413.359	0.09	826718	keystroke_s	s	n/a
413.6145	0.09	827229	keystroke_t	t	n/a
413.7945	0.1045	827589	keystroke_r	r	n/a
413.884	0.1205	827768	keystroke_a	a	n/a
414.0795	0.105	828159	keystroke_i	i	n/a
414.1545	0.12	828309	keystroke_n	n	n/a
414.8595	0.075	829719	keystroke_Key.enter	Key.enter	n/a
414.9475	7.9455	829895	prompt	n/a	defensive plain release clip\n
417.591	0.058	835182	keystroke_d	d	n/a
417.604	0.075	835208	keystroke_e	e	n/a
417.814	0.105	835628	keystroke_f	f	n/a
417.904	0.12	835808	keystroke_e	e	n/a
418.054	0.105	836108	keystroke_n	n	n/a
418.219	0.09	836438	keystroke_s	s	n/a
418.339	0.09	836678	keystroke_i	i	n/a
418.9095	0.1495	837819	keystroke_v	v	n/a
419.0145	0.1045	838029	keystroke_e	e	n/a
419.3745	0.075	838749	keystroke_Key.space	Key.space	n/a
419.5545	0.18	839109	keystroke_p	p	n/a
419.6445	0.105	839289	keystroke_l	l	n/a
419.7795	0.105	839559	keystroke_a	a	n/a
419.9145	0.1495	839829	keystroke_i	i	n/a
420.019	0.105	840038	keystroke_n	n	n/a
420.184	0.12	840368	keystroke_Key.space	Key.space	n/a
420.454	0.15	840908	keystroke_r	r	n/a
420.544	0.15	841088	keystroke_e	e	n/a
420.724	0.12	841448	keystroke_l	l	n/a
420.964	0.12	841928	keystroke_e	e	n/a
421.099	0.255	842198	keystroke_a	a	n/a
421.234	0.105	842468	keystroke_s	s	n/a
421.504	0.075	843008	keystroke_e	e	n/a
421.609	0.12	843218	keystroke_Key.space	Key.space	n/a
421.834	0.12	843668	keystroke_c	c	n/a
422.014	0.135	844028	keystroke_l	l	n/a
422.104	0.135	844208	keystroke_i	i	n/a
422.464	0.0755	844928	keystroke_p	p	n/a
422.809	0.075	845618	keystroke_Key.enter	Key.enter	n/a
422.897	13.4815	845794	prompt	n/a	persistent flags presentations valuable\n
423.5295	0.075	847059	keystroke_p	p	n/a
423.6645	0.15	847329	keystroke_e	e	n/a
423.7695	0.09	847539	keystroke_r	r	n/a
424.4145	0.12	848829	keystroke_i	i	n/a
424.5495	0.03	849099	keystroke_s	s	n/a
425.1795	0.045	850359	keystroke_Key.backspace	Key.backspace	n/a
425.3295	0.0595	850659	keystroke_Key.backspace	Key.backspace	n/a
425.9445	0.105	851889	keystroke_s	s	n/a
426.0645	0.06	852129	keystroke_i	i	n/a
426.1695	0.075	852339	keystroke_s	s	n/a
426.6045	0.12	853209	keystroke_t	t	n/a
426.7095	0.09	853419	keystroke_e	e	n/a
426.8595	0.09	853719	keystroke_n	n	n/a
427.039	0.0905	854078	keystroke_t	t	n/a
427.3095	0.09	854619	keystroke_Key.space	Key.space	n/a
427.7295	0.105	855459	keystroke_l	l	n/a
427.9845	0.06	855969	keystroke_a	a	n/a
428.299	0.06	856598	keystroke_Key.backspace	Key.backspace	n/a
428.449	0.075	856898	keystroke_Key.backspace	Key.backspace	n/a
428.989	0.045	857978	keystroke_g	g	n/a
429.2895	0.075	858579	keystroke_Key.backspace	Key.backspace	n/a
429.3795	0.09	858759	keystroke_f	f	n/a
429.529	0.09	859058	keystroke_l	l	n/a
429.725	0.059	859450	keystroke_a	a	n/a
429.9195	0.075	859839	keystroke_g	g	n/a
430.0845	0.12	860169	keystroke_s	s	n/a
430.2795	0.105	860559	keystroke_Key.space	Key.space	n/a
430.8345	0.0895	861669	keystroke_p	p	n/a
431.044	0.105	862088	keystroke_r	r	n/a
431.089	0.105	862178	keystroke_e	e	n/a
431.329	0.075	862658	keystroke_s	s	n/a
431.524	0.075	863048	keystroke_e	e	n/a
431.6445	0.105	863289	keystroke_n	n	n/a
432.0345	0.104	864069	keystroke_t	t	n/a
432.2445	0.1345	864489	keystroke_a	a	n/a
432.364	0.0905	864728	keystroke_t	t	n/a
432.4845	0.2095	864969	keystroke_i	i	n/a
432.559	0.15	865118	keystroke_o	o	n/a
432.634	0.15	865268	keystroke_n	n	n/a
432.769	0.12	865538	keystroke_s	s	n/a
433.174	0.105	866348	keystroke_Key.space	Key.space	n/a
434.134	0.075	868268	keystroke_v	v	n/a
434.284	0.12	868568	keystroke_a	a	n/a
434.8845	0.1195	869769	keystroke_l	l	n/a
435.154	0.06	870308	keystroke_u	u	n/a
435.529	0.105	871058	keystroke_a	a	n/a
435.619	0.075	871238	keystroke_b	b	n/a
435.754	0.09	871508	keystroke_l	l	n/a
435.859	0.09	871718	keystroke_e	e	n/a
436.309	0.06	872618	keystroke_Key.enter	Key.enter	n/a
436.3825	9.401	872765	prompt	n/a	triumph wrestling wifi else\n
437.389	0.09	874778	keystroke_t	t	n/a
437.599	0.075	875198	keystroke_r	r	n/a
437.884	0.0905	875768	keystroke_i	i	n/a
438.2745	0.075	876549	keystroke_u	u	n/a
438.574	0.09	877148	keystroke_m	m	n/a
438.844	0.015	877688	keystroke_p	p	n/a
439.0095	0.09	878019	keystroke_h	h	n/a
439.3245	0.12	878649	keystroke_Key.space	Key.space	n/a
440.1195	0.075	880239	keystroke_w	w	n/a
440.3745	0.1345	880749	keystroke_r	r	n/a
440.494	0.105	880988	keystroke_e	e	n/a
441.019	0.105	882038	keystroke_s	s	n/a
441.289	0.105	882578	keystroke_t	t	n/a
441.424	0.105	882848	keystroke_l	l	n/a
441.619	0.105	883238	keystroke_i	i	n/a
441.694	0.1205	883388	keystroke_n	n	n/a
441.7995	0.105	883599	keystroke_g	g	n/a
441.9345	0.075	883869	keystroke_Key.space	Key.space	n/a
442.4145	0.075	884829	keystroke_w	w	n/a
442.55	0.089	885100	keystroke_i	i	n/a
442.729	0.091	885458	keystroke_f	f	n/a
442.879	0.18	885758	keystroke_i	i	n/a
442.999	0.1205	885998	keystroke_Key.space	Key.space	n/a
443.3445	0.09	886689	keystroke_e	e	n/a
443.4495	0.09	886899	keystroke_l	l	n/a
444.3495	0.105	888699	keystroke_s	s	n/a
444.6195	0.075	889239	keystroke_e	e	n/a
445.6695	0.105	891339	keystroke_Key.enter	Key.enter	n/a
445.7875	8.054	891575	prompt	n/a	reproductive naked forbes insured\n
446.524	0.12	893048	keystroke_r	r	n/a
446.584	0.12	893168	keystroke_e	e	n/a
446.869	0.075	893738	keystroke_p	p	n/a
447.0645	0.075	894129	keystroke_r	r	n/a
447.1695	0.075	894339	keystroke_o	o	n/a
447.4545	0.09	894909	keystroke_d	d	n/a
447.5895	0.09	895179	keystroke_u	u	n/a
447.7095	0.105	895419	keystroke_c	c	n/a
447.9645	0.075	895929	keystroke_t	t	n/a
448.1595	0.075	896319	keystroke_i	i	n/a
448.3695	0.1345	896739	keystroke_v	v	n/a
448.4595	0.1045	896919	keystroke_e	e	n/a
448.639	0.09	897278	keystroke_Key.space	Key.space	n/a
448.834	0.09	897668	keystroke_n	n	n/a
448.909	0.105	897818	keystroke_a	a	n/a
449.074	0.0905	898148	keystroke_k	k	n/a
449.1945	0.135	898389	keystroke_e	e	n/a
449.2695	0.12	898539	keystroke_d	d	n/a
449.4345	0.12	898869	keystroke_Key.space	Key.space	n/a
449.7795	0.09	899559	keystroke_f	f	n/a
449.8845	0.09	899769	keystroke_o	o	n/a
450.0195	0.0895	900039	keystroke_r	r	n/a
450.334	0.09	900668	keystroke_b	b	n/a
450.439	0.1055	900878	keystroke_e	e	n/a
450.6495	0.105	901299	keystroke_s	s	n/a
450.8145	0.105	901629	keystroke_Key.space	Key.space	n/a
452.254	0.105	904508	keystroke_i	i	n/a
452.344	0.12	904688	keystroke_n	n	n/a
452.735	0.105	905470	keystroke_s	s	n/a
452.975	0.09	905950	keystroke_u	u	n/a
453.125	0.135	906250	keystroke_r	r	n/a
453.23	0.149	906460	keystroke_e	e	n/a
453.349	0.1205	906698	keystroke_d	d	n/a
453.7245	0.105	907449	keystroke_Key.enter	Key.enter	n/a
453.8475	9.651	907695	prompt	n/a	downloadable roberts instant villages\n
455.1645	0.09	910329	keystroke_d	d	n/a
455.2845	0.0895	910569	keystroke_o	o	n/a
455.4045	0.0745	910809	keystroke_w	w	n/a
455.569	0.09	911138	keystroke_n	n	n/a
455.764	0.06	911528	keystroke_l	l	n/a
455.944	0.091	911888	keystroke_o	o	n/a
456.109	0.105	912218	keystroke_a	a	n/a
456.349	0.105	912698	keystroke_d	d	n/a
456.6495	0.105	913299	keystroke_a	a	n/a
456.8145	0.0895	913629	keystroke_b	b	n/a
457.024	0.09	914048	keystroke_l	l	n/a
457.159	0.105	914318	keystroke_e	e	n/a
457.324	0.105	914648	keystroke_Key.space	Key.space	n/a
457.6095	0.1045	915219	keystroke_r	r	n/a
457.744	0.075	915488	keystroke_o	o	n/a
457.909	0.12	915818	keystroke_b	b	n/a
458.074	0.1505	916148	keystroke_e	e	n/a
458.1645	0.105	916329	keystroke_r	r	n/a
458.4645	0.0745	916929	keystroke_t	t	n/a
458.704	0.105	917408	keystroke_s	s	n/a
458.839	0.12	917678	keystroke_Key.space	Key.space	n/a
459.034	0.135	918068	keystroke_i	i	n/a
459.124	0.1055	918248	keystroke_n	n	n/a
459.754	0.12	919508	keystroke_s	s	n/a
460.024	0.105	920048	keystroke_t	t	n/a
460.219	0.105	920438	keystroke_a	a	n/a
460.339	0.09	920678	keystroke_n	n	n/a
460.474	0.09	920948	keystroke_t	t	n/a
460.8345	0.135	921669	keystroke_Key.space	Key.space	n/a
461.599	0.075	923198	keystroke_v	v	n/a
461.779	0.06	923558	keystroke_i	i	n/a
461.945	0.059	923890	keystroke_l	l	n/a
462.109	0.076	924218	keystroke_l	l	n/a
462.199	0.091	924398	keystroke_a	a	n/a
462.395	0.105	924790	keystroke_g	g	n/a
462.545	0.09	925090	keystroke_e	e	n/a
462.74	0.09	925480	keystroke_s	s	n/a
463.429	0.06	926858	keystroke_Key.enter	Key.enter	n/a
463.503	9.5355	927006	prompt	n/a	existed sets james junction\n
464.554	0.03	929108	keystroke_e	e	n/a
464.794	0.075	929588	keystroke_x	x	n/a
465.77	0.075	931540	keystroke_i	i	n/a
465.89	0.09	931780	keystroke_s	s	n/a
466.145	0.105	932290	keystroke_t	t	n/a
466.309	0.151	932618	keystroke_e	e	n/a
466.399	0.121	932798	keystroke_d	d	n/a
466.564	0.105	933128	keystroke_Key.space	Key.space	n/a
466.729	0.075	933458	keystroke_s	s	n/a
466.894	0.09	933788	keystroke_e	e	n/a
467.045	0.119	934090	keystroke_t	t	n/a
467.269	0.12	934538	keystroke_s	s	n/a
467.6595	0.12	935319	keystroke_Key.space	Key.space	n/a
468.484	0.0905	936968	keystroke_j	j	n/a
468.5895	0.09	937179	keystroke_a	a	n/a
468.7245	0.09	937449	keystroke_m	m	n/a
468.7995	0.09	937599	keystroke_e	e	n/a
469.0095	0.0905	938019	keystroke_s	s	n/a
469.115	0.105	938230	keystroke_Key.space	Key.space	n/a
469.8345	0.075	939669	keystroke_j	j	n/a
470.0295	0.06	940059	keystroke_u	u	n/a
470.2245	0.0895	940449	keystroke_n	n	n/a
470.4795	0.105	940959	keystroke_c	c	n/a
470.7945	0.06	941589	keystroke_t	t	n/a
470.8395	0.18	941679	keystroke_i	i	n/a
470.9295	0.1045	941859	keystroke_o	o	n/a
470.9595	0.105	941919	keystroke_n	n	n/a
472.999	0.03	945998	keystroke_Key.enter	Key.enter	n/a
473.0425	11.336	946085	prompt	n/a	instead instruments garden subsidiaries\n
473.7195	0.12	947439	keystroke_i	i	n/a
473.8245	0.135	947649	keystroke_n	n	n/a
474.0495	0.12	948099	keystroke_s	s	n/a
474.26	0.1495	948520	keystroke_t	t	n/a
474.3945	0.195	948789	keystroke_e	e	n/a
474.5595	0.21	949119	keystroke_a	a	n/a
474.7245	0.12	949449	keystroke_d	d	n/a
474.9195	0.12	949839	keystroke_Key.space	Key.space	n/a
475.1595	0.15	950319	keystroke_i	i	n/a
475.2645	0.12	950529	keystroke_n	n	n/a
475.5195	0.075	951039	keystroke_s	s	n/a
475.7145	0.09	951429	keystroke_t	t	n/a
475.9545	0.105	951909	keystroke_r	r	n/a
476.1795	0.075	952359	keystroke_u	u	n/a
476.5695	0.09	953139	keystroke_m	m	n/a
476.6745	0.105	953349	keystroke_e	e	n/a
476.8095	0.135	953619	keystroke_n	n	n/a
476.9445	0.09	953889	keystroke_t	t	n/a
477.1395	0.1045	954279	keystroke_s	s	n/a
477.304	0.105	954608	keystroke_Key.space	Key.space	n/a
477.934	0.09	955868	keystroke_g	g	n/a
478.084	0.12	956168	keystroke_a	a	n/a
478.159	0.135	956318	keystroke_r	r	n/a
478.4895	0.15	956979	keystroke_d	d	n/a
478.5945	0.135	957189	keystroke_e	e	n/a
478.7445	0.18	957489	keystroke_n	n	n/a
478.9545	0.105	957909	keystroke_Key.space	Key.space	n/a
479.3895	0.09	958779	keystroke_s	s	n/a
479.4945	0.075	958989	keystroke_u	u	n/a
479.6895	0.12	959379	keystroke_b	b	n/a
480.1845	0.09	960369	keystroke_s	s	n/a
480.2895	0.075	960579	keystroke_i	i	n/a
480.709	0.105	961418	keystroke_d	d	n/a
480.859	0.09	961718	keystroke_i	i	n/a
481.52	0.104	963040	keystroke_a	a	n/a
482.42	0.0895	964840	keystroke_r	r	n/a
482.5695	0.06	965139	keystroke_i	i	n/a
482.644	0.075	965288	keystroke_e	e	n/a
482.839	0.09	965678	keystroke_s	s	n/a
484.28	0.09	968560	keystroke_Key.enter	Key.enter	n/a
484.383	10.316	968766	prompt	n/a	producing emergency baby belgium\n
485.405	0.1045	970810	keystroke_p	p	n/a
485.5545	0.105	971109	keystroke_r	r	n/a
485.6605	0.104	971321	keystroke_o	o	n/a
486.0045	0.105	972009	keystroke_d	d	n/a
486.1695	0.09	972339	keystroke_u	u	n/a
486.4095	0.1045	972819	keystroke_c	c	n/a
486.574	0.121	973148	keystroke_i	i	n/a
486.664	0.121	973328	keystroke_n	n	n/a
486.8	0.105	973600	keystroke_g	g	n/a
486.965	0.09	973930	keystroke_Key.space	Key.space	n/a
487.415	0.089	974830	keystroke_e	e	n/a
487.549	0.075	975098	keystroke_m	m	n/a
487.67	0.15	975340	keystroke_e	e	n/a
487.76	0.09	975520	keystroke_r	r	n/a
488	0.089	976000	keystroke_g	g	n/a
488.149	0.12	976298	keystroke_e	e	n/a
488.285	0.12	976570	keystroke_n	n	n/a
488.854	0.0755	977708	keystroke_c	c	n/a
489.0045	0.135	978009	keystroke_y	y	n/a
489.1095	0.12	978219	keystroke_Key.space	Key.space	n/a
489.8445	0.105	979689	keystroke_b	b	n/a
489.9645	0.075	979929	keystroke_a	a	n/a
490.0845	0.105	980169	keystroke_b	b	n/a
490.595	0.09	981190	keystroke_t	t	n/a
491.179	0.075	982358	keystroke_Key.backspace	Key.backspace	n/a
491.449	0.091	982898	keystroke_y	y	n/a
491.524	0.09	983048	keystroke_Key.space	Key.space	n/a
491.7795	0.09	983559	keystroke_b	b	n/a
492.1095	0.075	984219	keystroke_e	e	n/a
492.229	0.105	984458	keystroke_l	l	n/a
492.605	0.09	985210	keystroke_g	g	n/a
492.815	0.0145	985630	keystroke_i	i	n/a
493.505	0.075	987010	keystroke_u	u	n/a
493.745	0.105	987490	keystroke_m	m	n/a
494.6145	0.075	989229	keystroke_Key.enter	Key.enter	n/a
494.703	12.8545	989406	prompt	n/a	wesley literary handed quebec\n
497.0765	0.028	994153	keystroke_w	w	n/a
497.5095	0.105	995019	keystroke_e	e	n/a
497.9745	0.06	995949	keystroke_s	s	n/a
498.0645	0.09	996129	keystroke_l	l	n/a
498.2295	0.105	996459	keystroke_e	e	n/a
498.4095	0.1045	996819	keystroke_y	y	n/a
498.634	0.105	997268	keystroke_Key.space	Key.space	n/a
498.9945	0.1645	997989	keystroke_l	l	n/a
499.099	0.09	998198	keystroke_i	i	n/a
499.264	0.135	998528	keystroke_t	t	n/a
499.429	0.12	998858	keystroke_e	e	n/a
499.534	0.09	999068	keystroke_r	r	n/a
500.4645	0.0455	1000929	keystroke_a	a	n/a
500.63	0.075	1001260	keystroke_r	r	n/a
500.765	0.105	1001530	keystroke_y	y	n/a
500.975	0.075	1001950	keystroke_Key.space	Key.space	n/a
501.5	0.105	1003000	keystroke_h	h	n/a
501.635	0.105	1003270	keystroke_a	a	n/a
501.755	0.09	1003510	keystroke_n	n	n/a
501.83	0.12	1003660	keystroke_d	d	n/a
501.995	0.135	1003990	keystroke_e	e	n/a
502.1	0.105	1004200	keystroke_d	d	n/a
502.265	0.12	1004530	keystroke_Key.space	Key.space	n/a
502.955	0.09	1005910	keystroke_q	q	n/a
503.135	0.075	1006270	keystroke_u	u	n/a
503.39	0.075	1006780	keystroke_e	e	n/a
503.6895	0.09	1007379	keystroke_b	b	n/a
504.005	0.09	1008010	keystroke_e	e	n/a
505.2495	0.045	1010499	keystroke_c	c	n/a
507.547	0.001	1015094	keystroke_Key.enter	Key.enter	n/a
507.5635	12.035	1015127	prompt	n/a	scheme quarterly positions pharmaceuticals\n
508.4895	0.06	1016979	keystroke_s	s	n/a
508.6545	0.09	1017309	keystroke_c	c	n/a
508.7745	0.075	1017549	keystroke_h	h	n/a
508.9245	0.09	1017849	keystroke_e	e	n/a
509.1045	0.105	1018209	keystroke_m	m	n/a
509.2395	0.105	1018479	keystroke_e	e	n/a
509.449	0.105	1018898	keystroke_Key.space	Key.space	n/a
510.125	0.074	1020250	keystroke_q	q	n/a
510.319	0.075	1020638	keystroke_u	u	n/a
510.439	0.09	1020878	keystroke_a	a	n/a
510.649	0.0755	1021298	keystroke_r	r	n/a
511.009	0.075	1022018	keystroke_t	t	n/a
511.265	0.12	1022530	keystroke_e	e	n/a
511.355	0.09	1022710	keystroke_r	r	n/a
511.5045	0.09	1023009	keystroke_l	l	n/a
511.7595	0.09	1023519	keystroke_y	y	n/a
511.9695	0.12	1023939	keystroke_Key.space	Key.space	n/a
512.5095	0.09	1025019	keystroke_p	p	n/a
512.7195	0.105	1025439	keystroke_o	o	n/a
512.9145	0.075	1025829	keystroke_s	s	n/a
513.0345	0.09	1026069	keystroke_i	i	n/a
513.2295	0.075	1026459	keystroke_t	t	n/a
513.3495	0.2095	1026699	keystroke_i	i	n/a
513.4545	0.1355	1026909	keystroke_o	o	n/a
513.529	0.135	1027058	keystroke_n	n	n/a
513.709	0.105	1027418	keystroke_s	s	n/a
513.934	0.106	1027868	keystroke_Key.space	Key.space	n/a
514.28	0.06	1028560	keystroke_p	p	n/a
514.5645	0.12	1029129	keystroke_h	h	n/a
514.7145	0.1505	1029429	keystroke_a	a	n/a
514.85	0.105	1029700	keystroke_r	r	n/a
515	0.105	1030000	keystroke_m	m	n/a
515.18	0.105	1030360	keystroke_a	a	n/a
516.11	0.105	1032220	keystroke_c	c	n/a
516.62	0.09	1033240	keystroke_e	e	n/a
516.844	0.091	1033688	keystroke_u	u	n/a
517.4	0.09	1034800	keystroke_t	t	n/a
517.5345	0.06	1035069	keystroke_i	i	n/a
517.865	0.105	1035730	keystroke_c	c	n/a
517.925	0.135	1035850	keystroke_a	a	n/a
518.0745	0.0755	1036149	keystroke_l	l	n/a
518.195	0.09	1036390	keystroke_s	s	n/a
519.545	0.044	1039090	keystroke_Key.enter	Key.enter	n/a
519.603	7.503	1039206	prompt	n/a	bloggers stops capabilities pattern\n
520.3545	0.09	1040709	keystroke_b	b	n/a
520.534	0.075	1041068	keystroke_l	l	n/a
520.714	0.075	1041428	keystroke_o	o	n/a
520.9845	0.09	1041969	keystroke_g	g	n/a
521.1645	0.105	1042329	keystroke_g	g	n/a
521.3295	0.135	1042659	keystroke_e	e	n/a
521.4045	0.105	1042809	keystroke_r	r	n/a
521.6445	0.12	1043289	keystroke_s	s	n/a
521.81	0.105	1043620	keystroke_Key.space	Key.space	n/a
521.945	0.105	1043890	keystroke_s	s	n/a
522.185	0.09	1044370	keystroke_t	t	n/a
522.32	0.1795	1044640	keystroke_o	o	n/a
522.425	0.1195	1044850	keystroke_p	p	n/a
522.5595	0.09	1045119	keystroke_s	s	n/a
522.7245	0.075	1045449	keystroke_Key.space	Key.space	n/a
522.8745	0.135	1045749	keystroke_c	c	n/a
523.0105	0.119	1046021	keystroke_a	a	n/a
523.1445	0.09	1046289	keystroke_p	p	n/a
523.2645	0.105	1046529	keystroke_a	a	n/a
523.6395	0.045	1047279	keystroke_b	b	n/a
523.909	0.121	1047818	keystroke_i	i	n/a
524.044	0.15	1048088	keystroke_l	l	n/a
524.15	0.074	1048300	keystroke_i	i	n/a
524.3	0.089	1048600	keystroke_t	t	n/a
524.4195	0.09	1048839	keystroke_i	i	n/a
524.5845	0.09	1049169	keystroke_e	e	n/a
524.7795	0.105	1049559	keystroke_s	s	n/a
524.974	0.09	1049948	keystroke_Key.space	Key.space	n/a
525.244	0.09	1050488	keystroke_p	p	n/a
525.379	0.15	1050758	keystroke_a	a	n/a
525.514	0.105	1051028	keystroke_r	r	n/a
525.949	0.09	1051898	keystroke_Key.backspace	Key.backspace	n/a
526.099	0.09	1052198	keystroke_t	t	n/a
526.249	0.106	1052498	keystroke_t	t	n/a
526.37	0.105	1052740	keystroke_e	e	n/a
526.445	0.12	1052890	keystroke_r	r	n/a
526.61	0.105	1053220	keystroke_n	n	n/a
527.045	0.06	1054090	keystroke_Key.enter	Key.enter	n/a
527.109	8.9615	1054218	prompt	n/a	points shade nelson medical\n
527.8395	0.12	1055679	keystroke_p	p	n/a
527.9145	0.12	1055829	keystroke_o	o	n/a
528.1695	0.105	1056339	keystroke_i	i	n/a
528.2295	0.12	1056459	keystroke_n	n	n/a
528.3795	0.105	1056759	keystroke_t	t	n/a
528.6345	0.075	1057269	keystroke_s	s	n/a
528.7395	0.09	1057479	keystroke_Key.space	Key.space	n/a
528.8895	0.09	1057779	keystroke_s	s	n/a
528.995	0.105	1057990	keystroke_h	h	n/a
529.1145	0.105	1058229	keystroke_a	a	n/a
529.5645	0.15	1059129	keystroke_f	f	n/a
529.6845	0.12	1059369	keystroke_e	e	n/a
529.8645	0.09	1059729	keystroke_Key.space	Key.space	n/a
530.1945	0.045	1060389	keystroke_Key.backspace	Key.backspace	n/a
530.3295	0.0605	1060659	keystroke_Key.backspace	Key.backspace	n/a
530.465	0.075	1060930	keystroke_Key.backspace	Key.backspace	n/a
531.1395	0.09	1062279	keystroke_d	d	n/a
531.3345	0.09	1062669	keystroke_e	e	n/a
531.4845	0.09	1062969	keystroke_Key.space	Key.space	n/a
532.0845	0.06	1064169	keystroke_b	b	n/a
532.2195	0.06	1064439	keystroke_e	e	n/a
532.7445	0.06	1065489	keystroke_Key.backspace	Key.backspace	n/a
532.8645	0.075	1065729	keystroke_Key.backspace	Key.backspace	n/a
533.0745	0.09	1066149	keystroke_n	n	n/a
533.1945	0.075	1066389	keystroke_e	e	n/a
533.4795	0.09	1066959	keystroke_l	l	n/a
533.9295	0.09	1067859	keystroke_s	s	n/a
534.0945	0.12	1068189	keystroke_o	o	n/a
534.1695	0.105	1068339	keystroke_n	n	n/a
534.3495	0.075	1068699	keystroke_Key.space	Key.space	n/a
534.5295	0.075	1069059	keystroke_m	m	n/a
534.6195	0.135	1069239	keystroke_e	e	n/a
534.7395	0.105	1069479	keystroke_d	d	n/a
534.8895	0.075	1069779	keystroke_i	i	n/a
535.0845	0.12	1070169	keystroke_c	c	n/a
535.1745	0.105	1070349	keystroke_a	a	n/a
535.2645	0.09	1070529	keystroke_l	l	n/a
536.0145	0.045	1072029	keystroke_Key.enter	Key.enter	n/a
536.0765	12.038	1072153	prompt	n/a	yorkshire unity cursor align\n
537.1845	0.09	1074369	keystroke_y	y	n/a
537.3195	0.105	1074639	keystroke_o	o	n/a
537.3795	0.09	1074759	keystroke_u	u	n/a
537.8745	0.075	1075749	keystroke_Key.backspace	Key.backspace	n/a
538.0095	0.105	1076019	keystroke_r	r	n/a
538.1745	0.09	1076349	keystroke_k	k	n/a
538.5345	0.105	1077069	keystroke_s	s	n/a
538.6695	0.165	1077339	keystroke_h	h	n/a
538.7745	0.12	1077549	keystroke_i	i	n/a
539.0445	0.15	1078089	keystroke_r	r	n/a
539.1645	0.105	1078329	keystroke_e	e	n/a
541.13	0.119	1082260	keystroke_Key.space	Key.space	n/a
541.685	0.1195	1083370	keystroke_u	u	n/a
541.7745	0.09	1083549	keystroke_n	n	n/a
541.9245	0.105	1083849	keystroke_i	i	n/a
542.0445	0.105	1084089	keystroke_t	t	n/a
542.2845	0.12	1084569	keystroke_y	y	n/a
542.3895	0.1205	1084779	keystroke_Key.space	Key.space	n/a
542.72	0.12	1085440	keystroke_c	c	n/a
542.8695	0.1055	1085739	keystroke_u	u	n/a
543.065	0.09	1086130	keystroke_r	r	n/a
543.455	0.1045	1086910	keystroke_s	s	n/a
543.5895	0.075	1087179	keystroke_o	o	n/a
543.8295	0.105	1087659	keystroke_r	r	n/a
544.3995	0.105	1088799	keystroke_Key.space	Key.space	n/a
544.7145	0.09	1089429	keystroke_a	a	n/a
544.8195	0.15	1089639	keystroke_l	l	n/a
544.9845	0.09	1089969	keystroke_i	i	n/a
545.1345	0.105	1090269	keystroke_g	g	n/a
545.2545	0.09	1090509	keystroke_h	h	n/a
545.809	0.046	1091618	keystroke_Key.backspace	Key.backspace	n/a
546.035	0.074	1092070	keystroke_n	n	n/a
548.029	0.0755	1096058	keystroke_Key.enter	Key.enter	n/a
548.12	10.781	1096240	prompt	n/a	eventually routing authentic disease\n
549.4095	0.0755	1098819	keystroke_e	e	n/a
549.635	0.105	1099270	keystroke_v	v	n/a
549.71	0.12	1099420	keystroke_e	e	n/a
549.845	0.12	1099690	keystroke_n	n	n/a
550.0695	0.06	1100139	keystroke_t	t	n/a
550.3395	0.09	1100679	keystroke_u	u	n/a
550.4745	0.0905	1100949	keystroke_a	a	n/a
550.6095	0.0605	1101219	keystroke_l	l	n/a
550.76	0.06	1101520	keystroke_l	l	n/a
550.9845	0.12	1101969	keystroke_y	y	n/a
551.0595	0.15	1102119	keystroke_Key.space	Key.space	n/a
552.2295	0.105	1104459	keystroke_r	r	n/a
552.3645	0.135	1104729	keystroke_o	o	n/a
552.4395	0.09	1104879	keystroke_u	u	n/a
552.724	0.076	1105448	keystroke_t	t	n/a
553.144	0.1055	1106288	keystroke_i	i	n/a
553.2045	0.1055	1106409	keystroke_n	n	n/a
553.325	0.075	1106650	keystroke_g	g	n/a
553.475	0.0595	1106950	keystroke_Key.space	Key.space	n/a
554.2095	0.135	1108419	keystroke_a	a	n/a
554.5245	0.105	1109049	keystroke_i	i	n/a
555.0795	0.075	1110159	keystroke_Key.backspace	Key.backspace	n/a
555.3645	0.075	1110729	keystroke_u	u	n/a
555.5445	0.09	1111089	keystroke_t	t	n/a
555.6495	0.09	1111299	keystroke_h	h	n/a
555.7845	0.075	1111569	keystroke_e	e	n/a
555.9645	0.105	1111929	keystroke_n	n	n/a
556.5045	0.09	1113009	keystroke_t	t	n/a
556.6545	0.09	1113309	keystroke_i	i	n/a
556.8195	0.09	1113639	keystroke_c	c	n/a
557.0145	0.045	1114029	keystroke_Key.space	Key.space	n/a
557.51	0.09	1115020	keystroke_d	d	n/a
557.645	0.075	1115290	keystroke_i	i	n/a
557.855	0.075	1115710	keystroke_s	s	n/a
558.05	0.135	1116100	keystroke_e	e	n/a
558.155	0.21	1116310	keystroke_a	a	n/a
558.29	0.09	1116580	keystroke_s	s	n/a
558.485	0.075	1116970	keystroke_e	e	n/a
558.815	0.075	1117630	keystroke_Key.enter	Key.enter	n/a
558.906	9.713	1117812	prompt	n/a	photoshop fraser tsunami invalid\n
559.565	0.09	1119130	keystroke_p	p	n/a
559.805	0.105	1119610	keystroke_h	h	n/a
559.865	0.105	1119730	keystroke_o	o	n/a
560	0.105	1120000	keystroke_t	t	n/a
560.12	0.105	1120240	keystroke_o	o	n/a
560.4495	0.09	1120899	keystroke_s	s	n/a
560.5695	0.105	1121139	keystroke_h	h	n/a
560.6295	0.105	1121259	keystroke_o	o	n/a
560.8395	0.075	1121679	keystroke_p	p	n/a
561.0945	0.105	1122189	keystroke_Key.space	Key.space	n/a
561.9345	0.075	1123869	keystroke_f	f	n/a
562.1295	0.105	1124259	keystroke_r	r	n/a
562.3995	0.15	1124799	keystroke_a	a	n/a
562.6245	0.12	1125249	keystroke_s	s	n/a
562.9695	0.075	1125939	keystroke_e	e	n/a
562.9995	0.105	1125999	keystroke_r	r	n/a
563.5245	0.09	1127049	keystroke_Key.space	Key.space	n/a
564.785	0.045	1129570	keystroke_t	t	n/a
565.205	0.06	1130410	keystroke_s	s	n/a
565.355	0.075	1130710	keystroke_u	u	n/a
565.565	0.09	1131130	keystroke_n	n	n/a
565.67	0.09	1131340	keystroke_a	a	n/a
565.88	0.089	1131760	keystroke_m	m	n/a
566.134	0.061	1132268	keystroke_i	i	n/a
566.75	0.09	1133500	keystroke_Key.space	Key.space	n/a
567.14	0.1195	1134280	keystroke_i	i	n/a
567.2145	0.12	1134429	keystroke_n	n	n/a
567.4245	0.015	1134849	keystroke_v	v	n/a
567.5895	0.105	1135179	keystroke_a	a	n/a
567.7245	0.165	1135449	keystroke_l	l	n/a
567.8745	0.09	1135749	keystroke_i	i	n/a
568.025	0.12	1136050	keystroke_d	d	n/a
568.534	0.075	1137068	keystroke_Key.enter	Key.enter	n/a
568.6235	7.0755	1137247	prompt	n/a	fourth carrying petite gene\n
569.704	0.121	1139408	keystroke_f	f	n/a
569.84	0.045	1139680	keystroke_o	o	n/a
569.975	0.09	1139950	keystroke_r	r	n/a
570.23	0.09	1140460	keystroke_t	t	n/a
570.38	0.15	1140760	keystroke_h	h	n/a
570.545	0.09	1141090	keystroke_Key.space	Key.space	n/a
570.7845	0.105	1141569	keystroke_c	c	n/a
570.9345	0.09	1141869	keystroke_a	a	n/a
571.1295	0.075	1142259	keystroke_r	r	n/a
571.2795	0.09	1142559	keystroke_r	r	n/a
571.385	0.0895	1142770	keystroke_y	y	n/a
571.6245	0.06	1143249	keystroke_i	i	n/a
571.6545	0.105	1143309	keystroke_n	n	n/a
571.7895	0.12	1143579	keystroke_g	g	n/a
572.2395	0.105	1144479	keystroke_Key.space	Key.space	n/a
572.494	0.091	1144988	keystroke_p	p	n/a
572.614	0.0905	1145228	keystroke_e	e	n/a
572.9	0.075	1145800	keystroke_t	t	n/a
573.0345	0.075	1146069	keystroke_i	i	n/a
573.1395	0.09	1146279	keystroke_t	t	n/a
573.4395	0.075	1146879	keystroke_e	e	n/a
573.6945	0.105	1147389	keystroke_Key.space	Key.space	n/a
574.55	0.135	1149100	keystroke_g	g	n/a
574.655	0.12	1149310	keystroke_e	e	n/a
574.82	0.09	1149640	keystroke_n	n	n/a
574.895	0.105	1149790	keystroke_e	e	n/a
575.6145	0.075	1151229	keystroke_Key.enter	Key.enter	n/a
575.703	8.997	1151406	prompt	n/a	gets punishment twin unexpected\n
576.77	0.09	1153540	keystroke_g	g	n/a
576.935	0.12	1153870	keystroke_e	e	n/a
577.025	0.09	1154050	keystroke_t	t	n/a
577.28	0.09	1154560	keystroke_s	s	n/a
577.429	0.0905	1154858	keystroke_Key.space	Key.space	n/a
577.5945	0.0905	1155189	keystroke_p	p	n/a
577.834	0.076	1155668	keystroke_u	u	n/a
578.015	0.104	1156030	keystroke_n	n	n/a
578.239	0.075	1156478	keystroke_i	i	n/a
578.39	0.089	1156780	keystroke_s	s	n/a
578.509	0.106	1157018	keystroke_h	h	n/a
578.81	0.104	1157620	keystroke_m	m	n/a
578.929	0.075	1157858	keystroke_e	e	n/a
579.05	0.089	1158100	keystroke_n	n	n/a
579.169	0.106	1158338	keystroke_t	t	n/a
579.379	0.0905	1158758	keystroke_Key.space	Key.space	n/a
580.219	0.06	1160438	keystroke_t	t	n/a
580.4445	0.09	1160889	keystroke_w	w	n/a
580.5645	0.12	1161129	keystroke_i	i	n/a
580.6395	0.1505	1161279	keystroke_n	n	n/a
580.774	0.075	1161548	keystroke_Key.space	Key.space	n/a
580.984	0.061	1161968	keystroke_e	e	n/a
581.15	0.06	1162300	keystroke_u	u	n/a
581.434	0.045	1162868	keystroke_Key.backspace	Key.backspace	n/a
581.554	0.061	1163108	keystroke_Key.backspace	Key.backspace	n/a
581.7645	0.09	1163529	keystroke_u	u	n/a
581.8245	0.105	1163649	keystroke_n	n	n/a
582.245	0.075	1164490	keystroke_e	e	n/a
582.5895	0.075	1165179	keystroke_x	x	n/a
582.7695	0.075	1165539	keystroke_p	p	n/a
582.9195	0.06	1165839	keystroke_e	e	n/a
583.1145	0.075	1166229	keystroke_c	c	n/a
583.3395	0.09	1166679	keystroke_t	t	n/a
583.565	0.135	1167130	keystroke_e	e	n/a
583.625	0.1195	1167250	keystroke_d	d	n/a
584.5845	0.105	1169169	keystroke_Key.enter	Key.enter	n/a
584.7045	7.9815	1169409	prompt	n/a	finest massive keno spending\n
585.575	0.075	1171150	keystroke_f	f	n/a
585.725	0.135	1171450	keystroke_i	i	n/a
585.83	0.12	1171660	keystroke_n	n	n/a
585.995	0.075	1171990	keystroke_e	e	n/a
586.19	0.074	1172380	keystroke_s	s	n/a
586.415	0.1045	1172830	keystroke_t	t	n/a
586.5645	0.09	1173129	keystroke_Key.space	Key.space	n/a
586.7745	0.105	1173549	keystroke_m	m	n/a
586.8645	0.135	1173729	keystroke_a	a	n/a
586.9705	0.059	1173941	keystroke_s	s	n/a
587.1195	0.105	1174239	keystroke_s	s	n/a
587.2395	0.06	1174479	keystroke_i	i	n/a
587.3895	0.12	1174779	keystroke_v	v	n/a
587.4645	0.105	1174929	keystroke_e	e	n/a
587.615	0.105	1175230	keystroke_Key.space	Key.space	n/a
588.02	0.09	1176040	keystroke_j	j	n/a
588.125	0.105	1176250	keystroke_e	e	n/a
588.335	0.075	1176670	keystroke_n	n	n/a
588.649	0.075	1177298	keystroke_Key.backspace	Key.backspace	n/a
588.785	0.075	1177570	keystroke_Key.backspace	Key.backspace	n/a
588.98	0.0745	1177960	keystroke_Key.backspace	Key.backspace	n/a
589.5495	0.06	1179099	keystroke_k	k	n/a
589.6845	0.075	1179369	keystroke_e	e	n/a
589.8195	0.105	1179639	keystroke_n	n	n/a
589.9845	0.06	1179969	keystroke_o	o	n/a
590.735	0.074	1181470	keystroke_Key.space	Key.space	n/a
591.065	0.075	1182130	keystroke_s	s	n/a
591.23	0.075	1182460	keystroke_p	p	n/a
591.35	0.06	1182700	keystroke_e	e	n/a
591.53	0.045	1183060	keystroke_n	n	n/a
591.71	0.09	1183420	keystroke_d	d	n/a
591.86	0.12	1183720	keystroke_i	i	n/a
591.965	0.06	1183930	keystroke_n	n	n/a
592.04	0.075	1184080	keystroke_g	g	n/a
592.625	0.06	1185250	keystroke_Key.enter	Key.enter	n/a
592.689	11.0005	1185378	prompt	n/a	martin enclosed booth ozone\n
595.7775	0.0265	1191555	keystroke_m	m	n/a
595.91	0.09	1191820	keystroke_a	a	n/a
596.045	0.075	1192090	keystroke_r	r	n/a
596.255	0.075	1192510	keystroke_t	t	n/a
596.345	0.12	1192690	keystroke_i	i	n/a
596.405	0.105	1192810	keystroke_n	n	n/a
596.63	0.06	1193260	keystroke_Key.space	Key.space	n/a
596.9905	0.09	1193981	keystroke_e	e	n/a
597.125	0.135	1194250	keystroke_n	n	n/a
597.7105	0.0895	1195421	keystroke_c	c	n/a
597.785	0.075	1195570	keystroke_l	l	n/a
597.965	0.0895	1195930	keystroke_o	o	n/a
598.1145	0.061	1196229	keystroke_s	s	n/a
598.3995	0.09	1196799	keystroke_e	e	n/a
598.865	0.12	1197730	keystroke_d	d	n/a
599.03	0.105	1198060	keystroke_Key.space	Key.space	n/a
600.23	0.09	1200460	keystroke_b	b	n/a
600.6795	0.06	1201359	keystroke_o	o	n/a
600.8295	0.09	1201659	keystroke_o	o	n/a
600.9655	0.089	1201931	keystroke_t	t	n/a
601.1	0.1205	1202200	keystroke_h	h	n/a
601.205	0.075	1202410	keystroke_Key.space	Key.space	n/a
601.445	0.06	1202890	keystroke_s	s	n/a
601.82	0.075	1203640	keystroke_Key.backspace	Key.backspace	n/a
602.03	0.075	1204060	keystroke_o	o	n/a
602.525	0.06	1205050	keystroke_z	z	n/a
602.6	0.09	1205200	keystroke_o	o	n/a
602.66	0.105	1205320	keystroke_n	n	n/a
602.825	0.075	1205650	keystroke_e	e	n/a
603.605	0.075	1207210	keystroke_Key.enter	Key.enter	n/a
603.6965	12.729	1207393	prompt	n/a	midwest fabrics connectors silk\n
605.0745	0.075	1210149	keystroke_m	m	n/a
605.2695	0.0755	1210539	keystroke_i	i	n/a
605.5095	0.06	1211019	keystroke_d	d	n/a
605.795	0.0595	1211590	keystroke_w	w	n/a
606.0645	0.09	1212129	keystroke_e	e	n/a
606.2595	0.075	1212519	keystroke_s	s	n/a
606.4845	0.09	1212969	keystroke_t	t	n/a
606.6795	0.12	1213359	keystroke_Key.space	Key.space	n/a
608.48	0.0905	1216960	keystroke_f	f	n/a
608.5995	0.12	1217199	keystroke_a	a	n/a
608.8255	0.089	1217651	keystroke_b	b	n/a
609.2445	0.075	1218489	keystroke_r	r	n/a
609.3645	0.105	1218729	keystroke_i	i	n/a
609.5745	0.166	1219149	keystroke_c	c	n/a
609.7105	0.09	1219421	keystroke_s	s	n/a
610.3255	0.06	1220651	keystroke_Key.space	Key.space	n/a
611.105	0.105	1222210	keystroke_c	c	n/a
611.225	0.135	1222450	keystroke_o	o	n/a
611.33	0.09	1222660	keystroke_n	n	n/a
611.54	0.09	1223080	keystroke_n	n	n/a
611.8095	0.09	1223619	keystroke_e	e	n/a
611.9295	0.105	1223859	keystroke_c	c	n/a
612.1845	0.075	1224369	keystroke_t	t	n/a
612.3495	0.09	1224699	keystroke_o	o	n/a
612.4245	0.0905	1224849	keystroke_r	r	n/a
612.665	0.105	1225330	keystroke_s	s	n/a
613.025	0.06	1226050	keystroke_Key.space	Key.space	n/a
613.355	0.075	1226710	keystroke_s	s	n/a
613.475	0.075	1226950	keystroke_i	i	n/a
613.61	0.105	1227220	keystroke_l	l	n/a
614.495	0.0755	1228990	keystroke_k	k	n/a
616.34	0.075	1232680	keystroke_Key.enter	Key.enter	n/a
616.432	9.8485	1232864	prompt	n/a	gimme students domestic area\n
617.975	0.0595	1235950	keystroke_g	g	n/a
618.1845	0.09	1236369	keystroke_i	i	n/a
618.3345	0.09	1236669	keystroke_m	m	n/a
618.5	0.09	1237000	keystroke_m	m	n/a
618.62	0.09	1237240	keystroke_e	e	n/a
618.8	0.09	1237600	keystroke_Key.space	Key.space	n/a
619.16	0.09	1238320	keystroke_s	s	n/a
619.43	0.09	1238860	keystroke_t	t	n/a
619.7	0.075	1239400	keystroke_u	u	n/a
620.045	0.135	1240090	keystroke_d	d	n/a
620.1355	0.104	1240271	keystroke_e	e	n/a
620.2545	0.105	1240509	keystroke_n	n	n/a
620.3745	0.09	1240749	keystroke_t	t	n/a
621.44	0.105	1242880	keystroke_s	s	n/a
621.995	0.105	1243990	keystroke_Key.space	Key.space	n/a
622.265	0.09	1244530	keystroke_d	d	n/a
622.34	0.135	1244680	keystroke_o	o	n/a
622.43	0.105	1244860	keystroke_m	m	n/a
622.625	0.075	1245250	keystroke_e	e	n/a
622.805	0.09	1245610	keystroke_s	s	n/a
623.015	0.06	1246030	keystroke_t	t	n/a
623.15	0.075	1246300	keystroke_i	i	n/a
623.3	0.12	1246600	keystroke_c	c	n/a
623.45	0.09	1246900	keystroke_Key.space	Key.space	n/a
623.585	0.135	1247170	keystroke_a	a	n/a
623.78	0.105	1247560	keystroke_f	f	n/a
623.81	0.09	1247620	keystroke_r	r	n/a
623.885	0.09	1247770	keystroke_e	e	n/a
624.35	0.0605	1248700	keystroke_Key.backspace	Key.backspace	n/a
624.515	0.045	1249030	keystroke_Key.backspace	Key.backspace	n/a
624.65	0.075	1249300	keystroke_Key.backspace	Key.backspace	n/a
624.86	0.12	1249720	keystroke_e	e	n/a
625.295	0.09	1250590	keystroke_Key.backspace	Key.backspace	n/a
625.37	0.12	1250740	keystroke_r	r	n/a
625.415	0.135	1250830	keystroke_e	e	n/a
625.52	0.15	1251040	keystroke_a	a	n/a
626.21	0.06	1252420	keystroke_Key.enter	Key.enter	n/a
626.286	10.239	1252572	prompt	n/a	gaming accommodate paste travel\n
627.5295	0.06	1255059	keystroke_g	g	n/a
627.7245	0.075	1255449	keystroke_a	a	n/a
628.2945	0.015	1256589	keystroke_n	n	n/a
628.8345	0.09	1257669	keystroke_Key.backspace	Key.backspace	n/a
629.1505	0.074	1258301	keystroke_m	m	n/a
629.3745	0.09	1258749	keystroke_i	i	n/a
629.4195	0.15	1258839	keystroke_n	n	n/a
629.6295	0.076	1259259	keystroke_g	g	n/a
629.7795	0.09	1259559	keystroke_Key.space	Key.space	n/a
630.3495	0.21	1260699	keystroke_c	c	n/a
630.6345	0.06	1261269	keystroke_Key.backspace	Key.backspace	n/a
630.725	0.105	1261450	keystroke_a	a	n/a
631.04	0.06	1262080	keystroke_c	c	n/a
631.22	0.06	1262440	keystroke_c	c	n/a
631.4905	0.1495	1262981	keystroke_o	o	n/a
631.685	0.075	1263370	keystroke_m	m	n/a
632.54	0.135	1265080	keystroke_m	m	n/a
632.735	0.12	1265470	keystroke_o	o	n/a
633.02	0.165	1266040	keystroke_d	d	n/a
633.125	0.135	1266250	keystroke_a	a	n/a
633.35	0.105	1266700	keystroke_t	t	n/a
633.485	0.105	1266970	keystroke_e	e	n/a
633.71	0.09	1267420	keystroke_Key.space	Key.space	n/a
633.9505	0.09	1267901	keystroke_p	p	n/a
634.0555	0.105	1268111	keystroke_a	a	n/a
634.1005	0.09	1268201	keystroke_s	s	n/a
634.3405	0.105	1268681	keystroke_t	t	n/a
634.4305	0.12	1268861	keystroke_e	e	n/a
634.7155	0.09	1269431	keystroke_Key.space	Key.space	n/a
635.0605	0.09	1270121	keystroke_t	t	n/a
635.2405	0.105	1270481	keystroke_r	r	n/a
635.3605	0.15	1270721	keystroke_a	a	n/a
635.5255	0.119	1271051	keystroke_v	v	n/a
635.5995	0.105	1271199	keystroke_e	e	n/a
635.9895	0.12	1271979	keystroke_l	l	n/a
636.4245	0.0905	1272849	keystroke_Key.enter	Key.enter	n/a
636.5295	11.545	1273059	prompt	n/a	toolbar executed forced modern\n
637.1445	0.0755	1274289	keystroke_t	t	n/a
637.2495	0.045	1274499	keystroke_o	o	n/a
637.3995	0.105	1274799	keystroke_o	o	n/a
637.58	0.09	1275160	keystroke_l	l	n/a
637.8195	0.09	1275639	keystroke_b	b	n/a
637.9545	0.15	1275909	keystroke_a	a	n/a
638.0745	0.105	1276149	keystroke_r	r	n/a
638.4645	0.09	1276929	keystroke_Key.space	Key.space	n/a
638.7045	0.076	1277409	keystroke_e	e	n/a
638.9295	0.105	1277859	keystroke_x	x	n/a
639.9795	0.045	1279959	keystroke_e	e	n/a
640.2345	0.135	1280469	keystroke_c	c	n/a
640.5805	0.09	1281161	keystroke_y	y	n/a
640.9105	0.09	1281821	keystroke_t	t	n/a
641.2105	0.06	1282421	keystroke_Key.backspace	Key.backspace	n/a
641.3305	0.075	1282661	keystroke_Key.backspace	Key.backspace	n/a
641.8705	0.075	1283741	keystroke_u	u	n/a
642.1855	0.105	1284371	keystroke_t	t	n/a
642.3355	0.1645	1284671	keystroke_e	e	n/a
642.4555	0.0895	1284911	keystroke_d	d	n/a
642.59	0.135	1285180	keystroke_Key.space	Key.space	n/a
642.8	0.09	1285600	keystroke_f	f	n/a
642.905	0.09	1285810	keystroke_o	o	n/a
643.01	0.09	1286020	keystroke_r	r	n/a
643.2955	0.15	1286591	keystroke_c	c	n/a
643.4755	0.105	1286951	keystroke_e	e	n/a
643.5655	0.105	1287131	keystroke_d	d	n/a
643.7745	0.0755	1287549	keystroke_Key.space	Key.space	n/a
643.9545	0.1055	1287909	keystroke_m	m	n/a
644.0145	0.1205	1288029	keystroke_o	o	n/a
644.15	0.09	1288300	keystroke_r	r	n/a
644.465	0.135	1288930	keystroke_d	d	n/a
644.615	0.15	1289230	keystroke_e	e	n/a
644.72	0.075	1289440	keystroke_r	r	n/a
645.4245	0.06	1290849	keystroke_Key.backspace	Key.backspace	n/a
645.5295	0.06	1291059	keystroke_Key.backspace	Key.backspace	n/a
645.6795	0.06	1291359	keystroke_Key.backspace	Key.backspace	n/a
645.86	0.06	1291720	keystroke_Key.backspace	Key.backspace	n/a
646.4	0.1055	1292800	keystroke_d	d	n/a
646.685	0.15	1293370	keystroke_e	e	n/a
646.7605	0.105	1293521	keystroke_r	r	n/a
646.91	0.105	1293820	keystroke_n	n	n/a
648.005	0.0605	1296010	keystroke_Key.enter	Key.enter	n/a
648.079	10.796	1296158	prompt	n/a	condition screens infrastructure building\n
648.8	0.105	1297600	keystroke_c	c	n/a
648.89	0.1495	1297780	keystroke_o	o	n/a
648.9955	0.09	1297991	keystroke_n	n	n/a
649.1605	0.075	1298321	keystroke_d	d	n/a
649.2505	0.075	1298501	keystroke_i	i	n/a
649.5955	0.104	1299191	keystroke_t	t	n/a
649.7155	0.21	1299431	keystroke_i	i	n/a
649.8055	0.12	1299611	keystroke_o	o	n/a
649.8655	0.12	1299731	keystroke_n	n	n/a
650.0005	0.09	1300001	keystroke_s	s	n/a
650.84	0.075	1301680	keystroke_Key.backspace	Key.backspace	n/a
651.02	0.1045	1302040	keystroke_Key.space	Key.space	n/a
651.1995	0.09	1302399	keystroke_s	s	n/a
651.3645	0.105	1302729	keystroke_c	c	n/a
651.6195	0.12	1303239	keystroke_r	r	n/a
651.6945	0.09	1303389	keystroke_e	e	n/a
651.8745	0.09	1303749	keystroke_e	e	n/a
652.0095	0.12	1304019	keystroke_n	n	n/a
652.1745	0.12	1304349	keystroke_s	s	n/a
652.6245	0.09	1305249	keystroke_Key.space	Key.space	n/a
652.9845	0.136	1305969	keystroke_i	i	n/a
653.0595	0.136	1306119	keystroke_n	n	n/a
653.3745	0.076	1306749	keystroke_f	f	n/a
653.7495	0.12	1307499	keystroke_r	r	n/a
653.9155	0.104	1307831	keystroke_a	a	n/a
654.2445	0.091	1308489	keystroke_s	s	n/a
654.4545	0.075	1308909	keystroke_t	t	n/a
654.6195	0.09	1309239	keystroke_r	r	n/a
