onset	duration	sample	value	key	prompt_text
41.5685	9.6095	83137	prompt	n/a	the quick brown fox jumps over a lazy dog\n
43.0315	0.12	86063	keystroke_t	t	n/a
43.1915	0.144	86383	keystroke_h	h	n/a
43.2875	0.144	86575	keystroke_e	e	n/a
43.4155	0.12	86831	keystroke_Key.space	Key.space	n/a
43.6235	0.12	87247	keystroke_q	q	n/a
43.7835	0.128	87567	keystroke_u	u	n/a
43.8635	0.12	87727	keystroke_i	i	n/a
44.0155	0.072	88031	keystroke_c	c	n/a
44.1195	0.088	88239	keystroke_k	k	n/a
44.2555	0.12	88511	keystroke_Key.space	Key.space	n/a
44.4235	0.104	88847	keystroke_b	b	n/a
44.5435	0.064	89087	keystroke_r	r	n/a
44.6715	0.088	89343	keystroke_o	o	n/a
44.7915	0.096	89583	keystroke_w	w	n/a
44.8955	0.104	89791	keystroke_n	n	n/a
45.0715	0.12	90143	keystroke_Key.space	Key.space	n/a
45.3035	0.096	90607	keystroke_f	f	n/a
45.4635	0.144	90927	keystroke_o	o	n/a
45.6555	0.104	91311	keystroke_x	x	n/a
46.1435	0.136	92287	keystroke_Key.space	Key.space	n/a
46.4395	0.088	92879	keystroke_j	j	n/a
46.639	0.08	93278	keystroke_u	u	n/a
46.831	0.1365	93662	keystroke_m	m	n/a
47.071	0.136	94142	keystroke_p	p	n/a
47.863	0.168	95726	keystroke_s	s	n/a
48.023	0.12	96046	keystroke_Key.space	Key.space	n/a
48.135	0.184	96270	keystroke_o	o	n/a
48.231	0.144	96462	keystroke_v	v	n/a
48.495	0.248	96990	keystroke_e	e	n/a
48.631	0.16	97262	keystroke_r	r	n/a
48.744	0.159	97488	keystroke_Key.space	Key.space	n/a
48.871	0.144	97742	keystroke_a	a	n/a
49.007	0.112	98014	keystroke_Key.space	Key.space	n/a
49.143	0.144	98286	keystroke_l	l	n/a
49.239	0.104	98478	keystroke_a	a	n/a
49.543	0.12	99086	keystroke_z	z	n/a
49.719	0.12	99438	keystroke_y	y	n/a
49.879	0.152	99758	keystroke_Key.space	Key.space	n/a
50.007	0.088	100014	keystroke_d	d	n/a
50.119	0.136	100238	keystroke_o	o	n/a
50.319	0.088	100638	keystroke_g	g	n/a
51.055	0.12	102110	keystroke_Key.enter	Key.enter	n/a
51.1815	5.8355	102363	prompt	n/a	data lets roll quantitative\n
51.783	0.128	103566	keystroke_d	d	n/a
51.991	0.128	103982	keystroke_a	a	n/a
52.127	0.152	104254	keystroke_t	t	n/a
52.223	0.12	104446	keystroke_a	a	n/a
52.375	0.112	104750	keystroke_Key.space	Key.space	n/a
52.647	0.16	105294	keystroke_l	l	n/a
52.727	0.152	105454	keystroke_e	e	n/a
52.839	0.136	105678	keystroke_t	t	n/a
52.983	0.0965	105966	keystroke_s	s	n/a
53.063	0.1355	106126	keystroke_Key.space	Key.space	n/a
53.1745	0.104	106349	keystroke_r	r	n/a
53.2705	0.072	106541	keystroke_o	o	n/a
53.4545	0.064	106909	keystroke_l	l	n/a
53.583	0.1285	107166	keystroke_l	l	n/a
53.671	0.1195	107342	keystroke_Key.space	Key.space	n/a
53.8145	0.12	107629	keystroke_q	q	n/a
53.9665	0.1365	107933	keystroke_u	u	n/a
54.0795	0.1435	108159	keystroke_a	a	n/a
54.543	0.12	109086	keystroke_n	n	n/a
54.903	0.096	109806	keystroke_t	t	n/a
55.079	0.088	110158	keystroke_i	i	n/a
55.215	0.088	110430	keystroke_t	t	n/a
55.991	0.144	111982	keystroke_a	a	n/a
56.207	0.064	112414	keystroke_t	t	n/a
56.3035	0.1195	112607	keystroke_i	i	n/a
56.415	0.104	112830	keystroke_v	v	n/a
56.639	0.096	113278	keystroke_e	e	n/a
56.879	0.136	113758	keystroke_Key.enter	Key.enter	n/a
57.027	5.8055	114054	prompt	n/a	state grid sharon naughty\n
57.727	0.096	115454	keystroke_s	s	n/a
57.895	0.096	115790	keystroke_t	t	n/a
57.983	0.144	115966	keystroke_a	a	n/a
58.095	0.12	116190	keystroke_t	t	n/a
58.215	0.136	116430	keystroke_e	e	n/a
58.303	0.104	116606	keystroke_Key.space	Key.space	n/a
58.447	0.088	116894	keystroke_g	g	n/a
58.623	0.1045	117246	keystroke_r	r	n/a
58.7595	0.12	117519	keystroke_i	i	n/a
58.8555	0.16	117711	keystroke_d	d	n/a
59.0235	0.1195	118047	keystroke_Key.space	Key.space	n/a
59.303	0.088	118606	keystroke_s	s	n/a
59.431	0.16	118862	keystroke_h	h	n/a
59.535	0.144	119070	keystroke_a	a	n/a
59.655	0.0965	119310	keystroke_r	r	n/a
59.9905	0.073	119981	keystroke_o	o	n/a
60.1585	0.137	120317	keystroke_n	n	n/a
60.3275	0.111	120655	keystroke_Key.space	Key.space	n/a
60.6625	0.128	121325	keystroke_n	n	n/a
60.7505	0.113	121501	keystroke_a	a	n/a
61.6225	0.112	123245	keystroke_u	u	n/a
61.935	0.104	123870	keystroke_g	g	n/a
62.103	0.096	124206	keystroke_h	h	n/a
62.239	0.088	124478	keystroke_t	t	n/a
62.375	0.096	124750	keystroke_y	y	n/a
62.663	0.168	125326	keystroke_Key.enter	Key.enter	n/a
62.836	5.6685	125672	prompt	n/a	tissue region takes adapter\n
63.7435	0.112	127487	keystroke_t	t	n/a
63.8875	0.064	127775	keystroke_i	i	n/a
64.0795	0.0795	128159	keystroke_s	s	n/a
64.671	0.048	129342	keystroke_s	s	n/a
64.823	0.096	129646	keystroke_u	u	n/a
64.951	0.12	129902	keystroke_e	e	n/a
65.071	0.112	130142	keystroke_Key.space	Key.space	n/a
65.335	0.168	130670	keystroke_r	r	n/a
65.423	0.112	130846	keystroke_e	e	n/a
65.591	0.08	131182	keystroke_g	g	n/a
65.711	0.112	131422	keystroke_i	i	n/a
65.9025	0.16	131805	keystroke_o	o	n/a
66.0385	0.136	132077	keystroke_n	n	n/a
66.1505	0.12	132301	keystroke_Key.space	Key.space	n/a
66.2465	0.128	132493	keystroke_t	t	n/a
66.3345	0.112	132669	keystroke_a	a	n/a
66.4475	0.127	132895	keystroke_k	k	n/a
66.5585	0.168	133117	keystroke_e	e	n/a
66.6305	0.08	133261	keystroke_s	s	n/a
66.7025	0.136	133405	keystroke_Key.space	Key.space	n/a
66.7745	0.168	133549	keystroke_a	a	n/a
66.9665	0.088	133933	keystroke_d	d	n/a
67.2235	0.119	134447	keystroke_a	a	n/a
67.7755	0.151	135551	keystroke_p	p	n/a
67.9585	0.088	135917	keystroke_t	t	n/a
68.1265	0.16	136253	keystroke_e	e	n/a
68.2225	0.08	136445	keystroke_r	r	n/a
68.3985	0.104	136797	keystroke_Key.enter	Key.enter	n/a
68.5075	5.717	137015	prompt	n/a	molecules deliver iran cards\n
69.431	0.152	138862	keystroke_m	m	n/a
69.663	0.088	139326	keystroke_o	o	n/a
69.839	0.1355	139678	keystroke_l	l	n/a
69.9905	0.088	139981	keystroke_e	e	n/a
70.2785	0.072	140557	keystroke_c	c	n/a
70.3985	0.1045	140797	keystroke_u	u	n/a
70.559	0.144	141118	keystroke_l	l	n/a
70.639	0.192	141278	keystroke_e	e	n/a
70.751	0.096	141502	keystroke_s	s	n/a
70.839	0.144	141678	keystroke_Key.space	Key.space	n/a
71.023	0.112	142046	keystroke_d	d	n/a
71.239	0.08	142478	keystroke_e	e	n/a
71.343	0.136	142686	keystroke_l	l	n/a
71.455	0.112	142910	keystroke_i	i	n/a
71.591	0.096	143182	keystroke_v	v	n/a
71.807	0.192	143614	keystroke_e	e	n/a
71.935	0.112	143870	keystroke_r	r	n/a
72.023	0.144	144046	keystroke_Key.space	Key.space	n/a
72.215	0.128	144430	keystroke_i	i	n/a
72.303	0.112	144606	keystroke_r	r	n/a
72.383	0.136	144766	keystroke_a	a	n/a
72.495	0.136	144990	keystroke_n	n	n/a
72.6705	0.12	145341	keystroke_Key.space	Key.space	n/a
72.9985	0.08	145997	keystroke_c	c	n/a
73.1825	0.184	146365	keystroke_a	a	n/a
73.3505	0.088	146701	keystroke_r	r	n/a
73.6065	0.12	147213	keystroke_d	d	n/a
73.8705	0.088	147741	keystroke_s	s	n/a
74.0945	0.128	148189	keystroke_Key.enter	Key.enter	n/a
74.2275	5.221	148455	prompt	n/a	sampling grounds sega spread\n
75.0225	0.128	150045	keystroke_s	s	n/a
75.1345	0.16	150269	keystroke_a	a	n/a
75.1825	0.192	150365	keystroke_m	m	n/a
75.431	0.128	150862	keystroke_p	p	n/a
75.647	0.103	151294	keystroke_l	l	n/a
75.854	0.112	151708	keystroke_i	i	n/a
76.031	0.143	152062	keystroke_n	n	n/a
76.135	0.128	152270	keystroke_g	g	n/a
76.238	0.137	152476	keystroke_Key.space	Key.space	n/a
76.359	0.088	152718	keystroke_g	g	n/a
76.543	0.104	153086	keystroke_r	r	n/a
76.631	0.208	153262	keystroke_o	o	n/a
76.791	0.1035	153582	keystroke_u	u	n/a
76.999	0.136	153998	keystroke_n	n	n/a
77.1105	0.1125	154221	keystroke_d	d	n/a
77.319	0.0955	154638	keystroke_s	s	n/a
77.4225	0.1205	154845	keystroke_Key.space	Key.space	n/a
77.5105	0.1045	155021	keystroke_s	s	n/a
77.703	0.08	155406	keystroke_e	e	n/a
77.887	0.072	155774	keystroke_g	g	n/a
78.023	0.1435	156046	keystroke_a	a	n/a
78.1825	0.12	156365	keystroke_Key.space	Key.space	n/a
78.2865	0.104	156573	keystroke_s	s	n/a
78.4225	0.1525	156845	keystroke_p	p	n/a
78.5105	0.1525	157021	keystroke_r	r	n/a
78.591	0.112	157182	keystroke_e	e	n/a
78.695	0.176	157390	keystroke_a	a	n/a
78.831	0.088	157662	keystroke_d	d	n/a
79.3425	0.104	158685	keystroke_Key.enter	Key.enter	n/a
79.4525	16.422	158905	prompt	n/a	partially productivity hydrocodone namibia\n
80.2625	0.176	160525	keystroke_p	p	n/a
80.3505	0.24	160701	keystroke_a	a	n/a
80.4625	0.104	160925	keystroke_r	r	n/a
80.6305	0.104	161261	keystroke_t	t	n/a
81.135	0.112	162270	keystroke_i	i	n/a
81.255	0.152	162510	keystroke_a	a	n/a
81.367	0.056	162734	keystroke_l	l	n/a
81.487	0.096	162974	keystroke_l	l	n/a
81.7105	0.112	163421	keystroke_y	y	n/a
81.8145	0.112	163629	keystroke_Key.space	Key.space	n/a
81.9185	0.128	163837	keystroke_p	p	n/a
82.0065	0.096	164013	keystroke_r	r	n/a
82.1185	0.152	164237	keystroke_o	o	n/a
82.2225	0.104	164445	keystroke_d	d	n/a
82.9425	0.12	165885	keystroke_u	u	n/a
83.1665	0.096	166333	keystroke_c	c	n/a
83.767	0.104	167534	keystroke_t	t	n/a
83.879	0.096	167758	keystroke_i	i	n/a
84.047	0.136	168094	keystroke_v	v	n/a
84.247	0.088	168494	keystroke_i	i	n/a
84.383	0.096	168766	keystroke_t	t	n/a
84.495	0.136	168990	keystroke_y	y	n/a
84.719	0.087	169438	keystroke_Key.space	Key.space	n/a
85.038	0.104	170076	keystroke_h	h	n/a
85.286	0.113	170572	keystroke_y	y	n/a
85.518	0.112	171036	keystroke_d	d	n/a
85.726	0.112	171452	keystroke_o	o	n/a
85.87	0.064	171740	keystroke_r	r	n/a
86.23	0.112	172460	keystroke_c	c	n/a
86.422	0.136	172844	keystroke_o	o	n/a
87.8705	0.128	175741	keystroke_d	d	n/a
88.2065	0.048	176413	keystroke_o	o	n/a
88.3905	0.088	176781	keystroke_n	n	n/a
88.5345	0.12	177069	keystroke_e	e	n/a
88.7025	0.136	177405	keystroke_Key.space	Key.space	n/a
92.0145	0.184	184029	keystroke_m	m	n/a
92.4305	0.12	184861	keystroke_Key.backspace	Key.backspace	n/a
92.8545	0.144	185709	keystroke_n	n	n/a
93.543	0.128	187086	keystroke_a	a	n/a
93.727	0.136	187454	keystroke_m	m	n/a
94.3985	0.088	188797	keystroke_i	i	n/a
94.9985	0.096	189997	keystroke_b	b	n/a
95.3585	0.104	190717	keystroke_i	i	n/a
95.5025	0.1275	191005	keystroke_a	a	n/a
95.718	0.1525	191436	keystroke_Key.enter	Key.enter	n/a
95.879	5.58	191758	prompt	n/a	vote trusted commented reload\n
97.0385	0.072	194077	keystroke_v	v	n/a
97.27	0.152	194540	keystroke_o	o	n/a
97.39	0.153	194780	keystroke_t	t	n/a
97.55	0.097	195100	keystroke_e	e	n/a
97.623	0.127	195246	keystroke_Key.space	Key.space	n/a
97.758	0.072	195516	keystroke_t	t	n/a
97.902	0.104	195804	keystroke_r	r	n/a
98.015	0.1195	196030	keystroke_u	u	n/a
98.1185	0.152	196237	keystroke_s	s	n/a
98.2625	0.128	196525	keystroke_t	t	n/a
98.3985	0.088	196797	keystroke_e	e	n/a
98.567	0.136	197134	keystroke_d	d	n/a
98.638	0.128	197276	keystroke_Key.space	Key.space	n/a
98.894	0.104	197788	keystroke_c	c	n/a
98.982	0.081	197964	keystroke_o	o	n/a
99.135	0.064	198270	keystroke_m	m	n/a
99.271	0.095	198542	keystroke_m	m	n/a
99.383	0.096	198766	keystroke_e	e	n/a
99.47	0.096	198940	keystroke_n	n	n/a
99.591	0.111	199182	keystroke_t	t	n/a
99.703	0.119	199406	keystroke_e	e	n/a
99.903	0.1435	199806	keystroke_d	d	n/a
100.0065	0.112	200013	keystroke_Key.space	Key.space	n/a
100.2065	0.2	200413	keystroke_r	r	n/a
100.3025	0.12	200605	keystroke_e	e	n/a
100.4305	0.08	200861	keystroke_l	l	n/a
100.6065	0.144	201213	keystroke_o	o	n/a
100.7185	0.12	201437	keystroke_a	a	n/a
101.0465	0.088	202093	keystroke_d	d	n/a
101.334	0.12	202668	keystroke_Key.enter	Key.enter	n/a
101.4675	10.4525	202935	prompt	n/a	you'll thoughts affiliate headlines\n
102.334	0.056	204668	keystroke_y	y	n/a
102.7265	0.128	205453	keystroke_o	o	n/a
102.8785	0.096	205757	keystroke_u	u	n/a
103.1025	0.144	206205	keystroke_;	;	n/a
103.3825	0.088	206765	keystroke_l	l	n/a
103.6945	0.072	207389	keystroke_=	=	n/a
103.8385	0.096	207677	keystroke_=	=	n/a
104.11	0.04	208220	keystroke_Key.backspace	Key.backspace	n/a
105.014	0.064	210028	keystroke_Key.backspace	Key.backspace	n/a
105.182	0.072	210364	keystroke_Key.backspace	Key.backspace	n/a
105.358	0.056	210716	keystroke_Key.backspace	Key.backspace	n/a
106.126	0.072	212252	keystroke_'	'	n/a
106.494	0.072	212988	keystroke_l	l	n/a
106.654	0.08	213308	keystroke_l	l	n/a
106.838	0.128	213676	keystroke_Key.space	Key.space	n/a
107.486	0.12	214972	keystroke_t	t	n/a
107.566	0.12	215132	keystroke_h	h	n/a
107.67	0.192	215340	keystroke_o	o	n/a
107.79	0.12	215580	keystroke_u	u	n/a
107.902	0.08	215804	keystroke_g	g	n/a
108.022	0.112	216044	keystroke_h	h	n/a
108.142	0.136	216284	keystroke_t	t	n/a
108.286	0.088	216572	keystroke_s	s	n/a
108.358	0.128	216716	keystroke_Key.space	Key.space	n/a
108.438	0.16	216876	keystroke_a	a	n/a
108.646	0.08	217292	keystroke_f	f	n/a
108.79	0.104	217580	keystroke_f	f	n/a
108.974	0.096	217948	keystroke_i	i	n/a
109.142	0.1045	218284	keystroke_l	l	n/a
109.3825	0.08	218765	keystroke_i	i	n/a
109.5265	0.144	219053	keystroke_a	a	n/a
109.6785	0.096	219357	keystroke_t	t	n/a
109.8065	0.168	219613	keystroke_e	e	n/a
109.9185	0.12	219837	keystroke_Key.space	Key.space	n/a
110.1425	0.128	220285	keystroke_h	h	n/a
110.2225	0.096	220445	keystroke_e	e	n/a
110.2865	0.208	220573	keystroke_a	a	n/a
110.4385	0.104	220877	keystroke_d	d	n/a
110.5585	0.1355	221117	keystroke_l	l	n/a
110.9345	0.08	221869	keystroke_i	i	n/a
111.1025	0.16	222205	keystroke_n	n	n/a
111.2145	0.184	222429	keystroke_e	e	n/a
111.2945	0.112	222589	keystroke_s	s	n/a
111.822	0.0965	223644	keystroke_Key.enter	Key.enter	n/a
111.9235	6.892	223847	prompt	n/a	loves protective ethernet evil\n
113.2065	0.088	226413	keystroke_l	l	n/a
113.4305	0.096	226861	keystroke_o	o	n/a
113.574	0.104	227148	keystroke_v	v	n/a
113.782	0.192	227564	keystroke_e	e	n/a
113.902	0.112	227804	keystroke_s	s	n/a
113.975	0.151	227950	keystroke_Key.space	Key.space	n/a
114.238	0.088	228476	keystroke_p	p	n/a
114.342	0.096	228684	keystroke_r	r	n/a
114.446	0.128	228892	keystroke_o	o	n/a
114.59	0.088	229180	keystroke_t	t	n/a
114.822	0.152	229644	keystroke_e	e	n/a
115.094	0.064	230188	keystroke_c	c	n/a
115.318	0.08	230636	keystroke_t	t	n/a
115.438	0.112	230876	keystroke_i	i	n/a
115.542	0.112	231084	keystroke_v	v	n/a
115.758	0.096	231516	keystroke_e	e	n/a
115.822	0.12	231644	keystroke_Key.space	Key.space	n/a
115.958	0.088	231916	keystroke_e	e	n/a
116.254	0.096	232508	keystroke_t	t	n/a
116.422	0.104	232844	keystroke_h	h	n/a
116.574	0.104	233148	keystroke_e	e	n/a
117.134	0.088	234268	keystroke_r	r	n/a
117.318	0.112	234636	keystroke_n	n	n/a
117.422	0.104	234844	keystroke_e	e	n/a
117.566	0.112	235132	keystroke_t	t	n/a
117.662	0.104	235324	keystroke_Key.space	Key.space	n/a
117.774	0.08	235548	keystroke_e	e	n/a
117.958	0.112	235916	keystroke_v	v	n/a
118.11	0.072	236220	keystroke_i	i	n/a
118.278	0.128	236556	keystroke_l	l	n/a
118.678	0.136	237356	keystroke_Key.enter	Key.enter	n/a
118.82	6.7955	237640	prompt	n/a	fetish univ dans supposed\n
119.638	0.0715	239276	keystroke_f	f	n/a
119.8135	0.088	239627	keystroke_e	e	n/a
120.046	0.096	240092	keystroke_t	t	n/a
120.398	0.072	240796	keystroke_i	i	n/a
120.51	0.088	241020	keystroke_s	s	n/a
120.606	0.121	241212	keystroke_h	h	n/a
120.718	0.088	241436	keystroke_Key.space	Key.space	n/a
121.15	0.096	242300	keystroke_u	u	n/a
121.358	0.088	242716	keystroke_n	n	n/a
121.542	0.08	243084	keystroke_i	i	n/a
121.63	0.112	243260	keystroke_v	v	n/a
122.086	0.1285	244172	keystroke_Key.space	Key.space	n/a
122.2705	0.12	244541	keystroke_d	d	n/a
122.4545	0.103	244909	keystroke_a	a	n/a
122.5745	0.12	245149	keystroke_n	n	n/a
122.7345	0.08	245469	keystroke_s	s	n/a
122.8465	0.103	245693	keystroke_Key.space	Key.space	n/a
123.43	0.136	246860	keystroke_s	s	n/a
123.63	0.152	247260	keystroke_u	u	n/a
123.774	0.112	247548	keystroke_p	p	n/a
124.438	0.1435	248876	keystroke_p	p	n/a
124.7575	0.136	249515	keystroke_o	o	n/a
124.8855	0.184	249771	keystroke_s	s	n/a
125.0055	0.072	250011	keystroke_e	e	n/a
125.1655	0.12	250331	keystroke_d	d	n/a
125.4935	0.12	250987	keystroke_Key.enter	Key.enter	n/a
125.6195	5.74	251239	prompt	n/a	lobby laden official beginner\n
126.3655	0.096	252731	keystroke_l	l	n/a
126.5735	0.12	253147	keystroke_o	o	n/a
126.8135	0.072	253627	keystroke_b	b	n/a
126.9575	0.096	253915	keystroke_b	b	n/a
127.206	0.096	254412	keystroke_y	y	n/a
127.414	0.128	254828	keystroke_Key.space	Key.space	n/a
127.934	0.136	255868	keystroke_l	l	n/a
128.014	0.168	256028	keystroke_a	a	n/a
128.15	0.136	256300	keystroke_d	d	n/a
128.39	0.088	256780	keystroke_e	e	n/a
128.526	0.12	257052	keystroke_n	n	n/a
128.646	0.088	257292	keystroke_Key.space	Key.space	n/a
128.782	0.152	257564	keystroke_o	o	n/a
128.878	0.072	257756	keystroke_f	f	n/a
129.038	0.088	258076	keystroke_f	f	n/a
129.134	0.0955	258268	keystroke_i	i	n/a
129.254	0.112	258508	keystroke_c	c	n/a
129.3415	0.08	258683	keystroke_i	i	n/a
129.446	0.1435	258892	keystroke_a	a	n/a
129.5015	0.136	259003	keystroke_l	l	n/a
129.6455	0.096	259291	keystroke_Key.space	Key.space	n/a
130.0535	0.1205	260107	keystroke_b	b	n/a
130.134	0.1035	260268	keystroke_e	e	n/a
130.3335	0.0725	260667	keystroke_g	g	n/a
130.542	0.0715	261084	keystroke_i	i	n/a
130.7335	0.056	261467	keystroke_n	n	n/a
130.8535	0.096	261707	keystroke_n	n	n/a
130.9895	0.16	261979	keystroke_e	e	n/a
131.1015	0.096	262203	keystroke_r	r	n/a
131.2375	0.1205	262475	keystroke_Key.enter	Key.enter	n/a
131.363	5.9725	262726	prompt	n/a	button decorative oriental murphy\n
132.142	0.112	264284	keystroke_b	b	n/a
132.374	0.128	264748	keystroke_u	u	n/a
132.518	0.072	265036	keystroke_t	t	n/a
132.6455	0.104	265291	keystroke_t	t	n/a
132.7575	0.088	265515	keystroke_o	o	n/a
132.87	0.144	265740	keystroke_n	n	n/a
132.99	0.128	265980	keystroke_Key.space	Key.space	n/a
133.134	0.1195	266268	keystroke_d	d	n/a
133.3175	0.112	266635	keystroke_e	e	n/a
133.5975	0.08	267195	keystroke_c	c	n/a
133.7735	0.104	267547	keystroke_o	o	n/a
133.8855	0.112	267771	keystroke_r	r	n/a
133.9815	0.152	267963	keystroke_a	a	n/a
134.1495	0.073	268299	keystroke_t	t	n/a
134.2455	0.112	268491	keystroke_i	i	n/a
134.3495	0.096	268699	keystroke_v	v	n/a
134.5815	0.136	269163	keystroke_e	e	n/a
134.6695	0.096	269339	keystroke_Key.space	Key.space	n/a
134.9735	0.112	269947	keystroke_o	o	n/a
135.0775	0.112	270155	keystroke_r	r	n/a
135.2135	0.08	270427	keystroke_i	i	n/a
135.2855	0.0885	270571	keystroke_e	e	n/a
135.4055	0.12	270811	keystroke_n	n	n/a
135.5095	0.096	271019	keystroke_t	t	n/a
135.5895	0.12	271179	keystroke_a	a	n/a
135.7015	0.12	271403	keystroke_l	l	n/a
135.8295	0.112	271659	keystroke_Key.space	Key.space	n/a
136.0775	0.112	272155	keystroke_m	m	n/a
136.3095	0.096	272619	keystroke_u	u	n/a
136.4135	0.088	272827	keystroke_r	r	n/a
136.5255	0.136	273051	keystroke_p	p	n/a
136.7255	0.096	273451	keystroke_h	h	n/a
136.9335	0.08	273867	keystroke_y	y	n/a
137.2135	0.12	274427	keystroke_Key.enter	Key.enter	n/a
137.338	5.6615	274676	prompt	n/a	title carey annoying he's\n
138.246	0.0555	276492	keystroke_t	t	n/a
138.3255	0.104	276651	keystroke_i	i	n/a
138.414	0.0875	276828	keystroke_t	t	n/a
138.5175	0.136	277035	keystroke_l	l	n/a
138.6055	0.104	277211	keystroke_e	e	n/a
138.6935	0.112	277387	keystroke_Key.space	Key.space	n/a
138.9495	0.128	277899	keystroke_c	c	n/a
139.0855	0.176	278171	keystroke_a	a	n/a
139.2295	0.152	278459	keystroke_r	r	n/a
139.6135	0.08	279227	keystroke_e	e	n/a
139.7815	0.144	279563	keystroke_y	y	n/a
139.966	0.12	279932	keystroke_Key.space	Key.space	n/a
140.262	0.144	280524	keystroke_a	a	n/a
140.39	0.056	280780	keystroke_n	n	n/a
140.51	0.104	281020	keystroke_n	n	n/a
140.702	0.104	281404	keystroke_o	o	n/a
140.878	0.112	281756	keystroke_y	y	n/a
141.07	0.136	282140	keystroke_i	i	n/a
141.182	0.136	282364	keystroke_n	n	n/a
141.294	0.112	282588	keystroke_g	g	n/a
141.373	0.104	282746	keystroke_Key.space	Key.space	n/a
141.478	0.104	282956	keystroke_h	h	n/a
141.518	0.088	283036	keystroke_e	e	n/a
141.702	0.128	283404	keystroke_'	'	n/a
141.814	0.08	283628	keystroke_s	s	n/a
142.909	0.089	285818	keystroke_Key.enter	Key.enter	n/a
143.0025	8.3325	286005	prompt	n/a	gang convicted biological treasury\n
143.822	0.127	287644	keystroke_g	g	n/a
143.998	0.159	287996	keystroke_a	a	n/a
144.069	0.144	288138	keystroke_n	n	n/a
144.549	0.136	289098	keystroke_g	g	n/a
144.693	0.096	289386	keystroke_Key.space	Key.space	n/a
145.0615	0.096	290123	keystroke_c	c	n/a
145.1655	0.12	290331	keystroke_o	o	n/a
145.2615	0.136	290523	keystroke_n	n	n/a
145.3985	0.135	290797	keystroke_v	v	n/a
145.5735	0.088	291147	keystroke_i	i	n/a
145.6935	0.08	291387	keystroke_c	c	n/a
145.9575	0.128	291915	keystroke_t	t	n/a
146.1095	0.096	292219	keystroke_e	e	n/a
146.286	0.152	292572	keystroke_d	d	n/a
146.366	0.12	292732	keystroke_Key.space	Key.space	n/a
146.55	0.104	293100	keystroke_b	b	n/a
146.766	0.064	293532	keystroke_i	i	n/a
146.926	0.08	293852	keystroke_o	o	n/a
147.11	0.088	294220	keystroke_l	l	n/a
147.374	0.104	294748	keystroke_o	o	n/a
147.925	0.08	295850	keystroke_g	g	n/a
148.021	0.12	296042	keystroke_i	i	n/a
148.133	0.121	296266	keystroke_c	c	n/a
148.237	0.168	296474	keystroke_a	a	n/a
148.309	0.12	296618	keystroke_l	l	n/a
148.445	0.104	296890	keystroke_Key.space	Key.space	n/a
148.589	0.072	297178	keystroke_t	t	n/a
148.741	0.2	297482	keystroke_r	r	n/a
148.837	0.1685	297674	keystroke_e	e	n/a
148.917	0.1445	297834	keystroke_a	a	n/a
149.4535	0.088	298907	keystroke_s	s	n/a
149.6215	0.096	299243	keystroke_u	u	n/a
149.7015	0.144	299403	keystroke_r	r	n/a
149.7735	0.12	299547	keystroke_e	e	n/a
150.3415	0.096	300683	keystroke_Key.backspace	Key.backspace	n/a
150.6695	0.096	301339	keystroke_y	y	n/a
151.1895	0.144	302379	keystroke_Key.enter	Key.enter	n/a
151.338	7.205	302676	prompt	n/a	deposits check regulations coverage\n
152.214	0.104	304428	keystroke_d	d	n/a
152.406	0.096	304812	keystroke_e	e	n/a
152.518	0.096	305036	keystroke_p	p	n/a
152.686	0.096	305372	keystroke_o	o	n/a
152.774	0.08	305548	keystroke_s	s	n/a
152.902	0.064	305804	keystroke_i	i	n/a
153.054	0.088	306108	keystroke_t	t	n/a
153.43	0.152	306860	keystroke_s	s	n/a
153.55	0.104	307100	keystroke_Key.space	Key.space	n/a
153.782	0.104	307564	keystroke_c	c	n/a
153.91	0.128	307820	keystroke_h	h	n/a
153.982	0.104	307964	keystroke_e	e	n/a
154.142	0.104	308284	keystroke_c	c	n/a
154.27	0.128	308540	keystroke_k	k	n/a
154.414	0.119	308828	keystroke_Key.space	Key.space	n/a
154.51	0.144	309020	keystroke_r	r	n/a
154.59	0.104	309180	keystroke_e	e	n/a
154.75	0.096	309500	keystroke_g	g	n/a
154.862	0.08	309724	keystroke_u	u	n/a
155.0055	0.144	310011	keystroke_l	l	n/a
155.1095	0.152	310219	keystroke_a	a	n/a
155.9095	0.112	311819	keystroke_t	t	n/a
156.0055	0.088	312011	keystroke_i	i	n/a
156.0945	0.151	312189	keystroke_o	o	n/a
156.2055	0.152	312411	keystroke_n	n	n/a
156.2855	0.08	312571	keystroke_s	s	n/a
156.3655	0.112	312731	keystroke_Key.space	Key.space	n/a
156.6695	0.064	313339	keystroke_v	v	n/a
157.0695	0.104	314139	keystroke_Key.backspace	Key.backspace	n/a
157.181	0.104	314362	keystroke_c	c	n/a
157.349	0.112	314698	keystroke_o	o	n/a
157.501	0.136	315002	keystroke_v	v	n/a
157.749	0.168	315498	keystroke_e	e	n/a
157.837	0.096	315674	keystroke_r	r	n/a
157.949	0.128	315898	keystroke_a	a	n/a
158.069	0.08	316138	keystroke_g	g	n/a
158.213	0.088	316426	keystroke_e	e	n/a
158.405	0.136	316810	keystroke_Key.enter	Key.enter	n/a
158.549	7.354	317098	prompt	n/a	arctic dame magnet ebook\n
159.413	0.208	318826	keystroke_a	a	n/a
159.661	0.104	319322	keystroke_r	r	n/a
159.957	0.088	319914	keystroke_c	c	n/a
160.2375	0.088	320475	keystroke_t	t	n/a
160.3415	0.096	320683	keystroke_i	i	n/a
160.4935	0.112	320987	keystroke_c	c	n/a
160.7495	0.112	321499	keystroke_Key.space	Key.space	n/a
161.1895	0.112	322379	keystroke_d	d	n/a
161.3335	0.128	322667	keystroke_a	a	n/a
161.4295	0.152	322859	keystroke_m	m	n/a
161.5815	0.104	323163	keystroke_e	e	n/a
161.6615	0.128	323323	keystroke_Key.space	Key.space	n/a
161.8615	0.16	323723	keystroke_m	m	n/a
162.0135	0.104	324027	keystroke_a	a	n/a
162.1575	0.128	324315	keystroke_n	n	n/a
162.6855	0.072	325371	keystroke_Key.backspace	Key.backspace	n/a
162.8055	0.104	325611	keystroke_g	g	n/a
163.0135	0.104	326027	keystroke_n	n	n/a
163.2055	0.128	326411	keystroke_e	e	n/a
163.5095	0.128	327019	keystroke_t	t	n/a
163.7095	0.112	327419	keystroke_Key.space	Key.space	n/a
164.165	0.096	328330	keystroke_e	e	n/a
164.357	0.12	328714	keystroke_b	b	n/a
164.637	0.056	329274	keystroke_o	o	n/a
164.741	0.112	329482	keystroke_o	o	n/a
164.925	0.112	329850	keystroke_k	k	n/a
165.7895	0.112	331579	keystroke_Key.enter	Key.enter	n/a
165.906	6.6525	331812	prompt	n/a	vernon ministries newbie yeah\n
166.6615	0.104	333323	keystroke_v	v	n/a
166.8615	0.104	333723	keystroke_e	e	n/a
167.1495	0.136	334299	keystroke_m	m	n/a
167.6935	0.096	335387	keystroke_o	o	n/a
167.9095	0.1515	335819	keystroke_n	n	n/a
168.0535	0.127	336107	keystroke_Key.space	Key.space	n/a
168.3085	0.128	336617	keystroke_m	m	n/a
168.5805	0.0645	337161	keystroke_i	i	n/a
168.757	0.08	337514	keystroke_n	n	n/a
168.965	0.088	337930	keystroke_i	i	n/a
169.189	0.12	338378	keystroke_s	s	n/a
169.893	0.072	339786	keystroke_t	t	n/a
170.085	0.08	340170	keystroke_r	r	n/a
170.245	0.096	340490	keystroke_i	i	n/a
170.309	0.152	340618	keystroke_e	e	n/a
170.413	0.12	340826	keystroke_s	s	n/a
170.501	0.112	341002	keystroke_Key.space	Key.space	n/a
170.685	0.12	341370	keystroke_n	n	n/a
170.813	0.072	341626	keystroke_e	e	n/a
170.973	0.072	341946	keystroke_w	w	n/a
171.141	0.08	342282	keystroke_b	b	n/a
171.357	0.088	342714	keystroke_i	i	n/a
171.437	0.144	342874	keystroke_e	e	n/a
171.541	0.12	343082	keystroke_Key.space	Key.space	n/a
171.869	0.152	343738	keystroke_y	y	n/a
171.989	0.104	343978	keystroke_e	e	n/a
172.053	0.128	344106	keystroke_a	a	n/a
172.197	0.072	344394	keystroke_h	h	n/a
172.461	0.096	344922	keystroke_Key.enter	Key.enter	n/a
172.5635	5.9625	345127	prompt	n/a	jacket vocals barn june\n
173.189	0.184	346378	keystroke_j	j	n/a
173.325	0.256	346650	keystroke_a	a	n/a
173.501	0.112	347002	keystroke_c	c	n/a
173.997	0.064	347994	keystroke_k	k	n/a
174.101	0.112	348202	keystroke_e	e	n/a
174.333	0.1195	348666	keystroke_t	t	n/a
174.4685	0.128	348937	keystroke_Key.space	Key.space	n/a
174.7725	0.129	349545	keystroke_v	v	n/a
175.1965	0.104	350393	keystroke_o	o	n/a
175.3965	0.112	350793	keystroke_c	c	n/a
175.5325	0.136	351065	keystroke_a	a	n/a
175.6855	0.128	351371	keystroke_l	l	n/a
176.0365	0.112	352073	keystroke_s	s	n/a
176.1565	0.096	352313	keystroke_Key.space	Key.space	n/a
176.3245	0.128	352649	keystroke_b	b	n/a
176.4535	0.167	352907	keystroke_a	a	n/a
176.5885	0.088	353177	keystroke_r	r	n/a
176.6695	0.119	353339	keystroke_n	n	n/a
177.3645	0.128	354729	keystroke_Key.space	Key.space	n/a
177.4765	0.12	354953	keystroke_j	j	n/a
177.7725	0.088	355545	keystroke_u	u	n/a
178.0045	0.096	356009	keystroke_n	n	n/a
178.1565	0.08	356313	keystroke_e	e	n/a
178.4045	0.12	356809	keystroke_Key.enter	Key.enter	n/a
178.53	7.3005	357060	prompt	n/a	bass shadow accessibility craps\n
179.2935	0.144	358587	keystroke_b	b	n/a
179.3895	0.135	358779	keystroke_a	a	n/a
179.5655	0.056	359131	keystroke_s	s	n/a
179.6935	0.112	359387	keystroke_s	s	n/a
179.8055	0.127	359611	keystroke_Key.space	Key.space	n/a
179.8935	0.104	359787	keystroke_s	s	n/a
180.0295	0.12	360059	keystroke_h	h	n/a
180.1015	0.136	360203	keystroke_a	a	n/a
180.3015	0.112	360603	keystroke_d	d	n/a
180.8455	0.096	361691	keystroke_o	o	n/a
180.9575	0.12	361915	keystroke_w	w	n/a
181.0605	0.121	362121	keystroke_Key.space	Key.space	n/a
181.2445	0.105	362489	keystroke_a	a	n/a
181.7335	0.096	363467	keystroke_Key.backspace	Key.backspace	n/a
182.0765	0.16	364153	keystroke_a	a	n/a
182.3405	0.073	364681	keystroke_c	c	n/a
182.5085	0.073	365017	keystroke_c	c	n/a
182.9805	0.0885	365961	keystroke_e	e	n/a
183.173	0.056	366346	keystroke_s	s	n/a
183.285	0.112	366570	keystroke_s	s	n/a
183.525	0.088	367050	keystroke_i	i	n/a
183.717	0.104	367434	keystroke_b	b	n/a
183.917	0.08	367834	keystroke_i	i	n/a
184.109	0.128	368218	keystroke_l	l	n/a
184.277	0.096	368554	keystroke_i	i	n/a
184.445	0.088	368890	keystroke_t	t	n/a
184.533	0.128	369066	keystroke_y	y	n/a
184.693	0.088	369386	keystroke_Key.space	Key.space	n/a
184.949	0.088	369898	keystroke_c	c	n/a
185.157	0.128	370314	keystroke_r	r	n/a
185.213	0.152	370426	keystroke_a	a	n/a
185.333	0.128	370666	keystroke_p	p	n/a
185.517	0.08	371034	keystroke_s	s	n/a
185.701	0.128	371402	keystroke_Key.enter	Key.enter	n/a
185.8375	10.6965	371675	prompt	n/a	pond processors americans locks\n
186.685	0.128	373370	keystroke_p	p	n/a
186.917	0.168	373834	keystroke_o	o	n/a
187.109	0.088	374218	keystroke_i	i	n/a
187.501	0.04	375002	keystroke_n	n	n/a
187.773	0.04	375546	keystroke_Key.backspace	Key.backspace	n/a
187.901	0.056	375802	keystroke_=	=	n/a
188.325	0.064	376650	keystroke_Key.backspace	Key.backspace	n/a
188.469	0.088	376938	keystroke_Key.backspace	Key.backspace	n/a
188.829	0.08	377658	keystroke_n	n	n/a
189.237	0.192	378474	keystroke_d	d	n/a
189.437	0.112	378874	keystroke_Key.space	Key.space	n/a
189.573	0.088	379146	keystroke_p	p	n/a
189.677	0.088	379354	keystroke_r	r	n/a
189.757	0.1595	379514	keystroke_o	o	n/a
189.9245	0.096	379849	keystroke_c	c	n/a
190.1245	0.0965	380249	keystroke_e	e	n/a
190.317	0.064	380634	keystroke_s	s	n/a
190.453	0.096	380906	keystroke_s	s	n/a
190.597	0.128	381194	keystroke_o	o	n/a
190.709	0.08	381418	keystroke_r	r	n/a
190.845	0.104	381690	keystroke_s	s	n/a
190.941	0.136	381882	keystroke_Key.space	Key.space	n/a
191.117	0.152	382234	keystroke_a	a	n/a
191.413	0.16	382826	keystroke_m	m	n/a
191.517	0.192	383034	keystroke_e	e	n/a
191.621	0.096	383242	keystroke_r	r	n/a
191.773	0.128	383546	keystroke_i	i	n/a
191.885	0.104	383770	keystroke_c	c	n/a
191.973	0.128	383946	keystroke_a	a	n/a
192.085	0.128	384170	keystroke_n	n	n/a
192.213	0.136	384426	keystroke_s	s	n/a
192.325	0.128	384650	keystroke_Key.space	Key.space	n/a
192.557	0.112	385114	keystroke_l	l	n/a
192.661	0.128	385322	keystroke_a	a	n/a
192.813	0.056	385626	keystroke_o	o	n/a
193.132	0.113	386264	keystroke_Key.backspace	Key.backspace	n/a
193.357	0.0875	386714	keystroke_Key.backspace	Key.backspace	n/a
195.2525	0.1435	390505	keystroke_o	o	n/a
195.404	0.096	390808	keystroke_c	c	n/a
195.54	0.136	391080	keystroke_k	k	n/a
196.172	0.08	392344	keystroke_s	s	n/a
196.404	0.128	392808	keystroke_Key.enter	Key.enter	n/a
196.537	7.1575	393074	prompt	n/a	effectiveness donor expert sandwich\n
197.2685	0.12	394537	keystroke_e	e	n/a
197.4925	0.072	394985	keystroke_f	f	n/a
197.6365	0.064	395273	keystroke_f	f	n/a
197.7565	0.12	395513	keystroke_e	e	n/a
197.9565	0.104	395913	keystroke_c	c	n/a
198.205	0.072	396410	keystroke_t	t	n/a
198.333	0.112	396666	keystroke_i	i	n/a
198.453	0.096	396906	keystroke_v	v	n/a
198.653	0.112	397306	keystroke_e	e	n/a
198.813	0.136	397626	keystroke_n	n	n/a
198.893	0.08	397786	keystroke_e	e	n/a
199.053	0.048	398106	keystroke_s	s	n/a
199.157	0.12	398314	keystroke_s	s	n/a
199.269	0.12	398538	keystroke_Key.space	Key.space	n/a
199.373	0.128	398746	keystroke_d	d	n/a
199.493	0.104	398986	keystroke_o	o	n/a
199.621	0.096	399242	keystroke_n	n	n/a
199.789	0.1275	399578	keystroke_o	o	n/a
199.925	0.1195	399850	keystroke_r	r	n/a
200.013	0.12	400026	keystroke_Key.space	Key.space	n/a
200.1005	0.0885	400201	keystroke_e	e	n/a
200.285	0.152	400570	keystroke_x	x	n/a
200.389	0.12	400778	keystroke_p	p	n/a
200.8685	0.144	401737	keystroke_e	e	n/a
201.0525	0.056	402105	keystroke_r	r	n/a
201.2045	0.144	402409	keystroke_t	t	n/a
201.3245	0.2	402649	keystroke_Key.space	Key.space	n/a
201.5165	0.184	403033	keystroke_s	s	n/a
201.7725	0.136	403545	keystroke_a	a	n/a
201.9165	0.096	403833	keystroke_n	n	n/a
202.0135	0.087	404027	keystroke_d	d	n/a
202.2365	0.088	404473	keystroke_w	w	n/a
202.3725	0.08	404745	keystroke_i	i	n/a
203.0045	0.088	406009	keystroke_c	c	n/a
203.1805	0.104	406361	keystroke_h	h	n/a
203.541	0.152	407082	keystroke_Key.enter	Key.enter	n/a
203.699	4.859	407398	prompt	n/a	rope quit based golden\n
204.613	0.12	409226	keystroke_r	r	n/a
204.765	0.12	409530	keystroke_o	o	n/a
204.9885	0.176	409977	keystroke_p	p	n/a
205.1165	0.136	410233	keystroke_e	e	n/a
205.2365	0.168	410473	keystroke_Key.space	Key.space	n/a
205.4125	0.128	410825	keystroke_q	q	n/a
205.5485	0.152	411097	keystroke_u	u	n/a
205.6525	0.161	411305	keystroke_i	i	n/a
206.1565	0.16	412313	keystroke_t	t	n/a
206.3085	0.16	412617	keystroke_Key.space	Key.space	n/a
206.5405	0.16	413081	keystroke_b	b	n/a
206.6525	0.2	413305	keystroke_a	a	n/a
206.7485	0.216	413497	keystroke_s	s	n/a
206.8685	0.104	413737	keystroke_e	e	n/a
207.0525	0.168	414105	keystroke_d	d	n/a
207.1805	0.112	414361	keystroke_Key.space	Key.space	n/a
207.5485	0.112	415097	keystroke_g	g	n/a
207.6685	0.088	415337	keystroke_o	o	n/a
207.8445	0.144	415689	keystroke_l	l	n/a
207.9005	0.104	415801	keystroke_d	d	n/a
208.0765	0.0805	416153	keystroke_e	e	n/a
208.157	0.1275	416314	keystroke_n	n	n/a
208.445	0.112	416890	keystroke_Key.enter	Key.enter	n/a
208.561	4.629	417122	prompt	n/a	pairs manga wild tracks\n
209.3245	0.152	418649	keystroke_p	p	n/a
209.4205	0.152	418841	keystroke_a	a	n/a
209.6045	0.096	419209	keystroke_i	i	n/a
209.7405	0.096	419481	keystroke_r	r	n/a
209.8845	0.144	419769	keystroke_s	s	n/a
209.9885	0.128	419977	keystroke_Key.space	Key.space	n/a
210.1085	0.136	420217	keystroke_m	m	n/a
210.2125	0.128	420425	keystroke_a	a	n/a
210.3325	0.1045	420665	keystroke_n	n	n/a
210.789	0.08	421578	keystroke_g	g	n/a
210.925	0.152	421850	keystroke_a	a	n/a
211.117	0.096	422234	keystroke_Key.space	Key.space	n/a
211.245	0.144	422490	keystroke_w	w	n/a
211.349	0.088	422698	keystroke_i	i	n/a
211.501	0.16	423002	keystroke_l	l	n/a
211.597	0.152	423194	keystroke_d	d	n/a
211.796	0.128	423592	keystroke_Key.space	Key.space	n/a
211.996	0.096	423992	keystroke_t	t	n/a
212.172	0.112	424344	keystroke_r	r	n/a
212.228	0.2	424456	keystroke_a	a	n/a
212.508	0.096	425016	keystroke_c	c	n/a
212.66	0.128	425320	keystroke_k	k	n/a
212.804	0.0805	425608	keystroke_s	s	n/a
213.0685	0.1195	426137	keystroke_Key.enter	Key.enter	n/a
213.1955	5.6665	426391	prompt	n/a	mpeg putting lock forum\n
214.132	0.168	428264	keystroke_m	m	n/a
214.38	0.1605	428760	keystroke_p	p	n/a
214.5565	0.12	429113	keystroke_e	e	n/a
215.0525	0.112	430105	keystroke_g	g	n/a
215.2445	0.12	430489	keystroke_Key.space	Key.space	n/a
215.4045	0.12	430809	keystroke_p	p	n/a
215.948	0.1285	431896	keystroke_u	u	n/a
216.1965	0.088	432393	keystroke_t	t	n/a
216.3325	0.136	432665	keystroke_t	t	n/a
216.4845	0.088	432969	keystroke_i	i	n/a
216.6525	0.161	433305	keystroke_n	n	n/a
216.7885	0.144	433577	keystroke_g	g	n/a
216.8685	0.12	433737	keystroke_Key.space	Key.space	n/a
217.0045	0.096	434009	keystroke_l	l	n/a
217.1885	0.112	434377	keystroke_o	o	n/a
217.2845	0.104	434569	keystroke_c	c	n/a
217.3965	0.112	434793	keystroke_k	k	n/a
217.5005	0.128	435001	keystroke_Key.space	Key.space	n/a
217.6125	0.112	435225	keystroke_f	f	n/a
217.7245	0.12	435449	keystroke_o	o	n/a
217.8525	0.072	435705	keystroke_r	r	n/a
218.005	0.079	436010	keystroke_u	u	n/a
218.436	0.1285	436872	keystroke_m	m	n/a
218.7405	0.1205	437481	keystroke_Key.enter	Key.enter	n/a
218.866	7.9475	437732	prompt	n/a	supervisors based chicago females\n
219.605	0.144	439210	keystroke_s	s	n/a
219.741	0.128	439482	keystroke_u	u	n/a
219.845	0.192	439690	keystroke_p	p	n/a
219.981	0.16	439962	keystroke_e	e	n/a
220.053	0.096	440106	keystroke_r	r	n/a
220.253	0.12	440506	keystroke_v	v	n/a
220.421	0.112	440842	keystroke_i	i	n/a
220.613	0.096	441226	keystroke_s	s	n/a
220.757	0.096	441514	keystroke_o	o	n/a
220.893	0.104	441786	keystroke_r	r	n/a
221.3325	0.136	442665	keystroke_s	s	n/a
221.4765	0.12	442953	keystroke_Key.space	Key.space	n/a
221.6045	0.144	443209	keystroke_b	b	n/a
221.6845	0.248	443369	keystroke_a	a	n/a
221.8125	0.1755	443625	keystroke_s	s	n/a
221.9165	0.0955	443833	keystroke_e	e	n/a
222.084	0.136	444168	keystroke_d	d	n/a
222.228	0.088	444456	keystroke_Key.space	Key.space	n/a
222.596	0.136	445192	keystroke_h	h	n/a
223.02	0.096	446040	keystroke_Key.backspace	Key.backspace	n/a
223.156	0.096	446312	keystroke_c	c	n/a
223.324	0.08	446648	keystroke_h	h	n/a
223.492	0.088	446984	keystroke_i	i	n/a
223.581	0.095	447162	keystroke_c	c	n/a
223.74	0.136	447480	keystroke_a	a	n/a
223.964	0.088	447928	keystroke_g	g	n/a
224.236	0.112	448472	keystroke_o	o	n/a
224.468	0.112	448936	keystroke_Key.space	Key.space	n/a
224.628	0.104	449256	keystroke_f	f	n/a
224.78	0.112	449560	keystroke_e	e	n/a
224.868	0.121	449736	keystroke_m	m	n/a
224.972	0.128	449944	keystroke_a	a	n/a
225.084	0.144	450168	keystroke_l	l	n/a
225.213	0.095	450426	keystroke_e	e	n/a
225.292	0.12	450584	keystroke_s	s	n/a
226.708	0.104	453416	keystroke_Key.enter	Key.enter	n/a
226.8165	9.838	453633	prompt	n/a	audience encyclopedia trackback firewire\n
227.62	0.152	455240	keystroke_a	a	n/a
227.788	0.128	455576	keystroke_u	u	n/a
227.892	0.12	455784	keystroke_d	d	n/a
228.02	0.0885	456040	keystroke_i	i	n/a
228.1485	0.08	456297	keystroke_e	e	n/a
228.2365	0.112	456473	keystroke_n	n	n/a
228.3805	0.088	456761	keystroke_c	c	n/a
228.5325	0.096	457065	keystroke_e	e	n/a
228.6205	0.104	457241	keystroke_Key.space	Key.space	n/a
228.7005	0.096	457401	keystroke_e	e	n/a
228.8365	0.136	457673	keystroke_n	n	n/a
229.1085	0.136	458217	keystroke_c	c	n/a
229.3405	0.0875	458681	keystroke_y	y	n/a
230.436	0.128	460872	keystroke_c	c	n/a
230.604	0.08	461208	keystroke_l	l	n/a
230.78	0.096	461560	keystroke_o	o	n/a
230.964	0.1765	461928	keystroke_p	p	n/a
231.076	0.0805	462152	keystroke_e	e	n/a
231.2205	0.12	462441	keystroke_d	d	n/a
231.3245	0.104	462649	keystroke_i	i	n/a
231.4125	0.12	462825	keystroke_a	a	n/a
231.5965	0.096	463193	keystroke_Key.space	Key.space	n/a
232.9085	0.112	465817	keystroke_t	t	n/a
233.0925	0.12	466185	keystroke_r	r	n/a
233.1565	0.256	466313	keystroke_a	a	n/a
233.3885	0.128	466777	keystroke_c	c	n/a
233.5235	0.089	467047	keystroke_k	k	n/a
233.7885	0.12	467577	keystroke_b	b	n/a
233.8765	0.216	467753	keystroke_a	a	n/a
233.9885	0.128	467977	keystroke_c	c	n/a
234.5235	0.096	469047	keystroke_k	k	n/a
234.6525	0.143	469305	keystroke_Key.space	Key.space	n/a
235.012	0.096	470024	keystroke_f	f	n/a
235.14	0.112	470280	keystroke_i	i	n/a
235.236	0.152	470472	keystroke_r	r	n/a
235.324	0.088	470648	keystroke_e	e	n/a
235.508	0.112	471016	keystroke_w	w	n/a
235.636	0.112	471272	keystroke_i	i	n/a
235.732	0.152	471464	keystroke_r	r	n/a
235.812	0.096	471624	keystroke_e	e	n/a
236.516	0.136	473032	keystroke_Key.enter	Key.enter	n/a
236.658	4.8595	473316	prompt	n/a	abilities format ball sunshine\n
237.348	0.168	474696	keystroke_a	a	n/a
237.564	0.112	475128	keystroke_b	b	n/a
237.772	0.08	475544	keystroke_i	i	n/a
237.956	0.112	475912	keystroke_l	l	n/a
238.116	0.088	476232	keystroke_i	i	n/a
238.3	0.08	476600	keystroke_t	t	n/a
238.372	0.072	476744	keystroke_i	i	n/a
238.468	0.192	476936	keystroke_e	e	n/a
238.564	0.168	477128	keystroke_s	s	n/a
238.66	0.152	477320	keystroke_Key.space	Key.space	n/a
238.764	0.088	477528	keystroke_f	f	n/a
238.876	0.08	477752	keystroke_o	o	n/a
238.98	0.056	477960	keystroke_r	r	n/a
239.06	0.112	478120	keystroke_m	m	n/a
239.1565	0.1355	478313	keystroke_a	a	n/a
239.292	0.096	478584	keystroke_t	t	n/a
239.444	0.1045	478888	keystroke_Key.space	Key.space	n/a
239.596	0.136	479192	keystroke_b	b	n/a
239.6845	0.128	479369	keystroke_a	a	n/a
239.876	0.072	479752	keystroke_l	l	n/a
240.0195	0.129	480039	keystroke_l	l	n/a
240.092	0.1285	480184	keystroke_Key.space	Key.space	n/a
240.2365	0.152	480473	keystroke_s	s	n/a
240.3805	0.12	480761	keystroke_u	u	n/a
240.6045	0.112	481209	keystroke_n	n	n/a
240.7485	0.104	481497	keystroke_s	s	n/a
240.868	0.072	481736	keystroke_h	h	n/a
241.044	0.064	482088	keystroke_i	i	n/a
241.164	0.096	482328	keystroke_n	n	n/a
241.228	0.08	482456	keystroke_e	e	n/a
241.42	0.096	482840	keystroke_Key.enter	Key.enter	n/a
241.5225	5.659	483045	prompt	n/a	african computed angeles died\n
242.196	0.144	484392	keystroke_a	a	n/a
242.38	0.112	484760	keystroke_f	f	n/a
242.588	0.088	485176	keystroke_r	r	n/a
242.684	0.128	485368	keystroke_i	i	n/a
242.82	0.144	485640	keystroke_c	c	n/a
242.948	0.16	485896	keystroke_a	a	n/a
243.036	0.136	486072	keystroke_n	n	n/a
243.148	0.128	486296	keystroke_Key.space	Key.space	n/a
243.292	0.128	486584	keystroke_s	s	n/a
243.6125	0.112	487225	keystroke_Key.backspace	Key.backspace	n/a
243.7565	0.12	487513	keystroke_c	c	n/a
243.9485	0.096	487897	keystroke_o	o	n/a
244.1085	0.1355	488217	keystroke_m	m	n/a
244.316	0.136	488632	keystroke_p	p	n/a
244.428	0.152	488856	keystroke_u	u	n/a
244.564	0.12	489128	keystroke_t	t	n/a
244.692	0.088	489384	keystroke_e	e	n/a
244.86	0.152	489720	keystroke_d	d	n/a
244.956	0.128	489912	keystroke_Key.space	Key.space	n/a
245.02	0.168	490040	keystroke_a	a	n/a
245.14	0.12	490280	keystroke_n	n	n/a
245.316	0.08	490632	keystroke_g	g	n/a
245.516	0.08	491032	keystroke_e	e	n/a
245.636	0.1355	491272	keystroke_l	l	n/a
245.74	0.056	491480	keystroke_e	e	n/a
245.924	0.12	491848	keystroke_s	s	n/a
246.068	0.112	492136	keystroke_Key.space	Key.space	n/a
246.452	0.12	492904	keystroke_d	d	n/a
246.636	0.088	493272	keystroke_i	i	n/a
246.732	0.048	493464	keystroke_e	e	n/a
246.868	0.08	493736	keystroke_d	d	n/a
247.076	0.104	494152	keystroke_Key.enter	Key.enter	n/a
247.1855	5.652	494371	prompt	n/a	revenues filing back reported\n
248.124	0.184	496248	keystroke_r	r	n/a
248.236	0.112	496472	keystroke_e	e	n/a
248.436	0.128	496872	keystroke_v	v	n/a
248.62	0.112	497240	keystroke_e	e	n/a
249.26	0.12	498520	keystroke_n	n	n/a
249.532	0.1115	499064	keystroke_u	u	n/a
249.6515	0.072	499303	keystroke_e	e	n/a
249.812	0.1275	499624	keystroke_s	s	n/a
249.9315	0.104	499863	keystroke_Key.space	Key.space	n/a
250.1315	0.1045	500263	keystroke_f	f	n/a
250.252	0.072	500504	keystroke_i	i	n/a
250.396	0.112	500792	keystroke_l	l	n/a
250.588	0.064	501176	keystroke_i	i	n/a
250.708	0.152	501416	keystroke_n	n	n/a
250.82	0.136	501640	keystroke_g	g	n/a
250.9	0.104	501800	keystroke_Key.space	Key.space	n/a
250.996	0.104	501992	keystroke_b	b	n/a
251.052	0.2	502104	keystroke_a	a	n/a
251.236	0.08	502472	keystroke_c	c	n/a
251.3	0.08	502600	keystroke_k	k	n/a
251.452	0.096	502904	keystroke_Key.space	Key.space	n/a
251.58	0.184	503160	keystroke_r	r	n/a
251.684	0.104	503368	keystroke_e	e	n/a
251.812	0.112	503624	keystroke_p	p	n/a
251.988	0.136	503976	keystroke_o	o	n/a
252.1	0.056	504200	keystroke_r	r	n/a
252.236	0.112	504472	keystroke_t	t	n/a
252.356	0.112	504712	keystroke_e	e	n/a
252.54	0.1355	505080	keystroke_d	d	n/a
252.7075	0.128	505415	keystroke_Key.enter	Key.enter	n/a
252.8405	4.853	505681	prompt	n/a	fisher prefer determines ferry\n
253.5005	0.143	507001	keystroke_f	f	n/a
253.6755	0.072	507351	keystroke_i	i	n/a
253.788	0.071	507576	keystroke_s	s	n/a
253.867	0.1285	507734	keystroke_h	h	n/a
253.9965	0.143	507993	keystroke_e	e	n/a
254.0835	0.144	508167	keystroke_r	r	n/a
254.1875	0.112	508375	keystroke_Key.space	Key.space	n/a
254.3235	0.152	508647	keystroke_p	p	n/a
254.4275	0.112	508855	keystroke_r	r	n/a
254.5155	0.104	509031	keystroke_e	e	n/a
254.6275	0.097	509255	keystroke_f	f	n/a
254.7315	0.152	509463	keystroke_e	e	n/a
254.8515	0.104	509703	keystroke_r	r	n/a
254.9875	0.104	509975	keystroke_Key.space	Key.space	n/a
255.3555	0.088	510711	keystroke_d	d	n/a
255.5315	0.12	511063	keystroke_e	e	n/a
255.6755	0.072	511351	keystroke_t	t	n/a
255.7715	0.16	511543	keystroke_e	e	n/a
255.8595	0.088	511719	keystroke_r	r	n/a
255.9395	0.112	511879	keystroke_m	m	n/a
256.14	0.096	512280	keystroke_i	i	n/a
256.244	0.176	512488	keystroke_n	n	n/a
256.308	0.2	512616	keystroke_e	e	n/a
256.412	0.12	512824	keystroke_s	s	n/a
256.492	0.152	512984	keystroke_Key.space	Key.space	n/a
256.62	0.1115	513240	keystroke_f	f	n/a
256.8035	0.08	513607	keystroke_e	e	n/a
257.0435	0.056	514087	keystroke_r	r	n/a
257.1475	0.088	514295	keystroke_r	r	n/a
257.2995	0.104	514599	keystroke_y	y	n/a
257.5795	0.112	515159	keystroke_Key.enter	Key.enter	n/a
257.696	7.0135	515392	prompt	n/a	glen underlying meyer abandoned\n
258.4995	0.096	516999	keystroke_g	g	n/a
258.6995	0.08	517399	keystroke_l	l	n/a
258.7955	0.072	517591	keystroke_e	e	n/a
258.8995	0.12	517799	keystroke_n	n	n/a
259.0035	0.112	518007	keystroke_Key.space	Key.space	n/a
259.1635	0.08	518327	keystroke_u	u	n/a
259.348	0.095	518696	keystroke_n	n	n/a
259.451	0.096	518902	keystroke_d	d	n/a
259.659	0.153	519318	keystroke_e	e	n/a
259.779	0.073	519558	keystroke_r	r	n/a
259.852	0.087	519704	keystroke_l	l	n/a
260.051	0.121	520102	keystroke_y	y	n/a
260.284	0.135	520568	keystroke_i	i	n/a
260.436	0.128	520872	keystroke_n	n	n/a
260.515	0.184	521030	keystroke_g	g	n/a
260.635	0.088	521270	keystroke_Key.space	Key.space	n/a
260.691	0.137	521382	keystroke_m	m	n/a
260.828	0.111	521656	keystroke_e	e	n/a
261.011	0.096	522022	keystroke_y	y	n/a
261.123	0.232	522246	keystroke_e	e	n/a
261.259	0.104	522518	keystroke_r	r	n/a
261.427	0.088	522854	keystroke_Key.space	Key.space	n/a
261.755	0.144	523510	keystroke_a	a	n/a
261.924	0.104	523848	keystroke_b	b	n/a
262.123	0.144	524246	keystroke_a	a	n/a
262.235	0.145	524470	keystroke_n	n	n/a
262.363	0.105	524726	keystroke_d	d	n/a
262.588	0.096	525176	keystroke_o	o	n/a
262.828	0.12	525656	keystroke_n	n	n/a
263.02	0.096	526040	keystroke_e	e	n/a
263.836	0.079	527672	keystroke_d	d	n/a
264.588	0.119	529176	keystroke_Key.enter	Key.enter	n/a
264.714	7.171	529428	prompt	n/a	together fist bacon dubai\n
265.5955	0.0955	531191	keystroke_t	t	n/a
265.707	0.1365	531414	keystroke_o	o	n/a
265.811	0.0725	531622	keystroke_g	g	n/a
265.9715	0.112	531943	keystroke_e	e	n/a
266.1235	0.096	532247	keystroke_t	t	n/a
266.2515	0.12	532503	keystroke_h	h	n/a
266.3235	0.192	532647	keystroke_e	e	n/a
266.4035	0.144	532807	keystroke_r	r	n/a
266.5075	0.128	533015	keystroke_Key.space	Key.space	n/a
266.7395	0.104	533479	keystroke_f	f	n/a
266.8675	0.088	533735	keystroke_i	i	n/a
267.3395	0.096	534679	keystroke_s	s	n/a
267.5315	0.152	535063	keystroke_t	t	n/a
267.6355	0.112	535271	keystroke_Key.space	Key.space	n/a
268.923	0.1205	537846	keystroke_b	b	n/a
269.0355	0.192	538071	keystroke_a	a	n/a
269.2115	0.12	538423	keystroke_c	c	n/a
269.7555	0.104	539511	keystroke_o	o	n/a
269.9155	0.128	539831	keystroke_n	n	n/a
270.0275	0.144	540055	keystroke_Key.space	Key.space	n/a
270.2995	0.08	540599	keystroke_d	d	n/a
270.4275	0.088	540855	keystroke_u	u	n/a
270.6755	0.104	541351	keystroke_b	b	n/a
271.1955	0.136	542391	keystroke_a	a	n/a
271.4275	0.072	542855	keystroke_i	i	n/a
271.7715	0.112	543543	keystroke_Key.enter	Key.enter	n/a
271.888	5.981	543776	prompt	n/a	attitude sheet roof for\n
272.4355	0.184	544871	keystroke_a	a	n/a
272.6435	0.064	545287	keystroke_t	t	n/a
272.6515	0.016	545303	keystroke_a	a	n/a
272.7555	0.096	545511	keystroke_t	t	n/a
272.8675	0.096	545735	keystroke_i	i	n/a
272.9715	0.104	545943	keystroke_t	t	n/a
273.0675	0.08	546135	keystroke_u	u	n/a
273.3475	0.072	546695	keystroke_Key.backspace	Key.backspace	n/a
273.4915	0.064	546983	keystroke_Key.backspace	Key.backspace	n/a
273.6435	0.056	547287	keystroke_Key.backspace	Key.backspace	n/a
273.7715	0.08	547543	keystroke_Key.backspace	Key.backspace	n/a
273.9075	0.136	547815	keystroke_Key.backspace	Key.backspace	n/a
274.3075	0.088	548615	keystroke_t	t	n/a
274.444	0.0795	548888	keystroke_i	i	n/a
274.8515	0.088	549703	keystroke_t	t	n/a
274.9555	0.08	549911	keystroke_u	u	n/a
275.0675	0.16	550135	keystroke_d	d	n/a
275.515	0.12	551030	keystroke_e	e	n/a
275.627	0.128	551254	keystroke_Key.space	Key.space	n/a
275.747	0.08	551494	keystroke_s	s	n/a
275.883	0.12	551766	keystroke_h	h	n/a
276.011	0.04	552022	keystroke_e	e	n/a
276.107	0.096	552214	keystroke_e	e	n/a
276.355	0.104	552710	keystroke_t	t	n/a
276.483	0.128	552966	keystroke_Key.space	Key.space	n/a
276.643	0.104	553286	keystroke_r	r	n/a
276.755	0.064	553510	keystroke_o	o	n/a
276.875	0.104	553750	keystroke_o	o	n/a
276.995	0.16	553990	keystroke_f	f	n/a
277.203	0.12	554406	keystroke_Key.space	Key.space	n/a
277.339	0.104	554678	keystroke_f	f	n/a
277.475	0.088	554950	keystroke_o	o	n/a
277.547	0.072	555094	keystroke_r	r	n/a
277.747	0.12	555494	keystroke_Key.enter	Key.enter	n/a
277.8715	5.101	555743	prompt	n/a	south treasures chains seattle\n
278.6435	0.104	557287	keystroke_s	s	n/a
278.7635	0.144	557527	keystroke_o	o	n/a
278.8675	0.104	557735	keystroke_u	u	n/a
278.9875	0.095	557975	keystroke_t	t	n/a
279.091	0.1285	558182	keystroke_h	h	n/a
279.179	0.1285	558358	keystroke_Key.space	Key.space	n/a
279.3395	0.0795	558679	keystroke_t	t	n/a
279.5	0.192	559000	keystroke_r	r	n/a
279.596	0.159	559192	keystroke_e	e	n/a
279.699	0.12	559398	keystroke_a	a	n/a
279.883	0.064	559766	keystroke_s	s	n/a
280.019	0.112	560038	keystroke_u	u	n/a
280.099	0.153	560198	keystroke_r	r	n/a
280.171	0.089	560342	keystroke_e	e	n/a
280.331	0.128	560662	keystroke_s	s	n/a
280.491	0.096	560982	keystroke_Key.space	Key.space	n/a
280.771	0.096	561542	keystroke_c	c	n/a
280.891	0.104	561782	keystroke_h	h	n/a
280.987	0.096	561974	keystroke_a	a	n/a
281.092	0.063	562184	keystroke_i	i	n/a
281.203	0.136	562406	keystroke_n	n	n/a
281.267	0.104	562534	keystroke_s	s	n/a
281.379	0.12	562758	keystroke_Key.space	Key.space	n/a
281.483	0.104	562966	keystroke_s	s	n/a
281.667	0.104	563334	keystroke_e	e	n/a
281.739	0.144	563478	keystroke_a	a	n/a
282.107	0.0965	564214	keystroke_t	t	n/a
282.2995	0.064	564599	keystroke_l	l	n/a
282.4435	0.096	564887	keystroke_l	l	n/a
282.5555	0.0715	565111	keystroke_e	e	n/a
282.875	0.096	565750	keystroke_Key.enter	Key.enter	n/a
282.9755	6.509	565951	prompt	n/a	that'd collectors products geometry\n
283.772	0.103	567544	keystroke_t	t	n/a
283.883	0.1365	567766	keystroke_h	h	n/a
283.915	0.1205	567830	keystroke_a	a	n/a
284.0035	0.096	568007	keystroke_t	t	n/a
284.1235	0.128	568247	keystroke_'	'	n/a
284.2835	0.1675	568567	keystroke_d	d	n/a
284.4355	0.0875	568871	keystroke_Key.space	Key.space	n/a
284.707	0.088	569414	keystroke_c	c	n/a
284.771	0.064	569542	keystroke_o	o	n/a
284.923	0.064	569846	keystroke_l	l	n/a
285.019	0.136	570038	keystroke_l	l	n/a
285.091	0.096	570182	keystroke_e	e	n/a
285.283	0.1115	570566	keystroke_c	c	n/a
285.523	0.0635	571046	keystroke_t	t	n/a
285.619	0.1115	571238	keystroke_o	o	n/a
285.6905	0.1215	571381	keystroke_r	r	n/a
285.7945	0.1285	571589	keystroke_s	s	n/a
285.8825	0.112	571765	keystroke_Key.space	Key.space	n/a
285.9545	0.096	571909	keystroke_p	p	n/a
286.0585	0.104	572117	keystroke_r	r	n/a
286.1465	0.12	572293	keystroke_o	o	n/a
286.827	0.088	573654	keystroke_d	d	n/a
286.971	0.088	573942	keystroke_u	u	n/a
287.147	0.096	574294	keystroke_c	c	n/a
287.379	0.096	574758	keystroke_t	t	n/a
287.515	0.136	575030	keystroke_s	s	n/a
287.611	0.128	575222	keystroke_Key.space	Key.space	n/a
287.723	0.089	575446	keystroke_g	g	n/a
287.875	0.08	575750	keystroke_e	e	n/a
288.0275	0.12	576055	keystroke_o	o	n/a
288.2915	0.128	576583	keystroke_m	m	n/a
288.4355	0.096	576871	keystroke_e	e	n/a
288.6275	0.072	577255	keystroke_t	t	n/a
288.7635	0.088	577527	keystroke_r	r	n/a
288.8435	0.096	577687	keystroke_y	y	n/a
289.3715	0.112	578743	keystroke_Key.enter	Key.enter	n/a
289.4905	8.146	578981	prompt	n/a	cheap textile symantec depression\n
290.2035	0.104	580407	keystroke_c	c	n/a
290.2985	0.136	580597	keystroke_h	h	n/a
290.4115	0.095	580823	keystroke_e	e	n/a
290.4905	0.168	580981	keystroke_a	a	n/a
290.6505	0.136	581301	keystroke_p	p	n/a
290.8105	0.104	581621	keystroke_Key.space	Key.space	n/a
290.9945	0.153	581989	keystroke_t	t	n/a
291.1065	0.104	582213	keystroke_e	e	n/a
291.3145	0.128	582629	keystroke_x	x	n/a
291.8915	0.08	583783	keystroke_t	t	n/a
292.0355	0.072	584071	keystroke_i	i	n/a
292.1875	0.16	584375	keystroke_l	l	n/a
292.2835	0.112	584567	keystroke_e	e	n/a
292.3875	0.096	584775	keystroke_Key.space	Key.space	n/a
292.6515	0.04	585303	keystroke_g	g	n/a
293.0035	0.088	586007	keystroke_Key.backspace	Key.backspace	n/a
293.1475	0.096	586295	keystroke_s	s	n/a
293.2995	0.096	586599	keystroke_y	y	n/a
293.5635	0.12	587127	keystroke_m	m	n/a
293.9235	0.12	587847	keystroke_a	a	n/a
294.0595	0.104	588119	keystroke_n	n	n/a
294.2675	0.096	588535	keystroke_t	t	n/a
294.3955	0.112	588791	keystroke_e	e	n/a
294.6115	0.112	589223	keystroke_c	c	n/a
294.827	0.104	589654	keystroke_Key.space	Key.space	n/a
295.067	0.104	590134	keystroke_d	d	n/a
295.259	0.0885	590518	keystroke_e	e	n/a
295.7385	0.16	591477	keystroke_p	p	n/a
295.8825	0.176	591765	keystroke_r	r	n/a
295.9545	0.12	591909	keystroke_e	e	n/a
296.1385	0.072	592277	keystroke_s	s	n/a
296.267	0.128	592534	keystroke_s	s	n/a
296.403	0.12	592806	keystroke_i	i	n/a
296.523	0.168	593046	keystroke_o	o	n/a
296.643	0.128	593286	keystroke_n	n	n/a
297.531	0.104	595062	keystroke_Key.enter	Key.enter	n/a
297.64	3.7085	595280	prompt	n/a	drove sale can't foot\n
298.4115	0.104	596823	keystroke_d	d	n/a
298.6275	0.064	597255	keystroke_r	r	n/a
298.7155	0.152	597431	keystroke_o	o	n/a
298.8195	0.119	597639	keystroke_v	v	n/a
299.0025	0.096	598005	keystroke_e	e	n/a
299.1065	0.112	598213	keystroke_Key.space	Key.space	n/a
299.1865	0.12	598373	keystroke_s	s	n/a
299.2745	0.136	598549	keystroke_a	a	n/a
299.4025	0.144	598805	keystroke_l	l	n/a
299.5225	0.12	599045	keystroke_e	e	n/a
299.6105	0.112	599221	keystroke_Key.space	Key.space	n/a
299.8115	0.151	599623	keystroke_c	c	n/a
299.9305	0.16	599861	keystroke_a	a	n/a
300.0265	0.112	600053	keystroke_n	n	n/a
300.2025	0.136	600405	keystroke_'	'	n/a
300.3225	0.12	600645	keystroke_t	t	n/a
300.4505	0.16	600901	keystroke_Key.space	Key.space	n/a
300.6265	0.096	601253	keystroke_f	f	n/a
300.7705	0.056	601541	keystroke_o	o	n/a
300.8905	0.12	601781	keystroke_o	o	n/a
301.0825	0.096	602165	keystroke_t	t	n/a
301.2505	0.096	602501	keystroke_Key.enter	Key.enter	n/a
301.367	7.814	602734	prompt	n/a	dock ventures agreements portions\n
302.075	0.128	604150	keystroke_d	d	n/a
302.243	0.136	604486	keystroke_o	o	n/a
302.387	0.112	604774	keystroke_c	c	n/a
302.587	0.096	605174	keystroke_k	k	n/a
302.763	0.136	605526	keystroke_Key.space	Key.space	n/a
303.155	0.112	606310	keystroke_v	v	n/a
303.363	0.096	606726	keystroke_e	e	n/a
303.459	0.104	606918	keystroke_n	n	n/a
303.611	0.096	607222	keystroke_t	t	n/a
303.787	0.112	607574	keystroke_u	u	n/a
303.859	0.208	607718	keystroke_r	r	n/a
303.939	0.216	607878	keystroke_e	e	n/a
304.051	0.152	608102	keystroke_s	s	n/a
304.156	0.135	608312	keystroke_Key.space	Key.space	n/a
304.467	0.104	608934	keystroke_a	a	n/a
304.659	0.072	609318	keystroke_g	g	n/a
304.803	0.08	609606	keystroke_g	g	n/a
305.403	0.104	610806	keystroke_Key.backspace	Key.backspace	n/a
305.667	0.144	611334	keystroke_r	r	n/a
305.867	0.08	611734	keystroke_e	e	n/a
305.971	0.12	611942	keystroke_e	e	n/a
306.411	0.128	612822	keystroke_m	m	n/a
306.523	0.088	613046	keystroke_e	e	n/a
306.651	0.096	613302	keystroke_n	n	n/a
306.731	0.088	613462	keystroke_t	t	n/a
306.835	0.096	613670	keystroke_s	s	n/a
306.923	0.12	613846	keystroke_Key.space	Key.space	n/a
307.107	0.112	614214	keystroke_p	p	n/a
307.363	0.152	614726	keystroke_o	o	n/a
307.491	0.08	614982	keystroke_r	r	n/a
307.659	0.096	615318	keystroke_t	t	n/a
307.763	0.088	615526	keystroke_i	i	n/a
307.963	0.08	615926	keystroke_o	o	n/a
308.147	0.104	616294	keystroke_n	n	n/a
308.627	0.104	617254	keystroke_s	s	n/a
309.051	0.1285	618102	keystroke_Key.enter	Key.enter	n/a
309.1885	6.9515	618377	prompt	n/a	raymond tasks accordingly apple\n
309.9305	0.144	619861	keystroke_r	r	n/a
310.0105	0.152	620021	keystroke_a	a	n/a
310.1635	0.119	620327	keystroke_y	y	n/a
310.4505	0.12	620901	keystroke_m	m	n/a
310.6745	0.096	621349	keystroke_o	o	n/a
310.8905	0.12	621781	keystroke_n	n	n/a
311.0265	0.168	622053	keystroke_d	d	n/a
311.1705	0.112	622341	keystroke_Key.space	Key.space	n/a
311.3225	0.136	622645	keystroke_t	t	n/a
311.4265	0.192	622853	keystroke_a	a	n/a
311.5705	0.12	623141	keystroke_s	s	n/a
311.7545	0.088	623509	keystroke_k	k	n/a
311.8745	0.104	623749	keystroke_s	s	n/a
312.0905	0.096	624181	keystroke_Key.space	Key.space	n/a
312.5545	0.12	625109	keystroke_a	a	n/a
312.8345	0.073	625669	keystroke_c	c	n/a
312.9705	0.08	625941	keystroke_c	c	n/a
313.1305	0.152	626261	keystroke_o	o	n/a
313.2425	0.152	626485	keystroke_r	r	n/a
313.3865	0.136	626773	keystroke_d	d	n/a
313.5385	0.072	627077	keystroke_i	i	n/a
313.6905	0.112	627381	keystroke_n	n	n/a
313.8115	0.071	627623	keystroke_g	g	n/a
313.9785	0.096	627957	keystroke_l	l	n/a
314.2265	0.128	628453	keystroke_y	y	n/a
314.4345	0.128	628869	keystroke_Key.space	Key.space	n/a
314.5385	0.16	629077	keystroke_a	a	n/a
314.8425	0.104	629685	keystroke_p	p	n/a
315.0265	0.176	630053	keystroke_p	p	n/a
315.4025	0.128	630805	keystroke_l	l	n/a
315.7225	0.104	631445	keystroke_e	e	n/a
316.0185	0.12	632037	keystroke_Key.enter	Key.enter	n/a
316.1445	8.8995	632289	prompt	n/a	portrait finland rear attitudes\n
316.9785	0.12	633957	keystroke_p	p	n/a
317.1945	0.176	634389	keystroke_o	o	n/a
317.3225	0.08	634645	keystroke_r	r	n/a
317.4905	0.056	634981	keystroke_t	t	n/a
317.9385	0.1275	635877	keystroke_r	r	n/a
318.082	0.12	636164	keystroke_a	a	n/a
318.218	0.088	636436	keystroke_i	i	n/a
318.4745	0.1765	636949	keystroke_t	t	n/a
318.6345	0.1195	637269	keystroke_Key.space	Key.space	n/a
318.8345	0.1195	637669	keystroke_f	f	n/a
318.962	0.0805	637924	keystroke_i	i	n/a
319.058	0.1365	638116	keystroke_n	n	n/a
319.33	0.12	638660	keystroke_l	l	n/a
319.442	0.1045	638884	keystroke_a	a	n/a
319.602	0.088	639204	keystroke_n	n	n/a
319.7225	0.168	639445	keystroke_d	d	n/a
319.9145	0.12	639829	keystroke_Key.space	Key.space	n/a
320.1785	0.216	640357	keystroke_r	r	n/a
320.3065	0.12	640613	keystroke_e	e	n/a
320.5145	0.032	641029	keystroke_e	e	n/a
320.5545	0.144	641109	keystroke_a	a	n/a
321.0745	0.12	642149	keystroke_Key.backspace	Key.backspace	n/a
321.2345	0.112	642469	keystroke_r	r	n/a
321.7225	0.064	643445	keystroke_Key.backspace	Key.backspace	n/a
321.8585	0.104	643717	keystroke_Key.backspace	Key.backspace	n/a
321.9545	0.168	643909	keystroke_a	a	n/a
322.0745	0.104	644149	keystroke_r	r	n/a
322.6745	0.136	645349	keystroke_Key.space	Key.space	n/a
322.8025	0.216	645605	keystroke_a	a	n/a
322.9465	0.056	645893	keystroke_t	t	n/a
323.0585	0.088	646117	keystroke_t	t	n/a
323.1625	0.088	646325	keystroke_i	i	n/a
323.2665	0.104	646533	keystroke_t	t	n/a
323.3715	0.087	646743	keystroke_u	u	n/a
323.498	0.104	646996	keystroke_d	d	n/a
323.723	0.095	647446	keystroke_e	e	n/a
323.938	0.096	647876	keystroke_s	s	n/a
324.9225	0.12	649845	keystroke_Key.enter	Key.enter	n/a
325.0465	6.8215	650093	prompt	n/a	advertisers jennifer speeches featured\n
325.8105	0.144	651621	keystroke_a	a	n/a
326.0425	0.128	652085	keystroke_d	d	n/a
326.914	0.096	653828	keystroke_v	v	n/a
327.17	0.16	654340	keystroke_e	e	n/a
327.282	0.056	654564	keystroke_r	r	n/a
327.418	0.1205	654836	keystroke_t	t	n/a
327.5625	0.104	655125	keystroke_i	i	n/a
327.6745	0.064	655349	keystroke_s	s	n/a
327.8425	0.16	655685	keystroke_e	e	n/a
327.9545	0.144	655909	keystroke_r	r	n/a
328.0905	0.144	656181	keystroke_s	s	n/a
328.1865	0.152	656373	keystroke_Key.space	Key.space	n/a
328.3945	0.128	656789	keystroke_j	j	n/a
328.5145	0.088	657029	keystroke_e	e	n/a
328.6505	0.064	657301	keystroke_n	n	n/a
328.7705	0.088	657541	keystroke_n	n	n/a
328.9625	0.0875	657925	keystroke_i	i	n/a
329.058	0.104	658116	keystroke_f	f	n/a
329.2185	0.1915	658437	keystroke_e	e	n/a
329.3225	0.112	658645	keystroke_r	r	n/a
329.4185	0.12	658837	keystroke_Key.space	Key.space	n/a
329.5065	0.104	659013	keystroke_s	s	n/a
329.618	0.1045	659236	keystroke_p	p	n/a
329.7145	0.0635	659429	keystroke_e	e	n/a
329.8115	0.1265	659623	keystroke_e	e	n/a
330.0985	0.112	660197	keystroke_c	c	n/a
330.2425	0.12	660485	keystroke_h	h	n/a
330.3305	0.208	660661	keystroke_e	e	n/a
330.4345	0.128	660869	keystroke_s	s	n/a
330.5385	0.136	661077	keystroke_Key.space	Key.space	n/a
330.7225	0.088	661445	keystroke_f	f	n/a
330.8745	0.128	661749	keystroke_e	e	n/a
330.9545	0.1595	661909	keystroke_a	a	n/a
331.098	0.088	662196	keystroke_t	t	n/a
331.218	0.1205	662436	keystroke_u	u	n/a
331.2905	0.184	662581	keystroke_r	r	n/a
331.4025	0.104	662805	keystroke_e	e	n/a
331.594	0.0965	663188	keystroke_d	d	n/a
331.7625	0.104	663525	keystroke_Key.enter	Key.enter	n/a
331.871	10.917	663742	prompt	n/a	replaced legends parliamentary supplemental\n
332.8025	0.184	665605	keystroke_r	r	n/a
332.8985	0.12	665797	keystroke_e	e	n/a
333.0905	0.088	666181	keystroke_p	p	n/a
333.2745	0.168	666549	keystroke_l	l	n/a
333.3545	0.224	666709	keystroke_a	a	n/a
333.5065	0.1125	667013	keystroke_c	c	n/a
333.698	0.081	667396	keystroke_e	e	n/a
333.859	0.168	667718	keystroke_d	d	n/a
334.067	0.128	668134	keystroke_Key.space	Key.space	n/a
334.578	0.136	669156	keystroke_l	l	n/a
334.683	0.08	669366	keystroke_e	e	n/a
334.882	0.104	669764	keystroke_g	g	n/a
335.05	0.104	670100	keystroke_e	e	n/a
335.17	0.112	670340	keystroke_n	n	n/a
335.29	0.12	670580	keystroke_d	d	n/a
335.522	0.12	671044	keystroke_s	s	n/a
335.643	0.103	671286	keystroke_Key.space	Key.space	n/a
335.8345	0.168	671669	keystroke_p	p	n/a
335.9465	0.1995	671893	keystroke_a	a	n/a
336.098	0.08	672196	keystroke_r	r	n/a
336.763	0.096	673526	keystroke_l	l	n/a
337.01	0.088	674020	keystroke_i	i	n/a
337.1305	0.12	674261	keystroke_a	a	n/a
337.3625	0.096	674725	keystroke_m	m	n/a
337.4665	0.096	674933	keystroke_e	e	n/a
337.6265	0.112	675253	keystroke_n	n	n/a
337.7625	0.096	675525	keystroke_t	t	n/a
337.8825	0.136	675765	keystroke_a	a	n/a
338.1225	0.112	676245	keystroke_r	r	n/a
338.2505	0.104	676501	keystroke_y	y	n/a
338.466	0.1365	676932	keystroke_Key.space	Key.space	n/a
338.7945	0.144	677589	keystroke_s	s	n/a
338.9545	0.112	677909	keystroke_u	u	n/a
339.1625	0.096	678325	keystroke_p	p	n/a
339.3625	0.064	678725	keystroke_p	p	n/a
339.4905	0.096	678981	keystroke_p	p	n/a
340.026	0.08	680052	keystroke_Key.backspace	Key.backspace	n/a
340.618	0.112	681236	keystroke_l	l	n/a
340.778	0.104	681556	keystroke_e	e	n/a
341.306	0.088	682612	keystroke_m	m	n/a
341.435	0.103	682870	keystroke_e	e	n/a
341.554	0.104	683108	keystroke_n	n	n/a
341.674	0.112	683348	keystroke_t	t	n/a
341.746	0.168	683492	keystroke_a	a	n/a
342.362	0.12	684724	keystroke_l	l	n/a
342.666	0.12	685332	keystroke_Key.enter	Key.enter	n/a
342.792	4.516	685584	prompt	n/a	holidays manage tile quad\n
343.466	0.144	686932	keystroke_h	h	n/a
343.634	0.096	687268	keystroke_o	o	n/a
343.834	0.072	687668	keystroke_l	l	n/a
343.962	0.12	687924	keystroke_i	i	n/a
344.026	0.16	688052	keystroke_d	d	n/a
344.138	0.112	688276	keystroke_a	a	n/a
344.234	0.12	688468	keystroke_y	y	n/a
344.362	0.088	688724	keystroke_s	s	n/a
344.442	0.12	688884	keystroke_Key.space	Key.space	n/a
344.594	0.144	689188	keystroke_m	m	n/a
344.73	0.072	689460	keystroke_a	a	n/a
344.834	0.08	689668	keystroke_n	n	n/a
344.858	0.112	689716	keystroke_a	a	n/a
345.05	0.064	690100	keystroke_g	g	n/a
345.338	0.12	690676	keystroke_e	e	n/a
345.466	0.112	690932	keystroke_Key.space	Key.space	n/a
345.666	0.088	691332	keystroke_t	t	n/a
345.762	0.08	691524	keystroke_i	i	n/a
345.874	0.08	691748	keystroke_t	t	n/a
345.938	0.1205	691876	keystroke_l	l	n/a
346.042	0.104	692084	keystroke_e	e	n/a
346.13	0.12	692260	keystroke_Key.space	Key.space	n/a
346.338	0.128	692676	keystroke_q	q	n/a
346.474	0.12	692948	keystroke_u	u	n/a
346.602	0.1125	693204	keystroke_a	a	n/a
346.8985	0.104	693797	keystroke_d	d	n/a
347.1945	0.112	694389	keystroke_Key.enter	Key.enter	n/a
347.311	6.829	694622	prompt	n/a	realtor strong periodic interviews\n
348.37	0.064	696740	keystroke_t	t	n/a
348.754	0.088	697508	keystroke_Key.backspace	Key.backspace	n/a
348.858	0.184	697716	keystroke_r	r	n/a
348.938	0.16	697876	keystroke_e	e	n/a
349.066	0.16	698132	keystroke_a	a	n/a
349.186	0.112	698372	keystroke_l	l	n/a
349.41	0.064	698820	keystroke_t	t	n/a
349.546	0.128	699092	keystroke_o	o	n/a
349.642	0.12	699284	keystroke_r	r	n/a
349.754	0.128	699508	keystroke_Key.space	Key.space	n/a
349.93	0.112	699860	keystroke_s	s	n/a
350.098	0.08	700196	keystroke_t	t	n/a
350.242	0.096	700484	keystroke_r	r	n/a
350.33	0.144	700660	keystroke_o	o	n/a
350.426	0.192	700852	keystroke_n	n	n/a
350.53	0.128	701060	keystroke_g	g	n/a
350.634	0.1115	701268	keystroke_Key.space	Key.space	n/a
350.73	0.168	701460	keystroke_p	p	n/a
350.842	0.208	701684	keystroke_e	e	n/a
350.93	0.104	701860	keystroke_r	r	n/a
351.042	0.0645	702084	keystroke_i	i	n/a
351.2105	0.104	702421	keystroke_o	o	n/a
351.3385	0.096	702677	keystroke_d	d	n/a
351.746	0.0885	703492	keystroke_i	i	n/a
351.85	0.096	703700	keystroke_c	c	n/a
352.082	0.1125	704164	keystroke_Key.space	Key.space	n/a
352.3945	0.088	704789	keystroke_i	i	n/a
352.5145	0.168	705029	keystroke_n	n	n/a
352.6265	0.072	705253	keystroke_t	t	n/a
352.7065	0.2	705413	keystroke_e	e	n/a
352.8185	0.12	705637	keystroke_r	r	n/a
353.0505	0.112	706101	keystroke_v	v	n/a
353.2185	0.104	706437	keystroke_i	i	n/a
353.2825	0.168	706565	keystroke_e	e	n/a
353.4265	0.104	706853	keystroke_w	w	n/a
353.6185	0.088	707237	keystroke_s	s	n/a
354.0025	0.136	708005	keystroke_Key.enter	Key.enter	n/a
354.143	5.5805	708286	prompt	n/a	greater victim andy driven\n
354.7465	0.072	709493	keystroke_g	g	n/a
354.9145	0.168	709829	keystroke_r	r	n/a
355.0185	0.112	710037	keystroke_e	e	n/a
355.1065	0.16	710213	keystroke_a	a	n/a
355.2105	0.088	710421	keystroke_t	t	n/a
355.3385	0.208	710677	keystroke_e	e	n/a
355.4345	0.12	710869	keystroke_r	r	n/a
355.5065	0.112	711013	keystroke_Key.space	Key.space	n/a
356.0345	0.064	712069	keystroke_v	v	n/a
356.602	0.12	713204	keystroke_i	i	n/a
356.714	0.072	713428	keystroke_c	c	n/a
356.93	0.104	713860	keystroke_t	t	n/a
356.994	0.056	713988	keystroke_i	i	n/a
357.13	0.144	714260	keystroke_m	m	n/a
357.25	0.136	714500	keystroke_Key.space	Key.space	n/a
357.338	0.152	714676	keystroke_a	a	n/a
357.498	0.1285	714996	keystroke_n	n	n/a
357.6105	0.104	715221	keystroke_d	d	n/a
357.8105	0.112	715621	keystroke_y	y	n/a
358.0105	0.104	716021	keystroke_Key.space	Key.space	n/a
358.314	0.112	716628	keystroke_d	d	n/a
358.562	0.096	717124	keystroke_r	r	n/a
358.674	0.08	717348	keystroke_i	i	n/a
358.802	0.112	717604	keystroke_v	v	n/a
359.194	0.08	718388	keystroke_e	e	n/a
359.322	0.12	718644	keystroke_n	n	n/a
359.61	0.112	719220	keystroke_Key.enter	Key.enter	n/a
359.7275	5.364	719455	prompt	n/a	arabia decor merit tigers\n
360.394	0.176	720788	keystroke_a	a	n/a
360.594	0.136	721188	keystroke_r	r	n/a
360.722	0.1605	721444	keystroke_a	a	n/a
361.026	0.112	722052	keystroke_b	b	n/a
361.258	0.136	722516	keystroke_i	i	n/a
361.346	0.12	722692	keystroke_a	a	n/a
361.458	0.104	722916	keystroke_Key.space	Key.space	n/a
361.586	0.104	723172	keystroke_d	d	n/a
361.786	0.088	723572	keystroke_e	e	n/a
361.97	0.096	723940	keystroke_c	c	n/a
362.122	0.104	724244	keystroke_o	o	n/a
362.25	0.168	724500	keystroke_r	r	n/a
362.362	0.128	724724	keystroke_Key.space	Key.space	n/a
362.8905	0.168	725781	keystroke_m	m	n/a
363.0665	0.112	726133	keystroke_e	e	n/a
363.2265	0.104	726453	keystroke_r	r	n/a
363.4105	0.096	726821	keystroke_i	i	n/a
363.6025	0.144	727205	keystroke_t	t	n/a
363.7385	0.144	727477	keystroke_Key.space	Key.space	n/a
364.1145	0.096	728229	keystroke_t	t	n/a
364.2185	0.112	728437	keystroke_i	i	n/a
364.3305	0.08	728661	keystroke_g	g	n/a
364.5145	0.144	729029	keystroke_e	e	n/a
364.6265	0.12	729253	keystroke_r	r	n/a
364.7385	0.096	729477	keystroke_s	s	n/a
364.9625	0.1275	729925	keystroke_Key.enter	Key.enter	n/a
365.0945	5.541	730189	prompt	n/a	random seminars practices steady\n
365.866	0.144	731732	keystroke_r	r	n/a
365.946	0.136	731892	keystroke_a	a	n/a
366.082	0.128	732164	keystroke_n	n	n/a
366.194	0.096	732388	keystroke_d	d	n/a
366.338	0.088	732676	keystroke_o	o	n/a
366.474	0.144	732948	keystroke_m	m	n/a
366.634	0.088	733268	keystroke_Key.space	Key.space	n/a
366.73	0.081	733460	keystroke_s	s	n/a
366.874	0.096	733748	keystroke_e	e	n/a
366.994	0.1125	733988	keystroke_m	m	n/a
367.2015	0.056	734403	keystroke_i	i	n/a
367.3295	0.128	734659	keystroke_n	n	n/a
367.4255	0.128	734851	keystroke_a	a	n/a
367.5455	0.0805	735091	keystroke_r	r	n/a
367.674	0.12	735348	keystroke_s	s	n/a
367.77	0.12	735540	keystroke_Key.space	Key.space	n/a
367.97	0.104	735940	keystroke_p	p	n/a
368.058	0.08	736116	keystroke_r	r	n/a
368.194	0.16	736388	keystroke_a	a	n/a
368.498	0.088	736996	keystroke_c	c	n/a
368.746	0.096	737492	keystroke_t	t	n/a
368.858	0.128	737716	keystroke_i	i	n/a
369.01	0.096	738020	keystroke_c	c	n/a
369.282	0.088	738564	keystroke_e	e	n/a
369.418	0.104	738836	keystroke_s	s	n/a
369.523	0.135	739046	keystroke_Key.space	Key.space	n/a
369.618	0.104	739236	keystroke_s	s	n/a
369.794	0.112	739588	keystroke_t	t	n/a
369.89	0.12	739780	keystroke_e	e	n/a
369.994	0.184	739988	keystroke_a	a	n/a
370.122	0.104	740244	keystroke_d	d	n/a
370.282	0.112	740564	keystroke_y	y	n/a
370.538	0.096	741076	keystroke_Key.enter	Key.enter	n/a
370.638	5.9895	741276	prompt	n/a	join certification adams title\n
371.314	0.152	742628	keystroke_j	j	n/a
371.522	0.096	743044	keystroke_o	o	n/a
371.722	0.096	743444	keystroke_i	i	n/a
371.85	0.1595	743700	keystroke_n	n	n/a
371.978	0.112	743956	keystroke_Key.space	Key.space	n/a
372.514	0.056	745028	keystroke_c	c	n/a
372.874	0.216	745748	keystroke_e	e	n/a
373.018	0.08	746036	keystroke_r	r	n/a
373.179	0.095	746358	keystroke_t	t	n/a
373.314	0.0875	746628	keystroke_i	i	n/a
373.4255	0.12	746851	keystroke_f	f	n/a
373.5305	0.1195	747061	keystroke_i	i	n/a
374.274	0.1115	748548	keystroke_c	c	n/a
374.4175	0.1765	748835	keystroke_a	a	n/a
374.562	0.128	749124	keystroke_t	t	n/a
374.65	0.104	749300	keystroke_i	i	n/a
374.746	0.16	749492	keystroke_o	o	n/a
374.85	0.168	749700	keystroke_n	n	n/a
374.9855	0.1205	749971	keystroke_Key.space	Key.space	n/a
375.074	0.176	750148	keystroke_a	a	n/a
375.242	0.0965	750484	keystroke_d	d	n/a
375.3615	0.144	750723	keystroke_a	a	n/a
375.4825	0.135	750965	keystroke_m	m	n/a
375.6025	0.079	751205	keystroke_s	s	n/a
375.7375	0.104	751475	keystroke_Key.space	Key.space	n/a
375.8735	0.064	751747	keystroke_t	t	n/a
375.9295	0.081	751859	keystroke_i	i	n/a
376.0495	0.065	752099	keystroke_t	t	n/a
376.1215	0.1045	752243	keystroke_l	l	n/a
376.242	0.072	752484	keystroke_e	e	n/a
376.482	0.144	752964	keystroke_Key.enter	Key.enter	n/a
376.6305	5.6125	753261	prompt	n/a	meetup donated largest translate\n
377.3135	0.152	754627	keystroke_m	m	n/a
377.4175	0.04	754835	keystroke_e	e	n/a
377.5135	0.104	755027	keystroke_e	e	n/a
377.7535	0.112	755507	keystroke_t	t	n/a
377.9215	0.16	755843	keystroke_u	u	n/a
378.002	0.1915	756004	keystroke_p	p	n/a
378.5135	0.144	757027	keystroke_Key.space	Key.space	n/a
378.9135	0.096	757827	keystroke_d	d	n/a
379.0495	0.128	758099	keystroke_o	o	n/a
379.1375	0.16	758275	keystroke_n	n	n/a
379.2495	0.16	758499	keystroke_a	a	n/a
379.3455	0.112	758691	keystroke_t	t	n/a
379.4495	0.096	758899	keystroke_e	e	n/a
379.6175	0.152	759235	keystroke_d	d	n/a
379.6895	0.112	759379	keystroke_Key.space	Key.space	n/a
379.7705	0.167	759541	keystroke_l	l	n/a
379.8895	0.16	759779	keystroke_a	a	n/a
380.0015	0.096	760003	keystroke_r	r	n/a
380.3615	0.096	760723	keystroke_g	g	n/a
380.5695	0.152	761139	keystroke_e	e	n/a
380.6735	0.152	761347	keystroke_s	s	n/a
380.8105	0.103	761621	keystroke_t	t	n/a
380.8895	0.152	761779	keystroke_Key.space	Key.space	n/a
381.0335	0.096	762067	keystroke_t	t	n/a
381.202	0.143	762404	keystroke_r	r	n/a
381.274	0.128	762548	keystroke_a	a	n/a
381.378	0.144	762756	keystroke_n	n	n/a
381.506	0.127	763012	keystroke_s	s	n/a
381.674	0.136	763348	keystroke_l	l	n/a
381.737	0.169	763474	keystroke_a	a	n/a
381.833	0.113	763666	keystroke_t	t	n/a
381.922	0.112	763844	keystroke_e	e	n/a
382.0895	0.1515	764179	keystroke_Key.enter	Key.enter	n/a
382.247	6.988	764494	prompt	n/a	lessons practical impression necklace\n
383.041	0.16	766082	keystroke_l	l	n/a
383.105	0.072	766210	keystroke_e	e	n/a
383.265	0.04	766530	keystroke_s	s	n/a
383.378	0.119	766756	keystroke_s	s	n/a
383.505	0.137	767010	keystroke_o	o	n/a
383.609	0.144	767218	keystroke_n	n	n/a
383.746	0.135	767492	keystroke_s	s	n/a
383.809	0.12	767618	keystroke_Key.space	Key.space	n/a
383.905	0.168	767810	keystroke_p	p	n/a
384.025	0.12	768050	keystroke_r	r	n/a
384.097	0.2245	768194	keystroke_a	a	n/a
384.3535	0.112	768707	keystroke_c	c	n/a
384.6575	0.096	769315	keystroke_t	t	n/a
384.7615	0.112	769523	keystroke_i	i	n/a
384.9375	0.112	769875	keystroke_c	c	n/a
385.0735	0.128	770147	keystroke_a	a	n/a
385.1855	0.144	770371	keystroke_l	l	n/a
385.3135	0.096	770627	keystroke_Key.space	Key.space	n/a
385.4735	0.096	770947	keystroke_i	i	n/a
385.6175	0.152	771235	keystroke_m	m	n/a
385.8095	0.168	771619	keystroke_p	p	n/a
385.9135	0.192	771827	keystroke_r	r	n/a
386.0015	0.12	772003	keystroke_e	e	n/a
386.193	0.08	772386	keystroke_s	s	n/a
386.329	0.12	772658	keystroke_s	s	n/a
386.441	0.097	772882	keystroke_i	i	n/a
386.593	0.144	773186	keystroke_o	o	n/a
386.689	0.144	773378	keystroke_n	n	n/a
386.809	0.104	773618	keystroke_Key.space	Key.space	n/a
386.961	0.112	773922	keystroke_n	n	n/a
387.065	0.104	774130	keystroke_e	e	n/a
387.209	0.072	774418	keystroke_k	k	n/a
387.761	0.104	775522	keystroke_Key.backspace	Key.backspace	n/a
387.889	0.064	775778	keystroke_c	c	n/a
388.041	0.08	776082	keystroke_k	k	n/a
388.441	0.176	776882	keystroke_l	l	n/a
388.513	0.176	777026	keystroke_a	a	n/a
388.761	0.096	777522	keystroke_c	c	n/a
388.9375	0.088	777875	keystroke_e	e	n/a
389.1375	0.096	778275	keystroke_Key.enter	Key.enter	n/a
389.2395	5.7	778479	prompt	n/a	wrong they've shark republic\n
389.8175	0.12	779635	keystroke_w	w	n/a
389.9615	0.096	779923	keystroke_r	r	n/a
390.0585	0.159	780117	keystroke_o	o	n/a
390.1615	0.184	780323	keystroke_n	n	n/a
390.2495	0.12	780499	keystroke_g	g	n/a
390.3705	0.119	780741	keystroke_Key.space	Key.space	n/a
390.4905	0.087	780981	keystroke_t	t	n/a
390.5615	0.072	781123	keystroke_h	h	n/a
390.6345	0.087	781269	keystroke_e	e	n/a
390.7295	0.088	781459	keystroke_y	y	n/a
390.9135	0.16	781827	keystroke_'	'	n/a
391.0575	0.128	782115	keystroke_v	v	n/a
391.2815	0.104	782563	keystroke_e	e	n/a
391.3855	0.112	782771	keystroke_Key.space	Key.space	n/a
391.4735	0.072	782947	keystroke_s	s	n/a
391.5855	0.1035	783171	keystroke_h	h	n/a
391.673	0.144	783346	keystroke_a	a	n/a
391.785	0.104	783570	keystroke_r	r	n/a
391.977	0.104	783954	keystroke_k	k	n/a
392.177	0.128	784354	keystroke_Key.space	Key.space	n/a
392.321	0.208	784642	keystroke_r	r	n/a
392.425	0.112	784850	keystroke_e	e	n/a
392.553	0.088	785106	keystroke_p	p	n/a
392.721	0.088	785442	keystroke_o	o	n/a
392.857	0.056	785714	keystroke_u	u	n/a
393.209	0.056	786418	keystroke_Key.backspace	Key.backspace	n/a
393.337	0.088	786674	keystroke_Key.backspace	Key.backspace	n/a
393.985	0.096	787970	keystroke_u	u	n/a
394.193	0.08	788386	keystroke_b	b	n/a
394.4015	0.104	788803	keystroke_l	l	n/a
394.5535	0.096	789107	keystroke_i	i	n/a
394.6175	0.104	789235	keystroke_c	c	n/a
394.8335	0.104	789667	keystroke_Key.enter	Key.enter	n/a
394.9425	10.0445	789885	prompt	n/a	differently elsewhere dimensional pennsylvania\n
395.6735	0.112	791347	keystroke_d	d	n/a
395.8175	0.112	791635	keystroke_i	i	n/a
395.9055	0.056	791811	keystroke_f	f	n/a
396.0255	0.088	792051	keystroke_f	f	n/a
396.2095	0.08	792419	keystroke_e	e	n/a
396.2975	0.136	792595	keystroke_r	r	n/a
396.3455	0.112	792691	keystroke_e	e	n/a
396.4415	0.112	792883	keystroke_n	n	n/a
396.5695	0.088	793139	keystroke_t	t	n/a
396.6495	0.072	793299	keystroke_l	l	n/a
396.8335	0.112	793667	keystroke_y	y	n/a
396.9375	0.096	793875	keystroke_Key.space	Key.space	n/a
397.0175	0.0795	794035	keystroke_e	e	n/a
397.153	0.12	794306	keystroke_l	l	n/a
397.233	0.064	794466	keystroke_e	e	n/a
397.401	0.073	794802	keystroke_s	s	n/a
397.609	0.104	795218	keystroke_w	w	n/a
397.745	0.089	795490	keystroke_h	h	n/a
398.0175	0.072	796035	keystroke_Key.backspace	Key.backspace	n/a
398.1615	0.072	796323	keystroke_Key.backspace	Key.backspace	n/a
398.3055	0.064	796611	keystroke_Key.backspace	Key.backspace	n/a
398.4495	0.08	796899	keystroke_Key.backspace	Key.backspace	n/a
398.5215	0.064	797043	keystroke_s	s	n/a
398.6975	0.096	797395	keystroke_w	w	n/a
399.3375	0.072	798675	keystroke_Key.backspace	Key.backspace	n/a
399.4095	0.08	798819	keystroke_e	e	n/a
399.6415	0.08	799283	keystroke_w	w	n/a
399.7375	0.1035	799475	keystroke_h	h	n/a
399.857	0.12	799714	keystroke_e	e	n/a
399.953	0.152	799906	keystroke_r	r	n/a
400.049	0.12	800098	keystroke_e	e	n/a
400.185	0.112	800370	keystroke_Key.space	Key.space	n/a
400.385	0.104	800770	keystroke_d	d	n/a
400.521	0.08	801042	keystroke_i	i	n/a
400.689	0.152	801378	keystroke_m	m	n/a
401.2895	0.104	802579	keystroke_e	e	n/a
401.4575	0.112	802915	keystroke_n	n	n/a
401.7215	0.096	803443	keystroke_s	s	n/a
401.8575	0.088	803715	keystroke_i	i	n/a
401.9775	0.128	803955	keystroke_o	o	n/a
402.0735	0.104	804147	keystroke_n	n	n/a
402.1535	0.12	804307	keystroke_a	a	n/a
402.2575	0.12	804515	keystroke_l	l	n/a
402.3695	0.12	804739	keystroke_Key.space	Key.space	n/a
402.8015	0.136	805603	keystroke_p	p	n/a
402.9135	0.096	805827	keystroke_e	e	n/a
403.0735	0.056	806147	keystroke_n	n	n/a
403.1775	0.112	806355	keystroke_n	n	n/a
403.4975	0.088	806995	keystroke_s	s	n/a
403.6415	0.112	807283	keystroke_y	y	n/a
403.8415	0.1675	807683	keystroke_l	l	n/a
403.953	0.096	807906	keystroke_v	v	n/a
404.081	0.128	808162	keystroke_a	a	n/a
404.225	0.104	808450	keystroke_n	n	n/a
404.425	0.072	808850	keystroke_i	i	n/a
404.489	0.12	808978	keystroke_a	a	n/a
404.857	0.128	809714	keystroke_Key.enter	Key.enter	n/a
404.991	3.9	809982	prompt	n/a	generally ours inner jazz\n
405.5615	0.088	811123	keystroke_g	g	n/a
405.6975	0.08	811395	keystroke_e	e	n/a
405.7775	0.1115	811555	keystroke_n	n	n/a
405.8575	0.1195	811715	keystroke_e	e	n/a
405.953	0.104	811906	keystroke_r	r	n/a
406.033	0.12	812066	keystroke_a	a	n/a
406.129	0.048	812258	keystroke_l	l	n/a
406.257	0.088	812514	keystroke_l	l	n/a
406.465	0.112	812930	keystroke_y	y	n/a
406.577	0.1365	813154	keystroke_Key.space	Key.space	n/a
406.7295	0.1755	813459	keystroke_o	o	n/a
406.873	0.161	813746	keystroke_u	u	n/a
406.977	0.145	813954	keystroke_r	r	n/a
407.073	0.104	814146	keystroke_s	s	n/a
407.169	0.112	814338	keystroke_Key.space	Key.space	n/a
407.242	0.055	814484	keystroke_i	i	n/a
407.385	0.056	814770	keystroke_n	n	n/a
407.497	0.12	814994	keystroke_n	n	n/a
407.585	0.232	815170	keystroke_e	e	n/a
407.705	0.128	815410	keystroke_r	r	n/a
407.785	0.112	815570	keystroke_Key.space	Key.space	n/a
407.841	0.112	815682	keystroke_j	j	n/a
407.929	0.136	815858	keystroke_a	a	n/a
408.385	0.088	816770	keystroke_z	z	n/a
408.529	0.104	817058	keystroke_z	z	n/a
408.777	0.112	817554	keystroke_Key.enter	Key.enter	n/a
408.895	5.8355	817790	prompt	n/a	why're features screening implications\n
409.561	0.152	819122	keystroke_w	w	n/a
409.673	0.088	819346	keystroke_h	h	n/a
409.857	0.096	819714	keystroke_y	y	n/a
410.049	0.136	820098	keystroke_'	'	n/a
410.201	0.152	820402	keystroke_r	r	n/a
410.281	0.112	820562	keystroke_e	e	n/a
410.385	0.112	820770	keystroke_Key.space	Key.space	n/a
410.545	0.112	821090	keystroke_f	f	n/a
410.641	0.152	821282	keystroke_e	e	n/a
410.769	0.168	821538	keystroke_a	a	n/a
410.881	0.096	821762	keystroke_t	t	n/a
411.009	0.12	822018	keystroke_u	u	n/a
411.073	0.216	822146	keystroke_r	r	n/a
411.185	0.176	822370	keystroke_e	e	n/a
411.321	0.16	822642	keystroke_s	s	n/a
411.449	0.144	822898	keystroke_Key.space	Key.space	n/a
411.657	0.12	823314	keystroke_s	s	n/a
411.849	0.112	823698	keystroke_c	c	n/a
412.097	0.088	824194	keystroke_r	r	n/a
412.257	0.064	824514	keystroke_e	e	n/a
412.377	0.096	824754	keystroke_e	e	n/a
412.537	0.104	825074	keystroke_n	n	n/a
412.713	0.112	825426	keystroke_i	i	n/a
412.817	0.16	825634	keystroke_n	n	n/a
412.921	0.136	825842	keystroke_g	g	n/a
413.025	0.1035	826050	keystroke_Key.space	Key.space	n/a
413.073	0.1205	826146	keystroke_i	i	n/a
413.2005	0.16	826401	keystroke_m	m	n/a
413.4085	0.096	826817	keystroke_p	p	n/a
413.6005	0.144	827201	keystroke_l	l	n/a
413.7285	0.144	827457	keystroke_i	i	n/a
413.8245	0.104	827649	keystroke_c	c	n/a
413.9205	0.176	827841	keystroke_a	a	n/a
414.0645	0.128	828129	keystroke_t	t	n/a
414.1285	0.096	828257	keystroke_i	i	n/a
414.2005	0.16	828401	keystroke_o	o	n/a
414.3125	0.128	828625	keystroke_n	n	n/a
414.4005	0.0885	828801	keystroke_s	s	n/a
414.6005	0.128	829201	keystroke_Key.enter	Key.enter	n/a
414.735	5.6995	829470	prompt	n/a	region suppliers head become\n
415.425	0.168	830850	keystroke_r	r	n/a
415.521	0.096	831042	keystroke_e	e	n/a
415.681	0.104	831362	keystroke_g	g	n/a
415.793	0.112	831586	keystroke_i	i	n/a
415.881	0.176	831762	keystroke_o	o	n/a
415.993	0.136	831986	keystroke_n	n	n/a
416.089	0.08	832178	keystroke_Key.space	Key.space	n/a
416.153	0.104	832306	keystroke_s	s	n/a
416.265	0.104	832530	keystroke_u	u	n/a
416.409	0.088	832818	keystroke_p	p	n/a
416.561	0.096	833122	keystroke_p	p	n/a
416.8325	0.0965	833665	keystroke_l	l	n/a
417.025	0.104	834050	keystroke_i	i	n/a
417.121	0.112	834242	keystroke_e	e	n/a
417.217	0.12	834434	keystroke_r	r	n/a
417.329	0.096	834658	keystroke_s	s	n/a
417.417	0.136	834834	keystroke_Key.space	Key.space	n/a
417.465	0.144	834930	keystroke_h	h	n/a
417.553	0.136	835106	keystroke_a	a	n/a
417.641	0.112	835282	keystroke_e	e	n/a
417.833	0.176	835666	keystroke_d	d	n/a
418.105	0.104	836210	keystroke_Key.space	Key.space	n/a
418.401	0.08	836802	keystroke_Key.backspace	Key.backspace	n/a
418.537	0.08	837074	keystroke_Key.backspace	Key.backspace	n/a
418.689	0.056	837378	keystroke_Key.backspace	Key.backspace	n/a
418.833	0.0955	837666	keystroke_Key.backspace	Key.backspace	n/a
418.9215	0.095	837843	keystroke_e	e	n/a
418.9925	0.1925	837985	keystroke_a	a	n/a
419.1135	0.143	838227	keystroke_d	d	n/a
419.3205	0.128	838641	keystroke_Key.space	Key.space	n/a
419.5765	0.137	839153	keystroke_b	b	n/a
419.6335	0.096	839267	keystroke_e	e	n/a
419.8095	0.104	839619	keystroke_c	c	n/a
419.8975	0.104	839795	keystroke_o	o	n/a
420.0175	0.144	840035	keystroke_m	m	n/a
420.1135	0.08	840227	keystroke_e	e	n/a
420.2975	0.136	840595	keystroke_Key.enter	Key.enter	n/a
420.437	8.1495	840874	prompt	n/a	july armenia gras gate\n
421.1615	0.112	842323	keystroke_j	j	n/a
421.3695	0.08	842739	keystroke_u	u	n/a
421.5215	0.088	843043	keystroke_l	l	n/a
421.713	0.136	843426	keystroke_y	y	n/a
421.833	0.12	843666	keystroke_Key.space	Key.space	n/a
421.889	0.168	843778	keystroke_a	a	n/a
423.5925	0.121	847185	keystroke_r	r	n/a
423.8885	0.169	847777	keystroke_m	m	n/a
424.0325	0.096	848065	keystroke_e	e	n/a
424.1765	0.089	848353	keystroke_n	n	n/a
424.3605	0.088	848721	keystroke_i	i	n/a
424.4495	0.143	848899	keystroke_a	a	n/a
424.5685	0.12	849137	keystroke_Key.space	Key.space	n/a
424.8165	0.089	849633	keystroke_g	g	n/a
425.0005	0.12	850001	keystroke_r	r	n/a
425.0645	0.152	850129	keystroke_a	a	n/a
425.2325	0.104	850465	keystroke_s	s	n/a
425.3445	0.096	850689	keystroke_Key.space	Key.space	n/a
425.4965	0.104	850993	keystroke_g	g	n/a
425.6165	0.168	851233	keystroke_a	a	n/a
425.7765	0.072	851553	keystroke_t	t	n/a
425.7855	0.023	851571	keystroke_g	g	n/a
425.8565	0.128	851713	keystroke_e	e	n/a
426.4725	0.072	852945	keystroke_Key.backspace	Key.backspace	n/a
426.6165	0.08	853233	keystroke_Key.backspace	Key.backspace	n/a
427.3695	0.104	854739	keystroke_e	e	n/a
428.4565	0.128	856913	keystroke_Key.enter	Key.enter	n/a
428.589	7.1815	857178	prompt	n/a	temple their window california\n
429.1605	0.112	858321	keystroke_t	t	n/a
429.2405	0.12	858481	keystroke_e	e	n/a
429.3685	0.056	858737	keystroke_m	m	n/a
429.9605	0.104	859921	keystroke_p	p	n/a
430.1685	0.128	860337	keystroke_l	l	n/a
430.2565	0.136	860513	keystroke_e	e	n/a
430.3605	0.096	860721	keystroke_Key.space	Key.space	n/a
430.5125	0.056	861025	keystroke_t	t	n/a
430.5695	0.087	861139	keystroke_h	h	n/a
430.6405	0.088	861281	keystroke_e	e	n/a
430.7685	0.1125	861537	keystroke_i	i	n/a
431.3685	0.168	862737	keystroke_r	r	n/a
431.4885	0.16	862977	keystroke_Key.space	Key.space	n/a
431.6245	0.112	863249	keystroke_w	w	n/a
431.7205	0.12	863441	keystroke_i	i	n/a
431.8415	0.127	863683	keystroke_n	n	n/a
431.9125	0.104	863825	keystroke_d	d	n/a
432.0725	0.096	864145	keystroke_o	o	n/a
432.1525	0.104	864305	keystroke_w	w	n/a
432.2645	0.088	864529	keystroke_Key.space	Key.space	n/a
432.4325	0.152	864865	keystroke_c	c	n/a
432.5855	0.183	865171	keystroke_a	a	n/a
432.7205	0.136	865441	keystroke_l	l	n/a
432.8405	0.136	865681	keystroke_i	i	n/a
432.9365	0.104	865873	keystroke_f	f	n/a
433.1125	0.064	866225	keystroke_o	o	n/a
433.1775	0.103	866355	keystroke_r	r	n/a
433.2885	0.08	866577	keystroke_n	n	n/a
433.3925	0.12	866785	keystroke_a	a	n/a
433.4565	0.088	866913	keystroke_i	i	n/a
434.153	0.04	868306	keystroke_Key.backspace	Key.backspace	n/a
434.297	0.072	868594	keystroke_Key.backspace	Key.backspace	n/a
434.473	0.04	868946	keystroke_Key.backspace	Key.backspace	n/a
435.153	0.104	870306	keystroke_n	n	n/a
435.345	0.08	870690	keystroke_i	i	n/a
435.417	0.12	870834	keystroke_a	a	n/a
435.649	0.12	871298	keystroke_Key.enter	Key.enter	n/a
435.773	6.877	871546	prompt	n/a	inclusive cables mixer compact\n
436.625	0.08	873250	keystroke_i	i	n/a
436.753	0.12	873506	keystroke_n	n	n/a
437.017	0.128	874034	keystroke_l	l	n/a
437.361	0.096	874722	keystroke_Key.backspace	Key.backspace	n/a
437.505	0.104	875010	keystroke_c	c	n/a
437.665	0.104	875330	keystroke_l	l	n/a
437.841	0.112	875682	keystroke_u	u	n/a
437.993	0.088	875986	keystroke_s	s	n/a
438.145	0.072	876290	keystroke_i	i	n/a
438.241	0.104	876482	keystroke_v	v	n/a
438.545	0.152	877090	keystroke_e	e	n/a
438.681	0.12	877362	keystroke_Key.space	Key.space	n/a
439.041	0.168	878082	keystroke_a	a	n/a
439.409	0.095	878818	keystroke_Key.backspace	Key.backspace	n/a
439.489	0.103	878978	keystroke_c	c	n/a
439.568	0.153	879136	keystroke_a	a	n/a
439.713	0.088	879426	keystroke_b	b	n/a
439.888	0.137	879776	keystroke_l	l	n/a
439.969	0.183	879938	keystroke_e	e	n/a
440.065	0.119	880130	keystroke_s	s	n/a
440.128	0.136	880256	keystroke_Key.space	Key.space	n/a
440.241	0.111	880482	keystroke_m	m	n/a
440.449	0.087	880898	keystroke_i	i	n/a
440.529	0.104	881058	keystroke_x	x	n/a
440.8885	0.232	881777	keystroke_e	e	n/a
441.0405	0.128	882081	keystroke_r	r	n/a
441.1365	0.112	882273	keystroke_Key.space	Key.space	n/a
441.4245	0.136	882849	keystroke_c	c	n/a
441.5365	0.168	883073	keystroke_o	o	n/a
441.6485	0.136	883297	keystroke_m	m	n/a
441.8405	0.16	883681	keystroke_p	p	n/a
441.9285	0.184	883857	keystroke_a	a	n/a
442.0965	0.112	884193	keystroke_c	c	n/a
442.3685	0.104	884737	keystroke_t	t	n/a
442.5525	0.096	885105	keystroke_Key.enter	Key.enter	n/a
442.6535	7.4205	885307	prompt	n/a	definitions sega began sold\n
443.2565	0.088	886513	keystroke_d	d	n/a
443.4405	0.128	886881	keystroke_e	e	n/a
443.5445	0.128	887089	keystroke_f	f	n/a
443.6565	0.104	887313	keystroke_i	i	n/a
443.7765	0.12	887553	keystroke_n	n	n/a
443.8725	0.104	887745	keystroke_i	i	n/a
444.0325	0.08	888065	keystroke_t	t	n/a
444.1045	0.064	888209	keystroke_i	i	n/a
444.2485	0.096	888497	keystroke_o	o	n/a
444.3525	0.128	888705	keystroke_n	n	n/a
444.4245	0.12	888849	keystroke_s	s	n/a
444.5205	0.104	889041	keystroke_Key.space	Key.space	n/a
444.6645	0.08	889329	keystroke_s	s	n/a
444.8165	0.064	889633	keystroke_e	e	n/a
444.9925	0.088	889985	keystroke_g	g	n/a
445.0965	0.136	890193	keystroke_a	a	n/a
446.7125	0.1275	893425	keystroke_Key.space	Key.space	n/a
447.176	0.12	894352	keystroke_b	b	n/a
447.376	0.144	894752	keystroke_a	a	n/a
447.968	0.12	895936	keystroke_Key.backspace	Key.backspace	n/a
448.216	0.088	896432	keystroke_e	e	n/a
448.392	0.112	896784	keystroke_g	g	n/a
448.512	0.128	897024	keystroke_a	a	n/a
448.68	0.112	897360	keystroke_n	n	n/a
448.816	0.104	897632	keystroke_Key.space	Key.space	n/a
448.9925	0.072	897985	keystroke_s	s	n/a
449.0965	0.0875	898193	keystroke_o	o	n/a
449.264	0.129	898528	keystroke_l	l	n/a
449.376	0.096	898752	keystroke_d	d	n/a
449.96	0.1125	899920	keystroke_Key.enter	Key.enter	n/a
450.0765	4.6935	900153	prompt	n/a	minor eagle in bigger\n
450.792	0.1205	901584	keystroke_m	m	n/a
451.024	0.064	902048	keystroke_i	i	n/a
451.144	0.12	902288	keystroke_n	n	n/a
451.3285	0.1355	902657	keystroke_o	o	n/a
451.456	0.1365	902912	keystroke_r	r	n/a
451.5605	0.12	903121	keystroke_Key.space	Key.space	n/a
451.6565	0.12	903313	keystroke_e	e	n/a
451.8645	0.104	903729	keystroke_g	g	n/a
451.9765	0.152	903953	keystroke_a	a	n/a
452.4725	0.048	904945	keystroke_Key.backspace	Key.backspace	n/a
452.5845	0.1035	905169	keystroke_Key.backspace	Key.backspace	n/a
452.648	0.144	905296	keystroke_a	a	n/a
452.776	0.072	905552	keystroke_g	g	n/a
453.1925	0.1435	906385	keystroke_l	l	n/a
453.344	0.136	906688	keystroke_e	e	n/a
453.416	0.1365	906832	keystroke_Key.space	Key.space	n/a
453.5365	0.064	907073	keystroke_i	i	n/a
453.648	0.112	907296	keystroke_n	n	n/a
453.752	0.096	907504	keystroke_Key.space	Key.space	n/a
453.864	0.0805	907728	keystroke_b	b	n/a
454.0565	0.08	908113	keystroke_i	i	n/a
454.1685	0.0555	908337	keystroke_g	g	n/a
454.2885	0.072	908577	keystroke_g	g	n/a
454.4485	0.136	908897	keystroke_e	e	n/a
454.5445	0.096	909089	keystroke_r	r	n/a
454.6645	0.104	909329	keystroke_Key.enter	Key.enter	n/a
454.773	4.861	909546	prompt	n/a	luke operations shoppers should\n
455.4405	0.128	910881	keystroke_l	l	n/a
455.6245	0.112	911249	keystroke_u	u	n/a
456.0645	0.12	912129	keystroke_k	k	n/a
456.1765	0.168	912353	keystroke_e	e	n/a
456.2805	0.128	912561	keystroke_Key.space	Key.space	n/a
456.4165	0.088	912833	keystroke_o	o	n/a
456.6245	0.184	913249	keystroke_p	p	n/a
456.7205	0.12	913441	keystroke_e	e	n/a
456.7845	0.096	913569	keystroke_r	r	n/a
456.8885	0.152	913777	keystroke_a	a	n/a
456.9845	0.1205	913969	keystroke_t	t	n/a
457.064	0.065	914128	keystroke_i	i	n/a
457.145	0.168	914290	keystroke_o	o	n/a
457.257	0.176	914514	keystroke_n	n	n/a
457.385	0.112	914770	keystroke_s	s	n/a
457.481	0.112	914962	keystroke_Key.space	Key.space	n/a
457.577	0.095	915154	keystroke_s	s	n/a
457.664	0.096	915328	keystroke_h	h	n/a
457.808	0.112	915616	keystroke_o	o	n/a
458.048	0.064	916096	keystroke_p	p	n/a
458.192	0.12	916384	keystroke_p	p	n/a
458.376	0.1205	916752	keystroke_e	e	n/a
458.4485	0.136	916897	keystroke_r	r	n/a
458.5685	0.112	917137	keystroke_s	s	n/a
458.6725	0.112	917345	keystroke_Key.space	Key.space	n/a
458.7605	0.096	917521	keystroke_s	s	n/a
458.8485	0.096	917697	keystroke_h	h	n/a
458.9525	0.112	917905	keystroke_o	o	n/a
459.0565	0.152	918113	keystroke_u	u	n/a
459.1685	0.144	918337	keystroke_l	l	n/a
459.2645	0.104	918529	keystroke_d	d	n/a
459.5445	0.088	919089	keystroke_Key.enter	Key.enter	n/a
459.639	6.6265	919278	prompt	n/a	seafood leisure creating contacts\n
460.185	0.111	920370	keystroke_s	s	n/a
460.312	0.128	920624	keystroke_e	e	n/a
460.408	0.152	920816	keystroke_a	a	n/a
460.76	0.089	921520	keystroke_f	f	n/a
460.888	0.072	921776	keystroke_o	o	n/a
461.024	0.152	922048	keystroke_o	o	n/a
461.152	0.176	922304	keystroke_d	d	n/a
461.352	0.136	922704	keystroke_Key.space	Key.space	n/a
461.816	0.112	923632	keystroke_l	l	n/a
461.872	0.104	923744	keystroke_e	e	n/a
462.209	0.087	924418	keystroke_i	i	n/a
462.352	0.08	924704	keystroke_s	s	n/a
462.496	0.08	924992	keystroke_u	u	n/a
462.592	0.128	925184	keystroke_r	r	n/a
462.672	0.128	925344	keystroke_e	e	n/a
462.784	0.128	925568	keystroke_Key.space	Key.space	n/a
463.184	0.08	926368	keystroke_c	c	n/a
463.392	0.104	926784	keystroke_r	r	n/a
463.472	0.104	926944	keystroke_e	e	n/a
463.544	0.1765	927088	keystroke_a	a	n/a
463.656	0.1045	927312	keystroke_t	t	n/a
463.7685	0.08	927537	keystroke_i	i	n/a
463.8645	0.16	927729	keystroke_n	n	n/a
463.9445	0.136	927889	keystroke_g	g	n/a
464.0485	0.112	928097	keystroke_Key.space	Key.space	n/a
464.2645	0.128	928529	keystroke_c	c	n/a
464.3925	0.096	928785	keystroke_o	o	n/a
464.4965	0.128	928993	keystroke_n	n	n/a
464.6165	0.112	929233	keystroke_t	t	n/a
465.1605	0.1435	930321	keystroke_a	a	n/a
465.4	0.096	930800	keystroke_c	c	n/a
465.696	0.0955	931392	keystroke_t	t	n/a
465.8955	0.104	931791	keystroke_s	s	n/a
466.1675	0.096	932335	keystroke_Key.enter	Key.enter	n/a
466.269	5.9495	932538	prompt	n/a	surprised partnerships wishing meters\n
466.9125	0.104	933825	keystroke_s	s	n/a
467.0565	0.152	934113	keystroke_u	u	n/a
467.1685	0.16	934337	keystroke_p	p	n/a
467.3205	0.12	934641	keystroke_r	r	n/a
467.9125	0.112	935825	keystroke_i	i	n/a
468.0005	0.16	936001	keystroke_s	s	n/a
468.0965	0.088	936193	keystroke_e	e	n/a
468.2565	0.136	936513	keystroke_d	d	n/a
468.3845	0.104	936769	keystroke_Key.space	Key.space	n/a
468.6565	0.192	937313	keystroke_p	p	n/a
468.7765	0.192	937553	keystroke_a	a	n/a
468.8885	0.072	937777	keystroke_r	r	n/a
469.0485	0.104	938097	keystroke_t	t	n/a
469.2325	0.176	938465	keystroke_n	n	n/a
469.3285	0.16	938657	keystroke_e	e	n/a
469.4245	0.096	938849	keystroke_r	r	n/a
469.5765	0.072	939153	keystroke_s	s	n/a
469.6645	0.176	939329	keystroke_h	h	n/a
469.8165	0.184	939633	keystroke_i	i	n/a
469.9765	0.16	939953	keystroke_p	p	n/a
470.0645	0.088	940129	keystroke_s	s	n/a
470.1525	0.136	940305	keystroke_Key.space	Key.space	n/a
470.2965	0.088	940593	keystroke_w	w	n/a
470.4005	0.072	940801	keystroke_i	i	n/a
470.4965	0.08	940993	keystroke_s	s	n/a
470.5845	0.08	941169	keystroke_h	h	n/a
470.7365	0.112	941473	keystroke_i	i	n/a
470.8315	0.169	941663	keystroke_n	n	n/a
470.9275	0.16	941855	keystroke_g	g	n/a
471.0315	0.105	942063	keystroke_Key.space	Key.space	n/a
471.2005	0.152	942401	keystroke_m	m	n/a
471.3435	0.112	942687	keystroke_e	e	n/a
471.5365	0.071	943073	keystroke_t	t	n/a
471.6795	0.137	943359	keystroke_e	e	n/a
471.7835	0.088	943567	keystroke_r	r	n/a
471.9365	0.072	943873	keystroke_s	s	n/a
472.1205	0.096	944241	keystroke_Key.enter	Key.enter	n/a
472.222	7.6115	944444	prompt	n/a	likewise redeem perfectly dare\n
472.8245	0.136	945649	keystroke_l	l	n/a
473.0245	0.112	946049	keystroke_i	i	n/a
473.4645	0.096	946929	keystroke_e	e	n/a
473.6085	0.104	947217	keystroke_k	k	n/a
474.0565	0.072	948113	keystroke_Key.backspace	Key.backspace	n/a
474.1845	0.08	948369	keystroke_Key.backspace	Key.backspace	n/a
474.4645	0.064	948929	keystroke_k	k	n/a
474.5765	0.096	949153	keystroke_e	e	n/a
474.7605	0.1035	949521	keystroke_w	w	n/a
475.04	0.08	950080	keystroke_i	i	n/a
475.152	0.088	950304	keystroke_s	s	n/a
475.336	0.136	950672	keystroke_e	e	n/a
475.448	0.112	950896	keystroke_Key.space	Key.space	n/a
475.64	0.176	951280	keystroke_r	r	n/a
475.744	0.096	951488	keystroke_e	e	n/a
475.944	0.128	951888	keystroke_d	d	n/a
476.184	0.048	952368	keystroke_e	e	n/a
476.288	0.104	952576	keystroke_e	e	n/a
476.488	0.16	952976	keystroke_m	m	n/a
476.664	0.1195	953328	keystroke_Key.space	Key.space	n/a
476.9195	0.176	953839	keystroke_p	p	n/a
477.0315	0.192	954063	keystroke_e	e	n/a
477.1435	0.088	954287	keystroke_r	r	n/a
477.3195	0.112	954639	keystroke_f	f	n/a
477.768	0.128	955536	keystroke_e	e	n/a
478.032	0.112	956064	keystroke_c	c	n/a
478.28	0.112	956560	keystroke_t	t	n/a
478.4	0.08	956800	keystroke_l	l	n/a
478.568	0.152	957136	keystroke_y	y	n/a
478.688	0.176	957376	keystroke_Key.space	Key.space	n/a
478.8885	0.152	957777	keystroke_d	d	n/a
479.0325	0.152	958065	keystroke_a	a	n/a
479.1525	0.144	958305	keystroke_r	r	n/a
479.2325	0.112	958465	keystroke_e	e	n/a
479.7045	0.128	959409	keystroke_Key.enter	Key.enter	n/a
479.837	3.7645	959674	prompt	n/a	could've weak party icon\n
480.5845	0.12	961169	keystroke_c	c	n/a
480.6565	0.136	961313	keystroke_o	o	n/a
480.7605	0.192	961521	keystroke_u	u	n/a
480.8965	0.12	961793	keystroke_l	l	n/a
480.9925	0.088	961985	keystroke_d	d	n/a
481.0885	0.152	962177	keystroke_'	'	n/a
481.1685	0.104	962337	keystroke_v	v	n/a
481.3515	0.089	962703	keystroke_e	e	n/a
481.4325	0.144	962865	keystroke_Key.space	Key.space	n/a
481.5365	0.168	963073	keystroke_w	w	n/a
481.6485	0.16	963297	keystroke_e	e	n/a
481.7765	0.159	963553	keystroke_a	a	n/a
481.9125	0.144	963825	keystroke_k	k	n/a
482.0395	0.137	964079	keystroke_Key.space	Key.space	n/a
482.2245	0.176	964449	keystroke_p	p	n/a
482.2955	0.177	964591	keystroke_a	a	n/a
482.4085	0.08	964817	keystroke_r	r	n/a
482.5525	0.1035	965105	keystroke_t	t	n/a
482.6405	0.1195	965281	keystroke_y	y	n/a
482.736	0.112	965472	keystroke_Key.space	Key.space	n/a
482.832	0.112	965664	keystroke_i	i	n/a
483.008	0.072	966016	keystroke_c	c	n/a
483.088	0.08	966176	keystroke_o	o	n/a
483.2	0.104	966400	keystroke_n	n	n/a
483.488	0.112	966976	keystroke_Key.enter	Key.enter	n/a
483.604	6.285	967208	prompt	n/a	award discusses specialists montana\n
484.296	0.1515	968592	keystroke_a	a	n/a
484.5525	0.127	969105	keystroke_w	w	n/a
484.7115	0.168	969423	keystroke_a	a	n/a
484.8155	0.128	969631	keystroke_r	r	n/a
485.1915	0.152	970383	keystroke_d	d	n/a
485.4075	0.12	970815	keystroke_Key.space	Key.space	n/a
485.5195	0.12	971039	keystroke_d	d	n/a
485.6555	0.112	971311	keystroke_i	i	n/a
485.7355	0.128	971471	keystroke_s	s	n/a
485.9125	0.111	971825	keystroke_c	c	n/a
486.0555	0.112	972111	keystroke_u	u	n/a
486.1755	0.048	972351	keystroke_s	s	n/a
486.2875	0.08	972575	keystroke_s	s	n/a
486.4635	0.088	972927	keystroke_e	e	n/a
486.6155	0.128	973231	keystroke_s	s	n/a
486.7195	0.12	973439	keystroke_Key.space	Key.space	n/a
487.0875	0.072	974175	keystroke_s	s	n/a
487.1835	0.152	974367	keystroke_p	p	n/a
487.2635	0.12	974527	keystroke_e	e	n/a
487.3995	0.12	974799	keystroke_c	c	n/a
487.4955	0.08	974991	keystroke_i	i	n/a
487.5995	0.12	975199	keystroke_a	a	n/a
487.6795	0.144	975359	keystroke_l	l	n/a
487.7915	0.136	975583	keystroke_i	i	n/a
487.8955	0.12	975791	keystroke_s	s	n/a
488.0635	0.112	976127	keystroke_t	t	n/a
488.1835	0.136	976367	keystroke_s	s	n/a
488.3115	0.12	976623	keystroke_Key.space	Key.space	n/a
488.5915	0.136	977183	keystroke_m	m	n/a
488.8075	0.096	977615	keystroke_o	o	n/a
488.9195	0.136	977839	keystroke_n	n	n/a
489.0715	0.112	978143	keystroke_t	t	n/a
489.1515	0.136	978303	keystroke_a	a	n/a
489.2395	0.128	978479	keystroke_n	n	n/a
489.3275	0.104	978655	keystroke_a	a	n/a
489.7915	0.096	979583	keystroke_Key.enter	Key.enter	n/a
489.894	7.1315	979788	prompt	n/a	nasdaq orchestra taken ultram\n
490.6315	0.136	981263	keystroke_n	n	n/a
490.7595	0.168	981519	keystroke_a	a	n/a
490.9515	0.096	981903	keystroke_s	s	n/a
491.3915	0.112	982783	keystroke_d	d	n/a
491.6235	0.112	983247	keystroke_a	a	n/a
492.0075	0.136	984015	keystroke_q	q	n/a
492.3355	0.096	984671	keystroke_Key.space	Key.space	n/a
492.7915	0.16	985583	keystroke_o	o	n/a
492.8955	0.12	985791	keystroke_r	r	n/a
493.1755	0.128	986351	keystroke_c	c	n/a
493.8965	0.1115	987793	keystroke_h	h	n/a
494.2235	0.064	988447	keystroke_e	e	n/a
494.408	0.072	988816	keystroke_s	s	n/a
494.6	0.08	989200	keystroke_t	t	n/a
494.768	0.104	989536	keystroke_r	r	n/a
494.848	0.16	989696	keystroke_a	a	n/a
495.016	0.112	990032	keystroke_Key.space	Key.space	n/a
495.136	0.104	990272	keystroke_t	t	n/a
495.2235	0.1125	990447	keystroke_a	a	n/a
495.328	0.072	990656	keystroke_k	k	n/a
495.432	0.064	990864	keystroke_e	e	n/a
495.496	0.128	990992	keystroke_n	n	n/a
495.632	0.112	991264	keystroke_Key.space	Key.space	n/a
495.84	0.088	991680	keystroke_u	u	n/a
496.024	0.152	992048	keystroke_l	l	n/a
496.224	0.072	992448	keystroke_t	t	n/a
496.376	0.104	992752	keystroke_r	r	n/a
496.44	0.152	992880	keystroke_a	a	n/a
496.5995	0.1285	993199	keystroke_m	m	n/a
496.92	0.104	993840	keystroke_Key.enter	Key.enter	n/a
497.028	6.189	994056	prompt	n/a	superintendent slip seen corners\n
497.7995	0.128	995599	keystroke_s	s	n/a
497.9285	0.167	995857	keystroke_u	u	n/a
498.0235	0.184	996047	keystroke_p	p	n/a
498.1515	0.128	996303	keystroke_e	e	n/a
498.2395	0.104	996479	keystroke_r	r	n/a
498.3915	0.072	996783	keystroke_i	i	n/a
498.4955	0.128	996991	keystroke_n	n	n/a
498.7195	0.144	997439	keystroke_t	t	n/a
498.8315	0.096	997663	keystroke_e	e	n/a
498.9285	0.135	997857	keystroke_n	n	n/a
499.2075	0.104	998415	keystroke_d	d	n/a
499.408	0.096	998816	keystroke_e	e	n/a
499.504	0.104	999008	keystroke_n	n	n/a
499.672	0.168	999344	keystroke_t	t	n/a
499.816	0.16	999632	keystroke_Key.space	Key.space	n/a
500.152	0.128	1000304	keystroke_s	s	n/a
500.344	0.112	1000688	keystroke_l	l	n/a
500.504	0.12	1001008	keystroke_i	i	n/a
500.656	0.152	1001312	keystroke_p	p	n/a
500.76	0.144	1001520	keystroke_Key.space	Key.space	n/a
500.88	0.136	1001760	keystroke_s	s	n/a
500.976	0.224	1001952	keystroke_e	e	n/a
501.624	0.08	1003248	keystroke_e	e	n/a
501.816	0.08	1003632	keystroke_n	n	n/a
502	0.088	1004000	keystroke_Key.space	Key.space	n/a
502.24	0.096	1004480	keystroke_c	c	n/a
502.304	0.08	1004608	keystroke_o	o	n/a
502.455	0.129	1004910	keystroke_m	m	n/a
502.592	0.135	1005184	keystroke_e	e	n/a
502.688	0.136	1005376	keystroke_r	r	n/a
502.816	0.104	1005632	keystroke_s	s	n/a
503.104	0.112	1006208	keystroke_Key.enter	Key.enter	n/a
503.221	6.948	1006442	prompt	n/a	personal yesterday excluding architects\n
503.935	0.16	1007870	keystroke_p	p	n/a
504.039	0.112	1008078	keystroke_e	e	n/a
504.119	0.128	1008238	keystroke_r	r	n/a
504.207	0.08	1008414	keystroke_s	s	n/a
504.271	0.112	1008542	keystroke_o	o	n/a
504.36	0.095	1008720	keystroke_n	n	n/a
504.416	0.119	1008832	keystroke_a	a	n/a
504.503	0.136	1009006	keystroke_l	l	n/a
504.663	0.104	1009326	keystroke_Key.space	Key.space	n/a
504.815	0.128	1009630	keystroke_y	y	n/a
504.903	0.136	1009806	keystroke_e	e	n/a
504.991	0.16	1009982	keystroke_s	s	n/a
505.135	0.08	1010270	keystroke_t	t	n/a
505.207	0.152	1010414	keystroke_e	e	n/a
505.311	0.096	1010622	keystroke_r	r	n/a
505.463	0.12	1010926	keystroke_d	d	n/a
505.575	0.128	1011150	keystroke_a	a	n/a
505.687	0.12	1011374	keystroke_y	y	n/a
505.879	0.112	1011758	keystroke_Key.space	Key.space	n/a
506.055	0.064	1012110	keystroke_e	e	n/a
506.2315	0.1035	1012463	keystroke_x	x	n/a
506.439	0.112	1012878	keystroke_c	c	n/a
506.5595	0.072	1013119	keystroke_l	l	n/a
506.695	0.112	1013390	keystroke_u	u	n/a
506.799	0.0805	1013598	keystroke_d	d	n/a
