onset	duration	sample	value	key	prompt_text
1.609	9.4685	3218	prompt	n/a	the quick brown fox jumps over a lazy dog\n
2.838	0.0285	5676	keystroke	t	n/a
2.926	0.105	5852	keystroke	h	n/a
3.0465	0.045	6093	keystroke	e	n/a
3.1955	0.076	6391	keystroke	Key.space	n/a
3.5265	0.0745	7053	keystroke	q	n/a
3.6615	0.0745	7323	keystroke	u	n/a
3.886	0.075	7772	keystroke	i	n/a
4.1415	0.1045	8283	keystroke	c	n/a
4.2765	0.0745	8553	keystroke	k	n/a
4.501	0.0605	9002	keystroke	Key.space	n/a
4.6815	0.075	9363	keystroke	b	n/a
4.8155	0.076	9631	keystroke	r	n/a
4.9065	0.1195	9813	keystroke	o	n/a
5.117	0.074	10234	keystroke	w	n/a
5.252	0.0895	10504	keystroke	n	n/a
5.492	0.0895	10984	keystroke	Key.space	n/a
5.8515	0.0595	11703	keystroke	f	n/a
5.987	0.179	11974	keystroke	o	n/a
6.4535	0.075	12907	keystroke	x	n/a
6.799	0.0745	13598	keystroke	Key.space	n/a
7.0835	0.0595	14167	keystroke	j	n/a
7.2035	0.09	14407	keystroke	u	n/a
7.3985	0.0895	14797	keystroke	m	n/a
7.579	0.104	15158	keystroke	p	n/a
7.713	0.0905	15426	keystroke	s	n/a
7.8635	0.0605	15727	keystroke	Key.space	n/a
8.194	0.0745	16388	keystroke	o	n/a
8.419	0.09	16838	keystroke	v	n/a
8.5985	0.1205	17197	keystroke	e	n/a
8.734	0.03	17468	keystroke	r	n/a
8.838	0.091	17676	keystroke	Key.space	n/a
8.9745	0.09	17949	keystroke	a	n/a
9.094	0.075	18188	keystroke	Key.space	n/a
9.3195	0.0745	18639	keystroke	l	n/a
9.4385	0.0605	18877	keystroke	a	n/a
9.724	0.075	19448	keystroke	z	n/a
9.979	0.0745	19958	keystroke	y	n/a
10.2485	0.075	20497	keystroke	Key.space	n/a
10.459	0.0905	20918	keystroke	d	n/a
10.6395	0.12	21279	keystroke	o	n/a
10.8045	0.1045	21609	keystroke	g	n/a
10.9995	0.074	21999	keystroke	Key.enter	n/a
11.084	8.272	22168	prompt	n/a	pray dirt inches honest\n
12.904	0.135	25808	keystroke	p	n/a
13.055	0.1045	26110	keystroke	r	n/a
13.309	0.045	26618	keystroke	a	n/a
13.519	0.0605	27038	keystroke	y	n/a
13.774	0.0755	27548	keystroke	Key.space	n/a
15.439	0.0905	30878	keystroke	d	n/a
15.5745	0.0595	31149	keystroke	i	n/a
15.679	0.075	31358	keystroke	r	n/a
16.0235	0.0755	32047	keystroke	t	n/a
16.219	0.0755	32438	keystroke	Key.space	n/a
16.5185	0.106	33037	keystroke	i	n/a
16.594	0.1055	33188	keystroke	n	n/a
16.7735	0.061	33547	keystroke	c	n/a
16.954	0.0605	33908	keystroke	h	n/a
17.0295	0.09	34059	keystroke	e	n/a
17.2535	0.106	34507	keystroke	s	n/a
17.4485	0.075	34897	keystroke	Key.space	n/a
17.944	0.0755	35888	keystroke	h	n/a
18.1385	0.1055	36277	keystroke	o	n/a
18.2885	0.091	36577	keystroke	n	n/a
18.454	0.075	36908	keystroke	e	n/a
18.6485	0.105	37297	keystroke	s	n/a
19.1145	0.06	38229	keystroke	t	n/a
19.2795	0.0745	38559	keystroke	Key.enter	n/a
19.36	7.106	38720	prompt	n/a	digit chancellor gone lucky\n
20.1485	0.09	40297	keystroke	d	n/a
20.329	0.1055	40658	keystroke	i	n/a
20.479	0.0755	40958	keystroke	g	n/a
20.5695	0.1045	41139	keystroke	i	n/a
20.854	0.0605	41708	keystroke	t	n/a
21.0335	0.0755	42067	keystroke	Key.space	n/a
21.2895	0.074	42579	keystroke	c	n/a
21.3945	0.09	42789	keystroke	h	n/a
21.485	0.0735	42970	keystroke	a	n/a
21.634	0.0755	43268	keystroke	n	n/a
21.9045	0.0895	43809	keystroke	c	n/a
22.3545	0.0895	44709	keystroke	e	n/a
22.5645	0.06	45129	keystroke	l	n/a
22.7145	0.06	45429	keystroke	l	n/a
22.8795	0.074	45759	keystroke	o	n/a
23.2985	0.076	46597	keystroke	r	n/a
23.4185	0.0905	46837	keystroke	Key.space	n/a
23.5535	0.075	47107	keystroke	g	n/a
23.6445	0.0895	47289	keystroke	o	n/a
23.7935	0.031	47587	keystroke	r	n/a
24.4985	0.09	48997	keystroke	Key.backspace	n/a
24.8295	0.0895	49659	keystroke	n	n/a
24.9635	0.076	49927	keystroke	e	n/a
25.309	0.0745	50618	keystroke	Key.space	n/a
25.5495	0.0895	51099	keystroke	l	n/a
25.7895	0.059	51579	keystroke	u	n/a
25.939	0.0755	51878	keystroke	c	n/a
26.015	0.0745	52030	keystroke	k	n/a
26.2845	0.075	52569	keystroke	y	n/a
26.4035	0.061	52807	keystroke	Key.enter	n/a
26.471	6.475	52942	prompt	n/a	jane wednesday ribbon stood\n
27.334	0.0455	54668	keystroke	j	n/a
27.3945	0.09	54789	keystroke	a	n/a
27.4995	0.0895	54999	keystroke	n	n/a
27.6045	0.06	55209	keystroke	e	n/a
27.7085	0.0905	55417	keystroke	Key.space	n/a
28.1295	0.0605	56259	keystroke	w	n/a
28.4445	0.074	56889	keystroke	e	n/a
29.2085	0.015	58417	keystroke	d	n/a
29.2845	0.0745	58569	keystroke	n	n/a
29.374	0.075	58748	keystroke	e	n/a
29.5845	0.059	59169	keystroke	s	n/a
29.8235	0.091	59647	keystroke	d	n/a
29.9745	0.0895	59949	keystroke	a	n/a
30.124	0.06	60248	keystroke	y	n/a
30.619	0.075	61238	keystroke	Key.space	n/a
30.9185	0.045	61837	keystroke	r	n/a
31.0535	0.091	62107	keystroke	i	n/a
31.2635	0.075	62527	keystroke	b	n/a
31.3985	0.0755	62797	keystroke	b	n/a
31.6385	0.135	63277	keystroke	o	n/a
31.7145	0.12	63429	keystroke	n	n/a
31.9685	0.075	63937	keystroke	Key.space	n/a
32.1045	0.09	64209	keystroke	s	n/a
32.3445	0.044	64689	keystroke	t	n/a
32.4785	0.045	64957	keystroke	o	n/a
32.5835	0.136	65167	keystroke	o	n/a
32.809	0.075	65618	keystroke	d	n/a
32.885	0.059	65770	keystroke	Key.enter	n/a
32.95	8.831	65900	prompt	n/a	vocal dude saves walker\n
33.7395	0.1645	67479	keystroke	c	n/a
34.1585	0.075	68317	keystroke	Key.backspace	n/a
34.2645	0.089	68529	keystroke	v	n/a
34.4135	0.075	68827	keystroke	o	n/a
35.1035	0.105	70207	keystroke	c	n/a
35.524	0.0595	71048	keystroke	a	n/a
35.6145	0.09	71229	keystroke	l	n/a
36.0485	0.06	72097	keystroke	Key.space	n/a
36.424	0.075	72848	keystroke	d	n/a
36.574	0.06	73148	keystroke	u	n/a
36.649	0.075	73298	keystroke	d	n/a
36.784	0.0895	73568	keystroke	Key.space	n/a
37.0085	0.12	74017	keystroke	s	n/a
37.3085	0.06	74617	keystroke	v	n/a
37.9095	0.12	75819	keystroke	Key.backspace	n/a
38.0295	0.075	76059	keystroke	a	n/a
38.629	0.105	77258	keystroke	v	n/a
38.764	0.09	77528	keystroke	e	n/a
39.004	0.0745	78008	keystroke	s	n/a
39.1835	0.075	78367	keystroke	Key.space	n/a
40.6685	0.0905	81337	keystroke	w	n/a
40.8795	0.0745	81759	keystroke	a	n/a
41.0595	0.0745	82119	keystroke	l	n/a
41.284	0.075	82568	keystroke	k	n/a
41.404	0.135	82808	keystroke	e	n/a
41.5695	0.0895	83139	keystroke	r	n/a
41.689	0.09	83378	keystroke	Key.enter	n/a
41.7855	9.116	83571	prompt	n/a	butterfly months oriental generate\n
42.7695	0.075	85539	keystroke	b	n/a
42.9195	0.075	85839	keystroke	u	n/a
43.1145	0.06	86229	keystroke	t	n/a
43.2495	0.074	86499	keystroke	t	n/a
43.3695	0.135	86739	keystroke	e	n/a
43.4895	0.09	86979	keystroke	r	n/a
43.7445	0.06	87489	keystroke	f	n/a
43.8645	0.105	87729	keystroke	l	n/a
44.2245	0.03	88449	keystroke	y	n/a
44.4785	0.06	88957	keystroke	Key.space	n/a
44.734	0.09	89468	keystroke	m	n/a
44.839	0.135	89678	keystroke	o	n/a
44.959	0.105	89918	keystroke	n	n/a
45.1385	0.0755	90277	keystroke	t	n/a
45.244	0.105	90488	keystroke	h	n/a
45.379	0.106	90758	keystroke	s	n/a
45.544	0.075	91088	keystroke	Key.space	n/a
46.0995	0.0895	92199	keystroke	o	n/a
46.249	0.09	92498	keystroke	r	n/a
46.414	0.15	92828	keystroke	i	n/a
46.7295	0.0905	93459	keystroke	e	n/a
47.1045	0.105	94209	keystroke	n	n/a
47.6445	0.074	95289	keystroke	t	n/a
47.885	0.0895	95770	keystroke	a	n/a
47.989	0.09	95978	keystroke	l	n/a
48.2745	0.09	96549	keystroke	Key.space	n/a
48.754	0.061	97508	keystroke	g	n/a
48.874	0.09	97748	keystroke	e	n/a
49.0385	0.0905	98077	keystroke	n	n/a
49.1745	0.1345	98349	keystroke	e	n/a
49.3545	0.105	98709	keystroke	r	n/a
49.5645	0.075	99129	keystroke	a	n/a
49.8045	0.134	99609	keystroke	t	n/a
49.984	0.105	99968	keystroke	e	n/a
50.8235	0.075	101647	keystroke	Key.enter	n/a
50.908	8.768	101816	prompt	n/a	asset strongly andreas expansion\n
51.8735	0.1205	103747	keystroke	a	n/a
52.0545	0.0745	104109	keystroke	s	n/a
52.219	0.09	104438	keystroke	s	n/a
52.504	0.075	105008	keystroke	e	n/a
53.014	0.0755	106028	keystroke	t	n/a
53.5835	0.075	107167	keystroke	Key.space	n/a
53.7345	0.09	107469	keystroke	s	n/a
54.004	0.135	108008	keystroke	t	n/a
54.1095	0.1345	108219	keystroke	r	n/a
54.259	0.15	108518	keystroke	o	n/a
54.364	0.15	108728	keystroke	n	n/a
54.559	0.0905	109118	keystroke	g	n/a
54.8595	0.135	109719	keystroke	l	n/a
55.3545	0.06	110709	keystroke	y	n/a
55.5485	0.0605	111097	keystroke	Key.space	n/a
56.014	0.09	112028	keystroke	a	n/a
56.2095	0.075	112419	keystroke	n	n/a
56.4645	0.09	112929	keystroke	d	n/a
56.7345	0.1645	113469	keystroke	r	n/a
56.914	0.165	113828	keystroke	e	n/a
57.199	0.09	114398	keystroke	a	n/a
57.4995	0.105	114999	keystroke	s	n/a
57.859	0.075	115718	keystroke	Key.space	n/a
58.054	0.0755	116108	keystroke	e	n/a
58.324	0.0905	116648	keystroke	x	n/a
58.504	0.1055	117008	keystroke	p	n/a
58.654	0.0745	117308	keystroke	a	n/a
58.7735	0.091	117547	keystroke	n	n/a
58.9545	0.0745	117909	keystroke	s	n/a
59.044	0.24	118088	keystroke	i	n/a
59.1495	0.1195	118299	keystroke	o	n/a
59.209	0.12	118418	keystroke	n	n/a
59.614	0.0605	119228	keystroke	Key.enter	n/a
59.6825	9.879	119365	prompt	n/a	lazy around affiliation independently\n
60.4845	0.075	120969	keystroke	l	n/a
60.5445	0.105	121089	keystroke	a	n/a
60.8595	0.0745	121719	keystroke	z	n/a
60.979	0.0755	121958	keystroke	y	n/a
61.174	0.0905	122348	keystroke	Key.space	n/a
61.235	0.074	122470	keystroke	a	n/a
61.4295	0.0755	122859	keystroke	r	n/a
61.534	0.105	123068	keystroke	o	n/a
61.8045	0.1345	123609	keystroke	u	n/a
61.9095	0.15	123819	keystroke	n	n/a
62.209	0.0605	124418	keystroke	d	n/a
62.3745	0.0895	124749	keystroke	Key.space	n/a
62.705	0.0895	125410	keystroke	a	n/a
62.9745	0.06	125949	keystroke	f	n/a
63.1095	0.09	126219	keystroke	f	n/a
63.2895	0.12	126579	keystroke	i	n/a
63.7845	0.18	127569	keystroke	l	n/a
64.144	0.1055	128288	keystroke	i	n/a
64.5945	0.0445	129189	keystroke	a	n/a
64.8195	0.075	129639	keystroke	t	n/a
64.969	0.18	129938	keystroke	i	n/a
65.014	0.1055	130028	keystroke	o	n/a
65.0895	0.1045	130179	keystroke	n	n/a
65.569	0.0745	131138	keystroke	Key.space	n/a
65.869	0.12	131738	keystroke	i	n/a
65.9295	0.15	131859	keystroke	n	n/a
66.139	0.0895	132278	keystroke	d	n/a
66.3035	0.0905	132607	keystroke	e	n/a
66.5135	0.105	133027	keystroke	p	n/a
66.6335	0.106	133267	keystroke	e	n/a
66.9035	0.0905	133807	keystroke	n	n/a
67.0685	0.12	134137	keystroke	d	n/a
68.119	0.1055	136238	keystroke	e	n/a
68.269	0.09	136538	keystroke	n	n/a
68.959	0.0905	137918	keystroke	t	n/a
69.1385	0.076	138277	keystroke	l	n/a
69.2435	0.061	138487	keystroke	y	n/a
69.4985	0.0605	138997	keystroke	Key.enter	n/a
69.5675	8.7535	139135	prompt	n/a	arrivals empire philadelphia nancy\n
70.234	0.015	140468	keystroke	a	n/a
70.369	0.075	140738	keystroke	r	n/a
70.519	0.0755	141038	keystroke	r	n/a
70.6095	0.075	141219	keystroke	i	n/a
70.8185	0.075	141637	keystroke	v	n/a
70.9685	0.105	141937	keystroke	a	n/a
71.0895	0.089	142179	keystroke	l	n/a
71.1935	0.09	142387	keystroke	s	n/a
71.3885	0.075	142777	keystroke	Key.space	n/a
71.7645	0.105	143529	keystroke	e	n/a
71.9895	0.105	143979	keystroke	m	n/a
72.2135	0.0905	144427	keystroke	p	n/a
72.5135	0.075	145027	keystroke	i	n/a
72.6185	0.075	145237	keystroke	r	n/a
73.2495	0.15	146499	keystroke	e	n/a
73.714	0.06	147428	keystroke	Key.space	n/a
73.984	0.1045	147968	keystroke	p	n/a
74.254	0.0745	148508	keystroke	h	n/a
74.3735	0.121	148747	keystroke	i	n/a
74.6295	0.1045	149259	keystroke	l	n/a
74.7795	0.06	149559	keystroke	a	n/a
75.4095	0.0745	150819	keystroke	d	n/a
75.559	0.0755	151118	keystroke	e	n/a
75.784	0.0605	151568	keystroke	l	n/a
76.0995	0.12	152199	keystroke	p	n/a
76.3685	0.09	152737	keystroke	h	n/a
76.519	0.1055	153038	keystroke	i	n/a
76.6845	0.075	153369	keystroke	a	n/a
76.8795	0.09	153759	keystroke	Key.space	n/a
77.3445	0.1045	154689	keystroke	n	n/a
77.434	0.0755	154868	keystroke	a	n/a
77.5545	0.105	155109	keystroke	n	n/a
77.824	0.0755	155648	keystroke	c	n/a
78.019	0.06	156038	keystroke	y	n/a
78.244	0.0755	156488	keystroke	Key.enter	n/a
78.327	8.3035	156654	prompt	n/a	bunch definitely spiritual artwork\n
79.0695	0.074	158139	keystroke	b	n/a
79.2045	0.089	158409	keystroke	u	n/a
79.3685	0.12	158737	keystroke	n	n/a
79.5035	0.091	159007	keystroke	c	n/a
79.6095	0.09	159219	keystroke	h	n/a
79.9695	0.045	159939	keystroke	Key.space	n/a
80.2695	0.0895	160539	keystroke	d	n/a
80.434	0.09	160868	keystroke	e	n/a
80.5695	0.105	161139	keystroke	f	n/a
80.7195	0.105	161439	keystroke	i	n/a
80.7945	0.12	161589	keystroke	n	n/a
80.9595	0.104	161919	keystroke	i	n/a
81.934	0.09	163868	keystroke	t	n/a
82.1295	0.105	164259	keystroke	e	n/a
82.3085	0.121	164617	keystroke	l	n/a
82.4745	0.075	164949	keystroke	y	n/a
82.669	0.0755	165338	keystroke	Key.space	n/a
83.1945	0.06	166389	keystroke	s	n/a
83.3595	0.0745	166719	keystroke	p	n/a
83.5995	0.075	167199	keystroke	i	n/a
83.9595	0.09	167919	keystroke	r	n/a
84.1545	0.105	168309	keystroke	i	n/a
84.3345	0.059	168669	keystroke	t	n/a
84.4545	0.0745	168909	keystroke	u	n/a
84.6195	0.0895	169239	keystroke	a	n/a
84.739	0.105	169478	keystroke	l	n/a
85.069	0.09	170138	keystroke	Key.space	n/a
85.3095	0.045	170619	keystroke	a	n/a
85.5045	0.075	171009	keystroke	r	n/a
85.7145	0.06	171429	keystroke	t	n/a
85.9845	0.09	171969	keystroke	w	n/a
86.1345	0.1045	172269	keystroke	o	n/a
86.2845	0.0745	172569	keystroke	r	n/a
86.4045	0.09	172809	keystroke	k	n/a
86.539	0.09	173078	keystroke	Key.enter	n/a
86.635	6.6855	173270	prompt	n/a	happening affects brother alpine\n
87.305	0.0735	174610	keystroke	h	n/a
87.394	0.076	174788	keystroke	a	n/a
87.544	0.06	175088	keystroke	p	n/a
87.68	0.0895	175360	keystroke	p	n/a
87.7845	0.06	175569	keystroke	e	n/a
87.9045	0.0905	175809	keystroke	n	n/a
88.085	0.1195	176170	keystroke	i	n/a
88.1745	0.135	176349	keystroke	n	n/a
88.3695	0.06	176739	keystroke	g	n/a
88.9845	0.059	177969	keystroke	Key.space	n/a
89.1645	0.0595	178329	keystroke	a	n/a
89.3595	0.045	178719	keystroke	f	n/a
89.4795	0.06	178959	keystroke	f	n/a
89.615	0.1045	179230	keystroke	e	n/a
90.0495	0.0895	180099	keystroke	c	n/a
90.289	0.0455	180578	keystroke	t	n/a
90.5735	0.06	181147	keystroke	s	n/a
90.7395	0.0605	181479	keystroke	Key.space	n/a
90.9495	0.075	181899	keystroke	b	n/a
91.0535	0.075	182107	keystroke	r	n/a
91.159	0.0905	182318	keystroke	o	n/a
91.2935	0.076	182587	keystroke	t	n/a
91.3995	0.075	182799	keystroke	h	n/a
91.4595	0.135	182919	keystroke	e	n/a
91.5645	0.075	183129	keystroke	r	n/a
91.7145	0.075	183429	keystroke	Key.space	n/a
91.9695	0.0745	183939	keystroke	a	n/a
92.42	0.059	184840	keystroke	l	n/a
92.614	0.106	185228	keystroke	p	n/a
92.8845	0.135	185769	keystroke	i	n/a
92.9595	0.135	185919	keystroke	n	n/a
93.1245	0.06	186249	keystroke	e	n/a
93.2745	0.045	186549	keystroke	Key.enter	n/a
93.3245	9.7765	186649	prompt	n/a	wheat chevrolet insider publishing\n
94.099	0.0755	188198	keystroke	w	n/a
94.2345	0.06	188469	keystroke	h	n/a
94.3095	0.2245	188619	keystroke	a	n/a
94.804	0.0445	189608	keystroke	Key.backspace	n/a
95.285	0.119	190570	keystroke	e	n/a
95.3895	0.1045	190779	keystroke	a	n/a
95.5695	0.09	191139	keystroke	t	n/a
95.8545	0.0895	191709	keystroke	Key.space	n/a
96.529	0.075	193058	keystroke	c	n/a
96.679	0.075	193358	keystroke	h	n/a
96.8145	0.105	193629	keystroke	e	n/a
97.1595	0.075	194319	keystroke	v	n/a
98.1495	0.075	196299	keystroke	r	n/a
98.3595	0.075	196719	keystroke	o	n/a
98.54	0.0895	197080	keystroke	l	n/a
98.6445	0.09	197289	keystroke	e	n/a
98.84	0.0745	197680	keystroke	t	n/a
99.0485	0.06	198097	keystroke	Key.space	n/a
99.7395	0.105	199479	keystroke	i	n/a
99.889	0.1055	199778	keystroke	n	n/a
100.099	0.075	200198	keystroke	s	n/a
100.294	0.075	200588	keystroke	i	n/a
100.384	0.105	200768	keystroke	d	n/a
100.5645	0.12	201129	keystroke	e	n/a
100.6985	0.106	201397	keystroke	r	n/a
100.909	0.075	201818	keystroke	Key.space	n/a
101.404	0.075	202808	keystroke	p	n/a
101.689	0.1055	203378	keystroke	u	n/a
101.749	0.12	203498	keystroke	b	n/a
102.034	0.1055	204068	keystroke	l	n/a
102.2745	0.075	204549	keystroke	i	n/a
102.3795	0.0745	204759	keystroke	s	n/a
102.499	0.1205	204998	keystroke	h	n/a
102.604	0.1355	205208	keystroke	i	n/a
102.7245	0.135	205449	keystroke	n	n/a
102.8435	0.091	205687	keystroke	g	n/a
103.0235	0.075	206047	keystroke	Key.enter	n/a
103.1055	7.991	206211	prompt	n/a	growth wisdom physical peaceful\n
103.969	0.0605	207938	keystroke	g	n/a
104.119	0.06	208238	keystroke	r	n/a
104.2245	0.1055	208449	keystroke	o	n/a
104.494	0.0455	208988	keystroke	w	n/a
104.6895	0.06	209379	keystroke	t	n/a
104.7945	0.0905	209589	keystroke	h	n/a
105.0795	0.0745	210159	keystroke	Key.space	n/a
105.4395	0.075	210879	keystroke	w	n/a
105.5885	0.0765	211177	keystroke	i	n/a
105.679	0.0895	211358	keystroke	s	n/a
105.9495	0.06	211899	keystroke	d	n/a
106.0245	0.134	212049	keystroke	o	n/a
106.1145	0.134	212229	keystroke	m	n/a
106.2785	0.076	212557	keystroke	e	n/a
106.4285	0.0755	212857	keystroke	Key.space	n/a
106.7895	0.0895	213579	keystroke	p	n/a
107.0605	0.0735	214121	keystroke	h	n/a
107.224	0.075	214448	keystroke	y	n/a
107.3445	0.075	214689	keystroke	s	n/a
107.4945	0.075	214989	keystroke	i	n/a
107.6445	0.0755	215289	keystroke	c	n/a
107.8245	0.0595	215649	keystroke	a	n/a
107.929	0.0755	215858	keystroke	l	n/a
109.1595	0.06	218319	keystroke	Key.space	n/a
109.474	0.091	218948	keystroke	p	n/a
109.58	0.119	219160	keystroke	e	n/a
109.7145	0.1055	219429	keystroke	a	n/a
109.9245	0.0755	219849	keystroke	c	n/a
110.12	0.059	220240	keystroke	e	n/a
110.4195	0.075	220839	keystroke	f	n/a
110.5545	0.0895	221109	keystroke	u	n/a
110.779	0.1055	221558	keystroke	l	n/a
111.0345	0.06	222069	keystroke	Key.enter	n/a
111.101	10.0595	222202	prompt	n/a	renewable sentences halloween makeup\n
111.8745	0.105	223749	keystroke	r	n/a
111.949	0.09	223898	keystroke	e	n/a
112.144	0.075	224288	keystroke	n	n/a
112.249	0.12	224498	keystroke	e	n/a
112.9245	0.09	225849	keystroke	w	n/a
113.149	0.09	226298	keystroke	a	n/a
113.4195	0.075	226839	keystroke	b	n/a
113.6295	0.075	227259	keystroke	l	n/a
113.7345	0.075	227469	keystroke	e	n/a
113.8845	0.074	227769	keystroke	Key.space	n/a
114.4245	0.0445	228849	keystroke	s	n/a
114.6195	0.075	229239	keystroke	e	n/a
114.7245	0.075	229449	keystroke	n	n/a
114.9645	0.06	229929	keystroke	t	n/a
115.1145	0.09	230229	keystroke	e	n/a
115.2335	0.121	230467	keystroke	n	n/a
115.489	0.0745	230978	keystroke	c	n/a
115.7885	0.09	231577	keystroke	e	n/a
116.2545	0.0895	232509	keystroke	s	n/a
116.4945	0.074	232989	keystroke	Key.space	n/a
116.749	0.0605	233498	keystroke	h	n/a
116.7945	0.075	233589	keystroke	a	n/a
117.004	0.0595	234008	keystroke	l	n/a
117.124	0.0745	234248	keystroke	l	n/a
117.2885	0.091	234577	keystroke	o	n/a
117.3495	0.0895	234699	keystroke	w	n/a
117.4985	0.0905	234997	keystroke	e	n/a
117.634	0.0445	235268	keystroke	n	n/a
117.724	0.0895	235448	keystroke	e	n/a
118.054	0.0745	236108	keystroke	Key.backspace	n/a
118.234	0.09	236468	keystroke	Key.backspace	n/a
118.399	0.09	236798	keystroke	e	n/a
118.534	0.0905	237068	keystroke	n	n/a
118.939	0.0605	237878	keystroke	Key.space	n/a
119.1945	0.09	238389	keystroke	m	n/a
119.6895	0.12	239379	keystroke	a	n/a
119.9745	0.1045	239949	keystroke	k	n/a
120.274	0.09	240548	keystroke	e	n/a
120.409	0.12	240818	keystroke	u	n/a
120.7835	0.0755	241567	keystroke	p	n/a
121.114	0.045	242228	keystroke	Key.enter	n/a
121.164	10.1815	242328	prompt	n/a	prayer transferred toolkit contemporary\n
121.9695	0.1045	243939	keystroke	p	n/a
122.209	0.0755	244418	keystroke	r	n/a
122.419	0.09	244838	keystroke	a	n/a
122.5395	0.074	245079	keystroke	y	n/a
122.6895	0.12	245379	keystroke	e	n/a
122.8245	0.0745	245649	keystroke	r	n/a
123.049	0.075	246098	keystroke	Key.space	n/a
123.439	0.105	246878	keystroke	t	n/a
123.634	0.075	247268	keystroke	r	n/a
123.844	0.06	247688	keystroke	a	n/a
124.0095	0.09	248019	keystroke	n	n/a
124.579	0.12	249158	keystroke	s	n/a
124.909	0.0605	249818	keystroke	f	n/a
125.059	0.0745	250118	keystroke	f	n/a
125.4335	0.1055	250867	keystroke	Key.backspace	n/a
125.629	0.075	251258	keystroke	e	n/a
125.8995	0.045	251799	keystroke	r	n/a
126.019	0.0905	252038	keystroke	r	n/a
126.154	0.1205	252308	keystroke	e	n/a
126.3345	0.135	252669	keystroke	d	n/a
126.754	0.075	253508	keystroke	Key.space	n/a
127.0545	0.0595	254109	keystroke	t	n/a
127.2345	0.045	254469	keystroke	o	n/a
127.3545	0.06	254709	keystroke	o	n/a
127.534	0.0755	255068	keystroke	l	n/a
127.7895	0.0895	255579	keystroke	k	n/a
128.059	0.0755	256118	keystroke	i	n/a
128.389	0.0755	256778	keystroke	t	n/a
128.5985	0.0755	257197	keystroke	Key.space	n/a
128.8835	0.121	257767	keystroke	c	n/a
129.02	0.119	258040	keystroke	o	n/a
129.109	0.105	258218	keystroke	n	n/a
129.2595	0.06	258519	keystroke	t	n/a
129.6185	0.0905	259237	keystroke	e	n/a
129.814	0.075	259628	keystroke	m	n/a
130.0385	0.075	260077	keystroke	p	n/a
130.234	0.06	260468	keystroke	o	n/a
130.354	0.09	260708	keystroke	r	n/a
130.6385	0.1055	261277	keystroke	a	n/a
130.774	0.105	261548	keystroke	r	n/a
131.0895	0.06	262179	keystroke	y	n/a
131.269	0.075	262538	keystroke	Key.enter	n/a
131.349	9.912	262698	prompt	n/a	house exhaust amanda carnival\n
133.039	0.0755	266078	keystroke	h	n/a
133.189	0.09	266378	keystroke	o	n/a
133.384	0.075	266768	keystroke	u	n/a
133.444	0.075	266888	keystroke	s	n/a
133.639	0.045	267278	keystroke	e	n/a
133.999	0.0905	267998	keystroke	Key.space	n/a
134.1485	0.091	268297	keystroke	e	n/a
134.404	0.0895	268808	keystroke	x	n/a
134.629	0.075	269258	keystroke	h	n/a
134.734	0.075	269468	keystroke	a	n/a
134.944	0.075	269888	keystroke	u	n/a
135.0495	0.0895	270099	keystroke	s	n/a
135.379	0.06	270758	keystroke	t	n/a
135.634	0.075	271268	keystroke	Key.space	n/a
135.994	0.06	271988	keystroke	a	n/a
136.129	0.0905	272258	keystroke	m	n/a
136.774	0.0755	273548	keystroke	n	n/a
137.2985	0.075	274597	keystroke	Key.backspace	n/a
137.4785	0.0765	274957	keystroke	a	n/a
137.614	0.0895	275228	keystroke	n	n/a
137.7945	0.1345	275589	keystroke	d	n/a
138.1995	0.075	276399	keystroke	s	n/a
138.7545	0.074	277509	keystroke	Key.backspace	n/a
138.8145	0.1195	277629	keystroke	a	n/a
139.144	0.075	278288	keystroke	Key.space	n/a
139.443	0.076	278886	keystroke	c	n/a
139.579	0.1205	279158	keystroke	a	n/a
139.789	0.075	279578	keystroke	r	n/a
139.939	0.075	279878	keystroke	n	n/a
140.103	0.09	280206	keystroke	i	n/a
140.2695	0.15	280539	keystroke	c	n/a
140.5845	0.0895	281169	keystroke	Key.backspace	n/a
140.6595	0.0895	281319	keystroke	v	n/a
140.7945	0.0745	281589	keystroke	a	n/a
140.884	0.105	281768	keystroke	l	n/a
141.169	0.09	282338	keystroke	Key.enter	n/a
141.2655	7.345	282531	prompt	n/a	carolina greece organized arrival\n
141.9795	0.12	283959	keystroke	c	n/a
142.1585	0.1205	284317	keystroke	a	n/a
142.339	0.075	284678	keystroke	r	n/a
142.519	0.06	285038	keystroke	o	n/a
142.6845	0.09	285369	keystroke	l	n/a
142.894	0.075	285788	keystroke	i	n/a
143.0145	0.09	286029	keystroke	n	n/a
143.1335	0.09	286267	keystroke	a	n/a
143.284	0.075	286568	keystroke	Key.space	n/a
143.794	0.075	287588	keystroke	g	n/a
143.929	0.09	287858	keystroke	r	n/a
144.1545	0.059	288309	keystroke	e	n/a
144.2895	0.09	288579	keystroke	e	n/a
144.5295	0.059	289059	keystroke	c	n/a
144.6635	0.0755	289327	keystroke	e	n/a
144.829	0.09	289658	keystroke	Key.space	n/a
145.279	0.09	290558	keystroke	o	n/a
145.399	0.075	290798	keystroke	r	n/a
145.6385	0.075	291277	keystroke	g	n/a
145.819	0.0745	291638	keystroke	a	n/a
145.9385	0.105	291877	keystroke	n	n/a
146.4045	0.12	292809	keystroke	i	n/a
146.5385	0.076	293077	keystroke	z	n/a
146.7935	0.106	293587	keystroke	e	n/a
146.8835	0.151	293767	keystroke	d	n/a
147.0635	0.09	294127	keystroke	Key.space	n/a
147.3795	0.09	294759	keystroke	a	n/a
147.5735	0.061	295147	keystroke	r	n/a
147.6945	0.074	295389	keystroke	r	n/a
147.8295	0.0895	295659	keystroke	i	n/a
148.0385	0.075	296077	keystroke	v	n/a
148.189	0.09	296378	keystroke	a	n/a
148.339	0.075	296678	keystroke	l	n/a
148.5335	0.075	297067	keystroke	Key.enter	n/a
148.6165	6.924	297233	prompt	n/a	point handle recommendation rocky\n
149.5235	0.015	299047	keystroke	p	n/a
149.6585	0.06	299317	keystroke	o	n/a
149.854	0.1195	299708	keystroke	i	n/a
149.9435	0.105	299887	keystroke	n	n/a
150.079	0.0745	300158	keystroke	t	n/a
150.1985	0.075	300397	keystroke	Key.space	n/a
150.4245	0.0745	300849	keystroke	h	n/a
150.4995	0.0895	300999	keystroke	a	n/a
150.6195	0.0895	301239	keystroke	n	n/a
150.7845	0.0595	301569	keystroke	d	n/a
150.8745	0.0895	301749	keystroke	l	n/a
151.0095	0.0595	302019	keystroke	e	n/a
151.144	0.075	302288	keystroke	Key.space	n/a
151.654	0.075	303308	keystroke	r	n/a
151.759	0.12	303518	keystroke	e	n/a
152.0145	0.0745	304029	keystroke	c	n/a
152.179	0.12	304358	keystroke	o	n/a
152.434	0.075	304868	keystroke	m	n/a
152.584	0.09	305168	keystroke	m	n/a
152.7795	0.075	305559	keystroke	e	n/a
152.8845	0.075	305769	keystroke	n	n/a
153.3195	0.075	306639	keystroke	d	n/a
153.4395	0.119	306879	keystroke	a	n/a
153.6335	0.061	307267	keystroke	t	n/a
153.724	0.1805	307448	keystroke	i	n/a
153.7695	0.105	307539	keystroke	o	n/a
153.8285	0.12	307657	keystroke	n	n/a
154.414	0.105	308828	keystroke	Key.space	n/a
154.669	0.0905	309338	keystroke	r	n/a
154.8495	0.09	309699	keystroke	o	n/a
155.0585	0.06	310117	keystroke	c	n/a
155.1785	0.091	310357	keystroke	k	n/a
155.3735	0.06	310747	keystroke	y	n/a
155.4485	0.09	310897	keystroke	Key.enter	n/a
155.5465	7.8995	311093	prompt	n/a	underground highlight answer draw\n
156.364	0.09	312728	keystroke	u	n/a
156.529	0.0745	313058	keystroke	n	n/a
156.7545	0.105	313509	keystroke	f	n/a
157.069	0.0745	314138	keystroke	Key.backspace	n/a
157.1595	0.09	314319	keystroke	d	n/a
157.2795	0.165	314559	keystroke	e	n/a
157.4295	0.0895	314859	keystroke	r	n/a
157.9995	0.06	315999	keystroke	g	n/a
158.134	0.075	316268	keystroke	r	n/a
158.254	0.06	316508	keystroke	o	n/a
158.4495	0.1195	316899	keystroke	u	n/a
158.5395	0.105	317079	keystroke	n	n/a
158.6595	0.09	317319	keystroke	d	n/a
158.8685	0.0755	317737	keystroke	Key.space	n/a
159.2295	0.09	318459	keystroke	h	n/a
159.3795	0.1195	318759	keystroke	i	n/a
159.559	0.075	319118	keystroke	g	n/a
159.649	0.0895	319298	keystroke	h	n/a
159.919	0.075	319838	keystroke	l	n/a
160.129	0.0905	320258	keystroke	i	n/a
160.2645	0.0745	320529	keystroke	g	n/a
160.3685	0.076	320737	keystroke	h	n/a
160.489	0.0745	320978	keystroke	t	n/a
160.744	0.075	321488	keystroke	Key.space	n/a
161.1945	0.045	322389	keystroke	a	n/a
161.314	0.06	322628	keystroke	n	n/a
161.419	0.075	322838	keystroke	s	n/a
161.614	0.0895	323228	keystroke	w	n/a
161.7935	0.09	323587	keystroke	e	n/a
162.0035	0.0755	324007	keystroke	r	n/a
162.139	0.09	324278	keystroke	Key.space	n/a
162.4545	0.0745	324909	keystroke	d	n/a
162.664	0.045	325328	keystroke	r	n/a
163.039	0.09	326078	keystroke	a	n/a
163.1885	0.0605	326377	keystroke	w	n/a
163.354	0.09	326708	keystroke	Key.enter	n/a
163.452	7.059	326904	prompt	n/a	hans determination cognitive point\n
164.194	0.075	328388	keystroke	h	n/a
164.284	0.0905	328568	keystroke	a	n/a
164.4195	0.09	328839	keystroke	n	n/a
164.5835	0.076	329167	keystroke	s	n/a
164.7035	0.076	329407	keystroke	Key.space	n/a
165.1535	0.061	330307	keystroke	d	n/a
165.289	0.0905	330578	keystroke	e	n/a
165.4845	0.0595	330969	keystroke	t	n/a
165.604	0.12	331208	keystroke	e	n/a
165.7095	0.0895	331419	keystroke	r	n/a
165.859	0.0905	331718	keystroke	m	n/a
166.039	0.12	332078	keystroke	i	n/a
166.0995	0.1195	332199	keystroke	n	n/a
166.234	0.09	332468	keystroke	a	n/a
166.4435	0.061	332887	keystroke	t	n/a
166.534	0.1805	333068	keystroke	i	n/a
166.5945	0.105	333189	keystroke	o	n/a
166.654	0.1205	333308	keystroke	n	n/a
166.999	0.075	333998	keystroke	Key.space	n/a
167.404	0.0605	334808	keystroke	c	n/a
167.494	0.0895	334988	keystroke	o	n/a
167.9295	0.0445	335859	keystroke	g	n/a
168.0795	0.0895	336159	keystroke	n	n/a
168.2595	0.0895	336519	keystroke	i	n/a
168.5295	0.045	337059	keystroke	t	n/a
168.6345	0.074	337269	keystroke	i	n/a
168.829	0.06	337658	keystroke	v	n/a
168.964	0.0755	337928	keystroke	e	n/a
169.114	0.075	338228	keystroke	Key.space	n/a
169.774	0.0895	339548	keystroke	p	n/a
169.9835	0.045	339967	keystroke	o	n/a
170.1635	0.1055	340327	keystroke	i	n/a
170.224	0.105	340448	keystroke	n	n/a
170.314	0.06	340628	keystroke	t	n/a
170.4335	0.075	340867	keystroke	Key.enter	n/a
170.516	5.979	341032	prompt	n/a	intend same samples creating\n
171.154	0.105	342308	keystroke	i	n/a
171.259	0.0905	342518	keystroke	n	n/a
171.3795	0.075	342759	keystroke	t	n/a
171.514	0.1205	343028	keystroke	e	n/a
171.6945	0.089	343389	keystroke	n	n/a
171.8145	0.09	343629	keystroke	d	n/a
171.949	0.075	343898	keystroke	Key.space	n/a
172.564	0.1355	345128	keystroke	s	n/a
172.7585	0.06	345517	keystroke	a	n/a
172.834	0.09	345668	keystroke	m	n/a
172.9545	0.0595	345909	keystroke	e	n/a
173.044	0.0895	346088	keystroke	Key.space	n/a
173.1935	0.1205	346387	keystroke	s	n/a
173.344	0.1055	346688	keystroke	a	n/a
173.5395	0.059	347079	keystroke	m	n/a
173.719	0.12	347438	keystroke	p	n/a
173.794	0.105	347588	keystroke	l	n/a
173.899	0.0755	347798	keystroke	e	n/a
174.109	0.09	348218	keystroke	s	n/a
174.259	0.09	348518	keystroke	Key.space	n/a
174.6195	0.059	349239	keystroke	c	n/a
174.949	0.1355	349898	keystroke	r	n/a
175.0685	0.165	350137	keystroke	e	n/a
175.2485	0.09	350497	keystroke	a	n/a
175.414	0.1045	350828	keystroke	t	n/a
175.5945	0.119	351189	keystroke	i	n/a
175.669	0.12	351338	keystroke	n	n/a
175.819	0.105	351638	keystroke	g	n/a
176.059	0.0595	352118	keystroke	Key.space	n/a
176.404	0.089	352808	keystroke	Key.enter	n/a
176.499	10.182	352998	prompt	n/a	connecticut breach channel prospects\n
177.304	0.0605	354608	keystroke	c	n/a
177.4235	0.1655	354847	keystroke	o	n/a
177.7695	0.059	355539	keystroke	n	n/a
177.9035	0.105	355807	keystroke	n	n/a
178.069	0.0745	356138	keystroke	e	n/a
179.209	0.1195	358418	keystroke	c	n/a
179.704	0.0455	359408	keystroke	t	n/a
179.824	0.09	359648	keystroke	i	n/a
180.049	0.12	360098	keystroke	c	n/a
180.184	0.0755	360368	keystroke	u	n/a
180.3645	0.0595	360729	keystroke	t	n/a
180.574	0.075	361148	keystroke	Key.space	n/a
181.2945	0.0445	362589	keystroke	b	n/a
181.4745	0.15	362949	keystroke	r	n/a
181.564	0.15	363128	keystroke	e	n/a
182.0295	0.09	364059	keystroke	a	n/a
182.269	0.075	364538	keystroke	c	n/a
182.374	0.075	364748	keystroke	h	n/a
182.614	0.075	365228	keystroke	Key.space	n/a
183.1835	0.076	366367	keystroke	c	n/a
183.3185	0.091	366637	keystroke	h	n/a
183.394	0.0745	366788	keystroke	a	n/a
183.529	0.075	367058	keystroke	n	n/a
183.6495	0.075	367299	keystroke	n	n/a
183.8135	0.046	367627	keystroke	e	n/a
183.8745	0.0895	367749	keystroke	l	n/a
184.1435	0.075	368287	keystroke	Key.space	n/a
184.4595	0.1195	368919	keystroke	p	n/a
184.639	0.075	369278	keystroke	r	n/a
184.729	0.0905	369458	keystroke	o	n/a
184.9695	0.105	369939	keystroke	s	n/a
185.5995	0.0745	371199	keystroke	p	n/a
185.7785	0.0905	371557	keystroke	e	n/a
186.034	0.075	372068	keystroke	c	n/a
186.274	0.045	372548	keystroke	t	n/a
186.499	0.0755	372998	keystroke	s	n/a
186.589	0.0905	373178	keystroke	Key.enter	n/a
186.6855	7.2105	373371	prompt	n/a	its tiffany archive started\n
187.4885	0.0755	374977	keystroke	i	n/a
187.5785	0.0755	375157	keystroke	t	n/a
187.7735	0.09	375547	keystroke	s	n/a
187.894	0.1045	375788	keystroke	Key.space	n/a
188.0745	0.059	376149	keystroke	t	n/a
188.179	0.0745	376358	keystroke	i	n/a
188.4185	0.09	376837	keystroke	f	n/a
189.094	0.0905	378188	keystroke	f	n/a
189.2295	0.09	378459	keystroke	a	n/a
189.4385	0.09	378877	keystroke	n	n/a
189.709	0.06	379418	keystroke	y	n/a
189.949	0.075	379898	keystroke	Key.space	n/a
190.564	0.075	381128	keystroke	a	n/a
190.954	0.075	381908	keystroke	r	n/a
191.1795	0.0895	382359	keystroke	c	n/a
191.374	0.06	382748	keystroke	h	n/a
191.524	0.105	383048	keystroke	i	n/a
191.749	0.06	383498	keystroke	c	n/a
192.064	0.075	384128	keystroke	Key.backspace	n/a
192.124	0.0905	384248	keystroke	v	n/a
192.244	0.105	384488	keystroke	e	n/a
192.424	0.075	384848	keystroke	Key.space	n/a
192.739	0.1055	385478	keystroke	s	n/a
192.9495	0.0895	385899	keystroke	t	n/a
193.069	0.105	386138	keystroke	a	n/a
193.204	0.09	386408	keystroke	r	n/a
193.444	0.045	386888	keystroke	t	n/a
193.579	0.1195	387158	keystroke	e	n/a
193.729	0.105	387458	keystroke	d	n/a
193.8185	0.0755	387637	keystroke	Key.enter	n/a
193.9	8.156	387800	prompt	n/a	raid spatial baptist newsletters\n
194.704	0.0745	389408	keystroke	r	n/a
194.884	0.0895	389768	keystroke	a	n/a
195.004	0.0905	390008	keystroke	i	n/a
195.2145	0.045	390429	keystroke	s	n/a
195.664	0.15	391328	keystroke	Key.backspace	n/a
195.8445	0.089	391689	keystroke	d	n/a
196.0685	0.091	392137	keystroke	Key.space	n/a
196.384	0.1045	392768	keystroke	s	n/a
196.609	0.0905	393218	keystroke	p	n/a
196.669	0.105	393338	keystroke	a	n/a
196.954	0.06	393908	keystroke	t	n/a
197.074	0.1055	394148	keystroke	i	n/a
197.239	0.105	394478	keystroke	a	n/a
197.419	0.075	394838	keystroke	l	n/a
197.734	0.0745	395468	keystroke	Key.space	n/a
198.049	0.09	396098	keystroke	b	n/a
198.124	0.075	396248	keystroke	a	n/a
198.334	0.1205	396668	keystroke	p	n/a
198.6035	0.076	397207	keystroke	t	n/a
198.6945	0.104	397389	keystroke	i	n/a
198.8135	0.136	397627	keystroke	s	n/a
199.0395	0.0745	398079	keystroke	t	n/a
199.234	0.09	398468	keystroke	Key.space	n/a
199.489	0.075	398978	keystroke	n	n/a
199.714	0.045	399428	keystroke	e	n/a
200.1035	0.076	400207	keystroke	w	n/a
200.434	0.075	400868	keystroke	s	n/a
200.689	0.1055	401378	keystroke	l	n/a
200.8395	0.104	401679	keystroke	e	n/a
201.3195	0.015	402639	keystroke	t	n/a
201.4245	0.0745	402849	keystroke	t	n/a
201.574	0.135	403148	keystroke	e	n/a
201.6795	0.0895	403359	keystroke	r	n/a
201.8435	0.0755	403687	keystroke	s	n/a
201.994	0.0605	403988	keystroke	Key.enter	n/a
202.06	6.6855	404120	prompt	n/a	recorder picks proceed granted\n
202.699	0.1055	405398	keystroke	r	n/a
202.774	0.135	405548	keystroke	e	n/a
203.029	0.09	406058	keystroke	c	n/a
203.209	0.1205	406418	keystroke	o	n/a
203.3145	0.075	406629	keystroke	r	n/a
203.5245	0.12	407049	keystroke	d	n/a
204.0345	0.165	408069	keystroke	e	n/a
204.2895	0.0905	408579	keystroke	r	n/a
204.5895	0.09	409179	keystroke	Key.space	n/a
204.8735	0.09	409747	keystroke	p	n/a
205.0835	0.075	410167	keystroke	i	n/a
205.2035	0.09	410407	keystroke	c	n/a
205.279	0.105	410558	keystroke	k	n/a
205.4285	0.0905	410857	keystroke	s	n/a
205.5485	0.0905	411097	keystroke	Key.space	n/a
205.864	0.1205	411728	keystroke	p	n/a
206.0295	0.075	412059	keystroke	r	n/a
206.134	0.105	412268	keystroke	o	n/a
206.3445	0.0595	412689	keystroke	c	n/a
206.449	0.105	412898	keystroke	e	n/a
206.659	0.1355	413318	keystroke	e	n/a
206.809	0.105	413618	keystroke	d	n/a
206.974	0.09	413948	keystroke	Key.space	n/a
207.5885	0.076	415177	keystroke	g	n/a
207.6935	0.121	415387	keystroke	r	n/a
207.8735	0.076	415747	keystroke	a	n/a
207.9945	0.075	415989	keystroke	n	n/a
208.204	0.0905	416408	keystroke	t	n/a
208.2795	0.165	416559	keystroke	e	n/a
208.4895	0.089	416979	keystroke	d	n/a
208.6695	0.0745	417339	keystroke	Key.enter	n/a
208.749	10.017	417498	prompt	n/a	administered materials moderator source\n
209.4195	0.074	418839	keystroke	a	n/a
209.6435	0.09	419287	keystroke	d	n/a
209.899	0.06	419798	keystroke	m	n/a
210.1235	0.1205	420247	keystroke	i	n/a
210.184	0.12	420368	keystroke	n	n/a
210.589	0.075	421178	keystroke	s	n/a
211.399	0.105	422798	keystroke	Key.backspace	n/a
211.9995	0.0595	423999	keystroke	i	n/a
212.044	0.09	424088	keystroke	s	n/a
212.329	0.075	424658	keystroke	t	n/a
212.4195	0.1795	424839	keystroke	e	n/a
212.569	0.135	425138	keystroke	r	n/a
212.719	0.1505	425438	keystroke	e	n/a
212.8545	0.105	425709	keystroke	d	n/a
213.1985	0.076	426397	keystroke	Key.space	n/a
213.4845	0.075	426969	keystroke	m	n/a
213.5295	0.09	427059	keystroke	a	n/a
213.7395	0.075	427479	keystroke	t	n/a
213.8595	0.15	427719	keystroke	e	n/a
213.964	0.1055	427928	keystroke	r	n/a
214.129	0.0755	428258	keystroke	i	n/a
214.2345	0.074	428469	keystroke	a	n/a
214.3995	0.075	428799	keystroke	l	n/a
214.5195	0.105	429039	keystroke	s	n/a
214.6695	0.089	429339	keystroke	Key.space	n/a
214.9685	0.09	429937	keystroke	m	n/a
215.1785	0.1055	430357	keystroke	o	n/a
215.3145	0.0895	430629	keystroke	d	n/a
215.449	0.1495	430898	keystroke	e	n/a
215.584	0.0905	431168	keystroke	r	n/a
215.8095	0.075	431619	keystroke	a	n/a
216.8595	0.0595	433719	keystroke	t	n/a
217.009	0.0905	434018	keystroke	o	n/a
217.114	0.09	434228	keystroke	r	n/a
217.279	0.075	434558	keystroke	Key.space	n/a
217.744	0.105	435488	keystroke	s	n/a
217.864	0.075	435728	keystroke	o	n/a
218.089	0.0905	436178	keystroke	u	n/a
218.1945	0.09	436389	keystroke	r	n/a
218.449	0.09	436898	keystroke	c	n/a
218.5995	0.0745	437199	keystroke	e	n/a
218.689	0.075	437378	keystroke	Key.enter	n/a
218.7705	5.98	437541	prompt	n/a	weight already pointing kinds\n
219.7095	0.0145	439419	keystroke	w	n/a
219.739	0.03	439478	keystroke	e	n/a
219.829	0.105	439658	keystroke	i	n/a
220.009	0.105	440018	keystroke	g	n/a
220.099	0.105	440198	keystroke	h	n/a
220.1745	0.0895	440349	keystroke	t	n/a
220.399	0.06	440798	keystroke	Key.space	n/a
220.6385	0.06	441277	keystroke	a	n/a
220.7585	0.0905	441517	keystroke	l	n/a
220.969	0.045	441938	keystroke	r	n/a
220.999	0.135	441998	keystroke	e	n/a
221.149	0.105	442298	keystroke	a	n/a
221.239	0.12	442478	keystroke	d	n/a
221.4935	0.0905	442987	keystroke	y	n/a
221.884	0.09	443768	keystroke	Key.space	n/a
222.334	0.0905	444668	keystroke	p	n/a
222.544	0.045	445088	keystroke	o	n/a
222.7095	0.1045	445419	keystroke	i	n/a
222.768	0.1365	445536	keystroke	n	n/a
222.949	0.0755	445898	keystroke	t	n/a
223.009	0.1355	446018	keystroke	i	n/a
223.084	0.135	446168	keystroke	n	n/a
223.204	0.06	446408	keystroke	g	n/a
223.323	0.091	446646	keystroke	Key.space	n/a
223.834	0.075	447668	keystroke	k	n/a
224.014	0.105	448028	keystroke	i	n/a
224.1045	0.119	448209	keystroke	n	n/a
224.449	0.1205	448898	keystroke	d	n/a
224.5545	0.1195	449109	keystroke	s	n/a
224.6585	0.0905	449317	keystroke	Key.enter	n/a
224.755	7.3455	449510	prompt	n/a	patterns uploaded fields revision\n
225.4995	0.1195	450999	keystroke	p	n/a
225.604	0.105	451208	keystroke	a	n/a
225.8295	0.0745	451659	keystroke	t	n/a
225.9645	0.0895	451929	keystroke	t	n/a
226.084	0.181	452168	keystroke	e	n/a
226.204	0.1205	452408	keystroke	r	n/a
226.474	0.075	452948	keystroke	s	n/a
226.8635	0.075	453727	keystroke	Key.backspace	n/a
227.2845	0.075	454569	keystroke	n	n/a
227.3745	0.089	454749	keystroke	s	n/a
227.4935	0.0905	454987	keystroke	Key.space	n/a
228.0195	0.075	456039	keystroke	u	n/a
228.259	0.1355	456518	keystroke	p	n/a
228.364	0.105	456728	keystroke	l	n/a
228.559	0.1055	457118	keystroke	o	n/a
228.6945	0.1045	457389	keystroke	a	n/a
228.874	0.12	457748	keystroke	d	n/a
229.0085	0.1355	458017	keystroke	e	n/a
229.129	0.135	458258	keystroke	d	n/a
229.294	0.09	458588	keystroke	Key.space	n/a
229.744	0.075	459488	keystroke	f	n/a
229.879	0.075	459758	keystroke	i	n/a
229.969	0.09	459938	keystroke	e	n/a
230.134	0.09	460268	keystroke	l	n/a
230.254	0.15	460508	keystroke	d	n/a
230.374	0.09	460748	keystroke	s	n/a
230.524	0.09	461048	keystroke	Key.space	n/a
230.944	0.0295	461888	keystroke	r	n/a
231.0485	0.106	462097	keystroke	e	n/a
231.3045	0.029	462609	keystroke	v	n/a
231.409	0.0895	462818	keystroke	i	n/a
231.544	0.06	463088	keystroke	s	n/a
231.649	0.18	463298	keystroke	i	n/a
231.694	0.1355	463388	keystroke	o	n/a
231.7695	0.119	463539	keystroke	n	n/a
232.0385	0.0605	464077	keystroke	Key.enter	n/a
232.1035	10.257	464207	prompt	n/a	leonard anybody hudson creatures\n
233.4345	0.09	466869	keystroke	l	n/a
233.5685	0.0905	467137	keystroke	e	n/a
233.779	0.075	467558	keystroke	o	n/a
235.114	0.075	470228	keystroke	n	n/a
235.174	0.09	470348	keystroke	a	n/a
235.309	0.1205	470618	keystroke	r	n/a
235.775	0.1045	471550	keystroke	d	n/a
236	0.0585	472000	keystroke	Key.space	n/a
236.4345	0.075	472869	keystroke	a	n/a
236.5685	0.09	473137	keystroke	n	n/a
236.7935	0.075	473587	keystroke	y	n/a
237.0335	0.0755	474067	keystroke	b	n/a
237.2135	0.105	474427	keystroke	o	n/a
237.379	0.075	474758	keystroke	d	n/a
237.559	0.0745	475118	keystroke	y	n/a
237.9935	0.06	475987	keystroke	Key.space	n/a
238.279	0.09	476558	keystroke	h	n/a
238.3995	0.1045	476799	keystroke	u	n/a
238.5945	0.0895	477189	keystroke	d	n/a
238.8185	0.09	477637	keystroke	s	n/a
238.954	0.12	477908	keystroke	o	n/a
239.0585	0.0905	478117	keystroke	n	n/a
239.2985	0.0905	478597	keystroke	Key.space	n/a
239.749	0.0755	479498	keystroke	c	n/a
239.9895	0.1195	479979	keystroke	r	n/a
240.064	0.1495	480128	keystroke	e	n/a
240.3635	0.09	480727	keystroke	t	n/a
240.8285	0.1055	481657	keystroke	Key.backspace	n/a
240.9195	0.09	481839	keystroke	a	n/a
241.024	0.0905	482048	keystroke	t	n/a
241.5495	0.074	483099	keystroke	u	n/a
241.6995	0.12	483399	keystroke	r	n/a
241.7895	0.105	483579	keystroke	e	n/a
242.0145	0.06	484029	keystroke	s	n/a
242.284	0.075	484568	keystroke	Key.enter	n/a
242.3665	10.4785	484733	prompt	n/a	munich printed receptors determination\n
243.2135	0.135	486427	keystroke	m	n/a
243.4545	0.105	486909	keystroke	u	n/a
243.5295	0.105	487059	keystroke	n	n/a
243.6945	0.105	487389	keystroke	i	n/a
244.0095	0.074	488019	keystroke	c	n/a
244.2795	0.1195	488559	keystroke	h	n/a
244.579	0.075	489158	keystroke	Key.space	n/a
244.834	0.09	489668	keystroke	p	n/a
244.9835	0.0755	489967	keystroke	r	n/a
245.089	0.0895	490178	keystroke	i	n/a
245.2685	0.091	490537	keystroke	n	n/a
245.4195	0.0905	490839	keystroke	t	n/a
245.525	0.134	491050	keystroke	e	n/a
245.689	0.1055	491378	keystroke	d	n/a
245.824	0.0755	491648	keystroke	Key.space	n/a
247.2335	0.1055	494467	keystroke	r	n/a
247.2945	0.1345	494589	keystroke	e	n/a
247.5495	0.0745	495099	keystroke	c	n/a
247.6535	0.1205	495307	keystroke	e	n/a
248.0145	0.09	496029	keystroke	p	n/a
248.1945	0.075	496389	keystroke	t	n/a
248.3295	0.0755	496659	keystroke	o	n/a
248.524	0.0755	497048	keystroke	r	n/a
248.839	0.105	497678	keystroke	s	n/a
249.859	0.0895	499718	keystroke	Key.space	n/a
250.0095	0.06	500019	keystroke	d	n/a
250.0985	0.12	500197	keystroke	e	n/a
250.4145	0.089	500829	keystroke	e	n/a
250.789	0.0895	501578	keystroke	Key.backspace	n/a
250.8635	0.105	501727	keystroke	t	n/a
250.999	0.195	501998	keystroke	e	n/a
251.1345	0.135	502269	keystroke	r	n/a
251.794	0.06	503588	keystroke	m	n/a
251.929	0.1205	503858	keystroke	i	n/a
252.004	0.089	504008	keystroke	n	n/a
252.124	0.075	504248	keystroke	a	n/a
252.274	0.09	504548	keystroke	t	n/a
252.349	0.15	504698	keystroke	i	n/a
252.394	0.12	504788	keystroke	o	n/a
252.439	0.12	504878	keystroke	n	n/a
252.7685	0.075	505537	keystroke	Key.enter	n/a
252.8515	7.014	505703	prompt	n/a	tyler greek promotions leonard\n
253.7285	0.1205	507457	keystroke	t	n/a
254.089	0.06	508178	keystroke	y	n/a
254.269	0.075	508538	keystroke	l	n/a
254.419	0.12	508838	keystroke	e	n/a
254.569	0.0895	509138	keystroke	r	n/a
254.674	0.075	509348	keystroke	Key.space	n/a
255.094	0.0455	510188	keystroke	g	n/a
255.199	0.105	510398	keystroke	r	n/a
255.4095	0.0595	510819	keystroke	e	n/a
255.5585	0.075	511117	keystroke	e	n/a
255.6495	0.074	511299	keystroke	k	n/a
255.8595	0.074	511719	keystroke	Key.space	n/a
256.084	0.1205	512168	keystroke	p	n/a
256.2645	0.0745	512529	keystroke	r	n/a
256.3695	0.1045	512739	keystroke	o	n/a
256.594	0.0755	513188	keystroke	m	n/a
256.7585	0.105	513517	keystroke	o	n/a
257.0295	0.075	514059	keystroke	t	n/a
257.1485	0.211	514297	keystroke	i	n/a
257.2685	0.1055	514537	keystroke	o	n/a
257.3295	0.12	514659	keystroke	n	n/a
257.508	0.091	515016	keystroke	s	n/a
257.674	0.0895	515348	keystroke	Key.space	n/a
258.1095	0.075	516219	keystroke	l	n/a
258.2295	0.1045	516459	keystroke	e	n/a
258.5135	0.12	517027	keystroke	o	n/a
259.279	0.075	518558	keystroke	n	n/a
259.3545	0.0895	518709	keystroke	a	n/a
259.504	0.105	519008	keystroke	r	n/a
259.7145	0.0745	519429	keystroke	d	n/a
259.789	0.075	519578	keystroke	Key.enter	n/a
259.87	7.346	519740	prompt	n/a	mapping kinase counties affair\n
260.5545	0.0745	521109	keystroke	m	n/a
260.644	0.075	521288	keystroke	a	n/a
260.7645	0.045	521529	keystroke	p	n/a
260.8835	0.061	521767	keystroke	p	n/a
261.094	0.105	522188	keystroke	i	n/a
261.154	0.105	522308	keystroke	n	n/a
261.274	0.06	522548	keystroke	g	n/a
261.394	0.075	522788	keystroke	Key.space	n/a
261.964	0.09	523928	keystroke	k	n/a
262.174	0.105	524348	keystroke	i	n/a
262.264	0.09	524528	keystroke	n	n/a
262.7595	0.0745	525519	keystroke	a	n/a
263.029	0.0895	526058	keystroke	s	n/a
263.224	0.075	526448	keystroke	e	n/a
263.404	0.075	526808	keystroke	Key.space	n/a
263.6895	0.105	527379	keystroke	c	n/a
263.824	0.075	527648	keystroke	o	n/a
264.064	0.1045	528128	keystroke	u	n/a
264.139	0.1205	528278	keystroke	n	n/a
264.409	0.03	528818	keystroke	t	n/a
265.5635	0.0605	531127	keystroke	i	n/a
265.609	0.0905	531218	keystroke	e	n/a
265.849	0.1055	531698	keystroke	s	n/a
266.1185	0.075	532237	keystroke	Key.space	n/a
266.2985	0.076	532597	keystroke	a	n/a
266.4785	0.0605	532957	keystroke	f	n/a
266.614	0.09	533228	keystroke	f	n/a
266.8835	0.0155	533767	keystroke	a	n/a
266.9145	0.074	533829	keystroke	i	n/a
267.0185	0.075	534037	keystroke	r	n/a
267.124	0.09	534248	keystroke	Key.enter	n/a
267.2225	7.9285	534445	prompt	n/a	shorts plugins breeding criterion\n
267.739	0.075	535478	keystroke	a	n/a
268.0685	0.0755	536137	keystroke	h	n/a
268.279	0.105	536558	keystroke	o	n/a
268.399	0.09	536798	keystroke	r	n/a
268.579	0.075	537158	keystroke	t	n/a
268.804	0.0905	537608	keystroke	s	n/a
268.969	0.075	537938	keystroke	Key.space	n/a
269.239	0.1795	538478	keystroke	p	n/a
269.3435	0.1205	538687	keystroke	l	n/a
269.6285	0.0605	539257	keystroke	u	n/a
269.8395	0.06	539679	keystroke	g	n/a
269.9145	0.1045	539829	keystroke	i	n/a
269.959	0.1205	539918	keystroke	n	n/a
270.3495	0.059	540699	keystroke	s	n/a
270.8735	0.06	541747	keystroke	Key.space	n/a
271.2485	0.06	542497	keystroke	b	n/a
271.369	0.12	542738	keystroke	r	n/a
271.444	0.12	542888	keystroke	e	n/a
271.699	0.075	543398	keystroke	e	n/a
271.984	0.0755	543968	keystroke	d	n/a
272.1495	0.1195	544299	keystroke	i	n/a
272.209	0.1205	544418	keystroke	n	n/a
272.3445	0.075	544689	keystroke	g	n/a
272.524	0.075	545048	keystroke	Key.space	n/a
273.199	0.1045	546398	keystroke	c	n/a
273.5145	0.075	547029	keystroke	r	n/a
273.6795	0.09	547359	keystroke	i	n/a
273.9195	0.075	547839	keystroke	t	n/a
274.0395	0.1495	548079	keystroke	e	n/a
274.1735	0.0905	548347	keystroke	r	n/a
274.3985	0.091	548797	keystroke	i	n/a
274.609	0.09	549218	keystroke	o	n/a
274.8195	0.0895	549639	keystroke	n	n/a
275.074	0.0745	550148	keystroke	Key.enter	n/a
275.155	6.0105	550310	prompt	n/a	supreme bell powell columns\n
275.7645	0.104	551529	keystroke	s	n/a
275.9285	0.061	551857	keystroke	u	n/a
276.139	0.09	552278	keystroke	p	n/a
276.334	0.12	552668	keystroke	r	n/a
276.409	0.1345	552818	keystroke	e	n/a
276.679	0.135	553358	keystroke	m	n/a
276.7995	0.0745	553599	keystroke	e	n/a
276.949	0.075	553898	keystroke	Key.space	n/a
277.4295	0.06	554859	keystroke	b	n/a
277.534	0.075	555068	keystroke	e	n/a
277.684	0.06	555368	keystroke	l	n/a
277.789	0.105	555578	keystroke	l	n/a
278.1185	0.0755	556237	keystroke	Key.space	n/a
278.419	0.09	556838	keystroke	p	n/a
278.644	0.0895	557288	keystroke	o	n/a
278.8535	0.076	557707	keystroke	w	n/a
279.0485	0.0755	558097	keystroke	e	n/a
279.1985	0.075	558397	keystroke	l	n/a
279.334	0.1045	558668	keystroke	l	n/a
279.754	0.015	559508	keystroke	Key.space	n/a
279.8295	0.0745	559659	keystroke	c	n/a
279.919	0.105	559838	keystroke	o	n/a
280.129	0.105	560258	keystroke	l	n/a
280.489	0.06	560978	keystroke	u	n/a
280.654	0.09	561308	keystroke	m	n/a
280.8485	0.0755	561697	keystroke	n	n/a
280.984	0.0605	561968	keystroke	s	n/a
281.089	0.075	562178	keystroke	Key.enter	n/a
281.18	7.2905	562360	prompt	n/a	charging ministry newton past\n
281.9595	0.0745	563919	keystroke	c	n/a
282.079	0.075	564158	keystroke	h	n/a
282.244	0.1045	564488	keystroke	a	n/a
282.3935	0.1055	564787	keystroke	r	n/a
282.664	0.075	565328	keystroke	g	n/a
282.814	0.119	565628	keystroke	i	n/a
282.919	0.0895	565838	keystroke	n	n/a
283.039	0.075	566078	keystroke	g	n/a
283.189	0.075	566378	keystroke	Key.space	n/a
283.849	0.12	567698	keystroke	m	n/a
284.029	0.12	568058	keystroke	i	n/a
284.104	0.12	568208	keystroke	n	n/a
284.239	0.135	568478	keystroke	i	n/a
284.734	0.0745	569468	keystroke	s	n/a
284.9285	0.09	569857	keystroke	t	n/a
285.0935	0.0895	570187	keystroke	r	n/a
285.304	0.06	570608	keystroke	y	n/a
285.8735	0.0755	571747	keystroke	Key.space	n/a
286.144	0.075	572288	keystroke	n	n/a
286.234	0.1055	572468	keystroke	e	n/a
286.519	0.075	573038	keystroke	w	n/a
286.9245	0.06	573849	keystroke	t	n/a
287.0145	0.105	574029	keystroke	o	n/a
287.1035	0.105	574207	keystroke	n	n/a
287.4485	0.06	574897	keystroke	Key.space	n/a
287.794	0.0755	575588	keystroke	p	n/a
287.854	0.134	575708	keystroke	a	n/a
287.974	0.12	575948	keystroke	s	n/a
288.259	0.0595	576518	keystroke	t	n/a
288.379	0.0895	576758	keystroke	Key.enter	n/a
288.476	8.0795	576952	prompt	n/a	essence nodes outline improvements\n
289.3535	0.06	578707	keystroke	e	n/a
289.5485	0.061	579097	keystroke	s	n/a
289.6685	0.09	579337	keystroke	s	n/a
289.8785	0.075	579757	keystroke	e	n/a
290.3295	0.075	580659	keystroke	n	n/a
290.4485	0.076	580897	keystroke	c	n/a
290.5845	0.0595	581169	keystroke	e	n/a
290.6885	0.09	581377	keystroke	Key.space	n/a
291.139	0.0755	582278	keystroke	n	n/a
291.274	0.105	582548	keystroke	o	n/a
291.394	0.105	582788	keystroke	d	n/a
291.529	0.09	583058	keystroke	e	n/a
291.739	0.075	583478	keystroke	s	n/a
291.9035	0.075	583807	keystroke	Key.space	n/a
292.2345	0.0745	584469	keystroke	o	n/a
292.444	0.0605	584888	keystroke	u	n/a
292.6535	0.0605	585307	keystroke	t	n/a
292.773	0.076	585546	keystroke	l	n/a
292.9835	0.1205	585967	keystroke	i	n/a
293.059	0.1055	586118	keystroke	n	n/a
293.2095	0.09	586419	keystroke	e	n/a
293.4785	0.0605	586957	keystroke	Key.space	n/a
293.9735	0.12	587947	keystroke	i	n/a
294.0335	0.1055	588067	keystroke	m	n/a
294.2745	0.1045	588549	keystroke	p	n/a
294.454	0.06	588908	keystroke	r	n/a
294.5435	0.0895	589087	keystroke	o	n/a
294.874	0.059	589748	keystroke	v	n/a
295.354	0.045	590708	keystroke	m	n/a
295.429	0.12	590858	keystroke	e	n/a
295.549	0.075	591098	keystroke	n	n/a
295.804	0.075	591608	keystroke	t	n/a
296.179	0.075	592358	keystroke	s	n/a
296.523	0.0305	593046	keystroke	Key.enter	n/a
296.56	7.5855	593120	prompt	n/a	roberts determining wizard francis\n
297.2735	0.075	594547	keystroke	r	n/a
297.454	0.09	594908	keystroke	o	n/a
297.709	0.06	595418	keystroke	b	n/a
297.799	0.104	595598	keystroke	e	n/a
297.949	0.09	595898	keystroke	r	n/a
298.1885	0.0605	596377	keystroke	t	n/a
298.5185	0.12	597037	keystroke	s	n/a
298.6685	0.0755	597337	keystroke	Key.space	n/a
298.864	0.075	597728	keystroke	d	n/a
298.984	0.105	597968	keystroke	e	n/a
299.209	0.06	598418	keystroke	t	n/a
299.344	0.12	598688	keystroke	e	n/a
299.449	0.09	598898	keystroke	r	n/a
299.644	0.075	599288	keystroke	m	n/a
299.779	0.1345	599558	keystroke	i	n/a
299.8685	0.1055	599737	keystroke	n	n/a
300.0035	0.135	600007	keystroke	i	n/a
300.079	0.135	600158	keystroke	n	n/a
300.229	0.075	600458	keystroke	g	n/a
300.469	0.06	600938	keystroke	Key.space	n/a
300.964	0.06	601928	keystroke	w	n/a
301.069	0.0745	602138	keystroke	i	n/a
301.279	0.09	602558	keystroke	z	n/a
301.534	0.105	603068	keystroke	a	n/a
301.804	0.09	603608	keystroke	r	n/a
302.044	0.0755	604088	keystroke	d	n/a
302.239	0.0745	604478	keystroke	Key.space	n/a
302.7045	0.1045	605409	keystroke	f	n/a
302.914	0.09	605828	keystroke	r	n/a
303.0795	0.09	606159	keystroke	a	n/a
303.274	0.0905	606548	keystroke	n	n/a
303.709	0.0745	607418	keystroke	c	n/a
303.8285	0.1055	607657	keystroke	i	n/a
303.9485	0.0455	607897	keystroke	s	n/a
304.0535	0.0905	608107	keystroke	Key.enter	n/a
304.15	8.9655	608300	prompt	n/a	aboriginal carnival checks likewise\n
304.7895	0.1045	609579	keystroke	a	n/a
304.999	0.0745	609998	keystroke	b	n/a
305.209	0.09	610418	keystroke	o	n/a
305.314	0.0905	610628	keystroke	r	n/a
306.469	0.09	612938	keystroke	i	n/a
306.664	0.06	613328	keystroke	g	n/a
306.7685	0.1195	613537	keystroke	i	n/a
307.234	0.105	614468	keystroke	n	n/a
307.3695	0.1045	614739	keystroke	a	n/a
307.579	0.105	615158	keystroke	l	n/a
307.894	0.09	615788	keystroke	Key.space	n/a
308.209	0.075	616418	keystroke	c	n/a
308.299	0.1205	616598	keystroke	a	n/a
308.464	0.075	616928	keystroke	r	n/a
308.599	0.09	617198	keystroke	n	n/a
308.749	0.105	617498	keystroke	i	n/a
308.914	0.09	617828	keystroke	v	n/a
309.019	0.09	618038	keystroke	a	n/a
309.124	0.09	618248	keystroke	l	n/a
309.394	0.075	618788	keystroke	Key.space	n/a
309.799	0.105	619598	keystroke	h	n/a
310.114	0.09	620228	keystroke	Key.backspace	n/a
310.3085	0.09	620617	keystroke	c	n/a
310.4135	0.105	620827	keystroke	h	n/a
310.564	0.12	621128	keystroke	e	n/a
310.803	0.1055	621606	keystroke	c	n/a
310.924	0.09	621848	keystroke	k	n/a
311.1335	0.105	622267	keystroke	s	n/a
311.3585	0.06	622717	keystroke	Key.space	n/a
311.7335	0.09	623467	keystroke	l	n/a
311.944	0.0755	623888	keystroke	i	n/a
312.094	0.09	624188	keystroke	k	n/a
312.199	0.06	624398	keystroke	e	n/a
312.4085	0.06	624817	keystroke	w	n/a
312.544	0.075	625088	keystroke	i	n/a
312.664	0.075	625328	keystroke	s	n/a
312.858	0.06	625716	keystroke	e	n/a
313.038	0.075	626076	keystroke	Key.enter	n/a
313.1195	7.2865	626239	prompt	n/a	here enrollment statistical wanting\n
313.8485	0.045	627697	keystroke	h	n/a
313.939	0.1195	627878	keystroke	e	n/a
314.374	0.1345	628748	keystroke	r	n/a
314.4785	0.1195	628957	keystroke	e	n/a
314.674	0.089	629348	keystroke	Key.space	n/a
314.929	0.045	629858	keystroke	e	n/a
315.019	0.074	630038	keystroke	n	n/a
315.198	0.076	630396	keystroke	r	n/a
315.649	0.074	631298	keystroke	o	n/a
315.874	0.06	631748	keystroke	l	n/a
316.009	0.075	632018	keystroke	l	n/a
316.279	0.0895	632558	keystroke	m	n/a
316.413	0.1205	632826	keystroke	e	n/a
316.5495	0.0895	633099	keystroke	n	n/a
316.6545	0.0895	633309	keystroke	t	n/a
316.849	0.075	633698	keystroke	Key.space	n/a
317.134	0.119	634268	keystroke	s	n/a
317.359	0.075	634718	keystroke	t	n/a
317.479	0.105	634958	keystroke	a	n/a
317.613	0.106	635226	keystroke	t	n/a
317.929	0.074	635858	keystroke	i	n/a
318.034	0.105	636068	keystroke	s	n/a
318.303	0.0465	636606	keystroke	t	n/a
318.394	0.075	636788	keystroke	i	n/a
318.5885	0.0755	637177	keystroke	c	n/a
318.7385	0.105	637477	keystroke	a	n/a
318.8285	0.09	637657	keystroke	l	n/a
319.189	0.0745	638378	keystroke	Key.space	n/a
319.4585	0.106	638917	keystroke	w	n/a
319.5795	0.1195	639159	keystroke	a	n/a
319.759	0.09	639518	keystroke	n	n/a
319.909	0.075	639818	keystroke	t	n/a
320.014	0.1055	640028	keystroke	i	n/a
320.074	0.1195	640148	keystroke	n	n/a
320.209	0.0755	640418	keystroke	g	n/a
320.314	0.09	640628	keystroke	Key.enter	n/a
320.411	7.839	640822	prompt	n/a	unique herein privilege witch\n
321.199	0.0745	642398	keystroke	u	n/a
321.3345	0.089	642669	keystroke	n	n/a
321.4995	0.0895	642999	keystroke	i	n/a
322.0845	0.0445	644169	keystroke	q	n/a
322.2035	0.0755	644407	keystroke	u	n/a
322.3395	0.09	644679	keystroke	e	n/a
322.534	0.089	645068	keystroke	Key.space	n/a
323.104	0.075	646208	keystroke	h	n/a
323.209	0.105	646418	keystroke	e	n/a
323.3745	0.1495	646749	keystroke	r	n/a
323.4795	0.1345	646959	keystroke	e	n/a
323.718	0.091	647436	keystroke	i	n/a
323.824	0.135	647648	keystroke	n	n/a
324.229	0.09	648458	keystroke	Key.space	n/a
324.9485	0.0455	649897	keystroke	p	n/a
325.023	0.0755	650046	keystroke	r	n/a
325.159	0.089	650318	keystroke	i	n/a
325.354	0.075	650708	keystroke	v	n/a
325.534	0.0755	651068	keystroke	e	n/a
326.464	0.12	652928	keystroke	=	n/a
326.868	0.0755	653736	keystroke	Key.backspace	n/a
327.004	0.09	654008	keystroke	Key.backspace	n/a
327.5285	0.0605	655057	keystroke	i	n/a
327.724	0.09	655448	keystroke	l	n/a
327.8435	0.0755	655687	keystroke	a	n/a
327.964	0.1045	655928	keystroke	g	n/a
328.069	0.1045	656138	keystroke	e	n/a
328.1885	0.06	656377	keystroke	Key.enter	n/a
328.254	11.1715	656508	prompt	n/a	bolt exclusive custom stephen\n
331.1455	0.028	662291	keystroke	b	n/a
331.249	0.1045	662498	keystroke	o	n/a
331.489	0.09	662978	keystroke	l	n/a
331.699	0.0745	663398	keystroke	t	n/a
331.818	0.091	663636	keystroke	Key.space	n/a
332.3435	0.0755	664687	keystroke	e	n/a
332.5685	0.09	665137	keystroke	x	n/a
332.8395	0.0735	665679	keystroke	c	n/a
332.9735	0.0605	665947	keystroke	l	n/a
333.1835	0.0755	666367	keystroke	u	n/a
333.288	0.09	666576	keystroke	s	n/a
333.423	0.0605	666846	keystroke	i	n/a
333.5895	0.09	667179	keystroke	v	n/a
333.753	0.091	667506	keystroke	e	n/a
333.8735	0.0755	667747	keystroke	Key.space	n/a
334.743	0.0755	669486	keystroke	c	n/a
334.939	0.059	669878	keystroke	u	n/a
335.044	0.105	670088	keystroke	s	n/a
335.3145	0.0595	670629	keystroke	t	n/a
335.4335	0.12	670867	keystroke	o	n/a
335.5385	0.105	671077	keystroke	m	n/a
335.778	0.075	671556	keystroke	Key.space	n/a
336.364	0.0895	672728	keystroke	s	n/a
336.589	0.09	673178	keystroke	t	n/a
336.799	0.12	673598	keystroke	e	n/a
336.904	0.075	673808	keystroke	r	n/a
337.534	0.119	675068	keystroke	Key.backspace	n/a
337.804	0.105	675608	keystroke	p	n/a
338.089	0.12	676178	keystroke	h	n/a
338.224	0.1195	676448	keystroke	e	n/a
339.169	0.06	678338	keystroke	n	n/a
339.3635	0.06	678727	keystroke	Key.enter	n/a
339.433	6.022	678866	prompt	n/a	you're bool norway named\n
340.2795	0.0745	680559	keystroke	y	n/a
340.4135	0.075	680827	keystroke	o	n/a
340.609	0.045	681218	keystroke	u	n/a
341.0735	0.0605	682147	keystroke	'	n/a
341.164	0.12	682328	keystroke	r	n/a
341.2235	0.12	682447	keystroke	e	n/a
341.389	0.0745	682778	keystroke	Key.space	n/a
341.7485	0.045	683497	keystroke	b	n/a
341.959	0.045	683918	keystroke	o	n/a
342.079	0.0755	684158	keystroke	o	n/a
342.2595	0.074	684519	keystroke	l	n/a
342.4685	0.06	684937	keystroke	Key.space	n/a
342.649	0.075	685298	keystroke	n	n/a
342.7535	0.105	685507	keystroke	o	n/a
342.889	0.0895	685778	keystroke	r	n/a
343.0985	0.1055	686197	keystroke	w	n/a
343.339	0.075	686678	keystroke	a	n/a
343.639	0.134	687278	keystroke	t	n/a
344.178	0.075	688356	keystroke	Key.backspace	n/a
344.358	0.09	688716	keystroke	y	n/a
344.553	0.0305	689106	keystroke	Key.space	n/a
344.7035	0.0895	689407	keystroke	n	n/a
344.779	0.104	689558	keystroke	a	n/a
344.928	0.076	689856	keystroke	m	n/a
345.033	0.106	690066	keystroke	e	n/a
345.228	0.1055	690456	keystroke	d	n/a
345.3785	0.0755	690757	keystroke	Key.enter	n/a
345.459	6.3115	690918	prompt	n/a	cook were dynamics bowl\n
346.384	0.045	692768	keystroke	c	n/a
346.504	0.03	693008	keystroke	o	n/a
346.639	0.1195	693278	keystroke	o	n/a
346.7435	0.09	693487	keystroke	k	n/a
347.0135	0.06	694027	keystroke	Key.space	n/a
347.224	0.105	694448	keystroke	w	n/a
347.464	0.105	694928	keystroke	e	n/a
347.674	0.12	695348	keystroke	r	n/a
347.764	0.075	695528	keystroke	e	n/a
347.929	0.09	695858	keystroke	Key.space	n/a
348.454	0.0595	696908	keystroke	d	n/a
348.6035	0.0445	697207	keystroke	u	n/a
348.814	0.06	697628	keystroke	y	n/a
349.023	0.076	698046	keystroke	Key.backspace	n/a
349.159	0.075	698318	keystroke	Key.backspace	n/a
349.639	0.045	699278	keystroke	y	n/a
349.804	0.09	699608	keystroke	n	n/a
349.939	0.09	699878	keystroke	a	n/a
350.059	0.09	700118	keystroke	m	n/a
350.299	0.06	700598	keystroke	i	n/a
350.538	0.106	701076	keystroke	c	n/a
350.7185	0.0755	701437	keystroke	s	n/a
350.854	0.0595	701708	keystroke	Key.space	n/a
351.049	0.075	702098	keystroke	b	n/a
351.229	0.075	702458	keystroke	o	n/a
351.378	0.091	702756	keystroke	w	n/a
351.514	0.089	703028	keystroke	l	n/a
351.709	0.06	703418	keystroke	Key.enter	n/a
351.7755	7.1195	703551	prompt	n/a	blade actually deaths male\n
352.6835	0.0455	705367	keystroke	b	n/a
352.8785	0.075	705757	keystroke	l	n/a
352.9685	0.1055	705937	keystroke	a	n/a
353.239	0.12	706478	keystroke	d	n/a
353.344	0.09	706688	keystroke	e	n/a
353.539	0.06	707078	keystroke	Key.space	n/a
353.824	0.105	707648	keystroke	a	n/a
354.109	0.075	708218	keystroke	c	n/a
354.334	0.0895	708668	keystroke	t	n/a
354.4245	0.059	708849	keystroke	u	n/a
354.588	0.0755	709176	keystroke	a	n/a
354.7095	0.0595	709419	keystroke	l	n/a
354.829	0.0775	709658	keystroke	l	n/a
354.9935	0.0755	709987	keystroke	y	n/a
355.1885	0.06	710377	keystroke	Key.space	n/a
355.969	0.0745	711938	keystroke	d	n/a
356.0885	0.106	712177	keystroke	e	n/a
356.164	0.105	712328	keystroke	a	n/a
356.449	0.105	712898	keystroke	t	n/a
356.689	0.075	713378	keystroke	h	n/a
356.8835	0.09	713767	keystroke	s	n/a
357.0485	0.0755	714097	keystroke	Key.space	n/a
357.409	0.0745	714818	keystroke	m	n/a
357.4385	0.105	714877	keystroke	a	n/a
357.619	0.0745	715238	keystroke	k	n/a
357.6945	0.0895	715389	keystroke	e	n/a
358.0235	0.075	716047	keystroke	Key.backspace	n/a
358.1435	0.0895	716287	keystroke	Key.backspace	n/a
358.6235	0.09	717247	keystroke	l	n/a
358.7285	0.06	717457	keystroke	e	n/a
358.8185	0.075	717637	keystroke	Key.enter	n/a
358.8985	6.162	717797	prompt	n/a	sources sherman ipod icon\n
359.569	0.0745	719138	keystroke	s	n/a
360.0785	0.0605	720157	keystroke	o	n/a
360.2585	0.075	720517	keystroke	u	n/a
360.4385	0.075	720877	keystroke	r	n/a
360.724	0.045	721448	keystroke	c	n/a
360.874	0.075	721748	keystroke	e	n/a
361.039	0.075	722078	keystroke	Key.space	n/a
361.3235	0.0595	722647	keystroke	s	n/a
361.548	0.0755	723096	keystroke	h	n/a
361.669	0.074	723338	keystroke	e	n/a
361.984	0.03	723968	keystroke	r	n/a
362.104	0.0755	724208	keystroke	m	n/a
362.284	0.09	724568	keystroke	a	n/a
362.449	0.1045	724898	keystroke	n	n/a
362.6885	0.0605	725377	keystroke	Key.space	n/a
363.064	0.0595	726128	keystroke	i	n/a
363.289	0.075	726578	keystroke	p	n/a
363.484	0.075	726968	keystroke	o	n/a
363.634	0.075	727268	keystroke	d	n/a
363.739	0.074	727478	keystroke	Key.space	n/a
364.399	0.09	728798	keystroke	i	n/a
364.504	0.06	729008	keystroke	c	n/a
364.609	0.09	729218	keystroke	o	n/a
364.7735	0.09	729547	keystroke	n	n/a
364.9685	0.09	729937	keystroke	Key.enter	n/a
365.0655	8.5745	730131	prompt	n/a	planes zope warning biology\n
365.899	0.12	731798	keystroke	p	n/a
365.974	0.105	731948	keystroke	l	n/a
366.094	0.075	732188	keystroke	a	n/a
366.274	0.0905	732548	keystroke	n	n/a
366.3935	0.0755	732787	keystroke	e	n/a
366.589	0.045	733178	keystroke	s	n/a
366.6935	0.075	733387	keystroke	Key.space	n/a
367.129	0.0595	734258	keystroke	x	n/a
367.4735	0.0755	734947	keystroke	Key.backspace	n/a
367.594	0.1045	735188	keystroke	z	n/a
367.7285	0.09	735457	keystroke	o	n/a
367.849	0.105	735698	keystroke	p	n/a
367.983	0.091	735966	keystroke	e	n/a
368.164	0.0745	736328	keystroke	Key.space	n/a
368.8385	0.0905	737677	keystroke	w	n/a
369.0035	0.09	738007	keystroke	a	n/a
369.1835	0.0755	738367	keystroke	r	n/a
369.3485	0.075	738697	keystroke	n	n/a
369.439	0.135	738878	keystroke	i	n/a
369.5435	0.1355	739087	keystroke	n	n/a
369.664	0.105	739328	keystroke	g	n/a
369.904	0.0745	739808	keystroke	Key.space	n/a
370.4135	0.06	740827	keystroke	b	n/a
370.579	0.075	741158	keystroke	i	n/a
372.349	0.0595	744698	keystroke	o	n/a
372.5585	0.0755	745117	keystroke	l	n/a
372.739	0.075	745478	keystroke	o	n/a
372.979	0.0895	745958	keystroke	g	n/a
373.2485	0.075	746497	keystroke	y	n/a
373.578	0.0605	747156	keystroke	Key.enter	n/a
373.645	6.2955	747290	prompt	n/a	cool cannon nutten composition\n
374.4335	0.06	748867	keystroke	c	n/a
374.6135	0.06	749227	keystroke	o	n/a
374.733	0.09	749466	keystroke	o	n/a
374.973	0.0455	749946	keystroke	l	n/a
375.1985	0.06	750397	keystroke	Key.space	n/a
375.3335	0.1055	750667	keystroke	c	n/a
375.469	0.0895	750938	keystroke	a	n/a
375.604	0.0595	751208	keystroke	n	n/a
375.7385	0.075	751477	keystroke	n	n/a
375.8735	0.12	751747	keystroke	o	n/a
375.9635	0.12	751927	keystroke	n	n/a
376.2185	0.075	752437	keystroke	Key.space	n/a
376.4885	0.0905	752977	keystroke	n	n/a
376.684	0.0745	753368	keystroke	u	n/a
376.864	0.0595	753728	keystroke	t	n/a
376.999	0.105	753998	keystroke	t	n/a
377.299	0.09	754598	keystroke	e	n/a
377.464	0.0745	754928	keystroke	n	n/a
378.094	0.0595	756188	keystroke	Key.space	n/a
378.423	0.06	756846	keystroke	c	n/a
378.544	0.09	757088	keystroke	o	n/a
378.6935	0.1205	757387	keystroke	m	n/a
378.8735	0.0905	757747	keystroke	p	n/a
379.069	0.075	758138	keystroke	o	n/a
379.1735	0.09	758347	keystroke	s	n/a
379.3235	0.09	758647	keystroke	i	n/a
379.4885	0.0755	758977	keystroke	t	n/a
379.5485	0.15	759097	keystroke	i	n/a
379.5935	0.1355	759187	keystroke	o	n/a
379.654	0.12	759308	keystroke	n	n/a
379.8485	0.09	759697	keystroke	Key.enter	n/a
379.945	11.426	759890	prompt	n/a	olive immigration certificate recommendation\n
380.794	0.075	761588	keystroke	o	n/a
380.989	0.075	761978	keystroke	l	n/a
381.184	0.0755	762368	keystroke	i	n/a
381.5145	0.089	763029	keystroke	v	n/a
381.694	0.075	763388	keystroke	e	n/a
381.829	0.075	763658	keystroke	Key.space	n/a
382.069	0.105	764138	keystroke	i	n/a
382.3085	0.0755	764617	keystroke	m	n/a
382.459	0.09	764918	keystroke	m	n/a
382.6835	0.0755	765367	keystroke	i	n/a
382.909	0.09	765818	keystroke	g	n/a
383.0285	0.12	766057	keystroke	r	n/a
383.2535	0.09	766507	keystroke	a	n/a
383.4035	0.09	766807	keystroke	t	n/a
383.509	0.1645	767018	keystroke	i	n/a
383.6135	0.12	767227	keystroke	n	n/a
384.1085	0.1055	768217	keystroke	Key.space	n/a
384.3935	0.076	768787	keystroke	c	n/a
384.559	0.12	769118	keystroke	e	n/a
384.694	0.09	769388	keystroke	r	n/a
384.919	0.074	769838	keystroke	t	n/a
385.084	0.09	770168	keystroke	i	n/a
385.324	0.075	770648	keystroke	f	n/a
385.489	0.075	770978	keystroke	i	n/a
385.9535	0.09	771907	keystroke	c	n/a
386.449	0.104	772898	keystroke	a	n/a
386.643	0.0905	773286	keystroke	t	n/a
386.749	0.1945	773498	keystroke	i	n/a
386.824	0.1495	773648	keystroke	o	n/a
386.8985	0.1205	773797	keystroke	n	n/a
387.243	0.0755	774486	keystroke	Key.space	n/a
387.5135	0.12	775027	keystroke	r	n/a
387.6335	0.1205	775267	keystroke	e	n/a
387.9035	0.09	775807	keystroke	c	n/a
388.054	0.1195	776108	keystroke	o	n/a
388.1885	0.015	776377	keystroke	m	n/a
388.354	0.0745	776708	keystroke	m	n/a
388.668	0.09	777336	keystroke	e	n/a
388.789	0.089	777578	keystroke	n	n/a
389.029	0.0895	778058	keystroke	d	n/a
389.2535	0.09	778507	keystroke	a	n/a
389.4785	0.105	778957	keystroke	t	n/a
389.6435	0.18	779287	keystroke	i	n/a
389.7035	0.135	779407	keystroke	o	n/a
389.7785	0.1205	779557	keystroke	n	n/a
391.2785	0.0905	782557	keystroke	Key.enter	n/a
391.3755	7.0005	782751	prompt	n/a	seems console abandoned became\n
392.854	0.1045	785708	keystroke	s	n/a
393.078	0.061	786156	keystroke	e	n/a
393.2295	0.0595	786459	keystroke	e	n/a
393.5135	0.09	787027	keystroke	m	n/a
393.618	0.076	787236	keystroke	s	n/a
393.7685	0.0595	787537	keystroke	Key.space	n/a
394.0835	0.09	788167	keystroke	c	n/a
394.1885	0.105	788377	keystroke	o	n/a
394.2935	0.105	788587	keystroke	n	n/a
394.4135	0.09	788827	keystroke	s	n/a
394.5185	0.075	789037	keystroke	o	n/a
394.714	0.09	789428	keystroke	l	n/a
394.834	0.0755	789668	keystroke	e	n/a
395.149	0.12	790298	keystroke	Key.space	n/a
395.419	0.0745	790838	keystroke	a	n/a
395.5685	0.0905	791137	keystroke	b	n/a
395.704	0.0745	791408	keystroke	a	n/a
395.8085	0.09	791617	keystroke	n	n/a
396.0035	0.075	792007	keystroke	d	n/a
396.1245	0.1045	792249	keystroke	o	n/a
396.229	0.119	792458	keystroke	n	n/a
396.424	0.225	792848	keystroke	e	n/a
396.634	0.1345	793268	keystroke	d	n/a
396.8435	0.0755	793687	keystroke	Key.space	n/a
397.579	0.059	795158	keystroke	b	n/a
397.653	0.121	795306	keystroke	e	n/a
397.8635	0.1205	795727	keystroke	c	n/a
397.999	0.104	795998	keystroke	a	n/a
398.119	0.089	796238	keystroke	m	n/a
398.1935	0.0745	796387	keystroke	e	n/a
398.313	0.0605	796626	keystroke	Key.enter	n/a
398.38	5.7245	796760	prompt	n/a	silence dust supports sofa\n
399.0495	0.06	798099	keystroke	s	n/a
399.169	0.075	798338	keystroke	i	n/a
399.379	0.0745	798758	keystroke	l	n/a
399.469	0.0905	798938	keystroke	e	n/a
399.6035	0.0755	799207	keystroke	n	n/a
399.7985	0.0755	799597	keystroke	c	n/a
399.9335	0.075	799867	keystroke	e	n/a
400.0685	0.0755	800137	keystroke	Key.space	n/a
400.579	0.075	801158	keystroke	d	n/a
400.7595	0.0295	801519	keystroke	u	n/a
400.7895	0.1045	801579	keystroke	s	n/a
401.044	0.075	802088	keystroke	t	n/a
401.193	0.0755	802386	keystroke	Key.space	n/a
401.719	0.0745	803438	keystroke	s	n/a
401.9135	0.0755	803827	keystroke	u	n/a
402.2285	0.045	804457	keystroke	p	n/a
402.3485	0.06	804697	keystroke	p	n/a
402.5435	0.0755	805087	keystroke	o	n/a
402.6335	0.09	805267	keystroke	r	n/a
402.829	0.09	805658	keystroke	t	n/a
403.039	0.074	806078	keystroke	s	n/a
403.189	0.0895	806378	keystroke	Key.space	n/a
403.399	0.105	806798	keystroke	s	n/a
403.5935	0.09	807187	keystroke	o	n/a
403.7285	0.09	807457	keystroke	f	n/a
403.924	0.0745	807848	keystroke	a	n/a
404.0285	0.075	808057	keystroke	Key.enter	n/a
404.108	9.7025	808216	prompt	n/a	britney coverage cancellation changelog\n
404.898	0.075	809796	keystroke	b	n/a
405.168	0.0905	810336	keystroke	r	n/a
405.3185	0.09	810637	keystroke	i	n/a
405.5135	0.0905	811027	keystroke	t	n/a
406.2335	0.0605	812467	keystroke	n	n/a
406.3535	0.1205	812707	keystroke	e	n/a
406.6535	0.075	813307	keystroke	y	n/a
406.8485	0.075	813697	keystroke	Key.space	n/a
407.2985	0.09	814597	keystroke	c	n/a
407.4485	0.12	814897	keystroke	a	n/a
407.674	0.059	815348	keystroke	v	n/a
408.0335	0.1045	816067	keystroke	Key.backspace	n/a
408.273	0.106	816546	keystroke	Key.backspace	n/a
408.4385	0.1205	816877	keystroke	o	n/a
409.0085	0.0445	818017	keystroke	v	n/a
409.1285	0.1355	818257	keystroke	e	n/a
409.248	0.12	818496	keystroke	r	n/a
409.4135	0.1045	818827	keystroke	a	n/a
409.549	0.119	819098	keystroke	g	n/a
409.669	0.075	819338	keystroke	e	n/a
409.848	0.06	819696	keystroke	Key.space	n/a
410.403	0.045	820806	keystroke	c	n/a
410.463	0.1055	820926	keystroke	a	n/a
410.599	0.0745	821198	keystroke	n	n/a
410.7035	0.12	821407	keystroke	c	n/a
410.8835	0.09	821767	keystroke	e	n/a
411.0785	0.045	822157	keystroke	l	n/a
411.1985	0.075	822397	keystroke	l	n/a
411.3035	0.075	822607	keystroke	a	n/a
411.4835	0.06	822967	keystroke	t	n/a
411.5735	0.18	823147	keystroke	i	n/a
411.619	0.105	823238	keystroke	o	n/a
411.7085	0.0905	823417	keystroke	n	n/a
412.0385	0.0895	824077	keystroke	Key.space	n/a
412.278	0.06	824556	keystroke	c	n/a
412.399	0.104	824798	keystroke	h	n/a
412.518	0.091	825036	keystroke	a	n/a
412.669	0.074	825338	keystroke	n	n/a
412.833	0.0755	825666	keystroke	g	n/a
412.9985	0.075	825997	keystroke	e	n/a
413.1785	0.06	826357	keystroke	l	n/a
413.4335	0.0905	826867	keystroke	o	n/a
413.6285	0.075	827257	keystroke	g	n/a
413.7485	0.06	827497	keystroke	Key.enter	n/a
413.826	9.059	827652	prompt	n/a	projector croatia anything coach\n
414.783	0.016	829566	keystroke	p	n/a
414.843	0.076	829686	keystroke	r	n/a
414.948	0.09	829896	keystroke	o	n/a
415.189	0.075	830378	keystroke	j	n/a
415.293	0.106	830586	keystroke	e	n/a
415.549	0.03	831098	keystroke	c	n/a
415.6985	0.09	831397	keystroke	t	n/a
415.864	0.075	831728	keystroke	o	n/a
416.464	0.0595	832928	keystroke	r	n/a
416.6585	0.06	833317	keystroke	Key.space	n/a
416.9885	0.1205	833977	keystroke	c	n/a
417.2735	0.06	834547	keystroke	r	n/a
417.3935	0.091	834787	keystroke	o	n/a
417.514	0.0895	835028	keystroke	a	n/a
417.7235	0.0755	835447	keystroke	t	n/a
417.8135	0.165	835627	keystroke	i	n/a
417.8435	0.12	835687	keystroke	o	n/a
417.9335	0.1055	835867	keystroke	n	n/a
418.3385	0.0745	836677	keystroke	Key.backspace	n/a
418.429	0.09	836858	keystroke	a	n/a
419.028	0.045	838056	keystroke	Key.backspace	n/a
419.1335	0.075	838267	keystroke	Key.backspace	n/a
419.209	0.104	838418	keystroke	a	n/a
419.418	0.075	838836	keystroke	Key.space	n/a
419.823	0.0455	839646	keystroke	a	n/a
419.943	0.075	839886	keystroke	n	n/a
420.123	0.076	840246	keystroke	t	n/a
420.5135	0.06	841027	keystroke	Key.backspace	n/a
420.5735	0.075	841147	keystroke	y	n/a
420.7535	0.075	841507	keystroke	t	n/a
420.8735	0.075	841747	keystroke	h	n/a
420.9035	0.15	841807	keystroke	i	n/a
421.054	0.1195	842108	keystroke	n	n/a
421.144	0.0745	842288	keystroke	g	n/a
421.2935	0.09	842587	keystroke	Key.space	n/a
421.8035	0.06	843607	keystroke	c	n/a
421.9235	0.1055	843847	keystroke	o	n/a
422.0435	0.09	844087	keystroke	a	n/a
422.1485	0.105	844297	keystroke	c	n/a
422.5235	0.1195	845047	keystroke	h	n/a
422.779	0.104	845558	keystroke	Key.enter	n/a
422.8895	9.2655	845779	prompt	n/a	warner meta waves ctrl\n
423.694	0.119	847388	keystroke	w	n/a
423.7835	0.1195	847567	keystroke	a	n/a
424.0085	0.075	848017	keystroke	r	n/a
424.174	0.09	848348	keystroke	n	n/a
424.264	0.1795	848528	keystroke	e	n/a
424.429	0.1195	848858	keystroke	d	n/a
424.563	0.075	849126	keystroke	Key.space	n/a
424.9835	0.045	849967	keystroke	m	n/a
425.0135	0.075	850027	keystroke	e	n/a
425.9735	0.105	851947	keystroke	t	n/a
426.0935	0.12	852187	keystroke	a	n/a
426.453	0.06	852906	keystroke	Key.space	n/a
426.784	0.09	853568	keystroke	w	n/a
427.1435	0.045	854287	keystroke	a	n/a
427.204	0.15	854408	keystroke	a	n/a
427.489	0.0745	854978	keystroke	v	n/a
427.7135	0.06	855427	keystroke	e	n/a
428.0285	0.045	856057	keystroke	=	n/a
428.194	0.06	856388	keystroke	Key.backspace	n/a
428.328	0.075	856656	keystroke	Key.backspace	n/a
428.478	0.0605	856956	keystroke	Key.backspace	n/a
428.6135	0.1045	857227	keystroke	Key.backspace	n/a
429.093	0.045	858186	keystroke	v	n/a
429.198	0.1055	858396	keystroke	e	n/a
429.408	0.0755	858816	keystroke	s	n/a
429.6335	0.06	859267	keystroke	Key.space	n/a
429.964	0.0745	859928	keystroke	c	n/a
430.2635	0.06	860527	keystroke	r	n/a
430.9235	0.09	861847	keystroke	Key.backspace	n/a
431.0145	0.1495	862029	keystroke	t	n/a
431.1035	0.135	862207	keystroke	r	n/a
431.493	0.105	862986	keystroke	l	n/a
432.0785	0.0755	864157	keystroke	Key.enter	n/a
432.1595	8.8605	864319	prompt	n/a	strikes hose poker appropriations\n
432.948	0.09	865896	keystroke	s	n/a
433.173	0.121	866346	keystroke	t	n/a
433.3245	0.0745	866649	keystroke	r	n/a
433.4435	0.0895	866887	keystroke	i	n/a
433.6235	0.105	867247	keystroke	k	n/a
433.7435	0.105	867487	keystroke	e	n/a
434.118	0.075	868236	keystroke	s	n/a
434.329	0.0145	868658	keystroke	n	n/a
434.973	0.09	869946	keystroke	Key.backspace	n/a
435.2885	0.045	870577	keystroke	Key.space	n/a
435.7085	0.045	871417	keystroke	h	n/a
435.7835	0.105	871567	keystroke	o	n/a
435.9185	0.06	871837	keystroke	s	n/a
436.0985	0.075	872197	keystroke	e	n/a
436.233	0.075	872466	keystroke	Key.space	n/a
436.5785	0.09	873157	keystroke	p	n/a
436.774	0.0745	873548	keystroke	o	n/a
436.9685	0.09	873937	keystroke	k	n/a
437.0435	0.135	874087	keystroke	e	n/a
437.1935	0.075	874387	keystroke	r	n/a
437.3285	0.09	874657	keystroke	Key.space	n/a
437.5835	0.09	875167	keystroke	a	n/a
437.7935	0.1055	875587	keystroke	p	n/a
437.9885	0.1055	875977	keystroke	p	n/a
438.3335	0.09	876667	keystroke	r	n/a
438.574	0.165	877148	keystroke	o	n/a
439.2635	0.105	878527	keystroke	p	n/a
439.7735	0.076	879547	keystroke	r	n/a
439.9685	0.0605	879937	keystroke	i	n/a
440.0885	0.105	880177	keystroke	a	n/a
440.2685	0.1045	880537	keystroke	t	n/a
440.389	0.15	880778	keystroke	i	n/a
440.4185	0.105	880837	keystroke	o	n/a
440.4935	0.105	880987	keystroke	n	n/a
440.6435	0.09	881287	keystroke	s	n/a
440.9135	0.105	881827	keystroke	Key.enter	n/a
441.0245	5.8305	882049	prompt	n/a	leather some nasa contrast\n
441.859	0.059	883718	keystroke	l	n/a
442.0685	0.1505	884137	keystroke	e	n/a
442.173	0.135	884346	keystroke	a	n/a
442.3685	0.0905	884737	keystroke	t	n/a
442.489	0.105	884978	keystroke	h	n/a
442.5795	0.119	885159	keystroke	e	n/a
442.6535	0.09	885307	keystroke	r	n/a
442.8035	0.09	885607	keystroke	Key.space	n/a
443.1635	0.1045	886327	keystroke	s	n/a
443.298	0.12	886596	keystroke	o	n/a
443.433	0.091	886866	keystroke	m	n/a
443.508	0.09	887016	keystroke	e	n/a
443.658	0.09	887316	keystroke	Key.space	n/a
443.8685	0.045	887737	keystroke	s	n/a
444.2135	0.075	888427	keystroke	Key.backspace	n/a
444.4535	0.0895	888907	keystroke	n	n/a
444.558	0.091	889116	keystroke	a	n/a
444.634	0.1345	889268	keystroke	s	n/a
445.0235	0.09	890047	keystroke	a	n/a
445.2485	0.075	890497	keystroke	Key.space	n/a
445.6085	0.09	891217	keystroke	c	n/a
445.6835	0.105	891367	keystroke	o	n/a
445.774	0.104	891548	keystroke	n	n/a
445.923	0.076	891846	keystroke	t	n/a
446.0435	0.1055	892087	keystroke	r	n/a
446.284	0.0595	892568	keystroke	a	n/a
446.3735	0.1205	892747	keystroke	s	n/a
446.628	0.075	893256	keystroke	t	n/a
446.779	0.0745	893558	keystroke	Key.enter	n/a
446.8605	7.24	893721	prompt	n/a	stand knew regards minolta\n
447.468	0.12	894936	keystroke	s	n/a
447.678	0.106	895356	keystroke	t	n/a
447.843	0.105	895686	keystroke	a	n/a
447.993	0.106	895986	keystroke	n	n/a
448.1135	0.0895	896227	keystroke	d	n/a
448.263	0.09	896526	keystroke	Key.space	n/a
448.683	0.09	897366	keystroke	k	n/a
448.9385	0.0905	897877	keystroke	n	n/a
449.0735	0.18	898147	keystroke	e	n/a
449.1635	0.15	898327	keystroke	w	n/a
449.4185	0.09	898837	keystroke	Key.space	n/a
449.9585	0.12	899917	keystroke	r	n/a
450.0635	0.105	900127	keystroke	e	n/a
450.318	0.09	900636	keystroke	g	n/a
450.438	0.1055	900876	keystroke	a	n/a
450.573	0.1055	901146	keystroke	r	n/a
450.8885	0.135	901777	keystroke	d	n/a
451.0085	0.12	902017	keystroke	s	n/a
451.1885	0.09	902377	keystroke	Key.space	n/a
451.4585	0.12	902917	keystroke	m	n/a
451.6835	0.1205	903367	keystroke	i	n/a
451.7435	0.12	903487	keystroke	n	n/a
452.0735	0.075	904147	keystroke	i	n/a
452.4335	0.105	904867	keystroke	Key.backspace	n/a
452.6585	0.075	905317	keystroke	o	n/a
452.869	0.0895	905738	keystroke	l	n/a
453.709	0.105	907418	keystroke	t	n/a
453.859	0.074	907718	keystroke	a	n/a
454.0085	0.09	908017	keystroke	Key.enter	n/a
454.105	8.8755	908210	prompt	n/a	gorgeous birmingham opening learning\n
455.088	0.046	910176	keystroke	g	n/a
455.2535	0.075	910507	keystroke	o	n/a
455.4485	0.09	910897	keystroke	r	n/a
455.6735	0.105	911347	keystroke	g	n/a
455.9435	0.0905	911887	keystroke	e	n/a
456.0935	0.105	912187	keystroke	o	n/a
456.4085	0.105	912817	keystroke	u	n/a
456.5435	0.0755	913087	keystroke	s	n/a
456.738	0.075	913476	keystroke	Key.space	n/a
457.039	0.059	914078	keystroke	b	n/a
457.174	0.0745	914348	keystroke	r	n/a
457.324	0.1195	914648	keystroke	i	n/a
457.6085	0.105	915217	keystroke	m	n/a
457.8335	0.105	915667	keystroke	i	n/a
458.6585	0.0895	917317	keystroke	n	n/a
458.8685	0.0755	917737	keystroke	g	n/a
459.004	0.09	918008	keystroke	h	n/a
459.123	0.0905	918246	keystroke	a	n/a
459.4235	0.09	918847	keystroke	m	n/a
459.6635	0.074	919327	keystroke	Key.space	n/a
460.309	0.0745	920618	keystroke	o	n/a
460.5185	0.0745	921037	keystroke	p	n/a
460.608	0.0755	921216	keystroke	e	n/a
460.7735	0.1055	921547	keystroke	n	n/a
460.893	0.135	921786	keystroke	i	n/a
460.9985	0.12	921997	keystroke	n	n/a
461.133	0.075	922266	keystroke	g	n/a
461.2385	0.0905	922477	keystroke	Key.space	n/a
461.6585	0.09	923317	keystroke	l	n/a
461.7935	0.165	923587	keystroke	e	n/a
461.9145	0.149	923829	keystroke	a	n/a
462.1085	0.09	924217	keystroke	r	n/a
462.244	0.104	924488	keystroke	n	n/a
462.379	0.1345	924758	keystroke	i	n/a
462.4685	0.1205	924937	keystroke	n	n/a
462.558	0.0905	925116	keystroke	g	n/a
462.904	0.0745	925808	keystroke	Key.enter	n/a
462.984	9.041	925968	prompt	n/a	anywhere phillips need continuity\n
464.164	0.1045	928328	keystroke	a	n/a
464.2235	0.105	928447	keystroke	n	n/a
464.4485	0.075	928897	keystroke	y	n/a
464.554	0.1045	929108	keystroke	w	n/a
464.838	0.075	929676	keystroke	h	n/a
464.973	0.1055	929946	keystroke	e	n/a
465.093	0.165	930186	keystroke	r	n/a
465.213	0.1055	930426	keystroke	e	n/a
465.3335	0.09	930667	keystroke	Key.space	n/a
465.8435	0.09	931687	keystroke	o	n/a
466.203	0.105	932406	keystroke	Key.backspace	n/a
466.473	0.1055	932946	keystroke	p	n/a
466.7735	0.09	933547	keystroke	h	n/a
466.9235	0.105	933847	keystroke	i	n/a
467.2235	0.09	934447	keystroke	l	n/a
467.434	0.105	934868	keystroke	l	n/a
467.673	0.09	935346	keystroke	i	n/a
468.1835	0.105	936367	keystroke	p	n/a
468.3185	0.09	936637	keystroke	s	n/a
468.4985	0.09	936997	keystroke	Key.space	n/a
468.889	0.06	937778	keystroke	n	n/a
469.008	0.075	938016	keystroke	e	n/a
469.173	0.121	938346	keystroke	e	n/a
469.294	0.104	938588	keystroke	d	n/a
469.413	0.075	938826	keystroke	Key.space	n/a
469.998	0.09	939996	keystroke	c	n/a
470.103	0.045	940206	keystroke	o	n/a
470.239	0.105	940478	keystroke	n	n/a
470.434	0.0745	940868	keystroke	t	n/a
470.644	0.09	941288	keystroke	i	n/a
470.869	0.09	941738	keystroke	n	n/a
471.094	0.0745	942188	keystroke	u	n/a
471.333	0.0905	942666	keystroke	i	n/a
471.4385	0.09	942877	keystroke	t	n/a
471.649	0.0745	943298	keystroke	y	n/a
471.9635	0.06	943927	keystroke	Key.enter	n/a
472.0295	14.051	944059	prompt	n/a	solution prev record lions\n
479.9305	0.0435	959861	keystroke	s	n/a
479.989	0.075	959978	keystroke	o	n/a
480.2435	0.09	960487	keystroke	l	n/a
480.499	0.0745	960998	keystroke	u	n/a
480.6485	0.09	961297	keystroke	t	n/a
480.724	0.24	961448	keystroke	i	n/a
480.814	0.1345	961628	keystroke	o	n/a
480.9035	0.12	961807	keystroke	n	n/a
481.174	0.09	962348	keystroke	Key.space	n/a
481.624	0.09	963248	keystroke	p	n/a
481.819	0.1345	963638	keystroke	r	n/a
481.9235	0.1505	963847	keystroke	e	n/a
482.119	0.0895	964238	keystroke	v	n/a
482.2835	0.0905	964567	keystroke	Key.space	n/a
482.7035	0.151	965407	keystroke	e	n/a
483.124	0.105	966248	keystroke	Key.backspace	n/a
483.259	0.12	966518	keystroke	r	n/a
483.334	0.15	966668	keystroke	e	n/a
483.919	0.075	967838	keystroke	c	n/a
484.114	0.0755	968228	keystroke	o	n/a
484.2495	0.0585	968499	keystroke	r	n/a
484.459	0.075	968918	keystroke	d	n/a
484.564	0.089	969128	keystroke	Key.space	n/a
485.179	0.09	970358	keystroke	l	n/a
485.404	0.075	970808	keystroke	i	n/a
485.599	0.1195	971198	keystroke	o	n/a
485.7035	0.1055	971407	keystroke	n	n/a
485.824	0.09	971648	keystroke	s	n/a
485.989	0.09	971978	keystroke	Key.enter	n/a
486.086	6.2645	972172	prompt	n/a	mike outlets tale brussels\n
486.739	0.09	973478	keystroke	m	n/a
486.904	0.0755	973808	keystroke	i	n/a
487.069	0.09	974138	keystroke	k	n/a
487.203	0.076	974406	keystroke	e	n/a
487.323	0.091	974646	keystroke	Key.space	n/a
487.774	0.119	975548	keystroke	o	n/a
488.0435	0.076	976087	keystroke	u	n/a
488.179	0.075	976358	keystroke	t	n/a
488.344	0.075	976688	keystroke	l	n/a
488.464	0.09	976928	keystroke	e	n/a
488.674	0.09	977348	keystroke	t	n/a
488.869	0.074	977738	keystroke	s	n/a
489.049	0.075	978098	keystroke	Key.space	n/a
489.529	0.105	979058	keystroke	t	n/a
489.679	0.105	979358	keystroke	a	n/a
489.814	0.105	979628	keystroke	l	n/a
489.889	0.0905	979778	keystroke	e	n/a
490.084	0.075	980168	keystroke	Key.space	n/a
490.6385	0.045	981277	keystroke	b	n/a
490.699	0.0595	981398	keystroke	r	n/a
490.834	0.0755	981668	keystroke	u	n/a
490.939	0.105	981878	keystroke	s	n/a
491.1335	0.0905	982267	keystroke	s	n/a
491.344	0.0745	982688	keystroke	e	n/a
491.509	0.09	983018	keystroke	l	n/a
491.704	0.075	983408	keystroke	s	n/a
492.2435	0.105	984487	keystroke	Key.enter	n/a
492.3545	6.086	984709	prompt	n/a	gather roman mediawiki talking\n
493.0695	0.0745	986139	keystroke	g	n/a
493.174	0.09	986348	keystroke	a	n/a
493.324	0.1055	986648	keystroke	t	n/a
493.594	0.1195	987188	keystroke	h	n/a
493.699	0.1205	987398	keystroke	e	n/a
493.8045	0.089	987609	keystroke	r	n/a
493.9235	0.09	987847	keystroke	Key.space	n/a
494.3745	0.059	988749	keystroke	r	n/a
494.4935	0.105	988987	keystroke	o	n/a
494.5835	0.105	989167	keystroke	m	n/a
494.704	0.0595	989408	keystroke	a	n/a
494.824	0.0895	989648	keystroke	n	n/a
495.1085	0.09	990217	keystroke	Key.space	n/a
495.408	0.091	990816	keystroke	m	n/a
495.544	0.09	991088	keystroke	e	n/a
495.738	0.076	991476	keystroke	d	n/a
495.903	0.12	991806	keystroke	i	n/a
496.053	0.076	992106	keystroke	a	n/a
496.504	0.059	993008	keystroke	w	n/a
496.624	0.0895	993248	keystroke	i	n/a
496.8185	0.075	993637	keystroke	k	n/a
496.9985	0.0755	993997	keystroke	i	n/a
497.239	0.0745	994478	keystroke	Key.space	n/a
497.419	0.09	994838	keystroke	t	n/a
497.614	0.0905	995228	keystroke	a	n/a
497.719	0.0755	995438	keystroke	l	n/a
497.914	0.0745	995828	keystroke	k	n/a
498.0935	0.1205	996187	keystroke	i	n/a
498.1685	0.106	996337	keystroke	n	n/a
498.2745	0.0895	996549	keystroke	g	n/a
498.349	0.09	996698	keystroke	Key.enter	n/a
498.447	7.7785	996894	prompt	n/a	celebrate offshore haven spatial\n
499.144	0.0905	998288	keystroke	c	n/a
499.3395	0.0745	998679	keystroke	e	n/a
499.489	0.075	998978	keystroke	l	n/a
499.579	0.105	999158	keystroke	e	n/a
499.879	0.075	999758	keystroke	b	n/a
499.999	0.09	999998	keystroke	r	n/a
500.134	0.12	1000268	keystroke	a	n/a
500.2835	0.12	1000567	keystroke	t	n/a
500.374	0.1045	1000748	keystroke	e	n/a
500.659	0.06	1001318	keystroke	Key.space	n/a
501.124	0.0755	1002248	keystroke	o	n/a
501.274	0.0605	1002548	keystroke	f	n/a
501.424	0.06	1002848	keystroke	f	n/a
501.589	0.1045	1003178	keystroke	s	n/a
501.7085	0.0605	1003417	keystroke	h	n/a
501.8885	0.0755	1003777	keystroke	o	n/a
502.009	0.135	1004018	keystroke	r	n/a
502.114	0.105	1004228	keystroke	e	n/a
502.294	0.104	1004588	keystroke	Key.space	n/a
502.638	0.0905	1005276	keystroke	h	n/a
502.7585	0.1055	1005517	keystroke	a	n/a
502.9985	0.075	1005997	keystroke	v	n/a
503.1945	0.0745	1006389	keystroke	e	n/a
503.3435	0.1955	1006687	keystroke	n	n/a
503.734	0.0745	1007468	keystroke	Key.space	n/a
503.9745	0.0445	1007949	keystroke	s	n/a
504.0785	0.0905	1008157	keystroke	p	n/a
504.394	0.09	1008788	keystroke	a	n/a
504.589	0.075	1009178	keystroke	t	n/a
504.709	0.195	1009418	keystroke	i	n/a
504.7985	0.106	1009597	keystroke	o	n/a
504.859	0.09	1009718	keystroke	n	n/a
505.189	0.09	1010378	keystroke	Key.backspace	n/a
505.4435	0.105	1010887	keystroke	Key.backspace	n/a
505.6545	0.059	1011309	keystroke	a	n/a
505.9985	0.06	1011997	keystroke	l	n/a
506.149	0.0745	1012298	keystroke	Key.enter	n/a
506.233	7.1175	1012466	prompt	n/a	dakota dining xanax herbs\n
507.034	0.0745	1014068	keystroke	d	n/a
507.1685	0.105	1014337	keystroke	a	n/a
507.319	0.06	1014638	keystroke	k	n/a
507.4985	0.075	1014997	keystroke	o	n/a
507.619	0.1045	1015238	keystroke	t	n/a
507.7835	0.0905	1015567	keystroke	a	n/a
507.9635	0.075	1015927	keystroke	Key.space	n/a
508.564	0.075	1017128	keystroke	d	n/a
508.684	0.09	1017368	keystroke	i	n/a
508.744	0.1195	1017488	keystroke	n	n/a
508.9085	0.135	1017817	keystroke	i	n/a
508.9835	0.1205	1017967	keystroke	n	n/a
509.389	0.0745	1018778	keystroke	g	n/a
509.599	0.089	1019198	keystroke	Key.space	n/a
510.243	0.09	1020486	keystroke	x	n/a
510.453	0.06	1020906	keystroke	a	n/a
510.619	0.089	1021238	keystroke	n	n/a
511.114	0.1345	1022228	keystroke	a	n/a
511.7435	0.0605	1023487	keystroke	x	n/a
511.9235	0.09	1023847	keystroke	Key.space	n/a
512.3285	0.09	1024657	keystroke	h	n/a
512.4035	0.1205	1024807	keystroke	a	n/a
512.643	0.076	1025286	keystroke	r	n/a
513.064	0.075	1026128	keystroke	b	n/a
513.184	0.075	1026368	keystroke	s	n/a
513.274	0.075	1026548	keystroke	Key.enter	n/a
513.3555	5.965	1026711	prompt	n/a	passed toilet clinical news\n
514.1135	0.075	1028227	keystroke	p	n/a
514.173	0.121	1028346	keystroke	a	n/a
514.2785	0.0755	1028557	keystroke	s	n/a
514.4435	0.075	1028887	keystroke	s	n/a
514.6235	0.1205	1029247	keystroke	e	n/a
514.759	0.105	1029518	keystroke	d	n/a
514.893	0.091	1029786	keystroke	Key.space	n/a
515.224	0.075	1030448	keystroke	t	n/a
515.359	0.0745	1030718	keystroke	o	n/a
515.539	0.075	1031078	keystroke	i	n/a
515.749	0.074	1031498	keystroke	l	n/a
515.824	0.135	1031648	keystroke	e	n/a
516.078	0.091	1032156	keystroke	t	n/a
516.2435	0.06	1032487	keystroke	Key.space	n/a
516.843	0.0755	1033686	keystroke	c	n/a
517.0685	0.06	1034137	keystroke	l	n/a
517.264	0.12	1034528	keystroke	i	n/a
517.339	0.135	1034678	keystroke	n	n/a
517.5035	0.135	1035007	keystroke	i	n/a
517.804	0.12	1035608	keystroke	c	n/a
517.9535	0.1055	1035907	keystroke	a	n/a
518.074	0.0895	1036148	keystroke	l	n/a
518.3285	0.075	1036657	keystroke	Key.space	n/a
518.539	0.0895	1037078	keystroke	n	n/a
518.764	0.1495	1037528	keystroke	e	n/a
518.8535	0.075	1037707	keystroke	w	n/a
519.124	0.075	1038248	keystroke	s	n/a
519.2285	0.0905	1038457	keystroke	Key.enter	n/a
519.326	8.3045	1038652	prompt	n/a	opportunity prescription site flavor\n
520.174	0.105	1040348	keystroke	o	n/a
520.4135	0.0455	1040827	keystroke	p	n/a
520.519	0.09	1041038	keystroke	p	n/a
520.759	0.075	1041518	keystroke	o	n/a
520.9095	0.0745	1041819	keystroke	r	n/a
521.104	0.06	1042208	keystroke	t	n/a
521.284	0.075	1042568	keystroke	u	n/a
521.4645	0.1195	1042929	keystroke	i	n/a
521.539	0.135	1043078	keystroke	n	n/a
521.779	0.09	1043558	keystroke	t	n/a
521.9885	0.09	1043977	keystroke	y	n/a
522.274	0.0895	1044548	keystroke	Key.space	n/a
522.5435	0.1355	1045087	keystroke	p	n/a
523.069	0.15	1046138	keystroke	r	n/a
523.1735	0.135	1046347	keystroke	e	n/a
523.744	0.075	1047488	keystroke	c	n/a
523.969	0.0595	1047938	keystroke	r	n/a
524.1185	0.0605	1048237	keystroke	i	n/a
524.3285	0.076	1048657	keystroke	p	n/a
524.539	0.06	1049078	keystroke	t	n/a
524.613	0.196	1049226	keystroke	i	n/a
524.659	0.134	1049318	keystroke	o	n/a
524.749	0.1195	1049498	keystroke	n	n/a
525.109	0.06	1050218	keystroke	Key.space	n/a
525.3935	0.135	1050787	keystroke	s	n/a
525.5585	0.06	1051117	keystroke	i	n/a
525.6635	0.1205	1051327	keystroke	t	n/a
525.769	0.1195	1051538	keystroke	e	n/a
525.919	0.1045	1051838	keystroke	Key.space	n/a
526.5485	0.1045	1053097	keystroke	f	n/a
526.6835	0.1055	1053367	keystroke	a	n/a
526.8335	0.075	1053667	keystroke	v	n/a
527.2985	0.12	1054597	keystroke	o	n/a
527.4485	0.09	1054897	keystroke	r	n/a
527.5535	0.075	1055107	keystroke	Key.enter	n/a
527.6365	7.584	1055273	prompt	n/a	converted editorials formula cope\n
528.454	0.0595	1056908	keystroke	c	n/a
528.649	0.105	1057298	keystroke	o	n/a
528.784	0.105	1057568	keystroke	n	n/a
529.054	0.075	1058108	keystroke	v	n/a
529.759	0.135	1059518	keystroke	e	n/a
529.909	0.1355	1059818	keystroke	r	n/a
530.224	0.0895	1060448	keystroke	t	n/a
530.419	0.1795	1060838	keystroke	e	n/a
530.5835	0.1505	1061167	keystroke	d	n/a
530.839	0.0745	1061678	keystroke	Key.space	n/a
531.259	0.0895	1062518	keystroke	e	n/a
531.409	0.12	1062818	keystroke	d	n/a
531.574	0.15	1063148	keystroke	i	n/a
531.7385	0.1055	1063477	keystroke	t	n/a
531.994	0.15	1063988	keystroke	o	n/a
532.219	0.075	1064438	keystroke	r	n/a
532.4295	0.1045	1064859	keystroke	i	n/a
532.579	0.105	1065158	keystroke	a	n/a
532.7595	0.1045	1065519	keystroke	l	n/a
532.879	0.0905	1065758	keystroke	s	n/a
533.029	0.075	1066058	keystroke	Key.space	n/a
533.314	0.15	1066628	keystroke	f	n/a
533.4485	0.105	1066897	keystroke	o	n/a
533.5545	0.074	1067109	keystroke	r	n/a
533.6735	0.09	1067347	keystroke	m	n/a
533.8845	0.059	1067769	keystroke	u	n/a
534.094	0.09	1068188	keystroke	l	n/a
534.2285	0.075	1068457	keystroke	a	n/a
534.3635	0.0755	1068727	keystroke	Key.space	n/a
534.649	0.1045	1069298	keystroke	c	n/a
534.739	0.0745	1069478	keystroke	o	n/a
534.9335	0.0905	1069867	keystroke	p	n/a
535.054	0.075	1070108	keystroke	e	n/a
535.1585	0.06	1070317	keystroke	Key.enter	n/a
535.2255	5.3045	1070451	prompt	n/a	resort creates dolls islam\n
535.954	0.12	1071908	keystroke	r	n/a
536.029	0.1055	1072058	keystroke	e	n/a
536.3295	0.105	1072659	keystroke	s	n/a
536.449	0.0755	1072898	keystroke	o	n/a
536.584	0.105	1073168	keystroke	r	n/a
536.779	0.075	1073558	keystroke	t	n/a
536.9135	0.0755	1073827	keystroke	Key.space	n/a
537.319	0.075	1074638	keystroke	c	n/a
537.544	0.135	1075088	keystroke	r	n/a
537.589	0.195	1075178	keystroke	e	n/a
537.739	0.105	1075478	keystroke	a	n/a
537.874	0.165	1075748	keystroke	t	n/a
538.009	0.105	1076018	keystroke	e	n/a
538.264	0.105	1076528	keystroke	s	n/a
538.474	0.0895	1076948	keystroke	Key.space	n/a
538.7285	0.075	1077457	keystroke	d	n/a
538.8485	0.076	1077697	keystroke	o	n/a
539.044	0.0445	1078088	keystroke	l	n/a
539.164	0.0745	1078328	keystroke	l	n/a
539.2685	0.0755	1078537	keystroke	s	n/a
539.4335	0.0905	1078867	keystroke	Key.space	n/a
539.659	0.105	1079318	keystroke	i	n/a
539.7935	0.1205	1079587	keystroke	s	n/a
539.974	0.1045	1079948	keystroke	l	n/a
540.1385	0.0905	1080277	keystroke	a	n/a
540.2735	0.09	1080547	keystroke	m	n/a
540.4385	0.09	1080877	keystroke	Key.enter	n/a
540.5335	8.997	1081067	prompt	n/a	geology everyday holidays bookings\n
541.3985	0.09	1082797	keystroke	g	n/a
541.6685	0.135	1083337	keystroke	e	n/a
541.8185	0.075	1083637	keystroke	o	n/a
542.1785	0.075	1084357	keystroke	l	n/a
542.3735	0.0905	1084747	keystroke	o	n/a
542.704	0.0895	1085408	keystroke	g	n/a
543.0035	0.0605	1086007	keystroke	y	n/a
543.3335	0.075	1086667	keystroke	Key.space	n/a
543.6495	0.0895	1087299	keystroke	e	n/a
543.8285	0.1055	1087657	keystroke	v	n/a
543.964	0.135	1087928	keystroke	e	n/a
544.053	0.09	1088106	keystroke	r	n/a
544.174	0.06	1088348	keystroke	y	n/a
544.429	0.15	1088858	keystroke	d	n/a
544.594	0.09	1089188	keystroke	a	n/a
544.699	0.09	1089398	keystroke	y	n/a
545.0285	0.0595	1090057	keystroke	Key.space	n/a
545.374	0.074	1090748	keystroke	h	n/a
545.524	0.09	1091048	keystroke	o	n/a
545.718	0.0765	1091436	keystroke	l	n/a
545.9285	0.0605	1091857	keystroke	i	n/a
546.229	0.165	1092458	keystroke	d	n/a
546.469	0.1045	1092938	keystroke	a	n/a
546.5885	0.0905	1093177	keystroke	y	n/a
546.6635	0.0755	1093327	keystroke	s	n/a
546.843	0.076	1093686	keystroke	Key.space	n/a
547.414	0.06	1094828	keystroke	b	n/a
547.609	0.06	1095218	keystroke	o	n/a
547.729	0.135	1095458	keystroke	o	n/a
547.819	0.12	1095638	keystroke	k	n/a
548.0585	0.09	1096117	keystroke	i	n/a
548.2835	0.0455	1096567	keystroke	n	n/a
548.629	0.075	1097258	keystroke	g	n/a
549.184	0.09	1098368	keystroke	s	n/a
549.484	0.045	1098968	keystroke	Key.enter	n/a
549.535	8.185	1099070	prompt	n/a	vietnamese ladies suspended forum\n
550.444	0.06	1100888	keystroke	v	n/a
550.5935	0.076	1101187	keystroke	i	n/a
550.6535	0.106	1101307	keystroke	e	n/a
550.834	0.0745	1101668	keystroke	t	n/a
551.0135	0.075	1102027	keystroke	n	n/a
551.119	0.0895	1102238	keystroke	a	n/a
551.2385	0.09	1102477	keystroke	m	n/a
551.569	0.075	1103138	keystroke	e	n/a
551.778	0.0755	1103556	keystroke	s	n/a
551.974	0.06	1103948	keystroke	e	n/a
552.154	0.045	1104308	keystroke	Key.space	n/a
553.009	0.045	1106018	keystroke	l	n/a
553.069	0.105	1106138	keystroke	a	n/a
553.324	0.09	1106648	keystroke	d	n/a
553.579	0.105	1107158	keystroke	e	n/a
554.089	0.09	1108178	keystroke	Key.backspace	n/a
554.299	0.09	1108598	keystroke	i	n/a
554.359	0.09	1108718	keystroke	e	n/a
554.569	0.075	1109138	keystroke	s	n/a
554.688	0.076	1109376	keystroke	Key.space	n/a
554.9735	0.0755	1109947	keystroke	s	n/a
555.1235	0.075	1110247	keystroke	u	n/a
555.2135	0.09	1110427	keystroke	s	n/a
555.4385	0.075	1110877	keystroke	p	n/a
555.5585	0.09	1111117	keystroke	e	n/a
555.7085	0.075	1111417	keystroke	n	n/a
555.8435	0.12	1111687	keystroke	d	n/a
555.9635	0.15	1111927	keystroke	e	n/a
556.0535	0.15	1112107	keystroke	d	n/a
556.1885	0.075	1112377	keystroke	Key.space	n/a
556.5935	0.0905	1113187	keystroke	f	n/a
556.834	0.225	1113668	keystroke	o	n/a
557.1485	0.075	1114297	keystroke	r	n/a
557.299	0.0895	1114598	keystroke	u	n/a
557.5085	0.075	1115017	keystroke	m	n/a
557.6285	0.09	1115257	keystroke	Key.enter	n/a
557.7235	8.6065	1115447	prompt	n/a	muze lexington traveler warm\n
558.799	0.075	1117598	keystroke	m	n/a
558.993	0.0605	1117986	keystroke	u	n/a
559.234	0.0595	1118468	keystroke	z	n/a
559.4735	0.09	1118947	keystroke	e	n/a
559.7435	0.0605	1119487	keystroke	Key.space	n/a
560.0285	0.045	1120057	keystroke	k	n/a
560.104	0.09	1120208	keystroke	e	n/a
560.524	0.0595	1121048	keystroke	Key.backspace	n/a
560.6435	0.09	1121287	keystroke	Key.backspace	n/a
560.8385	0.105	1121677	keystroke	l	n/a
560.928	0.076	1121856	keystroke	e	n/a
561.5885	0.0755	1123177	keystroke	x	n/a
561.724	0.09	1123448	keystroke	i	n/a
561.829	0.1045	1123658	keystroke	n	n/a
562.0085	0.0905	1124017	keystroke	g	n/a
562.188	0.0905	1124376	keystroke	t	n/a
562.2635	0.12	1124527	keystroke	o	n/a
562.3385	0.12	1124677	keystroke	n	n/a
562.624	0.0745	1125248	keystroke	Key.space	n/a
563.509	0.135	1127018	keystroke	t	n/a
563.629	0.12	1127258	keystroke	r	n/a
563.779	0.089	1127558	keystroke	a	n/a
563.944	0.105	1127888	keystroke	v	n/a
564.1095	0.1195	1128219	keystroke	e	n/a
564.244	0.06	1128488	keystroke	l	n/a
564.334	0.135	1128668	keystroke	e	n/a
564.454	0.1045	1128908	keystroke	r	n/a
564.739	0.0595	1129478	keystroke	Key.space	n/a
565.384	0.0145	1130768	keystroke	w	n/a
565.4285	0.165	1130857	keystroke	a	n/a
565.909	0.076	1131818	keystroke	r	n/a
566.029	0.1055	1132058	keystroke	m	n/a
566.2535	0.0755	1132507	keystroke	Key.enter	n/a
566.3335	7.6465	1132667	prompt	n/a	singapore conf outline worry\n
567.139	0.075	1134278	keystroke	s	n/a
567.2885	0.09	1134577	keystroke	i	n/a
567.3635	0.105	1134727	keystroke	n	n/a
567.4835	0.06	1134967	keystroke	a	n/a
567.7835	0.06	1135567	keystroke	Key.backspace	n/a
567.859	0.105	1135718	keystroke	g	n/a
567.9645	0.104	1135929	keystroke	a	n/a
568.668	0.06	1137336	keystroke	p	n/a
568.849	0.059	1137698	keystroke	o	n/a
568.9235	0.0745	1137847	keystroke	e	n/a
569.7485	0.09	1139497	keystroke	Key.backspace	n/a
569.8685	0.165	1139737	keystroke	r	n/a
569.9735	0.1055	1139947	keystroke	e	n/a
570.213	0.0605	1140426	keystroke	Key.space	n/a
570.4235	0.0605	1140847	keystroke	c	n/a
570.4685	0.1205	1140937	keystroke	o	n/a
570.559	0.1195	1141118	keystroke	n	n/a
570.7235	0.1055	1141447	keystroke	f	n/a
570.8735	0.09	1141747	keystroke	Key.space	n/a
571.4585	0.0745	1142917	keystroke	o	n/a
571.6535	0.0905	1143307	keystroke	u	n/a
571.8935	0.0755	1143787	keystroke	t	n/a
572.0285	0.0895	1144057	keystroke	l	n/a
572.2385	0.1345	1144477	keystroke	i	n/a
572.3585	0.075	1144717	keystroke	n	n/a
572.418	0.0755	1144836	keystroke	e	n/a
572.614	0.044	1145228	keystroke	Key.space	n/a
573.0335	0.09	1146067	keystroke	w	n/a
573.2435	0.1055	1146487	keystroke	o	n/a
573.364	0.0445	1146728	keystroke	r	n/a
573.4835	0.09	1146967	keystroke	r	n/a
573.6485	0.1055	1147297	keystroke	y	n/a
573.903	0.0755	1147806	keystroke	Key.enter	n/a
573.984	10.406	1147968	prompt	n/a	topics shopper immediately proposals\n
574.7285	0.0745	1149457	keystroke	t	n/a
574.924	0.06	1149848	keystroke	o	n/a
575.088	0.09	1150176	keystroke	p	n/a
575.299	0.0595	1150598	keystroke	i	n/a
575.464	0.1195	1150928	keystroke	c	n/a
575.7485	0.06	1151497	keystroke	s	n/a
576.4085	0.075	1152817	keystroke	Key.space	n/a
576.529	0.0895	1153058	keystroke	s	n/a
576.6935	0.075	1153387	keystroke	h	n/a
576.8885	0.06	1153777	keystroke	o	n/a
577.0685	0.0455	1154137	keystroke	p	n/a
577.1885	0.0745	1154377	keystroke	p	n/a
577.233	0.121	1154466	keystroke	e	n/a
577.369	0.089	1154738	keystroke	r	n/a
577.488	0.075	1154976	keystroke	Key.space	n/a
577.833	0.105	1155666	keystroke	i	n/a
578.0885	0.045	1156177	keystroke	m	n/a
578.2085	0.09	1156417	keystroke	m	n/a
578.2835	0.105	1156567	keystroke	e	n/a
578.509	0.075	1157018	keystroke	d	n/a
578.643	0.0765	1157286	keystroke	i	n/a
578.7195	0.074	1157439	keystroke	a	n/a
578.9285	0.06	1157857	keystroke	t	n/a
579.0785	0.0905	1158157	keystroke	e	n/a
579.2135	0.0905	1158427	keystroke	l	n/a
579.4085	0.0755	1158817	keystroke	y	n/a
579.618	0.075	1159236	keystroke	Key.space	n/a
580.3535	0.075	1160707	keystroke	p	n/a
580.4585	0.0445	1160917	keystroke	r	n/a
580.519	0.1045	1161038	keystroke	o	n/a
580.7585	0.0905	1161517	keystroke	p	n/a
581.014	0.075	1162028	keystroke	o	n/a
581.9295	0.074	1163859	keystroke	s	n/a
582.139	0.09	1164278	keystroke	a	n/a
582.2885	0.0455	1164577	keystroke	;	n/a
582.5135	0.0155	1165027	keystroke	s	n/a
582.918	0.06	1165836	keystroke	Key.backspace	n/a
583.068	0.09	1166136	keystroke	Key.backspace	n/a
583.3385	0.0755	1166677	keystroke	l	n/a
583.429	0.18	1166858	keystroke	s	n/a
583.653	0.075	1167306	keystroke	a	n/a
584.1785	0.0145	1168357	keystroke	Key.backspace	n/a
584.298	0.0905	1168596	keystroke	Key.enter	n/a
584.3935	6.7025	1168787	prompt	n/a	under converted instead external\n
585.229	0.014	1170458	keystroke	u	n/a
585.2585	0.1045	1170517	keystroke	n	n/a
585.378	0.045	1170756	keystroke	d	n/a
585.453	0.166	1170906	keystroke	e	n/a
585.589	0.09	1171178	keystroke	r	n/a
585.753	0.09	1171506	keystroke	Key.space	n/a
586.0535	0.06	1172107	keystroke	c	n/a
586.0985	0.075	1172197	keystroke	o	n/a
586.2785	0.0905	1172557	keystroke	n	n/a
586.399	0.0745	1172798	keystroke	v	n/a
586.578	0.1055	1173156	keystroke	e	n/a
586.6685	0.105	1173337	keystroke	r	n/a
586.909	0.075	1173818	keystroke	t	n/a
587.0135	0.1805	1174027	keystroke	e	n/a
587.2235	0.0745	1174447	keystroke	d	n/a
587.433	0.075	1174866	keystroke	Key.space	n/a
587.824	0.0895	1175648	keystroke	i	n/a
587.9585	0.105	1175917	keystroke	n	n/a
588.0485	0.1055	1176097	keystroke	s	n/a
588.3335	0.0755	1176667	keystroke	t	n/a
588.424	0.2695	1176848	keystroke	e	n/a
588.6335	0.165	1177267	keystroke	a	n/a
588.8285	0.135	1177657	keystroke	d	n/a
589.084	0.075	1178168	keystroke	Key.space	n/a
589.369	0.09	1178738	keystroke	e	n/a
589.864	0.0745	1179728	keystroke	x	n/a
590.1635	0.1055	1180327	keystroke	t	n/a
590.299	0.1495	1180598	keystroke	e	n/a
590.4185	0.075	1180837	keystroke	r	n/a
590.508	0.076	1181016	keystroke	n	n/a
590.6135	0.0745	1181227	keystroke	a	n/a
590.749	0.09	1181498	keystroke	l	n/a
591.019	0.0745	1182038	keystroke	Key.enter	n/a
591.0995	14.621	1182199	prompt	n/a	portfolio shouldn't've automatically brunswick\n
592.099	0.06	1184198	keystroke	p	n/a
592.6985	0.0755	1185397	keystroke	o	n/a
593.0885	0.0905	1186177	keystroke	r	n/a
593.284	0.074	1186568	keystroke	t	n/a
593.554	0.075	1187108	keystroke	f	n/a
593.688	0.075	1187376	keystroke	o	n/a
593.868	0.09	1187736	keystroke	l	n/a
594.093	0.075	1188186	keystroke	i	n/a
594.304	0.089	1188608	keystroke	o	n/a
594.723	0.09	1189446	keystroke	Key.space	n/a
595.114	0.044	1190228	keystroke	s	n/a
