onset	duration	sample	value	key	prompt_text
5.3865	0.115	10773	keystroke_1	1	n/a
5.5545	0.092	11109	keystroke_1	1	n/a
7.855	0.047	15710	keystroke_0	0	n/a
7.993	0.067	15986	keystroke_0	0	n/a
14.7535	17.4495	29507	prompt	n/a	the quick brown fox jumps over a lazy dog\n
17.741	0.134	35482	keystroke_q	q	n/a
17.89	0.151	35780	keystroke_u	u	n/a
17.995	0.165	35990	keystroke_i	i	n/a
18.175	0.135	36350	keystroke_c	c	n/a
18.325	0.1805	36650	keystroke_k	k	n/a
18.475	0.1805	36950	keystroke_Key.space	Key.space	n/a
18.6405	0.21	37281	keystroke_b	b	n/a
19.2105	0.06	38421	keystroke_Key.backspace	Key.backspace	n/a
19.39	0.075	38780	keystroke_Key.backspace	Key.backspace	n/a
19.555	0.09	39110	keystroke_Key.backspace	Key.backspace	n/a
19.72	0.105	39440	keystroke_Key.backspace	Key.backspace	n/a
19.93	0.09	39860	keystroke_Key.backspace	Key.backspace	n/a
20.125	0.09	40250	keystroke_Key.backspace	Key.backspace	n/a
20.32	0.105	40640	keystroke_Key.backspace	Key.backspace	n/a
22.285	0.135	44570	keystroke_t	t	n/a
22.435	0.135	44870	keystroke_h	h	n/a
22.796	0.149	45592	keystroke_e	e	n/a
22.93	0.105	45860	keystroke_Key.space	Key.space	n/a
23.215	0.12	46430	keystroke_q	q	n/a
23.4705	0.18	46941	keystroke_u	u	n/a
23.5755	0.15	47151	keystroke_i	i	n/a
23.7105	0.1795	47421	keystroke_c	c	n/a
23.891	0.195	47782	keystroke_k	k	n/a
24.026	0.15	48052	keystroke_Key.space	Key.space	n/a
24.236	0.18	48472	keystroke_b	b	n/a
24.431	0.135	48862	keystroke_r	r	n/a
24.581	0.1645	49162	keystroke_o	o	n/a
24.731	0.1645	49462	keystroke_w	w	n/a
24.9255	0.18	49851	keystroke_n	n	n/a
25.0455	0.1355	50091	keystroke_Key.space	Key.space	n/a
25.436	0.09	50872	keystroke_f	f	n/a
25.571	0.165	51142	keystroke_o	o	n/a
25.856	0.135	51712	keystroke_x	x	n/a
26.0205	0.12	52041	keystroke_Key.space	Key.space	n/a
26.2605	0.18	52521	keystroke_j	j	n/a
26.3655	0.135	52731	keystroke_u	u	n/a
26.6055	0.24	53211	keystroke_m	m	n/a
26.7555	0.1795	53511	keystroke_p	p	n/a
26.965	0.1355	53930	keystroke_s	s	n/a
27.1605	0.105	54321	keystroke_Key.space	Key.space	n/a
27.3255	0.1505	54651	keystroke_o	o	n/a
27.521	0.12	55042	keystroke_v	v	n/a
27.73	0.18	55460	keystroke_e	e	n/a
27.955	0.1655	55910	keystroke_r	r	n/a
28.1355	0.135	56271	keystroke_Key.space	Key.space	n/a
28.36	0.151	56720	keystroke_a	a	n/a
28.526	0.105	57052	keystroke_Key.space	Key.space	n/a
28.706	0.135	57412	keystroke_l	l	n/a
28.826	0.15	57652	keystroke_a	a	n/a
29.86	0.1055	59720	keystroke_z	z	n/a
30.026	0.1795	60052	keystroke_y	y	n/a
30.1755	0.135	60351	keystroke_Key.space	Key.space	n/a
30.4755	0.105	60951	keystroke_d	d	n/a
30.596	0.105	61192	keystroke_o	o	n/a
30.731	0.12	61462	keystroke_f	f	n/a
31.331	0.104	62662	keystroke_Key.backspace	Key.backspace	n/a
31.676	0.12	63352	keystroke_g	g	n/a
32.096	0.1045	64192	keystroke_Key.enter	Key.enter	n/a
32.2075	8.2895	64415	prompt	n/a	hart respected tale relation\n
33.025	0.12	66050	keystroke_h	h	n/a
33.13	0.15	66260	keystroke_a	a	n/a
33.386	0.089	66772	keystroke_r	r	n/a
33.5655	0.135	67131	keystroke_t	t	n/a
33.6855	0.12	67371	keystroke_Key.space	Key.space	n/a
34.0755	0.09	68151	keystroke_e	e	n/a
34.525	0.105	69050	keystroke_Key.backspace	Key.backspace	n/a
34.615	0.12	69230	keystroke_r	r	n/a
34.795	0.1505	69590	keystroke_e	e	n/a
35.1555	0.105	70311	keystroke_s	s	n/a
35.89	0.12	71780	keystroke_p	p	n/a
35.965	0.105	71930	keystroke_e	e	n/a
36.175	0.121	72350	keystroke_c	c	n/a
36.4455	0.105	72891	keystroke_t	t	n/a
36.7005	0.0605	73401	keystroke_e	e	n/a
36.896	0.135	73792	keystroke_d	d	n/a
37.016	0.1195	74032	keystroke_Key.space	Key.space	n/a
37.3305	0.09	74661	keystroke_t	t	n/a
37.6155	0.165	75231	keystroke_a	a	n/a
37.7805	0.105	75561	keystroke_l	l	n/a
37.9155	0.135	75831	keystroke_e	e	n/a
38.0805	0.12	76161	keystroke_Key.space	Key.space	n/a
38.8305	0.105	77661	keystroke_r	r	n/a
39.01	0.12	78020	keystroke_e	e	n/a
39.22	0.12	78440	keystroke_l	l	n/a
39.265	0.18	78530	keystroke_a	a	n/a
39.625	0.105	79250	keystroke_t	t	n/a
39.895	0.2105	79790	keystroke_i	i	n/a
40.0305	0.195	80061	keystroke_o	o	n/a
40.1505	0.12	80301	keystroke_n	n	n/a
40.4055	0.0895	80811	keystroke_Key.enter	Key.enter	n/a
40.5005	7.5425	81001	prompt	n/a	transmission gmbh xbox condo\n
41.23	0.105	82460	keystroke_t	t	n/a
41.485	0.1055	82970	keystroke_r	r	n/a
41.71	0.15	83420	keystroke_a	a	n/a
41.815	0.135	83630	keystroke_n	n	n/a
42.04	0.12	84080	keystroke_s	s	n/a
42.28	0.15	84560	keystroke_m	m	n/a
42.415	0.135	84830	keystroke_i	i	n/a
42.626	0.089	85252	keystroke_s	s	n/a
42.805	0.12	85610	keystroke_s	s	n/a
42.91	0.1655	85820	keystroke_i	i	n/a
43.045	0.2855	86090	keystroke_o	o	n/a
43.1955	0.165	86391	keystroke_n	n	n/a
43.3155	0.135	86631	keystroke_Key.space	Key.space	n/a
43.8855	0.1195	87771	keystroke_g	g	n/a
44.05	0.105	88100	keystroke_m	m	n/a
44.305	0.24	88610	keystroke_b	b	n/a
44.485	0.1955	88970	keystroke_h	h	n/a
44.6355	0.1495	89271	keystroke_Key.space	Key.space	n/a
45.7	0.105	91400	keystroke_x	x	n/a
45.865	0.1655	91730	keystroke_b	b	n/a
45.9705	0.18	91941	keystroke_o	o	n/a
46.1805	0.15	92361	keystroke_x	x	n/a
46.3755	0.105	92751	keystroke_Key.space	Key.space	n/a
46.811	0.12	93622	keystroke_c	c	n/a
46.961	0.194	93922	keystroke_o	o	n/a
47.111	0.179	94222	keystroke_n	n	n/a
47.305	0.135	94610	keystroke_d	d	n/a
47.425	0.165	94850	keystroke_o	o	n/a
47.935	0.105	95870	keystroke_Key.enter	Key.enter	n/a
48.046	7.001	96092	prompt	n/a	morocco trainer upload cure\n
48.6705	0.18	97341	keystroke_m	m	n/a
48.7755	0.18	97551	keystroke_o	o	n/a
48.9705	0.105	97941	keystroke_r	r	n/a
49.1205	0.105	98241	keystroke_o	o	n/a
49.2705	0.09	98541	keystroke_c	c	n/a
49.466	0.06	98932	keystroke_c	c	n/a
49.616	0.165	99232	keystroke_o	o	n/a
49.886	0.105	99772	keystroke_Key.space	Key.space	n/a
50.246	0.12	100492	keystroke_t	t	n/a
50.411	0.1495	100822	keystroke_r	r	n/a
50.6655	0.1195	101331	keystroke_a	a	n/a
50.86	0.18	101720	keystroke_i	i	n/a
51.01	0.181	102020	keystroke_n	n	n/a
51.3855	0.135	102771	keystroke_e	e	n/a
51.685	0.135	103370	keystroke_r	r	n/a
51.88	0.09	103760	keystroke_Key.space	Key.space	n/a
52.495	0.106	104990	keystroke_u	u	n/a
52.586	0.165	105172	keystroke_p	p	n/a
52.796	0.12	105592	keystroke_l	l	n/a
53.036	0.105	106072	keystroke_o	o	n/a
53.156	0.21	106312	keystroke_a	a	n/a
53.3955	0.09	106791	keystroke_d	d	n/a
53.6205	0.105	107241	keystroke_Key.space	Key.space	n/a
53.95	0.09	107900	keystroke_c	c	n/a
54.085	0.105	108170	keystroke_u	u	n/a
54.28	0.09	108560	keystroke_r	r	n/a
54.64	0.12	109280	keystroke_e	e	n/a
54.94	0.105	109880	keystroke_Key.enter	Key.enter	n/a
55.051	7.2865	110102	prompt	n/a	true praise indexed genuine\n
55.7355	0.105	111471	keystroke_t	t	n/a
56.0055	0.105	112011	keystroke_r	r	n/a
56.1405	0.1055	112281	keystroke_u	u	n/a
56.291	0.135	112582	keystroke_e	e	n/a
56.486	0.105	112972	keystroke_Key.space	Key.space	n/a
56.726	0.135	113452	keystroke_p	p	n/a
56.921	0.12	113842	keystroke_r	r	n/a
57.176	0.12	114352	keystroke_a	a	n/a
57.311	0.12	114622	keystroke_i	i	n/a
57.431	0.1495	114862	keystroke_s	s	n/a
57.776	0.15	115552	keystroke_e	e	n/a
57.956	0.12	115912	keystroke_Key.space	Key.space	n/a
58.136	0.165	116272	keystroke_i	i	n/a
58.256	0.15	116512	keystroke_n	n	n/a
58.5405	0.12	117081	keystroke_d	d	n/a
58.8255	0.12	117651	keystroke_e	e	n/a
59.5905	0.105	119181	keystroke_x	x	n/a
59.8005	0.135	119601	keystroke_e	e	n/a
59.9805	0.12	119961	keystroke_d	d	n/a
60.2205	0.105	120441	keystroke_Key.space	Key.space	n/a
60.9705	0.075	121941	keystroke_g	g	n/a
61.0605	0.09	122121	keystroke_e	e	n/a
61.1955	0.225	122391	keystroke_n	n	n/a
61.3755	0.195	122751	keystroke_u	u	n/a
61.5105	0.24	123021	keystroke_i	i	n/a
61.6905	0.24	123381	keystroke_n	n	n/a
61.8705	0.1355	123741	keystroke_e	e	n/a
62.2455	0.09	124491	keystroke_Key.enter	Key.enter	n/a
62.3405	6.687	124681	prompt	n/a	metallica apart pipe helena\n
62.9955	0.15	125991	keystroke_m	m	n/a
63.1005	0.1345	126201	keystroke_e	e	n/a
63.37	0.105	126740	keystroke_t	t	n/a
63.58	0.151	127160	keystroke_a	a	n/a
63.79	0.075	127580	keystroke_l	l	n/a
63.925	0.226	127850	keystroke_l	l	n/a
64.121	0.134	128242	keystroke_i	i	n/a
64.3	0.151	128600	keystroke_c	c	n/a
64.511	0.135	129022	keystroke_a	a	n/a
64.72	0.12	129440	keystroke_Key.space	Key.space	n/a
65.08	0.12	130160	keystroke_a	a	n/a
65.276	0.119	130552	keystroke_p	p	n/a
65.381	0.149	130762	keystroke_a	a	n/a
65.651	0.15	131302	keystroke_r	r	n/a
66.041	0.105	132082	keystroke_t	t	n/a
66.25	0.09	132500	keystroke_Key.space	Key.space	n/a
66.626	0.105	133252	keystroke_p	p	n/a
66.776	0.135	133552	keystroke_i	i	n/a
66.956	0.135	133912	keystroke_p	p	n/a
67.121	0.165	134242	keystroke_e	e	n/a
67.331	0.12	134662	keystroke_Key.space	Key.space	n/a
67.7505	0.135	135501	keystroke_h	h	n/a
67.9155	0.135	135831	keystroke_e	e	n/a
68.0655	0.15	136131	keystroke_l	l	n/a
68.2005	0.12	136401	keystroke_e	e	n/a
68.3805	0.12	136761	keystroke_n	n	n/a
68.5455	0.135	137091	keystroke_a	a	n/a
68.9355	0.09	137871	keystroke_Key.enter	Key.enter	n/a
69.031	7.4515	138062	prompt	n/a	inline blocking accuracy concerned\n
69.7905	0.165	139581	keystroke_i	i	n/a
69.9255	0.255	139851	keystroke_n	n	n/a
70.1055	0.225	140211	keystroke_l	l	n/a
70.2705	0.315	140541	keystroke_i	i	n/a
70.4355	0.1955	140871	keystroke_n	n	n/a
70.5705	0.1355	141141	keystroke_e	e	n/a
70.721	0.09	141442	keystroke_Key.space	Key.space	n/a
71.096	0.105	142192	keystroke_b	b	n/a
71.261	0.135	142522	keystroke_l	l	n/a
71.486	0.135	142972	keystroke_o	o	n/a
71.606	0.15	143212	keystroke_c	c	n/a
71.771	0.09	143542	keystroke_k	k	n/a
72.0105	0.195	144021	keystroke_i	i	n/a
72.1455	0.165	144291	keystroke_n	n	n/a
72.2505	0.12	144501	keystroke_g	g	n/a
72.3855	0.1355	144771	keystroke_Key.space	Key.space	n/a
72.686	0.135	145372	keystroke_a	a	n/a
73.001	0.06	146002	keystroke_c	c	n/a
73.151	0.09	146302	keystroke_c	c	n/a
73.286	0.12	146572	keystroke_u	u	n/a
73.4205	0.105	146841	keystroke_r	r	n/a
73.6455	0.105	147291	keystroke_a	a	n/a
73.8405	0.12	147681	keystroke_c	c	n/a
74.0055	0.12	148011	keystroke_y	y	n/a
74.2155	0.1205	148431	keystroke_Key.space	Key.space	n/a
74.681	0.12	149362	keystroke_c	c	n/a
74.786	0.15	149572	keystroke_o	o	n/a
74.921	0.135	149842	keystroke_n	n	n/a
74.996	0.105	149992	keystroke_c	c	n/a
75.266	0.105	150532	keystroke_e	e	n/a
75.491	0.105	150982	keystroke_r	r	n/a
75.611	0.135	151222	keystroke_n	n	n/a
75.761	0.105	151522	keystroke_e	e	n/a
75.986	0.135	151972	keystroke_d	d	n/a
76.361	0.12	152722	keystroke_Key.enter	Key.enter	n/a
76.4875	10.7505	152975	prompt	n/a	universities captain guest mask\n
77.1705	0.21	154341	keystroke_i	i	n/a
77.2905	0.195	154581	keystroke_n	n	n/a
77.6505	0.09	155301	keystroke_v	v	n/a
78.041	0.09	156082	keystroke_e	e	n/a
78.251	0.12	156502	keystroke_r	r	n/a
78.776	0.06	157552	keystroke_Key.backspace	Key.backspace	n/a
78.941	0.075	157882	keystroke_Key.backspace	Key.backspace	n/a
79.181	0.06	158362	keystroke_Key.backspace	Key.backspace	n/a
79.376	0.0445	158752	keystroke_Key.backspace	Key.backspace	n/a
79.5705	0.06	159141	keystroke_Key.backspace	Key.backspace	n/a
80.141	0.12	160282	keystroke_u	u	n/a
80.276	0.255	160552	keystroke_n	n	n/a
80.456	0.15	160912	keystroke_i	i	n/a
80.621	0.135	161242	keystroke_v	v	n/a
80.8005	0.15	161601	keystroke_e	e	n/a
81.0555	0.076	162111	keystroke_r	r	n/a
81.326	0.1345	162652	keystroke_s	s	n/a
81.4905	0.12	162981	keystroke_i	i	n/a
81.731	0.09	163462	keystroke_t	t	n/a
81.851	0.105	163702	keystroke_i	i	n/a
82.016	0.15	164032	keystroke_e	e	n/a
82.316	0.105	164632	keystroke_s	s	n/a
82.451	0.105	164902	keystroke_Key.space	Key.space	n/a
83.051	0.15	166102	keystroke_c	c	n/a
83.246	0.165	166492	keystroke_a	a	n/a
83.441	0.15	166882	keystroke_p	p	n/a
83.606	0.105	167212	keystroke_t	t	n/a
84.221	0.045	168442	keystroke_a	a	n/a
84.371	0.24	168742	keystroke_i	i	n/a
84.506	0.165	169012	keystroke_n	n	n/a
84.626	0.12	169252	keystroke_Key.space	Key.space	n/a
85.0605	0.18	170121	keystroke_g	g	n/a
85.1955	0.135	170391	keystroke_u	u	n/a
85.3005	0.1205	170601	keystroke_e	e	n/a
85.5415	0.119	171083	keystroke_s	s	n/a
85.8405	0.075	171681	keystroke_t	t	n/a
85.9305	0.12	171861	keystroke_Key.space	Key.space	n/a
86.1855	0.15	172371	keystroke_m	m	n/a
86.3055	0.12	172611	keystroke_a	a	n/a
86.516	0.12	173032	keystroke_s	s	n/a
86.711	0.135	173422	keystroke_k	k	n/a
87.1155	0.12	174231	keystroke_Key.enter	Key.enter	n/a
87.2425	8.05	174485	prompt	n/a	pour spaces drunk sons\n
87.866	0.2255	175732	keystroke_p	p	n/a
88.0305	0.225	176061	keystroke_o	o	n/a
88.2265	0.119	176453	keystroke_u	u	n/a
88.3615	0.1495	176723	keystroke_r	r	n/a
88.556	0.09	177112	keystroke_Key.space	Key.space	n/a
89.111	0.105	178222	keystroke_s	s	n/a
89.261	0.135	178522	keystroke_p	p	n/a
89.411	0.0895	178822	keystroke_a	a	n/a
90.3255	0.135	180651	keystroke_c	c	n/a
90.506	0.135	181012	keystroke_e	e	n/a
90.746	0.135	181492	keystroke_s	s	n/a
91.016	0.12	182032	keystroke_Key.space	Key.space	n/a
92.3355	0.09	184671	keystroke_d	d	n/a
92.5455	0.12	185091	keystroke_r	r	n/a
92.6805	0.135	185361	keystroke_u	u	n/a
92.8755	0.39	185751	keystroke_n	n	n/a
93.0555	0.225	186111	keystroke_k	k	n/a
93.2355	0.135	186471	keystroke_Key.space	Key.space	n/a
93.926	0.12	187852	keystroke_s	s	n/a
94.151	0.225	188302	keystroke_o	o	n/a
94.301	0.1805	188602	keystroke_n	n	n/a
94.5565	0.15	189113	keystroke_s	s	n/a
95.2315	0.06	190463	keystroke_Key.enter	Key.enter	n/a
95.2955	10.4075	190591	prompt	n/a	pharmacology shore passion volt\n
96.1465	0.15	192293	keystroke_p	p	n/a
96.2515	0.18	192503	keystroke_h	h	n/a
96.4165	0.1645	192833	keystroke_a	a	n/a
96.761	0.075	193522	keystroke_r	r	n/a
97.001	0.135	194002	keystroke_m	m	n/a
97.137	0.209	194274	keystroke_a	a	n/a
97.466	0.12	194932	keystroke_c	c	n/a
97.601	0.105	195202	keystroke_o	o	n/a
97.811	0.09	195622	keystroke_l	l	n/a
98.006	0.09	196012	keystroke_o	o	n/a
98.516	0.12	197032	keystroke_g	g	n/a
98.666	0.21	197332	keystroke_y	y	n/a
98.801	0.1355	197602	keystroke_Key.space	Key.space	n/a
99.1615	0.135	198323	keystroke_s	s	n/a
99.3115	0.195	198623	keystroke_h	h	n/a
99.4765	0.21	198953	keystroke_o	o	n/a
99.6865	0.135	199373	keystroke_r	r	n/a
99.8965	0.18	199793	keystroke_e	e	n/a
100.1065	0.135	200213	keystroke_Key.space	Key.space	n/a
100.451	0.1345	200902	keystroke_p	p	n/a
100.6005	0.09	201201	keystroke_a	a	n/a
100.8705	0.075	201741	keystroke_d	d	n/a
101.0955	0.09	202191	keystroke_d	d	n/a
101.4555	0.06	202911	keystroke_Key.backspace	Key.backspace	n/a
101.651	0.0755	203302	keystroke_Key.backspace	Key.backspace	n/a
101.786	0.15	203572	keystroke_s	s	n/a
101.981	0.12	203962	keystroke_s	s	n/a
102.101	0.285	204202	keystroke_i	i	n/a
102.326	0.255	204652	keystroke_o	o	n/a
102.506	0.165	205012	keystroke_n	n	n/a
102.611	0.12	205222	keystroke_Key.space	Key.space	n/a
102.866	0.135	205732	keystroke_c	c	n/a
103.016	0.105	206032	keystroke_o	o	n/a
103.241	0.12	206482	keystroke_l	l	n/a
103.766	0.06	207532	keystroke_Key.backspace	Key.backspace	n/a
103.931	0.075	207862	keystroke_Key.backspace	Key.backspace	n/a
104.126	0.09	208252	keystroke_Key.backspace	Key.backspace	n/a
104.7565	0.105	209513	keystroke_v	v	n/a
104.8465	0.105	209693	keystroke_o	o	n/a
105.0565	0.12	210113	keystroke_l	l	n/a
105.1915	0.12	210383	keystroke_t	t	n/a
105.5965	0.105	211193	keystroke_Key.enter	Key.enter	n/a
105.706	11.0065	211412	prompt	n/a	specifics questions crude daddy\n
106.541	0.09	213082	keystroke_s	s	n/a
106.646	0.15	213292	keystroke_p	p	n/a
106.781	0.09	213562	keystroke_e	e	n/a
107.036	0.06	214072	keystroke_c	c	n/a
107.1415	0.075	214283	keystroke_i	i	n/a
107.3665	0.105	214733	keystroke_f	f	n/a
107.5465	0.12	215093	keystroke_i	i	n/a
107.6515	0.1045	215303	keystroke_c	c	n/a
108.056	0.06	216112	keystroke_s	s	n/a
108.236	0.105	216472	keystroke_Key.space	Key.space	n/a
109.256	0.12	218512	keystroke_q	q	n/a
109.361	0.105	218722	keystroke_u	u	n/a
110.8315	0.09	221663	keystroke_e	e	n/a
111.5205	0.136	223041	keystroke_s	s	n/a
111.8365	0.059	223673	keystroke_t	t	n/a
112.0455	0.076	224091	keystroke_i	i	n/a
112.3615	0.149	224723	keystroke_o	o	n/a
112.4805	0.181	224961	keystroke_n	n	n/a
112.6755	0.211	225351	keystroke_s	s	n/a
112.8255	0.105	225651	keystroke_Key.space	Key.space	n/a
113.2315	0.12	226463	keystroke_c	c	n/a
113.456	0.12	226912	keystroke_r	r	n/a
113.636	0.105	227272	keystroke_u	u	n/a
113.756	0.09	227512	keystroke_d	d	n/a
113.951	0.1345	227902	keystroke_e	e	n/a
114.0705	0.105	228141	keystroke_Key.space	Key.space	n/a
114.8355	0.105	229671	keystroke_d	d	n/a
115.316	0.1205	230632	keystroke_a	a	n/a
115.5405	0.105	231081	keystroke_d	d	n/a
115.7205	0.135	231441	keystroke_d	d	n/a
115.9005	0.105	231801	keystroke_y	y	n/a
116.621	0.09	233242	keystroke_Key.enter	Key.enter	n/a
116.716	5.8615	233432	prompt	n/a	backed buy boss carefully\n
117.4315	0.1345	234863	keystroke_b	b	n/a
117.5215	0.24	235043	keystroke_a	a	n/a
117.7765	0.105	235553	keystroke_c	c	n/a
117.9415	0.165	235883	keystroke_k	k	n/a
118.1515	0.075	236303	keystroke_e	e	n/a
118.3465	0.12	236693	keystroke_d	d	n/a
118.481	0.105	236962	keystroke_Key.space	Key.space	n/a
118.796	0.225	237592	keystroke_b	b	n/a
118.961	0.135	237922	keystroke_u	u	n/a
119.231	0.09	238462	keystroke_y	y	n/a
119.366	0.1055	238732	keystroke_Key.space	Key.space	n/a
119.6365	0.1645	239273	keystroke_b	b	n/a
119.756	0.135	239512	keystroke_o	o	n/a
119.906	0.105	239812	keystroke_s	s	n/a
120.1015	0.135	240203	keystroke_s	s	n/a
120.2515	0.105	240503	keystroke_Key.space	Key.space	n/a
120.5805	0.121	241161	keystroke_c	c	n/a
120.8215	0.104	241643	keystroke_a	a	n/a
121.0305	0.075	242061	keystroke_r	r	n/a
121.2105	0.09	242421	keystroke_e	e	n/a
121.4215	0.089	242843	keystroke_f	f	n/a
121.5255	0.076	243051	keystroke_u	u	n/a
121.721	0.09	243442	keystroke_l	l	n/a
121.871	0.135	243742	keystroke_l	l	n/a
122.051	0.15	244102	keystroke_y	y	n/a
122.471	0.1055	244942	keystroke_Key.enter	Key.enter	n/a
122.5805	5.278	245161	prompt	n/a	static fact pine addressed\n
123.4005	0.1205	246801	keystroke_s	s	n/a
123.596	0.105	247192	keystroke_t	t	n/a
123.731	0.12	247462	keystroke_a	a	n/a
124.061	0.105	248122	keystroke_t	t	n/a
124.241	0.12	248482	keystroke_i	i	n/a
124.391	0.1505	248782	keystroke_c	c	n/a
124.556	0.105	249112	keystroke_Key.space	Key.space	n/a
124.751	0.135	249502	keystroke_p	p	n/a
124.931	0.195	249862	keystroke_i	i	n/a
125.081	0.315	250162	keystroke_n	n	n/a
125.216	0.15	250432	keystroke_e	e	n/a
125.411	0.105	250822	keystroke_Key.space	Key.space	n/a
125.726	0.09	251452	keystroke_a	a	n/a
126.056	0.06	252112	keystroke_d	d	n/a
126.176	0.0905	252352	keystroke_d	d	n/a
126.3865	0.09	252773	keystroke_r	r	n/a
126.5665	0.105	253133	keystroke_e	e	n/a
126.836	0.075	253672	keystroke_s	s	n/a
126.971	0.105	253942	keystroke_s	s	n/a
127.226	0.075	254452	keystroke_e	e	n/a
127.391	0.105	254782	keystroke_d	d	n/a
127.751	0.105	255502	keystroke_Key.enter	Key.enter	n/a
127.862	14.711	255724	prompt	n/a	westminster still banana elevation\n
128.5305	0.091	257061	keystroke_w	w	n/a
128.6955	0.09	257391	keystroke_e	e	n/a
128.921	0.12	257842	keystroke_s	s	n/a
129.176	0.075	258352	keystroke_t	t	n/a
129.236	0.195	258472	keystroke_m	m	n/a
129.401	0.18	258802	keystroke_i	i	n/a
129.536	0.1495	259072	keystroke_n	n	n/a
129.7005	0.105	259401	keystroke_s	s	n/a
130.1655	0.105	260331	keystroke_t	t	n/a
130.3905	0.105	260781	keystroke_e	e	n/a
130.5705	0.105	261141	keystroke_r	r	n/a
130.7205	0.12	261441	keystroke_Key.space	Key.space	n/a
130.886	0.09	261772	keystroke_s	s	n/a
131.111	0.09	262222	keystroke_r	r	n/a
131.321	0.045	262642	keystroke_i	i	n/a
131.561	0.09	263122	keystroke_l	l	n/a
131.726	0.12	263452	keystroke_l	l	n/a
131.847	0.104	263694	keystroke_Key.space	Key.space	n/a
132.8065	0.06	265613	keystroke_Key.backspace	Key.backspace	n/a
132.9865	0.06	265973	keystroke_Key.backspace	Key.backspace	n/a
133.166	0.06	266332	keystroke_Key.backspace	Key.backspace	n/a
133.346	0.075	266692	keystroke_Key.backspace	Key.backspace	n/a
133.736	0.06	267472	keystroke_Key.backspace	Key.backspace	n/a
134.306	0.1205	268612	keystroke_t	t	n/a
134.4415	0.1195	268883	keystroke_i	i	n/a
134.696	0.06	269392	keystroke_l	l	n/a
134.861	0.12	269722	keystroke_l	l	n/a
135.086	0.075	270172	keystroke_Key.space	Key.space	n/a
135.251	0.105	270502	keystroke_b	b	n/a
135.416	0.09	270832	keystroke_a	a	n/a
135.581	0.15	271162	keystroke_n	n	n/a
135.7615	0.165	271523	keystroke_a	a	n/a
135.9715	0.09	271943	keystroke_n	n	n/a
136.1665	0.135	272333	keystroke_a	a	n/a
136.3155	0.121	272631	keystroke_Key.space	Key.space	n/a
139.1545	0.042	278309	keystroke_a	a	n/a
139.5715	0.09	279143	keystroke_Key.backspace	Key.backspace	n/a
139.916	0.1795	279832	keystroke_e	e	n/a
140.0805	0.135	280161	keystroke_l	l	n/a
140.2015	0.27	280403	keystroke_e	e	n/a
140.681	0.105	281362	keystroke_v	v	n/a
141.2665	0.135	282533	keystroke_a	a	n/a
141.6415	0.12	283283	keystroke_t	t	n/a
141.7915	0.165	283583	keystroke_i	i	n/a
141.9265	0.255	283853	keystroke_o	o	n/a
142.1065	0.15	284213	keystroke_n	n	n/a
142.4965	0.0745	284993	keystroke_Key.enter	Key.enter	n/a
142.576	7.632	285152	prompt	n/a	predicted soonest roulette wired\n
143.3365	0.1945	286673	keystroke_p	p	n/a
143.456	0.105	286912	keystroke_r	r	n/a
143.666	0.09	287332	keystroke_e	e	n/a
143.846	0.1055	287692	keystroke_d	d	n/a
143.9665	0.135	287933	keystroke_i	i	n/a
144.0865	0.09	288173	keystroke_c	c	n/a
144.3265	0.075	288653	keystroke_t	t	n/a
144.536	0.09	289072	keystroke_e	e	n/a
144.701	0.135	289402	keystroke_d	d	n/a
144.851	0.105	289702	keystroke_Key.space	Key.space	n/a
145.121	0.12	290242	keystroke_s	s	n/a
145.286	0.045	290572	keystroke_o	o	n/a
145.451	0.105	290902	keystroke_o	o	n/a
145.586	0.1205	291172	keystroke_n	n	n/a
145.6615	0.105	291323	keystroke_e	e	n/a
145.991	0.015	291982	keystroke_s	s	n/a
146.156	0.09	292312	keystroke_t	t	n/a
146.351	0.1205	292702	keystroke_Key.space	Key.space	n/a
146.786	0.106	293572	keystroke_r	r	n/a
146.921	0.1655	293842	keystroke_o	o	n/a
147.0565	0.12	294113	keystroke_u	u	n/a
147.2215	0.105	294443	keystroke_l	l	n/a
147.4165	0.1045	294833	keystroke_e	e	n/a
147.671	0.075	295342	keystroke_t	t	n/a
147.791	0.105	295582	keystroke_t	t	n/a
148.0315	0.135	296063	keystroke_e	e	n/a
148.1805	0.12	296361	keystroke_Key.space	Key.space	n/a
148.871	0.1205	297742	keystroke_w	w	n/a
149.0665	0.12	298133	keystroke_i	i	n/a
149.2015	0.104	298403	keystroke_r	r	n/a
149.4115	0.09	298823	keystroke_e	e	n/a
149.6365	0.105	299273	keystroke_d	d	n/a
150.1015	0.105	300203	keystroke_Key.enter	Key.enter	n/a
150.211	8.457	300422	prompt	n/a	scottish lowest viewers indicator\n
150.9865	0.075	301973	keystroke_s	s	n/a
151.1815	0.105	302363	keystroke_c	c	n/a
151.3915	0.105	302783	keystroke_o	o	n/a
151.5265	0.09	303053	keystroke_t	t	n/a
151.6765	0.0745	303353	keystroke_t	t	n/a
151.796	0.15	303592	keystroke_i	i	n/a
151.961	0.18	303922	keystroke_s	s	n/a
152.126	0.165	304252	keystroke_h	h	n/a
152.261	0.09	304522	keystroke_Key.space	Key.space	n/a
152.441	0.1055	304882	keystroke_l	l	n/a
152.6515	0.135	305303	keystroke_o	o	n/a
152.7565	0.105	305513	keystroke_w	w	n/a
152.9515	0.105	305903	keystroke_e	e	n/a
153.5965	0.135	307193	keystroke_s	s	n/a
153.9115	0.105	307823	keystroke_t	t	n/a
154.0465	0.09	308093	keystroke_Key.space	Key.space	n/a
154.6465	0.105	309293	keystroke_v	v	n/a
154.7665	0.1195	309533	keystroke_i	i	n/a
154.946	0.09	309892	keystroke_e	e	n/a
155.111	0.105	310222	keystroke_w	w	n/a
155.321	0.105	310642	keystroke_e	e	n/a
155.636	0.09	311272	keystroke_r	r	n/a
155.906	0.12	311812	keystroke_s	s	n/a
156.2055	0.09	312411	keystroke_Key.space	Key.space	n/a
156.5505	0.196	313101	keystroke_i	i	n/a
156.7005	0.181	313401	keystroke_n	n	n/a
156.8365	0.15	313673	keystroke_d	d	n/a
157.0615	0.15	314123	keystroke_i	i	n/a
157.271	0.075	314542	keystroke_c	c	n/a
157.496	0.06	314992	keystroke_a	a	n/a
157.781	0.09	315562	keystroke_t	t	n/a
157.916	0.12	315832	keystroke_o	o	n/a
158.051	0.105	316102	keystroke_r	r	n/a
158.561	0.105	317122	keystroke_Key.enter	Key.enter	n/a
158.6725	7.915	317345	prompt	n/a	carlos maintains athens redhead\n
159.4315	0.09	318863	keystroke_c	c	n/a
159.6415	0.12	319283	keystroke_a	a	n/a
159.8815	0.105	319763	keystroke_r	r	n/a
160.0165	0.12	320033	keystroke_l	l	n/a
160.2115	0.15	320423	keystroke_o	o	n/a
160.3465	0.15	320693	keystroke_s	s	n/a
160.5265	0.15	321053	keystroke_Key.space	Key.space	n/a
160.6615	0.18	321323	keystroke_m	m	n/a
160.8265	0.135	321653	keystroke_a	a	n/a
160.9915	0.195	321983	keystroke_i	i	n/a
161.1415	0.15	322283	keystroke_n	n	n/a
161.3965	0.075	322793	keystroke_t	t	n/a
161.7715	0.135	323543	keystroke_a	a	n/a
162.0265	0.18	324053	keystroke_i	i	n/a
162.131	0.1795	324262	keystroke_n	n	n/a
162.3715	0.27	324743	keystroke_s	s	n/a
162.8055	0.12	325611	keystroke_Key.space	Key.space	n/a
162.9855	0.165	325971	keystroke_a	a	n/a
163.286	0.075	326572	keystroke_t	t	n/a
163.406	0.105	326812	keystroke_h	h	n/a
163.526	0.18	327052	keystroke_e	e	n/a
163.721	0.12	327442	keystroke_n	n	n/a
163.886	0.15	327772	keystroke_s	s	n/a
164.051	0.09	328102	keystroke_Key.space	Key.space	n/a
164.8765	0.09	329753	keystroke_r	r	n/a
165.0565	0.09	330113	keystroke_e	e	n/a
165.2515	0.09	330503	keystroke_d	d	n/a
165.3565	0.12	330713	keystroke_h	h	n/a
165.4615	0.0895	330923	keystroke_e	e	n/a
165.671	0.105	331342	keystroke_a	a	n/a
165.8815	0.12	331763	keystroke_d	d	n/a
166.4965	0.09	332993	keystroke_Key.enter	Key.enter	n/a
166.592	7.496	333184	prompt	n/a	celebs sullivan moves ensure\n
167.231	0.12	334462	keystroke_c	c	n/a
167.531	0.1955	335062	keystroke_e	e	n/a
167.7415	0.09	335483	keystroke_l	l	n/a
167.8165	0.12	335633	keystroke_e	e	n/a
168.1315	0.195	336263	keystroke_b	b	n/a
168.3115	0.15	336623	keystroke_s	s	n/a
168.4465	0.105	336893	keystroke_Key.space	Key.space	n/a
169.0615	0.1495	338123	keystroke_s	s	n/a
169.1965	0.0895	338393	keystroke_u	u	n/a
169.4065	0.09	338813	keystroke_l	l	n/a
169.5565	0.195	339113	keystroke_l	l	n/a
169.7215	0.1795	339443	keystroke_i	i	n/a
169.886	0.12	339772	keystroke_v	v	n/a
170.1715	0.15	340343	keystroke_a	a	n/a
170.3365	0.09	340673	keystroke_n	n	n/a
170.5465	0.1195	341093	keystroke_Key.space	Key.space	n/a
170.7715	0.15	341543	keystroke_m	m	n/a
170.8615	0.165	341723	keystroke_o	o	n/a
171.0565	0.1345	342113	keystroke_v	v	n/a
171.326	0.135	342652	keystroke_e	e	n/a
171.806	0.135	343612	keystroke_s	s	n/a
172.016	0.105	344032	keystroke_Key.space	Key.space	n/a
172.646	0.12	345292	keystroke_e	e	n/a
172.781	0.135	345562	keystroke_n	n	n/a
172.946	0.12	345892	keystroke_s	s	n/a
173.126	0.12	346252	keystroke_u	u	n/a
173.261	0.09	346522	keystroke_r	r	n/a
173.4565	0.12	346913	keystroke_e	e	n/a
174.0115	0.075	348023	keystroke_Key.enter	Key.enter	n/a
174.093	12.325	348186	prompt	n/a	apart intend wrapped sustainability\n
174.8965	0.15	349793	keystroke_a	a	n/a
175.0315	0.135	350063	keystroke_p	p	n/a
175.1515	0.1495	350303	keystroke_a	a	n/a
175.4365	0.075	350873	keystroke_r	r	n/a
175.6165	0.12	351233	keystroke_t	t	n/a
175.7505	0.105	351501	keystroke_Key.space	Key.space	n/a
176.1865	0.18	352373	keystroke_i	i	n/a
176.3065	0.165	352613	keystroke_n	n	n/a
176.4415	0.105	352883	keystroke_t	t	n/a
176.681	0.09	353362	keystroke_e	e	n/a
176.831	0.135	353662	keystroke_n	n	n/a
176.982	0.164	353964	keystroke_d	d	n/a
177.161	0.06	354322	keystroke_Key.space	Key.space	n/a
177.4465	0.075	354893	keystroke_r	r	n/a
177.9115	0.09	355823	keystroke_Key.backspace	Key.backspace	n/a
178.0615	0.105	356123	keystroke_w	w	n/a
178.2865	0.105	356573	keystroke_r	r	n/a
178.5265	0.1055	357053	keystroke_a	a	n/a
179.5465	0.09	359093	keystroke_p	p	n/a
179.6815	0.15	359363	keystroke_p	p	n/a
179.7865	0.12	359573	keystroke_e	e	n/a
180.0115	0.195	360023	keystroke_d	d	n/a
180.2215	0.075	360443	keystroke_Key.space	Key.space	n/a
180.671	0.18	361342	keystroke_s	s	n/a
180.912	0.135	361824	keystroke_u	u	n/a
181.061	0.1505	362122	keystroke_s	s	n/a
181.3765	0.12	362753	keystroke_a	a	n/a
181.8715	0.105	363743	keystroke_t	t	n/a
182.0515	0.18	364103	keystroke_i	i	n/a
182.1715	0.15	364343	keystroke_n	n	n/a
182.3365	0.135	364673	keystroke_a	a	n/a
182.8165	0.0745	365633	keystroke_Key.backspace	Key.backspace	n/a
183.0565	0.015	366113	keystroke_Key.backspace	Key.backspace	n/a
183.1615	0.09	366323	keystroke_Key.backspace	Key.backspace	n/a
183.3565	0.1045	366713	keystroke_Key.backspace	Key.backspace	n/a
183.566	0.105	367132	keystroke_Key.backspace	Key.backspace	n/a
183.851	0.09	367702	keystroke_t	t	n/a
184.166	0.15	368332	keystroke_a	a	n/a
184.331	0.1805	368662	keystroke_i	i	n/a
184.4815	0.15	368963	keystroke_n	n	n/a
184.6465	0.15	369293	keystroke_a	a	n/a
184.947	0.195	369894	keystroke_b	b	n/a
185.096	0.195	370192	keystroke_i	i	n/a
185.262	0.225	370524	keystroke_l	l	n/a
185.411	0.165	370822	keystroke_i	i	n/a
185.516	0.166	371032	keystroke_t	t	n/a
185.786	0.106	371572	keystroke_y	y	n/a
186.311	0.105	372622	keystroke_Key.enter	Key.enter	n/a
186.421	7.782	372842	prompt	n/a	themes perfume biggest committee\n
187.271	0.12	374542	keystroke_t	t	n/a
187.346	0.12	374692	keystroke_h	h	n/a
187.481	0.18	374962	keystroke_e	e	n/a
187.6465	0.12	375293	keystroke_m	m	n/a
187.7215	0.1355	375443	keystroke_e	e	n/a
187.9765	0.12	375953	keystroke_s	s	n/a
188.0965	0.12	376193	keystroke_Key.space	Key.space	n/a
188.232	0.18	376464	keystroke_p	p	n/a
188.3965	0.0755	376793	keystroke_e	e	n/a
188.562	0.09	377124	keystroke_r	r	n/a
188.772	0.1645	377544	keystroke_f	f	n/a
188.9515	0.1045	377903	keystroke_u	u	n/a
189.221	0.136	378442	keystroke_m	m	n/a
189.461	0.106	378922	keystroke_e	e	n/a
189.596	0.09	379192	keystroke_Key.space	Key.space	n/a
189.926	0.15	379852	keystroke_b	b	n/a
190.047	0.089	380094	keystroke_i	i	n/a
190.257	0.0745	380514	keystroke_g	g	n/a
190.4065	0.1195	380813	keystroke_g	g	n/a
190.541	0.105	381082	keystroke_e	e	n/a
190.766	0.15	381532	keystroke_s	s	n/a
190.946	0.165	381892	keystroke_t	t	n/a
191.096	0.15	382192	keystroke_Key.space	Key.space	n/a
191.456	0.135	382912	keystroke_c	c	n/a
191.576	0.18	383152	keystroke_o	o	n/a
191.726	0.105	383452	keystroke_m	m	n/a
191.921	0.165	383842	keystroke_m	m	n/a
192.056	0.15	384112	keystroke_i	i	n/a
192.221	0.135	384442	keystroke_t	t	n/a
192.7315	0.075	385463	keystroke_t	t	n/a
192.9265	0.12	385853	keystroke_e	e	n/a
193.1215	0.135	386243	keystroke_e	e	n/a
194.1115	0.0895	388223	keystroke_Key.enter	Key.enter	n/a
194.2065	8.4265	388413	prompt	n/a	naked warning solar taxation\n
194.937	0.135	389874	keystroke_n	n	n/a
195.057	0.1645	390114	keystroke_a	a	n/a
195.237	0.135	390474	keystroke_k	k	n/a
195.3865	0.12	390773	keystroke_e	e	n/a
195.6415	0.135	391283	keystroke_d	d	n/a
195.7615	0.1055	391523	keystroke_Key.space	Key.space	n/a
196.122	0.075	392244	keystroke_w	w	n/a
196.317	0.105	392634	keystroke_a	a	n/a
196.617	0.119	393234	keystroke_r	r	n/a
196.751	0.15	393502	keystroke_n	n	n/a
196.871	0.2405	393742	keystroke_i	i	n/a
197.051	0.3155	394102	keystroke_n	n	n/a
197.2015	0.15	394403	keystroke_g	g	n/a
197.3365	0.18	394673	keystroke_Key.space	Key.space	n/a
197.5765	0.165	395153	keystroke_s	s	n/a
197.7115	0.06	395423	keystroke_o	o	n/a
197.9065	0.105	395813	keystroke_l	l	n/a
198.0265	0.12	396053	keystroke_a	a	n/a
198.2965	0.06	396593	keystroke_e	e	n/a
198.3115	0.03	396623	keystroke_r	r	n/a
198.4015	0.12	396803	keystroke_Key.space	Key.space	n/a
198.881	0.06	397762	keystroke_Key.backspace	Key.backspace	n/a
199.136	0.015	398272	keystroke_Key.backspace	Key.backspace	n/a
199.226	0.075	398452	keystroke_Key.backspace	Key.backspace	n/a
199.497	0.09	398994	keystroke_r	r	n/a
199.601	0.09	399202	keystroke_Key.space	Key.space	n/a
200.2465	0.09	400493	keystroke_t	t	n/a
200.5165	0.09	401033	keystroke_a	a	n/a
200.9365	0.09	401873	keystroke_x	x	n/a
201.176	0.105	402352	keystroke_a	a	n/a
201.626	0.12	403252	keystroke_t	t	n/a
201.761	0.195	403522	keystroke_i	i	n/a
201.911	0.271	403822	keystroke_o	o	n/a
202.106	0.165	404212	keystroke_n	n	n/a
202.526	0.105	405052	keystroke_Key.enter	Key.enter	n/a
202.636	10.722	405272	prompt	n/a	atlantic laboratories rocky spank\n
203.2915	0.1345	406583	keystroke_a	a	n/a
203.576	0.09	407152	keystroke_t	t	n/a
203.816	0.15	407632	keystroke_l	l	n/a
203.951	0.135	407902	keystroke_a	a	n/a
204.146	0.12	408292	keystroke_n	n	n/a
204.401	0.09	408802	keystroke_t	t	n/a
204.611	0.105	409222	keystroke_i	i	n/a
204.731	0.165	409462	keystroke_c	c	n/a
204.881	0.12	409762	keystroke_Key.space	Key.space	n/a
205.496	0.1505	410992	keystroke_l	l	n/a
205.826	0.135	411652	keystroke_a	a	n/a
205.991	0.225	411982	keystroke_b	b	n/a
206.141	0.18	412282	keystroke_o	o	n/a
206.351	0.12	412702	keystroke_r	r	n/a
206.9365	0.105	413873	keystroke_a	a	n/a
207.2515	0.09	414503	keystroke_t	t	n/a
207.3865	0.15	414773	keystroke_o	o	n/a
207.9415	0.075	415883	keystroke_e	e	n/a
208.4365	0.0745	416873	keystroke_Key.backspace	Key.backspace	n/a
208.601	0.135	417202	keystroke_r	r	n/a
208.7515	0.1345	417503	keystroke_i	i	n/a
208.916	0.12	417832	keystroke_e	e	n/a
209.156	0.1505	418312	keystroke_s	s	n/a
209.276	0.136	418552	keystroke_Key.space	Key.space	n/a
211.4065	0.1055	422813	keystroke_r	r	n/a
211.497	0.135	422994	keystroke_o	o	n/a
211.662	0.12	423324	keystroke_c	c	n/a
211.797	0.135	423594	keystroke_k	k	n/a
211.977	0.1345	423954	keystroke_y	y	n/a
212.1415	0.09	424283	keystroke_Key.space	Key.space	n/a
212.3665	0.105	424733	keystroke_s	s	n/a
212.4865	0.15	424973	keystroke_p	p	n/a
212.6215	0.15	425243	keystroke_a	a	n/a
212.7565	0.195	425513	keystroke_n	n	n/a
212.9065	0.135	425813	keystroke_k	k	n/a
213.2815	0.075	426563	keystroke_Key.enter	Key.enter	n/a
213.3635	8.0795	426727	prompt	n/a	todd rides separation grammar\n
214.1665	0.0745	428333	keystroke_t	t	n/a
214.271	0.15	428542	keystroke_o	o	n/a
214.5565	0.105	429113	keystroke_d	d	n/a
214.7215	0.165	429443	keystroke_d	d	n/a
214.9165	0.12	429833	keystroke_Key.space	Key.space	n/a
215.4715	0.105	430943	keystroke_r	r	n/a
215.6215	0.105	431243	keystroke_i	i	n/a
215.7115	0.105	431423	keystroke_d	d	n/a
215.9365	0.105	431873	keystroke_e	e	n/a
216.2215	0.12	432443	keystroke_s	s	n/a
216.4165	0.105	432833	keystroke_Key.space	Key.space	n/a
216.8815	0.195	433763	keystroke_s	s	n/a
217.1065	0.135	434213	keystroke_e	e	n/a
217.3315	0.075	434663	keystroke_r	r	n/a
217.706	0.09	435412	keystroke_Key.backspace	Key.backspace	n/a
217.976	0.105	435952	keystroke_p	p	n/a
218.082	0.134	436164	keystroke_a	a	n/a
218.321	0.105	436642	keystroke_r	r	n/a
218.546	0.06	437092	keystroke_a	a	n/a
218.846	0.1055	437692	keystroke_t	t	n/a
218.9815	0.18	437963	keystroke_i	i	n/a
219.1465	0.2095	438293	keystroke_o	o	n/a
219.326	0.165	438652	keystroke_n	n	n/a
219.461	0.12	438922	keystroke_Key.space	Key.space	n/a
219.866	0.1205	439732	keystroke_g	g	n/a
220.0165	0.12	440033	keystroke_r	r	n/a
220.256	0.135	440512	keystroke_a	a	n/a
220.406	0.09	440812	keystroke_m	m	n/a
220.571	0.12	441142	keystroke_m	m	n/a
220.706	0.165	441412	keystroke_a	a	n/a
220.931	0.135	441862	keystroke_r	r	n/a
221.336	0.105	442672	keystroke_Key.enter	Key.enter	n/a
221.446	8.652	442892	prompt	n/a	throat bound lithuania contracting\n
222.1315	0.105	444263	keystroke_t	t	n/a
222.251	0.12	444502	keystroke_h	h	n/a
222.386	0.105	444772	keystroke_r	r	n/a
222.521	0.105	445042	keystroke_o	o	n/a
222.6565	0.1195	445313	keystroke_a	a	n/a
222.9415	0.1045	445883	keystroke_t	t	n/a
223.076	0.105	446152	keystroke_Key.space	Key.space	n/a
223.4815	0.12	446963	keystroke_b	b	n/a
223.661	0.18	447322	keystroke_o	o	n/a
223.766	0.165	447532	keystroke_u	u	n/a
223.946	0.211	447892	keystroke_n	n	n/a
224.126	0.1355	448252	keystroke_d	d	n/a
224.2465	0.135	448493	keystroke_Key.space	Key.space	n/a
224.4265	0.1195	448853	keystroke_l	l	n/a
224.666	0.135	449332	keystroke_i	i	n/a
224.936	0.105	449872	keystroke_t	t	n/a
225.071	0.18	450142	keystroke_h	h	n/a
225.236	0.15	450472	keystroke_u	u	n/a
225.401	0.15	450802	keystroke_a	a	n/a
225.641	0.165	451282	keystroke_n	n	n/a
225.8665	0.1645	451733	keystroke_i	i	n/a
226.046	0.135	452092	keystroke_a	a	n/a
226.361	0.1205	452722	keystroke_Key.space	Key.space	n/a
227.3965	0.165	454793	keystroke_c	c	n/a
227.6215	0.165	455243	keystroke_o	o	n/a
227.7565	0.165	455513	keystroke_n	n	n/a
227.9665	0.12	455933	keystroke_t	t	n/a
228.2065	0.075	456413	keystroke_r	r	n/a
228.4765	0.09	456953	keystroke_a	a	n/a
228.7315	0.105	457463	keystroke_c	c	n/a
229.0015	0.105	458003	keystroke_t	t	n/a
229.1365	0.21	458273	keystroke_i	i	n/a
229.286	0.15	458572	keystroke_n	n	n/a
229.451	0.135	458902	keystroke_g	g	n/a
230.006	0.09	460012	keystroke_Key.enter	Key.enter	n/a
230.101	9.7315	460202	prompt	n/a	defining policies extremely wings\n
230.9515	0.1045	461903	keystroke_d	d	n/a
231.101	0.136	462202	keystroke_e	e	n/a
231.312	0.1195	462624	keystroke_f	f	n/a
231.4915	0.165	462983	keystroke_i	i	n/a
231.6265	0.1795	463253	keystroke_n	n	n/a
231.761	0.195	463522	keystroke_i	i	n/a
231.896	0.166	463792	keystroke_n	n	n/a
232.076	0.15	464152	keystroke_f	f	n/a
232.166	0.165	464332	keystroke_Key.space	Key.space	n/a
232.496	0.165	464992	keystroke_p	p	n/a
232.631	0.135	465262	keystroke_o	o	n/a
232.811	0.12	465622	keystroke_l	l	n/a
233.066	0.135	466132	keystroke_i	i	n/a
233.171	0.12	466342	keystroke_c	c	n/a
233.351	0.12	466702	keystroke_i	i	n/a
233.456	0.135	466912	keystroke_e	e	n/a
233.696	0.15	467392	keystroke_s	s	n/a
233.831	0.105	467662	keystroke_Key.space	Key.space	n/a
234.461	0.105	468922	keystroke_e	e	n/a
234.7165	0.12	469433	keystroke_x	x	n/a
235.017	0.0745	470034	keystroke_r	r	n/a
235.032	0.045	470064	keystroke_t	t	n/a
235.182	0.0895	470364	keystroke_r	r	n/a
235.947	0.089	471894	keystroke_Key.backspace	Key.backspace	n/a
236.142	0.074	472284	keystroke_Key.backspace	Key.backspace	n/a
236.367	0.089	472734	keystroke_Key.backspace	Key.backspace	n/a
236.652	0.12	473304	keystroke_t	t	n/a
236.862	0.089	473724	keystroke_r	r	n/a
237.072	0.104	474144	keystroke_e	e	n/a
237.206	0.12	474412	keystroke_m	m	n/a
237.342	0.1345	474684	keystroke_e	e	n/a
237.6415	0.135	475283	keystroke_l	l	n/a
237.8065	0.105	475613	keystroke_y	y	n/a
237.9565	0.105	475913	keystroke_Key.space	Key.space	n/a
238.556	0.105	477112	keystroke_w	w	n/a
238.751	0.2105	477502	keystroke_i	i	n/a
238.886	0.1805	477772	keystroke_n	n	n/a
238.9915	0.12	477983	keystroke_g	g	n/a
239.3365	0.12	478673	keystroke_s	s	n/a
239.7265	0.1045	479453	keystroke_Key.enter	Key.enter	n/a
239.8365	5.5765	479673	prompt	n/a	dome planes longer asks\n
240.642	0.105	481284	keystroke_d	d	n/a
240.852	0.2395	481704	keystroke_o	o	n/a
241.0165	0.255	482033	keystroke_m	m	n/a
241.1515	0.135	482303	keystroke_e	e	n/a
241.3015	0.1945	482603	keystroke_Key.space	Key.space	n/a
241.482	0.24	482964	keystroke_p	p	n/a
241.632	0.195	483264	keystroke_l	l	n/a
241.737	0.15	483474	keystroke_a	a	n/a
241.931	0.136	483862	keystroke_n	n	n/a
242.126	0.106	484252	keystroke_e	e	n/a
242.367	0.195	484734	keystroke_s	s	n/a
242.516	0.136	485032	keystroke_Key.space	Key.space	n/a
242.8465	0.105	485693	keystroke_l	l	n/a
243.0565	0.165	486113	keystroke_o	o	n/a
243.2065	0.18	486413	keystroke_n	n	n/a
243.3415	0.12	486683	keystroke_g	g	n/a
243.5365	0.135	487073	keystroke_e	e	n/a
243.7465	0.12	487493	keystroke_r	r	n/a
243.9115	0.105	487823	keystroke_Key.space	Key.space	n/a
244.0615	0.105	488123	keystroke_a	a	n/a
244.2415	0.1055	488483	keystroke_s	s	n/a
244.5715	0.165	489143	keystroke_k	k	n/a
244.917	0.105	489834	keystroke_s	s	n/a
245.3215	0.09	490643	keystroke_Key.enter	Key.enter	n/a
245.4165	6.7015	490833	prompt	n/a	sort remainder principle fare\n
246.0115	0.135	492023	keystroke_s	s	n/a
246.1915	0.135	492383	keystroke_o	o	n/a
246.3565	0.15	492713	keystroke_r	r	n/a
246.5665	0.135	493133	keystroke_t	t	n/a
246.7165	0.12	493433	keystroke_Key.space	Key.space	n/a
247.2265	0.09	494453	keystroke_r	r	n/a
247.3915	0.12	494783	keystroke_e	e	n/a
247.5415	0.135	495083	keystroke_m	m	n/a
247.7215	0.105	495443	keystroke_a	a	n/a
247.9015	0.15	495803	keystroke_i	i	n/a
248.0215	0.135	496043	keystroke_n	n	n/a
248.1415	0.075	496283	keystroke_d	d	n/a
248.3665	0.075	496733	keystroke_e	e	n/a
248.516	0.12	497032	keystroke_r	r	n/a
248.651	0.105	497302	keystroke_Key.space	Key.space	n/a
248.876	0.135	497752	keystroke_p	p	n/a
249.026	0.1355	498052	keystroke_r	r	n/a
249.162	0.2095	498324	keystroke_i	i	n/a
249.3265	0.165	498653	keystroke_n	n	n/a
249.507	0.135	499014	keystroke_c	c	n/a
249.672	0.15	499344	keystroke_i	i	n/a
249.942	0.1345	499884	keystroke_p	p	n/a
250.1065	0.1505	500213	keystroke_l	l	n/a
250.227	0.1795	500454	keystroke_e	e	n/a
250.4215	0.12	500843	keystroke_Key.space	Key.space	n/a
250.962	0.1045	501924	keystroke_f	f	n/a
251.1565	0.12	502313	keystroke_a	a	n/a
251.3965	0.075	502793	keystroke_r	r	n/a
251.5915	0.1195	503183	keystroke_e	e	n/a
252.011	0.105	504022	keystroke_Key.enter	Key.enter	n/a
252.121	9.372	504242	prompt	n/a	buildings finally interesting reproduce\n
252.8815	0.2395	505763	keystroke_b	b	n/a
253.001	0.21	506002	keystroke_u	u	n/a
253.136	0.12	506272	keystroke_i	i	n/a
253.391	0.105	506782	keystroke_l	l	n/a
253.526	0.135	507052	keystroke_d	d	n/a
253.691	0.195	507382	keystroke_i	i	n/a
253.826	0.165	507652	keystroke_n	n	n/a
253.931	0.105	507862	keystroke_g	g	n/a
254.186	0.165	508372	keystroke_s	s	n/a
254.336	0.09	508672	keystroke_Key.space	Key.space	n/a
254.907	0.104	509814	keystroke_f	f	n/a
255.026	0.21	510052	keystroke_i	i	n/a
255.176	0.15	510352	keystroke_n	n	n/a
255.281	0.135	510562	keystroke_a	a	n/a
255.491	0.075	510982	keystroke_l	l	n/a
255.656	0.121	511312	keystroke_l	l	n/a
255.852	0.134	511704	keystroke_y	y	n/a
256.016	0.105	512032	keystroke_Key.space	Key.space	n/a
256.4365	0.165	512873	keystroke_i	i	n/a
256.5715	0.15	513143	keystroke_n	n	n/a
256.7065	0.09	513413	keystroke_t	t	n/a
256.9315	0.105	513863	keystroke_e	e	n/a
257.171	0.09	514342	keystroke_r	r	n/a
257.306	0.09	514612	keystroke_e	e	n/a
257.546	0.105	515092	keystroke_s	s	n/a
257.816	0.075	515632	keystroke_t	t	n/a
257.936	0.21	515872	keystroke_i	i	n/a
258.086	0.15	516172	keystroke_n	n	n/a
258.897	0.075	517794	keystroke_g	g	n/a
259.047	0.15	518094	keystroke_Key.space	Key.space	n/a
259.332	0.0745	518664	keystroke_r	r	n/a
259.4965	0.105	518993	keystroke_e	e	n/a
259.6465	0.135	519293	keystroke_p	p	n/a
259.872	0.09	519744	keystroke_r	r	n/a
260.081	0.12	520162	keystroke_o	o	n/a
260.396	0.09	520792	keystroke_d	d	n/a
260.501	0.105	521002	keystroke_u	u	n/a
260.726	0.09	521452	keystroke_c	c	n/a
260.966	0.09	521932	keystroke_e	e	n/a
261.402	0.09	522804	keystroke_Key.enter	Key.enter	n/a
261.498	9.4605	522996	prompt	n/a	shakira venture excuse scholars\n
262.167	0.105	524334	keystroke_s	s	n/a
262.287	0.12	524574	keystroke_h	h	n/a
262.437	0.135	524874	keystroke_a	a	n/a
262.587	0.105	525174	keystroke_k	k	n/a
262.827	0.12	525654	keystroke_i	i	n/a
262.962	0.075	525924	keystroke_r	r	n/a
263.187	0.105	526374	keystroke_a	a	n/a
263.307	0.135	526614	keystroke_Key.space	Key.space	n/a
263.9215	0.09	527843	keystroke_v	v	n/a
264.0565	0.12	528113	keystroke_e	e	n/a
264.1915	0.12	528383	keystroke_n	n	n/a
264.3865	0.1045	528773	keystroke_t	t	n/a
264.566	0.09	529132	keystroke_u	u	n/a
264.657	0.09	529314	keystroke_r	r	n/a
264.851	0.1355	529702	keystroke_e	e	n/a
265.0015	0.12	530003	keystroke_Key.space	Key.space	n/a
265.527	0.09	531054	keystroke_e	e	n/a
265.797	0.09	531594	keystroke_x	x	n/a
265.992	0.09	531984	keystroke_c	c	n/a
266.1415	0.135	532283	keystroke_u	u	n/a
266.3215	0.105	532643	keystroke_e	e	n/a
266.6815	0.12	533363	keystroke_s	s	n/a
267.0415	0.075	534083	keystroke_e	e	n/a
267.4465	0.0755	534893	keystroke_Key.backspace	Key.backspace	n/a
267.627	0.09	535254	keystroke_Key.backspace	Key.backspace	n/a
267.822	0.09	535644	keystroke_Key.backspace	Key.backspace	n/a
267.942	0.1195	535884	keystroke_s	s	n/a
268.1665	0.12	536333	keystroke_e	e	n/a
268.3315	0.12	536663	keystroke_Key.space	Key.space	n/a
269.097	0.075	538194	keystroke_s	s	n/a
269.307	0.105	538614	keystroke_c	c	n/a
269.4565	0.18	538913	keystroke_h	h	n/a
269.5765	0.135	539153	keystroke_o	o	n/a
269.7865	0.15	539573	keystroke_l	l	n/a
269.9365	0.105	539873	keystroke_a	a	n/a
270.1765	0.105	540353	keystroke_r	r	n/a
270.4015	0.135	540803	keystroke_s	s	n/a
270.8515	0.105	541703	keystroke_Key.enter	Key.enter	n/a
270.962	7.947	541924	prompt	n/a	jackie seek critical compute\n
271.992	0.135	543984	keystroke_j	j	n/a
272.142	0.09	544284	keystroke_a	a	n/a
272.382	0.1045	544764	keystroke_c	c	n/a
272.5165	0.105	545033	keystroke_k	k	n/a
272.7415	0.12	545483	keystroke_i	i	n/a
272.8465	0.135	545693	keystroke_e	e	n/a
273.0115	0.09	546023	keystroke_Key.space	Key.space	n/a
273.1765	0.105	546353	keystroke_s	s	n/a
273.4015	0.0595	546803	keystroke_e	e	n/a
273.521	0.165	547042	keystroke_e	e	n/a
273.641	0.225	547282	keystroke_k	k	n/a
273.806	0.12	547612	keystroke_Key.space	Key.space	n/a
274.196	0.09	548392	keystroke_k	k	n/a
274.5715	0.09	549143	keystroke_Key.backspace	Key.backspace	n/a
274.6765	0.1055	549353	keystroke_c	c	n/a
274.947	0.105	549894	keystroke_r	r	n/a
275.082	0.105	550164	keystroke_i	i	n/a
275.247	0.105	550494	keystroke_t	t	n/a
275.367	0.105	550734	keystroke_i	i	n/a
275.652	0.09	551304	keystroke_c	c	n/a
275.907	0.1195	551814	keystroke_a	a	n/a
276.042	0.2095	552084	keystroke_l	l	n/a
276.2065	0.12	552413	keystroke_Key.space	Key.space	n/a
276.5665	0.12	553133	keystroke_s	s	n/a
276.7315	0.1045	553463	keystroke_o	o	n/a
277.136	0.06	554272	keystroke_Key.backspace	Key.backspace	n/a
277.301	0.09	554602	keystroke_Key.backspace	Key.backspace	n/a
277.5265	0.1205	555053	keystroke_c	c	n/a
277.6315	0.1495	555263	keystroke_o	o	n/a
277.796	0.15	555592	keystroke_m	m	n/a
277.901	0.105	555802	keystroke_p	p	n/a
278.141	0.09	556282	keystroke_u	u	n/a
278.216	0.105	556432	keystroke_t	t	n/a
278.441	0.12	556882	keystroke_e	e	n/a
278.831	0.0755	557662	keystroke_Key.enter	Key.enter	n/a
278.9115	8.157	557823	prompt	n/a	chuck orleans eligible royalty\n
279.6565	0.135	559313	keystroke_c	c	n/a
279.8065	0.165	559613	keystroke_h	h	n/a
279.9115	0.12	559823	keystroke_u	u	n/a
280.0765	0.225	560153	keystroke_c	c	n/a
280.2715	0.225	560543	keystroke_k	k	n/a
280.4365	0.12	560873	keystroke_Key.space	Key.space	n/a
280.6615	0.12	561323	keystroke_o	o	n/a
280.7665	0.135	561533	keystroke_r	r	n/a
280.9465	0.135	561893	keystroke_l	l	n/a
281.0665	0.105	562133	keystroke_e	e	n/a
281.3215	0.105	562643	keystroke_a	a	n/a
281.4415	0.135	562883	keystroke_n	n	n/a
281.606	0.135	563212	keystroke_s	s	n/a
281.756	0.12	563512	keystroke_Key.space	Key.space	n/a
282.221	0.135	564442	keystroke_e	e	n/a
282.3715	0.21	564743	keystroke_l	l	n/a
282.551	0.165	565102	keystroke_i	i	n/a
282.7015	0.1345	565403	keystroke_g	g	n/a
282.851	0.196	565702	keystroke_i	i	n/a
283.032	0.24	566064	keystroke_b	b	n/a
283.227	0.1795	566454	keystroke_l	l	n/a
283.3465	0.15	566693	keystroke_e	e	n/a
283.647	0.1045	567294	keystroke_Key.space	Key.space	n/a
285.402	0.1045	570804	keystroke_r	r	n/a
285.522	0.1505	571044	keystroke_o	o	n/a
285.897	0.09	571794	keystroke_y	y	n/a
286.017	0.1345	572034	keystroke_a	a	n/a
286.1515	0.12	572303	keystroke_l	l	n/a
286.3465	0.1355	572693	keystroke_t	t	n/a
286.557	0.1495	573114	keystroke_y	y	n/a
286.9915	0.0755	573983	keystroke_Key.enter	Key.enter	n/a
287.072	10.2715	574144	prompt	n/a	unified marilyn lack intended\n
287.862	0.195	575724	keystroke_u	u	n/a
288.042	0.24	576084	keystroke_n	n	n/a
288.222	0.15	576444	keystroke_i	i	n/a
288.372	0.12	576744	keystroke_f	f	n/a
288.492	0.135	576984	keystroke_i	i	n/a
288.642	0.09	577284	keystroke_e	e	n/a
288.837	0.12	577674	keystroke_d	d	n/a
288.942	0.09	577884	keystroke_Key.space	Key.space	n/a
289.212	0.105	578424	keystroke_m	m	n/a
289.347	0.1345	578694	keystroke_a	a	n/a
289.946	0.135	579892	keystroke_r	r	n/a
290.126	0.165	580252	keystroke_i	i	n/a
290.277	0.165	580554	keystroke_l	l	n/a
290.562	0.09	581124	keystroke_y	y	n/a
290.757	0.195	581514	keystroke_n	n	n/a
290.922	0.12	581844	keystroke_Key.space	Key.space	n/a
291.8365	0.075	583673	keystroke_Key.backspace	Key.backspace	n/a
292.0465	0.06	584093	keystroke_Key.backspace	Key.backspace	n/a
292.2265	0.09	584453	keystroke_Key.backspace	Key.backspace	n/a
293.742	0.1345	587484	keystroke_y	y	n/a
293.8765	0.18	587753	keystroke_n	n	n/a
294.0115	0.135	588023	keystroke_Key.space	Key.space	n/a
294.927	0.165	589854	keystroke_l	l	n/a
295.062	0.135	590124	keystroke_a	a	n/a
295.3465	0.1355	590693	keystroke_c	c	n/a
295.452	0.24	590904	keystroke_k	k	n/a
295.632	0.135	591264	keystroke_Key.space	Key.space	n/a
295.902	0.1495	591804	keystroke_i	i	n/a
296.007	0.1645	592014	keystroke_n	n	n/a
296.1565	0.12	592313	keystroke_t	t	n/a
296.3815	0.12	592763	keystroke_e	e	n/a
296.5165	0.105	593033	keystroke_n	n	n/a
296.6365	0.09	593273	keystroke_d	d	n/a
296.8315	0.075	593663	keystroke_e	e	n/a
297.0115	0.135	594023	keystroke_d	d	n/a
297.2365	0.105	594473	keystroke_Key.enter	Key.enter	n/a
297.3465	5.6815	594693	prompt	n/a	meeting fail cream hacker\n
298.016	0.12	596032	keystroke_m	m	n/a
298.167	0.074	596334	keystroke_e	e	n/a
298.316	0.135	596632	keystroke_e	e	n/a
298.571	0.135	597142	keystroke_t	t	n/a
298.691	0.27	597382	keystroke_i	i	n/a
298.841	0.24	597682	keystroke_n	n	n/a
298.991	0.136	597982	keystroke_g	g	n/a
299.127	0.164	598254	keystroke_Key.space	Key.space	n/a
299.3215	0.09	598643	keystroke_f	f	n/a
299.577	0.18	599154	keystroke_a	a	n/a
299.742	0.225	599484	keystroke_i	i	n/a
299.922	0.225	599844	keystroke_l	l	n/a
300.117	0.12	600234	keystroke_Key.space	Key.space	n/a
300.432	0.0895	600864	keystroke_c	c	n/a
300.6715	0.09	601343	keystroke_r	r	n/a
300.8665	0.09	601733	keystroke_e	e	n/a
301.182	0.12	602364	keystroke_a	a	n/a
301.392	0.195	602784	keystroke_m	m	n/a
301.542	0.1195	603084	keystroke_Key.space	Key.space	n/a
301.8115	0.135	603623	keystroke_h	h	n/a
301.9015	0.15	603803	keystroke_a	a	n/a
302.0965	0.105	604193	keystroke_c	c	n/a
302.2615	0.12	604523	keystroke_k	k	n/a
302.3665	0.1355	604733	keystroke_e	e	n/a
302.592	0.105	605184	keystroke_r	r	n/a
302.937	0.09	605874	keystroke_Key.enter	Key.enter	n/a
303.031	8.0675	606062	prompt	n/a	activists java homeless chronic\n
303.7465	0.105	607493	keystroke_a	a	n/a
304.1215	0.09	608243	keystroke_c	c	n/a
304.3465	0.075	608693	keystroke_t	t	n/a
304.512	0.15	609024	keystroke_i	i	n/a
304.617	0.12	609234	keystroke_v	v	n/a
304.796	0.135	609592	keystroke_i	i	n/a
304.976	0.105	609952	keystroke_s	s	n/a
305.216	0.105	610432	keystroke_t	t	n/a
305.471	0.15	610942	keystroke_s	s	n/a
305.606	0.12	611212	keystroke_Key.space	Key.space	n/a
306.4025	0.1195	612805	keystroke_j	j	n/a
306.552	0.195	613104	keystroke_a	a	n/a
306.777	0.135	613554	keystroke_b	b	n/a
307.212	0.075	614424	keystroke_Key.backspace	Key.backspace	n/a
307.482	0.105	614964	keystroke_v	v	n/a
307.617	0.165	615234	keystroke_a	a	n/a
307.767	0.12	615534	keystroke_Key.space	Key.space	n/a
308.187	0.12	616374	keystroke_h	h	n/a
308.277	0.21	616554	keystroke_o	o	n/a
308.442	0.195	616884	keystroke_m	m	n/a
308.577	0.165	617154	keystroke_e	e	n/a
308.727	0.135	617454	keystroke_l	l	n/a
308.877	0.09	617754	keystroke_e	e	n/a
309.087	0.105	618174	keystroke_s	s	n/a
309.267	0.165	618534	keystroke_s	s	n/a
309.417	0.105	618834	keystroke_Key.space	Key.space	n/a
309.717	0.09	619434	keystroke_c	c	n/a
309.867	0.12	619734	keystroke_h	h	n/a
309.957	0.12	619914	keystroke_r	r	n/a
310.092	0.1495	620184	keystroke_o	o	n/a
310.2425	0.254	620485	keystroke_n	n	n/a
310.3915	0.18	620783	keystroke_i	i	n/a
310.5565	0.135	621113	keystroke_c	c	n/a
311.0065	0.09	622013	keystroke_Key.enter	Key.enter	n/a
311.1015	7.362	622203	prompt	n/a	hamilton vector affair wallet\n
311.817	0.12	623634	keystroke_h	h	n/a
311.952	0.18	623904	keystroke_a	a	n/a
312.117	0.21	624234	keystroke_m	m	n/a
312.252	0.195	624504	keystroke_i	i	n/a
312.417	0.15	624834	keystroke_l	l	n/a
312.612	0.165	625224	keystroke_t	t	n/a
312.777	0.2095	625554	keystroke_o	o	n/a
312.912	0.2095	625824	keystroke_n	n	n/a
313.0615	0.12	626123	keystroke_Key.space	Key.space	n/a
313.8115	0.21	627623	keystroke_v	v	n/a
313.9915	0.09	627983	keystroke_e	e	n/a
314.2315	0.09	628463	keystroke_c	c	n/a
314.472	0.09	628944	keystroke_t	t	n/a
314.547	0.15	629094	keystroke_o	o	n/a
314.712	0.12	629424	keystroke_r	r	n/a
314.892	0.0895	629784	keystroke_Key.space	Key.space	n/a
315.1315	0.09	630263	keystroke_a	a	n/a
315.4025	0.0595	630805	keystroke_f	f	n/a
315.507	0.105	631014	keystroke_f	f	n/a
315.747	0.105	631494	keystroke_a	a	n/a
315.927	0.12	631854	keystroke_i	i	n/a
316.122	0.105	632244	keystroke_r	r	n/a
316.242	0.105	632484	keystroke_Key.space	Key.space	n/a
316.572	0.09	633144	keystroke_w	w	n/a
316.782	0.105	633564	keystroke_a	a	n/a
316.902	0.075	633804	keystroke_l	l	n/a
317.082	0.12	634164	keystroke_l	l	n/a
317.187	0.105	634374	keystroke_e	e	n/a
317.5765	0.09	635153	keystroke_t	t	n/a
318.3415	0.12	636683	keystroke_Key.enter	Key.enter	n/a
318.4665	11.337	636933	prompt	n/a	eval responsibilities authorized telecharger\n
319.392	0.105	638784	keystroke_e	e	n/a
319.557	0.12	639114	keystroke_v	v	n/a
319.692	0.165	639384	keystroke_a	a	n/a
319.887	0.225	639774	keystroke_l	l	n/a
320.037	0.105	640074	keystroke_Key.space	Key.space	n/a
320.607	0.09	641214	keystroke_r	r	n/a
320.787	0.09	641574	keystroke_e	e	n/a
321.147	0.15	642294	keystroke_s	s	n/a
321.432	0.18	642864	keystroke_p	p	n/a
321.552	0.21	643104	keystroke_o	o	n/a
321.687	0.12	643374	keystroke_n	n	n/a
321.852	0.15	643704	keystroke_s	s	n/a
321.957	0.18	643914	keystroke_i	i	n/a
322.107	0.21	644214	keystroke_b	b	n/a
322.272	0.135	644544	keystroke_i	i	n/a
322.377	0.2095	644754	keystroke_l	l	n/a
322.5115	0.165	645023	keystroke_i	i	n/a
322.5875	0.119	645175	keystroke_t	t	n/a
322.7965	0.12	645593	keystroke_i	i	n/a
322.9315	0.09	645863	keystroke_e	e	n/a
323.1115	0.135	646223	keystroke_s	s	n/a
323.2315	0.09	646463	keystroke_Key.space	Key.space	n/a
324.087	0.09	648174	keystroke_a	a	n/a
324.417	0.1345	648834	keystroke_u	u	n/a
324.5525	0.164	649105	keystroke_t	t	n/a
324.6865	0.18	649373	keystroke_h	h	n/a
324.8215	0.1205	649643	keystroke_o	o	n/a
324.987	0.105	649974	keystroke_r	r	n/a
325.137	0.135	650274	keystroke_i	i	n/a
325.782	0.09	651564	keystroke_z	z	n/a
326.322	0.09	652644	keystroke_e	e	n/a
326.517	0.105	653034	keystroke_d	d	n/a
326.652	0.105	653304	keystroke_Key.space	Key.space	n/a
327.132	0.105	654264	keystroke_t	t	n/a
327.372	0.12	654744	keystroke_e	e	n/a
327.507	0.135	655014	keystroke_l	l	n/a
327.597	0.12	655194	keystroke_e	e	n/a
327.912	0.12	655824	keystroke_c	c	n/a
328.0025	0.1195	656005	keystroke_h	h	n/a
328.227	0.105	656454	keystroke_a	a	n/a
328.5265	0.076	657053	keystroke_r	r	n/a
329.1265	0.1205	658253	keystroke_g	g	n/a
329.202	0.09	658404	keystroke_e	e	n/a
329.382	0.12	658764	keystroke_r	r	n/a
329.682	0.12	659364	keystroke_Key.enter	Key.enter	n/a
329.8065	8.907	659613	prompt	n/a	dedicated fridge complete bedrooms\n
330.552	0.075	661104	keystroke_d	d	n/a
330.7015	0.075	661403	keystroke_e	e	n/a
330.9115	0.03	661823	keystroke_d	d	n/a
331.0915	0.12	662183	keystroke_i	i	n/a
331.2865	0.075	662573	keystroke_c	c	n/a
331.5125	0.104	663025	keystroke_a	a	n/a
331.7665	0.09	663533	keystroke_t	t	n/a
331.8875	0.089	663775	keystroke_i	i	n/a
332.3215	0.06	664643	keystroke_Key.backspace	Key.backspace	n/a
332.3965	0.0755	664793	keystroke_e	e	n/a
332.577	0.12	665154	keystroke_d	d	n/a
332.712	0.075	665424	keystroke_Key.space	Key.space	n/a
333.282	0.06	666564	keystroke_f	f	n/a
333.5365	0.015	667073	keystroke_r	r	n/a
333.5665	0.09	667133	keystroke_i	i	n/a
333.7615	0.09	667523	keystroke_d	d	n/a
333.8965	0.105	667793	keystroke_g	g	n/a
334.0165	0.105	668033	keystroke_e	e	n/a
334.1515	0.09	668303	keystroke_Key.space	Key.space	n/a
334.767	0.09	669534	keystroke_c	c	n/a
334.872	0.135	669744	keystroke_o	o	n/a
334.992	0.27	669984	keystroke_m	m	n/a
335.157	0.12	670314	keystroke_p	p	n/a
335.262	0.195	670524	keystroke_l	l	n/a
335.382	0.12	670764	keystroke_e	e	n/a
335.637	0.105	671274	keystroke_t	t	n/a
335.847	0.135	671694	keystroke_e	e	n/a
335.997	0.1345	671994	keystroke_Key.space	Key.space	n/a
336.2665	0.12	672533	keystroke_b	b	n/a
336.3715	0.136	672743	keystroke_w	w	n/a
336.942	0.12	673884	keystroke_Key.backspace	Key.backspace	n/a
337.047	0.105	674094	keystroke_e	e	n/a
337.272	0.09	674544	keystroke_d	d	n/a
337.542	0.09	675084	keystroke_r	r	n/a
337.812	0.06	675624	keystroke_o	o	n/a
337.947	0.15	675894	keystroke_o	o	n/a
338.067	0.15	676134	keystroke_m	m	n/a
338.247	0.15	676494	keystroke_s	s	n/a
338.622	0.09	677244	keystroke_Key.enter	Key.enter	n/a
338.7175	11.231	677435	prompt	n/a	cottage chef phillips cleaner\n
339.447	0.09	678894	keystroke_c	c	n/a
339.567	0.12	679134	keystroke_o	o	n/a
339.732	0.09	679464	keystroke_t	t	n/a
339.837	0.105	679674	keystroke_t	t	n/a
340.482	0.105	680964	keystroke_a	a	n/a
340.617	0.105	681234	keystroke_g	g	n/a
340.782	0.135	681564	keystroke_e	e	n/a
340.887	0.075	681774	keystroke_Key.space	Key.space	n/a
341.352	0.09	682704	keystroke_c	c	n/a
341.472	0.1195	682944	keystroke_h	h	n/a
341.6065	0.075	683213	keystroke_e	e	n/a
341.8165	0.165	683633	keystroke_f	f	n/a
341.9365	0.12	683873	keystroke_Key.space	Key.space	n/a
342.3415	0.15	684683	keystroke_p	p	n/a
342.4765	0.255	684953	keystroke_h	h	n/a
342.6115	0.18	685223	keystroke_i	i	n/a
342.7465	0.2105	685493	keystroke_l	l	n/a
342.9265	0.1805	685853	keystroke_i	i	n/a
343.092	0.18	686184	keystroke_p	p	n/a
343.242	0.225	686484	keystroke_s	s	n/a
343.392	0.1195	686784	keystroke_Key.space	Key.space	n/a
344.2765	0.0905	688553	keystroke_c	c	n/a
344.397	0.1345	688794	keystroke_l	l	n/a
344.5765	0.09	689153	keystroke_e	e	n/a
344.8465	0.135	689693	keystroke_a	a	n/a
345.3415	0.12	690683	keystroke_Key.backspace	Key.backspace	n/a
345.5365	0.075	691073	keystroke_Key.backspace	Key.backspace	n/a
345.7165	0.09	691433	keystroke_Key.backspace	Key.backspace	n/a
345.9115	0.06	691823	keystroke_Key.backspace	Key.backspace	n/a
346.1215	0.06	692243	keystroke_Key.backspace	Key.backspace	n/a
346.2865	0.0605	692573	keystroke_Key.backspace	Key.backspace	n/a
346.467	0.0605	692934	keystroke_Key.backspace	Key.backspace	n/a
346.6925	0.09	693385	keystroke_Key.backspace	Key.backspace	n/a
347.8325	0.105	695665	keystroke_l	l	n/a
348.0425	0.165	696085	keystroke_i	i	n/a
348.1625	0.195	696325	keystroke_p	p	n/a
348.2825	0.15	696565	keystroke_s	s	n/a
348.4025	0.12	696805	keystroke_Key.space	Key.space	n/a
348.612	0.1045	697224	keystroke_c	c	n/a
348.7465	0.135	697493	keystroke_l	l	n/a
348.8965	0.1055	697793	keystroke_e	e	n/a
349.122	0.15	698244	keystroke_a	a	n/a
349.257	0.1345	698514	keystroke_n	n	n/a
349.4065	0.091	698813	keystroke_e	e	n/a
349.5715	0.136	699143	keystroke_r	r	n/a
349.842	0.105	699684	keystroke_Key.enter	Key.enter	n/a
349.955	5.8135	699910	prompt	n/a	celebs tucson video fuji\n
350.7565	0.105	701513	keystroke_c	c	n/a
350.9815	0.12	701963	keystroke_e	e	n/a
351.132	0.12	702264	keystroke_l	l	n/a
351.192	0.15	702384	keystroke_e	e	n/a
351.417	0.1195	702834	keystroke_b	b	n/a
351.538	0.134	703076	keystroke_s	s	n/a
351.672	0.12	703344	keystroke_Key.space	Key.space	n/a
352.152	0.09	704304	keystroke_t	t	n/a
352.317	0.12	704634	keystroke_u	u	n/a
352.452	0.09	704904	keystroke_c	c	n/a
352.707	0.12	705414	keystroke_s	s	n/a
352.842	0.24	705684	keystroke_o	o	n/a
353.022	0.195	706044	keystroke_n	n	n/a
353.1715	0.1355	706343	keystroke_Key.space	Key.space	n/a
353.5315	0.09	707063	keystroke_v	v	n/a
353.6815	0.136	707363	keystroke_i	i	n/a
353.8015	0.0755	707603	keystroke_d	d	n/a
353.967	0.18	707934	keystroke_e	e	n/a
354.132	0.21	708264	keystroke_o	o	n/a
354.267	0.135	708534	keystroke_Key.space	Key.space	n/a
354.777	0.12	709554	keystroke_f	f	n/a
354.927	0.09	709854	keystroke_u	u	n/a
355.167	0.18	710334	keystroke_j	j	n/a
355.302	0.135	710604	keystroke_i	i	n/a
355.677	0.09	711354	keystroke_Key.enter	Key.enter	n/a
355.7715	9.057	711543	prompt	n/a	ivory columns gear discovery\n
356.6975	0.12	713395	keystroke_o	o	n/a
356.8615	0.105	713723	keystroke_v	v	n/a
357.0275	0.045	714055	keystroke_o	o	n/a
357.6415	0.075	715283	keystroke_Key.backspace	Key.backspace	n/a
357.7915	0.09	715583	keystroke_Key.backspace	Key.backspace	n/a
358.0165	0.09	716033	keystroke_Key.backspace	Key.backspace	n/a
358.617	0.12	717234	keystroke_i	i	n/a
358.782	0.12	717564	keystroke_v	v	n/a
358.917	0.135	717834	keystroke_o	o	n/a
359.097	0.135	718194	keystroke_r	r	n/a
359.277	0.1645	718554	keystroke_y	y	n/a
359.3965	0.12	718793	keystroke_Key.space	Key.space	n/a
359.8925	0.135	719785	keystroke_c	c	n/a
360.0125	0.06	720025	keystroke_o	o	n/a
360.1625	0.105	720325	keystroke_l	l	n/a
360.3725	0.1045	720745	keystroke_u	u	n/a
360.5665	0.0755	721133	keystroke_m	m	n/a
360.7615	0.1205	721523	keystroke_n	n	n/a
360.8665	0.165	721733	keystroke_s	s	n/a
361.017	0.105	722034	keystroke_Key.space	Key.space	n/a
361.5125	0.1045	723025	keystroke_g	g	n/a
361.602	0.12	723204	keystroke_e	e	n/a
361.872	0.105	723744	keystroke_a	a	n/a
362.1115	0.136	724223	keystroke_r	r	n/a
362.2315	0.09	724463	keystroke_Key.space	Key.space	n/a
362.9215	0.12	725843	keystroke_d	d	n/a
363.0715	0.15	726143	keystroke_i	i	n/a
363.2365	0.09	726473	keystroke_s	s	n/a
363.462	0.09	726924	keystroke_c	c	n/a
363.582	0.12	727164	keystroke_o	o	n/a
363.762	0.045	727524	keystroke_v	v	n/a
363.987	0.06	727974	keystroke_e	e	n/a
364.137	0.12	728274	keystroke_r	r	n/a
364.272	0.105	728544	keystroke_y	y	n/a
364.707	0.12	729414	keystroke_Key.enter	Key.enter	n/a
364.8325	6.716	729665	prompt	n/a	scenic dayton busy jews\n
365.547	0.09	731094	keystroke_s	s	n/a
365.772	0.075	731544	keystroke_c	c	n/a
365.982	0.09	731964	keystroke_e	e	n/a
366.087	0.255	732174	keystroke_n	n	n/a
366.267	0.15	732534	keystroke_i	i	n/a
366.372	0.105	732744	keystroke_c	c	n/a
366.5515	0.105	733103	keystroke_Key.space	Key.space	n/a
366.8815	0.09	733763	keystroke_d	d	n/a
367.1965	0.105	734393	keystroke_a	a	n/a
367.617	0.06	735234	keystroke_y	y	n/a
367.782	0.105	735564	keystroke_t	t	n/a
367.917	0.195	735834	keystroke_o	o	n/a
368.067	0.21	736134	keystroke_n	n	n/a
368.217	0.1345	736434	keystroke_Key.space	Key.space	n/a
368.5465	0.165	737093	keystroke_b	b	n/a
368.9965	0.12	737993	keystroke_u	u	n/a
369.2065	0.12	738413	keystroke_s	s	n/a
369.3565	0.135	738713	keystroke_y	y	n/a
369.4765	0.105	738953	keystroke_Key.space	Key.space	n/a
370.587	0.15	741174	keystroke_j	j	n/a
370.722	0.075	741444	keystroke_e	e	n/a
370.917	0.105	741834	keystroke_w	w	n/a
371.1565	0.09	742313	keystroke_s	s	n/a
371.4415	0.105	742883	keystroke_Key.enter	Key.enter	n/a
371.552	12.2065	743104	prompt	n/a	maternity birthday backgrounds disaster\n
372.252	0.1655	744504	keystroke_m	m	n/a
372.432	0.0755	744864	keystroke_a	a	n/a
372.702	0.075	745404	keystroke_t	t	n/a
372.912	0.0745	745824	keystroke_e	e	n/a
373.0615	0.12	746123	keystroke_r	r	n/a
373.1965	0.195	746393	keystroke_n	n	n/a
373.3465	0.165	746693	keystroke_i	i	n/a
373.6165	0.15	747233	keystroke_t	t	n/a
373.9165	0.075	747833	keystroke_y	y	n/a
374.0665	0.09	748133	keystroke_Key.space	Key.space	n/a
374.8765	0.165	749753	keystroke_b	b	n/a
374.9815	0.15	749963	keystroke_i	i	n/a
375.0865	0.09	750173	keystroke_r	r	n/a
375.2515	0.105	750503	keystroke_t	t	n/a
375.3415	0.1205	750683	keystroke_h	h	n/a
375.5075	0.09	751015	keystroke_d	d	n/a
375.732	0.2105	751464	keystroke_a	a	n/a
375.867	0.1355	751734	keystroke_y	y	n/a
375.9725	0.104	751945	keystroke_Key.space	Key.space	n/a
376.182	0.135	752364	keystroke_b	b	n/a
376.257	0.12	752514	keystroke_a	a	n/a
376.5275	0.105	753055	keystroke_c	c	n/a
376.6475	0.15	753295	keystroke_k	k	n/a
377.172	0.045	754344	keystroke_f	f	n/a
377.187	0.03	754374	keystroke_g	g	n/a
377.652	0.12	755304	keystroke_r	r	n/a
377.757	0.2095	755514	keystroke_o	o	n/a
377.862	0.1645	755724	keystroke_u	u	n/a
377.9815	0.135	755963	keystroke_n	n	n/a
378.0415	0.12	756083	keystroke_f	f	n/a
378.537	0.075	757074	keystroke_Key.backspace	Key.backspace	n/a
378.702	0.075	757404	keystroke_Key.backspace	Key.backspace	n/a
378.897	0.06	757794	keystroke_Key.backspace	Key.backspace	n/a
379.077	0.06	758154	keystroke_Key.backspace	Key.backspace	n/a
379.257	0.06	758514	keystroke_Key.backspace	Key.backspace	n/a
379.452	0.075	758904	keystroke_Key.backspace	Key.backspace	n/a
379.647	0.06	759294	keystroke_Key.backspace	Key.backspace	n/a
380.2325	0.06	760465	keystroke_g	g	n/a
380.397	0.105	760794	keystroke_r	r	n/a
380.487	0.2555	760974	keystroke_o	o	n/a
380.6825	0.135	761365	keystroke_u	u	n/a
380.7275	0.195	761455	keystroke_n	n	n/a
380.8625	0.089	761725	keystroke_d	d	n/a
381.0575	0.12	762115	keystroke_s	s	n/a
381.1925	0.105	762385	keystroke_Key.space	Key.space	n/a
382.047	0.105	764094	keystroke_d	d	n/a
382.167	0.1195	764334	keystroke_i	i	n/a
382.3015	0.09	764603	keystroke_s	s	n/a
382.527	0.09	765054	keystroke_a	a	n/a
382.737	0.0745	765474	keystroke_s	s	n/a
382.9925	0.074	765985	keystroke_t	t	n/a
383.2175	0.075	766435	keystroke_e	e	n/a
383.3675	0.134	766735	keystroke_r	r	n/a
383.6365	0.12	767273	keystroke_Key.enter	Key.enter	n/a
383.7615	8.2925	767523	prompt	n/a	commissions marcus trip variation\n
384.4915	0.105	768983	keystroke_c	c	n/a
384.6265	0.165	769253	keystroke_o	o	n/a
384.7765	0.075	769553	keystroke_m	m	n/a
384.9265	0.21	769853	keystroke_m	m	n/a
385.0765	0.1655	770153	keystroke_i	i	n/a
385.257	0.09	770514	keystroke_s	s	n/a
385.437	0.135	770874	keystroke_s	s	n/a
385.542	0.165	771084	keystroke_i	i	n/a
385.677	0.194	771354	keystroke_o	o	n/a
385.797	0.18	771594	keystroke_n	n	n/a
385.917	0.195	771834	keystroke_s	s	n/a
386.0665	0.1505	772133	keystroke_Key.space	Key.space	n/a
386.247	0.165	772494	keystroke_m	m	n/a
386.367	0.135	772734	keystroke_a	a	n/a
386.697	0.09	773394	keystroke_r	r	n/a
387.072	0.075	774144	keystroke_c	c	n/a
387.192	0.12	774384	keystroke_u	u	n/a
387.342	0.1045	774684	keystroke_s	s	n/a
387.4765	0.105	774953	keystroke_Key.space	Key.space	n/a
387.6865	0.076	775373	keystroke_t	t	n/a
387.8665	0.1205	775733	keystroke_r	r	n/a
388.7065	0.225	777413	keystroke_i	i	n/a
388.8415	0.21	777683	keystroke_p	p	n/a
389.0065	0.12	778013	keystroke_Key.space	Key.space	n/a
389.817	0.075	779634	keystroke_v	v	n/a
390.0415	0.106	780083	keystroke_a	a	n/a
390.2525	0.089	780505	keystroke_r	r	n/a
390.3725	0.135	780745	keystroke_i	i	n/a
390.4925	0.105	780985	keystroke_a	a	n/a
390.762	0.105	781524	keystroke_t	t	n/a
390.837	0.195	781674	keystroke_i	i	n/a
391.002	0.2095	782004	keystroke_o	o	n/a
391.167	0.1345	782334	keystroke_n	n	n/a
391.9465	0.1055	783893	keystroke_Key.enter	Key.enter	n/a
392.0565	9.342	784113	prompt	n/a	racial sans institutes vatican\n
392.8015	0.105	785603	keystroke_r	r	n/a
393.0265	0.105	786053	keystroke_a	a	n/a
393.2665	0.09	786533	keystroke_c	c	n/a
393.4615	0.105	786923	keystroke_i	i	n/a
393.5965	0.21	787193	keystroke_a	a	n/a
393.7615	0.165	787523	keystroke_l	l	n/a
393.8815	0.135	787763	keystroke_Key.space	Key.space	n/a
394.3165	0.15	788633	keystroke_s	s	n/a
394.5565	0.12	789113	keystroke_a	a	n/a
394.6915	0.15	789383	keystroke_n	n	n/a
394.8715	0.12	789743	keystroke_s	s	n/a
394.9765	0.12	789953	keystroke_Key.space	Key.space	n/a
395.3815	0.1955	790763	keystroke_i	i	n/a
395.532	0.15	791064	keystroke_n	n	n/a
395.667	0.12	791334	keystroke_s	s	n/a
395.967	0.105	791934	keystroke_t	t	n/a
396.282	0.015	792564	keystroke_i	i	n/a
396.312	0.075	792624	keystroke_t	t	n/a
396.402	0.105	792804	keystroke_u	u	n/a
397.3765	0.0755	794753	keystroke_t	t	n/a
397.6165	0.06	795233	keystroke_e	e	n/a
397.7815	0.105	795563	keystroke_s	s	n/a
397.8715	0.09	795743	keystroke_Key.space	Key.space	n/a
399.837	0.075	799674	keystroke_v	v	n/a
400.032	0.105	800064	keystroke_a	a	n/a
400.272	0.105	800544	keystroke_t	t	n/a
400.362	0.135	800724	keystroke_i	i	n/a
400.557	0.075	801114	keystroke_c	c	n/a
400.797	0.15	801594	keystroke_a	a	n/a
400.962	0.09	801924	keystroke_n	n	n/a
401.292	0.105	802584	keystroke_Key.enter	Key.enter	n/a
401.402	4.7965	802804	prompt	n/a	lane soil best front\n
402.0575	0.089	804115	keystroke_l	l	n/a
402.1315	0.18	804263	keystroke_a	a	n/a
402.3875	0.1345	804775	keystroke_n	n	n/a
402.507	0.12	805014	keystroke_e	e	n/a
402.627	0.09	805254	keystroke_Key.space	Key.space	n/a
403.017	0.15	806034	keystroke_s	s	n/a
403.182	0.165	806364	keystroke_o	o	n/a
403.302	0.24	806604	keystroke_i	i	n/a
403.527	0.2095	807054	keystroke_l	l	n/a
403.6765	0.15	807353	keystroke_Key.space	Key.space	n/a
404.0365	0.165	808073	keystroke_b	b	n/a
404.1415	0.09	808283	keystroke_e	e	n/a
404.3515	0.09	808703	keystroke_s	s	n/a
404.607	0.12	809214	keystroke_t	t	n/a
404.712	0.105	809424	keystroke_Key.space	Key.space	n/a
405.1475	0.0745	810295	keystroke_f	f	n/a
405.312	0.105	810624	keystroke_r	r	n/a
405.4325	0.195	810865	keystroke_o	o	n/a
405.5825	0.165	811165	keystroke_n	n	n/a
405.6875	0.135	811375	keystroke_t	t	n/a
406.0925	0.105	812185	keystroke_Key.enter	Key.enter	n/a
406.201	6.0725	812402	prompt	n/a	hose cookies behind childhood\n
407.0825	0.165	814165	keystroke_h	h	n/a
407.1875	0.21	814375	keystroke_o	o	n/a
407.3225	0.09	814645	keystroke_s	s	n/a
407.5175	0.09	815035	keystroke_e	e	n/a
407.6225	0.12	815245	keystroke_Key.space	Key.space	n/a
407.8325	0.105	815665	keystroke_c	c	n/a
407.9525	0.075	815905	keystroke_o	o	n/a
408.1025	0.18	816205	keystroke_o	o	n/a
408.2375	0.1345	816475	keystroke_k	k	n/a
408.447	0.15	816894	keystroke_i	i	n/a
408.537	0.12	817074	keystroke_e	e	n/a
408.822	0.195	817644	keystroke_s	s	n/a
409.002	0.105	818004	keystroke_Key.space	Key.space	n/a
409.332	0.0905	818664	keystroke_b	b	n/a
409.5125	0.15	819025	keystroke_e	e	n/a
409.7075	0.149	819415	keystroke_h	h	n/a
409.8425	0.225	819685	keystroke_i	i	n/a
410.0225	0.21	820045	keystroke_n	n	n/a
410.1725	0.18	820345	keystroke_d	d	n/a
410.2925	0.12	820585	keystroke_Key.space	Key.space	n/a
410.682	0.135	821364	keystroke_c	c	n/a
410.802	0.195	821604	keystroke_h	h	n/a
410.922	0.211	821844	keystroke_i	i	n/a
411.057	0.195	822114	keystroke_l	l	n/a
411.162	0.165	822324	keystroke_d	d	n/a
411.312	0.1495	822624	keystroke_h	h	n/a
411.4015	0.105	822803	keystroke_o	o	n/a
411.6115	0.12	823223	keystroke_o	o	n/a
411.7615	0.15	823523	keystroke_d	d	n/a
412.1665	0.105	824333	keystroke_Key.enter	Key.enter	n/a
412.2765	9.732	824553	prompt	n/a	drew displayed parliamentary sega\n
413.0815	0.075	826163	keystroke_d	d	n/a
413.457	0.075	826914	keystroke_r	r	n/a
413.637	0.075	827274	keystroke_e	e	n/a
413.9975	0.09	827995	keystroke_w	w	n/a
414.1475	0.1195	828295	keystroke_Key.space	Key.space	n/a
414.6125	0.105	829225	keystroke_d	d	n/a
414.7025	0.135	829405	keystroke_i	i	n/a
414.8225	0.135	829645	keystroke_s	s	n/a
414.9875	0.135	829975	keystroke_p	p	n/a
415.0625	0.12	830125	keystroke_l	l	n/a
415.1975	0.15	830395	keystroke_a	a	n/a
415.3775	0.135	830755	keystroke_y	y	n/a
415.5425	0.1045	831085	keystroke_e	e	n/a
415.737	0.15	831474	keystroke_d	d	n/a
415.842	0.105	831684	keystroke_Key.space	Key.space	n/a
416.427	0.1805	832854	keystroke_p	p	n/a
416.532	0.1355	833064	keystroke_a	a	n/a
416.8025	0.09	833605	keystroke_r	r	n/a
416.9525	0.1345	833905	keystroke_l	l	n/a
417.0425	0.1645	834085	keystroke_i	i	n/a
417.222	0.12	834444	keystroke_a	a	n/a
417.357	0.15	834714	keystroke_m	m	n/a
417.867	0.12	835734	keystroke_e	e	n/a
417.972	0.135	835944	keystroke_n	n	n/a
418.152	0.12	836304	keystroke_t	t	n/a
418.437	0.1045	836874	keystroke_a	a	n/a
418.6915	0.12	837383	keystroke_r	r	n/a
418.8265	0.166	837653	keystroke_y	y	n/a
418.9765	0.12	837953	keystroke_Key.space	Key.space	n/a
419.4715	0.1205	838943	keystroke_s	s	n/a
419.6515	0.135	839303	keystroke_a	a	n/a
419.8165	0.105	839633	keystroke_g	g	n/a
419.9515	0.135	839903	keystroke_a	a	n/a
420.612	0.075	841224	keystroke_Key.backspace	Key.backspace	n/a
420.762	0.09	841524	keystroke_Key.backspace	Key.backspace	n/a
420.957	0.09	841914	keystroke_Key.backspace	Key.backspace	n/a
421.077	0.135	842154	keystroke_e	e	n/a
421.3325	0.1195	842665	keystroke_g	g	n/a
421.467	0.0905	842934	keystroke_a	a	n/a
421.9025	0.105	843805	keystroke_Key.enter	Key.enter	n/a
422.012	6.9415	844024	prompt	n/a	folk desirable experiments strap\n
422.8025	0.1195	845605	keystroke_f	f	n/a
422.907	0.105	845814	keystroke_o	o	n/a
423.132	0.18	846264	keystroke_l	l	n/a
423.297	0.225	846594	keystroke_k	k	n/a
423.492	0.12	846984	keystroke_Key.space	Key.space	n/a
423.912	0.075	847824	keystroke_d	d	n/a
424.107	0.075	848214	keystroke_e	e	n/a
424.3325	0.105	848665	keystroke_s	s	n/a
424.4225	0.135	848845	keystroke_i	i	n/a
424.6625	0.0595	849325	keystroke_r	r	n/a
424.887	0.12	849774	keystroke_a	a	n/a
425.022	0.18	850044	keystroke_b	b	n/a
425.142	0.18	850284	keystroke_l	l	n/a
425.277	0.165	850554	keystroke_e	e	n/a
425.457	0.075	850914	keystroke_Key.space	Key.space	n/a
425.712	0.075	851424	keystroke_e	e	n/a
425.967	0.09	851934	keystroke_x	x	n/a
426.072	0.135	852144	keystroke_p	p	n/a
426.222	0.09	852444	keystroke_e	e	n/a
426.387	0.09	852774	keystroke_r	r	n/a
426.492	0.135	852984	keystroke_i	i	n/a
426.642	0.135	853284	keystroke_m	m	n/a
426.792	0.075	853584	keystroke_e	e	n/a
426.882	0.135	853764	keystroke_n	n	n/a
427.032	0.09	854064	keystroke_t	t	n/a
427.272	0.1205	854544	keystroke_s	s	n/a
427.3775	0.12	854755	keystroke_Key.space	Key.space	n/a
427.6475	0.12	855295	keystroke_s	s	n/a
427.8875	0.075	855775	keystroke_t	t	n/a
428.0525	0.09	856105	keystroke_r	r	n/a
428.2765	0.151	856553	keystroke_a	a	n/a
428.4425	0.135	856885	keystroke_p	p	n/a
428.8465	0.106	857693	keystroke_Key.enter	Key.enter	n/a
428.9605	5.243	857921	prompt	n/a	blast items sticker inform\n
429.7625	0.21	859525	keystroke_b	b	n/a
429.9125	0.18	859825	keystroke_l	l	n/a
430.0325	0.15	860065	keystroke_a	a	n/a
430.2125	0.149	860425	keystroke_s	s	n/a
430.512	0.165	861024	keystroke_t	t	n/a
430.632	0.12	861264	keystroke_Key.space	Key.space	n/a
430.872	0.1655	861744	keystroke_i	i	n/a
431.0225	0.104	862045	keystroke_t	t	n/a
431.2475	0.12	862495	keystroke_e	e	n/a
431.3815	0.1655	862763	keystroke_m	m	n/a
431.5315	0.1955	863063	keystroke_s	s	n/a
431.682	0.105	863364	keystroke_Key.space	Key.space	n/a
431.817	0.135	863634	keystroke_s	s	n/a
432.057	0.105	864114	keystroke_t	t	n/a
432.1765	0.12	864353	keystroke_i	i	n/a
432.3265	0.105	864653	keystroke_c	c	n/a
432.4765	0.1055	864953	keystroke_k	k	n/a
432.642	0.09	865284	keystroke_e	e	n/a
432.822	0.09	865644	keystroke_r	r	n/a
432.942	0.1045	865884	keystroke_Key.space	Key.space	n/a
433.1665	0.165	866333	keystroke_i	i	n/a
433.2865	0.135	866573	keystroke_n	n	n/a
433.4515	0.105	866903	keystroke_f	f	n/a
433.5715	0.12	867143	keystroke_o	o	n/a
433.6925	0.149	867385	keystroke_r	r	n/a
433.8715	0.105	867743	keystroke_m	m	n/a
434.1415	0.06	868283	keystroke_Key.enter	Key.enter	n/a
434.208	7.9005	868416	prompt	n/a	chosen hdtv consists athletic\n
434.937	0.105	869874	keystroke_c	c	n/a
435.072	0.135	870144	keystroke_h	h	n/a
435.162	0.165	870324	keystroke_o	o	n/a
435.312	0.105	870624	keystroke_s	s	n/a
435.477	0.2245	870954	keystroke_e	e	n/a
435.6715	0.18	871343	keystroke_n	n	n/a
435.8065	0.15	871613	keystroke_Key.space	Key.space	n/a
436.4365	0.12	872873	keystroke_h	h	n/a
436.5715	0.105	873143	keystroke_d	d	n/a
436.7965	0.09	873593	keystroke_t	t	n/a
437.0525	0.075	874105	keystroke_v	v	n/a
437.367	0.135	874734	keystroke_Key.space	Key.space	n/a
437.7125	0.12	875425	keystroke_c	c	n/a
437.8475	0.1045	875695	keystroke_o	o	n/a
437.937	0.135	875874	keystroke_n	n	n/a
438.087	0.15	876174	keystroke_s	s	n/a
438.267	0.12	876534	keystroke_i	i	n/a
438.432	0.075	876864	keystroke_t	t	n/a
438.687	0.12	877374	keystroke_s	s	n/a
439.077	0.06	878154	keystroke_Key.backspace	Key.backspace	n/a
439.242	0.09	878484	keystroke_Key.backspace	Key.backspace	n/a
439.3625	0.105	878725	keystroke_s	s	n/a
439.6165	0.091	879233	keystroke_t	t	n/a
439.8715	0.12	879743	keystroke_s	s	n/a
440.0815	0.105	880163	keystroke_Key.space	Key.space	n/a
440.3525	0.119	880705	keystroke_a	a	n/a
440.622	0.105	881244	keystroke_t	t	n/a
440.742	0.105	881484	keystroke_h	h	n/a
440.967	0.15	881934	keystroke_l	l	n/a
441.102	0.12	882204	keystroke_e	e	n/a
441.342	0.0905	882684	keystroke_t	t	n/a
441.4925	0.09	882985	keystroke_i	i	n/a
441.6575	0.12	883315	keystroke_c	c	n/a
442.0025	0.105	884005	keystroke_Key.enter	Key.enter	n/a
442.112	12.0265	884224	prompt	n/a	challenging nutten objective jane\n
442.8125	0.09	885625	keystroke_c	c	n/a
442.9775	0.12	885955	keystroke_h	h	n/a
443.1425	0.12	886285	keystroke_a	a	n/a
443.2625	0.09	886525	keystroke_l	l	n/a
443.427	0.12	886854	keystroke_l	l	n/a
443.532	0.09	887064	keystroke_e	e	n/a
443.727	0.12	887454	keystroke_n	n	n/a
443.877	0.1045	887754	keystroke_g	g	n/a
444.0115	0.226	888023	keystroke_i	i	n/a
444.1765	0.165	888353	keystroke_n	n	n/a
444.3115	0.106	888623	keystroke_g	g	n/a
444.4465	0.1355	888893	keystroke_Key.space	Key.space	n/a
444.7465	0.165	889493	keystroke_n	n	n/a
444.8665	0.12	889733	keystroke_u	u	n/a
444.9725	0.09	889945	keystroke_t	t	n/a
445.1065	0.105	890213	keystroke_t	t	n/a
445.3465	0.1505	890693	keystroke_e	e	n/a
445.482	0.21	890964	keystroke_n	n	n/a
445.632	0.12	891264	keystroke_Key.space	Key.space	n/a
445.932	0.15	891864	keystroke_o	o	n/a
446.067	0.225	892134	keystroke_b	b	n/a
446.247	0.165	892494	keystroke_j	j	n/a
446.337	0.12	892674	keystroke_e	e	n/a
446.607	0.0905	893214	keystroke_c	c	n/a
446.8775	0.06	893755	keystroke_t	t	n/a
447.0425	0.135	894085	keystroke_e	e	n/a
447.8525	0.105	895705	keystroke_v	v	n/a
447.9425	0.18	895885	keystroke_e	e	n/a
448.1075	0.165	896215	keystroke_Key.space	Key.space	n/a
449.067	0.06	898134	keystroke_Key.backspace	Key.backspace	n/a
449.232	0.0745	898464	keystroke_Key.backspace	Key.backspace	n/a
449.3975	0.075	898795	keystroke_Key.backspace	Key.backspace	n/a
449.6075	0.075	899215	keystroke_Key.backspace	Key.backspace	n/a
449.9075	0.105	899815	keystroke_i	i	n/a
450.1325	0.105	900265	keystroke_v	v	n/a
450.3725	0.1345	900745	keystroke_e	e	n/a
450.492	0.135	900984	keystroke_Key.space	Key.space	n/a
452.172	0.105	904344	keystroke_j	j	n/a
452.307	0.1805	904614	keystroke_a	a	n/a
452.472	0.1205	904944	keystroke_n	n	n/a
452.6225	0.165	905245	keystroke_e	e	n/a
454.032	0.105	908064	keystroke_Key.enter	Key.enter	n/a
454.1415	9.5825	908283	prompt	n/a	bacon capitol encryption tend\n
455.2315	0.136	910463	keystroke_b	b	n/a
455.3525	0.09	910705	keystroke_a	a	n/a
456.1165	0.136	912233	keystroke_c	c	n/a
456.2365	0.21	912473	keystroke_o	o	n/a
456.3565	0.24	912713	keystroke_n	n	n/a
456.5365	0.12	913073	keystroke_Key.space	Key.space	n/a
456.882	0.09	913764	keystroke_c	c	n/a
457.122	0.12	914244	keystroke_a	a	n/a
457.212	0.165	914424	keystroke_p	p	n/a
457.7065	0.12	915413	keystroke_i	i	n/a
458.1565	0.15	916313	keystroke_t	t	n/a
458.3215	0.09	916643	keystroke_o	o	n/a
458.5015	0.12	917003	keystroke_l	l	n/a
458.937	0.12	917874	keystroke_Key.space	Key.space	n/a
459.387	0.12	918774	keystroke_e	e	n/a
459.552	0.1205	919104	keystroke_n	n	n/a
459.7025	0.075	919405	keystroke_c	c	n/a
459.9575	0.12	919915	keystroke_r	r	n/a
461.502	0.105	923004	keystroke_y	y	n/a
461.682	0.135	923364	keystroke_p	p	n/a
461.847	0.12	923694	keystroke_t	t	n/a
461.952	0.1505	923904	keystroke_i	i	n/a
462.0875	0.21	924175	keystroke_o	o	n/a
462.2375	0.21	924475	keystroke_n	n	n/a
462.4325	0.15	924865	keystroke_Key.space	Key.space	n/a
462.7475	0.105	925495	keystroke_t	t	n/a
462.957	0.12	925914	keystroke_e	e	n/a
463.092	0.12	926184	keystroke_n	n	n/a
463.242	0.135	926484	keystroke_d	d	n/a
463.6325	0.09	927265	keystroke_Key.enter	Key.enter	n/a
463.73	13.599	927460	prompt	n/a	there'd discussions representatives character\n
464.622	0.09	929244	keystroke_t	t	n/a
464.787	0.135	929574	keystroke_h	h	n/a
464.892	0.09	929784	keystroke_e	e	n/a
465.072	0.0905	930144	keystroke_r	r	n/a
465.2675	0.09	930535	keystroke_e	e	n/a
465.3875	0.12	930775	keystroke_'	'	n/a
465.5375	0.1495	931075	keystroke_d	d	n/a
465.672	0.12	931344	keystroke_Key.space	Key.space	n/a
466.287	0.21	932574	keystroke_d	d	n/a
466.498	0.134	932996	keystroke_i	i	n/a
466.842	0.12	933684	keystroke_s	s	n/a
467.277	0.105	934554	keystroke_c	c	n/a
467.487	0.105	934974	keystroke_u	u	n/a
467.757	0.09	935514	keystroke_s	s	n/a
467.937	0.15	935874	keystroke_s	s	n/a
468.042	0.195	936084	keystroke_i	i	n/a
468.207	0.2105	936414	keystroke_o	o	n/a
468.3425	0.2245	936685	keystroke_n	n	n/a
468.507	0.165	937014	keystroke_s	s	n/a
468.687	0.105	937374	keystroke_Key.space	Key.space	n/a
469.632	0.105	939264	keystroke_r	r	n/a
469.842	0.135	939684	keystroke_e	e	n/a
469.992	0.135	939984	keystroke_p	p	n/a
470.142	0.09	940284	keystroke_r	r	n/a
470.322	0.105	940644	keystroke_e	e	n/a
470.907	0.075	941814	keystroke_s	s	n/a
471.087	0.135	942174	keystroke_e	e	n/a
471.237	0.12	942474	keystroke_n	n	n/a
471.372	0.0755	942744	keystroke_t	t	n/a
471.927	0.1055	943854	keystroke_a	a	n/a
472.2875	0.105	944575	keystroke_t	t	n/a
472.527	0.105	945054	keystroke_i	i	n/a
472.617	0.09	945234	keystroke_v	v	n/a
472.917	0.09	945834	keystroke_e	e	n/a
473.157	0.12	946314	keystroke_s	s	n/a
473.262	0.12	946524	keystroke_Key.space	Key.space	n/a
473.607	0.105	947214	keystroke_c	c	n/a
473.727	0.09	947454	keystroke_h	h	n/a
473.862	0.105	947724	keystroke_a	a	n/a
474.087	0.09	948174	keystroke_r	r	n/a
474.312	0.105	948624	keystroke_a	a	n/a
474.777	0.075	949554	keystroke_c	c	n/a
475.062	0.045	950124	keystroke_t	t	n/a
475.077	0.045	950154	keystroke_r	r	n/a
475.287	0.09	950574	keystroke_e	e	n/a
475.8275	0.075	951655	keystroke_Key.backspace	Key.backspace	n/a
476.0075	0.09	952015	keystroke_Key.backspace	Key.backspace	n/a
476.3375	0.09	952675	keystroke_e	e	n/a
476.517	0.09	953034	keystroke_r	r	n/a
477.222	0.105	954444	keystroke_Key.enter	Key.enter	n/a
477.335	12.879	954670	prompt	n/a	mats establish moving receivers\n
477.957	0.15	955914	keystroke_m	m	n/a
478.077	0.12	956154	keystroke_s	s	n/a
478.392	0.09	956784	keystroke_t	t	n/a
478.647	0.12	957294	keystroke_s	s	n/a
478.782	0.0895	957564	keystroke_Key.space	Key.space	n/a
479.232	0.074	958464	keystroke_e	e	n/a
479.442	0.09	958884	keystroke_r	r	n/a
479.832	0.09	959664	keystroke_Key.backspace	Key.backspace	n/a
479.952	0.09	959904	keystroke_s	s	n/a
480.192	0.075	960384	keystroke_t	t	n/a
480.432	0.135	960864	keystroke_a	a	n/a
480.507	0.24	961014	keystroke_b	b	n/a
480.627	0.255	961254	keystroke_l	l	n/a
480.777	0.21	961554	keystroke_i	i	n/a
480.942	0.21	961884	keystroke_s	s	n/a
481.107	0.15	962214	keystroke_h	h	n/a
481.6015	0.075	963203	keystroke_Key.backspace	Key.backspace	n/a
481.7815	0.06	963563	keystroke_Key.backspace	Key.backspace	n/a
481.9615	0.0605	963923	keystroke_Key.backspace	Key.backspace	n/a
482.157	0.045	964314	keystroke_Key.backspace	Key.backspace	n/a
482.367	0.06	964734	keystroke_Key.backspace	Key.backspace	n/a
482.5475	0.075	965095	keystroke_Key.backspace	Key.backspace	n/a
482.7125	0.075	965425	keystroke_Key.backspace	Key.backspace	n/a
482.8925	0.075	965785	keystroke_Key.backspace	Key.backspace	n/a
483.0875	0.075	966175	keystroke_Key.backspace	Key.backspace	n/a
483.2675	0.075	966535	keystroke_Key.backspace	Key.backspace	n/a
483.4775	0.075	966955	keystroke_Key.backspace	Key.backspace	n/a
483.6575	0.089	967315	keystroke_Key.backspace	Key.backspace	n/a
483.8525	0.089	967705	keystroke_Key.backspace	Key.backspace	n/a
484.1075	0.105	968215	keystroke_a	a	n/a
484.4375	0.09	968875	keystroke_t	t	n/a
484.6925	0.12	969385	keystroke_s	s	n/a
484.8275	0.105	969655	keystroke_Key.space	Key.space	n/a
485.0225	0.12	970045	keystroke_e	e	n/a
485.4875	0.09	970975	keystroke_s	s	n/a
485.7125	0.09	971425	keystroke_t	t	n/a
485.9525	0.1345	971905	keystroke_a	a	n/a
486.057	0.255	972114	keystroke_b	b	n/a
486.192	0.21	972384	keystroke_l	l	n/a
486.327	0.165	972654	keystroke_i	i	n/a
486.447	0.195	972894	keystroke_s	s	n/a
486.597	0.18	973194	keystroke_h	h	n/a
486.717	0.135	973434	keystroke_Key.space	Key.space	n/a
487.032	0.18	974064	keystroke_m	m	n/a
487.167	0.165	974334	keystroke_o	o	n/a
487.407	0.0905	974814	keystroke_v	v	n/a
487.5275	0.239	975055	keystroke_i	i	n/a
487.6765	0.256	975353	keystroke_n	n	n/a
487.7975	0.12	975595	keystroke_g	g	n/a
487.9325	0.149	975865	keystroke_Key.space	Key.space	n/a
488.2775	0.105	976555	keystroke_r	r	n/a
488.487	0.09	976974	keystroke_e	e	n/a
488.7115	0.0755	977423	keystroke_c	c	n/a
488.892	0.075	977784	keystroke_e	e	n/a
489.027	0.105	978054	keystroke_i	i	n/a
489.132	0.075	978264	keystroke_v	v	n/a
489.342	0.09	978684	keystroke_e	e	n/a
489.537	0.075	979074	keystroke_r	r	n/a
489.792	0.09	979584	keystroke_s	s	n/a
490.122	0.0895	980244	keystroke_Key.enter	Key.enter	n/a
490.217	9.596	980434	prompt	n/a	suggesting bracelet cross supporters\n
491.1115	0.12	982223	keystroke_s	s	n/a
491.2775	0.134	982555	keystroke_u	u	n/a
491.4425	0.1045	982885	keystroke_g	g	n/a
491.592	0.12	983184	keystroke_g	g	n/a
491.667	0.105	983334	keystroke_e	e	n/a
491.907	0.075	983814	keystroke_s	s	n/a
492.102	0.105	984204	keystroke_t	t	n/a
492.222	0.18	984444	keystroke_i	i	n/a
492.342	0.165	984684	keystroke_n	n	n/a
492.447	0.105	984894	keystroke_g	g	n/a
492.567	0.105	985134	keystroke_Key.space	Key.space	n/a
492.732	0.135	985464	keystroke_b	b	n/a
492.8815	0.09	985763	keystroke_r	r	n/a
493.137	0.12	986274	keystroke_a	a	n/a
493.467	0.075	986934	keystroke_c	c	n/a
493.6775	0.075	987355	keystroke_e	e	n/a
493.7675	0.12	987535	keystroke_l	l	n/a
493.8575	0.12	987715	keystroke_e	e	n/a
494.1125	0.105	988225	keystroke_t	t	n/a
494.2325	0.12	988465	keystroke_Key.space	Key.space	n/a
494.5175	0.06	989035	keystroke_c	c	n/a
494.6975	0.0895	989395	keystroke_r	r	n/a
494.847	0.105	989694	keystroke_o	o	n/a
494.997	0.09	989994	keystroke_s	s	n/a
495.162	0.135	990324	keystroke_s	s	n/a
495.282	0.105	990564	keystroke_Key.space	Key.space	n/a
495.777	0.135	991554	keystroke_s	s	n/a
495.942	0.135	991884	keystroke_u	u	n/a
496.062	0.1055	992124	keystroke_p	p	n/a
496.2115	0.181	992423	keystroke_p	p	n/a
496.3475	0.1945	992695	keystroke_o	o	n/a
496.4375	0.1195	992875	keystroke_r	r	n/a
496.632	0.105	993264	keystroke_r	r	n/a
496.647	0.075	993294	keystroke_t	t	n/a
497.232	0.09	994464	keystroke_Key.backspace	Key.backspace	n/a
497.367	0.12	994734	keystroke_t	t	n/a
497.6815	0.09	995363	keystroke_e	e	n/a
497.876	0.09	995752	keystroke_Key.backspace	Key.backspace	n/a
498.0715	0.0905	996143	keystroke_Key.backspace	Key.backspace	n/a
498.2365	0.105	996473	keystroke_Key.backspace	Key.backspace	n/a
498.3415	0.105	996683	keystroke_t	t	n/a
498.5665	0.105	997133	keystroke_e	e	n/a
498.7765	0.075	997553	keystroke_r	r	n/a
499.1215	0.075	998243	keystroke_s	s	n/a
499.7065	0.105	999413	keystroke_Key.enter	Key.enter	n/a
499.8165	9.762	999633	prompt	n/a	sponsored quantitative knight display\n
500.5025	0.119	1001005	keystroke_s	s	n/a
500.6665	0.15	1001333	keystroke_p	p	n/a
500.7865	0.2405	1001573	keystroke_o	o	n/a
500.952	0.135	1001904	keystroke_n	n	n/a
501.042	0.195	1002084	keystroke_s	s	n/a
501.237	0.15	1002474	keystroke_o	o	n/a
501.5515	0.105	1003103	keystroke_r	r	n/a
501.7165	0.12	1003433	keystroke_e	e	n/a
501.9265	0.1355	1003853	keystroke_d	d	n/a
502.032	0.105	1004064	keystroke_Key.space	Key.space	n/a
502.6915	0.105	1005383	keystroke_q	q	n/a
502.7965	0.135	1005593	keystroke_u	u	n/a
502.9615	0.105	1005923	keystroke_a	a	n/a
503.1865	0.15	1006373	keystroke_n	n	n/a
503.7715	0.106	1007543	keystroke_t	t	n/a
503.9075	0.119	1007815	keystroke_i	i	n/a
504.5215	0.075	1009043	keystroke_t	t	n/a
504.7915	0.09	1009583	keystroke_a	a	n/a
505.1065	0.0905	1010213	keystroke_t	t	n/a
505.242	0.12	1010484	keystroke_i	i	n/a
506.0665	0.0895	1012133	keystroke_v	v	n/a
506.322	0.089	1012644	keystroke_e	e	n/a
506.441	0.1205	1012882	keystroke_Key.space	Key.space	n/a
506.696	0.1805	1013392	keystroke_k	k	n/a
506.846	0.2105	1013692	keystroke_n	n	n/a
506.9965	0.18	1013993	keystroke_i	i	n/a
507.1915	0.09	1014383	keystroke_g	g	n/a
507.2665	0.1355	1014533	keystroke_h	h	n/a
507.3865	0.135	1014773	keystroke_t	t	n/a
507.5065	0.135	1015013	keystroke_Key.space	Key.space	n/a
508.0465	0.105	1016093	keystroke_d	d	n/a
508.1215	0.15	1016243	keystroke_i	i	n/a
508.3015	0.135	1016603	keystroke_s	s	n/a
508.5265	0.1805	1017053	keystroke_p	p	n/a
508.6165	0.1655	1017233	keystroke_l	l	n/a
508.767	0.135	1017534	keystroke_a	a	n/a
508.962	0.135	1017924	keystroke_y	y	n/a
509.4715	0.1045	1018943	keystroke_Key.enter	Key.enter	n/a
509.581	6.8975	1019162	prompt	n/a	tales opera otherwise olympus\n
510.4315	0.09	1020863	keystroke_t	t	n/a
510.717	0.135	1021434	keystroke_a	a	n/a
510.867	0.12	1021734	keystroke_l	l	n/a
511.002	0.09	1022004	keystroke_e	e	n/a
511.212	0.105	1022424	keystroke_s	s	n/a
511.362	0.195	1022724	keystroke_Key.space	Key.space	n/a
511.512	0.225	1023024	keystroke_o	o	n/a
511.647	0.24	1023294	keystroke_p	p	n/a
511.722	0.1055	1023444	keystroke_e	e	n/a
511.902	0.1195	1023804	keystroke_r	r	n/a
512.172	0.15	1024344	keystroke_a	a	n/a
512.292	0.105	1024584	keystroke_Key.space	Key.space	n/a
512.5315	0.135	1025063	keystroke_o	o	n/a
512.6365	0.105	1025273	keystroke_t	t	n/a
512.8165	0.12	1025633	keystroke_h	h	n/a
512.9215	0.105	1025843	keystroke_e	e	n/a
513.1165	0.075	1026233	keystroke_r	r	n/a
513.8215	0.09	1027643	keystroke_w	w	n/a
513.9265	0.135	1027853	keystroke_i	i	n/a
514.1065	0.105	1028213	keystroke_s	s	n/a
514.347	0.135	1028694	keystroke_e	e	n/a
514.467	0.105	1028934	keystroke_Key.space	Key.space	n/a
514.782	0.09	1029564	keystroke_o	o	n/a
514.947	0.105	1029894	keystroke_l	l	n/a
515.247	0.045	1030494	keystroke_y	y	n/a
515.442	0.105	1030884	keystroke_m	m	n/a
515.697	0.105	1031394	keystroke_p	p	n/a
515.892	0.105	1031784	keystroke_u	u	n/a
516.012	0.135	1032024	keystroke_s	s	n/a
516.3565	0.12	1032713	keystroke_Key.enter	Key.enter	n/a
516.4815	16.5425	1032963	prompt	n/a	fairly motels borders saskatchewan\n
517.3915	0.0605	1034783	keystroke_f	f	n/a
517.572	0.12	1035144	keystroke_a	a	n/a
518.142	0.18	1036284	keystroke_i	i	n/a
518.292	0.1945	1036584	keystroke_l	l	n/a
518.427	0.1345	1036854	keystroke_r	r	n/a
518.6965	0.09	1037393	keystroke_y	y	n/a
518.8015	0.135	1037603	keystroke_Key.space	Key.space	n/a
519.3715	0.075	1038743	keystroke_Key.backspace	Key.backspace	n/a
519.5515	0.06	1039103	keystroke_Key.backspace	Key.backspace	n/a
519.7465	0.045	1039493	keystroke_Key.backspace	Key.backspace	n/a
519.9115	0.09	1039823	keystroke_Key.backspace	Key.backspace	n/a
520.6465	0.12	1041293	keystroke_r	r	n/a
520.7515	0.135	1041503	keystroke_l	l	n/a
520.9315	0.1205	1041863	keystroke_y	y	n/a
521.037	0.15	1042074	keystroke_Key.space	Key.space	n/a
521.202	0.135	1042404	keystroke_m	m	n/a
521.262	0.18	1042524	keystroke_o	o	n/a
521.352	0.135	1042704	keystroke_t	t	n/a
521.5915	0.12	1043183	keystroke_e	e	n/a
521.7265	0.105	1043453	keystroke_l	l	n/a
521.8615	0.135	1043723	keystroke_s	s	n/a
521.9815	0.105	1043963	keystroke_Key.space	Key.space	n/a
522.207	0.195	1044414	keystroke_b	b	n/a
522.327	0.135	1044654	keystroke_o	o	n/a
522.432	0.12	1044864	keystroke_r	r	n/a
522.687	0.075	1045374	keystroke_d	d	n/a
522.837	0.105	1045674	keystroke_e	e	n/a
523.0025	0.105	1046005	keystroke_r	r	n/a
523.242	0.15	1046484	keystroke_s	s	n/a
523.377	0.09	1046754	keystroke_Key.space	Key.space	n/a
523.767	0.105	1047534	keystroke_s	s	n/a
524.037	0.09	1048074	keystroke_a	a	n/a
524.247	0.1355	1048494	keystroke_s	s	n/a
524.4575	0.1045	1048915	keystroke_k	k	n/a
524.682	0.21	1049364	keystroke_a	a	n/a
525.402	0.105	1050804	keystroke_c	c	n/a
525.582	0.135	1051164	keystroke_h	h	n/a
525.822	0.12	1051644	keystroke_e	e	n/a
526.302	0.015	1052604	keystroke_w	w	n/a
526.8875	0.105	1053775	keystroke_a	a	n/a
527.0225	0.15	1054045	keystroke_n	n	n/a
527.1425	0.12	1054285	keystroke_Key.space	Key.space	n/a
527.682	0.105	1055364	keystroke_Key.backspace	Key.backspace	n/a
528.8375	0.075	1057675	keystroke_Key.backspace	Key.backspace	n/a
529.0175	0.06	1058035	keystroke_Key.backspace	Key.backspace	n/a
529.2275	0.075	1058455	keystroke_Key.backspace	Key.backspace	n/a
529.4075	0.06	1058815	keystroke_Key.backspace	Key.backspace	n/a
529.5725	0.09	1059145	keystroke_Key.backspace	Key.backspace	n/a
529.812	0.075	1059624	keystroke_Key.backspace	Key.backspace	n/a
530.607	0.075	1061214	keystroke_t	t	n/a
530.832	0.09	1061664	keystroke_c	c	n/a
530.937	0.1055	1061874	keystroke_h	h	n/a
531.0725	0.105	1062145	keystroke_e	e	n/a
531.3575	0.074	1062715	keystroke_w	w	n/a
531.8525	0.134	1063705	keystroke_a	a	n/a
532.0475	0.149	1064095	keystroke_n	n	n/a
532.902	0.12	1065804	keystroke_Key.enter	Key.enter	n/a
533.029	7.135	1066058	prompt	n/a	listen purposes perry divide\n
533.7565	0.18	1067513	keystroke_l	l	n/a
533.9215	0.12	1067843	keystroke_i	i	n/a
533.9815	0.106	1067963	keystroke_s	s	n/a
534.2215	0.0905	1068443	keystroke_t	t	n/a
534.432	0.1355	1068864	keystroke_e	e	n/a
534.5825	0.135	1069165	keystroke_n	n	n/a
534.6425	0.135	1069285	keystroke_Key.space	Key.space	n/a
534.8375	0.15	1069675	keystroke_p	p	n/a
535.1965	0.12	1070393	keystroke_u	u	n/a
535.3625	0.105	1070725	keystroke_r	r	n/a
535.4825	0.24	1070965	keystroke_p	p	n/a
535.6775	0.179	1071355	keystroke_o	o	n/a
535.9475	0.12	1071895	keystroke_s	s	n/a
536.1725	0.075	1072345	keystroke_e	e	n/a
536.3675	0.1945	1072735	keystroke_s	s	n/a
536.517	0.12	1073034	keystroke_Key.space	Key.space	n/a
536.667	0.135	1073334	keystroke_p	p	n/a
536.787	0.0905	1073574	keystroke_e	e	n/a
536.952	0.09	1073904	keystroke_r	r	n/a
537.117	0.135	1074234	keystroke_r	r	n/a
537.222	0.195	1074444	keystroke_y	y	n/a
537.357	0.1355	1074714	keystroke_Key.space	Key.space	n/a
538.947	0.09	1077894	keystroke_d	d	n/a
539.052	0.12	1078104	keystroke_i	i	n/a
539.217	0.09	1078434	keystroke_v	v	n/a
539.322	0.105	1078644	keystroke_i	i	n/a
539.5025	0.075	1079005	keystroke_d	d	n/a
539.6975	0.135	1079395	keystroke_e	e	n/a
540.0725	0.09	1080145	keystroke_Key.enter	Key.enter	n/a
540.1665	7.8875	1080333	prompt	n/a	frames liabilities objects nose\n
540.972	0.09	1081944	keystroke_f	f	n/a
541.152	0.075	1082304	keystroke_r	r	n/a
541.362	0.105	1082724	keystroke_a	a	n/a
541.527	0.105	1083054	keystroke_m	m	n/a
541.707	0.09	1083414	keystroke_e	e	n/a
541.917	0.12	1083834	keystroke_s	s	n/a
542.052	0.1055	1084104	keystroke_Key.space	Key.space	n/a
542.3525	0.18	1084705	keystroke_l	l	n/a
542.4725	0.15	1084945	keystroke_i	i	n/a
542.6075	0.15	1085215	keystroke_a	a	n/a
542.7725	0.225	1085545	keystroke_b	b	n/a
542.9525	0.1945	1085905	keystroke_i	i	n/a
543.118	0.39	1086236	keystroke_l	l	n/a
543.373	0.135	1086746	keystroke_i	i	n/a
544.2125	0.12	1088425	keystroke_t	t	n/a
544.4375	0.1205	1088875	keystroke_i	i	n/a
544.558	0.09	1089116	keystroke_e	e	n/a
544.753	0.105	1089506	keystroke_s	s	n/a
544.842	0.12	1089684	keystroke_Key.space	Key.space	n/a
545.683	0.195	1091366	keystroke_o	o	n/a
545.863	0.1795	1091726	keystroke_b	b	n/a
545.983	0.1945	1091966	keystroke_j	j	n/a
546.1175	0.12	1092235	keystroke_e	e	n/a
546.3725	0.12	1092745	keystroke_c	c	n/a
546.6275	0.09	1093255	keystroke_t	t	n/a
546.8975	0.12	1093795	keystroke_s	s	n/a
547.0025	0.105	1094005	keystroke_Key.space	Key.space	n/a
547.1825	0.18	1094365	keystroke_n	n	n/a
547.3025	0.18	1094605	keystroke_o	o	n/a
547.4675	0.09	1094935	keystroke_s	s	n/a
547.6775	0.135	1095355	keystroke_e	e	n/a
547.947	0.105	1095894	keystroke_Key.enter	Key.enter	n/a
548.057	12.537	1096114	prompt	n/a	recipient benchmark encoding accommodate\n
549.0575	0.09	1098115	keystroke_r	r	n/a
549.2525	0.09	1098505	keystroke_e	e	n/a
549.7175	0.06	1099435	keystroke_c	c	n/a
549.8675	0.15	1099735	keystroke_i	i	n/a
549.9875	0.21	1099975	keystroke_p	p	n/a
550.1675	0.15	1100335	keystroke_i	i	n/a
550.2725	0.15	1100545	keystroke_e	e	n/a
550.4225	0.135	1100845	keystroke_n	n	n/a
550.5875	0.135	1101175	keystroke_t	t	n/a
550.7075	0.075	1101415	keystroke_Key.space	Key.space	n/a
550.9025	0.12	1101805	keystroke_b	b	n/a
551.0075	0.075	1102015	keystroke_e	e	n/a
551.2475	0.075	1102495	keystroke_c	c	n/a
551.3375	0.075	1102675	keystroke_h	h	n/a
551.5625	0.12	1103125	keystroke_m	m	n/a
552.117	0.0605	1104234	keystroke_Key.backspace	Key.backspace	n/a
552.2675	0.075	1104535	keystroke_Key.backspace	Key.backspace	n/a
552.462	0.09	1104924	keystroke_Key.backspace	Key.backspace	n/a
552.702	0.03	1105404	keystroke_Key.backspace	Key.backspace	n/a
553.198	0.105	1106396	keystroke_e	e	n/a
553.333	0.12	1106666	keystroke_n	n	n/a
553.783	0.105	1107566	keystroke_c	c	n/a
553.918	0.105	1107836	keystroke_h	h	n/a
554.1425	0.12	1108285	keystroke_m	m	n/a
554.2325	0.105	1108465	keystroke_a	a	n/a
554.503	0.135	1109006	keystroke_r	r	n/a
554.608	0.225	1109216	keystroke_k	k	n/a
554.788	0.135	1109576	keystroke_Key.space	Key.space	n/a
555.403	0.09	1110806	keystroke_e	e	n/a
555.523	0.15	1111046	keystroke_n	n	n/a
555.838	0.075	1111676	keystroke_c	c	n/a
556.033	0.135	1112066	keystroke_o	o	n/a
556.228	0.105	1112456	keystroke_d	d	n/a
556.363	0.1795	1112726	keystroke_i	i	n/a
556.5275	0.135	1113055	keystroke_g	g	n/a
556.6025	0.135	1113205	keystroke_n	n	n/a
557.1725	0.06	1114345	keystroke_Key.backspace	Key.backspace	n/a
557.3075	0.105	1114615	keystroke_Key.backspace	Key.backspace	n/a
557.5625	0.12	1115125	keystroke_n	n	n/a
557.6675	0.075	1115335	keystroke_g	g	n/a
557.7875	0.105	1115575	keystroke_Key.space	Key.space	n/a
558.1925	0.105	1116385	keystroke_a	a	n/a
558.508	0.06	1117016	keystroke_c	c	n/a
558.643	0.075	1117286	keystroke_c	c	n/a
558.748	0.15	1117496	keystroke_o	o	n/a
558.943	0.09	1117886	keystroke_m	m	n/a
559.093	0.15	1118186	keystroke_m	m	n/a
559.167	0.166	1118334	keystroke_o	o	n/a
559.392	0.105	1118784	keystroke_d	d	n/a
559.6775	0.09	1119355	keystroke_a	a	n/a
559.9625	0.06	1119925	keystroke_t	t	n/a
560.2025	0.09	1120405	keystroke_e	e	n/a
560.5475	0.045	1121095	keystroke_Key.enter	Key.enter	n/a
560.597	7.992	1121194	prompt	n/a	originally millions hiking musician\n
561.2675	0.135	1122535	keystroke_o	o	n/a
561.4175	0.1045	1122835	keystroke_r	r	n/a
561.537	0.135	1123074	keystroke_i	i	n/a
561.657	0.105	1123314	keystroke_g	g	n/a
561.778	0.179	1123556	keystroke_i	i	n/a
561.882	0.15	1123764	keystroke_n	n	n/a
562.018	0.104	1124036	keystroke_a	a	n/a
562.167	0.09	1124334	keystroke_l	l	n/a
562.347	0.12	1124694	keystroke_l	l	n/a
562.482	0.105	1124964	keystroke_y	y	n/a
562.617	0.12	1125234	keystroke_Key.space	Key.space	n/a
562.842	0.225	1125684	keystroke_m	m	n/a
563.007	0.18	1126014	keystroke_i	i	n/a
563.217	0.09	1126434	keystroke_l	l	n/a
563.382	0.135	1126764	keystroke_l	l	n/a
563.5475	0.18	1127095	keystroke_i	i	n/a
563.7125	0.2095	1127425	keystroke_o	o	n/a
563.832	0.24	1127664	keystroke_n	n	n/a
563.982	0.24	1127964	keystroke_s	s	n/a
564.132	0.12	1128264	keystroke_Key.space	Key.space	n/a
564.9575	0.15	1129915	keystroke_h	h	n/a
565.0625	0.12	1130125	keystroke_i	i	n/a
565.2575	0.12	1130515	keystroke_k	k	n/a
565.4525	0.12	1130905	keystroke_i	i	n/a
565.527	0.1805	1131054	keystroke_n	n	n/a
565.6775	0.15	1131355	keystroke_g	g	n/a
565.7825	0.12	1131565	keystroke_Key.space	Key.space	n/a
566.0375	0.15	1132075	keystroke_m	m	n/a
566.3075	0.135	1132615	keystroke_u	u	n/a
566.4575	0.15	1132915	keystroke_s	s	n/a
566.6525	0.135	1133305	keystroke_i	i	n/a
566.8025	0.105	1133605	keystroke_c	c	n/a
567.147	0.105	1134294	keystroke_a	a	n/a
567.552	0.075	1135104	keystroke_Key.backspace	Key.backspace	n/a
567.747	0.1355	1135494	keystroke_i	i	n/a
567.8525	0.1805	1135705	keystroke_a	a	n/a
568.0025	0.12	1136005	keystroke_n	n	n/a
568.483	0.1045	1136966	keystroke_Key.enter	Key.enter	n/a
568.592	6.747	1137184	prompt	n/a	staffing campus pole soldiers\n
569.353	0.12	1138706	keystroke_s	s	n/a
569.6075	0.09	1139215	keystroke_t	t	n/a
569.7125	0.12	1139425	keystroke_a	a	n/a
569.9825	0.09	1139965	keystroke_f	f	n/a
570.1175	0.12	1140235	keystroke_f	f	n/a
570.2525	0.18	1140505	keystroke_i	i	n/a
570.3725	0.1805	1140745	keystroke_n	n	n/a
570.628	0.134	1141256	keystroke_g	g	n/a
570.792	0.1205	1141584	keystroke_Key.space	Key.space	n/a
571.3625	0.09	1142725	keystroke_c	c	n/a
571.5875	0.135	1143175	keystroke_a	a	n/a
571.6775	0.165	1143355	keystroke_m	m	n/a
571.7975	0.135	1143595	keystroke_p	p	n/a
572.0225	0.15	1144045	keystroke_u	u	n/a
572.1275	0.165	1144255	keystroke_s	s	n/a
572.3075	0.105	1144615	keystroke_Key.space	Key.space	n/a
572.5925	0.15	1145185	keystroke_p	p	n/a
572.7125	0.135	1145425	keystroke_o	o	n/a
572.9075	0.18	1145815	keystroke_l	l	n/a
573.0725	0.135	1146145	keystroke_e	e	n/a
573.2075	0.1045	1146415	keystroke_Key.space	Key.space	n/a
573.672	0.165	1147344	keystroke_s	s	n/a
573.807	0.076	1147614	keystroke_o	o	n/a
573.973	0.119	1147946	keystroke_l	l	n/a
574.122	0.121	1148244	keystroke_d	d	n/a
574.227	0.12	1148454	keystroke_i	i	n/a
574.378	0.0895	1148756	keystroke_e	e	n/a
574.5425	0.09	1149085	keystroke_r	r	n/a
574.7675	0.12	1149535	keystroke_s	s	n/a
575.2475	0.09	1150495	keystroke_Key.enter	Key.enter	n/a
575.3415	10.5275	1150683	prompt	n/a	beverages citation indication disks\n
576.2825	0.12	1152565	keystroke_b	b	n/a
576.4175	0.1355	1152835	keystroke_e	e	n/a
576.598	0.1195	1153196	keystroke_v	v	n/a
576.6725	0.105	1153345	keystroke_e	e	n/a
576.8375	0.09	1153675	keystroke_r	r	n/a
577.1075	0.135	1154215	keystroke_a	a	n/a
577.2275	0.105	1154455	keystroke_g	g	n/a
577.693	0.104	1155386	keystroke_e	e	n/a
577.977	0.075	1155954	keystroke_s	s	n/a
578.097	0.15	1156194	keystroke_Key.space	Key.space	n/a
578.922	0.105	1157844	keystroke_c	c	n/a
579.042	0.135	1158084	keystroke_i	i	n/a
579.192	0.075	1158384	keystroke_t	t	n/a
579.447	0.09	1158894	keystroke_a	a	n/a
579.717	0.12	1159434	keystroke_t	t	n/a
579.823	0.134	1159646	keystroke_i	i	n/a
579.942	0.241	1159884	keystroke_o	o	n/a
580.138	0.1945	1160276	keystroke_n	n	n/a
580.2875	0.12	1160575	keystroke_Key.space	Key.space	n/a
580.6775	0.24	1161355	keystroke_i	i	n/a
580.8575	0.15	1161715	keystroke_n	n	n/a
580.9625	0.135	1161925	keystroke_d	d	n/a
581.1425	0.165	1162285	keystroke_i	i	n/a
583.0625	0.09	1166125	keystroke_c	c	n/a
583.2725	0.105	1166545	keystroke_a	a	n/a
583.5875	0.105	1167175	keystroke_t	t	n/a
