onset	duration	sample	value	key	prompt_text
4.4425	22.1835	8885	prompt	n/a	the quick brown fox jumps over a lazy dog\n
9.7345	0.013	19469	keystroke	t	n/a
9.8075	0.075	19615	keystroke	h	n/a
10.1825	0.09	20365	keystroke	e	n/a
10.3325	0.09	20665	keystroke	Key.space	n/a
10.7375	0.075	21475	keystroke	q	n/a
10.9175	0.12	21835	keystroke	u	n/a
11.5625	0.075	23125	keystroke	i	n/a
11.8625	0.12	23725	keystroke	c	n/a
11.9975	0.075	23995	keystroke	k	n/a
12.2975	0.06	24595	keystroke	Key.space	n/a
14.0825	0.06	28165	keystroke	b	n/a
14.3675	0.075	28735	keystroke	r	n/a
14.4575	0.09	28915	keystroke	o	n/a
14.862	0.09	29724	keystroke	w	n/a
14.967	0.09	29934	keystroke	n	n/a
15.087	0.09	30174	keystroke	Key.space	n/a
15.297	0.09	30594	keystroke	f	n/a
15.402	0.0755	30804	keystroke	o	n/a
15.6725	0.075	31345	keystroke	x	n/a
16.063	0.075	32126	keystroke	Key.space	n/a
16.333	0.045	32666	keystroke	j	n/a
16.498	0.06	32996	keystroke	u	n/a
16.723	0.075	33446	keystroke	m	n/a
17.053	0.06	34106	keystroke	s	n/a
17.9975	0.09	35995	keystroke	Key.backspace	n/a
18.4325	0.06	36865	keystroke	p	n/a
18.5375	0.09	37075	keystroke	s	n/a
18.6875	0.075	37375	keystroke	Key.space	n/a
18.883	0.075	37766	keystroke	o	n/a
19.033	0.075	38066	keystroke	v	n/a
19.183	0.15	38366	keystroke	e	n/a
19.318	0.105	38636	keystroke	r	n/a
19.438	0.075	38876	keystroke	Key.space	n/a
19.618	0.105	39236	keystroke	a	n/a
19.708	0.045	39416	keystroke	Key.space	n/a
21.3575	0.075	42715	keystroke	l	n/a
21.7175	0.09	43435	keystroke	a	n/a
22.0625	0.0755	44125	keystroke	z	n/a
22.228	0.0895	44456	keystroke	y	n/a
22.4825	0.06	44965	keystroke	Key.space	n/a
22.6925	0.075	45385	keystroke	d	n/a
22.7525	0.09	45505	keystroke	i	n/a
23.0225	0.075	46045	keystroke	g	n/a
24.1475	0.06	48295	keystroke	Key.backspace	n/a
24.5375	0.045	49075	keystroke	Key.backspace	n/a
25.437	0.06	50874	keystroke	o	n/a
25.7225	0.075	51445	keystroke	g	n/a
26.518	0.105	53036	keystroke	Key.enter	n/a
26.633	21.0965	53266	prompt	n/a	presenting adapters speeches photos\n
28.2125	0.075	56425	keystroke	p	n/a
28.4075	0.135	56815	keystroke	r	n/a
28.5435	0.104	57087	keystroke	e	n/a
28.8725	0.09	57745	keystroke	s	n/a
29.0975	0.09	58195	keystroke	e	n/a
29.983	0.075	59966	keystroke	n	n/a
30.283	0.075	60566	keystroke	t	n/a
30.403	0.06	60806	keystroke	i	n/a
30.568	0.089	61136	keystroke	n	n/a
30.703	0.09	61406	keystroke	g	n/a
30.928	0.075	61856	keystroke	Key.space	n/a
31.153	0.09	62306	keystroke	a	n/a
31.378	0.075	62756	keystroke	d	n/a
31.588	0.09	63176	keystroke	a	n/a
31.723	0.075	63446	keystroke	o	n/a
31.993	0.075	63986	keystroke	t	n/a
32.158	0.1045	64316	keystroke	e	n/a
32.2325	0.105	64465	keystroke	r	n/a
32.5175	0.09	65035	keystroke	s	n/a
32.6375	0.075	65275	keystroke	Key.space	n/a
33.702	0.06	67404	keystroke	Key.backspace	n/a
33.942	0.06	67884	keystroke	Key.backspace	n/a
34.137	0.045	68274	keystroke	Key.backspace	n/a
34.287	0.06	68574	keystroke	Key.backspace	n/a
34.482	0.045	68964	keystroke	Key.backspace	n/a
34.797	0.075	69594	keystroke	Key.backspace	n/a
35.622	0.105	71244	keystroke	p	n/a
35.862	0.105	71724	keystroke	t	n/a
36.0875	0.15	72175	keystroke	e	n/a
36.2225	0.135	72445	keystroke	r	n/a
36.5375	0.105	73075	keystroke	s	n/a
36.8225	0.105	73645	keystroke	Key.space	n/a
37.1225	0.105	74245	keystroke	s	n/a
38.4875	0.105	76975	keystroke	p	n/a
38.8625	0.075	77725	keystroke	e	n/a
39.0275	0.105	78055	keystroke	e	n/a
39.4025	0.09	78805	keystroke	c	n/a
39.5225	0.1205	79045	keystroke	h	n/a
39.8075	0.09	79615	keystroke	e	n/a
40.1675	0.09	80335	keystroke	s	n/a
40.4675	0.12	80935	keystroke	Key.space	n/a
42.0875	0.105	84175	keystroke	p	n/a
42.3125	0.09	84625	keystroke	h	n/a
42.5975	0.105	85195	keystroke	o	n/a
42.8525	0.105	85705	keystroke	t	n/a
42.9875	0.105	85975	keystroke	o	n/a
43.4525	0.105	86905	keystroke	s	n/a
45.9895	0.088	91979	keystroke	'	n/a
46.9925	0.09	93985	keystroke	Key.backspace	n/a
47.6525	0.075	95305	keystroke	Key.enter	n/a
47.7325	11.202	95465	prompt	n/a	equipped accepted binding championship\n
49.0625	0.075	98125	keystroke	e	n/a
49.7225	0.075	99445	keystroke	q	n/a
49.7825	0.12	99565	keystroke	u	n/a
49.8875	0.15	99775	keystroke	i	n/a
50.3075	0.045	100615	keystroke	p	n/a
50.4275	0.09	100855	keystroke	p	n/a
50.6675	0.075	101335	keystroke	e	n/a
50.8775	0.09	101755	keystroke	d	n/a
51.0275	0.105	102055	keystroke	Key.space	n/a
51.418	0.06	102836	keystroke	a	n/a
51.628	0.06	103256	keystroke	c	n/a
51.763	0.09	103526	keystroke	c	n/a
51.958	0.135	103916	keystroke	e	n/a
52.333	0.045	104666	keystroke	p	n/a
52.468	0.105	104936	keystroke	t	n/a
52.648	0.075	105296	keystroke	e	n/a
52.858	0.09	105716	keystroke	d	n/a
52.963	0.075	105926	keystroke	Key.space	n/a
53.128	0.075	106256	keystroke	b	n/a
53.323	0.075	106646	keystroke	i	n/a
53.503	0.105	107006	keystroke	n	n/a
53.728	0.09	107456	keystroke	d	n/a
53.863	0.015	107726	keystroke	i	n/a
53.968	0.075	107936	keystroke	n	n/a
54.133	0.075	108266	keystroke	g	n/a
54.268	0.075	108536	keystroke	Key.space	n/a
54.553	0.045	109106	keystroke	c	n/a
54.643	0.09	109286	keystroke	h	n/a
55.3025	0.105	110605	keystroke	a	n/a
55.4375	0.075	110875	keystroke	m	n/a
55.9025	0.105	111805	keystroke	p	n/a
56.1875	0.12	112375	keystroke	i	n/a
56.5325	0.105	113065	keystroke	o	n/a
56.7575	0.105	113515	keystroke	n	n/a
57.1175	0.105	114235	keystroke	s	n/a
57.1925	0.075	114385	keystroke	h	n/a
57.3275	0.075	114655	keystroke	i	n/a
57.7025	0.105	115405	keystroke	p	n/a
58.8425	0.09	117685	keystroke	Key.enter	n/a
58.938	8.9965	117876	prompt	n/a	able jury scan principal\n
59.6825	0.105	119365	keystroke	a	n/a
60.4025	0.075	120805	keystroke	b	n/a
60.7925	0.09	121585	keystroke	l	n/a
60.9575	0.09	121915	keystroke	e	n/a
61.1525	0.075	122305	keystroke	Key.space	n/a
61.3625	0.075	122725	keystroke	j	n/a
61.5425	0.09	123085	keystroke	u	n/a
61.7075	0.075	123415	keystroke	r	n/a
61.8275	0.105	123655	keystroke	y	n/a
61.9925	0.06	123985	keystroke	Key.space	n/a
62.1125	0.06	124225	keystroke	s	n/a
62.3675	0.06	124735	keystroke	c	n/a
62.5175	0.105	125035	keystroke	a	n/a
62.6375	0.09	125275	keystroke	n	n/a
62.7725	0.075	125545	keystroke	Key.space	n/a
63.3125	0.09	126625	keystroke	o	n/a
64.633	0.09	129266	keystroke	Key.backspace	n/a
65.038	0.075	130076	keystroke	p	n/a
65.338	0.075	130676	keystroke	r	n/a
65.443	0.075	130886	keystroke	i	n/a
65.6525	0.075	131305	keystroke	n	n/a
65.8475	0.105	131695	keystroke	c	n/a
65.9375	0.105	131875	keystroke	i	n/a
66.2675	0.06	132535	keystroke	p	n/a
66.4775	0.075	132955	keystroke	a	n/a
66.5825	0.12	133165	keystroke	l	n/a
67.8425	0.09	135685	keystroke	Key.enter	n/a
67.9375	8.877	135875	prompt	n/a	having missed spirituality seekers\n
69.1475	0.09	138295	keystroke	h	n/a
69.3575	0.09	138715	keystroke	a	n/a
69.4625	0.09	138925	keystroke	v	n/a
69.7475	0.06	139495	keystroke	i	n/a
69.8825	0.09	139765	keystroke	n	n/a
70.0025	0.105	140005	keystroke	g	n/a
70.0925	0.09	140185	keystroke	Key.space	n/a
70.2725	0.09	140545	keystroke	m	n/a
70.4225	0.09	140845	keystroke	i	n/a
70.5725	0.075	141145	keystroke	s	n/a
70.7525	0.06	141505	keystroke	s	n/a
70.9175	0.075	141835	keystroke	e	n/a
71.1125	0.09	142225	keystroke	d	n/a
71.2325	0.075	142465	keystroke	Key.space	n/a
71.5775	0.105	143155	keystroke	s	n/a
71.7275	0.09	143455	keystroke	p	n/a
71.9825	0.075	143965	keystroke	i	n/a
72.2075	0.09	144415	keystroke	r	n/a
72.3425	0.09	144685	keystroke	i	n/a
72.6575	0.105	145315	keystroke	t	n/a
72.7775	0.12	145555	keystroke	u	n/a
73.0775	0.105	146155	keystroke	a	n/a
73.3025	0.12	146605	keystroke	l	n/a
73.6025	0.105	147205	keystroke	i	n/a
73.8575	0.09	147715	keystroke	t	n/a
74.0075	0.105	148015	keystroke	y	n/a
74.2625	0.075	148525	keystroke	Key.space	n/a
74.4125	0.105	148825	keystroke	s	n/a
74.6525	0.06	149305	keystroke	e	n/a
74.7875	0.09	149575	keystroke	e	n/a
74.8925	0.09	149785	keystroke	k	n/a
74.9975	0.09	149995	keystroke	e	n/a
75.1775	0.075	150355	keystroke	r	n/a
75.4025	0.09	150805	keystroke	s	n/a
76.7225	0.09	153445	keystroke	Key.enter	n/a
76.8175	10.0925	153635	prompt	n/a	clusters administrator west childhood\n
77.863	0.09	155726	keystroke	c	n/a
78.148	0.09	156296	keystroke	l	n/a
78.343	0.09	156686	keystroke	u	n/a
78.493	0.105	156986	keystroke	s	n/a
78.733	0.12	157466	keystroke	t	n/a
78.913	0.12	157826	keystroke	e	n/a
79.018	0.12	158036	keystroke	r	n/a
79.303	0.09	158606	keystroke	s	n/a
79.453	0.075	158906	keystroke	Key.space	n/a
79.603	0.105	159206	keystroke	a	n/a
79.843	0.075	159686	keystroke	d	n/a
79.948	0.09	159896	keystroke	m	n/a
80.083	0.105	160166	keystroke	i	n/a
80.263	0.06	160526	keystroke	n	n/a
80.368	0.105	160736	keystroke	i	n/a
80.518	0.105	161036	keystroke	s	n/a
80.713	0.12	161426	keystroke	t	n/a
80.938	0.075	161876	keystroke	r	n/a
81.103	0.075	162206	keystroke	a	n/a
81.298	0.075	162596	keystroke	t	n/a
81.403	0.09	162806	keystroke	o	n/a
81.598	0.075	163196	keystroke	r	n/a
81.778	0.075	163556	keystroke	Key.space	n/a
81.898	0.105	163796	keystroke	w	n/a
82.033	0.09	164066	keystroke	e	n/a
82.243	0.105	164486	keystroke	s	n/a
83.128	0.09	166256	keystroke	t	n/a
83.878	0.09	167756	keystroke	Key.space	n/a
84.568	0.075	169136	keystroke	c	n/a
84.673	0.075	169346	keystroke	h	n/a
84.823	0.105	169646	keystroke	i	n/a
85.108	0.09	170216	keystroke	l	n/a
85.258	0.09	170516	keystroke	d	n/a
85.528	0.075	171056	keystroke	h	n/a
85.738	0.045	171476	keystroke	o	n/a
85.843	0.105	171686	keystroke	o	n/a
86.068	0.06	172136	keystroke	d	n/a
86.818	0.09	173636	keystroke	Key.enter	n/a
86.918	10.5365	173836	prompt	n/a	adopt shan't negotiation vietnam\n
88.558	0.12	177116	keystroke	a	n/a
88.767	0.075	177534	keystroke	d	n/a
89.068	0.075	178136	keystroke	o	n/a
89.638	0.09	179276	keystroke	p	n/a
90.133	0.09	180266	keystroke	t	n/a
90.282	0.09	180564	keystroke	Key.space	n/a
90.477	0.091	180954	keystroke	s	n/a
90.612	0.076	181224	keystroke	h	n/a
90.718	0.12	181436	keystroke	a	n/a
90.898	0.105	181796	keystroke	n	n/a
91.978	0.105	183956	keystroke	'	n/a
92.383	0.09	184766	keystroke	t	n/a
92.533	0.09	185066	keystroke	Key.space	n/a
92.788	0.105	185576	keystroke	n	n/a
92.938	0.075	185876	keystroke	e	n/a
93.103	0.105	186206	keystroke	g	n/a
93.508	0.075	187016	keystroke	o	n/a
93.733	0.075	187466	keystroke	t	n/a
93.853	0.105	187706	keystroke	i	n/a
94.123	0.105	188246	keystroke	a	n/a
94.378	0.105	188756	keystroke	t	n/a
94.453	0.075	188906	keystroke	i	n/a
94.633	0.075	189266	keystroke	o	n/a
94.858	0.09	189716	keystroke	n	n/a
94.978	0.09	189956	keystroke	Key.space	n/a
95.173	0.03	190346	keystroke	v	n/a
95.473	0.06	190946	keystroke	i	n/a
95.608	0.09	191216	keystroke	e	n/a
95.818	0.09	191636	keystroke	t	n/a
95.983	0.089	191966	keystroke	n	n/a
96.133	0.12	192266	keystroke	a	n/a
96.268	0.075	192536	keystroke	m	n/a
97.348	0.105	194696	keystroke	Key.enter	n/a
97.4575	8.457	194915	prompt	n/a	drama tags democracy surname\n
98.082	0.105	196164	keystroke	d	n/a
98.308	0.074	196616	keystroke	r	n/a
98.502	0.091	197004	keystroke	a	n/a
98.608	0.12	197216	keystroke	m	n/a
98.772	0.105	197544	keystroke	a	n/a
98.997	0.09	197994	keystroke	Key.space	n/a
99.162	0.09	198324	keystroke	t	n/a
99.387	0.12	198774	keystroke	a	n/a
99.522	0.09	199044	keystroke	g	n/a
99.822	0.075	199644	keystroke	s	n/a
100.242	0.105	200484	keystroke	Key.space	n/a
100.527	0.075	201054	keystroke	d	n/a
100.737	0.09	201474	keystroke	e	n/a
100.842	0.075	201684	keystroke	m	n/a
101.037	0.075	202074	keystroke	o	n/a
101.352	0.0605	202704	keystroke	c	n/a
101.577	0.09	203154	keystroke	r	n/a
101.757	0.09	203514	keystroke	a	n/a
102.132	0.105	204264	keystroke	c	n/a
102.297	0.075	204594	keystroke	y	n/a
102.882	0.075	205764	keystroke	Key.space	n/a
103.257	0.09	206514	keystroke	s	n/a
103.423	0.075	206846	keystroke	u	n/a
103.662	0.0765	207324	keystroke	r	n/a
103.902	0.09	207804	keystroke	n	n/a
104.1575	0.09	208315	keystroke	a	n/a
104.2775	0.09	208555	keystroke	m	n/a
104.9225	0.105	209845	keystroke	e	n/a
105.7925	0.12	211585	keystroke	Key.enter	n/a
105.9175	10.1965	211835	prompt	n/a	vary graduates montana rendered\n
106.7975	0.09	213595	keystroke	v	n/a
107.0525	0.105	214105	keystroke	a	n/a
107.2325	0.12	214465	keystroke	r	n/a
107.4125	0.105	214825	keystroke	y	n/a
107.5625	0.09	215125	keystroke	Key.space	n/a
107.9675	0.075	215935	keystroke	g	n/a
108.1775	0.075	216355	keystroke	r	n/a
108.3725	0.09	216745	keystroke	a	n/a
108.5675	0.075	217135	keystroke	d	n/a
108.6875	0.09	217375	keystroke	u	n/a
108.8375	0.105	217675	keystroke	a	n/a
109.0625	0.09	218125	keystroke	t	n/a
109.2575	0.075	218515	keystroke	e	n/a
109.5575	0.09	219115	keystroke	s	n/a
109.6925	0.075	219385	keystroke	Key.space	n/a
109.8875	0.06	219775	keystroke	m	n/a
110.0375	0.075	220075	keystroke	o	n/a
110.2175	0.075	220435	keystroke	n	n/a
110.3375	0.09	220675	keystroke	t	n/a
110.5475	0.075	221095	keystroke	a	n/a
110.6675	0.075	221335	keystroke	n	n/a
110.7725	0.09	221545	keystroke	a	n/a
110.9075	0.075	221815	keystroke	Key.space	n/a
111.1175	0.09	222235	keystroke	r	n/a
111.2075	0.09	222415	keystroke	e	n/a
111.4025	0.105	222805	keystroke	n	n/a
111.9425	0.075	223885	keystroke	d	n/a
112.1525	0.09	224305	keystroke	e	n/a
112.2575	0.12	224515	keystroke	r	n/a
112.3925	0.09	224785	keystroke	e	n/a
112.6775	0.09	225355	keystroke	d	n/a
116.0695	0.043	232139	keystroke	Key.enter	n/a
116.1175	8.6665	232235	prompt	n/a	happening prescription layer done\n
116.8325	0.105	233665	keystroke	h	n/a
116.9825	0.09	233965	keystroke	a	n/a
117.2675	0.075	234535	keystroke	p	n/a
117.4025	0.075	234805	keystroke	p	n/a
117.5825	0.09	235165	keystroke	e	n/a
117.7475	0.09	235495	keystroke	n	n/a
117.9125	0.075	235825	keystroke	i	n/a
118.0625	0.075	236125	keystroke	n	n/a
118.1975	0.105	236395	keystroke	g	n/a
118.3175	0.06	236635	keystroke	Key.space	n/a
118.7225	0.105	237445	keystroke	r	n/a
118.8425	0.09	237685	keystroke	e	n/a
119.458	0.0445	238916	keystroke	Key.backspace	n/a
119.5925	0.075	239185	keystroke	Key.backspace	n/a
120.5375	0.09	241075	keystroke	p	n/a
120.7325	0.09	241465	keystroke	r	n/a
120.8375	0.105	241675	keystroke	e	n/a
121.1525	0.075	242305	keystroke	s	n/a
121.3475	0.09	242695	keystroke	c	n/a
121.5875	0.105	243175	keystroke	r	n/a
121.6775	0.09	243355	keystroke	i	n/a
121.9175	0.075	243835	keystroke	p	n/a
122.0975	0.0905	244195	keystroke	t	n/a
122.218	0.09	244436	keystroke	i	n/a
122.383	0.09	244766	keystroke	o	n/a
122.593	0.09	245186	keystroke	n	n/a
122.683	0.075	245366	keystroke	Key.space	n/a
122.863	0.075	245726	keystroke	l	n/a
123.028	0.12	246056	keystroke	a	n/a
123.178	0.075	246356	keystroke	y	n/a
123.313	0.105	246626	keystroke	e	n/a
123.388	0.105	246776	keystroke	r	n/a
123.523	0.09	247046	keystroke	Key.space	n/a
123.778	0.015	247556	keystroke	d	n/a
123.808	0.06	247616	keystroke	o	n/a
123.973	0.09	247946	keystroke	n	n/a
124.123	0.09	248246	keystroke	e	n/a
124.678	0.105	249356	keystroke	Key.enter	n/a
124.7875	5.6515	249575	prompt	n/a	chemical grande iron wage\n
125.368	0.105	250736	keystroke	c	n/a
125.458	0.09	250916	keystroke	h	n/a
125.683	0.09	251366	keystroke	e	n/a
125.788	0.075	251576	keystroke	m	n/a
125.923	0.075	251846	keystroke	i	n/a
126.028	0.09	252056	keystroke	c	n/a
126.193	0.105	252386	keystroke	a	n/a
126.313	0.12	252626	keystroke	l	n/a
126.418	0.105	252836	keystroke	Key.space	n/a
126.628	0.075	253256	keystroke	g	n/a
127.093	0.075	254186	keystroke	r	n/a
127.273	0.105	254546	keystroke	a	n/a
127.408	0.075	254816	keystroke	n	n/a
127.588	0.09	255176	keystroke	d	n/a
128.083	0.075	256166	keystroke	e	n/a
128.263	0.045	256526	keystroke	Key.space	n/a
128.428	0.09	256856	keystroke	i	n/a
128.623	0.06	257246	keystroke	r	n/a
128.698	0.075	257396	keystroke	o	n/a
128.938	0.089	257876	keystroke	n	n/a
129.042	0.091	258084	keystroke	Key.space	n/a
129.268	0.075	258536	keystroke	w	n/a
129.433	0.105	258866	keystroke	a	n/a
129.598	0.09	259196	keystroke	g	n/a
129.928	0.075	259856	keystroke	e	n/a
130.287	0.15	260574	keystroke	Key.enter	n/a
130.442	5.5775	260884	prompt	n/a	arrest who'd have lance\n
131.202	0.091	262404	keystroke	a	n/a
131.458	0.075	262916	keystroke	r	n/a
131.592	0.121	263184	keystroke	r	n/a
131.742	0.091	263484	keystroke	e	n/a
131.983	0.059	263966	keystroke	s	n/a
132.223	0.089	264446	keystroke	t	n/a
132.357	0.075	264714	keystroke	Key.space	n/a
132.553	0.089	265106	keystroke	w	n/a
132.627	0.075	265254	keystroke	h	n/a
132.853	0.075	265706	keystroke	o	n/a
133.783	0.059	267566	keystroke	'	n/a
134.143	0.074	268286	keystroke	d	n/a
134.232	0.09	268464	keystroke	Key.space	n/a
134.457	0.09	268914	keystroke	h	n/a
134.607	0.121	269214	keystroke	a	n/a
134.7125	0.0595	269425	keystroke	v	n/a
134.878	0.0745	269756	keystroke	e	n/a
134.937	0.075	269874	keystroke	Key.space	n/a
135.147	0.06	270294	keystroke	l	n/a
135.252	0.105	270504	keystroke	a	n/a
135.402	0.06	270804	keystroke	n	n/a
135.522	0.09	271044	keystroke	c	n/a
135.687	0.105	271374	keystroke	e	n/a
135.957	0.06	271914	keystroke	Key.enter	n/a
136.023	7.6915	272046	prompt	n/a	nasty leaving educational imports\n
137.472	0.105	274944	keystroke	n	n/a
137.622	0.1205	275244	keystroke	a	n/a
137.8775	0.09	275755	keystroke	s	n/a
138.0725	0.09	276145	keystroke	t	n/a
138.3275	0.105	276655	keystroke	y	n/a
138.4775	0.0905	276955	keystroke	Key.space	n/a
138.688	0.075	277376	keystroke	l	n/a
138.808	0.09	277616	keystroke	e	n/a
139.003	0.09	278006	keystroke	a	n/a
139.078	0.09	278156	keystroke	v	n/a
139.318	0.045	278636	keystroke	i	n/a
139.453	0.075	278906	keystroke	n	n/a
139.573	0.06	279146	keystroke	g	n/a
139.663	0.09	279326	keystroke	Key.space	n/a
139.828	0.09	279656	keystroke	e	n/a
140.083	0.09	280166	keystroke	d	n/a
140.203	0.105	280406	keystroke	u	n/a
140.458	0.075	280916	keystroke	c	n/a
140.623	0.12	281246	keystroke	a	n/a
140.878	0.09	281756	keystroke	t	n/a
140.983	0.06	281966	keystroke	i	n/a
141.148	0.045	282296	keystroke	o	n/a
141.328	0.074	282656	keystroke	n	n/a
141.418	0.12	282836	keystroke	a	n/a
141.553	0.09	283106	keystroke	l	n/a
141.657	0.075	283314	keystroke	Key.space	n/a
141.808	0.075	283616	keystroke	i	n/a
141.987	0.091	283974	keystroke	m	n/a
142.213	0.045	284426	keystroke	p	n/a
142.393	0.059	284786	keystroke	o	n/a
142.483	0.075	284966	keystroke	r	n/a
142.662	0.06	285324	keystroke	t	n/a
142.873	0.105	285746	keystroke	s	n/a
143.592	0.12	287184	keystroke	Key.enter	n/a
143.7185	9.2055	287437	prompt	n/a	outstanding settings lower carried\n
145.273	0.09	290546	keystroke	o	n/a
145.348	0.09	290696	keystroke	u	n/a
145.558	0.075	291116	keystroke	t	n/a
145.903	0.09	291806	keystroke	s	n/a
146.038	0.09	292076	keystroke	t	n/a
146.158	0.12	292316	keystroke	a	n/a
146.323	0.09	292646	keystroke	n	n/a
146.473	0.09	292946	keystroke	d	n/a
146.593	0.03	293186	keystroke	i	n/a
146.728	0.09	293456	keystroke	n	n/a
146.893	0.075	293786	keystroke	g	n/a
147.088	0.09	294176	keystroke	Key.space	n/a
147.448	0.075	294896	keystroke	s	n/a
147.703	0.075	295406	keystroke	e	n/a
147.883	0.059	295766	keystroke	t	n/a
148.018	0.09	296036	keystroke	t	n/a
148.123	0.044	296246	keystroke	i	n/a
148.242	0.076	296484	keystroke	n	n/a
148.363	0.09	296726	keystroke	g	n/a
148.633	0.09	297266	keystroke	s	n/a
148.738	0.074	297476	keystroke	Key.space	n/a
148.963	0.075	297926	keystroke	l	n/a
149.128	0.074	298256	keystroke	o	n/a
149.248	0.134	298496	keystroke	w	n/a
149.517	0.06	299034	keystroke	e	n/a
150.132	0.075	300264	keystroke	r	n/a
150.282	0.09	300564	keystroke	Key.space	n/a
150.987	0.03	301974	keystroke	c	n/a
151.197	0.09	302394	keystroke	a	n/a
151.482	0.06	302964	keystroke	r	n/a
151.617	0.09	303234	keystroke	r	n/a
151.737	0.09	303474	keystroke	i	n/a
151.842	0.105	303684	keystroke	e	n/a
152.067	0.0755	304134	keystroke	d	n/a
152.8475	0.075	305695	keystroke	Key.enter	n/a
152.927	6.867	305854	prompt	n/a	proposal card competing store\n
154.1525	0.09	308305	keystroke	p	n/a
154.3625	0.075	308725	keystroke	r	n/a
154.4385	0.074	308877	keystroke	o	n/a
154.6625	0.06	309325	keystroke	p	n/a
154.8725	0.06	309745	keystroke	o	n/a
154.9625	0.09	309925	keystroke	s	n/a
155.1875	0.09	310375	keystroke	a	n/a
155.2925	0.09	310585	keystroke	l	n/a
155.4275	0.09	310855	keystroke	Key.space	n/a
155.6075	0.075	311215	keystroke	c	n/a
155.8025	0.09	311605	keystroke	a	n/a
155.9825	0.075	311965	keystroke	r	n/a
156.1775	0.0755	312355	keystroke	d	n/a
156.5975	0.09	313195	keystroke	Key.space	n/a
156.9125	0.06	313825	keystroke	c	n/a
157.0175	0.075	314035	keystroke	o	n/a
157.2125	0.075	314425	keystroke	m	n/a
157.4375	0.06	314875	keystroke	p	n/a
157.5725	0.09	315145	keystroke	e	n/a
157.7675	0.105	315535	keystroke	t	n/a
157.8875	0.06	315775	keystroke	i	n/a
158.0525	0.06	316105	keystroke	n	n/a
158.1575	0.09	316315	keystroke	g	n/a
158.2925	0.075	316585	keystroke	Key.space	n/a
158.4575	0.09	316915	keystroke	s	n/a
158.6825	0.105	317365	keystroke	t	n/a
158.8175	0.075	317635	keystroke	o	n/a
158.9225	0.12	317845	keystroke	r	n/a
159.0575	0.075	318115	keystroke	e	n/a
159.7175	0.075	319435	keystroke	Key.enter	n/a
159.7975	7.5415	319595	prompt	n/a	dogs parking occurred ontario\n
161.0075	0.105	322015	keystroke	d	n/a
161.2025	0.0905	322405	keystroke	o	n/a
161.398	0.089	322796	keystroke	g	n/a
161.667	0.09	323334	keystroke	s	n/a
161.787	0.09	323574	keystroke	Key.space	n/a
162.072	0.075	324144	keystroke	p	n/a
162.238	0.104	324476	keystroke	a	n/a
162.447	0.09	324894	keystroke	r	n/a
162.553	0.075	325106	keystroke	k	n/a
162.717	0.076	325434	keystroke	i	n/a
162.883	0.075	325766	keystroke	n	n/a
162.973	0.09	325946	keystroke	g	n/a
163.092	0.045	326184	keystroke	Key.space	n/a
163.273	0.075	326546	keystroke	o	n/a
163.422	0.075	326844	keystroke	c	n/a
163.572	0.09	327144	keystroke	c	n/a
163.707	0.09	327414	keystroke	u	n/a
163.872	0.06	327744	keystroke	r	n/a
164.007	0.076	328014	keystroke	r	n/a
164.172	0.06	328344	keystroke	e	n/a
164.412	0.06	328824	keystroke	d	n/a
164.473	0.089	328946	keystroke	Key.space	n/a
164.652	0.061	329304	keystroke	o	n/a
164.952	0.09	329904	keystroke	t	n/a
165.432	0.075	330864	keystroke	Key.backspace	n/a
165.807	0.075	331614	keystroke	n	n/a
165.927	0.09	331854	keystroke	t	n/a
166.152	0.105	332304	keystroke	a	n/a
166.332	0.105	332664	keystroke	r	n/a
166.422	0.09	332844	keystroke	i	n/a
166.617	0.09	333234	keystroke	o	n/a
167.247	0.09	334494	keystroke	Key.enter	n/a
167.3435	8.516	334687	prompt	n/a	basename revealed permitted instrument\n
168.177	0.09	336354	keystroke	b	n/a
168.312	0.12	336624	keystroke	a	n/a
168.492	0.09	336984	keystroke	s	n/a
168.672	0.105	337344	keystroke	e	n/a
168.942	0.075	337884	keystroke	n	n/a
169.062	0.075	338124	keystroke	a	n/a
169.182	0.09	338364	keystroke	m	n/a
169.287	0.09	338574	keystroke	e	n/a
169.437	0.075	338874	keystroke	Key.space	n/a
169.617	0.105	339234	keystroke	r	n/a
169.737	0.09	339474	keystroke	e	n/a
170.502	0.12	341004	keystroke	v	n/a
170.937	0.06	341874	keystroke	e	n/a
171.147	0.1205	342294	keystroke	a	n/a
171.5825	0.09	343165	keystroke	l	n/a
172.1675	0.12	344335	keystroke	e	n/a
172.4375	0.09	344875	keystroke	d	n/a
172.5575	0.06	345115	keystroke	Key.space	n/a
172.7675	0.06	345535	keystroke	p	n/a
172.8875	0.135	345775	keystroke	e	n/a
172.9925	0.135	345985	keystroke	r	n/a
173.1725	0.075	346345	keystroke	m	n/a
173.2925	0.105	346585	keystroke	i	n/a
173.4875	0.045	346975	keystroke	t	n/a
173.5925	0.09	347185	keystroke	t	n/a
173.8775	0.015	347755	keystroke	e	n/a
173.9525	0.09	347905	keystroke	d	n/a
174.0725	0.09	348145	keystroke	Key.space	n/a
174.2075	0.075	348415	keystroke	i	n/a
174.3725	0.075	348745	keystroke	n	n/a
174.4625	0.09	348925	keystroke	s	n/a
174.6725	0.075	349345	keystroke	t	n/a
174.8525	0.075	349705	keystroke	r	n/a
174.9875	0.09	349975	keystroke	u	n/a
175.2275	0.075	350455	keystroke	m	n/a
175.3325	0.105	350665	keystroke	e	n/a
175.4675	0.075	350935	keystroke	n	n/a
175.6025	0.075	351205	keystroke	t	n/a
175.7375	0.12	351475	keystroke	Key.enter	n/a
175.864	14.905	351728	prompt	n/a	maryland station coat attempts\n
176.5475	0.105	353095	keystroke	m	n/a
176.6675	0.09	353335	keystroke	a	n/a
176.8325	0.09	353665	keystroke	y	n/a
177.1175	0.075	354235	keystroke	l	n/a
177.2075	0.105	354415	keystroke	a	n/a
177.3275	0.09	354655	keystroke	n	n/a
177.4475	0.09	354895	keystroke	d	n/a
177.5675	0.09	355135	keystroke	Key.space	n/a
177.7175	0.075	355435	keystroke	s	n/a
177.8975	0.075	355795	keystroke	t	n/a
178.092	0.091	356184	keystroke	a	n/a
178.273	0.09	356546	keystroke	t	n/a
178.408	0.09	356816	keystroke	i	n/a
178.602	0.045	357204	keystroke	o	n/a
178.783	0.104	357566	keystroke	n	n/a
178.917	0.076	357834	keystroke	Key.space	n/a
179.8325	0.075	359665	keystroke	Key.backspace	n/a
180.103	0.0745	360206	keystroke	Key.backspace	n/a
180.403	0.075	360806	keystroke	Key.backspace	n/a
180.6575	0.06	361315	keystroke	Key.backspace	n/a
180.958	0.06	361916	keystroke	Key.backspace	n/a
181.213	0.075	362426	keystroke	Key.backspace	n/a
181.498	0.06	362996	keystroke	Key.backspace	n/a
181.753	0.075	363506	keystroke	Key.backspace	n/a
182.023	0.06	364046	keystroke	Key.backspace	n/a
182.263	0.075	364526	keystroke	Key.backspace	n/a
182.533	0.09	365066	keystroke	Key.backspace	n/a
182.788	0.09	365576	keystroke	Key.backspace	n/a
183.058	0.075	366116	keystroke	Key.backspace	n/a
183.403	0.09	366806	keystroke	Key.backspace	n/a
184.228	0.075	368456	keystroke	r	n/a
184.318	0.075	368636	keystroke	y	n/a
184.948	0.075	369896	keystroke	l	n/a
185.098	0.12	370196	keystroke	a	n/a
185.233	0.09	370466	keystroke	n	n/a
185.473	0.075	370946	keystroke	d	n/a
185.833	0.105	371666	keystroke	Key.space	n/a
186.073	0.09	372146	keystroke	s	n/a
186.268	0.09	372536	keystroke	t	n/a
186.508	0.075	373016	keystroke	a	n/a
186.688	0.09	373376	keystroke	t	n/a
186.808	0.09	373616	keystroke	i	n/a
187.003	0.06	374006	keystroke	o	n/a
187.213	0.09	374426	keystroke	n	n/a
187.363	0.075	374726	keystroke	Key.space	n/a
187.573	0.0895	375146	keystroke	c	n/a
187.6635	0.089	375327	keystroke	o	n/a
187.8425	0.075	375685	keystroke	a	n/a
188.0525	0.06	376105	keystroke	t	n/a
188.1575	0.09	376315	keystroke	Key.space	n/a
188.338	0.0895	376676	keystroke	a	n/a
188.5775	0.06	377155	keystroke	t	n/a
188.7275	0.075	377455	keystroke	t	n/a
188.9075	0.075	377815	keystroke	e	n/a
188.9525	0.09	377905	keystroke	m	n/a
189.1775	0.075	378355	keystroke	p	n/a
189.3275	0.09	378655	keystroke	t	n/a
189.6275	0.09	379255	keystroke	s	n/a
190.6625	0.105	381325	keystroke	Key.enter	n/a
190.7725	11.2765	381545	prompt	n/a	nick discipline gather bobby\n
195.195	0.013	390390	keystroke	n	n/a
195.328	0.09	390656	keystroke	i	n/a
195.523	0.075	391046	keystroke	c	n/a
195.673	0.105	391346	keystroke	k	n/a
195.973	0.06	391946	keystroke	Key.space	n/a
196.138	0.105	392276	keystroke	d	n/a
196.258	0.075	392516	keystroke	i	n/a
196.393	0.09	392786	keystroke	s	n/a
196.603	0.09	393206	keystroke	c	n/a
196.753	0.075	393506	keystroke	i	n/a
197.788	0.09	395576	keystroke	p	n/a
198.043	0.075	396086	keystroke	l	n/a
198.238	0.075	396476	keystroke	i	n/a
198.448	0.09	396896	keystroke	n	n/a
198.628	0.09	397256	keystroke	e	n/a
198.793	0.09	397586	keystroke	Key.space	n/a
198.973	0.09	397946	keystroke	g	n/a
199.243	0.09	398486	keystroke	a	n/a
199.483	0.09	398966	keystroke	t	n/a
199.588	0.105	399176	keystroke	h	n/a
199.708	0.135	399416	keystroke	e	n/a
199.813	0.12	399626	keystroke	r	n/a
199.978	0.105	399956	keystroke	Key.space	n/a
200.158	0.06	400316	keystroke	b	n/a
200.383	0.06	400766	keystroke	o	n/a
200.593	0.06	401186	keystroke	b	n/a
200.713	0.06	401426	keystroke	b	n/a
201.208	0.09	402416	keystroke	y	n/a
201.973	0.075	403946	keystroke	Key.enter	n/a
202.052	8.2475	404104	prompt	n/a	dynamics simulations four acceptable\n
203.323	0.09	406646	keystroke	d	n/a
203.413	0.075	406826	keystroke	y	n/a
203.698	0.09	407396	keystroke	n	n/a
203.833	0.12	407666	keystroke	a	n/a
203.998	0.09	407996	keystroke	m	n/a
204.163	0.09	408326	keystroke	i	n/a
204.373	0.075	408746	keystroke	c	n/a
204.598	0.075	409196	keystroke	s	n/a
204.718	0.09	409436	keystroke	Key.space	n/a
204.913	0.075	409826	keystroke	s	n/a
205.003	0.09	410006	keystroke	i	n/a
205.183	0.09	410366	keystroke	m	n/a
205.378	0.075	410756	keystroke	u	n/a
205.663	0.075	411326	keystroke	l	n/a
205.798	0.09	411596	keystroke	a	n/a
206.022	0.091	412044	keystroke	t	n/a
206.142	0.076	412284	keystroke	i	n/a
206.338	0.074	412676	keystroke	o	n/a
206.547	0.076	413094	keystroke	n	n/a
206.683	0.089	413366	keystroke	s	n/a
206.847	0.105	413694	keystroke	Key.space	n/a
207.042	0.09	414084	keystroke	f	n/a
207.193	0.15	414386	keystroke	o	n/a
207.328	0.09	414656	keystroke	u	n/a
207.598	0.06	415196	keystroke	r	n/a
207.867	0.075	415734	keystroke	Key.space	n/a
208.032	0.076	416064	keystroke	a	n/a
208.272	0.061	416544	keystroke	c	n/a
208.407	0.09	416814	keystroke	c	n/a
208.618	0.089	417236	keystroke	e	n/a
208.752	0.076	417504	keystroke	p	n/a
208.947	0.075	417894	keystroke	t	n/a
209.218	0.075	418436	keystroke	a	n/a
209.307	0.06	418614	keystroke	b	n/a
209.547	0.075	419094	keystroke	l	n/a
209.698	0.09	419396	keystroke	e	n/a
210.178	0.12	420356	keystroke	Key.enter	n/a
210.3025	7.0465	420605	prompt	n/a	initiated setup serum easily\n
211.978	0.105	423956	keystroke	i	n/a
212.203	0.075	424406	keystroke	n	n/a
212.413	0.075	424826	keystroke	i	n/a
212.608	0.09	425216	keystroke	t	n/a
212.713	0.075	425426	keystroke	i	n/a
212.878	0.12	425756	keystroke	a	n/a
213.103	0.09	426206	keystroke	t	n/a
213.283	0.105	426566	keystroke	e	n/a
213.493	0.075	426986	keystroke	d	n/a
213.598	0.105	427196	keystroke	Key.space	n/a
213.733	0.09	427466	keystroke	s	n/a
213.898	0.105	427796	keystroke	e	n/a
214.153	0.075	428306	keystroke	t	n/a
214.258	0.075	428516	keystroke	u	n/a
214.498	0.075	428996	keystroke	p	n/a
214.753	0.075	429506	keystroke	Key.space	n/a
214.918	0.06	429836	keystroke	s	n/a
215.128	0.045	430256	keystroke	e	n/a
215.278	0.075	430556	keystroke	r	n/a
215.398	0.0895	430796	keystroke	u	n/a
215.653	0.09	431306	keystroke	m	n/a
215.758	0.09	431516	keystroke	Key.space	n/a
215.893	0.09	431786	keystroke	e	n/a
216.088	0.105	432176	keystroke	a	n/a
216.283	0.105	432566	keystroke	s	n/a
216.418	0.075	432836	keystroke	i	n/a
216.643	0.06	433286	keystroke	l	n/a
216.853	0.09	433706	keystroke	y	n/a
217.258	0.09	434516	keystroke	Key.enter	n/a
217.3525	6.4465	434705	prompt	n/a	button voltage costa sofa\n
218.1125	0.06	436225	keystroke	b	n/a
218.2775	0.06	436555	keystroke	u	n/a
218.3975	0.06	436795	keystroke	t	n/a
218.5325	0.105	437065	keystroke	t	n/a
218.6675	0.075	437335	keystroke	o	n/a
218.8775	0.075	437755	keystroke	n	n/a
218.9375	0.105	437875	keystroke	Key.space	n/a
219.1475	0.06	438295	keystroke	v	n/a
219.5375	0.045	439075	keystroke	o	n/a
219.7325	0.105	439465	keystroke	l	n/a
220.0925	0.09	440185	keystroke	t	n/a
220.3175	0.09	440635	keystroke	a	n/a
220.4225	0.09	440845	keystroke	g	n/a
220.5725	0.09	441145	keystroke	e	n/a
220.6775	0.0605	441355	keystroke	Key.space	n/a
220.9025	0.09	441805	keystroke	c	n/a
221.0225	0.09	442045	keystroke	o	n/a
221.1875	0.09	442375	keystroke	s	n/a
221.3825	0.09	442765	keystroke	t	n/a
221.6075	0.09	443215	keystroke	a	n/a
221.7575	0.09	443515	keystroke	Key.space	n/a
221.9525	0.075	443905	keystroke	s	n/a
222.0425	0.09	444085	keystroke	o	n/a
222.2375	0.06	444475	keystroke	f	n/a
222.447	0.091	444894	keystroke	a	n/a
223.722	0.075	447444	keystroke	Key.enter	n/a
223.811	9.918	447622	prompt	n/a	regression kingdom babe painting\n
224.638	0.149	449276	keystroke	r	n/a
224.772	0.105	449544	keystroke	e	n/a
225.0125	0.06	450025	keystroke	g	n/a
225.1775	0.105	450355	keystroke	r	n/a
225.2975	0.105	450595	keystroke	e	n/a
225.5675	0.06	451135	keystroke	s	n/a
225.7325	0.075	451465	keystroke	s	n/a
225.8675	0.09	451735	keystroke	i	n/a
226.0775	0.075	452155	keystroke	o	n/a
226.332	0.075	452664	keystroke	n	n/a
226.692	0.075	453384	keystroke	Key.space	n/a
226.902	0.09	453804	keystroke	g	n/a
227.052	0.075	454104	keystroke	i	n/a
227.4875	0.09	454975	keystroke	n	n/a
227.773	0.06	455546	keystroke	g	n/a
228.478	0.075	456956	keystroke	Key.backspace	n/a
228.778	0.075	457556	keystroke	Key.backspace	n/a
229.003	0.06	458006	keystroke	Key.backspace	n/a
229.183	0.06	458366	keystroke	Key.backspace	n/a
229.7225	0.075	459445	keystroke	k	n/a
229.903	0.06	459806	keystroke	i	n/a
230.083	0.105	460166	keystroke	n	n/a
230.308	0.075	460616	keystroke	g	n/a
230.623	0.075	461246	keystroke	d	n/a
230.713	0.09	461426	keystroke	o	n/a
230.968	0.105	461936	keystroke	m	n/a
231.553	0.075	463106	keystroke	Key.space	n/a
231.7475	0.075	463495	keystroke	b	n/a
231.8525	0.105	463705	keystroke	a	n/a
232.017	0.09	464034	keystroke	b	n/a
232.227	0.09	464454	keystroke	e	n/a
232.377	0.09	464754	keystroke	Key.space	n/a
232.603	0.06	465206	keystroke	p	n/a
232.708	0.075	465416	keystroke	a	n/a
232.858	0.06	465716	keystroke	i	n/a
233.023	0.06	466046	keystroke	n	n/a
233.112	0.09	466224	keystroke	t	n/a
233.218	0.06	466436	keystroke	i	n/a
233.338	0.075	466676	keystroke	n	n/a
233.487	0.061	466974	keystroke	g	n/a
233.638	0.09	467276	keystroke	Key.enter	n/a
233.732	6.4925	467464	prompt	n/a	weird appointment disney arrange\n
234.568	0.09	469136	keystroke	w	n/a
234.717	0.105	469434	keystroke	e	n/a
234.883	0.075	469766	keystroke	i	n/a
235.018	0.074	470036	keystroke	r	n/a
235.197	0.09	470394	keystroke	d	n/a
235.3175	0.1045	470635	keystroke	Key.space	n/a
235.437	0.105	470874	keystroke	a	n/a
235.588	0.074	471176	keystroke	p	n/a
235.722	0.09	471444	keystroke	p	n/a
235.932	0.06	471864	keystroke	o	n/a
236.112	0.045	472224	keystroke	i	n/a
236.248	0.09	472496	keystroke	n	n/a
236.353	0.089	472706	keystroke	t	n/a
236.532	0.076	473064	keystroke	m	n/a
236.637	0.105	473274	keystroke	e	n/a
236.757	0.075	473514	keystroke	n	n/a
236.907	0.075	473814	keystroke	t	n/a
237.042	0.09	474084	keystroke	Key.space	n/a
237.222	0.075	474444	keystroke	d	n/a
237.312	0.09	474624	keystroke	i	n/a
237.477	0.075	474954	keystroke	s	n/a
237.643	0.074	475286	keystroke	n	n/a
237.972	0.06	475944	keystroke	e	n/a
238.0925	0.09	476185	keystroke	y	n/a
238.2125	0.075	476425	keystroke	Key.space	n/a
238.3325	0.09	476665	keystroke	a	n/a
238.4975	0.09	476995	keystroke	r	n/a
238.6475	0.09	477295	keystroke	r	n/a
238.8575	0.075	477715	keystroke	a	n/a
238.9925	0.09	477985	keystroke	n	n/a
239.2475	0.075	478495	keystroke	g	n/a
239.863	0.09	479726	keystroke	e	n/a
240.148	0.075	480296	keystroke	Key.enter	n/a
240.2275	5.6815	480455	prompt	n/a	aviation spears outlet interior\n
240.973	0.09	481946	keystroke	a	n/a
241.213	0.075	482426	keystroke	v	n/a
241.333	0.09	482666	keystroke	i	n/a
241.483	0.135	482966	keystroke	a	n/a
241.738	0.09	483476	keystroke	t	n/a
241.858	0.075	483716	keystroke	i	n/a
242.038	0.06	484076	keystroke	o	n/a
242.233	0.06	484466	keystroke	n	n/a
242.278	0.09	484556	keystroke	Key.space	n/a
242.398	0.105	484796	keystroke	s	n/a
242.518	0.09	485036	keystroke	p	n/a
242.668	0.135	485336	keystroke	e	n/a
242.848	0.12	485696	keystroke	a	n/a
243.013	0.09	486026	keystroke	r	n/a
243.208	0.105	486416	keystroke	s	n/a
243.328	0.09	486656	keystroke	Key.space	n/a
243.538	0.09	487076	keystroke	o	n/a
243.583	0.09	487166	keystroke	u	n/a
243.703	0.089	487406	keystroke	t	n/a
243.883	0.075	487766	keystroke	l	n/a
244.063	0.075	488126	keystroke	e	n/a
244.228	0.105	488456	keystroke	t	n/a
244.347	0.091	488694	keystroke	Key.space	n/a
244.483	0.075	488966	keystroke	i	n/a
244.753	0.015	489506	keystroke	n	n/a
244.783	0.089	489566	keystroke	t	n/a
244.963	0.105	489926	keystroke	e	n/a
245.098	0.12	490196	keystroke	r	n/a
245.262	0.076	490524	keystroke	i	n/a
245.472	0.075	490944	keystroke	o	n/a
245.577	0.091	491154	keystroke	r	n/a
245.817	0.09	491634	keystroke	Key.enter	n/a
245.912	6.657	491824	prompt	n/a	ourselves visit alcohol jackson\n
246.703	0.105	493406	keystroke	o	n/a
246.928	0.09	493856	keystroke	u	n/a
247.198	0.089	494396	keystroke	r	n/a
247.452	0.105	494904	keystroke	s	n/a
247.647	0.075	495294	keystroke	e	n/a
247.752	0.076	495504	keystroke	l	n/a
247.932	0.075	495864	keystroke	v	n/a
248.0975	0.075	496195	keystroke	e	n/a
248.3225	0.06	496645	keystroke	s	n/a
248.4275	0.09	496855	keystroke	Key.space	n/a
248.7575	0.075	497515	keystroke	v	n/a
249.1025	0.075	498205	keystroke	i	n/a
249.2525	0.075	498505	keystroke	s	n/a
249.403	0.0745	498806	keystroke	i	n/a
249.6125	0.0905	499225	keystroke	t	n/a
249.7625	0.09	499525	keystroke	Key.space	n/a
249.9275	0.105	499855	keystroke	a	n/a
250.0775	0.09	500155	keystroke	l	n/a
250.3175	0.06	500635	keystroke	c	n/a
250.4225	0.06	500845	keystroke	o	n/a
250.6175	0.075	501235	keystroke	h	n/a
250.7825	0.075	501565	keystroke	o	n/a
250.9925	0.075	501985	keystroke	l	n/a
251.0975	0.075	502195	keystroke	Key.space	n/a
251.2625	0.0905	502525	keystroke	j	n/a
251.368	0.075	502736	keystroke	a	n/a
251.5625	0.0755	503125	keystroke	c	n/a
251.668	0.075	503336	keystroke	k	n/a
251.788	0.105	503576	keystroke	s	n/a
252.043	0.06	504086	keystroke	o	n/a
252.223	0.075	504446	keystroke	n	n/a
252.493	0.075	504986	keystroke	Key.enter	n/a
252.5735	9.9705	505147	prompt	n/a	immune accessibility stayed ipaq\n
253.303	0.06	506606	keystroke	i	n/a
253.513	0.075	507026	keystroke	m	n/a
253.648	0.105	507296	keystroke	m	n/a
253.843	0.09	507686	keystroke	u	n/a
254.008	0.06	508016	keystroke	n	n/a
254.173	0.075	508346	keystroke	i	n/a
254.863	0.06	509726	keystroke	Key.backspace	n/a
255.808	0.075	511616	keystroke	e	n/a
255.958	0.105	511916	keystroke	Key.space	n/a
256.213	0.075	512426	keystroke	a	n/a
256.453	0.075	512906	keystroke	c	n/a
256.603	0.09	513206	keystroke	c	n/a
256.753	0.09	513506	keystroke	e	n/a
256.978	0.06	513956	keystroke	s	n/a
257.143	0.075	514286	keystroke	s	n/a
257.923	0.075	515846	keystroke	i	n/a
258.103	0.089	516206	keystroke	b	n/a
258.298	0.089	516596	keystroke	i	n/a
258.538	0.06	517076	keystroke	l	n/a
258.703	0.074	517406	keystroke	i	n/a
258.883	0.09	517766	keystroke	t	n/a
259.003	0.089	518006	keystroke	y	n/a
259.107	0.09	518214	keystroke	Key.space	n/a
259.362	0.031	518724	keystroke	s	n/a
259.483	0.105	518966	keystroke	t	n/a
259.752	0.1055	519504	keystroke	a	n/a
260.007	0.09	520014	keystroke	y	n/a
260.143	0.074	520286	keystroke	e	n/a
260.323	0.089	520646	keystroke	d	n/a
260.427	0.09	520854	keystroke	Key.space	n/a
260.622	0.09	521244	keystroke	i	n/a
261.2375	0.06	522475	keystroke	p	n/a
261.4325	0.06	522865	keystroke	a	n/a
261.7175	0.09	523435	keystroke	q	n/a
262.4525	0.09	524905	keystroke	Key.enter	n/a
262.5475	5.9665	525095	prompt	n/a	knows receives lines mexican\n
263.3825	0.105	526765	keystroke	k	n/a
263.5475	0.075	527095	keystroke	n	n/a
263.7275	0.075	527455	keystroke	o	n/a
263.8325	0.075	527665	keystroke	w	n/a
264.0275	0.09	528055	keystroke	s	n/a
264.1625	0.12	528325	keystroke	Key.space	n/a
264.433	0.1045	528866	keystroke	r	n/a
264.5675	0.09	529135	keystroke	e	n/a
264.808	0.09	529616	keystroke	c	n/a
265.123	0.075	530246	keystroke	e	n/a
265.258	0.075	530516	keystroke	i	n/a
265.408	0.075	530816	keystroke	v	n/a
265.603	0.075	531206	keystroke	e	n/a
265.798	0.09	531596	keystroke	s	n/a
265.903	0.06	531806	keystroke	Key.space	n/a
266.098	0.06	532196	keystroke	l	n/a
266.293	0.045	532586	keystroke	i	n/a
266.473	0.045	532946	keystroke	n	n/a
266.563	0.06	533126	keystroke	e	n/a
266.728	0.105	533456	keystroke	s	n/a
266.848	0.09	533696	keystroke	Key.space	n/a
267.028	0.12	534056	keystroke	m	n/a
267.163	0.09	534326	keystroke	e	n/a
267.433	0.075	534866	keystroke	x	n/a
267.658	0.075	535316	keystroke	i	n/a
267.838	0.045	535676	keystroke	c	n/a
268.003	0.09	536006	keystroke	a	n/a
268.078	0.105	536156	keystroke	n	n/a
268.438	0.075	536876	keystroke	Key.enter	n/a
268.5165	6.5375	537033	prompt	n/a	healing beaver elimination covering\n
269.338	0.12	538676	keystroke	h	n/a
269.488	0.075	538976	keystroke	e	n/a
269.608	0.104	539216	keystroke	a	n/a
269.728	0.06	539456	keystroke	l	n/a
269.908	0.044	539816	keystroke	i	n/a
270.012	0.105	540024	keystroke	n	n/a
270.132	0.075	540264	keystroke	g	n/a
270.208	0.074	540416	keystroke	Key.space	n/a
270.358	0.089	540716	keystroke	b	n/a
270.462	0.09	540924	keystroke	e	n/a
270.612	0.105	541224	keystroke	a	n/a
270.7625	0.0745	541525	keystroke	v	n/a
270.942	0.09	541884	keystroke	e	n/a
271.048	0.134	542096	keystroke	r	n/a
271.197	0.09	542394	keystroke	Key.space	n/a
271.392	0.075	542784	keystroke	e	n/a
271.527	0.09	543054	keystroke	l	n/a
271.692	0.09	543384	keystroke	i	n/a
271.857	0.091	543714	keystroke	m	n/a
272.007	0.106	544014	keystroke	i	n/a
272.187	0.075	544374	keystroke	n	n/a
272.322	0.06	544644	keystroke	a	n/a
272.502	0.09	545004	keystroke	t	n/a
272.607	0.12	545214	keystroke	i	n/a
272.832	0.075	545664	keystroke	o	n/a
273.057	0.075	546114	keystroke	n	n/a
273.222	0.09	546444	keystroke	Key.space	n/a
273.447	0.09	546894	keystroke	c	n/a
273.642	0.075	547284	keystroke	o	n/a
274.017	0.075	548034	keystroke	v	n/a
274.227	0.135	548454	keystroke	e	n/a
274.347	0.09	548694	keystroke	r	n/a
274.467	0.075	548934	keystroke	i	n/a
274.617	0.075	549234	keystroke	n	n/a
274.752	0.09	549504	keystroke	g	n/a
274.962	0.09	549924	keystroke	Key.enter	n/a
275.0565	7.2425	550113	prompt	n/a	soldier confidential researchers lesbians\n
275.772	0.09	551544	keystroke	s	n/a
275.832	0.09	551664	keystroke	o	n/a
276.042	0.06	552084	keystroke	l	n/a
276.177	0.09	552354	keystroke	d	n/a
276.297	0.09	552594	keystroke	i	n/a
276.432	0.09	552864	keystroke	e	n/a
276.537	0.105	553074	keystroke	r	n/a
276.657	0.09	553314	keystroke	Key.space	n/a
276.927	0.105	553854	keystroke	c	n/a
277.047	0.045	554094	keystroke	o	n/a
277.212	0.06	554424	keystroke	n	n/a
277.347	0.09	554694	keystroke	f	n/a
277.437	0.075	554874	keystroke	i	n/a
277.617	0.075	555234	keystroke	d	n/a
277.752	0.09	555504	keystroke	e	n/a
277.857	0.09	555714	keystroke	n	n/a
277.992	0.09	555984	keystroke	t	n/a
278.142	0.075	556284	keystroke	i	n/a
278.307	0.12	556614	keystroke	a	n/a
278.428	0.074	556856	keystroke	l	n/a
278.517	0.09	557034	keystroke	Key.space	n/a
278.712	0.135	557424	keystroke	r	n/a
278.817	0.105	557634	keystroke	e	n/a
279.072	0.105	558144	keystroke	s	n/a
279.3125	0.075	558625	keystroke	e	n/a
279.5675	0.075	559135	keystroke	a	n/a
279.7625	0.075	559525	keystroke	r	n/a
280.0475	0.09	560095	keystroke	c	n/a
280.1525	0.075	560305	keystroke	h	n/a
280.303	0.1045	560606	keystroke	e	n/a
280.4525	0.09	560905	keystroke	r	n/a
280.6475	0.105	561295	keystroke	s	n/a
280.7825	0.075	561565	keystroke	Key.space	n/a
280.9775	0.075	561955	keystroke	l	n/a
281.0975	0.09	562195	keystroke	e	n/a
281.3075	0.105	562615	keystroke	s	n/a
281.4425	0.09	562885	keystroke	b	n/a
281.6525	0.06	563305	keystroke	i	n/a
281.7425	0.105	563485	keystroke	a	n/a
281.8325	0.09	563665	keystroke	n	n/a
281.9975	0.075	563995	keystroke	s	n/a
282.2375	0.06	564475	keystroke	Key.enter	n/a
282.302	6.717	564604	prompt	n/a	creating specialized limited metal\n
283.1225	0.06	566245	keystroke	c	n/a
283.3025	0.105	566605	keystroke	r	n/a
283.4225	0.105	566845	keystroke	e	n/a
283.6025	0.12	567205	keystroke	a	n/a
283.8575	0.09	567715	keystroke	t	n/a
284.3225	0.075	568645	keystroke	i	n/a
284.5025	0.06	569005	keystroke	n	n/a
284.6225	0.075	569245	keystroke	g	n/a
284.7275	0.105	569455	keystroke	Key.space	n/a
284.8925	0.12	569785	keystroke	s	n/a
285.0425	0.06	570085	keystroke	p	n/a
285.1475	0.09	570295	keystroke	e	n/a
285.3575	0.09	570715	keystroke	c	n/a
285.4775	0.075	570955	keystroke	i	n/a
285.6575	0.09	571315	keystroke	a	n/a
285.7925	0.075	571585	keystroke	l	n/a
285.9725	0.075	571945	keystroke	i	n/a
286.1225	0.09	572245	keystroke	z	n/a
286.3475	0.075	572695	keystroke	e	n/a
286.5125	0.105	573025	keystroke	d	n/a
286.6025	0.09	573205	keystroke	Key.space	n/a
286.7825	0.075	573565	keystroke	l	n/a
286.9625	0.06	573925	keystroke	i	n/a
287.1425	0.06	574285	keystroke	m	n/a
287.2625	0.075	574525	keystroke	i	n/a
287.3975	0.105	574795	keystroke	t	n/a
287.5625	0.09	575125	keystroke	e	n/a
287.7575	0.09	575515	keystroke	d	n/a
287.8625	0.09	575725	keystroke	Key.space	n/a
288.0575	0.105	576115	keystroke	m	n/a
288.1475	0.075	576295	keystroke	e	n/a
288.3275	0.075	576655	keystroke	t	n/a
288.5525	0.105	577105	keystroke	a	n/a
288.6725	0.09	577345	keystroke	l	n/a
288.9575	0.06	577915	keystroke	Key.enter	n/a
289.022	5.4875	578044	prompt	n/a	necklace conducting dialog prep\n
289.7825	0.09	579565	keystroke	n	n/a
289.8875	0.09	579775	keystroke	e	n/a
290.1125	0.06	580225	keystroke	c	n/a
290.2025	0.09	580405	keystroke	k	n/a
290.4125	0.075	580825	keystroke	l	n/a
290.4725	0.09	580945	keystroke	a	n/a
290.6675	0.09	581335	keystroke	c	n/a
290.8325	0.09	581665	keystroke	e	n/a
290.938	0.1045	581876	keystroke	Key.space	n/a
291.1025	0.09	582205	keystroke	c	n/a
291.1775	0.0755	582355	keystroke	o	n/a
291.358	0.075	582716	keystroke	n	n/a
291.508	0.09	583016	keystroke	d	n/a
291.583	0.09	583166	keystroke	u	n/a
291.718	0.09	583436	keystroke	c	n/a
291.973	0.075	583946	keystroke	t	n/a
292.063	0.06	584126	keystroke	i	n/a
292.168	0.09	584336	keystroke	n	n/a
292.288	0.09	584576	keystroke	g	n/a
292.363	0.09	584726	keystroke	Key.space	n/a
292.558	0.09	585116	keystroke	d	n/a
292.633	0.105	585266	keystroke	i	n/a
292.783	0.075	585566	keystroke	a	n/a
292.978	0.06	585956	keystroke	l	n/a
293.113	0.075	586226	keystroke	o	n/a
293.293	0.06	586586	keystroke	g	n/a
293.368	0.09	586736	keystroke	Key.space	n/a
293.578	0.075	587156	keystroke	p	n/a
293.668	0.12	587336	keystroke	r	n/a
293.773	0.105	587546	keystroke	e	n/a
294.013	0.075	588026	keystroke	p	n/a
294.418	0.09	588836	keystroke	Key.enter	n/a
294.514	6.8955	589028	prompt	n/a	python shops counseling ridge\n
295.663	0.06	591326	keystroke	p	n/a
295.918	0.105	591836	keystroke	y	n/a
296.143	0.09	592286	keystroke	t	n/a
296.233	0.075	592466	keystroke	h	n/a
296.563	0.075	593126	keystroke	o	n/a
296.878	0.06	593756	keystroke	Key.space	n/a
297.238	0.075	594476	keystroke	Key.backspace	n/a
297.568	0.09	595136	keystroke	n	n/a
297.748	0.075	595496	keystroke	Key.space	n/a
297.928	0.105	595856	keystroke	s	n/a
298.018	0.09	596036	keystroke	h	n/a
298.228	0.075	596456	keystroke	o	n/a
298.438	0.06	596876	keystroke	p	n/a
298.663	0.105	597326	keystroke	s	n/a
298.783	0.105	597566	keystroke	Key.space	n/a
298.978	0.12	597956	keystroke	c	n/a
299.083	0.1045	598166	keystroke	o	n/a
299.158	0.0745	598316	keystroke	u	n/a
299.3525	0.09	598705	keystroke	n	n/a
299.5325	0.075	599065	keystroke	s	n/a
299.6975	0.075	599395	keystroke	e	n/a
299.7875	0.09	599575	keystroke	l	n/a
299.9525	0.075	599905	keystroke	i	n/a
300.0875	0.075	600175	keystroke	n	n/a
300.1925	0.09	600385	keystroke	g	n/a
300.2975	0.075	600595	keystroke	Key.space	n/a
300.4775	0.06	600955	keystroke	r	n/a
300.5675	0.075	601135	keystroke	i	n/a
300.7775	0.06	601555	keystroke	d	n/a
300.8975	0.09	601795	keystroke	g	n/a
301.0475	0.09	602095	keystroke	e	n/a
301.3175	0.09	602635	keystroke	Key.enter	n/a
301.412	8.667	602824	prompt	n/a	we'll damage self advantages\n
302.3825	0.1195	604765	keystroke	w	n/a
302.5175	0.135	605035	keystroke	e	n/a
303.5675	0.09	607135	keystroke	'	n/a
304.1975	0.045	608395	keystroke	l	n/a
304.3325	0.075	608665	keystroke	l	n/a
304.4225	0.09	608845	keystroke	Key.space	n/a
304.5725	0.105	609145	keystroke	d	n/a
304.8275	0.105	609655	keystroke	a	n/a
304.9775	0.12	609955	keystroke	m	n/a
305.1425	0.09	610285	keystroke	a	n/a
305.3375	0.105	610675	keystroke	g	n/a
305.4875	0.105	610975	keystroke	e	n/a
305.6075	0.09	611215	keystroke	Key.space	n/a
305.7425	0.09	611485	keystroke	s	n/a
305.9525	0.06	611905	keystroke	e	n/a
306.0275	0.105	612055	keystroke	l	n/a
306.3425	0.06	612685	keystroke	v	n/a
306.958	0.0445	613916	keystroke	Key.backspace	n/a
307.3025	0.075	614605	keystroke	f	n/a
307.4675	0.09	614935	keystroke	Key.space	n/a
307.6925	0.0905	615385	keystroke	a	n/a
308.0225	0.075	616045	keystroke	d	n/a
308.308	0.075	616616	keystroke	v	n/a
308.563	0.09	617126	keystroke	a	n/a
308.623	0.105	617246	keystroke	n	n/a
308.818	0.06	617636	keystroke	t	n/a
309.028	0.075	618056	keystroke	a	n/a
309.118	0.09	618236	keystroke	g	n/a
309.238	0.09	618476	keystroke	e	n/a
309.478	0.09	618956	keystroke	s	n/a
309.988	0.09	619976	keystroke	Key.enter	n/a
310.082	9.402	620164	prompt	n/a	fees closely gaps ranking\n
311.083	0.09	622166	keystroke	f	n/a
311.518	0.09	623036	keystroke	e	n/a
311.683	0.09	623366	keystroke	e	n/a
311.938	0.09	623876	keystroke	s	n/a
312.058	0.105	624116	keystroke	Key.space	n/a
312.328	0.09	624656	keystroke	c	n/a
312.448	0.045	624896	keystroke	k	n/a
312.628	0.075	625256	keystroke	i	n/a
312.808	0.06	625616	keystroke	s	n/a
313.287	0.075	626574	keystroke	Key.backspace	n/a
313.572	0.0605	627144	keystroke	Key.backspace	n/a
313.812	0.075	627624	keystroke	Key.backspace	n/a
314.412	0.075	628824	keystroke	l	n/a
314.593	0.074	629186	keystroke	o	n/a
314.757	0.075	629514	keystroke	s	n/a
314.968	0.074	629936	keystroke	e	n/a
315.088	0.075	630176	keystroke	l	n/a
315.327	0.06	630654	keystroke	y	n/a
315.537	0.09	631074	keystroke	Key.space	n/a
315.838	0.09	631676	keystroke	g	n/a
317.083	0.075	634166	keystroke	a	n/a
317.308	0.06	634616	keystroke	p	n/a
317.5625	0.0745	635125	keystroke	s	n/a
317.742	0.075	635484	keystroke	Key.space	n/a
317.967	0.09	635934	keystroke	r	n/a
318.177	0.09	636354	keystroke	a	n/a
318.432	0.06	636864	keystroke	n	n/a
318.627	0.075	637254	keystroke	k	n/a
318.777	0.06	637554	keystroke	i	n/a
318.912	0.09	637824	keystroke	n	n/a
319.047	0.075	638094	keystroke	g	n/a
319.3925	0.09	638785	keystroke	Key.enter	n/a
319.487	7.647	638974	prompt	n/a	were barcelona submitted navigate\n
320.5625	0.135	641125	keystroke	w	n/a
320.7125	0.09	641425	keystroke	e	n/a
320.9075	0.105	641815	keystroke	r	n/a
320.9975	0.105	641995	keystroke	e	n/a
321.1475	0.0905	642295	keystroke	Key.space	n/a
321.388	0.075	642776	keystroke	b	n/a
321.553	0.09	643106	keystroke	a	n/a
321.718	0.075	643436	keystroke	r	n/a
321.988	0.075	643976	keystroke	c	n/a
322.138	0.09	644276	keystroke	e	n/a
322.2425	0.0755	644485	keystroke	l	n/a
322.408	0.06	644816	keystroke	o	n/a
322.602	0.06	645204	keystroke	n	n/a
322.707	0.105	645414	keystroke	a	n/a
322.827	0.09	645654	keystroke	Key.space	n/a
322.992	0.105	645984	keystroke	s	n/a
323.127	0.09	646254	keystroke	u	n/a
323.832	0.075	647664	keystroke	b	n/a
324.1925	0.0595	648385	keystroke	m	n/a
324.342	0.06	648684	keystroke	i	n/a
324.5375	0.075	649075	keystroke	t	n/a
324.6875	0.075	649375	keystroke	t	n/a
324.8525	0.075	649705	keystroke	e	n/a
325.0625	0.075	650125	keystroke	d	n/a
325.5875	0.0905	651175	keystroke	Key.space	n/a
325.813	0.075	651626	keystroke	n	n/a
325.933	0.105	651866	keystroke	a	n/a
326.053	0.06	652106	keystroke	v	n/a
326.248	0.075	652496	keystroke	i	n/a
326.353	0.09	652706	keystroke	g	n/a
326.593	0.0595	653186	keystroke	a	n/a
326.773	0.075	653546	keystroke	t	n/a
326.923	0.075	653846	keystroke	e	n/a
327.043	0.09	654086	keystroke	Key.enter	n/a
327.139	7.135	654278	prompt	n/a	historical shield sales publishers\n
327.942	0.091	655884	keystroke	h	n/a
328.198	0.06	656396	keystroke	i	n/a
328.363	0.09	656726	keystroke	s	n/a
328.573	0.074	657146	keystroke	t	n/a
328.678	0.075	657356	keystroke	o	n/a
328.813	0.075	657626	keystroke	r	n/a
328.932	0.075	657864	keystroke	i	n/a
329.068	0.075	658136	keystroke	c	n/a
329.248	0.104	658496	keystroke	a	n/a
329.3675	0.0745	658735	keystroke	l	n/a
329.457	0.075	658914	keystroke	Key.space	n/a
329.577	0.105	659154	keystroke	s	n/a
329.667	0.06	659334	keystroke	h	n/a
329.817	0.09	659634	keystroke	i	n/a
329.997	0.075	659994	keystroke	e	n/a
330.103	0.075	660206	keystroke	l	n/a
330.297	0.061	660594	keystroke	d	n/a
330.417	0.075	660834	keystroke	Key.space	n/a
330.552	0.06	661104	keystroke	s	n/a
330.687	0.105	661374	keystroke	a	n/a
330.822	0.045	661644	keystroke	l	n/a
331.107	0.075	662214	keystroke	e	n/a
331.317	0.105	662634	keystroke	s	n/a
331.482	0.075	662964	keystroke	Key.space	n/a
331.902	0.045	663804	keystroke	p	n/a
332.127	0.075	664254	keystroke	u	n/a
332.367	0.045	664734	keystroke	b	n/a
332.592	0.06	665184	keystroke	l	n/a
332.772	0.075	665544	keystroke	i	n/a
332.907	0.09	665814	keystroke	s	n/a
332.982	0.105	665964	keystroke	h	n/a
333.177	0.06	666354	keystroke	e	n/a
333.357	0.045	666714	keystroke	r	n/a
333.582	0.09	667164	keystroke	s	n/a
334.212	0.06	668424	keystroke	Key.enter	n/a
334.277	7.047	668554	prompt	n/a	prophet mandatory voice purse\n
335.1275	0.075	670255	keystroke	p	n/a
335.5475	0.09	671095	keystroke	r	n/a
335.6825	0.06	671365	keystroke	o	n/a
335.9525	0.06	671905	keystroke	p	n/a
336.1925	0.06	672385	keystroke	h	n/a
336.2825	0.075	672565	keystroke	e	n/a
336.4775	0.06	672955	keystroke	t	n/a
336.5525	0.09	673105	keystroke	Key.space	n/a
337.1075	0.09	674215	keystroke	m	n/a
337.2125	0.105	674425	keystroke	a	n/a
337.3325	0.09	674665	keystroke	n	n/a
337.5275	0.075	675055	keystroke	d	n/a
337.6325	0.075	675265	keystroke	i	n/a
338.1725	0.075	676345	keystroke	Key.backspace	n/a
338.3375	0.075	676675	keystroke	a	n/a
338.5625	0.09	677125	keystroke	t	n/a
338.7125	0.06	677425	keystroke	o	n/a
338.8925	0.09	677785	keystroke	r	n/a
339.0125	0.09	678025	keystroke	y	n/a
339.1625	0.075	678325	keystroke	Key.space	n/a
339.4175	0.075	678835	keystroke	v	n/a
339.5525	0.06	679105	keystroke	o	n/a
339.732	0.075	679464	keystroke	i	n/a
339.882	0.075	679764	keystroke	c	n/a
340.0325	0.075	680065	keystroke	e	n/a
340.1525	0.105	680305	keystroke	Key.space	n/a
340.3925	0.045	680785	keystroke	p	n/a
340.6325	0.06	681265	keystroke	u	n/a
340.7225	0.09	681445	keystroke	r	n/a
340.917	0.06	681834	keystroke	s	n/a
341.067	0.075	682134	keystroke	e	n/a
341.232	0.09	682464	keystroke	Key.enter	n/a
341.3275	9.237	682655	prompt	n/a	tennessee elimination posting immunology\n
342.1475	0.09	684295	keystroke	t	n/a
342.3125	0.09	684625	keystroke	e	n/a
342.4475	0.09	684895	keystroke	n	n/a
342.5825	0.09	685165	keystroke	n	n/a
342.8525	0.075	685705	keystroke	e	n/a
343.5575	0.075	687115	keystroke	s	n/a
343.7225	0.075	687445	keystroke	s	n/a
343.9625	0.06	687925	keystroke	e	n/a
344.1125	0.09	688225	keystroke	e	n/a
344.3225	0.09	688645	keystroke	Key.space	n/a
344.4875	0.075	688975	keystroke	e	n/a
344.8325	0.06	689665	keystroke	l	n/a
345.0575	0.06	690115	keystroke	i	n/a
345.2375	0.09	690475	keystroke	m	n/a
345.3875	0.105	690775	keystroke	i	n/a
345.6125	0.06	691225	keystroke	n	n/a
345.7775	0.09	691555	keystroke	a	n/a
345.9725	0.09	691945	keystroke	t	n/a
346.1075	0.075	692215	keystroke	i	n/a
346.3025	0.06	692605	keystroke	o	n/a
346.5425	0.045	693085	keystroke	n	n/a
346.8425	0.09	693685	keystroke	Key.space	n/a
347.0825	0.06	694165	keystroke	p	n/a
347.2625	0.06	694525	keystroke	o	n/a
347.3675	0.06	694735	keystroke	s	n/a
347.5325	0.105	695065	keystroke	t	n/a
347.6525	0.075	695305	keystroke	i	n/a
347.8175	0.075	695635	keystroke	n	n/a
347.9225	0.09	695845	keystroke	g	n/a
347.9825	0.105	695965	keystroke	Key.space	n/a
348.2375	0.06	696475	keystroke	i	n/a
348.4775	0.06	696955	keystroke	m	n/a
348.6125	0.075	697225	keystroke	m	n/a
348.8375	0.075	697675	keystroke	u	n/a
349.0175	0.075	698035	keystroke	n	n/a
349.3025	0.075	698605	keystroke	o	n/a
349.5575	0.075	699115	keystroke	l	n/a
349.7375	0.06	699475	keystroke	o	n/a
349.9325	0.075	699865	keystroke	g	n/a
349.9775	0.105	699955	keystroke	y	n/a
350.4725	0.09	700945	keystroke	Key.enter	n/a
350.567	6.717	701134	prompt	n/a	drum projection cycles speaks\n
351.7925	0.075	703585	keystroke	d	n/a
351.9875	0.09	703975	keystroke	r	n/a
352.0925	0.075	704185	keystroke	u	n/a
352.3175	0.075	704635	keystroke	m	n/a
352.4225	0.09	704845	keystroke	Key.space	n/a
352.6475	0.06	705295	keystroke	p	n/a
352.8275	0.09	705655	keystroke	r	n/a
352.9325	0.075	705865	keystroke	o	n/a
353.1425	0.105	706285	keystroke	j	n/a
353.2325	0.09	706465	keystroke	e	n/a
353.3975	0.105	706795	keystroke	c	n/a
353.6525	0.075	707305	keystroke	t	n/a
353.7875	0.045	707575	keystroke	i	n/a
353.9675	0.06	707935	keystroke	o	n/a
354.1625	0.06	708325	keystroke	n	n/a
354.2235	0.074	708447	keystroke	Key.space	n/a
354.3725	0.075	708745	keystroke	c	n/a
354.4625	0.09	708925	keystroke	y	n/a
354.5675	0.105	709135	keystroke	c	n/a
354.6875	0.09	709375	keystroke	y	n/a
355.2425	0.075	710485	keystroke	Key.backspace	n/a
355.5875	0.09	711175	keystroke	l	n/a
355.7225	0.075	711445	keystroke	e	n/a
355.9625	0.105	711925	keystroke	s	n/a
356.1725	0.105	712345	keystroke	Key.space	n/a
356.3825	0.09	712765	keystroke	s	n/a
356.4875	0.075	712975	keystroke	p	n/a
356.6075	0.09	713215	keystroke	e	n/a
356.7575	0.135	713515	keystroke	a	n/a
356.8775	0.09	713755	keystroke	k	n/a
357.0125	0.075	714025	keystroke	s	n/a
357.2075	0.075	714415	keystroke	Key.enter	n/a
357.287	13.189	714574	prompt	n/a	interface orlando tourist interesting\n
361.142	0.001	722284	keystroke	i	n/a
361.2895	0.015	722579	keystroke	n	n/a
361.3195	0.0895	722639	keystroke	t	n/a
361.515	0.1195	723030	keystroke	e	n/a
361.605	0.091	723210	keystroke	r	n/a
361.803	0.015	723606	keystroke	f	n/a
361.878	0.136	723756	keystroke	a	n/a
362.089	0.09	724178	keystroke	c	n/a
362.239	0.09	724478	keystroke	e	n/a
362.344	0.09	724688	keystroke	Key.space	n/a
362.554	0.075	725108	keystroke	o	n/a
362.809	0.09	725618	keystroke	l	n/a
363.214	0.09	726428	keystroke	Key.backspace	n/a
363.439	0.075	726878	keystroke	r	n/a
363.589	0.09	727178	keystroke	l	n/a
363.829	0.105	727658	keystroke	a	n/a
363.919	0.09	727838	keystroke	n	n/a
364.054	0.09	728108	keystroke	d	n/a
364.339	0.075	728678	keystroke	o	n/a
364.759	0.09	729518	keystroke	Key.space	n/a
365.059	0.075	730118	keystroke	t	n/a
365.119	0.09	730238	keystroke	o	n/a
365.269	0.075	730538	keystroke	u	n/a
365.449	0.075	730898	keystroke	r	n/a
365.884	0.09	731768	keystroke	i	n/a
366.049	0.09	732098	keystroke	s	n/a
366.304	0.09	732608	keystroke	t	n/a
366.454	0.09	732908	keystroke	Key.space	n/a
366.679	0.075	733358	keystroke	i	n/a
366.829	0.09	733658	keystroke	n	n/a
366.949	0.09	733898	keystroke	t	n/a
367.129	0.09	734258	keystroke	e	n/a
367.234	0.165	734468	keystroke	r	n/a
367.384	0.09	734768	keystroke	e	n/a
367.624	0.075	735248	keystroke	s	n/a
367.834	0.075	735668	keystroke	t	n/a
367.954	0.06	735908	keystroke	i	n/a
368.074	0.09	736148	keystroke	n	n/a
368.254	0.06	736508	keystroke	g	n/a
370.461	0.013	740922	keystroke	Key.enter	n/a
370.48	8.4405	740960	prompt	n/a	chelsea enterprise currently anyway\n
371.599	0.09	743198	keystroke	c	n/a
371.674	0.09	743348	keystroke	h	n/a
371.824	0.09	743648	keystroke	e	n/a
371.959	0.09	743918	keystroke	l	n/a
372.184	0.105	744368	keystroke	s	n/a
372.364	0.105	744728	keystroke	e	n/a
372.514	0.15	745028	keystroke	a	n/a
372.724	0.105	745448	keystroke	Key.space	n/a
374.014	0.105	748028	keystroke	e	n/a
374.119	0.12	748238	keystroke	n	n/a
374.344	0.06	748688	keystroke	t	n/a
374.494	0.075	748988	keystroke	e	n/a
374.584	0.105	749168	keystroke	r	n/a
374.764	0.075	749528	keystroke	p	n/a
375.034	0.075	750068	keystroke	r	n/a
375.169	0.06	750338	keystroke	i	n/a
375.304	0.075	750608	keystroke	s	n/a
375.484	0.09	750968	keystroke	e	n/a
375.634	0.09	751268	keystroke	Key.space	n/a
375.814	0.09	751628	keystroke	c	n/a
375.919	0.075	751838	keystroke	u	n/a
376.084	0.075	752168	keystroke	r	n/a
376.219	0.075	752438	keystroke	r	n/a
376.369	0.09	752738	keystroke	e	n/a
376.459	0.075	752918	keystroke	n	n/a
376.624	0.075	753248	keystroke	t	n/a
376.729	0.075	753458	keystroke	l	n/a
376.939	0.09	753878	keystroke	y	n/a
377.059	0.075	754118	keystroke	Key.space	n/a
377.194	0.09	754388	keystroke	a	n/a
377.299	0.075	754598	keystroke	n	n/a
377.599	0.09	755198	keystroke	y	n/a
377.869	0.045	755738	keystroke	w	n/a
377.989	0.105	755978	keystroke	a	n/a
378.004	0.165	756008	keystroke	y	n/a
378.829	0.09	757658	keystroke	Key.enter	n/a
378.9235	5.172	757847	prompt	n/a	cart learned dept chat\n
380.4345	0.075	760869	keystroke	c	n/a
380.6295	0.0895	761259	keystroke	a	n/a
380.854	0.06	761708	keystroke	r	n/a
381.0045	0.075	762009	keystroke	t	n/a
381.1395	0.0895	762279	keystroke	Key.space	n/a
381.409	0.09	762818	keystroke	l	n/a
381.5145	0.075	763029	keystroke	e	n/a
381.664	0.12	763328	keystroke	a	n/a
381.904	0.105	763808	keystroke	r	n/a
382.0545	0.09	764109	keystroke	n	n/a
382.1295	0.1045	764259	keystroke	e	n/a
382.3545	0.075	764709	keystroke	d	n/a
382.4595	0.09	764919	keystroke	Key.space	n/a
382.5945	0.06	765189	keystroke	d	n/a
382.7445	0.09	765489	keystroke	e	n/a
382.8195	0.075	765639	keystroke	p	n/a
383.0145	0.09	766029	keystroke	t	n/a
383.1345	0.105	766269	keystroke	Key.space	n/a
383.3895	0.075	766779	keystroke	c	n/a
383.4945	0.06	766989	keystroke	h	n/a
383.6145	0.09	767229	keystroke	a	n/a
383.8545	0.075	767709	keystroke	t	n/a
383.9895	0.105	767979	keystroke	Key.enter	n/a
384.099	7.377	768198	prompt	n/a	what're commented singing suggests\n
385.9245	0.075	771849	keystroke	w	n/a
386.0595	0.075	772119	keystroke	h	n/a
386.1345	0.075	772269	keystroke	a	n/a
386.3145	0.09	772629	keystroke	t	n/a
386.5395	0.09	773079	keystroke	'	n/a
386.6445	0.12	773289	keystroke	r	n/a
386.7495	0.09	773499	keystroke	e	n/a
386.8695	0.09	773739	keystroke	Key.space	n/a
387.0645	0.105	774129	keystroke	c	n/a
387.2895	0.075	774579	keystroke	o	n/a
387.4995	0.06	774999	keystroke	m	n/a
387.6195	0.09	775239	keystroke	m	n/a
387.7695	0.1045	775539	keystroke	e	n/a
387.859	0.075	775718	keystroke	n	n/a
387.994	0.105	775988	keystroke	t	n/a
388.174	0.105	776348	keystroke	e	n/a
388.399	0.075	776798	keystroke	d	n/a
388.489	0.09	776978	keystroke	Key.space	n/a
388.639	0.09	777278	keystroke	s	n/a
388.744	0.06	777488	keystroke	i	n/a
389.209	0.075	778418	keystroke	n	n/a
389.359	0.0895	778718	keystroke	g	n/a
389.4945	0.074	778989	keystroke	i	n/a
389.6435	0.09	779287	keystroke	n	n/a
389.8235	0.061	779647	keystroke	g	n/a
389.9135	0.09	779827	keystroke	Key.space	n/a
390.1235	0.075	780247	keystroke	s	n/a
390.1835	0.09	780367	keystroke	u	n/a
390.4085	0.06	780817	keystroke	g	n/a
390.5135	0.075	781027	keystroke	g	n/a
390.6185	0.09	781237	keystroke	e	n/a
390.7835	0.09	781567	keystroke	s	n/a
390.9935	0.075	781987	keystroke	t	n/a
391.1885	0.105	782377	keystroke	s	n/a
391.3835	0.09	782767	keystroke	Key.enter	n/a
391.4785	11.697	782957	prompt	n/a	thirty mouth omaha explain\n
392.2245	0.074	784449	keystroke	t	n/a
392.2685	0.075	784537	keystroke	h	n/a
392.4335	0.075	784867	keystroke	i	n/a
392.5535	0.09	785107	keystroke	r	n/a
392.7485	0.09	785497	keystroke	t	n/a
392.8535	0.09	785707	keystroke	y	n/a
392.9585	0.075	785917	keystroke	Key.space	n/a
393.1385	0.105	786277	keystroke	o	n/a
393.2285	0.09	786457	keystroke	u	n/a
393.3485	0.105	786697	keystroke	t	n/a
393.5135	0.09	787027	keystroke	h	n/a
394.6535	0.045	789307	keystroke	Key.backspace	n/a
394.849	0.045	789698	keystroke	Key.backspace	n/a
395.029	0.045	790058	keystroke	Key.backspace	n/a
395.254	0.03	790508	keystroke	Key.backspace	n/a
395.869	0.075	791738	keystroke	m	n/a
396.079	0.15	792158	keystroke	o	n/a
396.169	0.09	792338	keystroke	u	n/a
396.349	0.09	792698	keystroke	t	n/a
396.454	0.09	792908	keystroke	h	n/a
396.559	0.075	793118	keystroke	Key.space	n/a
396.754	0.075	793508	keystroke	o	n/a
396.964	0.06	793928	keystroke	m	n/a
397.069	0.105	794138	keystroke	a	n/a
397.189	0.09	794378	keystroke	h	n/a
397.309	0.09	794618	keystroke	a	n/a
397.4745	0.0745	794949	keystroke	Key.space	n/a
397.759	0.075	795518	keystroke	e	n/a
398.059	0.06	796118	keystroke	x	n/a
398.479	0.075	796958	keystroke	p	n/a
398.749	0.0605	797498	keystroke	l	n/a
398.9745	0.0745	797949	keystroke	a	n/a
399.064	0.06	798128	keystroke	i	n/a
399.199	0.09	798398	keystroke	n	n/a
403.1615	0.013	806323	keystroke	Key.enter	n/a
403.1785	7.422	806357	prompt	n/a	entirely problems intent place\n
404.5995	0.075	809199	keystroke	e	n/a
404.6595	0.105	809319	keystroke	n	n/a
404.8845	0.075	809769	keystroke	t	n/a
405.0045	0.075	810009	keystroke	i	n/a
405.1845	0.075	810369	keystroke	r	n/a
405.3045	0.09	810609	keystroke	e	n/a
405.4245	0.06	810849	keystroke	l	n/a
405.6045	0.075	811209	keystroke	y	n/a
405.7245	0.075	811449	keystroke	Key.space	n/a
407.1945	0.06	814389	keystroke	p	n/a
407.3745	0.0745	814749	keystroke	r	n/a
407.4945	0.075	814989	keystroke	o	n/a
407.7945	0.075	815589	keystroke	b	n/a
408.0945	0.06	816189	keystroke	l	n/a
408.2595	0.075	816519	keystroke	e	n/a
408.2895	0.105	816579	keystroke	m	n/a
408.5145	0.09	817029	keystroke	s	n/a
408.6495	0.09	817299	keystroke	Key.space	n/a
408.7995	0.075	817599	keystroke	i	n/a
408.9945	0.06	817989	keystroke	n	n/a
409.0845	0.075	818169	keystroke	t	n/a
409.2645	0.06	818529	keystroke	e	n/a
409.3395	0.09	818679	keystroke	n	n/a
409.4895	0.09	818979	keystroke	t	n/a
409.5935	0.061	819187	keystroke	Key.space	n/a
409.7745	0.075	819549	keystroke	p	n/a
409.9845	0.075	819969	keystroke	l	n/a
410.0745	0.06	820149	keystroke	a	n/a
410.2545	0.075	820509	keystroke	c	n/a
410.3885	0.09	820777	keystroke	e	n/a
410.5535	0.045	821107	keystroke	Key.enter	n/a
410.604	6.102	821208	prompt	n/a	cocktail codes venture thesis\n
411.754	0.105	823508	keystroke	c	n/a
411.844	0.075	823688	keystroke	o	n/a
412.099	0.09	824198	keystroke	c	n/a
412.219	0.09	824438	keystroke	k	n/a
412.474	0.09	824948	keystroke	t	n/a
412.714	0.0905	825428	keystroke	a	n/a
412.8195	0.06	825639	keystroke	i	n/a
413.0295	0.09	826059	keystroke	l	n/a
413.1495	0.105	826299	keystroke	Key.space	n/a
413.329	0.0755	826658	keystroke	c	n/a
413.4495	0.075	826899	keystroke	o	n/a
413.6145	0.09	827229	keystroke	d	n/a
413.7945	0.09	827589	keystroke	e	n/a
414.0345	0.045	828069	keystroke	s	n/a
414.1095	0.09	828219	keystroke	Key.space	n/a
414.3045	0.075	828609	keystroke	v	n/a
414.4995	0.105	828999	keystroke	e	n/a
414.6195	0.075	829239	keystroke	n	n/a
414.8595	0.09	829719	keystroke	t	n/a
414.9945	0.09	829989	keystroke	u	n/a
415.0995	0.135	830199	keystroke	r	n/a
415.2645	0.06	830529	keystroke	e	n/a
415.3545	0.075	830709	keystroke	Key.space	n/a
415.5195	0.105	831039	keystroke	t	n/a
415.6395	0.09	831279	keystroke	h	n/a
415.7445	0.09	831489	keystroke	e	n/a
415.9995	0.105	831999	keystroke	s	n/a
416.2395	0.06	832479	keystroke	i	n/a
416.3295	0.105	832659	keystroke	s	n/a
416.6145	0.09	833229	keystroke	Key.enter	n/a
416.7195	10.8315	833439	prompt	n/a	geographic julie enormous consolidation\n
417.6945	0.09	835389	keystroke	g	n/a
417.8895	0.075	835779	keystroke	e	n/a
418.0395	0.09	836079	keystroke	o	n/a
418.4895	0.075	836979	keystroke	g	n/a
418.6845	0.09	837369	keystroke	r	n/a
418.9095	0.105	837819	keystroke	a	n/a
418.9995	0.105	837999	keystroke	p	n/a
419.2095	0.075	838419	keystroke	h	n/a
419.3295	0.09	838659	keystroke	i	n/a
419.4945	0.09	838989	keystroke	c	n/a
419.5995	0.075	839199	keystroke	Key.space	n/a
419.7645	0.09	839529	keystroke	j	n/a
419.9145	0.09	839829	keystroke	u	n/a
420.3495	0.09	840699	keystroke	l	n/a
420.6495	0.075	841299	keystroke	i	n/a
420.7995	0.105	841599	keystroke	e	n/a
421.0095	0.09	842019	keystroke	Key.space	n/a
421.2495	0.09	842499	keystroke	e	n/a
421.3545	0.075	842709	keystroke	n	n/a
421.5795	0.06	843159	keystroke	o	n/a
421.6995	0.12	843399	keystroke	r	n/a
421.8645	0.105	843729	keystroke	m	n/a
422.9445	0.12	845889	keystroke	o	n/a
423.0345	0.09	846069	keystroke	u	n/a
423.1695	0.12	846339	keystroke	s	n/a
423.6645	0.0745	847329	keystroke	Key.space	n/a
423.964	0.106	847928	keystroke	c	n/a
424.085	0.06	848170	keystroke	o	n/a
424.265	0.075	848530	keystroke	n	n/a
424.535	0.075	849070	keystroke	s	n/a
424.639	0.075	849278	keystroke	o	n/a
424.865	0.09	849730	keystroke	l	n/a
425.06	0.075	850120	keystroke	i	n/a
425.18	0.074	850360	keystroke	d	n/a
425.599	0.106	851198	keystroke	a	n/a
425.839	0.106	851678	keystroke	t	n/a
425.959	0.106	851918	keystroke	i	n/a
426.169	0.075	852338	keystroke	o	n/a
426.334	0.105	852668	keystroke	n	n/a
427.474	0.075	854948	keystroke	Key.enter	n/a
427.554	8.157	855108	prompt	n/a	monkey village rice hearts\n
428.284	0.091	856568	keystroke	m	n/a
428.465	0.074	856930	keystroke	o	n/a
428.659	0.06	857318	keystroke	n	n/a
428.795	0.074	857590	keystroke	k	n/a
428.929	0.09	857858	keystroke	e	n/a
429.034	0.105	858068	keystroke	y	n/a
429.169	0.06	858338	keystroke	Key.space	n/a
429.454	0.09	858908	keystroke	v	n/a
429.604	0.075	859208	keystroke	i	n/a
430.039	0.06	860078	keystroke	l	n/a
430.189	0.075	860378	keystroke	l	n/a
430.534	0.045	861068	keystroke	a	n/a
430.699	0.105	861398	keystroke	g	n/a
430.909	0.075	861818	keystroke	e	n/a
431.059	0.075	862118	keystroke	Key.space	n/a
431.239	0.075	862478	keystroke	r	n/a
431.359	0.09	862718	keystroke	i	n/a
431.539	0.075	863078	keystroke	c	n/a
431.824	0.075	863648	keystroke	e	n/a
432.019	0.075	864038	keystroke	Key.space	n/a
432.229	0.075	864458	keystroke	h	n/a
432.334	0.075	864668	keystroke	e	n/a
432.529	0.09	865058	keystroke	a	n/a
432.724	0.06	865448	keystroke	r	n/a
432.874	0.09	865748	keystroke	t	n/a
433.219	0.075	866438	keystroke	s	n/a
435.6675	0.042	871335	keystroke	Key.enter	n/a
435.7145	8.6065	871429	prompt	n/a	hoping represented nashville burning\n
436.8345	0.075	873669	keystroke	h	n/a
437.1945	0.075	874389	keystroke	o	n/a
437.4345	0.075	874869	keystroke	p	n/a
437.6895	0.075	875379	keystroke	i	n/a
437.8395	0.09	875679	keystroke	n	n/a
437.9145	0.105	875829	keystroke	g	n/a
438.0495	0.075	876099	keystroke	Key.space	n/a
438.2295	0.09	876459	keystroke	r	n/a
438.3645	0.09	876729	keystroke	e	n/a
438.5295	0.06	877059	keystroke	p	n/a
438.7245	0.105	877449	keystroke	r	n/a
438.8145	0.09	877629	keystroke	e	n/a
439.0695	0.09	878139	keystroke	s	n/a
439.2945	0.075	878589	keystroke	e	n/a
439.3995	0.075	878799	keystroke	n	n/a
439.5195	0.09	879039	keystroke	t	n/a
439.6845	0.105	879369	keystroke	e	n/a
439.8795	0.09	879759	keystroke	d	n/a
439.9995	0.075	879999	keystroke	Key.space	n/a
440.1945	0.09	880389	keystroke	n	n/a
440.2995	0.105	880599	keystroke	a	n/a
440.4945	0.105	880989	keystroke	s	n/a
440.6145	0.09	881229	keystroke	h	n/a
440.8545	0.09	881709	keystroke	v	n/a
440.9595	0.075	881919	keystroke	i	n/a
441.1845	0.045	882369	keystroke	l	n/a
441.3195	0.06	882639	keystroke	l	n/a
441.4245	0.075	882849	keystroke	e	n/a
441.6345	0.06	883269	keystroke	Key.space	n/a
441.8595	0.06	883719	keystroke	b	n/a
442.0095	0.09	884019	keystroke	u	n/a
442.2195	0.045	884439	keystroke	r	n/a
442.3095	0.045	884619	keystroke	n	n/a
442.5795	0.045	885159	keystroke	i	n/a
442.7145	0.075	885429	keystroke	n	n/a
442.8045	0.105	885609	keystroke	g	n/a
444.214	0.105	888428	keystroke	Key.enter	n/a
444.3245	8.052	888649	prompt	n/a	vital donations mixed wellness\n
445.9545	0.09	891909	keystroke	v	n/a
446.4945	0.06	892989	keystroke	i	n/a
446.5995	0.09	893199	keystroke	t	n/a
446.8545	0.135	893709	keystroke	a	n/a
446.9745	0.105	893949	keystroke	l	n/a
447.0945	0.075	894189	keystroke	Key.space	n/a
447.2445	0.0755	894489	keystroke	d	n/a
447.62	0.09	895240	keystroke	o	n/a
447.845	0.075	895690	keystroke	n	n/a
447.965	0.09	895930	keystroke	a	n/a
448.19	0.09	896380	keystroke	t	n/a
448.295	0.09	896590	keystroke	i	n/a
448.505	0.045	897010	keystroke	o	n/a
448.685	0.075	897370	keystroke	n	n/a
448.775	0.105	897550	keystroke	s	n/a
448.895	0.06	897790	keystroke	Key.space	n/a
449.06	0.06	898120	keystroke	m	n/a
449.18	0.105	898360	keystroke	i	n/a
449.36	0.045	898720	keystroke	s	n/a
449.735	0.06	899470	keystroke	Key.backspace	n/a
449.975	0.03	899950	keystroke	x	n/a
450.4245	0.075	900849	keystroke	e	n/a
450.6495	0.09	901299	keystroke	d	n/a
450.7545	0.075	901509	keystroke	Key.space	n/a
450.9495	0.045	901899	keystroke	w	n/a
451.0545	0.09	902109	keystroke	e	n/a
451.1595	0.06	902319	keystroke	l	n/a
451.3245	0.045	902649	keystroke	l	n/a
451.5045	0.075	903009	keystroke	n	n/a
451.5645	0.09	903129	keystroke	e	n/a
451.8195	0.045	903639	keystroke	s	n/a
451.9695	0.075	903939	keystroke	s	n/a
452.2695	0.105	904539	keystroke	Key.enter	n/a
452.3795	6.987	904759	prompt	n/a	downloaded korean murray freedom\n
453.17	0.0905	906340	keystroke	d	n/a
453.2445	0.105	906489	keystroke	o	n/a
453.4245	0.091	906849	keystroke	w	n/a
453.5595	0.0605	907119	keystroke	n	n/a
453.7545	0.061	907509	keystroke	l	n/a
453.9045	0.076	907809	keystroke	o	n/a
454.0095	0.105	908019	keystroke	a	n/a
454.1745	0.09	908349	keystroke	d	n/a
454.3395	0.0745	908679	keystroke	e	n/a
454.504	0.1055	909008	keystroke	d	n/a
454.6245	0.075	909249	keystroke	Key.space	n/a
454.8205	0.059	909641	keystroke	k	n/a
454.9995	0.075	909999	keystroke	o	n/a
455.1045	0.105	910209	keystroke	r	n/a
455.2695	0.075	910539	keystroke	e	n/a
455.4945	0.075	910989	keystroke	a	n/a
455.5845	0.076	911169	keystroke	n	n/a
455.6895	0.06	911379	keystroke	Key.space	n/a
455.8395	0.09	911679	keystroke	m	n/a
456.0045	0.09	912009	keystroke	u	n/a
456.5895	0.075	913179	keystroke	r	n/a
456.7395	0.09	913479	keystroke	r	n/a
457.0395	0.075	914079	keystroke	a	n/a
457.1445	0.105	914289	keystroke	y	n/a
457.2795	0.075	914559	keystroke	Key.space	n/a
457.4595	0.06	914919	keystroke	f	n/a
457.6245	0.09	915249	keystroke	r	n/a
457.7595	0.105	915519	keystroke	e	n/a
458.2695	0.06	916539	keystroke	e	n/a
458.4645	0.09	916929	keystroke	d	n/a
458.5695	0.06	917139	keystroke	o	n/a
458.7645	0.09	917529	keystroke	m	n/a
459.2895	0.075	918579	keystroke	Key.enter	n/a
459.369	5.9675	918738	prompt	n/a	versions incorrect gage majority\n
459.9945	0.06	919989	keystroke	v	n/a
460.1595	0.15	920319	keystroke	e	n/a
460.2945	0.105	920589	keystroke	r	n/a
460.5195	0.12	921039	keystroke	s	n/a
460.6245	0.09	921249	keystroke	i	n/a
460.8195	0.06	921639	keystroke	o	n/a
460.9995	0.075	921999	keystroke	n	n/a
461.1045	0.09	922209	keystroke	s	n/a
461.2395	0.06	922479	keystroke	Key.space	n/a
461.3595	0.0755	922719	keystroke	i	n/a
461.525	0.075	923050	keystroke	n	n/a
461.63	0.09	923260	keystroke	c	n/a
461.765	0.075	923530	keystroke	o	n/a
461.99	0.09	923980	keystroke	r	n/a
462.155	0.09	924310	keystroke	r	n/a
462.305	0.075	924610	keystroke	e	n/a
462.47	0.105	924940	keystroke	c	n/a
462.695	0.075	925390	keystroke	t	n/a
462.845	0.09	925690	keystroke	Key.space	n/a
463.085	0.06	926170	keystroke	g	n/a
463.295	0.09	926590	keystroke	a	n/a
463.52	0.075	927040	keystroke	g	n/a
463.685	0.075	927370	keystroke	e	n/a
463.79	0.075	927580	keystroke	Key.space	n/a
463.97	0.09	927940	keystroke	m	n/a
464.03	0.105	928060	keystroke	a	n/a
464.21	0.045	928420	keystroke	j	n/a
464.36	0.06	928720	keystroke	o	n/a
464.48	0.105	928960	keystroke	r	n/a
464.6	0.06	929200	keystroke	i	n/a
464.72	0.105	929440	keystroke	t	n/a
464.855	0.075	929710	keystroke	y	n/a
465.245	0.09	930490	keystroke	Key.enter	n/a
465.3395	5.652	930679	prompt	n/a	dolls fears ears attitudes\n
466.13	0.06	932260	keystroke	d	n/a
466.205	0.06	932410	keystroke	o	n/a
466.43	0.045	932860	keystroke	l	n/a
466.55	0.075	933100	keystroke	l	n/a
466.67	0.075	933340	keystroke	s	n/a
466.775	0.09	933550	keystroke	Key.space	n/a
467.03	0.075	934060	keystroke	f	n/a
467.18	0.09	934360	keystroke	e	n/a
467.375	0.09	934750	keystroke	a	n/a
467.555	0.075	935110	keystroke	r	n/a
467.75	0.105	935500	keystroke	s	n/a
467.87	0.105	935740	keystroke	Key.space	n/a
468.08	0.075	936160	keystroke	e	n/a
468.23	0.09	936460	keystroke	a	n/a
468.41	0.12	936820	keystroke	r	n/a
468.71	0.075	937420	keystroke	s	n/a
468.83	0.09	937660	keystroke	Key.space	n/a
468.98	0.075	937960	keystroke	a	n/a
469.205	0.075	938410	keystroke	t	n/a
469.355	0.09	938710	keystroke	t	n/a
469.46	0.075	938920	keystroke	i	n/a
469.64	0.075	939280	keystroke	t	n/a
469.775	0.075	939550	keystroke	u	n/a
470.075	0.075	940150	keystroke	d	n/a
470.254	0.076	940508	keystroke	e	n/a
470.51	0.075	941020	keystroke	s	n/a
470.9	0.09	941800	keystroke	Key.enter	n/a
470.994	5.1875	941988	prompt	n/a	ncaa these irish he\n
471.845	0.09	943690	keystroke	n	n/a
472.055	0.075	944110	keystroke	c	n/a
472.28	0.105	944560	keystroke	a	n/a
472.46	0.105	944920	keystroke	a	n/a
472.625	0.09	945250	keystroke	Key.space	n/a
472.895	0.09	945790	keystroke	t	n/a
473.015	0.075	946030	keystroke	h	n/a
473.105	0.09	946210	keystroke	e	n/a
473.33	0.06	946660	keystroke	s	n/a
473.51	0.075	947020	keystroke	e	n/a
473.645	0.09	947290	keystroke	Key.space	n/a
473.96	0.074	947920	keystroke	i	n/a
474.094	0.105	948188	keystroke	r	n/a
474.455	0.089	948910	keystroke	i	n/a
474.604	0.09	949208	keystroke	s	n/a
474.71	0.075	949420	keystroke	h	n/a
474.785	0.075	949570	keystroke	Key.space	n/a
475.07	0.06	950140	keystroke	h	n/a
475.3395	0.075	950679	keystroke	e	n/a
476.0455	0.135	952091	keystroke	Key.enter	n/a
476.1845	5.1265	952369	prompt	n/a	offline saying benefit gotten\n
476.7655	0.074	953531	keystroke	o	n/a
477.2155	0.045	954431	keystroke	f	n/a
477.3805	0.075	954761	keystroke	f	n/a
477.5145	0.06	955029	keystroke	l	n/a
477.6645	0.076	955329	keystroke	i	n/a
477.8155	0.09	955631	keystroke	n	n/a
477.9195	0.091	955839	keystroke	e	n/a
478.0245	0.075	956049	keystroke	Key.space	n/a
478.1605	0.074	956321	keystroke	s	n/a
478.2955	0.104	956591	keystroke	a	n/a
478.4145	0.076	956829	keystroke	y	n/a
478.5795	0.06	957159	keystroke	i	n/a
478.7305	0.074	957461	keystroke	n	n/a
478.8345	0.09	957669	keystroke	g	n/a
478.9095	0.075	957819	keystroke	Key.space	n/a
479.0745	0.075	958149	keystroke	b	n/a
479.1795	0.105	958359	keystroke	e	n/a
479.3145	0.091	958629	keystroke	n	n/a
479.4195	0.075	958839	keystroke	e	n/a
479.5995	0.09	959199	keystroke	f	n/a
479.7195	0.075	959439	keystroke	i	n/a
479.8845	0.075	959769	keystroke	t	n/a
480.0045	0.09	960009	keystroke	Key.space	n/a
480.1395	0.075	960279	keystroke	g	n/a
480.2445	0.06	960489	keystroke	o	n/a
480.5745	0.045	961149	keystroke	t	n/a
480.6945	0.075	961389	keystroke	t	n/a
480.8895	0.06	961779	keystroke	e	n/a
480.9645	0.09	961929	keystroke	n	n/a
481.2345	0.075	962469	keystroke	Key.enter	n/a
481.314	9.7175	962628	prompt	n/a	ingredients eddie focal findlaw\n
482.5545	0.045	965109	keystroke	i	n/a
482.6745	0.105	965349	keystroke	n	n/a
482.7945	0.075	965589	keystroke	g	n/a
483.0345	0.09	966069	keystroke	r	n/a
483.1995	0.0905	966399	keystroke	e	n/a
483.485	0.075	966970	keystroke	d	n/a
484.22	0.09	968440	keystroke	i	n/a
484.37	0.09	968740	keystroke	e	n/a
484.49	0.105	968980	keystroke	n	n/a
484.565	0.09	969130	keystroke	t	n/a
484.805	0.105	969610	keystroke	s	n/a
484.94	0.09	969880	keystroke	Key.space	n/a
485.6	0.06	971200	keystroke	e	n/a
485.825	0.06	971650	keystroke	d	n/a
485.96	0.09	971920	keystroke	d	n/a
486.11	0.075	972220	keystroke	i	n/a
486.59	0.075	973180	keystroke	e	n/a
486.74	0.105	973480	keystroke	Key.space	n/a
486.935	0.075	973870	keystroke	f	n/a
487.025	0.09	974050	keystroke	o	n/a
487.265	0.045	974530	keystroke	c	n/a
487.43	0.12	974860	keystroke	a	n/a
487.55	0.075	975100	keystroke	l	n/a
488.15	0.105	976300	keystroke	Key.space	n/a
488.99	0.075	977980	keystroke	f	n/a
489.08	0.075	978160	keystroke	i	n/a
489.26	0.09	978520	keystroke	n	n/a
489.395	0.075	978790	keystroke	d	n/a
489.545	0.09	979090	keystroke	l	n/a
489.665	0.06	979330	keystroke	w	n/a
490.28	0.075	980560	keystroke	Key.backspace	n/a
490.46	0.12	980920	keystroke	a	n/a
490.64	0.09	981280	keystroke	w	n/a
490.955	0.075	981910	keystroke	Key.enter	n/a
491.0345	9.387	982069	prompt	n/a	philip tumor torture revenge\n
494.2275	0.001	988455	keystroke	p	n/a
494.7355	0.089	989471	keystroke	h	n/a
494.9755	0.075	989951	keystroke	i	n/a
495.2305	0.074	990461	keystroke	l	n/a
495.4105	0.074	990821	keystroke	i	n/a
495.6495	0.076	991299	keystroke	p	n/a
495.9195	0.075	991839	keystroke	Key.space	n/a
496.1745	0.106	992349	keystroke	t	n/a
496.3095	0.09	992619	keystroke	u	n/a
496.5495	0.075	993099	keystroke	m	n/a
496.7305	0.075	993461	keystroke	o	n/a
497.0895	0.06	994179	keystroke	r	n/a
497.4195	0.09	994839	keystroke	Key.space	n/a
497.7045	0.105	995409	keystroke	t	n/a
497.8245	0.09	995649	keystroke	o	n/a
498.0495	0.06	996099	keystroke	r	n/a
498.3195	0.075	996639	keystroke	t	n/a
498.4545	0.09	996909	keystroke	u	n/a
498.6045	0.09	997209	keystroke	r	n/a
498.7545	0.09	997509	keystroke	e	n/a
498.9045	0.075	997809	keystroke	Key.space	n/a
499.1895	0.075	998379	keystroke	r	n/a
499.2945	0.09	998589	keystroke	e	n/a
499.5945	0.06	999189	keystroke	v	n/a
499.7595	0.105	999519	keystroke	e	n/a
499.8795	0.105	999759	keystroke	n	n/a
500.0295	0.09	1000059	keystroke	g	n/a
500.2095	0.075	1000419	keystroke	e	n/a
500.3595	0.06	1000719	keystroke	Key.enter	n/a
500.4255	5.801	1000851	prompt	n/a	enjoy western friday trusted\n
501.3795	0.09	1002759	keystroke	e	n/a
501.5145	0.075	1003029	keystroke	n	n/a
501.7095	0.09	1003419	keystroke	j	n/a
501.9495	0.03	1003899	keystroke	o	n/a
502.1295	0.09	1004259	keystroke	y	n/a
502.31	0.0445	1004620	keystroke	Key.space	n/a
502.5345	0.075	1005069	keystroke	w	n/a
502.6545	0.09	1005309	keystroke	e	n/a
502.8645	0.075	1005729	keystroke	s	n/a
503.0595	0.09	1006119	keystroke	t	n/a
503.1945	0.105	1006389	keystroke	e	n/a
503.2845	0.105	1006569	keystroke	r	n/a
503.5095	0.075	1007019	keystroke	n	n/a
503.6595	0.0905	1007319	keystroke	Key.space	n/a
503.84	0.06	1007680	keystroke	f	n/a
504.02	0.075	1008040	keystroke	r	n/a
504.14	0.09	1008280	keystroke	i	n/a
504.29	0.06	1008580	keystroke	d	n/a
504.41	0.105	1008820	keystroke	a	n/a
504.53	0.105	1009060	keystroke	y	n/a
504.665	0.075	1009330	keystroke	Key.space	n/a
504.905	0.075	1009810	keystroke	t	n/a
505.07	0.09	1010140	keystroke	r	n/a
505.205	0.09	1010410	keystroke	u	n/a
505.31	0.09	1010620	keystroke	s	n/a
505.5355	0.075	1011071	keystroke	t	n/a
505.6845	0.09	1011369	keystroke	e	n/a
505.9095	0.09	1011819	keystroke	d	n/a
506.1345	0.09	1012269	keystroke	Key.enter	n/a
506.2295	7.932	1012459	prompt	n/a	stages sleeve enlargement playback\n
507.0805	0.089	1014161	keystroke	s	n/a
507.2745	0.076	1014549	keystroke	t	n/a
507.4845	0.076	1014969	keystroke	a	n/a
507.7095	0.09	1015419	keystroke	g	n/a
507.8745	0.09	1015749	keystroke	e	n/a
508.1005	0.09	1016201	keystroke	s	n/a
508.2195	0.09	1016439	keystroke	Key.space	n/a
508.3555	0.089	1016711	keystroke	s	n/a
508.5055	0.089	1017011	keystroke	l	n/a
508.6695	0.045	1017339	keystroke	e	n/a
508.8195	0.06	1017639	keystroke	e	n/a
509.0745	0.046	1018149	keystroke	v	n/a
509.2245	0.105	1018449	keystroke	e	n/a
509.3595	0.105	1018719	keystroke	Key.space	n/a
509.8095	0.06	1019619	keystroke	e	n/a
509.9005	0.074	1019801	keystroke	n	n/a
510.2595	0.075	1020519	keystroke	l	n/a
510.4695	0.09	1020939	keystroke	a	n/a
510.6945	0.075	1021389	keystroke	r	n/a
511.0995	0.075	1022199	keystroke	g	n/a
511.2495	0.09	1022499	keystroke	e	n/a
511.5195	0.09	1023039	keystroke	m	n/a
511.6395	0.105	1023279	keystroke	e	n/a
511.8045	0.075	1023609	keystroke	n	n/a
511.9995	0.075	1023999	keystroke	t	n/a
512.2095	0.06	1024419	keystroke	Key.space	n/a
512.4645	0.06	1024929	keystroke	p	n/a
512.6745	0.075	1025349	keystroke	l	n/a
512.7795	0.09	1025559	keystroke	a	n/a
512.8855	0.104	1025771	keystroke	y	n/a
513.1395	0.0605	1026279	keystroke	b	n/a
513.2745	0.09	1026549	keystroke	a	n/a
513.4995	0.09	1026999	keystroke	c	n/a
513.6495	0.105	1027299	keystroke	k	n/a
514.0395	0.12	1028079	keystroke	Key.enter	n/a
514.1645	9.552	1028329	prompt	n/a	potential exhibitions delivering singing\n
514.9245	0.075	1029849	keystroke	p	n/a
515.1195	0.06	1030239	keystroke	o	n/a
515.2845	0.075	1030569	keystroke	t	n/a
515.5395	0.075	1031079	keystroke	e	n/a
515.6295	0.06	1031259	keystroke	n	n/a
515.8395	0.09	1031679	keystroke	t	n/a
515.9595	0.075	1031919	keystroke	i	n/a
516.4545	0.135	1032909	keystroke	a	n/a
516.5745	0.09	1033149	keystroke	l	n/a
516.7245	0.075	1033449	keystroke	Key.space	n/a
517.4895	0.06	1034979	keystroke	e	n/a
517.7745	0.075	1035549	keystroke	x	n/a
517.9245	0.105	1035849	keystroke	h	n/a
518.1195	0.06	1036239	keystroke	i	n/a
518.2995	0.09	1036599	keystroke	b	n/a
518.4795	0.06	1036959	keystroke	i	n/a
518.5995	0.1055	1037199	keystroke	t	n/a
518.72	0.06	1037440	keystroke	i	n/a
518.9	0.075	1037800	keystroke	o	n/a
519.095	0.075	1038190	keystroke	n	n/a
519.2	0.105	1038400	keystroke	s	n/a
519.41	0.0755	1038820	keystroke	Key.space	n/a
520.1455	0.09	1040291	keystroke	d	n/a
520.3245	0.076	1040649	keystroke	e	n/a
520.4605	0.074	1040921	keystroke	l	n/a
520.6545	0.06	1041309	keystroke	i	n/a
520.7445	0.075	1041489	keystroke	v	n/a
520.9095	0.135	1041819	keystroke	e	n/a
521.0455	0.104	1042091	keystroke	r	n/a
521.1795	0.06	1042359	keystroke	y	n/a
521.6895	0.09	1043379	keystroke	Key.backspace	n/a
522.0045	0.045	1044009	keystroke	i	n/a
522.1555	0.059	1044311	keystroke	n	n/a
522.2745	0.076	1044549	keystroke	g	n/a
522.4245	0.075	1044849	keystroke	Key.space	n/a
522.6945	0.06	1045389	keystroke	s	n/a
522.7695	0.075	1045539	keystroke	i	n/a
522.9645	0.06	1045929	keystroke	n	n/a
523.0545	0.09	1046109	keystroke	g	n/a
523.1595	0.06	1046319	keystroke	i	n/a
523.2645	0.09	1046529	keystroke	n	n/a
523.4145	0.105	1046829	keystroke	g	n/a
523.6395	0.075	1047279	keystroke	Key.enter	n/a
523.72	5.6665	1047440	prompt	n/a	drawn samsung wash person\n
524.5695	0.09	1049139	keystroke	d	n/a
525.3045	0.045	1050609	keystroke	r	n/a
525.5445	0.105	1051089	keystroke	a	n/a
525.7395	0.09	1051479	keystroke	w	n/a
525.8305	0.119	1051661	keystroke	n	n/a
525.9945	0.09	1051989	keystroke	Key.space	n/a
526.1895	0.075	1052379	keystroke	s	n/a
526.3245	0.12	1052649	keystroke	a	n/a
526.4595	0.045	1052919	keystroke	m	n/a
526.6245	0.105	1053249	keystroke	s	n/a
526.7445	0.0605	1053489	keystroke	u	n/a
526.88	0.075	1053760	keystroke	n	n/a
527.014	0.061	1054028	keystroke	g	n/a
527.089	0.091	1054178	keystroke	Key.space	n/a
527.255	0.075	1054510	keystroke	w	n/a
527.39	0.1205	1054780	keystroke	a	n/a
527.6005	0.104	1055201	keystroke	s	n/a
527.7345	0.09	1055469	keystroke	h	n/a
527.8995	0.09	1055799	keystroke	Key.space	n/a
528.365	0.075	1056730	keystroke	p	n/a
528.545	0.105	1057090	keystroke	e	n/a
528.635	0.09	1057270	keystroke	r	n/a
528.83	0.09	1057660	keystroke	s	n/a
528.92	0.075	1057840	keystroke	o	n/a
529.085	0.075	1058170	keystroke	n	n/a
529.34	0.045	1058680	keystroke	Key.enter	n/a
529.389	5.2175	1058778	prompt	n/a	charging managed fans porcelain\n
530	0.075	1060000	keystroke	c	n/a
530.075	0.105	1060150	keystroke	h	n/a
530.195	0.075	1060390	keystroke	a	n/a
530.33	0.105	1060660	keystroke	r	n/a
530.45	0.0595	1060900	keystroke	g	n/a
530.6595	0.03	1061319	keystroke	i	n/a
530.7645	0.075	1061529	keystroke	n	n/a
530.8845	0.06	1061769	keystroke	g	n/a
530.9295	0.09	1061859	keystroke	Key.space	n/a
531.1095	0.09	1062219	keystroke	m	n/a
531.2445	0.105	1062489	keystroke	a	n/a
531.3645	0.06	1062729	keystroke	n	n/a
531.4545	0.075	1062909	keystroke	a	n/a
531.6495	0.075	1063299	keystroke	g	n/a
531.7995	0.09	1063599	keystroke	e	n/a
531.9795	0.09	1063959	keystroke	d	n/a
532.0995	0.09	1064199	keystroke	Key.space	n/a
532.2495	0.06	1064499	keystroke	f	n/a
532.4295	0.075	1064859	keystroke	a	n/a
532.4895	0.105	1064979	keystroke	n	n/a
532.6545	0.075	1065309	keystroke	s	n/a
532.8195	0.03	1065639	keystroke	Key.space	n/a
533.0445	0.06	1066089	keystroke	p	n/a
533.2395	0.075	1066479	keystroke	o	n/a
533.3595	0.075	1066719	keystroke	r	n/a
533.5995	0.075	1067199	keystroke	c	n/a
533.7645	0.075	1067529	keystroke	e	n/a
533.8845	0.075	1067769	keystroke	l	n/a
534.0195	0.09	1068039	keystroke	a	n/a
534.1245	0.06	1068249	keystroke	i	n/a
534.2445	0.09	1068489	keystroke	n	n/a
534.5295	0.075	1069059	keystroke	Key.enter	n/a
534.6095	12.162	1069219	prompt	n/a	peak virtue stamp those\n
535.6995	0.075	1071399	keystroke	p	n/a
535.8045	0.09	1071609	keystroke	e	n/a
535.9395	0.135	1071879	keystroke	a	n/a
536.0895	0.09	1072179	keystroke	k	n/a
536.2395	0.075	1072479	keystroke	Key.space	n/a
536.5245	0.06	1073049	keystroke	f	n/a
536.6295	0.06	1073259	keystroke	i	n/a
536.7495	0.09	1073499	keystroke	r	n/a
536.9595	0.075	1073919	keystroke	t	n/a
537.0495	0.09	1074099	keystroke	u	n/a
537.4095	0.105	1074819	keystroke	e	n/a
537.5295	0.075	1075059	keystroke	Key.space	n/a
537.7545	0.075	1075509	keystroke	s	n/a
537.9345	0.06	1075869	keystroke	t	n/a
538.1445	0.06	1076289	keystroke	a	n/a
538.2195	0.105	1076439	keystroke	m	n/a
538.7295	0.12	1077459	keystroke	Key.backspace	n/a
538.9995	0.06	1077999	keystroke	Key.backspace	n/a
539.2695	0.06	1078539	keystroke	Key.backspace	n/a
539.5395	0.075	1079079	keystroke	Key.backspace	n/a
539.8695	0.06	1079739	keystroke	Key.backspace	n/a
540.0495	0.075	1080099	keystroke	Key.backspace	n/a
540.2595	0.075	1080519	keystroke	Key.backspace	n/a
540.4695	0.075	1080939	keystroke	Key.backspace	n/a
540.7695	0.075	1081539	keystroke	Key.backspace	n/a
541.1145	0.06	1082229	keystroke	Key.backspace	n/a
541.5495	0.075	1083099	keystroke	Key.backspace	n/a
542.0895	0.105	1084179	keystroke	v	n/a
542.4195	0.06	1084839	keystroke	i	n/a
542.5545	0.105	1085109	keystroke	r	n/a
542.7795	0.09	1085559	keystroke	t	n/a
542.9745	0.075	1085949	keystroke	u	n/a
543.6195	0.075	1087239	keystroke	e	n/a
544.1745	0.09	1088349	keystroke	Key.space	n/a
544.355	0.0745	1088710	keystroke	s	n/a
544.5495	0.0605	1089099	keystroke	t	n/a
544.73	0.12	1089460	keystroke	a	n/a
544.775	0.09	1089550	keystroke	m	n/a
545.42	0.06	1090840	keystroke	p	n/a
545.63	0.09	1091260	keystroke	Key.space	n/a
545.885	0.09	1091770	keystroke	t	n/a
545.975	0.075	1091950	keystroke	h	n/a
546.155	0.09	1092310	keystroke	o	n/a
546.23	0.105	1092460	keystroke	s	n/a
546.41	0.12	1092820	keystroke	e	n/a
546.695	0.075	1093390	keystroke	Key.enter	n/a
546.7745	5.637	1093549	prompt	n/a	cookbook tariff excerpt marc\n
547.535	0.105	1095070	keystroke	c	n/a
547.625	0.075	1095250	keystroke	o	n/a
547.76	0.09	1095520	keystroke	o	n/a
547.925	0.09	1095850	keystroke	k	n/a
548.15	0.075	1096300	keystroke	b	n/a
548.375	0.045	1096750	keystroke	o	n/a
548.48	0.09	1096960	keystroke	o	n/a
548.615	0.105	1097230	keystroke	k	n/a
548.765	0.105	1097530	keystroke	Key.space	n/a
549.005	0.075	1098010	keystroke	t	n/a
549.2	0.12	1098400	keystroke	a	n/a
549.335	0.09	1098670	keystroke	r	n/a
549.44	0.075	1098880	keystroke	i	n/a
549.605	0.06	1099210	keystroke	f	n/a
549.755	0.075	1099510	keystroke	f	n/a
549.86	0.09	1099720	keystroke	Key.space	n/a
550.025	0.09	1100050	keystroke	e	n/a
550.28	0.105	1100560	keystroke	x	n/a
550.52	0.075	1101040	keystroke	c	n/a
550.715	0.105	1101430	keystroke	e	n/a
550.97	0.075	1101940	keystroke	r	n/a
551.09	0.045	1102180	keystroke	p	n/a
551.255	0.075	1102510	keystroke	t	n/a
551.405	0.06	1102810	keystroke	Key.space	n/a
551.63	0.06	1103260	keystroke	m	n/a
551.705	0.075	1103410	keystroke	a	n/a
551.84	0.075	1103680	keystroke	r	n/a
552.05	0.105	1104100	keystroke	c	n/a
552.32	0.09	1104640	keystroke	Key.enter	n/a
552.4145	5.217	1104829	prompt	n/a	skills findings conscious means\n
553.085	0.105	1106170	keystroke	s	n/a
553.205	0.045	1106410	keystroke	k	n/a
553.37	0.06	1106740	keystroke	i	n/a
553.61	0.045	1107220	keystroke	l	n/a
553.745	0.045	1107490	keystroke	l	n/a
553.865	0.09	1107730	keystroke	s	n/a
553.97	0.09	1107940	keystroke	Key.space	n/a
554.135	0.09	1108270	keystroke	f	n/a
554.21	0.06	1108420	keystroke	i	n/a
554.345	0.09	1108690	keystroke	n	n/a
554.51	0.09	1109020	keystroke	d	n/a
554.585	0.06	1109170	keystroke	i	n/a
554.69	0.09	1109380	keystroke	n	n/a
554.825	0.09	1109650	keystroke	g	n/a
555.08	0.075	1110160	keystroke	s	n/a
555.185	0.09	1110370	keystroke	Key.space	n/a
555.395	0.09	1110790	keystroke	c	n/a
555.47	0.075	1110940	keystroke	o	n/a
555.65	0.105	1111300	keystroke	n	n/a
555.8	0.06	1111600	keystroke	s	n/a
555.98	0.09	1111960	keystroke	c	n/a
556.145	0.09	1112290	keystroke	i	n/a
556.37	0.105	1112740	keystroke	o	n/a
556.46	0.09	1112920	keystroke	u	n/a
556.625	0.09	1113250	keystroke	s	n/a
556.73	0.075	1113460	keystroke	Key.space	n/a
556.895	0.09	1113790	keystroke	m	n/a
556.985	0.075	1113970	keystroke	e	n/a
557.105	0.12	1114210	keystroke	a	n/a
557.21	0.075	1114420	keystroke	n	n/a
557.36	0.105	1114720	keystroke	s	n/a
557.54	0.09	1115080	keystroke	Key.enter	n/a
557.6345	9.792	1115269	prompt	n/a	parade allowed turtle commodities\n
558.35	0.06	1116700	keystroke	p	n/a
558.455	0.09	1116910	keystroke	a	n/a
558.59	0.135	1117180	keystroke	r	n/a
558.755	0.135	1117510	keystroke	a	n/a
558.95	0.09	1117900	keystroke	d	n/a
559.1	0.09	1118200	keystroke	e	n/a
559.175	0.09	1118350	keystroke	Key.space	n/a
559.355	0.0895	1118710	keystroke	a	n/a
559.459	0.06	1118918	keystroke	l	n/a
559.61	0.045	1119220	keystroke	l	n/a
559.76	0.06	1119520	keystroke	o	n/a
559.865	0.12	1119730	keystroke	w	n/a
560.014	0.076	1120028	keystroke	e	n/a
560.18	0.105	1120360	keystroke	d	n/a
560.33	0.09	1120660	keystroke	Key.space	n/a
560.51	0.09	1121020	keystroke	t	n/a
560.615	0.075	1121230	keystroke	u	n/a
560.75	0.075	1121500	keystroke	r	n/a
561.019	0.091	1122038	keystroke	t	n/a
561.17	0.074	1122340	keystroke	l	n/a
561.29	0.09	1122580	keystroke	e	n/a
561.424	0.09	1122848	keystroke	Key.space	n/a
561.589	0.076	1123178	keystroke	c	n/a
561.649	0.075	1123298	keystroke	o	n/a
561.844	0.076	1123688	keystroke	m	n/a
561.964	0.075	1123928	keystroke	m	n/a
562.114	0.076	1124228	keystroke	o	n/a
562.3095	0.061	1124619	keystroke	d	n/a
565.642	0.028	1131284	keystroke	i	n/a
565.835	0.075	1131670	keystroke	t	n/a
565.97	0.09	1131940	keystroke	i	n/a
566.255	0.09	1132510	keystroke	e	n/a
566.51	0.105	1133020	keystroke	s	n/a
567.335	0.09	1134670	keystroke	Key.enter	n/a
567.4295	6.4165	1134859	prompt	n/a	spread terminology herb that're\n
568.43	0.09	1136860	keystroke	s	n/a
568.625	0.075	1137250	keystroke	p	n/a
568.865	0.105	1137730	keystroke	r	n/a
568.955	0.09	1137910	keystroke	e	n/a
569.24	0.075	1138480	keystroke	a	n/a
569.42	0.09	1138840	keystroke	d	n/a
569.495	0.09	1138990	keystroke	Key.space	n/a
569.795	0.06	1139590	keystroke	t	n/a
569.945	0.12	1139890	keystroke	e	n/a
570.05	0.105	1140100	keystroke	r	n/a
570.14	0.075	1140280	keystroke	m	n/a
570.26	0.09	1140520	keystroke	i	n/a
570.425	0.09	1140850	keystroke	n	n/a
570.725	0.0595	1141450	keystroke	o	n/a
570.9345	0.045	1141869	keystroke	l	n/a
571.0695	0.06	1142139	keystroke	o	n/a
571.2045	0.09	1142409	keystroke	g	n/a
571.3095	0.09	1142619	keystroke	y	n/a
571.4145	0.09	1142829	keystroke	Key.space	n/a
571.7295	0.06	1143459	keystroke	h	n/a
571.8345	0.075	1143669	keystroke	e	n/a
571.9245	0.12	1143849	keystroke	r	n/a
572.0895	0.105	1144179	keystroke	b	n/a
572.4645	0.06	1144929	keystroke	Key.space	n/a
572.5845	0.105	1145169	keystroke	t	n/a
572.6745	0.09	1145349	keystroke	h	n/a
572.8245	0.105	1145649	keystroke	a	n/a
573.0045	0.105	1146009	keystroke	t	n/a
573.1245	0.0905	1146249	keystroke	'	n/a
573.245	0.105	1146490	keystroke	r	n/a
573.365	0.09	1146730	keystroke	e	n/a
573.755	0.09	1147510	keystroke	Key.enter	n/a
573.849	16.962	1147698	prompt	n/a	warren kingston subsequently a\n
582.292	0.043	1164584	keystroke	w	n/a
582.455	0.09	1164910	keystroke	a	n/a
582.665	0.09	1165330	keystroke	r	n/a
582.815	0.09	1165630	keystroke	r	n/a
582.995	0.09	1165990	keystroke	e	n/a
583.115	0.105	1166230	keystroke	n	n/a
583.265	0.075	1166530	keystroke	Key.space	n/a
583.505	0.075	1167010	keystroke	k	n/a
583.655	0.06	1167310	keystroke	i	n/a
583.79	0.105	1167580	keystroke	n	n/a
583.865	0.075	1167730	keystroke	g	n/a
584.105	0.075	1168210	keystroke	s	n/a
584.315	0.075	1168630	keystroke	t	n/a
584.435	0.045	1168870	keystroke	o	n/a
584.66	0.075	1169320	keystroke	n	n/a
584.795	0.105	1169590	keystroke	Key.space	n/a
584.975	0.09	1169950	keystroke	s	n/a
585.095	0.06	1170190	keystroke	u	n/a
585.26	0.09	1170520	keystroke	b	n/a
586.145	0.105	1172290	keystroke	e	n/a
587.24	0.075	1174480	keystroke	Key.backspace	n/a
587.54	0.075	1175080	keystroke	s	n/a
587.825	0.075	1175650	keystroke	e	n/a
588.26	0.09	1176520	keystroke	q	n/a
588.98	0.06	1177960	keystroke	u	n/a
589.175	0.075	1178350	keystroke	e	n/a
589.265	0.075	1178530	keystroke	n	n/a
589.46	0.09	1178920	keystroke	t	n/a
589.595	0.075	1179190	keystroke	l	n/a
589.85	0.09	1179700	keystroke	y	n/a
590	0.09	1180000	keystroke	Key.space	n/a
590.33	0.105	1180660	keystroke	a	n/a
590.69	0.12	1181380	keystroke	Key.enter	n/a
590.8165	19.705	1181633	prompt	n/a	convenient malawi including scanners\n
601.372	0.043	1202744	keystroke	c	n/a
601.373	0.087	1202746	keystroke	o	n/a
601.565	0.0905	1203130	keystroke	n	n/a
601.76	0.075	1203520	keystroke	v	n/a
601.94	0.12	1203880	keystroke	e	n/a
602.075	0.059	1204150	keystroke	n	n/a
602.3	0.075	1204600	keystroke	i	n/a
602.525	0.105	1205050	keystroke	e	n/a
602.615	0.09	1205230	keystroke	n	n/a
602.749	0.075	1205498	keystroke	t	n/a
603.064	0.06	1206128	keystroke	Key.space	n/a
603.589	0.091	1207178	keystroke	m	n/a
603.995	0.12	1207990	keystroke	a	n/a
604.34	0.12	1208680	keystroke	l	n/a
604.64	0.105	1209280	keystroke	a	n/a
605.1645	0.075	1210329	keystroke	q	n/a
605.7955	0.075	1211591	keystroke	Key.backspace	n/a
605.8855	0.074	1211771	keystroke	w	n/a
606.0645	0.091	1212129	keystroke	i	n/a
606.7695	0.09	1213539	keystroke	Key.space	n/a
606.9495	0.076	1213899	keystroke	i	n/a
607.1595	0.06	1214319	keystroke	n	n/a
607.2795	0.105	1214559	keystroke	c	n/a
607.3995	0.075	1214799	keystroke	l	n/a
607.5655	0.09	1215131	keystroke	u	n/a
607.7455	0.059	1215491	keystroke	d	n/a
607.8195	0.076	1215639	keystroke	i	n/a
607.9845	0.061	1215969	keystroke	n	n/a
608.0755	0.089	1216151	keystroke	g	n/a
608.1945	0.105	1216389	keystroke	Key.space	n/a
608.5995	0.09	1217199	keystroke	s	n/a
608.8095	0.075	1217619	keystroke	c	n/a
608.9595	0.105	1217919	keystroke	a	n/a
609.0495	0.06	1218099	keystroke	n	n/a
609.1695	0.075	1218339	keystroke	n	n/a
609.3045	0.105	1218609	keystroke	e	n/a
609.4245	0.09	1218849	keystroke	r	n/a
609.6645	0.075	1219329	keystroke	s	n/a
610.4295	0.09	1220859	keystroke	Key.enter	n/a
610.525	9.0415	1221050	prompt	n/a	renewable handheld forty adaptation\n
611.2995	0.03	1222599	keystroke	n	n/a
611.7045	0.06	1223409	keystroke	Key.backspace	n/a
611.9295	0.09	1223859	keystroke	r	n/a
612.0495	0.09	1224099	keystroke	e	n/a
612.1695	0.09	1224339	keystroke	n	n/a
612.3795	0.105	1224759	keystroke	e	n/a
612.784	0.076	1225568	keystroke	w	n/a
613.01	0.105	1226020	keystroke	a	n/a
613.1	0.06	1226200	keystroke	b	n/a
613.325	0.045	1226650	keystroke	l	n/a
613.4455	0.0745	1226891	keystroke	e	n/a
613.505	0.075	1227010	keystroke	Key.space	n/a
613.685	0.0755	1227370	keystroke	h	n/a
613.7905	0.075	1227581	keystroke	a	n/a
613.9105	0.09	1227821	keystroke	n	n/a
614.0455	0.105	1228091	keystroke	d	n/a
614.1805	0.075	1228361	keystroke	h	n/a
614.3605	0.075	1228721	keystroke	e	n/a
614.8105	0.089	1229621	keystroke	l	n/a
615.0345	0.06	1230069	keystroke	d	n/a
615.1245	0.09	1230249	keystroke	Key.space	n/a
615.2895	0.0755	1230579	keystroke	f	n/a
615.365	0.0595	1230730	keystroke	o	n/a
615.5445	0.105	1231089	keystroke	r	n/a
615.7845	0.075	1231569	keystroke	t	n/a
615.8895	0.075	1231779	keystroke	y	n/a
616.4895	0.105	1232979	keystroke	Key.space	n/a
616.6695	0.075	1233339	keystroke	a	n/a
616.8495	0.075	1233699	keystroke	d	n/a
617.0295	0.09	1234059	keystroke	a	n/a
617.1495	0.075	1234299	keystroke	p	n/a
617.3895	0.075	1234779	keystroke	t	n/a
617.6295	0.06	1235259	keystroke	a	n/a
617.8845	0.075	1235769	keystroke	t	n/a
618.0195	0.075	1236039	keystroke	i	n/a
618.1995	0.06	1236399	keystroke	o	n/a
618.3795	0.075	1236759	keystroke	n	n/a
619.4895	0.075	1238979	keystroke	Key.enter	n/a
619.569	8.8025	1239138	prompt	n/a	characterization sensor phase whereas\n
621.9675	0.001	1243935	keystroke	c	n/a
621.9795	0.09	1243959	keystroke	h	n/a
622.1145	0.09	1244229	keystroke	a	n/a
622.3095	0.075	1244619	keystroke	r	n/a
622.5495	0.09	1245099	keystroke	a	n/a
622.7895	0.075	1245579	keystroke	c	n/a
623.0145	0.09	1246029	keystroke	t	n/a
623.1795	0.075	1246359	keystroke	e	n/a
623.2695	0.075	1246539	keystroke	r	n/a
623.4795	0.09	1246959	keystroke	i	n/a
623.6595	0.09	1247319	keystroke	z	n/a
623.8995	0.075	1247799	keystroke	a	n/a
624.0795	0.09	1248159	keystroke	t	n/a
624.1845	0.06	1248369	keystroke	i	n/a
624.3495	0.045	1248699	keystroke	o	n/a
624.5145	0.075	1249029	keystroke	n	n/a
624.6045	0.06	1249209	keystroke	Key.space	n/a
624.6945	0.09	1249389	keystroke	s	n/a
624.8895	0.075	1249779	keystroke	e	n/a
625.0245	0.075	1250049	keystroke	n	n/a
625.1145	0.105	1250229	keystroke	s	n/a
625.3245	0.06	1250649	keystroke	o	n/a
625.4595	0.09	1250919	keystroke	r	n/a
625.5495	0.09	1251099	keystroke	Key.space	n/a
625.7745	0.06	1251549	keystroke	p	n/a
625.97	0.0745	1251940	keystroke	h	n/a
626.0455	0.089	1252091	keystroke	a	n/a
626.2245	0.09	1252449	keystroke	s	n/a
626.4195	0.075	1252839	keystroke	e	n/a
626.5545	0.09	1253109	keystroke	Key.space	n/a
626.9895	0.075	1253979	keystroke	w	n/a
627.0645	0.09	1254129	keystroke	h	n/a
627.1845	0.09	1254369	keystroke	e	n/a
627.3495	0.1055	1254699	keystroke	r	n/a
627.4395	0.0905	1254879	keystroke	e	n/a
627.695	0.09	1255390	keystroke	a	n/a
627.89	0.075	1255780	keystroke	s	n/a
628.28	0.09	1256560	keystroke	Key.enter	n/a
628.3745	9.417	1256749	prompt	n/a	communication handled barn farmers\n
629.15	0.09	1258300	keystroke	c	n/a
629.21	0.06	1258420	keystroke	o	n/a
629.42	0.06	1258840	keystroke	m	n/a
629.54	0.06	1259080	keystroke	m	n/a
629.945	0.075	1259890	keystroke	u	n/a
630.065	0.105	1260130	keystroke	n	n/a
630.275	0.06	1260550	keystroke	i	n/a
631.19	0.045	1262380	keystroke	c	n/a
631.835	0.105	1263670	keystroke	a	n/a
632.18	0.09	1264360	keystroke	t	n/a
632.33	0.105	1264660	keystroke	i	n/a
632.615	0.06	1265230	keystroke	o	n/a
632.84	0.075	1265680	keystroke	n	n/a
632.945	0.075	1265890	keystroke	Key.space	n/a
633.185	0.09	1266370	keystroke	h	n/a
633.53	0.09	1267060	keystroke	a	n/a
633.65	0.09	1267300	keystroke	n	n/a
633.875	0.06	1267750	keystroke	d	n/a
634.8805	0.075	1269761	keystroke	l	n/a
635.1655	0.09	1270331	keystroke	e	n/a
635.39	0.09	1270780	keystroke	d	n/a
635.495	0.075	1270990	keystroke	Key.space	n/a
635.66	0.09	1271320	keystroke	b	n/a
635.765	0.075	1271530	keystroke	a	n/a
635.96	0.075	1271920	keystroke	r	n/a
636.32	0.09	1272640	keystroke	n	n/a
636.455	0.075	1272910	keystroke	Key.space	n/a
636.605	0.075	1273210	keystroke	f	n/a
636.755	0.105	1273510	keystroke	a	n/a
636.95	0.09	1273900	keystroke	r	n/a
637.055	0.105	1274110	keystroke	m	n/a
637.19	0.12	1274380	keystroke	e	n/a
637.28	0.12	1274560	keystroke	r	n/a
637.505	0.09	1275010	keystroke	s	n/a
637.73	0.06	1275460	keystroke	Key.enter	n/a
637.7945	4.797	1275589	prompt	n/a	chips clarke rehab specs\n
