onset	duration	sample	value	key	prompt_text
6.3645	9.586	12729	prompt	n/a	the quick brown fox jumps over a lazy dog\n
8.781	0.057	17562	keystroke_t	t	n/a
8.808	0.12	17616	keystroke_h	h	n/a
8.943	0.135	17886	keystroke_e	e	n/a
9.063	0.135	18126	keystroke_Key.space	Key.space	n/a
9.213	0.135	18426	keystroke_q	q	n/a
9.378	0.135	18756	keystroke_u	u	n/a
9.468	0.12	18936	keystroke_i	i	n/a
9.603	0.12	19206	keystroke_c	c	n/a
9.738	0.21	19476	keystroke_k	k	n/a
9.872	0.12	19744	keystroke_Key.space	Key.space	n/a
10.308	0.06	20616	keystroke_b	b	n/a
10.518	0.09	21036	keystroke_r	r	n/a
10.653	0.09	21306	keystroke_o	o	n/a
10.758	0.105	21516	keystroke_w	w	n/a
10.878	0.165	21756	keystroke_n	n	n/a
10.997	0.15	21994	keystroke_Key.space	Key.space	n/a
11.403	0.105	22806	keystroke_f	f	n/a
11.538	0.1345	23076	keystroke_o	o	n/a
11.7025	0.12	23405	keystroke_x	x	n/a
11.973	0.135	23946	keystroke_Key.space	Key.space	n/a
12.378	0.09	24756	keystroke_j	j	n/a
12.5725	0.06	25145	keystroke_u	u	n/a
12.7825	0.105	25565	keystroke_m	m	n/a
12.8425	0.136	25685	keystroke_p	p	n/a
12.9925	0.12	25985	keystroke_s	s	n/a
13.1425	0.135	26285	keystroke_Key.space	Key.space	n/a
13.3975	0.105	26795	keystroke_o	o	n/a
13.4875	0.1205	26975	keystroke_v	v	n/a
13.5925	0.18	27185	keystroke_e	e	n/a
13.7275	0.105	27455	keystroke_r	r	n/a
13.8625	0.105	27725	keystroke_Key.space	Key.space	n/a
14.118	0.1045	28236	keystroke_a	a	n/a
14.2375	0.12	28475	keystroke_Key.space	Key.space	n/a
14.4775	0.135	28955	keystroke_l	l	n/a
14.6275	0.09	29255	keystroke_a	a	n/a
14.9425	0.12	29885	keystroke_z	z	n/a
15.0625	0.105	30125	keystroke_y	y	n/a
15.1375	0.12	30275	keystroke_Key.space	Key.space	n/a
15.4075	0.105	30815	keystroke_d	d	n/a
15.5275	0.09	31055	keystroke_o	o	n/a
15.6475	0.09	31295	keystroke_g	g	n/a
15.8575	0.0895	31715	keystroke_Key.enter	Key.enter	n/a
15.957	5.5125	31914	prompt	n/a	smith mailed storm cheat\n
16.713	0.12	33426	keystroke_s	s	n/a
16.907	0.136	33814	keystroke_m	m	n/a
16.997	0.15	33994	keystroke_i	i	n/a
17.192	0.09	34384	keystroke_t	t	n/a
17.328	0.15	34656	keystroke_h	h	n/a
17.492	0.15	34984	keystroke_Key.space	Key.space	n/a
17.9125	0.12	35825	keystroke_m	m	n/a
18.0775	0.12	36155	keystroke_a	a	n/a
18.2125	0.135	36425	keystroke_i	i	n/a
18.2875	0.1655	36575	keystroke_l	l	n/a
18.3925	0.0745	36785	keystroke_e	e	n/a
18.602	0.075	37204	keystroke_d	d	n/a
18.678	0.104	37356	keystroke_Key.space	Key.space	n/a
18.812	0.18	37624	keystroke_s	s	n/a
19.457	0.09	38914	keystroke_t	t	n/a
19.607	0.135	39214	keystroke_o	o	n/a
19.772	0.121	39544	keystroke_r	r	n/a
19.9375	0.18	39875	keystroke_m	m	n/a
20.2525	0.135	40505	keystroke_Key.space	Key.space	n/a
20.6425	0.15	41285	keystroke_c	c	n/a
20.8075	0.105	41615	keystroke_h	h	n/a
20.9725	0.15	41945	keystroke_e	e	n/a
21.0775	0.165	42155	keystroke_a	a	n/a
21.3475	0.12	42695	keystroke_Key.enter	Key.enter	n/a
21.4745	0.2195	42949	prompt	n/a	watch missouri apparatus hash\n
21.5575	0.135	43115	keystroke_Key.enter	Key.enter	n/a
21.7	8.6795	43400	prompt	n/a	criteria israeli conf nominated\n
22.593	0.074	45186	keystroke_c	c	n/a
22.788	0.075	45576	keystroke_r	r	n/a
22.923	0.1195	45846	keystroke_i	i	n/a
23.313	0.15	46626	keystroke_t	t	n/a
23.508	0.135	47016	keystroke_e	e	n/a
23.808	0.105	47616	keystroke_r	r	n/a
23.9725	0.09	47945	keystroke_i	i	n/a
24.0775	0.12	48155	keystroke_a	a	n/a
24.2275	0.165	48455	keystroke_Key.space	Key.space	n/a
24.6775	0.12	49355	keystroke_i	i	n/a
24.8425	0.12	49685	keystroke_s	s	n/a
25.413	0.18	50826	keystroke_r	r	n/a
25.803	0.12	51606	keystroke_a	a	n/a
26.583	0.1045	53166	keystroke_e	e	n/a
26.7475	0.15	53495	keystroke_l	l	n/a
27.0025	0.1505	54005	keystroke_i	i	n/a
27.288	0.135	54576	keystroke_Key.space	Key.space	n/a
27.573	0.105	55146	keystroke_c	c	n/a
27.648	0.135	55296	keystroke_o	o	n/a
27.708	0.18	55416	keystroke_n	n	n/a
27.903	0.104	55806	keystroke_f	f	n/a
28.052	0.135	56104	keystroke_Key.space	Key.space	n/a
28.382	0.18	56764	keystroke_n	n	n/a
28.503	0.149	57006	keystroke_o	o	n/a
28.937	0.135	57874	keystroke_m	m	n/a
29.057	0.165	58114	keystroke_i	i	n/a
29.267	0.15	58534	keystroke_n	n	n/a
29.477	0.135	58954	keystroke_a	a	n/a
29.598	0.1045	59196	keystroke_t	t	n/a
29.7775	0.09	59555	keystroke_e	e	n/a
30.003	0.06	60006	keystroke_d	d	n/a
30.273	0.105	60546	keystroke_Key.enter	Key.enter	n/a
30.3895	7.2945	60779	prompt	n/a	equipped readings valve binding\n
31.098	0.075	62196	keystroke_e	e	n/a
31.382	0.091	62764	keystroke_q	q	n/a
31.518	0.195	63036	keystroke_u	u	n/a
31.833	0.1345	63666	keystroke_i	i	n/a
32.1625	0.105	64325	keystroke_p	p	n/a
32.4025	0.12	64805	keystroke_p	p	n/a
32.5825	0.075	65165	keystroke_e	e	n/a
32.8075	0.105	65615	keystroke_d	d	n/a
32.9725	0.1645	65945	keystroke_Key.space	Key.space	n/a
33.393	0.105	66786	keystroke_r	r	n/a
33.453	0.105	66906	keystroke_e	e	n/a
33.543	0.12	67086	keystroke_a	a	n/a
33.678	0.105	67356	keystroke_d	d	n/a
33.813	0.15	67626	keystroke_i	i	n/a
33.888	0.15	67776	keystroke_n	n	n/a
33.993	0.135	67986	keystroke_g	g	n/a
34.143	0.135	68286	keystroke_s	s	n/a
34.308	0.15	68616	keystroke_Key.space	Key.space	n/a
34.683	0.12	69366	keystroke_v	v	n/a
34.788	0.12	69576	keystroke_a	a	n/a
34.938	0.15	69876	keystroke_l	l	n/a
35.268	0.15	70536	keystroke_v	v	n/a
35.583	0.12	71166	keystroke_e	e	n/a
35.778	0.135	71556	keystroke_Key.space	Key.space	n/a
36.558	0.0895	73116	keystroke_b	b	n/a
36.7075	0.15	73415	keystroke_i	i	n/a
36.7975	0.15	73595	keystroke_n	n	n/a
36.9325	0.12	73865	keystroke_d	d	n/a
37.0675	0.135	74135	keystroke_i	i	n/a
37.1575	0.15	74315	keystroke_n	n	n/a
37.2925	0.09	74585	keystroke_g	g	n/a
37.5925	0.09	75185	keystroke_Key.enter	Key.enter	n/a
37.69	9.2495	75380	prompt	n/a	evaluate harbor compared mcdonald\n
38.433	0.09	76866	keystroke_e	e	n/a
38.643	0.105	77286	keystroke_v	v	n/a
38.733	0.135	77466	keystroke_a	a	n/a
38.898	0.195	77796	keystroke_l	l	n/a
38.988	0.15	77976	keystroke_u	u	n/a
39.318	0.165	78636	keystroke_a	a	n/a
39.468	0.135	78936	keystroke_t	t	n/a
39.633	0.105	79266	keystroke_e	e	n/a
39.917	0.15	79834	keystroke_Key.space	Key.space	n/a
40.128	0.12	80256	keystroke_h	h	n/a
40.292	0.135	80584	keystroke_a	a	n/a
40.367	0.106	80734	keystroke_r	r	n/a
40.848	0.089	81696	keystroke_b	b	n/a
41.012	0.09	82024	keystroke_o	o	n/a
41.237	0.12	82474	keystroke_r	r	n/a
41.537	0.1355	83074	keystroke_Key.space	Key.space	n/a
42.108	0.12	84216	keystroke_c	c	n/a
42.273	0.089	84546	keystroke_o	o	n/a
42.348	0.165	84696	keystroke_m	m	n/a
42.467	0.135	84934	keystroke_p	p	n/a
42.617	0.136	85234	keystroke_a	a	n/a
42.708	0.12	85416	keystroke_r	r	n/a
42.857	0.106	85714	keystroke_e	e	n/a
43.082	0.105	86164	keystroke_d	d	n/a
43.277	0.135	86554	keystroke_Key.space	Key.space	n/a
44.133	0.134	88266	keystroke_m	m	n/a
44.372	0.12	88744	keystroke_c	c	n/a
44.687	0.09	89374	keystroke_d	d	n/a
44.837	0.105	89674	keystroke_o	o	n/a
45.122	0.181	90244	keystroke_a	a	n/a
45.257	0.21	90514	keystroke_n	n	n/a
45.407	0.18	90814	keystroke_i	i	n/a
45.812	0.09	91624	keystroke_Key.backspace	Key.backspace	n/a
45.978	0.1195	91956	keystroke_a	a	n/a
46.1125	0.135	92225	keystroke_l	l	n/a
46.2925	0.135	92585	keystroke_d	d	n/a
46.818	0.12	93636	keystroke_Key.enter	Key.enter	n/a
46.944	11.0355	93888	prompt	n/a	southampton msgstr extra picture\n
48.078	0.12	96156	keystroke_s	s	n/a
48.137	0.151	96274	keystroke_o	o	n/a
48.227	0.136	96454	keystroke_u	u	n/a
48.392	0.105	96784	keystroke_t	t	n/a
48.542	0.121	97084	keystroke_h	h	n/a
50.162	0.165	100324	keystroke_a	a	n/a
50.342	0.165	100684	keystroke_m	m	n/a
50.448	0.149	100896	keystroke_p	p	n/a
50.762	0.105	101524	keystroke_t	t	n/a
51.092	0.165	102184	keystroke_o	o	n/a
51.212	0.165	102424	keystroke_n	n	n/a
51.7525	0.15	103505	keystroke_Key.space	Key.space	n/a
52.4425	0.135	104885	keystroke_m	m	n/a
52.7425	0.12	105485	keystroke_s	s	n/a
53.148	0.089	106296	keystroke_g	g	n/a
53.567	0.09	107134	keystroke_s	s	n/a
53.807	0.091	107614	keystroke_t	t	n/a
54.1225	0.09	108245	keystroke_r	r	n/a
54.8425	0.135	109685	keystroke_Key.space	Key.space	n/a
55.143	0.075	110286	keystroke_e	e	n/a
55.353	0.105	110706	keystroke_x	x	n/a
55.563	0.075	111126	keystroke_t	t	n/a
55.758	0.105	111516	keystroke_r	r	n/a
55.833	0.15	111666	keystroke_a	a	n/a
56.087	0.135	112174	keystroke_Key.space	Key.space	n/a
56.552	0.121	113104	keystroke_p	p	n/a
56.643	0.18	113286	keystroke_i	i	n/a
57.018	0.105	114036	keystroke_c	c	n/a
57.258	0.075	114516	keystroke_t	t	n/a
57.393	0.105	114786	keystroke_u	u	n/a
57.498	0.075	114996	keystroke_r	r	n/a
57.543	0.135	115086	keystroke_e	e	n/a
57.888	0.09	115776	keystroke_Key.enter	Key.enter	n/a
57.9895	7.8655	115979	prompt	n/a	professor brussels follows cross\n
58.653	0.105	117306	keystroke_p	p	n/a
58.773	0.045	117546	keystroke_r	r	n/a
58.863	0.075	117726	keystroke_o	o	n/a
58.968	0.1195	117936	keystroke_f	f	n/a
59.0725	0.105	118145	keystroke_e	e	n/a
59.3125	0.09	118625	keystroke_s	s	n/a
59.5075	0.0905	119015	keystroke_s	s	n/a
59.613	0.1195	119226	keystroke_o	o	n/a
59.808	0.1045	119616	keystroke_r	r	n/a
60.318	0.15	120636	keystroke_Key.space	Key.space	n/a
60.753	0.075	121506	keystroke_b	b	n/a
60.963	0.09	121926	keystroke_r	r	n/a
61.082	0.075	122164	keystroke_u	u	n/a
61.2175	0.0895	122435	keystroke_s	s	n/a
61.4125	0.12	122825	keystroke_s	s	n/a
61.698	0.18	123396	keystroke_l	l	n/a
61.863	0.12	123726	keystroke_e	e	n/a
62.252	0.045	124504	keystroke_Key.backspace	Key.backspace	n/a
62.372	0.09	124744	keystroke_Key.backspace	Key.backspace	n/a
62.492	0.09	124984	keystroke_e	e	n/a
62.628	0.104	125256	keystroke_l	l	n/a
62.733	0.134	125466	keystroke_s	s	n/a
62.897	0.12	125794	keystroke_Key.space	Key.space	n/a
63.138	0.12	126276	keystroke_f	f	n/a
63.243	0.105	126486	keystroke_o	o	n/a
63.423	0.09	126846	keystroke_l	l	n/a
63.618	0.105	127236	keystroke_l	l	n/a
63.858	0.105	127716	keystroke_o	o	n/a
63.978	0.09	127956	keystroke_w	w	n/a
64.248	0.09	128496	keystroke_s	s	n/a
64.413	0.135	128826	keystroke_Key.space	Key.space	n/a
64.833	0.135	129666	keystroke_c	c	n/a
65.088	0.12	130176	keystroke_r	r	n/a
65.253	0.105	130506	keystroke_o	o	n/a
65.433	0.075	130866	keystroke_s	s	n/a
65.643	0.09	131286	keystroke_s	s	n/a
65.763	0.09	131526	keystroke_Key.enter	Key.enter	n/a
65.8615	9.1425	131723	prompt	n/a	distribution representing deluxe text\n
66.543	0.1045	133086	keystroke_d	d	n/a
66.6325	0.135	133265	keystroke_i	i	n/a
66.7685	0.104	133537	keystroke_s	s	n/a
66.9025	0.09	133805	keystroke_t	t	n/a
67.1125	0.09	134225	keystroke_r	r	n/a
67.4125	0.135	134825	keystroke_i	i	n/a
67.6825	0.09	135365	keystroke_b	b	n/a
67.8025	0.12	135605	keystroke_u	u	n/a
68.133	0.09	136266	keystroke_t	t	n/a
68.238	0.12	136476	keystroke_i	i	n/a
68.343	0.165	136686	keystroke_o	o	n/a
68.448	0.21	136896	keystroke_n	n	n/a
68.627	0.181	137254	keystroke_Key.space	Key.space	n/a
68.988	0.12	137976	keystroke_r	r	n/a
69.093	0.12	138186	keystroke_e	e	n/a
69.198	0.09	138396	keystroke_p	p	n/a
69.378	0.105	138756	keystroke_r	r	n/a
69.453	0.18	138906	keystroke_e	e	n/a
70.337	0.15	140674	keystroke_s	s	n/a
70.457	0.135	140914	keystroke_e	e	n/a
70.577	0.12	141154	keystroke_n	n	n/a
70.712	0.105	141424	keystroke_t	t	n/a
71.072	0.105	142144	keystroke_i	i	n/a
71.162	0.135	142324	keystroke_n	n	n/a
71.267	0.105	142534	keystroke_g	g	n/a
71.417	0.135	142834	keystroke_Key.space	Key.space	n/a
71.613	0.105	143226	keystroke_e	e	n/a
71.9575	0.0755	143915	keystroke_Key.backspace	Key.backspace	n/a
72.0175	0.0905	144035	keystroke_d	d	n/a
72.182	0.09	144364	keystroke_e	e	n/a
72.347	0.165	144694	keystroke_l	l	n/a
72.467	0.15	144934	keystroke_u	u	n/a
72.662	0.15	145324	keystroke_x	x	n/a
73.067	0.075	146134	keystroke_e	e	n/a
73.262	0.135	146524	keystroke_Key.space	Key.space	n/a
73.562	0.12	147124	keystroke_t	t	n/a
73.652	0.135	147304	keystroke_e	e	n/a
74.3425	0.105	148685	keystroke_x	x	n/a
74.5825	0.135	149165	keystroke_t	t	n/a
74.8975	0.105	149795	keystroke_Key.enter	Key.enter	n/a
75.0085	9.161	150017	prompt	n/a	proxy was legislation descriptions\n
75.5875	0.09	151175	keystroke_p	p	n/a
75.7075	0.09	151415	keystroke_r	r	n/a
75.8125	0.09	151625	keystroke_o	o	n/a
76.158	0.12	152316	keystroke_x	x	n/a
76.338	0.149	152676	keystroke_y	y	n/a
76.473	0.1345	152946	keystroke_Key.space	Key.space	n/a
76.8925	0.09	153785	keystroke_w	w	n/a
76.9975	0.135	153995	keystroke_a	a	n/a
77.1175	0.135	154235	keystroke_s	s	n/a
77.2825	0.135	154565	keystroke_Key.space	Key.space	n/a
77.4625	0.15	154925	keystroke_l	l	n/a
77.5675	0.09	155135	keystroke_e	e	n/a
77.8375	0.12	155675	keystroke_g	g	n/a
77.9875	0.135	155975	keystroke_i	i	n/a
78.152	0.195	156304	keystroke_s	s	n/a
78.512	0.06	157024	keystroke_t	t	n/a
78.692	0.12	157384	keystroke_r	r	n/a
79.082	0.06	158164	keystroke_Key.backspace	Key.backspace	n/a
79.472	0.135	158944	keystroke_l	l	n/a
79.832	0.06	159664	keystroke_Key.backspace	Key.backspace	n/a
79.982	0.06	159964	keystroke_Key.backspace	Key.backspace	n/a
80.2075	0.18	160415	keystroke_l	l	n/a
80.4325	0.21	160865	keystroke_a	a	n/a
80.6275	0.15	161255	keystroke_t	t	n/a
80.9125	0.1195	161825	keystroke_i	i	n/a
81.002	0.18	162004	keystroke_o	o	n/a
81.122	0.18	162244	keystroke_n	n	n/a
81.257	0.15	162514	keystroke_Key.space	Key.space	n/a
81.512	0.075	163024	keystroke_d	d	n/a
81.7075	0.075	163415	keystroke_e	e	n/a
81.8875	0.15	163775	keystroke_s	s	n/a
82.697	0.09	165394	keystroke_c	c	n/a
82.892	0.09	165784	keystroke_r	r	n/a
82.997	0.121	165994	keystroke_i	i	n/a
83.088	0.12	166176	keystroke_p	p	n/a
83.223	0.09	166446	keystroke_t	t	n/a
83.373	0.15	166746	keystroke_i	i	n/a
83.478	0.195	166956	keystroke_o	o	n/a
83.643	0.18	167286	keystroke_n	n	n/a
83.808	0.135	167616	keystroke_s	s	n/a
84.093	0.074	168186	keystroke_Key.enter	Key.enter	n/a
84.1745	7.1795	168349	prompt	n/a	nuclear genetics pole begins\n
84.857	0.075	169714	keystroke_n	n	n/a
85.0975	0.06	170195	keystroke_u	u	n/a
85.3525	0.15	170705	keystroke_c	c	n/a
85.4725	0.15	170945	keystroke_l	l	n/a
85.6375	0.135	171275	keystroke_e	e	n/a
85.7275	0.135	171455	keystroke_a	a	n/a
85.8175	0.15	171635	keystroke_r	r	n/a
86.0125	0.15	172025	keystroke_Key.space	Key.space	n/a
86.2975	0.12	172595	keystroke_g	g	n/a
86.4025	0.105	172805	keystroke_e	e	n/a
86.5225	0.1345	173045	keystroke_n	n	n/a
86.672	0.105	173344	keystroke_e	e	n/a
87.032	0.0905	174064	keystroke_t	t	n/a
87.1825	0.09	174365	keystroke_i	i	n/a
87.4075	0.105	174815	keystroke_c	c	n/a
87.6625	0.105	175325	keystroke_s	s	n/a
87.8575	0.15	175715	keystroke_Key.space	Key.space	n/a
88.2025	0.075	176405	keystroke_p	p	n/a
88.4275	0.09	176855	keystroke_o	o	n/a
88.6525	0.12	177305	keystroke_l	l	n/a
88.8925	0.09	177785	keystroke_e	e	n/a
89.4775	0.09	178955	keystroke_Key.backspace	Key.backspace	n/a
89.822	0.075	179644	keystroke_e	e	n/a
89.957	0.1655	179914	keystroke_Key.space	Key.space	n/a
90.2425	0.09	180485	keystroke_b	b	n/a
90.3475	0.09	180695	keystroke_e	e	n/a
90.6625	0.12	181325	keystroke_g	g	n/a
90.7825	0.135	181565	keystroke_i	i	n/a
90.8275	0.165	181655	keystroke_n	n	n/a
91.0375	0.12	182075	keystroke_s	s	n/a
91.2475	0.105	182495	keystroke_Key.enter	Key.enter	n/a
91.3595	10.0895	182719	prompt	n/a	sole thumbnails andorra recruitment\n
92.0725	0.12	184145	keystroke_s	s	n/a
92.3425	0.12	184685	keystroke_o	o	n/a
92.5675	0.12	185135	keystroke_l	l	n/a
92.9275	0.09	185855	keystroke_e	e	n/a
93.1675	0.165	186335	keystroke_Key.space	Key.space	n/a
93.7675	0.105	187535	keystroke_t	t	n/a
93.8575	0.105	187715	keystroke_u	u	n/a
94.2925	0.06	188585	keystroke_Key.backspace	Key.backspace	n/a
94.4725	0.09	188945	keystroke_h	h	n/a
94.6825	0.075	189365	keystroke_u	u	n/a
94.9085	0.104	189817	keystroke_m	m	n/a
95.6575	0.12	191315	keystroke_b	b	n/a
95.8525	0.12	191705	keystroke_n	n	n/a
96.0175	0.105	192035	keystroke_a	a	n/a
96.1375	0.165	192275	keystroke_i	i	n/a
96.2725	0.165	192545	keystroke_l	l	n/a
96.4075	0.12	192815	keystroke_s	s	n/a
96.5725	0.1645	193145	keystroke_Key.space	Key.space	n/a
96.992	0.1355	193984	keystroke_a	a	n/a
97.1125	0.1195	194225	keystroke_n	n	n/a
97.307	0.12	194614	keystroke_d	d	n/a
97.457	0.105	194914	keystroke_o	o	n/a
97.592	0.09	195184	keystroke_r	r	n/a
97.832	0.091	195664	keystroke_r	r	n/a
98.027	0.135	196054	keystroke_a	a	n/a
98.2075	0.15	196415	keystroke_Key.space	Key.space	n/a
98.463	0.1045	196926	keystroke_r	r	n/a
98.5525	0.105	197105	keystroke_e	e	n/a
98.8375	0.075	197675	keystroke_c	c	n/a
99.033	0.0895	198066	keystroke_r	r	n/a
99.1675	0.105	198335	keystroke_u	u	n/a
99.2125	0.1355	198425	keystroke_i	i	n/a
99.3175	0.12	198635	keystroke_t	t	n/a
99.7975	0.1205	199595	keystroke_m	m	n/a
99.933	0.1045	199866	keystroke_e	e	n/a
100.053	0.135	200106	keystroke_n	n	n/a
100.1575	0.12	200315	keystroke_t	t	n/a
101.3125	0.135	202625	keystroke_Key.enter	Key.enter	n/a
101.454	14.59	202908	prompt	n/a	weighted ultra museum oughtn't\n
102.1975	0.1355	204395	keystroke_w	w	n/a
102.303	0.12	204606	keystroke_e	e	n/a
102.618	0.135	205236	keystroke_i	i	n/a
103.158	0.09	206316	keystroke_Key.backspace	Key.backspace	n/a
103.518	0.135	207036	keystroke_i	i	n/a
103.683	0.105	207366	keystroke_g	g	n/a
103.803	0.12	207606	keystroke_h	h	n/a
103.953	0.09	207906	keystroke_t	t	n/a
104.253	0.105	208506	keystroke_e	e	n/a
104.5075	0.12	209015	keystroke_d	d	n/a
104.7475	0.15	209495	keystroke_Key.space	Key.space	n/a
105.108	0.15	210216	keystroke_u	u	n/a
105.2125	0.165	210425	keystroke_l	l	n/a
105.3325	0.075	210665	keystroke_t	t	n/a
105.5125	0.135	211025	keystroke_r	r	n/a
105.7525	0.18	211505	keystroke_a	a	n/a
105.9925	0.165	211985	keystroke_Key.space	Key.space	n/a
106.3975	0.135	212795	keystroke_m	m	n/a
106.623	0.105	213246	keystroke_u	u	n/a
106.773	0.105	213546	keystroke_s	s	n/a
107.043	0.105	214086	keystroke_e	e	n/a
107.178	0.09	214356	keystroke_u	u	n/a
107.433	0.135	214866	keystroke_m	m	n/a
107.748	0.15	215496	keystroke_Key.space	Key.space	n/a
108.273	0.1645	216546	keystroke_o	o	n/a
108.3925	0.135	216785	keystroke_u	u	n/a
108.5575	0.09	217115	keystroke_t	t	n/a
108.7225	0.12	217445	keystroke_h	h	n/a
108.8575	0.09	217715	keystroke_g	g	n/a
109.6675	0.12	219335	keystroke_'	'	n/a
110.2825	0.1055	220565	keystroke_Key.backspace	Key.backspace	n/a
110.433	0.09	220866	keystroke_t	t	n/a
110.613	0.105	221226	keystroke_'	'	n/a
110.913	0.06	221826	keystroke_Key.backspace	Key.backspace	n/a
111.078	0.075	222156	keystroke_Key.backspace	Key.backspace	n/a
111.228	0.075	222456	keystroke_Key.backspace	Key.backspace	n/a
111.3775	0.12	222755	keystroke_Key.backspace	Key.backspace	n/a
112.593	0.09	225186	keystroke_Key.backspace	Key.backspace	n/a
113.178	0.105	226356	keystroke_g	g	n/a
113.268	0.135	226536	keystroke_h	h	n/a
113.568	0.135	227136	keystroke_'	'	n/a
113.897	0.091	227794	keystroke_Key.backspace	Key.backspace	n/a
114.003	0.12	228006	keystroke_t	t	n/a
115.188	0.135	230376	keystroke_n	n	n/a
115.413	0.135	230826	keystroke_'	'	n/a
115.578	0.12	231156	keystroke_t	t	n/a
115.968	0.075	231936	keystroke_Key.enter	Key.enter	n/a
116.049	15.9855	232098	prompt	n/a	cricket least escorts auburn\n
117.213	0.12	234426	keystroke_c	c	n/a
117.468	0.105	234936	keystroke_r	r	n/a
117.618	0.105	235236	keystroke_i	i	n/a
117.753	0.12	235506	keystroke_e	e	n/a
117.888	0.12	235776	keystroke_k	k	n/a
118.547	0.15	237094	keystroke_Key.backspace	Key.backspace	n/a
118.712	0.0155	237424	keystroke_Key.backspace	Key.backspace	n/a
118.847	0.105	237694	keystroke_k	k	n/a
118.937	0.1505	237874	keystroke_e	e	n/a
119.012	0.1355	238024	keystroke_t	t	n/a
119.2225	0.165	238445	keystroke_Key.space	Key.space	n/a
119.4775	0.12	238955	keystroke_l	l	n/a
119.5225	0.12	239045	keystroke_e	e	n/a
119.6125	0.165	239225	keystroke_a	a	n/a
119.7625	0.255	239525	keystroke_s	s	n/a
120.5875	0.045	241175	keystroke_Key.backspace	Key.backspace	n/a
120.7225	0.09	241445	keystroke_Key.backspace	Key.backspace	n/a
120.9025	0.06	241805	keystroke_Key.backspace	Key.backspace	n/a
121.0675	0.06	242135	keystroke_Key.backspace	Key.backspace	n/a
121.2325	0.075	242465	keystroke_Key.backspace	Key.backspace	n/a
121.3975	0.09	242795	keystroke_Key.backspace	Key.backspace	n/a
122.447	0.075	244894	keystroke_Key.backspace	Key.backspace	n/a
122.612	0.09	245224	keystroke_Key.backspace	Key.backspace	n/a
123.108	0.09	246216	keystroke_Key.backspace	Key.backspace	n/a
123.738	0.12	247476	keystroke_i	i	n/a
123.873	0.15	247746	keystroke_c	c	n/a
124.008	0.165	248016	keystroke_k	k	n/a
124.3075	0.1645	248615	keystroke_e	e	n/a
124.457	0.135	248914	keystroke_t	t	n/a
124.772	0.15	249544	keystroke_Key.space	Key.space	n/a
125.087	0.105	250174	keystroke_l	l	n/a
125.162	0.12	250324	keystroke_e	e	n/a
125.252	0.166	250504	keystroke_a	a	n/a
125.372	0.15	250744	keystroke_s	s	n/a
125.507	0.136	251014	keystroke_t	t	n/a
125.687	0.12	251374	keystroke_Key.space	Key.space	n/a
126.168	0.09	252336	keystroke_e	e	n/a
126.362	0.1505	252724	keystroke_s	s	n/a
126.843	0.105	253686	keystroke_c	c	n/a
126.963	0.075	253926	keystroke_o	o	n/a
127.083	0.075	254166	keystroke_r	r	n/a
127.293	0.06	254586	keystroke_t	t	n/a
127.458	0.105	254916	keystroke_s	s	n/a
127.653	0.135	255306	keystroke_Key.space	Key.space	n/a
129.1825	0.165	258365	keystroke_u	u	n/a
129.5275	0.09	259055	keystroke_Key.backspace	Key.backspace	n/a
129.6325	0.12	259265	keystroke_a	a	n/a
129.7375	0.105	259475	keystroke_u	u	n/a
130.2775	0.09	260555	keystroke_b	b	n/a
130.4725	0.12	260945	keystroke_r	r	n/a
130.6525	0.105	261305	keystroke_u	u	n/a
131.1475	0.045	262295	keystroke_Key.backspace	Key.backspace	n/a
131.2675	0.09	262535	keystroke_Key.backspace	Key.backspace	n/a
131.4475	0.09	262895	keystroke_u	u	n/a
131.5675	0.1345	263135	keystroke_r	r	n/a
131.732	0.075	263464	keystroke_n	n	n/a
131.957	0.075	263914	keystroke_Key.enter	Key.enter	n/a
132.04	8.109	264080	prompt	n/a	they'll networking seekers britannica\n
132.7375	0.075	265475	keystroke_t	t	n/a
132.7975	0.12	265595	keystroke_h	h	n/a
132.9325	0.105	265865	keystroke_e	e	n/a
133.0525	0.09	266105	keystroke_y	y	n/a
133.3225	0.105	266645	keystroke_'	'	n/a
133.5475	0.105	267095	keystroke_l	l	n/a
133.7575	0.135	267515	keystroke_l	l	n/a
133.9225	0.15	267845	keystroke_Key.space	Key.space	n/a
134.2225	0.105	268445	keystroke_n	n	n/a
134.3425	0.15	268685	keystroke_e	e	n/a
134.4775	0.105	268955	keystroke_t	t	n/a
134.7175	0.105	269435	keystroke_w	w	n/a
134.8375	0.09	269675	keystroke_o	o	n/a
134.9425	0.105	269885	keystroke_r	r	n/a
135.0625	0.09	270125	keystroke_k	k	n/a
135.2875	0.165	270575	keystroke_i	i	n/a
135.3775	0.135	270755	keystroke_n	n	n/a
135.4675	0.075	270935	keystroke_g	g	n/a
135.5725	0.135	271145	keystroke_Key.space	Key.space	n/a
135.7375	0.12	271475	keystroke_s	s	n/a
135.8275	0.105	271655	keystroke_e	e	n/a
136.0225	0.09	272045	keystroke_e	e	n/a
136.1275	0.135	272255	keystroke_k	k	n/a
136.3075	0.1505	272615	keystroke_e	e	n/a
136.4275	0.1195	272855	keystroke_r	r	n/a
136.5925	0.12	273185	keystroke_s	s	n/a
136.8175	0.12	273635	keystroke_Key.space	Key.space	n/a
137.2525	0.075	274505	keystroke_b	b	n/a
137.4625	0.09	274925	keystroke_r	r	n/a
137.5675	0.135	275135	keystroke_i	i	n/a
137.9575	0.105	275915	keystroke_t	t	n/a
138.0775	0.135	276155	keystroke_a	a	n/a
138.3325	0.136	276665	keystroke_n	n	n/a
138.618	0.119	277236	keystroke_n	n	n/a
138.872	0.121	277744	keystroke_i	i	n/a
139.082	0.105	278164	keystroke_a	a	n/a
139.577	0.105	279154	keystroke_Key.backspace	Key.backspace	n/a
139.697	0.12	279394	keystroke_c	c	n/a
139.772	0.135	279544	keystroke_a	a	n/a
140.027	0.12	280054	keystroke_Key.enter	Key.enter	n/a
140.1545	8.9945	280309	prompt	n/a	thanksgiving kent exposure lafayette\n
140.8525	0.105	281705	keystroke_t	t	n/a
140.9725	0.105	281945	keystroke_h	h	n/a
141.0625	0.12	282125	keystroke_a	a	n/a
141.2275	0.135	282455	keystroke_n	n	n/a
141.3175	0.165	282635	keystroke_k	k	n/a
141.4525	0.1355	282905	keystroke_s	s	n/a
142.188	0.075	284376	keystroke_g	g	n/a
142.293	0.075	284586	keystroke_i	i	n/a
142.428	0.104	284856	keystroke_v	v	n/a
142.518	0.165	285036	keystroke_i	i	n/a
142.607	0.15	285214	keystroke_n	n	n/a
142.727	0.06	285454	keystroke_g	g	n/a
142.817	0.135	285634	keystroke_Key.space	Key.space	n/a
143.058	0.0895	286116	keystroke_k	k	n/a
143.3875	0.105	286775	keystroke_e	e	n/a
143.5075	0.135	287015	keystroke_n	n	n/a
143.6575	0.09	287315	keystroke_t	t	n/a
143.8975	0.135	287795	keystroke_Key.space	Key.space	n/a
144.1975	0.075	288395	keystroke_e	e	n/a
144.4225	0.1205	288845	keystroke_x	x	n/a
144.513	0.105	289026	keystroke_p	p	n/a
144.768	0.12	289536	keystroke_o	o	n/a
145.157	0.105	290314	keystroke_s	s	n/a
145.277	0.121	290554	keystroke_u	u	n/a
145.382	0.12	290764	keystroke_r	r	n/a
145.472	0.15	290944	keystroke_e	e	n/a
146.327	0.12	292654	keystroke_Key.space	Key.space	n/a
146.657	0.135	293314	keystroke_l	l	n/a
146.777	0.165	293554	keystroke_a	a	n/a
147.1975	0.12	294395	keystroke_f	f	n/a
147.3025	0.12	294605	keystroke_a	a	n/a
147.6025	0.105	295205	keystroke_y	y	n/a
147.8275	0.105	295655	keystroke_e	e	n/a
148.1875	0.105	296375	keystroke_t	t	n/a
148.563	0.09	297126	keystroke_t	t	n/a
148.788	0.105	297576	keystroke_e	e	n/a
149.043	0.1045	298086	keystroke_Key.enter	Key.enter	n/a
149.154	8.47	298308	prompt	n/a	pumps surprising sapphire consensus\n
149.7935	0.119	299587	keystroke_p	p	n/a
150.0625	0.09	300125	keystroke_u	u	n/a
150.3175	0.165	300635	keystroke_m	m	n/a
150.4375	0.15	300875	keystroke_p	p	n/a
150.6025	0.15	301205	keystroke_s	s	n/a
150.7825	0.165	301565	keystroke_Key.space	Key.space	n/a
151.173	0.135	302346	keystroke_s	s	n/a
151.293	0.12	302586	keystroke_u	u	n/a
151.6675	0.09	303335	keystroke_r	r	n/a
151.8025	0.12	303605	keystroke_p	p	n/a
151.9825	0.075	303965	keystroke_r	r	n/a
152.0725	0.105	304145	keystroke_i	i	n/a
152.2525	0.135	304505	keystroke_s	s	n/a
152.4025	0.15	304805	keystroke_i	i	n/a
152.4925	0.165	304985	keystroke_n	n	n/a
152.6425	0.09	305285	keystroke_g	g	n/a
152.7475	0.165	305495	keystroke_Key.space	Key.space	n/a
153.1375	0.135	306275	keystroke_s	s	n/a
153.2575	0.165	306515	keystroke_a	a	n/a
153.4675	0.09	306935	keystroke_p	p	n/a
153.6475	0.1345	307295	keystroke_p	p	n/a
153.9025	0.15	307805	keystroke_h	h	n/a
154.0675	0.1345	308135	keystroke_i	i	n/a
154.232	0.105	308464	keystroke_r	r	n/a
154.412	0.135	308824	keystroke_e	e	n/a
154.6525	0.105	309305	keystroke_Key.space	Key.space	n/a
154.9675	0.12	309935	keystroke_c	c	n/a
155.0575	0.135	310115	keystroke_o	o	n/a
155.1175	0.165	310235	keystroke_n	n	n/a
155.3575	0.15	310715	keystroke_s	s	n/a
155.4775	0.12	310955	keystroke_e	e	n/a
155.6275	0.15	311255	keystroke_n	n	n/a
156.0175	0.135	312035	keystroke_s	s	n/a
156.1825	0.105	312365	keystroke_u	u	n/a
156.3325	0.105	312665	keystroke_e	e	n/a
156.873	0.1045	313746	keystroke_Key.backspace	Key.backspace	n/a
157.008	0.135	314016	keystroke_s	s	n/a
157.488	0.1345	314976	keystroke_Key.enter	Key.enter	n/a
157.629	8.23	315258	prompt	n/a	comp phantom alumni ruby\n
158.478	0.164	316956	keystroke_c	c	n/a
158.5225	0.1345	317045	keystroke_o	o	n/a
158.5975	0.1645	317195	keystroke_m	m	n/a
158.747	0.12	317494	keystroke_p	p	n/a
158.927	0.15	317854	keystroke_Key.space	Key.space	n/a
159.182	0.135	318364	keystroke_p	p	n/a
159.347	0.18	318694	keystroke_h	h	n/a
159.482	0.181	318964	keystroke_o	o	n/a
160.262	0.075	320524	keystroke_Key.backspace	Key.backspace	n/a
160.382	0.165	320764	keystroke_a	a	n/a
160.593	0.0745	321186	keystroke_n	n	n/a
160.8775	0.12	321755	keystroke_t	t	n/a
161.0125	0.165	322025	keystroke_o	o	n/a
161.3275	0.135	322655	keystroke_m	m	n/a
161.583	0.134	323166	keystroke_Key.space	Key.space	n/a
161.943	0.15	323886	keystroke_a	a	n/a
162.378	0.15	324756	keystroke_l	l	n/a
162.498	0.1195	324996	keystroke_u	u	n/a
162.7825	0.12	325565	keystroke_m	m	n/a
163.3825	0.15	326765	keystroke_n	n	n/a
163.5025	0.12	327005	keystroke_i	i	n/a
163.6975	0.15	327395	keystroke_Key.space	Key.space	n/a
164.1025	0.09	328205	keystroke_r	r	n/a
164.1935	0.104	328387	keystroke_u	u	n/a
164.3575	0.165	328715	keystroke_d	d	n/a
165.183	0.075	330366	keystroke_Key.backspace	Key.backspace	n/a
165.303	0.15	330606	keystroke_b	b	n/a
165.438	0.135	330876	keystroke_y	y	n/a
165.753	0.105	331506	keystroke_Key.enter	Key.enter	n/a
165.87	6.394	331740	prompt	n/a	if weblogs minute survey\n
166.533	0.105	333066	keystroke_i	i	n/a
166.6075	0.1195	333215	keystroke_f	f	n/a
166.713	0.164	333426	keystroke_Key.space	Key.space	n/a
166.982	0.136	333964	keystroke_w	w	n/a
167.088	0.165	334176	keystroke_e	e	n/a
167.657	0.091	335314	keystroke_b	b	n/a
167.898	0.105	335796	keystroke_l	l	n/a
168.138	0.15	336276	keystroke_o	o	n/a
168.333	0.075	336666	keystroke_g	g	n/a
168.513	0.1345	337026	keystroke_s	s	n/a
168.7675	0.135	337535	keystroke_Key.space	Key.space	n/a
169.1425	0.135	338285	keystroke_m	m	n/a
169.4725	0.135	338945	keystroke_i	i	n/a
169.6675	0.105	339335	keystroke_n	n	n/a
169.9075	0.105	339815	keystroke_u	u	n/a
170.0425	0.15	340085	keystroke_t	t	n/a
170.1775	0.165	340355	keystroke_e	e	n/a
170.4175	0.135	340835	keystroke_Key.space	Key.space	n/a
170.6875	0.135	341375	keystroke_s	s	n/a
170.8075	0.105	341615	keystroke_u	u	n/a
171.0175	0.105	342035	keystroke_r	r	n/a
171.4075	0.105	342815	keystroke_v	v	n/a
171.4975	0.1655	342995	keystroke_e	e	n/a
171.858	0.119	343716	keystroke_y	y	n/a
172.157	0.105	344314	keystroke_Key.enter	Key.enter	n/a
172.272	8.617	344544	prompt	n/a	historical terrorists wall lane\n
172.953	0.1195	345906	keystroke_h	h	n/a
173.028	0.1495	346056	keystroke_i	i	n/a
173.1325	0.135	346265	keystroke_s	s	n/a
173.2975	0.075	346595	keystroke_t	t	n/a
173.4025	0.135	346805	keystroke_o	o	n/a
173.5225	0.075	347045	keystroke_r	r	n/a
173.6275	0.105	347255	keystroke_i	i	n/a
173.8825	0.15	347765	keystroke_c	c	n/a
174.0025	0.135	348005	keystroke_a	a	n/a
174.1525	0.18	348305	keystroke_l	l	n/a
174.2875	0.165	348575	keystroke_Key.space	Key.space	n/a
174.9025	0.12	349805	keystroke_t	t	n/a
175.0075	0.135	350015	keystroke_e	e	n/a
175.2025	0.105	350405	keystroke_r	r	n/a
175.4275	0.075	350855	keystroke_r	r	n/a
175.6225	0.15	351245	keystroke_o	o	n/a
176.6875	0.075	353375	keystroke_r	r	n/a
176.8075	0.15	353615	keystroke_i	i	n/a
176.9125	0.135	353825	keystroke_s	s	n/a
177.0325	0.12	354065	keystroke_t	t	n/a
177.7075	0.12	355415	keystroke_s	s	n/a
178.0375	0.1345	356075	keystroke_Key.space	Key.space	n/a
178.488	0.18	356976	keystroke_w	w	n/a
178.622	0.1955	357244	keystroke_a	a	n/a
178.8325	0.105	357665	keystroke_l	l	n/a
179.0425	0.12	358085	keystroke_l	l	n/a
179.1025	0.135	358205	keystroke_Key.space	Key.space	n/a
179.3425	0.105	358685	keystroke_a	a	n/a
179.4775	0.045	358955	keystroke_n	n	n/a
179.7775	0.075	359555	keystroke_Key.backspace	Key.backspace	n/a
179.9725	0.09	359945	keystroke_Key.backspace	Key.backspace	n/a
180.1975	0.105	360395	keystroke_l	l	n/a
180.3625	0.165	360725	keystroke_a	a	n/a
180.5125	0.105	361025	keystroke_n	n	n/a
180.6325	0.12	361265	keystroke_e	e	n/a
180.7975	0.09	361595	keystroke_Key.enter	Key.enter	n/a
180.894	18.28	361788	prompt	n/a	wordpress shakira conditions chances\n
181.6825	0.09	363365	keystroke_w	w	n/a
181.7875	0.105	363575	keystroke_o	o	n/a
181.8475	0.105	363695	keystroke_r	r	n/a
182.0575	0.12	364115	keystroke_d	d	n/a
182.3725	0.105	364745	keystroke_p	p	n/a
182.478	0.104	364956	keystroke_r	r	n/a
182.5375	0.12	365075	keystroke_e	e	n/a
182.763	0.075	365526	keystroke_s	s	n/a
182.943	0.075	365886	keystroke_s	s	n/a
183.003	0.1345	366006	keystroke_Key.space	Key.space	n/a
183.1975	0.105	366395	keystroke_s	s	n/a
183.3475	0.105	366695	keystroke_h	h	n/a
183.4825	0.12	366965	keystroke_a	a	n/a
183.5875	0.135	367175	keystroke_r	r	n/a
186.0925	0.09	372185	keystroke_s	s	n/a
186.1975	0.12	372395	keystroke_h	h	n/a
186.3475	0.15	372695	keystroke_a	a	n/a
186.7825	0.165	373565	keystroke_k	k	n/a
187.0675	0.12	374135	keystroke_i	i	n/a
187.2025	0.12	374405	keystroke_r	r	n/a
187.3675	0.15	374735	keystroke_a	a	n/a
187.5475	0.15	375095	keystroke_Key.space	Key.space	n/a
187.8925	0.12	375785	keystroke_c	c	n/a
187.9825	0.12	375965	keystroke_o	o	n/a
188.0425	0.195	376085	keystroke_n	n	n/a
188.4175	0.09	376835	keystroke_d	d	n/a
188.5225	0.105	377045	keystroke_i	i	n/a
188.6425	0.1045	377285	keystroke_s	s	n/a
188.792	0.105	377584	keystroke_i	i	n/a
188.852	0.105	377704	keystroke_t	t	n/a
189.017	0.196	378034	keystroke_o	o	n/a
189.167	0.165	378334	keystroke_n	n	n/a
189.317	0.105	378634	keystroke_s	s	n/a
189.872	0.15	379744	keystroke_Key.space	Key.space	n/a
190.277	0.106	380554	keystroke_c	c	n/a
190.352	0.105	380704	keystroke_h	h	n/a
190.488	0.119	380976	keystroke_a	a	n/a
190.592	0.105	381184	keystroke_n	n	n/a
190.7275	0.09	381455	keystroke_c	c	n/a
190.9375	0.105	381875	keystroke_e	e	n/a
191.0275	0.135	382055	keystroke_s	s	n/a
193.7125	0.075	387425	keystroke_Key.backspace	Key.backspace	n/a
193.9225	0.075	387845	keystroke_Key.backspace	Key.backspace	n/a
194.1325	0.09	388265	keystroke_Key.backspace	Key.backspace	n/a
194.4925	0.105	388985	keystroke_Key.backspace	Key.backspace	n/a
194.6875	0.1045	389375	keystroke_Key.backspace	Key.backspace	n/a
195.332	0.12	390664	keystroke_t	t	n/a
195.677	0.045	391354	keystroke_Key.backspace	Key.backspace	n/a
195.812	0.075	391624	keystroke_Key.backspace	Key.backspace	n/a
195.902	0.106	391804	keystroke_t	t	n/a
196.023	0.164	392046	keystroke_i	i	n/a
196.157	0.165	392314	keystroke_o	o	n/a
196.277	0.18	392554	keystroke_n	n	n/a
196.562	0.106	393124	keystroke_s	s	n/a
196.698	0.1345	393396	keystroke_Key.space	Key.space	n/a
197.0275	0.09	394055	keystroke_d	d	n/a
197.3725	0.09	394745	keystroke_Key.backspace	Key.backspace	n/a
197.4475	0.12	394895	keystroke_c	c	n/a
197.5825	0.105	395165	keystroke_h	h	n/a
197.6885	0.134	395377	keystroke_a	a	n/a
197.8375	0.105	395675	keystroke_n	n	n/a
198.3925	0.105	396785	keystroke_c	c	n/a
198.6325	0.12	397265	keystroke_e	e	n/a
198.768	0.15	397536	keystroke_s	s	n/a
199.083	0.09	398166	keystroke_Key.enter	Key.enter	n/a
199.179	11.2605	398358	prompt	n/a	sender replied subscription empirical\n
199.908	0.105	399816	keystroke_s	s	n/a
200.028	0.165	400056	keystroke_n	n	n/a
200.118	0.09	400236	keystroke_e	e	n/a
200.343	0.09	400686	keystroke_d	d	n/a
200.583	0.12	401166	keystroke_e	e	n/a
200.8525	0.0595	401705	keystroke_Key.backspace	Key.backspace	n/a
201.0175	0.0745	402035	keystroke_Key.backspace	Key.backspace	n/a
201.167	0.075	402334	keystroke_Key.backspace	Key.backspace	n/a
201.317	0.075	402634	keystroke_Key.backspace	Key.backspace	n/a
201.378	0.105	402756	keystroke_e	e	n/a
201.572	0.091	403144	keystroke_n	n	n/a
201.633	0.09	403266	keystroke_d	d	n/a
201.858	0.12	403716	keystroke_e	e	n/a
201.933	0.135	403866	keystroke_r	r	n/a
202.053	0.12	404106	keystroke_Key.space	Key.space	n/a
202.248	0.105	404496	keystroke_r	r	n/a
202.323	0.15	404646	keystroke_e	e	n/a
202.443	0.105	404886	keystroke_p	p	n/a
202.683	0.1495	405366	keystroke_l	l	n/a
202.773	0.1505	405546	keystroke_i	i	n/a
202.8475	0.09	405695	keystroke_e	e	n/a
203.0725	0.09	406145	keystroke_d	d	n/a
203.1925	0.12	406385	keystroke_Key.space	Key.space	n/a
203.5385	0.104	407077	keystroke_s	s	n/a
203.6275	0.12	407255	keystroke_u	u	n/a
203.8225	0.105	407645	keystroke_b	b	n/a
204.0625	0.105	408125	keystroke_s	s	n/a
204.3625	0.1205	408725	keystroke_c	c	n/a
204.618	0.18	409236	keystroke_i	i	n/a
205.068	0.09	410136	keystroke_Key.backspace	Key.backspace	n/a
205.158	0.105	410316	keystroke_r	r	n/a
205.293	0.135	410586	keystroke_i	i	n/a
205.383	0.18	410766	keystroke_o	o	n/a
205.893	0.089	411786	keystroke_Key.backspace	Key.backspace	n/a
206.118	0.12	412236	keystroke_p	p	n/a
206.253	0.105	412506	keystroke_t	t	n/a
206.358	0.135	412716	keystroke_i	i	n/a
206.478	0.1795	412956	keystroke_o	o	n/a
206.5975	0.18	413195	keystroke_n	n	n/a
206.883	0.165	413766	keystroke_Key.space	Key.space	n/a
207.273	0.135	414546	keystroke_e	e	n/a
207.408	0.165	414816	keystroke_m	m	n/a
207.813	0.105	415626	keystroke_p	p	n/a
208.038	0.12	416076	keystroke_i	i	n/a
208.833	0.165	417666	keystroke_r	r	n/a
209.2825	0.15	418565	keystroke_i	i	n/a
209.8375	0.15	419675	keystroke_c	c	n/a
209.9125	0.18	419825	keystroke_a	a	n/a
210.1075	0.12	420215	keystroke_l	l	n/a
210.3775	0.06	420755	keystroke_Key.enter	Key.enter	n/a
210.445	15.2645	420890	prompt	n/a	baths sculpture still parker\n
211.3075	0.06	422615	keystroke_b	b	n/a
211.3525	0.03	422705	keystroke_a	a	n/a
211.3975	0.105	422795	keystroke_t	t	n/a
211.5325	0.1205	423065	keystroke_h	h	n/a
211.668	0.105	423336	keystroke_s	s	n/a
211.803	0.135	423606	keystroke_Key.space	Key.space	n/a
212.088	0.12	424176	keystroke_s	s	n/a
212.493	0.15	424986	keystroke_c	c	n/a
212.628	0.15	425256	keystroke_a	a	n/a
212.808	0.149	425616	keystroke_u	u	n/a
212.913	0.164	425826	keystroke_l	l	n/a
213.093	0.075	426186	keystroke_t	t	n/a
213.198	0.12	426396	keystroke_u	u	n/a
213.828	0.045	427656	keystroke_Key.backspace	Key.backspace	n/a
213.888	0.045	427776	keystroke_Key.backspace	Key.backspace	n/a
214.038	0.09	428076	keystroke_Key.backspace	Key.backspace	n/a
214.4875	0.135	428975	keystroke_p	p	n/a
214.8325	0.0905	429665	keystroke_Key.backspace	Key.backspace	n/a
215.058	0.15	430116	keystroke_l	l	n/a
215.223	0.15	430446	keystroke_u	u	n/a
215.838	0.09	431676	keystroke_Key.backspace	Key.backspace	n/a
216.063	0.12	432126	keystroke_p	p	n/a
216.528	0.0895	433056	keystroke_t	t	n/a
216.6325	0.09	433265	keystroke_u	u	n/a
216.7375	0.135	433475	keystroke_r	r	n/a
216.8275	0.136	433655	keystroke_e	e	n/a
216.9775	0.18	433955	keystroke_Key.space	Key.space	n/a
217.1875	0.135	434375	keystroke_s	s	n/a
217.3375	0.135	434675	keystroke_i	i	n/a
217.4125	0.12	434825	keystroke_t	t	n/a
217.7275	0.075	435455	keystroke_Key.backspace	Key.backspace	n/a
217.8625	0.12	435725	keystroke_Key.backspace	Key.backspace	n/a
218.2825	0.12	436565	keystroke_s	s	n/a
218.3875	0.12	436775	keystroke_t	t	n/a
218.7625	0.075	437525	keystroke_Key.backspace	Key.backspace	n/a
219.8275	0.075	439655	keystroke_Key.backspace	Key.backspace	n/a
220.863	0.105	441726	keystroke_u	u	n/a
220.923	0.165	441846	keystroke_l	l	n/a
221.088	0.12	442176	keystroke_t	t	n/a
221.8675	0.12	443735	keystroke_p	p	n/a
222.1825	0.06	444365	keystroke_Key.backspace	Key.backspace	n/a
222.3025	0.09	444605	keystroke_Key.backspace	Key.backspace	n/a
222.5275	0.075	445055	keystroke_p	p	n/a
222.6775	0.12	445355	keystroke_t	t	n/a
222.8725	0.1205	445745	keystroke_u	u	n/a
223.008	0.12	446016	keystroke_r	r	n/a
223.098	0.15	446196	keystroke_e	e	n/a
223.473	0.135	446946	keystroke_Key.space	Key.space	n/a
223.728	0.12	447456	keystroke_s	s	n/a
223.833	0.12	447666	keystroke_t	t	n/a
223.968	0.075	447936	keystroke_i	i	n/a
223.983	0.12	447966	keystroke_l	l	n/a
224.1775	0.195	448355	keystroke_l	l	n/a
224.2825	0.195	448565	keystroke_Key.space	Key.space	n/a
224.778	0.135	449556	keystroke_p	p	n/a
224.928	0.135	449856	keystroke_a	a	n/a
225.048	0.105	450096	keystroke_r	r	n/a
225.168	0.165	450336	keystroke_k	k	n/a
225.303	0.135	450606	keystroke_e	e	n/a
225.393	0.15	450786	keystroke_r	r	n/a
225.588	0.12	451176	keystroke_Key.enter	Key.enter	n/a
225.7155	7.7485	451431	prompt	n/a	sent guidelines merchants airplane\n
226.383	0.15	452766	keystroke_s	s	n/a
226.518	0.1195	453036	keystroke_e	e	n/a
226.6825	0.105	453365	keystroke_n	n	n/a
226.8025	0.09	453605	keystroke_t	t	n/a
226.9075	0.135	453815	keystroke_Key.space	Key.space	n/a
227.2075	0.105	454415	keystroke_g	g	n/a
227.3275	0.09	454655	keystroke_u	u	n/a
227.3575	0.18	454715	keystroke_i	i	n/a
228.4075	0.105	456815	keystroke_d	d	n/a
228.7075	0.09	457415	keystroke_e	e	n/a
229.143	0.18	458286	keystroke_l	l	n/a
229.293	0.165	458586	keystroke_i	i	n/a
229.428	0.165	458856	keystroke_n	n	n/a
229.548	0.12	459096	keystroke_e	e	n/a
229.683	0.09	459366	keystroke_s	s	n/a
229.878	0.135	459756	keystroke_Key.space	Key.space	n/a
230.298	0.135	460596	keystroke_m	m	n/a
230.418	0.165	460836	keystroke_e	e	n/a
230.568	0.09	461136	keystroke_r	r	n/a
230.838	0.104	461676	keystroke_c	c	n/a
230.957	0.09	461914	keystroke_h	h	n/a
231.077	0.135	462154	keystroke_a	a	n/a
231.197	0.12	462394	keystroke_n	n	n/a
231.392	0.09	462784	keystroke_t	t	n/a
231.572	0.121	463144	keystroke_s	s	n/a
231.723	0.135	463446	keystroke_Key.space	Key.space	n/a
232.038	0.09	464076	keystroke_a	a	n/a
232.143	0.075	464286	keystroke_i	i	n/a
232.218	0.105	464436	keystroke_r	r	n/a
232.413	0.09	464826	keystroke_p	p	n/a
232.593	0.105	465186	keystroke_l	l	n/a
232.728	0.09	465456	keystroke_a	a	n/a
232.863	0.119	465726	keystroke_n	n	n/a
233.177	0.105	466354	keystroke_e	e	n/a
233.357	0.105	466714	keystroke_Key.enter	Key.enter	n/a
233.469	7.6155	466938	prompt	n/a	publicity title americans thursday\n
234.108	0.165	468216	keystroke_p	p	n/a
234.242	0.12	468484	keystroke_u	u	n/a
234.467	0.105	468934	keystroke_b	b	n/a
234.587	0.135	469174	keystroke_l	l	n/a
234.662	0.18	469324	keystroke_i	i	n/a
234.9325	0.1195	469865	keystroke_c	c	n/a
235.037	0.1205	470074	keystroke_i	i	n/a
235.2025	0.09	470405	keystroke_t	t	n/a
235.3375	0.135	470675	keystroke_y	y	n/a
235.4125	0.165	470825	keystroke_Key.space	Key.space	n/a
235.7425	0.09	471485	keystroke_t	t	n/a
235.8775	0.105	471755	keystroke_i	i	n/a
236.0125	0.09	472025	keystroke_t	t	n/a
236.1325	0.105	472265	keystroke_l	l	n/a
236.2525	0.09	472505	keystroke_e	e	n/a
236.4025	0.135	472805	keystroke_Key.space	Key.space	n/a
236.822	0.09	473644	keystroke_a	a	n/a
236.897	0.1355	473794	keystroke_m	m	n/a
237.0475	0.135	474095	keystroke_e	e	n/a
237.1675	0.105	474335	keystroke_r	r	n/a
237.2875	0.105	474575	keystroke_i	i	n/a
237.468	0.1195	474936	keystroke_c	c	n/a
237.5425	0.105	475085	keystroke_a	a	n/a
237.6775	0.105	475355	keystroke_n	n	n/a
237.8275	0.105	475655	keystroke_s	s	n/a
238.0075	0.15	476015	keystroke_Key.space	Key.space	n/a
238.3525	0.075	476705	keystroke_t	t	n/a
238.4125	0.12	476825	keystroke_h	h	n/a
238.5775	0.105	477155	keystroke_r	r	n/a
239.058	0.0895	478116	keystroke_Key.backspace	Key.backspace	n/a
239.2825	0.105	478565	keystroke_u	u	n/a
239.4325	0.09	478865	keystroke_r	r	n/a
239.6425	0.12	479285	keystroke_s	s	n/a
239.9425	0.135	479885	keystroke_d	d	n/a
240.0475	0.135	480095	keystroke_a	a	n/a
240.1675	0.135	480335	keystroke_y	y	n/a
240.9625	0.1205	481925	keystroke_Key.enter	Key.enter	n/a
241.0905	5.1835	482181	prompt	n/a	teddy case join attractive\n
241.8775	0.075	483755	keystroke_t	t	n/a
241.9375	0.105	483875	keystroke_e	e	n/a
242.1625	0.075	484325	keystroke_d	d	n/a
242.3125	0.105	484625	keystroke_d	d	n/a
242.4325	0.12	484865	keystroke_y	y	n/a
242.5075	0.15	485015	keystroke_Key.space	Key.space	n/a
242.6875	0.09	485375	keystroke_c	c	n/a
242.7325	0.15	485465	keystroke_a	a	n/a
242.9275	0.1505	485855	keystroke_s	s	n/a
243.0625	0.105	486125	keystroke_e	e	n/a
243.2425	0.105	486485	keystroke_Key.space	Key.space	n/a
243.4675	0.165	486935	keystroke_j	j	n/a
243.5725	0.165	487145	keystroke_o	o	n/a
243.6775	0.225	487355	keystroke_i	i	n/a
243.7675	0.165	487535	keystroke_n	n	n/a
243.8875	0.15	487775	keystroke_Key.space	Key.space	n/a
244.3375	0.135	488675	keystroke_a	a	n/a
244.5325	0.09	489065	keystroke_t	t	n/a
244.7275	0.06	489455	keystroke_t	t	n/a
244.8775	0.135	489755	keystroke_r	r	n/a
244.9675	0.12	489935	keystroke_a	a	n/a
245.1775	0.105	490355	keystroke_c	c	n/a
245.3875	0.075	490775	keystroke_t	t	n/a
245.5225	0.12	491045	keystroke_i	i	n/a
245.6275	0.12	491255	keystroke_v	v	n/a
245.7325	0.12	491465	keystroke_e	e	n/a
246.1825	0.09	492365	keystroke_Key.enter	Key.enter	n/a
246.279	7.39	492558	prompt	n/a	bell inherited remainder uploaded\n
247.0825	0.135	494165	keystroke_b	b	n/a
247.2325	0.135	494465	keystroke_e	e	n/a
247.3375	0.09	494675	keystroke_l	l	n/a
247.5175	0.15	495035	keystroke_l	l	n/a
247.6975	0.135	495395	keystroke_Key.space	Key.space	n/a
247.9075	0.165	495815	keystroke_i	i	n/a
247.9825	0.135	495965	keystroke_n	n	n/a
248.2675	0.06	496535	keystroke_h	h	n/a
248.3875	0.165	496775	keystroke_e	e	n/a
249.018	0.135	498036	keystroke_r	r	n/a
249.1975	0.15	498395	keystroke_i	i	n/a
249.4375	0.15	498875	keystroke_t	t	n/a
249.5875	0.105	499175	keystroke_e	e	n/a
249.8125	0.105	499625	keystroke_d	d	n/a
249.9625	0.15	499925	keystroke_Key.space	Key.space	n/a
250.3075	0.12	500615	keystroke_r	r	n/a
250.3825	0.15	500765	keystroke_e	e	n/a
250.6975	0.15	501395	keystroke_m	m	n/a
250.9075	0.1205	501815	keystroke_a	a	n/a
251.043	0.18	502086	keystroke_i	i	n/a
251.148	0.15	502296	keystroke_n	n	n/a
251.283	0.105	502566	keystroke_d	d	n/a
251.538	0.1195	503076	keystroke_e	e	n/a
251.6275	0.12	503255	keystroke_r	r	n/a
251.7775	0.15	503555	keystroke_Key.space	Key.space	n/a
252.1075	0.135	504215	keystroke_u	u	n/a
252.2135	0.119	504427	keystroke_p	p	n/a
252.4525	0.09	504905	keystroke_l	l	n/a
252.6475	0.135	505295	keystroke_o	o	n/a
252.7675	0.12	505535	keystroke_a	a	n/a
252.9325	0.1205	505865	keystroke_d	d	n/a
253.173	0.075	506346	keystroke_e	e	n/a
253.368	0.12	506736	keystroke_d	d	n/a
253.593	0.075	507186	keystroke_Key.enter	Key.enter	n/a
253.6735	7.2255	507347	prompt	n/a	barbara constraints wide then\n
254.403	0.105	508806	keystroke_b	b	n/a
254.508	0.12	509016	keystroke_a	a	n/a
254.688	0.105	509376	keystroke_r	r	n/a
255.0775	0.105	510155	keystroke_b	b	n/a
255.2275	0.15	510455	keystroke_a	a	n/a
255.6025	0.135	511205	keystroke_r	r	n/a
255.7525	0.15	511505	keystroke_a	a	n/a
256.0975	0.12	512195	keystroke_Key.space	Key.space	n/a
256.697	0.09	513394	keystroke_c	c	n/a
256.772	0.135	513544	keystroke_o	o	n/a
256.847	0.166	513694	keystroke_n	n	n/a
256.967	0.1205	513934	keystroke_s	s	n/a
257.1625	0.075	514325	keystroke_t	t	n/a
257.3425	0.105	514685	keystroke_r	r	n/a
257.4625	0.15	514925	keystroke_a	a	n/a
257.6275	0.15	515255	keystroke_i	i	n/a
257.7025	0.18	515405	keystroke_n	n	n/a
257.8975	0.0755	515795	keystroke_t	t	n/a
258.0775	0.09	516155	keystroke_s	s	n/a
258.3325	0.135	516665	keystroke_Key.space	Key.space	n/a
258.7525	0.12	517505	keystroke_w	w	n/a
258.8575	0.135	517715	keystroke_i	i	n/a
259.0375	0.105	518075	keystroke_d	d	n/a
259.2775	0.09	518555	keystroke_e	e	n/a
259.4425	0.12	518885	keystroke_Key.space	Key.space	n/a
259.6225	0.09	519245	keystroke_t	t	n/a
259.7275	0.1195	519455	keystroke_h	h	n/a
259.832	0.135	519664	keystroke_e	e	n/a
259.952	0.12	519904	keystroke_n	n	n/a
260.777	0.12	521554	keystroke_Key.enter	Key.enter	n/a
260.9035	5.9955	521807	prompt	n/a	standard diary imaging toward\n
261.572	0.121	523144	keystroke_s	s	n/a
261.708	0.075	523416	keystroke_t	t	n/a
261.813	0.12	523626	keystroke_a	a	n/a
261.903	0.12	523806	keystroke_n	n	n/a
262.053	0.12	524106	keystroke_d	d	n/a
262.323	0.135	524646	keystroke_a	a	n/a
262.413	0.09	524826	keystroke_r	r	n/a
262.593	0.15	525186	keystroke_d	d	n/a
262.833	0.15	525666	keystroke_Key.space	Key.space	n/a
263.147	0.15	526294	keystroke_d	d	n/a
263.343	0.12	526686	keystroke_i	i	n/a
263.492	0.135	526984	keystroke_a	a	n/a
263.613	0.119	527226	keystroke_r	r	n/a
263.972	0.15	527944	keystroke_y	y	n/a
264.062	0.15	528124	keystroke_Key.space	Key.space	n/a
264.587	0.18	529174	keystroke_i	i	n/a
264.708	0.134	529416	keystroke_m	m	n/a
264.827	0.135	529654	keystroke_a	a	n/a
264.977	0.1055	529954	keystroke_g	g	n/a
265.113	0.18	530226	keystroke_i	i	n/a
265.188	0.164	530376	keystroke_n	n	n/a
265.322	0.106	530644	keystroke_g	g	n/a
265.442	0.135	530884	keystroke_Key.space	Key.space	n/a
265.803	0.12	531606	keystroke_t	t	n/a
265.937	0.09	531874	keystroke_o	o	n/a
266.103	0.165	532206	keystroke_w	w	n/a
266.252	0.106	532504	keystroke_a	a	n/a
266.298	0.104	532596	keystroke_r	r	n/a
266.477	0.1505	532954	keystroke_d	d	n/a
266.8225	0.075	533645	keystroke_Key.enter	Key.enter	n/a
266.907	19.177	533814	prompt	n/a	adware islands district files\n
278.3005	0.057	556601	keystroke_a	a	n/a
278.3275	0.165	556655	keystroke_d	d	n/a
278.5975	0.12	557195	keystroke_w	w	n/a
278.6725	0.135	557345	keystroke_a	a	n/a
278.7625	0.075	557525	keystroke_r	r	n/a
278.8975	0.135	557795	keystroke_d	d	n/a
279.1225	0.1055	558245	keystroke_Key.space	Key.space	n/a
279.348	0.21	558696	keystroke_i	i	n/a
279.498	0.12	558996	keystroke_n	n	n/a
279.888	0.059	559776	keystroke_Key.backspace	Key.backspace	n/a
280.037	0.286	560074	keystroke_Key.backspace	Key.backspace	n/a
280.488	0.075	560976	keystroke_Key.backspace	Key.backspace	n/a
281.462	0.045	562924	keystroke_Key.backspace	Key.backspace	n/a
281.5225	0.0445	563045	keystroke_e	e	n/a
281.883	0.15	563766	keystroke_Key.space	Key.space	n/a
282.108	0.135	564216	keystroke_i	i	n/a
282.288	0.105	564576	keystroke_s	s	n/a
282.408	0.12	564816	keystroke_l	l	n/a
282.513	0.12	565026	keystroke_a	a	n/a
282.663	0.12	565326	keystroke_n	n	n/a
282.768	0.12	565536	keystroke_d	d	n/a
283.113	0.12	566226	keystroke_s	s	n/a
283.293	0.135	566586	keystroke_Key.space	Key.space	n/a
283.893	0.105	567786	keystroke_d	d	n/a
283.998	0.135	567996	keystroke_i	i	n/a
284.073	0.12	568146	keystroke_s	s	n/a
284.328	0.075	568656	keystroke_t	t	n/a
284.508	0.09	569016	keystroke_r	r	n/a
284.628	0.12	569256	keystroke_i	i	n/a
284.778	0.135	569556	keystroke_c	c	n/a
285.033	0.075	570066	keystroke_t	t	n/a
285.168	0.149	570336	keystroke_Key.space	Key.space	n/a
285.393	0.15	570786	keystroke_f	f	n/a
285.498	0.135	570996	keystroke_i	i	n/a
285.588	0.165	571176	keystroke_l	l	n/a
285.678	0.135	571356	keystroke_e	e	n/a
285.783	0.135	571566	keystroke_s	s	n/a
285.993	0.089	571986	keystroke_Key.enter	Key.enter	n/a
286.0955	6.0635	572191	prompt	n/a	verification nested delay film\n
287.0425	0.09	574085	keystroke_v	v	n/a
287.1325	0.1805	574265	keystroke_e	e	n/a
287.283	0.09	574566	keystroke_r	r	n/a
287.448	0.15	574896	keystroke_i	i	n/a
287.538	0.09	575076	keystroke_f	f	n/a
287.688	0.075	575376	keystroke_i	i	n/a
287.778	0.09	575556	keystroke_c	c	n/a
287.853	0.12	575706	keystroke_a	a	n/a
288.018	0.105	576036	keystroke_t	t	n/a
288.033	0.15	576066	keystroke_i	i	n/a
288.168	0.135	576336	keystroke_o	o	n/a
288.228	0.165	576456	keystroke_n	n	n/a
288.348	0.165	576696	keystroke_Key.space	Key.space	n/a
288.753	0.105	577506	keystroke_r	r	n/a
289.068	0.075	578136	keystroke_Key.backspace	Key.backspace	n/a
289.263	0.105	578526	keystroke_n	n	n/a
289.383	0.12	578766	keystroke_e	e	n/a
289.473	0.12	578946	keystroke_s	s	n/a
289.563	0.15	579126	keystroke_t	t	n/a
289.743	0.09	579486	keystroke_e	e	n/a
289.953	0.09	579906	keystroke_d	d	n/a
290.072	0.136	580144	keystroke_Key.space	Key.space	n/a
290.313	0.075	580626	keystroke_d	d	n/a
290.508	0.09	581016	keystroke_e	e	n/a
290.643	0.135	581286	keystroke_l	l	n/a
290.808	0.18	581616	keystroke_a	a	n/a
290.928	0.165	581856	keystroke_y	y	n/a
291.032	0.165	582064	keystroke_Key.space	Key.space	n/a
291.318	0.119	582636	keystroke_f	f	n/a
291.423	0.15	582846	keystroke_i	i	n/a
291.512	0.1955	583024	keystroke_l	l	n/a
291.7375	0.135	583475	keystroke_m	m	n/a
292.0675	0.09	584135	keystroke_Key.enter	Key.enter	n/a
292.163	11.937	584326	prompt	n/a	portions pavilion liabilities shakira\n
292.8175	0.18	585635	keystroke_p	p	n/a
292.9375	0.1655	585875	keystroke_o	o	n/a
293.3425	0.09	586685	keystroke_r	r	n/a
293.5975	0.12	587195	keystroke_t	t	n/a
293.7035	0.134	587407	keystroke_i	i	n/a
293.8075	0.135	587615	keystroke_o	o	n/a
293.9125	0.15	587825	keystroke_n	n	n/a
294.0475	0.135	588095	keystroke_s	s	n/a
294.2425	0.15	588485	keystroke_Key.space	Key.space	n/a
294.5575	0.12	589115	keystroke_p	p	n/a
294.6925	0.12	589385	keystroke_a	a	n/a
294.9775	0.1345	589955	keystroke_v	v	n/a
295.082	0.135	590164	keystroke_i	i	n/a
295.203	0.1645	590406	keystroke_l	l	n/a
295.9975	0.12	591995	keystroke_l	l	n/a
296.2225	0.12	592445	keystroke_i	i	n/a
296.3125	0.15	592625	keystroke_o	o	n/a
296.4475	0.1805	592895	keystroke_n	n	n/a
296.658	0.165	593316	keystroke_Key.space	Key.space	n/a
297.3025	0.06	594605	keystroke_Key.backspace	Key.backspace	n/a
297.4675	0.075	594935	keystroke_Key.backspace	Key.backspace	n/a
297.6175	0.09	595235	keystroke_Key.backspace	Key.backspace	n/a
297.7675	0.105	595535	keystroke_Key.backspace	Key.backspace	n/a
298.1425	0.12	596285	keystroke_i	i	n/a
298.4725	0.06	596945	keystroke_Key.backspace	Key.backspace	n/a
298.6225	0.06	597245	keystroke_Key.backspace	Key.backspace	n/a
298.8325	0.12	597665	keystroke_i	i	n/a
298.9375	0.1355	597875	keystroke_o	o	n/a
299.0125	0.1805	598025	keystroke_n	n	n/a
299.178	0.164	598356	keystroke_Key.space	Key.space	n/a
299.823	0.149	599646	keystroke_l	l	n/a
299.912	0.166	599824	keystroke_i	i	n/a
300.153	0.15	600306	keystroke_a	a	n/a
300.423	0.12	600846	keystroke_b	b	n/a
300.543	0.104	601086	keystroke_i	i	n/a
300.633	0.179	601266	keystroke_l	l	n/a
300.768	0.135	601536	keystroke_i	i	n/a
300.887	0.121	601774	keystroke_t	t	n/a
301.1425	0.165	602285	keystroke_i	i	n/a
301.2775	0.15	602555	keystroke_e	e	n/a
301.3975	0.135	602795	keystroke_s	s	n/a
301.818	0.135	603636	keystroke_Key.space	Key.space	n/a
302.193	0.105	604386	keystroke_s	s	n/a
302.268	0.105	604536	keystroke_h	h	n/a
302.463	0.18	604926	keystroke_a	a	n/a
303.063	0.119	606126	keystroke_k	k	n/a
303.3025	0.135	606605	keystroke_i	i	n/a
303.5425	0.18	607085	keystroke_r	r	n/a
303.7075	0.135	607415	keystroke_a	a	n/a
303.9925	0.105	607985	keystroke_Key.enter	Key.enter	n/a
304.106	5.5885	608212	prompt	n/a	voters wars rate operate\n
304.8475	0.135	609695	keystroke_v	v	n/a
304.9525	0.135	609905	keystroke_o	o	n/a
305.1175	0.12	610235	keystroke_t	t	n/a
305.2225	0.105	610445	keystroke_e	e	n/a
305.5375	0.15	611075	keystroke_r	r	n/a
305.7325	0.09	611465	keystroke_s	s	n/a
306.0325	0.15	612065	keystroke_Key.space	Key.space	n/a
306.2125	0.135	612425	keystroke_w	w	n/a
306.3475	0.09	612695	keystroke_a	a	n/a
306.3925	0.135	612785	keystroke_r	r	n/a
306.5875	0.1205	613175	keystroke_d	d	n/a
306.692	0.15	613384	keystroke_s	s	n/a
306.857	0.12	613714	keystroke_Key.space	Key.space	n/a
307.232	0.136	614464	keystroke_r	r	n/a
307.353	0.135	614706	keystroke_a	a	n/a
307.503	0.15	615006	keystroke_t	t	n/a
307.623	0.105	615246	keystroke_e	e	n/a
307.773	0.135	615546	keystroke_Key.space	Key.space	n/a
307.953	0.18	615906	keystroke_o	o	n/a
308.118	0.135	616236	keystroke_p	p	n/a
308.298	0.15	616596	keystroke_e	e	n/a
308.433	0.1495	616866	keystroke_r	r	n/a
308.5675	0.165	617135	keystroke_a	a	n/a
308.7175	0.135	617435	keystroke_t	t	n/a
308.8375	0.135	617675	keystroke_e	e	n/a
309.588	0.104	619176	keystroke_Key.enter	Key.enter	n/a
309.6995	10.4645	619399	prompt	n/a	logged licenses equality contents\n
310.353	0.09	620706	keystroke_l	l	n/a
310.548	0.12	621096	keystroke_o	o	n/a
310.623	0.075	621246	keystroke_g	g	n/a
310.803	0.12	621606	keystroke_g	g	n/a
310.908	0.105	621816	keystroke_e	e	n/a
311.178	0.105	622356	keystroke_d	d	n/a
311.853	0.12	623706	keystroke_Key.space	Key.space	n/a
312.018	0.165	624036	keystroke_l	l	n/a
312.138	0.15	624276	keystroke_i	i	n/a
312.303	0.12	624606	keystroke_c	c	n/a
312.558	0.09	625116	keystroke_e	e	n/a
312.723	0.15	625446	keystroke_n	n	n/a
314.058	0.15	628116	keystroke_s	s	n/a
314.193	0.135	628386	keystroke_e	e	n/a
314.343	0.12	628686	keystroke_s	s	n/a
314.748	0.119	629496	keystroke_Key.space	Key.space	n/a
315.243	0.149	630486	keystroke_q	q	n/a
315.947	0.106	631894	keystroke_Key.backspace	Key.backspace	n/a
316.038	0.12	632076	keystroke_e	e	n/a
316.232	0.136	632464	keystroke_q	q	n/a
316.382	0.135	632764	keystroke_u	u	n/a
316.547	0.1355	633094	keystroke_a	a	n/a
316.8325	0.165	633665	keystroke_l	l	n/a
316.9375	0.15	633875	keystroke_i	i	n/a
317.0725	0.15	634145	keystroke_t	t	n/a
317.2525	0.1655	634505	keystroke_y	y	n/a
317.462	0.196	634924	keystroke_Key.space	Key.space	n/a
318.4225	0.12	636845	keystroke_c	c	n/a
318.5275	0.135	637055	keystroke_o	o	n/a
318.6025	0.165	637205	keystroke_n	n	n/a
318.8275	0.15	637655	keystroke_t	t	n/a
318.9325	0.135	637865	keystroke_e	e	n/a
319.0525	0.12	638105	keystroke_n	n	n/a
319.1575	0.12	638315	keystroke_t	t	n/a
319.2925	0.165	638585	keystroke_s	s	n/a
320.0275	0.135	640055	keystroke_Key.enter	Key.enter	n/a
320.172	6.442	640344	prompt	n/a	mixer came feels delicious\n
321.378	0.105	642756	keystroke_n	n	n/a
321.6775	0.075	643355	keystroke_Key.backspace	Key.backspace	n/a
321.8725	0.12	643745	keystroke_m	m	n/a
321.9475	0.135	643895	keystroke_i	i	n/a
322.1575	0.15	644315	keystroke_x	x	n/a
322.6525	0.15	645305	keystroke_e	e	n/a
322.7725	0.135	645545	keystroke_r	r	n/a
322.9225	0.15	645845	keystroke_Key.space	Key.space	n/a
323.1625	0.135	646325	keystroke_c	c	n/a
323.2525	0.135	646505	keystroke_a	a	n/a
323.3575	0.135	646715	keystroke_m	m	n/a
323.5225	0.09	647045	keystroke_e	e	n/a
323.6275	0.12	647255	keystroke_Key.space	Key.space	n/a
323.8375	0.12	647675	keystroke_f	f	n/a
324.1525	0.0605	648305	keystroke_e	e	n/a
324.3475	0.06	648695	keystroke_e	e	n/a
324.4975	0.195	648995	keystroke_l	l	n/a
324.7525	0.135	649505	keystroke_s	s	n/a
325.053	0.12	650106	keystroke_Key.space	Key.space	n/a
325.293	0.105	650586	keystroke_d	d	n/a
325.487	0.105	650974	keystroke_e	e	n/a
325.623	0.135	651246	keystroke_l	l	n/a
325.698	0.18	651396	keystroke_i	i	n/a
325.862	0.121	651724	keystroke_c	c	n/a
325.967	0.136	651934	keystroke_i	i	n/a
326.073	0.15	652146	keystroke_o	o	n/a
326.163	0.165	652326	keystroke_u	u	n/a
326.283	0.135	652566	keystroke_s	s	n/a
326.523	0.0895	653046	keystroke_Key.enter	Key.enter	n/a
326.6185	7.1505	653237	prompt	n/a	lots championship laptops sight\n
327.258	0.12	654516	keystroke_l	l	n/a
327.452	0.166	654904	keystroke_o	o	n/a
327.707	0.135	655414	keystroke_t	t	n/a
327.797	0.15	655594	keystroke_s	s	n/a
327.977	0.15	655954	keystroke_Key.space	Key.space	n/a
328.428	0.134	656856	keystroke_c	c	n/a
328.547	0.12	657094	keystroke_h	h	n/a
328.682	0.135	657364	keystroke_a	a	n/a
328.832	0.18	657664	keystroke_m	m	n/a
328.952	0.1655	657904	keystroke_p	p	n/a
329.5375	0.045	659075	keystroke_o	o	n/a
329.8825	0.06	659765	keystroke_Key.backspace	Key.backspace	n/a
330.0925	0.135	660185	keystroke_i	i	n/a
330.1825	0.165	660365	keystroke_o	o	n/a
330.3025	0.15	660605	keystroke_n	n	n/a
330.4975	0.15	660995	keystroke_s	s	n/a
330.6325	0.135	661265	keystroke_h	h	n/a
330.7075	0.18	661415	keystroke_i	i	n/a
330.7975	0.12	661595	keystroke_p	p	n/a
331.0075	0.15	662015	keystroke_Key.space	Key.space	n/a
331.3375	0.1505	662675	keystroke_l	l	n/a
331.443	0.105	662886	keystroke_a	a	n/a
331.683	0.15	663366	keystroke_p	p	n/a
332.133	0.105	664266	keystroke_t	t	n/a
332.253	0.135	664506	keystroke_o	o	n/a
332.403	0.15	664806	keystroke_p	p	n/a
332.613	0.15	665226	keystroke_Key.space	Key.space	n/a
332.913	0.12	665826	keystroke_s	s	n/a
333.0025	0.105	666005	keystroke_i	i	n/a
333.1225	0.09	666245	keystroke_g	g	n/a
333.2275	0.105	666455	keystroke_h	h	n/a
333.3475	0.1055	666695	keystroke_t	t	n/a
333.663	0.105	667326	keystroke_Key.enter	Key.enter	n/a
333.7735	10.6905	667547	prompt	n/a	engage louis fallen launched\n
334.473	0.06	668946	keystroke_e	e	n/a
334.593	0.12	669186	keystroke_n	n	n/a
334.833	0.105	669666	keystroke_g	g	n/a
334.938	0.12	669876	keystroke_a	a	n/a
335.043	0.12	670086	keystroke_g	g	n/a
335.133	0.135	670266	keystroke_e	e	n/a
335.328	0.119	670656	keystroke_Key.space	Key.space	n/a
335.523	0.09	671046	keystroke_l	l	n/a
335.718	0.15	671436	keystroke_o	o	n/a
335.823	0.135	671646	keystroke_u	u	n/a
335.973	0.135	671946	keystroke_s	s	n/a
336.287	0.166	672574	keystroke_Key.space	Key.space	n/a
336.5875	0.135	673175	keystroke_f	f	n/a
336.6925	0.135	673385	keystroke_a	a	n/a
336.8725	0.075	673745	keystroke_l	l	n/a
337.0525	0.105	674105	keystroke_l	l	n/a
337.1425	0.105	674285	keystroke_e	e	n/a
337.2775	0.135	674555	keystroke_n	n	n/a
337.548	0.105	675096	keystroke_Key.space	Key.space	n/a
337.758	0.105	675516	keystroke_l	l	n/a
337.833	0.135	675666	keystroke_a	a	n/a
338.043	0.09	676086	keystroke_u	u	n/a
338.283	0.105	676566	keystroke_n	n	n/a
338.433	0.27	676866	keystroke_c	c	n/a
338.613	0.105	677226	keystroke_h	h	n/a
340.413	0.09	680826	keystroke_Key.backspace	Key.backspace	n/a
340.608	0.105	681216	keystroke_Key.backspace	Key.backspace	n/a
340.803	0.075	681606	keystroke_Key.backspace	Key.backspace	n/a
341.043	0.105	682086	keystroke_i	i	n/a
341.133	0.15	682266	keystroke_s	s	n/a
341.313	0.149	682626	keystroke_Key.space	Key.space	n/a
341.8675	0.135	683735	keystroke_f	f	n/a
341.9575	0.15	683915	keystroke_a	a	n/a
342.0325	0.09	684065	keystroke_l	l	n/a
342.1825	0.12	684365	keystroke_l	l	n/a
342.2875	0.105	684575	keystroke_e	e	n/a
342.4075	0.1505	684815	keystroke_n	n	n/a
342.5725	0.15	685145	keystroke_Key.space	Key.space	n/a
343.1275	0.15	686255	keystroke_l	l	n/a
343.2625	0.105	686525	keystroke_a	a	n/a
343.3825	0.06	686765	keystroke_u	u	n/a
343.577	0.09	687154	keystroke_n	n	n/a
343.697	0.105	687394	keystroke_c	c	n/a
343.817	0.09	687634	keystroke_h	h	n/a
343.952	0.075	687904	keystroke_e	e	n/a
344.132	0.12	688264	keystroke_d	d	n/a
344.342	0.12	688684	keystroke_Key.enter	Key.enter	n/a
344.481	7.423	688962	prompt	n/a	dash dash thinkpad additionally\n
345.213	0.149	690426	keystroke_d	d	n/a
345.317	0.105	690634	keystroke_a	a	n/a
345.6925	0.21	691385	keystroke_s	s	n/a
346.2475	0.12	692495	keystroke_h	h	n/a
346.3525	0.135	692705	keystroke_Key.space	Key.space	n/a
346.578	0.18	693156	keystroke_d	d	n/a
346.923	0.135	693846	keystroke_a	a	n/a
347.178	0.12	694356	keystroke_s	s	n/a
347.328	0.135	694656	keystroke_h	h	n/a
347.432	0.1505	694864	keystroke_Key.space	Key.space	n/a
347.8375	0.105	695675	keystroke_t	t	n/a
347.9275	0.12	695855	keystroke_h	h	n/a
348.4525	0.18	696905	keystroke_i	i	n/a
348.6175	0.195	697235	keystroke_n	n	n/a
348.7525	0.18	697505	keystroke_k	k	n/a
349.1425	0.12	698285	keystroke_p	p	n/a
349.2475	0.105	698495	keystroke_a	a	n/a
349.4275	0.1055	698855	keystroke_d	d	n/a
349.758	0.015	699516	keystroke_Key.space	Key.space	n/a
349.893	0.12	699786	keystroke_a	a	n/a
350.028	0.135	700056	keystroke_d	d	n/a
350.253	0.09	700506	keystroke_d	d	n/a
350.388	0.12	700776	keystroke_i	i	n/a
350.523	0.12	701046	keystroke_t	t	n/a
350.628	0.09	701256	keystroke_i	i	n/a
350.703	0.12	701406	keystroke_o	o	n/a
350.748	0.135	701496	keystroke_n	n	n/a
350.868	0.165	701736	keystroke_a	a	n/a
351.003	0.105	702006	keystroke_l	l	n/a
351.1985	0.134	702397	keystroke_l	l	n/a
351.2725	0.151	702545	keystroke_y	y	n/a
351.797	0.105	703594	keystroke_Key.enter	Key.enter	n/a
351.909	7.991	703818	prompt	n/a	authors drunk scales advanced\n
352.562	0.12	705124	keystroke_a	a	n/a
352.698	0.089	705396	keystroke_u	u	n/a
352.817	0.106	705634	keystroke_t	t	n/a
352.938	0.1045	705876	keystroke_h	h	n/a
353.0725	0.195	706145	keystroke_e	e	n/a
353.2825	0.105	706565	keystroke_o	o	n/a
353.687	0.061	707374	keystroke_Key.backspace	Key.backspace	n/a
353.823	0.075	707646	keystroke_Key.backspace	Key.backspace	n/a
354.018	0.12	708036	keystroke_o	o	n/a
354.123	0.12	708246	keystroke_r	r	n/a
354.257	0.106	708514	keystroke_s	s	n/a
354.407	0.135	708814	keystroke_Key.space	Key.space	n/a
354.753	0.075	709506	keystroke_d	d	n/a
354.918	0.209	709836	keystroke_r	r	n/a
355.187	0.12	710374	keystroke_u	u	n/a
355.5025	0.1655	711005	keystroke_n	n	n/a
355.6075	0.21	711215	keystroke_k	k	n/a
355.8025	0.135	711605	keystroke_Key.space	Key.space	n/a
356.0725	0.15	712145	keystroke_s	s	n/a
356.2375	0.135	712475	keystroke_a	a	n/a
356.3875	0.135	712775	keystroke_l	l	n/a
356.7325	0.075	713465	keystroke_Key.backspace	Key.backspace	n/a
356.7925	0.12	713585	keystroke_c	c	n/a
357.3175	0.105	714635	keystroke_Key.backspace	Key.backspace	n/a
357.543	0.075	715086	keystroke_Key.backspace	Key.backspace	n/a
357.633	0.105	715266	keystroke_c	c	n/a
357.693	0.12	715386	keystroke_a	a	n/a
357.798	0.12	715596	keystroke_l	l	n/a
357.948	0.105	715896	keystroke_e	e	n/a
358.038	0.12	716076	keystroke_s	s	n/a
358.233	0.135	716466	keystroke_Key.space	Key.space	n/a
358.443	0.09	716886	keystroke_a	a	n/a
358.593	0.105	717186	keystroke_d	d	n/a
358.773	0.135	717546	keystroke_v	v	n/a
358.848	0.105	717696	keystroke_a	a	n/a
358.968	0.12	717936	keystroke_n	n	n/a
359.073	0.09	718146	keystroke_c	c	n/a
359.283	0.105	718566	keystroke_e	e	n/a
359.553	0.134	719106	keystroke_d	d	n/a
359.792	0.106	719584	keystroke_Key.enter	Key.enter	n/a
359.908	6.681	719816	prompt	n/a	alan baseline evaluated velvet\n
360.512	0.121	721024	keystroke_a	a	n/a
360.618	0.09	721236	keystroke_l	l	n/a
360.752	0.105	721504	keystroke_a	a	n/a
360.873	0.195	721746	keystroke_n	n	n/a
361.052	0.1205	722104	keystroke_Key.space	Key.space	n/a
361.2925	0.12	722585	keystroke_b	b	n/a
361.3975	0.18	722795	keystroke_a	a	n/a
361.5625	0.12	723125	keystroke_s	s	n/a
361.6375	0.196	723275	keystroke_e	e	n/a
361.8625	0.15	723725	keystroke_l	l	n/a
361.9675	0.18	723935	keystroke_i	i	n/a
362.0735	0.164	724147	keystroke_n	n	n/a
362.2385	0.104	724477	keystroke_e	e	n/a
362.5225	0.135	725045	keystroke_Key.space	Key.space	n/a
362.9275	0.09	725855	keystroke_e	e	n/a
363.123	0.09	726246	keystroke_v	v	n/a
363.198	0.15	726396	keystroke_a	a	n/a
363.333	0.135	726666	keystroke_l	l	n/a
363.423	0.135	726846	keystroke_u	u	n/a
363.678	0.135	727356	keystroke_t	t	n/a
364.083	0.09	728166	keystroke_e	e	n/a
364.293	0.135	728586	keystroke_d	d	n/a
364.488	0.15	728976	keystroke_Key.space	Key.space	n/a
364.923	0.15	729846	keystroke_v	v	n/a
365.058	0.12	730116	keystroke_e	e	n/a
365.193	0.135	730386	keystroke_l	l	n/a
365.373	0.075	730746	keystroke_e	e	n/a
365.8675	0.09	731735	keystroke_Key.backspace	Key.backspace	n/a
365.9585	0.089	731917	keystroke_v	v	n/a
366.0175	0.135	732035	keystroke_e	e	n/a
366.2125	0.12	732425	keystroke_t	t	n/a
366.4825	0.1045	732965	keystroke_Key.enter	Key.enter	n/a
366.5935	7.841	733187	prompt	n/a	africa breakfast lyric lauren\n
367.248	0.134	734496	keystroke_a	a	n/a
367.442	0.09	734884	keystroke_f	f	n/a
367.6375	0.105	735275	keystroke_r	r	n/a
367.9225	0.165	735845	keystroke_i	i	n/a
368.3425	0.105	736685	keystroke_c	c	n/a
368.4025	0.165	736805	keystroke_a	a	n/a
368.6875	0.12	737375	keystroke_Key.space	Key.space	n/a
369.1825	0.045	738365	keystroke_b	b	n/a
369.2875	0.105	738575	keystroke_r	r	n/a
369.3775	0.12	738755	keystroke_e	e	n/a
369.4525	0.135	738905	keystroke_a	a	n/a
369.6025	0.165	739205	keystroke_k	k	n/a
369.7525	0.255	739505	keystroke_f	f	n/a
370.3225	0.18	740645	keystroke_a	a	n/a
370.4875	0.135	740975	keystroke_s	s	n/a
370.5925	0.135	741185	keystroke_t	t	n/a
370.7725	0.135	741545	keystroke_Key.space	Key.space	n/a
370.9675	0.165	741935	keystroke_l	l	n/a
371.1025	0.135	742205	keystroke_y	y	n/a
371.5075	0.076	743015	keystroke_r	r	n/a
371.5985	0.149	743197	keystroke_i	i	n/a
371.7175	0.15	743435	keystroke_c	c	n/a
371.9125	0.135	743825	keystroke_Key.space	Key.space	n/a
372.1375	0.15	744275	keystroke_l	l	n/a
372.3625	0.15	744725	keystroke_a	a	n/a
372.4975	0.09	744995	keystroke_u	u	n/a
372.6775	0.135	745355	keystroke_r	r	n/a
373.4425	0.1355	746885	keystroke_n	n	n/a
373.593	0.09	747186	keystroke_e	e	n/a
373.818	0.06	747636	keystroke_Key.backspace	Key.backspace	n/a
373.938	0.105	747876	keystroke_Key.backspace	Key.backspace	n/a
374.058	0.12	748116	keystroke_e	e	n/a
374.163	0.12	748326	keystroke_n	n	n/a
374.343	0.09	748686	keystroke_Key.enter	Key.enter	n/a
374.439	8.411	748878	prompt	n/a	emerging consistently bacterial margin\n
375.153	0.09	750306	keystroke_e	e	n/a
375.243	0.15	750486	keystroke_m	m	n/a
376.1125	0.1345	752225	keystroke_e	e	n/a
376.202	0.09	752404	keystroke_r	r	n/a
376.442	0.105	752884	keystroke_g	g	n/a
376.608	0.165	753216	keystroke_i	i	n/a
376.698	0.18	753396	keystroke_n	n	n/a
376.893	0.09	753786	keystroke_g	g	n/a
377.013	0.15	754026	keystroke_Key.space	Key.space	n/a
377.433	0.09	754866	keystroke_c	c	n/a
377.493	0.1195	754986	keystroke_o	o	n/a
377.553	0.1195	755106	keystroke_n	n	n/a
377.6875	0.09	755375	keystroke_s	s	n/a
377.8075	0.09	755615	keystroke_i	i	n/a
377.9425	0.12	755885	keystroke_s	s	n/a
378.3925	0.15	756785	keystroke_t	t	n/a
378.6775	0.105	757355	keystroke_e	e	n/a
378.7975	0.135	757595	keystroke_n	n	n/a
378.9475	0.12	757895	keystroke_t	t	n/a
379.0975	0.225	758195	keystroke_l	l	n/a
379.2175	0.18	758435	keystroke_y	y	n/a
379.3825	0.165	758765	keystroke_Key.space	Key.space	n/a
379.8785	0.09	759757	keystroke_b	b	n/a
379.9535	0.104	759907	keystroke_a	a	n/a
380.2235	0.119	760447	keystroke_c	c	n/a
380.5535	0.119	761107	keystroke_t	t	n/a
380.7935	0.135	761587	keystroke_e	e	n/a
380.8825	0.105	761765	keystroke_r	r	n/a
381.0485	0.134	762097	keystroke_i	i	n/a
381.1985	0.164	762397	keystroke_a	a	n/a
381.3475	0.165	762695	keystroke_l	l	n/a
381.4225	0.15	762845	keystroke_Key.space	Key.space	n/a
381.693	0.135	763386	keystroke_m	m	n/a
381.963	0.105	763926	keystroke_a	a	n/a
382.023	0.09	764046	keystroke_r	r	n/a
382.263	0.12	764526	keystroke_g	g	n/a
382.413	0.135	764826	keystroke_i	i	n/a
382.503	0.15	765006	keystroke_n	n	n/a
382.728	0.12	765456	keystroke_Key.enter	Key.enter	n/a
382.8555	8.4235	765711	prompt	n/a	intended sufficient soonest charging\n
383.538	0.1495	767076	keystroke_i	i	n/a
383.6125	0.15	767225	keystroke_n	n	n/a
383.7775	0.105	767555	keystroke_t	t	n/a
383.8675	0.12	767735	keystroke_e	e	n/a
384.0025	0.15	768005	keystroke_n	n	n/a
384.1675	0.09	768335	keystroke_e	e	n/a
384.3925	0.09	768785	keystroke_d	d	n/a
384.6325	0.09	769265	keystroke_e	e	n/a
384.8875	0.075	769775	keystroke_Key.backspace	Key.backspace	n/a
385.0375	0.1055	770075	keystroke_Key.backspace	Key.backspace	n/a
385.203	0.105	770406	keystroke_Key.backspace	Key.backspace	n/a
385.293	0.105	770586	keystroke_d	d	n/a
385.503	0.06	771006	keystroke_e	e	n/a
385.668	0.1205	771336	keystroke_d	d	n/a
385.877	0.135	771754	keystroke_Key.space	Key.space	n/a
386.328	0.075	772656	keystroke_s	s	n/a
386.403	0.104	772806	keystroke_u	u	n/a
386.688	0.075	773376	keystroke_f	f	n/a
386.868	0.075	773736	keystroke_f	f	n/a
386.944	0.089	773888	keystroke_i	i	n/a
387.063	0.105	774126	keystroke_c	c	n/a
387.183	0.09	774366	keystroke_i	i	n/a
387.288	0.075	774576	keystroke_e	e	n/a
387.408	0.135	774816	keystroke_n	n	n/a
387.515	0.103	775030	keystroke_t	t	n/a
387.6925	0.165	775385	keystroke_Key.space	Key.space	n/a
388.2925	0.12	776585	keystroke_s	s	n/a
388.3975	0.075	776795	keystroke_o	o	n/a
388.5625	0.135	777125	keystroke_o	o	n/a
388.6525	0.15	777305	keystroke_n	n	n/a
388.7575	0.15	777515	keystroke_e	e	n/a
388.8925	0.135	777785	keystroke_s	s	n/a
388.9825	0.15	777965	keystroke_t	t	n/a
389.1775	0.105	778355	keystroke_Key.space	Key.space	n/a
389.4325	0.12	778865	keystroke_c	c	n/a
389.5375	0.09	779075	keystroke_h	h	n/a
389.6725	0.1205	779345	keystroke_a	a	n/a
389.733	0.0895	779466	keystroke_r	r	n/a
389.9575	0.105	779915	keystroke_g	g	n/a
390.033	0.0895	780066	keystroke_e	e	n/a
390.558	0.0745	781116	keystroke_Key.backspace	Key.backspace	n/a
390.7825	0.1355	781565	keystroke_i	i	n/a
390.8575	0.1505	781715	keystroke_n	n	n/a
390.993	0.1195	781986	keystroke_g	g	n/a
391.1875	0.09	782375	keystroke_Key.enter	Key.enter	n/a
391.284	6.4305	782568	prompt	n/a	use somebody stickers legitimate\n
391.9225	0.105	783845	keystroke_u	u	n/a
392.013	0.15	784026	keystroke_s	s	n/a
392.133	0.1195	784266	keystroke_e	e	n/a
392.223	0.1345	784446	keystroke_Key.space	Key.space	n/a
392.4625	0.135	784925	keystroke_s	s	n/a
392.568	0.1045	785136	keystroke_o	o	n/a
392.7475	0.09	785495	keystroke_e	e	n/a
393.1375	0.045	786275	keystroke_Key.backspace	Key.backspace	n/a
393.3475	0.09	786695	keystroke_m	m	n/a
393.4675	0.09	786935	keystroke_e	e	n/a
393.7825	0.075	787565	keystroke_b	b	n/a
393.8725	0.105	787745	keystroke_o	o	n/a
394.0075	0.12	788015	keystroke_d	d	n/a
394.1575	0.135	788315	keystroke_y	y	n/a
394.2475	0.15	788495	keystroke_Key.space	Key.space	n/a
394.7125	0.12	789425	keystroke_s	s	n/a
394.8175	0.105	789635	keystroke_t	t	n/a
394.9375	0.09	789875	keystroke_i	i	n/a
395.0575	0.12	790115	keystroke_c	c	n/a
395.1475	0.15	790295	keystroke_k	k	n/a
395.3275	0.09	790655	keystroke_e	e	n/a
395.4325	0.12	790865	keystroke_r	r	n/a
395.5375	0.12	791075	keystroke_s	s	n/a
395.7325	0.15	791465	keystroke_Key.space	Key.space	n/a
395.9125	0.15	791825	keystroke_l	l	n/a
395.9875	0.09	791975	keystroke_e	e	n/a
396.1825	0.12	792365	keystroke_g	g	n/a
396.3925	0.135	792785	keystroke_i	i	n/a
396.798	0.134	793596	keystroke_t	t	n/a
396.978	0.134	793956	keystroke_i	i	n/a
397.068	0.165	794136	keystroke_m	m	n/a
397.248	0.089	794496	keystroke_a	a	n/a
397.323	0.12	794646	keystroke_t	t	n/a
397.413	0.165	794826	keystroke_e	e	n/a
397.607	0.106	795214	keystroke_Key.enter	Key.enter	n/a
397.7185	11.126	795437	prompt	n/a	skip spectrum korean aggregate\n
398.373	0.135	796746	keystroke_s	s	n/a
398.448	0.105	796896	keystroke_k	k	n/a
398.688	0.12	797376	keystroke_i	i	n/a
398.778	0.18	797556	keystroke_p	p	n/a
398.883	0.15	797766	keystroke_Key.space	Key.space	n/a
399.123	0.12	798246	keystroke_s	s	n/a
399.333	0.105	798666	keystroke_p	p	n/a
399.423	0.105	798846	keystroke_e	e	n/a
399.648	0.1045	799296	keystroke_c	c	n/a
399.9325	0.09	799865	keystroke_t	t	n/a
400.1435	0.089	800287	keystroke_r	r	n/a
400.3525	0.09	800705	keystroke_u	u	n/a
400.6075	0.15	801215	keystroke_m	m	n/a
400.7425	0.15	801485	keystroke_Key.space	Key.space	n/a
401.1475	0.18	802295	keystroke_k	k	n/a
401.3125	0.135	802625	keystroke_o	o	n/a
401.4325	0.105	802865	keystroke_r	r	n/a
401.5075	0.1655	803015	keystroke_e	e	n/a
401.598	0.1945	803196	keystroke_a	a	n/a
401.688	0.1645	803376	keystroke_n	n	n/a
401.7775	0.15	803555	keystroke_Key.space	Key.space	n/a
402.1825	0.12	804365	keystroke_a	a	n/a
402.5125	0.135	805025	keystroke_r	r	n/a
403.0075	0.105	806015	keystroke_Key.backspace	Key.backspace	n/a
403.6075	0.075	807215	keystroke_g	g	n/a
403.788	0.075	807576	keystroke_g	g	n/a
403.968	0.12	807936	keystroke_r	r	n/a
404.043	0.135	808086	keystroke_e	e	n/a
404.643	0.12	809286	keystroke_a	a	n/a
404.733	0.15	809466	keystroke_t	t	n/a
404.868	0.105	809736	keystroke_e	e	n/a
405.423	0.06	810846	keystroke_Key.backspace	Key.backspace	n/a
405.558	0.12	811116	keystroke_Key.backspace	Key.backspace	n/a
405.618	0.105	811236	keystroke_g	g	n/a
405.738	0.135	811476	keystroke_a	a	n/a
405.858	0.135	811716	keystroke_t	t	n/a
406.548	0.0895	813096	keystroke_Key.backspace	Key.backspace	n/a
406.7125	0.09	813425	keystroke_Key.backspace	Key.backspace	n/a
406.8625	0.135	813725	keystroke_Key.backspace	Key.backspace	n/a
406.9975	0.12	813995	keystroke_g	g	n/a
407.1025	0.15	814205	keystroke_a	a	n/a
407.5375	0.075	815075	keystroke_Key.backspace	Key.backspace	n/a
407.6875	0.0905	815375	keystroke_Key.backspace	Key.backspace	n/a
407.838	0.105	815676	keystroke_Key.backspace	Key.backspace	n/a
407.958	0.105	815916	keystroke_g	g	n/a
408.048	0.12	816096	keystroke_a	a	n/a
408.198	0.21	816396	keystroke_t	t	n/a
408.378	0.15	816756	keystroke_e	e	n/a
408.723	0.12	817446	keystroke_Key.enter	Key.enter	n/a
408.8495	10.855	817699	prompt	n/a	approximate situated establishing maintenance\n
409.683	0.12	819366	keystroke_a	a	n/a
409.773	0.075	819546	keystroke_p	p	n/a
409.938	0.075	819876	keystroke_p	p	n/a
409.998	0.12	819996	keystroke_r	r	n/a
410.133	0.105	820266	keystroke_o	o	n/a
410.733	0.135	821466	keystroke_x	x	n/a
410.868	0.09	821736	keystroke_i	i	n/a
411.018	0.18	822036	keystroke_m	m	n/a
411.213	0.135	822426	keystroke_a	a	n/a
411.333	0.15	822666	keystroke_t	t	n/a
411.6325	0.12	823265	keystroke_e	e	n/a
411.8275	0.135	823655	keystroke_Key.space	Key.space	n/a
412.0975	0.09	824195	keystroke_s	s	n/a
412.2175	0.105	824435	keystroke_i	i	n/a
412.3375	0.12	824675	keystroke_t	t	n/a
412.5025	0.12	825005	keystroke_u	u	n/a
412.6525	0.15	825305	keystroke_a	a	n/a
412.7875	0.135	825575	keystroke_t	t	n/a
412.8925	0.105	825785	keystroke_e	e	n/a
413.1325	0.09	826265	keystroke_d	d	n/a
413.2825	0.135	826565	keystroke_Key.space	Key.space	n/a
413.6875	0.1355	827375	keystroke_e	e	n/a
413.838	0.12	827676	keystroke_s	s	n/a
414.363	0.045	828726	keystroke_t	t	n/a
414.393	0.105	828786	keystroke_a	a	n/a
414.963	0.09	829926	keystroke_b	b	n/a
415.098	0.1345	830196	keystroke_l	l	n/a
415.188	0.1645	830376	keystroke_i	i	n/a
415.3375	0.075	830675	keystroke_s	s	n/a
415.4125	0.135	830825	keystroke_h	h	n/a
415.5025	0.195	831005	keystroke_i	i	n/a
415.6675	0.1655	831335	keystroke_n	n	n/a
415.818	0.09	831636	keystroke_g	g	n/a
415.893	0.135	831786	keystroke_Key.space	Key.space	n/a
416.118	0.135	832236	keystroke_m	m	n/a
416.268	0.135	832536	keystroke_a	a	n/a
416.538	0.1645	833076	keystroke_i	i	n/a
416.6275	0.15	833255	keystroke_n	n	n/a
416.8975	0.12	833795	keystroke_t	t	n/a
417.0025	0.12	834005	keystroke_a	a	n/a
417.1975	0.15	834395	keystroke_n	n	n/a
417.7525	0.0745	835505	keystroke_Key.backspace	Key.backspace	n/a
418.022	0.12	836044	keystroke_Key.backspace	Key.backspace	n/a
418.232	0.09	836464	keystroke_e	e	n/a
418.382	0.12	836764	keystroke_n	n	n/a
418.878	0.104	837756	keystroke_a	a	n/a
418.998	0.1045	837996	keystroke_n	n	n/a
419.0875	0.105	838175	keystroke_c	c	n/a
419.3125	0.135	838625	keystroke_e	e	n/a
419.5975	0.105	839195	keystroke_Key.enter	Key.enter	n/a
419.71	9.219	839420	prompt	n/a	intelligence bangladesh series toddler\n
420.363	0.18	840726	keystroke_i	i	n/a
420.453	0.135	840906	keystroke_n	n	n/a
420.738	0.105	841476	keystroke_t	t	n/a
420.828	0.165	841656	keystroke_e	e	n/a
420.978	0.06	841956	keystroke_l	l	n/a
421.143	0.135	842286	keystroke_l	l	n/a
421.398	0.135	842796	keystroke_i	i	n/a
421.7575	0.1045	843515	keystroke_g	g	n/a
421.877	0.105	843754	keystroke_e	e	n/a
421.997	0.135	843994	keystroke_n	n	n/a
422.147	0.105	844294	keystroke_c	c	n/a
422.387	0.09	844774	keystroke_e	e	n/a
422.567	0.135	845134	keystroke_Key.space	Key.space	n/a
422.882	0.15	845764	keystroke_b	b	n/a
423.018	0.165	846036	keystroke_a	a	n/a
423.213	0.135	846426	keystroke_n	n	n/a
423.438	0.135	846876	keystroke_g	g	n/a
423.858	0.135	847716	keystroke_l	l	n/a
424.053	0.12	848106	keystroke_a	a	n/a
424.548	0.09	849096	keystroke_d	d	n/a
424.743	0.09	849486	keystroke_e	e	n/a
425.103	0.105	850206	keystroke_s	s	n/a
425.223	0.135	850446	keystroke_h	h	n/a
425.313	0.135	850626	keystroke_Key.space	Key.space	n/a
425.598	0.195	851196	keystroke_s	s	n/a
425.763	0.135	851526	keystroke_e	e	n/a
425.988	0.12	851976	keystroke_r	r	n/a
426.123	0.12	852246	keystroke_i	i	n/a
426.258	0.15	852516	keystroke_e	e	n/a
426.378	0.135	852756	keystroke_s	s	n/a
426.9925	0.195	853985	keystroke_Key.space	Key.space	n/a
427.4275	0.09	854855	keystroke_t	t	n/a
427.5325	0.105	855065	keystroke_o	o	n/a
427.6975	0.105	855395	keystroke_d	d	n/a
428.073	0.12	856146	keystroke_d	d	n/a
428.313	0.12	856626	keystroke_l	l	n/a
428.463	0.18	856926	keystroke_e	e	n/a
428.628	0.12	857256	keystroke_r	r	n/a
428.823	0.104	857646	keystroke_Key.enter	Key.enter	n/a
428.9345	15.6695	857869	prompt	n/a	reviewing evolution zoning onion\n
429.573	0.12	859146	keystroke_r	r	n/a
429.648	0.12	859296	keystroke_e	e	n/a
429.903	0.1045	859806	keystroke_v	v	n/a
429.993	0.0745	859986	keystroke_i	i	n/a
430.1575	0.12	860315	keystroke_w	w	n/a
430.2475	0.165	860495	keystroke_i	i	n/a
430.3375	0.18	860675	keystroke_n	n	n/a
430.5325	0.09	861065	keystroke_g	g	n/a
430.7275	0.075	861455	keystroke_Key.space	Key.space	n/a
430.9825	0.075	861965	keystroke_Key.backspace	Key.backspace	n/a
431.1325	0.09	862265	keystroke_Key.backspace	Key.backspace	n/a
431.2975	0.075	862595	keystroke_Key.backspace	Key.backspace	n/a
431.4625	0.06	862925	keystroke_Key.backspace	Key.backspace	n/a
431.5975	0.105	863195	keystroke_Key.backspace	Key.backspace	n/a
431.8075	0.1055	863615	keystroke_Key.backspace	Key.backspace	n/a
432.873	0.09	865746	keystroke_e	e	n/a
433.488	0.09	866976	keystroke_Key.backspace	Key.backspace	n/a
434.028	0.105	868056	keystroke_i	i	n/a
434.163	0.165	868326	keystroke_v	v	n/a
434.343	0.135	868686	keystroke_e	e	n/a
434.463	0.195	868926	keystroke_w	w	n/a
434.733	0.195	869466	keystroke_i	i	n/a
434.913	0.195	869826	keystroke_n	n	n/a
435.138	0.105	870276	keystroke_g	g	n/a
435.347	0.135	870694	keystroke_Key.space	Key.space	n/a
435.648	0.105	871296	keystroke_e	e	n/a
436.067	0.076	872134	keystroke_o	o	n/a
436.277	0.12	872554	keystroke_l	l	n/a
437.8825	0.135	875765	keystroke_r	r	n/a
437.9725	0.105	875945	keystroke_e	e	n/a
438.2125	0.09	876425	keystroke_v	v	n/a
438.2875	0.09	876575	keystroke_i	i	n/a
438.4375	0.105	876875	keystroke_e	e	n/a
438.5275	0.165	877055	keystroke_w	w	n/a
438.7225	0.195	877445	keystroke_i	i	n/a
438.8125	0.165	877625	keystroke_n	n	n/a
438.9625	0.1055	877925	keystroke_g	g	n/a
439.217	0.135	878434	keystroke_Key.space	Key.space	n/a
439.443	0.104	878886	keystroke_e	e	n/a
439.698	0.059	879396	keystroke_v	v	n/a
440.3725	0.135	880745	keystroke_o	o	n/a
440.6425	0.135	881285	keystroke_l	l	n/a
440.7325	0.15	881465	keystroke_u	u	n/a
441.0475	0.105	882095	keystroke_a	a	n/a
441.4075	0.045	882815	keystroke_Key.backspace	Key.backspace	n/a
441.4825	0.1205	882965	keystroke_t	t	n/a
441.633	0.165	883266	keystroke_i	i	n/a
441.753	0.12	883506	keystroke_o	o	n/a
441.783	0.1945	883566	keystroke_n	n	n/a
441.9175	0.15	883835	keystroke_Key.space	Key.space	n/a
442.2625	0.12	884525	keystroke_z	z	n/a
442.3075	0.15	884615	keystroke_o	o	n/a
442.3975	0.165	884795	keystroke_n	n	n/a
442.5475	0.195	885095	keystroke_i	i	n/a
442.6675	0.135	885335	keystroke_n	n	n/a
442.7725	0.09	885545	keystroke_g	g	n/a
442.8775	0.135	885755	keystroke_Key.space	Key.space	n/a
443.163	0.135	886326	keystroke_o	o	n/a
443.253	0.195	886506	keystroke_n	n	n/a
443.808	0.135	887616	keystroke_i	i	n/a
443.972	0.165	887944	keystroke_o	o	n/a
444.093	0.165	888186	keystroke_n	n	n/a
444.497	0.105	888994	keystroke_Key.enter	Key.enter	n/a
444.6095	5.8445	889219	prompt	n/a	story filed song effectively\n
445.2775	0.105	890555	keystroke_s	s	n/a
445.3675	0.105	890735	keystroke_t	t	n/a
445.4575	0.12	890915	keystroke_o	o	n/a
445.5925	0.105	891185	keystroke_r	r	n/a
445.6825	0.15	891365	keystroke_y	y	n/a
445.8175	0.165	891635	keystroke_Key.space	Key.space	n/a
446.0275	0.105	892055	keystroke_f	f	n/a
446.1475	0.12	892295	keystroke_i	i	n/a
446.2075	0.165	892415	keystroke_l	l	n/a
446.3125	0.105	892625	keystroke_e	e	n/a
446.5525	0.0905	893105	keystroke_d	d	n/a
446.657	0.135	893314	keystroke_Key.space	Key.space	n/a
446.898	0.105	893796	keystroke_s	s	n/a
446.973	0.134	893946	keystroke_o	o	n/a
447.063	0.149	894126	keystroke_n	n	n/a
447.197	0.09	894394	keystroke_g	g	n/a
447.272	0.135	894544	keystroke_Key.space	Key.space	n/a
447.422	0.12	894844	keystroke_e	e	n/a
447.662	0.09	895324	keystroke_f	f	n/a
447.857	0.0755	895714	keystroke_f	f	n/a
447.9625	0.12	895925	keystroke_i	i	n/a
448.0975	0.12	896195	keystroke_c	c	n/a
448.5025	0.06	897005	keystroke_Key.backspace	Key.backspace	n/a
448.6375	0.12	897275	keystroke_Key.backspace	Key.backspace	n/a
448.7275	0.075	897455	keystroke_e	e	n/a
448.9525	0.12	897905	keystroke_c	c	n/a
449.388	0.045	898776	keystroke_t	t	n/a
449.478	0.105	898956	keystroke_i	i	n/a
449.613	0.135	899226	keystroke_v	v	n/a
449.718	0.15	899436	keystroke_e	e	n/a
449.793	0.1795	899586	keystroke_l	l	n/a
449.913	0.1345	899826	keystroke_y	y	n/a
450.3475	0.105	900695	keystroke_Key.enter	Key.enter	n/a
450.4615	12.0825	900923	prompt	n/a	military salary distributions protocols\n
451.1425	0.18	902285	keystroke_m	m	n/a
451.2625	0.15	902525	keystroke_i	i	n/a
451.3825	0.195	902765	keystroke_l	l	n/a
451.713	0.15	903426	keystroke_a	a	n/a
451.818	0.1195	903636	keystroke_r	r	n/a
452.0275	0.105	904055	keystroke_t	t	n/a
452.1775	0.165	904355	keystroke_y	y	n/a
452.2675	0.24	904535	keystroke_Key.space	Key.space	n/a
453.213	0.06	906426	keystroke_Key.backspace	Key.backspace	n/a
453.378	0.075	906756	keystroke_Key.backspace	Key.backspace	n/a
453.543	0.075	907086	keystroke_Key.backspace	Key.backspace	n/a
453.722	0.061	907444	keystroke_Key.backspace	Key.backspace	n/a
453.857	0.1055	907714	keystroke_Key.backspace	Key.backspace	n/a
454.2925	0.12	908585	keystroke_i	i	n/a
454.7425	0.105	909485	keystroke_t	t	n/a
454.8925	0.12	909785	keystroke_a	a	n/a
455.0135	0.059	910027	keystroke_r	r	n/a
455.7175	0.15	911435	keystroke_y	y	n/a
455.7925	0.1505	911585	keystroke_Key.space	Key.space	n/a
456.078	0.18	912156	keystroke_s	s	n/a
456.243	0.1495	912486	keystroke_a	a	n/a
456.4075	0.18	912815	keystroke_l	l	n/a
456.573	0.0895	913146	keystroke_a	a	n/a
456.7375	0.135	913475	keystroke_r	r	n/a
456.9175	0.135	913835	keystroke_y	y	n/a
456.9925	0.15	913985	keystroke_Key.space	Key.space	n/a
457.5025	0.105	915005	keystroke_d	d	n/a
457.5925	0.135	915185	keystroke_i	i	n/a
457.7125	0.09	915425	keystroke_s	s	n/a
457.9375	0.0755	915875	keystroke_t	t	n/a
458.118	0.09	916236	keystroke_r	r	n/a
458.253	0.12	916506	keystroke_i	i	n/a
458.403	0.09	916806	keystroke_b	b	n/a
458.538	0.09	917076	keystroke_u	u	n/a
458.973	0.09	917946	keystroke_t	t	n/a
459.123	0.12	918246	keystroke_i	i	n/a
459.213	0.165	918426	keystroke_o	o	n/a
459.318	0.15	918636	keystroke_n	n	n/a
459.438	0.12	918876	keystroke_s	s	n/a
459.573	0.15	919146	keystroke_Key.space	Key.space	n/a
459.828	0.105	919656	keystroke_p	p	n/a
459.9485	0.0895	919897	keystroke_r	r	n/a
460.053	0.15	920106	keystroke_o	o	n/a
460.398	0.135	920796	keystroke_t	t	n/a
460.578	0.12	921156	keystroke_o	o	n/a
461.208	0.12	922416	keystroke_c	c	n/a
461.358	0.09	922716	keystroke_o	o	n/a
461.8675	0.1945	923735	keystroke_l	l	n/a
462.092	0.15	924184	keystroke_s	s	n/a
462.437	0.105	924874	keystroke_Key.enter	Key.enter	n/a
462.5525	9.3215	925105	prompt	n/a	barrel greene mime administrator\n
463.218	0.104	926436	keystroke_b	b	n/a
463.382	0.136	926764	keystroke_a	a	n/a
463.788	0.104	927576	keystroke_e	e	n/a
464.268	0.09	928536	keystroke_Key.backspace	Key.backspace	n/a
464.343	0.09	928686	keystroke_r	r	n/a
464.538	0.105	929076	keystroke_r	r	n/a
464.613	0.12	929226	keystroke_e	e	n/a
464.778	0.18	929556	keystroke_l	l	n/a
465.018	0.15	930036	keystroke_Key.space	Key.space	n/a
465.273	0.075	930546	keystroke_g	g	n/a
465.468	0.075	930936	keystroke_r	r	n/a
465.513	0.12	931026	keystroke_e	e	n/a
465.708	0.09	931416	keystroke_e	e	n/a
465.813	0.15	931626	keystroke_n	n	n/a
465.993	0.105	931986	keystroke_e	e	n/a
466.307	0.121	932614	keystroke_Key.space	Key.space	n/a
466.8175	0.135	933635	keystroke_m	m	n/a
466.9225	0.195	933845	keystroke_i	i	n/a
467.2675	0.15	934535	keystroke_m	m	n/a
467.5675	0.105	935135	keystroke_e	e	n/a
467.7475	0.15	935495	keystroke_Key.space	Key.space	n/a
468.077	0.136	936154	keystroke_a	a	n/a
468.197	0.15	936394	keystroke_d	d	n/a
468.377	0.166	936754	keystroke_m	m	n/a
468.482	0.165	936964	keystroke_i	i	n/a
469.337	0.18	938674	keystroke_n	n	n/a
469.472	0.166	938944	keystroke_i	i	n/a
470.0575	0.105	940115	keystroke_s	s	n/a
470.3275	0.075	940655	keystroke_t	t	n/a
470.5225	0.09	941045	keystroke_r	r	n/a
470.5825	0.135	941165	keystroke_a	a	n/a
470.7185	0.104	941437	keystroke_t	t	n/a
471.0625	0.12	942125	keystroke_o	o	n/a
471.2275	0.12	942455	keystroke_r	r	n/a
471.752	0.12	943504	keystroke_Key.enter	Key.enter	n/a
471.8815	7.3725	943763	prompt	n/a	food subsidiary flags urge\n
472.4875	0.12	944975	keystroke_f	f	n/a
472.5635	0.074	945127	keystroke_o	o	n/a
472.7275	0.12	945455	keystroke_o	o	n/a
472.8325	0.105	945665	keystroke_d	d	n/a
472.9225	0.12	945845	keystroke_Key.space	Key.space	n/a
473.0575	0.12	946115	keystroke_s	s	n/a
473.2075	0.09	946415	keystroke_u	u	n/a
473.3725	0.105	946745	keystroke_b	b	n/a
473.9125	0.135	947825	keystroke_i	i	n/a
474.6625	0.045	949325	keystroke_Key.backspace	Key.backspace	n/a
474.7525	0.09	949505	keystroke_Key.backspace	Key.backspace	n/a
475.0225	0.0905	950045	keystroke_b	b	n/a
475.338	0.105	950676	keystroke_s	s	n/a
475.473	0.105	950946	keystroke_i	i	n/a
475.938	0.1495	951876	keystroke_d	d	n/a
476.1325	0.135	952265	keystroke_i	i	n/a
476.2825	0.135	952565	keystroke_a	a	n/a
476.3725	0.135	952745	keystroke_r	r	n/a
476.778	0.15	953556	keystroke_y	y	n/a
476.897	0.1805	953794	keystroke_Key.space	Key.space	n/a
477.3475	0.105	954695	keystroke_f	f	n/a
477.4685	0.12	954937	keystroke_l	l	n/a
477.6025	0.105	955205	keystroke_a	a	n/a
477.7085	0.119	955417	keystroke_g	g	n/a
477.8725	0.12	955745	keystroke_s	s	n/a
478.0825	0.12	956165	keystroke_Key.space	Key.space	n/a
478.4885	0.104	956977	keystroke_u	u	n/a
478.6675	0.09	957335	keystroke_r	r	n/a
478.8775	0.105	957755	keystroke_g	g	n/a
478.9975	0.1205	957995	keystroke_e	e	n/a
479.132	0.12	958264	keystroke_Key.enter	Key.enter	n/a
479.2585	5.9655	958517	prompt	n/a	names somebody's require telephone\n
480.0325	0.105	960065	keystroke_n	n	n/a
480.1525	0.12	960305	keystroke_a	a	n/a
480.2875	0.105	960575	keystroke_m	m	n/a
480.4075	0.135	960815	keystroke_e	e	n/a
480.5275	0.12	961055	keystroke_s	s	n/a
480.6625	0.135	961325	keystroke_Key.space	Key.space	n/a
480.9325	0.15	961865	keystroke_s	s	n/a
481.0675	0.135	962135	keystroke_o	o	n/a
481.1575	0.135	962315	keystroke_m	m	n/a
481.2625	0.105	962525	keystroke_e	e	n/a
481.5475	0.0895	963095	keystroke_b	b	n/a
481.652	0.105	963304	keystroke_o	o	n/a
481.803	0.165	963606	keystroke_d	d	n/a
481.982	0.0905	963964	keystroke_y	y	n/a
482.1775	0.15	964355	keystroke_'	'	n/a
482.3425	0.105	964685	keystroke_s	s	n/a
482.8225	0.135	965645	keystroke_Key.space	Key.space	n/a
483.168	0.105	966336	keystroke_r	r	n/a
483.258	0.12	966516	keystroke_e	e	n/a
483.453	0.105	966906	keystroke_q	q	n/a
483.573	0.105	967146	keystroke_u	u	n/a
483.618	0.165	967236	keystroke_i	i	n/a
483.693	0.105	967386	keystroke_r	r	n/a
483.753	0.135	967506	keystroke_e	e	n/a
483.903	0.135	967806	keystroke_Key.space	Key.space	n/a
484.067	0.105	968134	keystroke_t	t	n/a
484.157	0.106	968314	keystroke_e	e	n/a
484.263	0.089	968526	keystroke_l	l	n/a
484.382	0.136	968764	keystroke_e	e	n/a
484.488	0.104	968976	keystroke_p	p	n/a
484.577	0.15	969154	keystroke_h	h	n/a
484.712	0.15	969424	keystroke_o	o	n/a
484.817	0.15	969634	keystroke_n	n	n/a
484.922	0.135	969844	keystroke_e	e	n/a
485.102	0.12	970204	keystroke_Key.enter	Key.enter	n/a
485.229	5.35	970458	prompt	n/a	tested trip univ rabbit\n
486.018	0.09	972036	keystroke_t	t	n/a
486.078	0.165	972156	keystroke_e	e	n/a
486.183	0.15	972366	keystroke_s	s	n/a
486.318	0.105	972636	keystroke_t	t	n/a
486.438	0.105	972876	keystroke_e	e	n/a
486.6625	0.09	973325	keystroke_d	d	n/a
486.7975	0.09	973595	keystroke_Key.space	Key.space	n/a
486.9475	0.075	973895	keystroke_t	t	n/a
487.1275	0.105	974255	keystroke_r	r	n/a
487.2475	0.18	974495	keystroke_i	i	n/a
487.3225	0.165	974645	keystroke_p	p	n/a
487.4425	0.135	974885	keystroke_Key.space	Key.space	n/a
487.8325	0.09	975665	keystroke_u	u	n/a
488.073	0.105	976146	keystroke_n	n	n/a
488.118	0.165	976236	keystroke_i	i	n/a
488.403	0.135	976806	keystroke_v	v	n/a
488.627	0.12	977254	keystroke_Key.space	Key.space	n/a
489.033	0.12	978066	keystroke_r	r	n/a
489.138	0.105	978276	keystroke_a	a	n/a
489.363	0.12	978726	keystroke_d	d	n/a
489.723	0.09	979446	keystroke_Key.backspace	Key.backspace	n/a
489.828	0.075	979656	keystroke_b	b	n/a
490.008	0.074	980016	keystroke_b	b	n/a
490.097	0.121	980194	keystroke_i	i	n/a
490.232	0.12	980464	keystroke_t	t	n/a
490.472	0.105	980944	keystroke_Key.enter	Key.enter	n/a
490.585	11.1545	981170	prompt	n/a	sociology hardwood chrysler turns\n
491.313	0.089	982626	keystroke_s	s	n/a
491.403	0.104	982806	keystroke_o	o	n/a
491.538	0.1345	983076	keystroke_c	c	n/a
491.6725	0.105	983345	keystroke_i	i	n/a
492.092	0.075	984184	keystroke_o	o	n/a
492.287	0.09	984574	keystroke_l	l	n/a
492.482	0.105	984964	keystroke_o	o	n/a
492.827	0.1055	985654	keystroke_g	g	n/a
492.947	0.15	985894	keystroke_y	y	n/a
493.037	0.135	986074	keystroke_Key.space	Key.space	n/a
493.307	0.09	986614	keystroke_h	h	n/a
493.442	0.135	986884	keystroke_a	a	n/a
493.503	0.089	987006	keystroke_r	r	n/a
493.697	0.105	987394	keystroke_d	d	n/a
493.982	0.1205	987964	keystroke_w	w	n/a
494.0875	0.075	988175	keystroke_o	o	n/a
494.2375	0.135	988475	keystroke_o	o	n/a
494.3425	0.105	988685	keystroke_d	d	n/a
494.4625	0.12	988925	keystroke_Key.space	Key.space	n/a
494.8525	0.105	989705	keystroke_c	c	n/a
494.9425	0.135	989885	keystroke_h	h	n/a
495.1225	0.105	990245	keystroke_r	r	n/a
495.4525	0.09	990905	keystroke_y	y	n/a
495.6625	0.12	991325	keystroke_s	s	n/a
495.8425	0.105	991685	keystroke_t	t	n/a
496.2925	0.135	992585	keystroke_l	l	n/a
496.5025	0.105	993005	keystroke_e	e	n/a
496.5925	0.135	993185	keystroke_r	r	n/a
497.4925	0.075	994985	keystroke_Key.backspace	Key.backspace	n/a
497.6575	0.075	995315	keystroke_Key.backspace	Key.backspace	n/a
497.8075	0.12	995615	keystroke_Key.backspace	Key.backspace	n/a
498.423	0.075	996846	keystroke_Key.backspace	Key.backspace	n/a
498.663	0.12	997326	keystroke_l	l	n/a
498.828	0.09	997656	keystroke_e	e	n/a
498.873	0.1345	997746	keystroke_r	r	n/a
498.993	0.1495	997986	keystroke_Key.space	Key.space	n/a
499.2625	0.12	998525	keystroke_t	t	n/a
499.3825	0.075	998765	keystroke_h	h	n/a
499.6675	0.105	999335	keystroke_Key.backspace	Key.backspace	n/a
499.8925	0.075	999785	keystroke_u	u	n/a
500.0125	0.1345	1000025	keystroke_r	r	n/a
500.177	0.12	1000354	keystroke_n	n	n/a
500.432	0.15	1000864	keystroke_s	s	n/a
501.512	0.226	1003024	keystroke_Key.enter	Key.enter	n/a
501.7455	9.6085	1003491	prompt	n/a	oxygen inform similarly continues\n
502.727	0.12	1005454	keystroke_o	o	n/a
502.938	0.1495	1005876	keystroke_x	x	n/a
503.1775	0.105	1006355	keystroke_y	y	n/a
503.6725	0.15	1007345	keystroke_g	g	n/a
503.8075	0.136	1007615	keystroke_e	e	n/a
503.9875	0.15	1007975	keystroke_n	n	n/a
504.2125	0.135	1008425	keystroke_Key.space	Key.space	n/a
504.467	0.1805	1008934	keystroke_i	i	n/a
504.5725	0.121	1009145	keystroke_n	n	n/a
504.6775	0.09	1009355	keystroke_f	f	n/a
504.7825	0.135	1009565	keystroke_o	o	n/a
504.9025	0.105	1009805	keystroke_r	r	n/a
504.9925	0.15	1009985	keystroke_m	m	n/a
505.0975	0.135	1010195	keystroke_Key.space	Key.space	n/a
505.3375	0.12	1010675	keystroke_i	i	n/a
505.6825	0.09	1011365	keystroke_Key.backspace	Key.backspace	n/a
505.7725	0.165	1011545	keystroke_s	s	n/a
505.9225	0.105	1011845	keystroke_i	i	n/a
505.9975	0.1655	1011995	keystroke_m	m	n/a
506.1325	0.1505	1012265	keystroke_i	i	n/a
506.5975	0.135	1013195	keystroke_l	l	n/a
506.7475	0.12	1013495	keystroke_a	a	n/a
506.8225	0.135	1013645	keystroke_r	r	n/a
507.0025	0.135	1014005	keystroke_y	y	n/a
507.3475	0.015	1014695	keystroke_t	t	n/a
507.7375	0.06	1015475	keystroke_Key.backspace	Key.backspace	n/a
507.8725	0.105	1015745	keystroke_Key.backspace	Key.backspace	n/a
508.1425	0.1955	1016285	keystroke_l	l	n/a
508.263	0.165	1016526	keystroke_y	y	n/a
508.353	0.164	1016706	keystroke_Key.space	Key.space	n/a
509.793	0.135	1019586	keystroke_c	c	n/a
509.868	0.135	1019736	keystroke_o	o	n/a
509.943	0.12	1019886	keystroke_n	n	n/a
510.123	0.09	1020246	keystroke_t	t	n/a
510.198	0.149	1020396	keystroke_i	i	n/a
510.317	0.12	1020634	keystroke_n	n	n/a
510.557	0.09	1021114	keystroke_u	u	n/a
510.902	0.1655	1021804	keystroke_e	e	n/a
511.038	0.1495	1022076	keystroke_s	s	n/a
511.2175	0.135	1022435	keystroke_Key.enter	Key.enter	n/a
511.359	7.66	1022718	prompt	n/a	dealer apparent learners switching\n
512.118	0.044	1024236	keystroke_d	d	n/a
512.2675	0.09	1024535	keystroke_e	e	n/a
512.3425	0.105	1024685	keystroke_a	a	n/a
512.4625	0.24	1024925	keystroke_l	l	n/a
512.8075	0.12	1025615	keystroke_e	e	n/a
512.8975	0.18	1025795	keystroke_r	r	n/a
513.1975	0.15	1026395	keystroke_Key.space	Key.space	n/a
513.5275	0.12	1027055	keystroke_a	a	n/a
513.6625	0.06	1027325	keystroke_p	p	n/a
513.8125	0.12	1027625	keystroke_p	p	n/a
513.9775	0.135	1027955	keystroke_a	a	n/a
514.0825	0.12	1028165	keystroke_r	r	n/a
514.4125	0.105	1028825	keystroke_e	e	n/a
514.5625	0.105	1029125	keystroke_n	n	n/a
514.6685	0.104	1029337	keystroke_t	t	n/a
514.8325	0.135	1029665	keystroke_Key.space	Key.space	n/a
515.1925	0.09	1030385	keystroke_l	l	n/a
515.2675	0.135	1030535	keystroke_e	e	n/a
515.3875	0.12	1030775	keystroke_a	a	n/a
515.4925	0.105	1030985	keystroke_r	r	n/a
515.6125	0.135	1031225	keystroke_n	n	n/a
515.7325	0.135	1031465	keystroke_e	e	n/a
515.8525	0.12	1031705	keystroke_r	r	n/a
515.9875	0.105	1031975	keystroke_s	s	n/a
516.1675	0.12	1032335	keystroke_Key.space	Key.space	n/a
516.4975	0.0895	1032995	keystroke_s	s	n/a
516.752	0.106	1033504	keystroke_w	w	n/a
516.962	0.135	1033924	keystroke_t	t	n/a
517.082	0.105	1034164	keystroke_i	i	n/a
517.607	0.09	1035214	keystroke_Key.backspace	Key.backspace	n/a
517.787	0.075	1035574	keystroke_Key.backspace	Key.backspace	n/a
517.967	0.105	1035934	keystroke_i	i	n/a
518.073	0.074	1036146	keystroke_t	t	n/a
518.2975	0.12	1036595	keystroke_c	c	n/a
518.4025	0.12	1036805	keystroke_h	h	n/a
518.4775	0.195	1036955	keystroke_i	i	n/a
518.6125	0.15	1037225	keystroke_n	n	n/a
518.7325	0.105	1037465	keystroke_g	g	n/a
518.9125	0.105	1037825	keystroke_Key.enter	Key.enter	n/a
519.024	7.48	1038048	prompt	n/a	repair generations copy adobe\n
519.7375	0.12	1039475	keystroke_r	r	n/a
519.8425	0.105	1039685	keystroke_e	e	n/a
519.9325	0.105	1039865	keystroke_p	p	n/a
520.1275	0.075	1040255	keystroke_a	a	n/a
520.218	0.105	1040436	keystroke_i	i	n/a
520.578	0.119	1041156	keystroke_r	r	n/a
520.772	0.15	1041544	keystroke_Key.space	Key.space	n/a
521.418	0.12	1042836	keystroke_g	g	n/a
521.523	0.0895	1043046	keystroke_e	e	n/a
521.5975	0.135	1043195	keystroke_n	n	n/a
521.7325	0.12	1043465	keystroke_e	e	n/a
521.8975	0.12	1043795	keystroke_r	r	n/a
522.617	0.166	1045234	keystroke_a	a	n/a
522.843	0.119	1045686	keystroke_t	t	n/a
523.067	0.105	1046134	keystroke_i	i	n/a
523.142	0.21	1046284	keystroke_o	o	n/a
523.232	0.165	1046464	keystroke_n	n	n/a
523.367	0.121	1046734	keystroke_s	s	n/a
523.532	0.135	1047064	keystroke_Key.space	Key.space	n/a
523.892	0.15	1047784	keystroke_c	c	n/a
523.982	0.12	1047964	keystroke_o	o	n/a
524.072	0.136	1048144	keystroke_p	p	n/a
524.177	0.165	1048354	keystroke_y	y	n/a
524.267	0.135	1048534	keystroke_Key.space	Key.space	n/a
524.432	0.09	1048864	keystroke_a	a	n/a
524.597	0.121	1049194	keystroke_d	d	n/a
525.197	0.105	1050394	keystroke_b	b	n/a
525.317	0.165	1050634	keystroke_o	o	n/a
525.662	0.075	1051324	keystroke_Key.backspace	Key.backspace	n/a
525.782	0.09	1051564	keystroke_Key.backspace	Key.backspace	n/a
526.007	0.105	1052014	keystroke_o	o	n/a
526.082	0.106	1052164	keystroke_b	b	n/a
526.202	0.165	1052404	keystroke_e	e	n/a
526.382	0.12	1052764	keystroke_Key.enter	Key.enter	n/a
526.5085	6.3855	1053017	prompt	n/a	summaries combinations motel icons\n
527.253	0.1345	1054506	keystroke_s	s	n/a
527.343	0.09	1054686	keystroke_u	u	n/a
527.5825	0.06	1055165	keystroke_m	m	n/a
527.7175	0.09	1055435	keystroke_m	m	n/a
527.8225	0.105	1055645	keystroke_a	a	n/a
527.883	0.1195	1055766	keystroke_r	r	n/a
528.0175	0.135	1056035	keystroke_i	i	n/a
528.1675	0.1345	1056335	keystroke_e	e	n/a
528.303	0.149	1056606	keystroke_s	s	n/a
528.542	0.15	1057084	keystroke_Key.space	Key.space	n/a
529.007	0.135	1058014	keystroke_c	c	n/a
529.052	0.15	1058104	keystroke_o	o	n/a
529.157	0.135	1058314	keystroke_m	m	n/a
529.413	0.104	1058826	keystroke_b	b	n/a
529.697	0.12	1059394	keystroke_i	i	n/a
530.028	0.119	1060056	keystroke_n	n	n/a
530.192	0.105	1060384	keystroke_a	a	n/a
530.268	0.089	1060536	keystroke_t	t	n/a
530.342	0.12	1060684	keystroke_i	i	n/a
530.432	0.165	1060864	keystroke_o	o	n/a
530.507	0.15	1061014	keystroke_n	n	n/a
530.567	0.12	1061134	keystroke_s	s	n/a
530.732	0.12	1061464	keystroke_Key.space	Key.space	n/a
531.0625	0.1195	1062125	keystroke_m	m	n/a
531.137	0.15	1062274	keystroke_o	o	n/a
531.272	0.135	1062544	keystroke_t	t	n/a
531.362	0.15	1062724	keystroke_e	e	n/a
531.527	0.165	1063054	keystroke_l	l	n/a
531.617	0.121	1063234	keystroke_Key.space	Key.space	n/a
531.932	0.135	1063864	keystroke_i	i	n/a
532.082	0.15	1064164	keystroke_c	c	n/a
532.248	0.149	1064496	keystroke_o	o	n/a
532.352	0.15	1064704	keystroke_n	n	n/a
532.532	0.15	1065064	keystroke_s	s	n/a
532.772	0.12	1065544	keystroke_Key.enter	Key.enter	n/a
532.899	14.3945	1065798	prompt	n/a	arabic reasoning davidson politicians\n
533.612	0.09	1067224	keystroke_a	a	n/a
533.852	0.12	1067704	keystroke_r	r	n/a
533.987	0.12	1067974	keystroke_a	a	n/a
534.197	0.1205	1068394	keystroke_b	b	n/a
534.3625	0.12	1068725	keystroke_i	i	n/a
534.7075	0.0145	1069415	keystroke_c	c	n/a
534.737	0.15	1069474	keystroke_Key.space	Key.space	n/a
535.2925	0.12	1070585	keystroke_r	r	n/a
535.3825	0.12	1070765	keystroke_e	e	n/a
535.4575	0.12	1070915	keystroke_a	a	n/a
535.6375	0.12	1071275	keystroke_s	s	n/a
535.8025	0.15	1071605	keystroke_o	o	n/a
535.8925	0.195	1071785	keystroke_n	n	n/a
536.2225	0.1655	1072445	keystroke_a	a	n/a
536.373	0.12	1072746	keystroke_l	l	n/a
536.6725	0.075	1073345	keystroke_Key.backspace	Key.backspace	n/a
536.8075	0.105	1073615	keystroke_Key.backspace	Key.backspace	n/a
537.048	0.134	1074096	keystroke_i	i	n/a
537.137	0.12	1074274	keystroke_n	n	n/a
537.227	0.105	1074454	keystroke_g	g	n/a
537.362	0.165	1074724	keystroke_Key.space	Key.space	n/a
537.633	0.134	1075266	keystroke_a	a	n/a
538.037	0.105	1076074	keystroke_Key.backspace	Key.backspace	n/a
538.157	0.135	1076314	keystroke_d	d	n/a
538.232	0.1355	1076464	keystroke_a	a	n/a
538.5775	0.165	1077155	keystroke_v	v	n/a
538.7725	0.135	1077545	keystroke_i	i	n/a
539.0725	0.15	1078145	keystroke_d	d	n/a
539.9875	0.135	1079975	keystroke_s	s	n/a
540.1375	0.135	1080275	keystroke_o	o	n/a
540.2125	0.18	1080425	keystroke_n	n	n/a
540.3475	0.179	1080695	keystroke_Key.space	Key.space	n/a
540.7675	0.18	1081535	keystroke_p	p	n/a
540.9175	0.105	1081835	keystroke_o	o	n/a
541.4725	0.195	1082945	keystroke_l	l	n/a
541.6225	0.195	1083245	keystroke_i	i	n/a
542.7025	0.105	1085405	keystroke_t	t	n/a
542.8375	0.12	1085675	keystroke_i	i	n/a
543.9475	0.135	1087895	keystroke_c	c	n/a
544.0975	0.075	1088195	keystroke_i	i	n/a
544.2025	0.1495	1088405	keystroke_a	a	n/a
544.337	0.135	1088674	keystroke_n	n	n/a
544.487	0.135	1088974	keystroke_s	s	n/a
547.266	0.026	1094532	keystroke_Key.enter	Key.enter	n/a
547.302	6.562	1094604	prompt	n/a	surgical directly regulations reno\n
548.028	0.134	1096056	keystroke_s	s	n/a
548.147	0.105	1096294	keystroke_u	u	n/a
548.267	0.0905	1096534	keystroke_r	r	n/a
548.5075	0.09	1097015	keystroke_g	g	n/a
548.6125	0.106	1097225	keystroke_i	i	n/a
549.2285	0.119	1098457	keystroke_c	c	n/a
