onset	duration	sample	value	key	prompt_text
2.42	15.6955	4840	prompt	n/a	the quick brown fox jumps over a lazy dog\n
6.1125	0.026	12225	keystroke_t	t	n/a
6.2135	0.06	12427	keystroke_h	h	n/a
6.3495	0.0975	12699	keystroke_e	e	n/a
6.477	0.0895	12954	keystroke_Key.space	Key.space	n/a
7.2115	0.09	14423	keystroke_q	q	n/a
7.3615	0.075	14723	keystroke_u	u	n/a
7.5115	0.105	15023	keystroke_i	i	n/a
7.6765	0.1045	15353	keystroke_c	c	n/a
7.826	0.0905	15652	keystroke_k	k	n/a
8.4555	0.06	16911	keystroke_Key.space	Key.space	n/a
9.2795	0.06	18559	keystroke_b	b	n/a
9.5345	0.09	19069	keystroke_r	r	n/a
9.6695	0.09	19339	keystroke_o	o	n/a
9.774	0.09	19548	keystroke_w	w	n/a
9.9245	0.075	19849	keystroke_n	n	n/a
10.1345	0.075	20269	keystroke_Key.space	Key.space	n/a
10.314	0.0905	20628	keystroke_f	f	n/a
10.389	0.1055	20778	keystroke_o	o	n/a
11.619	0.045	23238	keystroke_x	x	n/a
11.979	0.06	23958	keystroke_Key.space	Key.space	n/a
12.3835	0.075	24767	keystroke_j	j	n/a
12.5635	0.075	25127	keystroke_u	u	n/a
12.758	0.075	25516	keystroke_m	m	n/a
12.908	0.091	25816	keystroke_p	p	n/a
13.073	0.091	26146	keystroke_s	s	n/a
13.178	0.06	26356	keystroke_Key.space	Key.space	n/a
13.343	0.0905	26686	keystroke_o	o	n/a
13.5085	0.1045	27017	keystroke_v	v	n/a
13.718	0.15	27436	keystroke_e	e	n/a
13.808	0.075	27616	keystroke_r	r	n/a
13.958	0.091	27916	keystroke_Key.space	Key.space	n/a
14.094	0.0745	28188	keystroke_t	t	n/a
14.2135	0.075	28427	keystroke_h	h	n/a
14.3035	0.09	28607	keystroke_e	e	n/a
14.4535	0.0905	28907	keystroke_Key.space	Key.space	n/a
14.814	0.075	29628	keystroke_l	l	n/a
14.9335	0.1205	29867	keystroke_a	a	n/a
16.0135	0.075	32027	keystroke_z	z	n/a
16.2985	0.045	32597	keystroke_y	y	n/a
16.523	0.0605	33046	keystroke_Key.space	Key.space	n/a
16.703	0.12	33406	keystroke_d	d	n/a
16.793	0.09	33586	keystroke_o	o	n/a
17.003	0.09	34006	keystroke_g	g	n/a
18.0525	0.061	36105	keystroke_Key.enter	Key.enter	n/a
18.12	11.4685	36240	prompt	n/a	earning teeth automation hartford\n
19.148	0.105	38296	keystroke_e	e	n/a
19.358	0.1495	38716	keystroke_a	a	n/a
19.5375	0.0905	39075	keystroke_r	r	n/a
19.733	0.075	39466	keystroke_n	n	n/a
19.868	0.135	39736	keystroke_i	i	n/a
19.988	0.0745	39976	keystroke_n	n	n/a
20.108	0.075	40216	keystroke_g	g	n/a
20.2575	0.075	40515	keystroke_Key.space	Key.space	n/a
21.502	0.09	43004	keystroke_t	t	n/a
21.727	0.06	43454	keystroke_e	e	n/a
21.862	0.105	43724	keystroke_e	e	n/a
22.012	0.09	44024	keystroke_t	t	n/a
22.117	0.076	44234	keystroke_h	h	n/a
22.3275	0.075	44655	keystroke_Key.space	Key.space	n/a
22.552	0.1055	45104	keystroke_a	a	n/a
22.7325	0.09	45465	keystroke_u	u	n/a
23.1525	0.105	46305	keystroke_t	t	n/a
23.3475	0.075	46695	keystroke_o	o	n/a
23.662	0.0755	47324	keystroke_m	m	n/a
23.7975	0.1195	47595	keystroke_a	a	n/a
23.947	0.12	47894	keystroke_t	t	n/a
24.022	0.12	48044	keystroke_i	i	n/a
24.097	0.135	48194	keystroke_o	o	n/a
24.202	0.09	48404	keystroke_n	n	n/a
24.757	0.075	49514	keystroke_Key.space	Key.space	n/a
25.2075	0.075	50415	keystroke_h	h	n/a
25.3725	0.12	50745	keystroke_a	a	n/a
25.5225	0.105	51045	keystroke_r	r	n/a
25.7925	0.0445	51585	keystroke_t	t	n/a
26.107	0.03	52214	keystroke_f	f	n/a
26.7375	0.0895	53475	keystroke_o	o	n/a
26.932	0.075	53864	keystroke_d	d	n/a
28.147	0.0755	56294	keystroke_Key.backspace	Key.backspace	n/a
28.402	0.09	56804	keystroke_r	r	n/a
28.642	0.0905	57284	keystroke_d	d	n/a
29.527	0.06	59054	keystroke_Key.enter	Key.enter	n/a
29.5915	8.832	59183	prompt	n/a	reflect feed projected difficult\n
31.492	0.075	62984	keystroke_r	r	n/a
31.522	0.105	63044	keystroke_e	e	n/a
31.7925	0.0895	63585	keystroke_f	f	n/a
31.927	0.09	63854	keystroke_l	l	n/a
32.047	0.06	64094	keystroke_e	e	n/a
32.227	0.12	64454	keystroke_c	c	n/a
32.512	0.075	65024	keystroke_t	t	n/a
32.662	0.0595	65324	keystroke_Key.space	Key.space	n/a
33.1265	0.075	66253	keystroke_f	f	n/a
33.367	0.045	66734	keystroke_e	e	n/a
33.487	0.06	66974	keystroke_e	e	n/a
33.6515	0.12	67303	keystroke_d	d	n/a
33.802	0.075	67604	keystroke_Key.space	Key.space	n/a
33.9965	0.09	67993	keystroke_p	p	n/a
34.1315	0.09	68263	keystroke_r	r	n/a
34.2365	0.1055	68473	keystroke_o	o	n/a
34.507	0.075	69014	keystroke_j	j	n/a
34.627	0.0895	69254	keystroke_e	e	n/a
34.807	0.105	69614	keystroke_c	c	n/a
35.092	0.1045	70184	keystroke_t	t	n/a
35.2565	0.0905	70513	keystroke_e	e	n/a
35.452	0.105	70904	keystroke_d	d	n/a
35.6465	0.06	71293	keystroke_Key.space	Key.space	n/a
36.067	0.075	72134	keystroke_d	d	n/a
36.2615	0.0755	72523	keystroke_i	i	n/a
36.5165	0.045	73033	keystroke_f	f	n/a
36.6365	0.06	73273	keystroke_f	f	n/a
36.7715	0.09	73543	keystroke_i	i	n/a
37.0565	0.09	74113	keystroke_c	c	n/a
37.2215	0.075	74443	keystroke_u	u	n/a
37.3865	0.09	74773	keystroke_l	l	n/a
37.5215	0.09	75043	keystroke_t	t	n/a
38.362	0.06	76724	keystroke_Key.enter	Key.enter	n/a
38.428	10.9745	76856	prompt	n/a	numerical kinda generous light\n
39.3965	0.075	78793	keystroke_n	n	n/a
40.1315	0.06	80263	keystroke_u	u	n/a
40.3865	0.09	80773	keystroke_m	m	n/a
40.6565	0.135	81313	keystroke_e	e	n/a
40.7315	0.0895	81463	keystroke_r	r	n/a
40.9265	0.09	81853	keystroke_i	i	n/a
41.181	0.075	82362	keystroke_c	c	n/a
41.331	0.135	82662	keystroke_a	a	n/a
41.451	0.075	82902	keystroke_l	l	n/a
41.661	0.06	83322	keystroke_Key.space	Key.space	n/a
41.856	0.075	83712	keystroke_k	k	n/a
42.036	0.09	84072	keystroke_i	i	n/a
42.141	0.075	84282	keystroke_n	n	n/a
42.261	0.15	84522	keystroke_d	d	n/a
42.501	0.105	85002	keystroke_a	a	n/a
42.981	0.06	85962	keystroke_Key.space	Key.space	n/a
45.833	0.028	91666	keystroke_g	g	n/a
46.056	0.075	92112	keystroke_e	e	n/a
46.281	0.075	92562	keystroke_n	n	n/a
46.491	0.135	92982	keystroke_e	e	n/a
46.551	0.105	93102	keystroke_r	r	n/a
46.971	0.12	93942	keystroke_o	o	n/a
47.046	0.105	94092	keystroke_u	u	n/a
47.256	0.105	94512	keystroke_s	s	n/a
47.811	0.075	95622	keystroke_Key.space	Key.space	n/a
47.991	0.09	95982	keystroke_l	l	n/a
48.171	0.075	96342	keystroke_i	i	n/a
48.276	0.075	96552	keystroke_g	g	n/a
48.411	0.075	96822	keystroke_h	h	n/a
48.531	0.09	97062	keystroke_t	t	n/a
49.341	0.06	98682	keystroke_Key.enter	Key.enter	n/a
49.4055	8.052	98811	prompt	n/a	elite gabriel tension posted\n
50.286	0.075	100572	keystroke_e	e	n/a
50.406	0.09	100812	keystroke_l	l	n/a
50.6165	0.075	101233	keystroke_i	i	n/a
50.8565	0.1045	101713	keystroke_t	t	n/a
51.021	0.09	102042	keystroke_e	e	n/a
51.456	0.075	102912	keystroke_Key.space	Key.space	n/a
51.906	0.06	103812	keystroke_g	g	n/a
52.071	0.135	104142	keystroke_a	a	n/a
52.491	0.075	104982	keystroke_b	b	n/a
52.731	0.06	105462	keystroke_r	r	n/a
52.821	0.09	105642	keystroke_i	i	n/a
53.031	0.075	106062	keystroke_e	e	n/a
53.166	0.06	106332	keystroke_l	l	n/a
53.361	0.06	106722	keystroke_Key.space	Key.space	n/a
53.751	0.165	107502	keystroke_t	t	n/a
53.976	0.105	107952	keystroke_e	e	n/a
54.186	0.075	108372	keystroke_n	n	n/a
54.801	0.09	109602	keystroke_s	s	n/a
54.936	0.105	109872	keystroke_i	i	n/a
55.056	0.105	110112	keystroke_o	o	n/a
55.101	0.09	110202	keystroke_n	n	n/a
55.416	0.06	110832	keystroke_Key.space	Key.space	n/a
55.611	0.075	111222	keystroke_p	p	n/a
55.806	0.09	111612	keystroke_o	o	n/a
55.941	0.12	111882	keystroke_s	s	n/a
56.121	0.105	112242	keystroke_t	t	n/a
56.256	0.075	112512	keystroke_e	e	n/a
56.496	0.105	112992	keystroke_d	d	n/a
57.396	0.06	114792	keystroke_Key.enter	Key.enter	n/a
57.462	9.281	114924	prompt	n/a	gains period amount measure\n
58.4755	0.06	116951	keystroke_h	h	n/a
58.656	0.12	117312	keystroke_a	a	n/a
59.256	0.06	118512	keystroke_Key.backspace	Key.backspace	n/a
59.4205	0.075	118841	keystroke_Key.backspace	Key.backspace	n/a
59.6455	0.0755	119291	keystroke_g	g	n/a
59.916	0.105	119832	keystroke_a	a	n/a
60.051	0.15	120102	keystroke_i	i	n/a
60.216	0.06	120432	keystroke_n	n	n/a
60.7105	0.0755	121421	keystroke_s	s	n/a
60.906	0.06	121812	keystroke_Key.space	Key.space	n/a
61.1305	0.0905	122261	keystroke_p	p	n/a
61.236	0.12	122472	keystroke_e	e	n/a
61.311	0.09	122622	keystroke_r	r	n/a
61.491	0.09	122982	keystroke_i	i	n/a
61.731	0.1045	123462	keystroke_o	o	n/a
61.9255	0.075	123851	keystroke_d	d	n/a
62.1505	0.06	124301	keystroke_Key.space	Key.space	n/a
62.6455	0.075	125291	keystroke_a	a	n/a
62.7355	0.0905	125471	keystroke_m	m	n/a
62.9455	0.12	125891	keystroke_o	o	n/a
63.0205	0.105	126041	keystroke_u	u	n/a
63.261	0.075	126522	keystroke_n	n	n/a
63.396	0.09	126792	keystroke_t	t	n/a
63.636	0.06	127272	keystroke_Key.space	Key.space	n/a
64.116	0.06	128232	keystroke_m	m	n/a
64.296	0.09	128592	keystroke_e	e	n/a
64.461	0.105	128922	keystroke_a	a	n/a
64.626	0.075	129252	keystroke_d	d	n/a
65.136	0.06	130272	keystroke_Key.backspace	Key.backspace	n/a
65.406	0.09	130812	keystroke_s	s	n/a
65.646	0.06	131292	keystroke_u	u	n/a
65.766	0.09	131532	keystroke_r	r	n/a
65.811	0.105	131622	keystroke_e	e	n/a
66.681	0.06	133362	keystroke_Key.enter	Key.enter	n/a
66.7475	9.2505	133495	prompt	n/a	deaf wheat avatar toll\n
67.491	0.075	134982	keystroke_d	d	n/a
67.671	0.09	135342	keystroke_e	e	n/a
67.806	0.105	135612	keystroke_a	a	n/a
68.121	0.075	136242	keystroke_f	f	n/a
68.346	0.045	136692	keystroke_Key.space	Key.space	n/a
68.886	0.075	137772	keystroke_w	w	n/a
69.036	0.09	138072	keystroke_h	h	n/a
69.171	0.09	138342	keystroke_e	e	n/a
69.876	0.12	139752	keystroke_a	a	n/a
70.056	0.12	140112	keystroke_t	t	n/a
70.371	0.075	140742	keystroke_Key.space	Key.space	n/a
70.656	0.135	141312	keystroke_a	a	n/a
70.836	0.15	141672	keystroke_v	v	n/a
71.001	0.135	142002	keystroke_a	a	n/a
71.211	0.12	142422	keystroke_t	t	n/a
71.391	0.105	142782	keystroke_o	o	n/a
71.511	0.075	143022	keystroke_r	r	n/a
72.906	0.09	145812	keystroke_Key.backspace	Key.backspace	n/a
73.116	0.075	146232	keystroke_Key.backspace	Key.backspace	n/a
73.356	0.135	146712	keystroke_a	a	n/a
73.8815	0.06	147763	keystroke_r	r	n/a
74.3465	0.06	148693	keystroke_Key.space	Key.space	n/a
74.647	0.075	149294	keystroke_t	t	n/a
74.7965	0.075	149593	keystroke_o	o	n/a
75.0215	0.075	150043	keystroke_l	l	n/a
75.1715	0.0745	150343	keystroke_l	l	n/a
75.936	0.06	151872	keystroke_Key.enter	Key.enter	n/a
76.004	19.3285	152008	prompt	n/a	tours currencies wonderful filters\n
76.9565	0.075	153913	keystroke_t	t	n/a
77.0765	0.135	154153	keystroke_o	o	n/a
77.1515	0.105	154303	keystroke_u	u	n/a
77.301	0.105	154602	keystroke_r	r	n/a
77.511	0.105	155022	keystroke_s	s	n/a
77.691	0.06	155382	keystroke_Key.space	Key.space	n/a
77.826	0.105	155652	keystroke_c	c	n/a
78.021	0.075	156042	keystroke_o	o	n/a
78.051	0.0905	156102	keystroke_u	u	n/a
78.261	0.105	156522	keystroke_r	r	n/a
78.516	0.06	157032	keystroke_r	r	n/a
79.536	0.075	159072	keystroke_Key.backspace	Key.backspace	n/a
79.686	0.075	159372	keystroke_Key.backspace	Key.backspace	n/a
79.866	0.075	159732	keystroke_Key.backspace	Key.backspace	n/a
80.151	0.06	160302	keystroke_Key.backspace	Key.backspace	n/a
80.661	0.06	161322	keystroke_u	u	n/a
80.871	0.075	161742	keystroke_r	r	n/a
81.021	0.06	162042	keystroke_r	r	n/a
82.431	0.06	164862	keystroke_e	e	n/a
82.686	0.06	165372	keystroke_n	n	n/a
82.911	0.09	165822	keystroke_c	c	n/a
83.121	0.09	166242	keystroke_i	i	n/a
83.376	0.105	166752	keystroke_e	e	n/a
83.586	0.12	167172	keystroke_s	s	n/a
83.886	0.06	167772	keystroke_Key.space	Key.space	n/a
84.591	0.075	169182	keystroke_w	w	n/a
84.996	0.075	169992	keystroke_o	o	n/a
85.221	0.075	170442	keystroke_n	n	n/a
85.596	0.135	171192	keystroke_e	e	n/a
86.106	0.075	172212	keystroke_Key.backspace	Key.backspace	n/a
86.211	0.09	172422	keystroke_d	d	n/a
86.496	0.15	172992	keystroke_r	r	n/a
86.931	0.09	173862	keystroke_Key.backspace	Key.backspace	n/a
87.006	0.15	174012	keystroke_e	e	n/a
87.111	0.075	174222	keystroke_r	r	n/a
87.546	0.06	175092	keystroke_u	u	n/a
87.936	0.075	175872	keystroke_Key.backspace	Key.backspace	n/a
88.027	0.089	176054	keystroke_f	f	n/a
88.176	0.09	176352	keystroke_u	u	n/a
88.401	0.09	176802	keystroke_l	l	n/a
89.496	0.06	178992	keystroke_f	f	n/a
89.616	0.09	179232	keystroke_i	i	n/a
89.811	0.09	179622	keystroke_l	l	n/a
90.036	0.075	180072	keystroke_t	t	n/a
90.666	0.06	181332	keystroke_Key.backspace	Key.backspace	n/a
90.846	0.075	181692	keystroke_Key.backspace	Key.backspace	n/a
91.311	0.075	182622	keystroke_Key.backspace	Key.backspace	n/a
92.136	0.09	184272	keystroke_Key.backspace	Key.backspace	n/a
92.526	0.06	185052	keystroke_Key.space	Key.space	n/a
93.261	0.06	186522	keystroke_f	f	n/a
93.606	0.075	187212	keystroke_i	i	n/a
93.816	0.09	187632	keystroke_l	l	n/a
94.101	0.075	188202	keystroke_t	t	n/a
94.236	0.15	188472	keystroke_e	e	n/a
94.326	0.151	188652	keystroke_r	r	n/a
94.611	0.09	189222	keystroke_s	s	n/a
95.286	0.045	190572	keystroke_Key.enter	Key.enter	n/a
95.3355	9.822	190671	prompt	n/a	reload unnecessary infected roller\n
96.3055	0.09	192611	keystroke_r	r	n/a
96.3505	0.12	192701	keystroke_e	e	n/a
96.5605	0.075	193121	keystroke_l	l	n/a
96.7255	0.09	193451	keystroke_o	o	n/a
96.8305	0.135	193661	keystroke_a	a	n/a
96.9805	0.135	193961	keystroke_d	d	n/a
97.2805	0.075	194561	keystroke_Key.space	Key.space	n/a
97.776	0.105	195552	keystroke_u	u	n/a
98.0615	0.06	196123	keystroke_n	n	n/a
98.1965	0.0745	196393	keystroke_n	n	n/a
98.346	0.075	196692	keystroke_e	e	n/a
98.5565	0.12	197113	keystroke_c	c	n/a
99.322	0.044	198644	keystroke_e	e	n/a
99.741	0.075	199482	keystroke_s	s	n/a
99.891	0.075	199782	keystroke_s	s	n/a
100.101	0.12	200202	keystroke_a	a	n/a
100.326	0.12	200652	keystroke_r	r	n/a
100.551	0.075	201102	keystroke_y	y	n/a
100.776	0.09	201552	keystroke_Key.space	Key.space	n/a
101.002	0.089	202004	keystroke_i	i	n/a
101.1215	0.09	202243	keystroke_n	n	n/a
101.2715	0.09	202543	keystroke_f	f	n/a
101.7365	0.105	203473	keystroke_e	e	n/a
101.9765	0.09	203953	keystroke_c	c	n/a
102.261	0.075	204522	keystroke_t	t	n/a
102.352	0.164	204704	keystroke_e	e	n/a
102.621	0.09	205242	keystroke_d	d	n/a
103.341	0.06	206682	keystroke_Key.space	Key.space	n/a
103.641	0.09	207282	keystroke_r	r	n/a
103.791	0.09	207582	keystroke_o	o	n/a
104.061	0.075	208122	keystroke_l	l	n/a
104.197	0.075	208394	keystroke_l	l	n/a
104.332	0.135	208664	keystroke_e	e	n/a
104.407	0.104	208814	keystroke_r	r	n/a
105.097	0.059	210194	keystroke_Key.enter	Key.enter	n/a
105.161	17.6255	210322	prompt	n/a	gerald authors barbados reaching\n
106.792	0.074	213584	keystroke_g	g	n/a
106.972	0.15	213944	keystroke_e	e	n/a
107.077	0.105	214154	keystroke_r	r	n/a
107.542	0.105	215084	keystroke_a	a	n/a
107.722	0.089	215444	keystroke_l	l	n/a
108.172	0.09	216344	keystroke_d	d	n/a
108.411	0.061	216822	keystroke_Key.space	Key.space	n/a
108.727	0.105	217454	keystroke_a	a	n/a
108.937	0.06	217874	keystroke_u	u	n/a
110.2865	0.06	220573	keystroke_t	t	n/a
110.4665	0.09	220933	keystroke_h	h	n/a
110.6915	0.105	221383	keystroke_o	o	n/a
110.8715	0.075	221743	keystroke_r	r	n/a
111.0665	0.105	222133	keystroke_s	s	n/a
111.4565	0.06	222913	keystroke_Key.space	Key.space	n/a
111.9515	0.075	223903	keystroke_b	b	n/a
112.3415	0.12	224683	keystroke_a	a	n/a
112.7765	0.075	225553	keystroke_r	r	n/a
113.0915	0.075	226183	keystroke_b	b	n/a
113.3015	0.09	226603	keystroke_o	o	n/a
113.9615	0.105	227923	keystroke_Key.backspace	Key.backspace	n/a
114.1565	0.12	228313	keystroke_a	a	n/a
114.6365	0.09	229273	keystroke_d	d	n/a
114.7715	0.105	229543	keystroke_o	o	n/a
114.9215	0.09	229843	keystroke_s	s	n/a
115.2215	0.06	230443	keystroke_Key.space	Key.space	n/a
115.5065	0.105	231013	keystroke_r	r	n/a
115.5515	0.105	231103	keystroke_e	e	n/a
115.7465	0.135	231493	keystroke_a	a	n/a
115.9265	0.09	231853	keystroke_c	c	n/a
116.1065	0.06	232213	keystroke_h	h	n/a
116.3015	0.09	232603	keystroke_i	i	n/a
116.5115	0.09	233023	keystroke_n	n	n/a
116.7365	0.075	233473	keystroke_g	g	n/a
122.7845	0	245569	keystroke_Key.enter	Key.enter	n/a
122.7895	7.9285	245579	prompt	n/a	falling grad essays received\n
123.9215	0.06	247843	keystroke_f	f	n/a
124.3265	0.09	248653	keystroke_a	a	n/a
124.5515	0.075	249103	keystroke_l	l	n/a
124.6865	0.075	249373	keystroke_l	l	n/a
124.8515	0.105	249703	keystroke_i	i	n/a
124.9715	0.075	249943	keystroke_n	n	n/a
125.0765	0.075	250153	keystroke_g	g	n/a
125.2565	0.075	250513	keystroke_Key.space	Key.space	n/a
125.5715	0.09	251143	keystroke_g	g	n/a
125.7815	0.09	251563	keystroke_r	r	n/a
125.9615	0.135	251923	keystroke_a	a	n/a
126.1415	0.12	252283	keystroke_d	d	n/a
126.3065	0.0755	252613	keystroke_Key.space	Key.space	n/a
126.622	0.105	253244	keystroke_e	e	n/a
127.042	0.075	254084	keystroke_s	s	n/a
127.237	0.09	254474	keystroke_s	s	n/a
127.4765	0.105	254953	keystroke_a	a	n/a
127.6415	0.09	255283	keystroke_y	y	n/a
127.8215	0.09	255643	keystroke_s	s	n/a
128.257	0.06	256514	keystroke_Key.space	Key.space	n/a
128.5865	0.105	257173	keystroke_r	r	n/a
128.6465	0.12	257293	keystroke_e	e	n/a
128.9615	0.105	257923	keystroke_c	c	n/a
129.2015	0.045	258403	keystroke_e	e	n/a
129.3665	0.09	258733	keystroke_i	i	n/a
129.5315	0.1205	259063	keystroke_v	v	n/a
129.712	0.075	259424	keystroke_e	e	n/a
129.862	0.12	259724	keystroke_d	d	n/a
130.642	0.075	261284	keystroke_Key.enter	Key.enter	n/a
130.7215	15.2675	261443	prompt	n/a	armor verizon oughtn't christopher\n
131.482	0.105	262964	keystroke_a	a	n/a
131.662	0.075	263324	keystroke_m	m	n/a
131.857	0.09	263714	keystroke_r	r	n/a
132.472	0.075	264944	keystroke_Key.backspace	Key.backspace	n/a
132.637	0.06	265274	keystroke_Key.backspace	Key.backspace	n/a
132.832	0.09	265664	keystroke_r	r	n/a
132.997	0.075	265994	keystroke_m	m	n/a
133.192	0.075	266384	keystroke_o	o	n/a
133.342	0.075	266684	keystroke_r	r	n/a
133.537	0.06	267074	keystroke_Key.space	Key.space	n/a
133.972	0.03	267944	keystroke_v	v	n/a
134.452	0.18	268904	keystroke_e	e	n/a
134.602	0.09	269204	keystroke_r	r	n/a
135.202	0.06	270404	keystroke_i	i	n/a
135.292	0.135	270584	keystroke_z	z	n/a
135.442	0.135	270884	keystroke_o	o	n/a
135.547	0.06	271094	keystroke_n	n	n/a
136.102	0.06	272204	keystroke_Key.space	Key.space	n/a
136.432	0.12	272864	keystroke_a	a	n/a
137.362	0.105	274724	keystroke_Key.backspace	Key.backspace	n/a
137.977	0.09	275954	keystroke_o	o	n/a
138.037	0.105	276074	keystroke_u	u	n/a
138.412	0.06	276824	keystroke_g	g	n/a
138.562	0.075	277124	keystroke_h	h	n/a
138.742	0.105	277484	keystroke_t	t	n/a
139.582	0.075	279164	keystroke_n	n	n/a
139.837	0.075	279674	keystroke_'	'	n/a
141.802	0.075	283604	keystroke_t	t	n/a
142.912	0.06	285824	keystroke_Key.space	Key.space	n/a
143.167	0.135	286334	keystroke_c	c	n/a
143.317	0.09	286634	keystroke_h	h	n/a
143.512	0.09	287024	keystroke_r	r	n/a
143.647	0.09	287294	keystroke_i	i	n/a
143.842	0.135	287684	keystroke_s	s	n/a
144.127	0.075	288254	keystroke_t	t	n/a
144.367	0.09	288734	keystroke_o	o	n/a
144.607	0.09	289214	keystroke_p	p	n/a
144.817	0.09	289634	keystroke_h	h	n/a
145.012	0.195	290024	keystroke_e	e	n/a
145.102	0.135	290204	keystroke_r	r	n/a
145.927	0.06	291854	keystroke_Key.enter	Key.enter	n/a
145.9915	11.3965	291983	prompt	n/a	finland hamilton races objectives\n
146.7365	0.06	293473	keystroke_f	f	n/a
146.8565	0.09	293713	keystroke_i	i	n/a
146.9915	0.075	293983	keystroke_n	n	n/a
147.1265	0.12	294253	keystroke_l	l	n/a
147.2465	0.15	294493	keystroke_a	a	n/a
147.5465	0.075	295093	keystroke_n	n	n/a
147.6515	0.105	295303	keystroke_d	d	n/a
147.8165	0.09	295633	keystroke_Key.space	Key.space	n/a
148.1465	0.045	296293	keystroke_h	h	n/a
148.2665	0.1055	296533	keystroke_a	a	n/a
148.807	0.06	297614	keystroke_m	m	n/a
149.002	0.075	298004	keystroke_i	i	n/a
149.182	0.075	298364	keystroke_l	l	n/a
149.572	0.09	299144	keystroke_t	t	n/a
149.647	0.12	299294	keystroke_o	o	n/a
149.752	0.06	299504	keystroke_n	n	n/a
150.022	0.075	300044	keystroke_Key.space	Key.space	n/a
150.247	0.135	300494	keystroke_r	r	n/a
150.337	0.105	300674	keystroke_e	e	n/a
150.502	0.225	301004	keystroke_a	a	n/a
151.027	0.12	302054	keystroke_c	c	n/a
151.582	0.09	303164	keystroke_e	e	n/a
152.107	0.075	304214	keystroke_Key.backspace	Key.backspace	n/a
152.272	0.075	304544	keystroke_Key.backspace	Key.backspace	n/a
152.677	0.075	305354	keystroke_Key.backspace	Key.backspace	n/a
152.872	0.09	305744	keystroke_Key.backspace	Key.backspace	n/a
153.082	0.18	306164	keystroke_a	a	n/a
153.247	0.105	306494	keystroke_c	c	n/a
153.442	0.09	306884	keystroke_e	e	n/a
153.652	0.12	307304	keystroke_s	s	n/a
154.2665	0.075	308533	keystroke_Key.space	Key.space	n/a
154.8065	0.09	309613	keystroke_o	o	n/a
154.9715	0.09	309943	keystroke_b	b	n/a
155.2715	0.075	310543	keystroke_j	j	n/a
155.4965	0.09	310993	keystroke_e	e	n/a
155.6765	0.105	311353	keystroke_c	c	n/a
155.962	0.0895	311924	keystroke_t	t	n/a
156.0515	0.09	312103	keystroke_i	i	n/a
156.1715	0.15	312343	keystroke_v	v	n/a
156.3665	0.12	312733	keystroke_e	e	n/a
156.5765	0.12	313153	keystroke_s	s	n/a
157.3265	0.06	314653	keystroke_Key.enter	Key.enter	n/a
157.3905	10.1225	314781	prompt	n/a	apparel without revenue boots\n
158.1365	0.09	316273	keystroke_a	a	n/a
158.3465	0.06	316693	keystroke_p	p	n/a
158.4965	0.075	316993	keystroke_p	p	n/a
158.6765	0.09	317353	keystroke_a	a	n/a
158.812	0.18	317624	keystroke_r	r	n/a
158.947	0.1345	317894	keystroke_e	e	n/a
159.487	0.075	318974	keystroke_l	l	n/a
159.682	0.075	319364	keystroke_Key.space	Key.space	n/a
159.967	0.105	319934	keystroke_w	w	n/a
160.057	0.09	320114	keystroke_i	i	n/a
160.207	0.09	320414	keystroke_t	t	n/a
160.342	0.135	320684	keystroke_o	o	n/a
160.447	0.1195	320894	keystroke_u	u	n/a
160.792	0.06	321584	keystroke_t	t	n/a
161.2265	0.075	322453	keystroke_Key.backspace	Key.backspace	n/a
161.3915	0.075	322783	keystroke_Key.backspace	Key.backspace	n/a
161.7065	0.075	323413	keystroke_Key.backspace	Key.backspace	n/a
162.0365	0.06	324073	keystroke_h	h	n/a
162.5465	0.09	325093	keystroke_o	o	n/a
162.6065	0.09	325213	keystroke_u	u	n/a
162.7715	0.09	325543	keystroke_t	t	n/a
163.0265	0.06	326053	keystroke_Key.space	Key.space	n/a
164.2115	0.09	328423	keystroke_r	r	n/a
164.2265	0.15	328453	keystroke_e	e	n/a
164.4965	0.105	328993	keystroke_v	v	n/a
164.6765	0.09	329353	keystroke_e	e	n/a
164.8265	0.09	329653	keystroke_n	n	n/a
165.0515	0.06	330103	keystroke_u	u	n/a
165.2015	0.09	330403	keystroke_e	e	n/a
165.6365	0.06	331273	keystroke_Key.space	Key.space	n/a
166.0265	0.06	332053	keystroke_b	b	n/a
166.2365	0.06	332473	keystroke_o	o	n/a
166.3715	0.075	332743	keystroke_o	o	n/a
166.5515	0.105	333103	keystroke_t	t	n/a
166.7465	0.105	333493	keystroke_s	s	n/a
167.4515	0.06	334903	keystroke_Key.enter	Key.enter	n/a
167.516	11.8475	335032	prompt	n/a	warm subsidiaries howto inner\n
168.2915	0.075	336583	keystroke_w	w	n/a
168.4715	0.15	336943	keystroke_a	a	n/a
168.5915	0.075	337183	keystroke_m	m	n/a
168.7715	0.09	337543	keystroke_r	r	n/a
169.2515	0.09	338503	keystroke_Key.backspace	Key.backspace	n/a
169.4015	0.0905	338803	keystroke_Key.backspace	Key.backspace	n/a
169.597	0.0745	339194	keystroke_r	r	n/a
169.6865	0.075	339373	keystroke_m	m	n/a
170.1515	0.06	340303	keystroke_Key.space	Key.space	n/a
170.527	0.105	341054	keystroke_s	s	n/a
170.693	0.089	341386	keystroke_u	u	n/a
171.382	0.06	342764	keystroke_b	b	n/a
171.742	0.105	343484	keystroke_s	s	n/a
171.877	0.075	343754	keystroke_i	i	n/a
172.672	0.105	345344	keystroke_d	d	n/a
172.852	0.075	345704	keystroke_i	i	n/a
173.032	0.1795	346064	keystroke_a	a	n/a
173.332	0.15	346664	keystroke_r	r	n/a
173.587	0.075	347174	keystroke_i	i	n/a
173.7215	0.09	347443	keystroke_e	e	n/a
173.9165	0.12	347833	keystroke_s	s	n/a
174.487	0.06	348974	keystroke_Key.space	Key.space	n/a
174.907	0.06	349814	keystroke_h	h	n/a
175.567	0.09	351134	keystroke_o	o	n/a
175.762	0.135	351524	keystroke_w	w	n/a
176.5265	0.09	353053	keystroke_t	t	n/a
176.6615	0.0905	353323	keystroke_o	o	n/a
177.007	0.06	354014	keystroke_Key.space	Key.space	n/a
177.232	0.075	354464	keystroke_i	i	n/a
177.472	0.06	354944	keystroke_n	n	n/a
177.607	0.075	355214	keystroke_n	n	n/a
177.772	0.195	355544	keystroke_e	e	n/a
177.877	0.12	355754	keystroke_r	r	n/a
179.317	0.045	358634	keystroke_Key.enter	Key.enter	n/a
179.3665	15.402	358733	prompt	n/a	fifteen aluminum minolta louisville\n
180.412	0.06	360824	keystroke_f	f	n/a
180.562	0.075	361124	keystroke_i	i	n/a
181.5675	0.06	363135	keystroke_f	f	n/a
181.882	0.09	363764	keystroke_t	t	n/a
182.2725	0.1045	364545	keystroke_e	e	n/a
182.452	0.105	364904	keystroke_e	e	n/a
182.722	0.06	365444	keystroke_n	n	n/a
182.917	0.06	365834	keystroke_Key.space	Key.space	n/a
183.427	0.1055	366854	keystroke_a	a	n/a
183.6375	0.075	367275	keystroke_l	l	n/a
183.8625	0.09	367725	keystroke_u	u	n/a
184.1025	0.06	368205	keystroke_m	m	n/a
184.867	0.075	369734	keystroke_i	i	n/a
185.107	0.09	370214	keystroke_n	n	n/a
186.202	0.075	372404	keystroke_u	u	n/a
186.412	0.075	372824	keystroke_m	m	n/a
186.832	0.06	373664	keystroke_Key.space	Key.space	n/a
187.267	0.06	374534	keystroke_m	m	n/a
187.447	0.06	374894	keystroke_i	i	n/a
188.242	0.06	376484	keystroke_n	n	n/a
188.437	0.075	376874	keystroke_o	o	n/a
188.602	0.09	377204	keystroke_l	l	n/a
188.797	0.105	377594	keystroke_t	t	n/a
188.992	0.135	377984	keystroke_a	a	n/a
189.232	0.06	378464	keystroke_Key.space	Key.space	n/a
189.757	0.06	379514	keystroke_l	l	n/a
190.057	0.165	380114	keystroke_o	o	n/a
190.207	0.105	380414	keystroke_u	u	n/a
192.232	0.075	384464	keystroke_i	i	n/a
192.652	0.12	385304	keystroke_s	s	n/a
193.072	0.105	386144	keystroke_v	v	n/a
193.282	0.06	386564	keystroke_i	i	n/a
193.537	0.06	387074	keystroke_l	l	n/a
193.672	0.075	387344	keystroke_l	l	n/a
193.792	0.09	387584	keystroke_e	e	n/a
194.707	0.06	389414	keystroke_Key.enter	Key.enter	n/a
194.771	10.1525	389542	prompt	n/a	nurse wherever martial thru\n
197.665	0	395330	keystroke_n	n	n/a
197.797	0.075	395594	keystroke_u	u	n/a
197.887	0.09	395774	keystroke_r	r	n/a
198.037	0.18	396074	keystroke_s	s	n/a
198.187	0.105	396374	keystroke_e	e	n/a
198.367	0.075	396734	keystroke_Key.space	Key.space	n/a
198.742	0.09	397484	keystroke_w	w	n/a
198.892	0.06	397784	keystroke_h	h	n/a
199.657	0.09	399314	keystroke_e	e	n/a
199.7925	0.15	399585	keystroke_r	r	n/a
199.8825	0.12	399765	keystroke_e	e	n/a
200.1975	0.105	400395	keystroke_v	v	n/a
200.3925	0.195	400785	keystroke_e	e	n/a
200.5425	0.09	401085	keystroke_r	r	n/a
201.0225	0.06	402045	keystroke_Key.space	Key.space	n/a
201.2775	0.06	402555	keystroke_m	m	n/a
201.4125	0.15	402825	keystroke_a	a	n/a
201.6225	0.12	403245	keystroke_r	r	n/a
202.0425	0.075	404085	keystroke_t	t	n/a
202.1625	0.09	404325	keystroke_i	i	n/a
202.3425	0.075	404685	keystroke_a	a	n/a
202.4325	0.09	404865	keystroke_l	l	n/a
202.6275	0.075	405255	keystroke_Key.space	Key.space	n/a
202.9725	0.075	405945	keystroke_t	t	n/a
203.0625	0.075	406125	keystroke_h	h	n/a
203.753	0.075	407506	keystroke_r	r	n/a
203.993	0.09	407986	keystroke_u	u	n/a
204.863	0.06	409726	keystroke_Key.enter	Key.enter	n/a
204.9265	10.0885	409853	prompt	n/a	bouquet routines realm lesson\n
206.1395	0.075	412279	keystroke_b	b	n/a
206.3495	0.135	412699	keystroke_o	o	n/a
206.4395	0.105	412879	keystroke_u	u	n/a
208.7545	0.028	417509	keystroke_q	q	n/a
208.9025	0.06	417805	keystroke_u	u	n/a
209.0675	0.105	418135	keystroke_e	e	n/a
209.428	0.075	418856	keystroke_t	t	n/a
209.8785	0.06	419757	keystroke_Key.space	Key.space	n/a
210.254	0.06	420508	keystroke_r	r	n/a
210.389	0.12	420778	keystroke_o	o	n/a
210.494	0.075	420988	keystroke_u	u	n/a
210.674	0.0905	421348	keystroke_t	t	n/a
210.7495	0.105	421499	keystroke_i	i	n/a
210.8995	0.09	421799	keystroke_n	n	n/a
211.02	0.0745	422040	keystroke_e	e	n/a
211.245	0.105	422490	keystroke_s	s	n/a
211.56	0.06	423120	keystroke_Key.space	Key.space	n/a
211.9355	0.105	423871	keystroke_r	r	n/a
211.9805	0.105	423961	keystroke_e	e	n/a
212.1305	0.1055	424261	keystroke_a	a	n/a
212.266	0.09	424532	keystroke_l	l	n/a
212.4915	0.0895	424983	keystroke_m	m	n/a
212.7765	0.075	425553	keystroke_Key.space	Key.space	n/a
213.362	0.075	426724	keystroke_l	l	n/a
213.5575	0.075	427115	keystroke_e	e	n/a
213.8725	0.03	427745	keystroke_s	s	n/a
213.993	0.06	427986	keystroke_s	s	n/a
214.083	0.12	428166	keystroke_o	o	n/a
214.173	0.075	428346	keystroke_n	n	n/a
214.954	0.06	429908	keystroke_Key.enter	Key.enter	n/a
215.019	13.0295	430038	prompt	n/a	designers talks queue negative\n
216.0795	0.06	432159	keystroke_d	d	n/a
216.2595	0.06	432519	keystroke_e	e	n/a
216.59	0.09	433180	keystroke_s	s	n/a
217.1905	0.075	434381	keystroke_i	i	n/a
217.731	0.075	435462	keystroke_g	g	n/a
217.9415	0.06	435883	keystroke_n	n	n/a
218.3315	0.1805	436663	keystroke_e	e	n/a
218.437	0.105	436874	keystroke_r	r	n/a
218.692	0.09	437384	keystroke_s	s	n/a
218.9325	0.075	437865	keystroke_Key.space	Key.space	n/a
219.2325	0.105	438465	keystroke_t	t	n/a
219.398	0.135	438796	keystroke_a	a	n/a
219.503	0.135	439006	keystroke_l	l	n/a
219.593	0.105	439186	keystroke_k	k	n/a
220.1035	0.076	440207	keystroke_s	s	n/a
220.374	0.075	440748	keystroke_Key.space	Key.space	n/a
221.68	0.1055	443360	keystroke_q	q	n/a
221.9355	0.06	443871	keystroke_u	u	n/a
222.326	0.061	444652	keystroke_e	e	n/a
223.467	0.076	446934	keystroke_u	u	n/a
223.6025	0.09	447205	keystroke_e	e	n/a
223.9625	0.06	447925	keystroke_Key.space	Key.space	n/a
224.5635	0.075	449127	keystroke_n	n	n/a
224.7285	0.106	449457	keystroke_e	e	n/a
225.044	0.12	450088	keystroke_a	a	n/a
225.239	0.135	450478	keystroke_g	g	n/a
225.7045	0.075	451409	keystroke_Key.backspace	Key.backspace	n/a
225.8545	0.075	451709	keystroke_Key.backspace	Key.backspace	n/a
226.005	0.106	452010	keystroke_g	g	n/a
226.4555	0.12	452911	keystroke_a	a	n/a
226.8305	0.0905	453661	keystroke_t	t	n/a
226.951	0.09	453902	keystroke_i	i	n/a
227.101	0.136	454202	keystroke_v	v	n/a
227.281	0.1065	454562	keystroke_e	e	n/a
227.972	0.075	455944	keystroke_Key.enter	Key.enter	n/a
228.052	9.2165	456104	prompt	n/a	really robot manufacture suggest\n
228.814	0.119	457628	keystroke_r	r	n/a
228.889	0.104	457778	keystroke_e	e	n/a
229.219	0.1055	458438	keystroke_a	a	n/a
229.835	0.059	459670	keystroke_l	l	n/a
229.969	0.061	459938	keystroke_l	l	n/a
230.15	0.0745	460300	keystroke_y	y	n/a
230.4045	0.09	460809	keystroke_Key.space	Key.space	n/a
230.675	0.061	461350	keystroke_r	r	n/a
230.781	0.075	461562	keystroke_o	o	n/a
230.961	0.074	461922	keystroke_b	b	n/a
231.11	0.0905	462220	keystroke_o	o	n/a
231.2465	0.074	462493	keystroke_t	t	n/a
231.4405	0.076	462881	keystroke_Key.space	Key.space	n/a
231.727	0.074	463454	keystroke_m	m	n/a
231.861	0.09	463722	keystroke_a	a	n/a
232.3865	0.076	464773	keystroke_n	n	n/a
232.763	0.06	465526	keystroke_u	u	n/a
233.2285	0.09	466457	keystroke_f	f	n/a
233.3935	0.09	466787	keystroke_a	a	n/a
233.529	0.105	467058	keystroke_c	c	n/a
233.783	0.091	467566	keystroke_t	t	n/a
233.919	0.06	467838	keystroke_u	u	n/a
234.0245	0.105	468049	keystroke_r	r	n/a
234.0845	0.105	468169	keystroke_e	e	n/a
234.49	0.06	468980	keystroke_Key.space	Key.space	n/a
234.9855	0.075	469971	keystroke_s	s	n/a
235.2555	0.075	470511	keystroke_u	u	n/a
235.751	0.03	471502	keystroke_g	g	n/a
235.871	0.0605	471742	keystroke_g	g	n/a
236.0515	0.075	472103	keystroke_e	e	n/a
236.2165	0.12	472433	keystroke_s	s	n/a
236.3815	0.1055	472763	keystroke_t	t	n/a
237.2075	0.059	474415	keystroke_Key.enter	Key.enter	n/a
237.271	7.8355	474542	prompt	n/a	deny magnet climb winning\n
238.0635	0.075	476127	keystroke_d	d	n/a
238.2435	0.06	476487	keystroke_e	e	n/a
238.3935	0.0905	476787	keystroke_n	n	n/a
238.664	0.06	477328	keystroke_y	y	n/a
238.9045	0.075	477809	keystroke_Key.space	Key.space	n/a
239.1895	0.075	478379	keystroke_m	m	n/a
239.3245	0.1505	478649	keystroke_a	a	n/a
239.85	0.0455	479700	keystroke_g	g	n/a
240.0005	0.06	480001	keystroke_n	n	n/a
240.3305	0.0755	480661	keystroke_e	e	n/a
240.586	0.06	481172	keystroke_t	t	n/a
240.691	0.075	481382	keystroke_Key.space	Key.space	n/a
240.9015	0.105	481803	keystroke_c	c	n/a
241.0215	0.09	482043	keystroke_l	l	n/a
241.2015	0.105	482403	keystroke_i	i	n/a
241.382	0.105	482764	keystroke_m	m	n/a
241.667	0.075	483334	keystroke_b	b	n/a
241.9975	0.06	483995	keystroke_Key.space	Key.space	n/a
242.748	0.0905	485496	keystroke_w	w	n/a
242.8985	0.105	485797	keystroke_i	i	n/a
243.1685	0.045	486337	keystroke_n	n	n/a
243.2885	0.0755	486577	keystroke_n	n	n/a
243.454	0.09	486908	keystroke_i	i	n/a
243.589	0.03	487178	keystroke_n	n	n/a
244.1445	0.075	488289	keystroke_g	g	n/a
245.0455	0.06	490091	keystroke_Key.enter	Key.enter	n/a
245.1095	9.8305	490219	prompt	n/a	hart discrete basics heating\n
245.9615	0.075	491923	keystroke_h	h	n/a
246.1115	0.15	492223	keystroke_a	a	n/a
246.3365	0.1055	492673	keystroke_r	r	n/a
246.9525	0.06	493905	keystroke_t	t	n/a
247.2675	0.06	494535	keystroke_Key.space	Key.space	n/a
247.733	0.075	495466	keystroke_d	d	n/a
247.913	0.0755	495826	keystroke_i	i	n/a
248.3335	0.09	496667	keystroke_s	s	n/a
248.484	0.105	496968	keystroke_c	c	n/a
248.754	0.135	497508	keystroke_r	r	n/a
248.829	0.12	497658	keystroke_e	e	n/a
249.3545	0.045	498709	keystroke_t	t	n/a
249.4595	0.0905	498919	keystroke_e	e	n/a
250.045	0.0755	500090	keystroke_Key.space	Key.space	n/a
250.5255	0.06	501051	keystroke_b	b	n/a
250.661	0.15	501322	keystroke_a	a	n/a
250.931	0.09	501862	keystroke_s	s	n/a
251.126	0.0755	502252	keystroke_i	i	n/a
251.4865	0.12	502973	keystroke_c	c	n/a
251.7115	0.1205	503423	keystroke_s	s	n/a
252.162	0.06	504324	keystroke_Key.space	Key.space	n/a
252.7175	0.075	505435	keystroke_h	h	n/a
252.9275	0.1205	505855	keystroke_e	e	n/a
253.063	0.15	506126	keystroke_a	a	n/a
253.273	0.105	506546	keystroke_t	t	n/a
253.408	0.12	506816	keystroke_i	i	n/a
253.513	0.09	507026	keystroke_n	n	n/a
253.633	0.0755	507266	keystroke_g	g	n/a
254.879	0.06	509758	keystroke_Key.enter	Key.enter	n/a
254.9425	9.882	509885	prompt	n/a	finland combo opportunities camping\n
255.8845	0.06	511769	keystroke_f	f	n/a
256.1245	0.0905	512249	keystroke_i	i	n/a
256.26	0.09	512520	keystroke_n	n	n/a
256.485	0.105	512970	keystroke_l	l	n/a
256.65	0.15	513300	keystroke_a	a	n/a
256.86	0.0595	513720	keystroke_n	n	n/a
257.025	0.075	514050	keystroke_d	d	n/a
257.13	0.09	514260	keystroke_Key.space	Key.space	n/a
258.075	0.075	516150	keystroke_c	c	n/a
258.195	0.12	516390	keystroke_o	o	n/a
258.285	0.09	516570	keystroke_m	m	n/a
258.5245	0.09	517049	keystroke_b	b	n/a
258.7045	0.075	517409	keystroke_o	o	n/a
258.9745	0.06	517949	keystroke_Key.space	Key.space	n/a
259.6645	0.075	519329	keystroke_o	o	n/a
259.9195	0.06	519839	keystroke_p	p	n/a
260.069	0.06	520138	keystroke_p	p	n/a
260.354	0.075	520708	keystroke_o	o	n/a
260.759	0.045	521518	keystroke_r	r	n/a
260.924	0.0905	521848	keystroke_t	t	n/a
261.0595	0.0595	522119	keystroke_u	u	n/a
261.254	0.09	522508	keystroke_n	n	n/a
261.434	0.075	522868	keystroke_i	i	n/a
261.554	0.09	523108	keystroke_t	t	n/a
261.674	0.09	523348	keystroke_i	i	n/a
261.809	0.075	523618	keystroke_e	e	n/a
261.989	0.09	523978	keystroke_s	s	n/a
262.589	0.06	525178	keystroke_Key.space	Key.space	n/a
262.814	0.135	525628	keystroke_c	c	n/a
262.964	0.12	525928	keystroke_a	a	n/a
263.099	0.0895	526198	keystroke_m	m	n/a
263.2485	0.1205	526497	keystroke_p	p	n/a
263.669	0.09	527338	keystroke_i	i	n/a
263.804	0.105	527608	keystroke_n	n	n/a
264.059	0.06	528118	keystroke_g	g	n/a
264.7635	0.06	529527	keystroke_Key.enter	Key.enter	n/a
264.8275	10.0315	529655	prompt	n/a	bathrooms queries norman bernard\n
265.5435	0.075	531087	keystroke_b	b	n/a
265.7235	0.105	531447	keystroke_a	a	n/a
265.9035	0.105	531807	keystroke_t	t	n/a
266.0235	0.075	532047	keystroke_h	h	n/a
266.3685	0.075	532737	keystroke_r	r	n/a
266.5935	0.06	533187	keystroke_o	o	n/a
266.7435	0.0895	533487	keystroke_o	o	n/a
266.893	0.0905	533786	keystroke_m	m	n/a
267.0285	0.09	534057	keystroke_s	s	n/a
267.1785	0.075	534357	keystroke_Key.space	Key.space	n/a
267.4925	0.105	534985	keystroke_q	q	n/a
267.658	0.09	535316	keystroke_u	u	n/a
268.0625	0.0755	536125	keystroke_e	e	n/a
268.3925	0.045	536785	keystroke_r	r	n/a
268.6625	0.09	537325	keystroke_i	i	n/a
268.8425	0.06	537685	keystroke_e	e	n/a
269.1725	0.075	538345	keystroke_s	s	n/a
269.4425	0.06	538885	keystroke_Key.space	Key.space	n/a
269.7425	0.045	539485	keystroke_b	b	n/a
270.0275	0.06	540055	keystroke_o	o	n/a
270.6425	0.06	541285	keystroke_Key.backspace	Key.backspace	n/a
270.7925	0.0895	541585	keystroke_Key.backspace	Key.backspace	n/a
271.588	0.059	543176	keystroke_n	n	n/a
271.737	0.09	543474	keystroke_o	o	n/a
272.052	0.09	544104	keystroke_r	r	n/a
272.202	0.075	544404	keystroke_m	m	n/a
272.3815	0.09	544763	keystroke_a	a	n/a
272.4865	0.075	544973	keystroke_n	n	n/a
272.6965	0.06	545393	keystroke_Key.space	Key.space	n/a
272.9665	0.075	545933	keystroke_b	b	n/a
273.1615	0.12	546323	keystroke_e	e	n/a
273.2365	0.105	546473	keystroke_r	r	n/a
273.4915	0.06	546983	keystroke_n	n	n/a
273.6265	0.105	547253	keystroke_a	a	n/a
273.8515	0.12	547703	keystroke_r	r	n/a
274.0915	0.105	548183	keystroke_d	d	n/a
274.7965	0.06	549593	keystroke_Key.enter	Key.enter	n/a
274.862	8.635	549724	prompt	n/a	confirmation pale calling served\n
275.6675	0.09	551335	keystroke_c	c	n/a
275.7715	0.105	551543	keystroke_o	o	n/a
275.8775	0.0735	551755	keystroke_n	n	n/a
276.1015	0.09	552203	keystroke_f	f	n/a
276.2965	0.09	552593	keystroke_r	r	n/a
276.4015	0.075	552803	keystroke_i	i	n/a
277.122	0.06	554244	keystroke_Key.backspace	Key.backspace	n/a
277.257	0.06	554514	keystroke_Key.backspace	Key.backspace	n/a
277.7515	0.075	555503	keystroke_i	i	n/a
277.9315	0.0605	555863	keystroke_r	r	n/a
278.0965	0.075	556193	keystroke_m	m	n/a
278.2915	0.09	556583	keystroke_a	a	n/a
278.4115	0.135	556823	keystroke_t	t	n/a
278.5315	0.12	557063	keystroke_i	i	n/a
278.6365	0.12	557273	keystroke_o	o	n/a
278.7115	0.075	557423	keystroke_n	n	n/a
279.1315	0.06	558263	keystroke_Key.space	Key.space	n/a
279.4165	0.1045	558833	keystroke_p	p	n/a
279.551	0.12	559102	keystroke_a	a	n/a
279.701	0.105	559402	keystroke_l	l	n/a
279.866	0.0905	559732	keystroke_e	e	n/a
280.0015	0.0745	560003	keystroke_Key.space	Key.space	n/a
280.391	0.105	560782	keystroke_c	c	n/a
280.541	0.09	561082	keystroke_a	a	n/a
280.706	0.045	561412	keystroke_l	l	n/a
280.841	0.06	561682	keystroke_l	l	n/a
280.991	0.105	561982	keystroke_i	i	n/a
281.111	0.075	562222	keystroke_n	n	n/a
281.201	0.075	562402	keystroke_g	g	n/a
281.426	0.06	562852	keystroke_Key.space	Key.space	n/a
281.891	0.075	563782	keystroke_s	s	n/a
282.0705	0.12	564141	keystroke_e	e	n/a
282.1455	0.09	564291	keystroke_r	r	n/a
282.3405	0.12	564681	keystroke_v	v	n/a
282.5055	0.105	565011	keystroke_e	e	n/a
282.7305	0.105	565461	keystroke_d	d	n/a
283.4355	0.06	566871	keystroke_Key.enter	Key.enter	n/a
283.5	10.6445	567000	prompt	n/a	resumes moderators impression awesome\n
284.41	0.075	568820	keystroke_r	r	n/a
284.425	0.105	568850	keystroke_e	e	n/a
284.635	0.09	569270	keystroke_s	s	n/a
284.785	0.075	569570	keystroke_u	u	n/a
285.55	0.075	571100	keystroke_m	m	n/a
285.64	0.09	571280	keystroke_e	e	n/a
285.805	0.105	571610	keystroke_s	s	n/a
286.315	0.045	572630	keystroke_Key.space	Key.space	n/a
286.6745	0.06	573349	keystroke_m	m	n/a
286.8695	0.075	573739	keystroke_o	o	n/a
287.3645	0.075	574729	keystroke_d	d	n/a
287.5895	0.135	575179	keystroke_e	e	n/a
287.6645	0.105	575329	keystroke_r	r	n/a
288.0545	0.09	576109	keystroke_a	a	n/a
288.2045	0.105	576409	keystroke_t	t	n/a
288.3395	0.09	576679	keystroke_o	o	n/a
288.5195	0.09	577039	keystroke_r	r	n/a
288.7295	0.105	577459	keystroke_s	s	n/a
288.9545	0.045	577909	keystroke_Key.space	Key.space	n/a
289.1495	0.105	578299	keystroke_i	i	n/a
289.3595	0.09	578719	keystroke_m	m	n/a
289.5995	0.09	579199	keystroke_p	p	n/a
289.914	0.075	579828	keystroke_r	r	n/a
290.514	0.09	581028	keystroke_e	e	n/a
290.814	0.015	581628	keystroke_s	s	n/a
290.934	0.045	581868	keystroke_s	s	n/a
291.024	0.09	582048	keystroke_i	i	n/a
291.084	0.135	582168	keystroke_o	o	n/a
291.189	0.075	582378	keystroke_n	n	n/a
291.459	0.06	582918	keystroke_Key.space	Key.space	n/a
291.729	0.09	583458	keystroke_a	a	n/a
291.924	0.1945	583848	keystroke_w	w	n/a
292.1485	0.1955	584297	keystroke_e	e	n/a
292.5985	0.075	585197	keystroke_s	s	n/a
292.9585	0.12	585917	keystroke_o	o	n/a
293.0635	0.09	586127	keystroke_m	m	n/a
293.2435	0.105	586487	keystroke_e	e	n/a
294.0835	0.06	588167	keystroke_Key.enter	Key.enter	n/a
294.1475	12.0545	588295	prompt	n/a	frontier cottages somewhere annie\n
294.8785	0.075	589757	keystroke_r	r	n/a
295.4785	0.075	590957	keystroke_Key.backspace	Key.backspace	n/a
295.6135	0.075	591227	keystroke_f	f	n/a
295.9285	0.075	591857	keystroke_r	r	n/a
296.0635	0.105	592127	keystroke_o	o	n/a
296.1535	0.06	592307	keystroke_n	n	n/a
296.3935	0.015	592787	keystroke_t	t	n/a
296.4235	0.045	592847	keystroke_e	e	n/a
296.588	0.045	593176	keystroke_i	i	n/a
296.843	0.075	593686	keystroke_Key.backspace	Key.backspace	n/a
296.993	0.075	593986	keystroke_Key.backspace	Key.backspace	n/a
297.368	0.075	594736	keystroke_i	i	n/a
297.563	0.135	595126	keystroke_e	e	n/a
297.653	0.09	595306	keystroke_r	r	n/a
298.1325	0.06	596265	keystroke_Key.space	Key.space	n/a
298.388	0.09	596776	keystroke_c	c	n/a
298.508	0.0895	597016	keystroke_o	o	n/a
298.8225	0.03	597645	keystroke_t	t	n/a
298.9275	0.06	597855	keystroke_t	t	n/a
299.1225	0.15	598245	keystroke_a	a	n/a
299.2575	0.03	598515	keystroke_g	g	n/a
299.3625	0.06	598725	keystroke_g	g	n/a
299.4075	0.09	598815	keystroke_e	e	n/a
299.9325	0.075	599865	keystroke_Key.backspace	Key.backspace	n/a
300.4425	0.06	600885	keystroke_Key.backspace	Key.backspace	n/a
300.5925	0.09	601185	keystroke_e	e	n/a
301.087	0.075	602174	keystroke_s	s	n/a
301.3725	0.06	602745	keystroke_Key.space	Key.space	n/a
301.852	0.09	603704	keystroke_s	s	n/a
301.972	0.105	603944	keystroke_o	o	n/a
302.062	0.09	604124	keystroke_m	m	n/a
302.302	0.09	604604	keystroke_e	e	n/a
303.022	0.105	606044	keystroke_w	w	n/a
303.157	0.075	606314	keystroke_h	h	n/a
303.262	0.135	606524	keystroke_e	e	n/a
303.352	0.135	606704	keystroke_r	r	n/a
303.502	0.09	607004	keystroke_e	e	n/a
304.4315	0.06	608863	keystroke_Key.space	Key.space	n/a
304.7015	0.09	609403	keystroke_a	a	n/a
304.9265	0.06	609853	keystroke_n	n	n/a
305.0765	0.06	610153	keystroke_n	n	n/a
305.2115	0.105	610423	keystroke_i	i	n/a
305.3765	0.075	610753	keystroke_e	e	n/a
306.141	0.06	612282	keystroke_Key.enter	Key.enter	n/a
306.205	8.3345	612410	prompt	n/a	daily hoping introduce meals\n
307.0865	0.0735	614173	keystroke_a	a	n/a
307.505	0.075	615010	keystroke_Key.backspace	Key.backspace	n/a
307.61	0.15	615220	keystroke_d	d	n/a
307.761	0.104	615522	keystroke_a	a	n/a
307.925	0.09	615850	keystroke_i	i	n/a
308.1045	0.09	616209	keystroke_l	l	n/a
308.3745	0.076	616749	keystroke_y	y	n/a
308.644	0.075	617288	keystroke_Key.space	Key.space	n/a
308.989	0.075	617978	keystroke_h	h	n/a
309.139	0.09	618278	keystroke_o	o	n/a
309.304	0.09	618608	keystroke_p	p	n/a
309.499	0.1195	618998	keystroke_i	i	n/a
309.589	0.0895	619178	keystroke_n	n	n/a
309.7835	0.075	619567	keystroke_g	g	n/a
309.9485	0.09	619897	keystroke_Key.space	Key.space	n/a
310.5185	0.075	621037	keystroke_i	i	n/a
310.6395	0.075	621279	keystroke_n	n	n/a
310.9545	0.075	621909	keystroke_t	t	n/a
311.149	0.059	622298	keystroke_r	r	n/a
311.224	0.074	622448	keystroke_o	o	n/a
311.599	0.075	623198	keystroke_d	d	n/a
311.778	0.06	623556	keystroke_u	u	n/a
311.854	0.179	623708	keystroke_c	c	n/a
312.018	0.09	624036	keystroke_e	e	n/a
312.393	0.06	624786	keystroke_Key.space	Key.space	n/a
312.7525	0.075	625505	keystroke_m	m	n/a
312.9025	0.09	625805	keystroke_e	e	n/a
313.0525	0.15	626105	keystroke_a	a	n/a
313.2175	0.061	626435	keystroke_l	l	n/a
313.8035	0.074	627607	keystroke_s	s	n/a
314.479	0.059	628958	keystroke_Key.enter	Key.enter	n/a
314.5425	14.23	629085	prompt	n/a	pontiac resolved reviewer institutions\n
315.3335	0.105	630667	keystroke_p	p	n/a
315.963	0.1045	631926	keystroke_o	o	n/a
316.1435	0.06	632287	keystroke_n	n	n/a
318.6355	0.013	637271	keystroke_t	t	n/a
318.7385	0.09	637477	keystroke_i	i	n/a
318.9335	0.09	637867	keystroke_a	a	n/a
319.2185	0.12	638437	keystroke_c	c	n/a
319.5625	0.045	639125	keystroke_Key.space	Key.space	n/a
319.8335	0.105	639667	keystroke_r	r	n/a
319.8785	0.105	639757	keystroke_e	e	n/a
320.1035	0.075	640207	keystroke_s	s	n/a
320.2685	0.075	640537	keystroke_o	o	n/a
320.4485	0.1045	640897	keystroke_l	l	n/a
320.643	0.09	641286	keystroke_v	v	n/a
320.778	0.105	641556	keystroke_e	e	n/a
321.033	0.075	642066	keystroke_d	d	n/a
322.1725	0.075	644345	keystroke_Key.space	Key.space	n/a
322.473	0.1045	644946	keystroke_r	r	n/a
322.5175	0.12	645035	keystroke_e	e	n/a
322.9975	0.075	645995	keystroke_v	v	n/a
323.1775	0.075	646355	keystroke_i	i	n/a
323.2825	0.12	646565	keystroke_e	e	n/a
323.3575	0.09	646715	keystroke_w	w	n/a
323.7775	0.165	647555	keystroke_e	e	n/a
323.9125	0.105	647825	keystroke_r	r	n/a
324.527	0.075	649054	keystroke_Key.space	Key.space	n/a
324.827	0.06	649654	keystroke_i	i	n/a
324.947	0.09	649894	keystroke_n	n	n/a
325.1415	0.09	650283	keystroke_s	s	n/a
325.3215	0.105	650643	keystroke_t	t	n/a
325.8615	0.075	651723	keystroke_i	i	n/a
326.281	0.075	652562	keystroke_t	t	n/a
326.491	0.075	652982	keystroke_u	u	n/a
326.881	0.09	653762	keystroke_t	t	n/a
326.956	0.12	653912	keystroke_i	i	n/a
327.031	0.12	654062	keystroke_o	o	n/a
327.136	0.075	654272	keystroke_n	n	n/a
327.331	0.075	654662	keystroke_s	s	n/a
328.7255	0.045	657451	keystroke_Key.enter	Key.enter	n/a
328.779	8.2715	657558	prompt	n/a	nano granted rubber downtown\n
329.5955	0.06	659191	keystroke_n	n	n/a
329.7155	0.135	659431	keystroke_a	a	n/a
329.8055	0.105	659611	keystroke_n	n	n/a
330.1505	0.0745	660301	keystroke_o	o	n/a
330.45	0.075	660900	keystroke_Key.space	Key.space	n/a
330.93	0.06	661860	keystroke_g	g	n/a
331.125	0.12	662250	keystroke_r	r	n/a
331.365	0.075	662730	keystroke_a	a	n/a
331.53	0.06	663060	keystroke_n	n	n/a
331.65	0.135	663300	keystroke_t	t	n/a
332.19	0.105	664380	keystroke_e	e	n/a
332.55	0.09	665100	keystroke_d	d	n/a
332.805	0.075	665610	keystroke_Key.space	Key.space	n/a
333.075	0.075	666150	keystroke_r	r	n/a
333.21	0.09	666420	keystroke_u	u	n/a
333.465	0.06	666930	keystroke_b	b	n/a
333.6	0.075	667200	keystroke_b	b	n/a
333.69	0.1195	667380	keystroke_e	e	n/a
333.7495	0.075	667499	keystroke_r	r	n/a
334.0045	0.06	668009	keystroke_Key.space	Key.space	n/a
334.7245	0.075	669449	keystroke_d	d	n/a
335.2045	0.09	670409	keystroke_o	o	n/a
335.3095	0.075	670619	keystroke_w	w	n/a
335.4595	0.06	670919	keystroke_n	n	n/a
335.7145	0.09	671429	keystroke_t	t	n/a
335.8195	0.12	671639	keystroke_o	o	n/a
336.0445	0.09	672089	keystroke_w	w	n/a
336.1795	0.06	672359	keystroke_n	n	n/a
336.9895	0.06	673979	keystroke_Key.enter	Key.enter	n/a
337.0535	8.1405	674107	prompt	n/a	extra angola tract factor\n
337.8145	0.105	675629	keystroke_e	e	n/a
338.1445	0.1205	676289	keystroke_x	x	n/a
338.4295	0.09	676859	keystroke_t	t	n/a
338.6395	0.105	677279	keystroke_r	r	n/a
338.8495	0.075	677699	keystroke_a	a	n/a
339.1495	0.075	678299	keystroke_Key.space	Key.space	n/a
339.8695	0.1045	679739	keystroke_a	a	n/a
340.079	0.06	680158	keystroke_n	n	n/a
340.499	0.06	680998	keystroke_g	g	n/a
340.649	0.075	681298	keystroke_o	o	n/a
340.814	0.075	681628	keystroke_l	l	n/a
341.159	0.105	682318	keystroke_a	a	n/a
341.4585	0.06	682917	keystroke_Key.space	Key.space	n/a
341.8485	0.075	683697	keystroke_t	t	n/a
342.0885	0.12	684177	keystroke_r	r	n/a
342.328	0.09	684656	keystroke_a	a	n/a
342.448	0.12	684896	keystroke_c	c	n/a
342.703	0.12	685406	keystroke_t	t	n/a
343.228	0.075	686456	keystroke_Key.space	Key.space	n/a
343.498	0.09	686996	keystroke_f	f	n/a
343.663	0.105	687326	keystroke_a	a	n/a
343.768	0.12	687536	keystroke_c	c	n/a
344.0375	0.105	688075	keystroke_t	t	n/a
344.1725	0.09	688345	keystroke_o	o	n/a
344.3075	0.09	688615	keystroke_r	r	n/a
345.1175	0.075	690235	keystroke_Key.enter	Key.enter	n/a
345.197	11.26	690394	prompt	n/a	diffs dramatically repairs politics\n
346.017	0.06	692034	keystroke_d	d	n/a
346.482	0.06	692964	keystroke_i	i	n/a
346.707	0.06	693414	keystroke_f	f	n/a
346.857	0.06	693714	keystroke_f	f	n/a
347.022	0.09	694044	keystroke_s	s	n/a
347.292	0.06	694584	keystroke_Key.space	Key.space	n/a
347.607	0.105	695214	keystroke_d	d	n/a
347.892	0.135	695784	keystroke_r	r	n/a
348.4315	0.06	696863	keystroke_a	a	n/a
348.5965	0.075	697193	keystroke_m	m	n/a
349.1515	0.105	698303	keystroke_a	a	n/a
349.4065	0.045	698813	keystroke_t	t	n/a
349.6175	0.089	699235	keystroke_i	i	n/a
350.2165	0.105	700433	keystroke_c	c	n/a
350.741	0.075	701482	keystroke_a	a	n/a
350.981	0.06	701962	keystroke_l	l	n/a
351.131	0.045	702262	keystroke_l	l	n/a
351.311	0.045	702622	keystroke_y	y	n/a
351.536	0.075	703072	keystroke_Key.space	Key.space	n/a
351.656	0.12	703312	keystroke_r	r	n/a
351.716	0.105	703432	keystroke_e	e	n/a
351.956	0.075	703912	keystroke_p	p	n/a
352.091	0.105	704182	keystroke_a	a	n/a
352.301	0.075	704602	keystroke_i	i	n/a
352.601	0.09	705202	keystroke_r	r	n/a
352.811	0.075	705622	keystroke_s	s	n/a
352.976	0.075	705952	keystroke_Key.space	Key.space	n/a
353.3055	0.075	706611	keystroke_o	o	n/a
353.4855	0.09	706971	keystroke_p	p	n/a
353.9805	0.075	707961	keystroke_Key.backspace	Key.backspace	n/a
354.1455	0.045	708291	keystroke_Key.backspace	Key.backspace	n/a
354.4315	0.105	708863	keystroke_p	p	n/a
354.6705	0.09	709341	keystroke_o	o	n/a
354.8505	0.09	709701	keystroke_l	l	n/a
355.0605	0.06	710121	keystroke_i	i	n/a
355.2855	0.075	710571	keystroke_t	t	n/a
355.3905	0.075	710781	keystroke_i	i	n/a
355.5255	0.12	711051	keystroke_c	c	n/a
355.7205	0.105	711441	keystroke_s	s	n/a
356.395	0.06	712790	keystroke_Key.enter	Key.enter	n/a
356.46	15.219	712920	prompt	n/a	explicitly towards indication came\n
357.3105	0.075	714621	keystroke_e	e	n/a
357.5955	0.075	715191	keystroke_x	x	n/a
357.7455	0.09	715491	keystroke_p	p	n/a
357.9555	0.09	715911	keystroke_l	l	n/a
358.1655	0.09	716331	keystroke_i	i	n/a
358.4655	0.075	716931	keystroke_c	c	n/a
358.6455	0.075	717291	keystroke_i	i	n/a
358.78	0.09	717560	keystroke_t	t	n/a
358.9	0.075	717800	keystroke_y	y	n/a
359.185	0.075	718370	keystroke_Key.space	Key.space	n/a
359.59	0.075	719180	keystroke_t	t	n/a
359.71	0.075	719420	keystroke_o	o	n/a
360.115	0.09	720230	keystroke_w	w	n/a
360.325	0.12	720650	keystroke_a	a	n/a
360.6245	0.09	721249	keystroke_r	r	n/a
360.88	0.135	721760	keystroke_d	d	n/a
361.06	0.105	722120	keystroke_s	s	n/a
365.636	0.013	731272	keystroke_Key.space	Key.space	n/a
365.799	0.09	731598	keystroke_i	i	n/a
365.919	0.09	731838	keystroke_n	n	n/a
366.144	0.075	732288	keystroke_d	d	n/a
366.249	0.09	732498	keystroke_i	i	n/a
366.414	0.12	732828	keystroke_c	c	n/a
366.594	0.135	733188	keystroke_a	a	n/a
366.789	0.09	733578	keystroke_t	t	n/a
366.819	0.09	733638	keystroke_i	i	n/a
367.029	0.075	734058	keystroke_n	n	n/a
367.8235	0.075	735647	keystroke_Key.backspace	Key.backspace	n/a
368.1235	0.165	736247	keystroke_o	o	n/a
368.3185	0.045	736637	keystroke_j	j	n/a
368.9635	0.075	737927	keystroke_Key.backspace	Key.backspace	n/a
369.6985	0.06	739397	keystroke_n	n	n/a
369.8935	0.0595	739787	keystroke_Key.space	Key.space	n/a
370.4335	0.09	740867	keystroke_c	c	n/a
370.5685	0.1495	741137	keystroke_a	a	n/a
370.688	0.0905	741376	keystroke_m	m	n/a
370.838	0.09	741676	keystroke_e	e	n/a
371.633	0.045	743266	keystroke_Key.enter	Key.enter	n/a
371.682	8.1105	743364	prompt	n/a	packed desktops current personally\n
372.4275	0.09	744855	keystroke_p	p	n/a
372.5925	0.105	745185	keystroke_a	a	n/a
372.6825	0.135	745365	keystroke_c	c	n/a
372.8025	0.075	745605	keystroke_k	k	n/a
372.9225	0.075	745845	keystroke_e	e	n/a
373.1025	0.075	746205	keystroke_d	d	n/a
373.2075	0.075	746415	keystroke_Key.space	Key.space	n/a
373.6575	0.06	747315	keystroke_d	d	n/a
373.8225	0.09	747645	keystroke_e	e	n/a
374.2725	0.06	748545	keystroke_s	s	n/a
374.4675	0.075	748935	keystroke_k	k	n/a
374.8575	0.075	749715	keystroke_t	t	n/a
374.9475	0.075	749895	keystroke_o	o	n/a
375.0975	0.09	750195	keystroke_p	p	n/a
375.232	0.075	750464	keystroke_s	s	n/a
375.397	0.09	750794	keystroke_Key.space	Key.space	n/a
375.622	0.075	751244	keystroke_c	c	n/a
375.817	0.075	751634	keystroke_u	u	n/a
376.042	0.045	752084	keystroke_r	r	n/a
376.162	0.075	752324	keystroke_r	r	n/a
376.312	0.105	752624	keystroke_e	e	n/a
376.447	0.06	752894	keystroke_n	n	n/a
376.537	0.075	753074	keystroke_t	t	n/a
376.687	0.09	753374	keystroke_Key.space	Key.space	n/a
377.242	0.075	754484	keystroke_p	p	n/a
377.4815	0.135	754963	keystroke_e	e	n/a
377.5565	0.09	755113	keystroke_r	r	n/a
377.7665	0.09	755533	keystroke_s	s	n/a
377.8715	0.105	755743	keystroke_o	o	n/a
378.0215	0.075	756043	keystroke_n	n	n/a
378.3215	0.09	756643	keystroke_a	a	n/a
378.5465	0.06	757093	keystroke_l	l	n/a
378.6665	0.075	757333	keystroke_l	l	n/a
378.8615	0.06	757723	keystroke_y	y	n/a
379.7315	0.06	759463	keystroke_Key.enter	Key.enter	n/a
379.796	17.8885	759592	prompt	n/a	remaining catalyst encouraging throw\n
380.5415	0.105	761083	keystroke_r	r	n/a
380.6165	0.12	761233	keystroke_e	e	n/a
381.351	0.06	762702	keystroke_m	m	n/a
381.546	0.105	763092	keystroke_a	a	n/a
381.681	0.09	763362	keystroke_i	i	n/a
381.772	0.089	763544	keystroke_n	n	n/a
382.311	0.06	764622	keystroke_g	g	n/a
383.121	0.0595	766242	keystroke_Key.space	Key.space	n/a
383.5855	0.075	767171	keystroke_Key.backspace	Key.backspace	n/a
383.7505	0.075	767501	keystroke_Key.backspace	Key.backspace	n/a
383.9305	0.075	767861	keystroke_Key.backspace	Key.backspace	n/a
385.4755	0.06	770951	keystroke_n	n	n/a
385.6405	0.09	771281	keystroke_i	i	n/a
385.7455	0.075	771491	keystroke_n	n	n/a
385.8805	0.075	771761	keystroke_g	g	n/a
386.0905	0.06	772181	keystroke_Key.space	Key.space	n/a
386.4505	0.0895	772901	keystroke_c	c	n/a
386.645	0.12	773290	keystroke_a	a	n/a
386.885	0.105	773770	keystroke_t	t	n/a
387.11	0.09	774220	keystroke_a	a	n/a
387.26	0.09	774520	keystroke_l	l	n/a
387.56	0.015	775120	keystroke_y	y	n/a
387.725	0.12	775450	keystroke_s	s	n/a
387.92	0.105	775840	keystroke_t	t	n/a
389.2545	0.045	778509	keystroke_Key.space	Key.space	n/a
389.7495	0.06	779499	keystroke_e	e	n/a
389.8845	0.105	779769	keystroke_c	c	n/a
390.934	0.06	781868	keystroke_Key.backspace	Key.backspace	n/a
391.189	0.075	782378	keystroke_n	n	n/a
391.444	0.06	782888	keystroke_c	c	n/a
391.624	0.09	783248	keystroke_o	o	n/a
391.669	0.12	783338	keystroke_u	u	n/a
391.969	0.135	783938	keystroke_r	r	n/a
392.224	0.12	784448	keystroke_a	a	n/a
394.069	0.06	788138	keystroke_g	g	n/a
395.0885	0.12	790177	keystroke_i	i	n/a
395.2085	0.09	790417	keystroke_n	n	n/a
395.4185	0.075	790837	keystroke_g	g	n/a
395.7635	0.075	791527	keystroke_Key.space	Key.space	n/a
396.3335	0.075	792667	keystroke_t	t	n/a
396.3935	0.075	792787	keystroke_h	h	n/a
396.5585	0.105	793117	keystroke_r	r	n/a
396.6785	0.105	793357	keystroke_o	o	n/a
396.888	0.075	793776	keystroke_w	w	n/a
397.623	0.06	795246	keystroke_Key.enter	Key.enter	n/a
397.6875	6.611	795375	prompt	n/a	funded ware change outcome\n
398.628	0.06	797256	keystroke_f	f	n/a
398.703	0.075	797406	keystroke_u	u	n/a
398.8825	0.09	797765	keystroke_n	n	n/a
399.0175	0.06	798035	keystroke_d	d	n/a
399.1825	0.06	798365	keystroke_e	e	n/a
399.3475	0.09	798695	keystroke_d	d	n/a
399.5275	0.075	799055	keystroke_Key.space	Key.space	n/a
399.8575	0.075	799715	keystroke_c	c	n/a
400.2175	0.09	800435	keystroke_Key.backspace	Key.backspace	n/a
400.3225	0.1205	800645	keystroke_w	w	n/a
400.488	0.15	800976	keystroke_a	a	n/a
400.638	0.135	801276	keystroke_r	r	n/a
400.728	0.105	801456	keystroke_e	e	n/a
401.013	0.075	802026	keystroke_Key.space	Key.space	n/a
401.553	0.09	803106	keystroke_c	c	n/a
401.688	0.06	803376	keystroke_h	h	n/a
401.853	0.15	803706	keystroke_a	a	n/a
402.018	0.09	804036	keystroke_n	n	n/a
402.153	0.105	804306	keystroke_g	g	n/a
402.273	0.12	804546	keystroke_e	e	n/a
402.468	0.09	804936	keystroke_Key.space	Key.space	n/a
402.723	0.135	805446	keystroke_o	o	n/a
402.813	0.09	805626	keystroke_u	u	n/a
403.008	0.075	806016	keystroke_t	t	n/a
403.218	0.1345	806436	keystroke_c	c	n/a
403.3375	0.12	806675	keystroke_o	o	n/a
403.4125	0.105	806825	keystroke_m	m	n/a
403.5325	0.09	807065	keystroke_e	e	n/a
404.2375	0.06	808475	keystroke_Key.enter	Key.enter	n/a
404.3015	9.8055	808603	prompt	n/a	mozilla meyer cuts isolation\n
405.0475	0.075	810095	keystroke_m	m	n/a
405.2275	0.09	810455	keystroke_o	o	n/a
405.5575	0.06	811115	keystroke_i	i	n/a
405.9925	0.045	811985	keystroke_Key.backspace	Key.backspace	n/a
406.1275	0.12	812255	keystroke_z	z	n/a
406.3525	0.075	812705	keystroke_i	i	n/a
406.637	0.06	813274	keystroke_l	l	n/a
406.772	0.075	813544	keystroke_l	l	n/a
406.892	0.12	813784	keystroke_a	a	n/a
407.027	0.06	814054	keystroke_Key.space	Key.space	n/a
407.282	0.075	814564	keystroke_m	m	n/a
407.537	0.195	815074	keystroke_e	e	n/a
407.687	0.09	815374	keystroke_r	r	n/a
408.227	0.06	816454	keystroke_Key.backspace	Key.backspace	n/a
408.497	0.045	816994	keystroke_y	y	n/a
408.707	0.15	817414	keystroke_e	e	n/a
408.797	0.09	817594	keystroke_r	r	n/a
408.9915	0.12	817983	keystroke_s	s	n/a
409.8015	0.075	819603	keystroke_Key.backspace	Key.backspace	n/a
410.0865	0.075	820173	keystroke_Key.space	Key.space	n/a
410.5065	0.075	821013	keystroke_c	c	n/a
410.6565	0.06	821313	keystroke_u	u	n/a
410.7915	0.09	821583	keystroke_t	t	n/a
411.016	0.12	822032	keystroke_s	s	n/a
411.601	0.06	823202	keystroke_Key.space	Key.space	n/a
412.051	0.06	824102	keystroke_i	i	n/a
412.621	0.075	825242	keystroke_s	s	n/a
412.756	0.075	825512	keystroke_o	o	n/a
412.906	0.0895	825812	keystroke_l	l	n/a
413.1005	0.135	826201	keystroke_a	a	n/a
413.2655	0.105	826531	keystroke_t	t	n/a
413.3405	0.1205	826681	keystroke_i	i	n/a
413.446	0.15	826892	keystroke_o	o	n/a
413.521	0.09	827042	keystroke_n	n	n/a
414.046	0.06	828092	keystroke_Key.enter	Key.enter	n/a
414.11	13.3	828220	prompt	n/a	affiliates spelling draft furniture\n
415.2605	0.075	830521	keystroke_a	a	n/a
415.4705	0.06	830941	keystroke_f	f	n/a
415.5905	0.09	831181	keystroke_f	f	n/a
415.7405	0.075	831481	keystroke_i	i	n/a
415.9205	0.09	831841	keystroke_l	l	n/a
416.1605	0.045	832321	keystroke_i	i	n/a
416.2655	0.045	832531	keystroke_i	i	n/a
416.9105	0.06	833821	keystroke_Key.backspace	Key.backspace	n/a
417.1505	0.06	834301	keystroke_t	t	n/a
418.2445	0.06	836489	keystroke_Key.backspace	Key.backspace	n/a
418.4705	0.089	836941	keystroke_a	a	n/a
418.6045	0.12	837209	keystroke_t	t	n/a
418.7255	0.149	837451	keystroke_e	e	n/a
419.0245	0.075	838049	keystroke_s	s	n/a
419.22	0.0745	838440	keystroke_Key.space	Key.space	n/a
419.5345	0.09	839069	keystroke_s	s	n/a
419.6545	0.09	839309	keystroke_p	p	n/a
419.8045	0.09	839609	keystroke_e	e	n/a
420.0595	0.091	840119	keystroke_l	l	n/a
420.1955	0.089	840391	keystroke_l	l	n/a
420.3595	0.09	840719	keystroke_i	i	n/a
420.4645	0.105	840929	keystroke_n	n	n/a
420.5845	0.09	841169	keystroke_g	g	n/a
420.9595	0.075	841919	keystroke_Key.space	Key.space	n/a
421.3945	0.076	842789	keystroke_d	d	n/a
421.6045	0.135	843209	keystroke_r	r	n/a
421.8445	0.12	843689	keystroke_a	a	n/a
422.0545	0.09	844109	keystroke_f	f	n/a
422.2495	0.09	844499	keystroke_t	t	n/a
422.4595	0.075	844919	keystroke_Key.space	Key.space	n/a
422.879	0.075	845758	keystroke_f	f	n/a
423.045	0.044	846090	keystroke_u	u	n/a
423.254	0.075	846508	keystroke_r	r	n/a
423.389	0.09	846778	keystroke_n	n	n/a
423.554	0.105	847108	keystroke_i	i	n/a
423.749	0.105	847498	keystroke_t	t	n/a
426.0465	0	852093	keystroke_u	u	n/a
426.1195	0.089	852239	keystroke_r	r	n/a
426.1645	0.105	852329	keystroke_e	e	n/a
427.349	0.06	854698	keystroke_Key.enter	Key.enter	n/a
427.413	14.215	854826	prompt	n/a	forget veterans atlanta aging\n
428.099	0.075	856198	keystroke_f	f	n/a
428.264	0.09	856528	keystroke_o	o	n/a
428.414	0.1045	856828	keystroke_r	r	n/a
428.7285	0.075	857457	keystroke_g	g	n/a
428.9685	0.165	857937	keystroke_e	e	n/a
430.4385	0.0445	860877	keystroke_t	t	n/a
430.933	0.06	861866	keystroke_Key.space	Key.space	n/a
431.383	0.09	862766	keystroke_v	v	n/a
431.638	0.15	863276	keystroke_e	e	n/a
431.968	0.09	863936	keystroke_t	t	n/a
432.193	0.15	864386	keystroke_e	e	n/a
432.268	0.09	864536	keystroke_r	r	n/a
434.8645	0.028	869729	keystroke_a	a	n/a
434.9675	0.075	869935	keystroke_n	n	n/a
435.1325	0.105	870265	keystroke_s	s	n/a
435.2675	0.075	870535	keystroke_Key.space	Key.space	n/a
435.5525	0.135	871105	keystroke_a	a	n/a
435.8075	0.09	871615	keystroke_t	t	n/a
436.0625	0.075	872125	keystroke_l	l	n/a
436.1975	0.09	872395	keystroke_a	a	n/a
436.3025	0.075	872605	keystroke_n	n	n/a
436.5425	0.12	873085	keystroke_t	t	n/a
436.8575	0.09	873715	keystroke_a	a	n/a
437.952	0.06	875904	keystroke_Key.space	Key.space	n/a
440.309	0.0425	880618	keystroke_a	a	n/a
440.3665	0.105	880733	keystroke_g	g	n/a
440.5165	0.09	881033	keystroke_i	i	n/a
440.6215	0.12	881243	keystroke_n	n	n/a
440.7565	0.075	881513	keystroke_g	g	n/a
441.5665	0.06	883133	keystroke_Key.enter	Key.enter	n/a
441.6325	9.8805	883265	prompt	n/a	showing horn definition atomic\n
442.4815	0.09	884963	keystroke_s	s	n/a
442.5865	0.06	885173	keystroke_h	h	n/a
442.7215	0.09	885443	keystroke_o	o	n/a
442.8565	0.105	885713	keystroke_w	w	n/a
442.9765	0.12	885953	keystroke_i	i	n/a
443.1115	0.045	886223	keystroke_n	n	n/a
443.1865	0.075	886373	keystroke_g	g	n/a
443.3515	0.075	886703	keystroke_Key.space	Key.space	n/a
444.1015	0.015	888203	keystroke_o	o	n/a
444.5515	0.06	889103	keystroke_Key.backspace	Key.backspace	n/a
444.7615	0.09	889523	keystroke_h	h	n/a
445.0015	0.075	890003	keystroke_o	o	n/a
445.2265	0.045	890453	keystroke_r	r	n/a
445.3015	0.075	890603	keystroke_n	n	n/a
445.781	0.06	891562	keystroke_Key.space	Key.space	n/a
446.531	0.075	893062	keystroke_d	d	n/a
446.7265	0.075	893453	keystroke_e	e	n/a
446.951	0.045	893902	keystroke_f	f	n/a
447.101	0.0755	894202	keystroke_i	i	n/a
447.416	0.09	894832	keystroke_n	n	n/a
448.241	0.075	896482	keystroke_i	i	n/a
448.436	0.075	896872	keystroke_t	t	n/a
448.541	0.105	897082	keystroke_i	i	n/a
448.661	0.12	897322	keystroke_o	o	n/a
448.736	0.105	897472	keystroke_n	n	n/a
449.006	0.06	898012	keystroke_Key.space	Key.space	n/a
449.336	0.105	898672	keystroke_a	a	n/a
450.206	0.06	900412	keystroke_t	t	n/a
450.281	0.09	900562	keystroke_o	o	n/a
450.386	0.12	900772	keystroke_m	m	n/a
450.611	0.09	901222	keystroke_i	i	n/a
450.746	0.105	901492	keystroke_c	c	n/a
451.466	0.045	902932	keystroke_Key.enter	Key.enter	n/a
451.5155	9.926	903031	prompt	n/a	angeles discover calls regulations\n
452.231	0.09	904462	keystroke_a	a	n/a
452.351	0.09	904702	keystroke_n	n	n/a
452.606	0.06	905212	keystroke_g	g	n/a
453.446	0.045	906892	keystroke_e	e	n/a
453.551	0.09	907102	keystroke_l	l	n/a
453.671	0.0595	907342	keystroke_e	e	n/a
453.9405	0.09	907881	keystroke_s	s	n/a
454.1055	0.075	908211	keystroke_Key.space	Key.space	n/a
454.4055	0.075	908811	keystroke_d	d	n/a
454.5855	0.06	909171	keystroke_i	i	n/a
455.7105	0.09	911421	keystroke_s	s	n/a
455.8605	0.12	911721	keystroke_c	c	n/a
456.0555	0.09	912111	keystroke_o	o	n/a
456.3555	0.075	912711	keystroke_v	v	n/a
456.5505	0.135	913101	keystroke_e	e	n/a
456.6255	0.105	913251	keystroke_r	r	n/a
457.2705	0.075	914541	keystroke_Key.space	Key.space	n/a
457.6005	0.09	915201	keystroke_c	c	n/a
457.7655	0.09	915531	keystroke_a	a	n/a
457.9155	0.06	915831	keystroke_l	l	n/a
458.0505	0.075	916101	keystroke_l	l	n/a
458.1855	0.09	916371	keystroke_s	s	n/a
458.2905	0.075	916581	keystroke_Key.space	Key.space	n/a
458.7405	0.105	917481	keystroke_r	r	n/a
458.8005	0.12	917601	keystroke_e	e	n/a
459.3255	0.0745	918651	keystroke_g	g	n/a
459.52	0.06	919040	keystroke_u	u	n/a
459.745	0.09	919490	keystroke_l	l	n/a
459.88	0.105	919760	keystroke_a	a	n/a
460.03	0.105	920060	keystroke_t	t	n/a
460.075	0.12	920150	keystroke_i	i	n/a
460.21	0.12	920420	keystroke_o	o	n/a
460.27	0.12	920540	keystroke_n	n	n/a
460.69	0.075	921380	keystroke_s	s	n/a
461.38	0.06	922760	keystroke_Key.enter	Key.enter	n/a
461.4445	9.1305	922889	prompt	n/a	builds edgar personal defining\n
462.265	0.075	924530	keystroke_b	b	n/a
462.475	0.09	924950	keystroke_u	u	n/a
462.82	0.09	925640	keystroke_k	k	n/a
463.375	0.06	926750	keystroke_Key.backspace	Key.backspace	n/a
463.645	0.076	927290	keystroke_i	i	n/a
463.825	0.09	927650	keystroke_l	l	n/a
463.96	0.1055	927920	keystroke_d	d	n/a
464.1995	0.075	928399	keystroke_s	s	n/a
464.4695	0.06	928939	keystroke_Key.space	Key.space	n/a
464.8595	0.075	929719	keystroke_e	e	n/a
465.2345	0.105	930469	keystroke_d	d	n/a
465.4595	0.09	930919	keystroke_g	g	n/a
465.7895	0.135	931579	keystroke_a	a	n/a
465.984	0.09	931968	keystroke_r	r	n/a
466.194	0.075	932388	keystroke_Key.space	Key.space	n/a
466.479	0.075	932958	keystroke_p	p	n/a
466.584	0.15	933168	keystroke_e	e	n/a
466.674	0.075	933348	keystroke_r	r	n/a
466.899	0.075	933798	keystroke_s	s	n/a
466.989	0.09	933978	keystroke_o	o	n/a
467.094	0.09	934188	keystroke_n	n	n/a
467.304	0.06	934608	keystroke_a	a	n/a
467.394	0.075	934788	keystroke_l	l	n/a
467.724	0.03	935448	keystroke_Key.space	Key.space	n/a
468.204	0.076	936408	keystroke_d	d	n/a
468.3985	0.0755	936797	keystroke_e	e	n/a
468.714	0.09	937428	keystroke_f	f	n/a
468.969	0.1195	937938	keystroke_i	i	n/a
469.1035	0.09	938207	keystroke_n	n	n/a
469.2845	0.045	938569	keystroke_i	i	n/a
469.3735	0.075	938747	keystroke_n	n	n/a
469.5235	0.061	939047	keystroke_g	g	n/a
470.4985	0.075	940997	keystroke_Key.enter	Key.enter	n/a
470.5785	7.9755	941157	prompt	n/a	silk stanley italic accounts\n
471.323	0.075	942646	keystroke_s	s	n/a
471.399	0.09	942798	keystroke_i	i	n/a
471.593	0.135	943186	keystroke_l	l	n/a
472.313	0.076	944626	keystroke_k	k	n/a
472.613	0.06	945226	keystroke_Key.space	Key.space	n/a
473.064	0.089	946128	keystroke_s	s	n/a
473.243	0.105	946486	keystroke_t	t	n/a
473.424	0.104	946848	keystroke_a	a	n/a
473.573	0.061	947146	keystroke_n	n	n/a
473.9785	0.074	947957	keystroke_l	l	n/a
474.2035	0.074	948407	keystroke_e	e	n/a
474.3525	0.061	948705	keystroke_y	y	n/a
474.6225	0.075	949245	keystroke_Key.space	Key.space	n/a
474.953	0.075	949906	keystroke_i	i	n/a
475.163	0.105	950326	keystroke_t	t	n/a
475.523	0.075	951046	keystroke_a	a	n/a
475.853	0.075	951706	keystroke_l	l	n/a
476.018	0.06	952036	keystroke_i	i	n/a
476.123	0.105	952246	keystroke_c	c	n/a
476.348	0.075	952696	keystroke_Key.space	Key.space	n/a
476.693	0.075	953386	keystroke_a	a	n/a
476.873	0.06	953746	keystroke_c	c	n/a
477.023	0.06	954046	keystroke_c	c	n/a
477.173	0.09	954346	keystroke_o	o	n/a
477.233	0.12	954466	keystroke_u	u	n/a
477.443	0.09	954886	keystroke_n	n	n/a
477.548	0.09	955096	keystroke_t	t	n/a
477.713	0.12	955426	keystroke_s	s	n/a
478.4925	0.06	956985	keystroke_Key.enter	Key.enter	n/a
478.5575	17.185	957115	prompt	n/a	nearby eyes vendor gently\n
479.3025	0.075	958605	keystroke_n	n	n/a
479.4225	0.165	958845	keystroke_e	e	n/a
479.5125	0.12	959025	keystroke_r	r	n/a
479.7225	0.135	959445	keystroke_a	a	n/a
479.8875	0.03	959775	keystroke_r	r	n/a
480.3225	0.06	960645	keystroke_Key.backspace	Key.backspace	n/a
480.9525	0.06	961905	keystroke_Key.backspace	Key.backspace	n/a
481.1025	0.075	962205	keystroke_Key.backspace	Key.backspace	n/a
481.5075	0.105	963015	keystroke_a	a	n/a
481.8375	0.075	963675	keystroke_r	r	n/a
482.5125	0.06	965025	keystroke_n	n	n/a
482.7375	0.09	965475	keystroke_y	y	n/a
483.0825	0.075	966165	keystroke_Key.space	Key.space	n/a
483.3525	0.075	966705	keystroke_e	e	n/a
483.4875	0.09	966975	keystroke_u	u	n/a
483.6225	0.06	967245	keystroke_e	e	n/a
483.8025	0.09	967605	keystroke_s	s	n/a
484.027	0.06	968054	keystroke_Key.space	Key.space	n/a
484.4775	0.075	968955	keystroke_Key.backspace	Key.backspace	n/a
484.6575	0.0445	969315	keystroke_Key.backspace	Key.backspace	n/a
484.837	0.045	969674	keystroke_Key.backspace	Key.backspace	n/a
485.002	0.075	970004	keystroke_Key.backspace	Key.backspace	n/a
485.332	0.06	970664	keystroke_Key.backspace	Key.backspace	n/a
485.497	0.06	970994	keystroke_Key.backspace	Key.backspace	n/a
485.797	0.06	971594	keystroke_Key.backspace	Key.backspace	n/a
486.637	0.075	973274	keystroke_Key.backspace	Key.backspace	n/a
487.507	0.06	975014	keystroke_b	b	n/a
487.747	0.06	975494	keystroke_y	y	n/a
487.987	0.06	975974	keystroke_Key.space	Key.space	n/a
488.8565	0.075	977713	keystroke_e	e	n/a
489.1415	0.12	978283	keystroke_e	e	n/a
489.6965	0.06	979393	keystroke_Key.backspace	Key.backspace	n/a
490.0565	0.06	980113	keystroke_y	y	n/a
490.1315	0.105	980263	keystroke_e	e	n/a
490.3115	0.09	980623	keystroke_s	s	n/a
490.7165	0.06	981433	keystroke_Key.space	Key.space	n/a
491.2715	0.075	982543	keystroke_v	v	n/a
491.4665	0.09	982933	keystroke_e	e	n/a
491.6165	0.075	983233	keystroke_n	n	n/a
491.7665	0.105	983533	keystroke_d	d	n/a
491.8865	0.09	983773	keystroke_o	o	n/a
492.0365	0.09	984073	keystroke_e	e	n/a
492.4865	0.075	984973	keystroke_Key.backspace	Key.backspace	n/a
492.6215	0.075	985243	keystroke_r	r	n/a
493.4015	0.06	986803	keystroke_Key.space	Key.space	n/a
493.8365	0.045	987673	keystroke_g	g	n/a
494.0015	0.09	988003	keystroke_e	e	n/a
494.1515	0.075	988303	keystroke_n	n	n/a
494.3015	0.09	988603	keystroke_t	t	n/a
494.6915	0.09	989383	keystroke_l	l	n/a
494.9315	0.06	989863	keystroke_y	y	n/a
495.681	0.06	991362	keystroke_Key.enter	Key.enter	n/a
495.7455	10.1365	991491	prompt	n/a	coalition advanced janet sticky\n
496.431	0.105	992862	keystroke_c	c	n/a
496.776	0.075	993552	keystroke_a	a	n/a
497.136	0.09	994272	keystroke_Key.backspace	Key.backspace	n/a
497.421	0.09	994842	keystroke_o	o	n/a
497.586	0.09	995172	keystroke_a	a	n/a
497.751	0.09	995502	keystroke_l	l	n/a
497.931	0.105	995862	keystroke_i	i	n/a
498.216	0.075	996432	keystroke_t	t	n/a
498.231	0.105	996462	keystroke_i	i	n/a
498.306	0.165	996612	keystroke_o	o	n/a
498.411	0.09	996822	keystroke_n	n	n/a
498.666	0.06	997332	keystroke_Key.space	Key.space	n/a
499.146	0.1195	998292	keystroke_a	a	n/a
499.3705	0.1055	998741	keystroke_d	d	n/a
499.566	0.1195	999132	keystroke_v	v	n/a
500.541	0.09	1001082	keystroke_a	a	n/a
500.766	0.0595	1001532	keystroke_n	n	n/a
500.9155	0.075	1001831	keystroke_c	c	n/a
501.1255	0.09	1002251	keystroke_e	e	n/a
501.3205	0.09	1002641	keystroke_d	d	n/a
501.4855	0.075	1002971	keystroke_Key.space	Key.space	n/a
501.8455	0.075	1003691	keystroke_j	j	n/a
502.0105	0.12	1004021	keystroke_a	a	n/a
502.1455	0.075	1004291	keystroke_n	n	n/a
502.5055	0.09	1005011	keystroke_e	e	n/a
502.6555	0.075	1005311	keystroke_t	t	n/a
502.7605	0.09	1005521	keystroke_Key.space	Key.space	n/a
502.9855	0.06	1005971	keystroke_s	s	n/a
503.0905	0.12	1006181	keystroke_t	t	n/a
503.2255	0.09	1006451	keystroke_i	i	n/a
503.3755	0.105	1006751	keystroke_c	c	n/a
503.4505	0.09	1006901	keystroke_k	k	n/a
503.7355	0.045	1007471	keystroke_u	u	n/a
504.6655	0.045	1009331	keystroke_Key.backspace	Key.backspace	n/a
505.3405	0.06	1010681	keystroke_y	y	n/a
505.8205	0.06	1011641	keystroke_Key.enter	Key.enter	n/a
505.885	9.686	1011770	prompt	n/a	told magnet trainer training\n
506.8855	0.105	1013771	keystroke_t	t	n/a
506.9605	0.09	1013921	keystroke_o	o	n/a
507.1405	0.12	1014281	keystroke_l	l	n/a
507.3805	0.075	1014761	keystroke_d	d	n/a
507.4855	0.09	1014971	keystroke_Key.space	Key.space	n/a
507.9355	0.06	1015871	keystroke_m	m	n/a
508.0705	0.12	1016141	keystroke_a	a	n/a
508.2355	0.0895	1016471	keystroke_g	g	n/a
508.76	0.075	1017520	keystroke_n	n	n/a
508.865	0.12	1017730	keystroke_e	e	n/a
509.015	0.105	1018030	keystroke_t	t	n/a
509.225	0.075	1018450	keystroke_Key.space	Key.space	n/a
509.51	0.075	1019020	keystroke_t	t	n/a
509.675	0.09	1019350	keystroke_r	r	n/a
509.855	0.105	1019710	keystroke_a	a	n/a
510.065	0.105	1020130	keystroke_i	i	n/a
510.275	0.09	1020550	keystroke_n	n	n/a
510.875	0.1645	1021750	keystroke_e	e	n/a
510.9645	0.09	1021929	keystroke_r	r	n/a
511.6695	0.045	1023339	keystroke_Key.space	Key.space	n/a
511.9095	0.075	1023819	keystroke_t	t	n/a
512.1045	0.075	1024209	keystroke_r	r	n/a
512.3445	0.09	1024689	keystroke_a	a	n/a
512.4945	0.105	1024989	keystroke_i	i	n/a
512.6295	0.09	1025259	keystroke_n	n	n/a
513.0345	0.075	1026069	keystroke_i	i	n/a
514.204	0.06	1028408	keystroke_n	n	n/a
514.414	0.075	1028828	keystroke_g	g	n/a
515.509	0.06	1031018	keystroke_Key.enter	Key.enter	n/a
515.5735	7.7215	1031147	prompt	n/a	twisted naturally guest hans\n
516.679	0.105	1033358	keystroke_t	t	n/a
516.919	0.075	1033838	keystroke_w	w	n/a
517.324	0.075	1034648	keystroke_i	i	n/a
517.504	0.09	1035008	keystroke_s	s	n/a
517.654	0.12	1035308	keystroke_t	t	n/a
517.789	0.06	1035578	keystroke_e	e	n/a
517.969	0.09	1035938	keystroke_d	d	n/a
518.149	0.06	1036298	keystroke_Key.space	Key.space	n/a
518.449	0.06	1036898	keystroke_n	n	n/a
518.584	0.105	1037168	keystroke_a	a	n/a
518.764	0.09	1037528	keystroke_t	t	n/a
518.974	0.075	1037948	keystroke_u	u	n/a
519.229	0.09	1038458	keystroke_r	r	n/a
519.604	0.06	1039208	keystroke_a	a	n/a
519.814	0.075	1039628	keystroke_l	l	n/a
519.949	0.075	1039898	keystroke_l	l	n/a
520.159	0.045	1040318	keystroke_y	y	n/a
520.354	0.075	1040708	keystroke_Key.space	Key.space	n/a
520.609	0.075	1041218	keystroke_g	g	n/a
520.774	0.0745	1041548	keystroke_u	u	n/a
521.0135	0.09	1042027	keystroke_e	e	n/a
521.2085	0.105	1042417	keystroke_s	s	n/a
521.3585	0.105	1042717	keystroke_t	t	n/a
521.5835	0.075	1043167	keystroke_Key.space	Key.space	n/a
521.9435	0.075	1043887	keystroke_h	h	n/a
522.0485	0.135	1044097	keystroke_a	a	n/a
522.2285	0.105	1044457	keystroke_n	n	n/a
522.5285	0.09	1045057	keystroke_s	s	n/a
523.2335	0.06	1046467	keystroke_Key.enter	Key.enter	n/a
523.299	17.4255	1046598	prompt	n/a	proposition tile strongly tolerance\n
523.9835	0.105	1047967	keystroke_p	p	n/a
524.2535	0.075	1048507	keystroke_o	o	n/a
524.4335	0.075	1048867	keystroke_r	r	n/a
524.5685	0.09	1049137	keystroke_o	o	n/a
524.7645	0.06	1049529	keystroke_p	p	n/a
525.0785	0.075	1050157	keystroke_Key.backspace	Key.backspace	n/a
525.2435	0.075	1050487	keystroke_Key.backspace	Key.backspace	n/a
525.5285	0.075	1051057	keystroke_Key.backspace	Key.backspace	n/a
526.0535	0.045	1052107	keystroke_Key.backspace	Key.backspace	n/a
526.3245	0.059	1052649	keystroke_r	r	n/a
526.9245	0.074	1053849	keystroke_o	o	n/a
527.0885	0.09	1054177	keystroke_p	p	n/a
527.2995	0.089	1054599	keystroke_o	o	n/a
527.7795	0.089	1055559	keystroke_s	s	n/a
527.9745	0.075	1055949	keystroke_t	t	n/a
528.0635	0.061	1056127	keystroke_i	i	n/a
528.9635	0.061	1057927	keystroke_t	t	n/a
529.0385	0.121	1058077	keystroke_i	i	n/a
529.1435	0.12	1058287	keystroke_o	o	n/a
529.2195	0.089	1058439	keystroke_n	n	n/a
529.6685	0.045	1059337	keystroke_Key.space	Key.space	n/a
530.0295	0.089	1060059	keystroke_t	t	n/a
532.113	0.09	1064226	keystroke_Key.backspace	Key.backspace	n/a
532.338	0.045	1064676	keystroke_Key.backspace	Key.backspace	n/a
532.563	0.061	1065126	keystroke_Key.backspace	Key.backspace	n/a
532.743	0.075	1065486	keystroke_Key.backspace	Key.backspace	n/a
532.923	0.06	1065846	keystroke_Key.backspace	Key.backspace	n/a
533.103	0.045	1066206	keystroke_Key.backspace	Key.backspace	n/a
533.418	0.06	1066836	keystroke_Key.backspace	Key.backspace	n/a
534.078	0.075	1068156	keystroke_Key.backspace	Key.backspace	n/a
534.964	0.075	1069928	keystroke_i	i	n/a
535.204	0.089	1070408	keystroke_t	t	n/a
535.249	0.15	1070498	keystroke_i	i	n/a
535.384	0.135	1070768	keystroke_o	o	n/a
535.474	0.09	1070948	keystroke_n	n	n/a
535.729	0.044	1071458	keystroke_Key.space	Key.space	n/a
536.284	0.09	1072568	keystroke_t	t	n/a
536.344	0.075	1072688	keystroke_i	i	n/a
536.509	0.12	1073018	keystroke_l	l	n/a
536.644	0.075	1073288	keystroke_e	e	n/a
536.748	0.09	1073496	keystroke_Key.space	Key.space	n/a
537.019	0.15	1074038	keystroke_s	s	n/a
537.289	0.1045	1074578	keystroke_t	t	n/a
537.4985	0.075	1074997	keystroke_r	r	n/a
537.6485	0.075	1075297	keystroke_o	o	n/a
537.8135	0.12	1075627	keystroke_n	n	n/a
538.1435	0.075	1076287	keystroke_g	g	n/a
538.3085	0.09	1076617	keystroke_l	l	n/a
538.5185	0.06	1077037	keystroke_y	y	n/a
538.7425	0.09	1077485	keystroke_Key.space	Key.space	n/a
539.0735	0.075	1078147	keystroke_t	t	n/a
539.1785	0.09	1078357	keystroke_o	o	n/a
539.3435	0.09	1078687	keystroke_l	l	n/a
539.6285	0.15	1079257	keystroke_e	e	n/a
539.7185	0.12	1079437	keystroke_r	r	n/a
540.0185	0.105	1080037	keystroke_a	a	n/a
540.1535	0.075	1080307	keystroke_n	n	n/a
540.2885	0.135	1080577	keystroke_c	c	n/a
540.3935	0.12	1080787	keystroke_e	e	n/a
540.6785	0.045	1081357	keystroke_Key.enter	Key.enter	n/a
540.728	14.8755	1081456	prompt	n/a	climate deposits motorcycles blocks\n
541.8035	0.075	1083607	keystroke_c	c	n/a
541.9085	0.075	1083817	keystroke_l	l	n/a
542.0885	0.06	1084177	keystroke_i	i	n/a
542.2685	0.075	1084537	keystroke_m	m	n/a
542.3885	0.105	1084777	keystroke_a	a	n/a
542.5085	0.12	1085017	keystroke_t	t	n/a
542.5985	0.12	1085197	keystroke_e	e	n/a
542.7025	0.075	1085405	keystroke_Key.space	Key.space	n/a
542.9585	0.075	1085917	keystroke_d	d	n/a
543.1535	0.06	1086307	keystroke_e	e	n/a
543.2735	0.105	1086547	keystroke_p	p	n/a
543.4985	0.09	1086997	keystroke_o	o	n/a
544.2035	0.09	1088407	keystroke_t	t	n/a
544.713	0.06	1089426	keystroke_Key.backspace	Key.backspace	n/a
544.863	0.075	1089726	keystroke_s	s	n/a
545.043	0.015	1090086	keystroke_o	o	n/a
545.178	0.105	1090356	keystroke_t	t	n/a
545.823	0.03	1091646	keystroke_Key.backspace	Key.backspace	n/a
546.033	0.09	1092066	keystroke_Key.backspace	Key.backspace	n/a
546.783	0.075	1093566	keystroke_i	i	n/a
547.848	0.075	1095696	keystroke_t	t	n/a
548.028	0.09	1096056	keystroke_s	s	n/a
548.298	0.06	1096596	keystroke_Key.space	Key.space	n/a
548.673	0.075	1097346	keystroke_m	m	n/a
548.883	0.0745	1097766	keystroke_o	o	n/a
549.2725	0.06	1098545	keystroke_t	t	n/a
549.4525	0.075	1098905	keystroke_o	o	n/a
549.5725	0.09	1099145	keystroke_r	r	n/a
549.9625	0.075	1099925	keystroke_c	c	n/a
550.1425	0.06	1100285	keystroke_y	y	n/a
550.4425	0.09	1100885	keystroke_c	c	n/a
550.5925	0.09	1101185	keystroke_l	l	n/a
550.7725	0.075	1101545	keystroke_e	e	n/a
550.9525	0.105	1101905	keystroke_s	s	n/a
551.7175	0.06	1103435	keystroke_Key.space	Key.space	n/a
552.2875	0.06	1104575	keystroke_b	b	n/a
552.6625	0.03	1105325	keystroke_o	o	n/a
553.5475	0.09	1107095	keystroke_Key.backspace	Key.backspace	n/a
553.877	0.09	1107754	keystroke_l	l	n/a
554.132	0.075	1108264	keystroke_o	o	n/a
554.327	0.075	1108654	keystroke_c	c	n/a
554.447	0.09	1108894	keystroke_k	k	n/a
554.717	0.12	1109434	keystroke_s	s	n/a
555.542	0.06	1111084	keystroke_Key.enter	Key.enter	n/a
555.6065	8.7265	1111213	prompt	n/a	norm tribe brain degrees\n
557.312	0.075	1114624	keystroke_n	n	n/a
557.492	0.09	1114984	keystroke_o	o	n/a
557.687	0.06	1115374	keystroke_r	r	n/a
557.762	0.06	1115524	keystroke_m	m	n/a
558.167	0.09	1116334	keystroke_Key.space	Key.space	n/a
558.827	0.06	1117654	keystroke_t	t	n/a
558.992	0.075	1117984	keystroke_r	r	n/a
559.097	0.09	1118194	keystroke_i	i	n/a
559.292	0.075	1118584	keystroke_b	b	n/a
559.442	0.075	1118884	keystroke_e	e	n/a
559.592	0.075	1119184	keystroke_Key.space	Key.space	n/a
560.012	0.075	1120024	keystroke_b	b	n/a
560.177	0.15	1120354	keystroke_r	r	n/a
560.717	0.075	1121434	keystroke_a	a	n/a
560.822	0.105	1121644	keystroke_i	i	n/a
560.942	0.105	1121884	keystroke_n	n	n/a
561.317	0.06	1122634	keystroke_Key.space	Key.space	n/a
562.037	0.075	1124074	keystroke_d	d	n/a
562.2325	0.09	1124465	keystroke_e	e	n/a
562.517	0.06	1125034	keystroke_g	g	n/a
562.7125	0.09	1125425	keystroke_r	r	n/a
562.982	0.045	1125964	keystroke_e	e	n/a
563.117	0.06	1126234	keystroke_e	e	n/a
563.522	0.06	1127044	keystroke_s	s	n/a
564.2875	0.045	1128575	keystroke_Key.enter	Key.enter	n/a
564.336	8.442	1128672	prompt	n/a	pike merchandise stone prohibited\n
565.1725	0.0895	1130345	keystroke_p	p	n/a
565.4275	0.015	1130855	keystroke_i	i	n/a
565.6075	0.105	1131215	keystroke_k	k	n/a
565.7425	0.09	1131485	keystroke_e	e	n/a
565.8775	0.075	1131755	keystroke_Key.space	Key.space	n/a
566.2825	0.06	1132565	keystroke_m	m	n/a
566.4175	0.165	1132835	keystroke_e	e	n/a
566.5225	0.075	1133045	keystroke_r	r	n/a
566.7625	0.075	1133525	keystroke_c	c	n/a
566.8675	0.075	1133735	keystroke_h	h	n/a
567.0325	0.075	1134065	keystroke_a	a	n/a
567.1225	0.075	1134245	keystroke_n	n	n/a
567.3625	0.075	1134725	keystroke_d	d	n/a
567.4525	0.09	1134905	keystroke_i	i	n/a
567.6775	0.165	1135355	keystroke_s	s	n/a
567.8275	0.12	1135655	keystroke_e	e	n/a
568.3075	0.06	1136615	keystroke_Key.space	Key.space	n/a
568.6075	0.09	1137215	keystroke_s	s	n/a
568.7575	0.09	1137515	keystroke_t	t	n/a
568.8625	0.135	1137725	keystroke_o	o	n/a
568.9825	0.09	1137965	keystroke_n	n	n/a
569.132	0.09	1138264	keystroke_e	e	n/a
569.4025	0.06	1138805	keystroke_Key.space	Key.space	n/a
569.897	0.09	1139794	keystroke_p	p	n/a
570.062	0.075	1140124	keystroke_r	r	n/a
570.197	0.06	1140394	keystroke_o	o	n/a
570.842	0.075	1141684	keystroke_h	h	n/a
571.022	0.09	1142044	keystroke_i	i	n/a
571.247	0.075	1142494	keystroke_b	b	n/a
571.427	0.075	1142854	keystroke_i	i	n/a
571.622	0.09	1143244	keystroke_t	t	n/a
571.712	0.09	1143424	keystroke_e	e	n/a
571.937	0.105	1143874	keystroke_d	d	n/a
572.717	0.06	1145434	keystroke_Key.enter	Key.enter	n/a
572.783	14.5435	1145566	prompt	n/a	paths possibilities churches she'll\n
573.482	0.09	1146964	keystroke_p	p	n/a
573.752	0.105	1147504	keystroke_a	a	n/a
574.007	0.06	1148014	keystroke_t	t	n/a
574.127	0.0745	1148254	keystroke_h	h	n/a
574.367	0.09	1148734	keystroke_s	s	n/a
574.577	0.075	1149154	keystroke_Key.space	Key.space	n/a
575.1165	0.09	1150233	keystroke_p	p	n/a
575.3565	0.075	1150713	keystroke_o	o	n/a
575.7765	0.06	1151553	keystroke_s	s	n/a
575.882	0.0895	1151764	keystroke_s	s	n/a
576.0015	0.09	1152003	keystroke_i	i	n/a
579.0335	0.001	1158067	keystroke_b	b	n/a
579.3465	0.0745	1158693	keystroke_i	i	n/a
579.571	0.09	1159142	keystroke_l	l	n/a
579.736	0.105	1159472	keystroke_i	i	n/a
580.141	0.105	1160282	keystroke_t	t	n/a
580.291	0.105	1160582	keystroke_e	e	n/a
580.426	0.09	1160852	keystroke_i	i	n/a
580.621	0.105	1161242	keystroke_s	s	n/a
581.146	0.06	1162292	keystroke_Key.backspace	Key.backspace	n/a
581.296	0.075	1162592	keystroke_Key.backspace	Key.backspace	n/a
581.461	0.075	1162922	keystroke_Key.backspace	Key.backspace	n/a
581.776	0.09	1163552	keystroke_i	i	n/a
581.926	0.105	1163852	keystroke_e	e	n/a
582.121	0.105	1164242	keystroke_s	s	n/a
582.481	0.075	1164962	keystroke_Key.space	Key.space	n/a
582.811	0.105	1165622	keystroke_c	c	n/a
582.946	0.075	1165892	keystroke_h	h	n/a
583.186	0.075	1166372	keystroke_u	u	n/a
583.666	0.075	1167332	keystroke_r	r	n/a
583.906	0.12	1167812	keystroke_c	c	n/a
584.056	0.075	1168112	keystroke_h	h	n/a
584.191	0.0895	1168382	keystroke_e	e	n/a
584.3855	0.075	1168771	keystroke_s	s	n/a
584.5055	0.075	1169011	keystroke_Key.space	Key.space	n/a
585.0755	0.12	1170151	keystroke_s	s	n/a
585.2855	0.09	1170571	keystroke_h	h	n/a
585.5105	0.075	1171021	keystroke_e	e	n/a
586.0055	0.09	1172011	keystroke_'	'	n/a
586.3055	0.06	1172611	keystroke_l	l	n/a
586.4255	0.075	1172851	keystroke_l	l	n/a
587.2655	0.06	1174531	keystroke_Key.enter	Key.enter	n/a
587.33	11.036	1174660	prompt	n/a	exec tracked ultimate fort\n
588.0455	0.075	1176091	keystroke_e	e	n/a
588.6155	0.135	1177231	keystroke_x	x	n/a
588.9755	0.135	1177951	keystroke_e	e	n/a
589.395	0.1055	1178790	keystroke_c	c	n/a
589.8	0.06	1179600	keystroke_Key.space	Key.space	n/a
589.995	0.09	1179990	keystroke_t	t	n/a
590.16	0.09	1180320	keystroke_r	r	n/a
590.355	0.135	1180710	keystroke_a	a	n/a
590.475	0.135	1180950	keystroke_c	c	n/a
590.7	0.09	1181400	keystroke_k	k	n/a
590.865	0.075	1181730	keystroke_e	e	n/a
591.825	0.06	1183650	keystroke_d	d	n/a
592.185	0.045	1184370	keystroke_Key.space	Key.space	n/a
593.22	0.075	1186440	keystroke_u	u	n/a
593.535	0.075	1187070	keystroke_l	l	n/a
593.835	0.09	1187670	keystroke_t	t	n/a
593.91	0.105	1187820	keystroke_i	i	n/a
594.075	0.105	1188150	keystroke_m	m	n/a
595.6345	0.075	1191269	keystroke_a	a	n/a
595.7695	0.12	1191539	keystroke_t	t	n/a
595.8895	0.12	1191779	keystroke_e	e	n/a
596.3095	0.075	1192619	keystroke_Key.space	Key.space	n/a
596.9395	0.09	1193879	keystroke_f	f	n/a
597.1345	0.075	1194269	keystroke_o	o	n/a
597.2545	0.09	1194509	keystroke_r	r	n/a
597.5245	0.06	1195049	keystroke_t	t	n/a
598.3045	0.06	1196609	keystroke_Key.enter	Key.enter	n/a
598.369	10.4065	1196738	prompt	n/a	electronics flower canal featured\n
599.0395	0.06	1198079	keystroke_e	e	n/a
599.3095	0.075	1198619	keystroke_l	l	n/a
599.4895	0.075	1198979	keystroke_e	e	n/a
599.7145	0.12	1199429	keystroke_c	c	n/a
600.0145	0.09	1200029	keystroke_t	t	n/a
600.1945	0.09	1200389	keystroke_r	r	n/a
600.3445	0.09	1200689	keystroke_o	o	n/a
600.4945	0.09	1200989	keystroke_n	n	n/a
600.6895	0.09	1201379	keystroke_i	i	n/a
600.8245	0.105	1201649	keystroke_c	c	n/a
601.0645	0.075	1202129	keystroke_s	s	n/a
601.2745	0.045	1202549	keystroke_Key.space	Key.space	n/a
601.5745	0.075	1203149	keystroke_f	f	n/a
601.7095	0.075	1203419	keystroke_l	l	n/a
601.8895	0.075	1203779	keystroke_o	o	n/a
602.0395	0.15	1204079	keystroke_w	w	n/a
602.1745	0.15	1204349	keystroke_e	e	n/a
602.2795	0.105	1204559	keystroke_r	r	n/a
602.6845	0.045	1205369	keystroke_Key.space	Key.space	n/a
602.9845	0.105	1205969	keystroke_c	c	n/a
603.1495	0.105	1206299	keystroke_a	a	n/a
603.2695	0.0895	1206539	keystroke_l	l	n/a
604.184	0.09	1208368	keystroke_Key.backspace	Key.backspace	n/a
604.469	0.09	1208938	keystroke_n	n	n/a
604.619	0.105	1209238	keystroke_a	a	n/a
604.739	0.075	1209478	keystroke_l	l	n/a
604.994	0.075	1209988	keystroke_Key.space	Key.space	n/a
605.939	0.105	1211878	keystroke_d	d	n/a
606.374	0.075	1212748	keystroke_Key.backspace	Key.backspace	n/a
606.479	0.12	1212958	keystroke_f	f	n/a
606.779	0.12	1213558	keystroke_e	e	n/a
606.989	0.135	1213978	keystroke_a	a	n/a
607.214	0.075	1214428	keystroke_t	t	n/a
607.364	0.09	1214728	keystroke_u	u	n/a
607.514	0.12	1215028	keystroke_r	r	n/a
607.589	0.12	1215178	keystroke_e	e	n/a
607.844	0.09	1215688	keystroke_d	d	n/a
608.699	0.075	1217398	keystroke_Key.enter	Key.enter	n/a
608.7785	16.827	1217557	prompt	n/a	citizen barriers cruises briefing\n
609.584	0.075	1219168	keystroke_c	c	n/a
609.765	0.074	1219530	keystroke_i	i	n/a
610.019	0.075	1220038	keystroke_t	t	n/a
610.154	0.09	1220308	keystroke_i	i	n/a
610.904	0.105	1221808	keystroke_x	x	n/a
611.624	0.075	1223248	keystroke_Key.backspace	Key.backspace	n/a
611.999	0.09	1223998	keystroke_z	z	n/a
612.299	0.075	1224598	keystroke_e	e	n/a
612.659	0.045	1225318	keystroke_n	n	n/a
613.304	0.075	1226608	keystroke_Key.space	Key.space	n/a
613.649	0.075	1227298	keystroke_b	b	n/a
613.859	0.09	1227718	keystroke_a	a	n/a
614.084	0.045	1228168	keystroke_r	r	n/a
614.204	0.06	1228408	keystroke_r	r	n/a
614.294	0.09	1228588	keystroke_i	i	n/a
614.399	0.091	1228798	keystroke_e	e	n/a
614.609	0.09	1229218	keystroke_s	s	n/a
615.569	0.06	1231138	keystroke_Key.space	Key.space	n/a
615.8085	0.075	1231617	keystroke_c	c	n/a
617.324	0.045	1234648	keystroke_Key.backspace	Key.backspace	n/a
617.474	0.075	1234948	keystroke_Key.backspace	Key.backspace	n/a
617.789	0.075	1235578	keystroke_Key.backspace	Key.backspace	n/a
618.224	0.09	1236448	keystroke_r	r	n/a
618.449	0.06	1236898	keystroke_s	s	n/a
618.614	0.06	1237228	keystroke_Key.space	Key.space	n/a
619.244	0.076	1238488	keystroke_c	c	n/a
620.0385	0.045	1240077	keystroke_r	r	n/a
620.144	0.075	1240288	keystroke_u	u	n/a
620.9985	0.075	1241997	keystroke_i	i	n/a
621.209	0.0895	1242418	keystroke_s	s	n/a
621.374	0.1045	1242748	keystroke_e	e	n/a
621.5535	0.09	1243107	keystroke_s	s	n/a
621.7035	0.075	1243407	keystroke_Key.space	Key.space	n/a
622.349	0.075	1244698	keystroke_b	b	n/a
622.6785	0.1355	1245357	keystroke_r	r	n/a
623.7135	0.06	1247427	keystroke_i	i	n/a
623.8485	0.06	1247697	keystroke_e	e	n/a
624.1035	0.075	1248207	keystroke_f	f	n/a
624.2685	0.09	1248537	keystroke_i	i	n/a
624.3885	0.09	1248777	keystroke_n	n	n/a
624.6135	0.06	1249227	keystroke_g	g	n/a
625.5435	0.06	1251087	keystroke_Key.enter	Key.enter	n/a
625.6095	10.0005	1251219	prompt	n/a	unable climate vertical assistant\n
626.3235	0.075	1252647	keystroke_u	u	n/a
626.5185	0.075	1253037	keystroke_n	n	n/a
626.6535	0.105	1253307	keystroke_a	a	n/a
627.4035	0.06	1254807	keystroke_b	b	n/a
627.5685	0.09	1255137	keystroke_l	l	n/a
627.7035	0.075	1255407	keystroke_e	e	n/a
627.8685	0.06	1255737	keystroke_Key.space	Key.space	n/a
628.1685	0.075	1256337	keystroke_c	c	n/a
628.2585	0.09	1256517	keystroke_l	l	n/a
628.4535	0.09	1256907	keystroke_i	i	n/a
628.6635	0.09	1257327	keystroke_m	m	n/a
628.8135	0.12	1257627	keystroke_a	a	n/a
628.9645	0.119	1257929	keystroke_t	t	n/a
629.0685	0.105	1258137	keystroke_e	e	n/a
629.2935	0.06	1258587	keystroke_Key.space	Key.space	n/a
629.7885	0.06	1259577	keystroke_v	v	n/a
629.9985	0.15	1259997	keystroke_e	e	n/a
630.0885	0.09	1260177	keystroke_r	r	n/a
630.4185	0.045	1260837	keystroke_t	t	n/a
630.5235	0.075	1261047	keystroke_i	i	n/a
630.7035	0.105	1261407	keystroke_c	c	n/a
631.3035	0.075	1262607	keystroke_a	a	n/a
631.4085	0.09	1262817	keystroke_l	l	n/a
631.6035	0.075	1263207	keystroke_Key.space	Key.space	n/a
632.1145	0.119	1264229	keystroke_a	a	n/a
632.4285	0.045	1264857	keystroke_s	s	n/a
632.5485	0.075	1265097	keystroke_s	s	n/a
632.8485	0.09	1265697	keystroke_i	i	n/a
633.1035	0.12	1266207	keystroke_s	s	n/a
633.4935	0.12	1266987	keystroke_t	t	n/a
633.9895	0.089	1267979	keystroke_a	a	n/a
634.1535	0.075	1268307	keystroke_n	n	n/a
634.3635	0.091	1268727	keystroke_t	t	n/a
635.5635	0.045	1271127	keystroke_Key.enter	Key.enter	n/a
635.614	16.3905	1271228	prompt	n/a	everyone's shopper comm earnings\n
636.4785	0.075	1272957	keystroke_e	e	n/a
637.1835	0.06	1274367	keystroke_v	v	n/a
637.4985	0.15	1274997	keystroke_e	e	n/a
637.5735	0.105	1275147	keystroke_r	r	n/a
638.2785	0.045	1276557	keystroke_y	y	n/a
638.8935	0.121	1277787	keystroke_o	o	n/a
638.9985	0.1055	1277997	keystroke_n	n	n/a
639.254	0.104	1278508	keystroke_e	e	n/a
639.658	0.075	1279316	keystroke_'	'	n/a
639.928	0.09	1279856	keystroke_s	s	n/a
640.153	0.061	1280306	keystroke_Key.space	Key.space	n/a
640.799	0.074	1281598	keystroke_s	s	n/a
640.889	0.075	1281778	keystroke_h	h	n/a
641.158	0.076	1282316	keystroke_p	p	n/a
641.293	0.091	1282586	keystroke_p	p	n/a
641.414	0.164	1282828	keystroke_e	e	n/a
641.504	0.105	1283008	keystroke_r	r	n/a
641.878	0.045	1283756	keystroke_Key.space	Key.space	n/a
642.838	0.075	1285676	keystroke_Key.backspace	Key.backspace	n/a
643.003	0.075	1286006	keystroke_Key.backspace	Key.backspace	n/a
643.273	0.06	1286546	keystroke_Key.backspace	Key.backspace	n/a
643.468	0.075	1286936	keystroke_Key.backspace	Key.backspace	n/a
643.693	0.075	1287386	keystroke_Key.backspace	Key.backspace	n/a
644.054	0.105	1288108	keystroke_o	o	n/a
644.309	0.09	1288618	keystroke_p	p	n/a
644.459	0.075	1288918	keystroke_p	p	n/a
644.639	0.165	1289278	keystroke_e	e	n/a
644.714	0.105	1289428	keystroke_r	r	n/a
645.283	0.075	1290566	keystroke_Key.space	Key.space	n/a
645.974	0.075	1291948	keystroke_c	c	n/a
646.214	0.12	1292428	keystroke_o	o	n/a
646.604	0.06	1293208	keystroke_m	m	n/a
646.739	0.075	1293478	keystroke_m	m	n/a
647.008	0.075	1294016	keystroke_Key.space	Key.space	n/a
648.8535	0.105	1297707	keystroke_e	e	n/a
649.4685	0.105	1298937	keystroke_a	a	n/a
649.7535	0.045	1299507	keystroke_r	r	n/a
650.1585	0.075	1300317	keystroke_n	n	n/a
650.2935	0.12	1300587	keystroke_i	i	n/a
650.4135	0.075	1300827	keystroke_n	n	n/a
650.5485	0.105	1301097	keystroke_g	g	n/a
651.3135	0.09	1302627	keystroke_s	s	n/a
651.9285	0.075	1303857	keystroke_Key.enter	Key.enter	n/a
652.0075	16.121	1304015	prompt	n/a	rose into televisions distances\n
652.8585	0.165	1305717	keystroke_r	r	n/a
653.1735	0.09	1306347	keystroke_o	o	n/a
653.4435	0.105	1306887	keystroke_s	s	n/a
653.5335	0.09	1307067	keystroke_e	e	n/a
653.6835	0.075	1307367	keystroke_Key.space	Key.space	n/a
653.8785	0.135	1307757	keystroke_i	i	n/a
653.9985	0.075	1307997	keystroke_n	n	n/a
654.7785	0.075	1309557	keystroke_o	o	n/a
655.0635	0.075	1310127	keystroke_Key.space	Key.space	n/a
655.393	0.075	1310786	keystroke_Key.backspace	Key.backspace	n/a
655.528	0.075	1311056	keystroke_Key.backspace	Key.backspace	n/a
655.708	0.06	1311416	keystroke_t	t	n/a
655.813	0.09	1311626	keystroke_o	o	n/a
656.308	0.06	1312616	keystroke_Key.space	Key.space	n/a
656.623	0.135	1313246	keystroke_r	r	n/a
656.698	0.15	1313396	keystroke_e	e	n/a
656.983	0.09	1313966	keystroke_l	l	n/a
657.388	0.06	1314776	keystroke_Key.backspace	Key.backspace	n/a
657.553	0.06	1315106	keystroke_Key.backspace	Key.backspace	n/a
657.808	0.06	1315616	keystroke_Key.backspace	Key.backspace	n/a
658.048	0.075	1316096	keystroke_t	t	n/a
658.498	0.075	1316996	keystroke_e	e	n/a
659.518	0.075	1319036	keystroke_l	l	n/a
659.908	0.075	1319816	keystroke_e	e	n/a
660.118	0.09	1320236	keystroke_v	v	n/a
663.465	0.028	1326930	keystroke_i	i	n/a
663.613	0.105	1327226	keystroke_s	s	n/a
663.703	0.12	1327406	keystroke_i	i	n/a
663.778	0.18	1327556	keystroke_o	o	n/a
663.913	0.075	1327826	keystroke_n	n	n/a
664.633	0.075	1329266	keystroke_s	s	n/a
664.768	0.06	1329536	keystroke_Key.space	Key.space	n/a
665.098	0.09	1330196	keystroke_d	d	n/a
665.308	0.09	1330616	keystroke_i	i	n/a
665.698	0.105	1331396	keystroke_s	s	n/a
665.983	0.09	1331966	keystroke_t	t	n/a
666.178	0.105	1332356	keystroke_a	a	n/a
666.343	0.09	1332686	keystroke_n	n	n/a
666.478	0.135	1332956	keystroke_c	c	n/a
666.583	0.135	1333166	keystroke_e	e	n/a
666.823	0.105	1333646	keystroke_s	s	n/a
668.0825	0.045	1336165	keystroke_Key.enter	Key.enter	n/a
668.132	15.3265	1336264	prompt	n/a	besides sampling classifieds living\n
671.2645	0	1342529	keystroke_b	b	n/a
671.3225	0.09	1342645	keystroke_e	e	n/a
671.5925	0.075	1343185	keystroke_s	s	n/a
671.6825	0.09	1343365	keystroke_i	i	n/a
671.9375	0.075	1343875	keystroke_d	d	n/a
672.1325	0.06	1344265	keystroke_e	e	n/a
672.5975	0.075	1345195	keystroke_s	s	n/a
674.652	0.03	1349304	keystroke_Key.space	Key.space	n/a
675.357	0.015	1350714	keystroke_s	s	n/a
675.447	0.09	1350894	keystroke_a	a	n/a
675.597	0.075	1351194	keystroke_m	m	n/a
675.762	0.105	1351524	keystroke_p	p	n/a
675.957	0.09	1351914	keystroke_l	l	n/a
676.122	0.105	1352244	keystroke_i	i	n/a
676.227	0.09	1352454	keystroke_n	n	n/a
676.362	0.09	1352724	keystroke_g	g	n/a
676.497	0.075	1352994	keystroke_Key.space	Key.space	n/a
676.962	0.075	1353924	keystroke_c	c	n/a
677.217	0.075	1354434	keystroke_l	l	n/a
677.577	0.075	1355154	keystroke_a	a	n/a
677.862	0.03	1355724	keystroke_s	s	n/a
677.952	0.075	1355904	keystroke_s	s	n/a
678.117	0.075	1356234	keystroke_i	i	n/a
678.297	0.06	1356594	keystroke_f	f	n/a
679.197	0.075	1358394	keystroke_i	i	n/a
679.302	0.105	1358604	keystroke_e	e	n/a
679.527	0.12	1359054	keystroke_d	d	n/a
679.707	0.09	1359414	keystroke_s	s	n/a
679.842	0.075	1359684	keystroke_Key.space	Key.space	n/a
680.052	0.06	1360104	keystroke_l	l	n/a
680.217	0.075	1360434	keystroke_i	i	n/a
680.532	0.075	1361064	keystroke_v	v	n/a
680.742	0.12	1361484	keystroke_i	i	n/a
680.862	0.075	1361724	keystroke_n	n	n/a
680.997	0.09	1361994	keystroke_g	g	n/a
681.717	0.075	1363434	keystroke_Key.space	Key.space	n/a
682.587	0.075	1365174	keystroke_Key.backspace	Key.backspace	n/a
683.382	0.075	1366764	keystroke_Key.enter	Key.enter	n/a
683.461	13.977	1366922	prompt	n/a	cartridges tray pharmaceutical pentium\n
684.327	0.06	1368654	keystroke_c	c	n/a
684.672	0.105	1369344	keystroke_a	a	n/a
684.882	0.09	1369764	keystroke_r	r	n/a
685.107	0.09	1370214	keystroke_t	t	n/a
685.317	0.075	1370634	keystroke_r	r	n/a
685.497	0.075	1370994	keystroke_i	i	n/a
685.947	0.09	1371894	keystroke_d	d	n/a
686.1715	0.075	1372343	keystroke_g	g	n/a
686.3215	0.0905	1372643	keystroke_e	e	n/a
686.532	0.0895	1373064	keystroke_s	s	n/a
686.7265	0.075	1373453	keystroke_Key.space	Key.space	n/a
687.0415	0.09	1374083	keystroke_t	t	n/a
687.2215	0.105	1374443	keystroke_r	r	n/a
687.4165	0.12	1374833	keystroke_a	a	n/a
687.7315	0.06	1375463	keystroke_y	y	n/a
687.9565	0.09	1375913	keystroke_Key.space	Key.space	n/a
688.1965	0.09	1376393	keystroke_p	p	n/a
688.722	0.075	1377444	keystroke_h	h	n/a
689.097	0.105	1378194	keystroke_a	a	n/a
689.367	0.09	1378734	keystroke_r	r	n/a
689.517	0.09	1379034	keystroke_m	m	n/a
690.567	0.09	1381134	keystroke_a	a	n/a
691.002	0.09	1382004	keystroke_c	c	n/a
691.287	0.075	1382574	keystroke_e	e	n/a
691.767	0.075	1383534	keystroke_u	u	n/a
692.082	0.045	1384164	keystroke_t	t	n/a
692.157	0.089	1384314	keystroke_i	i	n/a
692.412	0.075	1384824	keystroke_c	c	n/a
692.501	0.091	1385002	keystroke_a	a	n/a
693.267	0.075	1386534	keystroke_l	l	n/a
693.521	0.046	1387042	keystroke_Key.space	Key.space	n/a
694.332	0.075	1388664	keystroke_p	p	n/a
694.497	0.09	1388994	keystroke_e	e	n/a
694.677	0.045	1389354	keystroke_n	n	n/a
694.872	0.105	1389744	keystroke_t	t	n/a
695.082	0.09	1390164	keystroke_i	i	n/a
695.382	0.06	1390764	keystroke_u	u	n/a
696.252	0.06	1392504	keystroke_m	m	n/a
697.377	0.059	1394754	keystroke_Key.enter	Key.enter	n/a
697.4415	7.376	1394883	prompt	n/a	wound lenders alexander pipe\n
698.172	0.105	1396344	keystroke_w	w	n/a
698.352	0.15	1396704	keystroke_o	o	n/a
698.487	0.045	1396974	keystroke_u	u	n/a
698.697	0.09	1397394	keystroke_n	n	n/a
698.877	0.09	1397754	keystroke_d	d	n/a
699.027	0.075	1398054	keystroke_Key.space	Key.space	n/a
699.852	0.09	1399704	keystroke_l	l	n/a
699.987	0.075	1399974	keystroke_e	e	n/a
700.122	0.075	1400244	keystroke_n	n	n/a
700.302	0.075	1400604	keystroke_d	d	n/a
700.482	0.15	1400964	keystroke_e	e	n/a
700.572	0.075	1401144	keystroke_r	r	n/a
700.752	0.075	1401504	keystroke_s	s	n/a
700.857	0.075	1401714	keystroke_Key.space	Key.space	n/a
701.112	0.09	1402224	keystroke_a	a	n/a
701.217	0.075	1402434	keystroke_l	l	n/a
701.367	0.09	1402734	keystroke_e	e	n/a
701.637	0.12	1403274	keystroke_x	x	n/a
701.937	0.06	1403874	keystroke_a	a	n/a
702.042	0.06	1404084	keystroke_n	n	n/a
702.372	0.075	1404744	keystroke_d	d	n/a
702.567	0.15	1405134	keystroke_e	e	n/a
702.672	0.075	1405344	keystroke_r	r	n/a
702.852	0.06	1405704	keystroke_Key.space	Key.space	n/a
703.032	0.075	1406064	keystroke_p	p	n/a
703.317	0.105	1406634	keystroke_i	i	n/a
703.587	0.075	1407174	keystroke_p	p	n/a
703.962	0.09	1407924	keystroke_e	e	n/a
704.772	0.045	1409544	keystroke_Key.enter	Key.enter	n/a
704.821	8.652	1409642	prompt	n/a	clock exam explosion tanks\n
705.477	0.09	1410954	keystroke_c	c	n/a
705.582	0.09	1411164	keystroke_l	l	n/a
705.777	0.06	1411554	keystroke_o	o	n/a
705.882	0.09	1411764	keystroke_c	c	n/a
706.002	0.075	1412004	keystroke_k	k	n/a
706.167	0.075	1412334	keystroke_Key.space	Key.space	n/a
706.422	0.06	1412844	keystroke_e	e	n/a
706.797	0.105	1413594	keystroke_x	x	n/a
707.142	0.06	1414284	keystroke_a	a	n/a
707.352	0.06	1414704	keystroke_m	m	n/a
707.592	0.06	1415184	keystroke_Key.space	Key.space	n/a
708.132	0.075	1416264	keystroke_e	e	n/a
708.792	0.105	1417584	keystroke_x	x	n/a
709.017	0.075	1418034	keystroke_p	p	n/a
709.227	0.06	1418454	keystroke_l	l	n/a
709.392	0.075	1418784	keystroke_o	o	n/a
709.557	0.12	1419114	keystroke_s	s	n/a
709.722	0.165	1419444	keystroke_i	i	n/a
710.757	0.075	1421514	keystroke_o	o	n/a
710.937	0.075	1421874	keystroke_n	n	n/a
711.492	0.06	1422984	keystroke_Key.space	Key.space	n/a
711.747	0.075	1423494	keystroke_t	t	n/a
711.897	0.12	1423794	keystroke_a	a	n/a
712.002	0.225	1424004	keystroke_n	n	n/a
712.512	0.09	1425024	keystroke_k	k	n/a
712.692	0.105	1425384	keystroke_s	s	n/a
713.412	0.06	1426824	keystroke_Key.enter	Key.enter	n/a
713.4775	9.4005	1426955	prompt	n/a	shall inquiry free sanyo\n
714.222	0.09	1428444	keystroke_s	s	n/a
714.402	0.06	1428804	keystroke_h	h	n/a
714.552	0.09	1429104	keystroke_a	a	n/a
714.702	0.06	1429404	keystroke_l	l	n/a
714.852	0.045	1429704	keystroke_l	l	n/a
714.987	0.09	1429974	keystroke_Key.space	Key.space	n/a
715.212	0.075	1430424	keystroke_i	i	n/a
715.377	0.075	1430754	keystroke_n	n	n/a
715.992	0.06	1431984	keystroke_u	u	n/a
716.412	0.09	1432824	keystroke_Key.backspace	Key.backspace	n/a
717.207	0.12	1434414	keystroke_q	q	n/a
717.417	0.06	1434834	keystroke_u	u	n/a
718.632	0.075	1437264	keystroke_i	i	n/a
718.812	0.075	1437624	keystroke_r	r	n/a
718.932	0.075	1437864	keystroke_y	y	n/a
719.382	0.06	1438764	keystroke_Key.space	Key.space	n/a
719.982	0.06	1439964	keystroke_f	f	n/a
720.282	0.06	1440564	keystroke_r	r	n/a
720.552	0.045	1441104	keystroke_e	e	n/a
720.657	0.075	1441314	keystroke_e	e	n/a
720.852	0.075	1441704	keystroke_Key.space	Key.space	n/a
721.167	0.075	1442334	keystroke_s	s	n/a
721.332	0.09	1442664	keystroke_a	a	n/a
721.437	0.075	1442874	keystroke_n	n	n/a
721.767	0.075	1443534	keystroke_y	y	n/a
722.022	0.075	1444044	keystroke_o	o	n/a
722.817	0.06	1445634	keystroke_Key.enter	Key.enter	n/a
722.881	15.986	1445762	prompt	n/a	societies indianapolis tests skirt\n
724.002	0.075	1448004	keystroke_s	s	n/a
724.227	0.075	1448454	keystroke_o	o	n/a
724.452	0.075	1448904	keystroke_c	c	n/a
724.632	0.075	1449264	keystroke_i	i	n/a
725.052	0.09	1450104	keystroke_e	e	n/a
725.322	0.105	1450644	keystroke_t	t	n/a
725.502	0.09	1451004	keystroke_i	i	n/a
725.637	0.105	1451274	keystroke_e	e	n/a
725.862	0.105	1451724	keystroke_s	s	n/a
726.132	0.06	1452264	keystroke_Key.space	Key.space	n/a
726.507	0.075	1453014	keystroke_i	i	n/a
726.657	0.105	1453314	keystroke_n	n	n/a
727.032	0.105	1454064	keystroke_d	d	n/a
727.6915	0.075	1455383	keystroke_i	i	n/a
727.9165	0.105	1455833	keystroke_a	a	n/a
728.0815	0.075	1456163	keystroke_n	n	n/a
730.949	0.027	1461898	keystroke_a	a	n/a
731.306	0.045	1462612	keystroke_o	o	n/a
732.401	0.075	1464802	keystroke_Key.backspace	Key.backspace	n/a
733.406	0.075	1466812	keystroke_p	p	n/a
733.616	0.105	1467232	keystroke_o	o	n/a
734.126	0.105	1468252	keystroke_l	l	n/a
734.306	0.105	1468612	keystroke_i	i	n/a
734.501	0.12	1469002	keystroke_s	s	n/a
734.756	0.075	1469512	keystroke_Key.space	Key.space	n/a
735.8805	0.135	1471761	keystroke_t	t	n/a
736.0455	0.136	1472091	keystroke_e	e	n/a
736.3015	0.089	1472603	keystroke_s	s	n/a
736.4355	0.15	1472871	keystroke_t	t	n/a
736.7355	0.105	1473471	keystroke_s	s	n/a
