onset	duration	sample	value	key	prompt_text
1.6615	12.8795	3323	prompt	n/a	the quick brown fox jumps over a lazy dog\n
3.798	0.0125	7596	keystroke_t	t	n/a
3.826	0.074	7652	keystroke_h	h	n/a
3.93	0.105	7860	keystroke_e	e	n/a
4.139	0.0755	8278	keystroke_Key.space	Key.space	n/a
4.588	0.104	9176	keystroke_q	q	n/a
4.902	0.105	9804	keystroke_y	y	n/a
4.9475	0.074	9895	keystroke_u	u	n/a
5.6495	0.0745	11299	keystroke_Key.backspace	Key.backspace	n/a
5.7835	0.09	11567	keystroke_Key.backspace	Key.backspace	n/a
6.456	0.089	12912	keystroke_u	u	n/a
6.5	0.121	13000	keystroke_i	i	n/a
6.7545	0.105	13509	keystroke_c	c	n/a
6.8455	0.0785	13691	keystroke_k	k	n/a
6.989	0.12	13978	keystroke_Key.space	Key.space	n/a
7.4225	0.09	14845	keystroke_b	b	n/a
7.731	0.1095	15462	keystroke_r	r	n/a
7.8855	0.075	15771	keystroke_o	o	n/a
8.0795	0.105	16159	keystroke_w	w	n/a
8.245	0.089	16490	keystroke_n	n	n/a
8.379	0.12	16758	keystroke_Key.space	Key.space	n/a
9.367	0.0915	18734	keystroke_f	f	n/a
9.5785	0.06	19157	keystroke_o	o	n/a
9.668	0.105	19336	keystroke_x	x	n/a
9.8025	0.1045	19605	keystroke_Key.space	Key.space	n/a
10.135	0.0745	20270	keystroke_j	j	n/a
10.1795	0.12	20359	keystroke_u	u	n/a
10.4655	0.1655	20931	keystroke_m	m	n/a
10.585	0.0905	21170	keystroke_p	p	n/a
11.0645	0.1195	22129	keystroke_s	s	n/a
11.1995	0.104	22399	keystroke_Key.space	Key.space	n/a
11.694	0.0745	23388	keystroke_o	o	n/a
11.844	0.09	23688	keystroke_v	v	n/a
12.0245	0.1345	24049	keystroke_e	e	n/a
12.114	0.149	24228	keystroke_r	r	n/a
12.2185	0.1195	24437	keystroke_Key.space	Key.space	n/a
12.354	0.1345	24708	keystroke_a	a	n/a
12.4735	0.104	24947	keystroke_Key.space	Key.space	n/a
12.668	0.134	25336	keystroke_l	l	n/a
12.7875	0.1055	25575	keystroke_a	a	n/a
13.0125	0.1055	26025	keystroke_z	z	n/a
13.103	0.104	26206	keystroke_y	y	n/a
13.222	0.12	26444	keystroke_Key.space	Key.space	n/a
13.899	0.1045	27798	keystroke_d	d	n/a
14.1675	0.0905	28335	keystroke_o	o	n/a
14.2725	0.0905	28545	keystroke_g	g	n/a
14.423	0.105	28846	keystroke_Key.enter	Key.enter	n/a
14.551	15.143	29102	prompt	n/a	presence microsoft norton motivated\n
15.414	0.119	30828	keystroke_p	p	n/a
15.503	0.0905	31006	keystroke_r	r	n/a
15.563	0.12	31126	keystroke_e	e	n/a
15.863	0.1495	31726	keystroke_s	s	n/a
15.9825	0.1055	31965	keystroke_e	e	n/a
16.433	0.075	32866	keystroke_n	n	n/a
16.523	0.0895	33046	keystroke_c	c	n/a
16.5825	0.15	33165	keystroke_e	e	n/a
16.9435	0.104	33887	keystroke_Key.space	Key.space	n/a
17.499	0.104	34998	keystroke_m	m	n/a
17.5735	0.105	35147	keystroke_i	i	n/a
18.023	0.09	36046	keystroke_c	c	n/a
18.308	0.1045	36616	keystroke_r	r	n/a
18.383	0.105	36766	keystroke_i	i	n/a
18.653	0.089	37306	keystroke_s	s	n/a
19.222	0.09	38444	keystroke_Key.backspace	Key.backspace	n/a
19.4765	0.1055	38953	keystroke_Key.backspace	Key.backspace	n/a
20.0925	0.09	40185	keystroke_o	o	n/a
20.1675	0.105	40335	keystroke_s	s	n/a
20.2875	0.0895	40575	keystroke_o	o	n/a
20.4675	0.1055	40935	keystroke_f	f	n/a
20.7235	0.0885	41447	keystroke_t	t	n/a
20.902	0.1205	41804	keystroke_Key.space	Key.space	n/a
22.192	0.1205	44384	keystroke_n	n	n/a
22.2525	0.2085	44505	keystroke_o	o	n/a
22.447	0.0755	44894	keystroke_t	t	n/a
22.8975	0.1345	45795	keystroke_n	n	n/a
22.9865	0.1955	45973	keystroke_o	o	n/a
23.512	0.09	47024	keystroke_t	t	n/a
23.9015	0.106	47803	keystroke_Key.backspace	Key.backspace	n/a
24.5175	0.075	49035	keystroke_Key.backspace	Key.backspace	n/a
24.667	0.12	49334	keystroke_Key.backspace	Key.backspace	n/a
25.5665	0.1205	51133	keystroke_Key.backspace	Key.backspace	n/a
25.8665	0.09	51733	keystroke_r	r	n/a
26.0325	0.1045	52065	keystroke_t	t	n/a
26.3015	0.12	52603	keystroke_o	o	n/a
26.4805	0.091	52961	keystroke_n	n	n/a
26.677	0.135	53354	keystroke_Key.space	Key.space	n/a
27.231	0.15	54462	keystroke_m	m	n/a
27.3365	0.181	54673	keystroke_o	o	n/a
27.607	0.105	55214	keystroke_t	t	n/a
27.682	0.105	55364	keystroke_i	i	n/a
28.492	0.0905	56984	keystroke_v	v	n/a
28.672	0.12	57344	keystroke_a	a	n/a
28.9865	0.0915	57973	keystroke_t	t	n/a
29.122	0.135	58244	keystroke_e	e	n/a
29.317	0.119	58634	keystroke_d	d	n/a
29.5725	0.1195	59145	keystroke_Key.enter	Key.enter	n/a
29.6995	9.7445	59399	prompt	n/a	friend pursuit merchant accidents\n
30.5775	0.0745	61155	keystroke_f	f	n/a
30.742	0.1205	61484	keystroke_r	r	n/a
30.877	0.105	61754	keystroke_i	i	n/a
31.177	0.09	62354	keystroke_e	e	n/a
31.327	0.104	62654	keystroke_n	n	n/a
31.521	0.0905	63042	keystroke_d	d	n/a
31.866	0.105	63732	keystroke_Key.space	Key.space	n/a
32.437	0.0745	64874	keystroke_p	p	n/a
32.811	0.0755	65622	keystroke_u	u	n/a
32.887	0.105	65774	keystroke_r	r	n/a
33.1115	0.105	66223	keystroke_s	s	n/a
33.3675	0.164	66735	keystroke_u	u	n/a
33.442	0.1645	66884	keystroke_i	i	n/a
33.637	0.1195	67274	keystroke_t	t	n/a
33.951	0.105	67902	keystroke_Key.space	Key.space	n/a
34.597	0.059	69194	keystroke_e	e	n/a
35.151	0.1505	70302	keystroke_Key.backspace	Key.backspace	n/a
35.482	0.12	70964	keystroke_m	m	n/a
35.571	0.0905	71142	keystroke_e	e	n/a
36.141	0.09	72282	keystroke_r	r	n/a
36.336	0.105	72672	keystroke_c	c	n/a
36.411	0.09	72822	keystroke_h	h	n/a
36.516	0.105	73032	keystroke_a	a	n/a
36.666	0.105	73332	keystroke_n	n	n/a
36.876	0.0895	73752	keystroke_t	t	n/a
37.1915	0.1195	74383	keystroke_Key.space	Key.space	n/a
37.612	0.0895	75224	keystroke_a	a	n/a
37.8215	0.06	75643	keystroke_c	c	n/a
37.9855	0.0755	75971	keystroke_c	c	n/a
38.122	0.12	76244	keystroke_i	i	n/a
38.347	0.0745	76694	keystroke_d	d	n/a
38.5115	0.106	77023	keystroke_e	e	n/a
38.6185	0.1335	77237	keystroke_n	n	n/a
38.782	0.0745	77564	keystroke_t	t	n/a
38.9015	0.134	77803	keystroke_s	s	n/a
39.3355	0.1055	78671	keystroke_Key.enter	Key.enter	n/a
39.4475	11.996	78895	prompt	n/a	violence investigations word lock\n
40.146	0.12	80292	keystroke_c	c	n/a
40.431	0.18	80862	keystroke_i	i	n/a
40.521	0.1355	81042	keystroke_o	o	n/a
40.867	0.149	81734	keystroke_l	l	n/a
41.167	0.074	82334	keystroke_u	u	n/a
41.4815	0.075	82963	keystroke_Key.backspace	Key.backspace	n/a
41.616	0.0755	83232	keystroke_Key.backspace	Key.backspace	n/a
41.7515	0.075	83503	keystroke_Key.backspace	Key.backspace	n/a
41.9005	0.061	83801	keystroke_Key.backspace	Key.backspace	n/a
42.036	0.0445	84072	keystroke_Key.backspace	Key.backspace	n/a
42.156	0.0595	84312	keystroke_Key.backspace	Key.backspace	n/a
42.306	0.105	84612	keystroke_Key.backspace	Key.backspace	n/a
42.591	0.1055	85182	keystroke_v	v	n/a
42.7565	0.1945	85513	keystroke_i	i	n/a
42.936	0.09	85872	keystroke_o	o	n/a
43.341	0.12	86682	keystroke_l	l	n/a
43.446	0.12	86892	keystroke_e	e	n/a
43.881	0.1195	87762	keystroke_n	n	n/a
43.956	0.135	87912	keystroke_c	c	n/a
44.106	0.0905	88212	keystroke_e	e	n/a
44.5855	0.1205	89171	keystroke_Key.space	Key.space	n/a
45.531	0.135	91062	keystroke_i	i	n/a
45.576	0.1355	91152	keystroke_n	n	n/a
45.7715	0.0895	91543	keystroke_v	v	n/a
45.951	0.2245	91902	keystroke_e	e	n/a
46.491	0.12	92982	keystroke_s	s	n/a
47.332	0.0885	94664	keystroke_t	t	n/a
47.4365	0.089	94873	keystroke_i	i	n/a
47.646	0.0895	95292	keystroke_g	g	n/a
47.796	0.135	95592	keystroke_a	a	n/a
48.1255	0.0905	96251	keystroke_t	t	n/a
48.2305	0.1205	96461	keystroke_i	i	n/a
48.291	0.135	96582	keystroke_o	o	n/a
48.441	0.135	96882	keystroke_n	n	n/a
48.6055	0.1505	97211	keystroke_s	s	n/a
48.9965	0.134	97993	keystroke_Key.space	Key.space	n/a
49.371	0.18	98742	keystroke_w	w	n/a
49.491	0.0895	98982	keystroke_o	o	n/a
49.641	0.104	99282	keystroke_r	r	n/a
50.0305	0.1055	100061	keystroke_d	d	n/a
50.211	0.1355	100422	keystroke_Key.space	Key.space	n/a
50.676	0.09	101352	keystroke_l	l	n/a
50.841	0.1345	101682	keystroke_o	o	n/a
51.006	0.1055	102012	keystroke_c	c	n/a
51.066	0.105	102132	keystroke_k	k	n/a
51.32	0.121	102640	keystroke_Key.enter	Key.enter	n/a
51.4485	12.1145	102897	prompt	n/a	executive television hits before\n
52.1755	0.09	104351	keystroke_e	e	n/a
52.401	0.15	104802	keystroke_x	x	n/a
52.611	0.0895	105222	keystroke_e	e	n/a
53.1205	0.075	106241	keystroke_c	c	n/a
53.436	0.12	106872	keystroke_u	u	n/a
53.571	0.1045	107142	keystroke_t	t	n/a
53.721	0.1345	107442	keystroke_i	i	n/a
53.8405	0.1055	107681	keystroke_v	v	n/a
54.006	0.1345	108012	keystroke_e	e	n/a
54.516	0.12	109032	keystroke_Key.space	Key.space	n/a
55.041	0.134	110082	keystroke_t	t	n/a
55.1455	0.09	110291	keystroke_e	e	n/a
55.356	0.09	110712	keystroke_e	e	n/a
55.8205	0.09	111641	keystroke_Key.backspace	Key.backspace	n/a
56.0155	0.105	112031	keystroke_Key.backspace	Key.backspace	n/a
56.586	0.1045	113172	keystroke_e	e	n/a
56.6755	0.1205	113351	keystroke_l	l	n/a
56.7805	0.136	113561	keystroke_e	e	n/a
57.3205	0.0895	114641	keystroke_v	v	n/a
57.546	0.0895	115092	keystroke_i	i	n/a
57.65	0.1205	115300	keystroke_s	s	n/a
57.7855	0.1495	115571	keystroke_o	o	n/a
58.235	0.1055	116470	keystroke_Key.backspace	Key.backspace	n/a
58.791	0.1345	117582	keystroke_i	i	n/a
58.835	0.1505	117670	keystroke_o	o	n/a
59.075	0.135	118150	keystroke_n	n	n/a
59.646	0.1195	119292	keystroke_Key.space	Key.space	n/a
60.351	0.149	120702	keystroke_h	h	n/a
60.4255	0.1655	120851	keystroke_i	i	n/a
60.5165	0.09	121033	keystroke_t	t	n/a
60.6365	0.149	121273	keystroke_s	s	n/a
60.8005	0.1495	121601	keystroke_Key.space	Key.space	n/a
61.476	0.0895	122952	keystroke_v	v	n/a
61.8205	0.1055	123641	keystroke_Key.backspace	Key.backspace	n/a
61.8665	0.12	123733	keystroke_b	b	n/a
62.046	0.135	124092	keystroke_e	e	n/a
62.6905	0.1055	125381	keystroke_f	f	n/a
62.841	0.15	125682	keystroke_o	o	n/a
62.931	0.12	125862	keystroke_r	r	n/a
63.036	0.105	126072	keystroke_e	e	n/a
63.441	0.1195	126882	keystroke_Key.enter	Key.enter	n/a
63.566	8.5925	127132	prompt	n/a	sugar pubs greg elegant\n
64.491	0.1655	128982	keystroke_s	s	n/a
64.5655	0.1505	129131	keystroke_u	u	n/a
64.671	0.0595	129342	keystroke_s	s	n/a
64.746	0.09	129492	keystroke_g	g	n/a
65.0305	0.1055	130061	keystroke_a	a	n/a
65.1805	0.1045	130361	keystroke_r	r	n/a
65.391	0.134	130782	keystroke_Key.space	Key.space	n/a
65.826	0.09	131652	keystroke_Key.backspace	Key.backspace	n/a
65.9605	0.0905	131921	keystroke_Key.backspace	Key.backspace	n/a
66.1105	0.0605	132221	keystroke_Key.backspace	Key.backspace	n/a
66.246	0.059	132492	keystroke_Key.backspace	Key.backspace	n/a
66.3655	0.1205	132731	keystroke_Key.backspace	Key.backspace	n/a
66.531	0.0755	133062	keystroke_g	g	n/a
66.6805	0.106	133361	keystroke_a	a	n/a
66.8005	0.1055	133601	keystroke_r	r	n/a
67.0415	0.1195	134083	keystroke_Key.space	Key.space	n/a
67.5965	0.1645	135193	keystroke_p	p	n/a
68.0155	0.1205	136031	keystroke_u	u	n/a
68.331	0.1045	136662	keystroke_b	b	n/a
68.4505	0.12	136901	keystroke_s	s	n/a
68.616	0.1355	137232	keystroke_Key.space	Key.space	n/a
69.426	0.1195	138852	keystroke_g	g	n/a
69.5765	0.0595	139153	keystroke_r	r	n/a
69.5915	0.1495	139183	keystroke_e	e	n/a
69.9815	0.1195	139963	keystroke_g	g	n/a
70.311	0.105	140622	keystroke_Key.space	Key.space	n/a
70.656	0.1205	141312	keystroke_e	e	n/a
70.836	0.15	141672	keystroke_l	l	n/a
70.911	0.09	141822	keystroke_e	e	n/a
71.3605	0.0755	142721	keystroke_g	g	n/a
71.511	0.09	143022	keystroke_a	a	n/a
71.646	0.0895	143292	keystroke_n	n	n/a
71.751	0.09	143502	keystroke_t	t	n/a
72.036	0.119	144072	keystroke_Key.enter	Key.enter	n/a
72.166	9.8615	144332	prompt	n/a	pressing voice collect experimental\n
73.2065	0.09	146413	keystroke_p	p	n/a
73.2505	0.105	146501	keystroke_r	r	n/a
73.3105	0.1355	146621	keystroke_e	e	n/a
73.4905	0.091	146981	keystroke_s	s	n/a
73.6565	0.119	147313	keystroke_s	s	n/a
73.8665	0.15	147733	keystroke_i	i	n/a
74.0765	0.105	148153	keystroke_n	n	n/a
74.1655	0.12	148331	keystroke_g	g	n/a
74.3305	0.1355	148661	keystroke_Key.space	Key.space	n/a
74.541	0.12	149082	keystroke_v	v	n/a
74.646	0.12	149292	keystroke_o	o	n/a
74.8255	0.1505	149651	keystroke_i	i	n/a
74.931	0.1205	149862	keystroke_c	c	n/a
75.0665	0.195	150133	keystroke_e	e	n/a
75.246	0.165	150492	keystroke_Key.space	Key.space	n/a
75.621	0.1055	151242	keystroke_c	c	n/a
75.7555	0.1055	151511	keystroke_o	o	n/a
76.251	0.075	152502	keystroke_l	l	n/a
76.386	0.1355	152772	keystroke_l	l	n/a
76.9415	0.1345	153883	keystroke_e	e	n/a
77.121	0.09	154242	keystroke_c	c	n/a
77.376	0.06	154752	keystroke_t	t	n/a
77.5565	0.0895	155113	keystroke_Key.space	Key.space	n/a
77.961	0.12	155922	keystroke_e	e	n/a
78.216	0.09	156432	keystroke_x	x	n/a
78.306	0.12	156612	keystroke_p	p	n/a
78.531	0.1205	157062	keystroke_e	e	n/a
78.9215	0.0895	157843	keystroke_r	r	n/a
79.1465	0.105	158293	keystroke_i	i	n/a
79.3715	0.105	158743	keystroke_m	m	n/a
79.4915	0.045	158983	keystroke_a	a	n/a
79.942	0.134	159884	keystroke_Key.backspace	Key.backspace	n/a
80.032	0.1045	160064	keystroke_e	e	n/a
80.3465	0.135	160693	keystroke_n	n	n/a
80.526	0.0755	161052	keystroke_t	t	n/a
81.0365	0.09	162073	keystroke_a	a	n/a
81.2765	0.105	162553	keystroke_l	l	n/a
81.8765	0.1495	163753	keystroke_Key.enter	Key.enter	n/a
82.031	14.1575	164062	prompt	n/a	superintendent hazards wolf text\n
83.136	0.165	166272	keystroke_s	s	n/a
83.302	0.134	166604	keystroke_u	u	n/a
84.2455	0.09	168491	keystroke_p	p	n/a
84.3205	0.1505	168641	keystroke_e	e	n/a
84.412	0.1045	168824	keystroke_r	r	n/a
84.7115	0.12	169423	keystroke_i	i	n/a
84.846	0.1355	169692	keystroke_n	n	n/a
84.9955	0.09	169991	keystroke_t	t	n/a
85.1315	0.1045	170263	keystroke_e	e	n/a
85.3565	0.1345	170713	keystroke_n	n	n/a
86.601	0.06	173202	keystroke_t	t	n/a
87.096	0.12	174192	keystroke_Key.backspace	Key.backspace	n/a
87.1715	0.0745	174343	keystroke_d	d	n/a
87.351	0.1055	174702	keystroke_e	e	n/a
87.591	0.106	175182	keystroke_t	t	n/a
88.1165	0.0745	176233	keystroke_Key.backspace	Key.backspace	n/a
88.341	0.1345	176682	keystroke_n	n	n/a
88.416	0.105	176832	keystroke_t	t	n/a
89.5565	0.1195	179113	keystroke_Key.space	Key.space	n/a
90.291	0.1205	180582	keystroke_h	h	n/a
90.3815	0.12	180763	keystroke_a	a	n/a
90.7265	0.074	181453	keystroke_z	z	n/a
90.8755	0.1205	181751	keystroke_a	a	n/a
91.1315	0.105	182263	keystroke_r	r	n/a
91.9415	0.12	183883	keystroke_d	d	n/a
92.032	0.119	184064	keystroke_s	s	n/a
92.6155	0.136	185231	keystroke_Key.space	Key.space	n/a
92.9165	0.0895	185833	keystroke_w	w	n/a
92.9915	0.0745	185983	keystroke_o	o	n/a
93.5315	0.1205	187063	keystroke_l	l	n/a
93.6365	0.1045	187273	keystroke_f	f	n/a
93.7855	0.1505	187571	keystroke_Key.space	Key.space	n/a
94.281	0.06	188562	keystroke_r	r	n/a
94.746	0.12	189492	keystroke_Key.backspace	Key.backspace	n/a
94.881	0.1195	189762	keystroke_t	t	n/a
94.9865	0.12	189973	keystroke_e	e	n/a
95.2715	0.12	190543	keystroke_x	x	n/a
95.5865	0.105	191173	keystroke_t	t	n/a
96.051	0.135	192102	keystroke_Key.enter	Key.enter	n/a
96.193	7.1345	192386	prompt	n/a	tribal became completing peace\n
97.161	0.0905	194322	keystroke_t	t	n/a
97.341	0.09	194682	keystroke_r	r	n/a
97.417	0.12	194834	keystroke_i	i	n/a
97.732	0.0735	195464	keystroke_b	b	n/a
97.9415	0.0595	195883	keystroke_a	a	n/a
98.0765	0.1345	196153	keystroke_l	l	n/a
98.271	0.0905	196542	keystroke_Key.space	Key.space	n/a
98.901	0.12	197802	keystroke_b	b	n/a
98.961	0.106	197922	keystroke_e	e	n/a
99.2615	0.105	198523	keystroke_c	c	n/a
99.412	0.1195	198824	keystroke_a	a	n/a
99.607	0.15	199214	keystroke_m	m	n/a
99.741	0.181	199482	keystroke_e	e	n/a
99.9065	0.1495	199813	keystroke_Key.space	Key.space	n/a
100.4465	0.09	200893	keystroke_c	c	n/a
100.581	0.1655	201162	keystroke_o	o	n/a
100.7015	0.1195	201403	keystroke_m	m	n/a
100.9265	0.105	201853	keystroke_p	p	n/a
101.0915	0.1795	202183	keystroke_l	l	n/a
101.181	0.105	202362	keystroke_e	e	n/a
101.4065	0.0895	202813	keystroke_t	t	n/a
101.541	0.2405	203082	keystroke_i	i	n/a
101.6615	0.135	203323	keystroke_n	n	n/a
101.7975	0.088	203595	keystroke_g	g	n/a
101.9765	0.1205	203953	keystroke_Key.space	Key.space	n/a
102.456	0.1505	204912	keystroke_p	p	n/a
102.577	0.12	205154	keystroke_e	e	n/a
102.698	0.1035	205396	keystroke_a	a	n/a
102.8765	0.09	205753	keystroke_c	c	n/a
102.9515	0.1205	205903	keystroke_e	e	n/a
103.1915	0.1345	206383	keystroke_Key.enter	Key.enter	n/a
103.3315	9.1915	206663	prompt	n/a	horizon configured literally active\n
104.6315	0.0895	209263	keystroke_h	h	n/a
104.6765	0.1195	209353	keystroke_o	o	n/a
104.9015	0.0905	209803	keystroke_r	r	n/a
105.2915	0.1655	210583	keystroke_i	i	n/a
105.501	0.1055	211002	keystroke_z	z	n/a
105.5615	0.1645	211123	keystroke_o	o	n/a
105.816	0.1505	211632	keystroke_n	n	n/a
106.011	0.1355	212022	keystroke_Key.space	Key.space	n/a
106.431	0.1205	212862	keystroke_c	c	n/a
106.537	0.1495	213074	keystroke_o	o	n/a
106.8065	0.12	213613	keystroke_n	n	n/a
107.0015	0.1045	214003	keystroke_f	f	n/a
107.1215	0.135	214243	keystroke_i	i	n/a
107.6165	0.09	215233	keystroke_g	g	n/a
107.811	0.1505	215622	keystroke_u	u	n/a
107.9765	0.15	215953	keystroke_r	r	n/a
108.0965	0.12	216193	keystroke_e	e	n/a
108.306	0.1055	216612	keystroke_d	d	n/a
108.486	0.1205	216972	keystroke_Key.space	Key.space	n/a
108.8615	0.12	217723	keystroke_l	l	n/a
109.0865	0.15	218173	keystroke_i	i	n/a
109.2515	0.105	218503	keystroke_t	t	n/a
109.4165	0.1645	218833	keystroke_e	e	n/a
109.5365	0.15	219073	keystroke_r	r	n/a
109.7015	0.09	219403	keystroke_a	a	n/a
109.9265	0.1345	219853	keystroke_l	l	n/a
110.121	0.166	220242	keystroke_l	l	n/a
110.6475	0.104	221295	keystroke_y	y	n/a
110.977	0.0895	221954	keystroke_Key.space	Key.space	n/a
111.412	0.1195	222824	keystroke_a	a	n/a
111.622	0.09	223244	keystroke_c	c	n/a
111.862	0.0895	223724	keystroke_t	t	n/a
111.937	0.1345	223874	keystroke_i	i	n/a
112.1155	0.091	224231	keystroke_v	v	n/a
112.1915	0.106	224383	keystroke_e	e	n/a
112.402	0.1195	224804	keystroke_Key.enter	Key.enter	n/a
112.5275	9.386	225055	prompt	n/a	south hydrogen timely biography\n
113.1975	0.105	226395	keystroke_s	s	n/a
113.2875	0.12	226575	keystroke_o	o	n/a
113.7365	0.15	227473	keystroke_u	u	n/a
113.8265	0.119	227653	keystroke_t	t	n/a
113.8715	0.15	227743	keystroke_h	h	n/a
114.051	0.1205	228102	keystroke_Key.space	Key.space	n/a
114.757	0.1195	229514	keystroke_h	h	n/a
114.832	0.104	229664	keystroke_y	y	n/a
115.072	0.105	230144	keystroke_d	d	n/a
115.2965	0.0905	230593	keystroke_r	r	n/a
115.4475	0.179	230895	keystroke_o	o	n/a
115.717	0.1045	231434	keystroke_g	g	n/a
115.837	0.12	231674	keystroke_e	e	n/a
115.972	0.0895	231944	keystroke_n	n	n/a
116.7215	0.1205	233443	keystroke_Key.space	Key.space	n/a
117.531	0.09	235062	keystroke_t	t	n/a
117.667	0.1645	235334	keystroke_i	i	n/a
117.7725	0.134	235545	keystroke_m	m	n/a
118.0565	0.135	236113	keystroke_e	e	n/a
118.2215	0.15	236443	keystroke_l	l	n/a
118.7915	0.12	237583	keystroke_y	y	n/a
118.971	0.135	237942	keystroke_Key.space	Key.space	n/a
119.842	0.1055	239684	keystroke_b	b	n/a
120.007	0.1645	240014	keystroke_i	i	n/a
120.0815	0.18	240163	keystroke_o	o	n/a
120.427	0.0895	240854	keystroke_g	g	n/a
120.652	0.12	241304	keystroke_r	r	n/a
120.787	0.09	241574	keystroke_a	a	n/a
120.9675	0.1645	241935	keystroke_p	p	n/a
121.192	0.1045	242384	keystroke_h	h	n/a
121.417	0.12	242834	keystroke_y	y	n/a
121.792	0.12	243584	keystroke_Key.enter	Key.enter	n/a
121.9175	7.871	243835	prompt	n/a	alias bargains accent cigarette\n
122.4825	0.1045	244965	keystroke_a	a	n/a
122.692	0.09	245384	keystroke_l	l	n/a
122.857	0.135	245714	keystroke_i	i	n/a
122.917	0.18	245834	keystroke_a	a	n/a
123.022	0.209	246044	keystroke_s	s	n/a
123.217	0.165	246434	keystroke_Key.space	Key.space	n/a
123.997	0.12	247994	keystroke_b	b	n/a
124.102	0.21	248204	keystroke_a	a	n/a
124.327	0.09	248654	keystroke_r	r	n/a
124.717	0.09	249434	keystroke_g	g	n/a
124.8665	0.0755	249733	keystroke_a	a	n/a
124.972	0.15	249944	keystroke_i	i	n/a
125.107	0.06	250214	keystroke_n	n	n/a
125.2725	0.089	250545	keystroke_s	s	n/a
125.407	0.1345	250814	keystroke_Key.space	Key.space	n/a
125.692	0.0745	251384	keystroke_a	a	n/a
125.8865	0.09	251773	keystroke_c	c	n/a
126.0665	0.09	252133	keystroke_c	c	n/a
126.2325	0.1345	252465	keystroke_e	e	n/a
126.592	0.03	253184	keystroke_c	c	n/a
127.042	0.15	254084	keystroke_Key.backspace	Key.backspace	n/a
127.5665	0.1355	255133	keystroke_n	n	n/a
127.672	0.105	255344	keystroke_y	y	n/a
127.8815	0.09	255763	keystroke_Key.space	Key.space	n/a
128.242	0.0895	256484	keystroke_c	c	n/a
128.407	0.149	256814	keystroke_i	i	n/a
128.6025	0.089	257205	keystroke_g	g	n/a
128.7515	0.12	257503	keystroke_a	a	n/a
128.917	0.105	257834	keystroke_r	r	n/a
128.977	0.135	257954	keystroke_e	e	n/a
129.232	0.075	258464	keystroke_t	t	n/a
129.4125	0.0745	258825	keystroke_t	t	n/a
129.488	0.119	258976	keystroke_e	e	n/a
129.667	0.1195	259334	keystroke_Key.enter	Key.enter	n/a
129.7925	10.0615	259585	prompt	n/a	developing capital steve relax\n
130.7765	0.0755	261553	keystroke_d	d	n/a
130.927	0.105	261854	keystroke_e	e	n/a
131.2575	0.074	262515	keystroke_v	v	n/a
131.4365	0.09	262873	keystroke_e	e	n/a
131.6165	0.09	263233	keystroke_l	l	n/a
131.8115	0.12	263623	keystroke_o	o	n/a
132.022	0.0895	264044	keystroke_[	[	n/a
132.6365	0.135	265273	keystroke_Key.backspace	Key.backspace	n/a
133.4465	0.181	266893	keystroke_p	p	n/a
133.642	0.12	267284	keystroke_i	i	n/a
133.7465	0.1045	267493	keystroke_n	n	n/a
133.866	0.075	267732	keystroke_g	g	n/a
134.0315	0.12	268063	keystroke_Key.space	Key.space	n/a
134.467	0.06	268934	keystroke_c	c	n/a
134.572	0.0895	269144	keystroke_a	a	n/a
134.7815	0.1205	269563	keystroke_p	p	n/a
135.0215	0.1355	270043	keystroke_i	i	n/a
135.1715	0.09	270343	keystroke_t	t	n/a
135.3365	0.1055	270673	keystroke_a	a	n/a
135.4565	0.135	270913	keystroke_l	l	n/a
135.607	0.0895	271214	keystroke_Key.space	Key.space	n/a
136.087	0.104	272174	keystroke_s	s	n/a
136.357	0.105	272714	keystroke_t	t	n/a
136.492	0.12	272984	keystroke_e	e	n/a
137.0315	0.091	274063	keystroke_e	e	n/a
137.722	0.1195	275444	keystroke_Key.backspace	Key.backspace	n/a
137.8865	0.106	275773	keystroke_v	v	n/a
137.947	0.1355	275894	keystroke_e	e	n/a
138.3065	0.105	276613	keystroke_Key.space	Key.space	n/a
138.8615	0.1055	277723	keystroke_r	r	n/a
138.9365	0.09	277873	keystroke_e	e	n/a
139.147	0.135	278294	keystroke_l	l	n/a
139.237	0.105	278474	keystroke_a	a	n/a
139.447	0.135	278894	keystroke_x	x	n/a
139.7175	0.134	279435	keystroke_Key.enter	Key.enter	n/a
139.8585	11.6715	279717	prompt	n/a	clubs households carmen experiences\n
140.827	0.105	281654	keystroke_c	c	n/a
140.947	0.135	281894	keystroke_l	l	n/a
141.262	0.1195	282524	keystroke_u	u	n/a
141.457	0.1355	282914	keystroke_b	b	n/a
141.5475	0.1795	283095	keystroke_s	s	n/a
141.697	0.12	283394	keystroke_Key.space	Key.space	n/a
142.537	0.1345	285074	keystroke_h	h	n/a
142.627	0.1495	285254	keystroke_o	o	n/a
142.7915	0.1505	285583	keystroke_u	u	n/a
142.927	0.15	285854	keystroke_s	s	n/a
143.032	0.15	286064	keystroke_e	e	n/a
143.722	0.1045	287444	keystroke_h	h	n/a
143.8415	0.1055	287683	keystroke_o	o	n/a
144.0675	0.104	288135	keystroke_l	l	n/a
144.112	0.135	288224	keystroke_d	d	n/a
144.202	0.1495	288404	keystroke_s	s	n/a
144.3665	0.1505	288733	keystroke_Key.space	Key.space	n/a
144.6965	0.091	289393	keystroke_c	c	n/a
144.8175	0.134	289635	keystroke_a	a	n/a
144.937	0.105	289874	keystroke_r	r	n/a
145.027	0.09	290054	keystroke_m	m	n/a
145.222	0.105	290444	keystroke_n	n	n/a
145.2525	0.12	290505	keystroke_e	e	n/a
145.9115	0.09	291823	keystroke_Key.backspace	Key.backspace	n/a
146.0615	0.1205	292123	keystroke_Key.backspace	Key.backspace	n/a
146.197	0.1195	292394	keystroke_e	e	n/a
146.3465	0.1205	292693	keystroke_n	n	n/a
146.527	0.12	293054	keystroke_Key.space	Key.space	n/a
146.872	0.075	293744	keystroke_e	e	n/a
147.0825	0.0895	294165	keystroke_x	x	n/a
147.217	0.1055	294434	keystroke_p	p	n/a
147.3375	0.1655	294675	keystroke_e	e	n/a
147.472	0.105	294944	keystroke_r	r	n/a
148.387	0.15	296774	keystroke_i	i	n/a
148.4765	0.121	296953	keystroke_a	a	n/a
149.2415	0.1205	298483	keystroke_Key.backspace	Key.backspace	n/a
149.332	0.1205	298664	keystroke_e	e	n/a
149.9485	0.135	299897	keystroke_n	n	n/a
150.1145	0.12	300229	keystroke_c	c	n/a
150.236	0.1485	300472	keystroke_e	e	n/a
150.369	0.121	300738	keystroke_s	s	n/a
150.61	0.0905	301220	keystroke_Key.space	Key.space	n/a
151.0755	0.121	302151	keystroke_Key.backspace	Key.backspace	n/a
151.4215	0.1055	302843	keystroke_Key.enter	Key.enter	n/a
151.5345	9.3725	303069	prompt	n/a	jersey numbers endorsement maintaining\n
152.9245	0.0295	305849	keystroke_j	j	n/a
152.9395	0.03	305879	keystroke_e	e	n/a
153.0295	0.1055	306059	keystroke_r	r	n/a
153.21	0.181	306420	keystroke_s	s	n/a
153.3455	0.135	306691	keystroke_e	e	n/a
153.946	0.1055	307892	keystroke_y	y	n/a
154.111	0.1505	308222	keystroke_Key.space	Key.space	n/a
154.7585	0.15	309517	keystroke_n	n	n/a
154.8485	0.105	309697	keystroke_u	u	n/a
155.059	0.0745	310118	keystroke_m	m	n/a
155.2235	0.1365	310447	keystroke_b	b	n/a
155.2995	0.1645	310599	keystroke_e	e	n/a
155.4195	0.1045	310839	keystroke_r	r	n/a
155.539	0.212	311078	keystroke_s	s	n/a
155.7205	0.1345	311441	keystroke_Key.space	Key.space	n/a
156.0505	0.1055	312101	keystroke_e	e	n/a
156.2015	0.1645	312403	keystroke_n	n	n/a
156.3665	0.104	312733	keystroke_d	d	n/a
156.6365	0.15	313273	keystroke_o	o	n/a
156.7265	0.1205	313453	keystroke_r	r	n/a
157.0275	0.135	314055	keystroke_s	s	n/a
157.102	0.121	314204	keystroke_e	e	n/a
157.373	0.0895	314746	keystroke_m	m	n/a
157.493	0.1055	314986	keystroke_e	e	n/a
157.6135	0.165	315227	keystroke_n	n	n/a
157.8385	0.1055	315677	keystroke_t	t	n/a
158.124	0.1055	316248	keystroke_s	s	n/a
158.455	0.105	316910	keystroke_Key.space	Key.space	n/a
158.906	0.135	317812	keystroke_m	m	n/a
158.996	0.105	317992	keystroke_a	a	n/a
159.1165	0.105	318233	keystroke_i	i	n/a
159.252	0.135	318504	keystroke_n	n	n/a
159.432	0.104	318864	keystroke_t	t	n/a
159.5965	0.121	319193	keystroke_a	a	n/a
159.763	0.105	319526	keystroke_i	i	n/a
159.9435	0.164	319887	keystroke_n	n	n/a
160.1825	0.1055	320365	keystroke_i	i	n/a
160.3035	0.1655	320607	keystroke_n	n	n/a
160.454	0.105	320908	keystroke_g	g	n/a
160.814	0.0905	321628	keystroke_Key.enter	Key.enter	n/a
160.911	5.993	321822	prompt	n/a	dose bullet disc gentle\n
161.6715	0.105	323343	keystroke_d	d	n/a
161.837	0.0895	323674	keystroke_o	o	n/a
161.9575	0.1495	323915	keystroke_s	s	n/a
162.047	0.165	324094	keystroke_e	e	n/a
162.227	0.1215	324454	keystroke_Key.space	Key.space	n/a
162.738	0.1205	325476	keystroke_b	b	n/a
162.8435	0.09	325687	keystroke_u	u	n/a
163.0835	0.045	326167	keystroke_l	l	n/a
163.204	0.105	326408	keystroke_l	l	n/a
163.295	0.0895	326590	keystroke_e	e	n/a
163.4895	0.12	326979	keystroke_t	t	n/a
163.6245	0.1205	327249	keystroke_Key.space	Key.space	n/a
163.8655	0.135	327731	keystroke_d	d	n/a
163.986	0.1195	327972	keystroke_i	i	n/a
164.422	0.12	328844	keystroke_s	s	n/a
164.617	0.12	329234	keystroke_c	c	n/a
165.0225	0.1055	330045	keystroke_Key.space	Key.space	n/a
165.4585	0.105	330917	keystroke_g	g	n/a
165.5785	0.135	331157	keystroke_e	e	n/a
165.669	0.135	331338	keystroke_n	n	n/a
165.789	0.1355	331578	keystroke_t	t	n/a
166.224	0.1365	332448	keystroke_l	l	n/a
166.3455	0.1195	332691	keystroke_e	e	n/a
166.7805	0.12	333561	keystroke_Key.enter	Key.enter	n/a
166.914	8.4205	333828	prompt	n/a	wealth exhibit anytime client\n
167.8035	0.195	335607	keystroke_w	w	n/a
167.938	0.09	335876	keystroke_a	a	n/a
168.359	0.1195	336718	keystroke_Key.backspace	Key.backspace	n/a
168.4345	0.135	336869	keystroke_e	e	n/a
168.8705	0.105	337741	keystroke_a	a	n/a
169.3205	0.0915	338641	keystroke_l	l	n/a
169.622	0.09	339244	keystroke_t	t	n/a
169.727	0.136	339454	keystroke_h	h	n/a
170.1325	0.15	340265	keystroke_Key.space	Key.space	n/a
170.538	0.0915	341076	keystroke_e	e	n/a
170.8095	0.0895	341619	keystroke_x	x	n/a
171.125	0.09	342250	keystroke_h	h	n/a
171.2	0.09	342400	keystroke_i	i	n/a
171.6205	0.1055	343241	keystroke_b	b	n/a
171.711	0.09	343422	keystroke_i	i	n/a
171.9215	0.12	343843	keystroke_t	t	n/a
172.176	0.09	344352	keystroke_Key.space	Key.space	n/a
172.417	0.09	344834	keystroke_a	a	n/a
172.6275	0.1355	345255	keystroke_n	n	n/a
172.868	0.1055	345736	keystroke_y	y	n/a
173.1385	0.105	346277	keystroke_t	t	n/a
173.289	0.1505	346578	keystroke_i	i	n/a
173.621	0.134	347242	keystroke_m	m	n/a
173.7395	0.136	347479	keystroke_e	e	n/a
173.8895	0.1505	347779	keystroke_Key.space	Key.space	n/a
174.311	0.09	348622	keystroke_c	c	n/a
174.491	0.0755	348982	keystroke_l	l	n/a
174.672	0.12	349344	keystroke_i	i	n/a
174.777	0.1045	349554	keystroke_e	e	n/a
174.927	0.1205	349854	keystroke_n	n	n/a
175.0485	0.104	350097	keystroke_t	t	n/a
175.2125	0.12	350425	keystroke_Key.enter	Key.enter	n/a
175.338	10.156	350676	prompt	n/a	wildlife jenny gilbert charlotte\n
176.055	0.1195	352110	keystroke_w	w	n/a
176.3845	0.016	352769	keystroke_i	i	n/a
176.43	0.151	352860	keystroke_l	l	n/a
176.6405	0.09	353281	keystroke_f	f	n/a
177.2265	0.1355	354453	keystroke_Key.backspace	Key.backspace	n/a
177.288	0.104	354576	keystroke_d	d	n/a
177.5575	0.106	355115	keystroke_f	f	n/a
177.8725	0.136	355745	keystroke_i	i	n/a
177.993	0.1205	355986	keystroke_r	r	n/a
178.0835	0.1655	356167	keystroke_e	e	n/a
178.399	0.12	356798	keystroke_Key.space	Key.space	n/a
179.1355	0.105	358271	keystroke_j	j	n/a
179.1655	0.105	358331	keystroke_e	e	n/a
179.436	0.0905	358872	keystroke_n	n	n/a
179.587	0.149	359174	keystroke_n	n	n/a
179.6915	0.1505	359383	keystroke_y	y	n/a
179.872	0.1205	359744	keystroke_Key.space	Key.space	n/a
180.668	0.091	361336	keystroke_g	g	n/a
180.969	0.12	361938	keystroke_i	i	n/a
181.2245	0.1345	362449	keystroke_l	l	n/a
181.901	0.12	363802	keystroke_b	b	n/a
181.976	0.165	363952	keystroke_e	e	n/a
182.066	0.105	364132	keystroke_r	r	n/a
182.4865	0.1205	364973	keystroke_t	t	n/a
183.118	0.09	366236	keystroke_Key.space	Key.space	n/a
183.764	0.105	367528	keystroke_c	c	n/a
183.915	0.1205	367830	keystroke_h	h	n/a
183.9605	0.1945	367921	keystroke_a	a	n/a
184.14	0.1195	368280	keystroke_r	r	n/a
184.576	0.06	369152	keystroke_l	l	n/a
184.7265	0.105	369453	keystroke_o	o	n/a
184.892	0.0755	369784	keystroke_t	t	n/a
185.057	0.105	370114	keystroke_t	t	n/a
185.1775	0.12	370355	keystroke_e	e	n/a
185.357	0.136	370714	keystroke_Key.enter	Key.enter	n/a
185.499	11.2375	370998	prompt	n/a	ultimately contest gonna fought\n
186.815	0.0905	373630	keystroke_u	u	n/a
187.356	0.1055	374712	keystroke_l	l	n/a
187.6115	0.105	375223	keystroke_t	t	n/a
187.7315	0.076	375463	keystroke_u	u	n/a
188.2285	0.075	376457	keystroke_Key.backspace	Key.backspace	n/a
188.454	0.1345	376908	keystroke_i	i	n/a
189.1	0.119	378200	keystroke_m	m	n/a
189.174	0.106	378348	keystroke_a	a	n/a
189.476	0.1045	378952	keystroke_t	t	n/a
189.5825	0.118	379165	keystroke_e	e	n/a
189.821	0.1355	379642	keystroke_l	l	n/a
190.242	0.1345	380484	keystroke_y	y	n/a
190.662	0.1205	381324	keystroke_Key.space	Key.space	n/a
191.038	0.09	382076	keystroke_c	c	n/a
191.098	0.121	382196	keystroke_o	o	n/a
191.368	0.121	382736	keystroke_n	n	n/a
191.5195	0.09	383039	keystroke_t	t	n/a
191.6685	0.1965	383337	keystroke_e	e	n/a
191.805	0.165	383610	keystroke_s	s	n/a
191.9245	0.1055	383849	keystroke_t	t	n/a
192.1655	0.105	384331	keystroke_Key.space	Key.space	n/a
192.7965	0.075	385593	keystroke_g	g	n/a
192.8575	0.1195	385715	keystroke_o	o	n/a
193.127	0.0745	386254	keystroke_n	n	n/a
193.262	0.1055	386524	keystroke_n	n	n/a
193.3515	0.1515	386703	keystroke_a	a	n/a
193.4865	0.122	386973	keystroke_Key.space	Key.space	n/a
195.321	0.0905	390642	keystroke_f	f	n/a
195.381	0.1055	390762	keystroke_o	o	n/a
195.817	0.09	391634	keystroke_u	u	n/a
195.922	0.1205	391844	keystroke_g	g	n/a
196.1025	0.15	392205	keystroke_h	h	n/a
196.1775	0.1215	392355	keystroke_t	t	n/a
196.6585	0.075	393317	keystroke_Key.enter	Key.enter	n/a
196.741	13.198	393482	prompt	n/a	inspections olympus gibraltar peer\n
197.606	0.1195	395212	keystroke_i	i	n/a
197.6955	0.12	395391	keystroke_n	n	n/a
197.7555	0.1205	395511	keystroke_s	s	n/a
197.981	0.12	395962	keystroke_p	p	n/a
198.116	0.1355	396232	keystroke_e	e	n/a
198.763	0.1055	397526	keystroke_c	c	n/a
199.093	0.105	398186	keystroke_t	t	n/a
199.228	0.135	398456	keystroke_i	i	n/a
199.2875	0.1205	398575	keystroke_o	o	n/a
199.4235	0.1345	398847	keystroke_n	n	n/a
199.588	0.18	399176	keystroke_s	s	n/a
199.8135	0.1055	399627	keystroke_Key.space	Key.space	n/a
200.6985	0.1505	401397	keystroke_o	o	n/a
201.119	0.12	402238	keystroke_l	l	n/a
201.4795	0.09	402959	keystroke_y	y	n/a
201.7785	0.15	403557	keystroke_m	m	n/a
201.9735	0.0905	403947	keystroke_p	p	n/a
202.604	0.1495	405208	keystroke_u	u	n/a
202.678	0.1655	405356	keystroke_s	s	n/a
202.8285	0.12	405657	keystroke_Key.space	Key.space	n/a
203.8635	0.106	407727	keystroke_g	g	n/a
204.0145	0.1195	408029	keystroke_i	i	n/a
204.2985	0.135	408597	keystroke_b	b	n/a
204.4485	0.09	408897	keystroke_r	r	n/a
204.5405	0.1035	409081	keystroke_a	a	n/a
204.748	0.136	409496	keystroke_l	l	n/a
204.929	0.1195	409858	keystroke_a	a	n/a
205.5435	0.1645	411087	keystroke_Key.backspace	Key.backspace	n/a
207.2085	0.074	414417	keystroke_t	t	n/a
207.4635	0.105	414927	keystroke_r	r	n/a
208.0775	0.194	416155	keystroke_Key.backspace	Key.backspace	n/a
208.1835	0.149	416367	keystroke_a	a	n/a
208.3175	0.1355	416635	keystroke_r	r	n/a
208.6925	0.12	417385	keystroke_Key.space	Key.space	n/a
209.1875	0.105	418375	keystroke_p	p	n/a
209.262	0.0605	418524	keystroke_e	e	n/a
209.412	0.076	418824	keystroke_e	e	n/a
209.578	0.12	419156	keystroke_r	r	n/a
209.817	0.1195	419634	keystroke_Key.enter	Key.enter	n/a
209.944	8.858	419888	prompt	n/a	sink mines sending bedford\n
210.7925	0.1495	421585	keystroke_s	s	n/a
211.1075	0.135	422215	keystroke_i	i	n/a
211.363	0.1635	422726	keystroke_n	n	n/a
211.5125	0.105	423025	keystroke_k	k	n/a
211.767	0.135	423534	keystroke_Key.space	Key.space	n/a
212.262	0.134	424524	keystroke_m	m	n/a
212.3825	0.134	424765	keystroke_i	i	n/a
212.5765	0.121	425153	keystroke_n	n	n/a
212.712	0.12	425424	keystroke_e	e	n/a
212.847	0.195	425694	keystroke_s	s	n/a
213.057	0.105	426114	keystroke_Key.space	Key.space	n/a
213.3575	0.1785	426715	keystroke_s	s	n/a
213.5965	0.1205	427193	keystroke_e	e	n/a
213.7925	0.133	427585	keystroke_n	n	n/a
214.436	0.135	428872	keystroke_d	d	n/a
214.5865	0.12	429173	keystroke_i	i	n/a
214.7215	0.165	429443	keystroke_n	n	n/a
214.8555	0.1505	429711	keystroke_g	g	n/a
215.426	0.136	430852	keystroke_Key.space	Key.space	n/a
215.9215	0.134	431843	keystroke_b	b	n/a
216.011	0.1355	432022	keystroke_e	e	n/a
216.536	0.09	433072	keystroke_f	f	n/a
216.8805	0.1655	433761	keystroke_Key.backspace	Key.backspace	n/a
216.941	0.12	433882	keystroke_d	d	n/a
217.211	0.119	434422	keystroke_g	g	n/a
217.63	0.12	435260	keystroke_Key.backspace	Key.backspace	n/a
217.766	0.119	435532	keystroke_f	f	n/a
218.125	0.1355	436250	keystroke_o	o	n/a
218.245	0.0755	436490	keystroke_r	r	n/a
218.4095	0.1205	436819	keystroke_d	d	n/a
218.71	0.09	437420	keystroke_Key.enter	Key.enter	n/a
218.8065	9.832	437613	prompt	n/a	blend amsterdam nation alternatives\n
219.9245	0.09	439849	keystroke_b	b	n/a
220.0745	0.1205	440149	keystroke_l	l	n/a
220.225	0.1345	440450	keystroke_e	e	n/a
220.3745	0.135	440749	keystroke_n	n	n/a
220.4795	0.18	440959	keystroke_d	d	n/a
220.689	0.135	441378	keystroke_Key.space	Key.space	n/a
221.08	0.12	442160	keystroke_a	a	n/a
221.2145	0.1505	442429	keystroke_m	m	n/a
221.35	0.1485	442700	keystroke_s	s	n/a
221.8595	0.1195	443719	keystroke_t	t	n/a
221.994	0.1955	443988	keystroke_e	e	n/a
222.0995	0.1345	444199	keystroke_r	r	n/a
222.894	0.12	445788	keystroke_d	d	n/a
222.969	0.165	445938	keystroke_a	a	n/a
223.1785	0.106	446357	keystroke_m	m	n/a
223.314	0.1795	446628	keystroke_Key.space	Key.space	n/a
224.1535	0.1355	448307	keystroke_n	n	n/a
224.2135	0.166	448427	keystroke_a	a	n/a
224.934	0.1195	449868	keystroke_t	t	n/a
225.0385	0.105	450077	keystroke_i	i	n/a
225.0835	0.1495	450167	keystroke_o	o	n/a
225.218	0.1205	450436	keystroke_n	n	n/a
225.7285	0.149	451457	keystroke_Key.space	Key.space	n/a
225.968	0.165	451936	keystroke_a	a	n/a
226.073	0.135	452146	keystroke_l	l	n/a
226.3135	0.104	452627	keystroke_t	t	n/a
226.4475	0.1655	452895	keystroke_e	e	n/a
226.537	0.136	453074	keystroke_r	r	n/a
226.778	0.135	453556	keystroke_n	n	n/a
226.853	0.104	453706	keystroke_a	a	n/a
227.153	0.1045	454306	keystroke_t	t	n/a
227.212	0.1355	454424	keystroke_i	i	n/a
227.423	0.1195	454846	keystroke_v	v	n/a
227.5275	0.1195	455055	keystroke_e	e	n/a
227.812	0.09	455624	keystroke_s	s	n/a
228.4275	0.2095	456855	keystroke_Key.enter	Key.enter	n/a
228.643	8.0035	457286	prompt	n/a	humanitarian gave reno imposed\n
229.687	0.119	459374	keystroke_h	h	n/a
229.747	0.12	459494	keystroke_u	u	n/a
229.9715	0.1205	459943	keystroke_m	m	n/a
230.032	0.1195	460064	keystroke_a	a	n/a
230.197	0.181	460394	keystroke_n	n	n/a
230.363	0.1335	460726	keystroke_i	i	n/a
230.6165	0.105	461233	keystroke_t	t	n/a
230.8115	0.151	461623	keystroke_a	a	n/a
231.0065	0.1505	462013	keystroke_r	r	n/a
231.2625	0.134	462525	keystroke_i	i	n/a
231.3815	0.135	462763	keystroke_a	a	n/a
231.5315	0.105	463063	keystroke_n	n	n/a
231.8015	0.135	463603	keystroke_Key.space	Key.space	n/a
232.641	0.09	465282	keystroke_g	g	n/a
232.821	0.1045	465642	keystroke_a	a	n/a
233.061	0.165	466122	keystroke_v	v	n/a
233.136	0.181	466272	keystroke_e	e	n/a
233.451	0.104	466902	keystroke_Key.space	Key.space	n/a
234.035	0.121	468070	keystroke_r	r	n/a
234.096	0.1495	468192	keystroke_e	e	n/a
234.3655	0.1945	468731	keystroke_n	n	n/a
234.4855	0.135	468971	keystroke_o	o	n/a
234.6655	0.15	469331	keystroke_Key.space	Key.space	n/a
235.5195	0.166	471039	keystroke_i	i	n/a
235.61	0.1495	471220	keystroke_m	m	n/a
235.8495	0.106	471699	keystroke_p	p	n/a
236.03	0.15	472060	keystroke_o	o	n/a
236.1205	0.1645	472241	keystroke_s	s	n/a
236.21	0.1195	472420	keystroke_e	e	n/a
236.3905	0.135	472781	keystroke_d	d	n/a
236.554	0.0905	473108	keystroke_Key.enter	Key.enter	n/a
236.6515	12.0965	473303	prompt	n/a	manufacture places such disturbed\n
237.38	0.12	474760	keystroke_m	m	n/a
237.44	0.1045	474880	keystroke_a	a	n/a
237.9495	0.149	475899	keystroke_n	n	n/a
238.039	0.075	476078	keystroke_i	i	n/a
238.0995	0.0745	476199	keystroke_u	u	n/a
239.014	0.075	478028	keystroke_Key.backspace	Key.backspace	n/a
239.1485	0.105	478297	keystroke_Key.backspace	Key.backspace	n/a
239.749	0.135	479498	keystroke_u	u	n/a
239.809	0.09	479618	keystroke_f	f	n/a
239.959	0.1195	479918	keystroke_a	a	n/a
240.199	0.105	480398	keystroke_c	c	n/a
240.844	0.1195	481688	keystroke_t	t	n/a
241.068	0.1205	482136	keystroke_u	u	n/a
241.143	0.09	482286	keystroke_r	r	n/a
241.2035	0.1345	482407	keystroke_e	e	n/a
241.6675	0.1215	483335	keystroke_Key.space	Key.space	n/a
242.088	0.165	484176	keystroke_p	p	n/a
242.238	0.1355	484476	keystroke_l	l	n/a
242.3585	0.1045	484717	keystroke_a	a	n/a
242.6585	0.1645	485317	keystroke_c	c	n/a
242.808	0.134	485616	keystroke_e	e	n/a
243.0925	0.165	486185	keystroke_s	s	n/a
243.2865	0.136	486573	keystroke_Key.space	Key.space	n/a
243.6475	0.15	487295	keystroke_s	s	n/a
243.7825	0.12	487565	keystroke_u	u	n/a
244.0075	0.1345	488015	keystroke_c	c	n/a
244.112	0.1055	488224	keystroke_h	h	n/a
244.2915	0.1205	488583	keystroke_Key.space	Key.space	n/a
244.742	0.12	489484	keystroke_d	d	n/a
244.996	0.1355	489992	keystroke_i	i	n/a
245.402	0.165	490804	keystroke_s	s	n/a
245.5515	0.1195	491103	keystroke_t	t	n/a
247.0965	0.1045	494193	keystroke_u	u	n/a
247.711	0.1045	495422	keystroke_r	r	n/a
247.8915	0.12	495783	keystroke_b	b	n/a
247.996	0.1195	495992	keystroke_e	e	n/a
248.22	0.1355	496440	keystroke_d	d	n/a
248.611	0.1345	497222	keystroke_Key.enter	Key.enter	n/a
248.752	11.7365	497504	prompt	n/a	ferrari dodge necessity workshop\n
249.526	0.1495	499052	keystroke_f	f	n/a
249.645	0.0905	499290	keystroke_r	r	n/a
250.125	0.0445	500250	keystroke_=	=	n/a
250.14	0.075	500280	keystroke_Key.backspace	Key.backspace	n/a
250.185	0.135	500370	keystroke_e	e	n/a
250.62	0.075	501240	keystroke_Key.backspace	Key.backspace	n/a
250.7695	0.12	501539	keystroke_Key.backspace	Key.backspace	n/a
250.8745	0.1505	501749	keystroke_e	e	n/a
250.95	0.135	501900	keystroke_r	r	n/a
251.2195	0.105	502439	keystroke_r	r	n/a
251.4155	0.089	502831	keystroke_r	r	n/a
251.7595	0.12	503519	keystroke_a	a	n/a
253.2445	0.1195	506489	keystroke_r	r	n/a
253.32	0.149	506640	keystroke_i	i	n/a
253.4395	0.1195	506879	keystroke_Key.space	Key.space	n/a
254.009	0.09	508018	keystroke_d	d	n/a
254.233	0.1205	508466	keystroke_o	o	n/a
254.2935	0.1205	508587	keystroke_d	d	n/a
254.5635	0.1495	509127	keystroke_g	g	n/a
254.683	0.1655	509366	keystroke_e	e	n/a
254.9385	0.12	509877	keystroke_Key.space	Key.space	n/a
255.583	0.135	511166	keystroke_n	n	n/a
255.6285	0.119	511257	keystroke_e	e	n/a
255.8385	0.1195	511677	keystroke_c	c	n/a
255.959	0.134	511918	keystroke_e	e	n/a
256.603	0.089	513206	keystroke_s	s	n/a
256.7375	0.1205	513475	keystroke_s	s	n/a
257.2475	0.135	514495	keystroke_i	i	n/a
257.4275	0.09	514855	keystroke_t	t	n/a
257.6075	0.1195	515215	keystroke_y	y	n/a
257.8925	0.089	515785	keystroke_Key.space	Key.space	n/a
258.207	0.1205	516414	keystroke_w	w	n/a
258.3725	0.12	516745	keystroke_o	o	n/a
258.4765	0.12	516953	keystroke_r	r	n/a
258.7765	0.136	517553	keystroke_k	k	n/a
258.9715	0.105	517943	keystroke_s	s	n/a
259.6465	0.12	519293	keystroke_h	h	n/a
259.8565	0.1795	519713	keystroke_o	o	n/a
259.9765	0.135	519953	keystroke_p	p	n/a
260.381	0.105	520762	keystroke_Key.enter	Key.enter	n/a
260.4935	13.865	520987	prompt	n/a	companion settle crawford might've\n
261.161	0.1345	522322	keystroke_c	c	n/a
261.2655	0.09	522531	keystroke_o	o	n/a
261.446	0.1195	522892	keystroke_m	m	n/a
261.596	0.0895	523192	keystroke_a	a	n/a
261.7155	0.0595	523431	keystroke_p	p	n/a
262.0755	0.09	524151	keystroke_Key.backspace	Key.backspace	n/a
262.2255	0.0895	524451	keystroke_Key.backspace	Key.backspace	n/a
262.4955	0.135	524991	keystroke_p	p	n/a
262.585	0.1205	525170	keystroke_a	a	n/a
263.2155	0.1645	526431	keystroke_n	n	n/a
263.395	0.1345	526790	keystroke_i	i	n/a
263.5005	0.1495	527001	keystroke_o	o	n/a
263.605	0.12	527210	keystroke_n	n	n/a
263.8595	0.1355	527719	keystroke_Key.space	Key.space	n/a
264.43	0.121	528860	keystroke_s	s	n/a
264.61	0.1355	529220	keystroke_e	e	n/a
264.8795	0.105	529759	keystroke_t	t	n/a
265.36	0.105	530720	keystroke_l	l	n/a
265.7345	0.1045	531469	keystroke_Key.backspace	Key.backspace	n/a
265.81	0.1045	531620	keystroke_y	y	n/a
265.974	0.166	531948	keystroke_l	l	n/a
266.155	0.119	532310	keystroke_e	e	n/a
266.4845	0.09	532969	keystroke_Key.backspace	Key.backspace	n/a
266.619	0.0905	533238	keystroke_Key.backspace	Key.backspace	n/a
266.7695	0.1045	533539	keystroke_Key.backspace	Key.backspace	n/a
267.4585	0.12	534917	keystroke_t	t	n/a
267.564	0.135	535128	keystroke_l	l	n/a
267.684	0.1205	535368	keystroke_e	e	n/a
267.9235	0.0905	535847	keystroke_Key.space	Key.space	n/a
268.3735	0.06	536747	keystroke_c	c	n/a
268.5685	0.12	537137	keystroke_r	r	n/a
268.7335	0.15	537467	keystroke_a	a	n/a
268.9285	0.136	537857	keystroke_w	w	n/a
269.2425	0.1055	538485	keystroke_f	f	n/a
269.453	0.105	538906	keystroke_o	o	n/a
269.5725	0.0905	539145	keystroke_r	r	n/a
269.753	0.0895	539506	keystroke_d	d	n/a
269.993	0.1195	539986	keystroke_Key.space	Key.space	n/a
270.7275	0.1355	541455	keystroke_m	m	n/a
270.7875	0.15	541575	keystroke_i	i	n/a
271.507	0.105	543014	keystroke_g	g	n/a
271.597	0.12	543194	keystroke_h	h	n/a
271.732	0.1355	543464	keystroke_t	t	n/a
273.157	0.075	546314	keystroke_'	'	n/a
273.307	0.0895	546614	keystroke_v	v	n/a
273.3525	0.1195	546705	keystroke_e	e	n/a
274.2215	0.1345	548443	keystroke_Key.enter	Key.enter	n/a
274.363	9.936	548726	prompt	n/a	fairly dome observed seeker\n
275.271	0.075	550542	keystroke_f	f	n/a
275.3605	0.1355	550721	keystroke_a	a	n/a
275.781	0.12	551562	keystroke_i	i	n/a
276.006	0.09	552012	keystroke_r	r	n/a
276.1255	0.135	552251	keystroke_l	l	n/a
276.906	0.1045	553812	keystroke_y	y	n/a
278.105	0.12	556210	keystroke_d	d	n/a
278.45	0.15	556900	keystroke_o	o	n/a
278.615	0.12	557230	keystroke_m	m	n/a
279.034	0.0905	558068	keystroke_Key.backspace	Key.backspace	n/a
279.1995	0.0745	558399	keystroke_Key.backspace	Key.backspace	n/a
279.3495	0.075	558699	keystroke_Key.backspace	Key.backspace	n/a
279.544	0.1055	559088	keystroke_Key.space	Key.space	n/a
279.9195	0.1045	559839	keystroke_d	d	n/a
280.0695	0.18	560139	keystroke_o	o	n/a
280.1595	0.119	560319	keystroke_m	m	n/a
280.2505	0.1335	560501	keystroke_e	e	n/a
280.414	0.135	560828	keystroke_Key.space	Key.space	n/a
280.984	0.1345	561968	keystroke_o	o	n/a
281.239	0.135	562478	keystroke_b	b	n/a
281.359	0.18	562718	keystroke_s	s	n/a
281.463	0.121	562926	keystroke_e	e	n/a
281.6435	0.105	563287	keystroke_r	r	n/a
281.884	0.1045	563768	keystroke_v	v	n/a
281.9725	0.196	563945	keystroke_e	e	n/a
282.7835	0.09	565567	keystroke_d	d	n/a
282.963	0.1195	565926	keystroke_Key.space	Key.space	n/a
283.2785	0.1345	566557	keystroke_s	s	n/a
283.384	0.089	566768	keystroke_e	e	n/a
283.5325	0.1055	567065	keystroke_e	e	n/a
283.878	0.0905	567756	keystroke_k	k	n/a
283.938	0.1345	567876	keystroke_e	e	n/a
283.998	0.1045	567996	keystroke_r	r	n/a
284.1775	0.12	568355	keystroke_Key.enter	Key.enter	n/a
284.3075	11.629	568615	prompt	n/a	kenya granny geometry slowly\n
285.393	0.119	570786	keystroke_k	k	n/a
285.482	0.121	570964	keystroke_e	e	n/a
285.6325	0.12	571265	keystroke_n	n	n/a
285.887	0.075	571774	keystroke_y	y	n/a
285.977	0.165	571954	keystroke_a	a	n/a
286.187	0.135	572374	keystroke_Key.space	Key.space	n/a
287.0565	0.1045	574113	keystroke_Key.backspace	Key.backspace	n/a
287.206	0.06	574412	keystroke_Key.backspace	Key.backspace	n/a
287.356	0.075	574712	keystroke_Key.backspace	Key.backspace	n/a
288.616	0.12	577232	keystroke_y	y	n/a
288.6765	0.1345	577353	keystroke_a	a	n/a
288.7665	0.1045	577533	keystroke_Key.space	Key.space	n/a
289.4415	0.0895	578883	keystroke_g	g	n/a
289.516	0.1505	579032	keystroke_r	r	n/a
289.636	0.1345	579272	keystroke_e	e	n/a
290.0555	0.1195	580111	keystroke_Key.backspace	Key.backspace	n/a
290.161	0.1195	580322	keystroke_a	a	n/a
290.6105	0.075	581221	keystroke_n	n	n/a
291.075	0.1345	582150	keystroke_n	n	n/a
291.3155	0.1195	582631	keystroke_y	y	n/a
291.586	0.1045	583172	keystroke_Key.space	Key.space	n/a
292.395	0.075	584790	keystroke_g	g	n/a
292.59	0.135	585180	keystroke_e	e	n/a
292.71	0.1055	585420	keystroke_o	o	n/a
292.92	0.1495	585840	keystroke_m	m	n/a
293.19	0.1055	586380	keystroke_e	e	n/a
293.43	0.0895	586860	keystroke_t	t	n/a
293.5945	0.105	587189	keystroke_r	r	n/a
293.8495	0.1355	587699	keystroke_y	y	n/a
294.134	0.12	588268	keystroke_Key.space	Key.space	n/a
294.4485	0.1055	588897	keystroke_s	s	n/a
294.569	0.075	589138	keystroke_l	l	n/a
294.704	0.12	589408	keystroke_o	o	n/a
294.779	0.09	589558	keystroke_w	w	n/a
295.004	0.135	590008	keystroke_l	l	n/a
295.319	0.12	590638	keystroke_y	y	n/a
295.8285	0.105	591657	keystroke_Key.enter	Key.enter	n/a
295.9425	9.3795	591885	prompt	n/a	temp coffee majority receipt\n
296.9085	0.135	593817	keystroke_t	t	n/a
297.0135	0.135	594027	keystroke_e	e	n/a
297.1635	0.165	594327	keystroke_m	m	n/a
297.3435	0.12	594687	keystroke_p	p	n/a
297.5525	0.105	595105	keystroke_Key.space	Key.space	n/a
297.777	0.106	595554	keystroke_c	c	n/a
297.868	0.1195	595736	keystroke_o	o	n/a
298.2425	0.075	596485	keystroke_f	f	n/a
298.392	0.12	596784	keystroke_f	f	n/a
298.527	0.1205	597054	keystroke_e	e	n/a
298.7225	0.105	597445	keystroke_e	e	n/a
298.8725	0.015	597745	keystroke_e	e	n/a
298.9475	0.075	597895	keystroke_Key.space	Key.space	n/a
299.697	0.104	599394	keystroke_Key.backspace	Key.backspace	n/a
299.892	0.12	599784	keystroke_Key.space	Key.space	n/a
300.2515	0.075	600503	keystroke_Key.backspace	Key.backspace	n/a
300.4015	0.09	600803	keystroke_Key.backspace	Key.backspace	n/a
300.4615	0.12	600923	keystroke_Key.space	Key.space	n/a
301.376	0.1055	602752	keystroke_m	m	n/a
301.436	0.1205	602872	keystroke_a	a	n/a
302.276	0.12	604552	keystroke_j	j	n/a
302.336	0.2095	604672	keystroke_o	o	n/a
302.6055	0.1055	605211	keystroke_r	r	n/a
302.6655	0.105	605331	keystroke_i	i	n/a
302.891	0.105	605782	keystroke_t	t	n/a
303.086	0.1055	606172	keystroke_y	y	n/a
303.2805	0.121	606561	keystroke_Key.space	Key.space	n/a
303.6855	0.031	607371	keystroke_r	r	n/a
303.7005	0.121	607401	keystroke_e	e	n/a
303.971	0.1045	607942	keystroke_c	c	n/a
304.0905	0.121	608181	keystroke_e	e	n/a
304.3905	0.135	608781	keystroke_i	i	n/a
304.7355	0.15	609471	keystroke_p	p	n/a
304.8865	0.134	609773	keystroke_t	t	n/a
305.215	0.1055	610430	keystroke_Key.enter	Key.enter	n/a
305.326	7.1035	610652	prompt	n/a	computer breach maui punch\n
306.115	0.1195	612230	keystroke_c	c	n/a
306.2195	0.105	612439	keystroke_o	o	n/a
306.4	0.1205	612800	keystroke_m	m	n/a
306.625	0.12	613250	keystroke_p	p	n/a
306.909	0.1355	613818	keystroke_u	u	n/a
307.0295	0.106	614059	keystroke_t	t	n/a
307.1505	0.209	614301	keystroke_e	e	n/a
307.2705	0.164	614541	keystroke_r	r	n/a
307.4195	0.165	614839	keystroke_Key.space	Key.space	n/a
307.989	0.121	615978	keystroke_b	b	n/a
308.0795	0.1045	616159	keystroke_r	r	n/a
308.1245	0.12	616249	keystroke_e	e	n/a
308.3045	0.12	616609	keystroke_a	a	n/a
308.4995	0.135	616999	keystroke_c	c	n/a
308.6195	0.1045	617239	keystroke_h	h	n/a
308.7835	0.1355	617567	keystroke_Key.space	Key.space	n/a
309.339	0.135	618678	keystroke_m	m	n/a
309.4285	0.1205	618857	keystroke_a	a	n/a
309.774	0.12	619548	keystroke_u	u	n/a
309.969	0.1195	619938	keystroke_i	i	n/a
310.5535	0.119	621107	keystroke_Key.space	Key.space	n/a
311.0935	0.1195	622187	keystroke_p	p	n/a
311.4385	0.195	622877	keystroke_u	u	n/a
311.558	0.15	623116	keystroke_n	n	n/a
311.7535	0.1055	623507	keystroke_c	c	n/a
311.903	0.15	623806	keystroke_h	h	n/a
312.3075	0.1205	624615	keystroke_Key.enter	Key.enter	n/a
312.4345	14.9005	624869	prompt	n/a	development ownership vast douglas\n
313.267	0.0605	626534	keystroke_d	d	n/a
313.4025	0.135	626805	keystroke_e	e	n/a
313.5225	0.149	627045	keystroke_l	l	n/a
313.6575	0.12	627315	keystroke_e	e	n/a
315.637	0.1045	631274	keystroke_Key.backspace	Key.backspace	n/a
315.8015	0.075	631603	keystroke_Key.backspace	Key.backspace	n/a
315.9525	0.089	631905	keystroke_Key.backspace	Key.backspace	n/a
316.0565	0.1055	632113	keystroke_v	v	n/a
316.147	0.1505	632294	keystroke_e	e	n/a
316.596	0.06	633192	keystroke_Key.backspace	Key.backspace	n/a
316.7315	0.12	633463	keystroke_Key.backspace	Key.backspace	n/a
316.8215	0.15	633643	keystroke_e	e	n/a
317.0155	0.1055	634031	keystroke_v	v	n/a
317.1365	0.1345	634273	keystroke_e	e	n/a
317.7205	0.1505	635441	keystroke_l	l	n/a
317.841	0.105	635682	keystroke_o	o	n/a
318.021	0.1505	636042	keystroke_p	p	n/a
318.411	0.12	636822	keystroke_m	m	n/a
318.501	0.09	637002	keystroke_e	e	n/a
318.621	0.134	637242	keystroke_n	n	n/a
318.726	0.1195	637452	keystroke_t	t	n/a
318.9805	0.105	637961	keystroke_Key.space	Key.space	n/a
319.4455	0.1045	638891	keystroke_o	o	n/a
319.506	0.1345	639012	keystroke_w	w	n/a
319.565	0.1355	639130	keystroke_e	e	n/a
319.7605	0.135	639521	keystroke_n	n	n/a
319.9105	0.1495	639821	keystroke_e	e	n/a
320.0295	0.1355	640059	keystroke_r	r	n/a
320.4195	0.0755	640839	keystroke_Key.backspace	Key.backspace	n/a
320.5855	0.059	641171	keystroke_Key.backspace	Key.backspace	n/a
320.7355	0.0735	641471	keystroke_Key.backspace	Key.backspace	n/a
320.915	0.12	641830	keystroke_Key.backspace	Key.backspace	n/a
321.4995	0.1205	642999	keystroke_n	n	n/a
321.5595	0.1345	643119	keystroke_e	e	n/a
321.605	0.164	643210	keystroke_r	r	n/a
322.1895	0.134	644379	keystroke_s	s	n/a
322.5195	0.1045	645039	keystroke_h	h	n/a
322.7595	0.121	645519	keystroke_i	i	n/a
322.8205	0.1335	645641	keystroke_p	p	n/a
323.2845	0.1645	646569	keystroke_Key.space	Key.space	n/a
323.7485	0.0305	647497	keystroke_c	c	n/a
324.379	0.1045	648758	keystroke_Key.backspace	Key.backspace	n/a
324.5285	0.1055	649057	keystroke_v	v	n/a
324.7385	0.18	649477	keystroke_a	a	n/a
324.8735	0.135	649747	keystroke_s	s	n/a
325.1135	0.106	650227	keystroke_t	t	n/a
325.3685	0.0895	650737	keystroke_Key.space	Key.space	n/a
325.684	0.0895	651368	keystroke_d	d	n/a
326.0135	0.045	652027	keystroke_o	o	n/a
326.358	0.12	652716	keystroke_u	u	n/a
326.523	0.1205	653046	keystroke_g	g	n/a
326.6885	0.1345	653377	keystroke_l	l	n/a
326.808	0.2405	653616	keystroke_a	a	n/a
326.9735	0.119	653947	keystroke_s	s	n/a
327.1825	0.1505	654365	keystroke_Key.enter	Key.enter	n/a
327.339	10.2675	654678	prompt	n/a	perception faqs sized delicious\n
328.1425	0.1045	656285	keystroke_p	p	n/a
328.203	0.149	656406	keystroke_e	e	n/a
328.293	0.09	656586	keystroke_r	r	n/a
328.532	0.0905	657064	keystroke_c	c	n/a
328.6375	0.1365	657275	keystroke_e	e	n/a
328.848	0.119	657696	keystroke_p	p	n/a
329.0725	0.12	658145	keystroke_t	t	n/a
329.2075	0.1655	658415	keystroke_i	i	n/a
329.283	0.135	658566	keystroke_o	o	n/a
329.403	0.1495	658806	keystroke_n	n	n/a
329.657	0.15	659314	keystroke_Key.space	Key.space	n/a
330.692	0.1205	661384	keystroke_f	f	n/a
330.8575	0.1345	661715	keystroke_a	a	n/a
331.2775	0.075	662555	keystroke_q	q	n/a
331.667	0.12	663334	keystroke_s	s	n/a
331.8615	0.1205	663723	keystroke_Key.space	Key.space	n/a
332.4615	0.12	664923	keystroke_s	s	n/a
332.5515	0.09	665103	keystroke_i	i	n/a
332.717	0.1045	665434	keystroke_z	z	n/a
332.956	0.0905	665912	keystroke_e	e	n/a
333.166	0.1355	666332	keystroke_d	d	n/a
333.391	0.135	666782	keystroke_Key.space	Key.space	n/a
335.026	0.09	670052	keystroke_d	d	n/a
335.191	0.09	670382	keystroke_e	e	n/a
335.282	0.119	670564	keystroke_l	l	n/a
335.491	0.1645	670982	keystroke_i	i	n/a
336.3155	0.12	672631	keystroke_c	c	n/a
336.4055	0.2245	672811	keystroke_i	i	n/a
336.5405	0.1495	673081	keystroke_o	o	n/a
337.109	0.1355	674218	keystroke_u	u	n/a
337.185	0.1505	674370	keystroke_s	s	n/a
337.4845	0.12	674969	keystroke_Key.enter	Key.enter	n/a
337.6125	7.5825	675225	prompt	n/a	he'll walter voice income\n
338.5345	0.045	677069	keystroke_g	g	n/a
338.849	0.1355	677698	keystroke_Key.backspace	Key.backspace	n/a
338.9395	0.0895	677879	keystroke_h	h	n/a
339.045	0.1345	678090	keystroke_e	e	n/a
339.299	0.1055	678598	keystroke_;	;	n/a
339.824	0.12	679648	keystroke_Key.backspace	Key.backspace	n/a
340.1535	0.1055	680307	keystroke_'	'	n/a
340.694	0.09	681388	keystroke_l	l	n/a
340.8285	0.12	681657	keystroke_l	l	n/a
340.9485	0.1495	681897	keystroke_Key.space	Key.space	n/a
341.264	0.12	682528	keystroke_w	w	n/a
341.354	0.12	682708	keystroke_a	a	n/a
341.5935	0.105	683187	keystroke_l	l	n/a
341.833	0.076	683666	keystroke_t	t	n/a
341.9535	0.165	683907	keystroke_e	e	n/a
342.0435	0.136	684087	keystroke_r	r	n/a
342.2235	0.1355	684447	keystroke_Key.space	Key.space	n/a
342.6585	0.105	685317	keystroke_v	v	n/a
342.7785	0.1045	685557	keystroke_o	o	n/a
343.018	0.135	686036	keystroke_i	i	n/a
343.1085	0.09	686217	keystroke_c	c	n/a
343.213	0.165	686426	keystroke_e	e	n/a
343.408	0.1205	686816	keystroke_Key.space	Key.space	n/a
344.218	0.1505	688436	keystroke_i	i	n/a
344.308	0.121	688616	keystroke_n	n	n/a
344.4445	0.1035	688889	keystroke_c	c	n/a
344.55	0.193	689100	keystroke_o	o	n/a
344.728	0.1345	689456	keystroke_m	m	n/a
344.833	0.091	689666	keystroke_e	e	n/a
345.0875	0.105	690175	keystroke_Key.enter	Key.enter	n/a
345.198	10.5235	690396	prompt	n/a	feof teacher burner requesting\n
346.1225	0.09	692245	keystroke_f	f	n/a
346.2725	0.1195	692545	keystroke_e	e	n/a
346.437	0.12	692874	keystroke_o	o	n/a
346.5725	0.1045	693145	keystroke_f	f	n/a
346.782	0.135	693564	keystroke_Key.space	Key.space	n/a
347.4265	0.121	694853	keystroke_t	t	n/a
347.772	0.136	695544	keystroke_e	e	n/a
348.1915	0.075	696383	keystroke_Key.backspace	Key.backspace	n/a
348.567	0.119	697134	keystroke_e	e	n/a
348.657	0.165	697314	keystroke_a	a	n/a
349.2865	0.1055	698573	keystroke_c	c	n/a
349.407	0.044	698814	keystroke_h	h	n/a
349.4665	0.195	698933	keystroke_e	e	n/a
349.5565	0.1795	699113	keystroke_r	r	n/a
349.7205	0.1055	699441	keystroke_Key.space	Key.space	n/a
350.336	0.1505	700672	keystroke_b	b	n/a
350.4115	0.104	700823	keystroke_u	u	n/a
350.501	0.12	701002	keystroke_r	r	n/a
350.6505	0.196	701301	keystroke_n	n	n/a
350.7715	0.1645	701543	keystroke_e	e	n/a
350.8615	0.164	701723	keystroke_r	r	n/a
351.0565	0.1345	702113	keystroke_Key.space	Key.space	n/a
351.536	0.12	703072	keystroke_r	r	n/a
351.552	0.1195	703104	keystroke_e	e	n/a
352.451	0.1195	704902	keystroke_q	q	n/a
352.8255	0.09	705651	keystroke_u	u	n/a
353.261	0.105	706522	keystroke_e	e	n/a
353.4555	0.15	706911	keystroke_s	s	n/a
354.07	0.075	708140	keystroke_t	t	n/a
354.2055	0.165	708411	keystroke_i	i	n/a
354.295	0.1055	708590	keystroke_n	n	n/a
354.385	0.105	708770	keystroke_g	g	n/a
354.835	0.105	709670	keystroke_Key.space	Key.space	n/a
355.315	0.1045	710630	keystroke_Key.backspace	Key.backspace	n/a
355.615	0.105	711230	keystroke_Key.enter	Key.enter	n/a
355.725	10.8085	711450	prompt	n/a	instructional corn announce initially\n
356.65	0.1495	713300	keystroke_i	i	n/a
356.695	0.134	713390	keystroke_n	n	n/a
356.8135	0.1365	713627	keystroke_s	s	n/a
357.009	0.09	714018	keystroke_t	t	n/a
358.044	0.09	716088	keystroke_r	r	n/a
358.2245	0.1045	716449	keystroke_u	u	n/a
358.343	0.076	716686	keystroke_c	c	n/a
358.585	0.104	717170	keystroke_t	t	n/a
358.719	0.196	717438	keystroke_i	i	n/a
358.824	0.1495	717648	keystroke_o	o	n/a
358.9595	0.1345	717919	keystroke_n	n	n/a
359.1835	0.12	718367	keystroke_a	a	n/a
359.334	0.1495	718668	keystroke_l	l	n/a
359.633	0.121	719266	keystroke_Key.space	Key.space	n/a
360.0535	0.0895	720107	keystroke_c	c	n/a
360.173	0.12	720346	keystroke_o	o	n/a
360.3685	0.1045	720737	keystroke_r	r	n/a
360.5035	0.105	721007	keystroke_n	n	n/a
360.6385	0.119	721277	keystroke_Key.space	Key.space	n/a
361.403	0.09	722806	keystroke_a	a	n/a
361.508	0.0745	723016	keystroke_n	n	n/a
361.6425	0.12	723285	keystroke_n	n	n/a
361.8235	0.1495	723647	keystroke_o	o	n/a
362.033	0.15	724066	keystroke_u	u	n/a
362.153	0.105	724306	keystroke_n	n	n/a
362.273	0.059	724546	keystroke_c	c	n/a
362.3345	0.178	724669	keystroke_e	e	n/a
362.5275	0.15	725055	keystroke_Key.space	Key.space	n/a
363.262	0.1655	726524	keystroke_i	i	n/a
363.3975	0.135	726795	keystroke_n	n	n/a
363.5025	0.18	727005	keystroke_i	i	n/a
363.8175	0.12	727635	keystroke_t	t	n/a
364.0575	0.135	728115	keystroke_i	i	n/a
364.2075	0.1045	728415	keystroke_a	a	n/a
364.462	0.105	728924	keystroke_l	l	n/a
364.642	0.1355	729284	keystroke_l	l	n/a
365.632	0.135	731264	keystroke_y	y	n/a
365.872	0.075	731744	keystroke_Key.space	Key.space	n/a
366.4115	0.12	732823	keystroke_Key.enter	Key.enter	n/a
366.538	7.673	733076	prompt	n/a	jesus fixed christian harrison\n
367.4165	0.1495	734833	keystroke_j	j	n/a
367.5065	0.105	735013	keystroke_e	e	n/a
367.701	0.105	735402	keystroke_s	s	n/a
367.7165	0.15	735433	keystroke_u	u	n/a
368.331	0.0895	736662	keystroke_s	s	n/a
368.781	0.105	737562	keystroke_Key.space	Key.space	n/a
369.051	0.1045	738102	keystroke_f	f	n/a
369.1255	0.165	738251	keystroke_i	i	n/a
369.2605	0.106	738521	keystroke_x	x	n/a
369.6355	0.1355	739271	keystroke_e	e	n/a
369.8605	0.135	739721	keystroke_d	d	n/a
370.0255	0.12	740051	keystroke_Key.space	Key.space	n/a
370.356	0.134	740712	keystroke_c	c	n/a
370.535	0.1355	741070	keystroke_h	h	n/a
370.656	0.1195	741312	keystroke_r	r	n/a
370.82	0.1505	741640	keystroke_i	i	n/a
370.91	0.1655	741820	keystroke_s	s	n/a
371.06	0.12	742120	keystroke_t	t	n/a
371.225	0.166	742450	keystroke_i	i	n/a
371.435	0.09	742870	keystroke_a	a	n/a
371.72	0.09	743440	keystroke_n	n	n/a
371.885	0.135	743770	keystroke_Key.space	Key.space	n/a
372.41	0.1045	744820	keystroke_h	h	n/a
372.485	0.134	744970	keystroke_a	a	n/a
372.6495	0.1055	745299	keystroke_r	r	n/a
372.83	0.12	745660	keystroke_r	r	n/a
373.0405	0.1345	746081	keystroke_i	i	n/a
373.28	0.089	746560	keystroke_s	s	n/a
373.355	0.135	746710	keystroke_o	o	n/a
373.58	0.149	747160	keystroke_n	n	n/a
374.1495	0.059	748299	keystroke_Key.enter	Key.enter	n/a
374.2155	9.986	748431	prompt	n/a	plots generation logan graduates\n
375.3335	0.1205	750667	keystroke_p	p	n/a
375.3935	0.196	750787	keystroke_l	l	n/a
375.5445	0.1795	751089	keystroke_o	o	n/a
375.739	0.1195	751478	keystroke_t	t	n/a
375.9335	0.1655	751867	keystroke_s	s	n/a
376.113	0.1055	752226	keystroke_Key.space	Key.space	n/a
376.804	0.1195	753608	keystroke_g	g	n/a
376.8935	0.1345	753787	keystroke_e	e	n/a
377.073	0.136	754146	keystroke_n	n	n/a
377.1635	0.1355	754327	keystroke_e	e	n/a
377.359	0.089	754718	keystroke_r	r	n/a
377.538	0.1205	755076	keystroke_a	a	n/a
377.8235	0.105	755647	keystroke_t	t	n/a
378.0035	0.2095	756007	keystroke_i	i	n/a
378.033	0.165	756066	keystroke_o	o	n/a
378.1535	0.1495	756307	keystroke_n	n	n/a
378.453	0.135	756906	keystroke_Key.space	Key.space	n/a
379.128	0.165	758256	keystroke_l	l	n/a
379.263	0.1655	758526	keystroke_o	o	n/a
379.878	0.0905	759756	keystroke_h	h	n/a
380.2525	0.09	760505	keystroke_Key.backspace	Key.backspace	n/a
380.313	0.1045	760626	keystroke_g	g	n/a
380.5225	0.12	761045	keystroke_a	a	n/a
380.613	0.1345	761226	keystroke_n	n	n/a
380.8235	0.1185	761647	keystroke_Key.space	Key.space	n/a
381.363	0.1195	762726	keystroke_g	g	n/a
381.4675	0.1955	762935	keystroke_r	r	n/a
381.587	0.1355	763174	keystroke_e	e	n/a
381.917	0.0905	763834	keystroke_a	a	n/a
382.3225	0.0745	764645	keystroke_Key.backspace	Key.backspace	n/a
382.472	0.1355	764944	keystroke_Key.backspace	Key.backspace	n/a
382.578	0.1195	765156	keystroke_a	a	n/a
382.6825	0.135	765365	keystroke_d	d	n/a
383.282	0.106	766564	keystroke_u	u	n/a
383.3125	0.1045	766625	keystroke_a	a	n/a
383.477	0.1205	766954	keystroke_t	t	n/a
383.6125	0.1045	767225	keystroke_e	e	n/a
383.762	0.136	767524	keystroke_s	s	n/a
384.077	0.12	768154	keystroke_Key.enter	Key.enter	n/a
384.211	8.206	768422	prompt	n/a	speeds nicole campaign simplified\n
384.8265	0.135	769653	keystroke_s	s	n/a
384.9765	0.1495	769953	keystroke_p	p	n/a
385.111	0.0905	770222	keystroke_e	e	n/a
385.277	0.0895	770554	keystroke_e	e	n/a
385.4265	0.1055	770853	keystroke_d	d	n/a
385.4715	0.1795	770943	keystroke_s	s	n/a
385.6965	0.1195	771393	keystroke_Key.space	Key.space	n/a
386.326	0.15	772652	keystroke_n	n	n/a
386.386	0.15	772772	keystroke_i	i	n/a
386.672	0.1355	773344	keystroke_c	c	n/a
386.7915	0.135	773583	keystroke_o	o	n/a
386.971	0.1505	773942	keystroke_l	l	n/a
387.0615	0.15	774123	keystroke_e	e	n/a
387.2255	0.121	774451	keystroke_Key.space	Key.space	n/a
387.9455	0.09	775891	keystroke_c	c	n/a
388.1115	0.105	776223	keystroke_a	a	n/a
388.471	0.165	776942	keystroke_m	m	n/a
388.6215	0.194	777243	keystroke_p	p	n/a
388.7265	0.1345	777453	keystroke_a	a	n/a
389.0255	0.1645	778051	keystroke_i	i	n/a
389.205	0.1055	778410	keystroke_g	g	n/a
389.4755	0.15	778951	keystroke_n	n	n/a
389.986	0.134	779972	keystroke_Key.space	Key.space	n/a
390.2705	0.136	780541	keystroke_s	s	n/a
390.4355	0.135	780871	keystroke_i	i	n/a
390.6305	0.15	781261	keystroke_m	m	n/a
391.02	0.1055	782040	keystroke_p	p	n/a
391.275	0.0905	782550	keystroke_l	l	n/a
391.425	0.15	782850	keystroke_i	i	n/a
391.695	0.0905	783390	keystroke_f	f	n/a
391.725	0.195	783450	keystroke_i	i	n/a
391.935	0.105	783870	keystroke_e	e	n/a
392.1155	0.135	784231	keystroke_d	d	n/a
392.295	0.12	784590	keystroke_Key.enter	Key.enter	n/a
392.427	11.012	784854	prompt	n/a	discounted reproduced avenue not\n
393.06	0.1195	786120	keystroke_d	d	n/a
393.2845	0.1205	786569	keystroke_o	o	n/a
393.644	0.075	787288	keystroke_Key.backspace	Key.backspace	n/a
393.9145	0.12	787829	keystroke_i	i	n/a
394.0195	0.104	788039	keystroke_s	s	n/a
394.2895	0.106	788579	keystroke_c	c	n/a
394.6645	0.135	789329	keystroke_o	o	n/a
394.934	0.1515	789868	keystroke_u	u	n/a
394.995	0.134	789990	keystroke_n	n	n/a
395.579	0.09	791158	keystroke_t	t	n/a
395.684	0.12	791368	keystroke_e	e	n/a
395.864	0.15	791728	keystroke_d	d	n/a
396.0295	0.1195	792059	keystroke_Key.space	Key.space	n/a
396.2835	0.0905	792567	keystroke_r	r	n/a
396.329	0.1355	792658	keystroke_e	e	n/a
396.5835	0.136	793167	keystroke_p	p	n/a
397.1845	0.089	794369	keystroke_r	r	n/a
397.2585	0.1205	794517	keystroke_o	o	n/a
397.5135	0.075	795027	keystroke_c	c	n/a
397.8585	0.1045	795717	keystroke_Key.backspace	Key.backspace	n/a
397.934	0.1045	795868	keystroke_d	d	n/a
398.669	0.0595	797338	keystroke_u	u	n/a
398.7135	0.0305	797427	keystroke_c	c	n/a
399.043	0.06	798086	keystroke_d	d	n/a
399.613	0.06	799226	keystroke_Key.backspace	Key.backspace	n/a
399.9	0.118	799800	keystroke_e	e	n/a
400.063	0.165	800126	keystroke_d	d	n/a
400.198	0.15	800396	keystroke_Key.space	Key.space	n/a
400.6485	0.0905	801297	keystroke_a	a	n/a
401.173	0.09	802346	keystroke_v	v	n/a
401.309	0.149	802618	keystroke_e	e	n/a
401.474	0.194	802948	keystroke_n	n	n/a
401.6075	0.1505	803215	keystroke_u	u	n/a
401.772	0.15	803544	keystroke_e	e	n/a
401.952	0.135	803904	keystroke_Key.space	Key.space	n/a
402.912	0.135	805824	keystroke_n	n	n/a
402.987	0.135	805974	keystroke_o	o	n/a
403.032	0.105	806064	keystroke_t	t	n/a
403.287	0.15	806574	keystroke_Key.enter	Key.enter	n/a
403.4415	8.696	806883	prompt	n/a	rhode editorials border dare\n
404.997	0.0905	809994	keystroke_r	r	n/a
405.042	0.12	810084	keystroke_h	h	n/a
405.1015	0.1355	810203	keystroke_o	o	n/a
405.282	0.059	810564	keystroke_d	d	n/a
405.447	0.134	810894	keystroke_e	e	n/a
405.596	0.1055	811192	keystroke_Key.space	Key.space	n/a
405.882	0.119	811764	keystroke_e	e	n/a
406.062	0.12	812124	keystroke_d	d	n/a
406.4065	0.1345	812813	keystroke_i	i	n/a
406.8415	0.0895	813683	keystroke_t	t	n/a
406.9915	0.1195	813983	keystroke_o	o	n/a
407.246	0.1205	814492	keystroke_r	r	n/a
407.7255	0.12	815451	keystroke_i	i	n/a
407.816	0.1345	815632	keystroke_a	a	n/a
407.9965	0.134	815993	keystroke_l	l	n/a
408.1455	0.15	816291	keystroke_s	s	n/a
408.31	0.1055	816620	keystroke_Key.space	Key.space	n/a
409.0005	0.061	818001	keystroke_b	b	n/a
409.1505	0.105	818301	keystroke_o	o	n/a
409.2705	0.075	818541	keystroke_r	r	n/a
409.4355	0.0905	818871	keystroke_d	d	n/a
409.571	0.1505	819142	keystroke_e	e	n/a
410.0055	0.0905	820011	keystroke_r	r	n/a
410.35	0.09	820700	keystroke_Key.space	Key.space	n/a
410.8905	0.0595	821781	keystroke_a	a	n/a
411.2805	0.1345	822561	keystroke_Key.backspace	Key.backspace	n/a
411.2955	0.105	822591	keystroke_d	d	n/a
411.401	0.134	822802	keystroke_a	a	n/a
411.581	0.0745	823162	keystroke_r	r	n/a
411.6255	0.134	823251	keystroke_e	e	n/a
412.03	0.1045	824060	keystroke_Key.enter	Key.enter	n/a
412.142	9.728	824284	prompt	n/a	assumptions kong gravity contribution\n
412.81	0.136	825620	keystroke_a	a	n/a
412.96	0.1045	825920	keystroke_s	s	n/a
413.14	0.1505	826280	keystroke_s	s	n/a
413.2605	0.18	826521	keystroke_u	u	n/a
413.5005	0.1945	827001	keystroke_m	m	n/a
413.6965	0.1485	827393	keystroke_p	p	n/a
413.9805	0.119	827961	keystroke_t	t	n/a
414.0845	0.1355	828169	keystroke_i	i	n/a
414.1145	0.18	828229	keystroke_o	o	n/a
414.2495	0.135	828499	keystroke_n	n	n/a
414.3995	0.166	828799	keystroke_s	s	n/a
414.5665	0.118	829133	keystroke_Key.space	Key.space	n/a
415.1945	0.1495	830389	keystroke_k	k	n/a
415.269	0.135	830538	keystroke_o	o	n/a
415.554	0.1505	831108	keystroke_n	n	n/a
415.6745	0.15	831349	keystroke_g	g	n/a
415.8845	0.1195	831769	keystroke_Key.space	Key.space	n/a
416.7245	0.1045	833449	keystroke_g	g	n/a
416.9495	0.0895	833899	keystroke_r	r	n/a
417.04	0.1045	834080	keystroke_a	a	n/a
417.3245	0.1045	834649	keystroke_v	v	n/a
417.7	0.1195	835400	keystroke_i	i	n/a
418.239	0.1055	836478	keystroke_t	t	n/a
418.4345	0.105	836869	keystroke_y	y	n/a
418.6145	0.1195	837229	keystroke_Key.space	Key.space	n/a
419.0945	0.1045	838189	keystroke_c	c	n/a
419.334	0.135	838668	keystroke_o	o	n/a
419.559	0.1345	839118	keystroke_n	n	n/a
419.8585	0.12	839717	keystroke_t	t	n/a
420.0685	0.105	840137	keystroke_r	r	n/a
420.234	0.1805	840468	keystroke_i	i	n/a
420.5635	0.105	841127	keystroke_b	b	n/a
420.6535	0.135	841307	keystroke_u	u	n/a
420.9085	0.1205	841817	keystroke_t	t	n/a
421.149	0.165	842298	keystroke_i	i	n/a
421.209	0.15	842418	keystroke_o	o	n/a
421.329	0.15	842658	keystroke_n	n	n/a
421.7485	0.12	843497	keystroke_Key.enter	Key.enter	n/a
421.873	18.6545	843746	prompt	n/a	wide proposition variety americas\n
422.393	0.1805	844786	keystroke_w	w	n/a
422.633	0.1355	845266	keystroke_i	i	n/a
422.678	0.1055	845356	keystroke_d	d	n/a
422.8135	0.135	845627	keystroke_d	d	n/a
423.638	0.12	847276	keystroke_Key.backspace	Key.backspace	n/a
423.7125	0.151	847425	keystroke_e	e	n/a
423.833	0.1045	847666	keystroke_Key.space	Key.space	n/a
424.2835	0.104	848567	keystroke_p	p	n/a
424.4775	0.1505	848955	keystroke_o	o	n/a
424.598	0.1345	849196	keystroke_r	r	n/a
424.8535	0.164	849707	keystroke_o	o	n/a
425.228	0.074	850456	keystroke_Key.backspace	Key.backspace	n/a
425.408	0.03	850816	keystroke_Key.backspace	Key.backspace	n/a
425.497	0.0905	850994	keystroke_Key.backspace	Key.backspace	n/a
425.918	0.12	851836	keystroke_o	o	n/a
425.993	0.09	851986	keystroke_r	r	n/a
426.1275	0.105	852255	keystroke_p	p	n/a
426.3225	0.12	852645	keystroke_o	o	n/a
426.712	0.075	853424	keystroke_Key.backspace	Key.backspace	n/a
426.8775	0.0295	853755	keystroke_Key.backspace	Key.backspace	n/a
426.982	0.0605	853964	keystroke_Key.backspace	Key.backspace	n/a
427.1175	0.059	854235	keystroke_Key.backspace	Key.backspace	n/a
427.8075	0.105	855615	keystroke_r	r	n/a
427.8975	0.12	855795	keystroke_o	o	n/a
428.1525	0.12	856305	keystroke_p	p	n/a
428.3175	0.1795	856635	keystroke_o	o	n/a
429.742	0.075	859484	keystroke_Key.backspace	Key.backspace	n/a
429.8025	0.12	859605	keystroke_s	s	n/a
430.222	0.1195	860444	keystroke_Key.backspace	Key.backspace	n/a
430.492	0.135	860984	keystroke_o	o	n/a
430.597	0.12	861194	keystroke_s	s	n/a
431.1815	0.0905	862363	keystroke_t	t	n/a
431.226	0.0905	862452	keystroke_i	i	n/a
432.532	0.059	865064	keystroke_Key.backspace	Key.backspace	n/a
432.6815	0.104	865363	keystroke_Key.backspace	Key.backspace	n/a
433.2515	0.12	866503	keystroke_i	i	n/a
433.3565	0.104	866713	keystroke_t	t	n/a
433.4465	0.1495	866893	keystroke_i	i	n/a
433.5215	0.1495	867043	keystroke_o	o	n/a
433.6415	0.1495	867283	keystroke_n	n	n/a
434.211	0.135	868422	keystroke_Key.space	Key.space	n/a
434.6615	0.014	869323	keystroke_c	c	n/a
435.411	0.105	870822	keystroke_Key.backspace	Key.backspace	n/a
435.486	0.075	870972	keystroke_v	v	n/a
435.621	0.1355	871242	keystroke_a	a	n/a
436.2955	0.1055	872591	keystroke_r	r	n/a
436.341	0.105	872682	keystroke_i	i	n/a
436.506	0.1345	873012	keystroke_t	t	n/a
436.985	0.1205	873970	keystroke_Key.backspace	Key.backspace	n/a
437.0305	0.135	874061	keystroke_e	e	n/a
437.7355	0.105	875471	keystroke_t	t	n/a
437.9155	0.09	875831	keystroke_y	y	n/a
438.065	0.1195	876130	keystroke_Key.space	Key.space	n/a
438.545	0.045	877090	keystroke_a	a	n/a
438.605	0.1205	877210	keystroke_m	m	n/a
438.74	0.105	877480	keystroke_e	e	n/a
438.936	0.089	877872	keystroke_r	r	n/a
439.1305	0.1195	878261	keystroke_i	i	n/a
439.2955	0.0745	878591	keystroke_c	c	n/a
439.415	0.135	878830	keystroke_a	a	n/a
440.03	0.1195	880060	keystroke_s	s	n/a
440.3895	0.1355	880779	keystroke_Key.enter	Key.enter	n/a
440.5315	10.0135	881063	prompt	n/a	stocks turkish democracy achievement\n
441.365	0.1045	882730	keystroke_s	s	n/a
441.709	0.075	883418	keystroke_t	t	n/a
441.7995	0.12	883599	keystroke_o	o	n/a
441.964	0.1355	883928	keystroke_c	c	n/a
442.145	0.104	884290	keystroke_k	k	n/a
442.279	0.1655	884558	keystroke_s	s	n/a
442.4595	0.1505	884919	keystroke_Key.space	Key.space	n/a
442.985	0.059	885970	keystroke_t	t	n/a
443.284	0.1205	886568	keystroke_u	u	n/a
443.4495	0.075	886899	keystroke_r	r	n/a
443.735	0.164	887470	keystroke_k	k	n/a
443.914	0.1505	887828	keystroke_i	i	n/a
444.034	0.105	888068	keystroke_s	s	n/a
444.1995	0.12	888399	keystroke_h	h	n/a
444.334	0.09	888668	keystroke_Key.space	Key.space	n/a
445.1	0.119	890200	keystroke_d	d	n/a
445.221	0.103	890442	keystroke_e	e	n/a
445.4145	0.1805	890829	keystroke_m	m	n/a
445.58	0.1045	891160	keystroke_o	o	n/a
445.8645	0.089	891729	keystroke_c	c	n/a
446.2245	0.1045	892449	keystroke_r	r	n/a
446.3885	0.106	892777	keystroke_a	a	n/a
447.1685	0.09	894337	keystroke_c	c	n/a
447.4235	0.1205	894847	keystroke_y	y	n/a
447.6185	0.135	895237	keystroke_Key.space	Key.space	n/a
448.1585	0.105	896317	keystroke_a	a	n/a
448.4135	0.12	896827	keystroke_c	c	n/a
448.4885	0.105	896977	keystroke_h	h	n/a
448.7435	0.075	897487	keystroke_i	i	n/a
448.8195	0.073	897639	keystroke_e	e	n/a
449.1025	0.091	898205	keystroke_v	v	n/a
449.2085	0.105	898417	keystroke_e	e	n/a
449.869	0.0895	899738	keystroke_m	m	n/a
449.9285	0.089	899857	keystroke_e	e	n/a
450.033	0.1505	900066	keystroke_n	n	n/a
450.153	0.0895	900306	keystroke_t	t	n/a
450.423	0.12	900846	keystroke_Key.enter	Key.enter	n/a
450.5495	9.534	901099	prompt	n/a	thermal port hypothesis silly\n
451.368	0.105	902736	keystroke_t	t	n/a
451.503	0.105	903006	keystroke_h	h	n/a
451.593	0.1655	903186	keystroke_e	e	n/a
451.699	0.119	903398	keystroke_r	r	n/a
451.8935	0.15	903787	keystroke_m	m	n/a
452.0285	0.0895	904057	keystroke_a	a	n/a
452.2525	0.105	904505	keystroke_l	l	n/a
452.523	0.1345	905046	keystroke_Key.space	Key.space	n/a
453.1675	0.0605	906335	keystroke_p	p	n/a
453.3175	0.135	906635	keystroke_o	o	n/a
453.3775	0.105	906755	keystroke_r	r	n/a
453.5575	0.135	907115	keystroke_t	t	n/a
453.7075	0.12	907415	keystroke_Key.space	Key.space	n/a
454.652	0.12	909304	keystroke_h	h	n/a
454.712	0.09	909424	keystroke_y	y	n/a
455.043	0.0895	910086	keystroke_p	p	n/a
455.1475	0.06	910295	keystroke_p	p	n/a
455.1925	0.15	910385	keystroke_o	o	n/a
456.0015	0.0755	912003	keystroke_Key.backspace	Key.backspace	n/a
456.137	0.0745	912274	keystroke_Key.backspace	Key.backspace	n/a
456.3015	0.166	912603	keystroke_o	o	n/a
457.3515	0.105	914703	keystroke_t	t	n/a
457.4265	0.12	914853	keystroke_h	h	n/a
457.532	0.12	915064	keystroke_e	e	n/a
457.727	0.135	915454	keystroke_s	s	n/a
458.282	0.09	916564	keystroke_i	i	n/a
458.342	0.135	916684	keystroke_s	s	n/a
458.5665	0.1205	917133	keystroke_Key.space	Key.space	n/a
459.0015	0.135	918003	keystroke_s	s	n/a
459.2265	0.105	918453	keystroke_i	i	n/a
459.4365	0.075	918873	keystroke_l	l	n/a
459.5715	0.15	919143	keystroke_l	l	n/a
459.7365	0.09	919473	keystroke_y	y	n/a
459.9615	0.1195	919923	keystroke_Key.enter	Key.enter	n/a
460.0875	10.7195	920175	prompt	n/a	expensive files fellowship screens\n
460.967	0.0745	921934	keystroke_e	e	n/a
461.161	0.12	922322	keystroke_x	x	n/a
461.296	0.1055	922592	keystroke_p	p	n/a
461.5215	0.135	923043	keystroke_e	e	n/a
462.001	0.105	924002	keystroke_n	n	n/a
462.2415	0.1195	924483	keystroke_s	s	n/a
462.316	0.105	924632	keystroke_i	i	n/a
462.586	0.1655	925172	keystroke_e	e	n/a
463.111	0.1195	926222	keystroke_Key.backspace	Key.backspace	n/a
463.1715	0.089	926343	keystroke_v	v	n/a
463.246	0.1195	926492	keystroke_e	e	n/a
463.516	0.12	927032	keystroke_Key.space	Key.space	n/a
464.131	0.09	928262	keystroke_f	f	n/a
464.2365	0.1045	928473	keystroke_i	i	n/a
464.4315	0.1795	928863	keystroke_l	l	n/a
464.821	0.165	929642	keystroke_e	e	n/a
465.0305	0.135	930061	keystroke_s	s	n/a
465.241	0.1045	930482	keystroke_Key.space	Key.space	n/a
465.586	0.075	931172	keystroke_f	f	n/a
465.78	0.075	931560	keystroke_e	e	n/a
466.4405	0.075	932881	keystroke_l	l	n/a
466.591	0.0895	933182	keystroke_l	l	n/a
466.7405	0.165	933481	keystroke_o	o	n/a
467.5355	0.134	935071	keystroke_w	w	n/a
467.985	0.12	935970	keystroke_s	s	n/a
468.3	0.09	936600	keystroke_h	h	n/a
468.5405	0.1345	937081	keystroke_i	i	n/a
468.6	0.1355	937200	keystroke_p	p	n/a
468.9155	0.134	937831	keystroke_Key.space	Key.space	n/a
469.32	0.105	938640	keystroke_s	s	n/a
469.6955	0.075	939391	keystroke_c	c	n/a
469.9055	0.09	939811	keystroke_r	r	n/a
469.9805	0.06	939961	keystroke_e	e	n/a
470.1155	0.1045	940231	keystroke_e	e	n/a
470.2955	0.119	940591	keystroke_n	n	n/a
470.3995	0.1205	940799	keystroke_s	s	n/a
470.699	0.106	941398	keystroke_Key.enter	Key.enter	n/a
470.8115	11.439	941623	prompt	n/a	settle pulse combine anthropology\n
471.54	0.105	943080	keystroke_s	s	n/a
471.705	0.165	943410	keystroke_e	e	n/a
471.915	0.12	943830	keystroke_t	t	n/a
472.125	0.12	944250	keystroke_t	t	n/a
472.259	0.1355	944518	keystroke_l	l	n/a
472.3795	0.1805	944759	keystroke_e	e	n/a
472.545	0.135	945090	keystroke_Key.space	Key.space	n/a
473.2795	0.1045	946559	keystroke_p	p	n/a
473.6245	0.1205	947249	keystroke_u	u	n/a
473.8795	0.1495	947759	keystroke_l	l	n/a
473.9845	0.105	947969	keystroke_e	e	n/a
474.494	0.135	948988	keystroke_Key.backspace	Key.backspace	n/a
474.585	0.09	949170	keystroke_s	s	n/a
474.615	0.18	949230	keystroke_e	e	n/a
474.825	0.1045	949650	keystroke_Key.space	Key.space	n/a
475.305	0.0895	950610	keystroke_c	c	n/a
475.38	0.1195	950760	keystroke_o	o	n/a
475.635	0.15	951270	keystroke_m	m	n/a
476.1595	0.12	952319	keystroke_u	u	n/a
476.7745	0.105	953549	keystroke_Key.backspace	Key.backspace	n/a
477.2245	0.105	954449	keystroke_b	b	n/a
477.285	0.0895	954570	keystroke_i	i	n/a
477.4495	0.1345	954899	keystroke_n	n	n/a
477.5095	0.1495	955019	keystroke_e	e	n/a
477.66	0.134	955320	keystroke_Key.space	Key.space	n/a
478.2295	0.074	956459	keystroke_a	a	n/a
478.4255	0.104	956851	keystroke_n	n	n/a
478.6795	0.074	957359	keystroke_t	t	n/a
478.8455	0.089	957691	keystroke_r	r	n/a
479.009	0.0905	958018	keystroke_i	i	n/a
479.909	0.105	959818	keystroke_Key.backspace	Key.backspace	n/a
480.119	0.105	960238	keystroke_o	o	n/a
480.7025	0.106	961405	keystroke_p	p	n/a
480.853	0.1055	961706	keystroke_o	o	n/a
480.989	0.1345	961978	keystroke_l	l	n/a
481.1085	0.135	962217	keystroke_o	o	n/a
481.5135	0.106	963027	keystroke_g	g	n/a
481.694	0.1195	963388	keystroke_y	y	n/a
482.1285	0.1205	964257	keystroke_Key.enter	Key.enter	n/a
482.2555	9.533	964511	prompt	n/a	missing pressing therapist from\n
483.239	0.119	966478	keystroke_m	m	n/a
483.299	0.1345	966598	keystroke_i	i	n/a
483.3885	0.075	966777	keystroke_s	s	n/a
483.523	0.151	967046	keystroke_s	s	n/a
483.628	0.106	967256	keystroke_i	i	n/a
483.7635	0.12	967527	keystroke_n	n	n/a
483.794	0.1045	967588	keystroke_g	g	n/a
483.973	0.12	967946	keystroke_Key.space	Key.space	n/a
484.573	0.121	969146	keystroke_p	p	n/a
484.6185	0.1045	969237	keystroke_r	r	n/a
484.695	0.103	969390	keystroke_e	e	n/a
484.799	0.0735	969598	keystroke_s	s	n/a
484.933	0.15	969866	keystroke_s	s	n/a
485.098	0.1205	970196	keystroke_i	i	n/a
485.2635	0.1195	970527	keystroke_n	n	n/a
485.3235	0.1345	970647	keystroke_g	g	n/a
486.898	0.12	973796	keystroke_Key.space	Key.space	n/a
487.9175	0.105	975835	keystroke_t	t	n/a
488.0075	0.12	976015	keystroke_h	h	n/a
488.098	0.1645	976196	keystroke_e	e	n/a
488.203	0.1195	976406	keystroke_r	r	n/a
488.3525	0.121	976705	keystroke_a	a	n/a
488.8185	0.089	977637	keystroke_p	p	n/a
489.118	0.1205	978236	keystroke_i	i	n/a
489.2085	0.089	978417	keystroke_t	t	n/a
489.2995	0.134	978599	keystroke_s	s	n/a
489.8375	0.06	979675	keystroke_Key.backspace	Key.backspace	n/a
489.9725	0.105	979945	keystroke_Key.backspace	Key.backspace	n/a
490.0175	0.15	980035	keystroke_s	s	n/a
490.0925	0.12	980185	keystroke_t	t	n/a
490.5575	0.12	981115	keystroke_Key.space	Key.space	n/a
491.0075	0.06	982015	keystroke_f	f	n/a
491.1725	0.12	982345	keystroke_r	r	n/a
491.218	0.179	982436	keystroke_o	o	n/a
491.3525	0.1195	982705	keystroke_m	m	n/a
491.667	0.1205	983334	keystroke_Key.enter	Key.enter	n/a
491.7915	19.331	983583	prompt	n/a	turns programmes technological knights\n
499.8745	0.042	999749	keystroke_t	t	n/a
499.8865	0.1055	999773	keystroke_u	u	n/a
500.0215	0.1495	1000043	keystroke_r	r	n/a
500.157	0.1055	1000314	keystroke_n	n	n/a
500.2775	0.135	1000555	keystroke_s	s	n/a
500.712	0.09	1001424	keystroke_Key.space	Key.space	n/a
501.1315	0.105	1002263	keystroke_p	p	n/a
501.2215	0.12	1002443	keystroke_r	r	n/a
501.3565	0.09	1002713	keystroke_o	o	n/a
501.6415	0.105	1003283	keystroke_g	g	n/a
501.8675	0.0895	1003735	keystroke_r	r	n/a
501.9865	0.105	1003973	keystroke_a	a	n/a
502.0765	0.09	1004153	keystroke_m	m	n/a
502.241	0.121	1004482	keystroke_m	m	n/a
502.481	0.1655	1004962	keystroke_e	e	n/a
502.6165	0.1505	1005233	keystroke_s	s	n/a
502.7955	0.106	1005591	keystroke_Key.space	Key.space	n/a
503.7865	0.0595	1007573	keystroke_t	t	n/a
503.8315	0.09	1007663	keystroke_e	e	n/a
504.1765	0.075	1008353	keystroke_c	c	n/a
504.551	0.105	1009102	keystroke_h	h	n/a
504.9855	0.1955	1009971	keystroke_n	n	n/a
505.136	0.135	1010272	keystroke_o	o	n/a
505.751	0.075	1011502	keystroke_l	l	n/a
505.901	0.105	1011802	keystroke_o	o	n/a
506.381	0.1045	1012762	keystroke_g	g	n/a
506.4715	0.0895	1012943	keystroke_i	i	n/a
506.606	0.105	1013212	keystroke_a	a	n/a
506.846	0.075	1013692	keystroke_c	c	n/a
507.236	0.0605	1014472	keystroke_Key.backspace	Key.backspace	n/a
507.386	0.075	1014772	keystroke_Key.backspace	Key.backspace	n/a
507.536	0.09	1015072	keystroke_c	c	n/a
507.701	0.105	1015402	keystroke_a	a	n/a
508.4065	0.104	1016813	keystroke_l	l	n/a
508.5555	0.15	1017111	keystroke_Key.space	Key.space	n/a
509.9955	0.1055	1019991	keystroke_k	k	n/a
510.1915	0.15	1020383	keystroke_n	n	n/a
510.2665	0.1795	1020533	keystroke_i	i	n/a
510.49	0.106	1020980	keystroke_g	g	n/a
510.581	0.12	1021162	keystroke_h	h	n/a
510.686	0.12	1021372	keystroke_t	t	n/a
510.8215	0.12	1021643	keystroke_s	s	n/a
511.0305	0.0905	1022061	keystroke_Key.enter	Key.enter	n/a
511.13	6.682	1022260	prompt	n/a	kernel suspect klein eagle\n
512.0215	0.104	1024043	keystroke_k	k	n/a
512.1105	0.12	1024221	keystroke_e	e	n/a
512.1705	0.121	1024341	keystroke_r	r	n/a
512.3205	0.135	1024641	keystroke_n	n	n/a
512.5605	0.105	1025121	keystroke_e	e	n/a
512.8605	0.075	1025721	keystroke_l	l	n/a
513.0405	0.12	1026081	keystroke_Key.space	Key.space	n/a
513.4755	0.12	1026951	keystroke_s	s	n/a
513.731	0.06	1027462	keystroke_u	u	n/a
513.8055	0.1195	1027611	keystroke_s	s	n/a
514.075	0.105	1028150	keystroke_p	p	n/a
514.165	0.1355	1028330	keystroke_e	e	n/a
514.3455	0.1045	1028691	keystroke_c	c	n/a
514.585	0.0755	1029170	keystroke_t	t	n/a
514.7205	0.1195	1029441	keystroke_Key.space	Key.space	n/a
515.3955	0.1045	1030791	keystroke_k	k	n/a
515.71	0.1205	1031420	keystroke_l	l	n/a
515.8605	0.12	1031721	keystroke_e	e	n/a
515.9645	0.1665	1031929	keystroke_i	i	n/a
516.251	0.1185	1032502	keystroke_n	n	n/a
516.52	0.1055	1033040	keystroke_Key.space	Key.space	n/a
516.7755	0.119	1033551	keystroke_e	e	n/a
516.8795	0.136	1033759	keystroke_a	a	n/a
517.2095	0.105	1034419	keystroke_g	g	n/a
517.3445	0.1205	1034689	keystroke_l	l	n/a
517.466	0.134	1034932	keystroke_e	e	n/a
517.705	0.105	1035410	keystroke_Key.enter	Key.enter	n/a
517.8185	8.722	1035637	prompt	n/a	players simulations consent lenses\n
518.6955	0.0295	1037391	keystroke_p	p	n/a
518.815	0.09	1037630	keystroke_l	l	n/a
518.875	0.135	1037750	keystroke_a	a	n/a
519.2355	0.1045	1038471	keystroke_y	y	n/a
519.3255	0.134	1038651	keystroke_e	e	n/a
519.4005	0.1045	1038801	keystroke_r	r	n/a
519.549	0.151	1039098	keystroke_s	s	n/a
519.7595	0.135	1039519	keystroke_Key.space	Key.space	n/a
520.12	0.12	1040240	keystroke_s	s	n/a
520.3595	0.2105	1040719	keystroke_i	i	n/a
520.555	0.135	1041110	keystroke_m	m	n/a
521.2295	0.0455	1042459	keystroke_u	u	n/a
521.3495	0.12	1042699	keystroke_l	l	n/a
521.4235	0.121	1042847	keystroke_a	a	n/a
521.7095	0.105	1043419	keystroke_t	t	n/a
521.859	0.1505	1043718	keystroke_i	i	n/a
521.919	0.1655	1043838	keystroke_o	o	n/a
522.0995	0.15	1044199	keystroke_n	n	n/a
522.2645	0.15	1044529	keystroke_s	s	n/a
522.415	0.119	1044830	keystroke_Key.space	Key.space	n/a
522.639	0.1205	1045278	keystroke_c	c	n/a
522.7745	0.1195	1045549	keystroke_o	o	n/a
522.984	0.15	1045968	keystroke_n	n	n/a
523.089	0.135	1046178	keystroke_s	s	n/a
523.18	0.119	1046360	keystroke_e	e	n/a
523.314	0.165	1046628	keystroke_n	n	n/a
523.524	0.135	1047048	keystroke_t	t	n/a
523.7495	0.12	1047499	keystroke_Key.space	Key.space	n/a
524.154	0.12	1048308	keystroke_l	l	n/a
524.275	0.104	1048550	keystroke_e	e	n/a
524.409	0.165	1048818	keystroke_n	n	n/a
524.709	0.18	1049418	keystroke_s	s	n/a
524.844	0.12	1049688	keystroke_e	e	n/a
524.994	0.135	1049988	keystroke_s	s	n/a
525.189	0.105	1050378	keystroke_'	'	n/a
526.194	0.0595	1052388	keystroke_Key.backspace	Key.backspace	n/a
526.4335	0.105	1052867	keystroke_Key.enter	Key.enter	n/a
526.5435	6.281	1053087	prompt	n/a	latter boom neck wesley\n
527.3335	0.09	1054667	keystroke_l	l	n/a
527.3635	0.12	1054727	keystroke_a	a	n/a
527.6035	0.09	1055207	keystroke_t	t	n/a
527.7995	0.044	1055599	keystroke_t	t	n/a
527.8885	0.15	1055777	keystroke_e	e	n/a
527.9635	0.12	1055927	keystroke_r	r	n/a
528.368	0.09	1056736	keystroke_Key.space	Key.space	n/a
528.7885	0.1055	1057577	keystroke_b	b	n/a
528.9385	0.0745	1057877	keystroke_o	o	n/a
529.088	0.1055	1058176	keystroke_o	o	n/a
529.254	0.1645	1058508	keystroke_m	m	n/a
529.4035	0.1495	1058807	keystroke_Key.space	Key.space	n/a
529.974	0.1045	1059948	keystroke_n	n	n/a
530.0635	0.09	1060127	keystroke_e	e	n/a
530.2285	0.135	1060457	keystroke_c	c	n/a
530.3335	0.135	1060667	keystroke_k	k	n/a
530.4985	0.134	1060997	keystroke_Key.space	Key.space	n/a
531.1435	0.195	1062287	keystroke_w	w	n/a
531.2485	0.135	1062497	keystroke_e	e	n/a
531.5635	0.105	1063127	keystroke_s	s	n/a
531.7135	0.121	1063427	keystroke_l	l	n/a
532.1495	0.149	1064299	keystroke_e	e	n/a
532.2835	0.135	1064567	keystroke_y	y	n/a
532.6885	0.1345	1065377	keystroke_Key.enter	Key.enter	n/a
532.8285	10.39	1065657	prompt	n/a	parent pmid disputes luxury\n
533.6785	0.0895	1067357	keystroke_p	p	n/a
533.7235	0.1345	1067447	keystroke_a	a	n/a
533.9485	0.0755	1067897	keystroke_r	r	n/a
533.9935	0.165	1067987	keystroke_e	e	n/a
534.173	0.135	1068346	keystroke_n	n	n/a
534.293	0.1205	1068586	keystroke_t	t	n/a
534.4885	0.105	1068977	keystroke_Key.space	Key.space	n/a
535.718	0.09	1071436	keystroke_p	p	n/a
535.958	0.105	1071916	keystroke_m	m	n/a
536.003	0.134	1072006	keystroke_i	i	n/a
536.108	0.165	1072216	keystroke_d	d	n/a
536.303	0.105	1072606	keystroke_Key.space	Key.space	n/a
536.7675	0.1355	1073535	keystroke_d	d	n/a
536.9175	0.135	1073835	keystroke_i	i	n/a
537.038	0.12	1074076	keystroke_s	s	n/a
537.743	0.1055	1075486	keystroke_p	p	n/a
537.9975	0.1205	1075995	keystroke_i	i	n/a
538.387	0.106	1076774	keystroke_Key.backspace	Key.backspace	n/a
538.6725	0.1055	1077345	keystroke_u	u	n/a
538.898	0.09	1077796	keystroke_t	t	n/a
539.018	0.1195	1078036	keystroke_e	e	n/a
539.108	0.165	1078216	keystroke_s	s	n/a
539.3775	0.1045	1078755	keystroke_Key.space	Key.space	n/a
540.308	0.1045	1080616	keystroke_l	l	n/a
540.5935	0.1045	1081187	keystroke_u	u	n/a
540.7275	0.12	1081455	keystroke_x	x	n/a
540.8175	0.12	1081635	keystroke_u	u	n/a
542.7525	0.1205	1085505	keystroke_r	r	n/a
542.813	0.09	1085626	keystroke_y	y	n/a
543.0825	0.135	1086165	keystroke_Key.enter	Key.enter	n/a
543.2225	8.966	1086445	prompt	n/a	implications container preston comments\n
544.1775	0.1495	1088355	keystroke_i	i	n/a
544.2375	0.1045	1088475	keystroke_m	m	n/a
544.553	0.1055	1089106	keystroke_p	p	n/a
544.7475	0.1205	1089495	keystroke_l	l	n/a
544.9575	0.105	1089915	keystroke_i	i	n/a
545.1525	0.0895	1090305	keystroke_c	c	n/a
545.257	0.12	1090514	keystroke_a	a	n/a
545.4975	0.09	1090995	keystroke_t	t	n/a
545.5575	0.12	1091115	keystroke_i	i	n/a
545.6035	0.149	1091207	keystroke_o	o	n/a
545.7375	0.1195	1091475	keystroke_n	n	n/a
545.8725	0.149	1091745	keystroke_s	s	n/a
546.097	0.12	1092194	keystroke_Key.space	Key.space	n/a
546.472	0.0905	1092944	keystroke_c	c	n/a
546.7875	0.075	1093575	keystroke_o	o	n/a
546.9975	0.12	1093995	keystroke_n	n	n/a
547.1025	0.0905	1094205	keystroke_t	t	n/a
547.2525	0.1205	1094505	keystroke_a	a	n/a
547.387	0.1205	1094774	keystroke_i	i	n/a
547.5525	0.12	1095105	keystroke_n	n	n/a
547.8075	0.165	1095615	keystroke_e	e	n/a
547.9125	0.12	1095825	keystroke_r	r	n/a
548.2425	0.105	1096485	keystroke_Key.space	Key.space	n/a
548.812	0.077	1097624	keystroke_p	p	n/a
548.873	0.089	1097746	keystroke_r	r	n/a
548.917	0.105	1097834	keystroke_e	e	n/a
549.052	0.1655	1098104	keystroke_s	s	n/a
549.3225	0.12	1098645	keystroke_t	t	n/a
549.6975	0.12	1099395	keystroke_o	o	n/a
549.952	0.1055	1099904	keystroke_n	n	n/a
550.2525	0.1495	1100505	keystroke_Key.space	Key.space	n/a
550.672	0.105	1101344	keystroke_c	c	n/a
550.7625	0.1045	1101525	keystroke_o	o	n/a
550.972	0.0745	1101944	keystroke_m	m	n/a
551.107	0.075	1102214	keystroke_m	m	n/a
551.242	0.075	1102484	keystroke_e	e	n/a
551.272	0.135	1102544	keystroke_n	n	n/a
551.512	0.104	1103024	keystroke_t	t	n/a
551.857	0.12	1103714	keystroke_s	s	n/a
552.0515	0.135	1104103	keystroke_Key.enter	Key.enter	n/a
552.193	11.83	1104386	prompt	n/a	tears critical breaking alert\n
553.222	0.1045	1106444	keystroke_t	t	n/a
553.3125	0.03	1106625	keystroke_r	r	n/a
553.477	0.0445	1106954	keystroke_e	e	n/a
553.9115	0.045	1107823	keystroke_Key.backspace	Key.backspace	n/a
554.0015	0.1345	1108003	keystroke_e	e	n/a
554.2265	0.06	1108453	keystroke_Key.backspace	Key.backspace	n/a
554.3765	0.135	1108753	keystroke_Key.backspace	Key.backspace	n/a
554.4375	0.1345	1108875	keystroke_e	e	n/a
554.557	0.135	1109114	keystroke_a	a	n/a
554.782	0.06	1109564	keystroke_t	t	n/a
555.217	0.1195	1110434	keystroke_Key.backspace	Key.backspace	n/a
555.307	0.1195	1110614	keystroke_r	r	n/a
555.4715	0.1505	1110943	keystroke_s	s	n/a
555.726	0.12	1111452	keystroke_Key.space	Key.space	n/a
556.2815	0.075	1112563	keystroke_c	c	n/a
556.4915	0.1045	1112983	keystroke_r	r	n/a
556.5515	0.105	1113103	keystroke_i	i	n/a
556.7765	0.1045	1113553	keystroke_t	t	n/a
556.852	0.1195	1113704	keystroke_i	i	n/a
557.092	0.059	1114184	keystroke_c	c	n/a
557.211	0.105	1114422	keystroke_a	a	n/a
557.406	0.135	1114812	keystroke_l	l	n/a
557.616	0.1055	1115232	keystroke_Key.space	Key.space	n/a
558.1715	0.074	1116343	keystroke_b	b	n/a
558.3355	0.136	1116671	keystroke_e	e	n/a
558.8305	0.105	1117661	keystroke_Key.backspace	Key.backspace	n/a
558.8915	0.119	1117783	keystroke_r	r	n/a
558.9655	0.12	1117931	keystroke_e	e	n/a
559.1155	0.1355	1118231	keystroke_a	a	n/a
559.671	0.105	1119342	keystroke_k	k	n/a
559.8215	0.0295	1119643	keystroke_k	k	n/a
559.866	0.075	1119732	keystroke_i	i	n/a
560.046	0.1195	1120092	keystroke_n	n	n/a
560.075	0.136	1120150	keystroke_g	g	n/a
560.541	0.09	1121082	keystroke_Key.backspace	Key.backspace	n/a
560.706	0.0745	1121412	keystroke_Key.backspace	Key.backspace	n/a
560.8555	0.09	1121711	keystroke_Key.backspace	Key.backspace	n/a
561.3505	0.0905	1122701	keystroke_Key.backspace	Key.backspace	n/a
561.6815	0.134	1123363	keystroke_i	i	n/a
561.8615	0.149	1123723	keystroke_n	n	n/a
561.921	0.105	1123842	keystroke_g	g	n/a
562.821	0.12	1125642	keystroke_Key.space	Key.space	n/a
563.1515	0.119	1126303	keystroke_a	a	n/a
563.2565	0.1195	1126513	keystroke_l	l	n/a
563.421	0.1955	1126842	keystroke_e	e	n/a
563.511	0.1355	1127022	keystroke_r	r	n/a
563.721	0.12	1127442	keystroke_t	t	n/a
563.871	0.15	1127742	keystroke_Key.enter	Key.enter	n/a
564.027	8.2005	1128054	prompt	n/a	puzzle anything retention consumer\n
564.936	0.135	1129872	keystroke_p	p	n/a
565.281	0.0755	1130562	keystroke_u	u	n/a
565.5065	0.1045	1131013	keystroke_z	z	n/a
565.656	0.09	1131312	keystroke_z	z	n/a
565.747	0.119	1131494	keystroke_l	l	n/a
565.881	0.135	1131762	keystroke_e	e	n/a
566.031	0.12	1132062	keystroke_Key.space	Key.space	n/a
566.211	0.12	1132422	keystroke_a	a	n/a
566.421	0.1645	1132842	keystroke_n	n	n/a
566.9455	0.0905	1133891	keystroke_y	y	n/a
567.1255	0.1355	1134251	keystroke_t	t	n/a
567.2155	0.105	1134431	keystroke_h	h	n/a
567.4405	0.1205	1134881	keystroke_i	i	n/a
567.6215	0.149	1135243	keystroke_n	n	n/a
567.7555	0.15	1135511	keystroke_g	g	n/a
567.9655	0.1505	1135931	keystroke_Key.space	Key.space	n/a
568.5655	0.105	1137131	keystroke_r	r	n/a
568.6405	0.12	1137281	keystroke_e	e	n/a
568.896	0.104	1137792	keystroke_t	t	n/a
569.016	0.1195	1138032	keystroke_e	e	n/a
569.1955	0.1205	1138391	keystroke_n	n	n/a
569.7055	0.105	1139411	keystroke_t	t	n/a
569.9615	0.119	1139923	keystroke_i	i	n/a
569.9905	0.1655	1139981	keystroke_o	o	n/a
570.0965	0.149	1140193	keystroke_n	n	n/a
570.3955	0.12	1140791	keystroke_Key.space	Key.space	n/a
570.7255	0.075	1141451	keystroke_c	c	n/a
570.9955	0.105	1141991	keystroke_o	o	n/a
571.1905	0.15	1142381	keystroke_n	n	n/a
571.3705	0.15	1142741	keystroke_s	s	n/a
571.476	0.1045	1142952	keystroke_u	u	n/a
571.7015	0.119	1143403	keystroke_m	m	n/a
571.7905	0.12	1143581	keystroke_e	e	n/a
571.851	0.104	1143702	keystroke_r	r	n/a
572.1195	0.1055	1144239	keystroke_Key.enter	Key.enter	n/a
572.232	8.8745	1144464	prompt	n/a	noise petite fence pages\n
573.0355	0.075	1146071	keystroke_n	n	n/a
573.0655	0.195	1146131	keystroke_o	o	n/a
573.575	0.06	1147150	keystroke_Key.backspace	Key.backspace	n/a
574.2655	0.12	1148531	keystroke_o	o	n/a
574.4605	0.1495	1148921	keystroke_i	i	n/a
574.535	0.1805	1149070	keystroke_s	s	n/a
574.6255	0.195	1149251	keystroke_e	e	n/a
574.7905	0.1495	1149581	keystroke_Key.space	Key.space	n/a
575.4055	0.105	1150811	keystroke_p	p	n/a
575.465	0.1205	1150930	keystroke_e	e	n/a
575.735	0.1205	1151470	keystroke_t	t	n/a
575.961	0.119	1151922	keystroke_i	i	n/a
576.082	0.134	1152164	keystroke_r	r	n/a
576.186	0.12	1152372	keystroke_e	e	n/a
576.8005	0.089	1153601	keystroke_Key.backspace	Key.backspace	n/a
577.0855	0.0145	1154171	keystroke_Key.backspace	Key.backspace	n/a
577.1305	0.1645	1154261	keystroke_t	t	n/a
577.235	0.135	1154470	keystroke_e	e	n/a
577.6695	0.1205	1155339	keystroke_Key.space	Key.space	n/a
578.165	0.075	1156330	keystroke_f	f	n/a
578.36	0.105	1156720	keystroke_e	e	n/a
578.48	0.12	1156960	keystroke_n	n	n/a
578.675	0.09	1157350	keystroke_c	c	n/a
578.795	0.165	1157590	keystroke_e	e	n/a
578.945	0.15	1157890	keystroke_Key.space	Key.space	n/a
579.7695	0.106	1159539	keystroke_p	p	n/a
579.83	0.1055	1159660	keystroke_a	a	n/a
580.115	0.0305	1160230	keystroke_g	g	n/a
580.175	0.105	1160350	keystroke_e	e	n/a
580.745	0.1045	1161490	keystroke_s	s	n/a
580.9695	0.1355	1161939	keystroke_Key.enter	Key.enter	n/a
581.1115	6.6995	1162223	prompt	n/a	rise survival running hang\n
581.9745	0.09	1163949	keystroke_r	r	n/a
582.0945	0.165	1164189	keystroke_i	i	n/a
582.2	0.15	1164400	keystroke_s	s	n/a
582.305	0.1645	1164610	keystroke_e	e	n/a
582.529	0.1355	1165058	keystroke_Key.space	Key.space	n/a
583.1145	0.105	1166229	keystroke_s	s	n/a
583.445	0.09	1166890	keystroke_u	u	n/a
583.536	0.104	1167072	keystroke_r	r	n/a
583.85	0.09	1167700	keystroke_v	v	n/a
583.985	0.105	1167970	keystroke_i	i	n/a
584.135	0.105	1168270	keystroke_v	v	n/a
584.345	0.105	1168690	keystroke_a	a	n/a
584.465	0.12	1168930	keystroke_l	l	n/a
584.7495	0.105	1169499	keystroke_Key.space	Key.space	n/a
585.0795	0.09	1170159	keystroke_r	r	n/a
585.3045	0.1045	1170609	keystroke_u	u	n/a
585.4995	0.075	1170999	keystroke_n	n	n/a
585.619	0.1805	1171238	keystroke_n	n	n/a
585.769	0.1505	1171538	keystroke_i	i	n/a
585.9045	0.15	1171809	keystroke_n	n	n/a
585.9945	0.135	1171989	keystroke_g	g	n/a
586.2045	0.105	1172409	keystroke_Key.space	Key.space	n/a
586.9545	0.0905	1173909	keystroke_h	h	n/a
587.015	0.135	1174030	keystroke_a	a	n/a
587.164	0.121	1174328	keystroke_n	n	n/a
587.406	0.119	1174812	keystroke_g	g	n/a
587.69	0.1195	1175380	keystroke_Key.enter	Key.enter	n/a
587.8165	12.009	1175633	prompt	n/a	pixels photographer express peterson\n
588.7995	0.09	1177599	keystroke_p	p	n/a
589.01	0.134	1178020	keystroke_i	i	n/a
589.13	0.089	1178260	keystroke_x	x	n/a
589.3395	0.1205	1178679	keystroke_e	e	n/a
589.4895	0.1505	1178979	keystroke_l	l	n/a
589.67	0.165	1179340	keystroke_s	s	n/a
589.849	0.15	1179698	keystroke_Key.space	Key.space	n/a
590.2845	0.104	1180569	keystroke_p	p	n/a
590.839	0.1205	1181678	keystroke_h	h	n/a
590.9445	0.12	1181889	keystroke_o	o	n/a
591.1095	0.135	1182219	keystroke_t	t	n/a
591.1845	0.134	1182369	keystroke_o	o	n/a
591.755	0.104	1183510	keystroke_g	g	n/a
591.994	0.091	1183988	keystroke_r	r	n/a
592.1145	0.105	1184229	keystroke_a	a	n/a
592.264	0.1205	1184528	keystroke_[	[	n/a
592.6845	0.1345	1185369	keystroke_h	h	n/a
592.849	0.15	1185698	keystroke_e	e	n/a
592.909	0.1505	1185818	keystroke_r	r	n/a
593.5695	0.089	1187139	keystroke_Key.backspace	Key.backspace	n/a
593.689	0.06	1187378	keystroke_Key.backspace	Key.backspace	n/a
593.824	0.06	1187648	keystroke_Key.backspace	Key.backspace	n/a
593.9745	0.075	1187949	keystroke_Key.backspace	Key.backspace	n/a
595.594	0.105	1191188	keystroke_p	p	n/a
595.894	0.105	1191788	keystroke_h	h	n/a
595.9695	0.1645	1191939	keystroke_e	e	n/a
596.0285	0.1355	1192057	keystroke_r	r	n/a
596.179	0.15	1192358	keystroke_Key.space	Key.space	n/a
596.689	0.12	1193378	keystroke_e	e	n/a
596.914	0.135	1193828	keystroke_x	x	n/a
597.079	0.1045	1194158	keystroke_p	p	n/a
597.1985	0.12	1194397	keystroke_r	r	n/a
597.2745	0.119	1194549	keystroke_e	e	n/a
597.3945	0.104	1194789	keystroke_s	s	n/a
597.589	0.135	1195178	keystroke_s	s	n/a
597.814	0.104	1195628	keystroke_Key.space	Key.space	n/a
598.2945	0.104	1196589	keystroke_p	p	n/a
598.369	0.1495	1196738	keystroke_e	e	n/a
598.6085	0.0905	1197217	keystroke_t	t	n/a
598.744	0.149	1197488	keystroke_e	e	n/a
598.818	0.135	1197636	keystroke_r	r	n/a
599.0585	0.1195	1198117	keystroke_s	s	n/a
599.1635	0.1205	1198327	keystroke_o	o	n/a
599.419	0.105	1198838	keystroke_n	n	n/a
599.7185	0.105	1199437	keystroke_Key.enter	Key.enter	n/a
599.8315	8.681	1199663	prompt	n/a	itself steve actor vienna\n
600.8285	0.136	1201657	keystroke_i	i	n/a
600.9485	0.135	1201897	keystroke_t	t	n/a
601.159	0.15	1202318	keystroke_s	s	n/a
601.264	0.134	1202528	keystroke_e	e	n/a
601.414	0.134	1202828	keystroke_l	l	n/a
601.6235	0.045	1203247	keystroke_g	g	n/a
602.134	0.1045	1204268	keystroke_Key.backspace	Key.backspace	n/a
602.2085	0.1505	1204417	keystroke_f	f	n/a
602.4485	0.15	1204897	keystroke_Key.space	Key.space	n/a
603.304	0.1345	1206608	keystroke_s	s	n/a
603.424	0.1045	1206848	keystroke_t	t	n/a
603.5585	0.135	1207117	keystroke_e	e	n/a
603.8285	0.12	1207657	keystroke_v	v	n/a
603.9335	0.1205	1207867	keystroke_e	e	n/a
604.4435	0.1055	1208887	keystroke_Key.space	Key.space	n/a
605.104	0.105	1210208	keystroke_a	a	n/a
605.299	0.089	1210598	keystroke_c	c	n/a
605.794	0.105	1211588	keystroke_t	t	n/a
605.958	0.106	1211916	keystroke_o	o	n/a
606.034	0.179	1212068	keystroke_r	r	n/a
606.2285	0.12	1212457	keystroke_Key.space	Key.space	n/a
606.904	0.1045	1213808	keystroke_v	v	n/a
606.9935	0.105	1213987	keystroke_i	i	n/a
607.083	0.105	1214166	keystroke_e	e	n/a
607.324	0.105	1214648	keystroke_n	n	n/a
607.459	0.1495	1214918	keystroke_n	n	n/a
607.6235	0.045	1215247	keystroke_a	a	n/a
608.4045	0.089	1216809	keystroke_'	'	n/a
608.4185	0.09	1216837	keystroke_Key.enter	Key.enter	n/a
608.523	8.8215	1217046	prompt	n/a	divine no manchester auditor\n
609.6035	0.12	1219207	keystroke_d	d	n/a
609.6935	0.12	1219387	keystroke_i	i	n/a
610.324	0.104	1220648	keystroke_v	v	n/a
610.4445	0.149	1220889	keystroke_i	i	n/a
610.624	0.104	1221248	keystroke_n	n	n/a
610.653	0.03	1221306	keystroke_b	b	n/a
611.328	0.1045	1222656	keystroke_Key.backspace	Key.backspace	n/a
611.493	0.15	1222986	keystroke_e	e	n/a
611.6725	0.136	1223345	keystroke_Key.space	Key.space	n/a
612.513	0.1205	1225026	keystroke_n	n	n/a
612.5885	0.12	1225177	keystroke_o	o	n/a
612.678	0.105	1225356	keystroke_Key.space	Key.space	n/a
612.858	0.1345	1225716	keystroke_m	m	n/a
612.9475	0.1205	1225895	keystroke_a	a	n/a
613.128	0.12	1226256	keystroke_n	n	n/a
613.548	0.09	1227096	keystroke_c	c	n/a
613.6985	0.105	1227397	keystroke_h	h	n/a
613.7575	0.121	1227515	keystroke_e	e	n/a
613.9535	0.165	1227907	keystroke_s	s	n/a
614.1625	0.136	1228325	keystroke_t	t	n/a
614.4475	0.1355	1228895	keystroke_e	e	n/a
614.493	0.1355	1228986	keystroke_r	r	n/a
615.138	0.105	1230276	keystroke_Key.space	Key.space	n/a
615.3185	0.1045	1230637	keystroke_a	a	n/a
615.5135	0.1045	1231027	keystroke_u	u	n/a
615.8285	0.0895	1231657	keystroke_d	d	n/a
616.038	0.105	1232076	keystroke_i	i	n/a
616.2635	0.12	1232527	keystroke_t	t	n/a
616.668	0.105	1233336	keystroke_o	o	n/a
616.788	0.09	1233576	keystroke_r	r	n/a
617.238	0.105	1234476	keystroke_Key.enter	Key.enter	n/a
617.349	8.9655	1234698	prompt	n/a	trainers approach sitting capacity\n
618.273	0.09	1236546	keystroke_t	t	n/a
618.453	0.075	1236906	keystroke_r	r	n/a
618.543	0.12	1237086	keystroke_a	a	n/a
618.6485	0.12	1237297	keystroke_i	i	n/a
618.8585	0.1205	1237717	keystroke_n	n	n/a
619.009	0.134	1238018	keystroke_e	e	n/a
619.068	0.135	1238136	keystroke_r	r	n/a
619.264	0.1495	1238528	keystroke_s	s	n/a
619.488	0.12	1238976	keystroke_Key.space	Key.space	n/a
619.818	0.1045	1239636	keystroke_a	a	n/a
619.938	0.09	1239876	keystroke_p	p	n/a
620.0875	0.1055	1240175	keystroke_p	p	n/a
620.283	0.1205	1240566	keystroke_r	r	n/a
620.358	0.135	1240716	keystroke_o	o	n/a
620.6725	0.12	1241345	keystroke_a	a	n/a
620.8685	0.1195	1241737	keystroke_c	c	n/a
620.9575	0.1355	1241915	keystroke_h	h	n/a
621.213	0.1345	1242426	keystroke_Key.space	Key.space	n/a
621.558	0.135	1243116	keystroke_s	s	n/a
621.753	0.12	1243506	keystroke_i	i	n/a
621.9325	0.06	1243865	keystroke_t	t	n/a
622.068	0.135	1244136	keystroke_t	t	n/a
622.1435	0.119	1244287	keystroke_i	i	n/a
622.3525	0.12	1244705	keystroke_n	n	n/a
622.459	0.074	1244918	keystroke_f	f	n/a
623.268	0.105	1246536	keystroke_Key.backspace	Key.backspace	n/a
623.343	0.12	1246686	keystroke_g	g	n/a
623.568	0.1195	1247136	keystroke_Key.space	Key.space	n/a
624.288	0.045	1248576	keystroke_c	c	n/a
624.4075	0.0895	1248815	keystroke_a	a	n/a
624.5275	0.1355	1249055	keystroke_p	p	n/a
624.678	0.09	1249356	keystroke_a	a	n/a
625.413	0.119	1250826	keystroke_c	c	n/a
625.503	0.105	1251006	keystroke_i	i	n/a
625.742	0.105	1251484	keystroke_t	t	n/a
625.968	0.1195	1251936	keystroke_y	y	n/a
626.208	0.1045	1252416	keystroke_Key.enter	Key.enter	n/a
626.319	7.78	1252638	prompt	n/a	gone weblog latina differences\n
627.183	0.09	1254366	keystroke_g	g	n/a
627.213	0.0745	1254426	keystroke_o	o	n/a
627.4085	0.119	1254817	keystroke_n	n	n/a
