onset	duration	sample	value	key	prompt_text
11.796	9.9905	23592	prompt	n/a	the quick brown fox jumps over a lazy dog\n
13.867	0.041	27734	keystroke_t	t	n/a
13.924	0.089	27848	keystroke_h	h	n/a
14.073	0.135	28146	keystroke_e	e	n/a
14.209	0.089	28418	keystroke_Key.space	Key.space	n/a
14.508	0.135	29016	keystroke_q	q	n/a
14.613	0.165	29226	keystroke_u	u	n/a
14.719	0.15	29438	keystroke_i	i	n/a
14.913	0.136	29826	keystroke_c	c	n/a
15.033	0.15	30066	keystroke_k	k	n/a
15.288	0.12	30576	keystroke_Key.space	Key.space	n/a
15.498	0.1055	30996	keystroke_b	b	n/a
15.6485	0.15	31297	keystroke_r	r	n/a
15.9035	0.105	31807	keystroke_o	o	n/a
16.0535	0.12	32107	keystroke_w	w	n/a
16.2035	0.09	32407	keystroke_n	n	n/a
16.4135	0.12	32827	keystroke_Key.space	Key.space	n/a
16.6535	0.12	33307	keystroke_f	f	n/a
16.7745	0.059	33549	keystroke_o	o	n/a
16.9385	0.105	33877	keystroke_x	x	n/a
17.1335	0.09	34267	keystroke_Key.space	Key.space	n/a
17.7485	0.075	35497	keystroke_j	j	n/a
17.7635	0.165	35527	keystroke_u	u	n/a
18.0785	0.105	36157	keystroke_m	m	n/a
18.3035	0.105	36607	keystroke_p	p	n/a
18.5135	0.15	37027	keystroke_s	s	n/a
18.7535	0.12	37507	keystroke_Key.space	Key.space	n/a
18.9035	0.06	37807	keystroke_o	o	n/a
19.1285	0.105	38257	keystroke_v	v	n/a
19.2485	0.105	38497	keystroke_e	e	n/a
19.3385	0.135	38677	keystroke_r	r	n/a
19.4285	0.105	38857	keystroke_Key.space	Key.space	n/a
19.6085	0.1795	39217	keystroke_a	a	n/a
19.7735	0.0895	39547	keystroke_Key.space	Key.space	n/a
19.908	0.1355	39816	keystroke_l	l	n/a
20.0585	0.09	40117	keystroke_a	a	n/a
20.2535	0.149	40507	keystroke_z	z	n/a
20.5675	0.12	41135	keystroke_y	y	n/a
20.8825	0.135	41765	keystroke_Key.space	Key.space	n/a
21.1085	0.104	42217	keystroke_d	d	n/a
21.1825	0.135	42365	keystroke_o	o	n/a
21.3025	0.105	42605	keystroke_g	g	n/a
21.6925	0.09	43385	keystroke_Key.enter	Key.enter	n/a
21.7935	8.2275	43587	prompt	n/a	kills value button compact\n
22.5785	0.09	45157	keystroke_k	k	n/a
22.7885	0.074	45577	keystroke_i	i	n/a
22.9835	0.09	45967	keystroke_l	l	n/a
23.1785	0.089	46357	keystroke_l	l	n/a
23.3875	0.136	46775	keystroke_s	s	n/a
23.7485	0.149	47497	keystroke_Key.space	Key.space	n/a
24.2435	0.089	48487	keystroke_v	v	n/a
24.4835	0.1645	48967	keystroke_a	a	n/a
24.6785	0.0885	49357	keystroke_l	l	n/a
24.8585	0.135	49717	keystroke_u	u	n/a
25.0685	0.105	50137	keystroke_e	e	n/a
25.412	0.091	50824	keystroke_Key.space	Key.space	n/a
25.7435	0.075	51487	keystroke_b	b	n/a
26.0285	0.119	52057	keystroke_u	u	n/a
26.3435	0.0745	52687	keystroke_t	t	n/a
26.538	0.0905	53076	keystroke_t	t	n/a
26.7635	0.1045	53527	keystroke_o	o	n/a
27.048	0.09	54096	keystroke_n	n	n/a
27.332	0.121	54664	keystroke_Key.space	Key.space	n/a
27.783	0.075	55566	keystroke_c	c	n/a
27.933	0.12	55866	keystroke_o	o	n/a
28.173	0.105	56346	keystroke_m	m	n/a
28.398	0.105	56796	keystroke_p	p	n/a
28.548	0.105	57096	keystroke_a	a	n/a
28.788	0.12	57576	keystroke_c	c	n/a
29.118	0.09	58236	keystroke_t	t	n/a
29.913	0.105	59826	keystroke_Key.enter	Key.enter	n/a
30.027	11.4685	60054	prompt	n/a	dakota metals shots wired\n
30.753	0.09	61506	keystroke_d	d	n/a
30.993	0.12	61986	keystroke_a	a	n/a
31.263	0.105	62526	keystroke_t	t	n/a
31.353	0.105	62706	keystroke_o	o	n/a
32.163	0.075	64326	keystroke_Key.backspace	Key.backspace	n/a
32.373	0.105	64746	keystroke_Key.backspace	Key.backspace	n/a
33.168	0.105	66336	keystroke_k	k	n/a
33.378	0.09	66756	keystroke_o	o	n/a
33.633	0.1045	67266	keystroke_t	t	n/a
33.873	0.12	67746	keystroke_a	a	n/a
34.143	0.12	68286	keystroke_Key.space	Key.space	n/a
34.4875	0.1205	68975	keystroke_m	m	n/a
36.5125	0.15	73025	keystroke_e	e	n/a
37.0375	0.075	74075	keystroke_t	t	n/a
37.2325	0.12	74465	keystroke_a	a	n/a
37.3975	0.12	74795	keystroke_l	l	n/a
37.6225	0.075	75245	keystroke_s	s	n/a
38.0725	0.12	76145	keystroke_Key.space	Key.space	n/a
38.3425	0.15	76685	keystroke_s	s	n/a
38.5375	0.105	77075	keystroke_h	h	n/a
38.7175	0.105	77435	keystroke_o	o	n/a
38.9275	0.075	77855	keystroke_t	t	n/a
39.2875	0.09	78575	keystroke_s	s	n/a
39.5875	0.12	79175	keystroke_Key.space	Key.space	n/a
39.9025	0.12	79805	keystroke_w	w	n/a
40.0675	0.12	80135	keystroke_i	i	n/a
40.2925	0.105	80585	keystroke_r	r	n/a
40.4875	0.09	80975	keystroke_e	e	n/a
40.7275	0.075	81455	keystroke_d	d	n/a
41.4175	0.075	82835	keystroke_Key.enter	Key.enter	n/a
41.5015	11.903	83003	prompt	n/a	keep williams points performance\n
43.2325	0.105	86465	keystroke_k	k	n/a
43.4275	0.075	86855	keystroke_e	e	n/a
43.6225	0.135	87245	keystroke_e	e	n/a
43.8625	0.105	87725	keystroke_p	p	n/a
44.0725	0.12	88145	keystroke_Key.space	Key.space	n/a
44.3275	0.075	88655	keystroke_w	w	n/a
44.4175	0.105	88835	keystroke_i	i	n/a
44.6425	0.09	89285	keystroke_l	l	n/a
44.9575	0.016	89915	keystroke_l	l	n/a
45.0325	0.09	90065	keystroke_i	i	n/a
45.4075	0.18	90815	keystroke_a	a	n/a
45.6025	0.105	91205	keystroke_m	m	n/a
45.8425	0.09	91685	keystroke_s	s	n/a
46.2625	0.105	92525	keystroke_Key.space	Key.space	n/a
46.5775	0.105	93155	keystroke_p	p	n/a
46.8035	0.12	93607	keystroke_o	o	n/a
47.0275	0.135	94055	keystroke_i	i	n/a
47.2075	0.12	94415	keystroke_n	n	n/a
47.5525	0.105	95105	keystroke_t	t	n/a
48.6475	0.075	97295	keystroke_s	s	n/a
48.8875	0.12	97775	keystroke_Key.space	Key.space	n/a
49.2925	0.105	98585	keystroke_p	p	n/a
49.8025	0.09	99605	keystroke_e	e	n/a
50.0725	0.105	100145	keystroke_r	r	n/a
50.2975	0.0905	100595	keystroke_f	f	n/a
50.433	0.12	100866	keystroke_o	o	n/a
50.583	0.12	101166	keystroke_r	r	n/a
50.763	0.119	101526	keystroke_m	m	n/a
50.913	0.135	101826	keystroke_a	a	n/a
51.108	0.105	102216	keystroke_n	n	n/a
51.393	0.12	102786	keystroke_c	c	n/a
51.693	0.075	103386	keystroke_e	e	n/a
53.328	0.075	106656	keystroke_Key.enter	Key.enter	n/a
53.4085	10.091	106817	prompt	n/a	foul wins academic pentium\n
55.113	0.075	110226	keystroke_f	f	n/a
55.308	0.09	110616	keystroke_o	o	n/a
55.532	0.105	111064	keystroke_u	u	n/a
55.773	0.104	111546	keystroke_l	l	n/a
56.012	0.135	112024	keystroke_Key.space	Key.space	n/a
56.268	0.105	112536	keystroke_w	w	n/a
56.4475	0.105	112895	keystroke_i	i	n/a
56.6575	0.105	113315	keystroke_n	n	n/a
57.0775	0.105	114155	keystroke_s	s	n/a
57.6775	0.09	115355	keystroke_Key.space	Key.space	n/a
57.9025	0.09	115805	keystroke_a	a	n/a
58.1875	0.105	116375	keystroke_c	c	n/a
58.3975	0.0905	116795	keystroke_a	a	n/a
58.563	0.12	117126	keystroke_d	d	n/a
58.833	0.09	117666	keystroke_e	e	n/a
58.983	0.09	117966	keystroke_m	m	n/a
59.193	0.12	118386	keystroke_i	i	n/a
59.403	0.105	118806	keystroke_c	c	n/a
59.718	0.135	119436	keystroke_Key.space	Key.space	n/a
60.213	0.12	120426	keystroke_p	p	n/a
60.5575	0.15	121115	keystroke_e	e	n/a
60.7975	0.12	121595	keystroke_n	n	n/a
61.3375	0.12	122675	keystroke_t	t	n/a
62.0125	0.09	124025	keystroke_i	i	n/a
62.3125	0.09	124625	keystroke_u	u	n/a
62.7475	0.09	125495	keystroke_m	m	n/a
63.4075	0.09	126815	keystroke_Key.enter	Key.enter	n/a
63.505	9.745	127010	prompt	n/a	everywhere asks interval sessions\n
64.5325	0.135	129065	keystroke_e	e	n/a
64.7575	0.105	129515	keystroke_v	v	n/a
64.9375	0.15	129875	keystroke_e	e	n/a
65.0725	0.135	130145	keystroke_r	r	n/a
65.3425	0.105	130685	keystroke_y	y	n/a
65.6575	0.15	131315	keystroke_w	w	n/a
65.8375	0.12	131675	keystroke_h	h	n/a
66.0775	0.135	132155	keystroke_e	e	n/a
66.1975	0.18	132395	keystroke_r	r	n/a
66.3475	0.12	132695	keystroke_e	e	n/a
66.7075	0.09	133415	keystroke_Key.space	Key.space	n/a
66.9775	0.18	133955	keystroke_a	a	n/a
67.0975	0.165	134195	keystroke_s	s	n/a
67.4725	0.105	134945	keystroke_k	k	n/a
68.0575	0.12	136115	keystroke_s	s	n/a
68.3275	0.12	136655	keystroke_Key.space	Key.space	n/a
68.5525	0.195	137105	keystroke_i	i	n/a
68.7025	0.12	137405	keystroke_n	n	n/a
69.0025	0.09	138005	keystroke_t	t	n/a
69.2425	0.15	138485	keystroke_e	e	n/a
69.3625	0.151	138725	keystroke_r	r	n/a
69.7075	0.105	139415	keystroke_v	v	n/a
69.9625	0.165	139925	keystroke_a	a	n/a
70.3225	0.12	140645	keystroke_l	l	n/a
70.6825	0.135	141365	keystroke_Key.space	Key.space	n/a
70.9675	0.135	141935	keystroke_s	s	n/a
71.2225	0.12	142445	keystroke_e	e	n/a
71.4175	0.09	142835	keystroke_s	s	n/a
71.628	0.09	143256	keystroke_s	s	n/a
71.823	0.105	143646	keystroke_i	i	n/a
72.048	0.135	144096	keystroke_o	o	n/a
72.228	0.12	144456	keystroke_n	n	n/a
72.498	0.105	144996	keystroke_s	s	n/a
73.173	0.075	146346	keystroke_Key.enter	Key.enter	n/a
73.259	12.382	146518	prompt	n/a	maiden anticipated avon monetary\n
74.313	0.135	148626	keystroke_m	m	n/a
74.568	0.12	149136	keystroke_a	a	n/a
74.703	0.12	149406	keystroke_i	i	n/a
74.928	0.075	149856	keystroke_d	d	n/a
75.168	0.09	150336	keystroke_e	e	n/a
75.378	0.105	150756	keystroke_n	n	n/a
75.723	0.12	151446	keystroke_Key.space	Key.space	n/a
75.948	0.12	151896	keystroke_a	a	n/a
76.368	0.075	152736	keystroke_n	n	n/a
78.183	0.105	156366	keystroke_t	t	n/a
78.333	0.12	156666	keystroke_i	i	n/a
78.603	0.105	157206	keystroke_c	c	n/a
78.753	0.075	157506	keystroke_i	i	n/a
78.918	0.135	157836	keystroke_p	p	n/a
79.083	0.12	158166	keystroke_a	a	n/a
79.383	0.105	158766	keystroke_t	t	n/a
79.593	0.09	159186	keystroke_e	e	n/a
79.848	0.06	159696	keystroke_d	d	n/a
80.238	0.1195	160476	keystroke_Key.space	Key.space	n/a
80.5075	0.09	161015	keystroke_a	a	n/a
80.8075	0.106	161615	keystroke_v	v	n/a
81.0325	0.106	162065	keystroke_o	o	n/a
81.2885	0.074	162577	keystroke_n	n	n/a
81.6025	0.105	163205	keystroke_Key.space	Key.space	n/a
81.7525	0.12	163505	keystroke_m	m	n/a
82.0225	0.12	164045	keystroke_o	o	n/a
82.2935	0.1045	164587	keystroke_n	n	n/a
82.533	0.135	165066	keystroke_e	e	n/a
82.833	0.105	165666	keystroke_t	t	n/a
83.073	0.15	166146	keystroke_a	a	n/a
83.328	0.12	166656	keystroke_r	r	n/a
83.523	0.105	167046	keystroke_y	y	n/a
85.488	0.15	170976	keystroke_Key.enter	Key.enter	n/a
85.645	14.98	171290	prompt	n/a	municipal tires nylon why's\n
86.703	0.105	173406	keystroke_m	m	n/a
87.213	0.09	174426	keystroke_u	u	n/a
88.278	0.09	176556	keystroke_n	n	n/a
88.5335	0.105	177067	keystroke_i	i	n/a
89.4485	0.09	178897	keystroke_c	c	n/a
89.7035	0.105	179407	keystroke_i	i	n/a
89.9285	0.135	179857	keystroke_p	p	n/a
90.2435	0.105	180487	keystroke_a	a	n/a
90.423	0.075	180846	keystroke_l	l	n/a
91.563	0.12	183126	keystroke_Key.space	Key.space	n/a
91.878	0.075	183756	keystroke_t	t	n/a
92.013	0.135	184026	keystroke_i	i	n/a
92.268	0.18	184536	keystroke_r	r	n/a
92.658	0.105	185316	keystroke_e	e	n/a
92.898	0.105	185796	keystroke_s	s	n/a
93.588	0.105	187176	keystroke_Key.space	Key.space	n/a
94.623	0.075	189246	keystroke_n	n	n/a
94.893	0.15	189786	keystroke_y	y	n/a
95.223	0.12	190446	keystroke_l	l	n/a
95.598	0.12	191196	keystroke_o	o	n/a
96.003	0.075	192006	keystroke_n	n	n/a
96.513	0.105	193026	keystroke_Key.space	Key.space	n/a
96.693	0.12	193386	keystroke_w	w	n/a
96.798	0.105	193596	keystroke_h	h	n/a
97.158	0.135	194316	keystroke_y	y	n/a
98.058	0.105	196116	keystroke_'	'	n/a
98.238	0.225	196476	keystroke_s	s	n/a
98.703	0.075	197406	keystroke_Key.space	Key.space	n/a
100.128	0.09	200256	keystroke_Key.backspace	Key.backspace	n/a
100.533	0.09	201066	keystroke_Key.enter	Key.enter	n/a
100.6295	8.411	201259	prompt	n/a	alto error price deemed\n
101.673	0.165	203346	keystroke_a	a	n/a
101.823	0.091	203646	keystroke_l	l	n/a
102.693	0.075	205386	keystroke_t	t	n/a
102.828	0.12	205656	keystroke_o	o	n/a
103.083	0.105	206166	keystroke_Key.space	Key.space	n/a
103.323	0.105	206646	keystroke_e	e	n/a
103.533	0.06	207066	keystroke_r	r	n/a
103.713	0.075	207426	keystroke_r	r	n/a
103.893	0.12	207786	keystroke_o	o	n/a
104.044	0.104	208088	keystroke_r	r	n/a
104.373	0.105	208746	keystroke_Key.space	Key.space	n/a
104.538	0.135	209076	keystroke_p	p	n/a
104.748	0.105	209496	keystroke_r	r	n/a
104.943	0.135	209886	keystroke_i	i	n/a
105.168	0.09	210336	keystroke_c	c	n/a
105.498	0.091	210996	keystroke_e	e	n/a
106.008	0.15	212016	keystroke_Key.space	Key.space	n/a
106.3685	0.09	212737	keystroke_d	d	n/a
107.358	0.09	214716	keystroke_e	e	n/a
107.598	0.105	215196	keystroke_e	e	n/a
107.808	0.105	215616	keystroke_m	m	n/a
108.018	0.09	216036	keystroke_e	e	n/a
108.258	0.06	216516	keystroke_d	d	n/a
108.948	0.09	217896	keystroke_Key.enter	Key.enter	n/a
109.046	34.2405	218092	prompt	n/a	investigation firewire canberra heating\n
110.014	0.104	220028	keystroke_i	i	n/a
110.253	0.076	220506	keystroke_n	n	n/a
110.8535	0.15	221707	keystroke_e	e	n/a
111.1085	0.15	222217	keystroke_s	s	n/a
111.9185	0.105	223837	keystroke_t	t	n/a
112.0835	0.15	224167	keystroke_i	i	n/a
112.2335	0.12	224467	keystroke_g	g	n/a
112.489	0.1345	224978	keystroke_a	a	n/a
112.7735	0.075	225547	keystroke_t	t	n/a
112.9385	0.09	225877	keystroke_i	i	n/a
113.134	0.1345	226268	keystroke_o	o	n/a
113.299	0.135	226598	keystroke_n	n	n/a
114.004	0.1495	228008	keystroke_Key.space	Key.space	n/a
114.514	0.105	229028	keystroke_f	f	n/a
114.708	0.106	229416	keystroke_i	i	n/a
115.309	0.164	230618	keystroke_r	r	n/a
115.428	0.135	230856	keystroke_e	e	n/a
116.5835	0.195	233167	keystroke_w	w	n/a
118.1135	0.105	236227	keystroke_Key.left	Key.left	n/a
118.3235	0.0905	236647	keystroke_Key.left	Key.left	n/a
118.534	0.045	237068	keystroke_Key.left	Key.left	n/a
118.699	0.075	237398	keystroke_Key.left	Key.left	n/a
118.863	0.106	237726	keystroke_Key.left	Key.left	n/a
119.059	0.09	238118	keystroke_Key.left	Key.left	n/a
119.224	0.105	238448	keystroke_Key.left	Key.left	n/a
120.154	0.075	240308	keystroke_Key.left	Key.left	n/a
120.334	0.1045	240668	keystroke_Key.left	Key.left	n/a
120.5735	0.075	241147	keystroke_Key.left	Key.left	n/a
120.7685	0.105	241537	keystroke_Key.left	Key.left	n/a
121.5335	0.09	243067	keystroke_v	v	n/a
121.9535	0.105	243907	keystroke_Key.right	Key.right	n/a
122.1635	0.09	244327	keystroke_Key.right	Key.right	n/a
122.3585	0.075	244717	keystroke_Key.right	Key.right	n/a
122.5385	0.09	245077	keystroke_Key.right	Key.right	n/a
122.7485	0.09	245497	keystroke_Key.right	Key.right	n/a
122.9435	0.075	245887	keystroke_Key.right	Key.right	n/a
123.1235	0.09	246247	keystroke_Key.right	Key.right	n/a
123.3035	0.105	246607	keystroke_Key.right	Key.right	n/a
123.5285	0.075	247057	keystroke_Key.right	Key.right	n/a
123.6935	0.09	247387	keystroke_Key.right	Key.right	n/a
123.8885	0.09	247777	keystroke_Key.right	Key.right	n/a
124.0835	0.09	248167	keystroke_Key.right	Key.right	n/a
124.2785	0.09	248557	keystroke_Key.right	Key.right	n/a
124.4885	0.105	248977	keystroke_Key.right	Key.right	n/a
124.7885	0.09	249577	keystroke_Key.right	Key.right	n/a
125.1335	0.09	250267	keystroke_Key.right	Key.right	n/a
125.9285	0.06	251857	keystroke_i	i	n/a
126.1535	0.12	252307	keystroke_r	r	n/a
126.3635	0.12	252727	keystroke_e	e	n/a
126.6635	0.12	253327	keystroke_Key.space	Key.space	n/a
127.0535	0.105	254107	keystroke_c	c	n/a
127.3085	0.135	254617	keystroke_a	a	n/a
127.4735	0.12	254947	keystroke_n	n	n/a
128.1785	0.12	256357	keystroke_v	v	n/a
128.5535	0.15	257107	keystroke_e	e	n/a
129.0035	0.09	258007	keystroke_r	r	n/a
129.1985	0.12	258397	keystroke_r	r	n/a
130.0985	0.075	260197	keystroke_a	a	n/a
131.4935	0.09	262987	keystroke_Key.backspace	Key.backspace	n/a
131.7035	0.09	263407	keystroke_Key.backspace	Key.backspace	n/a
131.9135	0.075	263827	keystroke_Key.backspace	Key.backspace	n/a
132.1535	0.075	264307	keystroke_Key.backspace	Key.backspace	n/a
132.4535	0.075	264907	keystroke_Key.backspace	Key.backspace	n/a
133.0685	0.09	266137	keystroke_b	b	n/a
134.1785	0.135	268357	keystroke_e	e	n/a
134.4935	0.06	268987	keystroke_r	r	n/a
134.6885	0.105	269377	keystroke_r	r	n/a
134.9435	0.105	269887	keystroke_a	a	n/a
135.4685	0.12	270937	keystroke_Key.space	Key.space	n/a
135.7235	0.09	271447	keystroke_h	h	n/a
135.8885	0.12	271777	keystroke_e	e	n/a
136.0685	0.12	272137	keystroke_a	a	n/a
136.3235	0.09	272647	keystroke_t	t	n/a
136.5035	0.135	273007	keystroke_i	i	n/a
136.7285	0.12	273457	keystroke_n	n	n/a
136.8945	0.074	273789	keystroke_g	g	n/a
143.272	0.012	286544	keystroke_Key.enter	Key.enter	n/a
143.2925	21.399	286585	prompt	n/a	hydraulic processor license profit\n
144.5285	0.105	289057	keystroke_h	h	n/a
144.7685	0.09	289537	keystroke_y	y	n/a
145.0685	0.12	290137	keystroke_d	d	n/a
145.4295	0.12	290859	keystroke_r	r	n/a
146.4485	0.15	292897	keystroke_a	a	n/a
146.7335	0.09	293467	keystroke_u	u	n/a
146.9735	0.105	293947	keystroke_l	l	n/a
147.1985	0.121	294397	keystroke_i	i	n/a
147.499	0.12	294998	keystroke_c	c	n/a
147.859	0.12	295718	keystroke_Key.space	Key.space	n/a
148.129	0.09	296258	keystroke_p	p	n/a
148.354	0.09	296708	keystroke_r	r	n/a
148.504	0.12	297008	keystroke_o	o	n/a
148.909	0.151	297818	keystroke_c	c	n/a
149.344	0.21	298688	keystroke_e	e	n/a
149.674	0.091	299348	keystroke_s	s	n/a
149.899	0.135	299798	keystroke_s	s	n/a
150.124	0.106	300248	keystroke_o	o	n/a
150.274	0.12	300548	keystroke_r	r	n/a
151.204	0.12	302408	keystroke_Key.space	Key.space	n/a
151.459	0.12	302918	keystroke_l	l	n/a
151.654	0.135	303308	keystroke_i	i	n/a
151.835	0.134	303670	keystroke_s	s	n/a
152.135	0.119	304270	keystroke_c	c	n/a
152.389	0.121	304778	keystroke_e	e	n/a
152.524	0.12	305048	keystroke_n	n	n/a
152.719	0.165	305438	keystroke_s	s	n/a
152.839	0.151	305678	keystroke_e	e	n/a
153.319	0.15	306638	keystroke_Key.space	Key.space	n/a
153.649	0.091	307298	keystroke_p	p	n/a
153.904	0.106	307808	keystroke_r	r	n/a
154.055	0.165	308110	keystroke_o	o	n/a
154.265	0.104	308530	keystroke_f	f	n/a
154.384	0.151	308768	keystroke_i	i	n/a
154.654	0.136	309308	keystroke_t	t	n/a
156.469	0.09	312938	keystroke_Key.left	Key.left	n/a
156.68	0.089	313360	keystroke_Key.left	Key.left	n/a
156.874	0.105	313748	keystroke_Key.left	Key.left	n/a
157.054	0.12	314108	keystroke_Key.left	Key.left	n/a
157.249	0.09	314498	keystroke_Key.left	Key.left	n/a
157.444	0.105	314888	keystroke_Key.left	Key.left	n/a
157.624	0.105	315248	keystroke_Key.left	Key.left	n/a
157.834	0.09	315668	keystroke_Key.left	Key.left	n/a
158.014	0.105	316028	keystroke_Key.left	Key.left	n/a
158.209	0.105	316418	keystroke_Key.left	Key.left	n/a
158.404	0.105	316808	keystroke_Key.left	Key.left	n/a
158.599	0.105	317198	keystroke_Key.left	Key.left	n/a
158.809	0.12	317618	keystroke_Key.left	Key.left	n/a
159.304	0.135	318608	keystroke_Key.right	Key.right	n/a
160.024	0.075	320048	keystroke_Key.backspace	Key.backspace	n/a
160.744	0.106	321488	keystroke_Key.right	Key.right	n/a
160.954	0.12	321908	keystroke_Key.right	Key.right	n/a
161.164	0.105	322328	keystroke_Key.right	Key.right	n/a
161.374	0.09	322748	keystroke_Key.right	Key.right	n/a
161.569	0.09	323138	keystroke_Key.right	Key.right	n/a
161.749	0.09	323498	keystroke_Key.right	Key.right	n/a
161.929	0.12	323858	keystroke_Key.right	Key.right	n/a
162.139	0.105	324278	keystroke_Key.right	Key.right	n/a
162.334	0.0905	324668	keystroke_Key.right	Key.right	n/a
162.529	0.1055	325058	keystroke_Key.right	Key.right	n/a
162.7245	0.12	325449	keystroke_Key.right	Key.right	n/a
162.9495	0.15	325899	keystroke_Key.right	Key.right	n/a
163.1895	0.151	326379	keystroke_Key.right	Key.right	n/a
164.6005	0.089	329201	keystroke_Key.enter	Key.enter	n/a
164.697	18.34	329394	prompt	n/a	individual understanding thank spokesman\n
165.6195	0.09	331239	keystroke_i	i	n/a
165.8445	0.061	331689	keystroke_n	n	n/a
166.1005	0.135	332201	keystroke_d	d	n/a
166.2795	0.151	332559	keystroke_i	i	n/a
167.8555	0.105	335711	keystroke_v	v	n/a
167.9895	0.106	335979	keystroke_i	i	n/a
168.2305	0.105	336461	keystroke_d	d	n/a
168.3805	0.089	336761	keystroke_u	u	n/a
168.6355	0.12	337271	keystroke_a	a	n/a
169.0555	0.09	338111	keystroke_l	l	n/a
174.2185	0.042	348437	keystroke_Key.space	Key.space	n/a
174.5	0.09	349000	keystroke_u	u	n/a
174.77	0.105	349540	keystroke_n	n	n/a
175.22	0.075	350440	keystroke_d	d	n/a
175.49	0.195	350980	keystroke_e	e	n/a
175.67	0.165	351340	keystroke_r	r	n/a
175.925	0.165	351850	keystroke_s	s	n/a
176.105	0.105	352210	keystroke_t	t	n/a
176.36	0.135	352720	keystroke_a	a	n/a
176.585	0.09	353170	keystroke_n	n	n/a
176.75	0.105	353500	keystroke_d	d	n/a
176.93	0.18	353860	keystroke_i	i	n/a
177.05	0.12	354100	keystroke_n	n	n/a
177.215	0.075	354430	keystroke_g	g	n/a
178.1	0.09	356200	keystroke_Key.space	Key.space	n/a
178.325	0.0905	356650	keystroke_t	t	n/a
178.4895	0.091	356979	keystroke_h	h	n/a
178.5955	0.165	357191	keystroke_a	a	n/a
178.7455	0.09	357491	keystroke_n	n	n/a
179.0005	0.09	358001	keystroke_k	k	n/a
179.3755	0.15	358751	keystroke_Key.space	Key.space	n/a
179.8555	0.12	359711	keystroke_s	s	n/a
180.1255	0.105	360251	keystroke_o	o	n/a
180.3055	0.1345	360611	keystroke_p	p	n/a
180.56	0.135	361120	keystroke_k	k	n/a
180.845	0.12	361690	keystroke_e	e	n/a
181.31	0.15	362620	keystroke_s	s	n/a
181.52	0.105	363040	keystroke_m	m	n/a
181.73	0.12	363460	keystroke_a	a	n/a
181.88	0.12	363760	keystroke_n	n	n/a
182.945	0.09	365890	keystroke_Key.enter	Key.enter	n/a
183.0425	14.4555	366085	prompt	n/a	methods transit frequent allows\n
183.83	0.105	367660	keystroke_m	m	n/a
184.055	0.105	368110	keystroke_e	e	n/a
184.28	0.105	368560	keystroke_t	t	n/a
184.49	0.105	368980	keystroke_h	h	n/a
184.79	0.105	369580	keystroke_o	o	n/a
185.195	0.12	370390	keystroke_d	d	n/a
185.75	0.12	371500	keystroke_s	s	n/a
186.56	0.12	373120	keystroke_Key.space	Key.space	n/a
187.175	0.105	374350	keystroke_t	t	n/a
187.745	0.105	375490	keystroke_r	r	n/a
188.825	0.15	377650	keystroke_a	a	n/a
189.005	0.09	378010	keystroke_n	n	n/a
189.23	0.12	378460	keystroke_s	s	n/a
189.41	0.09	378820	keystroke_i	i	n/a
189.605	0.09	379210	keystroke_t	t	n/a
190.025	0.135	380050	keystroke_Key.space	Key.space	n/a
191.09	0.091	382180	keystroke_f	f	n/a
191.436	0.149	382872	keystroke_r	r	n/a
191.555	0.12	383110	keystroke_e	e	n/a
191.78	0.135	383560	keystroke_q	q	n/a
191.96	0.105	383920	keystroke_u	u	n/a
192.185	0.195	384370	keystroke_e	e	n/a
192.365	0.09	384730	keystroke_n	n	n/a
192.8615	0.1035	385723	keystroke_t	t	n/a
193.22	0.12	386440	keystroke_Key.space	Key.space	n/a
193.46	0.121	386920	keystroke_a	a	n/a
193.64	0.091	387280	keystroke_l	l	n/a
193.835	0.165	387670	keystroke_l	l	n/a
194.72	0.12	389440	keystroke_o	o	n/a
194.915	0.09	389830	keystroke_w	w	n/a
195.5155	0.09	391031	keystroke_s	s	n/a
197.4205	0.075	394841	keystroke_Key.enter	Key.enter	n/a
197.5045	11.1075	395009	prompt	n/a	donors optics farms oriental\n
198.516	0.105	397032	keystroke_d	d	n/a
198.651	0.135	397302	keystroke_o	o	n/a
198.891	0.105	397782	keystroke_n	n	n/a
199.0705	0.1055	398141	keystroke_o	o	n/a
199.266	0.105	398532	keystroke_r	r	n/a
199.476	0.135	398952	keystroke_s	s	n/a
200.361	0.0895	400722	keystroke_Key.space	Key.space	n/a
200.6605	0.105	401321	keystroke_o	o	n/a
200.8705	0.12	401741	keystroke_p	p	n/a
201.7255	0.09	403451	keystroke_t	t	n/a
202.0115	0.089	404023	keystroke_i	i	n/a
202.4155	0.105	404831	keystroke_c	c	n/a
203.3905	0.075	406781	keystroke_s	s	n/a
203.7655	0.135	407531	keystroke_Key.space	Key.space	n/a
204.2005	0.12	408401	keystroke_f	f	n/a
204.4405	0.105	408881	keystroke_a	a	n/a
204.6805	0.075	409361	keystroke_r	r	n/a
204.9055	0.105	409811	keystroke_m	m	n/a
205.1155	0.075	410231	keystroke_s	s	n/a
205.4005	0.105	410801	keystroke_Key.space	Key.space	n/a
205.6105	0.105	411221	keystroke_o	o	n/a
206.2255	0.12	412451	keystroke_r	r	n/a
206.3905	0.105	412781	keystroke_i	i	n/a
206.5555	0.165	413111	keystroke_e	e	n/a
206.7355	0.12	413471	keystroke_n	n	n/a
206.9305	0.105	413861	keystroke_t	t	n/a
207.1705	0.075	414341	keystroke_a	a	n/a
207.2905	0.15	414581	keystroke_l	l	n/a
208.521	0.09	417042	keystroke_Key.enter	Key.enter	n/a
208.6175	9.88	417235	prompt	n/a	holland production owen released\n
209.451	0.0895	418902	keystroke_h	h	n/a
209.646	0.09	419292	keystroke_o	o	n/a
209.856	0.105	419712	keystroke_l	l	n/a
210.066	0.105	420132	keystroke_l	l	n/a
210.336	0.1345	420672	keystroke_a	a	n/a
210.4855	0.105	420971	keystroke_n	n	n/a
210.6955	0.105	421391	keystroke_d	d	n/a
210.9505	0.09	421901	keystroke_Key.space	Key.space	n/a
211.206	0.104	422412	keystroke_p	p	n/a
211.445	0.09	422890	keystroke_r	r	n/a
211.595	0.105	423190	keystroke_o	o	n/a
211.79	0.09	423580	keystroke_d	d	n/a
212.016	0.104	424032	keystroke_u	u	n/a
212.195	0.105	424390	keystroke_c	c	n/a
212.48	0.106	424960	keystroke_t	t	n/a
212.615	0.106	425230	keystroke_i	i	n/a
212.84	0.121	425680	keystroke_o	o	n/a
213.125	0.091	426250	keystroke_n	n	n/a
213.62	0.135	427240	keystroke_Key.space	Key.space	n/a
213.845	0.091	427690	keystroke_o	o	n/a
214.07	0.135	428140	keystroke_w	w	n/a
214.326	0.089	428652	keystroke_e	e	n/a
214.58	0.075	429160	keystroke_n	n	n/a
215.18	0.12	430360	keystroke_Key.space	Key.space	n/a
215.54	0.09	431080	keystroke_r	r	n/a
215.751	0.104	431502	keystroke_e	e	n/a
215.915	0.105	431830	keystroke_l	l	n/a
216.095	0.15	432190	keystroke_e	e	n/a
216.38	0.12	432760	keystroke_a	a	n/a
216.651	0.119	433302	keystroke_s	s	n/a
216.89	0.12	433780	keystroke_e	e	n/a
217.16	0.09	434320	keystroke_d	d	n/a
218.42	0.075	436840	keystroke_Key.enter	Key.enter	n/a
218.5025	8.26	437005	prompt	n/a	stopped harvard for such\n
219.456	0.195	438912	keystroke_s	s	n/a
219.936	0.104	439872	keystroke_t	t	n/a
220.176	0.119	440352	keystroke_o	o	n/a
220.536	0.09	441072	keystroke_p	p	n/a
220.746	0.09	441492	keystroke_p	p	n/a
220.956	0.104	441912	keystroke_e	e	n/a
221.211	0.075	442422	keystroke_d	d	n/a
221.54	0.135	443080	keystroke_Key.space	Key.space	n/a
222.261	0.09	444522	keystroke_h	h	n/a
222.816	0.105	445632	keystroke_a	a	n/a
223.176	0.105	446352	keystroke_v	v	n/a
223.476	0.12	446952	keystroke_a	a	n/a
223.701	0.135	447402	keystroke_r	r	n/a
224.031	0.15	448062	keystroke_d	d	n/a
224.345	0.105	448690	keystroke_Key.space	Key.space	n/a
224.616	0.09	449232	keystroke_f	f	n/a
224.751	0.119	449502	keystroke_o	o	n/a
224.961	0.09	449922	keystroke_r	r	n/a
225.171	0.074	450342	keystroke_Key.space	Key.space	n/a
225.4705	0.105	450941	keystroke_s	s	n/a
225.6805	0.135	451361	keystroke_u	u	n/a
225.9055	0.105	451811	keystroke_c	c	n/a
226.1755	0.075	452351	keystroke_h	h	n/a
226.6555	0.105	453311	keystroke_Key.enter	Key.enter	n/a
226.77	17.363	453540	prompt	n/a	committee municipal worthy diabetes\n
228.0055	0.075	456011	keystroke_c	c	n/a
228.1555	0.165	456311	keystroke_o	o	n/a
228.5905	0.12	457181	keystroke_m	m	n/a
228.9205	0.105	457841	keystroke_m	m	n/a
229.1755	0.135	458351	keystroke_i	i	n/a
230.66	0.075	461320	keystroke_t	t	n/a
230.96	0.105	461920	keystroke_t	t	n/a
231.245	0.091	462490	keystroke_e	e	n/a
231.456	0.119	462912	keystroke_e	e	n/a
231.71	0.135	463420	keystroke_Key.space	Key.space	n/a
232.04	0.09	464080	keystroke_m	m	n/a
232.415	0.09	464830	keystroke_u	u	n/a
232.7	0.12	465400	keystroke_n	n	n/a
233.075	0.12	466150	keystroke_i	i	n/a
235.8235	0.057	471647	keystroke_c	c	n/a
235.9405	0.12	471881	keystroke_i	i	n/a
236.1815	0.104	472363	keystroke_p	p	n/a
236.3905	0.1055	472781	keystroke_a	a	n/a
236.631	0.075	473262	keystroke_l	l	n/a
237.201	0.12	474402	keystroke_Key.space	Key.space	n/a
237.486	0.105	474972	keystroke_w	w	n/a
237.666	0.12	475332	keystroke_o	o	n/a
237.981	0.015	475962	keystroke_r	r	n/a
238.131	0.075	476262	keystroke_t	t	n/a
238.281	0.105	476562	keystroke_h	h	n/a
238.596	0.134	477192	keystroke_y	y	n/a
239.225	0.12	478450	keystroke_Key.space	Key.space	n/a
239.661	0.104	479322	keystroke_d	d	n/a
239.871	0.119	479742	keystroke_i	i	n/a
240.351	0.18	480702	keystroke_a	a	n/a
241.506	0.105	483012	keystroke_b	b	n/a
241.806	0.12	483612	keystroke_e	e	n/a
242.436	0.105	484872	keystroke_t	t	n/a
242.646	0.12	485292	keystroke_e	e	n/a
242.991	0.12	485982	keystroke_s	s	n/a
244.026	0.105	488052	keystroke_Key.enter	Key.enter	n/a
244.1375	18.5055	488275	prompt	n/a	baptist cartoons processors resulting\n
245.421	0.1195	490842	keystroke_b	b	n/a
245.751	0.1495	491502	keystroke_a	a	n/a
245.976	0.105	491952	keystroke_p	p	n/a
246.3205	0.1355	492641	keystroke_t	t	n/a
246.5155	0.12	493031	keystroke_i	i	n/a
247.2055	0.18	494411	keystroke_s	s	n/a
248.466	0.1495	496932	keystroke_t	t	n/a
250.8535	0.027	501707	keystroke_Key.space	Key.space	n/a
251.0605	0.105	502121	keystroke_c	c	n/a
251.3005	0.15	502601	keystroke_a	a	n/a
251.4655	0.135	502931	keystroke_r	r	n/a
251.7055	0.105	503411	keystroke_t	t	n/a
251.8855	0.105	503771	keystroke_o	o	n/a
252.0955	0.075	504191	keystroke_o	o	n/a
252.306	0.0745	504612	keystroke_n	n	n/a
252.5455	0.105	505091	keystroke_s	s	n/a
252.9355	0.135	505871	keystroke_Key.space	Key.space	n/a
253.1905	0.105	506381	keystroke_p	p	n/a
253.656	0.134	507312	keystroke_r	r	n/a
254.511	0.165	509022	keystroke_o	o	n/a
254.991	0.135	509982	keystroke_c	c	n/a
255.366	0.164	510732	keystroke_e	e	n/a
255.635	0.091	511270	keystroke_s	s	n/a
255.8465	0.134	511693	keystroke_s	s	n/a
256.04	0.1205	512080	keystroke_o	o	n/a
256.281	0.0905	512562	keystroke_r	r	n/a
256.551	0.104	513102	keystroke_s	s	n/a
256.9405	0.12	513881	keystroke_Key.space	Key.space	n/a
257.2405	0.136	514481	keystroke_r	r	n/a
257.4355	0.121	514871	keystroke_e	e	n/a
257.6905	0.076	515381	keystroke_s	s	n/a
257.8565	0.09	515713	keystroke_u	u	n/a
258.0815	0.135	516163	keystroke_l	l	n/a
258.6215	0.12	517243	keystroke_t	t	n/a
258.8615	0.09	517723	keystroke_i	i	n/a
259.1015	0.09	518203	keystroke_n	n	n/a
259.6265	0.075	519253	keystroke_g	g	n/a
262.6135	0.027	525227	keystroke_Key.enter	Key.enter	n/a
262.6475	11.8305	525295	prompt	n/a	heath reduced cafe bottles\n
263.661	0.09	527322	keystroke_h	h	n/a
263.8865	0.12	527773	keystroke_e	e	n/a
264.606	0.135	529212	keystroke_a	a	n/a
265.116	0.075	530232	keystroke_t	t	n/a
265.281	0.09	530562	keystroke_h	h	n/a
265.641	0.105	531282	keystroke_Key.space	Key.space	n/a
265.986	0.105	531972	keystroke_r	r	n/a
266.181	0.135	532362	keystroke_e	e	n/a
266.526	0.12	533052	keystroke_d	d	n/a
266.766	0.12	533532	keystroke_u	u	n/a
267.066	0.09	534132	keystroke_c	c	n/a
267.291	0.105	534582	keystroke_e	e	n/a
267.546	0.12	535092	keystroke_d	d	n/a
267.921	0.105	535842	keystroke_Key.space	Key.space	n/a
268.266	0.12	536532	keystroke_c	c	n/a
268.506	0.105	537012	keystroke_a	a	n/a
268.7615	0.09	537523	keystroke_f	f	n/a
269.0615	0.12	538123	keystroke_e	e	n/a
269.3315	0.12	538663	keystroke_Key.space	Key.space	n/a
269.7965	0.09	539593	keystroke_b	b	n/a
269.9915	0.12	539983	keystroke_o	o	n/a
270.2765	0.06	540553	keystroke_t	t	n/a
270.456	0.105	540912	keystroke_t	t	n/a
270.681	0.135	541362	keystroke_l	l	n/a
270.831	0.12	541662	keystroke_e	e	n/a
271.056	0.135	542112	keystroke_s	s	n/a
274.419	0.057	548838	keystroke_Key.enter	Key.enter	n/a
274.4825	10.046	548965	prompt	n/a	generation items in valued\n
275.421	0.12	550842	keystroke_g	g	n/a
275.766	0.105	551532	keystroke_e	e	n/a
275.976	0.12	551952	keystroke_n	n	n/a
276.141	0.12	552282	keystroke_e	e	n/a
276.381	0.105	552762	keystroke_r	r	n/a
276.546	0.15	553092	keystroke_a	a	n/a
276.801	0.105	553602	keystroke_t	t	n/a
276.921	0.105	553842	keystroke_i	i	n/a
277.146	0.105	554292	keystroke_o	o	n/a
277.341	0.12	554682	keystroke_n	n	n/a
277.566	0.15	555132	keystroke_Key.space	Key.space	n/a
277.911	0.105	555822	keystroke_i	i	n/a
278.106	0.09	556212	keystroke_t	t	n/a
278.361	0.105	556722	keystroke_e	e	n/a
278.571	0.105	557142	keystroke_m	m	n/a
278.796	0.105	557592	keystroke_s	s	n/a
279.141	0.09	558282	keystroke_Key.space	Key.space	n/a
279.5155	0.0905	559031	keystroke_i	i	n/a
279.726	0.1045	559452	keystroke_n	n	n/a
280.2655	0.09	560531	keystroke_Key.space	Key.space	n/a
280.6565	0.075	561313	keystroke_v	v	n/a
281.4665	0.165	562933	keystroke_a	a	n/a
281.7365	0.12	563473	keystroke_l	l	n/a
282.0215	0.12	564043	keystroke_u	u	n/a
282.2615	0.09	564523	keystroke_e	e	n/a
282.4865	0.105	564973	keystroke_d	d	n/a
284.4065	0.12	568813	keystroke_Key.enter	Key.enter	n/a
284.536	11.6175	569072	prompt	n/a	time rolled reggae lexus\n
285.3065	0.105	570613	keystroke_t	t	n/a
285.4415	0.074	570883	keystroke_i	i	n/a
285.6805	0.09	571361	keystroke_m	m	n/a
285.8615	0.105	571723	keystroke_e	e	n/a
286.0705	0.135	572141	keystroke_Key.space	Key.space	n/a
286.3865	0.104	572773	keystroke_r	r	n/a
286.5815	0.105	573163	keystroke_o	o	n/a
286.8065	0.074	573613	keystroke_l	l	n/a
286.9865	0.12	573973	keystroke_l	l	n/a
287.2255	0.09	574451	keystroke_e	e	n/a
287.4815	0.104	574963	keystroke_d	d	n/a
287.7655	0.136	575531	keystroke_Key.space	Key.space	n/a
288.2155	0.12	576431	keystroke_r	r	n/a
288.5765	0.119	577153	keystroke_e	e	n/a
289.416	0.105	578832	keystroke_g	g	n/a
289.686	0.105	579372	keystroke_g	g	n/a
290.001	0.105	580002	keystroke_a	a	n/a
290.3465	0.1045	580693	keystroke_e	e	n/a
290.646	0.12	581292	keystroke_Key.space	Key.space	n/a
293.8445	0.042	587689	keystroke_l	l	n/a
294.0665	0.09	588133	keystroke_e	e	n/a
294.3665	0.165	588733	keystroke_x	x	n/a
294.6515	0.119	589303	keystroke_u	u	n/a
294.7715	0.105	589543	keystroke_s	s	n/a
296.0755	0.075	592151	keystroke_Key.enter	Key.enter	n/a
296.158	12.431	592316	prompt	n/a	usgs universe started dennis\n
297.0805	0.121	594161	keystroke_u	u	n/a
297.2915	0.149	594583	keystroke_s	s	n/a
297.5305	0.106	595061	keystroke_g	g	n/a
297.7565	0.149	595513	keystroke_s	s	n/a
301.3445	0.057	602689	keystroke_Key.space	Key.space	n/a
301.8065	0.09	603613	keystroke_u	u	n/a
302.0615	0.12	604123	keystroke_n	n	n/a
302.2415	0.165	604483	keystroke_i	i	n/a
302.4215	0.09	604843	keystroke_v	v	n/a
302.6615	0.165	605323	keystroke_e	e	n/a
302.7815	0.15	605563	keystroke_r	r	n/a
303.0065	0.15	606013	keystroke_s	s	n/a
303.2765	0.105	606553	keystroke_e	e	n/a
303.7715	0.12	607543	keystroke_Key.space	Key.space	n/a
304.1765	0.12	608353	keystroke_s	s	n/a
304.4615	0.105	608923	keystroke_t	t	n/a
304.6865	0.15	609373	keystroke_a	a	n/a
304.8065	0.105	609613	keystroke_r	r	n/a
305.1065	0.12	610213	keystroke_t	t	n/a
305.4215	0.09	610843	keystroke_e	e	n/a
305.6465	0.105	611293	keystroke_d	d	n/a
305.9465	0.105	611893	keystroke_Key.space	Key.space	n/a
306.3215	0.09	612643	keystroke_d	d	n/a
306.5615	0.105	613123	keystroke_e	e	n/a
306.8015	0.09	613603	keystroke_n	n	n/a
306.9665	0.135	613933	keystroke_n	n	n/a
307.1915	0.135	614383	keystroke_i	i	n/a
307.3565	0.105	614713	keystroke_s	s	n/a
308.5115	0.075	617023	keystroke_Key.enter	Key.enter	n/a
308.593	11.1405	617186	prompt	n/a	determines vegetables animal there\n
309.4715	0.045	618943	keystroke_d	d	n/a
309.681	0.12	619362	keystroke_e	e	n/a
309.996	0.075	619992	keystroke_t	t	n/a
310.266	0.15	620532	keystroke_e	e	n/a
310.596	0.135	621192	keystroke_r	r	n/a
310.866	0.135	621732	keystroke_m	m	n/a
311.122	0.134	622244	keystroke_i	i	n/a
311.421	0.105	622842	keystroke_n	n	n/a
311.631	0.105	623262	keystroke_e	e	n/a
311.871	0.105	623742	keystroke_s	s	n/a
312.141	0.12	624282	keystroke_Key.space	Key.space	n/a
312.801	0.105	625602	keystroke_v	v	n/a
313.071	0.135	626142	keystroke_e	e	n/a
313.386	0.09	626772	keystroke_g	g	n/a
313.611	0.166	627222	keystroke_e	e	n/a
313.897	0.104	627794	keystroke_t	t	n/a
314.1365	0.135	628273	keystroke_a	a	n/a
314.3465	0.135	628693	keystroke_b	b	n/a
314.6015	0.135	629203	keystroke_l	l	n/a
314.8715	0.12	629743	keystroke_e	e	n/a
315.1715	0.075	630343	keystroke_s	s	n/a
315.4115	0.09	630823	keystroke_Key.space	Key.space	n/a
315.6815	0.105	631363	keystroke_a	a	n/a
315.9365	0.105	631873	keystroke_n	n	n/a
316.1465	0.105	632293	keystroke_i	i	n/a
316.4465	0.105	632893	keystroke_m	m	n/a
316.7915	0.135	633583	keystroke_a	a	n/a
317.1365	0.09	634273	keystroke_l	l	n/a
317.7815	0.12	635563	keystroke_Key.space	Key.space	n/a
318.0065	0.09	636013	keystroke_t	t	n/a
318.1865	0.09	636373	keystroke_h	h	n/a
318.3815	0.195	636763	keystroke_e	e	n/a
318.6215	0.135	637243	keystroke_r	r	n/a
318.8465	0.105	637693	keystroke_e	e	n/a
319.6265	0.105	639253	keystroke_Key.enter	Key.enter	n/a
319.7375	12.2065	639475	prompt	n/a	transcription dried licenses dial\n
320.7665	0.09	641533	keystroke_t	t	n/a
321.0215	0.12	642043	keystroke_r	r	n/a
321.2615	0.135	642523	keystroke_a	a	n/a
321.4565	0.12	642913	keystroke_n	n	n/a
321.6965	0.135	643393	keystroke_s	s	n/a
322.0715	0.12	644143	keystroke_c	c	n/a
322.717	0.105	645434	keystroke_r	r	n/a
322.882	0.105	645764	keystroke_i	i	n/a
323.107	0.105	646214	keystroke_p	p	n/a
323.407	0.0745	646814	keystroke_t	t	n/a
323.602	0.135	647204	keystroke_i	i	n/a
323.857	0.135	647714	keystroke_o	o	n/a
324.142	0.075	648284	keystroke_n	n	n/a
324.427	0.104	648854	keystroke_Key.space	Key.space	n/a
324.697	0.09	649394	keystroke_d	d	n/a
324.982	0.09	649964	keystroke_r	r	n/a
325.192	0.135	650384	keystroke_i	i	n/a
325.432	0.105	650864	keystroke_e	e	n/a
325.702	0.104	651404	keystroke_d	d	n/a
326.602	0.12	653204	keystroke_Key.space	Key.space	n/a
326.842	0.15	653684	keystroke_l	l	n/a
327.352	0.135	654704	keystroke_i	i	n/a
327.712	0.135	655424	keystroke_c	c	n/a
328.027	0.105	656054	keystroke_e	e	n/a
328.267	0.12	656534	keystroke_n	n	n/a
328.551	0.121	657102	keystroke_s	s	n/a
328.807	0.105	657614	keystroke_e	e	n/a
329.047	0.12	658094	keystroke_s	s	n/a
329.331	0.105	658662	keystroke_Key.space	Key.space	n/a
329.602	0.105	659204	keystroke_d	d	n/a
329.797	0.105	659594	keystroke_i	i	n/a
330.022	0.12	660044	keystroke_a	a	n/a
330.261	0.121	660522	keystroke_l	l	n/a
331.8515	0.09	663703	keystroke_Key.enter	Key.enter	n/a
331.9495	18.19	663899	prompt	n/a	wallace gazette touring tattoo\n
332.8115	0.12	665623	keystroke_w	w	n/a
333.0665	0.15	666133	keystroke_a	a	n/a
333.2465	0.09	666493	keystroke_l	l	n/a
333.4415	0.135	666883	keystroke_l	l	n/a
333.7115	0.105	667423	keystroke_a	a	n/a
333.9815	0.12	667963	keystroke_c	c	n/a
334.2965	0.15	668593	keystroke_e	e	n/a
334.6415	0.15	669283	keystroke_Key.space	Key.space	n/a
335.1365	0.076	670273	keystroke_g	g	n/a
335.5715	0.165	671143	keystroke_a	a	n/a
337.3865	0.18	674773	keystroke_z	z	n/a
337.8365	0.15	675673	keystroke_e	e	n/a
338.3765	0.09	676753	keystroke_t	t	n/a
338.6015	0.105	677203	keystroke_t	t	n/a
338.8415	0.105	677683	keystroke_e	e	n/a
341.425	0.071	682850	keystroke_Key.space	Key.space	n/a
341.796	0.091	683592	keystroke_t	t	n/a
342.052	0.135	684104	keystroke_o	o	n/a
342.276	0.121	684552	keystroke_u	u	n/a
342.562	0.12	685124	keystroke_r	r	n/a
342.787	0.15	685574	keystroke_i	i	n/a
343.072	0.12	686144	keystroke_n	n	n/a
343.327	0.12	686654	keystroke_g	g	n/a
343.836	0.151	687672	keystroke_Key.space	Key.space	n/a
344.152	0.12	688304	keystroke_t	t	n/a
344.437	0.12	688874	keystroke_a	a	n/a
344.737	0.105	689474	keystroke_t	t	n/a
344.976	0.106	689952	keystroke_t	t	n/a
345.202	0.15	690404	keystroke_o	o	n/a
348.505	0.072	697010	keystroke_o	o	n/a
350.032	0.105	700064	keystroke_Key.enter	Key.enter	n/a
350.1455	27.4585	700291	prompt	n/a	municipality bibliography custom possible\n
351.007	0.1045	702014	keystroke_m	m	n/a
351.3365	0.09	702673	keystroke_u	u	n/a
351.6365	0.1055	703273	keystroke_n	n	n/a
351.862	0.12	703724	keystroke_i	i	n/a
352.192	0.105	704384	keystroke_c	c	n/a
352.522	0.165	705044	keystroke_i	i	n/a
353.497	0.12	706994	keystroke_p	p	n/a
353.797	0.135	707594	keystroke_a	a	n/a
354.007	0.135	708014	keystroke_l	l	n/a
354.217	0.1505	708434	keystroke_i	i	n/a
354.5025	0.105	709005	keystroke_t	t	n/a
354.8025	0.104	709605	keystroke_y	y	n/a
357.88	0.057	715760	keystroke_Key.space	Key.space	n/a
358.057	0.09	716114	keystroke_b	b	n/a
359.062	0.12	718124	keystroke_i	i	n/a
359.602	0.15	719204	keystroke_b	b	n/a
359.962	0.135	719924	keystroke_i	i	n/a
360.532	0.165	721064	keystroke_l	l	n/a
360.922	0.105	721844	keystroke_o	o	n/a
366.265	0.057	732530	keystroke_Key.backspace	Key.backspace	n/a
366.412	0.105	732824	keystroke_Key.backspace	Key.backspace	n/a
366.697	0.12	733394	keystroke_Key.backspace	Key.backspace	n/a
369.835	0.132	739670	keystroke_l	l	n/a
369.937	0.225	739874	keystroke_i	i	n/a
370.102	0.135	740204	keystroke_o	o	n/a
370.432	0.105	740864	keystroke_g	g	n/a
370.702	0.12	741404	keystroke_r	r	n/a
370.912	0.18	741824	keystroke_a	a	n/a
371.107	0.12	742214	keystroke_p	p	n/a
371.317	0.09	742634	keystroke_h	h	n/a
371.602	0.12	743204	keystroke_y	y	n/a
372.127	0.075	744254	keystroke_Key.space	Key.space	n/a
372.607	0.105	745214	keystroke_c	c	n/a
372.862	0.105	745724	keystroke_u	u	n/a
373.132	0.105	746264	keystroke_s	s	n/a
373.402	0.12	746804	keystroke_t	t	n/a
373.552	0.135	747104	keystroke_o	o	n/a
373.837	0.12	747674	keystroke_m	m	n/a
374.107	0.105	748214	keystroke_Key.space	Key.space	n/a
374.332	0.105	748664	keystroke_p	p	n/a
374.512	0.18	749024	keystroke_o	o	n/a
375.202	0.12	750404	keystroke_s	s	n/a
375.562	0.18	751124	keystroke_s	s	n/a
375.937	0.105	751874	keystroke_i	i	n/a
376.237	0.09	752474	keystroke_b	b	n/a
376.432	0.135	752864	keystroke_l	l	n/a
376.672	0.105	753344	keystroke_e	e	n/a
377.497	0.105	754994	keystroke_Key.enter	Key.enter	n/a
377.612	9.5165	755224	prompt	n/a	places paypal camp pens\n
378.473	0.089	756946	keystroke_p	p	n/a
378.742	0.12	757484	keystroke_l	l	n/a
378.967	0.135	757934	keystroke_a	a	n/a
379.252	0.105	758504	keystroke_c	c	n/a
379.477	0.12	758954	keystroke_e	e	n/a
379.687	0.165	759374	keystroke_s	s	n/a
379.957	0.12	759914	keystroke_Key.space	Key.space	n/a
380.167	0.105	760334	keystroke_p	p	n/a
380.4525	0.12	760905	keystroke_a	a	n/a
380.6775	0.09	761355	keystroke_y	y	n/a
380.9175	0.135	761835	keystroke_p	p	n/a
381.1275	0.12	762255	keystroke_a	a	n/a
381.3075	0.135	762615	keystroke_l	l	n/a
381.5775	0.12	763155	keystroke_Key.space	Key.space	n/a
381.8475	0.12	763695	keystroke_c	c	n/a
382.1475	0.12	764295	keystroke_a	a	n/a
382.3725	0.105	764745	keystroke_m	m	n/a
382.7175	0.09	765435	keystroke_p	p	n/a
383.5275	0.12	767055	keystroke_Key.space	Key.space	n/a
383.8125	0.105	767625	keystroke_p	p	n/a
384.0675	0.12	768135	keystroke_e	e	n/a
384.2175	0.1495	768435	keystroke_n	n	n/a
384.457	0.105	768914	keystroke_s	s	n/a
387.1005	0.027	774201	keystroke_Key.enter	Key.enter	n/a
387.133	11.2765	774266	prompt	n/a	drug duplicate construction tickets\n
388.012	0.12	776024	keystroke_d	d	n/a
388.4925	0.105	776985	keystroke_r	r	n/a
388.7775	0.135	777555	keystroke_u	u	n/a
389.1375	0.09	778275	keystroke_g	g	n/a
389.4975	0.149	778995	keystroke_Key.space	Key.space	n/a
390.0225	0.09	780045	keystroke_d	d	n/a
390.2475	0.075	780495	keystroke_u	u	n/a
390.412	0.09	780824	keystroke_p	p	n/a
390.637	0.12	781274	keystroke_l	l	n/a
390.922	0.105	781844	keystroke_i	i	n/a
391.192	0.105	782384	keystroke_c	c	n/a
391.432	0.09	782864	keystroke_a	a	n/a
391.747	0.09	783494	keystroke_t	t	n/a
392.032	0.135	784064	keystroke_e	e	n/a
392.317	0.195	784634	keystroke_Key.space	Key.space	n/a
392.587	0.15	785174	keystroke_c	c	n/a
392.827	0.105	785654	keystroke_o	o	n/a
393.037	0.135	786074	keystroke_n	n	n/a
393.307	0.12	786614	keystroke_s	s	n/a
393.577	0.045	787154	keystroke_t	t	n/a
393.802	0.12	787604	keystroke_r	r	n/a
394.012	0.12	788024	keystroke_u	u	n/a
394.222	0.105	788444	keystroke_c	c	n/a
394.507	0.105	789014	keystroke_t	t	n/a
394.627	0.12	789254	keystroke_i	i	n/a
394.897	0.105	789794	keystroke_o	o	n/a
395.197	0.075	790394	keystroke_n	n	n/a
395.977	0.015	791954	keystroke_Key.space	Key.space	n/a
396.1425	0.0895	792285	keystroke_t	t	n/a
396.2925	0.12	792585	keystroke_i	i	n/a
396.5175	0.09	793035	keystroke_c	c	n/a
396.7575	0.105	793515	keystroke_k	k	n/a
396.9525	0.105	793905	keystroke_e	e	n/a
397.1925	0.09	794385	keystroke_t	t	n/a
397.4325	0.09	794865	keystroke_s	s	n/a
398.3175	0.09	796635	keystroke_Key.enter	Key.enter	n/a
398.4145	10.03	796829	prompt	n/a	cold nikon multi farms\n
399.3525	0.12	798705	keystroke_c	c	n/a
399.5325	0.12	799065	keystroke_o	o	n/a
399.7725	0.105	799545	keystroke_l	l	n/a
399.9825	0.12	799965	keystroke_d	d	n/a
400.2675	0.135	800535	keystroke_Key.space	Key.space	n/a
401.0025	0.09	802005	keystroke_n	n	n/a
401.1975	0.12	802395	keystroke_i	i	n/a
401.4825	0.075	802965	keystroke_k	k	n/a
401.7675	0.12	803535	keystroke_o	o	n/a
402.0075	0.09	804015	keystroke_n	n	n/a
403.1625	0.135	806325	keystroke_Key.space	Key.space	n/a
403.4025	0.105	806805	keystroke_m	m	n/a
403.7175	0.15	807435	keystroke_u	u	n/a
404.6175	0.15	809235	keystroke_l	l	n/a
405.1725	0.15	810345	keystroke_t	t	n/a
405.5025	0.09	811005	keystroke_i	i	n/a
406.3575	0.135	812715	keystroke_Key.space	Key.space	n/a
406.5825	0.105	813165	keystroke_f	f	n/a
406.8375	0.135	813675	keystroke_a	a	n/a
407.5875	0.105	815175	keystroke_r	r	n/a
407.7825	0.12	815565	keystroke_m	m	n/a
408.0225	0.105	816045	keystroke_s	s	n/a
408.3525	0.09	816705	keystroke_Key.enter	Key.enter	n/a
408.4495	12.25	816899	prompt	n/a	victims designed classes cholesterol\n
409.5975	0.105	819195	keystroke_v	v	n/a
409.7475	0.12	819495	keystroke_i	i	n/a
409.9875	0.09	819975	keystroke_c	c	n/a
410.3025	0.1055	820605	keystroke_t	t	n/a
410.468	0.15	820936	keystroke_i	i	n/a
410.783	0.135	821566	keystroke_m	m	n/a
411.052	0.106	822104	keystroke_s	s	n/a
411.307	0.106	822614	keystroke_Key.space	Key.space	n/a
411.563	0.09	823126	keystroke_d	d	n/a
411.788	0.12	823576	keystroke_e	e	n/a
412.043	0.165	824086	keystroke_s	s	n/a
412.387	0.091	824774	keystroke_i	i	n/a
412.702	0.106	825404	keystroke_g	g	n/a
413.228	0.074	826456	keystroke_n	n	n/a
413.422	0.091	826844	keystroke_e	e	n/a
413.662	0.076	827324	keystroke_d	d	n/a
413.917	0.09	827834	keystroke_Key.space	Key.space	n/a
414.203	0.105	828406	keystroke_c	c	n/a
414.3825	0.105	828765	keystroke_l	l	n/a
414.578	0.09	829156	keystroke_a	a	n/a
414.818	0.12	829636	keystroke_s	s	n/a
415.043	0.135	830086	keystroke_s	s	n/a
415.343	0.105	830686	keystroke_e	e	n/a
415.553	0.12	831106	keystroke_s	s	n/a
415.928	0.12	831856	keystroke_Key.space	Key.space	n/a
416.333	0.1045	832666	keystroke_c	c	n/a
416.5275	0.12	833055	keystroke_h	h	n/a
416.8425	0.18	833685	keystroke_o	o	n/a
417.4725	0.075	834945	keystroke_l	l	n/a
417.6975	0.105	835395	keystroke_e	e	n/a
417.9835	0.119	835967	keystroke_s	s	n/a
418.3275	0.1355	836655	keystroke_t	t	n/a
419.063	0.12	838126	keystroke_e	e	n/a
419.318	0.105	838636	keystroke_r	r	n/a
419.558	0.105	839116	keystroke_a	a	n/a
419.693	0.15	839386	keystroke_o	o	n/a
419.918	0.12	839836	keystroke_l	l	n/a
420.5925	0.105	841185	keystroke_Key.enter	Key.enter	n/a
420.7055	10.9	841411	prompt	n/a	prisoners herself nose redeem\n
421.433	0.105	842866	keystroke_p	p	n/a
421.748	0.165	843496	keystroke_r	r	n/a
421.868	0.15	843736	keystroke_i	i	n/a
422.168	0.135	844336	keystroke_s	s	n/a
422.408	0.12	844816	keystroke_o	o	n/a
422.648	0.105	845296	keystroke_n	n	n/a
422.873	0.12	845746	keystroke_e	e	n/a
423.143	0.12	846286	keystroke_r	r	n/a
423.383	0.135	846766	keystroke_s	s	n/a
423.683	0.12	847366	keystroke_Key.space	Key.space	n/a
423.923	0.09	847846	keystroke_h	h	n/a
424.163	0.09	848326	keystroke_e	e	n/a
424.373	0.12	848746	keystroke_r	r	n/a
424.673	0.12	849346	keystroke_s	s	n/a
424.943	0.015	849886	keystroke_l	l	n/a
425.573	0.09	851146	keystroke_Key.backspace	Key.backspace	n/a
426.308	0.105	852616	keystroke_e	e	n/a
426.473	0.09	852946	keystroke_l	l	n/a
427.028	0.12	854056	keystroke_f	f	n/a
427.358	0.12	854716	keystroke_Key.space	Key.space	n/a
427.583	0.105	855166	keystroke_n	n	n/a
427.778	0.135	855556	keystroke_o	o	n/a
427.958	0.165	855916	keystroke_s	s	n/a
428.168	0.12	856336	keystroke_e	e	n/a
428.468	0.09	856936	keystroke_Key.space	Key.space	n/a
428.738	0.12	857476	keystroke_r	r	n/a
428.963	0.12	857926	keystroke_e	e	n/a
429.563	0.15	859126	keystroke_d	d	n/a
429.938	0.09	859876	keystroke_e	e	n/a
430.148	0.12	860296	keystroke_e	e	n/a
430.358	0.09	860716	keystroke_m	m	n/a
431.513	0.0895	863026	keystroke_Key.enter	Key.enter	n/a
431.609	13.751	863218	prompt	n/a	everyday strain respect travesti\n
432.503	0.105	865006	keystroke_e	e	n/a
432.728	0.0895	865456	keystroke_v	v	n/a
432.8775	0.18	865755	keystroke_e	e	n/a
433.0425	0.12	866085	keystroke_r	r	n/a
433.2975	0.105	866595	keystroke_y	y	n/a
433.5075	0.12	867015	keystroke_d	d	n/a
434.1825	0.12	868365	keystroke_a	a	n/a
434.4675	0.105	868935	keystroke_y	y	n/a
435.4275	0.12	870855	keystroke_Key.space	Key.space	n/a
435.5925	0.15	871185	keystroke_s	s	n/a
435.8775	0.09	871755	keystroke_t	t	n/a
436.0875	0.1205	872175	keystroke_r	r	n/a
436.2825	0.12	872565	keystroke_a	a	n/a
436.4925	0.09	872985	keystroke_i	i	n/a
436.7175	0.075	873435	keystroke_n	n	n/a
437.0025	0.105	874005	keystroke_Key.space	Key.space	n/a
437.2725	0.18	874545	keystroke_r	r	n/a
437.4075	0.195	874815	keystroke_e	e	n/a
437.8575	0.105	875715	keystroke_s	s	n/a
438.1725	0.12	876345	keystroke_p	p	n/a
438.3525	0.105	876705	keystroke_e	e	n/a
438.6075	0.075	877215	keystroke_c	c	n/a
438.8925	0.09	877785	keystroke_t	t	n/a
439.0875	0.135	878175	keystroke_Key.space	Key.space	n/a
439.5975	0.09	879195	keystroke_t	t	n/a
439.8525	0.135	879705	keystroke_r	r	n/a
440.2575	0.15	880515	keystroke_a	a	n/a
441.0975	0.135	882195	keystroke_v	v	n/a
441.5025	0.2105	883005	keystroke_e	e	n/a
441.878	0.164	883756	keystroke_s	s	n/a
442.148	0.12	884296	keystroke_t	t	n/a
442.328	0.119	884656	keystroke_i	i	n/a
445.3155	0.043	890631	keystroke_Key.enter	Key.enter	n/a
445.368	14.8265	890736	prompt	n/a	explaining monica lighter postcard\n
446.2425	0.12	892485	keystroke_e	e	n/a
446.6625	0.12	893325	keystroke_x	x	n/a
446.8725	0.105	893745	keystroke_p	p	n/a
447.0975	0.135	894195	keystroke_l	l	n/a
447.5475	0.165	895095	keystroke_a	a	n/a
447.9975	0.12	895995	keystroke_i	i	n/a
448.2375	0.12	896475	keystroke_n	n	n/a
448.673	0.21	897346	keystroke_i	i	n/a
448.808	0.165	897616	keystroke_n	n	n/a
449.048	0.09	898096	keystroke_g	g	n/a
449.378	0.12	898756	keystroke_Key.space	Key.space	n/a
449.963	0.15	899926	keystroke_m	m	n/a
450.233	0.12	900466	keystroke_o	o	n/a
450.4875	0.255	900975	keystroke_n	n	n/a
450.6675	0.135	901335	keystroke_i	i	n/a
451.0575	0.135	902115	keystroke_c	c	n/a
451.3575	0.135	902715	keystroke_a	a	n/a
451.6425	0.12	903285	keystroke_Key.space	Key.space	n/a
451.8675	0.105	903735	keystroke_l	l	n/a
452.0775	0.12	904155	keystroke_i	i	n/a
452.3775	0.09	904755	keystroke_g	g	n/a
452.6625	0.135	905325	keystroke_h	h	n/a
453.1125	0.09	906225	keystroke_t	t	n/a
453.3525	0.15	906705	keystroke_e	e	n/a
453.6225	0.135	907245	keystroke_r	r	n/a
453.8625	0.12	907725	keystroke_Key.space	Key.space	n/a
454.0875	0.105	908175	keystroke_p	p	n/a
454.2675	0.105	908535	keystroke_o	o	n/a
454.4175	0.135	908835	keystroke_s	s	n/a
454.6875	0.075	909375	keystroke_t	t	n/a
455.0175	0.121	910035	keystroke_c	c	n/a
455.3475	0.135	910695	keystroke_a	a	n/a
455.6925	0.135	911385	keystroke_r	r	n/a
455.9475	0.09	911895	keystroke_d	d	n/a
460.151	0.042	920302	keystroke_Key.enter	Key.enter	n/a
460.1995	12.581	920399	prompt	n/a	guinea conversations rules motion\n
461.393	0.105	922786	keystroke_g	g	n/a
461.648	0.091	923296	keystroke_u	u	n/a
462.398	0.12	924796	keystroke_i	i	n/a
463.509	0.134	927018	keystroke_n	n	n/a
463.718	0.105	927436	keystroke_e	e	n/a
463.943	0.135	927886	keystroke_a	a	n/a
464.168	0.135	928336	keystroke_Key.space	Key.space	n/a
464.543	0.09	929086	keystroke_c	c	n/a
464.768	0.15	929536	keystroke_o	o	n/a
465.143	0.135	930286	keystroke_n	n	n/a
465.593	0.105	931186	keystroke_v	v	n/a
465.894	0.209	931788	keystroke_e	e	n/a
466.043	0.165	932086	keystroke_r	r	n/a
466.523	0.12	933046	keystroke_s	s	n/a
466.868	0.18	933736	keystroke_a	a	n/a
467.213	0.09	934426	keystroke_t	t	n/a
467.363	0.166	934726	keystroke_i	i	n/a
467.469	0.195	934938	keystroke_o	o	n/a
467.753	0.12	935506	keystroke_n	n	n/a
468.053	0.12	936106	keystroke_s	s	n/a
468.683	0.12	937366	keystroke_Key.space	Key.space	n/a
469.208	0.15	938416	keystroke_r	r	n/a
469.344	0.12	938688	keystroke_u	u	n/a
469.569	0.149	939138	keystroke_l	l	n/a
469.719	0.164	939438	keystroke_e	e	n/a
469.869	0.119	939738	keystroke_s	s	n/a
470.558	0.105	941116	keystroke_Key.space	Key.space	n/a
470.723	0.09	941446	keystroke_m	m	n/a
470.918	0.121	941836	keystroke_o	o	n/a
471.369	0.134	942738	keystroke_t	t	n/a
471.639	0.12	943278	keystroke_i	i	n/a
471.848	0.15	943696	keystroke_o	o	n/a
472.118	0.105	944236	keystroke_n	n	n/a
472.6885	0.09	945377	keystroke_Key.enter	Key.enter	n/a
472.7855	11.5455	945571	prompt	n/a	travelers exams y'all carb\n
473.6335	0.09	947267	keystroke_t	t	n/a
473.9335	0.12	947867	keystroke_r	r	n/a
474.1135	0.12	948227	keystroke_a	a	n/a
474.429	0.12	948858	keystroke_v	v	n/a
474.699	0.105	949398	keystroke_e	e	n/a
474.864	0.09	949728	keystroke_l	l	n/a
475.058	0.136	950116	keystroke_e	e	n/a
475.284	0.134	950568	keystroke_r	r	n/a
475.569	0.105	951138	keystroke_s	s	n/a
475.823	0.12	951646	keystroke_Key.space	Key.space	n/a
476.109	0.0895	952218	keystroke_e	e	n/a
476.3635	0.1195	952727	keystroke_x	x	n/a
476.679	0.135	953358	keystroke_a	a	n/a
477.324	0.15	954648	keystroke_m	m	n/a
477.743	0.106	955486	keystroke_s	s	n/a
478.103	0.12	956206	keystroke_Key.space	Key.space	n/a
478.448	0.135	956896	keystroke_y	y	n/a
479.288	0.12	958576	keystroke_'	'	n/a
479.933	0.09	959866	keystroke_a	a	n/a
480.128	0.12	960256	keystroke_l	l	n/a
480.353	0.106	960706	keystroke_l	l	n/a
480.8175	0.12	961635	keystroke_Key.space	Key.space	n/a
481.7035	0.134	963407	keystroke_c	c	n/a
482.0185	0.15	964037	keystroke_a	a	n/a
482.1985	0.105	964397	keystroke_r	r	n/a
482.4985	0.09	964997	keystroke_b	b	n/a
484.1935	0.135	968387	keystroke_Key.enter	Key.enter	n/a
484.3365	15.3695	968673	prompt	n/a	hunter toll cornell passport\n
485.4835	0.09	970967	keystroke_h	h	n/a
485.7085	0.12	971417	keystroke_u	u	n/a
485.9485	0.12	971897	keystroke_n	n	n/a
486.5185	0.105	973037	keystroke_t	t	n/a
486.7735	0.12	973547	keystroke_e	e	n/a
487.0135	0.165	974027	keystroke_r	r	n/a
487.1785	0.15	974357	keystroke_Key.space	Key.space	n/a
487.4035	0.105	974807	keystroke_t	t	n/a
487.7335	0.12	975467	keystroke_o	o	n/a
488.0035	0.09	976007	keystroke_l	l	n/a
488.1985	0.135	976397	keystroke_l	l	n/a
488.4235	0.105	976847	keystroke_Key.space	Key.space	n/a
488.7085	0.09	977417	keystroke_c	c	n/a
488.9035	0.135	977807	keystroke_o	o	n/a
489.1585	0.135	978317	keystroke_n	n	n/a
491.0485	0.075	982097	keystroke_Key.backspace	Key.backspace	n/a
491.3035	0.12	982607	keystroke_r	r	n/a
491.6335	0.12	983267	keystroke_n	n	n/a
492.6985	0.075	985397	keystroke_e	e	n/a
492.8935	0.09	985787	keystroke_l	l	n/a
493.1035	0.105	986207	keystroke_l	l	n/a
493.5085	0.15	987017	keystroke_Key.space	Key.space	n/a
493.7485	0.12	987497	keystroke_p	p	n/a
496.6615	0.072	993323	keystroke_a	a	n/a
496.8385	0.09	993677	keystroke_s	s	n/a
497.0335	0.15	994067	keystroke_s	s	n/a
497.3785	0.105	994757	keystroke_p	p	n/a
497.6185	0.15	995237	keystroke_o	o	n/a
497.7835	0.105	995567	keystroke_r	r	n/a
498.0385	0.105	996077	keystroke_t	t	n/a
499.6135	0.09	999227	keystroke_Key.enter	Key.enter	n/a
499.7125	10.328	999425	prompt	n/a	baskets zope figured visits\n
501.0985	0.075	1002197	keystroke_b	b	n/a
501.3085	0.12	1002617	keystroke_a	a	n/a
501.5485	0.12	1003097	keystroke_s	s	n/a
501.7735	0.105	1003547	keystroke_k	k	n/a
502.0435	0.135	1004087	keystroke_e	e	n/a
502.2985	0.1205	1004597	keystroke_t	t	n/a
502.554	0.12	1005108	keystroke_s	s	n/a
502.959	0.165	1005918	keystroke_Key.space	Key.space	n/a
504.159	0.105	1008318	keystroke_z	z	n/a
504.3685	0.105	1008737	keystroke_o	o	n/a
504.5635	0.135	1009127	keystroke_p	p	n/a
504.8185	0.105	1009637	keystroke_e	e	n/a
505.1635	0.12	1010327	keystroke_Key.space	Key.space	n/a
505.9585	0.135	1011917	keystroke_f	f	n/a
506.3185	0.136	1012637	keystroke_i	i	n/a
506.6335	0.09	1013267	keystroke_g	g	n/a
506.8435	0.135	1013687	keystroke_u	u	n/a
507.1135	0.12	1014227	keystroke_r	r	n/a
507.3385	0.136	1014677	keystroke_e	e	n/a
507.6685	0.1355	1015337	keystroke_d	d	n/a
507.969	0.12	1015938	keystroke_Key.space	Key.space	n/a
508.344	0.1345	1016688	keystroke_v	v	n/a
508.5835	0.1495	1017167	keystroke_i	i	n/a
508.779	0.1495	1017558	keystroke_s	s	n/a
508.9435	0.136	1017887	keystroke_i	i	n/a
509.1545	0.119	1018309	keystroke_t	t	n/a
509.424	0.12	1018848	keystroke_s	s	n/a
509.949	0.09	1019898	keystroke_Key.enter	Key.enter	n/a
510.0465	14.244	1020093	prompt	n/a	webster bailey fails solaris\n
510.8485	0.12	1021697	keystroke_w	w	n/a
511.2235	0.165	1022447	keystroke_e	e	n/a
512.1385	0.15	1024277	keystroke_b	b	n/a
512.544	0.1045	1025088	keystroke_s	s	n/a
512.7535	0.09	1025507	keystroke_t	t	n/a
513.0085	0.075	1026017	keystroke_e	e	n/a
513.2635	0.135	1026527	keystroke_r	r	n/a
513.4435	0.15	1026887	keystroke_Key.space	Key.space	n/a
513.8185	0.09	1027637	keystroke_b	b	n/a
514.1195	0.104	1028239	keystroke_a	a	n/a
514.3135	0.121	1028627	keystroke_i	i	n/a
514.5835	0.12	1029167	keystroke_l	l	n/a
514.8235	0.09	1029647	keystroke_e	e	n/a
515.0635	0.105	1030127	keystroke_y	y	n/a
515.2885	0.135	1030577	keystroke_Key.space	Key.space	n/a
515.4985	0.135	1030997	keystroke_f	f	n/a
515.9485	0.105	1031897	keystroke_a	a	n/a
516.1585	0.121	1032317	keystroke_i	i	n/a
516.3985	0.12	1032797	keystroke_l	l	n/a
516.9835	0.12	1033967	keystroke_s	s	n/a
517.2685	0.15	1034537	keystroke_Key.space	Key.space	n/a
517.5685	0.15	1035137	keystroke_s	s	n/a
517.7485	0.12	1035497	keystroke_o	o	n/a
518.0335	0.12	1036067	keystroke_l	l	n/a
518.2885	0.195	1036577	keystroke_a	a	n/a
518.8435	0.12	1037687	keystroke_r	r	n/a
519.0235	0.181	1038047	keystroke_i	i	n/a
519.2635	0.15	1038527	keystroke_s	s	n/a
524.2475	0.041	1048495	keystroke_Key.enter	Key.enter	n/a
524.2955	14.411	1048591	prompt	n/a	catering italiano adjustments organisms\n
525.4435	0.12	1050887	keystroke_c	c	n/a
525.6545	0.134	1051309	keystroke_a	a	n/a
525.9535	0.09	1051907	keystroke_t	t	n/a
526.1645	0.165	1052329	keystroke_e	e	n/a
526.3745	0.12	1052749	keystroke_r	r	n/a
526.5985	0.241	1053197	keystroke_i	i	n/a
526.7495	0.15	1053499	keystroke_n	n	n/a
526.9595	0.105	1053919	keystroke_g	g	n/a
527.5135	0.12	1055027	keystroke_Key.space	Key.space	n/a
528.1135	0.151	1056227	keystroke_i	i	n/a
528.5185	0.121	1057037	keystroke_t	t	n/a
528.7135	0.121	1057427	keystroke_a	a	n/a
528.8795	0.225	1057759	keystroke_l	l	n/a
529.3745	0.195	1058749	keystroke_i	i	n/a
530.6795	0.135	1061359	keystroke_a	a	n/a
530.9195	0.119	1061839	keystroke_n	n	n/a
531.0835	0.105	1062167	keystroke_o	o	n/a
532.0745	0.119	1064149	keystroke_Key.space	Key.space	n/a
532.3585	0.15	1064717	keystroke_a	a	n/a
532.6435	0.12	1065287	keystroke_d	d	n/a
532.9285	0.105	1065857	keystroke_j	j	n/a
533.1535	0.09	1066307	keystroke_u	u	n/a
533.3185	0.15	1066637	keystroke_s	s	n/a
533.5885	0.105	1067177	keystroke_t	t	n/a
533.7535	0.12	1067507	keystroke_m	m	n/a
533.9785	0.09	1067957	keystroke_e	e	n/a
534.0985	0.12	1068197	keystroke_n	n	n/a
534.2935	0.1055	1068587	keystroke_t	t	n/a
534.564	0.18	1069128	keystroke_s	s	n/a
535.014	0.135	1070028	keystroke_Key.space	Key.space	n/a
535.749	0.12	1071498	keystroke_o	o	n/a
535.974	0.09	1071948	keystroke_r	r	n/a
536.274	0.09	1072548	keystroke_g	g	n/a
536.5295	0.135	1073059	keystroke_a	a	n/a
536.7245	0.165	1073449	keystroke_n	n	n/a
536.8745	0.21	1073749	keystroke_i	i	n/a
537.0695	0.165	1074139	keystroke_s	s	n/a
537.3095	0.179	1074619	keystroke_m	m	n/a
537.5345	0.134	1075069	keystroke_s	s	n/a
538.614	0.09	1077228	keystroke_Key.enter	Key.enter	n/a
538.711	8.8905	1077422	prompt	n/a	algebra milan deaths stages\n
539.484	0.165	1078968	keystroke_a	a	n/a
539.799	0.12	1079598	keystroke_l	l	n/a
540.024	0.105	1080048	keystroke_g	g	n/a
540.339	0.1355	1080678	keystroke_e	e	n/a
540.5485	0.136	1081097	keystroke_b	b	n/a
540.6685	0.106	1081337	keystroke_r	r	n/a
540.8935	0.166	1081787	keystroke_a	a	n/a
541.1035	0.135	1082207	keystroke_Key.space	Key.space	n/a
541.3435	0.09	1082687	keystroke_m	m	n/a
541.5545	0.104	1083109	keystroke_i	i	n/a
541.7645	0.135	1083529	keystroke_l	l	n/a
542.0195	0.089	1084039	keystroke_a	a	n/a
542.2885	0.075	1084577	keystroke_n	n	n/a
542.8885	0.15	1085777	keystroke_Key.space	Key.space	n/a
543.1435	0.075	1086287	keystroke_d	d	n/a
543.3685	0.106	1086737	keystroke_e	e	n/a
543.5495	0.119	1087099	keystroke_a	a	n/a
543.8185	0.121	1087637	keystroke_t	t	n/a
544.0885	0.09	1088177	keystroke_h	h	n/a
544.2835	0.105	1088567	keystroke_s	s	n/a
544.5535	0.12	1089107	keystroke_Key.space	Key.space	n/a
544.9295	0.149	1089859	keystroke_s	s	n/a
545.4535	0.105	1090907	keystroke_t	t	n/a
545.7245	0.104	1091449	keystroke_a	a	n/a
546.1295	0.12	1092259	keystroke_g	g	n/a
546.5185	0.136	1093037	keystroke_e	e	n/a
546.7595	0.104	1093519	keystroke_s	s	n/a
547.5245	0.074	1095049	keystroke_Key.enter	Key.enter	n/a
547.6065	8.515	1095213	prompt	n/a	offer stored colony patients\n
548.5745	0.15	1097149	keystroke_o	o	n/a
548.7835	0.06	1097567	keystroke_f	f	n/a
548.9635	0.09	1097927	keystroke_f	f	n/a
549.2045	0.089	1098409	keystroke_e	e	n/a
549.4585	0.121	1098917	keystroke_r	r	n/a
549.6835	0.105	1099367	keystroke_Key.space	Key.space	n/a
549.8795	0.134	1099759	keystroke_s	s	n/a
550.1945	0.059	1100389	keystroke_t	t	n/a
550.3445	0.119	1100689	keystroke_o	o	n/a
550.5995	0.104	1101199	keystroke_r	r	n/a
550.7345	0.135	1101469	keystroke_e	e	n/a
551.0195	0.09	1102039	keystroke_d	d	n/a
551.2885	0.12	1102577	keystroke_Key.space	Key.space	n/a
551.5895	0.134	1103179	keystroke_c	c	n/a
551.7385	0.106	1103477	keystroke_o	o	n/a
551.9945	0.12	1103989	keystroke_l	l	n/a
552.2335	0.135	1104467	keystroke_o	o	n/a
552.4895	0.09	1104979	keystroke_n	n	n/a
552.7585	0.136	1105517	keystroke_y	y	n/a
553.944	0.12	1107888	keystroke_Key.space	Key.space	n/a
554.169	0.105	1108338	keystroke_p	p	n/a
554.439	0.165	1108878	keystroke_a	a	n/a
554.814	0.1055	1109628	keystroke_t	t	n/a
554.934	0.12	1109868	keystroke_i	i	n/a
555.174	0.105	1110348	keystroke_e	e	n/a
555.324	0.105	1110648	keystroke_n	n	n/a
555.519	0.105	1111038	keystroke_t	t	n/a
555.744	0.105	1111488	keystroke_s	s	n/a
556.029	0.09	1112058	keystroke_Key.enter	Key.enter	n/a
556.1265	13.0305	1112253	prompt	n/a	adware mars nationally incomplete\n
557.034	0.105	1114068	keystroke_a	a	n/a
557.484	0.135	1114968	keystroke_d	d	n/a
557.784	0.135	1115568	keystroke_w	w	n/a
558.144	0.12	1116288	keystroke_a	a	n/a
558.654	0.09	1117308	keystroke_r	r	n/a
558.894	0.135	1117788	keystroke_e	e	n/a
559.149	0.105	1118298	keystroke_Key.space	Key.space	n/a
559.374	0.12	1118748	keystroke_m	m	n/a
559.599	0.135	1119198	keystroke_a	a	n/a
559.914	0.105	1119828	keystroke_r	r	n/a
560.154	0.135	1120308	keystroke_s	s	n/a
560.469	0.09	1120938	keystroke_Key.space	Key.space	n/a
561.0095	0.1045	1122019	keystroke_n	n	n/a
561.159	0.135	1122318	keystroke_a	a	n/a
561.459	0.075	1122918	keystroke_t	t	n/a
561.564	0.1655	1123128	keystroke_i	i	n/a
561.6845	0.1645	1123369	keystroke_o	o	n/a
562.059	0.0905	1124118	keystroke_n	n	n/a
562.284	0.1055	1124568	keystroke_a	a	n/a
562.4795	0.105	1124959	keystroke_l	l	n/a
562.6895	0.105	1125379	keystroke_l	l	n/a
563.0345	0.075	1126069	keystroke_y	y	n/a
563.5145	0.105	1127029	keystroke_Key.space	Key.space	n/a
563.7395	0.105	1127479	keystroke_i	i	n/a
564.0245	0.12	1128049	keystroke_m	m	n/a
564.43	0.075	1128860	keystroke_c	c	n/a
564.984	0.15	1129968	keystroke_o	o	n/a
565.314	0.12	1130628	keystroke_m	m	n/a
565.644	0.135	1131288	keystroke_p	p	n/a
565.914	0.105	1131828	keystroke_l	l	n/a
566.125	0.105	1132250	keystroke_e	e	n/a
566.364	0.135	1132728	keystroke_t	t	n/a
566.544	0.12	1133088	keystroke_e	e	n/a
569.112	0.042	1138224	keystroke_Key.enter	Key.enter	n/a
569.162	16.6295	1138324	prompt	n/a	deutsche fully call enormous\n
570.399	0.1345	1140798	keystroke_d	d	n/a
570.8045	0.134	1141609	keystroke_e	e	n/a
570.9845	0.15	1141969	keystroke_a	a	n/a
571.4795	0.134	1142959	keystroke_t	t	n/a
571.8535	0.12	1143707	keystroke_s	s	n/a
572.1235	0.105	1144247	keystroke_c	c	n/a
572.3185	0.121	1144637	keystroke_h	h	n/a
572.5445	0.119	1145089	keystroke_e	e	n/a
572.7995	0.105	1145599	keystroke_Key.space	Key.space	n/a
574.2835	0.09	1148567	keystroke_Key.backspace	Key.backspace	n/a
574.4935	0.075	1148987	keystroke_Key.backspace	Key.backspace	n/a
574.7195	0.074	1149439	keystroke_Key.backspace	Key.backspace	n/a
574.9135	0.09	1149827	keystroke_Key.backspace	Key.backspace	n/a
575.1085	0.105	1150217	keystroke_Key.backspace	Key.backspace	n/a
575.3495	0.089	1150699	keystroke_Key.backspace	Key.backspace	n/a
575.5585	0.135	1151117	keystroke_Key.backspace	Key.backspace	n/a
576.879	0.12	1153758	keystroke_u	u	n/a
577.734	0.12	1155468	keystroke_t	t	n/a
577.944	0.12	1155888	keystroke_s	s	n/a
578.229	0.075	1156458	keystroke_c	c	n/a
578.424	0.09	1156848	keystroke_h	h	n/a
578.589	0.105	1157178	keystroke_e	e	n/a
579.444	0.105	1158888	keystroke_Key.space	Key.space	n/a
579.714	0.09	1159428	keystroke_f	f	n/a
580.239	0.09	1160478	keystroke_u	u	n/a
580.434	0.12	1160868	keystroke_l	l	n/a
580.659	0.135	1161318	keystroke_l	l	n/a
580.944	0.105	1161888	keystroke_y	y	n/a
581.199	0.09	1162398	keystroke_Key.space	Key.space	n/a
581.394	0.105	1162788	keystroke_c	c	n/a
581.604	0.12	1163208	keystroke_a	a	n/a
581.769	0.105	1163538	keystroke_l	l	n/a
581.979	0.165	1163958	keystroke_l	l	n/a
582.279	0.105	1164558	keystroke_Key.space	Key.space	n/a
582.579	0.105	1165158	keystroke_e	e	n/a
582.759	0.135	1165518	keystroke_n	n	n/a
582.999	0.135	1165998	keystroke_o	o	n/a
583.464	0.15	1166928	keystroke_r	r	n/a
584.169	0.12	1168338	keystroke_m	m	n/a
584.454	0.105	1168908	keystroke_o	o	n/a
584.664	0.09	1169328	keystroke_u	u	n/a
584.889	0.135	1169778	keystroke_s	s	n/a
585.699	0.09	1171398	keystroke_Key.enter	Key.enter	n/a
585.796	12.325	1171592	prompt	n/a	preliminary struck educational hybrid\n
586.494	0.09	1172988	keystroke_p	p	n/a
586.854	0.15	1173708	keystroke_r	r	n/a
586.959	0.15	1173918	keystroke_e	e	n/a
587.169	0.105	1174338	keystroke_l	l	n/a
587.394	0.075	1174788	keystroke_i	i	n/a
587.754	0.135	1175508	keystroke_m	m	n/a
588.099	0.12	1176198	keystroke_i	i	n/a
588.369	0.12	1176738	keystroke_n	n	n/a
588.759	0.195	1177518	keystroke_a	a	n/a
588.939	0.15	1177878	keystroke_r	r	n/a
589.149	0.12	1178298	keystroke_y	y	n/a
589.359	0.135	1178718	keystroke_Key.space	Key.space	n/a
589.524	0.18	1179048	keystroke_s	s	n/a
589.764	0.105	1179528	keystroke_t	t	n/a
590.004	0.15	1180008	keystroke_r	r	n/a
590.4695	0.105	1180939	keystroke_u	u	n/a
590.7545	0.075	1181509	keystroke_c	c	n/a
591.2045	0.09	1182409	keystroke_k	k	n/a
591.6385	0.105	1183277	keystroke_Key.space	Key.space	n/a
591.9245	0.105	1183849	keystroke_e	e	n/a
592.1795	0.09	1184359	keystroke_d	d	n/a
592.899	0.121	1185798	keystroke_u	u	n/a
593.155	0.119	1186310	keystroke_c	c	n/a
593.349	0.09	1186698	keystroke_a	a	n/a
593.619	0.105	1187238	keystroke_t	t	n/a
593.799	0.21	1187598	keystroke_i	i	n/a
593.949	0.135	1187898	keystroke_o	o	n/a
594.294	0.105	1188588	keystroke_n	n	n/a
594.61	0.104	1189220	keystroke_a	a	n/a
594.834	0.105	1189668	keystroke_l	l	n/a
595.149	0.135	1190298	keystroke_Key.space	Key.space	n/a
595.554	0.09	1191108	keystroke_h	h	n/a
595.779	0.105	1191558	keystroke_y	y	n/a
596.259	0.075	1192518	keystroke_b	b	n/a
596.4995	0.09	1192999	keystroke_r	r	n/a
596.7545	0.09	1193509	keystroke_i	i	n/a
597.0095	0.105	1194019	keystroke_d	d	n/a
598.0445	0.075	1196089	keystroke_Key.enter	Key.enter	n/a
598.127	13.4495	1196254	prompt	n/a	tapes alabama christina goal\n
599.065	0.15	1198130	keystroke_t	t	n/a
599.29	0.165	1198580	keystroke_a	a	n/a
599.5	0.104	1199000	keystroke_p	p	n/a
599.695	0.134	1199390	keystroke_e	e	n/a
599.935	0.135	1199870	keystroke_s	s	n/a
600.129	0.166	1200258	keystroke_Key.space	Key.space	n/a
600.5495	0.135	1201099	keystroke_a	a	n/a
600.7595	0.135	1201519	keystroke_l	l	n/a
601.0745	0.15	1202149	keystroke_a	a	n/a
601.7345	0.105	1203469	keystroke_b	b	n/a
602.0495	0.165	1204099	keystroke_a	a	n/a
602.5445	0.15	1205089	keystroke_m	m	n/a
602.7995	0.135	1205599	keystroke_a	a	n/a
603.0845	0.12	1206169	keystroke_Key.space	Key.space	n/a
603.5045	0.135	1207009	keystroke_c	c	n/a
603.7445	0.12	1207489	keystroke_h	h	n/a
604.0595	0.135	1208119	keystroke_r	r	n/a
604.2245	0.135	1208449	keystroke_i	i	n/a
604.5845	0.165	1209169	keystroke_s	s	n/a
604.8995	0.105	1209799	keystroke_t	t	n/a
605.0645	0.12	1210129	keystroke_i	i	n/a
605.3495	0.105	1210699	keystroke_n	n	n/a
605.6345	0.12	1211269	keystroke_a	a	n/a
605.9495	0.15	1211899	keystroke_Key.space	Key.space	n/a
606.5945	0.12	1213189	keystroke_g	g	n/a
606.8945	0.135	1213789	keystroke_o	o	n/a
607.2995	0.105	1214599	keystroke_a	a	n/a
607.5095	0.12	1215019	keystroke_l	l	n/a
611.5625	0.012	1223125	keystroke_Key.enter	Key.enter	n/a
611.582	12.399	1223164	prompt	n/a	somalia liabilities curious metallica\n
612.3395	0.15	1224679	keystroke_s	s	n/a
612.5795	0.15	1225159	keystroke_o	o	n/a
612.8795	0.105	1225759	keystroke_m	m	n/a
613.1495	0.135	1226299	keystroke_a	a	n/a
613.3295	0.12	1226659	keystroke_l	l	n/a
613.5395	0.105	1227079	keystroke_i	i	n/a
613.8095	0.18	1227619	keystroke_a	a	n/a
614.17	0.135	1228340	keystroke_Key.space	Key.space	n/a
614.59	0.165	1229180	keystroke_l	l	n/a
614.785	0.135	1229570	keystroke_i	i	n/a
615.085	0.15	1230170	keystroke_a	a	n/a
615.43	0.09	1230860	keystroke_b	b	n/a
615.595	0.135	1231190	keystroke_i	i	n/a
615.91	0.135	1231820	keystroke_l	l	n/a
616.09	0.15	1232180	keystroke_i	i	n/a
616.345	0.12	1232690	keystroke_t	t	n/a
616.585	0.135	1233170	keystroke_i	i	n/a
616.825	0.135	1233650	keystroke_e	e	n/a
617.08	0.119	1234160	keystroke_s	s	n/a
617.38	0.12	1234760	keystroke_Key.space	Key.space	n/a
617.8	0.105	1235600	keystroke_c	c	n/a
618.025	0.12	1236050	keystroke_u	u	n/a
618.22	0.12	1236440	keystroke_r	r	n/a
618.445	0.105	1236890	keystroke_i	i	n/a
618.655	0.12	1237310	keystroke_o	o	n/a
618.88	0.12	1237760	keystroke_u	u	n/a
619.105	0.135	1238210	keystroke_s	s	n/a
619.435	0.089	1238870	keystroke_Key.space	Key.space	n/a
619.96	0.135	1239920	keystroke_m	m	n/a
620.2	0.164	1240400	keystroke_e	e	n/a
620.844	0.121	1241688	keystroke_t	t	n/a
621.114	0.135	1242228	keystroke_a	a	n/a
621.519	0.12	1243038	keystroke_l	l	n/a
621.759	0.15	1243518	keystroke_l	l	n/a
622.194	0.135	1244388	keystroke_i	i	n/a
622.4945	0.135	1244989	keystroke_c	c	n/a
622.7645	0.09	1245529	keystroke_a	a	n/a
623.8895	0.09	1247779	keystroke_Key.enter	Key.enter	n/a
623.987	19.6005	1247974	prompt	n/a	helped parameters jerusalem monroe\n
624.9545	0.105	1249909	keystroke_h	h	n/a
625.1645	0.105	1250329	keystroke_e	e	n/a
625.3895	0.12	1250779	keystroke_l	l	n/a
625.5995	0.12	1251199	keystroke_p	p	n/a
625.8095	0.09	1251619	keystroke_e	e	n/a
626.0495	0.105	1252099	keystroke_d	d	n/a
626.3495	0.1505	1252699	keystroke_Key.space	Key.space	n/a
626.71	0.105	1253420	keystroke_p	p	n/a
626.98	0.105	1253960	keystroke_a	a	n/a
628.2995	0.1655	1256599	keystroke_r	r	n/a
628.6145	0.135	1257229	keystroke_a	a	n/a
628.7945	0.15	1257589	keystroke_m	m	n/a
629.0495	0.105	1258099	keystroke_e	e	n/a
629.2745	0.09	1258549	keystroke_t	t	n/a
629.4845	0.12	1258969	keystroke_e	e	n/a
629.6195	0.135	1259239	keystroke_r	r	n/a
629.9045	0.135	1259809	keystroke_s	s	n/a
630.3095	0.135	1260619	keystroke_Key.space	Key.space	n/a
631.2695	0.15	1262539	keystroke_j	j	n/a
632.4695	0.15	1264939	keystroke_e	e	n/a
633.0845	0.12	1266169	keystroke_r	r	n/a
633.3695	0.12	1266739	keystroke_u	u	n/a
634.0145	0.18	1268029	keystroke_s	s	n/a
634.3745	0.135	1268749	keystroke_a	a	n/a
634.5695	0.105	1269139	keystroke_l	l	n/a
634.7795	0.09	1269559	keystroke_e	e	n/a
634.9895	0.135	1269979	keystroke_m	m	n/a
635.2895	0.12	1270579	keystroke_Key.space	Key.space	n/a
635.6795	0.12	1271359	keystroke_m	m	n/a
635.9345	0.165	1271869	keystroke_o	o	n/a
636.2645	0.12	1272529	keystroke_n	n	n/a
636.5645	0.12	1273129	keystroke_r	r	n/a
636.7595	0.15	1273519	keystroke_o	o	n/a
636.9845	0.09	1273969	keystroke_e	e	n/a
643.528	0.057	1287056	keystroke_Key.enter	Key.enter	n/a
643.5935	15.3385	1287187	prompt	n/a	writers chocolate frequencies norwegian\n
644.53	0.195	1289060	keystroke_w	w	n/a
644.815	0.135	1289630	keystroke_r	r	n/a
644.95	0.12	1289900	keystroke_i	i	n/a
645.16	0.09	1290320	keystroke_t	t	n/a
645.34	0.225	1290680	keystroke_e	e	n/a
645.535	0.12	1291070	keystroke_r	r	n/a
645.88	0.12	1291760	keystroke_s	s	n/a
646.075	0.135	1292150	keystroke_Key.space	Key.space	n/a
646.375	0.09	1292750	keystroke_c	c	n/a
646.555	0.15	1293110	keystroke_h	h	n/a
646.735	0.135	1293470	keystroke_o	o	n/a
647.035	0.15	1294070	keystroke_c	c	n/a
647.2	0.12	1294400	keystroke_o	o	n/a
647.44	0.15	1294880	keystroke_l	l	n/a
647.92	0.18	1295840	keystroke_a	a	n/a
648.895	0.15	1297790	keystroke_t	t	n/a
649.09	0.105	1298180	keystroke_e	e	n/a
650.23	0.105	1300460	keystroke_Key.space	Key.space	n/a
650.5005	0.074	1301001	keystroke_f	f	n/a
650.8455	0.15	1301691	keystroke_r	r	n/a
650.9355	0.165	1301871	keystroke_e	e	n/a
651.3255	0.179	1302651	keystroke_q	q	n/a
651.5055	0.135	1303011	keystroke_u	u	n/a
651.6995	0.18	1303399	keystroke_e	e	n/a
651.9705	0.135	1303941	keystroke_n	n	n/a
652.2255	0.135	1304451	keystroke_c	c	n/a
652.8995	0.136	1305799	keystroke_i	i	n/a
653.0945	0.15	1306189	keystroke_e	e	n/a
653.3195	0.136	1306639	keystroke_s	s	n/a
653.8905	0.134	1307781	keystroke_Key.space	Key.space	n/a
654.1605	0.149	1308321	keystroke_n	n	n/a
654.4295	0.12	1308859	keystroke_o	o	n/a
655.1495	0.121	1310299	keystroke_r	r	n/a
655.4045	0.12	1310809	keystroke_w	w	n/a
655.7495	0.21	1311499	keystroke_a	a	n/a
656.3795	0.165	1312759	keystroke_Key.backspace	Key.backspace	n/a
656.6495	0.135	1313299	keystroke_e	e	n/a
657.5945	0.12	1315189	keystroke_g	g	n/a
657.7605	0.134	1315521	keystroke_i	i	n/a
657.9395	0.151	1315879	keystroke_a	a	n/a
658.1195	0.105	1316239	keystroke_n	n	n/a
658.8405	0.089	1317681	keystroke_Key.enter	Key.enter	n/a
658.9355	10.5865	1317871	prompt	n/a	ours profession fairy clarity\n
659.7705	0.09	1319541	keystroke_o	o	n/a
659.9505	0.135	1319901	keystroke_u	u	n/a
660.3405	0.21	1320681	keystroke_r	r	n/a
660.8955	0.135	1321791	keystroke_s	s	n/a
661.4355	0.165	1322871	keystroke_Key.space	Key.space	n/a
661.7955	0.12	1323591	keystroke_p	p	n/a
662.1255	0.09	1324251	keystroke_r	r	n/a
662.2605	0.135	1324521	keystroke_o	o	n/a
662.4105	0.135	1324821	keystroke_f	f	n/a
662.6505	0.15	1325301	keystroke_e	e	n/a
662.8455	0.12	1325691	keystroke_s	s	n/a
663.0705	0.12	1326141	keystroke_s	s	n/a
663.2655	0.135	1326531	keystroke_i	i	n/a
663.5055	0.1045	1327011	keystroke_o	o	n/a
663.7155	0.1195	1327431	keystroke_n	n	n/a
663.94	0.12	1327880	keystroke_Key.space	Key.space	n/a
664.1655	0.12	1328331	keystroke_f	f	n/a
664.7205	0.135	1329441	keystroke_a	a	n/a
664.9305	0.12	1329861	keystroke_i	i	n/a
665.5605	0.12	1331121	keystroke_r	r	n/a
665.8755	0.135	1331751	keystroke_y	y	n/a
666.1605	0.135	1332321	keystroke_Key.space	Key.space	n/a
666.5205	0.12	1333041	keystroke_c	c	n/a
666.7005	0.15	1333401	keystroke_l	l	n/a
666.9405	0.15	1333881	keystroke_a	a	n/a
667.2405	0.12	1334481	keystroke_r	r	n/a
667.3455	0.15	1334691	keystroke_i	i	n/a
667.6005	0.06	1335201	keystroke_t	t	n/a
667.7655	0.12	1335531	keystroke_y	y	n/a
669.4305	0.09	1338861	keystroke_Key.enter	Key.enter	n/a
669.527	10.181	1339054	prompt	n/a	hobbies widespread fred past\n
670.3455	0.15	1340691	keystroke_h	h	n/a
670.5105	0.105	1341021	keystroke_o	o	n/a
670.7955	0.075	1341591	keystroke_b	b	n/a
670.9755	0.105	1341951	keystroke_b	b	n/a
671.1855	0.12	1342371	keystroke_i	i	n/a
671.3655	0.15	1342731	keystroke_e	e	n/a
671.6205	0.15	1343241	keystroke_s	s	n/a
671.8605	0.165	1343721	keystroke_Key.space	Key.space	n/a
672.2355	0.135	1344471	keystroke_w	w	n/a
672.4305	0.135	1344861	keystroke_i	i	n/a
672.6255	0.09	1345251	keystroke_d	d	n/a
672.9405	0.105	1345881	keystroke_e	e	n/a
673.7955	0.165	1347591	keystroke_s	s	n/a
674.0505	0.105	1348101	keystroke_p	p	n/a
674.2155	0.09	1348431	keystroke_r	r	n/a
674.3805	0.105	1348761	keystroke_e	e	n/a
674.5905	0.09	1349181	keystroke_a	a	n/a
674.8155	0.105	1349631	keystroke_d	d	n/a
675.1005	0.12	1350201	keystroke_Key.space	Key.space	n/a
676.151	0.104	1352302	keystroke_f	f	n/a
676.375	0.135	1352750	keystroke_r	r	n/a
676.571	0.12	1353142	keystroke_e	e	n/a
676.841	0.09	1353682	keystroke_d	d	n/a
677.155	0.105	1354310	keystroke_Key.space	Key.space	n/a
677.336	0.149	1354672	keystroke_p	p	n/a
677.455	0.121	1354910	keystroke_a	a	n/a
677.71	0.165	1355420	keystroke_s	s	n/a
677.996	0.12	1355992	keystroke_t	t	n/a
679.6155	0.089	1359231	keystroke_Key.enter	Key.enter	n/a
679.7125	9.37	1359425	prompt	n/a	beds application prompt hits\n
680.8445	0.136	1361689	keystroke_b	b	n/a
681.0255	0.104	1362051	keystroke_e	e	n/a
681.3705	0.12	1362741	keystroke_d	d	n/a
681.5495	0.165	1363099	keystroke_s	s	n/a
681.8355	0.135	1363671	keystroke_Key.space	Key.space	n/a
682.0455	0.1495	1364091	keystroke_a	a	n/a
682.645	0.105	1365290	keystroke_p	p	n/a
682.855	0.075	1365710	keystroke_p	p	n/a
683.065	0.12	1366130	keystroke_l	l	n/a
683.32	0.105	1366640	keystroke_i	i	n/a
683.53	0.105	1367060	keystroke_c	c	n/a
683.77	0.075	1367540	keystroke_a	a	n/a
684.085	0.075	1368170	keystroke_t	t	n/a
684.22	0.135	1368440	keystroke_i	i	n/a
684.445	0.105	1368890	keystroke_o	o	n/a
684.655	0.09	1369310	keystroke_n	n	n/a
685.12	0.105	1370240	keystroke_Key.space	Key.space	n/a
685.33	0.105	1370660	keystroke_p	p	n/a
685.615	0.135	1371230	keystroke_r	r	n/a
685.81	0.09	1371620	keystroke_o	o	n/a
686.035	0.09	1372070	keystroke_m	m	n/a
686.26	0.106	1372520	keystroke_p	p	n/a
686.5005	0.089	1373001	keystroke_t	t	n/a
686.7095	0.105	1373419	keystroke_Key.space	Key.space	n/a
686.9495	0.15	1373899	keystroke_h	h	n/a
687.0545	0.15	1374109	keystroke_i	i	n/a
687.2795	0.09	1374559	keystroke_t	t	n/a
687.6395	0.135	1375279	keystroke_s	s	n/a
688.99	0.09	1377980	keystroke_Key.enter	Key.enter	n/a
689.086	10.4675	1378172	prompt	n/a	barcelona staff craft holly\n
690.9405	0.09	1381881	keystroke_b	b	n/a
691.2405	0.135	1382481	keystroke_a	a	n/a
691.5855	0.06	1383171	keystroke_r	r	n/a
691.8255	0.135	1383651	keystroke_c	c	n/a
692.1405	0.135	1384281	keystroke_e	e	n/a
692.3505	0.105	1384701	keystroke_l	l	n/a
692.5605	0.12	1385121	keystroke_o	o	n/a
692.7855	0.12	1385571	keystroke_n	n	n/a
692.9655	0.12	1385931	keystroke_a	a	n/a
693.2205	0.105	1386441	keystroke_Key.space	Key.space	n/a
693.4305	0.135	1386861	keystroke_s	s	n/a
693.7005	0.075	1387401	keystroke_t	t	n/a
693.9105	0.135	1387821	keystroke_a	a	n/a
694.2255	0.09	1388451	keystroke_f	f	n/a
694.5705	0.15	1389141	keystroke_f	f	n/a
695.1555	0.105	1390311	keystroke_Key.space	Key.space	n/a
695.4855	0.12	1390971	keystroke_c	c	n/a
695.7855	0.105	1391571	keystroke_r	r	n/a
695.9805	0.105	1391961	keystroke_a	a	n/a
696.2805	0.15	1392561	keystroke_f	f	n/a
697.0755	0.105	1394151	keystroke_t	t	n/a
697.3605	0.105	1394721	keystroke_Key.space	Key.space	n/a
697.7205	0.105	1395441	keystroke_h	h	n/a
698.0505	0.105	1396101	keystroke_o	o	n/a
698.2905	0.09	1396581	keystroke_l	l	n/a
698.4855	0.105	1396971	keystroke_l	l	n/a
698.7705	0.105	1397541	keystroke_y	y	n/a
699.4455	0.105	1398891	keystroke_Key.enter	Key.enter	n/a
699.561	22.0565	1399122	prompt	n/a	vietnamese analysts alot realtors\n
701.0055	0.15	1402011	keystroke_v	v	n/a
701.2005	0.12	1402401	keystroke_i	i	n/a
701.4855	0.12	1402971	keystroke_e	e	n/a
701.7855	0.135	1403571	keystroke_t	t	n/a
702.3105	0.15	1404621	keystroke_n	n	n/a
702.5805	0.135	1405161	keystroke_a	a	n/a
702.8055	0.135	1405611	keystroke_m	m	n/a
703.0605	0.165	1406121	keystroke_e	e	n/a
703.2705	0.18	1406541	keystroke_s	s	n/a
703.4805	0.12	1406961	keystroke_e	e	n/a
703.7505	0.15	1407501	keystroke_Key.space	Key.space	n/a
704.0655	0.12	1408131	keystroke_a	a	n/a
704.3055	0.135	1408611	keystroke_n	n	n/a
705.2505	0.135	1410501	keystroke_a	a	n/a
712.873	0.042	1425746	keystroke_l	l	n/a
713.066	0.12	1426132	keystroke_y	y	n/a
714.5505	0.15	1429101	keystroke_s	s	n/a
714.7755	0.105	1429551	keystroke_t	t	n/a
715.3905	0.12	1430781	keystroke_s	s	n/a
715.7055	0.12	1431411	keystroke_Key.space	Key.space	n/a
716.1105	0.135	1432221	keystroke_a	a	n/a
716.3355	0.1205	1432671	keystroke_l	l	n/a
716.62	0.091	1433240	keystroke_o	o	n/a
716.86	0.09	1433720	keystroke_t	t	n/a
717.16	0.09	1434320	keystroke_Key.space	Key.space	n/a
717.431	0.105	1434862	keystroke_r	r	n/a
717.656	0.164	1435312	keystroke_e	e	n/a
717.955	0.15	1435910	keystroke_a	a	n/a
718.21	0.121	1436420	keystroke_l	l	n/a
718.6755	0.105	1437351	keystroke_t	t	n/a
718.9155	0.135	1437831	keystroke_o	o	n/a
719.1105	0.075	1438221	keystroke_r	r	n/a
719.3505	0.165	1438701	keystroke_s	s	n/a
721.525	0.09	1443050	keystroke_Key.enter	Key.enter	n/a
721.6215	9.491	1443243	prompt	n/a	debut trees porter tuesday\n
722.816	0.18	1445632	keystroke_d	d	n/a
723.566	0.12	1447132	keystroke_e	e	n/a
724.316	0.135	1448632	keystroke_b	b	n/a
724.481	0.12	1448962	keystroke_u	u	n/a
724.781	0.12	1449562	keystroke_t	t	n/a
725.486	0.12	1450972	keystroke_Key.space	Key.space	n/a
725.771	0.105	1451542	keystroke_t	t	n/a
726.04	0.181	1452080	keystroke_r	r	n/a
726.161	0.12	1452322	keystroke_e	e	n/a
726.386	0.12	1452772	keystroke_e	e	n/a
726.641	0.105	1453282	keystroke_s	s	n/a
726.896	0.135	1453792	keystroke_Key.space	Key.space	n/a
727.136	0.135	1454272	keystroke_p	p	n/a
727.376	0.15	1454752	keystroke_o	o	n/a
727.616	0.09	1455232	keystroke_r	r	n/a
727.826	0.105	1455652	keystroke_t	t	n/a
728.066	0.15	1456132	keystroke_e	e	n/a
728.321	0.24	1456642	keystroke_r	r	n/a
728.575	0.136	1457150	keystroke_Key.space	Key.space	n/a
728.951	0.105	1457902	keystroke_t	t	n/a
729.161	0.18	1458322	keystroke_u	u	n/a
729.281	0.135	1458562	keystroke_e	e	n/a
729.506	0.12	1459012	keystroke_s	s	n/a
729.701	0.135	1459402	keystroke_d	d	n/a
729.956	0.15	1459912	keystroke_a	a	n/a
730.121	0.15	1460242	keystroke_y	y	n/a
731.006	0.105	1462012	keystroke_Key.enter	Key.enter	n/a
731.1165	20.1715	1462233	prompt	n/a	witnesses granted separately oklahoma\n
732.086	0.105	1464172	keystroke_w	w	n/a
732.461	0.105	1464922	keystroke_i	i	n/a
734.321	0.12	1468642	keystroke_t	t	n/a
735.761	0.09	1471522	keystroke_n	n	n/a
736.001	0.105	1472002	keystroke_e	e	n/a
736.196	0.09	1472392	keystroke_s	s	n/a
736.391	0.135	1472782	keystroke_s	s	n/a
736.646	0.15	1473292	keystroke_e	e	n/a
736.856	0.195	1473712	keystroke_s	s	n/a
737.066	0.15	1474132	keystroke_Key.space	Key.space	n/a
737.501	0.105	1475002	keystroke_g	g	n/a
737.756	0.105	1475512	keystroke_r	r	n/a
737.951	0.195	1475902	keystroke_a	a	n/a
738.161	0.12	1476322	keystroke_n	n	n/a
738.476	0.105	1476952	keystroke_t	t	n/a
738.671	0.09	1477342	keystroke_e	e	n/a
738.911	0.12	1477822	keystroke_d	d	n/a
739.166	0.09	1478332	keystroke_Key.space	Key.space	n/a
739.826	0.18	1479652	keystroke_s	s	n/a
740.771	0.045	1481542	keystroke_e	e	n/a
740.981	0.135	1481962	keystroke_p	p	n/a
743.6685	0.072	1487337	keystroke_Key.backspace	Key.backspace	n/a
744.611	0.09	1489222	keystroke_a	a	n/a
745.046	0.135	1490092	keystroke_Key.backspace	Key.backspace	n/a
745.406	0.03	1490812	keystroke_p	p	n/a
745.721	0.195	1491442	keystroke_a	a	n/a
746.036	0.18	1492072	keystroke_r	r	n/a
746.201	0.15	1492402	keystroke_a	a	n/a
746.4265	0.165	1492853	keystroke_t	t	n/a
746.5615	0.135	1493123	keystroke_e	e	n/a
746.7415	0.09	1493483	keystroke_l	l	n/a
746.9955	0.106	1493991	keystroke_y	y	n/a
747.311	0.09	1494622	keystroke_Key.space	Key.space	n/a
747.716	0.135	1495432	keystroke_o	o	n/a
748.031	0.15	1496062	keystroke_k	k	n/a
748.421	0.12	1496842	keystroke_l	l	n/a
748.751	0.165	1497502	keystroke_a	a	n/a
749.441	0.105	1498882	keystroke_h	h	n/a
749.591	0.15	1499182	keystroke_o	o	n/a
749.891	0.105	1499782	keystroke_m	m	n/a
750.071	0.135	1500142	keystroke_a	a	n/a
751.181	0.105	1502362	keystroke_Key.enter	Key.enter	n/a
751.2935	11.469	1502587	prompt	n/a	richmond lying might detector\n
752.531	0.12	1505062	keystroke_r	r	n/a
752.666	0.12	1505332	keystroke_i	i	n/a
752.921	0.12	1505842	keystroke_c	c	n/a
753.071	0.09	1506142	keystroke_h	h	n/a
753.297	0.104	1506594	keystroke_m	m	n/a
753.521	0.12	1507042	keystroke_o	o	n/a
753.776	0.1045	1507552	keystroke_n	n	n/a
754.0605	0.12	1508121	keystroke_d	d	n/a
754.3905	0.12	1508781	keystroke_Key.space	Key.space	n/a
754.5705	0.105	1509141	keystroke_l	l	n/a
754.9305	0.135	1509861	keystroke_y	y	n/a
755.6505	0.195	1511301	keystroke_i	i	n/a
755.7555	0.15	1511511	keystroke_n	n	n/a
755.9805	0.105	1511961	keystroke_g	g	n/a
756.2655	0.12	1512531	keystroke_Key.space	Key.space	n/a
756.4455	0.105	1512891	keystroke_m	m	n/a
756.6705	0.105	1513341	keystroke_i	i	n/a
756.8805	0.105	1513761	keystroke_g	g	n/a
757.0305	0.105	1514061	keystroke_h	h	n/a
757.3305	0.105	1514661	keystroke_t	t	n/a
757.6155	0.105	1515231	keystroke_Key.space	Key.space	n/a
757.8855	0.09	1515771	keystroke_d	d	n/a
758.1555	0.18	1516311	keystroke_e	e	n/a
758.5005	0.06	1517001	keystroke_t	t	n/a
758.6805	0.105	1517361	keystroke_e	e	n/a
758.9805	0.075	1517961	keystroke_c	c	n/a
759.2355	0.12	1518471	keystroke_t	t	n/a
759.4755	0.135	1518951	keystroke_o	o	n/a
760.0605	0.15	1520121	keystroke_r	r	n/a
762.7035	0.057	1525407	keystroke_Key.enter	Key.enter	n/a
762.771	10.8525	1525542	prompt	n/a	delicious chevy governments limit\n
763.6165	0.089	1527233	keystroke_d	d	n/a
763.9005	0.09	1527801	keystroke_e	e	n/a
764.3655	0.136	1528731	keystroke_l	l	n/a
764.6355	0.105	1529271	keystroke_i	i	n/a
765.5955	0.12	1531191	keystroke_c	c	n/a
765.7615	0.119	1531523	keystroke_i	i	n/a
765.9555	0.135	1531911	keystroke_o	o	n/a
766.1505	0.12	1532301	keystroke_u	u	n/a
766.3765	0.119	1532753	keystroke_s	s	n/a
766.6305	0.135	1533261	keystroke_Key.space	Key.space	n/a
766.9455	0.09	1533891	keystroke_c	c	n/a
767.1565	0.134	1534313	keystroke_h	h	n/a
767.4265	0.1495	1534853	keystroke_e	e	n/a
767.891	0.135	1535782	keystroke_v	v	n/a
768.191	0.135	1536382	keystroke_y	y	n/a
768.641	0.12	1537282	keystroke_Key.space	Key.space	n/a
769.046	0.12	1538092	keystroke_g	g	n/a
769.241	0.135	1538482	keystroke_o	o	n/a
769.556	0.105	1539112	keystroke_v	v	n/a
769.736	0.21	1539472	keystroke_e	e	n/a
770.156	0.135	1540312	keystroke_r	r	n/a
770.3805	0.1055	1540761	keystroke_n	n	n/a
770.6205	0.12	1541241	keystroke_m	m	n/a
770.7555	0.135	1541511	keystroke_e	e	n/a
770.9505	0.105	1541901	keystroke_n	n	n/a
771.191	0.1045	1542382	keystroke_t	t	n/a
771.5205	0.135	1543041	keystroke_s	s	n/a
771.761	0.1345	1543522	keystroke_Key.space	Key.space	n/a
771.941	0.1945	1543882	keystroke_l	l	n/a
772.1205	0.135	1544241	keystroke_i	i	n/a
772.406	0.105	1544812	keystroke_m	m	n/a
772.661	0.12	1545322	keystroke_i	i	n/a
772.916	0.09	1545832	keystroke_t	t	n/a
773.501	0.12	1547002	keystroke_Key.enter	Key.enter	n/a
773.6275	9.265	1547255	prompt	n/a	grid directed adidas ghana\n
774.656	0.12	1549312	keystroke_g	g	n/a
774.986	0.12	1549972	keystroke_r	r	n/a
775.211	0.105	1550422	keystroke_i	i	n/a
775.421	0.135	1550842	keystroke_d	d	n/a
775.736	0.135	1551472	keystroke_Key.space	Key.space	n/a
776.4855	0.12	1552971	keystroke_d	d	n/a
776.7405	0.105	1553481	keystroke_i	i	n/a
776.9505	0.18	1553901	keystroke_r	r	n/a
777.0855	0.15	1554171	keystroke_e	e	n/a
777.3705	0.075	1554741	keystroke_c	c	n/a
777.6405	0.105	1555281	keystroke_t	t	n/a
777.8355	0.09	1555671	keystroke_e	e	n/a
778.0605	0.12	1556121	keystroke_d	d	n/a
778.2855	0.105	1556571	keystroke_Key.space	Key.space	n/a
778.511	0.105	1557022	keystroke_a	a	n/a
778.766	0.12	1557532	keystroke_d	d	n/a
778.961	0.12	1557922	keystroke_i	i	n/a
779.216	0.09	1558432	keystroke_d	d	n/a
779.456	0.105	1558912	keystroke_a	a	n/a
779.681	0.105	1559362	keystroke_s	s	n/a
780.4155	0.09	1560831	keystroke_Key.space	Key.space	n/a
781.2265	0.134	1562453	keystroke_g	g	n/a
781.5265	0.119	1563053	keystroke_h	h	n/a
781.8415	0.105	1563683	keystroke_a	a	n/a
782.0365	0.149	1564073	keystroke_n	n	n/a
782.2155	0.136	1564431	keystroke_a	a	n/a
782.8005	0.09	1565601	keystroke_Key.enter	Key.enter	n/a
782.8965	10.587	1565793	prompt	n/a	hydrogen torture arrivals cheap\n
783.9705	0.09	1567941	keystroke_h	h	n/a
784.3905	0.136	1568781	keystroke_y	y	n/a
784.9615	0.12	1569923	keystroke_g	g	n/a
785.4115	0.165	1570823	keystroke_r	r	n/a
785.7715	0.105	1571543	keystroke_o	o	n/a
786.0705	0.091	1572141	keystroke_d	d	n/a
786.4615	0.089	1572923	keystroke_e	e	n/a
786.7455	0.121	1573491	keystroke_n	n	n/a
787.0455	0.15	1574091	keystroke_Key.space	Key.space	n/a
787.3915	0.105	1574783	keystroke_t	t	n/a
787.5865	0.149	1575173	keystroke_o	o	n/a
787.8265	0.12	1575653	keystroke_r	r	n/a
788.1115	0.105	1576223	keystroke_t	t	n/a
788.3965	0.12	1576793	keystroke_u	u	n/a
788.6665	0.089	1577333	keystroke_r	r	n/a
788.9215	0.09	1577843	keystroke_e	e	n/a
789.4615	0.12	1578923	keystroke_Key.space	Key.space	n/a
789.6565	0.18	1579313	keystroke_a	a	n/a
789.9115	0.075	1579823	keystroke_r	r	n/a
790.1215	0.135	1580243	keystroke_r	r	n/a
790.2865	0.135	1580573	keystroke_i	i	n/a
790.5565	0.075	1581113	keystroke_v	v	n/a
790.7215	0.135	1581443	keystroke_a	a	n/a
790.9615	0.09	1581923	keystroke_l	l	n/a
791.3665	0.195	1582733	keystroke_s	s	n/a
791.6965	0.15	1583393	keystroke_Key.space	Key.space	n/a
792.0115	0.105	1584023	keystroke_c	c	n/a
792.1915	0.105	1584383	keystroke_h	h	n/a
792.3565	0.15	1584713	keystroke_e	e	n/a
792.5965	0.135	1585193	keystroke_a	a	n/a
792.8365	0.075	1585673	keystroke_p	p	n/a
793.3915	0.09	1586783	keystroke_Key.enter	Key.enter	n/a
793.489	12.5945	1586978	prompt	n/a	cannon vocal constraints proceeding\n
794.4565	0.15	1588913	keystroke_c	c	n/a
794.7115	0.12	1589423	keystroke_a	a	n/a
794.9515	0.105	1589903	keystroke_n	n	n/a
795.1465	0.135	1590293	keystroke_n	n	n/a
795.4015	0.12	1590803	keystroke_o	o	n/a
795.6565	0.12	1591313	keystroke_n	n	n/a
796.1365	0.105	1592273	keystroke_Key.space	Key.space	n/a
796.4065	0.105	1592813	keystroke_c	c	n/a
796.6465	0.15	1593293	keystroke_o	o	n/a
797.3365	0.045	1594673	keystroke_Key.backspace	Key.backspace	n/a
797.5165	0.0895	1595033	keystroke_Key.backspace	Key.backspace	n/a
797.771	0.12	1595542	keystroke_v	v	n/a
797.921	0.15	1595842	keystroke_o	o	n/a
798.131	0.09	1596262	keystroke_c	c	n/a
798.386	0.15	1596772	keystroke_a	a	n/a
798.611	0.09	1597222	keystroke_l	l	n/a
799.226	0.12	1598452	keystroke_Key.space	Key.space	n/a
799.646	0.105	1599292	keystroke_c	c	n/a
799.827	0.224	1599654	keystroke_o	o	n/a
799.976	0.151	1599952	keystroke_n	n	n/a
800.246	0.12	1600492	keystroke_s	s	n/a
800.516	0.06	1601032	keystroke_t	t	n/a
800.726	0.135	1601452	keystroke_r	r	n/a
800.996	0.15	1601992	keystroke_a	a	n/a
801.236	0.21	1602472	keystroke_i	i	n/a
801.341	0.165	1602682	keystroke_n	n	n/a
801.566	0.075	1603132	keystroke_t	t	n/a
801.896	0.091	1603792	keystroke_s	s	n/a
802.8415	0.12	1605683	keystroke_Key.space	Key.space	n/a
803.0215	0.12	1606043	keystroke_p	p	n/a
803.2615	0.09	1606523	keystroke_r	r	n/a
803.4115	0.135	1606823	keystroke_o	o	n/a
803.8165	0.105	1607633	keystroke_c	c	n/a
804.0865	0.105	1608173	keystroke_e	e	n/a
804.3565	0.06	1608713	keystroke_d	d	n/a
804.5515	0.135	1609103	keystroke_d	d	n/a
804.7765	0.225	1609553	keystroke_i	i	n/a
804.9265	0.165	1609853	keystroke_n	n	n/a
805.1065	0.105	1610213	keystroke_g	g	n/a
806.0065	0.075	1612013	keystroke_Key.enter	Key.enter	n/a
806.088	13	1612176	prompt	n/a	departments galaxy dylan weird\n
806.757	0.089	1613514	keystroke_d	d	n/a
806.996	0.105	1613992	keystroke_e	e	n/a
807.177	0.119	1614354	keystroke_p	p	n/a
807.416	0.196	1614832	keystroke_a	a	n/a
807.581	0.121	1615162	keystroke_r	r	n/a
807.806	0.106	1615612	keystroke_t	t	n/a
808.001	0.106	1616002	keystroke_m	m	n/a
808.121	0.15	1616242	keystroke_e	e	n/a
808.301	0.165	1616602	keystroke_n	n	n/a
808.526	0.09	1617052	keystroke_t	t	n/a
808.811	0.12	1617622	keystroke_s	s	n/a
809.066	0.12	1618132	keystroke_Key.space	Key.space	n/a
809.351	0.09	1618702	keystroke_g	g	n/a
809.562	0.119	1619124	keystroke_a	a	n/a
809.756	0.136	1619512	keystroke_l	l	n/a
809.996	0.18	1619992	keystroke_a	a	n/a
810.461	0.121	1620922	keystroke_x	x	n/a
810.822	0.12	1621644	keystroke_y	y	n/a
812.276	0.12	1624552	keystroke_Key.space	Key.space	n/a
812.532	0.12	1625064	keystroke_d	d	n/a
812.891	0.09	1625782	keystroke_y	y	n/a
813.132	0.135	1626264	keystroke_l	l	n/a
813.327	0.12	1626654	keystroke_a	a	n/a
813.507	0.105	1627014	keystroke_n	n	n/a
813.656	0.15	1627312	keystroke_Key.space	Key.space	n/a
813.881	0.181	1627762	keystroke_w	w	n/a
815.697	0.135	1631394	keystroke_e	e	n/a
815.907	0.18	1631814	keystroke_i	i	n/a
816.102	0.105	1632204	keystroke_r	r	n/a
816.387	0.09	1632774	keystroke_d	d	n/a
819.06	0.027	1638120	keystroke_Key.enter	Key.enter	n/a
819.0935	16.465	1638187	prompt	n/a	pavilion subtle ringtones harm\n
819.942	0.135	1639884	keystroke_p	p	n/a
820.167	0.105	1640334	keystroke_a	a	n/a
820.557	0.135	1641114	keystroke_v	v	n/a
821.037	0.15	1642074	keystroke_i	i	n/a
823.26	0.087	1646520	keystroke_l	l	n/a
823.4965	0.135	1646993	keystroke_i	i	n/a
823.7365	0.12	1647473	keystroke_o	o	n/a
823.9315	0.121	1647863	keystroke_n	n	n/a
828.765	0.042	1657530	keystroke_Key.space	Key.space	n/a
828.972	0.12	1657944	keystroke_s	s	n/a
829.182	0.105	1658364	keystroke_u	u	n/a
829.437	0.09	1658874	keystroke_b	b	n/a
829.782	0.105	1659564	keystroke_t	t	n/a
829.932	0.12	1659864	keystroke_l	l	n/a
830.067	0.12	1660134	keystroke_e	e	n/a
830.6815	0.12	1661363	keystroke_Key.space	Key.space	n/a
831.1165	0.12	1662233	keystroke_r	r	n/a
831.2815	0.135	1662563	keystroke_i	i	n/a
831.5665	0.105	1663133	keystroke_n	n	n/a
831.7925	0.089	1663585	keystroke_g	g	n/a
832.0775	0.149	1664155	keystroke_t	t	n/a
832.2415	0.18	1664483	keystroke_o	o	n/a
832.3465	0.15	1664693	keystroke_n	n	n/a
833.1115	0.12	1666223	keystroke_e	e	n/a
833.3215	0.105	1666643	keystroke_s	s	n/a
834.0415	0.12	1668083	keystroke_Key.space	Key.space	n/a
834.2365	0.15	1668473	keystroke_h	h	n/a
834.4015	0.285	1668803	keystroke_a	a	n/a
834.5665	0.15	1669133	keystroke_r	r	n/a
835.1665	0.09	1670333	keystroke_m	m	n/a
835.4665	0.09	1670933	keystroke_Key.enter	Key.enter	n/a
835.5635	8.189	1671127	prompt	n/a	suited loves students bridges\n
836.337	0.1345	1672674	keystroke_s	s	n/a
836.4865	0.12	1672973	keystroke_u	u	n/a
836.7415	0.106	1673483	keystroke_i	i	n/a
836.9665	0.135	1673933	keystroke_t	t	n/a
837.0865	0.12	1674173	keystroke_e	e	n/a
837.3265	0.211	1674653	keystroke_d	d	n/a
837.5515	0.12	1675103	keystroke_Key.space	Key.space	n/a
837.7165	0.091	1675433	keystroke_l	l	n/a
837.9115	0.121	1675823	keystroke_o	o	n/a
838.2115	0.105	1676423	keystroke_v	v	n/a
838.3615	0.135	1676723	keystroke_e	e	n/a
838.5415	0.225	1677083	keystroke_s	s	n/a
838.7965	0.12	1677593	keystroke_Key.space	Key.space	n/a
839.0665	0.09	1678133	keystroke_s	s	n/a
839.2915	0.075	1678583	keystroke_t	t	n/a
839.3815	0.18	1678763	keystroke_u	u	n/a
839.5915	0.09	1679183	keystroke_d	d	n/a
839.8465	0.18	1679693	keystroke_e	e	n/a
840.0115	0.12	1680023	keystroke_n	n	n/a
840.2515	0.09	1680503	keystroke_t	t	n/a
840.506	0.105	1681012	keystroke_s	s	n/a
840.791	0.136	1681582	keystroke_Key.space	Key.space	n/a
841.077	0.105	1682154	keystroke_b	b	n/a
841.241	0.106	1682482	keystroke_r	r	n/a
841.392	0.12	1682784	keystroke_i	i	n/a
841.587	0.149	1683174	keystroke_d	d	n/a
842.307	0.135	1684614	keystroke_g	g	n/a
842.652	0.134	1685304	keystroke_e	e	n/a
842.907	0.135	1685814	keystroke_s	s	n/a
843.642	0.104	1687284	keystroke_Key.enter	Key.enter	n/a
843.7525	8.2015	1687505	prompt	n/a	reveals swim ranger indexed\n
844.497	0.1355	1688994	keystroke_r	r	n/a
844.691	0.121	1689382	keystroke_e	e	n/a
844.961	0.12	1689922	keystroke_v	v	n/a
845.217	0.105	1690434	keystroke_e	e	n/a
845.442	0.105	1690884	keystroke_a	a	n/a
845.592	0.119	1691184	keystroke_l	l	n/a
845.802	0.12	1691604	keystroke_s	s	n/a
846.056	0.121	1692112	keystroke_Key.space	Key.space	n/a
846.252	0.135	1692504	keystroke_s	s	n/a
846.597	0.1505	1693194	keystroke_w	w	n/a
846.853	0.104	1693706	keystroke_i	i	n/a
847.137	0.105	1694274	keystroke_m	m	n/a
847.376	0.105	1694752	keystroke_Key.space	Key.space	n/a
847.572	0.1205	1695144	keystroke_r	r	n/a
847.737	0.165	1695474	keystroke_a	a	n/a
847.977	0.0905	1695954	keystroke_n	n	n/a
848.202	0.105	1696404	keystroke_g	g	n/a
848.441	0.106	1696882	keystroke_e	e	n/a
848.697	0.12	1697394	keystroke_r	r	n/a
848.952	0.12	1697904	keystroke_Key.space	Key.space	n/a
849.192	0.134	1698384	keystroke_i	i	n/a
849.447	0.105	1698894	keystroke_n	n	n/a
849.732	0.09	1699464	keystroke_d	d	n/a
850.017	0.119	1700034	keystroke_e	e	n/a
850.347	0.135	1700694	keystroke_x	x	n/a
850.707	0.105	1701414	keystroke_e	e	n/a
850.947	0.075	1701894	keystroke_d	d	n/a
851.862	0.09	1703724	keystroke_Key.enter	Key.enter	n/a
851.9585	11.8755	1703917	prompt	n/a	enrollment satisfied active diane\n
852.942	0.12	1705884	keystroke_e	e	n/a
853.092	0.12	1706184	keystroke_n	n	n/a
853.332	0.105	1706664	keystroke_r	r	n/a
853.482	0.12	1706964	keystroke_o	o	n/a
853.752	0.075	1707504	keystroke_l	l	n/a
853.917	0.135	1707834	keystroke_l	l	n/a
854.232	0.12	1708464	keystroke_m	m	n/a
854.457	0.12	1708914	keystroke_e	e	n/a
854.622	0.135	1709244	keystroke_n	n	n/a
854.802	0.105	1709604	keystroke_t	t	n/a
855.042	0.12	1710084	keystroke_Key.space	Key.space	n/a
855.402	0.135	1710804	keystroke_s	s	n/a
855.882	0.105	1711764	keystroke_a	a	n/a
856.257	0.09	1712514	keystroke_t	t	n/a
856.392	0.12	1712784	keystroke_i	i	n/a
856.572	0.12	1713144	keystroke_s	s	n/a
856.797	0.105	1713594	keystroke_f	f	n/a
857.022	0.18	1714044	keystroke_a	a	n/a
857.622	0.12	1715244	keystroke_Key.backspace	Key.backspace	n/a
858.192	0.105	1716384	keystroke_i	i	n/a
858.417	0.075	1716834	keystroke_e	e	n/a
858.612	0.09	1717224	keystroke_d	d	n/a
858.837	0.105	1717674	keystroke_Key.space	Key.space	n/a
859.482	0.12	1718964	keystroke_a	a	n/a
860.112	0.165	1720224	keystroke_c	c	n/a
860.4715	0.09	1720943	keystroke_t	t	n/a
860.6065	0.105	1721213	keystroke_i	i	n/a
860.8765	0.105	1721753	keystroke_v	v	n/a
861.0415	0.15	1722083	keystroke_e	e	n/a
861.2515	0.135	1722503	keystroke_Key.space	Key.space	n/a
861.612	0.12	1723224	keystroke_d	d	n/a
861.777	0.12	1723554	keystroke_i	i	n/a
862.002	0.135	1724004	keystroke_a	a	n/a
862.197	0.15	1724394	keystroke_n	n	n/a
862.3765	0.106	1724753	keystroke_e	e	n/a
863.7425	0.089	1727485	keystroke_Key.enter	Key.enter	n/a
863.8405	11.124	1727681	prompt	n/a	graphic clara sort advancement\n
864.7315	0.09	1729463	keystroke_p	p	n/a
865.1515	0.135	1730303	keystroke_Key.backspace	Key.backspace	n/a
865.3765	0.12	1730753	keystroke_g	g	n/a
865.6165	0.136	1731233	keystroke_r	r	n/a
865.8265	0.165	1731653	keystroke_a	a	n/a
866.0515	0.135	1732103	keystroke_p	p	n/a
866.2765	0.1205	1732553	keystroke_h	h	n/a
866.4715	0.15	1732943	keystroke_i	i	n/a
866.6815	0.105	1733363	keystroke_c	c	n/a
866.9515	0.12	1733903	keystroke_Key.space	Key.space	n/a
867.3265	0.12	1734653	keystroke_c	c	n/a
867.4915	0.18	1734983	keystroke_l	l	n/a
867.6565	0.151	1735313	keystroke_a	a	n/a
867.9415	0.105	1735883	keystroke_r	r	n/a
868.1815	0.135	1736363	keystroke_a	a	n/a
868.3765	0.135	1736753	keystroke_Key.space	Key.space	n/a
868.6465	0.135	1737293	keystroke_s	s	n/a
868.8565	0.15	1737713	keystroke_o	o	n/a
869.0965	0.136	1738193	keystroke_r	r	n/a
869.3965	0.076	1738793	keystroke_t	t	n/a
869.907	0.12	1739814	keystroke_Key.space	Key.space	n/a
870.132	0.12	1740264	keystroke_a	a	n/a
870.567	0.12	1741134	keystroke_d	d	n/a
871.467	0.105	1742934	keystroke_v	v	n/a
871.707	0.12	1743414	keystroke_a	a	n/a
871.857	0.15	1743714	keystroke_n	n	n/a
872.022	0.135	1744044	keystroke_c	c	n/a
872.307	0.105	1744614	keystroke_e	e	n/a
872.502	0.135	1745004	keystroke_m	m	n/a
872.682	0.105	1745364	keystroke_e	e	n/a
872.802	0.165	1745604	keystroke_n	n	n/a
873.042	0.09	1746084	keystroke_t	t	n/a
874.872	0.09	1749744	keystroke_Key.enter	Key.enter	n/a
874.97	11.034	1749940	prompt	n/a	davidson levy take dumb\n
875.892	0.105	1751784	keystroke_d	d	n/a
876.237	0.135	1752474	keystroke_a	a	n/a
876.957	0.105	1753914	keystroke_v	v	n/a
877.182	0.135	1754364	keystroke_i	i	n/a
877.377	0.12	1754754	keystroke_d	d	n/a
877.602	0.135	1755204	keystroke_s	s	n/a
877.812	0.105	1755624	keystroke_o	o	n/a
878.052	0.12	1756104	keystroke_n	n	n/a
878.322	0.165	1756644	keystroke_Key.space	Key.space	n/a
878.547	0.15	1757094	keystroke_l	l	n/a
878.772	0.12	1757544	keystroke_e	e	n/a
879.117	0.105	1758234	keystroke_v	v	n/a
879.507	0.135	1759014	keystroke_y	y	n/a
879.942	0.105	1759884	keystroke_Key.space	Key.space	n/a
880.152	0.075	1760304	keystroke_t	t	n/a
880.317	0.135	1760634	keystroke_a	a	n/a
880.512	0.12	1761024	keystroke_k	k	n/a
880.737	0.105	1761474	keystroke_e	e	n/a
881.037	0.135	1762074	keystroke_Key.space	Key.space	n/a
881.412	0.09	1762824	keystroke_d	d	n/a
881.6975	0.09	1763395	keystroke_u	u	n/a
882.117	0.135	1764234	keystroke_m	m	n/a
882.432	0.09	1764864	keystroke_b	b	n/a
885.96	0.042	1771920	keystroke_Key.enter	Key.enter	n/a
886.012	10.2525	1772024	prompt	n/a	tariff liberty tours eleven\n
887.367	0.105	1774734	keystroke_t	t	n/a
887.607	0.15	1775214	keystroke_a	a	n/a
888.102	0.105	1776204	keystroke_r	r	n/a
889.212	0.135	1778424	keystroke_i	i	n/a
889.452	0.075	1778904	keystroke_f	f	n/a
889.617	0.195	1779234	keystroke_f	f	n/a
889.842	0.135	1779684	keystroke_Key.space	Key.space	n/a
890.082	0.12	1780164	keystroke_l	l	n/a
890.232	0.1345	1780464	keystroke_i	i	n/a
890.5175	0.134	1781035	keystroke_b	b	n/a
890.7115	0.165	1781423	keystroke_e	e	n/a
890.8315	0.15	1781663	keystroke_r	r	n/a
891.1615	0.121	1782323	keystroke_t	t	n/a
891.3715	0.121	1782743	keystroke_y	y	n/a
891.8515	0.15	1783703	keystroke_Key.space	Key.space	n/a
892.2715	0.1205	1784543	keystroke_t	t	n/a
892.467	0.166	1784934	keystroke_o	o	n/a
892.572	0.165	1785144	keystroke_u	u	n/a
892.767	0.12	1785534	keystroke_r	r	n/a
893.052	0.105	1786104	keystroke_s	s	n/a
893.352	0.135	1786704	keystroke_Key.space	Key.space	n/a
893.697	0.076	1787394	keystroke_e	e	n/a
893.862	0.135	1787724	keystroke_l	l	n/a
894.057	0.135	1788114	keystroke_e	e	n/a
894.387	0.03	1788774	keystroke_v	v	n/a
894.657	0.15	1789314	keystroke_e	e	n/a
895.047	0.105	1790094	keystroke_n	n	n/a
896.217	0.045	1792434	keystroke_Key.enter	Key.enter	n/a
896.2685	9.656	1792537	prompt	n/a	referral twenty evaluate providence\n
897.1625	0.18	1794325	keystroke_r	r	n/a
897.2825	0.15	1794565	keystroke_e	e	n/a
897.5225	0.135	1795045	keystroke_f	f	n/a
897.7175	0.165	1795435	keystroke_e	e	n/a
897.9275	0.09	1795855	keystroke_r	r	n/a
898.1225	0.12	1796245	keystroke_r	r	n/a
898.3325	0.135	1796665	keystroke_a	a	n/a
898.6175	0.089	1797235	keystroke_l	l	n/a
899.0065	0.12	1798013	keystroke_Key.space	Key.space	n/a
