onset	duration	sample	value	key	prompt_text
3.091	6.908	6182	prompt	n/a	the quick brown fox jumps over a lazy dog\n
4.391	0.043	8782	keystroke_t	t	n/a
4.419	0.12	8838	keystroke_h	h	n/a
4.554	0.09	9108	keystroke_e	e	n/a
4.629	0.09	9258	keystroke_Key.space	Key.space	n/a
4.779	0.105	9558	keystroke_q	q	n/a
5.484	0.135	10968	keystroke_u	u	n/a
5.544	0.1505	11088	keystroke_i	i	n/a
5.724	0.1355	11448	keystroke_c	c	n/a
5.814	0.1355	11628	keystroke_k	k	n/a
5.9045	0.176	11809	keystroke_Key.space	Key.space	n/a
6.052	0.0885	12104	keystroke_b	b	n/a
6.1555	0.075	12311	keystroke_r	r	n/a
6.2455	0.09	12491	keystroke_o	o	n/a
6.3505	0.105	12701	keystroke_w	w	n/a
6.4405	0.151	12881	keystroke_n	n	n/a
6.5315	0.135	13063	keystroke_Key.space	Key.space	n/a
6.6365	0.105	13273	keystroke_f	f	n/a
6.7565	0.09	13513	keystroke_o	o	n/a
6.8765	0.105	13753	keystroke_x	x	n/a
6.9815	0.165	13963	keystroke_Key.space	Key.space	n/a
7.1015	0.105	14203	keystroke_j	j	n/a
7.2665	0.075	14533	keystroke_u	u	n/a
7.4615	0.18	14923	keystroke_m	m	n/a
7.5815	0.135	15163	keystroke_p	p	n/a
7.7465	0.09	15493	keystroke_s	s	n/a
7.8815	0.12	15763	keystroke_Key.space	Key.space	n/a
8.0465	0.135	16093	keystroke_o	o	n/a
8.1215	0.105	16243	keystroke_v	v	n/a
8.3315	0.12	16663	keystroke_e	e	n/a
8.3915	0.135	16783	keystroke_r	r	n/a
8.4965	0.12	16993	keystroke_Key.space	Key.space	n/a
8.6015	0.135	17203	keystroke_a	a	n/a
8.7215	0.1045	17443	keystroke_Key.space	Key.space	n/a
8.841	0.12	17682	keystroke_l	l	n/a
8.901	0.12	17802	keystroke_a	a	n/a
9.096	0.12	18192	keystroke_z	z	n/a
9.246	0.165	18492	keystroke_y	y	n/a
9.336	0.135	18672	keystroke_Key.space	Key.space	n/a
9.426	0.135	18852	keystroke_d	d	n/a
9.546	0.165	19092	keystroke_o	o	n/a
9.726	0.06	19452	keystroke_g	g	n/a
9.891	0.105	19782	keystroke_Key.enter	Key.enter	n/a
10.004	7.195	20008	prompt	n/a	spiritual valium committees contest\n
10.6115	0.1205	21223	keystroke_s	s	n/a
10.702	0.1945	21404	keystroke_p	p	n/a
10.8665	0.1355	21733	keystroke_i	i	n/a
11.032	0.104	22064	keystroke_r	r	n/a
11.557	0.104	23114	keystroke_i	i	n/a
11.677	0.105	23354	keystroke_t	t	n/a
11.797	0.074	23594	keystroke_u	u	n/a
11.902	0.105	23804	keystroke_a	a	n/a
11.992	0.165	23984	keystroke_l	l	n/a
12.082	0.134	24164	keystroke_Key.space	Key.space	n/a
12.246	0.121	24492	keystroke_v	v	n/a
12.5315	0.09	25063	keystroke_a	a	n/a
12.6375	0.089	25275	keystroke_l	l	n/a
12.8015	0.121	25603	keystroke_i	i	n/a
12.9665	0.105	25933	keystroke_u	u	n/a
13.2365	0.166	26473	keystroke_m	m	n/a
13.3565	0.15	26713	keystroke_Key.space	Key.space	n/a
13.6425	0.12	27285	keystroke_c	c	n/a
13.7775	0.15	27555	keystroke_o	o	n/a
13.8515	0.106	27703	keystroke_m	m	n/a
14.3325	0.074	28665	keystroke_m	m	n/a
14.5415	0.105	29083	keystroke_i	i	n/a
14.6615	0.09	29323	keystroke_t	t	n/a
14.857	0.0595	29714	keystroke_t	t	n/a
15.2915	0.075	30583	keystroke_e	e	n/a
15.4715	0.075	30943	keystroke_e	e	n/a
15.6215	0.135	31243	keystroke_s	s	n/a
15.8015	0.105	31603	keystroke_Key.space	Key.space	n/a
15.9075	0.134	31815	keystroke_c	c	n/a
16.0115	0.18	32023	keystroke_o	o	n/a
16.1315	0.12	32263	keystroke_n	n	n/a
16.2965	0.105	32593	keystroke_t	t	n/a
16.387	0.1045	32774	keystroke_e	e	n/a
16.7465	0.1055	33493	keystroke_s	s	n/a
16.912	0.1195	33824	keystroke_t	t	n/a
17.1065	0.0905	34213	keystroke_Key.enter	Key.enter	n/a
17.203	5.4555	34406	prompt	n/a	cattle nails shouldn't've hostels\n
17.7215	0.105	35443	keystroke_c	c	n/a
18.0515	0.09	36103	keystroke_a	a	n/a
18.3075	0.03	36615	keystroke_t	t	n/a
18.412	0.06	36824	keystroke_t	t	n/a
18.547	0.1055	37094	keystroke_l	l	n/a
18.6365	0.03	37273	keystroke_e	e	n/a
18.6965	0.1805	37393	keystroke_Key.space	Key.space	n/a
18.862	0.075	37724	keystroke_n	n	n/a
18.9525	0.1045	37905	keystroke_a	a	n/a
19.1765	0.18	38353	keystroke_i	i	n/a
19.2665	0.15	38533	keystroke_l	l	n/a
19.4015	0.105	38803	keystroke_s	s	n/a
19.5215	0.105	39043	keystroke_Key.space	Key.space	n/a
19.6415	0.12	39283	keystroke_c	c	n/a
20.0615	0.045	40123	keystroke_Key.backspace	Key.backspace	n/a
20.2415	0.105	40483	keystroke_s	s	n/a
20.3315	0.0905	40663	keystroke_h	h	n/a
20.451	0.136	40902	keystroke_o	o	n/a
20.557	0.1345	41114	keystroke_u	u	n/a
20.6765	0.135	41353	keystroke_l	l	n/a
20.8125	0.104	41625	keystroke_d	d	n/a
20.9315	0.075	41863	keystroke_n	n	n/a
21.1865	0.09	42373	keystroke_'	'	n/a
21.2915	0.105	42583	keystroke_t	t	n/a
21.4715	0.105	42943	keystroke_Key.space	Key.space	n/a
21.6065	0.18	43213	keystroke_h	h	n/a
21.7115	0.135	43423	keystroke_o	o	n/a
21.8165	0.1055	43633	keystroke_s	s	n/a
22.041	0.136	44082	keystroke_t	t	n/a
22.116	0.121	44232	keystroke_e	e	n/a
22.252	0.134	44504	keystroke_l	l	n/a
22.401	0.076	44802	keystroke_s	s	n/a
22.5665	0.09	45133	keystroke_Key.enter	Key.enter	n/a
22.662	4.3015	45324	prompt	n/a	size taxi scale displays\n
23.2115	0.12	46423	keystroke_s	s	n/a
23.3465	0.0905	46693	keystroke_i	i	n/a
23.452	0.12	46904	keystroke_z	z	n/a
23.677	0.074	47354	keystroke_e	e	n/a
23.767	0.12	47534	keystroke_Key.space	Key.space	n/a
23.857	0.105	47714	keystroke_t	t	n/a
24.022	0.06	48044	keystroke_a	a	n/a
24.337	0.12	48674	keystroke_x	x	n/a
24.862	0.165	49724	keystroke_i	i	n/a
24.937	0.165	49874	keystroke_Key.space	Key.space	n/a
25.132	0.105	50264	keystroke_s	s	n/a
25.312	0.1345	50624	keystroke_c	c	n/a
25.5065	0.105	51013	keystroke_a	a	n/a
25.6265	0.105	51253	keystroke_l	l	n/a
25.7325	0.044	51465	keystroke_e	e	n/a
25.8065	0.105	51613	keystroke_Key.space	Key.space	n/a
25.8965	0.12	51793	keystroke_d	d	n/a
26.0015	0.105	52003	keystroke_i	i	n/a
26.0915	0.0605	52183	keystroke_s	s	n/a
26.212	0.195	52424	keystroke_p	p	n/a
26.347	0.09	52694	keystroke_l	l	n/a
26.482	0.12	52964	keystroke_a	a	n/a
26.632	0.075	53264	keystroke_y	y	n/a
26.737	0.075	53474	keystroke_s	s	n/a
26.872	0.09	53744	keystroke_Key.enter	Key.enter	n/a
26.967	3.9865	53934	prompt	n/a	composed winners duties bean\n
27.532	0.12	55064	keystroke_c	c	n/a
27.622	0.165	55244	keystroke_o	o	n/a
27.742	0.12	55484	keystroke_m	m	n/a
27.952	0.15	55904	keystroke_p	p	n/a
28.0425	0.1345	56085	keystroke_o	o	n/a
28.087	0.18	56174	keystroke_s	s	n/a
28.252	0.105	56504	keystroke_e	e	n/a
28.4775	0.1045	56955	keystroke_d	d	n/a
28.612	0.09	57224	keystroke_Key.space	Key.space	n/a
28.687	0.105	57374	keystroke_w	w	n/a
28.777	0.18	57554	keystroke_i	i	n/a
28.912	0.09	57824	keystroke_n	n	n/a
29.062	0.1055	58124	keystroke_n	n	n/a
29.1375	0.12	58275	keystroke_e	e	n/a
29.2125	0.105	58425	keystroke_r	r	n/a
29.4075	0.104	58815	keystroke_s	s	n/a
29.5415	0.151	59083	keystroke_Key.space	Key.space	n/a
29.6465	0.106	59293	keystroke_d	d	n/a
29.7825	0.119	59565	keystroke_u	u	n/a
29.9315	0.106	59863	keystroke_t	t	n/a
30.0525	0.09	60105	keystroke_i	i	n/a
30.1275	0.1495	60255	keystroke_e	e	n/a
30.1875	0.1345	60375	keystroke_s	s	n/a
30.277	0.1645	60554	keystroke_Key.space	Key.space	n/a
30.3815	0.12	60763	keystroke_b	b	n/a
30.4715	0.12	60943	keystroke_e	e	n/a
30.5315	0.12	61063	keystroke_a	a	n/a
30.6525	0.104	61305	keystroke_n	n	n/a
30.8765	0.075	61753	keystroke_Key.enter	Key.enter	n/a
30.9575	6.701	61915	prompt	n/a	published nutten comfort northern\n
31.5965	0.165	63193	keystroke_p	p	n/a
31.7165	0.106	63433	keystroke_u	u	n/a
32.0165	0.03	64033	keystroke_b	b	n/a
32.3475	0.149	64695	keystroke_l	l	n/a
32.4215	0.15	64843	keystroke_i	i	n/a
32.5415	0.105	65083	keystroke_s	s	n/a
32.6615	0.12	65323	keystroke_h	h	n/a
32.7515	0.135	65503	keystroke_e	e	n/a
32.8565	0.15	65713	keystroke_d	d	n/a
32.9915	0.105	65983	keystroke_Key.space	Key.space	n/a
33.2165	0.09	66433	keystroke_n	n	n/a
33.4415	0.105	66883	keystroke_u	u	n/a
33.5615	0.09	67123	keystroke_t	t	n/a
33.7565	0.09	67513	keystroke_t	t	n/a
33.8015	0.15	67603	keystroke_e	e	n/a
33.9065	0.12	67813	keystroke_n	n	n/a
33.9815	0.135	67963	keystroke_Key.space	Key.space	n/a
34.1015	0.135	68203	keystroke_c	c	n/a
34.2215	0.135	68443	keystroke_o	o	n/a
34.3115	0.135	68623	keystroke_m	m	n/a
34.522	0.075	69044	keystroke_f	f	n/a
34.672	0.105	69344	keystroke_o	o	n/a
34.792	0.105	69584	keystroke_r	r	n/a
35.002	0.105	70004	keystroke_t	t	n/a
35.3315	0.12	70663	keystroke_Key.space	Key.space	n/a
35.6315	0.06	71263	keystroke_t	t	n/a
35.9165	0.06	71833	keystroke_Key.backspace	Key.backspace	n/a
36.1565	0.09	72313	keystroke_n	n	n/a
36.3665	0.165	72733	keystroke_o	o	n/a
36.442	0.12	72884	keystroke_u	u	n/a
36.577	0.09	73154	keystroke_t	t	n/a
36.6965	0.1055	73393	keystroke_h	h	n/a
36.8165	0.12	73633	keystroke_e	e	n/a
36.8615	0.135	73723	keystroke_r	r	n/a
37.0115	0.0905	74023	keystroke_n	n	n/a
37.5675	0.089	75135	keystroke_Key.enter	Key.enter	n/a
37.663	9.1015	75326	prompt	n/a	indianapolis sections same gamecube\n
38.587	0.18	77174	keystroke_i	i	n/a
38.707	0.15	77414	keystroke_n	n	n/a
38.887	0.135	77774	keystroke_d	d	n/a
39.307	0.09	78614	keystroke_i	i	n/a
40.882	0.135	81764	keystroke_a	a	n/a
41.3315	0.105	82663	keystroke_n	n	n/a
41.752	0.135	83504	keystroke_a	a	n/a
41.962	0.15	83924	keystroke_p	p	n/a
42.067	0.12	84134	keystroke_o	o	n/a
42.4865	0.12	84973	keystroke_l	l	n/a
42.7565	0.12	85513	keystroke_i	i	n/a
42.9065	0.121	85813	keystroke_s	s	n/a
43.0115	0.165	86023	keystroke_Key.space	Key.space	n/a
43.1925	0.1195	86385	keystroke_s	s	n/a
43.387	0.09	86774	keystroke_e	e	n/a
43.582	0.135	87164	keystroke_c	c	n/a
43.882	0.105	87764	keystroke_t	t	n/a
43.972	0.255	87944	keystroke_i	i	n/a
44.047	0.24	88094	keystroke_o	o	n/a
44.152	0.12	88304	keystroke_n	n	n/a
44.242	0.09	88484	keystroke_s	s	n/a
44.392	0.1345	88784	keystroke_Key.space	Key.space	n/a
44.5115	0.135	89023	keystroke_s	s	n/a
44.6165	0.15	89233	keystroke_a	a	n/a
44.7815	0.105	89563	keystroke_m	m	n/a
44.9315	0.09	89863	keystroke_e	e	n/a
45.0225	0.119	90045	keystroke_Key.space	Key.space	n/a
45.292	0.105	90584	keystroke_g	g	n/a
45.502	0.0895	91004	keystroke_a	a	n/a
45.7415	0.09	91483	keystroke_m	m	n/a
45.8475	0.074	91695	keystroke_e	e	n/a
46.0715	0.076	92143	keystroke_c	c	n/a
46.1915	0.226	92383	keystroke_u	u	n/a
46.3415	0.136	92683	keystroke_b	b	n/a
46.4615	0.061	92923	keystroke_e	e	n/a
46.6715	0.09	93343	keystroke_Key.enter	Key.enter	n/a
46.77	4.674	93540	prompt	n/a	tulsa housing resist adams\n
47.4815	0.105	94963	keystroke_t	t	n/a
47.6465	0.18	95293	keystroke_u	u	n/a
47.7665	0.151	95533	keystroke_l	l	n/a
47.9015	0.1805	95803	keystroke_s	s	n/a
48.022	0.15	96044	keystroke_a	a	n/a
48.157	0.18	96314	keystroke_Key.space	Key.space	n/a
48.292	0.135	96584	keystroke_h	h	n/a
48.442	0.1795	96884	keystroke_o	o	n/a
48.5465	0.105	97093	keystroke_u	u	n/a
48.6225	0.119	97245	keystroke_s	s	n/a
48.7715	0.151	97543	keystroke_i	i	n/a
48.8915	0.121	97783	keystroke_n	n	n/a
48.997	0.105	97994	keystroke_g	g	n/a
49.132	0.1355	98264	keystroke_Key.space	Key.space	n/a
49.3415	0.165	98683	keystroke_r	r	n/a
49.4315	0.135	98863	keystroke_e	e	n/a
49.8815	0.12	99763	keystroke_s	s	n/a
50.1065	0.09	100213	keystroke_i	i	n/a
50.1365	0.12	100273	keystroke_s	s	n/a
50.3765	0.09	100753	keystroke_t	t	n/a
50.5115	0.105	101023	keystroke_Key.space	Key.space	n/a
50.6175	0.1345	101235	keystroke_a	a	n/a
50.767	0.135	101534	keystroke_d	d	n/a
50.917	0.105	101834	keystroke_a	a	n/a
51.052	0.12	102104	keystroke_m	m	n/a
51.172	0.075	102344	keystroke_s	s	n/a
51.307	0.135	102614	keystroke_Key.enter	Key.enter	n/a
51.4475	4.481	102895	prompt	n/a	maps choices operate argued\n
52.147	0.0895	104294	keystroke_m	m	n/a
52.2665	0.09	104533	keystroke_a	a	n/a
52.3865	0.12	104773	keystroke_p	p	n/a
52.5075	0.089	105015	keystroke_s	s	n/a
52.5665	0.09	105133	keystroke_Key.space	Key.space	n/a
52.7015	0.105	105403	keystroke_c	c	n/a
52.8365	0.105	105673	keystroke_h	h	n/a
52.9865	0.195	105973	keystroke_o	o	n/a
53.1065	0.165	106213	keystroke_i	i	n/a
53.2115	0.195	106423	keystroke_c	c	n/a
53.3315	0.195	106663	keystroke_e	e	n/a
53.4365	0.15	106873	keystroke_s	s	n/a
53.6315	0.12	107263	keystroke_Key.space	Key.space	n/a
53.8865	0.165	107773	keystroke_o	o	n/a
53.9765	0.195	107953	keystroke_p	p	n/a
54.0825	0.119	108165	keystroke_e	e	n/a
54.1865	0.09	108373	keystroke_r	r	n/a
54.2915	0.18	108583	keystroke_a	a	n/a
54.532	0.18	109064	keystroke_t	t	n/a
54.667	0.105	109334	keystroke_e	e	n/a
54.787	0.12	109574	keystroke_Key.space	Key.space	n/a
54.922	0.165	109844	keystroke_a	a	n/a
55.057	0.105	110114	keystroke_r	r	n/a
55.342	0.0895	110684	keystroke_g	g	n/a
55.4765	0.12	110953	keystroke_u	u	n/a
55.5815	0.15	111163	keystroke_e	e	n/a
55.7165	0.1055	111433	keystroke_d	d	n/a
55.852	0.075	111704	keystroke_Key.enter	Key.enter	n/a
55.933	7.886	111866	prompt	n/a	vanilla condition possession directory\n
56.9465	0.09	113893	keystroke_v	v	n/a
57.1415	0.075	114283	keystroke_a	a	n/a
57.2315	0.165	114463	keystroke_n	n	n/a
57.4115	0.2405	114823	keystroke_i	i	n/a
57.4265	0.1955	114853	keystroke_u	u	n/a
57.592	0.135	115184	keystroke_l	l	n/a
57.997	0.045	115994	keystroke_Key.backspace	Key.backspace	n/a
58.102	0.045	116204	keystroke_Key.backspace	Key.backspace	n/a
58.432	0.06	116864	keystroke_l	l	n/a
58.582	0.075	117164	keystroke_l	l	n/a
58.687	0.105	117374	keystroke_a	a	n/a
58.822	0.105	117644	keystroke_Key.space	Key.space	n/a
59.002	0.135	118004	keystroke_c	c	n/a
59.122	0.165	118244	keystroke_o	o	n/a
59.242	0.12	118484	keystroke_n	n	n/a
59.363	0.104	118726	keystroke_d	d	n/a
59.632	0.105	119264	keystroke_i	i	n/a
59.797	0.12	119594	keystroke_t	t	n/a
59.932	0.21	119864	keystroke_i	i	n/a
59.977	0.15	119954	keystroke_o	o	n/a
60.067	0.15	120134	keystroke_n	n	n/a
60.202	0.135	120404	keystroke_Key.space	Key.space	n/a
60.412	0.18	120824	keystroke_p	p	n/a
60.547	0.09	121094	keystroke_o	o	n/a
60.9975	0.059	121995	keystroke_s	s	n/a
61.1475	0.089	122295	keystroke_s	s	n/a
61.3565	0.075	122713	keystroke_e	e	n/a
61.6115	0.031	123223	keystroke_s	s	n/a
61.8065	0.015	123613	keystroke_s	s	n/a
61.8375	0.164	123675	keystroke_i	i	n/a
61.9115	0.18	123823	keystroke_o	o	n/a
61.9715	0.15	123943	keystroke_n	n	n/a
62.0765	0.15	124153	keystroke_Key.space	Key.space	n/a
62.2125	0.105	124425	keystroke_d	d	n/a
62.3315	0.121	124663	keystroke_i	i	n/a
62.4675	0.134	124935	keystroke_r	r	n/a
62.5265	0.135	125053	keystroke_e	e	n/a
62.7675	0.12	125535	keystroke_c	c	n/a
63.037	0.075	126074	keystroke_t	t	n/a
63.172	0.105	126344	keystroke_o	o	n/a
63.217	0.09	126434	keystroke_r	r	n/a
63.472	0.015	126944	keystroke_y	y	n/a
63.742	0.075	127484	keystroke_Key.enter	Key.enter	n/a
63.8225	11.4565	127645	prompt	n/a	breakdown flavor psychological blond\n
64.5375	0.089	129075	keystroke_b	b	n/a
64.6575	0.1345	129315	keystroke_r	r	n/a
64.7315	0.1505	129463	keystroke_e	e	n/a
64.897	0.135	129794	keystroke_a	a	n/a
65.137	0.105	130274	keystroke_k	k	n/a
65.242	0.135	130484	keystroke_d	d	n/a
65.392	0.0895	130784	keystroke_o	o	n/a
65.4665	0.075	130933	keystroke_w	w	n/a
65.5565	0.1655	131113	keystroke_n	n	n/a
65.647	0.15	131294	keystroke_Key.space	Key.space	n/a
65.917	0.105	131834	keystroke_f	f	n/a
66.187	0.09	132374	keystroke_l	l	n/a
66.277	0.105	132554	keystroke_a	a	n/a
66.547	0.09	133094	keystroke_v	v	n/a
66.742	0.105	133484	keystroke_o	o	n/a
66.832	0.09	133664	keystroke_r	r	n/a
66.952	0.1045	133904	keystroke_Key.space	Key.space	n/a
67.2215	0.075	134443	keystroke_p	p	n/a
67.3115	0.09	134623	keystroke_s	s	n/a
67.4765	0.105	134953	keystroke_y	y	n/a
67.6415	0.105	135283	keystroke_c	c	n/a
67.7615	0.06	135523	keystroke_h	h	n/a
67.9265	0.091	135853	keystroke_o	o	n/a
68.1215	0.075	136243	keystroke_l	l	n/a
68.3615	0.015	136723	keystroke_o	o	n/a
68.3915	0.045	136783	keystroke_g	g	n/a
68.4515	0.1055	136903	keystroke_i	i	n/a
68.752	0.06	137504	keystroke_a	a	n/a
69.367	0.2405	138734	keystroke_l	l	n/a
69.5915	0.06	139183	keystroke_Key.space	Key.space	n/a
69.6665	0.105	139333	keystroke_b	b	n/a
70.1915	0.045	140383	keystroke_Key.backspace	Key.backspace	n/a
70.2815	0.075	140563	keystroke_Key.backspace	Key.backspace	n/a
70.4165	0.06	140833	keystroke_Key.backspace	Key.backspace	n/a
70.582	0.06	141164	keystroke_Key.backspace	Key.backspace	n/a
71.032	0.075	142064	keystroke_Key.backspace	Key.backspace	n/a
71.302	0.075	142604	keystroke_Key.backspace	Key.backspace	n/a
73.494	0.043	146988	keystroke_g	g	n/a
73.762	0.1045	147524	keystroke_i	i	n/a
73.8825	0.1495	147765	keystroke_c	c	n/a
74.002	0.1495	148004	keystroke_a	a	n/a
74.0925	0.18	148185	keystroke_l	l	n/a
74.2115	0.12	148423	keystroke_Key.space	Key.space	n/a
74.3925	0.075	148785	keystroke_b	b	n/a
74.572	0.165	149144	keystroke_o	o	n/a
74.662	0.105	149324	keystroke_n	n	n/a
74.827	0.1055	149654	keystroke_d	d	n/a
75.1715	0.105	150343	keystroke_Key.enter	Key.enter	n/a
75.283	5.3655	150566	prompt	n/a	honey affair latitude prepared\n
76.0575	0.134	152115	keystroke_h	h	n/a
76.1765	0.225	152353	keystroke_o	o	n/a
76.3115	0.105	152623	keystroke_n	n	n/a
76.4315	0.12	152863	keystroke_e	e	n/a
76.5665	0.195	153133	keystroke_y	y	n/a
76.6715	0.135	153343	keystroke_Key.space	Key.space	n/a
76.7765	0.09	153553	keystroke_a	a	n/a
77.0015	0.06	154003	keystroke_f	f	n/a
77.2115	0.06	154423	keystroke_f	f	n/a
77.4965	0.12	154993	keystroke_a	a	n/a
77.6615	0.12	155323	keystroke_i	i	n/a
77.7965	0.09	155593	keystroke_r	r	n/a
77.8715	0.1355	155743	keystroke_Key.space	Key.space	n/a
78.127	0.105	156254	keystroke_l	l	n/a
78.232	0.105	156464	keystroke_a	a	n/a
78.502	0.09	157004	keystroke_t	t	n/a
78.727	0.09	157454	keystroke_i	i	n/a
79.012	0.09	158024	keystroke_t	t	n/a
79.177	0.1195	158354	keystroke_u	u	n/a
79.282	0.15	158564	keystroke_d	d	n/a
79.387	0.12	158774	keystroke_e	e	n/a
79.477	0.15	158954	keystroke_Key.space	Key.space	n/a
79.597	0.12	159194	keystroke_p	p	n/a
79.657	0.135	159314	keystroke_r	r	n/a
79.732	0.105	159464	keystroke_e	e	n/a
79.882	0.12	159764	keystroke_p	p	n/a
79.942	0.12	159884	keystroke_a	a	n/a
80.122	0.135	160244	keystroke_r	r	n/a
80.197	0.135	160394	keystroke_e	e	n/a
80.392	0.1195	160784	keystroke_d	d	n/a
80.5575	0.0895	161115	keystroke_Key.enter	Key.enter	n/a
80.652	5.8465	161304	prompt	n/a	savings appeals agents browsers\n
81.217	0.15	162434	keystroke_s	s	n/a
81.352	0.12	162704	keystroke_a	a	n/a
81.622	0.12	163244	keystroke_v	v	n/a
81.757	0.195	163514	keystroke_i	i	n/a
81.877	0.1355	163754	keystroke_n	n	n/a
81.967	0.1645	163934	keystroke_g	g	n/a
82.0715	0.121	164143	keystroke_s	s	n/a
82.1925	0.119	164385	keystroke_Key.space	Key.space	n/a
82.3425	0.089	164685	keystroke_a	a	n/a
82.7015	0.075	165403	keystroke_p	p	n/a
82.8365	0.09	165673	keystroke_p	p	n/a
82.9115	0.15	165823	keystroke_e	e	n/a
82.9865	0.135	165973	keystroke_a	a	n/a
83.0915	0.12	166183	keystroke_l	l	n/a
83.2265	0.12	166453	keystroke_s	s	n/a
83.3315	0.135	166663	keystroke_Key.space	Key.space	n/a
83.5865	0.105	167173	keystroke_a	a	n/a
83.8715	0.075	167743	keystroke_g	g	n/a
84.0365	0.03	168073	keystroke_e	e	n/a
84.1565	0.09	168313	keystroke_n	n	n/a
84.3365	0.09	168673	keystroke_t	t	n/a
84.487	0.1045	168974	keystroke_s	s	n/a
84.5925	0.1495	169185	keystroke_Key.space	Key.space	n/a
84.7275	0.1185	169455	keystroke_b	b	n/a
84.8175	0.0895	169635	keystroke_r	r	n/a
85.102	0.105	170204	keystroke_o	o	n/a
85.222	0.075	170444	keystroke_w	w	n/a
85.477	0.075	170954	keystroke_s	s	n/a
85.687	0.165	171374	keystroke_e	e	n/a
85.807	0.105	171614	keystroke_r	r	n/a
86.1065	0.091	172213	keystroke_s	s	n/a
86.4065	0.0905	172813	keystroke_Key.enter	Key.enter	n/a
86.502	6.7165	173004	prompt	n/a	waters account intended conclusions\n
87.202	0.09	174404	keystroke_w	w	n/a
87.367	0.09	174734	keystroke_a	a	n/a
87.562	0.105	175124	keystroke_t	t	n/a
87.697	0.12	175394	keystroke_e	e	n/a
87.787	0.09	175574	keystroke_r	r	n/a
87.997	0.105	175994	keystroke_s	s	n/a
88.192	0.12	176384	keystroke_Key.space	Key.space	n/a
88.447	0.1045	176894	keystroke_a	a	n/a
88.867	0.075	177734	keystroke_c	c	n/a
89.092	0.06	178184	keystroke_c	c	n/a
89.302	0.18	178604	keystroke_o	o	n/a
89.407	0.105	178814	keystroke_u	u	n/a
89.707	0.075	179414	keystroke_n	n	n/a
89.797	0.09	179594	keystroke_t	t	n/a
89.932	0.09	179864	keystroke_Key.space	Key.space	n/a
90.082	0.1945	180164	keystroke_i	i	n/a
90.2015	0.135	180403	keystroke_n	n	n/a
90.2915	0.105	180583	keystroke_t	t	n/a
90.4565	0.12	180913	keystroke_e	e	n/a
90.7865	0.12	181573	keystroke_n	n	n/a
90.9365	0.15	181873	keystroke_d	d	n/a
91.1015	0.18	182203	keystroke_e	e	n/a
91.2065	0.135	182413	keystroke_d	d	n/a
91.4015	0.135	182803	keystroke_Key.space	Key.space	n/a
91.5215	0.09	183043	keystroke_c	c	n/a
91.6125	0.179	183225	keystroke_o	o	n/a
91.7315	0.12	183463	keystroke_n	n	n/a
91.8665	0.12	183733	keystroke_c	c	n/a
92.0015	0.21	184003	keystroke_l	l	n/a
92.1515	0.12	184303	keystroke_u	u	n/a
92.3165	0.105	184633	keystroke_s	s	n/a
92.3915	0.3	184783	keystroke_i	i	n/a
92.5565	0.226	185113	keystroke_o	o	n/a
92.6315	0.135	185263	keystroke_n	n	n/a
92.8115	0.0905	185623	keystroke_s	s	n/a
93.1415	0.075	186283	keystroke_Key.enter	Key.enter	n/a
93.2245	7.554	186449	prompt	n/a	oxygen lifetime airfare returned\n
93.757	0.09	187514	keystroke_a	a	n/a
93.997	0.06	187994	keystroke_Key.backspace	Key.backspace	n/a
94.2965	0.075	188593	keystroke_o	o	n/a
94.4315	0.075	188863	keystroke_x	x	n/a
94.6115	0.09	189223	keystroke_y	y	n/a
94.8215	0.09	189643	keystroke_g	g	n/a
95.0315	0.09	190063	keystroke_e	e	n/a
95.1665	0.135	190333	keystroke_n	n	n/a
95.2415	0.135	190483	keystroke_Key.space	Key.space	n/a
95.512	0.1345	191024	keystroke_l	l	n/a
95.587	0.1345	191174	keystroke_i	i	n/a
95.6615	0.151	191323	keystroke_f	f	n/a
95.7525	0.134	191505	keystroke_e	e	n/a
96.0525	0.105	192105	keystroke_t	t	n/a
96.1125	0.165	192225	keystroke_i	i	n/a
96.2175	0.134	192435	keystroke_m	m	n/a
96.3375	0.06	192675	keystroke_e	e	n/a
96.4275	0.119	192855	keystroke_Key.space	Key.space	n/a
96.6065	0.136	193213	keystroke_a	a	n/a
96.8315	0.09	193663	keystroke_i	i	n/a
96.9825	0.1045	193965	keystroke_r	r	n/a
97.612	0.09	195224	keystroke_f	f	n/a
98.272	0.1045	196544	keystroke_a	a	n/a
98.5415	0.15	197083	keystroke_r	r	n/a
98.6315	0.15	197263	keystroke_e	e	n/a
98.8865	0.135	197773	keystroke_Key.space	Key.space	n/a
99.1425	0.149	198285	keystroke_r	r	n/a
99.2315	0.135	198463	keystroke_e	e	n/a
99.4865	0.12	198973	keystroke_t	t	n/a
99.6965	0.1205	199393	keystroke_u	u	n/a
99.997	0.09	199994	keystroke_r	r	n/a
100.237	0.105	200474	keystroke_n	n	n/a
100.312	0.165	200624	keystroke_e	e	n/a
100.462	0.135	200924	keystroke_d	d	n/a
100.672	0.105	201344	keystroke_Key.enter	Key.enter	n/a
100.7825	4.916	201565	prompt	n/a	weights directed opening stupid\n
101.422	0.165	202844	keystroke_w	w	n/a
101.542	0.12	203084	keystroke_e	e	n/a
101.677	0.12	203354	keystroke_i	i	n/a
101.782	0.09	203564	keystroke_g	g	n/a
101.887	0.12	203774	keystroke_h	h	n/a
101.992	0.12	203984	keystroke_t	t	n/a
102.082	0.15	204164	keystroke_s	s	n/a
102.247	0.105	204494	keystroke_Key.space	Key.space	n/a
102.337	0.12	204674	keystroke_d	d	n/a
102.5015	0.105	205003	keystroke_i	i	n/a
102.5765	0.12	205153	keystroke_r	r	n/a
102.6365	0.135	205273	keystroke_e	e	n/a
102.8615	0.105	205723	keystroke_c	c	n/a
103.1615	0.12	206323	keystroke_t	t	n/a
103.2965	0.135	206593	keystroke_e	e	n/a
103.4325	0.119	206865	keystroke_d	d	n/a
103.5815	0.15	207163	keystroke_Key.space	Key.space	n/a
103.7465	0.15	207493	keystroke_o	o	n/a
103.8215	0.135	207643	keystroke_p	p	n/a
103.8815	0.06	207763	keystroke_e	e	n/a
104.092	0.165	208184	keystroke_n	n	n/a
104.242	0.195	208484	keystroke_i	i	n/a
104.362	0.135	208724	keystroke_n	n	n/a
104.452	0.075	208904	keystroke_g	g	n/a
104.557	0.12	209114	keystroke_Key.space	Key.space	n/a
104.647	0.105	209294	keystroke_s	s	n/a
104.842	0.09	209684	keystroke_t	t	n/a
104.917	0.12	209834	keystroke_u	u	n/a
105.022	0.225	210044	keystroke_p	p	n/a
105.1565	0.1355	210313	keystroke_i	i	n/a
105.262	0.105	210524	keystroke_d	d	n/a
105.607	0.09	211214	keystroke_Key.enter	Key.enter	n/a
105.702	4.6165	211404	prompt	n/a	families rocket by letter\n
106.252	0.09	212504	keystroke_f	f	n/a
106.402	0.105	212804	keystroke_a	a	n/a
106.507	0.18	213014	keystroke_m	m	n/a
106.627	0.15	213254	keystroke_i	i	n/a
106.747	0.195	213494	keystroke_l	l	n/a
106.882	0.15	213764	keystroke_i	i	n/a
106.957	0.15	213914	keystroke_e	e	n/a
107.017	0.135	214034	keystroke_s	s	n/a
107.137	0.12	214274	keystroke_Key.space	Key.space	n/a
107.407	0.135	214814	keystroke_r	r	n/a
107.797	0.1055	215594	keystroke_o	o	n/a
107.9325	0.105	215865	keystroke_c	c	n/a
108.0825	0.12	216165	keystroke_k	k	n/a
108.2175	0.12	216435	keystroke_e	e	n/a
108.2925	0.12	216585	keystroke_t	t	n/a
108.4275	0.0895	216855	keystroke_Key.space	Key.space	n/a
108.607	0.09	217214	keystroke_b	b	n/a
108.817	0.06	217634	keystroke_y	y	n/a
109.012	0.105	218024	keystroke_Key.space	Key.space	n/a
109.177	0.105	218354	keystroke_l	l	n/a
109.267	0.105	218534	keystroke_e	e	n/a
109.492	0.06	218984	keystroke_t	t	n/a
109.657	0.075	219314	keystroke_t	t	n/a
109.852	0.165	219704	keystroke_e	e	n/a
109.957	0.12	219914	keystroke_r	r	n/a
110.212	0.105	220424	keystroke_Key.enter	Key.enter	n/a
110.3225	4.661	220645	prompt	n/a	liver donations scoop treo\n
111.022	0.1795	222044	keystroke_l	l	n/a
111.1415	0.135	222283	keystroke_i	i	n/a
111.2165	0.105	222433	keystroke_v	v	n/a
111.4265	0.12	222853	keystroke_e	e	n/a
111.5025	0.105	223005	keystroke_r	r	n/a
111.6075	0.104	223215	keystroke_Key.space	Key.space	n/a
111.7125	0.104	223425	keystroke_d	d	n/a
111.7865	0.1955	223573	keystroke_o	o	n/a
111.9065	0.1655	223813	keystroke_n	n	n/a
112.057	0.105	224114	keystroke_a	a	n/a
112.222	0.09	224444	keystroke_t	t	n/a
112.342	0.2245	224684	keystroke_i	i	n/a
112.432	0.2095	224864	keystroke_o	o	n/a
112.4915	0.12	224983	keystroke_n	n	n/a
112.6275	0.089	225255	keystroke_s	s	n/a
112.7465	0.12	225493	keystroke_Key.space	Key.space	n/a
112.882	0.075	225764	keystroke_s	s	n/a
113.107	0.075	226214	keystroke_c	c	n/a
113.242	0.09	226484	keystroke_o	o	n/a
113.4365	0.165	226873	keystroke_o	o	n/a
113.5115	0.18	227023	keystroke_p	p	n/a
113.6315	0.135	227263	keystroke_Key.space	Key.space	n/a
113.8865	0.105	227773	keystroke_t	t	n/a
114.2015	0.075	228403	keystroke_r	r	n/a
114.4565	0.0605	228913	keystroke_e	e	n/a
114.607	0.09	229214	keystroke_o	o	n/a
114.8915	0.09	229783	keystroke_Key.enter	Key.enter	n/a
114.987	7.7515	229974	prompt	n/a	locked magazines borders portions\n
115.6865	0.075	231373	keystroke_l	l	n/a
115.8815	0.075	231763	keystroke_o	o	n/a
115.9715	0.105	231943	keystroke_c	c	n/a
116.0775	0.105	232155	keystroke_k	k	n/a
116.1975	0.135	232395	keystroke_e	e	n/a
116.3025	0.15	232605	keystroke_d	d	n/a
116.4675	0.1045	232935	keystroke_Key.space	Key.space	n/a
116.632	0.105	233264	keystroke_m	m	n/a
116.722	0.1055	233444	keystroke_a	a	n/a
116.9615	0.075	233923	keystroke_g	g	n/a
117.3675	0.09	234735	keystroke_a	a	n/a
117.6375	0.089	235275	keystroke_z	z	n/a
117.7725	0.2245	235545	keystroke_i	i	n/a
117.937	0.03	235874	keystroke_b	b	n/a
117.982	0.15	235964	keystroke_e	e	n/a
118.042	0.15	236084	keystroke_s	s	n/a
118.147	0.135	236294	keystroke_Key.space	Key.space	n/a
118.327	0.075	236654	keystroke_b	b	n/a
118.717	0.06	237434	keystroke_Key.backspace	Key.backspace	n/a
118.867	0.03	237734	keystroke_Key.backspace	Key.backspace	n/a
118.987	0.06	237974	keystroke_Key.backspace	Key.backspace	n/a
119.2415	0.105	238483	keystroke_Key.backspace	Key.backspace	n/a
119.6915	0.045	239383	keystroke_Key.backspace	Key.backspace	n/a
119.9765	0.105	239953	keystroke_n	n	n/a
120.0965	0.2105	240193	keystroke_e	e	n/a
120.202	0.15	240404	keystroke_s	s	n/a
120.307	0.105	240614	keystroke_Key.space	Key.space	n/a
120.5325	0.075	241065	keystroke_b	b	n/a
120.6975	0.105	241395	keystroke_o	o	n/a
120.7575	0.075	241515	keystroke_r	r	n/a
120.9825	0.075	241965	keystroke_d	d	n/a
121.1025	0.1045	242205	keystroke_e	e	n/a
121.177	0.09	242354	keystroke_r	r	n/a
121.342	0.09	242684	keystroke_s	s	n/a
121.477	0.135	242954	keystroke_Key.space	Key.space	n/a
121.627	0.195	243254	keystroke_p	p	n/a
121.732	0.135	243464	keystroke_o	o	n/a
121.807	0.09	243614	keystroke_r	r	n/a
122.077	0.075	244154	keystroke_t	t	n/a
122.197	0.21	244394	keystroke_i	i	n/a
122.287	0.195	244574	keystroke_o	o	n/a
122.347	0.12	244694	keystroke_n	n	n/a
122.4975	0.059	244995	keystroke_s	s	n/a
122.6765	0.061	245353	keystroke_Key.enter	Key.enter	n/a
122.747	4.853	245494	prompt	n/a	laden cheats informational nice\n
123.3965	0.09	246793	keystroke_l	l	n/a
123.4425	0.1795	246885	keystroke_a	a	n/a
123.652	0.195	247304	keystroke_d	d	n/a
123.817	0.135	247634	keystroke_e	e	n/a
123.892	0.15	247784	keystroke_n	n	n/a
123.967	0.15	247934	keystroke_Key.space	Key.space	n/a
124.087	0.09	248174	keystroke_c	c	n/a
124.222	0.12	248444	keystroke_h	h	n/a
124.312	0.165	248624	keystroke_e	e	n/a
124.402	0.135	248804	keystroke_a	a	n/a
124.657	0.105	249314	keystroke_t	t	n/a
124.897	0.09	249794	keystroke_s	s	n/a
125.032	0.09	250064	keystroke_Key.space	Key.space	n/a
125.212	0.225	250424	keystroke_i	i	n/a
125.317	0.165	250634	keystroke_n	n	n/a
125.512	0.09	251024	keystroke_f	f	n/a
125.632	0.105	251264	keystroke_o	o	n/a
125.737	0.06	251474	keystroke_r	r	n/a
126.022	0.09	252044	keystroke_m	m	n/a
126.1265	0.1055	252253	keystroke_a	a	n/a
126.2765	0.09	252553	keystroke_t	t	n/a
126.3815	0.166	252763	keystroke_i	i	n/a
126.4415	0.151	252883	keystroke_o	o	n/a
126.5175	0.105	253035	keystroke_n	n	n/a
126.6375	0.105	253275	keystroke_a	a	n/a
126.7425	0.15	253485	keystroke_l	l	n/a
126.8325	0.15	253665	keystroke_Key.space	Key.space	n/a
127.0425	0.165	254085	keystroke_n	n	n/a
127.1475	0.12	254295	keystroke_i	i	n/a
127.2225	0.18	254445	keystroke_c	c	n/a
127.3125	0.135	254625	keystroke_e	e	n/a
127.4925	0.105	254985	keystroke_Key.enter	Key.enter	n/a
127.6035	8.1105	255207	prompt	n/a	manual wheels coupon even\n
128.2575	0.075	256515	keystroke_n	n	n/a
128.572	0.045	257144	keystroke_Key.backspace	Key.backspace	n/a
128.797	0.09	257594	keystroke_m	m	n/a
128.962	0.09	257924	keystroke_a	a	n/a
129.082	0.09	258164	keystroke_n	n	n/a
129.322	0.09	258644	keystroke_u	u	n/a
129.472	0.105	258944	keystroke_a	a	n/a
129.607	0.075	259214	keystroke_l	l	n/a
129.652	0.12	259304	keystroke_Key.space	Key.space	n/a
130.2975	0.06	260595	keystroke_w	w	n/a
130.4175	0.104	260835	keystroke_e	e	n/a
130.6865	0.091	261373	keystroke_h	h	n/a
131.0015	0.045	262003	keystroke_Key.backspace	Key.backspace	n/a
131.1215	0.045	262243	keystroke_Key.backspace	Key.backspace	n/a
131.3315	0.075	262663	keystroke_h	h	n/a
131.4515	0.06	262903	keystroke_e	e	n/a
131.6165	0.061	263233	keystroke_e	e	n/a
131.7515	0.106	263503	keystroke_l	l	n/a
131.8725	0.059	263745	keystroke_s	s	n/a
131.9915	0.09	263983	keystroke_Key.space	Key.space	n/a
132.3375	0.075	264675	keystroke_c	c	n/a
132.4565	0.1655	264913	keystroke_o	o	n/a
133.012	0.075	266024	keystroke_u	u	n/a
133.237	0.09	266474	keystroke_p	p	n/a
133.402	0.21	266804	keystroke_o	o	n/a
133.537	0.015	267074	keystroke_j	j	n/a
133.582	0.135	267164	keystroke_n	n	n/a
134.152	0.045	268304	keystroke_Key.backspace	Key.backspace	n/a
134.257	0.0455	268514	keystroke_Key.backspace	Key.backspace	n/a
134.5275	0.09	269055	keystroke_n	n	n/a
134.6925	0.12	269385	keystroke_Key.space	Key.space	n/a
134.7825	0.12	269565	keystroke_e	e	n/a
135.007	0.1055	270014	keystroke_v	v	n/a
135.157	0.0905	270314	keystroke_e	e	n/a
135.2775	0.105	270555	keystroke_n	n	n/a
135.6225	0.09	271245	keystroke_Key.enter	Key.enter	n/a
135.7175	6.5365	271435	prompt	n/a	requiring egyptian conventions clinic\n
136.4475	0.1795	272895	keystroke_r	r	n/a
136.567	0.09	273134	keystroke_e	e	n/a
136.807	0.045	273614	keystroke_q	q	n/a
136.987	0.135	273974	keystroke_u	u	n/a
137.092	0.15	274184	keystroke_i	i	n/a
137.257	0.12	274514	keystroke_r	r	n/a
137.362	0.165	274724	keystroke_i	i	n/a
137.452	0.12	274904	keystroke_n	n	n/a
137.587	0.09	275174	keystroke_g	g	n/a
137.707	0.135	275414	keystroke_Key.space	Key.space	n/a
138.052	0.09	276104	keystroke_e	e	n/a
138.277	0.075	276554	keystroke_g	g	n/a
138.457	0.15	276914	keystroke_y	y	n/a
138.562	0.15	277124	keystroke_p	p	n/a
138.817	0.105	277634	keystroke_t	t	n/a
138.937	0.12	277874	keystroke_i	i	n/a
139.087	0.105	278174	keystroke_a	a	n/a
139.222	0.18	278444	keystroke_n	n	n/a
139.342	0.135	278684	keystroke_Key.space	Key.space	n/a
139.702	0.03	279404	keystroke_c	c	n/a
139.807	0.21	279614	keystroke_o	o	n/a
139.942	0.1505	279884	keystroke_n	n	n/a
140.2115	0.106	280423	keystroke_v	v	n/a
140.3925	0.1045	280785	keystroke_e	e	n/a
140.542	0.09	281084	keystroke_n	n	n/a
140.662	0.09	281324	keystroke_t	t	n/a
140.767	0.18	281534	keystroke_i	i	n/a
140.842	0.165	281684	keystroke_o	o	n/a
140.917	0.12	281834	keystroke_n	n	n/a
141.022	0.09	282044	keystroke_s	s	n/a
141.157	0.105	282314	keystroke_Key.space	Key.space	n/a
141.262	0.09	282524	keystroke_c	c	n/a
141.367	0.105	282734	keystroke_l	l	n/a
141.457	0.15	282914	keystroke_i	i	n/a
141.742	0.15	283484	keystroke_n	n	n/a
141.847	0.105	283694	keystroke_i	i	n/a
141.937	0.12	283874	keystroke_c	c	n/a
142.132	0.12	284264	keystroke_Key.enter	Key.enter	n/a
142.2575	6.116	284515	prompt	n/a	farming their remove documentary\n
142.822	0.09	285644	keystroke_f	f	n/a
143.017	0.18	286034	keystroke_a	a	n/a
143.167	0.105	286334	keystroke_r	r	n/a
143.317	0.09	286634	keystroke_m	m	n/a
143.467	0.24	286934	keystroke_i	i	n/a
143.602	0.135	287204	keystroke_n	n	n/a
143.722	0.06	287444	keystroke_g	g	n/a
143.842	0.165	287684	keystroke_Key.space	Key.space	n/a
144.112	0.09	288224	keystroke_t	t	n/a
144.217	0.105	288434	keystroke_h	h	n/a
144.292	0.105	288584	keystroke_e	e	n/a
144.427	0.105	288854	keystroke_i	i	n/a
144.502	0.09	289004	keystroke_r	r	n/a
144.607	0.1045	289214	keystroke_Key.space	Key.space	n/a
144.7715	0.18	289543	keystroke_r	r	n/a
144.8915	0.12	289783	keystroke_e	e	n/a
145.0715	0.15	290143	keystroke_m	m	n/a
145.1615	0.165	290323	keystroke_o	o	n/a
145.2515	0.105	290503	keystroke_v	v	n/a
145.4015	0.12	290803	keystroke_e	e	n/a
145.5365	0.105	291073	keystroke_Key.space	Key.space	n/a
145.6565	0.15	291313	keystroke_d	d	n/a
145.8365	0.135	291673	keystroke_o	o	n/a
145.9865	0.09	291973	keystroke_c	c	n/a
146.1065	0.105	292213	keystroke_u	u	n/a
146.887	0.045	293774	keystroke_m	m	n/a
147.097	0.09	294194	keystroke_e	e	n/a
147.292	0.075	294584	keystroke_n	n	n/a
147.382	0.0745	294764	keystroke_t	t	n/a
147.5615	0.15	295123	keystroke_a	a	n/a
147.6665	0.105	295333	keystroke_r	r	n/a
147.8165	0.105	295633	keystroke_y	y	n/a
148.2815	0.09	296563	keystroke_Key.enter	Key.enter	n/a
148.3775	6.386	296755	prompt	n/a	violence lose marco look\n
149.062	0.09	298124	keystroke_v	v	n/a
149.167	0.165	298334	keystroke_i	i	n/a
149.242	0.15	298484	keystroke_o	o	n/a
149.437	0.06	298874	keystroke_e	e	n/a
149.497	0.105	298994	keystroke_l	l	n/a
149.902	0.015	299804	keystroke_Key.backspace	Key.backspace	n/a
149.977	0.06	299954	keystroke_Key.backspace	Key.backspace	n/a
150.502	0.105	301004	keystroke_l	l	n/a
150.622	0.105	301244	keystroke_e	e	n/a
150.772	0.105	301544	keystroke_n	n	n/a
150.907	0.15	301814	keystroke_c	c	n/a
150.982	0.15	301964	keystroke_e	e	n/a
151.102	0.1045	302204	keystroke_Key.space	Key.space	n/a
151.2825	0.089	302565	keystroke_l	l	n/a
151.4775	0.0895	302955	keystroke_o	o	n/a
151.717	0.21	303434	keystroke_e	e	n/a
152.197	0.06	304394	keystroke_Key.space	Key.space	n/a
152.437	0.0445	304874	keystroke_Key.backspace	Key.backspace	n/a
152.542	0.06	305084	keystroke_Key.backspace	Key.backspace	n/a
152.692	0.135	305384	keystroke_s	s	n/a
152.767	0.1355	305534	keystroke_e	e	n/a
152.8875	0.105	305775	keystroke_Key.space	Key.space	n/a
153.0675	0.12	306135	keystroke_m	m	n/a
153.1575	0.15	306315	keystroke_a	a	n/a
153.3075	0.089	306615	keystroke_r	r	n/a
153.5475	0.105	307095	keystroke_c	c	n/a
153.6675	0.135	307335	keystroke_o	o	n/a
153.7575	0.12	307515	keystroke_Key.space	Key.space	n/a
153.9075	0.105	307815	keystroke_l	l	n/a
154.147	0.045	308294	keystroke_o	o	n/a
154.2675	0.135	308535	keystroke_o	o	n/a
154.3725	0.104	308745	keystroke_k	k	n/a
154.6865	0.075	309373	keystroke_Key.enter	Key.enter	n/a
154.767	7.3465	309534	prompt	n/a	skill geek liabilities bases\n
155.4975	0.075	310995	keystroke_k	k	n/a
155.8115	0.06	311623	keystroke_Key.backspace	Key.backspace	n/a
155.9475	0.089	311895	keystroke_s	s	n/a
156.0675	0.089	312135	keystroke_k	k	n/a
156.3065	0.15	312613	keystroke_i	i	n/a
156.3675	0.1345	312735	keystroke_l	l	n/a
156.622	0.15	313244	keystroke_l	l	n/a
156.697	0.15	313394	keystroke_Key.space	Key.space	n/a
157.042	0.045	314084	keystroke_g	g	n/a
157.342	0.075	314684	keystroke_e	e	n/a
157.537	0.0745	315074	keystroke_e	e	n/a
157.6415	0.18	315283	keystroke_k	k	n/a
157.7465	0.135	315493	keystroke_Key.space	Key.space	n/a
158.0765	0.105	316153	keystroke_l	l	n/a
158.3015	0.09	316603	keystroke_i	i	n/a
158.482	0.09	316964	keystroke_a	a	n/a
159.352	0.0745	318704	keystroke_b	b	n/a
159.607	0.0595	319214	keystroke_i	i	n/a
159.7715	0.1355	319543	keystroke_l	l	n/a
159.9215	0.1055	319843	keystroke_i	i	n/a
160.4475	0.089	320895	keystroke_t	t	n/a
160.5815	0.105	321163	keystroke_i	i	n/a
160.6875	0.179	321375	keystroke_e	e	n/a
160.7765	0.135	321553	keystroke_s	s	n/a
160.8965	0.12	321793	keystroke_Key.space	Key.space	n/a
161.0615	0.12	322123	keystroke_b	b	n/a
161.167	0.1345	322334	keystroke_a	a	n/a
161.2565	0.105	322513	keystroke_s	s	n/a
161.617	0.0745	323234	keystroke_e	e	n/a
161.8265	0.0905	323653	keystroke_s	s	n/a
162.0215	0.0905	324043	keystroke_Key.enter	Key.enter	n/a
162.117	4.6915	324234	prompt	n/a	whilst cards stable purse\n
162.6965	0.105	325393	keystroke_w	w	n/a
163.0725	0.0895	326145	keystroke_h	h	n/a
163.222	0.1655	326444	keystroke_i	i	n/a
163.3575	0.149	326715	keystroke_l	l	n/a
163.5225	0.179	327045	keystroke_s	s	n/a
163.6715	0.135	327343	keystroke_t	t	n/a
163.8815	0.135	327763	keystroke_Key.space	Key.space	n/a
164.0015	0.09	328003	keystroke_c	c	n/a
164.1515	0.18	328303	keystroke_a	a	n/a
164.3165	0.105	328633	keystroke_r	r	n/a
164.557	0.15	329114	keystroke_d	d	n/a
164.647	0.105	329294	keystroke_s	s	n/a
164.782	0.12	329564	keystroke_Key.space	Key.space	n/a
164.857	0.12	329714	keystroke_s	s	n/a
165.097	0.0745	330194	keystroke_t	t	n/a
165.2765	0.106	330553	keystroke_a	a	n/a
165.4425	0.15	330885	keystroke_b	b	n/a
165.5315	0.121	331063	keystroke_l	l	n/a
165.6225	0.06	331245	keystroke_e	e	n/a
165.7415	0.135	331483	keystroke_Key.space	Key.space	n/a
165.8475	0.179	331695	keystroke_p	p	n/a
165.9675	0.119	331935	keystroke_u	u	n/a
166.0725	0.089	332145	keystroke_r	r	n/a
166.3275	0.164	332655	keystroke_s	s	n/a
166.4165	0.15	332833	keystroke_e	e	n/a
166.7015	0.105	333403	keystroke_Key.enter	Key.enter	n/a
166.8125	6.116	333625	prompt	n/a	commissions voices stupid switches\n
167.632	0.075	335264	keystroke_c	c	n/a
167.737	0.1795	335474	keystroke_o	o	n/a
167.857	0.1195	335714	keystroke_m	m	n/a
168.0965	0.075	336193	keystroke_m	m	n/a
168.3515	0.09	336703	keystroke_i	i	n/a
168.577	0.06	337154	keystroke_s	s	n/a
168.742	0.075	337484	keystroke_s	s	n/a
168.862	0.195	337724	keystroke_i	i	n/a
168.952	0.18	337904	keystroke_o	o	n/a
169.042	0.135	338084	keystroke_n	n	n/a
169.192	0.0895	338384	keystroke_s	s	n/a
169.3415	0.12	338683	keystroke_Key.space	Key.space	n/a
169.5215	0.045	339043	keystroke_b	b	n/a
169.9715	0.06	339943	keystroke_Key.backspace	Key.backspace	n/a
170.0625	0.104	340125	keystroke_v	v	n/a
170.2115	0.181	340423	keystroke_o	o	n/a
170.3315	0.135	340663	keystroke_i	i	n/a
170.4065	0.2105	340813	keystroke_c	c	n/a
170.5115	0.1805	341023	keystroke_e	e	n/a
170.5865	0.1505	341173	keystroke_s	s	n/a
170.722	0.12	341444	keystroke_Key.space	Key.space	n/a
170.857	0.135	341714	keystroke_s	s	n/a
170.992	0.09	341984	keystroke_t	t	n/a
171.097	0.1345	342194	keystroke_u	u	n/a
171.2325	0.164	342465	keystroke_p	p	n/a
171.3375	0.119	342675	keystroke_i	i	n/a
171.4115	0.105	342823	keystroke_d	d	n/a
171.5465	0.09	343093	keystroke_Key.space	Key.space	n/a
171.6515	0.09	343303	keystroke_s	s	n/a
171.8465	0.09	343693	keystroke_w	w	n/a
171.9815	0.105	343963	keystroke_i	i	n/a
172.0715	0.105	344143	keystroke_t	t	n/a
172.3415	0.075	344683	keystroke_c	c	n/a
172.4765	0.105	344953	keystroke_h	h	n/a
172.5515	0.18	345103	keystroke_e	e	n/a
172.6265	0.15	345253	keystroke_s	s	n/a
172.8065	0.12	345613	keystroke_Key.enter	Key.enter	n/a
172.932	6.1915	345864	prompt	n/a	manually setup cricket homes\n
173.4965	0.09	346993	keystroke_m	m	n/a
173.7065	0.075	347413	keystroke_a	a	n/a
173.8265	0.09	347653	keystroke_n	n	n/a
174.0665	0.105	348133	keystroke_u	u	n/a
174.2165	0.09	348433	keystroke_a	a	n/a
174.3515	0.045	348703	keystroke_l	l	n/a
174.4715	0.1355	348943	keystroke_l	l	n/a
174.577	0.1795	349154	keystroke_y	y	n/a
174.6965	0.135	349393	keystroke_Key.space	Key.space	n/a
174.9365	0.09	349873	keystroke_s	s	n/a
175.1765	0.15	350353	keystroke_e	e	n/a
175.2815	0.12	350563	keystroke_t	t	n/a
175.5065	0.18	351013	keystroke_u	u	n/a
175.6265	0.18	351253	keystroke_p	p	n/a
175.7765	0.165	351553	keystroke_Key.space	Key.space	n/a
175.9265	0.09	351853	keystroke_s	s	n/a
176.242	0.075	352484	keystroke_Key.backspace	Key.backspace	n/a
176.347	0.075	352694	keystroke_c	c	n/a
176.587	0.06	353174	keystroke_r	r	n/a
176.752	0.09	353504	keystroke_i	i	n/a
176.872	0.105	353744	keystroke_c	c	n/a
177.1425	0.12	354285	keystroke_e	e	n/a
177.697	0.045	355394	keystroke_Key.backspace	Key.backspace	n/a
177.922	0.09	355844	keystroke_k	k	n/a
178.042	0.135	356084	keystroke_e	e	n/a
178.117	0.15	356234	keystroke_t	t	n/a
178.252	0.105	356504	keystroke_Key.space	Key.space	n/a
178.477	0.105	356954	keystroke_h	h	n/a
178.597	0.21	357194	keystroke_o	o	n/a
178.747	0.105	357494	keystroke_m	m	n/a
178.822	0.135	357644	keystroke_e	e	n/a
178.882	0.135	357764	keystroke_s	s	n/a
179.032	0.09	358064	keystroke_Key.enter	Key.enter	n/a
179.127	6.0715	358254	prompt	n/a	aren't conviction slope corporations\n
179.662	0.12	359324	keystroke_a	a	n/a
179.827	0.1955	359654	keystroke_r	r	n/a
179.947	0.12	359894	keystroke_e	e	n/a
180.052	0.0895	360104	keystroke_n	n	n/a
180.3365	0.09	360673	keystroke_'	'	n/a
180.4565	0.105	360913	keystroke_t	t	n/a
180.6215	0.12	361243	keystroke_Key.space	Key.space	n/a
180.8015	0.105	361603	keystroke_c	c	n/a
180.9075	0.195	361815	keystroke_o	o	n/a
181.0275	0.15	362055	keystroke_n	n	n/a
181.1925	0.105	362385	keystroke_v	v	n/a
181.3425	0.134	362685	keystroke_i	i	n/a
181.732	0.105	363464	keystroke_c	c	n/a
182.032	0.075	364064	keystroke_t	t	n/a
182.122	0.21	364244	keystroke_i	i	n/a
182.242	0.18	364484	keystroke_o	o	n/a
182.302	0.135	364604	keystroke_n	n	n/a
182.392	0.1345	364784	keystroke_Key.space	Key.space	n/a
182.7515	0.075	365503	keystroke_s	s	n/a
182.8415	0.09	365683	keystroke_l	l	n/a
183.0515	0.15	366103	keystroke_o	o	n/a
183.1265	0.151	366253	keystroke_p	p	n/a
183.2315	0.075	366463	keystroke_e	e	n/a
183.3515	0.12	366703	keystroke_Key.space	Key.space	n/a
183.5165	0.1205	367033	keystroke_c	c	n/a
183.682	0.105	367364	keystroke_o	o	n/a
183.862	0.06	367724	keystroke_r	r	n/a
184.042	0.165	368084	keystroke_p	p	n/a
184.147	0.135	368294	keystroke_o	o	n/a
184.2365	0.1205	368473	keystroke_r	r	n/a
184.327	0.135	368654	keystroke_a	a	n/a
184.5065	0.09	369013	keystroke_t	t	n/a
184.6115	0.165	369223	keystroke_i	i	n/a
184.6565	0.195	369313	keystroke_o	o	n/a
184.7015	0.135	369403	keystroke_n	n	n/a
184.8815	0.075	369763	keystroke_s	s	n/a
185.0915	0.105	370183	keystroke_Key.enter	Key.enter	n/a
185.2025	14.126	370405	prompt	n/a	commodity upgrades speaking taxes\n
185.8715	0.09	371743	keystroke_c	c	n/a
186.0365	0.12	372073	keystroke_o	o	n/a
186.2915	0.06	372583	keystroke_m	m	n/a
186.4415	0.075	372883	keystroke_m	m	n/a
186.6675	0.0745	373335	keystroke_o	o	n/a
186.967	0.12	373934	keystroke_d	d	n/a
187.312	0.105	374624	keystroke_i	i	n/a
187.522	0.09	375044	keystroke_t	t	n/a
187.627	0.0895	375254	keystroke_i	i	n/a
187.7465	0.075	375493	keystroke_y	y	n/a
187.8665	0.12	375733	keystroke_Key.space	Key.space	n/a
188.0165	0.165	376033	keystroke_u	u	n/a
188.1365	0.135	376273	keystroke_p	p	n/a
188.6165	0.045	377233	keystroke_Key.backspace	Key.backspace	n/a
188.7365	0.06	377473	keystroke_Key.backspace	Key.backspace	n/a
188.8565	0.075	377713	keystroke_Key.backspace	Key.backspace	n/a
189.0965	0.06	378193	keystroke_Key.backspace	Key.backspace	n/a
189.3965	0.075	378793	keystroke_Key.backspace	Key.backspace	n/a
189.5915	0.075	379183	keystroke_Key.backspace	Key.backspace	n/a
189.7715	0.06	379543	keystroke_Key.backspace	Key.backspace	n/a
190.4925	0.06	380985	keystroke_u	u	n/a
190.9575	0.06	381915	keystroke_Key.backspace	Key.backspace	n/a
191.6175	0.089	383235	keystroke_i	i	n/a
191.7515	0.12	383503	keystroke_t	t	n/a
191.9615	0.09	383923	keystroke_y	y	n/a
192.0815	0.105	384163	keystroke_Key.space	Key.space	n/a
192.3215	0.09	384643	keystroke_u	u	n/a
192.4715	0.12	384943	keystroke_p	p	n/a
192.772	0.09	385544	keystroke_d	d	n/a
193.012	0.075	386024	keystroke_r	r	n/a
193.207	0.105	386414	keystroke_a	a	n/a
193.477	0.06	386954	keystroke_g	g	n/a
193.822	0.075	387644	keystroke_Key.backspace	Key.backspace	n/a
194.677	0.06	389354	keystroke_Key.backspace	Key.backspace	n/a
194.812	0.06	389624	keystroke_Key.backspace	Key.backspace	n/a
194.947	0.06	389894	keystroke_Key.backspace	Key.backspace	n/a
195.262	0.06	390524	keystroke_g	g	n/a
196.027	0.0905	392054	keystroke_r	r	n/a
196.2515	0.105	392503	keystroke_a	a	n/a
196.4325	0.179	392865	keystroke_d	d	n/a
196.5815	0.166	393163	keystroke_e	e	n/a
196.6575	0.149	393315	keystroke_s	s	n/a
196.8365	0.135	393673	keystroke_Key.space	Key.space	n/a
196.9865	0.09	393973	keystroke_s	s	n/a
197.0915	0.091	394183	keystroke_p	p	n/a
197.2275	0.134	394455	keystroke_e	e	n/a
197.3025	0.134	394605	keystroke_a	a	n/a
197.4075	0.089	394815	keystroke_k	k	n/a
197.6175	0.135	395235	keystroke_i	i	n/a
197.6915	0.12	395383	keystroke_n	n	n/a
197.7975	0.074	395595	keystroke_g	g	n/a
197.9015	0.135	395803	keystroke_Key.space	Key.space	n/a
198.0215	0.091	396043	keystroke_t	t	n/a
198.2165	0.105	396433	keystroke_a	a	n/a
198.4715	0.105	396943	keystroke_x	x	n/a
198.772	0.15	397544	keystroke_e	e	n/a
198.937	0.105	397874	keystroke_s	s	n/a
199.2375	0.089	398475	keystroke_Key.enter	Key.enter	n/a
199.335	8.064	398670	prompt	n/a	blow later france uses\n
200.032	0.045	400064	keystroke_b	b	n/a
200.197	0.06	400394	keystroke_l	l	n/a
200.347	0.075	400694	keystroke_o	o	n/a
200.572	0.075	401144	keystroke_w	w	n/a
200.857	0.12	401714	keystroke_Key.space	Key.space	n/a
201.037	0.12	402074	keystroke_l	l	n/a
201.112	0.105	402224	keystroke_a	a	n/a
201.367	0.105	402734	keystroke_t	t	n/a
201.532	0.165	403064	keystroke_e	e	n/a
201.622	0.135	403244	keystroke_r	r	n/a
201.772	0.135	403544	keystroke_Key.space	Key.space	n/a
201.877	0.075	403754	keystroke_g	g	n/a
202.1315	0.105	404263	keystroke_r	r	n/a
202.5365	0.03	405073	keystroke_Key.backspace	Key.backspace	n/a
202.6565	0.06	405313	keystroke_Key.backspace	Key.backspace	n/a
202.7925	0.074	405585	keystroke_f	f	n/a
202.9715	0.075	405943	keystroke_r	r	n/a
203.1515	0.105	406303	keystroke_a	a	n/a
203.3025	0.1045	406605	keystroke_n	n	n/a
203.647	0.12	407294	keystroke_e	e	n/a
204.307	0.075	408614	keystroke_Key.backspace	Key.backspace	n/a
204.442	0.225	408884	keystroke_c	c	n/a
204.577	0.18	409154	keystroke_e	e	n/a
204.772	0.195	409544	keystroke_Key.space	Key.space	n/a
204.922	0.105	409844	keystroke_y	y	n/a
204.967	0.075	409934	keystroke_u	u	n/a
205.327	0.045	410654	keystroke_Key.backspace	Key.backspace	n/a
206.242	0.0755	412484	keystroke_Key.backspace	Key.backspace	n/a
206.4815	0.0905	412963	keystroke_u	u	n/a
206.647	0.12	413294	keystroke_s	s	n/a
206.872	0.075	413744	keystroke_e	e	n/a
207.082	0.09	414164	keystroke_s	s	n/a
207.382	0.015	414764	keystroke_Key.enter	Key.enter	n/a
207.402	7.9615	414804	prompt	n/a	standings confidentiality cube wifi\n
207.9965	0.09	415993	keystroke_s	s	n/a
208.2065	0.12	416413	keystroke_t	t	n/a
208.3865	0.1505	416773	keystroke_a	a	n/a
208.687	0.135	417374	keystroke_n	n	n/a
208.882	0.12	417764	keystroke_d	d	n/a
209.077	0.24	418154	keystroke_i	i	n/a
209.212	0.15	418424	keystroke_n	n	n/a
209.302	0.105	418604	keystroke_g	g	n/a
209.467	0.15	418934	keystroke_s	s	n/a
209.632	0.1495	419264	keystroke_Key.space	Key.space	n/a
210.0225	0.074	420045	keystroke_c	c	n/a
210.1265	0.2105	420253	keystroke_o	o	n/a
210.232	0.135	420464	keystroke_n	n	n/a
210.412	0.105	420824	keystroke_f	f	n/a
210.5915	0.105	421183	keystroke_i	i	n/a
210.8175	0.134	421635	keystroke_d	d	n/a
210.9065	0.15	421813	keystroke_e	e	n/a
211.1315	0.105	422263	keystroke_n	n	n/a
211.3865	0.09	422773	keystroke_t	t	n/a
211.6275	0.134	423255	keystroke_i	i	n/a
211.8525	0.12	423705	keystroke_a	a	n/a
212.7365	0.12	425473	keystroke_l	l	n/a
212.9765	0.12	425953	keystroke_i	i	n/a
213.1415	0.12	426283	keystroke_t	t	n/a
213.3365	0.075	426673	keystroke_y	y	n/a
213.4415	0.15	426883	keystroke_Key.space	Key.space	n/a
213.6215	0.105	427243	keystroke_c	c	n/a
213.7865	0.21	427573	keystroke_u	u	n/a
213.8915	0.15	427783	keystroke_b	b	n/a
214.1015	0.12	428203	keystroke_e	e	n/a
214.3115	0.09	428623	keystroke_Key.space	Key.space	n/a
214.5515	0.105	429103	keystroke_w	w	n/a
214.7465	0.09	429493	keystroke_i	i	n/a
214.8665	0.12	429733	keystroke_f	f	n/a
215.0015	0.075	430003	keystroke_i	i	n/a
215.2715	0.09	430543	keystroke_Key.enter	Key.enter	n/a
215.3675	5.261	430735	prompt	n/a	outstanding stake vote paid\n
215.767	0.09	431534	keystroke_s	s	n/a
216.052	0.06	432104	keystroke_Key.backspace	Key.backspace	n/a
216.292	0.18	432584	keystroke_o	o	n/a
216.382	0.15	432764	keystroke_u	u	n/a
216.472	0.1045	432944	keystroke_t	t	n/a
216.6665	0.1205	433333	keystroke_s	s	n/a
216.907	0.075	433814	keystroke_t	t	n/a
217.042	0.135	434084	keystroke_a	a	n/a
217.207	0.105	434414	keystroke_n	n	n/a
217.327	0.12	434654	keystroke_d	d	n/a
217.447	0.165	434894	keystroke_i	i	n/a
217.537	0.12	435074	keystroke_n	n	n/a
217.672	0.09	435344	keystroke_g	g	n/a
217.777	0.12	435554	keystroke_Key.space	Key.space	n/a
217.972	0.105	435944	keystroke_s	s	n/a
218.1975	0.0895	436395	keystroke_t	t	n/a
218.377	0.105	436754	keystroke_a	a	n/a
218.497	0.105	436994	keystroke_k	k	n/a
218.617	0.12	437234	keystroke_e	e	n/a
218.722	0.09	437444	keystroke_Key.space	Key.space	n/a
218.917	0.09	437834	keystroke_v	v	n/a
219.292	0.135	438584	keystroke_o	o	n/a
219.487	0.165	438974	keystroke_t	t	n/a
219.637	0.105	439274	keystroke_e	e	n/a
219.787	0.195	439574	keystroke_Key.space	Key.space	n/a
219.937	0.12	439874	keystroke_p	p	n/a
220.072	0.12	440144	keystroke_a	a	n/a
220.207	0.12	440414	keystroke_i	i	n/a
220.342	0.09	440684	keystroke_d	d	n/a
220.507	0.12	441014	keystroke_Key.enter	Key.enter	n/a
220.632	6.8665	441264	prompt	n/a	an ability restoration suburban\n
221.257	0.09	442514	keystroke_a	a	n/a
221.392	0.18	442784	keystroke_n	n	n/a
221.527	0.135	443054	keystroke_Key.space	Key.space	n/a
221.707	0.09	443414	keystroke_a	a	n/a
221.872	0.075	443744	keystroke_b	b	n/a
222.232	0.12	444464	keystroke_i	i	n/a
222.457	0.165	444914	keystroke_l	l	n/a
222.562	0.165	445124	keystroke_i	i	n/a
222.667	0.075	445334	keystroke_t	t	n/a
222.847	0.075	445694	keystroke_y	y	n/a
222.967	0.15	445934	keystroke_Key.space	Key.space	n/a
223.117	0.165	446234	keystroke_r	r	n/a
223.207	0.135	446414	keystroke_e	e	n/a
223.492	0.135	446984	keystroke_s	s	n/a
223.927	0.105	447854	keystroke_t	t	n/a
224.167	0.12	448334	keystroke_o	o	n/a
224.302	0.12	448604	keystroke_r	r	n/a
224.6765	0.105	449353	keystroke_a	a	n/a
224.9315	0.09	449863	keystroke_t	t	n/a
225.0515	0.2405	450103	keystroke_i	i	n/a
225.1115	0.2105	450223	keystroke_o	o	n/a
225.202	0.15	450404	keystroke_n	n	n/a
225.337	0.18	450674	keystroke_Key.space	Key.space	n/a
225.532	0.09	451064	keystroke_s	s	n/a
225.637	0.105	451274	keystroke_u	u	n/a
225.922	0.105	451844	keystroke_b	b	n/a
226.342	0.105	452684	keystroke_u	u	n/a
226.612	0.105	453224	keystroke_r	r	n/a
226.8215	0.105	453643	keystroke_b	b	n/a
226.9565	0.09	453913	keystroke_a	a	n/a
227.092	0.105	454184	keystroke_n	n	n/a
227.3915	0.105	454783	keystroke_Key.enter	Key.enter	n/a
227.5025	9.356	455005	prompt	n/a	watt reputation determination budget\n
228.3515	0.09	456703	keystroke_w	w	n/a
228.532	0.1045	457064	keystroke_a	a	n/a
228.7865	0.09	457573	keystroke_t	t	n/a
228.937	0.06	457874	keystroke_t	t	n/a
229.087	0.135	458174	keystroke_Key.space	Key.space	n/a
229.252	0.195	458504	keystroke_r	r	n/a
229.357	0.15	458714	keystroke_e	e	n/a
229.792	0.09	459584	keystroke_p	p	n/a
230.122	0.09	460244	keystroke_u	u	n/a
230.137	0.06	460274	keystroke_y	y	n/a
230.272	0.105	460544	keystroke_t	t	n/a
230.6165	0.045	461233	keystroke_Key.backspace	Key.backspace	n/a
230.7375	0.075	461475	keystroke_Key.backspace	Key.backspace	n/a
231.1275	0.135	462255	keystroke_t	t	n/a
231.3525	0.134	462705	keystroke_a	a	n/a
231.5915	0.121	463183	keystroke_t	t	n/a
231.6975	0.2845	463395	keystroke_i	i	n/a
231.7565	0.21	463513	keystroke_o	o	n/a
231.8615	0.1655	463723	keystroke_n	n	n/a
231.9515	0.1655	463903	keystroke_Key.space	Key.space	n/a
232.132	0.12	464264	keystroke_d	d	n/a
232.237	0.135	464474	keystroke_e	e	n/a
232.492	0.105	464984	keystroke_t	t	n/a
232.672	0.135	465344	keystroke_e	e	n/a
232.762	0.12	465524	keystroke_r	r	n/a
232.987	0.09	465974	keystroke_m	m	n/a
233.182	0.09	466364	keystroke_i	i	n/a
233.6025	0.09	467205	keystroke_n	n	n/a
233.827	0.1055	467654	keystroke_a	a	n/a
234.067	0.09	468134	keystroke_t	t	n/a
234.172	0.27	468344	keystroke_i	i	n/a
234.307	0.165	468614	keystroke_o	o	n/a
234.322	0.165	468644	keystroke_n	n	n/a
234.427	0.1495	468854	keystroke_Key.space	Key.space	n/a
234.9065	0.045	469813	keystroke_u	u	n/a
235.387	0.06	470774	keystroke_Key.backspace	Key.backspace	n/a
235.642	0.06	471284	keystroke_b	b	n/a
235.822	0.105	471644	keystroke_u	u	n/a
235.912	0.12	471824	keystroke_d	d	n/a
236.152	0.09	472304	keystroke_g	g	n/a
236.377	0.1795	472754	keystroke_e	e	n/a
236.4965	0.135	472993	keystroke_t	t	n/a
236.7215	0.135	473443	keystroke_Key.enter	Key.enter	n/a
236.862	4.7965	473724	prompt	n/a	draw stable jumping accepting\n
237.457	0.105	474914	keystroke_d	d	n/a
237.667	0.105	475334	keystroke_r	r	n/a
237.787	0.165	475574	keystroke_a	a	n/a
237.892	0.105	475784	keystroke_w	w	n/a
238.057	0.105	476114	keystroke_Key.space	Key.space	n/a
238.147	0.105	476294	keystroke_s	s	n/a
238.357	0.075	476714	keystroke_t	t	n/a
238.597	0.0145	477194	keystroke_a	a	n/a
238.6565	0.1355	477313	keystroke_b	b	n/a
238.807	0.105	477614	keystroke_l	l	n/a
238.867	0.06	477734	keystroke_e	e	n/a
238.987	0.12	477974	keystroke_Key.space	Key.space	n/a
239.167	0.09	478334	keystroke_j	j	n/a
239.347	0.075	478694	keystroke_u	u	n/a
239.557	0.135	479114	keystroke_m	m	n/a
239.647	0.12	479294	keystroke_p	p	n/a
239.872	0.18	479744	keystroke_i	i	n/a
239.977	0.105	479954	keystroke_n	n	n/a
240.037	0.075	480074	keystroke_g	g	n/a
240.1715	0.12	480343	keystroke_Key.space	Key.space	n/a
240.2615	0.12	480523	keystroke_a	a	n/a
240.4265	0.12	480853	keystroke_c	c	n/a
240.6365	0.165	481273	keystroke_c	c	n/a
240.7725	0.119	481545	keystroke_e	e	n/a
240.9365	0.105	481873	keystroke_p	p	n/a
241.087	0.075	482174	keystroke_t	t	n/a
241.162	0.1945	482324	keystroke_i	i	n/a
241.267	0.1345	482534	keystroke_n	n	n/a
241.3865	0.075	482773	keystroke_g	g	n/a
241.567	0.09	483134	keystroke_Key.enter	Key.enter	n/a
241.6745	5.789	483349	prompt	n/a	cams longest inter warned\n
242.302	0.135	484604	keystroke_c	c	n/a
242.422	0.135	484844	keystroke_a	a	n/a
242.572	0.105	485144	keystroke_m	m	n/a
242.707	0.105	485414	keystroke_s	s	n/a
242.797	0.18	485594	keystroke_Key.space	Key.space	n/a
242.962	0.03	485924	keystroke_o	o	n/a
242.963	0.044	485926	keystroke_l	l	n/a
243.112	0.06	486224	keystroke_o	o	n/a
243.652	0.03	487304	keystroke_Key.backspace	Key.backspace	n/a
243.757	0.075	487514	keystroke_Key.backspace	Key.backspace	n/a
244.027	0.06	488054	keystroke_Key.backspace	Key.backspace	n/a
244.267	0.075	488534	keystroke_l	l	n/a
244.447	0.1355	488894	keystroke_o	o	n/a
244.5215	0.12	489043	keystroke_n	n	n/a
244.6115	0.15	489223	keystroke_g	g	n/a
244.7165	0.225	489433	keystroke_e	e	n/a
244.8525	0.179	489705	keystroke_s	s	n/a
245.0025	0.119	490005	keystroke_t	t	n/a
245.1815	0.135	490363	keystroke_Key.space	Key.space	n/a
245.4365	0.15	490873	keystroke_i	i	n/a
245.5265	0.15	491053	keystroke_n	n	n/a
245.6615	0.105	491323	keystroke_t	t	n/a
245.7965	0.195	491593	keystroke_e	e	n/a
245.9315	0.135	491863	keystroke_r	r	n/a
246.0965	0.18	492193	keystroke_Key.space	Key.space	n/a
246.3515	0.105	492703	keystroke_w	w	n/a
246.5465	0.135	493093	keystroke_a	a	n/a
246.7115	0.12	493423	keystroke_r	r	n/a
246.8765	0.1355	493753	keystroke_n	n	n/a
246.967	0.195	493934	keystroke_e	e	n/a
247.117	0.12	494234	keystroke_d	d	n/a
247.342	0.12	494684	keystroke_Key.enter	Key.enter	n/a
247.467	6.4015	494934	prompt	n/a	downtown sufficiently idaho lawyer\n
248.122	0.12	496244	keystroke_d	d	n/a
248.347	0.12	496694	keystroke_o	o	n/a
248.452	0.0895	496904	keystroke_w	w	n/a
248.6015	0.12	497203	keystroke_n	n	n/a
248.7515	0.105	497503	keystroke_t	t	n/a
248.8865	0.105	497773	keystroke_o	o	n/a
248.9765	0.09	497953	keystroke_w	w	n/a
249.0965	0.12	498193	keystroke_n	n	n/a
249.1865	0.15	498373	keystroke_Key.space	Key.space	n/a
249.4265	0.09	498853	keystroke_s	s	n/a
249.5765	0.075	499153	keystroke_u	u	n/a
249.8015	0.045	499603	keystroke_f	f	n/a
249.9365	0.06	499873	keystroke_f	f	n/a
250.0415	0.075	500083	keystroke_i	i	n/a
250.1915	0.105	500383	keystroke_c	c	n/a
250.3565	0.12	500713	keystroke_i	i	n/a
250.4915	0.045	500983	keystroke_e	e	n/a
250.7315	0.015	501463	keystroke_n	n	n/a
251.0015	0.1355	502003	keystroke_t	t	n/a
251.182	0.105	502364	keystroke_l	l	n/a
251.272	0.06	502544	keystroke_y	y	n/a
251.377	0.12	502754	keystroke_Key.space	Key.space	n/a
251.602	0.09	503204	keystroke_i	i	n/a
251.902	0.09	503804	keystroke_d	d	n/a
252.172	0.09	504344	keystroke_a	a	n/a
252.337	0.18	504674	keystroke_h	h	n/a
252.472	0.15	504944	keystroke_o	o	n/a
252.577	0.1495	505154	keystroke_Key.space	Key.space	n/a
252.7425	0.09	505485	keystroke_l	l	n/a
252.8025	0.12	505605	keystroke_a	a	n/a
253.0865	0.09	506173	keystroke_w	w	n/a
253.3425	0.09	506685	keystroke_y	y	n/a
253.4925	0.119	506985	keystroke_e	e	n/a
253.5675	0.12	507135	keystroke_r	r	n/a
253.7315	0.135	507463	keystroke_Key.enter	Key.enter	n/a
253.872	4.9765	507744	prompt	n/a	flux hosted most alloy\n
254.4975	0.074	508995	keystroke_f	f	n/a
254.6015	0.196	509203	keystroke_l	l	n/a
254.7225	0.165	509445	keystroke_u	u	n/a
254.8725	0.105	509745	keystroke_x	x	n/a
255.0065	0.105	510013	keystroke_Key.space	Key.space	n/a
255.172	0.15	510344	keystroke_h	h	n/a
255.292	0.12	510584	keystroke_o	o	n/a
255.352	0.105	510704	keystroke_s	s	n/a
255.607	0.09	511214	keystroke_t	t	n/a
255.877	0.12	511754	keystroke_e	e	n/a
256.147	0.105	512294	keystroke_d	d	n/a
256.3565	0.09	512713	keystroke_Key.space	Key.space	n/a
257.0465	0.09	514093	keystroke_m	m	n/a
257.2115	0.15	514423	keystroke_o	o	n/a
257.3015	0.18	514603	keystroke_s	s	n/a
257.4215	0.135	514843	keystroke_t	t	n/a
257.5715	0.135	515143	keystroke_Key.space	Key.space	n/a
257.8565	0.09	515713	keystroke_a	a	n/a
257.9615	0.075	515923	keystroke_l	l	n/a
258.0965	0.09	516193	keystroke_l	l	n/a
258.2765	0.075	516553	keystroke_o	o	n/a
258.4715	0.075	516943	keystroke_y	y	n/a
258.7715	0.075	517543	keystroke_Key.enter	Key.enter	n/a
258.8515	13.527	517703	prompt	n/a	representative incidents beneath wireless\n
259.5665	0.165	519133	keystroke_r	r	n/a
259.6565	0.15	519313	keystroke_e	e	n/a
259.8515	0.09	519703	keystroke_p	p	n/a
259.9265	0.15	519853	keystroke_r	r	n/a
260.0165	0.105	520033	keystroke_e	e	n/a
260.2715	0.075	520543	keystroke_s	s	n/a
260.5715	0.075	521143	keystroke_e	e	n/a
260.7215	0.105	521443	keystroke_n	n	n/a
260.9165	0.105	521833	keystroke_t	t	n/a
261.0815	0.075	522163	keystroke_i	i	n/a
261.2315	0.09	522463	keystroke_t	t	n/a
261.352	0.1045	522704	keystroke_i	i	n/a
261.502	0.18	523004	keystroke_v	v	n/a
261.6365	0.1205	523273	keystroke_e	e	n/a
261.7265	0.1355	523453	keystroke_Key.space	Key.space	n/a
261.877	0.21	523754	keystroke_i	i	n/a
261.982	0.195	523964	keystroke_n	n	n/a
262.911	0.06	525822	keystroke_Key.backspace	Key.backspace	n/a
263.046	0.075	526092	keystroke_Key.backspace	Key.backspace	n/a
263.1815	0.06	526363	keystroke_Key.backspace	Key.backspace	n/a
263.3315	0.045	526663	keystroke_Key.backspace	Key.backspace	n/a
263.4515	0.0595	526903	keystroke_Key.backspace	Key.backspace	n/a
263.5715	0.0595	527143	keystroke_Key.backspace	Key.backspace	n/a
263.691	0.075	527382	keystroke_Key.backspace	Key.backspace	n/a
263.826	0.075	527652	keystroke_Key.backspace	Key.backspace	n/a
264.2915	0.06	528583	keystroke_Key.backspace	Key.backspace	n/a
264.7115	0.015	529423	keystroke_Key.backspace	Key.backspace	n/a
266.362	0.12	532724	keystroke_n	n	n/a
266.6015	0.105	533203	keystroke_t	t	n/a
266.8115	0.135	533623	keystroke_a	a	n/a
267.0215	0.105	534043	keystroke_t	t	n/a
267.1865	0.12	534373	keystroke_i	i	n/a
267.3215	0.15	534643	keystroke_v	v	n/a
267.4865	0.12	534973	keystroke_e	e	n/a
267.5765	0.15	535153	keystroke_Key.space	Key.space	n/a
267.7115	0.15	535423	keystroke_i	i	n/a
267.8015	0.165	535603	keystroke_n	n	n/a
267.9365	0.105	535873	keystroke_c	c	n/a
268.447	0.105	536894	keystroke_i	i	n/a
268.672	0.06	537344	keystroke_c	c	n/a
269.0015	0.075	538003	keystroke_Key.backspace	Key.backspace	n/a
269.0915	0.15	538183	keystroke_d	d	n/a
269.1815	0.135	538363	keystroke_e	e	n/a
269.3615	0.136	538723	keystroke_n	n	n/a
269.4665	0.15	538933	keystroke_t	t	n/a
269.5415	0.135	539083	keystroke_s	s	n/a
269.6615	0.15	539323	keystroke_Key.space	Key.space	n/a
270.0965	0.0755	540193	keystroke_b	b	n/a
270.262	0.105	540524	keystroke_e	e	n/a
270.532	0.09	541064	keystroke_n	n	n/a
270.607	0.165	541214	keystroke_e	e	n/a
270.697	0.15	541394	keystroke_a	a	n/a
270.937	0.09	541874	keystroke_t	t	n/a
271.012	0.165	542024	keystroke_h	h	n/a
271.117	0.12	542234	keystroke_Key.space	Key.space	n/a
271.237	0.09	542474	keystroke_w	w	n/a
271.357	0.105	542714	keystroke_i	i	n/a
271.462	0.15	542924	keystroke_r	r	n/a
271.552	0.09	543104	keystroke_e	e	n/a
271.687	0.15	543374	keystroke_l	l	n/a
271.777	0.165	543554	keystroke_e	e	n/a
271.867	0.135	543734	keystroke_s	s	n/a
272.107	0.09	544214	keystroke_s	s	n/a
272.272	0.105	544544	keystroke_Key.enter	Key.enter	n/a
272.3835	6.1605	544767	prompt	n/a	colleague tables proper western\n
272.917	0.105	545834	keystroke_c	c	n/a
273.052	0.09	546104	keystroke_o	o	n/a
273.412	0.075	546824	keystroke_l	l	n/a
273.562	0.09	547124	keystroke_l	l	n/a
273.667	0.105	547334	keystroke_e	e	n/a
273.712	0.12	547424	keystroke_a	a	n/a
273.952	0.105	547904	keystroke_g	g	n/a
274.072	0.075	548144	keystroke_u	u	n/a
274.162	0.0745	548324	keystroke_e	e	n/a
274.2515	0.1205	548503	keystroke_Key.space	Key.space	n/a
274.3565	0.105	548713	keystroke_t	t	n/a
274.5215	0.075	549043	keystroke_a	a	n/a
274.6565	0.105	549313	keystroke_b	b	n/a
274.9415	0.12	549883	keystroke_l	l	n/a
275.0465	0.18	550093	keystroke_e	e	n/a
275.1215	0.135	550243	keystroke_s	s	n/a
275.2715	0.105	550543	keystroke_Key.space	Key.space	n/a
275.4815	0.091	550963	keystroke_p	p	n/a
275.5565	0.0905	551113	keystroke_r	r	n/a
276.037	0.0755	552074	keystroke_o	o	n/a
276.307	0.105	552614	keystroke_p	p	n/a
276.427	0.1495	552854	keystroke_e	e	n/a
276.502	0.1505	553004	keystroke_r	r	n/a
276.6815	0.12	553363	keystroke_Key.space	Key.space	n/a
276.8025	0.089	553605	keystroke_w	w	n/a
277.372	0.09	554744	keystroke_e	e	n/a
277.567	0.09	555134	keystroke_s	s	n/a
277.792	0.09	555584	keystroke_t	t	n/a
277.957	0.135	555914	keystroke_e	e	n/a
278.032	0.12	556064	keystroke_r	r	n/a
278.182	0.09	556364	keystroke_n	n	n/a
278.4365	0.1055	556873	keystroke_Key.enter	Key.enter	n/a
278.549	17.5595	557098	prompt	n/a	rear accommodations millennium sponsored\n
279.247	0.105	558494	keystroke_r	r	n/a
279.397	0.09	558794	keystroke_e	e	n/a
279.577	0.12	559154	keystroke_a	a	n/a
279.847	0.09	559694	keystroke_r	r	n/a
280.117	0.1345	560234	keystroke_Key.space	Key.space	n/a
280.4315	0.105	560863	keystroke_a	a	n/a
280.7615	0.09	561523	keystroke_c	c	n/a
280.9565	0.075	561913	keystroke_c	c	n/a
281.1965	0.09	562393	keystroke_o	o	n/a
281.542	0.075	563084	keystroke_m	m	n/a
281.752	0.09	563504	keystroke_o	o	n/a
281.827	0.12	563654	keystroke_d	d	n/a
281.917	0.135	563834	keystroke_a	a	n/a
282.172	0.075	564344	keystroke_t	t	n/a
282.5615	0.2855	565123	keystroke_i	i	n/a
282.667	0.27	565334	keystroke_o	o	n/a
282.802	0.135	565604	keystroke_n	n	n/a
282.997	0.06	565994	keystroke_s	s	n/a
283.1025	0.105	566205	keystroke_Key.space	Key.space	n/a
283.357	0.075	566714	keystroke_m	m	n/a
283.927	0.06	567854	keystroke_Key.backspace	Key.backspace	n/a
284.077	0.045	568154	keystroke_Key.backspace	Key.backspace	n/a
284.182	0.06	568364	keystroke_Key.backspace	Key.backspace	n/a
284.317	0.075	568634	keystroke_Key.backspace	Key.backspace	n/a
284.467	0.06	568934	keystroke_Key.backspace	Key.backspace	n/a
284.617	0.075	569234	keystroke_Key.backspace	Key.backspace	n/a
284.767	0.075	569534	keystroke_Key.backspace	Key.backspace	n/a
284.932	0.105	569864	keystroke_Key.backspace	Key.backspace	n/a
285.502	0.0745	571004	keystroke_Key.backspace	Key.backspace	n/a
286.4175	0.1195	572835	keystroke_d	d	n/a
286.627	0.12	573254	keystroke_a	a	n/a
286.882	0.09	573764	keystroke_t	t	n/a
287.107	0.1645	574214	keystroke_i	i	n/a
287.2565	0.18	574513	keystroke_o	o	n/a
287.512	0.1195	575024	keystroke_n	n	n/a
287.692	0.0895	575384	keystroke_s	s	n/a
287.9315	0.12	575863	keystroke_Key.space	Key.space	n/a
290.514	0.028	581028	keystroke_m	m	n/a
290.782	0.09	581564	keystroke_i	i	n/a
291.022	0.06	582044	keystroke_l	l	n/a
291.142	0.09	582284	keystroke_l	l	n/a
291.3965	0.09	582793	keystroke_e	e	n/a
291.5015	0.121	583003	keystroke_n	n	n/a
291.9525	0.105	583905	keystroke_i	i	n/a
292.1925	0.075	584385	keystroke_u	u	n/a
292.477	0.0905	584954	keystroke_m	m	n/a
292.7465	0.09	585493	keystroke_Key.space	Key.space	n/a
292.897	0.135	585794	keystroke_s	s	n/a
293.032	0.09	586064	keystroke_p	p	n/a
293.992	0.12	587984	keystroke_o	o	n/a
294.397	0.09	588794	keystroke_n	n	n/a
294.637	0.105	589274	keystroke_s	s	n/a
294.787	0.105	589574	keystroke_o	o	n/a
294.937	0.18	589874	keystroke_r	r	n/a
295.057	0.195	590114	keystroke_e	e	n/a
295.432	0.135	590864	keystroke_d	d	n/a
296.017	0.09	592034	keystroke_Key.enter	Key.enter	n/a
296.112	8.577	592224	prompt	n/a	alike prints inappropriate salvador\n
297.007	0.12	594014	keystroke_a	a	n/a
297.142	0.075	594284	keystroke_l	l	n/a
297.322	0.0895	594644	keystroke_i	i	n/a
297.4725	0.089	594945	keystroke_k	k	n/a
297.5765	0.076	595153	keystroke_e	e	n/a
297.6665	0.12	595333	keystroke_Key.space	Key.space	n/a
297.8025	0.105	595605	keystroke_p	p	n/a
297.9365	0.075	595873	keystroke_r	r	n/a
298.0565	0.181	596113	keystroke_i	i	n/a
298.1465	0.15	596293	keystroke_n	n	n/a
298.2665	0.166	596533	keystroke_t	t	n/a
298.3875	0.1645	596775	keystroke_s	s	n/a
298.582	0.135	597164	keystroke_Key.space	Key.space	n/a
299.2725	0.135	598545	keystroke_i	i	n/a
299.6175	0.105	599235	keystroke_n	n	n/a
299.8875	0.135	599775	keystroke_a	a	n/a
300.2025	0.06	600405	keystroke_p	p	n/a
300.4275	0.075	600855	keystroke_p	p	n/a
300.757	0.12	601514	keystroke_r	r	n/a
301.072	0.09	602144	keystroke_o	o	n/a
301.297	0.105	602594	keystroke_p	p	n/a
301.417	0.1045	602834	keystroke_r	r	n/a
301.6575	0.105	603315	keystroke_i	i	n/a
301.8215	0.121	603643	keystroke_a	a	n/a
302.0475	0.164	604095	keystroke_t	t	n/a
302.1525	0.135	604305	keystroke_e	e	n/a
302.3165	0.135	604633	keystroke_Key.space	Key.space	n/a
302.647	0.105	605294	keystroke_s	s	n/a
302.962	0.0895	605924	keystroke_a	a	n/a
303.2325	0.12	606465	keystroke_l	l	n/a
303.4865	0.075	606973	keystroke_v	v	n/a
303.6665	0.12	607333	keystroke_a	a	n/a
304.057	0.105	608114	keystroke_d	d	n/a
304.2215	0.12	608443	keystroke_o	o	n/a
304.3565	0.09	608713	keystroke_r	r	n/a
304.5965	0.09	609193	keystroke_Key.enter	Key.enter	n/a
304.6985	6.695	609397	prompt	n/a	tags trinidad assembly dryer\n
305.4675	0.074	610935	keystroke_t	t	n/a
305.722	0.105	611444	keystroke_a	a	n/a
305.947	0.12	611894	keystroke_g	g	n/a
306.187	0.105	612374	keystroke_s	s	n/a
306.352	0.135	612704	keystroke_Key.space	Key.space	n/a
306.607	0.105	613214	keystroke_t	t	n/a
306.787	0.12	613574	keystroke_r	r	n/a
306.982	0.135	613964	keystroke_i	i	n/a
307.297	0.09	614594	keystroke_n	n	n/a
307.807	0.075	615614	keystroke_i	i	n/a
308.002	0.15	616004	keystroke_d	d	n/a
308.122	0.2245	616244	keystroke_a	a	n/a
308.2865	0.15	616573	keystroke_d	d	n/a
308.4815	0.1205	616963	keystroke_Key.space	Key.space	n/a
308.617	0.2105	617234	keystroke_a	a	n/a
308.722	0.1355	617444	keystroke_s	s	n/a
308.977	0.0905	617954	keystroke_s	s	n/a
309.202	0.09	618404	keystroke_e	e	n/a
309.3225	0.1345	618645	keystroke_m	m	n/a
309.577	0.0455	619154	keystroke_b	b	n/a
309.757	0.075	619514	keystroke_l	l	n/a
309.9525	0.1945	619905	keystroke_y	y	n/a
310.072	0.15	620144	keystroke_Key.space	Key.space	n/a
310.192	0.075	620384	keystroke_a	a	n/a
310.507	0.075	621014	keystroke_Key.backspace	Key.backspace	n/a
310.597	0.105	621194	keystroke_d	d	n/a
310.807	0.09	621614	keystroke_r	r	n/a
310.957	0.0895	621914	keystroke_y	y	n/a
311.0765	0.135	622153	keystroke_e	e	n/a
311.1515	0.121	622303	keystroke_r	r	n/a
311.3015	0.09	622603	keystroke_Key.enter	Key.enter	n/a
311.397	4.572	622794	prompt	n/a	estates grounds felt looks\n
311.9025	0.089	623805	keystroke_e	e	n/a
312.1115	0.106	624223	keystroke_s	s	n/a
312.3375	0.0895	624675	keystroke_t	t	n/a
312.502	0.165	625004	keystroke_a	a	n/a
312.652	0.21	625304	keystroke_t	t	n/a
312.787	0.15	625574	keystroke_e	e	n/a
312.877	0.12	625754	keystroke_s	s	n/a
313.282	0.165	626564	keystroke_Key.space	Key.space	n/a
313.417	0.12	626834	keystroke_g	g	n/a
313.552	0.135	627104	keystroke_r	r	n/a
313.702	0.135	627404	keystroke_o	o	n/a
313.762	0.12	627524	keystroke_u	u	n/a
314.002	0.09	628004	keystroke_n	n	n/a
314.107	0.12	628214	keystroke_d	d	n/a
314.212	0.135	628424	keystroke_Key.space	Key.space	n/a
314.362	0.18	628724	keystroke_f	f	n/a
314.467	0.15	628934	keystroke_e	e	n/a
314.632	0.105	629264	keystroke_l	l	n/a
314.782	0.135	629564	keystroke_t	t	n/a
314.947	0.09	629894	keystroke_Key.space	Key.space	n/a
315.0965	0.121	630193	keystroke_l	l	n/a
315.3825	0.045	630765	keystroke_o	o	n/a
315.4875	0.134	630975	keystroke_o	o	n/a
315.6065	0.12	631213	keystroke_k	k	n/a
315.7415	0.106	631483	keystroke_s	s	n/a
315.8775	0.09	631755	keystroke_Key.enter	Key.enter	n/a
315.972	5.3365	631944	prompt	n/a	root quad playback compete\n
316.522	0.12	633044	keystroke_r	r	n/a
316.657	0.045	633314	keystroke_o	o	n/a
316.777	0.12	633554	keystroke_o	o	n/a
316.867	0.105	633734	keystroke_t	t	n/a
316.957	0.135	633914	keystroke_Key.space	Key.space	n/a
317.182	0.09	634364	keystroke_q	q	n/a
317.377	0.12	634754	keystroke_u	u	n/a
317.512	0.15	635024	keystroke_a	a	n/a
317.677	0.12	635354	keystroke_d	d	n/a
317.827	0.105	635654	keystroke_Key.space	Key.space	n/a
318.097	0.075	636194	keystroke_p	p	n/a
318.292	0.0895	636584	keystroke_l	l	n/a
318.4565	0.12	636913	keystroke_a	a	n/a
318.6225	0.104	637245	keystroke_y	y	n/a
318.8915	0.09	637783	keystroke_b	b	n/a
318.9965	0.135	637993	keystroke_a	a	n/a
319.2365	0.015	638473	keystroke_c	c	n/a
319.3265	0.24	638653	keystroke_k	k	n/a
319.5065	0.165	639013	keystroke_Key.space	Key.space	n/a
319.7315	0.075	639463	keystroke_c	c	n/a
319.9715	0.195	639943	keystroke_o	o	n/a
320.1215	0.09	640243	keystroke_m	m	n/a
320.3465	0.15	640693	keystroke_p	p	n/a
320.4515	0.1655	640903	keystroke_l	l	n/a
320.602	0.195	641204	keystroke_e	e	n/a
320.767	0.12	641534	keystroke_t	t	n/a
320.947	0.12	641894	keystroke_e	e	n/a
321.217	0.09	642434	keystroke_Key.enter	Key.enter	n/a
321.3115	9.868	642623	prompt	n/a	indexes assessed undergraduate strike\n
321.967	0.18	643934	keystroke_i	i	n/a
322.0865	0.15	644173	keystroke_n	n	n/a
322.1615	0.15	644323	keystroke_d	d	n/a
322.2665	0.1205	644533	keystroke_e	e	n/a
322.9565	0.12	645913	keystroke_x	x	n/a
323.2565	0.0905	646513	keystroke_e	e	n/a
323.527	0.105	647054	keystroke_s	s	n/a
323.737	0.135	647474	keystroke_Key.space	Key.space	n/a
323.977	0.15	647954	keystroke_a	a	n/a
324.247	0.105	648494	keystroke_s	s	n/a
324.442	0.12	648884	keystroke_s	s	n/a
324.787	0.12	649574	keystroke_e	e	n/a
326.0165	0.06	652033	keystroke_s	s	n/a
326.1675	0.09	652335	keystroke_s	s	n/a
326.3465	0.06	652693	keystroke_e	e	n/a
326.4525	0.135	652905	keystroke_d	d	n/a
326.6315	0.135	653263	keystroke_Key.space	Key.space	n/a
327.502	0.075	655004	keystroke_u	u	n/a
327.712	0.12	655424	keystroke_n	n	n/a
327.817	0.12	655634	keystroke_d	d	n/a
327.952	0.15	655904	keystroke_e	e	n/a
328.057	0.105	656114	keystroke_r	r	n/a
328.282	0.075	656564	keystroke_g	g	n/a
328.477	0.105	656954	keystroke_r	r	n/a
328.9865	0.15	657973	keystroke_a	a	n/a
329.2265	0.12	658453	keystroke_d	d	n/a
329.4065	0.135	658813	keystroke_u	u	n/a
329.5265	0.105	659053	keystroke_a	a	n/a
329.7075	0.165	659415	keystroke_t	t	n/a
329.7975	0.105	659595	keystroke_e	e	n/a
329.8875	0.135	659775	keystroke_Key.space	Key.space	n/a
330.0075	0.1195	660015	keystroke_s	s	n/a
330.262	0.135	660524	keystroke_t	t	n/a
330.322	0.12	660644	keystroke_r	r	n/a
330.517	0.106	661034	keystroke_i	i	n/a
330.727	0.105	661454	keystroke_k	k	n/a
330.847	0.075	661694	keystroke_e	e	n/a
331.087	0.09	662174	keystroke_Key.enter	Key.enter	n/a
331.183	6.1455	662366	prompt	n/a	gage makers stable economy\n
331.732	0.075	663464	keystroke_g	g	n/a
331.912	0.105	663824	keystroke_a	a	n/a
332.107	0.21	664214	keystroke_g	g	n/a
332.257	0.12	664514	keystroke_e	e	n/a
332.437	0.12	664874	keystroke_Key.space	Key.space	n/a
332.6625	0.135	665325	keystroke_m	m	n/a
332.7825	0.1045	665565	keystroke_a	a	n/a
332.947	0.12	665894	keystroke_k	k	n/a
333.022	0.12	666044	keystroke_e	e	n/a
333.082	0.105	666164	keystroke_r	r	n/a
333.382	0.12	666764	keystroke_s	s	n/a
333.637	0.12	667274	keystroke_Key.space	Key.space	n/a
333.712	0.12	667424	keystroke_s	s	n/a
333.982	0.075	667964	keystroke_t	t	n/a
334.162	0.1205	668324	keystroke_a	a	n/a
334.2665	0.151	668533	keystroke_b	b	n/a
334.4025	0.119	668805	keystroke_l	l	n/a
334.4915	0.076	668983	keystroke_e	e	n/a
334.6565	0.135	669313	keystroke_Key.space	Key.space	n/a
334.7765	0.091	669553	keystroke_e	e	n/a
334.9715	0.106	669943	keystroke_c	c	n/a
335.1375	0.119	670275	keystroke_o	o	n/a
335.3625	0.089	670725	keystroke_n	n	n/a
335.5565	0.0905	671113	keystroke_o	o	n/a
335.662	0.045	671324	keystroke_o	o	n/a
335.722	0.075	671444	keystroke_m	m	n/a
336.2315	0.06	672463	keystroke_Key.backspace	Key.backspace	n/a
336.3515	0.06	672703	keystroke_Key.backspace	Key.backspace	n/a
336.6375	0.089	673275	keystroke_m	m	n/a
336.9365	0.075	673873	keystroke_y	y	n/a
337.2215	0.105	674443	keystroke_Key.enter	Key.enter	n/a
337.3325	6.1915	674665	prompt	n/a	rosa angle combining bless\n
337.9125	0.119	675825	keystroke_r	r	n/a
338.0615	0.105	676123	keystroke_o	o	n/a
338.1815	0.1805	676363	keystroke_s	s	n/a
338.2865	0.1205	676573	keystroke_a	a	n/a
338.347	0.12	676694	keystroke_Key.space	Key.space	n/a
338.4975	0.119	676995	keystroke_a	a	n/a
338.6015	0.105	677203	keystroke_n	n	n/a
338.7665	0.075	677533	keystroke_g	g	n/a
338.8565	0.09	677713	keystroke_l	l	n/a
338.9615	0.075	677923	keystroke_e	e	n/a
339.0515	0.09	678103	keystroke_Key.space	Key.space	n/a
339.1715	0.105	678343	keystroke_c	c	n/a
339.2615	0.1205	678523	keystroke_o	o	n/a
339.6525	0.105	679305	keystroke_m	m	n/a
339.9075	0.06	679815	keystroke_b	b	n/a
340.0875	0.09	680175	keystroke_i	i	n/a
340.2975	0.045	680595	keystroke_n	n	n/a
340.4625	0.1195	680925	keystroke_i	i	n/a
340.642	0.105	681284	keystroke_g	g	n/a
340.777	0.15	681554	keystroke_Key.space	Key.space	n/a
341.032	0.075	682064	keystroke_b	b	n/a
341.422	0.015	682844	keystroke_Key.backspace	Key.backspace	n/a
341.527	0.045	683054	keystroke_Key.backspace	Key.backspace	n/a
341.662	0.045	683324	keystroke_Key.backspace	Key.backspace	n/a
342.112	0.105	684224	keystroke_n	n	n/a
342.247	0.105	684494	keystroke_g	g	n/a
342.367	0.105	684734	keystroke_Key.space	Key.space	n/a
342.517	0.0895	685034	keystroke_b	b	n/a
342.7265	0.076	685453	keystroke_l	l	n/a
342.8465	0.12	685693	keystroke_e	e	n/a
343.1315	0.075	686263	keystroke_s	s	n/a
343.3115	0.075	686623	keystroke_s	s	n/a
343.4315	0.09	686863	keystroke_Key.enter	Key.enter	n/a
343.528	5.531	687056	prompt	n/a	words detection studied essential\n
344.0775	0.09	688155	keystroke_w	w	n/a
344.1975	0.105	688395	keystroke_o	o	n/a
344.2725	0.09	688545	keystroke_r	r	n/a
344.4675	0.15	688935	keystroke_d	d	n/a
344.5575	0.135	689115	keystroke_s	s	n/a
344.6925	0.1195	689385	keystroke_Key.space	Key.space	n/a
344.7675	0.1645	689535	keystroke_d	d	n/a
344.872	0.15	689744	keystroke_e	e	n/a
345.1125	0.165	690225	keystroke_t	t	n/a
345.2325	0.135	690465	keystroke_e	e	n/a
345.5025	0.105	691005	keystroke_c	c	n/a
345.8175	0.09	691635	keystroke_t	t	n/a
345.8775	0.24	691755	keystroke_i	i	n/a
346.0125	0.195	692025	keystroke_o	o	n/a
346.0425	0.18	692085	keystroke_n	n	n/a
346.1615	0.151	692323	keystroke_Key.space	Key.space	n/a
346.2825	0.12	692565	keystroke_s	s	n/a
346.5075	0.104	693015	keystroke_t	t	n/a
346.6425	0.09	693285	keystroke_u	u	n/a
346.7625	0.12	693525	keystroke_d	d	n/a
346.8965	0.121	693793	keystroke_i	i	n/a
346.9715	0.165	693943	keystroke_e	e	n/a
347.1075	0.09	694215	keystroke_d	d	n/a
347.2265	0.12	694453	keystroke_Key.space	Key.space	n/a
347.3915	0.09	694783	keystroke_e	e	n/a
347.6625	0.059	695325	keystroke_s	s	n/a
347.902	0.0155	695804	keystroke_s	s	n/a
348.022	0.075	696044	keystroke_e	e	n/a
348.157	0.1355	696314	keystroke_n	n	n/a
348.307	0.09	696614	keystroke_t	t	n/a
348.4125	0.105	696825	keystroke_i	i	n/a
348.547	0.09	697094	keystroke_a	a	n/a
348.682	0.12	697364	keystroke_l	l	n/a
348.967	0.09	697934	keystroke_Key.enter	Key.enter	n/a
349.062	7.092	698124	prompt	n/a	when's option necessary encouraged\n
349.597	0.075	699194	keystroke_w	w	n/a
349.762	0.09	699524	keystroke_h	h	n/a
349.8965	0.09	699793	keystroke_e	e	n/a
350.0015	0.105	700003	keystroke_n	n	n/a
350.2715	0.09	700543	keystroke_'	'	n/a
350.3765	0.12	700753	keystroke_s	s	n/a
350.4975	0.1795	700995	keystroke_Key.space	Key.space	n/a
350.617	0.165	701234	keystroke_o	o	n/a
350.707	0.12	701414	keystroke_p	p	n/a
350.812	0.105	701624	keystroke_t	t	n/a
350.932	0.27	701864	keystroke_i	i	n/a
351.037	0.18	702074	keystroke_o	o	n/a
351.112	0.165	702224	keystroke_n	n	n/a
351.247	0.135	702494	keystroke_Key.space	Key.space	n/a
351.427	0.1055	702854	keystroke_n	n	n/a
351.5175	0.105	703035	keystroke_e	e	n/a
352.0425	0.12	704085	keystroke_c	c	n/a
352.3425	0.105	704685	keystroke_e	e	n/a
352.642	0.06	705284	keystroke_s	s	n/a
352.792	0.09	705584	keystroke_s	s	n/a
352.957	0.15	705914	keystroke_a	a	n/a
353.122	0.105	706244	keystroke_r	r	n/a
353.242	0.165	706484	keystroke_y	y	n/a
353.332	0.12	706664	keystroke_Key.space	Key.space	n/a
353.467	0.105	706934	keystroke_e	e	n/a
353.602	0.12	707204	keystroke_n	n	n/a
353.932	0.12	707864	keystroke_c	c	n/a
354.172	0.1505	708344	keystroke_o	o	n/a
354.2475	0.135	708495	keystroke_u	u	n/a
354.3375	0.105	708675	keystroke_r	r	n/a
354.4575	0.2095	708915	keystroke_a	a	n/a
355.252	0.12	710504	keystroke_g	g	n/a
355.447	0.105	710894	keystroke_e	e	n/a
355.627	0.135	711254	keystroke_d	d	n/a
356.0325	0.12	712065	keystroke_Key.enter	Key.enter	n/a
356.16	7.465	712320	prompt	n/a	minnesota expanding footwear carrying\n
356.9025	0.075	713805	keystroke_m	m	n/a
357.0975	0.105	714195	keystroke_i	i	n/a
357.3675	0.09	714735	keystroke_n	n	n/a
357.5325	0.09	715065	keystroke_n	n	n/a
357.8475	0.105	715695	keystroke_e	e	n/a
358.2075	0.105	716415	keystroke_s	s	n/a
358.4775	0.1195	716955	keystroke_o	o	n/a
358.582	0.12	717164	keystroke_t	t	n/a
358.7625	0.135	717525	keystroke_a	a	n/a
358.8675	0.149	717735	keystroke_Key.space	Key.space	n/a
359.0025	0.105	718005	keystroke_e	e	n/a
359.2875	0.119	718575	keystroke_x	x	n/a
359.4975	0.135	718995	keystroke_p	p	n/a
359.6475	0.12	719295	keystroke_a	a	n/a
359.8725	0.105	719745	keystroke_n	n	n/a
360.0225	0.1195	720045	keystroke_d	d	n/a
360.157	0.21	720314	keystroke_i	i	n/a
360.232	0.136	720464	keystroke_n	n	n/a
360.352	0.09	720704	keystroke_g	g	n/a
360.472	0.15	720944	keystroke_Key.space	Key.space	n/a
360.652	0.09	721304	keystroke_f	f	n/a
360.862	0.045	721724	keystroke_o	o	n/a
360.997	0.075	721994	keystroke_o	o	n/a
361.117	0.09	722234	keystroke_t	t	n/a
361.372	0.1345	722744	keystroke_w	w	n/a
361.462	0.1355	722924	keystroke_e	e	n/a
361.6875	0.18	723375	keystroke_a	a	n/a
361.8525	0.105	723705	keystroke_r	r	n/a
362.0325	0.149	724065	keystroke_Key.space	Key.space	n/a
362.1665	0.121	724333	keystroke_c	c	n/a
362.3925	0.119	724785	keystroke_a	a	n/a
362.6025	0.059	725205	keystroke_r	r	n/a
362.7215	0.0905	725443	keystroke_r	r	n/a
362.857	0.09	725714	keystroke_y	y	n/a
363.052	0.195	726104	keystroke_i	i	n/a
363.187	0.105	726374	keystroke_n	n	n/a
363.307	0.12	726614	keystroke_g	g	n/a
363.532	0.09	727064	keystroke_Key.enter	Key.enter	n/a
363.6285	6.8655	727257	prompt	n/a	tones kathy listprice universities\n
364.432	0.105	728864	keystroke_t	t	n/a
364.552	0.195	729104	keystroke_o	o	n/a
364.642	0.12	729284	keystroke_n	n	n/a
364.717	0.195	729434	keystroke_e	e	n/a
364.792	0.15	729584	keystroke_s	s	n/a
364.927	0.165	729854	keystroke_Key.space	Key.space	n/a
365.077	0.105	730154	keystroke_k	k	n/a
365.167	0.105	730334	keystroke_a	a	n/a
365.362	0.105	730724	keystroke_t	t	n/a
365.482	0.105	730964	keystroke_h	h	n/a
365.707	0.18	731414	keystroke_y	y	n/a
365.797	0.135	731594	keystroke_Key.space	Key.space	n/a
366.232	0.195	732464	keystroke_l	l	n/a
366.367	0.15	732734	keystroke_i	i	n/a
366.502	0.21	733004	keystroke_s	s	n/a
366.637	0.15	733274	keystroke_t	t	n/a
366.892	0.12	733784	keystroke_p	p	n/a
366.997	0.045	733994	keystroke_r	r	n/a
367.102	0.12	734204	keystroke_i	i	n/a
367.237	0.195	734474	keystroke_c	c	n/a
367.357	0.15	734714	keystroke_e	e	n/a
367.582	0.1345	735164	keystroke_Key.space	Key.space	n/a
367.9425	0.09	735885	keystroke_u	u	n/a
368.1675	0.06	736335	keystroke_n	n	n/a
368.4975	0.105	736995	keystroke_i	i	n/a
368.6165	0.075	737233	keystroke_v	v	n/a
368.8115	0.166	737623	keystroke_e	e	n/a
368.9015	0.121	737803	keystroke_r	r	n/a
369.2325	0.105	738465	keystroke_s	s	n/a
369.5325	0.1045	739065	keystroke_i	i	n/a
369.742	0.09	739484	keystroke_t	t	n/a
369.847	0.12	739694	keystroke_i	i	n/a
369.922	0.195	739844	keystroke_e	e	n/a
370.012	0.135	740024	keystroke_s	s	n/a
370.372	0.1195	740744	keystroke_Key.enter	Key.enter	n/a
370.4975	6.9415	740995	prompt	n/a	boards reynolds british consortium\n
371.062	0.075	742124	keystroke_b	b	n/a
371.2415	0.15	742483	keystroke_o	o	n/a
371.3315	0.15	742663	keystroke_a	a	n/a
371.4515	0.12	742903	keystroke_r	r	n/a
371.6915	0.195	743383	keystroke_d	d	n/a
371.7965	0.166	743593	keystroke_s	s	n/a
371.9465	0.135	743893	keystroke_Key.space	Key.space	n/a
372.112	0.18	744224	keystroke_r	r	n/a
372.202	0.1495	744404	keystroke_e	e	n/a
372.592	0.09	745184	keystroke_y	y	n/a
372.907	0.075	745814	keystroke_n	n	n/a
373.102	0.075	746204	keystroke_o	o	n/a
373.252	0.105	746504	keystroke_l	l	n/a
373.342	0.165	746684	keystroke_d	d	n/a
373.387	0.165	746774	keystroke_s	s	n/a
373.492	0.12	746984	keystroke_Key.space	Key.space	n/a
373.672	0.105	747344	keystroke_b	b	n/a
373.807	0.092	747614	keystroke_r	r	n/a
374.032	0.075	748064	keystroke_i	i	n/a
374.123	0.1045	748246	keystroke_t	t	n/a
374.6625	0.0595	749325	keystroke_i	i	n/a
374.767	0.1055	749534	keystroke_s	s	n/a
374.8875	0.21	749775	keystroke_h	h	n/a
375.0065	0.121	750013	keystroke_Key.space	Key.space	n/a
375.1575	0.1505	750315	keystroke_c	c	n/a
375.293	0.1495	750586	keystroke_o	o	n/a
375.383	0.1495	750766	keystroke_n	n	n/a
375.5925	0.12	751185	keystroke_s	s	n/a
375.7275	0.1055	751455	keystroke_o	o	n/a
375.8775	0.135	751755	keystroke_r	r	n/a
376.103	0.1045	752206	keystroke_t	t	n/a
376.3115	0.106	752623	keystroke_i	i	n/a
376.582	0.106	753164	keystroke_u	u	n/a
376.958	0.0895	753916	keystroke_m	m	n/a
377.3625	0.075	754725	keystroke_Key.enter	Key.enter	n/a
377.4435	8.501	754887	prompt	n/a	rich founder homeland statement\n
378.2625	0.12	756525	keystroke_r	r	n/a
378.3675	0.0895	756735	keystroke_i	i	n/a
378.4875	0.105	756975	keystroke_g	g	n/a
378.5625	0.18	757125	keystroke_h	h	n/a
378.6675	0.165	757335	keystroke_Key.space	Key.space	n/a
378.9075	0.1205	757815	keystroke_f	f	n/a
379.252	0.0305	758504	keystroke_Key.backspace	Key.backspace	n/a
379.357	0.0605	758714	keystroke_Key.backspace	Key.backspace	n/a
379.4775	0.0595	758955	keystroke_Key.backspace	Key.backspace	n/a
379.5975	0.0445	759195	keystroke_Key.backspace	Key.backspace	n/a
379.882	0.1055	759764	keystroke_c	c	n/a
380.017	0.1055	760034	keystroke_h	h	n/a
380.092	0.15	760184	keystroke_Key.space	Key.space	n/a
380.3025	0.074	760605	keystroke_f	f	n/a
380.3925	0.1505	760785	keystroke_o	o	n/a
380.4675	0.12	760935	keystroke_u	u	n/a
380.8875	0.09	761775	keystroke_n	n	n/a
381.1125	0.135	762225	keystroke_d	d	n/a
381.337	0.135	762674	keystroke_e	e	n/a
381.412	0.12	762824	keystroke_r	r	n/a
381.5775	0.1195	763155	keystroke_Key.space	Key.space	n/a
381.7125	0.1345	763425	keystroke_h	h	n/a
381.818	0.2095	763636	keystroke_o	o	n/a
381.982	0.1055	763964	keystroke_m	m	n/a
382.072	0.0605	764144	keystroke_e	e	n/a
382.1775	0.09	764355	keystroke_l	l	n/a
382.2525	0.1205	764505	keystroke_a	a	n/a
382.387	0.076	764774	keystroke_b	b	n/a
382.402	0.076	764804	keystroke_n	n	n/a
382.492	0.106	764984	keystroke_d	d	n/a
382.612	0.1205	765224	keystroke_Key.space	Key.space	n/a
382.747	0.121	765494	keystroke_s	s	n/a
383.1975	0.0295	766395	keystroke_Key.backspace	Key.backspace	n/a
383.302	0.06	766604	keystroke_Key.backspace	Key.backspace	n/a
383.438	0.0445	766876	keystroke_Key.backspace	Key.backspace	n/a
383.5565	0.06	767113	keystroke_Key.backspace	Key.backspace	n/a
383.677	0.0595	767354	keystroke_Key.backspace	Key.backspace	n/a
384.0825	0.0895	768165	keystroke_n	n	n/a
384.188	0.119	768376	keystroke_d	d	n/a
384.292	0.0905	768584	keystroke_Key.space	Key.space	n/a
384.3525	0.1045	768705	keystroke_s	s	n/a
384.6675	0.015	769335	keystroke_t	t	n/a
384.6975	0.12	769395	keystroke_a	a	n/a
385.117	0.18	770234	keystroke_t	t	n/a
385.237	0.1205	770474	keystroke_e	e	n/a
385.372	0.105	770744	keystroke_m	m	n/a
385.463	0.074	770926	keystroke_e	e	n/a
385.5675	0.0905	771135	keystroke_n	n	n/a
385.6725	0.0905	771345	keystroke_t	t	n/a
385.852	0.09	771704	keystroke_Key.enter	Key.enter	n/a
385.9485	5.8905	771897	prompt	n/a	calculation likes among bloggers\n
386.4825	0.1345	772965	keystroke_c	c	n/a
386.692	0.1205	773384	keystroke_a	a	n/a
386.8565	0.12	773713	keystroke_l	l	n/a
386.993	0.1345	773986	keystroke_c	c	n/a
387.202	0.09	774404	keystroke_u	u	n/a
387.412	0.105	774824	keystroke_l	l	n/a
387.487	0.105	774974	keystroke_a	a	n/a
387.727	0.0905	775454	keystroke_t	t	n/a
387.787	0.2855	775574	keystroke_i	i	n/a
387.862	0.18	775724	keystroke_o	o	n/a
387.9675	0.15	775935	keystroke_n	n	n/a
388.0575	0.135	776115	keystroke_Key.space	Key.space	n/a
388.2675	0.12	776535	keystroke_l	l	n/a
388.4475	0.075	776895	keystroke_i	i	n/a
388.5965	0.091	777193	keystroke_k	k	n/a
388.673	0.1795	777346	keystroke_e	e	n/a
388.7625	0.12	777525	keystroke_s	s	n/a
388.853	0.1185	777706	keystroke_Key.space	Key.space	n/a
388.9575	0.0755	777915	keystroke_a	a	n/a
389.0625	0.15	778125	keystroke_m	m	n/a
389.1825	0.2405	778365	keystroke_o	o	n/a
389.3325	0.135	778665	keystroke_n	n	n/a
389.4975	0.135	778995	keystroke_g	g	n/a
389.6625	0.09	779325	keystroke_Key.space	Key.space	n/a
389.783	0.0895	779566	keystroke_b	b	n/a
389.948	0.0595	779896	keystroke_l	l	n/a
390.127	0.046	780254	keystroke_o	o	n/a
390.2475	0.105	780495	keystroke_o	o	n/a
390.5025	0.0305	781005	keystroke_g	g	n/a
390.6825	0.045	781365	keystroke_Key.backspace	Key.backspace	n/a
390.7875	0.075	781575	keystroke_Key.backspace	Key.backspace	n/a
390.9975	0.06	781995	keystroke_g	g	n/a
391.1475	0.045	782295	keystroke_g	g	n/a
391.2825	0.12	782565	keystroke_e	e	n/a
391.3575	0.105	782715	keystroke_r	r	n/a
391.5675	0.105	783135	keystroke_s	s	n/a
391.7475	0.09	783495	keystroke_Key.enter	Key.enter	n/a
391.8435	5.7105	783687	prompt	n/a	joke acquire arrested everyone\n
392.392	0.075	784784	keystroke_j	j	n/a
392.5875	0.18	785175	keystroke_o	o	n/a
392.7525	0.1045	785505	keystroke_k	k	n/a
392.8725	0.0895	785745	keystroke_e	e	n/a
392.977	0.105	785954	keystroke_Key.space	Key.space	n/a
393.097	0.1055	786194	keystroke_a	a	n/a
393.367	0.105	786734	keystroke_c	c	n/a
393.6825	0.0595	787365	keystroke_q	q	n/a
393.922	0.1805	787844	keystroke_u	u	n/a
394.027	0.166	788054	keystroke_i	i	n/a
394.1465	0.151	788293	keystroke_r	r	n/a
394.2215	0.1205	788443	keystroke_e	e	n/a
394.4025	0.12	788805	keystroke_Key.space	Key.space	n/a
394.5675	0.1045	789135	keystroke_a	a	n/a
394.807	0.076	789614	keystroke_r	r	n/a
394.9275	0.0895	789855	keystroke_r	r	n/a
395.0325	0.225	790065	keystroke_e	e	n/a
395.152	0.18	790304	keystroke_s	s	n/a
395.332	0.136	790664	keystroke_t	t	n/a
395.483	0.134	790966	keystroke_e	e	n/a
395.632	0.1205	791264	keystroke_d	d	n/a
395.797	0.105	791594	keystroke_Key.space	Key.space	n/a
395.873	0.119	791746	keystroke_e	e	n/a
396.127	0.015	792254	keystroke_v	v	n/a
396.6515	0.18	793303	keystroke_e	e	n/a
396.7575	0.1355	793515	keystroke_r	r	n/a
396.922	0.1205	793844	keystroke_y	y	n/a
397.057	0.2255	794114	keystroke_o	o	n/a
397.177	0.1205	794354	keystroke_n	n	n/a
397.3125	0.0455	794625	keystroke_e	e	n/a
397.4925	0.06	794985	keystroke_Key.enter	Key.enter	n/a
397.5585	4.391	795117	prompt	n/a	salon roommate medline labs\n
398.137	0.195	796274	keystroke_s	s	n/a
398.2575	0.135	796515	keystroke_a	a	n/a
398.362	0.0755	796724	keystroke_l	l	n/a
398.5125	0.225	797025	keystroke_o	o	n/a
398.6625	0.18	797325	keystroke_n	n	n/a
398.7665	0.136	797533	keystroke_Key.space	Key.space	n/a
398.9175	0.09	797835	keystroke_r	r	n/a
399.0525	0.06	798105	keystroke_o	o	n/a
399.1875	0.15	798375	keystroke_o	o	n/a
399.2915	0.135	798583	keystroke_m	m	n/a
399.3975	0.1345	798795	keystroke_a	a	n/a
399.5625	0.1495	799125	keystroke_t	t	n/a
399.667	0.106	799334	keystroke_e	e	n/a
399.787	0.1055	799574	keystroke_Key.space	Key.space	n/a
399.997	0.0755	799994	keystroke_m	m	n/a
400.057	0.12	800114	keystroke_e	e	n/a
400.583	0.134	801166	keystroke_d	d	n/a
400.762	0.18	801524	keystroke_l	l	n/a
400.8365	0.211	801673	keystroke_i	i	n/a
400.9575	0.135	801915	keystroke_n	n	n/a
401.0475	0.075	802095	keystroke_e	e	n/a
401.1815	0.121	802363	keystroke_Key.space	Key.space	n/a
401.2425	0.15	802485	keystroke_l	l	n/a
401.348	0.1195	802696	keystroke_a	a	n/a
401.5125	0.105	803025	keystroke_b	b	n/a
401.6775	0.09	803355	keystroke_s	s	n/a
401.8425	0.104	803685	keystroke_Key.enter	Key.enter	n/a
401.9535	4.586	803907	prompt	n/a	engines susan central sent\n
402.7125	0.12	805425	keystroke_e	e	n/a
402.8625	0.12	805725	keystroke_n	n	n/a
402.9975	0.0755	805995	keystroke_g	g	n/a
403.1025	0.21	806205	keystroke_i	i	n/a
403.1925	0.15	806385	keystroke_n	n	n/a
403.2975	0.195	806595	keystroke_e	e	n/a
403.3875	0.135	806775	keystroke_s	s	n/a
403.5075	0.1045	807015	keystroke_Key.space	Key.space	n/a
403.642	0.0755	807284	keystroke_s	s	n/a
403.762	0.1055	807524	keystroke_u	u	n/a
403.8825	0.0745	807765	keystroke_s	s	n/a
404.107	0.075	808214	keystroke_a	a	n/a
404.2725	0.1495	808545	keystroke_n	n	n/a
404.3615	0.1355	808723	keystroke_Key.space	Key.space	n/a
404.5725	0.12	809145	keystroke_c	c	n/a
404.752	0.12	809504	keystroke_e	e	n/a
405.2625	0.075	810525	keystroke_n	n	n/a
405.3225	0.09	810645	keystroke_t	t	n/a
405.5175	0.12	811035	keystroke_r	r	n/a
405.6075	0.135	811215	keystroke_a	a	n/a
405.683	0.1645	811366	keystroke_l	l	n/a
405.7725	0.135	811545	keystroke_Key.space	Key.space	n/a
405.8625	0.0905	811725	keystroke_s	s	n/a
406.0575	0.06	812115	keystroke_e	e	n/a
406.1775	0.09	812355	keystroke_n	n	n/a
406.2975	0.0745	812595	keystroke_t	t	n/a
406.447	0.0905	812894	keystroke_Key.enter	Key.enter	n/a
406.544	7.105	813088	prompt	n/a	intellectual mile stones hasn't\n
407.227	0.2105	814454	keystroke_i	i	n/a
407.4675	0.18	814935	keystroke_t	t	n/a
407.5725	0.135	815145	keystroke_e	e	n/a
407.7525	0.1655	815505	keystroke_l	l	n/a
408.2775	0.0445	816555	keystroke_Key.backspace	Key.backspace	n/a
408.4265	0.031	816853	keystroke_Key.backspace	Key.backspace	n/a
408.5325	0.045	817065	keystroke_Key.backspace	Key.backspace	n/a
408.8175	0.105	817635	keystroke_n	n	n/a
409.2225	0.1055	818445	keystroke_t	t	n/a
409.4175	0.105	818835	keystroke_e	e	n/a
409.6275	0.0755	819255	keystroke_l	l	n/a
409.7775	0.089	819555	keystroke_l	l	n/a
409.8525	0.09	819705	keystroke_e	e	n/a
410.063	0.134	820126	keystroke_c	c	n/a
410.347	0.0905	820694	keystroke_t	t	n/a
410.4525	0.06	820905	keystroke_u	u	n/a
410.557	0.105	821114	keystroke_a	a	n/a
410.6475	0.1795	821295	keystroke_l	l	n/a
410.767	0.135	821534	keystroke_Key.space	Key.space	n/a
411.0525	0.0745	822105	keystroke_m	m	n/a
411.2775	0.1345	822555	keystroke_i	i	n/a
411.3675	0.15	822735	keystroke_l	l	n/a
411.5325	0.12	823065	keystroke_e	e	n/a
411.667	0.09	823334	keystroke_Key.space	Key.space	n/a
411.8175	0.105	823635	keystroke_s	s	n/a
412.0425	0.09	824085	keystroke_t	t	n/a
412.1475	0.21	824295	keystroke_o	o	n/a
412.268	0.1335	824536	keystroke_n	n	n/a
412.3425	0.1945	824685	keystroke_e	e	n/a
412.432	0.1205	824864	keystroke_s	s	n/a
412.567	0.0905	825134	keystroke_Key.space	Key.space	n/a
412.688	0.104	825376	keystroke_h	h	n/a
412.762	0.135	825524	keystroke_a	a	n/a
412.8525	0.1055	825705	keystroke_s	s	n/a
412.973	0.0745	825946	keystroke_n	n	n/a
413.2275	0.075	826455	keystroke_'	'	n/a
413.2875	0.089	826575	keystroke_t	t	n/a
413.557	0.09	827114	keystroke_Key.enter	Key.enter	n/a
413.654	5.2155	827308	prompt	n/a	athens docs michigan humor\n
414.1575	0.1195	828315	keystroke_a	a	n/a
414.6675	0.105	829335	keystroke_t	t	n/a
414.8175	0.12	829635	keystroke_h	h	n/a
414.9525	0.075	829905	keystroke_e	e	n/a
415.0425	0.105	830085	keystroke_n	n	n/a
415.1625	0.12	830325	keystroke_s	s	n/a
415.3125	0.105	830625	keystroke_Key.space	Key.space	n/a
415.4325	0.135	830865	keystroke_d	d	n/a
415.5525	0.12	831105	keystroke_o	o	n/a
415.6875	0.135	831375	keystroke_c	c	n/a
415.942	0.12	831884	keystroke_s	s	n/a
416.077	0.105	832154	keystroke_Key.space	Key.space	n/a
416.3175	0.075	832635	keystroke_m	m	n/a
416.4965	0.105	832993	keystroke_i	i	n/a
416.6625	0.104	833325	keystroke_c	c	n/a
416.8115	0.15	833623	keystroke_h	h	n/a
416.9015	0.136	833803	keystroke_i	i	n/a
417.0975	0.119	834195	keystroke_g	g	n/a
417.3375	0.12	834675	keystroke_a	a	n/a
417.4425	0.12	834885	keystroke_n	n	n/a
417.5175	0.135	835035	keystroke_Key.space	Key.space	n/a
417.8175	0.09	835635	keystroke_h	h	n/a
418.0125	0.09	836025	keystroke_u	u	n/a
418.2825	0.09	836565	keystroke_m	m	n/a
418.4625	0.09	836925	keystroke_o	o	n/a
418.5675	0.09	837135	keystroke_r	r	n/a
418.7625	0.105	837525	keystroke_Key.enter	Key.enter	n/a
418.8765	9.1725	837753	prompt	n/a	ocean grey county imperial\n
419.2725	0.134	838545	keystroke_a	a	n/a
419.4675	0.104	838935	keystroke_o	o	n/a
419.5565	0.09	839113	keystroke_c	c	n/a
419.9625	0.06	839925	keystroke_e	e	n/a
419.9925	0.165	839985	keystroke_a	a	n/a
420.442	0.045	840884	keystroke_Key.backspace	Key.backspace	n/a
420.547	0.0755	841094	keystroke_Key.backspace	Key.backspace	n/a
420.667	0.03	841334	keystroke_Key.backspace	Key.backspace	n/a
420.757	0.075	841514	keystroke_Key.backspace	Key.backspace	n/a
420.8925	0.0595	841785	keystroke_Key.backspace	Key.backspace	n/a
421.3425	0.0595	842685	keystroke_o	o	n/a
421.4165	0.1205	842833	keystroke_c	c	n/a
421.6875	0.1345	843375	keystroke_e	e	n/a
421.7775	0.1645	843555	keystroke_a	a	n/a
421.867	0.1655	843734	keystroke_n	n	n/a
421.987	0.1655	843974	keystroke_Key.space	Key.space	n/a
422.137	0.075	844274	keystroke_g	g	n/a
422.3625	0.135	844725	keystroke_r	r	n/a
422.468	0.1345	844936	keystroke_e	e	n/a
422.5875	0.135	845175	keystroke_y	y	n/a
422.6625	0.09	845325	keystroke_Key.space	Key.space	n/a
422.7675	0.134	845535	keystroke_c	c	n/a
422.9165	0.1805	845833	keystroke_o	o	n/a
423.0225	0.105	846045	keystroke_u	u	n/a
423.2625	0.105	846525	keystroke_n	n	n/a
423.3525	0.0745	846705	keystroke_t	t	n/a
423.5175	0.075	847035	keystroke_y	y	n/a
423.622	0.105	847244	keystroke_Key.space	Key.space	n/a
423.818	0.1045	847636	keystroke_i	i	n/a
424.2825	0.075	848565	keystroke_p	p	n/a
424.5065	0.166	849013	keystroke_e	e	n/a
424.6275	0.1495	849255	keystroke_r	r	n/a
425.1065	0.0155	850213	keystroke_Key.backspace	Key.backspace	n/a
425.1825	0.0595	850365	keystroke_Key.backspace	Key.backspace	n/a
425.7375	0.03	851475	keystroke_Key.backspace	Key.backspace	n/a
426.053	0.1045	852106	keystroke_m	m	n/a
426.8175	0.09	853635	keystroke_p	p	n/a
427.0425	0.195	854085	keystroke_e	e	n/a
427.1775	0.12	854355	keystroke_r	r	n/a
427.4325	0.105	854865	keystroke_i	i	n/a
427.5535	0.104	855107	keystroke_a	a	n/a
427.6425	0.105	855285	keystroke_l	l	n/a
427.9425	0.105	855885	keystroke_Key.enter	Key.enter	n/a
428.0535	4.5405	856107	prompt	n/a	fees symptoms whats prior\n
428.617	0.105	857234	keystroke_f	f	n/a
428.8575	0.0445	857715	keystroke_e	e	n/a
429.022	0.075	858044	keystroke_e	e	n/a
429.188	0.1045	858376	keystroke_s	s	n/a
429.322	0.12	858644	keystroke_Key.space	Key.space	n/a
429.457	0.076	858914	keystroke_s	s	n/a
429.547	0.09	859094	keystroke_y	y	n/a
429.8175	0.075	859635	keystroke_m	m	n/a
429.968	0.089	859936	keystroke_p	p	n/a
430.072	0.1205	860144	keystroke_t	t	n/a
430.2375	0.2255	860475	keystroke_o	o	n/a
430.372	0.1355	860744	keystroke_m	m	n/a
430.5225	0.1195	861045	keystroke_s	s	n/a
430.672	0.1205	861344	keystroke_Key.space	Key.space	n/a
430.852	0.1055	861704	keystroke_w	w	n/a
430.9425	0.105	861885	keystroke_h	h	n/a
431.0325	0.135	862065	keystroke_a	a	n/a
431.1825	0.12	862365	keystroke_t	t	n/a
431.4075	0.105	862815	keystroke_s	s	n/a
431.5125	0.15	863025	keystroke_Key.space	Key.space	n/a
431.7375	0.09	863475	keystroke_p	p	n/a
431.8575	0.09	863715	keystroke_r	r	n/a
432.0375	0.1955	864075	keystroke_i	i	n/a
432.1425	0.164	864285	keystroke_o	o	n/a
432.2925	0.075	864585	keystroke_r	r	n/a
432.502	0.09	865004	keystroke_Key.enter	Key.enter	n/a
432.599	5.8155	865198	prompt	n/a	gossip their check organisations\n
433.2075	0.075	866415	keystroke_g	g	n/a
433.5075	0.09	867015	keystroke_o	o	n/a
433.6425	0.075	867285	keystroke_s	s	n/a
433.8225	0.075	867645	keystroke_s	s	n/a
433.913	0.1645	867826	keystroke_i	i	n/a
434.0025	0.165	868005	keystroke_p	p	n/a
434.1375	0.12	868275	keystroke_Key.space	Key.space	n/a
434.497	0.1205	868994	keystroke_t	t	n/a
434.6325	0.0745	869265	keystroke_h	h	n/a
434.7225	0.09	869445	keystroke_e	e	n/a
434.797	0.1055	869594	keystroke_i	i	n/a
434.887	0.0905	869774	keystroke_r	r	n/a
434.9625	0.12	869925	keystroke_Key.space	Key.space	n/a
435.1865	0.046	870373	keystroke_c	c	n/a
435.2625	0.1055	870525	keystroke_h	h	n/a
435.4125	0.0905	870825	keystroke_e	e	n/a
435.683	0.12	871366	keystroke_c	c	n/a
435.9375	0.135	871875	keystroke_k	k	n/a
436.0425	0.149	872085	keystroke_Key.space	Key.space	n/a
436.2375	0.1205	872475	keystroke_o	o	n/a
436.3725	0.075	872745	keystroke_r	r	n/a
436.5825	0.104	873165	keystroke_g	g	n/a
436.8075	0.1055	873615	keystroke_a	a	n/a
436.943	0.119	873886	keystroke_n	n	n/a
437.1675	0.1195	874335	keystroke_i	i	n/a
437.302	0.165	874604	keystroke_s	s	n/a
437.407	0.165	874814	keystroke_a	a	n/a
437.7525	0.03	875505	keystroke_t	t	n/a
437.7675	0.21	875535	keystroke_i	i	n/a
437.8425	0.21	875685	keystroke_o	o	n/a
437.9175	0.15	875835	keystroke_n	n	n/a
438.0675	0.105	876135	keystroke_s	s	n/a
438.3075	0.105	876615	keystroke_Key.enter	Key.enter	n/a
438.419	5.65	876838	prompt	n/a	contests welfare teen kenya\n
438.9975	0.1045	877995	keystroke_c	c	n/a
439.1475	0.15	878295	keystroke_o	o	n/a
439.222	0.1655	878444	keystroke_n	n	n/a
439.3725	0.15	878745	keystroke_t	t	n/a
439.4475	0.1355	878895	keystroke_e	e	n/a
439.8075	0.134	879615	keystroke_s	s	n/a
440.078	0.1345	880156	keystroke_t	t	n/a
440.273	0.134	880546	keystroke_s	s	n/a
440.4225	0.105	880845	keystroke_Key.space	Key.space	n/a
440.6325	0.164	881265	keystroke_w	w	n/a
440.7375	0.134	881475	keystroke_e	e	n/a
440.9775	0.15	881955	keystroke_l	l	n/a
441.2025	0.12	882405	keystroke_f	f	n/a
441.4575	0.105	882915	keystroke_a	a	n/a
441.6375	0.18	883275	keystroke_r	r	n/a
441.7425	0.149	883485	keystroke_e	e	n/a
441.9065	0.12	883813	keystroke_Key.space	Key.space	n/a
442.118	0.1045	884236	keystroke_t	t	n/a
442.3265	0.0755	884653	keystroke_e	e	n/a
442.4775	0.0895	884955	keystroke_e	e	n/a
442.582	0.0905	885164	keystroke_n	n	n/a
442.7775	0.1345	885555	keystroke_Key.space	Key.space	n/a
443.047	0.09	886094	keystroke_k	k	n/a
443.167	0.0905	886334	keystroke_e	e	n/a
443.317	0.1055	886634	keystroke_n	n	n/a
443.6175	0.0895	887235	keystroke_y	y	n/a
443.767	0.105	887534	keystroke_a	a	n/a
443.977	0.0905	887954	keystroke_Key.enter	Key.enter	n/a
444.0735	7.516	888147	prompt	n/a	playlist poem cash transexual\n
444.7275	0.195	889455	keystroke_p	p	n/a
444.8475	0.12	889695	keystroke_l	l	n/a
445.0275	0.09	890055	keystroke_a	a	n/a
445.1625	0.075	890325	keystroke_y	y	n/a
445.3725	0.21	890745	keystroke_l	l	n/a
445.4775	0.135	890955	keystroke_i	i	n/a
445.5375	0.15	891075	keystroke_s	s	n/a
445.6425	0.15	891285	keystroke_t	t	n/a
445.7475	0.1045	891495	keystroke_Key.space	Key.space	n/a
445.987	0.21	891974	keystroke_p	p	n/a
446.122	0.15	892244	keystroke_o	o	n/a
446.3025	0.12	892605	keystroke_e	e	n/a
446.4375	0.1645	892875	keystroke_m	m	n/a
446.572	0.1505	893144	keystroke_Key.space	Key.space	n/a
446.767	0.12	893534	keystroke_c	c	n/a
446.947	0.1355	893894	keystroke_a	a	n/a
447.052	0.136	894104	keystroke_s	s	n/a
447.2025	0.165	894405	keystroke_h	h	n/a
447.307	0.1505	894614	keystroke_Key.space	Key.space	n/a
447.4725	0.09	894945	keystroke_t	t	n/a
447.6675	0.12	895335	keystroke_r	r	n/a
447.8025	0.15	895605	keystroke_a	a	n/a
448.1025	0.12	896205	keystroke_n	n	n/a
