onset	duration	sample	value	key	prompt_text
3.3935	13.1205	6787	prompt	n/a	the quick brown fox jumps over a lazy dog\n
4.778	0.043	9556	keystroke_t	t	n/a
4.791	0.09	9582	keystroke_h	h	n/a
4.971	0.1345	9942	keystroke_e	e	n/a
5.151	0.09	10302	keystroke_Key.space	Key.space	n/a
5.3155	0.1065	10631	keystroke_q	q	n/a
5.4515	0.09	10903	keystroke_u	u	n/a
5.662	0.09	11324	keystroke_i	i	n/a
5.767	0.12	11534	keystroke_c	c	n/a
6.1565	0.105	12313	keystroke_k	k	n/a
6.4415	0.045	12883	keystroke_Key.space	Key.space	n/a
6.7115	0.075	13423	keystroke_b	b	n/a
6.8765	0.0755	13753	keystroke_r	r	n/a
7.117	0.135	14234	keystroke_o	o	n/a
7.267	0.09	14534	keystroke_w	w	n/a
7.372	0.0745	14744	keystroke_n	n	n/a
7.5515	0.075	15103	keystroke_Key.space	Key.space	n/a
8.1075	0.06	16215	keystroke_f	f	n/a
8.1975	0.105	16395	keystroke_i	i	n/a
8.558	0.105	17116	keystroke_x	x	n/a
9.0375	0.045	18075	keystroke_Key.backspace	Key.backspace	n/a
9.1725	0.045	18345	keystroke_Key.backspace	Key.backspace	n/a
9.3235	0.059	18647	keystroke_o	o	n/a
9.4135	0.09	18827	keystroke_x	x	n/a
9.533	0.09	19066	keystroke_Key.space	Key.space	n/a
10.058	0.045	20116	keystroke_j	j	n/a
10.163	0.075	20326	keystroke_u	u	n/a
10.3585	0.0895	20717	keystroke_n	n	n/a
10.509	0.075	21018	keystroke_p	p	n/a
10.704	0.09	21408	keystroke_s	s	n/a
10.779	0.135	21558	keystroke_Key.space	Key.space	n/a
10.869	0.12	21738	keystroke_o	o	n/a
10.974	0.0745	21948	keystroke_v	v	n/a
11.168	0.106	22336	keystroke_e	e	n/a
11.243	0.075	22486	keystroke_r	r	n/a
11.8135	0.06	23627	keystroke_Key.backspace	Key.backspace	n/a
11.9785	0.045	23957	keystroke_Key.backspace	Key.backspace	n/a
12.1435	0.075	24287	keystroke_Key.backspace	Key.backspace	n/a
12.3235	0.045	24647	keystroke_Key.backspace	Key.backspace	n/a
12.4735	0.045	24947	keystroke_Key.backspace	Key.backspace	n/a
12.6385	0.046	25277	keystroke_Key.backspace	Key.backspace	n/a
12.7895	0.045	25579	keystroke_Key.backspace	Key.backspace	n/a
13.1945	0.06	26389	keystroke_Key.backspace	Key.backspace	n/a
13.7195	0.075	27439	keystroke_m	m	n/a
13.9145	0.09	27829	keystroke_p	p	n/a
14.1245	0.076	28249	keystroke_s	s	n/a
14.2145	0.105	28429	keystroke_Key.space	Key.space	n/a
14.3655	0.089	28731	keystroke_o	o	n/a
14.5155	0.09	29031	keystroke_v	v	n/a
14.7255	0.075	29451	keystroke_e	e	n/a
14.7405	0.09	29481	keystroke_r	r	n/a
14.8905	0.075	29781	keystroke_Key.space	Key.space	n/a
15.0105	0.075	30021	keystroke_a	a	n/a
15.0705	0.12	30141	keystroke_Key.space	Key.space	n/a
15.1905	0.105	30381	keystroke_l	l	n/a
15.3105	0.06	30621	keystroke_a	a	n/a
15.4905	0.075	30981	keystroke_z	z	n/a
15.5505	0.075	31101	keystroke_y	y	n/a
15.746	0.1055	31492	keystroke_Key.space	Key.space	n/a
15.896	0.09	31792	keystroke_d	d	n/a
16.001	0.075	32002	keystroke_o	o	n/a
16.181	0.0905	32362	keystroke_g	g	n/a
16.421	0.09	32842	keystroke_Key.enter	Key.enter	n/a
16.5185	6.9125	33037	prompt	n/a	attributes mary alerts wine\n
17.3965	0.09	34793	keystroke_a	a	n/a
17.6365	0.045	35273	keystroke_t	t	n/a
17.802	0.075	35604	keystroke_t	t	n/a
17.862	0.1045	35724	keystroke_r	r	n/a
17.9815	0.075	35963	keystroke_i	i	n/a
18.192	0.075	36384	keystroke_t	t	n/a
18.717	0.075	37434	keystroke_Key.backspace	Key.backspace	n/a
19.287	0.031	38574	keystroke_b	b	n/a
19.377	0.075	38754	keystroke_u	u	n/a
19.543	0.09	39086	keystroke_t	t	n/a
19.738	0.03	39476	keystroke_e	e	n/a
19.918	0.06	39836	keystroke_s	s	n/a
20.038	0.09	40076	keystroke_Key.space	Key.space	n/a
20.428	0.075	40856	keystroke_m	m	n/a
20.533	0.105	41066	keystroke_a	a	n/a
20.698	0.09	41396	keystroke_r	r	n/a
20.833	0.06	41666	keystroke_y	y	n/a
21.118	0.075	42236	keystroke_Key.space	Key.space	n/a
21.284	0.075	42568	keystroke_a	a	n/a
21.404	0.06	42808	keystroke_l	l	n/a
21.824	0.1495	43648	keystroke_e	e	n/a
21.899	0.1345	43798	keystroke_r	r	n/a
22.1395	0.075	44279	keystroke_t	t	n/a
22.3335	0.091	44667	keystroke_s	s	n/a
22.4695	0.06	44939	keystroke_Key.space	Key.space	n/a
22.6045	0.105	45209	keystroke_w	w	n/a
22.7245	0.105	45449	keystroke_i	i	n/a
22.7995	0.12	45599	keystroke_n	n	n/a
23.0545	0.075	46109	keystroke_e	e	n/a
23.2945	0.135	46589	keystroke_Key.enter	Key.enter	n/a
23.4365	8.999	46873	prompt	n/a	blackjack slave universities multi\n
24.495	0.06	48990	keystroke_b	b	n/a
24.69	0.12	49380	keystroke_l	l	n/a
24.84	0.12	49680	keystroke_a	a	n/a
24.93	0.135	49860	keystroke_c	c	n/a
25.095	0.0755	50190	keystroke_k	k	n/a
25.4105	0.075	50821	keystroke_j	j	n/a
25.6055	0.165	51211	keystroke_a	a	n/a
25.7555	0.135	51511	keystroke_c	c	n/a
26.1155	0.075	52231	keystroke_k	k	n/a
26.3555	0.0755	52711	keystroke_Key.space	Key.space	n/a
26.5955	0.106	53191	keystroke_s	s	n/a
26.9115	0.09	53823	keystroke_l	l	n/a
27.046	0.075	54092	keystroke_a	a	n/a
27.226	0.091	54452	keystroke_v	v	n/a
27.331	0.091	54662	keystroke_e	e	n/a
27.452	0.105	54904	keystroke_Key.space	Key.space	n/a
28.6975	0.075	57395	keystroke_u	u	n/a
28.7875	0.105	57575	keystroke_n	n	n/a
28.9825	0.0895	57965	keystroke_i	i	n/a
29.328	0.06	58656	keystroke_v	v	n/a
29.583	0.03	59166	keystroke_e	e	n/a
29.598	0.09	59196	keystroke_r	r	n/a
29.823	0.09	59646	keystroke_s	s	n/a
29.973	0.12	59946	keystroke_i	i	n/a
30.108	0.135	60216	keystroke_t	t	n/a
30.258	0.0445	60516	keystroke_i	i	n/a
30.3625	0.091	60725	keystroke_e	e	n/a
30.5735	0.105	61147	keystroke_s	s	n/a
30.7985	0.06	61597	keystroke_Key.space	Key.space	n/a
31.3535	0.06	62707	keystroke_m	m	n/a
31.5635	0.03	63127	keystroke_u	u	n/a
31.7585	0.06	63517	keystroke_l	l	n/a
31.8935	0.075	63787	keystroke_t	t	n/a
31.9695	0.0745	63939	keystroke_i	i	n/a
32.314	0.1195	64628	keystroke_Key.enter	Key.enter	n/a
32.4385	9.811	64877	prompt	n/a	treated continent fill jade\n
33.3495	0.15	66699	keystroke_r	r	n/a
33.3645	0.03	66729	keystroke_t	t	n/a
33.4245	0.045	66849	keystroke_t	t	n/a
34.069	0.06	68138	keystroke_Key.backspace	Key.backspace	n/a
34.219	0.075	68438	keystroke_Key.backspace	Key.backspace	n/a
34.5195	0.075	69039	keystroke_Key.backspace	Key.backspace	n/a
34.985	0.12	69970	keystroke_t	t	n/a
35.075	0.105	70150	keystroke_r	r	n/a
35.3	0.09	70600	keystroke_e	e	n/a
35.42	0.105	70840	keystroke_a	a	n/a
35.5695	0.136	71139	keystroke_t	t	n/a
35.6605	0.0745	71321	keystroke_e	e	n/a
35.84	0.09	71680	keystroke_d	d	n/a
36.0505	0.075	72101	keystroke_Key.space	Key.space	n/a
36.3505	0.09	72701	keystroke_c	c	n/a
36.5905	0.03	73181	keystroke_o	o	n/a
37.3555	0.075	74711	keystroke_n	n	n/a
37.7905	0.076	75581	keystroke_t	t	n/a
38.4665	0.0445	76933	keystroke_i	i	n/a
38.8565	0.0755	77713	keystroke_n	n	n/a
39.082	0.0745	78164	keystroke_e	e	n/a
39.1865	0.09	78373	keystroke_n	n	n/a
39.3065	0.09	78613	keystroke_t	t	n/a
39.4265	0.105	78853	keystroke_Key.space	Key.space	n/a
40.222	0.09	80444	keystroke_f	f	n/a
40.417	0.075	80834	keystroke_i	i	n/a
40.627	0.075	81254	keystroke_l	l	n/a
40.762	0.09	81524	keystroke_l	l	n/a
40.942	0.09	81884	keystroke_Key.space	Key.space	n/a
41.153	0.075	82306	keystroke_j	j	n/a
41.258	0.135	82516	keystroke_a	a	n/a
41.588	0.06	83176	keystroke_d	d	n/a
41.603	0.12	83206	keystroke_e	e	n/a
42.098	0.15	84196	keystroke_Key.enter	Key.enter	n/a
42.253	7.3185	84506	prompt	n/a	comment disease satellite labs\n
42.9835	0.105	85967	keystroke_c	c	n/a
43.1035	0.075	86207	keystroke_o	o	n/a
43.4335	0.06	86867	keystroke_m	m	n/a
43.5535	0.09	87107	keystroke_m	m	n/a
43.6885	0.105	87377	keystroke_e	e	n/a
43.8085	0.09	87617	keystroke_n	n	n/a
43.9585	0.12	87917	keystroke_t	t	n/a
44.1535	0.105	88307	keystroke_Key.space	Key.space	n/a
44.4685	0.135	88937	keystroke_d	d	n/a
44.5585	0.075	89117	keystroke_i	i	n/a
44.6785	0.136	89357	keystroke_s	s	n/a
44.934	0.09	89868	keystroke_e	e	n/a
45.039	0.15	90078	keystroke_a	a	n/a
45.174	0.121	90348	keystroke_s	s	n/a
45.279	0.09	90558	keystroke_e	e	n/a
45.669	0.12	91338	keystroke_Key.space	Key.space	n/a
45.834	0.181	91668	keystroke_s	s	n/a
45.955	0.09	91910	keystroke_a	a	n/a
46.194	0.061	92388	keystroke_t	t	n/a
46.4645	0.06	92929	keystroke_e	e	n/a
46.6595	0.12	93319	keystroke_l	l	n/a
47.0495	0.0905	94099	keystroke_l	l	n/a
47.245	0.06	94490	keystroke_i	i	n/a
47.35	0.1345	94700	keystroke_t	t	n/a
47.5595	0.09	95119	keystroke_e	e	n/a
47.7545	0.1055	95509	keystroke_Key.space	Key.space	n/a
48.055	0.105	96110	keystroke_l	l	n/a
48.205	0.12	96410	keystroke_a	a	n/a
48.355	0.0755	96710	keystroke_b	b	n/a
48.5055	0.105	97011	keystroke_s	s	n/a
48.6855	0.1045	97371	keystroke_'	'	n/a
49.195	0.105	98390	keystroke_Key.backspace	Key.backspace	n/a
49.45	0.12	98900	keystroke_Key.enter	Key.enter	n/a
49.5755	8.68	99151	prompt	n/a	fixtures visible catch provides\n
50.32	0.075	100640	keystroke_f	f	n/a
50.9195	0.06	101839	keystroke_i	i	n/a
51.0245	0.1055	102049	keystroke_x	x	n/a
51.25	0.075	102500	keystroke_t	t	n/a
51.5045	0.075	103009	keystroke_r	r	n/a
51.7895	0.06	103579	keystroke_Key.backspace	Key.backspace	n/a
51.9845	0.075	103969	keystroke_u	u	n/a
52.0895	0.0895	104179	keystroke_r	r	n/a
52.1195	0.1195	104239	keystroke_e	e	n/a
52.329	0.105	104658	keystroke_s	s	n/a
52.449	0.09	104898	keystroke_Key.space	Key.space	n/a
52.9595	0.09	105919	keystroke_v	v	n/a
53.0645	0.09	106129	keystroke_i	i	n/a
53.319	0.09	106638	keystroke_s	s	n/a
53.424	0.075	106848	keystroke_i	i	n/a
53.635	0.075	107270	keystroke_b	b	n/a
54.0995	0.105	108199	keystroke_;	;	n/a
54.2345	0.1045	108469	keystroke_e	e	n/a
54.6085	0.06	109217	keystroke_Key.backspace	Key.backspace	n/a
54.7445	0.06	109489	keystroke_Key.backspace	Key.backspace	n/a
54.9695	0.09	109939	keystroke_l	l	n/a
55.134	0.12	110268	keystroke_e	e	n/a
55.255	0.104	110510	keystroke_Key.space	Key.space	n/a
55.419	0.105	110838	keystroke_c	c	n/a
55.539	0.0895	111078	keystroke_a	a	n/a
55.6885	0.121	111377	keystroke_t	t	n/a
55.9595	0.12	111919	keystroke_c	c	n/a
56.1095	0.0895	112219	keystroke_h	h	n/a
56.274	0.1345	112548	keystroke_Key.space	Key.space	n/a
56.4535	0.106	112907	keystroke_p	p	n/a
56.5745	0.1045	113149	keystroke_r	r	n/a
56.694	0.105	113388	keystroke_o	o	n/a
57.384	0.075	114768	keystroke_v	v	n/a
57.489	0.075	114978	keystroke_i	i	n/a
57.6685	0.12	115337	keystroke_d	d	n/a
57.7435	0.105	115487	keystroke_e	e	n/a
57.9685	0.105	115937	keystroke_s	s	n/a
58.1785	0.075	116357	keystroke_Key.enter	Key.enter	n/a
58.2585	7.8415	116517	prompt	n/a	renewal examined sacred reveal\n
59.0185	0.09	118037	keystroke_r	r	n/a
59.079	0.1045	118158	keystroke_e	e	n/a
59.3035	0.075	118607	keystroke_n	n	n/a
59.4835	0.09	118967	keystroke_e	e	n/a
59.5285	0.12	119057	keystroke_w	w	n/a
59.814	0.06	119628	keystroke_a	a	n/a
59.904	0.105	119808	keystroke_l	l	n/a
60.1285	0.09	120257	keystroke_Key.space	Key.space	n/a
60.2935	0.105	120587	keystroke_e	e	n/a
60.7885	0.12	121577	keystroke_x	x	n/a
60.9985	0.105	121997	keystroke_a	a	n/a
61.1185	0.0895	122237	keystroke_m	m	n/a
62.3035	0.135	124607	keystroke_i	i	n/a
62.4535	0.0755	124907	keystroke_n	n	n/a
62.6185	0.075	125237	keystroke_e	e	n/a
62.8435	0.0905	125687	keystroke_d	d	n/a
63.038	0.105	126076	keystroke_Key.space	Key.space	n/a
63.233	0.121	126466	keystroke_s	s	n/a
63.338	0.121	126676	keystroke_a	a	n/a
63.7285	0.09	127457	keystroke_c	c	n/a
63.9685	0.135	127937	keystroke_r	r	n/a
64.0585	0.0895	128117	keystroke_e	e	n/a
64.298	0.105	128596	keystroke_d	d	n/a
64.478	0.12	128956	keystroke_Key.space	Key.space	n/a
64.9885	0.0895	129977	keystroke_r	r	n/a
65.033	0.135	130066	keystroke_e	e	n/a
65.288	0.12	130576	keystroke_v	v	n/a
65.423	0.075	130846	keystroke_e	e	n/a
65.573	0.0895	131146	keystroke_a	a	n/a
65.6775	0.135	131355	keystroke_l	l	n/a
65.9785	0.1195	131957	keystroke_Key.enter	Key.enter	n/a
66.105	9.7585	132210	prompt	n/a	we're institutes be resulting\n
66.9825	0.105	133965	keystroke_w	w	n/a
67.0575	0.105	134115	keystroke_e	e	n/a
67.1935	0.09	134387	keystroke_'	'	n/a
67.418	0.09	134836	keystroke_r	r	n/a
67.823	0.105	135646	keystroke_e	e	n/a
67.943	0.12	135886	keystroke_Key.space	Key.space	n/a
68.153	0.09	136306	keystroke_i	i	n/a
68.3325	0.075	136665	keystroke_n	n	n/a
68.4525	0.1195	136905	keystroke_s	s	n/a
68.753	0.09	137506	keystroke_t	t	n/a
68.978	0.0445	137956	keystroke_i	i	n/a
69.592	0.091	139184	keystroke_t	t	n/a
69.758	0.075	139516	keystroke_u	u	n/a
70.4025	0.105	140805	keystroke_t	t	n/a
70.627	0.076	141254	keystroke_e	e	n/a
70.853	0.0745	141706	keystroke_s	s	n/a
71.0325	0.105	142065	keystroke_Key.space	Key.space	n/a
71.3025	0.075	142605	keystroke_b	b	n/a
71.4075	0.105	142815	keystroke_e	e	n/a
71.5575	0.06	143115	keystroke_Key.space	Key.space	n/a
71.6475	0.09	143295	keystroke_s	s	n/a
72.2025	0.075	144405	keystroke_Key.backspace	Key.backspace	n/a
72.3225	0.074	144645	keystroke_r	r	n/a
72.3675	0.09	144735	keystroke_e	e	n/a
72.5625	0.105	145125	keystroke_s	s	n/a
73.1315	0.046	146263	keystroke_i	i	n/a
73.1465	0.031	146293	keystroke_u	u	n/a
73.657	0.06	147314	keystroke_Key.backspace	Key.backspace	n/a
73.822	0.045	147644	keystroke_Key.backspace	Key.backspace	n/a
74.2125	0.09	148425	keystroke_u	u	n/a
74.4525	0.075	148905	keystroke_l	l	n/a
74.6175	0.075	149235	keystroke_t	t	n/a
74.752	0.0905	149504	keystroke_o	o	n/a
75.1415	0.09	150283	keystroke_Key.backspace	Key.backspace	n/a
75.3825	0.12	150765	keystroke_i	i	n/a
75.4575	0.105	150915	keystroke_n	n	n/a
75.5475	0.075	151095	keystroke_g	g	n/a
75.7725	0.09	151545	keystroke_Key.enter	Key.enter	n/a
75.867	12.5055	151734	prompt	n/a	fathers destiny defendant classifieds\n
76.672	0.075	153344	keystroke_f	f	n/a
76.732	0.09	153464	keystroke_a	a	n/a
76.882	0.105	153764	keystroke_t	t	n/a
76.972	0.0595	153944	keystroke_h	h	n/a
77.0465	0.091	154093	keystroke_e	e	n/a
77.1215	0.076	154243	keystroke_r	r	n/a
77.2565	0.1195	154513	keystroke_s	s	n/a
77.362	0.09	154724	keystroke_Key.space	Key.space	n/a
78.6365	0.135	157273	keystroke_d	d	n/a
78.7115	0.135	157423	keystroke_e	e	n/a
79.101	0.091	158202	keystroke_s	s	n/a
79.311	0.09	158622	keystroke_t	t	n/a
79.446	0.091	158892	keystroke_i	i	n/a
79.506	0.136	159012	keystroke_n	n	n/a
79.702	0.09	159404	keystroke_u	u	n/a
80.1815	0.09	160363	keystroke_Key.backspace	Key.backspace	n/a
80.4965	0.06	160993	keystroke_y	y	n/a
81.021	0.12	162042	keystroke_Key.space	Key.space	n/a
81.9065	0.135	163813	keystroke_d	d	n/a
81.9815	0.105	163963	keystroke_e	e	n/a
82.1915	0.075	164383	keystroke_f	f	n/a
82.2815	0.0895	164563	keystroke_e	e	n/a
82.446	0.045	164892	keystroke_n	n	n/a
82.536	0.12	165072	keystroke_d	d	n/a
82.671	0.09	165342	keystroke_a	a	n/a
82.806	0.06	165612	keystroke_n	n	n/a
83.8105	0.091	167621	keystroke_y	y	n/a
84.366	0.105	168732	keystroke_Key.backspace	Key.backspace	n/a
84.561	0.135	169122	keystroke_t	t	n/a
84.801	0.09	169602	keystroke_Key.space	Key.space	n/a
85.8365	0.135	171673	keystroke_c	c	n/a
86.106	0.12	172212	keystroke_l	l	n/a
86.241	0.135	172482	keystroke_a	a	n/a
86.346	0.12	172692	keystroke_s	s	n/a
86.5405	0.105	173081	keystroke_s	s	n/a
86.6755	0.075	173351	keystroke_i	i	n/a
86.8105	0.105	173621	keystroke_f	f	n/a
86.9755	0.06	173951	keystroke_i	i	n/a
87.0955	0.075	174191	keystroke_e	e	n/a
87.8	0.121	175600	keystroke_d	d	n/a
87.936	0.12	175872	keystroke_s	s	n/a
88.236	0.1345	176472	keystroke_Key.enter	Key.enter	n/a
88.376	8.77	176752	prompt	n/a	loved thumb you'd ultimately\n
89.5405	0.075	179081	keystroke_l	l	n/a
89.6305	0.015	179261	keystroke_o	o	n/a
89.7355	0.105	179471	keystroke_v	v	n/a
89.8255	0.09	179651	keystroke_e	e	n/a
90.0355	0.075	180071	keystroke_d	d	n/a
90.0955	0.12	180191	keystroke_Key.space	Key.space	n/a
90.2905	0.1055	180581	keystroke_t	t	n/a
90.381	0.0745	180762	keystroke_h	h	n/a
90.4405	0.105	180881	keystroke_u	u	n/a
90.6655	0.075	181331	keystroke_m	m	n/a
90.891	0.045	181782	keystroke_b	b	n/a
91.6105	0.075	183221	keystroke_Key.space	Key.space	n/a
92.2105	0.075	184421	keystroke_y	y	n/a
92.4505	0.12	184901	keystroke_o	o	n/a
92.7055	0.075	185411	keystroke_u	u	n/a
92.975	0.0905	185950	keystroke_'	'	n/a
93.5155	0.075	187031	keystroke_d	d	n/a
93.905	0.1795	187810	keystroke_Key.space	Key.space	n/a
94.3095	0.075	188619	keystroke_u	u	n/a
94.6545	0.09	189309	keystroke_l	l	n/a
94.8505	0.09	189701	keystroke_t	t	n/a
95.1345	0.09	190269	keystroke_i	i	n/a
95.7195	0.076	191439	keystroke_m	m	n/a
95.9295	0.0905	191859	keystroke_a	a	n/a
96.095	0.09	192190	keystroke_t	t	n/a
96.17	0.12	192340	keystroke_e	e	n/a
96.275	0.09	192550	keystroke_l	l	n/a
96.5895	0.09	193179	keystroke_y	y	n/a
97.07	0.075	194140	keystroke_Key.enter	Key.enter	n/a
97.1515	8.349	194303	prompt	n/a	thanksgiving techno roommates when's\n
97.8345	0.12	195669	keystroke_t	t	n/a
97.9395	0.09	195879	keystroke_h	h	n/a
98.0445	0.135	196089	keystroke_a	a	n/a
98.1345	0.1195	196269	keystroke_n	n	n/a
98.269	0.105	196538	keystroke_k	k	n/a
98.359	0.09	196718	keystroke_s	s	n/a
98.569	0.091	197138	keystroke_g	g	n/a
98.675	0.1045	197350	keystroke_i	i	n/a
98.809	0.106	197618	keystroke_v	v	n/a
98.885	0.1345	197770	keystroke_i	i	n/a
98.99	0.1195	197980	keystroke_n	n	n/a
99.1245	0.135	198249	keystroke_g	g	n/a
99.2745	0.0755	198549	keystroke_Key.space	Key.space	n/a
99.4845	0.075	198969	keystroke_t	t	n/a
99.7095	0.075	199419	keystroke_e	e	n/a
99.904	0.105	199808	keystroke_c	c	n/a
100.024	0.0905	200048	keystroke_h	h	n/a
100.4145	0.09	200829	keystroke_n	n	n/a
100.5945	0.075	201189	keystroke_o	o	n/a
100.7745	0.105	201549	keystroke_Key.space	Key.space	n/a
100.9245	0.12	201849	keystroke_r	r	n/a
101.239	0.06	202478	keystroke_e	e	n/a
101.719	0.0745	203438	keystroke_Key.backspace	Key.backspace	n/a
102.1245	0.105	204249	keystroke_o	o	n/a
102.334	0.12	204668	keystroke_o	o	n/a
102.499	0.105	204998	keystroke_m	m	n/a
102.739	0.075	205478	keystroke_m	m	n/a
103.399	0.12	206798	keystroke_a	a	n/a
103.564	0.09	207128	keystroke_t	t	n/a
103.655	0.089	207310	keystroke_e	e	n/a
103.879	0.075	207758	keystroke_s	s	n/a
103.969	0.135	207938	keystroke_Key.space	Key.space	n/a
104.284	0.12	208568	keystroke_w	w	n/a
104.419	0.075	208838	keystroke_h	h	n/a
104.539	0.09	209078	keystroke_e	e	n/a
104.644	0.09	209288	keystroke_n	n	n/a
104.9285	0.0905	209857	keystroke_'	'	n/a
105.094	0.09	210188	keystroke_s	s	n/a
105.394	0.105	210788	keystroke_Key.enter	Key.enter	n/a
105.506	8.589	211012	prompt	n/a	thinks museums door apparently\n
106.2785	0.12	212557	keystroke_t	t	n/a
106.4135	0.03	212827	keystroke_h	h	n/a
106.4285	0.151	212857	keystroke_i	i	n/a
106.5645	0.1195	213129	keystroke_n	n	n/a
106.6545	0.0895	213309	keystroke_k	k	n/a
106.759	0.105	213518	keystroke_s	s	n/a
106.894	0.0895	213788	keystroke_Key.space	Key.space	n/a
107.0435	0.105	214087	keystroke_m	m	n/a
107.2385	0.075	214477	keystroke_u	u	n/a
107.4335	0.1205	214867	keystroke_s	s	n/a
108.0485	0.075	216097	keystroke_e	e	n/a
108.1535	0.09	216307	keystroke_u	u	n/a
108.4235	0.105	216847	keystroke_m	m	n/a
108.5885	0.105	217177	keystroke_s	s	n/a
108.7535	0.0895	217507	keystroke_Key.space	Key.space	n/a
109.5785	0.09	219157	keystroke_d	d	n/a
109.6695	0.074	219339	keystroke_o	o	n/a
109.8335	0.075	219667	keystroke_o	o	n/a
109.9245	0.1035	219849	keystroke_r	r	n/a
110.073	0.075	220146	keystroke_Key.space	Key.space	n/a
110.253	0.09	220506	keystroke_a	a	n/a
110.388	0.06	220776	keystroke_p	p	n/a
110.5375	0.076	221075	keystroke_p	p	n/a
110.6135	0.105	221227	keystroke_a	a	n/a
110.7335	0.12	221467	keystroke_r	r	n/a
110.8085	0.12	221617	keystroke_e	e	n/a
110.9435	0.0895	221887	keystroke_n	n	n/a
111.063	0.12	222126	keystroke_t	t	n/a
111.228	0.105	222456	keystroke_;	;	n/a
111.4235	0.105	222847	keystroke_y	y	n/a
111.843	0.06	223686	keystroke_Key.backspace	Key.backspace	n/a
111.978	0.06	223956	keystroke_Key.backspace	Key.backspace	n/a
112.158	0.075	224316	keystroke_k	k	n/a
112.293	0.075	224586	keystroke_y	y	n/a
112.7725	0.061	225545	keystroke_Key.backspace	Key.backspace	n/a
112.9235	0.06	225847	keystroke_Key.backspace	Key.backspace	n/a
113.0885	0.105	226177	keystroke_l	l	n/a
113.2085	0.105	226417	keystroke_y	y	n/a
113.9885	0.1045	227977	keystroke_Key.enter	Key.enter	n/a
114.0985	5.4405	228197	prompt	n/a	graduate died reload adam\n
114.9635	0.134	229927	keystroke_g	g	n/a
115.0675	0.105	230135	keystroke_r	r	n/a
115.2775	0.075	230555	keystroke_a	a	n/a
115.3375	0.135	230675	keystroke_d	d	n/a
115.4575	0.076	230915	keystroke_u	u	n/a
115.5485	0.06	231097	keystroke_a	a	n/a
115.6685	0.105	231337	keystroke_t	t	n/a
115.788	0.09	231576	keystroke_e	e	n/a
115.893	0.09	231786	keystroke_Key.space	Key.space	n/a
116.4775	0.09	232955	keystroke_d	d	n/a
116.5685	0.0745	233137	keystroke_i	i	n/a
116.657	0.076	233314	keystroke_e	e	n/a
116.838	0.09	233676	keystroke_d	d	n/a
116.943	0.0895	233886	keystroke_Key.space	Key.space	n/a
117.2425	0.1045	234485	keystroke_r	r	n/a
117.333	0.105	234666	keystroke_e	e	n/a
117.558	0.075	235116	keystroke_l	l	n/a
117.722	0.0905	235444	keystroke_o	o	n/a
117.8275	0.135	235655	keystroke_a	a	n/a
117.9175	0.15	235835	keystroke_d	d	n/a
118.0975	0.09	236195	keystroke_Key.space	Key.space	n/a
118.442	0.105	236884	keystroke_d	d	n/a
118.742	0.075	237484	keystroke_Key.backspace	Key.backspace	n/a
118.847	0.091	237694	keystroke_a	a	n/a
118.923	0.134	237846	keystroke_d	d	n/a
119.027	0.105	238054	keystroke_a	a	n/a
119.103	0.09	238206	keystroke_m	m	n/a
119.4175	0.12	238835	keystroke_Key.enter	Key.enter	n/a
119.544	9.4595	239088	prompt	n/a	'tis malaysia managing casinos\n
120.8275	0.09	241655	keystroke_'	'	n/a
121.127	0.0905	242254	keystroke_t	t	n/a
121.2925	0.06	242585	keystroke_i	i	n/a
121.397	0.12	242794	keystroke_s	s	n/a
121.532	0.09	243064	keystroke_Key.space	Key.space	n/a
121.7875	0.0895	243575	keystroke_m	m	n/a
121.997	0.105	243994	keystroke_a	a	n/a
122.4475	0.09	244895	keystroke_;	;	n/a
123.002	0.075	246004	keystroke_Key.backspace	Key.backspace	n/a
123.302	0.06	246604	keystroke_l	l	n/a
123.467	0.105	246934	keystroke_a	a	n/a
123.602	0.06	247204	keystroke_y	y	n/a
123.8715	0.105	247743	keystroke_s	s	n/a
124.0225	0.089	248045	keystroke_i	i	n/a
124.1575	0.075	248315	keystroke_a	a	n/a
124.3525	0.1195	248705	keystroke_Key.space	Key.space	n/a
124.832	0.075	249664	keystroke_m	m	n/a
125.1165	0.09	250233	keystroke_a	a	n/a
125.3115	0.09	250623	keystroke_n	n	n/a
125.687	0.09	251374	keystroke_a	a	n/a
125.912	0.09	251824	keystroke_g	g	n/a
126.047	0.12	252094	keystroke_i	i	n/a
126.122	0.105	252244	keystroke_n	n	n/a
126.242	0.09	252484	keystroke_g	g	n/a
126.392	0.09	252784	keystroke_Key.space	Key.space	n/a
126.977	0.105	253954	keystroke_c	c	n/a
127.052	0.105	254104	keystroke_a	a	n/a
127.262	0.1045	254524	keystroke_s	s	n/a
127.4865	0.105	254973	keystroke_i	i	n/a
127.9665	0.135	255933	keystroke_n	n	n/a
128.1915	0.09	256383	keystroke_o	o	n/a
128.4165	0.12	256833	keystroke_s	s	n/a
128.8815	0.12	257763	keystroke_Key.enter	Key.enter	n/a
129.007	8.0955	258014	prompt	n/a	perl serving rent spine\n
129.736	0.061	259472	keystroke_p	p	n/a
129.947	0.18	259894	keystroke_e	e	n/a
130.112	0.06	260224	keystroke_r	r	n/a
130.232	0.06	260464	keystroke_l	l	n/a
130.9215	0.135	261843	keystroke_Key.space	Key.space	n/a
131.1765	0.03	262353	keystroke_s	s	n/a
131.386	0.1055	262772	keystroke_e	e	n/a
131.447	0.1045	262894	keystroke_r	r	n/a
131.7015	0.105	263403	keystroke_v	v	n/a
131.7915	0.135	263583	keystroke_i	i	n/a
131.8815	0.12	263763	keystroke_n	n	n/a
132.0025	0.089	264005	keystroke_g	g	n/a
132.166	0.075	264332	keystroke_Key.space	Key.space	n/a
132.361	0.105	264722	keystroke_e	e	n/a
132.721	0.0745	265442	keystroke_Key.backspace	Key.backspace	n/a
132.8255	0.091	265651	keystroke_r	r	n/a
132.8705	0.1055	265741	keystroke_e	e	n/a
132.977	0.0735	265954	keystroke_n	n	n/a
133.0815	0.105	266163	keystroke_t	t	n/a
133.2605	0.076	266521	keystroke_Key.space	Key.space	n/a
133.4565	0.045	266913	keystroke_r	r	n/a
133.981	0.075	267962	keystroke_Key.backspace	Key.backspace	n/a
134.1615	0.075	268323	keystroke_p	p	n/a
134.1765	0.075	268353	keystroke_s	s	n/a
134.7165	0.06	269433	keystroke_Key.backspace	Key.backspace	n/a
134.8815	0.03	269763	keystroke_Key.backspace	Key.backspace	n/a
135.001	0.09	270002	keystroke_s	s	n/a
135.016	0.09	270032	keystroke_p	p	n/a
135.571	0.045	271142	keystroke_o	o	n/a
135.9905	0.075	271981	keystroke_Key.backspace	Key.backspace	n/a
136.2755	0.075	272551	keystroke_i	i	n/a
136.3205	0.1055	272641	keystroke_n	n	n/a
136.6205	0.105	273241	keystroke_e	e	n/a
136.9655	0.135	273931	keystroke_Key.enter	Key.enter	n/a
137.107	8.695	274214	prompt	n/a	informational household returns quebec\n
137.806	0.12	275612	keystroke_i	i	n/a
137.896	0.09	275792	keystroke_n	n	n/a
138.076	0.105	276152	keystroke_f	f	n/a
138.166	0.0745	276332	keystroke_o	o	n/a
138.3305	0.075	276661	keystroke_r	r	n/a
138.4505	0.061	276901	keystroke_m	m	n/a
138.5855	0.076	277171	keystroke_a	a	n/a
138.6765	0.12	277353	keystroke_t	t	n/a
138.8115	0.1045	277623	keystroke_i	i	n/a
139.021	0.12	278042	keystroke_o	o	n/a
139.096	0.09	278192	keystroke_n	n	n/a
139.216	0.12	278432	keystroke_a	a	n/a
139.336	0.075	278672	keystroke_l	l	n/a
139.501	0.1345	279002	keystroke_Key.space	Key.space	n/a
139.6655	0.0905	279331	keystroke_h	h	n/a
139.816	0.18	279632	keystroke_o	o	n/a
140.056	0.0895	280112	keystroke_s	s	n/a
140.3405	0.06	280681	keystroke_Key.backspace	Key.backspace	n/a
140.5505	0.075	281101	keystroke_u	u	n/a
140.6705	0.105	281341	keystroke_s	s	n/a
140.7605	0.12	281521	keystroke_e	e	n/a
140.8955	0.06	281791	keystroke_m	m	n/a
141.21	0.075	282420	keystroke_Key.backspace	Key.backspace	n/a
141.6455	0.075	283291	keystroke_h	h	n/a
141.795	0.12	283590	keystroke_o	o	n/a
142.02	0.075	284040	keystroke_l	l	n/a
142.17	0.121	284340	keystroke_d	d	n/a
142.7105	0.09	285421	keystroke_Key.space	Key.space	n/a
142.8605	0.12	285721	keystroke_r	r	n/a
142.9655	0.135	285931	keystroke_e	e	n/a
143.1155	0.09	286231	keystroke_t	t	n/a
143.1905	0.075	286381	keystroke_u	u	n/a
143.3405	0.0745	286681	keystroke_r	r	n/a
143.416	0.089	286832	keystroke_n	n	n/a
143.58	0.0905	287160	keystroke_s	s	n/a
143.7905	0.075	287581	keystroke_Key.space	Key.space	n/a
144.315	0.105	288630	keystroke_q	q	n/a
144.5705	0.075	289141	keystroke_u	u	n/a
144.6755	0.105	289351	keystroke_e	e	n/a
144.9155	0.06	289831	keystroke_b	b	n/a
145.1105	0.105	290221	keystroke_e	e	n/a
145.2905	0.105	290581	keystroke_c	c	n/a
145.665	0.135	291330	keystroke_Key.enter	Key.enter	n/a
145.806	7.9455	291612	prompt	n/a	urge confident taxation that's\n
146.4905	0.075	292981	keystroke_u	u	n/a
146.6405	0.1045	293281	keystroke_r	r	n/a
146.91	0.09	293820	keystroke_g	g	n/a
147.045	0.09	294090	keystroke_e	e	n/a
147.42	0.12	294840	keystroke_Key.space	Key.space	n/a
147.585	0.1205	295170	keystroke_c	c	n/a
147.6905	0.135	295381	keystroke_o	o	n/a
147.7655	0.105	295531	keystroke_n	n	n/a
147.9155	0.105	295831	keystroke_f	f	n/a
148.0805	0.0895	296161	keystroke_i	i	n/a
148.575	0.12	297150	keystroke_d	d	n/a
148.68	0.1045	297360	keystroke_e	e	n/a
148.7995	0.0905	297599	keystroke_n	n	n/a
148.9945	0.106	297989	keystroke_t	t	n/a
149.25	0.105	298500	keystroke_Key.space	Key.space	n/a
149.8645	0.09	299729	keystroke_t	t	n/a
150.0595	0.076	300119	keystroke_a	a	n/a
150.465	0.06	300930	keystroke_x	x	n/a
150.645	0.06	301290	keystroke_a	a	n/a
150.81	0.075	301620	keystroke_t	t	n/a
150.915	0.09	301830	keystroke_i	i	n/a
151.1095	0.1205	302219	keystroke_o	o	n/a
151.1695	0.1655	302339	keystroke_n	n	n/a
151.649	0.135	303298	keystroke_Key.space	Key.space	n/a
151.815	0.135	303630	keystroke_t	t	n/a
151.965	0.075	303930	keystroke_h	h	n/a
152.055	0.09	304110	keystroke_a	a	n/a
152.175	0.075	304350	keystroke_t	t	n/a
152.31	0.09	304620	keystroke_'	'	n/a
152.4895	0.09	304979	keystroke_s	s	n/a
152.6845	0.105	305369	keystroke_Key.space	Key.space	n/a
153.614	0.135	307228	keystroke_Key.enter	Key.enter	n/a
153.754	12.326	307508	prompt	n/a	longitude kinda supplemental indicate\n
154.694	0.075	309388	keystroke_l	l	n/a
154.904	0.1055	309808	keystroke_o	o	n/a
155.0695	0.09	310139	keystroke_n	n	n/a
155.2195	0.0895	310439	keystroke_g	g	n/a
155.504	0.03	311008	keystroke_i	i	n/a
155.699	0.091	311398	keystroke_t	t	n/a
155.879	0.0605	311758	keystroke_u	u	n/a
158.536	0.058	317072	keystroke_d	d	n/a
158.579	0.1195	317158	keystroke_e	e	n/a
158.8635	0.106	317727	keystroke_Key.space	Key.space	n/a
159.839	0.075	319678	keystroke_k	k	n/a
160.049	0.105	320098	keystroke_i	i	n/a
160.244	0.09	320488	keystroke_n	n	n/a
160.439	0.1355	320878	keystroke_d	d	n/a
160.5435	0.105	321087	keystroke_a	a	n/a
160.6645	0.105	321329	keystroke_Key.space	Key.space	n/a
160.934	0.1195	321868	keystroke_s	s	n/a
161.069	0.0895	322138	keystroke_u	u	n/a
161.3085	0.06	322617	keystroke_p	p	n/a
161.4745	0.029	322949	keystroke_p	p	n/a
161.6545	0.045	323309	keystroke_l	l	n/a
161.8045	0.105	323609	keystroke_e	e	n/a
161.924	0.09	323848	keystroke_m	m	n/a
162.5085	0.075	325017	keystroke_e	e	n/a
162.899	0.1045	325798	keystroke_n	n	n/a
163.0785	0.1055	326157	keystroke_t	t	n/a
163.289	0.09	326578	keystroke_a	a	n/a
163.364	0.0895	326728	keystroke_l	l	n/a
163.4985	0.1495	326997	keystroke_Key.space	Key.space	n/a
163.634	0.12	327268	keystroke_i	i	n/a
163.724	0.12	327448	keystroke_n	n	n/a
163.994	0.06	327988	keystroke_i	i	n/a
164.323	0.06	328646	keystroke_Key.backspace	Key.backspace	n/a
164.443	0.09	328886	keystroke_d	d	n/a
164.578	0.061	329156	keystroke_i	i	n/a
164.714	0.135	329428	keystroke_c	c	n/a
164.864	0.045	329728	keystroke_a	a	n/a
165.089	0.105	330178	keystroke_t	t	n/a
165.554	0.0895	331108	keystroke_e	e	n/a
166.0035	0.075	332007	keystroke_Key.enter	Key.enter	n/a
166.084	7.7205	332168	prompt	n/a	todd hearts cocktail contain\n
166.904	0.06	333808	keystroke_t	t	n/a
167.054	0.104	334108	keystroke_o	o	n/a
167.4435	0.075	334887	keystroke_d	d	n/a
167.6085	0.06	335217	keystroke_d	d	n/a
167.6535	0.12	335307	keystroke_Key.space	Key.space	n/a
167.8485	0.09	335697	keystroke_h	h	n/a
167.9685	0.15	335937	keystroke_e	e	n/a
168.419	0.1045	336838	keystroke_a	a	n/a
168.6435	0.105	337287	keystroke_r	r	n/a
168.7185	0.09	337437	keystroke_t	t	n/a
169.9485	0.06	339897	keystroke_s	s	n/a
170.053	0.195	340106	keystroke_Key.space	Key.space	n/a
170.263	0.06	340526	keystroke_c	c	n/a
170.308	0.09	340616	keystroke_o	o	n/a
170.503	0.09	341006	keystroke_c	c	n/a
170.833	0.075	341666	keystroke_k	k	n/a
170.938	0.09	341876	keystroke_t	t	n/a
171.118	0.09	342236	keystroke_a	a	n/a
171.238	0.075	342476	keystroke_i	i	n/a
171.478	0.105	342956	keystroke_l	l	n/a
171.7475	0.105	343495	keystroke_Key.space	Key.space	n/a
172.1385	0.09	344277	keystroke_c	c	n/a
172.258	0.15	344516	keystroke_o	o	n/a
172.363	0.075	344726	keystroke_n	n	n/a
172.453	0.09	344906	keystroke_t	t	n/a
172.678	0.075	345356	keystroke_a	a	n/a
173.2485	0.165	346497	keystroke_i	i	n/a
173.3385	0.12	346677	keystroke_n	n	n/a
173.728	0.075	347456	keystroke_Key.enter	Key.enter	n/a
173.808	7.676	347616	prompt	n/a	thai latinas younger replaced\n
174.6275	0.075	349255	keystroke_t	t	n/a
174.7175	0.06	349435	keystroke_h	h	n/a
174.8525	0.105	349705	keystroke_a	a	n/a
175.0635	0.044	350127	keystroke_i	i	n/a
175.2425	0.1055	350485	keystroke_Key.space	Key.space	n/a
175.453	0.06	350906	keystroke_l	l	n/a
175.573	0.09	351146	keystroke_a	a	n/a
175.723	0.12	351446	keystroke_t	t	n/a
175.873	0.12	351746	keystroke_i	i	n/a
175.978	0.105	351956	keystroke_n	n	n/a
176.203	0.1195	352406	keystroke_a	a	n/a
176.533	0.105	353066	keystroke_s	s	n/a
176.7125	0.12	353425	keystroke_Key.space	Key.space	n/a
177.9425	0.12	355885	keystroke_y	y	n/a
178.1975	0.135	356395	keystroke_o	o	n/a
178.513	0.09	357026	keystroke_u	u	n/a
178.693	0.105	357386	keystroke_n	n	n/a
178.813	0.09	357626	keystroke_g	g	n/a
178.993	0.119	357986	keystroke_e	e	n/a
179.0675	0.1045	358135	keystroke_r	r	n/a
179.217	0.135	358434	keystroke_Key.space	Key.space	n/a
179.7125	0.09	359425	keystroke_r	r	n/a
179.7575	0.15	359515	keystroke_e	e	n/a
180.1775	0.165	360355	keystroke_p	p	n/a
180.463	0.09	360926	keystroke_l	l	n/a
180.6425	0.09	361285	keystroke_a	a	n/a
180.7925	0.135	361585	keystroke_c	c	n/a
180.9125	0.09	361825	keystroke_e	e	n/a
181.1525	0.105	362305	keystroke_d	d	n/a
181.3475	0.1355	362695	keystroke_Key.enter	Key.enter	n/a
181.489	6.1	362978	prompt	n/a	master concern drilling attend\n
182.278	0.12	364556	keystroke_m	m	n/a
182.398	0.09	364796	keystroke_a	a	n/a
182.458	0.1345	364916	keystroke_s	s	n/a
182.6675	0.09	365335	keystroke_t	t	n/a
182.8175	0.075	365635	keystroke_e	e	n/a
182.8775	0.09	365755	keystroke_r	r	n/a
182.9525	0.135	365905	keystroke_Key.space	Key.space	n/a
183.1025	0.12	366205	keystroke_c	c	n/a
183.2075	0.1195	366415	keystroke_o	o	n/a
183.357	0.105	366714	keystroke_n	n	n/a
183.732	0.09	367464	keystroke_c	c	n/a
183.943	0.089	367886	keystroke_e	e	n/a
184.003	0.059	368006	keystroke_r	r	n/a
184.077	0.1205	368154	keystroke_n	n	n/a
184.2725	0.105	368545	keystroke_Key.space	Key.space	n/a
184.3925	0.12	368785	keystroke_d	d	n/a
184.6175	0.09	369235	keystroke_r	r	n/a
184.7675	0.06	369535	keystroke_i	i	n/a
185.022	0.045	370044	keystroke_l	l	n/a
185.157	0.06	370314	keystroke_l	l	n/a
185.337	0.105	370674	keystroke_i	i	n/a
185.397	0.105	370794	keystroke_n	n	n/a
185.517	0.09	371034	keystroke_g	g	n/a
185.697	0.0745	371394	keystroke_Key.space	Key.space	n/a
185.9675	0.014	371935	keystroke_w	w	n/a
186.4475	0.075	372895	keystroke_Key.backspace	Key.backspace	n/a
186.5525	0.09	373105	keystroke_a	a	n/a
186.747	0.105	373494	keystroke_t	t	n/a
186.927	0.06	373854	keystroke_t	t	n/a
187.032	0.09	374064	keystroke_e	e	n/a
187.137	0.09	374274	keystroke_n	n	n/a
187.2725	0.09	374545	keystroke_d	d	n/a
187.4825	0.105	374965	keystroke_Key.enter	Key.enter	n/a
187.5925	9.6105	375185	prompt	n/a	babes donated geology ethiopia\n
188.337	0.045	376674	keystroke_b	b	n/a
188.427	0.12	376854	keystroke_a	a	n/a
188.532	0.045	377064	keystroke_b	b	n/a
188.6375	0.0895	377275	keystroke_e	e	n/a
188.847	0.09	377694	keystroke_s	s	n/a
188.952	0.105	377904	keystroke_Key.space	Key.space	n/a
189.4465	0.075	378893	keystroke_d	d	n/a
189.5515	0.105	379103	keystroke_o	o	n/a
189.9565	0.105	379913	keystroke_a	a	n/a
190.347	0.075	380694	keystroke_Key.backspace	Key.backspace	n/a
190.602	0.06	381204	keystroke_n	n	n/a
190.677	0.105	381354	keystroke_a	a	n/a
190.827	0.09	381654	keystroke_t	t	n/a
190.918	0.104	381836	keystroke_e	e	n/a
191.1115	0.12	382223	keystroke_d	d	n/a
191.2015	0.12	382403	keystroke_Key.space	Key.space	n/a
192.0565	0.06	384113	keystroke_g	g	n/a
192.1315	0.105	384263	keystroke_e	e	n/a
192.5365	0.075	385073	keystroke_o	o	n/a
192.732	0.06	385464	keystroke_l	l	n/a
192.8965	0.09	385793	keystroke_o	o	n/a
193.0615	0.12	386123	keystroke_g	g	n/a
193.1965	0.1055	386393	keystroke_y	y	n/a
193.5415	0.135	387083	keystroke_Key.space	Key.space	n/a
194.067	0.105	388134	keystroke_e	e	n/a
194.532	0.09	389064	keystroke_t	t	n/a
194.637	0.0745	389274	keystroke_h	h	n/a
194.8615	0.075	389723	keystroke_i	i	n/a
195.627	0.1045	391254	keystroke_o	o	n/a
196.0165	0.12	392033	keystroke_p	p	n/a
196.3915	0.105	392783	keystroke_i	i	n/a
196.871	0.09	393742	keystroke_a	a	n/a
197.126	0.075	394252	keystroke_Key.enter	Key.enter	n/a
197.208	9.7745	394416	prompt	n/a	centers driver youth temporary\n
197.8765	0.06	395753	keystroke_c	c	n/a
197.9665	0.0755	395933	keystroke_e	e	n/a
198.102	0.09	396204	keystroke_n	n	n/a
198.117	0.0895	396234	keystroke_t	t	n/a
198.2665	0.09	396533	keystroke_e	e	n/a
198.3415	0.105	396683	keystroke_r	r	n/a
198.5515	0.09	397103	keystroke_s	s	n/a
198.6425	0.149	397285	keystroke_Key.space	Key.space	n/a
198.8365	0.105	397673	keystroke_d	d	n/a
199.0615	0.09	398123	keystroke_r	r	n/a
199.196	0.045	398392	keystroke_i	i	n/a
199.391	0.03	398782	keystroke_v	v	n/a
199.541	0.075	399082	keystroke_e	e	n/a
199.586	0.09	399172	keystroke_r	r	n/a
199.691	0.105	399382	keystroke_Key.space	Key.space	n/a
199.856	0.091	399712	keystroke_t	t	n/a
200.0515	0.105	400103	keystroke_o	o	n/a
200.516	0.06	401032	keystroke_Key.backspace	Key.backspace	n/a
200.651	0.075	401302	keystroke_Key.backspace	Key.backspace	n/a
201.371	0.1955	402742	keystroke_o	o	n/a
201.8515	0.075	403703	keystroke_Key.backspace	Key.backspace	n/a
202.1515	0.1045	404303	keystroke_y	y	n/a
202.331	0.18	404662	keystroke_o	o	n/a
202.7055	0.091	405411	keystroke_u	u	n/a
202.8115	0.09	405623	keystroke_t	t	n/a
202.9165	0.1045	405833	keystroke_h	h	n/a
203.111	0.105	406222	keystroke_Key.space	Key.space	n/a
203.246	0.105	406492	keystroke_t	t	n/a
203.456	0.0895	406912	keystroke_e	e	n/a
203.5155	0.076	407031	keystroke_m	m	n/a
203.711	0.045	407422	keystroke_o	o	n/a
204.4455	0.09	408891	keystroke_Key.backspace	Key.backspace	n/a
204.6255	0.09	409251	keystroke_p	p	n/a
205.616	0.075	411232	keystroke_o	o	n/a
205.946	0.15	411892	keystroke_r	r	n/a
206.2005	0.12	412401	keystroke_a	a	n/a
206.2905	0.135	412581	keystroke_r	r	n/a
206.4105	0.1055	412821	keystroke_y	y	n/a
206.876	0.105	413752	keystroke_Key.enter	Key.enter	n/a
206.9855	8.4565	413971	prompt	n/a	mason orientation thats quite\n
207.6855	0.1355	415371	keystroke_a	a	n/a
207.791	0.1495	415582	keystroke_s	s	n/a
207.9555	0.165	415911	keystroke_o	o	n/a
208.0305	0.12	416061	keystroke_n	n	n/a
208.495	0.075	416990	keystroke_Key.backspace	Key.backspace	n/a
208.646	0.06	417292	keystroke_Key.backspace	Key.backspace	n/a
208.811	0.075	417622	keystroke_Key.backspace	Key.backspace	n/a
208.9605	0.06	417921	keystroke_Key.backspace	Key.backspace	n/a
209.156	0.075	418312	keystroke_m	m	n/a
209.246	0.135	418492	keystroke_a	a	n/a
209.366	0.09	418732	keystroke_s	s	n/a
209.457	0.1335	418914	keystroke_o	o	n/a
209.516	0.1045	419032	keystroke_n	n	n/a
209.8005	0.075	419601	keystroke_Key.space	Key.space	n/a
209.9355	0.12	419871	keystroke_o	o	n/a
210.1005	0.06	420201	keystroke_r	r	n/a
210.461	0.0745	420922	keystroke_i	i	n/a
210.6255	0.09	421251	keystroke_e	e	n/a
210.7755	0.09	421551	keystroke_n	n	n/a
210.8805	0.075	421761	keystroke_t	t	n/a
211.0605	0.105	422121	keystroke_a	a	n/a
211.2555	0.075	422511	keystroke_t	t	n/a
211.4055	0.0895	422811	keystroke_i	i	n/a
211.571	0.1345	423142	keystroke_o	o	n/a
211.676	0.1045	423352	keystroke_n	n	n/a
211.975	0.09	423950	keystroke_Key.space	Key.space	n/a
212.081	0.09	424162	keystroke_t	t	n/a
212.201	0.135	424402	keystroke_a	a	n/a
212.231	0.06	424462	keystroke_h	h	n/a
212.396	0.09	424792	keystroke_t	t	n/a
212.681	0.075	425362	keystroke_s	s	n/a
213.0405	0.06	426081	keystroke_Key.backspace	Key.backspace	n/a
213.206	0.03	426412	keystroke_Key.backspace	Key.backspace	n/a
213.341	0.045	426682	keystroke_Key.backspace	Key.backspace	n/a
213.476	0.075	426952	keystroke_Key.backspace	Key.backspace	n/a
213.7455	0.06	427491	keystroke_h	h	n/a
213.8205	0.075	427641	keystroke_a	a	n/a
213.9255	0.09	427851	keystroke_t	t	n/a
214.1505	0.075	428301	keystroke_s	s	n/a
214.2855	0.1195	428571	keystroke_Key.space	Key.space	n/a
214.48	0.0905	428960	keystroke_q	q	n/a
214.5855	0.09	429171	keystroke_u	u	n/a
214.7955	0.09	429591	keystroke_i	i	n/a
214.9005	0.105	429801	keystroke_t	t	n/a
215.0505	0.075	430101	keystroke_e	e	n/a
215.3205	0.1195	430641	keystroke_Key.enter	Key.enter	n/a
215.445	9.0565	430890	prompt	n/a	jessica traditional involved arrange\n
216.3405	0.075	432681	keystroke_j	j	n/a
216.4455	0.0895	432891	keystroke_e	e	n/a
216.655	0.045	433310	keystroke_s	s	n/a
216.88	0.015	433760	keystroke_s	s	n/a
216.91	0.046	433820	keystroke_i	i	n/a
217.0295	0.121	434059	keystroke_c	c	n/a
217.1355	0.075	434271	keystroke_a	a	n/a
217.2255	0.12	434451	keystroke_Key.space	Key.space	n/a
217.75	0.135	435500	keystroke_r	r	n/a
218.2305	0.0745	436461	keystroke_Key.backspace	Key.backspace	n/a
218.335	0.12	436670	keystroke_t	t	n/a
218.9055	0.06	437811	keystroke_r	r	n/a
219.1155	0.105	438231	keystroke_a	a	n/a
219.2055	0.105	438411	keystroke_d	d	n/a
219.3405	0.1195	438681	keystroke_i	i	n/a
219.475	0.12	438950	keystroke_t	t	n/a
219.85	0.09	439700	keystroke_i	i	n/a
220.0455	0.1495	440091	keystroke_o	o	n/a
220.1655	0.1045	440331	keystroke_n	n	n/a
220.36	0.09	440720	keystroke_a	a	n/a
220.495	0.09	440990	keystroke_l	l	n/a
220.75	0.076	441500	keystroke_Key.space	Key.space	n/a
220.855	0.12	441710	keystroke_i	i	n/a
220.93	0.105	441860	keystroke_n	n	n/a
221.095	0.135	442190	keystroke_v	v	n/a
221.575	0.075	443150	keystroke_o	o	n/a
221.755	0.075	443510	keystroke_l	l	n/a
221.875	0.105	443750	keystroke_v	v	n/a
222.025	0.06	444050	keystroke_e	e	n/a
222.2195	0.09	444439	keystroke_d	d	n/a
222.3845	0.075	444769	keystroke_Key.space	Key.space	n/a
222.5645	0.061	445129	keystroke_r	r	n/a
222.8805	0.06	445761	keystroke_Key.backspace	Key.backspace	n/a
222.9855	0.0895	445971	keystroke_a	a	n/a
223.135	0.09	446270	keystroke_r	r	n/a
223.3	0.09	446600	keystroke_r	r	n/a
223.405	0.105	446810	keystroke_a	a	n/a
223.615	0.09	447230	keystroke_n	n	n/a
223.81	0.0895	447620	keystroke_g	g	n/a
223.9745	0.1055	447949	keystroke_e	e	n/a
224.155	0.135	448310	keystroke_d	d	n/a
224.335	0.165	448670	keystroke_Key.enter	Key.enter	n/a
224.506	11.7855	449012	prompt	n/a	evanescence delight town deer\n
225.5805	0.075	451161	keystroke_e	e	n/a
226.36	0.06	452720	keystroke_v	v	n/a
226.5245	0.091	453049	keystroke_a	a	n/a
227.545	0.1195	455090	keystroke_n	n	n/a
227.9045	0.12	455809	keystroke_e	e	n/a
228.265	0.12	456530	keystroke_s	s	n/a
229.6295	0.136	459259	keystroke_c	c	n/a
230.23	0.105	460460	keystroke_e	e	n/a
230.38	0.12	460760	keystroke_n	n	n/a
230.62	0.15	461240	keystroke_c	c	n/a
230.71	0.12	461420	keystroke_e	e	n/a
230.8895	0.09	461779	keystroke_Key.space	Key.space	n/a
231.1145	0.1205	462229	keystroke_d	d	n/a
231.19	0.12	462380	keystroke_e	e	n/a
231.37	0.075	462740	keystroke_l	l	n/a
231.6545	0.09	463309	keystroke_i	i	n/a
231.8495	0.075	463699	keystroke_g	g	n/a
232.9895	0.075	465979	keystroke_h	h	n/a
233.1245	0.075	466249	keystroke_t	t	n/a
233.2595	0.105	466519	keystroke_Key.space	Key.space	n/a
233.3945	0.0745	466789	keystroke_t	t	n/a
233.499	0.1205	466998	keystroke_o	o	n/a
233.6645	0.09	467329	keystroke_w	w	n/a
234.429	0.075	468858	keystroke_n	n	n/a
234.609	0.09	469218	keystroke_Key.space	Key.space	n/a
234.759	0.12	469518	keystroke_d	d	n/a
235.195	0.06	470390	keystroke_e	e	n/a
235.3745	0.12	470749	keystroke_e	e	n/a
235.4495	0.12	470899	keystroke_r	r	n/a
236.154	0.135	472308	keystroke_Key.enter	Key.enter	n/a
236.295	9.1305	472590	prompt	n/a	calls reference compiled radiation\n
237.009	0.12	474018	keystroke_c	c	n/a
237.114	0.09	474228	keystroke_a	a	n/a
237.189	0.03	474378	keystroke_l	l	n/a
237.339	0.075	474678	keystroke_l	l	n/a
237.4895	0.135	474979	keystroke_s	s	n/a
237.6395	0.0595	475279	keystroke_Key.space	Key.space	n/a
237.819	0.105	475638	keystroke_r	r	n/a
237.925	0.089	475850	keystroke_e	e	n/a
238.5245	0.075	477049	keystroke_f	f	n/a
238.6745	0.09	477349	keystroke_e	e	n/a
238.7345	0.135	477469	keystroke_r	r	n/a
238.8545	0.09	477709	keystroke_e	e	n/a
238.9455	0.1185	477891	keystroke_n	n	n/a
239.079	0.135	478158	keystroke_c	c	n/a
239.199	0.1195	478398	keystroke_e	e	n/a
239.3335	0.135	478667	keystroke_Key.space	Key.space	n/a
239.5895	0.105	479179	keystroke_c	c	n/a
239.7845	0.165	479569	keystroke_o	o	n/a
240.0695	0.12	480139	keystroke_m	m	n/a
240.399	0.1045	480798	keystroke_p	p	n/a
240.9695	0.105	481939	keystroke_i	i	n/a
241.2985	0.1355	482597	keystroke_l	l	n/a
241.4785	0.091	482957	keystroke_e	e	n/a
241.6895	0.09	483379	keystroke_d	d	n/a
241.8995	0.09	483799	keystroke_Key.space	Key.space	n/a
242.0945	0.1195	484189	keystroke_t	t	n/a
242.454	0.105	484908	keystroke_Key.backspace	Key.backspace	n/a
242.604	0.075	485208	keystroke_r	r	n/a
242.799	0.1205	485598	keystroke_a	a	n/a
242.9645	0.075	485929	keystroke_d	d	n/a
243.204	0.09	486408	keystroke_i	i	n/a
243.384	0.09	486768	keystroke_a	a	n/a
243.594	0.09	487188	keystroke_t	t	n/a
243.819	0.135	487638	keystroke_i	i	n/a
244.1035	0.105	488207	keystroke_o	o	n/a
244.5245	0.105	489049	keystroke_n	n	n/a
244.8095	0.119	489619	keystroke_Key.space	Key.space	n/a
245.3335	0.091	490667	keystroke_Key.enter	Key.enter	n/a
245.431	6.1595	490862	prompt	n/a	sorts vast dean euro\n
246.159	0.075	492318	keystroke_s	s	n/a
246.279	0.12	492558	keystroke_o	o	n/a
246.384	0.12	492768	keystroke_r	r	n/a
246.459	0.12	492918	keystroke_t	t	n/a
246.8035	0.1355	493607	keystroke_Key.space	Key.space	n/a
247.149	0.0595	494298	keystroke_Key.backspace	Key.backspace	n/a
247.2235	0.076	494447	keystroke_s	s	n/a
247.3895	0.09	494779	keystroke_Key.space	Key.space	n/a
247.674	0.12	495348	keystroke_v	v	n/a
247.869	0.135	495738	keystroke_a	a	n/a
247.974	0.105	495948	keystroke_s	s	n/a
248.199	0.165	496398	keystroke_t	t	n/a
248.394	0.15	496788	keystroke_Key.space	Key.space	n/a
248.7085	0.135	497417	keystroke_d	d	n/a
248.7685	0.12	497537	keystroke_e	e	n/a
248.9485	0.091	497897	keystroke_a	a	n/a
249.0535	0.105	498107	keystroke_n	n	n/a
249.2795	0.105	498559	keystroke_Key.space	Key.space	n/a
249.9235	0.075	499847	keystroke_u	u	n/a
250.3145	0.09	500629	keystroke_Key.backspace	Key.backspace	n/a
250.659	0.075	501318	keystroke_e	e	n/a
250.749	0.105	501498	keystroke_u	u	n/a
250.839	0.105	501678	keystroke_r	r	n/a
251.019	0.12	502038	keystroke_o	o	n/a
251.4685	0.12	502937	keystroke_Key.enter	Key.enter	n/a
251.5935	8.3215	503187	prompt	n/a	arabic womens moves actress\n
252.264	0.06	504528	keystroke_a	a	n/a
252.384	0.105	504768	keystroke_r	r	n/a
252.504	0.12	505008	keystroke_a	a	n/a
253.344	0.06	506688	keystroke_b	b	n/a
253.599	0.0445	507198	keystroke_g	g	n/a
253.9735	0.075	507947	keystroke_Key.backspace	Key.backspace	n/a
254.1985	0.09	508397	keystroke_i	i	n/a
254.888	0.091	509776	keystroke_c	c	n/a
255.009	0.12	510018	keystroke_Key.space	Key.space	n/a
255.174	0.09	510348	keystroke_w	w	n/a
255.369	0.045	510738	keystroke_m	m	n/a
255.6985	0.075	511397	keystroke_Key.backspace	Key.backspace	n/a
255.9085	0.12	511817	keystroke_o	o	n/a
255.9835	0.105	511967	keystroke_m	m	n/a
256.1035	0.09	512207	keystroke_e	e	n/a
256.388	0.12	512776	keystroke_n	n	n/a
256.538	0.12	513076	keystroke_s	s	n/a
256.703	0.075	513406	keystroke_Key.space	Key.space	n/a
256.884	0.0895	513768	keystroke_m	m	n/a
257.0785	0.09	514157	keystroke_o	o	n/a
257.243	0.105	514486	keystroke_v	v	n/a
257.378	0.09	514756	keystroke_e	e	n/a
257.618	0.12	515236	keystroke_s	s	n/a
257.813	0.09	515626	keystroke_Key.space	Key.space	n/a
257.934	0.0895	515868	keystroke_a	a	n/a
258.1285	0.12	516257	keystroke_c	c	n/a
258.6835	0.165	517367	keystroke_t	t	n/a
258.7885	0.1355	517577	keystroke_r	r	n/a
259.0135	0.075	518027	keystroke_e	e	n/a
259.4335	0.06	518867	keystroke_s	s	n/a
259.5985	0.075	519197	keystroke_s	s	n/a
259.7635	0.1495	519527	keystroke_Key.enter	Key.enter	n/a
259.9245	12.41	519849	prompt	n/a	what's highlights regions symphony\n
260.649	0.105	521298	keystroke_w	w	n/a
260.7685	0.075	521537	keystroke_h	h	n/a
260.8135	0.06	521627	keystroke_a	a	n/a
260.933	0.105	521866	keystroke_t	t	n/a
261.053	0.12	522106	keystroke_'	'	n/a
261.233	0.09	522466	keystroke_s	s	n/a
261.338	0.105	522676	keystroke_Key.space	Key.space	n/a
261.474	0.1345	522948	keystroke_h	h	n/a
261.549	0.1195	523098	keystroke_i	i	n/a
261.7285	0.09	523457	keystroke_g	g	n/a
261.8035	0.075	523607	keystroke_h	h	n/a
262.3435	0.09	524687	keystroke_l	l	n/a
262.553	0.075	525106	keystroke_i	i	n/a
262.673	0.09	525346	keystroke_g	g	n/a
262.9135	0.105	525827	keystroke_t	t	n/a
263.1535	0.09	526307	keystroke_s	s	n/a
263.5435	0.045	527087	keystroke_Key.backspace	Key.backspace	n/a
263.6635	0.09	527327	keystroke_Key.backspace	Key.backspace	n/a
263.948	0.06	527896	keystroke_h	h	n/a
264.009	0.074	528018	keystroke_t	t	n/a
264.218	0.075	528436	keystroke_s	s	n/a
264.338	0.105	528676	keystroke_Key.space	Key.space	n/a
264.473	0.0895	528946	keystroke_r	r	n/a
264.503	0.1205	529006	keystroke_e	e	n/a
264.9385	0.09	529877	keystroke_g	g	n/a
265.493	0.09	530986	keystroke_i	i	n/a
265.703	0.1205	531406	keystroke_o	o	n/a
265.7635	0.105	531527	keystroke_n	n	n/a
265.8985	0.105	531797	keystroke_s	s	n/a
266.1685	0.075	532337	keystroke_Key.space	Key.space	n/a
266.4225	0.105	532845	keystroke_s	s	n/a
266.5285	0.089	533057	keystroke_u	u	n/a
266.7985	0.09	533597	keystroke_m	m	n/a
267.218	0.12	534436	keystroke_p	p	n/a
267.653	0.075	535306	keystroke_Key.backspace	Key.backspace	n/a
267.818	0.045	535636	keystroke_Key.backspace	Key.backspace	n/a
267.953	0.075	535906	keystroke_Key.backspace	Key.backspace	n/a
268.8385	0.075	537677	keystroke_y	y	n/a
269.1525	0.061	538305	keystroke_m	m	n/a
269.798	0.09	539596	keystroke_p	p	n/a
269.993	0.06	539986	keystroke_h	h	n/a
270.158	0.09	540316	keystroke_i	i	n/a
270.203	0.105	540406	keystroke_n	n	n/a
270.4435	0.105	540887	keystroke_y	y	n/a
270.833	0.045	541666	keystroke_Key.backspace	Key.backspace	n/a
270.9825	0.045	541965	keystroke_Key.backspace	Key.backspace	n/a
271.1325	0.03	542265	keystroke_Key.backspace	Key.backspace	n/a
271.3725	0.1955	542745	keystroke_o	o	n/a
271.553	0.0455	543106	keystroke_n	n	n/a
271.8525	0.06	543705	keystroke_y	y	n/a
272.243	0.09	544486	keystroke_Key.enter	Key.enter	n/a
272.338	6.656	544676	prompt	n/a	began dense concerned opening\n
273.2775	0.06	546555	keystroke_b	b	n/a
273.4285	0.105	546857	keystroke_e	e	n/a
273.653	0.06	547306	keystroke_g	g	n/a
273.848	0.045	547696	keystroke_a	a	n/a
273.938	0.075	547876	keystroke_n	n	n/a
274.118	0.09	548236	keystroke_Key.space	Key.space	n/a
274.223	0.15	548446	keystroke_d	d	n/a
274.313	0.09	548626	keystroke_e	e	n/a
274.418	0.075	548836	keystroke_n	n	n/a
274.568	0.1345	549136	keystroke_s	s	n/a
274.6875	0.105	549375	keystroke_e	e	n/a
274.8375	0.105	549675	keystroke_Key.space	Key.space	n/a
275.153	0.12	550306	keystroke_c	c	n/a
275.258	0.12	550516	keystroke_o	o	n/a
275.318	0.12	550636	keystroke_n	n	n/a
275.453	0.09	550906	keystroke_c	c	n/a
275.588	0.1195	551176	keystroke_e	e	n/a
275.6925	0.075	551385	keystroke_r	r	n/a
276.413	0.09	552826	keystroke_n	n	n/a
276.668	0.09	553336	keystroke_e	e	n/a
276.893	0.09	553786	keystroke_d	d	n/a
277.013	0.105	554026	keystroke_Key.space	Key.space	n/a
277.448	0.0895	554896	keystroke_o	o	n/a
277.6425	0.09	555285	keystroke_p	p	n/a
277.7775	0.105	555555	keystroke_e	e	n/a
277.8975	0.09	555795	keystroke_n	n	n/a
277.9885	0.149	555977	keystroke_i	i	n/a
278.1075	0.106	556215	keystroke_n	n	n/a
278.1975	0.091	556395	keystroke_g	g	n/a
278.8875	0.105	557775	keystroke_Key.enter	Key.enter	n/a
278.997	15.147	557994	prompt	n/a	virgin packing sublimedirectory producer\n
279.9685	0.104	559937	keystroke_v	v	n/a
280.103	0.0445	560206	keystroke_i	i	n/a
280.2375	0.09	560475	keystroke_r	r	n/a
280.8525	0.0305	561705	keystroke_g	g	n/a
280.913	0.1345	561826	keystroke_i	i	n/a
281.0175	0.12	562035	keystroke_n	n	n/a
281.2275	0.105	562455	keystroke_Key.space	Key.space	n/a
281.3625	0.15	562725	keystroke_p	p	n/a
281.4675	0.12	562935	keystroke_a	a	n/a
281.5425	0.1355	563085	keystroke_c	c	n/a
281.663	0.075	563326	keystroke_k	k	n/a
281.903	0.1495	563806	keystroke_i	i	n/a
282.0535	0.089	564107	keystroke_n	n	n/a
282.1725	0.105	564345	keystroke_g	g	n/a
282.3375	0.075	564675	keystroke_Key.space	Key.space	n/a
282.5625	0.075	565125	keystroke_s	s	n/a
282.6825	0.105	565365	keystroke_u	u	n/a
283.883	0.075	567766	keystroke_b	b	n/a
285.203	0.09	570406	keystroke_l	l	n/a
285.4725	0.09	570945	keystroke_i	i	n/a
285.682	0.12	571364	keystroke_m	m	n/a
286.163	0.075	572326	keystroke_e	e	n/a
288.624	0.028	577248	keystroke_d	d	n/a
288.682	0.106	577364	keystroke_i	i	n/a
288.832	0.105	577664	keystroke_r	r	n/a
288.892	0.135	577784	keystroke_e	e	n/a
289.072	0.12	578144	keystroke_c	c	n/a
289.283	0.074	578566	keystroke_t	t	n/a
289.387	0.075	578774	keystroke_o	o	n/a
289.537	0.091	579074	keystroke_r	r	n/a
289.793	0.1195	579586	keystroke_y	y	n/a
290.1225	0.105	580245	keystroke_Key.space	Key.space	n/a
290.3925	0.06	580785	keystroke_p	p	n/a
290.5125	0.09	581025	keystroke_r	r	n/a
290.6625	0.0745	581325	keystroke_o	o	n/a
290.8575	0.0905	581715	keystroke_e	e	n/a
291.1275	0.12	582255	keystroke_c	c	n/a
291.4425	0.045	582885	keystroke_Key.backspace	Key.backspace	n/a
291.5775	0.09	583155	keystroke_Key.backspace	Key.backspace	n/a
291.7275	0.06	583455	keystroke_d	d	n/a
292.778	0.0595	585556	keystroke_u	u	n/a
292.8675	0.09	585735	keystroke_c	c	n/a
293.0775	0.075	586155	keystroke_e	e	n/a
293.1375	0.075	586275	keystroke_r	r	n/a
294.037	0.105	588074	keystroke_Key.enter	Key.enter	n/a
294.148	8.8455	588296	prompt	n/a	porter herself olympics maintains\n
295.582	0.1055	591164	keystroke_p	p	n/a
295.642	0.15	591284	keystroke_o	o	n/a
295.807	0.136	591614	keystroke_r	r	n/a
295.912	0.09	591824	keystroke_t	t	n/a
296.0925	0.105	592185	keystroke_e	e	n/a
296.153	0.1195	592306	keystroke_r	r	n/a
296.3025	0.1195	592605	keystroke_Key.space	Key.space	n/a
296.437	0.09	592874	keystroke_h	h	n/a
296.512	0.105	593024	keystroke_e	e	n/a
296.602	0.09	593204	keystroke_r	r	n/a
296.752	0.12	593504	keystroke_s	s	n/a
296.842	0.09	593684	keystroke_e	e	n/a
296.947	0.09	593894	keystroke_l	l	n/a
297.067	0.12	594134	keystroke_f	f	n/a
297.232	0.0895	594464	keystroke_Key.space	Key.space	n/a
298.522	0.075	597044	keystroke_o	o	n/a
298.732	0.0305	597464	keystroke_l	l	n/a
298.987	0.075	597974	keystroke_y	y	n/a
299.302	0.106	598604	keystroke_m	m	n/a
299.5115	0.091	599023	keystroke_p	p	n/a
299.6925	0.075	599385	keystroke_i	i	n/a
299.9175	0.09	599835	keystroke_c	c	n/a
300.0525	0.105	600105	keystroke_Key.space	Key.space	n/a
300.1725	0.105	600345	keystroke_m	m	n/a
300.382	0.0905	600764	keystroke_a	a	n/a
300.5925	0.15	601185	keystroke_i	i	n/a
300.6675	0.12	601335	keystroke_n	n	n/a
301.222	0.045	602444	keystroke_t	t	n/a
301.5825	0.09	603165	keystroke_a	a	n/a
301.7475	0.135	603495	keystroke_i	i	n/a
301.8225	0.135	603645	keystroke_n	n	n/a
302.152	0.0895	604304	keystroke_s	s	n/a
302.8865	0.105	605773	keystroke_Key.enter	Key.enter	n/a
302.9965	10.512	605993	prompt	n/a	culture temple vegetables rehabilitation\n
303.9365	0.121	607873	keystroke_c	c	n/a
304.0265	0.091	608053	keystroke_u	u	n/a
304.2525	0.09	608505	keystroke_l	l	n/a
304.3575	0.119	608715	keystroke_t	t	n/a
304.6415	0.075	609283	keystroke_r	r	n/a
304.9265	0.076	609853	keystroke_Key.backspace	Key.backspace	n/a
305.197	0.015	610394	keystroke_u	u	n/a
305.242	0.12	610484	keystroke_r	r	n/a
305.617	0.105	611234	keystroke_e	e	n/a
305.7825	0.12	611565	keystroke_Key.space	Key.space	n/a
305.9775	0.0895	611955	keystroke_t	t	n/a
306.112	0.135	612224	keystroke_e	e	n/a
306.487	0.15	612974	keystroke_m	m	n/a
306.712	0.12	613424	keystroke_p	p	n/a
306.9815	0.09	613963	keystroke_l	l	n/a
307.1165	0.136	614233	keystroke_e	e	n/a
307.342	0.075	614684	keystroke_Key.space	Key.space	n/a
307.657	0.105	615314	keystroke_v	v	n/a
307.792	0.105	615584	keystroke_e	e	n/a
308.5115	0.075	617023	keystroke_g	g	n/a
308.6165	0.09	617233	keystroke_e	e	n/a
308.7965	0.06	617593	keystroke_t	t	n/a
308.9615	0.075	617923	keystroke_a	a	n/a
309.0515	0.091	618103	keystroke_b	b	n/a
309.2625	0.105	618525	keystroke_l	l	n/a
309.3815	0.1055	618763	keystroke_e	e	n/a
309.547	0.135	619094	keystroke_s	s	n/a
309.697	0.105	619394	keystroke_Key.space	Key.space	n/a
309.967	0.135	619934	keystroke_r	r	n/a
310.057	0.12	620114	keystroke_e	e	n/a
310.2365	0.105	620473	keystroke_h	h	n/a
310.5065	0.015	621013	keystroke_a	a	n/a
310.5965	0.06	621193	keystroke_b	b	n/a
310.9115	0.075	621823	keystroke_i	i	n/a
311.3615	0.09	622723	keystroke_l	l	n/a
311.5715	0.075	623143	keystroke_i	i	n/a
311.7515	0.075	623503	keystroke_t	t	n/a
311.9325	0.0735	623865	keystroke_a	a	n/a
312.022	0.105	624044	keystroke_t	t	n/a
312.142	0.105	624284	keystroke_i	i	n/a
312.322	0.135	624644	keystroke_o	o	n/a
312.412	0.12	624824	keystroke_n	n	n/a
313.4015	0.105	626803	keystroke_Key.enter	Key.enter	n/a
313.5125	12.3855	627025	prompt	n/a	specifically academic monthly aspect\n
314.1215	0.09	628243	keystroke_s	s	n/a
314.467	0.119	628934	keystroke_p	p	n/a
314.617	0.105	629234	keystroke_e	e	n/a
314.857	0.1045	629714	keystroke_c	c	n/a
314.9465	0.105	629893	keystroke_i	i	n/a
315.1265	0.105	630253	keystroke_f	f	n/a
315.2765	0.075	630553	keystroke_i	i	n/a
315.456	0.091	630912	keystroke_c	c	n/a
315.817	0.06	631634	keystroke_a	a	n/a
316.2515	0.0455	632503	keystroke_Key.backspace	Key.backspace	n/a
316.4615	0.06	632923	keystroke_u	u	n/a
316.6265	0.075	633253	keystroke_c	c	n/a
316.957	0.075	633914	keystroke_Key.backspace	Key.backspace	n/a
317.122	0.09	634244	keystroke_Key.backspace	Key.backspace	n/a
317.8265	0.075	635653	keystroke_a	a	n/a
317.9165	0.1805	635833	keystroke_l	l	n/a
318.6365	0.045	637273	keystroke_;	;	n/a
319.2365	0.06	638473	keystroke_Key.backspace	Key.backspace	n/a
319.507	0.075	639014	keystroke_l	l	n/a
319.762	0.0895	639524	keystroke_y	y	n/a
319.9565	0.09	639913	keystroke_Key.space	Key.space	n/a
320.3615	0.195	640723	keystroke_a	a	n/a
320.6915	0.0595	641383	keystroke_c	c	n/a
320.736	0.1655	641472	keystroke_a	a	n/a
320.9315	0.15	641863	keystroke_d	d	n/a
321.0515	0.12	642103	keystroke_e	e	n/a
321.2015	0.09	642403	keystroke_m	m	n/a
321.457	0.075	642914	keystroke_u	u	n/a
321.652	0.0745	643304	keystroke_c	c	n/a
322.281	0.03	644562	keystroke_Key.backspace	Key.backspace	n/a
322.417	0.059	644834	keystroke_Key.backspace	Key.backspace	n/a
322.612	0.045	645224	keystroke_i	i	n/a
322.717	0.135	645434	keystroke_c	c	n/a
322.8365	0.105	645673	keystroke_Key.space	Key.space	n/a
323.0015	0.12	646003	keystroke_m	m	n/a
323.1365	0.09	646273	keystroke_o	o	n/a
323.346	0.075	646692	keystroke_n	n	n/a
323.466	0.15	646932	keystroke_t	t	n/a
323.601	0.06	647202	keystroke_h	h	n/a
323.886	0.1205	647772	keystroke_l	l	n/a
324.1865	0.075	648373	keystroke_y	y	n/a
324.546	0.075	649092	keystroke_Key.space	Key.space	n/a
324.666	0.135	649332	keystroke_a	a	n/a
324.756	0.1355	649512	keystroke_s	s	n/a
324.8765	0.09	649753	keystroke_p	p	n/a
325.0115	0.12	650023	keystroke_e	e	n/a
325.2515	0.0895	650503	keystroke_c	c	n/a
325.506	0.12	651012	keystroke_t	t	n/a
325.746	0.15	651492	keystroke_Key.enter	Key.enter	n/a
325.9005	11.923	651801	prompt	n/a	wrapping restrict losses aboriginal\n
326.7665	0.135	653533	keystroke_w	w	n/a
326.9165	0.09	653833	keystroke_e	e	n/a
327.0215	0.135	654043	keystroke_a	a	n/a
327.4415	0.06	654883	keystroke_Key.backspace	Key.backspace	n/a
327.5765	0.09	655153	keystroke_Key.backspace	Key.backspace	n/a
327.681	0.09	655362	keystroke_r	r	n/a
327.741	0.12	655482	keystroke_a	a	n/a
328.056	0.075	656112	keystroke_p	p	n/a
328.221	0.075	656442	keystroke_p	p	n/a
328.402	0.12	656804	keystroke_i	i	n/a
328.492	0.1045	656984	keystroke_n	n	n/a
328.6115	0.105	657223	keystroke_g	g	n/a
328.7615	0.12	657523	keystroke_Key.space	Key.space	n/a
328.8665	0.105	657733	keystroke_r	r	n/a
328.9415	0.075	657883	keystroke_e	e	n/a
329.1365	0.075	658273	keystroke_s	s	n/a
329.2865	0.135	658573	keystroke_t	t	n/a
329.4065	0.1045	658813	keystroke_r	r	n/a
329.4965	0.0895	658993	keystroke_u	u	n/a
329.661	0.075	659322	keystroke_c	c	n/a
330.156	0.031	660312	keystroke_Key.backspace	Key.backspace	n/a
330.277	0.09	660554	keystroke_Key.backspace	Key.backspace	n/a
330.5315	0.075	661063	keystroke_u	u	n/a
330.6515	0.09	661303	keystroke_s	s	n/a
330.7865	0.1195	661573	keystroke_t	t	n/a
331.086	0.06	662172	keystroke_Key.backspace	Key.backspace	n/a
331.251	0.076	662502	keystroke_Key.backspace	Key.backspace	n/a
331.386	0.076	662772	keystroke_Key.backspace	Key.backspace	n/a
331.6415	0.045	663283	keystroke_u	u	n/a
331.6715	0.105	663343	keystroke_c	c	n/a
331.9115	0.09	663823	keystroke_t	t	n/a
332.2415	0.045	664483	keystroke_Key.backspace	Key.backspace	n/a
332.3615	0.06	664723	keystroke_Key.backspace	Key.backspace	n/a
332.4965	0.0895	664993	keystroke_Key.backspace	Key.backspace	n/a
333.112	0.075	666224	keystroke_i	i	n/a
333.232	0.12	666464	keystroke_c	c	n/a
333.4715	0.075	666943	keystroke_t	t	n/a
333.5615	0.12	667123	keystroke_Key.space	Key.space	n/a
333.7865	0.06	667573	keystroke_l	l	n/a
333.9665	0.045	667933	keystroke_o	o	n/a
334.0715	0.09	668143	keystroke_s	s	n/a
334.2815	0.1205	668563	keystroke_s	s	n/a
334.387	0.1795	668774	keystroke_e	e	n/a
334.5215	0.12	669043	keystroke_s	s	n/a
334.6865	0.09	669373	keystroke_Key.space	Key.space	n/a
334.8215	0.09	669643	keystroke_a	a	n/a
335.2415	0.075	670483	keystroke_b	b	n/a
335.481	0.075	670962	keystroke_o	o	n/a
335.646	0.12	671292	keystroke_r	r	n/a
336.0965	0.075	672193	keystroke_i	i	n/a
336.4715	0.12	672943	keystroke_g	g	n/a
336.6815	0.1055	673363	keystroke_i	i	n/a
336.756	0.106	673512	keystroke_n	n	n/a
336.997	0.0895	673994	keystroke_a	a	n/a
337.102	0.0895	674204	keystroke_l	l	n/a
337.701	0.12	675402	keystroke_Key.enter	Key.enter	n/a
337.8265	11.471	675653	prompt	n/a	dirty crafts palmer composer\n
338.616	0.12	677232	keystroke_d	d	n/a
338.751	0.1055	677502	keystroke_i	i	n/a
338.9015	0.0895	677803	keystroke_r	r	n/a
338.961	0.135	677922	keystroke_e	e	n/a
339.171	0.09	678342	keystroke_t	t	n/a
339.441	0.015	678882	keystroke_y	y	n/a
339.8905	0.076	679781	keystroke_Key.backspace	Key.backspace	n/a
340.0415	0.105	680083	keystroke_Key.backspace	Key.backspace	n/a
340.2815	0.0895	680563	keystroke_Key.backspace	Key.backspace	n/a
340.431	0.1055	680862	keystroke_t	t	n/a
341.346	0.075	682692	keystroke_y	y	n/a
341.541	0.09	683082	keystroke_Key.space	Key.space	n/a
341.691	0.075	683382	keystroke_c	c	n/a
341.871	0.12	683742	keystroke_r	r	n/a
342.0805	0.06	684161	keystroke_a	a	n/a
342.3965	0.045	684793	keystroke_t	t	n/a
342.711	0.09	685422	keystroke_Key.backspace	Key.backspace	n/a
343.206	0.09	686412	keystroke_f	f	n/a
343.386	0.075	686772	keystroke_t	t	n/a
343.596	0.075	687192	keystroke_s	s	n/a
343.776	0.09	687552	keystroke_Key.space	Key.space	n/a
343.9865	0.0895	687973	keystroke_p	p	n/a
344.106	0.09	688212	keystroke_a	a	n/a
344.226	0.105	688452	keystroke_l	l	n/a
344.496	0.12	688992	keystroke_e	e	n/a
344.9315	0.09	689863	keystroke_Key.backspace	Key.backspace	n/a
345.171	0.075	690342	keystroke_k	k	n/a
345.2765	0.12	690553	keystroke_e	e	n/a
345.3655	0.076	690731	keystroke_r	r	n/a
345.5015	0.06	691003	keystroke_Key.space	Key.space	n/a
345.9965	0.075	691993	keystroke_Key.backspace	Key.backspace	n/a
346.1615	0.06	692323	keystroke_Key.backspace	Key.backspace	n/a
346.3115	0.0745	692623	keystroke_Key.backspace	Key.backspace	n/a
346.881	0.105	693762	keystroke_Key.backspace	Key.backspace	n/a
347.151	0.06	694302	keystroke_m	m	n/a
347.301	0.09	694602	keystroke_e	e	n/a
347.376	0.075	694752	keystroke_r	r	n/a
347.4655	0.075	694931	keystroke_Key.space	Key.space	n/a
347.5855	0.12	695171	keystroke_c	c	n/a
347.7515	0.135	695503	keystroke_o	o	n/a
347.9015	0.075	695803	keystroke_m	m	n/a
348.0515	0.0895	696103	keystroke_p	p	n/a
348.246	0.09	696492	keystroke_o	o	n/a
348.441	0.09	696882	keystroke_s	s	n/a
348.6965	0.09	697393	keystroke_e	e	n/a
348.7715	0.075	697543	keystroke_r	r	n/a
349.176	0.1195	698352	keystroke_Key.enter	Key.enter	n/a
349.301	9.2215	698602	prompt	n/a	welcome finnish decent extensive\n
349.8965	0.075	699793	keystroke_w	w	n/a
349.9265	0.105	699853	keystroke_e	e	n/a
350.0615	0.105	700123	keystroke_l	l	n/a
350.181	0.105	700362	keystroke_c	c	n/a
350.331	0.075	700662	keystroke_i	i	n/a
350.9165	0.135	701833	keystroke_Key.backspace	Key.backspace	n/a
351.216	0.135	702432	keystroke_o	o	n/a
351.306	0.105	702612	keystroke_m	m	n/a
351.726	0.09	703452	keystroke_e	e	n/a
351.936	0.06	703872	keystroke_Key.space	Key.space	n/a
352.4455	0.09	704891	keystroke_f	f	n/a
352.5805	0.076	705161	keystroke_i	i	n/a
352.7465	0.06	705493	keystroke_n	n	n/a
352.881	0.045	705762	keystroke_n	n	n/a
353.001	0.03	706002	keystroke_i	i	n/a
353.136	0.0745	706272	keystroke_s	s	n/a
353.2555	0.09	706511	keystroke_h	h	n/a
353.481	0.075	706962	keystroke_Key.space	Key.space	n/a
354.0965	0.15	708193	keystroke_d	d	n/a
354.2015	0.135	708403	keystroke_e	e	n/a
354.4715	0.1345	708943	keystroke_c	c	n/a
354.546	0.1195	709092	keystroke_e	e	n/a
354.6805	0.075	709361	keystroke_n	n	n/a
354.8155	0.121	709631	keystroke_t	t	n/a
355.4615	0.06	710923	keystroke_Key.space	Key.space	n/a
355.656	0.075	711312	keystroke_e	e	n/a
355.851	0.105	711702	keystroke_x	x	n/a
356.091	0.09	712182	keystroke_t	t	n/a
356.241	0.135	712482	keystroke_e	e	n/a
356.811	0.0895	713622	keystroke_n	n	n/a
357.0655	0.121	714131	keystroke_s	s	n/a
357.2015	0.09	714403	keystroke_i	i	n/a
357.4115	0.135	714823	keystroke_v	v	n/a
357.561	0.135	715122	keystroke_e	e	n/a
358.371	0.15	716742	keystroke_Key.enter	Key.enter	n/a
358.5265	8.231	717053	prompt	n/a	wales ferrari republic tapes\n
359.226	0.15	718452	keystroke_w	w	n/a
359.331	0.1195	718662	keystroke_a	a	n/a
359.4355	0.105	718871	keystroke_l	l	n/a
359.5705	0.135	719141	keystroke_e	e	n/a
359.7065	0.119	719413	keystroke_s	s	n/a
359.8865	0.119	719773	keystroke_Key.space	Key.space	n/a
360.426	0.09	720852	keystroke_f	f	n/a
360.636	0.09	721272	keystroke_e	e	n/a
360.8755	0.105	721751	keystroke_r	r	n/a
361.5355	0.105	723071	keystroke_r	r	n/a
361.761	0.165	723522	keystroke_a	a	n/a
361.911	0.105	723822	keystroke_r	r	n/a
362.151	0.0895	724302	keystroke_i	i	n/a
362.5855	0.075	725171	keystroke_Key.space	Key.space	n/a
362.7515	0.06	725503	keystroke_r	r	n/a
362.7665	0.15	725533	keystroke_e	e	n/a
363.2915	0.105	726583	keystroke_p	p	n/a
364.7315	0.075	729463	keystroke_u	u	n/a
364.926	0.06	729852	keystroke_b	b	n/a
365.136	0.09	730272	keystroke_l	l	n/a
365.331	0.0745	730662	keystroke_i	i	n/a
365.5255	0.075	731051	keystroke_c	c	n/a
365.6155	0.075	731231	keystroke_Key.space	Key.space	n/a
365.796	0.045	731592	keystroke_t	t	n/a
365.886	0.09	731772	keystroke_a	a	n/a
366.036	0.09	732072	keystroke_p	p	n/a
366.216	0.06	732432	keystroke_e	e	n/a
366.396	0.0895	732792	keystroke_s	s	n/a
366.6805	0.075	733361	keystroke_Key.enter	Key.enter	n/a
366.7625	9.22	733525	prompt	n/a	concepts guam citations feof\n
367.4015	0.1045	734803	keystroke_c	c	n/a
367.8055	0.105	735611	keystroke_o	o	n/a
368.271	0.1495	736542	keystroke_c	c	n/a
368.3905	0.121	736781	keystroke_e	e	n/a
368.646	0.075	737292	keystroke_p	p	n/a
368.931	0.06	737862	keystroke_Key.backspace	Key.backspace	n/a
369.126	0.03	738252	keystroke_Key.backspace	Key.backspace	n/a
369.246	0.075	738492	keystroke_Key.backspace	Key.backspace	n/a
369.4855	0.045	738971	keystroke_n	n	n/a
369.6055	0.09	739211	keystroke_c	c	n/a
369.6505	0.105	739301	keystroke_e	e	n/a
369.7705	0.0905	739541	keystroke_p	p	n/a
369.921	0.135	739842	keystroke_t	t	n/a
370.281	0.105	740562	keystroke_s	s	n/a
370.431	0.105	740862	keystroke_Key.space	Key.space	n/a
371.1215	0.09	742243	keystroke_g	g	n/a
371.256	0.059	742512	keystroke_u	u	n/a
371.406	0.075	742812	keystroke_a	a	n/a
371.526	0.105	743052	keystroke_m	m	n/a
371.781	0.105	743562	keystroke_Key.space	Key.space	n/a
372.246	0.0745	744492	keystroke_c	c	n/a
372.3355	0.105	744671	keystroke_i	i	n/a
372.8155	0.1205	745631	keystroke_t	t	n/a
373.146	0.075	746292	keystroke_a	a	n/a
373.281	0.1045	746562	keystroke_t	t	n/a
373.4005	0.06	746801	keystroke_i	i	n/a
373.5805	0.12	747161	keystroke_o	o	n/a
373.6555	0.09	747311	keystroke_n	n	n/a
374.136	0.075	748272	keystroke_s	s	n/a
374.2855	0.105	748571	keystroke_Key.space	Key.space	n/a
375.0205	0.09	750041	keystroke_f	f	n/a
375.17	0.091	750340	keystroke_e	e	n/a
375.2755	0.105	750551	keystroke_o	o	n/a
375.4405	0.09	750881	keystroke_f	f	n/a
375.8455	0.1355	751691	keystroke_Key.enter	Key.enter	n/a
375.986	13.1215	751972	prompt	n/a	hypothesis inquiries qualifications tuition\n
376.911	0.045	753822	keystroke_h	h	n/a
377.1955	0.105	754391	keystroke_y	y	n/a
377.7205	0.09	755441	keystroke_p	p	n/a
377.8855	0.09	755771	keystroke_o	o	n/a
378.111	0.075	756222	keystroke_t	t	n/a
378.231	0.075	756462	keystroke_h	h	n/a
378.441	0.075	756882	keystroke_e	e	n/a
378.636	0.1345	757272	keystroke_s	s	n/a
378.8455	0.105	757691	keystroke_i	i	n/a
378.9955	0.075	757991	keystroke_s	s	n/a
379.2655	0.09	758531	keystroke_Key.space	Key.space	n/a
379.6855	0.1045	759371	keystroke_i	i	n/a
379.745	0.121	759490	keystroke_n	n	n/a
380.061	0.09	760122	keystroke_q	q	n/a
380.166	0.075	760332	keystroke_u	u	n/a
380.376	0.045	760752	keystroke_o	o	n/a
381.0355	0.075	762071	keystroke_Key.backspace	Key.backspace	n/a
381.29	0.091	762580	keystroke_i	i	n/a
381.756	0.105	763512	keystroke_r	r	n/a
381.906	0.1195	763812	keystroke_i	i	n/a
382.0405	0.09	764081	keystroke_e	e	n/a
382.2205	0.135	764441	keystroke_s	s	n/a
382.3705	0.105	764741	keystroke_Key.space	Key.space	n/a
382.79	0.1055	765580	keystroke_q	q	n/a
382.9705	0.09	765941	keystroke_u	u	n/a
383.4055	0.075	766811	keystroke_a	a	n/a
383.5255	0.105	767051	keystroke_l	l	n/a
383.7355	0.075	767471	keystroke_i	i	n/a
384.0955	0.09	768191	keystroke_g	g	n/a
384.2155	0.075	768431	keystroke_i	i	n/a
384.6205	0.045	769241	keystroke_Key.backspace	Key.backspace	n/a
384.7555	0.0605	769511	keystroke_Key.backspace	Key.backspace	n/a
384.831	0.075	769662	keystroke_f	f	n/a
385.011	0.0745	770022	keystroke_i	i	n/a
385.2205	0.09	770441	keystroke_c	c	n/a
385.3405	0.09	770681	keystroke_a	a	n/a
385.4905	0.105	770981	keystroke_t	t	n/a
385.5805	0.105	771161	keystroke_i	i	n/a
385.8205	0.15	771641	keystroke_o	o	n/a
385.9255	0.1195	771851	keystroke_n	n	n/a
386.09	0.105	772180	keystroke_s	s	n/a
386.241	0.089	772482	keystroke_Key.space	Key.space	n/a
387.081	0.09	774162	keystroke_t	t	n/a
387.2005	0.09	774401	keystroke_u	u	n/a
387.4555	0.075	774911	keystroke_i	i	n/a
387.6805	0.075	775361	keystroke_t	t	n/a
388.04	0.075	776080	keystroke_i	i	n/a
388.25	0.135	776500	keystroke_o	o	n/a
388.371	0.09	776742	keystroke_n	n	n/a
388.956	0.15	777912	keystroke_Key.enter	Key.enter	n/a
389.111	7.002	778222	prompt	n/a	organize throw http dodge\n
389.9455	0.0895	779891	keystroke_o	o	n/a
390.095	0.091	780190	keystroke_r	r	n/a
390.305	0.0755	780610	keystroke_g	g	n/a
390.4855	0.06	780971	keystroke_a	a	n/a
390.56	0.105	781120	keystroke_n	n	n/a
390.681	0.104	781362	keystroke_i	i	n/a
390.801	0.1195	781602	keystroke_z	z	n/a
391.0105	0.0755	782021	keystroke_e	e	n/a
391.115	0.106	782230	keystroke_Key.space	Key.space	n/a
391.206	0.135	782412	keystroke_t	t	n/a
391.326	0.06	782652	keystroke_h	h	n/a
391.446	0.09	782892	keystroke_r	r	n/a
391.566	0.1195	783132	keystroke_o	o	n/a
391.701	0.119	783402	keystroke_w	w	n/a
391.835	0.105	783670	keystroke_Key.space	Key.space	n/a
392.09	0.121	784180	keystroke_t	t	n/a
392.631	0.0745	785262	keystroke_Key.backspace	Key.backspace	n/a
392.856	0.0895	785712	keystroke_h	h	n/a
392.9305	0.0745	785861	keystroke_t	t	n/a
393.08	0.105	786160	keystroke_t	t	n/a
393.215	0.09	786430	keystroke_p	p	n/a
393.426	0.09	786852	keystroke_Key.space	Key.space	n/a
394.2355	0.105	788471	keystroke_d	d	n/a
394.3255	0.09	788651	keystroke_o	o	n/a
394.5355	0.105	789071	keystroke_g	g	n/a
395.105	0.09	790210	keystroke_Key.backspace	Key.backspace	n/a
395.241	0.12	790482	keystroke_d	d	n/a
395.4505	0.06	790901	keystroke_g	g	n/a
395.6305	0.09	791261	keystroke_e	e	n/a
396.0205	0.09	792041	keystroke_Key.enter	Key.enter	n/a
396.1155	7.4365	792231	prompt	n/a	searched fabric special fathers\n
396.77	0.0905	793540	keystroke_s	s	n/a
396.9205	0.105	793841	keystroke_e	e	n/a
396.9955	0.15	793991	keystroke_a	a	n/a
397.1155	0.09	794231	keystroke_r	r	n/a
397.3255	0.105	794651	keystroke_c	c	n/a
397.4755	0.03	794951	keystroke_h	h	n/a
397.5205	0.075	795041	keystroke_e	e	n/a
397.73	0.045	795460	keystroke_d	d	n/a
397.76	0.105	795520	keystroke_Key.space	Key.space	n/a
398.331	0.06	796662	keystroke_f	f	n/a
398.421	0.105	796842	keystroke_a	a	n/a
398.705	0.09	797410	keystroke_r	r	n/a
399.0805	0.045	798161	keystroke_Key.backspace	Key.backspace	n/a
399.3205	0.03	798641	keystroke_b	b	n/a
399.4105	0.105	798821	keystroke_r	r	n/a
399.5305	0.06	799061	keystroke_i	i	n/a
399.695	0.06	799390	keystroke_c	c	n/a
400.085	0.106	800170	keystroke_Key.space	Key.space	n/a
400.7605	0.105	801521	keystroke_s	s	n/a
400.9255	0.075	801851	keystroke_p	p	n/a
401.0155	0.09	802031	keystroke_e	e	n/a
401.181	0.119	802362	keystroke_c	c	n/a
401.285	0.091	802570	keystroke_i	i	n/a
401.541	0.0745	803082	keystroke_a	a	n/a
401.646	0.1195	803292	keystroke_l	l	n/a
401.84	0.105	803680	keystroke_Key.space	Key.space	n/a
402.276	0.074	804552	keystroke_f	f	n/a
402.366	0.12	804732	keystroke_a	a	n/a
402.5155	0.0895	805031	keystroke_t	t	n/a
402.62	0.075	805240	keystroke_h	h	n/a
402.71	0.06	805420	keystroke_e	e	n/a
402.74	0.1055	805480	keystroke_r	r	n/a
402.905	0.105	805810	keystroke_s	s	n/a
403.3855	0.165	806771	keystroke_Key.enter	Key.enter	n/a
403.555	6.897	807110	prompt	n/a	george connection past variables\n
404.5255	0.09	809051	keystroke_g	g	n/a
404.6905	0.075	809381	keystroke_e	e	n/a
404.7805	0.09	809561	keystroke_o	o	n/a
404.9155	0.075	809831	keystroke_r	r	n/a
405.125	0.06	810250	keystroke_g	g	n/a
405.215	0.0755	810430	keystroke_e	e	n/a
405.4705	0.105	810941	keystroke_c	c	n/a
405.7855	0.09	811571	keystroke_Key.backspace	Key.backspace	n/a
405.9805	0.09	811961	keystroke_Key.space	Key.space	n/a
406.1	0.105	812200	keystroke_c	c	n/a
406.19	0.06	812380	keystroke_o	o	n/a
406.34	0.075	812680	keystroke_n	n	n/a
406.505	0.045	813010	keystroke_n	n	n/a
406.58	0.1355	813160	keystroke_e	e	n/a
406.7005	0.09	813401	keystroke_c	c	n/a
406.895	0.105	813790	keystroke_t	t	n/a
406.985	0.105	813970	keystroke_i	i	n/a
407.12	0.166	814240	keystroke_o	o	n/a
407.21	0.151	814420	keystroke_n	n	n/a
407.465	0.075	814930	keystroke_Key.space	Key.space	n/a
407.7955	0.075	815591	keystroke_p	p	n/a
407.9155	0.09	815831	keystroke_a	a	n/a
407.9755	0.105	815951	keystroke_s	s	n/a
408.1705	0.09	816341	keystroke_t	t	n/a
408.3055	0.105	816611	keystroke_Key.space	Key.space	n/a
408.59	0.06	817180	keystroke_v	v	n/a
408.935	0.09	817870	keystroke_a	a	n/a
409.07	0.1055	818140	keystroke_r	r	n/a
409.1605	0.12	818321	keystroke_i	i	n/a
409.3705	0.0745	818741	keystroke_a	a	n/a
409.461	0.075	818922	keystroke_b	b	n/a
409.655	0.106	819310	keystroke_l	l	n/a
409.776	0.0895	819552	keystroke_e	e	n/a
409.9855	0.075	819971	keystroke_s	s	n/a
410.3005	0.15	820601	keystroke_Key.enter	Key.enter	n/a
410.4555	9.8515	820911	prompt	n/a	costume patient duration ensuring\n
411.515	0.105	823030	keystroke_c	c	n/a
411.635	0.075	823270	keystroke_o	o	n/a
411.77	0.09	823540	keystroke_s	s	n/a
411.936	0.105	823872	keystroke_t	t	n/a
412.026	0.1195	824052	keystroke_u	u	n/a
412.1755	0.135	824351	keystroke_m	m	n/a
412.4605	0.105	824921	keystroke_e	e	n/a
412.6555	0.06	825311	keystroke_Key.space	Key.space	n/a
412.82	0.075	825640	keystroke_p	p	n/a
412.91	0.12	825820	keystroke_a	a	n/a
413.135	0.09	826270	keystroke_t	t	n/a
413.24	0.076	826480	keystroke_i	i	n/a
413.361	0.1345	826722	keystroke_e	e	n/a
413.5105	0.0745	827021	keystroke_n	n	n/a
413.66	0.12	827320	keystroke_t	t	n/a
413.885	0.105	827770	keystroke_Key.space	Key.space	n/a
414.29	0.135	828580	keystroke_d	d	n/a
414.426	0.09	828852	keystroke_u	u	n/a
414.546	0.1495	829092	keystroke_a	a	n/a
414.7105	0.09	829421	keystroke_r	r	n/a
414.9355	0.075	829871	keystroke_t	t	n/a
415.46	0.061	830920	keystroke_Key.backspace	Key.backspace	n/a
415.626	0.044	831252	keystroke_Key.backspace	Key.backspace	n/a
415.7455	0.075	831491	keystroke_Key.backspace	Key.backspace	n/a
415.8355	0.12	831671	keystroke_r	r	n/a
415.9105	0.09	831821	keystroke_a	a	n/a
416.0755	0.105	832151	keystroke_t	t	n/a
416.885	0.075	833770	keystroke_i	i	n/a
417.0055	0.15	834011	keystroke_o	o	n/a
417.0955	0.135	834191	keystroke_n	n	n/a
417.4255	0.09	834851	keystroke_Key.space	Key.space	n/a
417.7855	0.09	835571	keystroke_e	e	n/a
417.9355	0.09	835871	keystroke_n	n	n/a
418.0705	0.09	836141	keystroke_s	s	n/a
418.22	0.09	836440	keystroke_u	u	n/a
418.34	0.09	836680	keystroke_r	r	n/a
418.46	0.12	836920	keystroke_o	o	n/a
418.535	0.15	837070	keystroke_n	n	n/a
419.0745	0.045	838149	keystroke_Key.backspace	Key.backspace	n/a
419.2405	0.06	838481	keystroke_Key.backspace	Key.backspace	n/a
419.4805	0.105	838961	keystroke_i	i	n/a
419.5105	0.135	839021	keystroke_n	n	n/a
419.6905	0.06	839381	keystroke_g	g	n/a
420.1405	0.165	840281	keystroke_Key.enter	Key.enter	n/a
420.3095	6.9425	840619	prompt	n/a	adsl stayed suspected rocks\n
421.055	0.135	842110	keystroke_a	a	n/a
421.175	0.12	842350	keystroke_d	d	n/a
421.4605	0.105	842921	keystroke_s	s	n/a
421.8205	0.12	843641	keystroke_l	l	n/a
422.0305	0.09	844061	keystroke_Key.space	Key.space	n/a
422.1205	0.0745	844241	keystroke_s	s	n/a
422.27	0.09	844540	keystroke_t	t	n/a
422.42	0.09	844840	keystroke_a	a	n/a
422.54	0.105	845080	keystroke_y	y	n/a
422.69	0.09	845380	keystroke_e	e	n/a
422.9	0.0755	845800	keystroke_d	d	n/a
423.0205	0.075	846041	keystroke_Key.space	Key.space	n/a
423.1705	0.09	846341	keystroke_s	s	n/a
423.2455	0.075	846491	keystroke_u	u	n/a
423.365	0.075	846730	keystroke_s	s	n/a
423.56	0.09	847120	keystroke_t	t	n/a
423.785	0.06	847570	keystroke_p	p	n/a
424.2195	0.06	848439	keystroke_Key.backspace	Key.backspace	n/a
424.355	0.06	848710	keystroke_Key.backspace	Key.backspace	n/a
424.595	0.09	849190	keystroke_e	e	n/a
424.955	0.075	849910	keystroke_Key.backspace	Key.backspace	n/a
425.12	0.121	850240	keystroke_p	p	n/a
425.255	0.1645	850510	keystroke_e	e	n/a
425.6155	0.075	851231	keystroke_c	c	n/a
425.825	0.12	851650	keystroke_t	t	n/a
425.96	0.075	851920	keystroke_e	e	n/a
426.125	0.091	852250	keystroke_d	d	n/a
426.245	0.0895	852490	keystroke_Key.space	Key.space	n/a
426.3495	0.106	852699	keystroke_r	r	n/a
426.4245	0.091	852849	keystroke_o	o	n/a
426.7105	0.015	853421	keystroke_c	c	n/a
426.7405	0.06	853481	keystroke_k	k	n/a
426.8755	0.105	853751	keystroke_s	s	n/a
427.1005	0.15	854201	keystroke_Key.enter	Key.enter	n/a
427.2545	8.1425	854509	prompt	n/a	ranking occupations additional paxil\n
427.985	0.075	855970	keystroke_r	r	n/a
428.12	0.0905	856240	keystroke_a	a	n/a
428.2405	0.075	856481	keystroke_n	n	n/a
428.3905	0.0595	856781	keystroke_k	k	n/a
428.555	0.135	857110	keystroke_i	i	n/a
428.615	0.135	857230	keystroke_n	n	n/a
428.72	0.105	857440	keystroke_g	g	n/a
429.1705	0.105	858341	keystroke_Key.space	Key.space	n/a
429.3805	0.105	858761	keystroke_o	o	n/a
429.7255	0.06	859451	keystroke_c	c	n/a
429.86	0.135	859720	keystroke_c	c	n/a
430.04	0.06	860080	keystroke_u	u	n/a
430.46	0.121	860920	keystroke_p	p	n/a
430.625	0.0745	861250	keystroke_a	a	n/a
430.8045	0.091	861609	keystroke_t	t	n/a
430.9105	0.105	861821	keystroke_i	i	n/a
431.0605	0.165	862121	keystroke_o	o	n/a
431.1655	0.135	862331	keystroke_n	n	n/a
431.3305	0.12	862661	keystroke_s	s	n/a
431.4805	0.09	862961	keystroke_Key.space	Key.space	n/a
431.6305	0.09	863261	keystroke_a	a	n/a
431.81	0.0755	863620	keystroke_d	d	n/a
431.9755	0.09	863951	keystroke_d	d	n/a
432.0655	0.12	864131	keystroke_i	i	n/a
432.2305	0.09	864461	keystroke_t	t	n/a
432.3355	0.105	864671	keystroke_i	i	n/a
432.5905	0.12	865181	keystroke_o	o	n/a
432.68	0.105	865360	keystroke_n	n	n/a
432.845	0.105	865690	keystroke_a	a	n/a
432.965	0.09	865930	keystroke_l	l	n/a
433.16	0.075	866320	keystroke_Key.space	Key.space	n/a
433.445	0.1345	866890	keystroke_p	p	n/a
433.6245	0.106	867249	keystroke_a	a	n/a
434.525	0.105	869050	keystroke_x	x	n/a
434.675	0.12	869350	keystroke_i	i	n/a
434.915	0.15	869830	keystroke_l	l	n/a
435.2605	0.1345	870521	keystroke_Key.enter	Key.enter	n/a
435.4	5.7415	870800	prompt	n/a	she's elsewhere love images\n
436.085	0.045	872170	keystroke_s	s	n/a
436.175	0.0745	872350	keystroke_h	h	n/a
436.2955	0.104	872591	keystroke_e	e	n/a
436.4445	0.09	872889	keystroke_'	'	n/a
436.6255	0.075	873251	keystroke_s	s	n/a
436.7755	0.1045	873551	keystroke_Key.space	Key.space	n/a
436.94	0.09	873880	keystroke_e	e	n/a
437.06	0.09	874120	keystroke_l	l	n/a
437.285	0.1205	874570	keystroke_s	s	n/a
437.4205	0.089	874841	keystroke_e	e	n/a
437.6155	0.09	875231	keystroke_w	w	n/a
437.7955	0.075	875591	keystroke_h	h	n/a
437.8855	0.075	875771	keystroke_e	e	n/a
437.9455	0.15	875891	keystroke_r	r	n/a
438.0655	0.09	876131	keystroke_e	e	n/a
438.1855	0.1195	876371	keystroke_Key.space	Key.space	n/a
438.575	0.075	877150	keystroke_l	l	n/a
438.755	0.09	877510	keystroke_o	o	n/a
438.9055	0.12	877811	keystroke_v	v	n/a
439.0105	0.075	878021	keystroke_e	e	n/a
439.55	0.075	879100	keystroke_Key.space	Key.space	n/a
439.685	0.135	879370	keystroke_i	i	n/a
439.835	0.105	879670	keystroke_m	m	n/a
439.955	0.06	879910	keystroke_a	a	n/a
440.1345	0.09	880269	keystroke_g	g	n/a
440.6305	0.09	881261	keystroke_e	e	n/a
440.8255	0.0895	881651	keystroke_s	s	n/a
441.02	0.12	882040	keystroke_Key.enter	Key.enter	n/a
441.1535	7.3985	882307	prompt	n/a	arctic parameters region metallic\n
441.7405	0.075	883481	keystroke_a	a	n/a
441.9805	0.0895	883961	keystroke_r	r	n/a
442.055	0.09	884110	keystroke_t	t	n/a
442.3995	0.075	884799	keystroke_Key.backspace	Key.backspace	n/a
442.4905	0.09	884981	keystroke_c	c	n/a
442.7005	0.0895	885401	keystroke_t	t	n/a
442.7755	0.0895	885551	keystroke_i	i	n/a
442.985	0.06	885970	keystroke_c	c	n/a
443.06	0.09	886120	keystroke_Key.space	Key.space	n/a
443.2695	0.09	886539	keystroke_p	p	n/a
443.3905	0.104	886781	keystroke_a	a	n/a
443.4795	0.135	886959	keystroke_r	r	n/a
443.6295	0.106	887259	keystroke_a	a	n/a
443.8105	0.105	887621	keystroke_m	m	n/a
444.0055	0.12	888011	keystroke_e	e	n/a
444.17	0.105	888340	keystroke_t	t	n/a
444.455	0.12	888910	keystroke_e	e	n/a
444.515	0.12	889030	keystroke_r	r	n/a
444.785	0.105	889570	keystroke_s	s	n/a
445.01	0.075	890020	keystroke_Key.space	Key.space	n/a
445.1895	0.09	890379	keystroke_r	r	n/a
445.2495	0.12	890499	keystroke_e	e	n/a
445.5505	0.105	891101	keystroke_g	g	n/a
445.7005	0.075	891401	keystroke_i	i	n/a
446.075	0.1345	892150	keystroke_o	o	n/a
446.3755	0.09	892751	keystroke_n	n	n/a
446.5855	0.12	893171	keystroke_Key.space	Key.space	n/a
446.7505	0.09	893501	keystroke_m	m	n/a
446.9	0.09	893800	keystroke_e	e	n/a
447.2595	0.12	894519	keystroke_t	t	n/a
447.5	0.075	895000	keystroke_a	a	n/a
447.62	0.105	895240	keystroke_l	l	n/a
447.8	0.09	895600	keystroke_l	l	n/a
447.98	0.075	895960	keystroke_i	i	n/a
448.175	0.075	896350	keystroke_c	c	n/a
448.3995	0.15	896799	keystroke_Key.enter	Key.enter	n/a
448.559	7.898	897118	prompt	n/a	fellowship measuring groups getting\n
449.405	0.06	898810	keystroke_f	f	n/a
449.45	0.12	898900	keystroke_e	e	n/a
449.585	0.09	899170	keystroke_l	l	n/a
449.735	0.09	899470	keystroke_l	l	n/a
449.9	0.075	899800	keystroke_o	o	n/a
449.99	0.09	899980	keystroke_w	w	n/a
450.2	0.1045	900400	keystroke_s	s	n/a
450.2745	0.105	900549	keystroke_h	h	n/a
450.4245	0.09	900849	keystroke_o	o	n/a
450.815	0.075	901630	keystroke_Key.backspace	Key.backspace	n/a
451.04	0.135	902080	keystroke_i	i	n/a
451.19	0.1495	902380	keystroke_p	p	n/a
451.775	0.075	903550	keystroke_Key.space	Key.space	n/a
451.9555	0.09	903911	keystroke_m	m	n/a
452.0605	0.09	904121	keystroke_e	e	n/a
452.1805	0.1495	904361	keystroke_a	a	n/a
452.345	0.105	904690	keystroke_s	s	n/a
452.465	0.105	904930	keystroke_u	u	n/a
452.8695	0.09	905739	keystroke_r	r	n/a
453.0205	0.165	906041	keystroke_i	i	n/a
453.1255	0.12	906251	keystroke_n	n	n/a
453.2155	0.105	906431	keystroke_g	g	n/a
453.605	0.105	907210	keystroke_Key.space	Key.space	n/a
454.2655	0.1195	908531	keystroke_g	g	n/a
454.37	0.15	908740	keystroke_r	r	n/a
454.49	0.135	908980	keystroke_o	o	n/a
454.58	0.105	909160	keystroke_u	u	n/a
454.76	0.1205	909520	keystroke_p	p	n/a
454.9105	0.075	909821	keystroke_s	s	n/a
455.1055	0.09	910211	keystroke_Key.space	Key.space	n/a
455.345	0.105	910690	keystroke_g	g	n/a
455.525	0.105	911050	keystroke_e	e	n/a
455.615	0.0745	911230	keystroke_t	t	n/a
455.7645	0.091	911529	keystroke_t	t	n/a
455.8705	0.09	911741	keystroke_i	i	n/a
455.9005	0.135	911801	keystroke_n	n	n/a
456.0505	0.09	912101	keystroke_g	g	n/a
456.305	0.15	912610	keystroke_Key.enter	Key.enter	n/a
456.46	7.8865	912920	prompt	n/a	progressive carriers steps parliament\n
457.235	0.09	914470	keystroke_p	p	n/a
457.355	0.09	914710	keystroke_r	r	n/a
457.49	0.105	914980	keystroke_o	o	n/a
457.61	0.12	915220	keystroke_g	g	n/a
457.7	0.105	915400	keystroke_r	r	n/a
457.8955	0.0745	915791	keystroke_e	e	n/a
458.2545	0.06	916509	keystroke_s	s	n/a
458.39	0.075	916780	keystroke_s	s	n/a
458.525	0.075	917050	keystroke_i	i	n/a
458.645	0.12	917290	keystroke_v	v	n/a
458.766	0.0595	917532	keystroke_e	e	n/a
458.8405	0.1195	917681	keystroke_Key.space	Key.space	n/a
458.99	0.1345	917980	keystroke_c	c	n/a
459.1255	0.089	918251	keystroke_a	a	n/a
459.2445	0.075	918489	keystroke_r	r	n/a
459.4105	0.089	918821	keystroke_r	r	n/a
459.5455	0.075	919091	keystroke_i	i	n/a
459.6495	0.106	919299	keystroke_e	e	n/a
459.7405	0.105	919481	keystroke_r	r	n/a
459.965	0.09	919930	keystroke_s	s	n/a
460.16	0.105	920320	keystroke_Key.space	Key.space	n/a
460.445	0.06	920890	keystroke_d	d	n/a
460.8805	0.0895	921761	keystroke_Key.backspace	Key.backspace	n/a
460.985	0.06	921970	keystroke_s	s	n/a
461.135	0.09	922270	keystroke_t	t	n/a
461.21	0.09	922420	keystroke_e	e	n/a
461.315	0.105	922630	keystroke_p	p	n/a
461.51	0.06	923020	keystroke_s	s	n/a
461.8095	0.09	923619	keystroke_Key.space	Key.space	n/a
462.1245	0.136	924249	keystroke_a	a	n/a
462.4095	0.105	924819	keystroke_Key.backspace	Key.backspace	n/a
462.7705	0.0595	925541	keystroke_p	p	n/a
462.845	0.1345	925690	keystroke_a	a	n/a
462.9945	0.09	925989	keystroke_r	r	n/a
463.1145	0.075	926229	keystroke_l	l	n/a
463.2945	0.06	926589	keystroke_i	i	n/a
463.4005	0.075	926801	keystroke_a	a	n/a
463.5805	0.09	927161	keystroke_m	m	n/a
463.7155	0.1195	927431	keystroke_e	e	n/a
463.836	0.044	927672	keystroke_n	n	n/a
463.9545	0.12	927909	keystroke_t	t	n/a
464.195	0.1495	928390	keystroke_Key.enter	Key.enter	n/a
464.349	7.9025	928698	prompt	n/a	founded everyone novelty consoles\n
465.095	0.1055	930190	keystroke_f	f	n/a
465.1855	0.1795	930371	keystroke_o	o	n/a
465.305	0.075	930610	keystroke_u	u	n/a
465.53	0.06	931060	keystroke_n	n	n/a
465.755	0.12	931510	keystroke_d	d	n/a
465.89	0.12	931780	keystroke_e	e	n/a
465.995	0.1495	931990	keystroke_d	d	n/a
466.1745	0.12	932349	keystroke_Key.space	Key.space	n/a
466.3245	0.105	932649	keystroke_e	e	n/a
466.9545	0.09	933909	keystroke_v	v	n/a
467.1195	0.12	934239	keystroke_e	e	n/a
467.1945	0.135	934389	keystroke_r	r	n/a
467.4055	0.0895	934811	keystroke_y	y	n/a
467.6	0.15	935200	keystroke_o	o	n/a
467.69	0.1045	935380	keystroke_n	n	n/a
467.8545	0.1055	935709	keystroke_e	e	n/a
468.0195	0.105	936039	keystroke_Key.space	Key.space	n/a
469.07	0.045	938140	keystroke_n	n	n/a
469.22	0.105	938440	keystroke_o	o	n/a
469.355	0.075	938710	keystroke_v	v	n/a
469.505	0.105	939010	keystroke_e	e	n/a
469.625	0.1045	939250	keystroke_l	l	n/a
469.7745	0.105	939549	keystroke_t	t	n/a
469.9995	0.105	939999	keystroke_y	y	n/a
470.3595	0.0755	940719	keystroke_Key.space	Key.space	n/a
470.69	0.135	941380	keystroke_c	c	n/a
470.825	0.105	941650	keystroke_o	o	n/a
470.99	0.12	941980	keystroke_n	n	n/a
471.2	0.09	942400	keystroke_s	s	n/a
471.275	0.105	942550	keystroke_o	o	n/a
471.44	0.12	942880	keystroke_l	l	n/a
471.575	0.1045	943150	keystroke_e	e	n/a
471.7995	0.105	943599	keystroke_s	s	n/a
472.1295	0.12	944259	keystroke_Key.enter	Key.enter	n/a
472.2555	7.061	944511	prompt	n/a	impacts storm strategies insurance\n
472.9695	0.09	945939	keystroke_i	i	n/a
473.0295	0.105	946059	keystroke_m	m	n/a
473.2245	0.105	946449	keystroke_p	p	n/a
473.345	0.0745	946690	keystroke_a	a	n/a
473.5545	0.091	947109	keystroke_c	c	n/a
473.795	0.075	947590	keystroke_t	t	n/a
473.99	0.06	947980	keystroke_s	s	n/a
474.095	0.105	948190	keystroke_Key.space	Key.space	n/a
474.23	0.075	948460	keystroke_s	s	n/a
474.425	0.105	948850	keystroke_t	t	n/a
474.5	0.09	949000	keystroke_o	o	n/a
474.65	0.0895	949300	keystroke_r	r	n/a
474.7095	0.0905	949419	keystroke_m	m	n/a
474.92	0.075	949840	keystroke_Key.space	Key.space	n/a
475.1745	0.045	950349	keystroke_s	s	n/a
475.3695	0.12	950739	keystroke_t	t	n/a
475.4295	0.105	950859	keystroke_r	r	n/a
475.9855	0.06	951971	keystroke_a	a	n/a
476.39	0.105	952780	keystroke_t	t	n/a
476.585	0.075	953170	keystroke_e	e	n/a
476.75	0.09	953500	keystroke_g	g	n/a
476.855	0.105	953710	keystroke_i	i	n/a
477.005	0.0745	954010	keystroke_e	e	n/a
477.1845	0.09	954369	keystroke_s	s	n/a
477.2895	0.075	954579	keystroke_Key.space	Key.space	n/a
477.4095	0.1055	954819	keystroke_i	i	n/a
477.47	0.105	954940	keystroke_n	n	n/a
477.89	0.105	955780	keystroke_s	s	n/a
478.0545	0.06	956109	keystroke_u	u	n/a
478.1745	0.12	956349	keystroke_r	r	n/a
478.3845	0.075	956769	keystroke_a	a	n/a
478.4895	0.075	956979	keystroke_n	n	n/a
478.6095	0.121	957219	keystroke_c	c	n/a
478.7745	0.06	957549	keystroke_e	e	n/a
479.1795	0.135	958359	keystroke_Key.enter	Key.enter	n/a
479.319	6.2675	958638	prompt	n/a	homeland humor babies hyundai\n
480.0795	0.0905	960159	keystroke_h	h	n/a
480.29	0.06	960580	keystroke_o	o	n/a
480.305	0.105	960610	keystroke_m	m	n/a
480.455	0.09	960910	keystroke_e	e	n/a
480.59	0.075	961180	keystroke_l	l	n/a
480.725	0.0895	961450	keystroke_a	a	n/a
480.8445	0.106	961689	keystroke_n	n	n/a
480.9655	0.0895	961931	keystroke_d	d	n/a
481.1	0.105	962200	keystroke_Key.space	Key.space	n/a
481.235	0.105	962470	keystroke_h	h	n/a
481.31	0.135	962620	keystroke_u	u	n/a
481.58	0.075	963160	keystroke_m	m	n/a
481.76	0.075	963520	keystroke_o	o	n/a
481.895	0.09	963790	keystroke_r	r	n/a
482.045	0.075	964090	keystroke_Key.space	Key.space	n/a
482.1945	0.075	964389	keystroke_b	b	n/a
482.2845	0.075	964569	keystroke_a	a	n/a
482.3745	0.06	964749	keystroke_b	b	n/a
482.5095	0.105	965019	keystroke_i	i	n/a
482.6745	0.0905	965349	keystroke_e	e	n/a
482.855	0.105	965710	keystroke_s	s	n/a
482.99	0.1045	965980	keystroke_Key.space	Key.space	n/a
483.1995	0.09	966399	keystroke_h	h	n/a
484.055	0.09	968110	keystroke_y	y	n/a
484.2795	0.06	968559	keystroke_u	u	n/a
484.4445	0.075	968889	keystroke_n	n	n/a
484.6095	0.105	969219	keystroke_d	d	n/a
484.7745	0.121	969549	keystroke_a	a	n/a
484.94	0.045	969880	keystroke_i	i	n/a
485.45	0.135	970900	keystroke_Key.enter	Key.enter	n/a
485.59	13.976	971180	prompt	n/a	refer architectural minerals galleries\n
486.3345	0.1055	972669	keystroke_r	r	n/a
486.38	0.12	972760	keystroke_e	e	n/a
486.605	0.075	973210	keystroke_f	f	n/a
486.7245	0.105	973449	keystroke_e	e	n/a
486.8145	0.105	973629	keystroke_r	r	n/a
487.1595	0.075	974319	keystroke_Key.space	Key.space	n/a
487.6245	0.091	975249	keystroke_a	a	n/a
488.09	0.045	976180	keystroke_r	r	n/a
488.27	0.0895	976540	keystroke_c	c	n/a
488.4195	0.105	976839	keystroke_h	h	n/a
488.5095	0.105	977019	keystroke_i	i	n/a
488.7795	0.09	977559	keystroke_t	t	n/a
488.9745	0.075	977949	keystroke_e	e	n/a
489.1845	0.061	978369	keystroke_c	c	n/a
489.3645	0.0905	978729	keystroke_t	t	n/a
489.47	0.075	978940	keystroke_u	u	n/a
489.575	0.06	979150	keystroke_r	r	n/a
489.755	0.075	979510	keystroke_a	a	n/a
489.89	0.105	979780	keystroke_l	l	n/a
490.3245	0.075	980649	keystroke_Key.space	Key.space	n/a
490.5345	0.075	981069	keystroke_m	m	n/a
490.6395	0.135	981279	keystroke_i	i	n/a
490.7895	0.12	981579	keystroke_n	n	n/a
491.0145	0.136	982029	keystroke_d	d	n/a
491.1805	0.1195	982361	keystroke_e	e	n/a
491.2705	0.0745	982541	keystroke_r	r	n/a
491.419	0.1655	982838	keystroke_a	a	n/a
491.5395	0.09	983079	keystroke_l	l	n/a
492.2445	0.045	984489	keystroke_Key.backspace	Key.backspace	n/a
492.4095	0.045	984819	keystroke_Key.backspace	Key.backspace	n/a
492.5745	0.045	985149	keystroke_Key.backspace	Key.backspace	n/a
492.7395	0.03	985479	keystroke_Key.backspace	Key.backspace	n/a
492.8745	0.105	985749	keystroke_Key.backspace	Key.backspace	n/a
493.13	0.09	986260	keystroke_e	e	n/a
493.205	0.075	986410	keystroke_r	r	n/a
493.505	0.1045	987010	keystroke_l	l	n/a
493.8195	0.075	987639	keystroke_Key.backspace	Key.backspace	n/a
493.9245	0.1205	987849	keystroke_a	a	n/a
494.12	0.045	988240	keystroke_;	;	n/a
494.225	0.105	988450	keystroke_s	s	n/a
494.6	0.075	989200	keystroke_Key.backspace	Key.backspace	n/a
494.75	0.089	989500	keystroke_Key.backspace	Key.backspace	n/a
495.02	0.03	990040	keystroke_k	k	n/a
495.125	0.1045	990250	keystroke_s	s	n/a
495.4995	0.06	990999	keystroke_Key.backspace	Key.backspace	n/a
495.6345	0.075	991269	keystroke_Key.backspace	Key.backspace	n/a
495.874	0.046	991748	keystroke_l	l	n/a
495.965	0.105	991930	keystroke_s	s	n/a
496.175	0.105	992350	keystroke_Key.space	Key.space	n/a
496.82	0.03	993640	keystroke_f	f	n/a
497.555	0.09	995110	keystroke_Key.backspace	Key.backspace	n/a
497.675	0.0745	995350	keystroke_g	g	n/a
497.8695	0.06	995739	keystroke_a	a	n/a
497.9445	0.045	995889	keystroke_l	l	n/a
498.0795	0.06	996159	keystroke_l	l	n/a
498.2145	0.075	996429	keystroke_e	e	n/a
498.2745	0.09	996549	keystroke_r	r	n/a
498.3795	0.045	996759	keystroke_i	i	n/a
498.8895	0.09	997779	keystroke_e	e	n/a
499.1145	0.075	998229	keystroke_s	s	n/a
499.4595	0.105	998919	keystroke_Key.enter	Key.enter	n/a
499.5695	7.063	999139	prompt	n/a	adidas holy cancelled test\n
500.284	0.091	1000568	keystroke_a	a	n/a
500.45	0.135	1000900	keystroke_d	d	n/a
500.6295	0.075	1001259	keystroke_i	i	n/a
500.78	0.075	1001560	keystroke_d	d	n/a
501.02	0.105	1002040	keystroke_a	a	n/a
501.6645	0.105	1003329	keystroke_s	s	n/a
501.9345	0.105	1003869	keystroke_Key.space	Key.space	n/a
502.189	0.091	1004378	keystroke_h	h	n/a
502.385	0.105	1004770	keystroke_o	o	n/a
502.595	0.075	1005190	keystroke_l	l	n/a
502.8045	0.105	1005609	keystroke_d	d	n/a
503.3595	0.075	1006719	keystroke_Key.backspace	Key.backspace	n/a
503.9445	0.1055	1007889	keystroke_y	y	n/a
504.23	0.075	1008460	keystroke_Key.space	Key.space	n/a
504.47	0.075	1008940	keystroke_c	c	n/a
504.56	0.09	1009120	keystroke_a	a	n/a
504.635	0.09	1009270	keystroke_n	n	n/a
504.8	0.1045	1009600	keystroke_c	c	n/a
504.8745	0.09	1009749	keystroke_e	e	n/a
504.9795	0.105	1009959	keystroke_l	l	n/a
505.1295	0.075	1010259	keystroke_l	l	n/a
505.2495	0.075	1010499	keystroke_e	e	n/a
505.4145	0.105	1010829	keystroke_d	d	n/a
505.5645	0.09	1011129	keystroke_Key.space	Key.space	n/a
505.6995	0.0895	1011399	keystroke_t	t	n/a
505.805	0.104	1011610	keystroke_e	e	n/a
506.0745	0.0755	1012149	keystroke_s	s	n/a
506.239	0.076	1012478	keystroke_t	t	n/a
506.51	0.12	1013020	keystroke_Key.enter	Key.enter	n/a
506.6385	6.788	1013277	prompt	n/a	composed points beef secrets\n
507.395	0.074	1014790	keystroke_c	c	n/a
507.545	0.135	1015090	keystroke_o	o	n/a
507.95	0.045	1015900	keystroke_m	m	n/a
508.145	0.12	1016290	keystroke_p	p	n/a
508.3545	0.105	1016709	keystroke_o	o	n/a
508.6395	0.015	1017279	keystroke_s	s	n/a
508.775	0.09	1017550	keystroke_e	e	n/a
508.97	0.09	1017940	keystroke_d	d	n/a
509.15	0.0745	1018300	keystroke_Key.space	Key.space	n/a
509.3895	0.12	1018779	keystroke_p	p	n/a
509.4945	0.105	1018989	keystroke_o	o	n/a
509.7345	0.105	1019469	keystroke_i	i	n/a
509.8245	0.09	1019649	keystroke_n	n	n/a
509.8995	0.075	1019799	keystroke_t	t	n/a
510.184	0.136	1020368	keystroke_s	s	n/a
510.349	0.121	1020698	keystroke_Key.space	Key.space	n/a
510.545	0.09	1021090	keystroke_b	b	n/a
510.65	0.09	1021300	keystroke_e	e	n/a
510.815	0.12	1021630	keystroke_e	e	n/a
510.995	0.104	1021990	keystroke_f	f	n/a
511.174	0.121	1022348	keystroke_Key.space	Key.space	n/a
511.7595	0.09	1023519	keystroke_s	s	n/a
511.9995	0.09	1023999	keystroke_e	e	n/a
512.2545	0.045	1024509	keystroke_c	c	n/a
512.4345	0.075	1024869	keystroke_r	r	n/a
512.4495	0.135	1024899	keystroke_e	e	n/a
512.6295	0.09	1025259	keystroke_t	t	n/a
512.87	0.09	1025740	keystroke_s	s	n/a
513.2895	0.135	1026579	keystroke_Key.enter	Key.enter	n/a
513.429	8.307	1026858	prompt	n/a	emerging taken relying fragrance\n
514.07	0.104	1028140	keystroke_e	e	n/a
514.22	0.0745	1028440	keystroke_m	m	n/a
514.3245	0.165	1028649	keystroke_e	e	n/a
514.4295	0.12	1028859	keystroke_r	r	n/a
514.6545	0.105	1029309	keystroke_g	g	n/a
514.8045	0.06	1029609	keystroke_u	u	n/a
515.1795	0.09	1030359	keystroke_Key.backspace	Key.backspace	n/a
515.479	0.135	1030958	keystroke_i	i	n/a
515.599	0.075	1031198	keystroke_n	n	n/a
515.66	0.075	1031320	keystroke_g	g	n/a
515.855	0.09	1031710	keystroke_Key.space	Key.space	n/a
515.87	0.09	1031740	keystroke_t	t	n/a
516.125	0.1045	1032250	keystroke_e	e	n/a
516.4245	0.09	1032849	keystroke_a	a	n/a
516.7395	0.03	1033479	keystroke_Key.backspace	Key.backspace	n/a
516.8595	0.105	1033719	keystroke_Key.backspace	Key.backspace	n/a
516.9945	0.135	1033989	keystroke_a	a	n/a
517.174	0.076	1034348	keystroke_k	k	n/a
517.294	0.12	1034588	keystroke_e	e	n/a
517.399	0.121	1034798	keystroke_n	n	n/a
517.64	0.105	1035280	keystroke_Key.space	Key.space	n/a
517.85	0.045	1035700	keystroke_r	r	n/a
517.865	0.105	1035730	keystroke_e	e	n/a
517.985	0.0895	1035970	keystroke_l	l	n/a
518.3595	0.045	1036719	keystroke_y	y	n/a
518.3745	0.03	1036749	keystroke_u	u	n/a
518.8395	0.09	1037679	keystroke_Key.backspace	Key.backspace	n/a
519.259	0.12	1038518	keystroke_i	i	n/a
519.334	0.12	1038668	keystroke_n	n	n/a
519.5	0.075	1039000	keystroke_g	g	n/a
519.605	0.1045	1039210	keystroke_Key.space	Key.space	n/a
520.009	0.09	1040018	keystroke_f	f	n/a
520.114	0.105	1040228	keystroke_r	r	n/a
520.354	0.0605	1040708	keystroke_a	a	n/a
520.6845	0.075	1041369	keystroke_g	g	n/a
520.7745	0.1195	1041549	keystroke_r	r	n/a
521	0.0895	1042000	keystroke_a	a	n/a
521.1345	0.09	1042269	keystroke_n	n	n/a
521.27	0.135	1042540	keystroke_c	c	n/a
521.389	0.091	1042778	keystroke_e	e	n/a
521.585	0.15	1043170	keystroke_Key.enter	Key.enter	n/a
521.745	7.281	1043490	prompt	n/a	norton berlin straight announcement\n
522.965	0.06	1045930	keystroke_n	n	n/a
523.2945	0.105	1046589	keystroke_o	o	n/a
523.4295	0.105	1046859	keystroke_r	r	n/a
523.5195	0.045	1047039	keystroke_t	t	n/a
523.7445	0.135	1047489	keystroke_o	o	n/a
523.8195	0.12	1047639	keystroke_n	n	n/a
524.0595	0.1355	1048119	keystroke_Key.space	Key.space	n/a
524.24	0.075	1048480	keystroke_b	b	n/a
524.405	0.165	1048810	keystroke_e	e	n/a
524.51	0.105	1049020	keystroke_r	r	n/a
524.63	0.105	1049260	keystroke_l	l	n/a
524.8545	0.1505	1049709	keystroke_i	i	n/a
524.9595	0.12	1049919	keystroke_n	n	n/a
525.274	0.075	1050548	keystroke_Key.space	Key.space	n/a
525.38	0.075	1050760	keystroke_s	s	n/a
525.605	0.12	1051210	keystroke_t	t	n/a
525.635	0.15	1051270	keystroke_r	r	n/a
525.8895	0.105	1051779	keystroke_a	a	n/a
526.0095	0.105	1052019	keystroke_i	i	n/a
526.1445	0.105	1052289	keystroke_g	g	n/a
526.2945	0.09	1052589	keystroke_h	h	n/a
526.3695	0.06	1052739	keystroke_t	t	n/a
526.4745	0.1205	1052949	keystroke_Key.space	Key.space	n/a
526.565	0.09	1053130	keystroke_a	a	n/a
526.685	0.045	1053370	keystroke_n	n	n/a
526.8195	0.0595	1053639	keystroke_n	n	n/a
527.0145	0.045	1054029	keystroke_o	o	n/a
527.0295	0.09	1054059	keystroke_u	u	n/a
527.3595	0.09	1054719	keystroke_n	n	n/a
527.5245	0.12	1055049	keystroke_c	c	n/a
527.9295	0.06	1055859	keystroke_e	e	n/a
528.0645	0.09	1056129	keystroke_m	m	n/a
528.1995	0.09	1056399	keystroke_e	e	n/a
528.2745	0.075	1056549	keystroke_n	n	n/a
528.4845	0.075	1056969	keystroke_t	t	n/a
528.844	0.18	1057688	keystroke_Key.enter	Key.enter	n/a
529.033	7.313	1058066	prompt	n/a	is mutual exposure periodic\n
529.76	0.045	1059520	keystroke_u	u	n/a
529.85	0.1045	1059700	keystroke_s	s	n/a
529.9545	0.105	1059909	keystroke_Key.space	Key.space	n/a
530.4045	0.045	1060809	keystroke_Key.backspace	Key.backspace	n/a
530.5395	0.0755	1061079	keystroke_Key.backspace	Key.backspace	n/a
530.69	0.09	1061380	keystroke_Key.backspace	Key.backspace	n/a
530.8845	0.075	1061769	keystroke_i	i	n/a
530.99	0.074	1061980	keystroke_s	s	n/a
531.109	0.12	1062218	keystroke_Key.space	Key.space	n/a
531.26	0.12	1062520	keystroke_m	m	n/a
531.515	0.105	1063030	keystroke_u	u	n/a
531.71	0.0745	1063420	keystroke_t	t	n/a
531.8145	0.09	1063629	keystroke_u	u	n/a
532.2495	0.075	1064499	keystroke_a	a	n/a
532.3845	0.09	1064769	keystroke_l	l	n/a
532.5945	0.0895	1065189	keystroke_Key.space	Key.space	n/a
532.834	0.105	1065668	keystroke_e	e	n/a
533.045	0.105	1066090	keystroke_x	x	n/a
533.179	0.135	1066358	keystroke_p	p	n/a
533.239	0.105	1066478	keystroke_o	o	n/a
533.525	0.09	1067050	keystroke_s	s	n/a
533.78	0.1195	1067560	keystroke_u	u	n/a
533.9895	0.105	1067979	keystroke_r	r	n/a
534.0495	0.12	1068099	keystroke_e	e	n/a
534.2595	0.105	1068519	keystroke_Key.space	Key.space	n/a
534.4695	0.0755	1068939	keystroke_p	p	n/a
534.56	0.12	1069120	keystroke_e	e	n/a
534.635	0.134	1069270	keystroke_r	r	n/a
535.2945	0.06	1070589	keystroke_i	i	n/a
535.4595	0.075	1070919	keystroke_o	o	n/a
535.6395	0.12	1071279	keystroke_d	d	n/a
535.7745	0.1045	1071549	keystroke_i	i	n/a
535.984	0.09	1071968	keystroke_c	c	n/a
536.194	0.15	1072388	keystroke_Key.enter	Key.enter	n/a
536.349	6.582	1072698	prompt	n/a	itself highest glance informative\n
537.214	0.06	1074428	keystroke_i	i	n/a
537.305	0.1045	1074610	keystroke_t	t	n/a
537.5295	0.1645	1075059	keystroke_s	s	n/a
537.6195	0.1195	1075239	keystroke_e	e	n/a
537.754	0.09	1075508	keystroke_l	l	n/a
537.859	0.105	1075718	keystroke_f	f	n/a
538.009	0.105	1076018	keystroke_Key.space	Key.space	n/a
538.55	0.1045	1077100	keystroke_h	h	n/a
538.625	0.1045	1077250	keystroke_i	i	n/a
538.759	0.105	1077518	keystroke_g	g	n/a
538.879	0.09	1077758	keystroke_h	h	n/a
539.059	0.045	1078118	keystroke_t	t	n/a
539.435	0.075	1078870	keystroke_Key.backspace	Key.backspace	n/a
539.54	0.105	1079080	keystroke_e	e	n/a
539.7345	0.075	1079469	keystroke_s	s	n/a
539.8695	0.105	1079739	keystroke_t	t	n/a
540.0045	0.12	1080009	keystroke_Key.space	Key.space	n/a
540.3795	0.075	1080759	keystroke_g	g	n/a
540.4845	0.09	1080969	keystroke_l	l	n/a
540.6195	0.1205	1081239	keystroke_a	a	n/a
540.755	0.075	1081510	keystroke_n	n	n/a
540.845	0.165	1081690	keystroke_c	c	n/a
540.965	0.1195	1081930	keystroke_e	e	n/a
541.1145	0.135	1082229	keystroke_Key.space	Key.space	n/a
541.2345	0.135	1082469	keystroke_i	i	n/a
541.2945	0.105	1082589	keystroke_n	n	n/a
541.4145	0.0895	1082829	keystroke_f	f	n/a
541.52	0.105	1083040	keystroke_o	o	n/a
541.654	0.091	1083308	keystroke_r	r	n/a
541.76	0.09	1083520	keystroke_m	m	n/a
541.88	0.06	1083760	keystroke_a	a	n/a
542.1345	0.1045	1084269	keystroke_t	t	n/a
542.314	0.06	1084628	keystroke_i	i	n/a
542.464	0.121	1084928	keystroke_v	v	n/a
542.599	0.106	1085198	keystroke_e	e	n/a
542.78	0.1495	1085560	keystroke_Key.enter	Key.enter	n/a
542.936	6.7	1085872	prompt	n/a	kerry collar we're what\n
543.89	0.09	1087780	keystroke_k	k	n/a
