onset	duration	sample	value	key	prompt_text
8.649	20.214	17298	prompt	n/a	the quick brown fox jumps over a lazy dog\n
11.955	0.06	23910	keystroke_k	k	n/a
12.15	0.045	24300	keystroke_Key.space	Key.space	n/a
12.33	0.06	24660	keystroke_b	b	n/a
12.45	0.045	24900	keystroke_r	r	n/a
12.6	0.09	25200	keystroke_o	o	n/a
12.87	0.06	25740	keystroke_w	w	n/a
13.005	0.06	26010	keystroke_n	n	n/a
13.17	0.075	26340	keystroke_Key.space	Key.space	n/a
13.38	0.045	26760	keystroke_f	f	n/a
13.5	0.06	27000	keystroke_o	o	n/a
14.085	0.09	28170	keystroke_x	x	n/a
14.475	0.075	28950	keystroke_Key.space	Key.space	n/a
15.72	0.194	31440	keystroke_Key.backspace	Key.backspace	n/a
16.094	0.06	32188	keystroke_Key.backspace	Key.backspace	n/a
16.23	0.075	32460	keystroke_Key.backspace	Key.backspace	n/a
16.3945	0.06	32789	keystroke_Key.backspace	Key.backspace	n/a
16.5595	0.045	33119	keystroke_Key.backspace	Key.backspace	n/a
16.7095	0.06	33419	keystroke_Key.backspace	Key.backspace	n/a
16.8745	0.045	33749	keystroke_Key.backspace	Key.backspace	n/a
16.9945	0.075	33989	keystroke_Key.backspace	Key.backspace	n/a
17.1595	0.06	34319	keystroke_Key.backspace	Key.backspace	n/a
17.3245	0.045	34649	keystroke_Key.backspace	Key.backspace	n/a
17.4745	0.06	34949	keystroke_Key.backspace	Key.backspace	n/a
17.6395	0.045	35279	keystroke_Key.backspace	Key.backspace	n/a
17.7895	0.045	35579	keystroke_Key.backspace	Key.backspace	n/a
17.9395	0.06	35879	keystroke_Key.backspace	Key.backspace	n/a
18.3145	0.075	36629	keystroke_t	t	n/a
18.4795	0.045	36959	keystroke_h	h	n/a
18.5845	0.045	37169	keystroke_e	e	n/a
18.7045	0.045	37409	keystroke_Key.space	Key.space	n/a
19.1545	0.045	38309	keystroke_q	q	n/a
19.2895	0.045	38579	keystroke_u	u	n/a
19.4545	0.06	38909	keystroke_i	i	n/a
19.5595	0.06	39119	keystroke_c	c	n/a
19.7395	0.075	39479	keystroke_k	k	n/a
19.9495	0.045	39899	keystroke_Key.space	Key.space	n/a
20.1895	0.045	40379	keystroke_b	b	n/a
20.3245	0.045	40649	keystroke_r	r	n/a
20.4445	0.09	40889	keystroke_o	o	n/a
20.6245	0.06	41249	keystroke_w	w	n/a
20.7595	0.045	41519	keystroke_n	n	n/a
20.9245	0.06	41849	keystroke_Key.space	Key.space	n/a
21.0895	0.045	42179	keystroke_f	f	n/a
21.1945	0.075	42389	keystroke_o	o	n/a
21.6145	0.06	43229	keystroke_x	x	n/a
21.7045	0.075	43409	keystroke_Key.space	Key.space	n/a
22.0045	0.061	44009	keystroke_j	j	n/a
22.1845	0.045	44369	keystroke_u	u	n/a
22.379	0.045	44758	keystroke_m	m	n/a
22.545	0.06	45090	keystroke_p	p	n/a
22.739	0.09	45478	keystroke_e	e	n/a
22.934	0.075	45868	keystroke_d	d	n/a
23.039	0.075	46078	keystroke_Key.space	Key.space	n/a
24.1045	0.06	48209	keystroke_o	o	n/a
24.2695	0.045	48539	keystroke_v	v	n/a
24.4345	0.12	48869	keystroke_e	e	n/a
24.4945	0.09	48989	keystroke_r	r	n/a
24.6595	0.075	49319	keystroke_Key.space	Key.space	n/a
25.6645	0.075	51329	keystroke_a	a	n/a
25.8145	0.06	51629	keystroke_Key.space	Key.space	n/a
26.1595	0.075	52319	keystroke_l	l	n/a
26.2495	0.075	52499	keystroke_a	a	n/a
26.5045	0.045	53009	keystroke_z	z	n/a
26.8195	0.03	53639	keystroke_y	y	n/a
26.9095	0.06	53819	keystroke_Key.space	Key.space	n/a
27.4945	0.045	54989	keystroke_d	d	n/a
27.5995	0.12	55199	keystroke_o	o	n/a
27.7795	0.045	55559	keystroke_g	g	n/a
28.799	0.061	57598	keystroke_Key.enter	Key.enter	n/a
28.8695	8.047	57739	prompt	n/a	originally weeks snake hotels\n
29.8945	0.1355	59789	keystroke_o	o	n/a
30.06	0.06	60120	keystroke_r	r	n/a
30.195	0.06	60390	keystroke_i	i	n/a
30.285	0.075	60570	keystroke_g	g	n/a
30.39	0.135	60780	keystroke_i	i	n/a
30.465	0.135	60930	keystroke_n	n	n/a
30.585	0.045	61170	keystroke_a	a	n/a
30.69	0.075	61380	keystroke_l	l	n/a
30.84	0.105	61680	keystroke_l	l	n/a
30.975	0.09	61950	keystroke_t	t	n/a
31.11	0.075	62220	keystroke_Key.space	Key.space	n/a
31.605	0.0745	63210	keystroke_Key.backspace	Key.backspace	n/a
31.7545	0.075	63509	keystroke_Key.backspace	Key.backspace	n/a
32.4595	0.045	64919	keystroke_y	y	n/a
32.5645	0.075	65129	keystroke_Key.space	Key.space	n/a
32.7595	0.06	65519	keystroke_w	w	n/a
32.9695	0.03	65939	keystroke_e	e	n/a
33.0595	0.075	66119	keystroke_e	e	n/a
33.2845	0.075	66569	keystroke_k	k	n/a
33.54	0.045	67080	keystroke_s	s	n/a
33.675	0.09	67350	keystroke_Key.space	Key.space	n/a
34.35	0.075	68700	keystroke_s	s	n/a
34.635	0.045	69270	keystroke_n	n	n/a
34.74	0.075	69480	keystroke_a	a	n/a
34.86	0.09	69720	keystroke_k	k	n/a
35.01	0.075	70020	keystroke_e	e	n/a
35.1	0.075	70200	keystroke_Key.space	Key.space	n/a
35.85	0.105	71700	keystroke_h	h	n/a
35.925	0.105	71850	keystroke_o	o	n/a
36.03	0.075	72060	keystroke_t	t	n/a
36.18	0.06	72360	keystroke_e	e	n/a
36.285	0.09	72570	keystroke_l	l	n/a
36.45	0.06	72900	keystroke_s	s	n/a
36.8545	0.06	73709	keystroke_Key.enter	Key.enter	n/a
36.9205	11.9365	73841	prompt	n/a	stream sacrifice skills membership\n
37.7695	0.06	75539	keystroke_s	s	n/a
38.3845	0.075	76769	keystroke_t	t	n/a
38.5945	0.15	77189	keystroke_r	r	n/a
38.6845	0.09	77369	keystroke_e	e	n/a
38.8645	0.105	77729	keystroke_a	a	n/a
39.6745	0.06	79349	keystroke_m	m	n/a
39.8695	0.06	79739	keystroke_Key.space	Key.space	n/a
40.5745	0.06	81149	keystroke_s	s	n/a
40.7245	0.09	81449	keystroke_a	a	n/a
40.8895	0.06	81779	keystroke_c	c	n/a
41.0695	0.075	82139	keystroke_r	r	n/a
41.19	0.075	82380	keystroke_i	i	n/a
41.31	0.06	82620	keystroke_f	f	n/a
41.4	0.105	82800	keystroke_i	i	n/a
41.52	0.075	83040	keystroke_c	c	n/a
41.73	0.09	83460	keystroke_e	e	n/a
41.865	0.075	83730	keystroke_Key.space	Key.space	n/a
42.09	0.075	84180	keystroke_s	s	n/a
42.5695	0.075	85139	keystroke_k	k	n/a
42.7345	0.09	85469	keystroke_i	i	n/a
42.9445	0.045	85889	keystroke_l	l	n/a
43.0645	0.09	86129	keystroke_l	l	n/a
43.1995	0.075	86399	keystroke_s	s	n/a
43.3045	0.075	86609	keystroke_Key.space	Key.space	n/a
43.545	0.06	87090	keystroke_m	m	n/a
43.725	0.045	87450	keystroke_e	e	n/a
43.815	0.09	87630	keystroke_m	m	n/a
44.8805	0.06	89761	keystroke_b	b	n/a
44.9255	0.1495	89851	keystroke_e	e	n/a
45.03	0.075	90060	keystroke_r	r	n/a
45.375	0.06	90750	keystroke_s	s	n/a
46.815	0.045	93630	keystroke_h	h	n/a
47.085	0.12	94170	keystroke_i	i	n/a
47.19	0.06	94380	keystroke_o	o	n/a
47.955	0.06	95910	keystroke_Key.backspace	Key.backspace	n/a
48.405	0.045	96810	keystroke_p	p	n/a
48.7795	0.075	97559	keystroke_Key.enter	Key.enter	n/a
48.86	9.2215	97720	prompt	n/a	msgid liked idle backing\n
50.22	0.045	100440	keystroke_m	m	n/a
50.61	0.06	101220	keystroke_s	s	n/a
51.81	0.03	103620	keystroke_g	g	n/a
52.05	0.075	104100	keystroke_i	i	n/a
52.38	0.06	104760	keystroke_d	d	n/a
52.71	0.06	105420	keystroke_Key.space	Key.space	n/a
53.805	0.135	107610	keystroke_l	l	n/a
53.865	0.12	107730	keystroke_i	i	n/a
54.75	0.06	109500	keystroke_k	k	n/a
54.9	0.06	109800	keystroke_e	e	n/a
55.08	0.06	110160	keystroke_d	d	n/a
55.155	0.075	110310	keystroke_Key.space	Key.space	n/a
55.5445	0.075	111089	keystroke_i	i	n/a
55.8	0.045	111600	keystroke_d	d	n/a
55.905	0.105	111810	keystroke_l	l	n/a
56.025	0.06	112050	keystroke_e	e	n/a
56.16	0.09	112320	keystroke_Key.space	Key.space	n/a
56.955	0.045	113910	keystroke_b	b	n/a
57.045	0.15	114090	keystroke_a	a	n/a
57.15	0.06	114300	keystroke_c	c	n/a
57.27	0.09	114540	keystroke_k	k	n/a
57.48	0.12	114960	keystroke_i	i	n/a
57.57	0.0895	115140	keystroke_n	n	n/a
57.6605	0.059	115321	keystroke_g	g	n/a
58.0195	0.06	116039	keystroke_Key.enter	Key.enter	n/a
58.085	9.0715	116170	prompt	n/a	excluding peas games top\n
58.965	0.03	117930	keystroke_e	e	n/a
59.16	0.0605	118320	keystroke_x	x	n/a
59.355	0.06	118710	keystroke_c	c	n/a
59.61	0.0745	119220	keystroke_l	l	n/a
59.8495	0.06	119699	keystroke_u	u	n/a
60.09	0.06	120180	keystroke_d	d	n/a
60.255	0.105	120510	keystroke_i	i	n/a
60.315	0.075	120630	keystroke_n	n	n/a
60.42	0.045	120840	keystroke_g	g	n/a
60.525	0.075	121050	keystroke_Key.space	Key.space	n/a
61.245	0.06	122490	keystroke_p	p	n/a
61.3955	0.06	122791	keystroke_e	e	n/a
61.98	0.135	123960	keystroke_a	a	n/a
62.07	0.075	124140	keystroke_s	s	n/a
62.265	0.075	124530	keystroke_Key.space	Key.space	n/a
62.835	0.075	125670	keystroke_g	g	n/a
62.94	0.105	125880	keystroke_a	a	n/a
63.03	0.09	126060	keystroke_m	m	n/a
63.165	0.075	126330	keystroke_e	e	n/a
63.36	0.075	126720	keystroke_s	s	n/a
63.465	0.075	126930	keystroke_Key.space	Key.space	n/a
64.4095	0.045	128819	keystroke_g	g	n/a
64.5155	0.104	129031	keystroke_a	a	n/a
64.6345	0.075	129269	keystroke_m	m	n/a
64.7545	0.06	129509	keystroke_e	e	n/a
65.1145	0.09	130229	keystroke_Key.backspace	Key.backspace	n/a
65.3095	0.06	130619	keystroke_Key.backspace	Key.backspace	n/a
65.4745	0.06	130949	keystroke_Key.backspace	Key.backspace	n/a
65.6395	0.105	131279	keystroke_Key.backspace	Key.backspace	n/a
66.3295	0.075	132659	keystroke_t	t	n/a
66.4495	0.135	132899	keystroke_o	o	n/a
66.5245	0.12	133049	keystroke_p	p	n/a
67.0945	0.06	134189	keystroke_Key.enter	Key.enter	n/a
67.16	8.427	134320	prompt	n/a	patch charitable emerald pakistan\n
68.115	0.045	136230	keystroke_p	p	n/a
68.205	0.09	136410	keystroke_a	a	n/a
68.4	0.06	136800	keystroke_t	t	n/a
68.625	0.045	137250	keystroke_c	c	n/a
68.7	0.06	137400	keystroke_h	h	n/a
68.91	0.0605	137820	keystroke_Key.space	Key.space	n/a
69.165	0.06	138330	keystroke_c	c	n/a
69.33	0.075	138660	keystroke_h	h	n/a
69.465	0.0745	138930	keystroke_a	a	n/a
69.6595	0.045	139319	keystroke_r	r	n/a
69.8095	0.075	139619	keystroke_i	i	n/a
69.9295	0.06	139859	keystroke_t	t	n/a
70.0945	0.075	140189	keystroke_a	a	n/a
70.2595	0.06	140519	keystroke_b	b	n/a
70.4695	0.075	140939	keystroke_l	l	n/a
70.5595	0.06	141119	keystroke_e	e	n/a
70.7545	0.075	141509	keystroke_Key.space	Key.space	n/a
71.5345	0.06	143069	keystroke_e	e	n/a
72.0145	0.06	144029	keystroke_m	m	n/a
72.1495	0.1505	144299	keystroke_e	e	n/a
72.255	0.075	144510	keystroke_r	r	n/a
72.435	0.075	144870	keystroke_a	a	n/a
72.735	0.075	145470	keystroke_l	l	n/a
72.93	0.075	145860	keystroke_d	d	n/a
73.185	0.06	146370	keystroke_Key.space	Key.space	n/a
73.62	0.075	147240	keystroke_p	p	n/a
73.71	0.06	147420	keystroke_a	a	n/a
74.205	0.075	148410	keystroke_k	k	n/a
74.385	0.06	148770	keystroke_i	i	n/a
74.58	0.06	149160	keystroke_s	s	n/a
74.7455	0.0295	149491	keystroke_t	t	n/a
74.88	0.0745	149760	keystroke_a	a	n/a
74.9995	0.075	149999	keystroke_n	n	n/a
75.5245	0.06	151049	keystroke_Key.enter	Key.enter	n/a
75.59	6.087	151180	prompt	n/a	textile lights offers every\n
76.4255	0.105	152851	keystroke_t	t	n/a
76.4855	0.075	152971	keystroke_e	e	n/a
76.7855	0.075	153571	keystroke_x	x	n/a
76.9955	0.045	153991	keystroke_t	t	n/a
77.1155	0.075	154231	keystroke_i	i	n/a
77.3255	0.09	154651	keystroke_l	l	n/a
77.4605	0.06	154921	keystroke_e	e	n/a
77.5805	0.06	155161	keystroke_Key.space	Key.space	n/a
77.865	0.135	155730	keystroke_l	l	n/a
77.955	0.09	155910	keystroke_i	i	n/a
78.15	0.06	156300	keystroke_g	g	n/a
78.255	0.075	156510	keystroke_h	h	n/a
78.36	0.045	156720	keystroke_t	t	n/a
78.54	0.075	157080	keystroke_s	s	n/a
78.645	0.075	157290	keystroke_Key.space	Key.space	n/a
78.9	0.0745	157800	keystroke_o	o	n/a
79.1995	0.045	158399	keystroke_f	f	n/a
79.2895	0.075	158579	keystroke_f	f	n/a
79.4395	0.12	158879	keystroke_e	e	n/a
79.5295	0.075	159059	keystroke_r	r	n/a
79.74	0.06	159480	keystroke_s	s	n/a
79.86	0.09	159720	keystroke_Key.space	Key.space	n/a
80.265	0.09	160530	keystroke_e	e	n/a
80.73	0.06	161460	keystroke_v	v	n/a
80.9095	0.12	161819	keystroke_e	e	n/a
80.985	0.0895	161970	keystroke_r	r	n/a
81.2095	0.075	162419	keystroke_y	y	n/a
81.5845	0.09	163169	keystroke_Key.enter	Key.enter	n/a
81.6825	8.139	163365	prompt	n/a	laptop infections before classification\n
82.635	0.045	165270	keystroke_l	l	n/a
82.725	0.06	165450	keystroke_a	a	n/a
82.89	0.045	165780	keystroke_p	p	n/a
83.115	0.045	166230	keystroke_t	t	n/a
83.19	0.135	166380	keystroke_o	o	n/a
83.28	0.09	166560	keystroke_p	p	n/a
83.505	0.0895	167010	keystroke_Key.space	Key.space	n/a
83.865	0.15	167730	keystroke_i	i	n/a
83.97	0.105	167940	keystroke_n	n	n/a
84.39	0.045	168780	keystroke_f	f	n/a
84.54	0.09	169080	keystroke_e	e	n/a
84.66	0.075	169320	keystroke_c	c	n/a
84.855	0.06	169710	keystroke_t	t	n/a
84.93	0.105	169860	keystroke_i	i	n/a
84.975	0.09	169950	keystroke_o	o	n/a
85.14	0.09	170280	keystroke_n	n	n/a
85.275	0.06	170550	keystroke_s	s	n/a
85.38	0.075	170760	keystroke_Key.space	Key.space	n/a
86.2195	0.06	172439	keystroke_b	b	n/a
86.2945	0.09	172589	keystroke_e	e	n/a
86.4895	0.045	172979	keystroke_f	f	n/a
86.5645	0.075	173129	keystroke_o	o	n/a
86.6995	0.12	173399	keystroke_r	r	n/a
86.7745	0.09	173549	keystroke_e	e	n/a
86.9095	0.075	173819	keystroke_Key.space	Key.space	n/a
87.495	0.0595	174990	keystroke_c	c	n/a
87.6295	0.075	175259	keystroke_l	l	n/a
87.7195	0.09	175439	keystroke_a	a	n/a
87.9445	0.015	175889	keystroke_s	s	n/a
88.0195	0.075	176039	keystroke_s	s	n/a
88.1995	0.09	176399	keystroke_i	i	n/a
88.4545	0.045	176909	keystroke_f	f	n/a
88.5295	0.0905	177059	keystroke_i	i	n/a
88.65	0.06	177300	keystroke_c	c	n/a
88.74	0.09	177480	keystroke_a	a	n/a
88.935	0.075	177870	keystroke_t	t	n/a
89.04	0.105	178080	keystroke_i	i	n/a
89.07	0.105	178140	keystroke_o	o	n/a
89.31	0.075	178620	keystroke_n	n	n/a
89.76	0.06	179520	keystroke_Key.enter	Key.enter	n/a
89.8245	12.267	179649	prompt	n/a	passion puts chevrolet biodiversity\n
90.495	0.045	180990	keystroke_p	p	n/a
90.57	0.09	181140	keystroke_a	a	n/a
91.1845	0.06	182369	keystroke_s	s	n/a
91.3195	0.075	182639	keystroke_s	s	n/a
91.4695	0.135	182939	keystroke_i	i	n/a
91.5745	0.075	183149	keystroke_o	o	n/a
91.7695	0.075	183539	keystroke_n	n	n/a
92.4	0.0745	184800	keystroke_Key.space	Key.space	n/a
92.8655	0.134	185731	keystroke_p	p	n/a
93.0005	0.09	186001	keystroke_u	u	n/a
93.66	0.09	187320	keystroke_t	t	n/a
93.78	0.075	187560	keystroke_s	s	n/a
93.96	0.075	187920	keystroke_Key.space	Key.space	n/a
94.9795	0.015	189959	keystroke_c	c	n/a
95.0095	0.015	190019	keystroke_h	h	n/a
95.0995	0.06	190199	keystroke_e	e	n/a
96.0455	0.075	192091	keystroke_v	v	n/a
96.975	0.03	193950	keystroke_r	r	n/a
97.0805	0.0585	194161	keystroke_o	o	n/a
97.275	0.0755	194550	keystroke_l	l	n/a
97.545	0.09	195090	keystroke_e	e	n/a
97.7705	0.0745	195541	keystroke_t	t	n/a
97.92	0.075	195840	keystroke_Key.space	Key.space	n/a
99.735	0.06	199470	keystroke_b	b	n/a
99.915	0.06	199830	keystroke_i	i	n/a
100.065	0.09	200130	keystroke_o	o	n/a
100.32	0.06	200640	keystroke_d	d	n/a
100.47	0.075	200940	keystroke_i	i	n/a
100.71	0.045	201420	keystroke_v	v	n/a
100.86	0.105	201720	keystroke_e	e	n/a
100.935	0.06	201870	keystroke_r	r	n/a
101.115	0.045	202230	keystroke_s	s	n/a
101.295	0.06	202590	keystroke_i	i	n/a
101.385	0.06	202770	keystroke_t	t	n/a
101.55	0.075	203100	keystroke_y	y	n/a
102.045	0.045	204090	keystroke_Key.enter	Key.enter	n/a
102.0955	6.866	204191	prompt	n/a	focused singles arrive senate\n
103.095	0.015	206190	keystroke_f	f	n/a
103.125	0.015	206250	keystroke_o	o	n/a
103.155	0.045	206310	keystroke_c	c	n/a
103.32	0.0755	206640	keystroke_u	u	n/a
103.4705	0.045	206941	keystroke_s	s	n/a
103.65	0.03	207300	keystroke_e	e	n/a
103.7995	0.061	207599	keystroke_d	d	n/a
103.8745	0.09	207749	keystroke_Key.space	Key.space	n/a
104.2505	0.074	208501	keystroke_s	s	n/a
104.3405	0.149	208681	keystroke_i	i	n/a
104.4305	0.089	208861	keystroke_n	n	n/a
105.09	0.06	210180	keystroke_g	g	n/a
105.165	0.12	210330	keystroke_l	l	n/a
105.33	0.06	210660	keystroke_e	e	n/a
105.51	0.06	211020	keystroke_s	s	n/a
105.63	0.06	211260	keystroke_Key.space	Key.space	n/a
106.005	0.075	212010	keystroke_a	a	n/a
106.23	0.015	212460	keystroke_r	r	n/a
106.3205	0.074	212641	keystroke_r	r	n/a
106.4405	0.09	212881	keystroke_i	i	n/a
106.6355	0.1345	213271	keystroke_v	v	n/a
106.7255	0.1045	213451	keystroke_e	e	n/a
106.89	0.075	213780	keystroke_Key.space	Key.space	n/a
107.43	0.045	214860	keystroke_s	s	n/a
107.6095	0.075	215219	keystroke_e	e	n/a
107.7895	0.045	215579	keystroke_n	n	n/a
107.9545	0.075	215909	keystroke_a	a	n/a
108.2395	0.1655	216479	keystroke_t	t	n/a
108.3745	0.0755	216749	keystroke_e	e	n/a
108.885	0.075	217770	keystroke_Key.enter	Key.enter	n/a
108.967	11.0345	217934	prompt	n/a	notre jurisdiction realized instruction\n
109.9345	0.06	219869	keystroke_n	n	n/a
110.145	0.09	220290	keystroke_o	o	n/a
110.28	0.06	220560	keystroke_t	t	n/a
110.505	0.075	221010	keystroke_r	r	n/a
110.7445	0.06	221489	keystroke_e	e	n/a
110.8795	0.06	221759	keystroke_Key.space	Key.space	n/a
111.4495	0.061	222899	keystroke_j	j	n/a
111.6145	0.06	223229	keystroke_u	u	n/a
112.245	0.075	224490	keystroke_r	r	n/a
112.515	0.06	225030	keystroke_i	i	n/a
112.71	0.06	225420	keystroke_s	s	n/a
113.565	0.045	227130	keystroke_d	d	n/a
113.7895	0.06	227579	keystroke_i	i	n/a
113.9245	0.045	227849	keystroke_c	c	n/a
114.1495	0.03	228299	keystroke_t	t	n/a
114.2095	0.09	228419	keystroke_i	i	n/a
114.2395	0.12	228479	keystroke_o	o	n/a
114.4645	0.075	228929	keystroke_n	n	n/a
115.1695	0.0605	230339	keystroke_Key.space	Key.space	n/a
115.575	0.09	231150	keystroke_r	r	n/a
115.635	0.075	231270	keystroke_e	e	n/a
115.83	0.075	231660	keystroke_a	a	n/a
115.995	0.12	231990	keystroke_l	l	n/a
116.07	0.089	232140	keystroke_i	i	n/a
116.28	0.06	232560	keystroke_z	z	n/a
116.52	0.03	233040	keystroke_e	e	n/a
116.685	0.09	233370	keystroke_d	d	n/a
116.955	0.074	233910	keystroke_Key.space	Key.space	n/a
117.405	0.12	234810	keystroke_i	i	n/a
117.48	0.09	234960	keystroke_n	n	n/a
117.57	0.075	235140	keystroke_s	s	n/a
117.795	0.06	235590	keystroke_t	t	n/a
117.93	0.09	235860	keystroke_r	r	n/a
118.125	0.06	236250	keystroke_u	u	n/a
118.23	0.045	236460	keystroke_c	c	n/a
118.425	0.06	236850	keystroke_t	t	n/a
118.515	0.105	237030	keystroke_i	i	n/a
118.56	0.12	237120	keystroke_o	o	n/a
118.755	0.0745	237510	keystroke_n	n	n/a
119.9395	0.06	239879	keystroke_Key.enter	Key.enter	n/a
120.005	8.7865	240010	prompt	n/a	aluminum mouse cheap bugs\n
120.6745	0.075	241349	keystroke_a	a	n/a
120.8695	0.075	241739	keystroke_l	l	n/a
121.0945	0.06	242189	keystroke_u	u	n/a
121.2895	0.06	242579	keystroke_m	m	n/a
121.4695	0.105	242939	keystroke_i	i	n/a
121.5595	0.075	243119	keystroke_n	n	n/a
121.83	0.075	243660	keystroke_u	u	n/a
122.055	0.045	244110	keystroke_m	m	n/a
122.4745	0.06	244949	keystroke_Key.space	Key.space	n/a
123.0295	0.075	246059	keystroke_m	m	n/a
123.33	0.12	246660	keystroke_o	o	n/a
123.3895	0.105	246779	keystroke_u	u	n/a
123.72	0.0445	247440	keystroke_s	s	n/a
123.8995	0.06	247799	keystroke_e	e	n/a
124.02	0.075	248040	keystroke_Key.space	Key.space	n/a
124.6345	0.061	249269	keystroke_c	c	n/a
124.7395	0.09	249479	keystroke_h	h	n/a
124.8745	0.075	249749	keystroke_e	e	n/a
125.0695	0.09	250139	keystroke_a	a	n/a
125.2945	0.09	250589	keystroke_p	p	n/a
125.685	0.075	251370	keystroke_Key.space	Key.space	n/a
126.57	0.12	253140	keystroke_b	b	n/a
126.63	0.1045	253260	keystroke_u	u	n/a
126.9595	0.045	253919	keystroke_g	g	n/a
127.1995	0.06	254399	keystroke_s	s	n/a
128.7445	0.045	257489	keystroke_Key.enter	Key.enter	n/a
128.795	11.0815	257590	prompt	n/a	violations operational obesity assessments\n
130.065	0.06	260130	keystroke_v	v	n/a
130.2	0.0745	260400	keystroke_i	i	n/a
130.3795	0.075	260759	keystroke_o	o	n/a
130.5745	0.075	261149	keystroke_l	l	n/a
130.7095	0.075	261419	keystroke_a	a	n/a
130.9045	0.045	261809	keystroke_t	t	n/a
130.9645	0.12	261929	keystroke_i	i	n/a
131.0095	0.105	262019	keystroke_o	o	n/a
131.4295	0.09	262859	keystroke_n	n	n/a
131.5495	0.045	263099	keystroke_s	s	n/a
131.6245	0.09	263249	keystroke_Key.space	Key.space	n/a
131.8795	0.075	263759	keystroke_o	o	n/a
132.0895	0.075	264179	keystroke_p	p	n/a
132.1495	0.12	264299	keystroke_e	e	n/a
132.2395	0.075	264479	keystroke_r	r	n/a
132.4045	0.06	264809	keystroke_a	a	n/a
132.615	0.045	265230	keystroke_t	t	n/a
132.93	0.12	265860	keystroke_i	i	n/a
133.005	0.09	266010	keystroke_o	o	n/a
133.17	0.075	266340	keystroke_n	n	n/a
133.305	0.075	266610	keystroke_a	a	n/a
133.41	0.09	266820	keystroke_l	l	n/a
134.1895	0.075	268379	keystroke_Key.space	Key.space	n/a
135.0595	0.075	270119	keystroke_o	o	n/a
135.3595	0.06	270719	keystroke_b	b	n/a
135.5245	0.045	271049	keystroke_e	e	n/a
135.6745	0.06	271349	keystroke_s	s	n/a
135.8405	0.074	271681	keystroke_i	i	n/a
135.9445	0.06	271889	keystroke_t	t	n/a
136.1245	0.075	272249	keystroke_y	y	n/a
136.2145	0.075	272429	keystroke_Key.space	Key.space	n/a
136.7095	0.09	273419	keystroke_a	a	n/a
136.9945	0.045	273989	keystroke_s	s	n/a
137.0845	0.09	274169	keystroke_s	s	n/a
137.3095	0.075	274619	keystroke_e	e	n/a
137.5195	0.045	275039	keystroke_s	s	n/a
137.6095	0.045	275219	keystroke_s	s	n/a
138.765	0.045	277530	keystroke_m	m	n/a
138.84	0.075	277680	keystroke_e	e	n/a
138.96	0.075	277920	keystroke_n	n	n/a
139.05	0.09	278100	keystroke_t	t	n/a
139.215	0.075	278430	keystroke_s	s	n/a
139.305	0.105	278610	keystroke_Key.space	Key.space	n/a
139.8145	0.06	279629	keystroke_Key.enter	Key.enter	n/a
139.88	10.8715	279760	prompt	n/a	reply florists garbage freebsd\n
140.715	0.09	281430	keystroke_r	r	n/a
140.79	0.06	281580	keystroke_e	e	n/a
140.985	0.135	281970	keystroke_p	p	n/a
141.315	0.105	282630	keystroke_l	l	n/a
141.465	0.105	282930	keystroke_y	y	n/a
141.84	0.09	283680	keystroke_Key.space	Key.space	n/a
142.4995	0.045	284999	keystroke_f	f	n/a
142.6045	0.09	285209	keystroke_l	l	n/a
142.8295	0.06	285659	keystroke_o	o	n/a
143.1	0.075	286200	keystroke_r	r	n/a
143.265	0.075	286530	keystroke_i	i	n/a
143.384	0.046	286768	keystroke_s	s	n/a
143.595	0.045	287190	keystroke_t	t	n/a
144.405	0.06	288810	keystroke_s	s	n/a
144.6	0.06	289200	keystroke_Key.space	Key.space	n/a
145.23	0.045	290460	keystroke_g	g	n/a
145.38	0.1045	290760	keystroke_a	a	n/a
145.4995	0.06	290999	keystroke_r	r	n/a
145.68	0.075	291360	keystroke_b	b	n/a
145.77	0.09	291540	keystroke_a	a	n/a
146.13	0.06	292260	keystroke_g	g	n/a
146.28	0.075	292560	keystroke_e	e	n/a
146.385	0.075	292770	keystroke_Key.space	Key.space	n/a
147.24	0.045	294480	keystroke_f	f	n/a
147.435	0.045	294870	keystroke_r	r	n/a
147.855	0.075	295710	keystroke_e	e	n/a
148.905	0.06	297810	keystroke_e	e	n/a
149.58	0.06	299160	keystroke_b	b	n/a
149.8645	0.075	299729	keystroke_s	s	n/a
150.1195	0.06	300239	keystroke_d	d	n/a
150.6895	0.06	301379	keystroke_Key.enter	Key.enter	n/a
150.756	8.95	301512	prompt	n/a	ways facts combine thirty\n
151.559	0.075	303118	keystroke_w	w	n/a
151.74	0.074	303480	keystroke_a	a	n/a
152.129	0.105	304258	keystroke_y	y	n/a
152.264	0.06	304528	keystroke_s	s	n/a
152.459	0.06	304918	keystroke_Key.space	Key.space	n/a
153.044	0.165	306088	keystroke_f	f	n/a
153.224	0.09	306448	keystroke_a	a	n/a
153.329	0.045	306658	keystroke_c	c	n/a
153.659	0.0905	307318	keystroke_t	t	n/a
153.795	0.09	307590	keystroke_s	s	n/a
154.1245	0.075	308249	keystroke_Key.space	Key.space	n/a
154.5445	0.03	309089	keystroke_c	c	n/a
154.6645	0.12	309329	keystroke_o	o	n/a
154.7395	0.105	309479	keystroke_m	m	n/a
155.19	0.075	310380	keystroke_b	b	n/a
155.325	0.0745	310650	keystroke_u	u	n/a
155.34	0.0445	310680	keystroke_i	i	n/a
156.1795	0.075	312359	keystroke_Key.backspace	Key.backspace	n/a
156.3595	0.09	312719	keystroke_Key.backspace	Key.backspace	n/a
157.02	0.12	314040	keystroke_i	i	n/a
157.095	0.105	314190	keystroke_n	n	n/a
157.155	0.06	314310	keystroke_e	e	n/a
157.29	0.105	314580	keystroke_Key.space	Key.space	n/a
158.459	0.045	316918	keystroke_t	t	n/a
158.52	0.059	317040	keystroke_h	h	n/a
158.699	0.075	317398	keystroke_i	i	n/a
158.804	0.075	317608	keystroke_r	r	n/a
159.015	0.059	318030	keystroke_t	t	n/a
159.209	0.075	318418	keystroke_y	y	n/a
159.644	0.06	319288	keystroke_Key.enter	Key.enter	n/a
159.719	9.782	319438	prompt	n/a	cave spec permalink dictionaries\n
160.6045	0.075	321209	keystroke_c	c	n/a
160.7095	0.1045	321419	keystroke_a	a	n/a
161.144	0.046	322288	keystroke_v	v	n/a
161.324	0.045	322648	keystroke_e	e	n/a
161.414	0.09	322828	keystroke_Key.space	Key.space	n/a
161.61	0.044	323220	keystroke_s	s	n/a
161.685	0.09	323370	keystroke_p	p	n/a
161.895	0.12	323790	keystroke_e	e	n/a
162.555	0.045	325110	keystroke_c	c	n/a
162.914	0.075	325828	keystroke_Key.space	Key.space	n/a
163.185	0.104	326370	keystroke_p	p	n/a
163.304	0.0905	326608	keystroke_e	e	n/a
163.3645	0.09	326729	keystroke_r	r	n/a
163.5745	0.075	327149	keystroke_m	m	n/a
163.694	0.061	327388	keystroke_a	a	n/a
163.874	0.061	327748	keystroke_l	l	n/a
164.054	0.075	328108	keystroke_i	i	n/a
164.2795	0.105	328559	keystroke_n	n	n/a
164.4595	0.09	328919	keystroke_k	k	n/a
164.6695	0.075	329339	keystroke_Key.space	Key.space	n/a
165.509	0.075	331018	keystroke_d	d	n/a
165.704	0.06	331408	keystroke_i	i	n/a
165.779	0.045	331558	keystroke_c	c	n/a
165.989	0.045	331978	keystroke_t	t	n/a
166.079	0.09	332158	keystroke_i	i	n/a
166.124	0.09	332248	keystroke_o	o	n/a
166.2895	0.09	332579	keystroke_n	n	n/a
166.3945	0.06	332789	keystroke_a	a	n/a
166.6795	0.075	333359	keystroke_r	r	n/a
167.7895	0.06	335579	keystroke_i	i	n/a
168.3295	0.075	336659	keystroke_e	e	n/a
168.5395	0.06	337079	keystroke_s	s	n/a
169.4245	0.075	338849	keystroke_Key.enter	Key.enter	n/a
169.5045	13.9015	339009	prompt	n/a	afraid selecting robertson impressive\n
170.2795	0.0905	340559	keystroke_a	a	n/a
170.565	0.015	341130	keystroke_g	g	n/a
170.715	0.045	341430	keystroke_r	r	n/a
171.63	0.089	343260	keystroke_Key.backspace	Key.backspace	n/a
171.794	0.105	343588	keystroke_Key.backspace	Key.backspace	n/a
172.019	0.045	344038	keystroke_f	f	n/a
172.184	0.06	344368	keystroke_r	r	n/a
172.964	0.09	345928	keystroke_a	a	n/a
173.0995	0.075	346199	keystroke_i	i	n/a
173.1895	0.075	346379	keystroke_d	d	n/a
173.3395	0.075	346679	keystroke_Key.space	Key.space	n/a
174.0595	0.045	348119	keystroke_s	s	n/a
174.2245	0.045	348449	keystroke_e	e	n/a
174.2995	0.105	348599	keystroke_l	l	n/a
174.449	0.045	348898	keystroke_e	e	n/a
174.629	0.075	349258	keystroke_c	c	n/a
174.854	0.06	349708	keystroke_t	t	n/a
175.004	0.135	350008	keystroke_i	i	n/a
175.109	0.075	350218	keystroke_n	n	n/a
175.229	0.09	350458	keystroke_g	g	n/a
175.334	0.075	350668	keystroke_Key.space	Key.space	n/a
176.1445	0.045	352289	keystroke_r	r	n/a
176.2795	0.06	352559	keystroke_o	o	n/a
176.7145	0.105	353429	keystroke_e	e	n/a
176.7595	0.09	353519	keystroke_r	r	n/a
176.9545	0.06	353909	keystroke_t	t	n/a
177.2995	0.03	354599	keystroke_s	s	n/a
177.3745	0.12	354749	keystroke_o	o	n/a
177.4645	0.09	354929	keystroke_n	n	n/a
178.1695	0.1505	356339	keystroke_Key.backspace	Key.backspace	n/a
178.38	0.0745	356760	keystroke_Key.backspace	Key.backspace	n/a
178.56	0.045	357120	keystroke_Key.backspace	Key.backspace	n/a
178.7095	0.06	357419	keystroke_Key.backspace	Key.backspace	n/a
178.875	0.075	357750	keystroke_Key.backspace	Key.backspace	n/a
179.0395	0.06	358079	keystroke_Key.backspace	Key.backspace	n/a
179.6695	0.06	359339	keystroke_b	b	n/a
179.7445	0.1205	359489	keystroke_e	e	n/a
179.835	0.06	359670	keystroke_r	r	n/a
179.999	0.03	359998	keystroke_t	t	n/a
180.179	0.075	360358	keystroke_s	s	n/a
180.329	0.09	360658	keystroke_o	o	n/a
180.509	0.076	361018	keystroke_n	n	n/a
180.719	0.075	361438	keystroke_Key.space	Key.space	n/a
181.4245	0.045	362849	keystroke_i	i	n/a
181.4395	0.09	362879	keystroke_m	m	n/a
181.6495	0.075	363299	keystroke_p	p	n/a
181.7995	0.105	363599	keystroke_r	r	n/a
181.8745	0.075	363749	keystroke_e	e	n/a
182.0845	0.045	364169	keystroke_s	s	n/a
182.1745	0.075	364349	keystroke_s	s	n/a
182.2945	0.105	364589	keystroke_i	i	n/a
182.5045	0.1195	365009	keystroke_v	v	n/a
182.6845	0.09	365369	keystroke_e	e	n/a
183.3445	0.06	366689	keystroke_Key.enter	Key.enter	n/a
183.409	6.582	366818	prompt	n/a	mart frequent excess then\n
184.184	0.06	368368	keystroke_m	m	n/a
184.289	0.1505	368578	keystroke_a	a	n/a
184.3945	0.105	368789	keystroke_r	r	n/a
184.6045	0.075	369209	keystroke_t	t	n/a
184.7095	0.09	369419	keystroke_Key.space	Key.space	n/a
185.6245	0.03	371249	keystroke_f	f	n/a
185.759	0.06	371518	keystroke_r	r	n/a
185.879	0.075	371758	keystroke_e	e	n/a
186.194	0.045	372388	keystroke_q	q	n/a
186.284	0.075	372568	keystroke_u	u	n/a
186.434	0.09	372868	keystroke_e	e	n/a
186.584	0.09	373168	keystroke_n	n	n/a
186.7345	0.06	373469	keystroke_t	t	n/a
186.8245	0.075	373649	keystroke_Key.space	Key.space	n/a
187.5895	0.06	375179	keystroke_e	e	n/a
187.799	0.075	375598	keystroke_x	x	n/a
187.979	0.075	375958	keystroke_c	c	n/a
188.144	0.075	376288	keystroke_e	e	n/a
188.339	0.045	376678	keystroke_s	s	n/a
188.444	0.06	376888	keystroke_s	s	n/a
188.534	0.09	377068	keystroke_Key.space	Key.space	n/a
188.714	0.06	377428	keystroke_t	t	n/a
188.789	0.105	377578	keystroke_h	h	n/a
188.924	0.09	377848	keystroke_e	e	n/a
189.044	0.075	378088	keystroke_n	n	n/a
189.929	0.06	379858	keystroke_Key.enter	Key.enter	n/a
189.9945	7.8565	379989	prompt	n/a	example insured infected maple\n
191.1295	0.045	382259	keystroke_e	e	n/a
191.5645	0.045	383129	keystroke_x	x	n/a
191.7	0.09	383400	keystroke_a	a	n/a
191.805	0.06	383610	keystroke_m	m	n/a
192.03	0.09	384060	keystroke_p	p	n/a
192.06	0.105	384120	keystroke_l	l	n/a
192.1945	0.075	384389	keystroke_e	e	n/a
192.3745	0.06	384749	keystroke_Key.space	Key.space	n/a
192.749	0.12	385498	keystroke_i	i	n/a
192.839	0.075	385678	keystroke_n	n	n/a
193.004	0.075	386008	keystroke_s	s	n/a
193.35	0.074	386700	keystroke_u	u	n/a
193.7095	0.075	387419	keystroke_r	r	n/a
194.0395	0.075	388079	keystroke_e	e	n/a
194.2495	0.0595	388499	keystroke_d	d	n/a
194.324	0.09	388648	keystroke_Key.space	Key.space	n/a
194.714	0.135	389428	keystroke_i	i	n/a
194.804	0.0905	389608	keystroke_n	n	n/a
195.0295	0.045	390059	keystroke_f	f	n/a
195.1945	0.105	390389	keystroke_e	e	n/a
195.3145	0.075	390629	keystroke_c	c	n/a
195.5095	0.135	391019	keystroke_t	t	n/a
195.5845	0.09	391169	keystroke_e	e	n/a
195.7945	0.06	391589	keystroke_d	d	n/a
195.8845	0.105	391769	keystroke_Key.space	Key.space	n/a
196.2745	0.075	392549	keystroke_m	m	n/a
196.3645	0.075	392729	keystroke_a	a	n/a
196.8595	0.075	393719	keystroke_p	p	n/a
197.2045	0.105	394409	keystroke_l	l	n/a
197.2945	0.075	394589	keystroke_e	e	n/a
197.775	0.075	395550	keystroke_Key.enter	Key.enter	n/a
197.857	8.874	395714	prompt	n/a	comparative forgotten five pete\n
198.75	0.045	397500	keystroke_c	c	n/a
198.885	0.06	397770	keystroke_o	o	n/a
199.065	0.03	398130	keystroke_m	m	n/a
199.215	0.075	398430	keystroke_p	p	n/a
199.305	0.1495	398610	keystroke_a	a	n/a
199.8895	0.06	399779	keystroke_r	r	n/a
200.0845	0.075	400169	keystroke_a	a	n/a
200.3245	0.06	400649	keystroke_t	t	n/a
200.4895	0.09	400979	keystroke_i	i	n/a
200.7745	0.12	401549	keystroke_v	v	n/a
200.9395	0.075	401879	keystroke_e	e	n/a
201.6595	0.0605	403319	keystroke_Key.space	Key.space	n/a
202.17	0.075	404340	keystroke_f	f	n/a
202.29	0.09	404580	keystroke_o	o	n/a
202.38	0.06	404760	keystroke_r	r	n/a
202.56	0.045	405120	keystroke_g	g	n/a
202.62	0.09	405240	keystroke_o	o	n/a
202.755	0.045	405510	keystroke_t	t	n/a
202.875	0.06	405750	keystroke_t	t	n/a
203.07	0.09	406140	keystroke_e	e	n/a
203.205	0.06	406410	keystroke_n	n	n/a
203.714	0.075	407428	keystroke_Key.space	Key.space	n/a
204.105	0.06	408210	keystroke_f	f	n/a
204.24	0.0895	408480	keystroke_i	i	n/a
204.4345	0.03	408869	keystroke_v	v	n/a
204.5845	0.075	409169	keystroke_e	e	n/a
204.6745	0.06	409349	keystroke_Key.space	Key.space	n/a
204.9145	0.075	409829	keystroke_p	p	n/a
205.0195	0.09	410039	keystroke_e	e	n/a
205.2595	0.045	410519	keystroke_t	t	n/a
205.4245	0.075	410849	keystroke_e	e	n/a
206.67	0.06	413340	keystroke_Key.enter	Key.enter	n/a
206.7345	8.6665	413469	prompt	n/a	consolidated trim resolve allah\n
207.795	0.045	415590	keystroke_c	c	n/a
207.885	0.105	415770	keystroke_o	o	n/a
207.96	0.09	415920	keystroke_n	n	n/a
208.6045	0.015	417209	keystroke_s	s	n/a
208.6645	0.015	417329	keystroke_o	o	n/a
208.7695	0.075	417539	keystroke_l	l	n/a
208.994	0.075	417988	keystroke_i	i	n/a
209.19	0.06	418380	keystroke_d	d	n/a
209.3395	0.075	418679	keystroke_a	a	n/a
209.5345	0.105	419069	keystroke_t	t	n/a
209.5795	0.0895	419159	keystroke_e	e	n/a
209.805	0.045	419610	keystroke_d	d	n/a
209.925	0.075	419850	keystroke_Key.space	Key.space	n/a
210.42	0.045	420840	keystroke_t	t	n/a
210.75	0.045	421500	keystroke_r	r	n/a
210.96	0.09	421920	keystroke_i	i	n/a
211.2595	0.045	422519	keystroke_m	m	n/a
211.4545	0.06	422909	keystroke_Key.space	Key.space	n/a
211.845	0.09	423690	keystroke_r	r	n/a
211.92	0.059	423840	keystroke_e	e	n/a
212.1	0.045	424200	keystroke_s	s	n/a
212.175	0.09	424350	keystroke_o	o	n/a
212.385	0.075	424770	keystroke_l	l	n/a
212.505	0.09	425010	keystroke_v	v	n/a
212.58	0.075	425160	keystroke_e	e	n/a
212.759	0.076	425518	keystroke_Key.space	Key.space	n/a
213.66	0.089	427320	keystroke_a	a	n/a
213.825	0.045	427650	keystroke_l	l	n/a
213.944	0.1055	427888	keystroke_l	l	n/a
214.064	0.106	428128	keystroke_a	a	n/a
214.8895	0.075	429779	keystroke_h	h	n/a
215.3245	0.075	430649	keystroke_Key.enter	Key.enter	n/a
215.405	8.906	430810	prompt	n/a	gear happening appeared emotions\n
216.36	0.045	432720	keystroke_g	g	n/a
216.51	0.075	433020	keystroke_e	e	n/a
216.72	0.105	433440	keystroke_a	a	n/a
216.945	0.075	433890	keystroke_r	r	n/a
217.11	0.09	434220	keystroke_Key.space	Key.space	n/a
217.77	0.06	435540	keystroke_h	h	n/a
217.845	0.075	435690	keystroke_a	a	n/a
217.965	0.075	435930	keystroke_p	p	n/a
218.1	0.09	436200	keystroke_p	p	n/a
218.235	0.06	436470	keystroke_e	e	n/a
218.34	0.06	436680	keystroke_n	n	n/a
218.535	0.09	437070	keystroke_i	i	n/a
218.61	0.075	437220	keystroke_n	n	n/a
218.715	0.045	437430	keystroke_g	g	n/a
218.805	0.09	437610	keystroke_Key.space	Key.space	n/a
219.33	0.06	438660	keystroke_a	a	n/a
219.525	0.06	439050	keystroke_p	p	n/a
219.6895	0.045	439379	keystroke_p	p	n/a
219.7495	0.075	439499	keystroke_e	e	n/a
219.9595	0.1195	439919	keystroke_a	a	n/a
220.274	0.075	440548	keystroke_r	r	n/a
220.484	0.075	440968	keystroke_e	e	n/a
220.665	0.09	441330	keystroke_d	d	n/a
220.785	0.074	441570	keystroke_Key.space	Key.space	n/a
221.175	0.075	442350	keystroke_e	e	n/a
221.325	0.075	442650	keystroke_m	m	n/a
221.55	0.09	443100	keystroke_o	o	n/a
221.7445	0.06	443489	keystroke_t	t	n/a
221.8645	0.105	443729	keystroke_i	i	n/a
221.9245	0.12	443849	keystroke_o	o	n/a
222.1045	0.09	444209	keystroke_n	n	n/a
222.2095	0.09	444419	keystroke_s	s	n/a
222.3145	0.105	444629	keystroke_Key.space	Key.space	n/a
224.2345	0.075	448469	keystroke_Key.enter	Key.enter	n/a
224.323	7.728	448646	prompt	n/a	marvel titanium possible night\n
225.0745	0.06	450149	keystroke_m	m	n/a
225.1495	0.075	450299	keystroke_a	a	n/a
225.3445	0.06	450689	keystroke_r	r	n/a
225.5845	0.03	451169	keystroke_v	v	n/a
225.7495	0.075	451499	keystroke_e	e	n/a
225.8395	0.09	451679	keystroke_l	l	n/a
226.0795	0.075	452159	keystroke_Key.space	Key.space	n/a
226.5145	0.075	453029	keystroke_t	t	n/a
226.6795	0.075	453359	keystroke_i	i	n/a
226.7845	0.075	453569	keystroke_t	t	n/a
227.1745	0.06	454349	keystroke_a	a	n/a
227.4445	0.09	454889	keystroke_n	n	n/a
227.715	0.075	455430	keystroke_i	i	n/a
227.924	0.06	455848	keystroke_u	u	n/a
228.165	0.059	456330	keystroke_m	m	n/a
228.359	0.06	456718	keystroke_Key.space	Key.space	n/a
228.615	0.134	457230	keystroke_p	p	n/a
228.72	0.105	457440	keystroke_o	o	n/a
228.884	0.046	457768	keystroke_s	s	n/a
228.989	0.061	457978	keystroke_s	s	n/a
229.079	0.105	458158	keystroke_i	i	n/a
229.319	0.076	458638	keystroke_b	b	n/a
229.65	0.0745	459300	keystroke_e	e	n/a
230.0095	0.075	460019	keystroke_Key.backspace	Key.backspace	n/a
230.2795	0.12	460559	keystroke_l	l	n/a
230.4145	0.075	460829	keystroke_e	e	n/a
230.5345	0.09	461069	keystroke_Key.space	Key.space	n/a
231.2245	0.045	462449	keystroke_n	n	n/a
231.3445	0.09	462689	keystroke_i	i	n/a
231.4645	0.045	462929	keystroke_g	g	n/a
231.5395	0.09	463079	keystroke_h	h	n/a
231.6445	0.075	463289	keystroke_t	t	n/a
231.9895	0.06	463979	keystroke_Key.enter	Key.enter	n/a
232.0545	10.0615	464109	prompt	n/a	answered public included resolution\n
232.8595	0.075	465719	keystroke_a	a	n/a
233.0395	0.075	466079	keystroke_n	n	n/a
233.1445	0.06	466289	keystroke_s	s	n/a
233.3245	0.06	466649	keystroke_w	w	n/a
233.5195	0.06	467039	keystroke_e	e	n/a
234.104	0.09	468208	keystroke_r	r	n/a
234.27	0.075	468540	keystroke_e	e	n/a
234.48	0.09	468960	keystroke_d	d	n/a
234.659	0.09	469318	keystroke_Key.space	Key.space	n/a
235.3645	0.12	470729	keystroke_p	p	n/a
235.4395	0.075	470879	keystroke_u	u	n/a
235.679	0.09	471358	keystroke_b	b	n/a
235.98	0.119	471960	keystroke_l	l	n/a
236.025	0.105	472050	keystroke_i	i	n/a
236.25	0.06	472500	keystroke_c	c	n/a
236.385	0.074	472770	keystroke_Key.space	Key.space	n/a
237.4645	0.105	474929	keystroke_i	i	n/a
237.5395	0.105	475079	keystroke_n	n	n/a
237.779	0.06	475558	keystroke_c	c	n/a
237.9145	0.15	475829	keystroke_l	l	n/a
238.0195	0.09	476039	keystroke_u	u	n/a
238.1845	0.075	476369	keystroke_d	d	n/a
238.3645	0.045	476729	keystroke_e	e	n/a
238.5145	0.0745	477029	keystroke_d	d	n/a
238.619	0.076	477238	keystroke_Key.space	Key.space	n/a
239.084	0.076	478168	keystroke_r	r	n/a
239.145	0.06	478290	keystroke_e	e	n/a
239.339	0.0605	478678	keystroke_s	s	n/a
239.4145	0.09	478829	keystroke_o	o	n/a
240.8695	0.06	481739	keystroke_l	l	n/a
241.0495	0.06	482099	keystroke_i	i	n/a
241.0795	0.015	482159	keystroke_u	u	n/a
241.1545	0.045	482309	keystroke_t	t	n/a
241.2445	0.09	482489	keystroke_i	i	n/a
241.3045	0.075	482609	keystroke_o	o	n/a
241.5145	0.075	483029	keystroke_n	n	n/a
242.039	0.075	484078	keystroke_Key.enter	Key.enter	n/a
242.119	9.282	484238	prompt	n/a	notre therapy trembl needed\n
243.225	0.059	486450	keystroke_n	n	n/a
243.329	0.075	486658	keystroke_o	o	n/a
243.464	0.075	486928	keystroke_t	t	n/a
243.719	0.151	487438	keystroke_r	r	n/a
243.824	0.09	487648	keystroke_e	e	n/a
244.02	0.0745	488040	keystroke_Key.space	Key.space	n/a
244.275	0.0595	488550	keystroke_t	t	n/a
244.3795	0.09	488759	keystroke_h	h	n/a
244.4845	0.075	488969	keystroke_e	e	n/a
244.7695	0.09	489539	keystroke_r	r	n/a
244.9945	0.075	489989	keystroke_a	a	n/a
245.1595	0.105	490319	keystroke_p	p	n/a
245.2945	0.075	490589	keystroke_y	y	n/a
245.4595	0.06	490919	keystroke_Key.space	Key.space	n/a
247.0795	0.06	494159	keystroke_t	t	n/a
247.3045	0.06	494609	keystroke_r	r	n/a
247.4995	0.06	494999	keystroke_e	e	n/a
248.009	0.0605	496018	keystroke_m	m	n/a
248.2495	0.06	496499	keystroke_b	b	n/a
248.82	0.074	497640	keystroke_l	l	n/a
249.404	0.075	498808	keystroke_Key.space	Key.space	n/a
249.674	0.06	499348	keystroke_n	n	n/a
250.199	0.045	500398	keystroke_e	e	n/a
250.304	0.075	500608	keystroke_e	e	n/a
250.499	0.075	500998	keystroke_d	d	n/a
250.6645	0.06	501329	keystroke_e	e	n/a
250.8445	0.06	501689	keystroke_d	d	n/a
251.3395	0.06	502679	keystroke_Key.enter	Key.enter	n/a
251.4045	7.047	502809	prompt	n/a	lone monkey sequences fall\n
252.1045	0.075	504209	keystroke_l	l	n/a
252.2995	0.06	504599	keystroke_o	o	n/a
252.6145	0.09	505229	keystroke_n	n	n/a
252.7345	0.075	505469	keystroke_e	e	n/a
252.8695	0.09	505739	keystroke_Key.space	Key.space	n/a
253.2895	0.09	506579	keystroke_m	m	n/a
253.3945	0.105	506789	keystroke_o	o	n/a
253.59	0.09	507180	keystroke_n	n	n/a
253.829	0.075	507658	keystroke_k	k	n/a
253.935	0.059	507870	keystroke_e	e	n/a
254.16	0.105	508320	keystroke_y	y	n/a
254.34	0.089	508680	keystroke_Key.space	Key.space	n/a
254.835	0.0595	509670	keystroke_s	s	n/a
255.029	0.06	510058	keystroke_e	e	n/a
255.314	0.061	510628	keystroke_q	q	n/a
255.434	0.0755	510868	keystroke_u	u	n/a
255.6145	0.075	511229	keystroke_e	e	n/a
255.7345	0.075	511469	keystroke_n	n	n/a
255.8995	0.135	511799	keystroke_c	c	n/a
256.0045	0.09	512009	keystroke_e	e	n/a
256.2295	0.075	512459	keystroke_s	s	n/a
256.3195	0.105	512639	keystroke_Key.space	Key.space	n/a
257.054	0.075	514108	keystroke_f	f	n/a
257.114	0.105	514228	keystroke_a	a	n/a
257.489	0.105	514978	keystroke_l	l	n/a
257.639	0.1205	515278	keystroke_l	l	n/a
258.4345	0.015	516869	keystroke_Key.enter	Key.enter	n/a
258.4545	11.5915	516909	prompt	n/a	phentermine schema indie hammer\n
259.6195	0.0745	519239	keystroke_p	p	n/a
260.054	0.075	520108	keystroke_h	h	n/a
260.5645	0.09	521129	keystroke_e	e	n/a
260.804	0.09	521608	keystroke_n	n	n/a
261.104	0.06	522208	keystroke_t	t	n/a
261.599	0.06	523198	keystroke_e	e	n/a
263.0995	0.075	526199	keystroke_r	r	n/a
264.0445	0.075	528089	keystroke_m	m	n/a
264.2395	0.12	528479	keystroke_i	i	n/a
264.5995	0.09	529199	keystroke_n	n	n/a
264.7795	0.075	529559	keystroke_e	e	n/a
264.8845	0.09	529769	keystroke_Key.space	Key.space	n/a
265.229	0.075	530458	keystroke_s	s	n/a
265.499	0.015	530998	keystroke_c	c	n/a
265.604	0.0755	531208	keystroke_h	h	n/a
265.7245	0.0745	531449	keystroke_e	e	n/a
265.859	0.09	531718	keystroke_m	m	n/a
266.024	0.075	532048	keystroke_a	a	n/a
266.144	0.09	532288	keystroke_Key.space	Key.space	n/a
266.984	0.12	533968	keystroke_i	i	n/a
267.059	0.09	534118	keystroke_n	n	n/a
267.389	0.045	534778	keystroke_d	d	n/a
267.464	0.09	534928	keystroke_i	i	n/a
267.8245	0.075	535649	keystroke_e	e	n/a
268.4545	0.165	536909	keystroke_Key.space	Key.space	n/a
269.0695	0.165	538139	keystroke_h	h	n/a
269.2495	0.015	538499	keystroke_a	a	n/a
269.2795	0.06	538559	keystroke_m	m	n/a
269.3995	0.09	538799	keystroke_m	m	n/a
269.5045	0.075	539009	keystroke_e	e	n/a
269.6095	0.105	539219	keystroke_r	r	n/a
269.969	0.0745	539938	keystroke_Key.enter	Key.enter	n/a
270.049	9.027	540098	prompt	n/a	reception soonest earthquake wifi\n
270.944	0.105	541888	keystroke_r	r	n/a
271.019	0.09	542038	keystroke_e	e	n/a
271.214	0.075	542428	keystroke_c	c	n/a
271.349	0.075	542698	keystroke_e	e	n/a
271.469	0.12	542938	keystroke_p	p	n/a
271.679	0.06	543358	keystroke_t	t	n/a
271.814	0.135	543628	keystroke_i	i	n/a
271.859	0.12	543718	keystroke_o	o	n/a
272.099	0.075	544198	keystroke_n	n	n/a
272.339	0.075	544678	keystroke_Key.space	Key.space	n/a
273.059	0.06	546118	keystroke_s	s	n/a
273.1645	0.06	546329	keystroke_o	o	n/a
273.2845	0.09	546569	keystroke_o	o	n/a
273.4785	0.075	546957	keystroke_n	n	n/a
273.5695	0.045	547139	keystroke_e	e	n/a
273.719	0.06	547438	keystroke_s	s	n/a
273.914	0.0595	547828	keystroke_t	t	n/a
274.0035	0.075	548007	keystroke_Key.space	Key.space	n/a
274.4535	0.06	548907	keystroke_e	e	n/a
274.7835	0.105	549567	keystroke_a	a	n/a
274.9485	0.06	549897	keystroke_r	r	n/a
275.114	0.06	550228	keystroke_t	t	n/a
275.204	0.09	550408	keystroke_h	h	n/a
275.519	0.06	551038	keystroke_q	q	n/a
275.804	0.09	551608	keystroke_u	u	n/a
275.879	0.0905	551758	keystroke_a	a	n/a
276.389	0.09	552778	keystroke_k	k	n/a
276.494	0.075	552988	keystroke_e	e	n/a
276.629	0.075	553258	keystroke_Key.space	Key.space	n/a
277.064	0.06	554128	keystroke_w	w	n/a
277.199	0.09	554398	keystroke_i	i	n/a
278.129	0.075	556258	keystroke_f	f	n/a
278.204	0.105	556408	keystroke_i	i	n/a
278.984	0.09	557968	keystroke_Key.enter	Key.enter	n/a
279.079	12.567	558158	prompt	n/a	browsers broader jerusalem press\n
280.094	0.045	560188	keystroke_b	b	n/a
280.229	0.06	560458	keystroke_r	r	n/a
280.3495	0.09	560699	keystroke_o	o	n/a
280.5745	0.045	561149	keystroke_w	w	n/a
280.9045	0.075	561809	keystroke_s	s	n/a
281.1145	0.075	562229	keystroke_e	e	n/a
281.3845	0.06	562769	keystroke_r	r	n/a
282.4035	0.076	564807	keystroke_s	s	n/a
282.5835	0.075	565167	keystroke_Key.space	Key.space	n/a
283.7385	0.0455	567477	keystroke_b	b	n/a
284.0235	0.075	568047	keystroke_r	r	n/a
284.2785	0.075	568557	keystroke_o	o	n/a
284.5485	0.105	569097	keystroke_a	a	n/a
284.9245	0.06	569849	keystroke_d	d	n/a
285.1345	0.075	570269	keystroke_e	e	n/a
285.3745	0.075	570749	keystroke_r	r	n/a
285.6595	0.074	571319	keystroke_Key.space	Key.space	n/a
286.4995	0.074	572999	keystroke_j	j	n/a
286.6195	0.074	573239	keystroke_e	e	n/a
286.8435	0.045	573687	keystroke_r	r	n/a
287.0085	0.075	574017	keystroke_u	u	n/a
287.429	0.0755	574858	keystroke_s	s	n/a
287.6095	0.0895	575219	keystroke_a	a	n/a
287.729	0.09	575458	keystroke_l	l	n/a
288.059	0.09	576118	keystroke_e	e	n/a
288.179	0.075	576358	keystroke_m	m	n/a
288.884	0.09	577768	keystroke_Key.space	Key.space	n/a
290.7445	0.075	581489	keystroke_p	p	n/a
290.8945	0.12	581789	keystroke_r	r	n/a
290.9695	0.09	581939	keystroke_e	e	n/a
291.1945	0.045	582389	keystroke_s	s	n/a
291.3145	0.09	582629	keystroke_s	s	n/a
291.5695	0.075	583139	keystroke_Key.enter	Key.enter	n/a
291.649	7.452	583298	prompt	n/a	surrounded away telecom scored\n
292.4845	0.075	584969	keystroke_s	s	n/a
292.6645	0.075	585329	keystroke_u	u	n/a
292.8445	0.03	585689	keystroke_r	r	n/a
292.9345	0.075	585869	keystroke_r	r	n/a
293.084	0.135	586168	keystroke_o	o	n/a
293.159	0.075	586318	keystroke_u	u	n/a
293.369	0.06	586738	keystroke_n	n	n/a
293.519	0.06	587038	keystroke_d	d	n/a
293.6845	0.045	587369	keystroke_e	e	n/a
293.8345	0.075	587669	keystroke_d	d	n/a
293.9395	0.075	587879	keystroke_Key.space	Key.space	n/a
294.2245	0.105	588449	keystroke_a	a	n/a
294.449	0.06	588898	keystroke_w	w	n/a
294.614	0.075	589228	keystroke_a	a	n/a
294.854	0.06	589708	keystroke_y	y	n/a
294.974	0.075	589948	keystroke_Key.space	Key.space	n/a
295.739	0.045	591478	keystroke_t	t	n/a
295.919	0.06	591838	keystroke_e	e	n/a
296.024	0.105	592048	keystroke_l	l	n/a
296.159	0.06	592318	keystroke_e	e	n/a
296.504	0.06	593008	keystroke_c	c	n/a
296.609	0.105	593218	keystroke_o	o	n/a
296.669	0.09	593338	keystroke_m	m	n/a
296.909	0.075	593818	keystroke_Key.space	Key.space	n/a
297.6445	0.075	595289	keystroke_s	s	n/a
297.8245	0.045	595649	keystroke_c	c	n/a
297.9145	0.09	595829	keystroke_o	o	n/a
298.0495	0.12	596099	keystroke_r	r	n/a
298.1245	0.075	596249	keystroke_e	e	n/a
298.2895	0.105	596579	keystroke_d	d	n/a
298.9495	0.15	597899	keystroke_Key.enter	Key.enter	n/a
299.1085	6.262	598217	prompt	n/a	bumper rich dare output\n
300.1345	0.06	600269	keystroke_b	b	n/a
300.3295	0.075	600659	keystroke_u	u	n/a
300.584	0.03	601168	keystroke_m	m	n/a
300.749	0.105	601498	keystroke_p	p	n/a
300.899	0.12	601798	keystroke_e	e	n/a
300.974	0.075	601948	keystroke_r	r	n/a
301.154	0.075	602308	keystroke_Key.space	Key.space	n/a
301.679	0.075	603358	keystroke_r	r	n/a
301.769	0.09	603538	keystroke_i	i	n/a
302.039	0.09	604078	keystroke_c	c	n/a
302.189	0.075	604378	keystroke_h	h	n/a
302.414	0.075	604828	keystroke_Key.space	Key.space	n/a
303.014	0.075	606028	keystroke_d	d	n/a
303.149	0.075	606298	keystroke_a	a	n/a
303.3745	0.135	606749	keystroke_t	t	n/a
303.4495	0.12	606899	keystroke_e	e	n/a
303.5845	0.074	607169	keystroke_Key.space	Key.space	n/a
304.2135	0.135	608427	keystroke_o	o	n/a
304.2885	0.12	608577	keystroke_u	u	n/a
304.4385	0.06	608877	keystroke_t	t	n/a
304.6185	0.12	609237	keystroke_p	p	n/a
304.7235	0.105	609447	keystroke_u	u	n/a
304.8735	0.075	609747	keystroke_t	t	n/a
305.309	0.0605	610618	keystroke_Key.enter	Key.enter	n/a
305.374	7.857	610748	prompt	n/a	directed home luck honey\n
306.329	0.045	612658	keystroke_d	d	n/a
306.419	0.0755	612838	keystroke_i	i	n/a
306.5245	0.06	613049	keystroke_r	r	n/a
306.689	0.1045	613378	keystroke_e	e	n/a
306.914	0.0595	613828	keystroke_c	c	n/a
307.139	0.06	614278	keystroke_t	t	n/a
307.484	0.06	614968	keystroke_e	e	n/a
307.649	0.075	615298	keystroke_d	d	n/a
307.739	0.075	615478	keystroke_Key.space	Key.space	n/a
308.8945	0.06	617789	keystroke_h	h	n/a
309.0145	0.12	618029	keystroke_o	o	n/a
309.2095	0.105	618419	keystroke_m	m	n/a
309.419	0.075	618838	keystroke_e	e	n/a
309.524	0.075	619048	keystroke_Key.space	Key.space	n/a
309.9895	0.105	619979	keystroke_l	l	n/a
310.1245	0.09	620249	keystroke_u	u	n/a
310.4995	0.06	620999	keystroke_c	c	n/a
310.6045	0.09	621209	keystroke_k	k	n/a
310.814	0.075	621628	keystroke_Key.space	Key.space	n/a
311.759	0.045	623518	keystroke_h	h	n/a
311.954	0.12	623908	keystroke_o	o	n/a
312.089	0.075	624178	keystroke_n	n	n/a
312.269	0.06	624538	keystroke_e	e	n/a
312.449	0.075	624898	keystroke_y	y	n/a
313.1685	0.0605	626337	keystroke_Key.enter	Key.enter	n/a
313.234	10.242	626468	prompt	n/a	research scenic annually eating\n
314.084	0.1355	628168	keystroke_r	r	n/a
314.189	0.0755	628378	keystroke_e	e	n/a
314.3995	0.0595	628799	keystroke_s	s	n/a
314.564	0.0755	629128	keystroke_e	e	n/a
314.7445	0.135	629489	keystroke_a	a	n/a
314.8645	0.075	629729	keystroke_r	r	n/a
315.1045	0.09	630209	keystroke_c	c	n/a
315.2245	0.105	630449	keystroke_h	h	n/a
315.4795	0.075	630959	keystroke_Key.space	Key.space	n/a
316.109	0.06	632218	keystroke_s	s	n/a
316.2885	0.045	632577	keystroke_c	c	n/a
316.4835	0.031	632967	keystroke_e	e	n/a
316.5585	0.105	633117	keystroke_n	n	n/a
317.444	0.09	634888	keystroke_i	i	n/a
317.549	0.075	635098	keystroke_c	c	n/a
317.999	0.06	635998	keystroke_Key.space	Key.space	n/a
318.419	0.075	636838	keystroke_a	a	n/a
318.719	0.015	637438	keystroke_c	c	n/a
319.649	0.105	639298	keystroke_Key.backspace	Key.backspace	n/a
320.189	0.06	640378	keystroke_n	n	n/a
320.309	0.06	640618	keystroke_n	n	n/a
320.519	0.075	641038	keystroke_u	u	n/a
320.654	0.075	641308	keystroke_a	a	n/a
320.774	0.06	641548	keystroke_l	l	n/a
320.924	0.105	641848	keystroke_l	l	n/a
321.014	0.105	642028	keystroke_y	y	n/a
321.224	0.045	642448	keystroke_Key.space	Key.space	n/a
321.9445	0.06	643889	keystroke_e	e	n/a
322.1245	0.06	644249	keystroke_a	a	n/a
322.4245	0.075	644849	keystroke_t	t	n/a
322.6645	0.03	645329	keystroke_i	i	n/a
322.6795	0.075	645359	keystroke_n	n	n/a
322.7695	0.045	645539	keystroke_g	g	n/a
323.4145	0.06	646829	keystroke_Key.enter	Key.enter	n/a
323.479	7.152	646958	prompt	n/a	alleged begun works mercury\n
324.1485	0.076	648297	keystroke_a	a	n/a
324.584	0.03	649168	keystroke_l	l	n/a
324.689	0.075	649378	keystroke_l	l	n/a
324.824	0.105	649648	keystroke_e	e	n/a
325.049	0.0905	650098	keystroke_g	g	n/a
325.2145	0.075	650429	keystroke_e	e	n/a
325.4095	0.075	650819	keystroke_d	d	n/a
325.5435	0.06	651087	keystroke_Key.space	Key.space	n/a
326.0995	0.06	652199	keystroke_b	b	n/a
326.1745	0.0745	652349	keystroke_e	e	n/a
326.444	0.045	652888	keystroke_g	g	n/a
326.609	0.09	653218	keystroke_u	u	n/a
326.879	0.09	653758	keystroke_n	n	n/a
327.074	0.075	654148	keystroke_Key.space	Key.space	n/a
327.614	0.0755	655228	keystroke_w	w	n/a
327.7045	0.1195	655409	keystroke_o	o	n/a
327.854	0.075	655708	keystroke_r	r	n/a
327.989	0.105	655978	keystroke_k	k	n/a
328.184	0.09	656368	keystroke_s	s	n/a
328.304	0.075	656608	keystroke_Key.space	Key.space	n/a
329.159	0.06	658318	keystroke_m	m	n/a
329.399	0.06	658798	keystroke_e	e	n/a
329.564	0.045	659128	keystroke_r	r	n/a
329.7595	0.06	659519	keystroke_c	c	n/a
329.8795	0.06	659759	keystroke_u	u	n/a
330.0295	0.075	660059	keystroke_r	r	n/a
330.2545	0.09	660509	keystroke_y	y	n/a
330.5995	0.03	661199	keystroke_Key.enter	Key.enter	n/a
330.6345	11.9515	661269	prompt	n/a	indian sublime traveller speed\n
331.4395	0.164	662879	keystroke_i	i	n/a
331.5745	0.075	663149	keystroke_n	n	n/a
331.8295	0.06	663659	keystroke_d	d	n/a
331.9045	0.105	663809	keystroke_i	i	n/a
332.0245	0.075	664049	keystroke_a	a	n/a
332.1445	0.075	664289	keystroke_n	n	n/a
332.3535	0.075	664707	keystroke_Key.space	Key.space	n/a
332.8345	0.06	665669	keystroke_s	s	n/a
333.0145	0.075	666029	keystroke_u	u	n/a
333.3295	0.03	666659	keystroke_b	b	n/a
333.6445	0.089	667289	keystroke_l	l	n/a
333.8535	0.0755	667707	keystroke_i	i	n/a
334.0635	0.06	668127	keystroke_m	m	n/a
334.1845	0.059	668369	keystroke_e	e	n/a
334.3185	0.075	668637	keystroke_Key.space	Key.space	n/a
336.2545	0.045	672509	keystroke_t	t	n/a
336.4045	0.03	672809	keystroke_r	r	n/a
336.5695	0.075	673139	keystroke_a	a	n/a
336.8245	0.045	673649	keystroke_v	v	n/a
337.0195	0.09	674039	keystroke_e	e	n/a
337.2295	0.06	674459	keystroke_l	l	n/a
337.379	0.06	674758	keystroke_l	l	n/a
337.634	0.06	675268	keystroke_e	e	n/a
337.814	0.075	675628	keystroke_r	r	n/a
338.3995	0.015	676799	keystroke_Key.space	Key.space	n/a
339.1045	0.06	678209	keystroke_s	s	n/a
339.1795	0.09	678359	keystroke_p	p	n/a
341.5815	0.001	683163	keystroke_e	e	n/a
341.6235	0.0755	683247	keystroke_e	e	n/a
341.819	0.075	683638	keystroke_d	d	n/a
342.4785	0.105	684957	keystroke_Key.enter	Key.enter	n/a
342.589	6.8515	685178	prompt	n/a	clicks foto prefer preferred\n
343.3785	0.06	686757	keystroke_c	c	n/a
343.499	0.105	686998	keystroke_l	l	n/a
343.694	0.09	687388	keystroke_i	i	n/a
343.979	0.06	687958	keystroke_c	c	n/a
344.084	0.09	688168	keystroke_k	k	n/a
344.369	0.06	688738	keystroke_s	s	n/a
344.489	0.075	688978	keystroke_Key.space	Key.space	n/a
345.2685	0.06	690537	keystroke_f	f	n/a
345.4945	0.089	690989	keystroke_o	o	n/a
345.659	0.075	691318	keystroke_t	t	n/a
345.749	0.09	691498	keystroke_o	o	n/a
346.019	0.0595	692038	keystroke_Key.space	Key.space	n/a
346.4845	0.074	692969	keystroke_p	p	n/a
346.5885	0.12	693177	keystroke_r	r	n/a
346.6785	0.09	693357	keystroke_e	e	n/a
346.844	0.0895	693688	keystroke_f	f	n/a
347.0245	0.104	694049	keystroke_e	e	n/a
347.144	0.0895	694288	keystroke_r	r	n/a
347.2935	0.075	694587	keystroke_Key.space	Key.space	n/a
347.6235	0.075	695247	keystroke_p	p	n/a
347.774	0.1045	695548	keystroke_r	r	n/a
347.8335	0.09	695667	keystroke_e	e	n/a
348.0735	0.015	696147	keystroke_f	f	n/a
348.1795	0.06	696359	keystroke_e	e	n/a
348.3445	0.045	696689	keystroke_r	r	n/a
348.4345	0.09	696869	keystroke_r	r	n/a
348.5845	0.075	697169	keystroke_e	e	n/a
348.7645	0.06	697529	keystroke_d	d	n/a
349.349	0.09	698698	keystroke_Key.enter	Key.enter	n/a
349.4435	9.5675	698887	prompt	n/a	chat surgery palm harassment\n
350.294	0.06	700588	keystroke_c	c	n/a
350.474	0.06	700948	keystroke_h	h	n/a
350.549	0.06	701098	keystroke_a	a	n/a
350.789	0.045	701578	keystroke_t	t	n/a
350.939	0.09	701878	keystroke_Key.space	Key.space	n/a
351.6595	0.075	703319	keystroke_s	s	n/a
351.8095	0.075	703619	keystroke_u	u	n/a
352.0045	0.06	704009	keystroke_r	r	n/a
352.2895	0.075	704579	keystroke_g	g	n/a
352.4845	0.12	704969	keystroke_e	e	n/a
352.5445	0.105	705089	keystroke_r	r	n/a
352.7695	0.075	705539	keystroke_y	y	n/a
352.9045	0.075	705809	keystroke_Key.space	Key.space	n/a
354.1495	0.075	708299	keystroke_p	p	n/a
354.2395	0.09	708479	keystroke_a	a	n/a
354.524	0.075	709048	keystroke_l	l	n/a
354.764	0.06	709528	keystroke_m	m	n/a
354.959	0.075	709918	keystroke_Key.space	Key.space	n/a
355.814	0.06	711628	keystroke_h	h	n/a
355.904	0.09	711808	keystroke_a	a	n/a
356.129	0.06	712258	keystroke_r	r	n/a
356.279	0.09	712558	keystroke_a	a	n/a
356.504	0.03	713008	keystroke_s	s	n/a
356.594	0.075	713188	keystroke_s	s	n/a
357.479	0.06	714958	keystroke_m	m	n/a
357.584	0.09	715168	keystroke_e	e	n/a
357.689	0.075	715378	keystroke_n	n	n/a
357.9745	0.09	715949	keystroke_t	t	n/a
358.9195	0.09	717839	keystroke_Key.enter	Key.enter	n/a
359.0145	8.3365	718029	prompt	n/a	sheriff deliver paid midlands\n
359.894	0.06	719788	keystroke_s	s	n/a
360.029	0.09	720058	keystroke_h	h	n/a
360.149	0.075	720298	keystroke_e	e	n/a
360.359	0.06	720718	keystroke_r	r	n/a
360.569	0.09	721138	keystroke_i	i	n/a
360.8095	0.045	721619	keystroke_f	f	n/a
360.9145	0.09	721829	keystroke_f	f	n/a
361.0935	0.076	722187	keystroke_Key.space	Key.space	n/a
361.769	0.06	723538	keystroke_d	d	n/a
361.934	0.06	723868	keystroke_e	e	n/a
362.039	0.12	724078	keystroke_l	l	n/a
362.114	0.105	724228	keystroke_i	i	n/a
362.249	0.06	724498	keystroke_v	v	n/a
362.414	0.105	724828	keystroke_e	e	n/a
362.474	0.09	724948	keystroke_r	r	n/a
362.669	0.075	725338	keystroke_Key.space	Key.space	n/a
363.7645	0.075	727529	keystroke_p	p	n/a
363.8545	0.06	727709	keystroke_a	a	n/a
364.0645	0.09	728129	keystroke_i	i	n/a
364.3495	0.09	728699	keystroke_d	d	n/a
364.4545	0.06	728909	keystroke_Key.space	Key.space	n/a
365.369	0.0755	730738	keystroke_m	m	n/a
365.5795	0.075	731159	keystroke_i	i	n/a
365.8345	0.06	731669	keystroke_d	d	n/a
365.9695	0.09	731939	keystroke_l	l	n/a
366.0895	0.06	732179	keystroke_a	a	n/a
366.2395	0.075	732479	keystroke_n	n	n/a
366.5395	0.135	733079	keystroke_d	d	n/a
366.6445	0.105	733289	keystroke_s	s	n/a
367.2595	0.09	734519	keystroke_Key.enter	Key.enter	n/a
367.3555	8.155	734711	prompt	n/a	candy stack idle justice\n
368.3395	0.09	736679	keystroke_c	c	n/a
368.4145	0.105	736829	keystroke_a	a	n/a
368.5345	0.09	737069	keystroke_n	n	n/a
368.9245	0.09	737849	keystroke_d	d	n/a
369.149	0.09	738298	keystroke_y	y	n/a
369.434	0.105	738868	keystroke_Key.space	Key.space	n/a
370.049	0.075	740098	keystroke_s	s	n/a
370.229	0.045	740458	keystroke_t	t	n/a
370.394	0.105	740788	keystroke_a	a	n/a
370.8445	0.075	741689	keystroke_c	c	n/a
370.9345	0.075	741869	keystroke_k	k	n/a
371.1595	0.06	742319	keystroke_Key.space	Key.space	n/a
371.6545	0.0895	743309	keystroke_i	i	n/a
372.059	0.0595	744118	keystroke_d	d	n/a
372.1345	0.089	744269	keystroke_l	l	n/a
372.2535	0.075	744507	keystroke_e	e	n/a
372.3885	0.075	744777	keystroke_Key.space	Key.space	n/a
373.0485	0.06	746097	keystroke_j	j	n/a
373.2145	0.074	746429	keystroke_u	u	n/a
373.3035	0.061	746607	keystroke_s	s	n/a
373.484	0.06	746968	keystroke_t	t	n/a
373.589	0.075	747178	keystroke_i	i	n/a
373.739	0.045	747478	keystroke_v	v	n/a
374.414	0.12	748828	keystroke_Key.backspace	Key.backspace	n/a
374.579	0.135	749158	keystroke_c	c	n/a
374.669	0.09	749338	keystroke_e	e	n/a
375.4335	0.075	750867	keystroke_Key.enter	Key.enter	n/a
375.5135	7.362	751027	prompt	n/a	drain nick stroke gardens\n
376.349	0.06	752698	keystroke_d	d	n/a
376.529	0.045	753058	keystroke_r	r	n/a
376.694	0.06	753388	keystroke_a	a	n/a
376.799	0.12	753598	keystroke_i	i	n/a
376.889	0.075	753778	keystroke_n	n	n/a
377.084	0.09	754168	keystroke_Key.space	Key.space	n/a
377.6845	0.12	755369	keystroke_n	n	n/a
377.7895	0.09	755579	keystroke_i	i	n/a
378.3145	0.09	756629	keystroke_c	c	n/a
378.4195	0.09	756839	keystroke_k	k	n/a
378.6285	0.076	757257	keystroke_Key.space	Key.space	n/a
378.9895	0.06	757979	keystroke_s	s	n/a
379.1845	0.03	758369	keystroke_t	t	n/a
379.3195	0.045	758639	keystroke_r	r	n/a
379.589	0.1055	759178	keystroke_o	o	n/a
379.829	0.06	759658	keystroke_k	k	n/a
379.9785	0.06	759957	keystroke_e	e	n/a
380.1135	0.075	760227	keystroke_Key.space	Key.space	n/a
380.9685	0.06	761937	keystroke_g	g	n/a
381.1335	0.076	762267	keystroke_a	a	n/a
381.3145	0.059	762629	keystroke_r	r	n/a
381.6135	0.045	763227	keystroke_d	d	n/a
381.794	0.06	763588	keystroke_e	e	n/a
381.899	0.09	763798	keystroke_n	n	n/a
382.049	0.075	764098	keystroke_s	s	n/a
382.7985	0.075	765597	keystroke_Key.enter	Key.enter	n/a
382.879	9.6565	765758	prompt	n/a	graduate lord plants presence\n
383.879	0.045	767758	keystroke_g	g	n/a
384.059	0.045	768118	keystroke_r	r	n/a
384.239	0.075	768478	keystroke_a	a	n/a
384.434	0.075	768868	keystroke_d	d	n/a
385.784	0.075	771568	keystroke_u	u	n/a
385.934	0.06	771868	keystroke_a	a	n/a
386.264	0.105	772528	keystroke_t	t	n/a
386.324	0.09	772648	keystroke_e	e	n/a
386.444	0.075	772888	keystroke_Key.space	Key.space	n/a
386.879	0.105	773758	keystroke_l	l	n/a
387.1185	0.09	774237	keystroke_o	o	n/a
387.2685	0.06	774537	keystroke_r	r	n/a
387.4635	0.061	774927	keystroke_d	d	n/a
387.5695	0.0895	775139	keystroke_Key.space	Key.space	n/a
388.0345	0.135	776069	keystroke_p	p	n/a
388.1695	0.075	776339	keystroke_l	l	n/a
388.3645	0.1045	776729	keystroke_a	a	n/a
388.574	0.105	777148	keystroke_n	n	n/a
388.694	0.03	777388	keystroke_y	y	n/a
389.024	0.105	778048	keystroke_Key.backspace	Key.backspace	n/a
389.13	0.134	778260	keystroke_t	t	n/a
389.249	0.12	778498	keystroke_s	s	n/a
389.414	0.12	778828	keystroke_Key.space	Key.space	n/a
390.554	0.06	781108	keystroke_p	p	n/a
390.9895	0.12	781979	keystroke_r	r	n/a
391.0795	0.06	782159	keystroke_e	e	n/a
391.3195	0.06	782639	keystroke_s	s	n/a
391.4845	0.075	782969	keystroke_e	e	n/a
391.6495	0.059	783299	keystroke_n	n	n/a
391.8135	0.12	783627	keystroke_c	c	n/a
391.8885	0.09	783777	keystroke_e	e	n/a
392.4435	0.09	784887	keystroke_Key.enter	Key.enter	n/a
392.541	12.1145	785082	prompt	n/a	camcorders laboratories particular structured\n
393.404	0.075	786808	keystroke_c	c	n/a
393.539	0.105	787078	keystroke_a	a	n/a
393.659	0.075	787318	keystroke_m	m	n/a
393.9435	0.06	787887	keystroke_c	c	n/a
394.0635	0.105	788127	keystroke_o	o	n/a
394.214	0.045	788428	keystroke_r	r	n/a
394.424	0.06	788848	keystroke_d	d	n/a
394.604	0.12	789208	keystroke_e	e	n/a
394.694	0.075	789388	keystroke_r	r	n/a
394.889	0.075	789778	keystroke_s	s	n/a
395.024	0.075	790048	keystroke_Key.space	Key.space	n/a
395.294	0.09	790588	keystroke_l	l	n/a
395.594	0.075	791188	keystroke_a	a	n/a
396.1645	0.06	792329	keystroke_b	b	n/a
396.3745	0.075	792749	keystroke_o	o	n/a
397.1535	0.06	794307	keystroke_r	r	n/a
397.4235	0.09	794847	keystroke_a	a	n/a
397.769	0.045	795538	keystroke_t	t	n/a
397.874	0.075	795748	keystroke_o	o	n/a
398.084	0.06	796168	keystroke_r	r	n/a
398.204	0.105	796408	keystroke_i	i	n/a
398.354	0.045	796708	keystroke_e	e	n/a
398.534	0.075	797068	keystroke_s	s	n/a
399.4935	0.06	798987	keystroke_Key.space	Key.space	n/a
399.9285	0.105	799857	keystroke_p	p	n/a
400.0185	0.135	800037	keystroke_a	a	n/a
400.1385	0.06	800277	keystroke_r	r	n/a
400.3335	0.09	800667	keystroke_t	t	n/a
400.4385	0.075	800877	keystroke_i	i	n/a
400.6335	0.06	801267	keystroke_c	c	n/a
400.7235	0.075	801447	keystroke_u	u	n/a
400.9185	0.075	801837	keystroke_l	l	n/a
401.0085	0.075	802017	keystroke_a	a	n/a
401.2035	0.09	802407	keystroke_r	r	n/a
401.3235	0.06	802647	keystroke_Key.space	Key.space	n/a
402.299	0.075	804598	keystroke_s	s	n/a
402.494	0.06	804988	keystroke_t	t	n/a
402.659	0.06	805318	keystroke_r	r	n/a
403.259	0.045	806518	keystroke_u	u	n/a
403.394	0.06	806788	keystroke_c	c	n/a
403.589	0.06	807178	keystroke_t	t	n/a
403.8595	0.075	807719	keystroke_u	u	n/a
404.0095	0.105	808019	keystroke_r	r	n/a
404.0695	0.09	808139	keystroke_e	e	n/a
404.2795	0.045	808559	keystroke_d	d	n/a
404.5635	0.09	809127	keystroke_Key.enter	Key.enter	n/a
404.6585	6.8675	809317	prompt	n/a	jackson heater reno fame\n
405.884	0.03	811768	keystroke_j	j	n/a
405.974	0.135	811948	keystroke_a	a	n/a
406.064	0.075	812128	keystroke_c	c	n/a
406.2745	0.09	812549	keystroke_k	k	n/a
406.4545	0.06	812909	keystroke_s	s	n/a
406.6345	0.105	813269	keystroke_o	o	n/a
406.6785	0.09	813357	keystroke_n	n	n/a
406.8885	0.091	813777	keystroke_Key.space	Key.space	n/a
407.594	0.06	815188	keystroke_h	h	n/a
407.639	0.06	815278	keystroke_e	e	n/a
407.804	0.075	815608	keystroke_a	a	n/a
408.059	0.045	816118	keystroke_t	t	n/a
408.209	0.12	816418	keystroke_e	e	n/a
408.284	0.09	816568	keystroke_r	r	n/a
408.449	0.09	816898	keystroke_Key.space	Key.space	n/a
409.0635	0.12	818127	keystroke_r	r	n/a
409.1385	0.09	818277	keystroke_e	e	n/a
409.934	0.12	819868	keystroke_n	n	n/a
409.994	0.105	819988	keystroke_o	o	n/a
410.234	0.075	820468	keystroke_Key.space	Key.space	n/a
410.699	0.045	821398	keystroke_f	f	n/a
410.834	0.0745	821668	keystroke_a	a	n/a
410.9685	0.09	821937	keystroke_m	m	n/a
411.1035	0.06	822207	keystroke_e	e	n/a
411.4485	0.075	822897	keystroke_Key.enter	Key.enter	n/a
411.529	8.4115	823058	prompt	n/a	lane providence holiday coach\n
412.2135	0.09	824427	keystroke_l	l	n/a
412.3185	0.06	824637	keystroke_a	a	n/a
412.4835	0.09	824967	keystroke_n	n	n/a
412.6335	0.03	825267	keystroke_e	e	n/a
412.7235	0.09	825447	keystroke_Key.space	Key.space	n/a
413.2935	0.105	826587	keystroke_p	p	n/a
413.4735	0.06	826947	keystroke_r	r	n/a
414.254	0.06	828508	keystroke_o	o	n/a
414.359	0.06	828718	keystroke_v	v	n/a
414.479	0.075	828958	keystroke_i	i	n/a
414.854	0.06	829708	keystroke_d	d	n/a
415.049	0.045	830098	keystroke_e	e	n/a
415.139	0.09	830278	keystroke_n	n	n/a
415.349	0.15	830698	keystroke_c	c	n/a
415.454	0.09	830908	keystroke_e	e	n/a
415.634	0.09	831268	keystroke_Key.space	Key.space	n/a
416.399	0.075	832798	keystroke_h	h	n/a
416.444	0.135	832888	keystroke_o	o	n/a
416.714	0.15	833428	keystroke_l	l	n/a
416.819	0.1045	833638	keystroke_i	i	n/a
417.0135	0.12	834027	keystroke_d	d	n/a
417.1345	0.074	834269	keystroke_a	a	n/a
417.3285	0.075	834657	keystroke_y	y	n/a
417.4335	0.12	834867	keystroke_Key.space	Key.space	n/a
418.4385	0.0605	836877	keystroke_c	c	n/a
418.544	0.09	837088	keystroke_o	o	n/a
418.649	0.0895	837298	keystroke_a	a	n/a
419.2185	0.075	838437	keystroke_c	c	n/a
419.3235	0.105	838647	keystroke_h	h	n/a
419.849	0.09	839698	keystroke_Key.enter	Key.enter	n/a
419.944	10.6315	839888	prompt	n/a	regulatory transaction pregnant montgomery\n
420.809	0.1045	841618	keystroke_r	r	n/a
420.9585	0.075	841917	keystroke_e	e	n/a
421.1685	0.06	842337	keystroke_g	g	n/a
421.3335	0.075	842667	keystroke_u	u	n/a
421.5135	0.09	843027	keystroke_l	l	n/a
421.6185	0.0605	843237	keystroke_a	a	n/a
421.844	0.06	843688	keystroke_t	t	n/a
421.964	0.09	843928	keystroke_o	o	n/a
422.084	0.075	844168	keystroke_r	r	n/a
422.279	0.075	844558	keystroke_y	y	n/a
422.399	0.09	844798	keystroke_Key.space	Key.space	n/a
423.0285	0.06	846057	keystroke_t	t	n/a
423.1935	0.045	846387	keystroke_r	r	n/a
423.3735	0.075	846747	keystroke_a	a	n/a
423.4935	0.09	846987	keystroke_n	n	n/a
423.6285	0.075	847257	keystroke_s	s	n/a
423.8235	0.0755	847647	keystroke_a	a	n/a
423.959	0.075	847918	keystroke_c	c	n/a
424.154	0.06	848308	keystroke_t	t	n/a
424.244	0.105	848488	keystroke_i	i	n/a
424.304	0.105	848608	keystroke_o	o	n/a
424.4985	0.06	848997	keystroke_n	n	n/a
424.6935	0.06	849387	keystroke_Key.space	Key.space	n/a
425.3685	0.105	850737	keystroke_p	p	n/a
425.6835	0.12	851367	keystroke_r	r	n/a
425.7735	0.075	851547	keystroke_e	e	n/a
426.014	0.06	852028	keystroke_g	g	n/a
426.194	0.06	852388	keystroke_n	n	n/a
426.284	0.06	852568	keystroke_a	a	n/a
426.419	0.09	852838	keystroke_n	n	n/a
426.569	0.105	853138	keystroke_t	t	n/a
426.689	0.09	853378	keystroke_Key.space	Key.space	n/a
427.7685	0.06	855537	keystroke_m	m	n/a
427.9335	0.0905	855867	keystroke_o	o	n/a
428.144	0.075	856288	keystroke_n	n	n/a
428.279	0.075	856558	keystroke_t	t	n/a
428.504	0.045	857008	keystroke_g	g	n/a
428.684	0.12	857368	keystroke_o	o	n/a
428.759	0.105	857518	keystroke_m	m	n/a
428.999	0.045	857998	keystroke_e	e	n/a
429.329	0.0745	858658	keystroke_r	r	n/a
429.5535	0.09	859107	keystroke_y	y	n/a
430.5285	0.045	861057	keystroke_Key.enter	Key.enter	n/a
430.58	9.3255	861160	prompt	n/a	refused motion violation accommodations\n
431.354	0.1055	862708	keystroke_r	r	n/a
431.4135	0.061	862827	keystroke_e	e	n/a
431.5785	0.045	863157	keystroke_f	f	n/a
431.7135	0.06	863427	keystroke_u	u	n/a
431.8785	0.045	863757	keystroke_s	s	n/a
432.0295	0.044	864059	keystroke_e	e	n/a
432.1935	0.061	864387	keystroke_d	d	n/a
432.2685	0.06	864537	keystroke_Key.space	Key.space	n/a
432.5545	0.075	865109	keystroke_m	m	n/a
432.6885	0.09	865377	keystroke_o	o	n/a
432.8535	0.061	865707	keystroke_t	t	n/a
432.9435	0.12	865887	keystroke_i	i	n/a
433.0335	0.075	866067	keystroke_o	o	n/a
433.2135	0.075	866427	keystroke_n	n	n/a
433.3935	0.075	866787	keystroke_Key.space	Key.space	n/a
434.2035	0.09	868407	keystroke_v	v	n/a
434.3085	0.015	868617	keystroke_i	i	n/a
434.3385	0.061	868677	keystroke_o	o	n/a
434.5185	0.061	869037	keystroke_l	l	n/a
434.804	0.075	869608	keystroke_a	a	n/a
434.984	0.06	869968	keystroke_t	t	n/a
435.089	0.09	870178	keystroke_i	i	n/a
435.134	0.09	870268	keystroke_o	o	n/a
435.314	0.06	870628	keystroke_n	n	n/a
435.494	0.075	870988	keystroke_Key.space	Key.space	n/a
436.004	0.105	872008	keystroke_a	a	n/a
436.3635	0.06	872727	keystroke_c	c	n/a
436.4835	0.06	872967	keystroke_c	c	n/a
436.6495	0.104	873299	keystroke_o	o	n/a
437.2035	0.09	874407	keystroke_m	m	n/a
437.5335	0.075	875067	keystroke_o	o	n/a
438.104	0.045	876208	keystroke_d	d	n/a
438.254	0.075	876508	keystroke_a	a	n/a
438.419	0.06	876838	keystroke_t	t	n/a
438.539	0.075	877078	keystroke_i	i	n/a
438.569	0.09	877138	keystroke_o	o	n/a
438.734	0.075	877468	keystroke_n	n	n/a
438.854	0.075	877708	keystroke_s	s	n/a
439.8285	0.075	879657	keystroke_Key.enter	Key.enter	n/a
439.9085	11.877	879817	prompt	n/a	portugal apparent jobs vocal\n
441.3135	0.075	882627	keystroke_p	p	n/a
441.5235	0.076	883047	keystroke_o	o	n/a
441.674	0.045	883348	keystroke_r	r	n/a
441.854	0.045	883708	keystroke_t	t	n/a
441.959	0.075	883918	keystroke_u	u	n/a
442.364	0.06	884728	keystroke_g	g	n/a
442.529	0.09	885058	keystroke_a	a	n/a
442.664	0.12	885328	keystroke_l	l	n/a
443.354	0.0745	886708	keystroke_Key.space	Key.space	n/a
443.5635	0.0755	887127	keystroke_a	a	n/a
443.6845	0.044	887369	keystroke_p	p	n/a
443.8185	0.045	887637	keystroke_p	p	n/a
444.3885	0.106	888777	keystroke_a	a	n/a
445.3785	0.075	890757	keystroke_r	r	n/a
446.324	0.06	892648	keystroke_e	e	n/a
446.414	0.105	892828	keystroke_n	n	n/a
446.564	0.09	893128	keystroke_t	t	n/a
446.684	0.075	893368	keystroke_Key.space	Key.space	n/a
447.404	0.06	894808	keystroke_j	j	n/a
448.2135	0.105	896427	keystroke_Key.backspace	Key.backspace	n/a
448.8435	0.06	897687	keystroke_j	j	n/a
449.039	0.105	898078	keystroke_o	o	n/a
449.8485	0.075	899697	keystroke_b	b	n/a
449.9685	0.075	899937	keystroke_s	s	n/a
450.1035	0.075	900207	keystroke_Key.space	Key.space	n/a
450.7035	0.06	901407	keystroke_v	v	n/a
450.7785	0.075	901557	keystroke_o	o	n/a
451.0485	0.075	902097	keystroke_c	c	n/a
451.1685	0.105	902337	keystroke_a	a	n/a
451.2885	0.105	902577	keystroke_l	l	n/a
451.7235	0.06	903447	keystroke_Key.enter	Key.enter	n/a
451.7895	11.471	903579	prompt	n/a	arkansas thereafter luggage core\n
452.4735	0.075	904947	keystroke_a	a	n/a
452.759	0.03	905518	keystroke_s	s	n/a
453.194	0.09	906388	keystroke_Key.backspace	Key.backspace	n/a
453.299	0.075	906598	keystroke_r	r	n/a
454.0035	0.075	908007	keystroke_k	k	n/a
454.3935	0.09	908787	keystroke_a	a	n/a
454.8435	0.03	909687	keystroke_n	n	n/a
455.413	0.046	910826	keystroke_s	s	n/a
455.609	0.0745	911218	keystroke_a	a	n/a
455.8635	0.06	911727	keystroke_s	s	n/a
456.0435	0.06	912087	keystroke_Key.space	Key.space	n/a
456.9885	0.0595	913977	keystroke_t	t	n/a
457.123	0.0605	914246	keystroke_h	h	n/a
457.333	0.075	914666	keystroke_e	e	n/a
458.069	0.06	916138	keystroke_r	r	n/a
458.369	0.045	916738	keystroke_e	e	n/a
458.624	0.09	917248	keystroke_a	a	n/a
458.894	0.045	917788	keystroke_f	f	n/a
459.059	0.06	918118	keystroke_t	t	n/a
459.224	0.135	918448	keystroke_e	e	n/a
459.314	0.075	918628	keystroke_r	r	n/a
459.614	0.075	919228	keystroke_Key.space	Key.space	n/a
460.0785	0.105	920157	keystroke_l	l	n/a
460.3035	0.06	920607	keystroke_u	u	n/a
460.7085	0.045	921417	keystroke_g	g	n/a
460.7985	0.0745	921597	keystroke_g	g	n/a
461.008	0.0755	922016	keystroke_a	a	n/a
461.2185	0.1045	922437	keystroke_g	g	n/a
461.293	0.09	922586	keystroke_e	e	n/a
461.458	0.09	922916	keystroke_Key.space	Key.space	n/a
462.284	0.045	924568	keystroke_c	c	n/a
462.359	0.09	924718	keystroke_o	o	n/a
462.614	0.15	925228	keystroke_r	r	n/a
462.704	0.09	925408	keystroke_e	e	n/a
463.214	0.045	926428	keystroke_Key.enter	Key.enter	n/a
463.264	6.7465	926528	prompt	n/a	seasonal teeth snow infection\n
463.934	0.075	927868	keystroke_s	s	n/a
464.204	0.045	928408	keystroke_e	e	n/a
464.369	0.09	928738	keystroke_a	a	n/a
464.579	0.045	929158	keystroke_s	s	n/a
464.714	0.1195	929428	keystroke_o	o	n/a
464.789	0.0895	929578	keystroke_n	n	n/a
465.0135	0.09	930027	keystroke_a	a	n/a
465.1185	0.09	930237	keystroke_l	l	n/a
465.3285	0.075	930657	keystroke_Key.space	Key.space	n/a
465.6285	0.0605	931257	keystroke_t	t	n/a
465.794	0.044	931588	keystroke_e	e	n/a
465.899	0.075	931798	keystroke_e	e	n/a
466.109	0.075	932218	keystroke_t	t	n/a
466.199	0.09	932398	keystroke_h	h	n/a
466.438	0.076	932876	keystroke_Key.space	Key.space	n/a
466.9935	0.0455	933987	keystroke_s	s	n/a
467.113	0.061	934226	keystroke_n	n	n/a
467.324	0.09	934648	keystroke_o	o	n/a
467.459	0.06	934918	keystroke_w	w	n/a
467.578	0.075	935156	keystroke_Key.space	Key.space	n/a
467.999	0.105	935998	keystroke_i	i	n/a
468.074	0.075	936148	keystroke_n	n	n/a
468.329	0.06	936658	keystroke_f	f	n/a
468.479	0.075	936958	keystroke_e	e	n/a
468.643	0.046	937286	keystroke_c	c	n/a
468.809	0.059	937618	keystroke_t	t	n/a
468.884	0.089	937768	keystroke_i	i	n/a
468.928	0.091	937856	keystroke_o	o	n/a
469.079	0.09	938158	keystroke_n	n	n/a
469.918	0.09	939836	keystroke_Key.enter	Key.enter	n/a
470.0145	14.321	940029	prompt	n/a	settled petersburg bridge experiencing\n
470.8345	0.074	941669	keystroke_s	s	n/a
470.9985	0.075	941997	keystroke_e	e	n/a
471.2385	0.045	942477	keystroke_t	t	n/a
471.3135	0.075	942627	keystroke_t	t	n/a
471.4345	0.105	942869	keystroke_l	l	n/a
471.5535	0.061	943107	keystroke_e	e	n/a
471.719	0.09	943438	keystroke_d	d	n/a
471.839	0.075	943678	keystroke_Key.space	Key.space	n/a
472.604	0.09	945208	keystroke_p	p	n/a
472.784	0.09	945568	keystroke_e	e	n/a
473.114	0.06	946228	keystroke_t	t	n/a
473.309	0.105	946618	keystroke_e	e	n/a
473.834	0.075	947668	keystroke_r	r	n/a
474.4485	0.0455	948897	keystroke_s	s	n/a
474.779	0.06	949558	keystroke_b	b	n/a
474.944	0.075	949888	keystroke_u	u	n/a
475.454	0.075	950908	keystroke_r	r	n/a
475.634	0.105	951268	keystroke_g	g	n/a
476.204	0.075	952408	keystroke_Key.space	Key.space	n/a
477.3135	0.06	954627	keystroke_b	b	n/a
477.4335	0.06	954867	keystroke_r	r	n/a
477.7335	0.09	955467	keystroke_i	i	n/a
478.0185	0.075	956037	keystroke_d	d	n/a
478.229	0.045	956458	keystroke_g	g	n/a
478.424	0.06	956848	keystroke_e	e	n/a
478.514	0.075	957028	keystroke_Key.space	Key.space	n/a
479.3235	0.046	958647	keystroke_e	e	n/a
479.5335	0.075	959067	keystroke_x	x	n/a
479.6985	0.045	959397	keystroke_p	p	n/a
479.8185	0.15	959637	keystroke_e	e	n/a
479.9385	0.09	959877	keystroke_r	r	n/a
481.064	0.0745	962128	keystroke_i	i	n/a
481.288	0.076	962576	keystroke_e	e	n/a
481.4235	0.0745	962847	keystroke_n	n	n/a
482.549	0.09	965098	keystroke_c	c	n/a
483.329	0.1195	966658	keystroke_i	i	n/a
483.389	0.105	966778	keystroke_n	n	n/a
483.479	0.0745	966958	keystroke_g	g	n/a
484.2435	0.09	968487	keystroke_Key.enter	Key.enter	n/a
484.3385	8.5925	968677	prompt	n/a	bids versus harper luxury\n
485.504	0.15	971008	keystroke_b	b	n/a
485.594	0.105	971188	keystroke_i	i	n/a
485.9235	0.0605	971847	keystroke_d	d	n/a
486.2085	0.0755	972417	keystroke_s	s	n/a
486.3585	0.0755	972717	keystroke_Key.space	Key.space	n/a
487.109	0.06	974218	keystroke_v	v	n/a
487.274	0.12	974548	keystroke_e	e	n/a
487.349	0.075	974698	keystroke_r	r	n/a
487.574	0.06	975148	keystroke_s	s	n/a
487.6935	0.09	975387	keystroke_u	u	n/a
487.8135	0.045	975627	keystroke_s	s	n/a
488.054	0.06	976108	keystroke_Key.space	Key.space	n/a
489.134	0.06	978268	keystroke_h	h	n/a
489.224	0.09	978448	keystroke_a	a	n/a
489.4185	0.06	978837	keystroke_r	r	n/a
489.5235	0.105	979047	keystroke_p	p	n/a
489.674	0.165	979348	keystroke_e	e	n/a
489.794	0.09	979588	keystroke_r	r	n/a
490.049	0.06	980098	keystroke_Key.space	Key.space	n/a
490.889	0.075	981778	keystroke_l	l	n/a
491.099	0.06	982198	keystroke_u	u	n/a
491.3685	0.0605	982737	keystroke_x	x	n/a
491.4435	0.09	982887	keystroke_u	u	n/a
491.684	0.06	983368	keystroke_r	r	n/a
491.8785	0.075	983757	keystroke_y	y	n/a
492.8385	0.09	985677	keystroke_Key.enter	Key.enter	n/a
492.934	11.2765	985868	prompt	n/a	michel withdrawal median permits\n
494.144	0.045	988288	keystroke_m	m	n/a
494.309	0.09	988618	keystroke_i	i	n/a
494.609	0.045	989218	keystroke_c	c	n/a
494.7885	0.06	989577	keystroke_h	h	n/a
494.9685	0.075	989937	keystroke_e	e	n/a
496.4685	0.045	992937	keystroke_l	l	n/a
496.994	0.06	993988	keystroke_Key.space	Key.space	n/a
497.579	0.09	995158	keystroke_w	w	n/a
497.654	0.09	995308	keystroke_i	i	n/a
497.849	0.06	995698	keystroke_t	t	n/a
497.924	0.075	995848	keystroke_h	h	n/a
498.269	0.09	996538	keystroke_d	d	n/a
498.539	0.06	997078	keystroke_r	r	n/a
498.764	0.09	997528	keystroke_a	a	n/a
499.049	0.06	998098	keystroke_w	w	n/a
499.334	0.105	998668	keystroke_a	a	n/a
499.9935	0.09	999987	keystroke_l	l	n/a
500.5635	0.06	1001127	keystroke_Key.space	Key.space	n/a
501.1785	0.0605	1002357	keystroke_m	m	n/a
501.284	0.06	1002568	keystroke_e	e	n/a
501.494	0.06	1002988	keystroke_d	d	n/a
501.584	0.075	1003168	keystroke_i	i	n/a
501.704	0.075	1003408	keystroke_a	a	n/a
501.854	0.075	1003708	keystroke_n	n	n/a
502.064	0.075	1004128	keystroke_Key.space	Key.space	n/a
502.454	0.075	1004908	keystroke_p	p	n/a
502.589	0.135	1005178	keystroke_e	e	n/a
502.694	0.09	1005388	keystroke_r	r	n/a
502.889	0.06	1005778	keystroke_m	m	n/a
503.0085	0.12	1006017	keystroke_i	i	n/a
503.1885	0.06	1006377	keystroke_t	t	n/a
503.3835	0.075	1006767	keystroke_s	s	n/a
504.1185	0.09	1008237	keystroke_Key.enter	Key.enter	n/a
504.2155	8.695	1008431	prompt	n/a	head come musician builds\n
505.0935	0.075	1010187	keystroke_h	h	n/a
505.1985	0.045	1010397	keystroke_e	e	n/a
505.3635	0.105	1010727	keystroke_a	a	n/a
505.5735	0.09	1011147	keystroke_d	d	n/a
505.7085	0.075	1011417	keystroke_Key.space	Key.space	n/a
506.2035	0.06	1012407	keystroke_c	c	n/a
506.2935	0.105	1012587	keystroke_o	o	n/a
506.3535	0.105	1012707	keystroke_m	m	n/a
506.4735	0.075	1012947	keystroke_e	e	n/a
506.6085	0.075	1013217	keystroke_Key.space	Key.space	n/a
507.449	0.06	1014898	keystroke_m	m	n/a
507.644	0.0895	1015288	keystroke_u	u	n/a
508.0485	0.075	1016097	keystroke_s	s	n/a
508.3035	0.09	1016607	keystroke_i	i	n/a
508.4085	0.075	1016817	keystroke_c	c	n/a
508.603	0.106	1017206	keystroke_i	i	n/a
508.739	0.09	1017478	keystroke_a	a	n/a
508.874	0.075	1017748	keystroke_n	n	n/a
509.098	0.076	1018196	keystroke_Key.space	Key.space	n/a
510.1785	0.135	1020357	keystroke_b	b	n/a
510.2535	0.12	1020507	keystroke_u	u	n/a
510.4785	0.075	1020957	keystroke_i	i	n/a
510.704	0.06	1021408	keystroke_l	l	n/a
510.779	0.06	1021558	keystroke_d	d	n/a
510.959	0.075	1021918	keystroke_s	s	n/a
512.8185	0.09	1025637	keystroke_Key.enter	Key.enter	n/a
512.914	14.396	1025828	prompt	n/a	inter thank structured meal\n
513.839	0.075	1027678	keystroke_i	i	n/a
513.869	0.09	1027738	keystroke_n	n	n/a
514.034	0.06	1028068	keystroke_t	t	n/a
514.199	0.105	1028398	keystroke_e	e	n/a
514.274	0.075	1028548	keystroke_r	r	n/a
514.424	0.105	1028848	keystroke_Key.space	Key.space	n/a
514.799	0.075	1029598	keystroke_s	s	n/a
514.994	0.045	1029988	keystroke_t	t	n/a
515.144	0.06	1030288	keystroke_r	r	n/a
515.3085	0.075	1030617	keystroke_u	u	n/a
515.4285	0.045	1030857	keystroke_c	c	n/a
515.6385	0.045	1031277	keystroke_t	t	n/a
515.8185	0.09	1031637	keystroke_u	u	n/a
516.0285	0.105	1032057	keystroke_r	r	n/a
516.1035	0.06	1032207	keystroke_e	e	n/a
516.2685	0.09	1032537	keystroke_d	d	n/a
516.4485	0.06	1032897	keystroke_Key.space	Key.space	n/a
516.809	0.06	1033618	keystroke_m	m	n/a
517.064	0.045	1034128	keystroke_e	e	n/a
517.229	0.105	1034458	keystroke_a	a	n/a
517.394	0.045	1034788	keystroke_k	k	n/a
517.8285	0.09	1035657	keystroke_Key.backspace	Key.backspace	n/a
518.039	0.09	1036078	keystroke_l	l	n/a
519.7035	0.09	1039407	keystroke_Key.backspace	Key.backspace	n/a
519.8835	0.075	1039767	keystroke_Key.backspace	Key.backspace	n/a
520.0335	0.075	1040067	keystroke_Key.backspace	Key.backspace	n/a
520.1985	0.06	1040397	keystroke_Key.backspace	Key.backspace	n/a
520.3335	0.075	1040667	keystroke_Key.backspace	Key.backspace	n/a
520.4835	0.075	1040967	keystroke_Key.backspace	Key.backspace	n/a
520.6335	0.075	1041267	keystroke_Key.backspace	Key.backspace	n/a
520.7835	0.075	1041567	keystroke_Key.backspace	Key.backspace	n/a
520.9335	0.075	1041867	keystroke_Key.backspace	Key.backspace	n/a
521.0835	0.06	1042167	keystroke_Key.backspace	Key.backspace	n/a
521.2485	0.06	1042497	keystroke_Key.backspace	Key.backspace	n/a
521.3835	0.075	1042767	keystroke_Key.backspace	Key.backspace	n/a
521.6085	0.015	1043217	keystroke_Key.backspace	Key.backspace	n/a
521.6985	0.075	1043397	keystroke_Key.backspace	Key.backspace	n/a
521.8785	0.075	1043757	keystroke_Key.backspace	Key.backspace	n/a
522.3435	0.075	1044687	keystroke_t	t	n/a
522.4485	0.06	1044897	keystroke_h	h	n/a
522.5385	0.09	1045077	keystroke_a	a	n/a
522.6435	0.06	1045287	keystroke_n	n	n/a
522.7635	0.075	1045527	keystroke_k	k	n/a
522.9435	0.045	1045887	keystroke_Key.space	Key.space	n/a
523.0485	0.06	1046097	keystroke_s	s	n/a
523.2285	0.045	1046457	keystroke_t	t	n/a
523.3935	0.0605	1046787	keystroke_r	r	n/a
524.218	0.046	1048436	keystroke_u	u	n/a
524.488	0.045	1048976	keystroke_c	c	n/a
524.8635	0.045	1049727	keystroke_t	t	n/a
525.149	0.0445	1050298	keystroke_u	u	n/a
525.2535	0.105	1050507	keystroke_r	r	n/a
525.3285	0.045	1050657	keystroke_e	e	n/a
525.4935	0.06	1050987	keystroke_d	d	n/a
525.5835	0.06	1051167	keystroke_Key.space	Key.space	n/a
526.244	0.06	1052488	keystroke_m	m	n/a
526.364	0.045	1052728	keystroke_e	e	n/a
526.529	0.0895	1053058	keystroke_a	a	n/a
526.6485	0.075	1053297	keystroke_l	l	n/a
527.2335	0.075	1054467	keystroke_Key.enter	Key.enter	n/a
527.3145	7.0005	1054629	prompt	n/a	patio preserve dogs average\n
528.0285	0.075	1056057	keystroke_p	p	n/a
528.1485	0.105	1056297	keystroke_a	a	n/a
528.3285	0.06	1056657	keystroke_t	t	n/a
528.4335	0.09	1056867	keystroke_i	i	n/a
528.6285	0.06	1057257	keystroke_o	o	n/a
528.8235	0.0605	1057647	keystroke_Key.space	Key.space	n/a
529.124	0.09	1058248	keystroke_p	p	n/a
529.379	0.105	1058758	keystroke_r	r	n/a
529.439	0.09	1058878	keystroke_e	e	n/a
529.649	0.045	1059298	keystroke_s	s	n/a
529.799	0.075	1059598	keystroke_e	e	n/a
530.084	0.06	1060168	keystroke_r	r	n/a
530.3685	0.045	1060737	keystroke_v	v	n/a
530.5335	0.075	1061067	keystroke_e	e	n/a
530.6535	0.075	1061307	keystroke_Key.space	Key.space	n/a
531.449	0.045	1062898	keystroke_d	d	n/a
531.539	0.075	1063078	keystroke_o	o	n/a
531.704	0.03	1063408	keystroke_g	g	n/a
531.869	0.09	1063738	keystroke_s	s	n/a
531.989	0.074	1063978	keystroke_Key.space	Key.space	n/a
532.4085	0.09	1064817	keystroke_a	a	n/a
532.784	0.075	1065568	keystroke_v	v	n/a
532.9785	0.12	1065957	keystroke_e	e	n/a
533.0685	0.075	1066137	keystroke_r	r	n/a
533.2185	0.075	1066437	keystroke_a	a	n/a
533.4885	0.105	1066977	keystroke_g	g	n/a
533.5635	0.075	1067127	keystroke_e	e	n/a
534.238	0.0755	1068476	keystroke_Key.enter	Key.enter	n/a
534.319	7.661	1068638	prompt	n/a	cite sake reasonably deny\n
535.094	0.074	1070188	keystroke_c	c	n/a
535.198	0.09	1070396	keystroke_i	i	n/a
535.363	0.12	1070726	keystroke_t	t	n/a
535.454	0.089	1070908	keystroke_e	e	n/a
535.588	0.105	1071176	keystroke_Key.space	Key.space	n/a
536.924	0.0745	1073848	keystroke_s	s	n/a
537.104	0.075	1074208	keystroke_a	a	n/a
537.344	0.075	1074688	keystroke_k	k	n/a
537.449	0.06	1074898	keystroke_e	e	n/a
537.569	0.075	1075138	keystroke_Key.space	Key.space	n/a
537.689	0.09	1075378	keystroke_r	r	n/a
537.749	0.075	1075498	keystroke_e	e	n/a
537.929	0.075	1075858	keystroke_a	a	n/a
538.109	0.075	1076218	keystroke_s	s	n/a
538.259	0.12	1076518	keystroke_o	o	n/a
538.9035	0.045	1077807	keystroke_n	n	n/a
539.0685	0.09	1078137	keystroke_a	a	n/a
539.1735	0.06	1078347	keystroke_b	b	n/a
539.4285	0.12	1078857	keystroke_l	l	n/a
539.5635	0.09	1079127	keystroke_y	y	n/a
539.699	0.075	1079398	keystroke_Key.space	Key.space	n/a
540.689	0.075	1081378	keystroke_d	d	n/a
540.839	0.075	1081678	keystroke_e	e	n/a
541.139	0.09	1082278	keystroke_n	n	n/a
541.289	0.09	1082578	keystroke_y	y	n/a
541.9185	0.06	1083837	keystroke_Key.enter	Key.enter	n/a
541.9835	9.8665	1083967	prompt	n/a	likely volunteer encountered super\n
542.744	0.09	1085488	keystroke_l	l	n/a
542.924	0.075	1085848	keystroke_i	i	n/a
543.103	0.075	1086206	keystroke_k	k	n/a
543.284	0.075	1086568	keystroke_e	e	n/a
543.419	0.09	1086838	keystroke_l	l	n/a
543.524	0.075	1087048	keystroke_y	y	n/a
543.6585	0.075	1087317	keystroke_Key.space	Key.space	n/a
544.483	0.076	1088966	keystroke_v	v	n/a
544.588	0.105	1089176	keystroke_o	o	n/a
544.933	0.045	1089866	keystroke_l	l	n/a
545.113	0.06	1090226	keystroke_u	u	n/a
545.3085	0.06	1090617	keystroke_n	n	n/a
545.698	0.09	1091396	keystroke_t	t	n/a
545.968	0.09	1091936	keystroke_e	e	n/a
546.223	0.075	1092446	keystroke_e	e	n/a
546.418	0.075	1092836	keystroke_r	r	n/a
546.643	0.045	1093286	keystroke_Key.space	Key.space	n/a
547.559	0.06	1095118	keystroke_e	e	n/a
547.799	0.06	1095598	keystroke_n	n	n/a
547.9935	0.06	1095987	keystroke_c	c	n/a
548.0985	0.1055	1096197	keystroke_o	o	n/a
548.159	0.09	1096318	keystroke_u	u	n/a
548.369	0.06	1096738	keystroke_n	n	n/a
548.444	0.045	1096888	keystroke_t	t	n/a
548.534	0.18	1097068	keystroke_e	e	n/a
548.669	0.195	1097338	keystroke_r	r	n/a
548.819	0.089	1097638	keystroke_e	e	n/a
549.013	0.09	1098026	keystroke_d	d	n/a
549.133	0.09	1098266	keystroke_Key.space	Key.space	n/a
550.4685	0.06	1100937	keystroke_s	s	n/a
550.5885	0.075	1101177	keystroke_u	u	n/a
550.7985	0.09	1101597	keystroke_p	p	n/a
551.0235	0.135	1102047	keystroke_e	e	n/a
551.1435	0.105	1102287	keystroke_r	r	n/a
551.7735	0.075	1103547	keystroke_Key.enter	Key.enter	n/a
551.853	7.062	1103706	prompt	n/a	cardiff phil devil days\n
552.853	0.075	1105706	keystroke_c	c	n/a
552.973	0.105	1105946	keystroke_a	a	n/a
553.348	0.045	1106696	keystroke_r	r	n/a
553.5285	0.045	1107057	keystroke_d	d	n/a
553.679	0.09	1107358	keystroke_i	i	n/a
553.814	0.044	1107628	keystroke_f	f	n/a
553.919	0.089	1107838	keystroke_f	f	n/a
554.1885	0.06	1108377	keystroke_Key.space	Key.space	n/a
554.6985	0.09	1109397	keystroke_p	p	n/a
554.983	0.09	1109966	keystroke_h	h	n/a
555.059	0.119	1110118	keystroke_i	i	n/a
555.329	0.09	1110658	keystroke_l	l	n/a
555.538	0.075	1111076	keystroke_Key.space	Key.space	n/a
556.3185	0.045	1112637	keystroke_d	d	n/a
556.4835	0.045	1112967	keystroke_e	e	n/a
556.8135	0.075	1113627	keystroke_v	v	n/a
556.9185	0.09	1113837	keystroke_i	i	n/a
557.1735	0.06	1114347	keystroke_l	l	n/a
557.368	0.06	1114736	keystroke_Key.space	Key.space	n/a
557.789	0.045	1115578	keystroke_d	d	n/a
557.939	0.09	1115878	keystroke_a	a	n/a
558.164	0.105	1116328	keystroke_y	y	n/a
558.284	0.0745	1116568	keystroke_s	s	n/a
558.8985	0.015	1117797	keystroke_Key.enter	Key.enter	n/a
558.9185	7.6165	1117837	prompt	n/a	icon wired xbox lord\n
559.739	0.06	1119478	keystroke_i	i	n/a
559.859	0.075	1119718	keystroke_c	c	n/a
560.114	0.105	1120228	keystroke_o	o	n/a
560.369	0.06	1120738	keystroke_n	n	n/a
560.563	0.061	1121126	keystroke_Key.space	Key.space	n/a
561.464	0.06	1122928	keystroke_w	w	n/a
561.554	0.075	1123108	keystroke_i	i	n/a
561.9735	0.075	1123947	keystroke_r	r	n/a
562.1985	0.015	1124397	keystroke_e	e	n/a
562.3185	0.045	1124637	keystroke_d	d	n/a
562.4085	0.06	1124817	keystroke_Key.space	Key.space	n/a
563.204	0.06	1126408	keystroke_x	x	n/a
563.309	0.074	1126618	keystroke_b	b	n/a
563.564	0.09	1127128	keystroke_o	o	n/a
563.683	0.0905	1127366	keystroke_x	x	n/a
563.8035	0.075	1127607	keystroke_Key.space	Key.space	n/a
565.6635	0.0605	1131327	keystroke_l	l	n/a
565.844	0.059	1131688	keystroke_o	o	n/a
566.009	0.06	1132018	keystroke_r	r	n/a
566.173	0.076	1132346	keystroke_d	d	n/a
566.473	0.06	1132946	keystroke_Key.enter	Key.enter	n/a
566.5385	10.647	1133077	prompt	n/a	exist arbitration statement story\n
567.418	0.061	1134836	keystroke_e	e	n/a
567.8085	0.075	1135617	keystroke_x	x	n/a
567.9285	0.0745	1135857	keystroke_i	i	n/a
568.063	0.06	1136126	keystroke_s	s	n/a
568.273	0.06	1136546	keystroke_t	t	n/a
568.393	0.075	1136786	keystroke_Key.space	Key.space	n/a
569.158	0.045	1138316	keystroke_a	a	n/a
569.3835	0.0755	1138767	keystroke_r	r	n/a
569.7585	0.06	1139517	keystroke_b	b	n/a
570.403	0.075	1140806	keystroke_i	i	n/a
570.6735	0.075	1141347	keystroke_t	t	n/a
570.8985	0.075	1141797	keystroke_r	r	n/a
571.1385	0.06	1142277	keystroke_a	a	n/a
571.3335	0.075	1142667	keystroke_t	t	n/a
571.5135	0.09	1143027	keystroke_i	i	n/a
571.5435	0.105	1143087	keystroke_o	o	n/a
571.7385	0.075	1143477	keystroke_n	n	n/a
571.9635	0.075	1143927	keystroke_Key.space	Key.space	n/a
572.4735	0.075	1144947	keystroke_s	s	n/a
572.6685	0.075	1145337	keystroke_t	t	n/a
572.834	0.075	1145668	keystroke_a	a	n/a
573.044	0.105	1146088	keystroke_t	t	n/a
573.089	0.12	1146178	keystroke_e	e	n/a
573.329	0.06	1146658	keystroke_m	m	n/a
573.449	0.075	1146898	keystroke_e	e	n/a
573.569	0.075	1147138	keystroke_n	n	n/a
573.659	0.075	1147318	keystroke_t	t	n/a
573.779	0.075	1147558	keystroke_Key.space	Key.space	n/a
574.844	0.135	1149688	keystroke_s	s	n/a
576.134	0.059	1152268	keystroke_t	t	n/a
576.239	0.075	1152478	keystroke_o	o	n/a
576.374	0.135	1152748	keystroke_r	r	n/a
576.524	0.075	1153048	keystroke_y	y	n/a
577.109	0.075	1154218	keystroke_Key.enter	Key.enter	n/a
577.1885	9.6115	1154377	prompt	n/a	ronald themselves mining engines\n
578.143	0.09	1156286	keystroke_r	r	n/a
578.293	0.09	1156586	keystroke_o	o	n/a
578.548	0.045	1157096	keystroke_n	n	n/a
578.683	0.105	1157366	keystroke_a	a	n/a
578.833	0.075	1157666	keystroke_l	l	n/a
578.968	0.09	1157936	keystroke_d	d	n/a
579.103	0.06	1158206	keystroke_Key.space	Key.space	n/a
579.899	0.06	1159798	keystroke_t	t	n/a
580.019	0.06	1160038	keystroke_h	h	n/a
580.124	0.06	1160248	keystroke_e	e	n/a
580.2285	0.075	1160457	keystroke_m	m	n/a
580.4385	0.0455	1160877	keystroke_s	s	n/a
580.6335	0.03	1161267	keystroke_e	e	n/a
581.0385	0.075	1162077	keystroke_l	l	n/a
581.308	0.016	1162616	keystroke_v	v	n/a
582.658	0.106	1165316	keystroke_e	e	n/a
582.899	0.06	1165798	keystroke_s	s	n/a
582.989	0.09	1165978	keystroke_Key.space	Key.space	n/a
583.799	0.09	1167598	keystroke_m	m	n/a
583.994	0.135	1167988	keystroke_i	i	n/a
584.114	0.09	1168228	keystroke_n	n	n/a
584.324	0.135	1168648	keystroke_i	i	n/a
584.429	0.105	1168858	keystroke_n	n	n/a
584.609	0.075	1169218	keystroke_g	g	n/a
584.699	0.0745	1169398	keystroke_Key.space	Key.space	n/a
585.3585	0.06	1170717	keystroke_e	e	n/a
585.4035	0.09	1170807	keystroke_n	n	n/a
585.6135	0.045	1171227	keystroke_g	g	n/a
585.703	0.151	1171406	keystroke_i	i	n/a
585.794	0.12	1171588	keystroke_n	n	n/a
585.989	0.044	1171978	keystroke_e	e	n/a
586.153	0.076	1172306	keystroke_s	s	n/a
586.7235	0.075	1173447	keystroke_Key.enter	Key.enter	n/a
586.805	10.3	1173610	prompt	n/a	threatened fancy remembered carmen\n
587.8335	0.06	1175667	keystroke_t	t	n/a
587.9985	0.075	1175997	keystroke_h	h	n/a
588.2085	0.12	1176417	keystroke_r	r	n/a
588.2985	0.075	1176597	keystroke_e	e	n/a
588.5235	0.09	1177047	keystroke_a	a	n/a
588.8835	0.075	1177767	keystroke_t	t	n/a
589.3035	0.09	1178607	keystroke_e	e	n/a
589.709	0.06	1179418	keystroke_n	n	n/a
589.814	0.075	1179628	keystroke_e	e	n/a
590.009	0.074	1180018	keystroke_d	d	n/a
590.534	0.075	1181068	keystroke_Key.space	Key.space	n/a
590.894	0.045	1181788	keystroke_f	f	n/a
591.014	0.12	1182028	keystroke_a	a	n/a
591.224	0.075	1182448	keystroke_n	n	n/a
591.418	0.061	1182836	keystroke_c	c	n/a
591.674	0.075	1183348	keystroke_y	y	n/a
591.793	0.075	1183586	keystroke_Key.space	Key.space	n/a
592.694	0.135	1185388	keystroke_r	r	n/a
592.768	0.075	1185536	keystroke_e	e	n/a
592.9485	0.09	1185897	keystroke_m	m	n/a
593.1435	0.03	1186287	keystroke_e	e	n/a
593.2035	0.075	1186407	keystroke_m	m	n/a
593.4285	0.06	1186857	keystroke_b	b	n/a
593.5185	0.1495	1187037	keystroke_e	e	n/a
593.6385	0.1045	1187277	keystroke_r	r	n/a
593.788	0.075	1187576	keystroke_e	e	n/a
593.983	0.075	1187966	keystroke_d	d	n/a
594.133	0.09	1188266	keystroke_Key.space	Key.space	n/a
595.4685	0.105	1190937	keystroke_c	c	n/a
595.5285	0.12	1191057	keystroke_a	a	n/a
596.0685	0.06	1192137	keystroke_r	r	n/a
596.2935	0.075	1192587	keystroke_m	m	n/a
596.4735	0.045	1192947	keystroke_e	e	n/a
596.5335	0.075	1193067	keystroke_n	n	n/a
596.9985	0.105	1193997	keystroke_Key.enter	Key.enter	n/a
597.1085	9.7315	1194217	prompt	n/a	diesel anxiety salem bike\n
597.989	0.075	1195978	keystroke_d	d	n/a
598.138	0.076	1196276	keystroke_i	i	n/a
598.259	0.045	1196518	keystroke_e	e	n/a
598.783	0.076	1197566	keystroke_s	s	n/a
599.489	0.045	1198978	keystroke_a	a	n/a
599.5485	0.09	1199097	keystroke_l	l	n/a
600.254	0.045	1200508	keystroke_Key.space	Key.space	n/a
600.554	0.09	1201108	keystroke_a	a	n/a
600.704	0.075	1201408	keystroke_n	n	n/a
601.109	0.06	1202218	keystroke_x	x	n/a
601.184	0.105	1202368	keystroke_i	i	n/a
601.334	0.06	1202668	keystroke_e	e	n/a
601.514	0.075	1203028	keystroke_t	t	n/a
601.6935	0.075	1203387	keystroke_y	y	n/a
601.8285	0.09	1203657	keystroke_Key.space	Key.space	n/a
603.1335	0.045	1206267	keystroke_s	s	n/a
603.2835	0.075	1206567	keystroke_a	a	n/a
603.4035	0.075	1206807	keystroke_l	l	n/a
603.5835	0.03	1207167	keystroke_e	e	n/a
603.6585	0.075	1207317	keystroke_m	m	n/a
603.8535	0.075	1207707	keystroke_Key.space	Key.space	n/a
605.3985	0.12	1210797	keystroke_b	b	n/a
605.4735	0.105	1210947	keystroke_i	i	n/a
605.7585	0.075	1211517	keystroke_k	k	n/a
605.8485	0.075	1211697	keystroke_e	e	n/a
606.7635	0.075	1213527	keystroke_Key.enter	Key.enter	n/a
606.843	9.432	1213686	prompt	n/a	flip variable centered symbol\n
607.784	0.045	1215568	keystroke_s	s	n/a
608.129	0.105	1216258	keystroke_Key.backspace	Key.backspace	n/a
608.444	0.075	1216888	keystroke_f	f	n/a
608.579	0.075	1217158	keystroke_l	l	n/a
608.789	0.09	1217578	keystroke_i	i	n/a
608.924	0.12	1217848	keystroke_p	p	n/a
609.209	0.06	1218418	keystroke_Key.space	Key.space	n/a
609.838	0.06	1219676	keystroke_v	v	n/a
610.004	0.09	1220008	keystroke_a	a	n/a
610.199	0.074	1220398	keystroke_r	r	n/a
610.304	0.074	1220608	keystroke_i	i	n/a
610.438	0.091	1220876	keystroke_a	a	n/a
610.574	0.06	1221148	keystroke_b	b	n/a
610.783	0.09	1221566	keystroke_l	l	n/a
610.888	0.061	1221776	keystroke_e	e	n/a
611.008	0.075	1222016	keystroke_Key.space	Key.space	n/a
612.1345	0.059	1224269	keystroke_c	c	n/a
612.2985	0.0905	1224597	keystroke_e	e	n/a
612.464	0.06	1224928	keystroke_n	n	n/a
612.599	0.045	1225198	keystroke_t	t	n/a
612.689	0.12	1225378	keystroke_e	e	n/a
612.824	0.12	1225648	keystroke_r	r	n/a
612.914	0.075	1225828	keystroke_e	e	n/a
613.139	0.075	1226278	keystroke_d	d	n/a
613.244	0.09	1226488	keystroke_Key.space	Key.space	n/a
614.0985	0.105	1228197	keystroke_s	s	n/a
614.2935	0.075	1228587	keystroke_y	y	n/a
614.6085	0.06	1229217	keystroke_m	m	n/a
614.7885	0.06	1229577	keystroke_b	b	n/a
614.9985	0.075	1229997	keystroke_o	o	n/a
615.2085	0.09	1230417	keystroke_l	l	n/a
616.198	0.075	1232396	keystroke_Key.enter	Key.enter	n/a
616.282	8.708	1232564	prompt	n/a	deal tahoe basics newbie\n
617.189	0.06	1234378	keystroke_d	d	n/a
617.354	0.03	1234708	keystroke_e	e	n/a
617.4885	0.105	1234977	keystroke_a	a	n/a
617.6385	0.1055	1235277	keystroke_l	l	n/a
617.893	0.0755	1235786	keystroke_Key.space	Key.space	n/a
618.5535	0.045	1237107	keystroke_t	t	n/a
618.6885	0.105	1237377	keystroke_a	a	n/a
619.033	0.075	1238066	keystroke_h	h	n/a
619.213	0.105	1238426	keystroke_o	o	n/a
619.483	0.06	1238966	keystroke_e	e	n/a
619.603	0.075	1239206	keystroke_Key.space	Key.space	n/a
621.5235	0.0445	1243047	keystroke_b	b	n/a
621.628	0.091	1243256	keystroke_a	a	n/a
621.823	0.075	1243646	keystroke_s	s	n/a
621.944	0.089	1243888	keystroke_i	i	n/a
622.108	0.075	1244216	keystroke_c	c	n/a
622.303	0.076	1244606	keystroke_s	s	n/a
622.393	0.075	1244786	keystroke_Key.space	Key.space	n/a
623.2335	0.075	1246467	keystroke_n	n	n/a
623.3535	0.06	1246707	keystroke_e	e	n/a
623.5785	0.06	1247157	keystroke_w	w	n/a
624.028	0.105	1248056	keystroke_b	b	n/a
624.103	0.12	1248206	keystroke_i	i	n/a
624.358	0.09	1248716	keystroke_e	e	n/a
624.8985	0.09	1249797	keystroke_Key.enter	Key.enter	n/a
624.9935	7.6915	1249987	prompt	n/a	becomes angle guns thanks\n
625.8885	0.06	1251777	keystroke_b	b	n/a
625.9635	0.075	1251927	keystroke_e	e	n/a
626.1585	0.06	1252317	keystroke_c	c	n/a
626.3535	0.15	1252707	keystroke_o	o	n/a
626.4585	0.12	1252917	keystroke_m	m	n/a
626.5635	0.045	1253127	keystroke_e	e	n/a
626.7435	0.06	1253487	keystroke_s	s	n/a
626.8485	0.09	1253697	keystroke_Key.space	Key.space	n/a
627.539	0.09	1255078	keystroke_a	a	n/a
627.6885	0.09	1255377	keystroke_n	n	n/a
628.018	0.06	1256036	keystroke_d	d	n/a
628.318	0.105	1256636	keystroke_Key.backspace	Key.backspace	n/a
628.439	0.059	1256878	keystroke_g	g	n/a
628.559	0.119	1257118	keystroke_l	l	n/a
628.708	0.075	1257416	keystroke_e	e	n/a
628.828	0.06	1257656	keystroke_Key.space	Key.space	n/a
629.984	0.0445	1259968	keystroke_g	g	n/a
630.0885	0.06	1260177	keystroke_u	u	n/a
630.2985	0.06	1260597	keystroke_n	n	n/a
630.4185	0.06	1260837	keystroke_s	s	n/a
630.5235	0.09	1261047	keystroke_Key.space	Key.space	n/a
631.3485	0.06	1262697	keystroke_t	t	n/a
631.4385	0.075	1262877	keystroke_h	h	n/a
631.6335	0.105	1263267	keystroke_a	a	n/a
631.7535	0.105	1263507	keystroke_n	n	n/a
631.8885	0.105	1263777	keystroke_k	k	n/a
632.0235	0.09	1264047	keystroke_s	s	n/a
632.6085	0.075	1265217	keystroke_Key.enter	Key.enter	n/a
632.688	8.577	1265376	prompt	n/a	guests answering stroke spencer\n
633.778	0.0755	1267556	keystroke_g	g	n/a
633.8985	0.09	1267797	keystroke_u	u	n/a
634.0485	0.045	1268097	keystroke_e	e	n/a
634.2285	0.06	1268457	keystroke_s	s	n/a
634.4685	0.06	1268937	keystroke_t	t	n/a
634.6635	0.09	1269327	keystroke_s	s	n/a
634.7985	0.075	1269597	keystroke_Key.space	Key.space	n/a
635.098	0.09	1270196	keystroke_a	a	n/a
635.353	0.075	1270706	keystroke_n	n	n/a
635.608	0.06	1271216	keystroke_s	s	n/a
635.803	0.045	1271606	keystroke_w	w	n/a
635.983	0.15	1271966	keystroke_e	e	n/a
636.088	0.06	1272176	keystroke_r	r	n/a
636.313	0.135	1272626	keystroke_i	i	n/a
636.388	0.09	1272776	keystroke_n	n	n/a
636.463	0.06	1272926	keystroke_g	g	n/a
636.613	0.075	1273226	keystroke_Key.space	Key.space	n/a
637.378	0.0605	1274756	keystroke_s	s	n/a
637.5435	0.03	1275087	keystroke_t	t	n/a
637.693	0.045	1275386	keystroke_r	r	n/a
637.888	0.135	1275776	keystroke_o	o	n/a
637.978	0.105	1275956	keystroke_k	k	n/a
638.113	0.075	1276226	keystroke_e	e	n/a
638.263	0.075	1276526	keystroke_Key.space	Key.space	n/a
639.478	0.075	1278956	keystroke_s	s	n/a
639.569	0.089	1279138	keystroke_p	p	n/a
639.7035	0.06	1279407	keystroke_e	e	n/a
639.8535	0.075	1279707	keystroke_n	n	n/a
640.0485	0.06	1280097	keystroke_c	c	n/a
640.2135	0.09	1280427	keystroke_e	e	n/a
640.4085	0.075	1280817	keystroke_r	r	n/a
641.1885	0.0745	1282377	keystroke_Key.enter	Key.enter	n/a
641.268	8.652	1282536	prompt	n/a	began textbooks spec effectively\n
642.148	0.075	1284296	keystroke_b	b	n/a
642.253	0.06	1284506	keystroke_e	e	n/a
642.493	0.045	1284986	keystroke_g	g	n/a
642.689	0.089	1285378	keystroke_a	a	n/a
642.823	0.09	1285646	keystroke_n	n	n/a
643.033	0.075	1286066	keystroke_Key.space	Key.space	n/a
643.7385	0.045	1287477	keystroke_t	t	n/a
643.9185	0.075	1287837	keystroke_e	e	n/a
644.3985	0.09	1288797	keystroke_x	x	n/a
644.6535	0.0745	1289307	keystroke_t	t	n/a
644.908	0.06	1289816	keystroke_b	b	n/a
645.148	0.06	1290296	keystroke_o	o	n/a
645.314	0.105	1290628	keystroke_o	o	n/a
645.388	0.105	1290776	keystroke_k	k	n/a
645.599	0.074	1291198	keystroke_s	s	n/a
645.868	0.06	1291736	keystroke_Key.space	Key.space	n/a
646.529	0.075	1293058	keystroke_s	s	n/a
646.618	0.091	1293236	keystroke_p	p	n/a
646.829	0.059	1293658	keystroke_e	e	n/a
647.024	0.089	1294048	keystroke_c	c	n/a
647.143	0.075	1294286	keystroke_Key.space	Key.space	n/a
647.834	0.075	1295668	keystroke_e	e	n/a
648.044	0.029	1296088	keystroke_f	f	n/a
648.134	0.074	1296268	keystroke_f	f	n/a
648.268	0.136	1296536	keystroke_e	e	n/a
648.373	0.045	1296746	keystroke_c	c	n/a
648.539	0.06	1297078	keystroke_t	t	n/a
648.614	0.105	1297228	keystroke_i	i	n/a
648.779	0.074	1297558	keystroke_v	v	n/a
648.854	0.089	1297708	keystroke_e	e	n/a
648.959	0.104	1297918	keystroke_l	l	n/a
649.078	0.075	1298156	keystroke_y	y	n/a
649.8435	0.075	1299687	keystroke_Key.enter	Key.enter	n/a
649.923	10.3475	1299846	prompt	n/a	lose captured deserve excluding\n
650.6985	0.06	1301397	keystroke_l	l	n/a
650.8935	0.06	1301787	keystroke_o	o	n/a
651.0135	0.045	1302027	keystroke_d	d	n/a
651.3585	0.105	1302717	keystroke_Key.backspace	Key.backspace	n/a
651.4485	0.045	1302897	keystroke_s	s	n/a
651.5985	0.075	1303197	keystroke_e	e	n/a
651.7485	0.09	1303497	keystroke_Key.space	Key.space	n/a
652.3635	0.09	1304727	keystroke_c	c	n/a
652.4385	0.1045	1304877	keystroke_a	a	n/a
652.558	0.09	1305116	keystroke_p	p	n/a
652.753	0.075	1305506	keystroke_t	t	n/a
652.9635	0.09	1305927	keystroke_u	u	n/a
653.2185	0.135	1306437	keystroke_r	r	n/a
653.2935	0.09	1306587	keystroke_e	e	n/a
653.5185	0.06	1307037	keystroke_d	d	n/a
653.6385	0.0895	1307277	keystroke_Key.space	Key.space	n/a
654.583	0.06	1309166	keystroke_d	d	n/a
654.763	0.045	1309526	keystroke_e	e	n/a
654.988	0.075	1309976	keystroke_s	s	n/a
655.243	0.075	1310486	keystroke_e	e	n/a
655.423	0.075	1310846	keystroke_r	r	n/a
655.6785	0.045	1311357	keystroke_v	v	n/a
655.8585	0.06	1311717	keystroke_e	e	n/a
655.9635	0.075	1311927	keystroke_Key.space	Key.space	n/a
657.0435	0.06	1314087	keystroke_e	e	n/a
657.2685	0.09	1314537	keystroke_x	x	n/a
657.4785	0.09	1314957	keystroke_c	c	n/a
658.333	0.0905	1316666	keystroke_l	l	n/a
658.5435	0.075	1317087	keystroke_u	u	n/a
658.7685	0.075	1317537	keystroke_d	d	n/a
658.8735	0.135	1317747	keystroke_i	i	n/a
658.9485	0.105	1317897	keystroke_n	n	n/a
659.0685	0.075	1318137	keystroke_g	g	n/a
660.103	0.165	1320206	keystroke_Key.enter	Key.enter	n/a
660.274	9.821	1320548	prompt	n/a	i'll sentence forests columns\n
661.168	0.075	1322336	keystroke_i	i	n/a
661.918	0.075	1323836	keystroke_'	'	n/a
662.323	0.075	1324646	keystroke_l	l	n/a
662.4885	0.09	1324977	keystroke_l	l	n/a
662.7435	0.06	1325487	keystroke_Key.space	Key.space	n/a
663.2985	0.06	1326597	keystroke_s	s	n/a
663.4935	0.045	1326987	keystroke_e	e	n/a
663.5835	0.06	1327167	keystroke_n	n	n/a
663.748	0.045	1327496	keystroke_t	t	n/a
663.8835	0.075	1327767	keystroke_e	e	n/a
663.9735	0.09	1327947	keystroke_n	n	n/a
664.2135	0.12	1328427	keystroke_c	c	n/a
664.2735	0.105	1328547	keystroke_e	e	n/a
664.3935	0.105	1328787	keystroke_Key.space	Key.space	n/a
665.6235	0.075	1331247	keystroke_f	f	n/a
665.7425	0.0905	1331485	keystroke_o	o	n/a
665.848	0.045	1331696	keystroke_r	r	n/a
666.133	0.06	1332266	keystroke_e	e	n/a
666.358	0.075	1332716	keystroke_s	s	n/a
666.6275	0.045	1333255	keystroke_t	t	n/a
666.7775	0.076	1333555	keystroke_s	s	n/a
667.1075	0.075	1334215	keystroke_Key.space	Key.space	n/a
667.753	0.06	1335506	keystroke_c	c	n/a
667.918	0.09	1335836	keystroke_o	o	n/a
668.113	0.075	1336226	keystroke_l	l	n/a
668.338	0.045	1336676	keystroke_u	u	n/a
668.533	0.06	1337066	keystroke_m	m	n/a
