onset	duration	sample	value	key	prompt_text
1.7125	22.391	3425	prompt	n/a	the quick brown fox jumps over a lazy dog\n
14.224	0.1195	28448	keystroke_t	t	n/a
14.314	0.1355	28628	keystroke_h	h	n/a
14.434	0.122	28868	keystroke_t	t	n/a
15.364	0.075	30728	keystroke_Key.backspace	Key.backspace	n/a
15.694	0.1505	31388	keystroke_e	e	n/a
15.8295	0.1045	31659	keystroke_Key.space	Key.space	n/a
16.055	0.09	32110	keystroke_q	q	n/a
16.549	0.09	33098	keystroke_u	u	n/a
16.579	0.1205	33158	keystroke_i	i	n/a
16.714	0.076	33428	keystroke_c	c	n/a
16.879	0.0755	33758	keystroke_k	k	n/a
17.0135	0.1205	34027	keystroke_Key.space	Key.space	n/a
17.686	0.1035	35372	keystroke_b	b	n/a
17.8355	0.118	35671	keystroke_r	r	n/a
18.147	0.105	36294	keystroke_o	o	n/a
18.237	0.1195	36474	keystroke_w	w	n/a
18.4005	0.1195	36801	keystroke_n	n	n/a
18.505	0.089	37010	keystroke_Key.space	Key.space	n/a
19.1195	0.0895	38239	keystroke_f	f	n/a
19.333	0.1035	38666	keystroke_o	o	n/a
19.422	0.104	38844	keystroke_x	x	n/a
19.585	0.0895	39170	keystroke_Key.space	Key.space	n/a
20.306	0.09	40612	keystroke_j	j	n/a
20.336	0.105	40672	keystroke_u	u	n/a
20.619	0.1375	41238	keystroke_m	m	n/a
20.695	0.1365	41390	keystroke_p	p	n/a
20.8165	0.1485	41633	keystroke_s	s	n/a
20.95	0.1045	41900	keystroke_Key.space	Key.space	n/a
21.356	0.09	42712	keystroke_o	o	n/a
21.386	0.104	42772	keystroke_v	v	n/a
21.5495	0.167	43099	keystroke_e	e	n/a
21.6395	0.1365	43279	keystroke_r	r	n/a
21.7615	0.089	43523	keystroke_Key.space	Key.space	n/a
21.836	0.164	43672	keystroke_a	a	n/a
21.9545	0.1345	43909	keystroke_Key.space	Key.space	n/a
22.4505	0.0895	44901	keystroke_l	l	n/a
22.51	0.0895	45020	keystroke_a	a	n/a
22.692	0.105	45384	keystroke_z	z	n/a
22.856	0.105	45712	keystroke_y	y	n/a
22.93	0.12	45860	keystroke_Key.space	Key.space	n/a
23.4855	0.089	46971	keystroke_d	d	n/a
23.56	0.1045	47120	keystroke_o	o	n/a
23.727	0.119	47454	keystroke_g	g	n/a
23.9955	0.1045	47991	keystroke_Key.enter	Key.enter	n/a
24.114	9.1385	48228	prompt	n/a	cartridge deaf religious configure\n
24.986	0.1035	49972	keystroke_c	c	n/a
25.1205	0.136	50241	keystroke_a	a	n/a
25.3315	0.104	50663	keystroke_r	r	n/a
25.6	0.106	51200	keystroke_t	t	n/a
26.065	0.0895	52130	keystroke_r	r	n/a
26.306	0.1045	52612	keystroke_i	i	n/a
26.6485	0.108	53297	keystroke_d	d	n/a
26.8605	0.0895	53721	keystroke_g	g	n/a
26.935	0.105	53870	keystroke_e	e	n/a
27.1745	0.122	54349	keystroke_Key.space	Key.space	n/a
27.55	0.06	55100	keystroke_d	d	n/a
27.7165	0.075	55433	keystroke_e	e	n/a
27.8365	0.119	55673	keystroke_a	a	n/a
28.1495	0.077	56299	keystroke_f	f	n/a
28.3445	0.106	56689	keystroke_Key.space	Key.space	n/a
28.6895	0.107	57379	keystroke_r	r	n/a
28.737	0.104	57474	keystroke_e	e	n/a
29.0045	0.105	58009	keystroke_l	l	n/a
29.184	0.1375	58368	keystroke_i	i	n/a
29.74	0.12	59480	keystroke_g	g	n/a
29.8005	0.224	59601	keystroke_i	i	n/a
29.89	0.149	59780	keystroke_o	o	n/a
30.144	0.1525	60288	keystroke_u	u	n/a
30.281	0.12	60562	keystroke_s	s	n/a
30.49	0.1345	60980	keystroke_Key.space	Key.space	n/a
30.8805	0.1195	61761	keystroke_c	c	n/a
31.074	0.1215	62148	keystroke_o	o	n/a
31.3755	0.1195	62751	keystroke_n	n	n/a
31.705	0.1205	63410	keystroke_f	f	n/a
31.7955	0.1045	63591	keystroke_i	i	n/a
32.41	0.09	64820	keystroke_g	g	n/a
32.47	0.12	64940	keystroke_u	u	n/a
32.634	0.0925	65268	keystroke_r	r	n/a
32.7265	0.03	65453	keystroke_e	e	n/a
33.159	0.0915	66318	keystroke_Key.enter	Key.enter	n/a
33.2565	9.04	66513	prompt	n/a	scan claimed vaccine bishop\n
34.0295	0.1345	68059	keystroke_s	s	n/a
34.315	0.091	68630	keystroke_c	c	n/a
34.421	0.0895	68842	keystroke_a	a	n/a
34.57	0.1045	69140	keystroke_n	n	n/a
34.734	0.136	69468	keystroke_Key.space	Key.space	n/a
35.1695	0.0895	70339	keystroke_c	c	n/a
35.5295	0.1195	71059	keystroke_l	l	n/a
35.649	0.12	71298	keystroke_a	a	n/a
35.799	0.1665	71598	keystroke_i	i	n/a
36.0095	0.1205	72019	keystroke_m	m	n/a
36.1595	0.09	72319	keystroke_e	e	n/a
36.371	0.104	72742	keystroke_d	d	n/a
36.505	0.1195	73010	keystroke_Key.space	Key.space	n/a
37.194	0.0755	74388	keystroke_v	v	n/a
37.345	0.1065	74690	keystroke_a	a	n/a
37.57	0.059	75140	keystroke_c	c	n/a
37.689	0.105	75378	keystroke_c	c	n/a
38.064	0.0895	76128	keystroke_i	i	n/a
38.2735	0.1375	76547	keystroke_n	n	n/a
38.363	0.197	76726	keystroke_e	e	n/a
38.6935	0.135	77387	keystroke_Key.space	Key.space	n/a
39.729	0.1195	79458	keystroke_b	b	n/a
39.864	0.1815	79728	keystroke_i	i	n/a
40.075	0.1345	80150	keystroke_s	s	n/a
40.1945	0.134	80389	keystroke_h	h	n/a
40.6305	0.1635	81261	keystroke_o	o	n/a
40.719	0.1195	81438	keystroke_p	p	n/a
41.184	0.15	82368	keystroke_Key.space	Key.space	n/a
41.891	0.134	83782	keystroke_Key.backspace	Key.backspace	n/a
42.16	0.134	84320	keystroke_Key.enter	Key.enter	n/a
42.3015	12.0395	84603	prompt	n/a	precisely accessible activists indexes\n
43.209	0.1195	86418	keystroke_p	p	n/a
43.2835	0.152	86567	keystroke_r	r	n/a
43.3435	0.1515	86687	keystroke_e	e	n/a
43.8395	0.136	87679	keystroke_c	c	n/a
43.9905	0.1185	87981	keystroke_e	e	n/a
44.395	0.1195	88790	keystroke_Key.backspace	Key.backspace	n/a
45.3385	0.077	90677	keystroke_i	i	n/a
45.4005	0.1045	90801	keystroke_s	s	n/a
45.4605	0.1045	90921	keystroke_e	e	n/a
45.6695	0.1195	91339	keystroke_l	l	n/a
46.3885	0.107	92777	keystroke_y	y	n/a
46.7035	0.135	93407	keystroke_Key.space	Key.space	n/a
46.899	0.106	93798	keystroke_a	a	n/a
47.14	0.06	94280	keystroke_c	c	n/a
47.304	0.09	94608	keystroke_c	c	n/a
47.9805	0.1345	95961	keystroke_e	e	n/a
48.189	0.1055	96378	keystroke_s	s	n/a
48.354	0.1505	96708	keystroke_s	s	n/a
49.045	0.1195	98090	keystroke_i	i	n/a
49.149	0.1205	98298	keystroke_b	b	n/a
49.283	0.1355	98566	keystroke_l	l	n/a
49.51	0.135	99020	keystroke_e	e	n/a
49.689	0.165	99378	keystroke_Key.space	Key.space	n/a
50.199	0.1495	100398	keystroke_a	a	n/a
50.468	0.106	100936	keystroke_c	c	n/a
50.7835	0.1195	101567	keystroke_t	t	n/a
50.963	0.1065	101926	keystroke_i	i	n/a
51.1295	0.105	102259	keystroke_v	v	n/a
51.204	0.135	102408	keystroke_i	i	n/a
51.3835	0.1365	102767	keystroke_s	s	n/a
51.55	0.1045	103100	keystroke_t	t	n/a
51.774	0.1195	103548	keystroke_s	s	n/a
52.239	0.105	104478	keystroke_Key.space	Key.space	n/a
52.959	0.166	105918	keystroke_i	i	n/a
53.035	0.1495	106070	keystroke_n	n	n/a
53.2445	0.0745	106489	keystroke_d	d	n/a
53.4085	0.136	106817	keystroke_e	e	n/a
53.649	0.1205	107298	keystroke_x	x	n/a
53.8145	0.119	107629	keystroke_e	e	n/a
53.9935	0.106	107987	keystroke_s	s	n/a
54.204	0.135	108408	keystroke_Key.enter	Key.enter	n/a
54.346	9.4755	108692	prompt	n/a	billion satisfy dist presentation\n
55.314	0.1195	110628	keystroke_b	b	n/a
55.5075	0.122	111015	keystroke_i	i	n/a
55.764	0.075	111528	keystroke_l	l	n/a
55.898	0.0905	111796	keystroke_l	l	n/a
56.0795	0.165	112159	keystroke_i	i	n/a
56.169	0.1355	112338	keystroke_o	o	n/a
56.3195	0.1495	112639	keystroke_n	n	n/a
56.5445	0.12	113089	keystroke_Key.space	Key.space	n/a
56.739	0.1655	113478	keystroke_s	s	n/a
56.8285	0.15	113657	keystroke_a	a	n/a
57.428	0.1215	114856	keystroke_t	t	n/a
57.609	0.12	115218	keystroke_i	i	n/a
57.714	0.134	115428	keystroke_s	s	n/a
58.164	0.1045	116328	keystroke_f	f	n/a
58.3435	0.1195	116687	keystroke_y	y	n/a
58.7335	0.12	117467	keystroke_Key.space	Key.space	n/a
58.928	0.1355	117856	keystroke_d	d	n/a
59.0485	0.1205	118097	keystroke_i	i	n/a
59.1535	0.1945	118307	keystroke_s	s	n/a
59.334	0.1195	118668	keystroke_t	t	n/a
59.605	0.1045	119210	keystroke_Key.space	Key.space	n/a
60.144	0.105	120288	keystroke_p	p	n/a
60.1885	0.1205	120377	keystroke_r	r	n/a
60.25	0.1635	120500	keystroke_e	e	n/a
60.4435	0.211	120887	keystroke_s	s	n/a
60.5795	0.12	121159	keystroke_e	e	n/a
61.9585	0.121	123917	keystroke_n	n	n/a
62.1995	0.1205	124399	keystroke_t	t	n/a
62.514	0.091	125028	keystroke_a	a	n/a
63.0995	0.1495	126199	keystroke_t	t	n/a
63.189	0.1205	126378	keystroke_i	i	n/a
63.2785	0.0895	126557	keystroke_o	o	n/a
63.414	0.121	126828	keystroke_n	n	n/a
63.6995	0.12	127399	keystroke_Key.enter	Key.enter	n/a
63.8275	14.9495	127655	prompt	n/a	occurred protected recovery expenditures\n
64.809	0.0455	129618	keystroke_o	o	n/a
64.869	0.0905	129738	keystroke_c	c	n/a
65.1095	0.075	130219	keystroke_c	c	n/a
65.274	0.135	130548	keystroke_u	u	n/a
65.724	0.1495	131448	keystroke_r	r	n/a
65.9945	0.135	131989	keystroke_e	e	n/a
66.1595	0.1645	132319	keystroke_d	d	n/a
66.3385	0.135	132677	keystroke_Key.space	Key.space	n/a
66.655	0.1195	133310	keystroke_p	p	n/a
66.759	0.12	133518	keystroke_r	r	n/a
66.894	0.0895	133788	keystroke_o	o	n/a
67.0445	0.105	134089	keystroke_t	t	n/a
67.209	0.15	134418	keystroke_e	e	n/a
67.4485	0.107	134897	keystroke_c	c	n/a
67.69	0.0595	135380	keystroke_t	t	n/a
67.7645	0.12	135529	keystroke_e	e	n/a
67.9885	0.1055	135977	keystroke_d	d	n/a
68.229	0.12	136458	keystroke_Key.space	Key.space	n/a
69.5335	0.2265	139067	keystroke_r	r	n/a
69.745	0.03	139490	keystroke_e	e	n/a
70.0305	0.03	140061	keystroke_v	v	n/a
71.6945	0.1195	143389	keystroke_Key.backspace	Key.backspace	n/a
71.829	0.2555	143658	keystroke_Key.backspace	Key.backspace	n/a
72.9695	0.119	145939	keystroke_e	e	n/a
73.1645	0.12	146329	keystroke_c	c	n/a
73.4795	0.105	146959	keystroke_o	o	n/a
73.644	0.1205	147288	keystroke_v	v	n/a
73.8085	0.1815	147617	keystroke_e	e	n/a
73.9145	0.1505	147829	keystroke_r	r	n/a
74.3045	0.12	148609	keystroke_y	y	n/a
74.5295	0.12	149059	keystroke_Key.space	Key.space	n/a
75.055	0.0895	150110	keystroke_e	e	n/a
75.279	0.121	150558	keystroke_x	x	n/a
75.97	0.12	151940	keystroke_p	p	n/a
76	0.15	152000	keystroke_e	e	n/a
76.54	0.105	153080	keystroke_n	n	n/a
76.63	0.1345	153260	keystroke_d	d	n/a
76.9445	0.135	153889	keystroke_i	i	n/a
77.8595	0.1345	155719	keystroke_t	t	n/a
78.009	0.061	156018	keystroke_u	u	n/a
78.085	0.1495	156170	keystroke_r	r	n/a
78.16	0.164	156320	keystroke_e	e	n/a
78.3105	0.134	156621	keystroke_s	s	n/a
78.64	0.1345	157280	keystroke_Key.enter	Key.enter	n/a
78.785	9.0815	157570	prompt	n/a	weekends cigarette extended visit\n
79.525	0.15	159050	keystroke_w	w	n/a
79.5995	0.1355	159199	keystroke_e	e	n/a
79.81	0.074	159620	keystroke_e	e	n/a
80.5295	0.135	161059	keystroke_k	k	n/a
80.636	0.1045	161272	keystroke_e	e	n/a
80.98	0.12	161960	keystroke_n	n	n/a
81.07	0.12	162140	keystroke_d	d	n/a
81.175	0.12	162350	keystroke_s	s	n/a
81.445	0.135	162890	keystroke_Key.space	Key.space	n/a
81.924	0.091	163848	keystroke_c	c	n/a
82.0745	0.1505	164149	keystroke_i	i	n/a
82.3145	0.1055	164629	keystroke_g	g	n/a
82.5095	0.0895	165019	keystroke_a	a	n/a
82.675	0.1345	165350	keystroke_r	r	n/a
82.7495	0.15	165499	keystroke_e	e	n/a
82.9895	0.09	165979	keystroke_t	t	n/a
83.1705	0.074	166341	keystroke_t	t	n/a
83.2895	0.1655	166579	keystroke_e	e	n/a
83.754	0.076	167508	keystroke_Key.space	Key.space	n/a
84.6995	0.0905	169399	keystroke_e	e	n/a
84.9095	0.1355	169819	keystroke_x	x	n/a
85.1495	0.121	170299	keystroke_t	t	n/a
85.2855	0.135	170571	keystroke_e	e	n/a
85.5095	0.1055	171019	keystroke_n	n	n/a
85.57	0.105	171140	keystroke_d	d	n/a
85.7505	0.1195	171501	keystroke_e	e	n/a
85.975	0.165	171950	keystroke_d	d	n/a
86.079	0.1655	172158	keystroke_Key.space	Key.space	n/a
86.6955	0.1045	173391	keystroke_v	v	n/a
86.816	0.1195	173632	keystroke_i	i	n/a
87.025	0.105	174050	keystroke_s	s	n/a
87.07	0.12	174140	keystroke_i	i	n/a
87.355	0.135	174710	keystroke_t	t	n/a
87.7305	0.1345	175461	keystroke_Key.enter	Key.enter	n/a
87.872	12.9855	175744	prompt	n/a	kazakhstan louis allowed resources\n
88.7205	0.105	177441	keystroke_k	k	n/a
88.7805	0.1195	177561	keystroke_a	a	n/a
89.1105	0.0745	178221	keystroke_j	j	n/a
89.53	0.12	179060	keystroke_Key.backspace	Key.backspace	n/a
89.6345	0.076	179269	keystroke_z	z	n/a
89.8145	0.105	179629	keystroke_a	a	n/a
90.445	0.1055	180890	keystroke_k	k	n/a
90.6695	0.105	181339	keystroke_h	h	n/a
90.7595	0.09	181519	keystroke_s	s	n/a
91.1045	0.075	182209	keystroke_t	t	n/a
91.2845	0.0905	182569	keystroke_a	a	n/a
91.6895	0.1205	183379	keystroke_n	n	n/a
91.9	0.12	183800	keystroke_Key.space	Key.space	n/a
92.3955	0.0745	184791	keystroke_l	l	n/a
92.5445	0.1205	185089	keystroke_o	o	n/a
92.9205	0.165	185841	keystroke_u	u	n/a
93.0105	0.135	186021	keystroke_i	i	n/a
93.1305	0.105	186261	keystroke_s	s	n/a
93.355	0.12	186710	keystroke_Key.space	Key.space	n/a
94.015	0.075	188030	keystroke_a	a	n/a
94.195	0.03	188390	keystroke_k	k	n/a
94.3455	0.0455	188691	keystroke_l	l	n/a
94.6	0.09	189200	keystroke_Key.backspace	Key.backspace	n/a
94.7805	0.0895	189561	keystroke_Key.backspace	Key.backspace	n/a
95.3505	0.075	190701	keystroke_l	l	n/a
95.5005	0.06	191001	keystroke_l	l	n/a
95.6655	0.15	191331	keystroke_o	o	n/a
95.7555	0.239	191511	keystroke_w	w	n/a
95.95	0.1345	191900	keystroke_e	e	n/a
96.1745	0.15	192349	keystroke_d	d	n/a
96.3545	0.1355	192709	keystroke_Key.space	Key.space	n/a
96.7	0.1355	193400	keystroke_r	r	n/a
96.7595	0.1355	193519	keystroke_e	e	n/a
97.091	0.119	194182	keystroke_c	c	n/a
97.525	0.076	195050	keystroke_Key.backspace	Key.backspace	n/a
97.585	0.121	195170	keystroke_s	s	n/a
98.321	0.104	196642	keystroke_o	o	n/a
98.5755	0.1345	197151	keystroke_u	u	n/a
98.6355	0.12	197271	keystroke_r	r	n/a
98.8605	0.0895	197721	keystroke_v	v	n/a
98.9355	0.1645	197871	keystroke_e	e	n/a
99.58	0.045	199160	keystroke_Key.backspace	Key.backspace	n/a
99.639	0.046	199278	keystroke_Key.backspace	Key.backspace	n/a
99.895	0.1505	199790	keystroke_c	c	n/a
99.94	0.165	199880	keystroke_e	e	n/a
100.361	0.15	200722	keystroke_s	s	n/a
100.7205	0.135	201441	keystroke_Key.enter	Key.enter	n/a
100.8635	9.0545	201727	prompt	n/a	gordon special duties outputs\n
101.7105	0.119	203421	keystroke_g	g	n/a
101.8005	0.1055	203601	keystroke_o	o	n/a
101.966	0.12	203932	keystroke_r	r	n/a
102.16	0.1205	204320	keystroke_d	d	n/a
102.2655	0.105	204531	keystroke_o	o	n/a
102.5495	0.061	205099	keystroke_n	n	n/a
102.835	0.1645	205670	keystroke_Key.space	Key.space	n/a
103.2845	0.151	206569	keystroke_s	s	n/a
103.556	0.1045	207112	keystroke_p	p	n/a
103.6755	0.1055	207351	keystroke_e	e	n/a
104.0495	0.0605	208099	keystroke_c	c	n/a
104.125	0.105	208250	keystroke_i	i	n/a
104.2455	0.105	208491	keystroke_a	a	n/a
104.456	0.1045	208912	keystroke_l	l	n/a
104.6205	0.135	209241	keystroke_Key.space	Key.space	n/a
104.8155	0.12	209631	keystroke_d	d	n/a
105.5505	0.135	211101	keystroke_u	u	n/a
106.976	0.1495	213952	keystroke_t	t	n/a
107.081	0.15	214162	keystroke_i	i	n/a
107.276	0.165	214552	keystroke_e	e	n/a
107.4705	0.165	214941	keystroke_s	s	n/a
107.6945	0.166	215389	keystroke_Key.space	Key.space	n/a
108.2655	0.15	216531	keystroke_o	o	n/a
108.5805	0.1195	217161	keystroke_u	u	n/a
108.686	0.1195	217372	keystroke_t	t	n/a
109.0155	0.135	218031	keystroke_p	p	n/a
109.3755	0.165	218751	keystroke_u	u	n/a
109.4355	0.15	218871	keystroke_t	t	n/a
109.6305	0.1805	219261	keystroke_s	s	n/a
109.796	0.1195	219592	keystroke_Key.enter	Key.enter	n/a
109.923	6.61	219846	prompt	n/a	lambda dose smilies seventh\n
110.846	0.105	221692	keystroke_l	l	n/a
110.966	0.12	221932	keystroke_a	a	n/a
111.131	0.135	222262	keystroke_m	m	n/a
111.461	0.09	222922	keystroke_b	b	n/a
111.5655	0.12	223131	keystroke_d	d	n/a
111.6555	0.1655	223311	keystroke_a	a	n/a
111.91	0.1655	223820	keystroke_Key.space	Key.space	n/a
112.226	0.149	224452	keystroke_d	d	n/a
112.36	0.151	224720	keystroke_o	o	n/a
112.5115	0.1645	225023	keystroke_s	s	n/a
112.5865	0.1795	225173	keystroke_e	e	n/a
112.7505	0.1645	225501	keystroke_Key.space	Key.space	n/a
113.2155	0.12	226431	keystroke_s	s	n/a
113.3505	0.18	226701	keystroke_m	m	n/a
113.396	0.1495	226792	keystroke_i	i	n/a
113.695	0.136	227390	keystroke_l	l	n/a
113.755	0.1355	227510	keystroke_e	e	n/a
113.905	0.1505	227810	keystroke_s	s	n/a
114.056	0.1345	228112	keystroke_Key.space	Key.space	n/a
114.641	0.135	229282	keystroke_s	s	n/a
114.716	0.12	229432	keystroke_e	e	n/a
115.001	0.0905	230002	keystroke_v	v	n/a
115.1655	0.1055	230331	keystroke_e	e	n/a
115.406	0.0895	230812	keystroke_n	n	n/a
115.481	0.1195	230962	keystroke_t	t	n/a
115.7965	0.119	231593	keystroke_h	h	n/a
116.441	0.09	232882	keystroke_Key.enter	Key.enter	n/a
116.5365	11.891	233073	prompt	n/a	businesses forbidden avon hardcover\n
117.5355	0.165	235071	keystroke_b	b	n/a
117.6255	0.12	235251	keystroke_u	u	n/a
117.791	0.12	235582	keystroke_s	s	n/a
118.031	0.1205	236062	keystroke_i	i	n/a
118.286	0.15	236572	keystroke_n	n	n/a
118.376	0.1195	236752	keystroke_e	e	n/a
118.7055	0.195	237411	keystroke_s	s	n/a
118.8855	0.12	237771	keystroke_e	e	n/a
119.156	0.105	238312	keystroke_s	s	n/a
119.666	0.1045	239332	keystroke_Key.backspace	Key.backspace	n/a
119.876	0.0895	239752	keystroke_Key.backspace	Key.backspace	n/a
120.131	0.1505	240262	keystroke_s	s	n/a
120.3105	0.1355	240621	keystroke_e	e	n/a
120.9405	0.12	241881	keystroke_s	s	n/a
121.1655	0.18	242331	keystroke_Key.space	Key.space	n/a
122.126	0.1045	244252	keystroke_f	f	n/a
122.2165	0.1355	244433	keystroke_o	o	n/a
122.3665	0.105	244733	keystroke_r	r	n/a
122.7565	0.1045	245513	keystroke_b	b	n/a
122.816	0.135	245632	keystroke_i	i	n/a
123.386	0.119	246772	keystroke_d	d	n/a
123.581	0.03	247162	keystroke_d	d	n/a
123.716	0.135	247432	keystroke_e	e	n/a
123.806	0.12	247612	keystroke_n	n	n/a
123.9705	0.135	247941	keystroke_Key.space	Key.space	n/a
124.271	0.1345	248542	keystroke_a	a	n/a
124.616	0.0605	249232	keystroke_v	v	n/a
124.6455	0.075	249291	keystroke_o	o	n/a
124.841	0.134	249682	keystroke_n	n	n/a
125.006	0.15	250012	keystroke_Key.space	Key.space	n/a
125.7855	0.1195	251571	keystroke_h	h	n/a
125.816	0.1645	251632	keystroke_a	a	n/a
125.9955	0.09	251991	keystroke_r	r	n/a
126.19	0.1205	252380	keystroke_d	d	n/a
127.571	0.105	255142	keystroke_c	c	n/a
127.616	0.12	255232	keystroke_o	o	n/a
127.8705	0.046	255741	keystroke_v	v	n/a
128.036	0.195	256072	keystroke_e	e	n/a
128.156	0.12	256312	keystroke_r	r	n/a
128.291	0.135	256582	keystroke_Key.enter	Key.enter	n/a
128.432	10.167	256864	prompt	n/a	tuesday apply palmer semiconductor\n
129.506	0.1055	259012	keystroke_t	t	n/a
129.6255	0.105	259251	keystroke_u	u	n/a
129.7015	0.15	259403	keystroke_e	e	n/a
129.7455	0.151	259491	keystroke_s	s	n/a
130.031	0.09	260062	keystroke_d	d	n/a
130.1065	0.12	260213	keystroke_a	a	n/a
130.676	0.1195	261352	keystroke_y	y	n/a
130.7665	0.1495	261533	keystroke_Key.space	Key.space	n/a
131.1415	0.149	262283	keystroke_a	a	n/a
131.456	0.09	262912	keystroke_p	p	n/a
131.591	0.1055	263182	keystroke_p	p	n/a
131.7565	0.165	263513	keystroke_l	l	n/a
132.191	0.12	264382	keystroke_y	y	n/a
132.791	0.105	265582	keystroke_Key.space	Key.space	n/a
133.391	0.1355	266782	keystroke_p	p	n/a
133.541	0.0605	267082	keystroke_a	a	n/a
133.871	0.1345	267742	keystroke_l	l	n/a
134.186	0.15	268372	keystroke_m	m	n/a
134.337	0.149	268674	keystroke_e	e	n/a
134.531	0.1955	269062	keystroke_r	r	n/a
134.6815	0.15	269363	keystroke_Key.space	Key.space	n/a
135.0565	0.1805	270113	keystroke_s	s	n/a
135.251	0.09	270502	keystroke_e	e	n/a
135.6855	0.1355	271371	keystroke_m	m	n/a
135.7155	0.1815	271431	keystroke_i	i	n/a
136.1365	0.0905	272273	keystroke_c	c	n/a
136.572	0.1195	273144	keystroke_o	o	n/a
136.7965	0.09	273593	keystroke_n	n	n/a
137.336	0.135	274672	keystroke_d	d	n/a
137.5905	0.105	275181	keystroke_u	u	n/a
137.6355	0.1055	275271	keystroke_c	c	n/a
137.846	0.12	275692	keystroke_t	t	n/a
138.1315	0.1645	276263	keystroke_o	o	n/a
138.2815	0.105	276563	keystroke_r	r	n/a
138.492	0.1045	276984	keystroke_Key.enter	Key.enter	n/a
138.6035	7.75	277207	prompt	n/a	honor joins maple belly\n
139.736	0.135	279472	keystroke_h	h	n/a
139.826	0.1805	279652	keystroke_o	o	n/a
140.0215	0.165	280043	keystroke_n	n	n/a
140.1265	0.195	280253	keystroke_o	o	n/a
140.2765	0.1655	280553	keystroke_r	r	n/a
140.457	0.1195	280914	keystroke_Key.space	Key.space	n/a
141.0865	0.135	282173	keystroke_j	j	n/a
141.1615	0.18	282323	keystroke_o	o	n/a
141.281	0.136	282562	keystroke_i	i	n/a
141.5515	0.1495	283103	keystroke_u	u	n/a
142.196	0.12	284392	keystroke_Key.backspace	Key.backspace	n/a
142.497	0.119	284994	keystroke_n	n	n/a
142.602	0.1495	285204	keystroke_s	s	n/a
142.7665	0.1495	285533	keystroke_Key.space	Key.space	n/a
143.4565	0.1355	286913	keystroke_m	m	n/a
143.5465	0.165	287093	keystroke_a	a	n/a
143.6965	0.09	287393	keystroke_p	p	n/a
143.9365	0.181	287873	keystroke_l	l	n/a
144.0715	0.15	288143	keystroke_e	e	n/a
144.1765	0.1495	288353	keystroke_Key.space	Key.space	n/a
144.761	0.091	289522	keystroke_b	b	n/a
144.9115	0.105	289823	keystroke_e	e	n/a
145.2715	0.045	290543	keystroke_l	l	n/a
145.4065	0.15	290813	keystroke_l	l	n/a
145.616	0.1355	291232	keystroke_y	y	n/a
145.8865	0.105	291773	keystroke_Key.space	Key.space	n/a
146.231	0.1195	292462	keystroke_Key.enter	Key.enter	n/a
146.357	6.4615	292714	prompt	n/a	cloudy removing tops them\n
147.221	0.106	294442	keystroke_c	c	n/a
147.432	0.09	294864	keystroke_l	l	n/a
147.596	0.135	295192	keystroke_o	o	n/a
147.8805	0.27	295761	keystroke_u	u	n/a
147.9865	0.09	295973	keystroke_d	d	n/a
148.256	0.151	296512	keystroke_y	y	n/a
148.451	0.1505	296902	keystroke_Key.space	Key.space	n/a
149.0515	0.12	298103	keystroke_r	r	n/a
149.126	0.1205	298252	keystroke_e	e	n/a
149.3065	0.135	298613	keystroke_m	m	n/a
149.3965	0.1955	298793	keystroke_o	o	n/a
149.7865	0.0745	299573	keystroke_v	v	n/a
149.846	0.1055	299692	keystroke_i	i	n/a
150.102	0.12	300204	keystroke_n	n	n/a
150.2815	0.1205	300563	keystroke_g	g	n/a
150.537	0.119	301074	keystroke_Key.space	Key.space	n/a
150.9115	0.1055	301823	keystroke_t	t	n/a
151.0015	0.1945	302003	keystroke_o	o	n/a
151.166	0.1205	302332	keystroke_p	p	n/a
151.227	0.149	302454	keystroke_s	s	n/a
151.452	0.149	302904	keystroke_Key.space	Key.space	n/a
152.0365	0.0895	304073	keystroke_t	t	n/a
152.1865	0.1195	304373	keystroke_h	h	n/a
152.276	0.1665	304552	keystroke_e	e	n/a
152.4265	0.135	304853	keystroke_m	m	n/a
152.7565	0.0605	305513	keystroke_Key.enter	Key.enter	n/a
152.822	11.142	305644	prompt	n/a	mississippi basement mrna advert\n
153.6265	0.1195	307253	keystroke_m	m	n/a
153.8065	0.12	307613	keystroke_o	o	n/a
154.467	0.1495	308934	keystroke_Key.backspace	Key.backspace	n/a
154.8265	0.09	309653	keystroke_i	i	n/a
155.4715	0.075	310943	keystroke_s	s	n/a
155.6365	0.1505	311273	keystroke_s	s	n/a
155.847	0.1795	311694	keystroke_i	i	n/a
156.5065	0.09	313013	keystroke_s	s	n/a
156.6565	0.12	313313	keystroke_s	s	n/a
157.002	0.12	314004	keystroke_i	i	n/a
157.3165	0.12	314633	keystroke_p	p	n/a
157.497	0.1345	314994	keystroke_p	p	n/a
158.112	0.149	316224	keystroke_i	i	n/a
158.456	0.181	316912	keystroke_Key.space	Key.space	n/a
159.0565	0.105	318113	keystroke_b	b	n/a
159.1465	0.135	318293	keystroke_a	a	n/a
159.206	0.21	318412	keystroke_s	s	n/a
159.4015	0.1505	318803	keystroke_e	e	n/a
159.536	0.12	319072	keystroke_m	m	n/a
159.642	0.1495	319284	keystroke_e	e	n/a
159.7765	0.151	319553	keystroke_n	n	n/a
160.031	0.09	320062	keystroke_t	t	n/a
160.392	0.1345	320784	keystroke_Key.space	Key.space	n/a
160.887	0.12	321774	keystroke_m	m	n/a
160.992	0.12	321984	keystroke_r	r	n/a
161.171	0.1515	322342	keystroke_n	n	n/a
161.3065	0.151	322613	keystroke_a	a	n/a
161.5165	0.165	323033	keystroke_Key.space	Key.space	n/a
162.656	0.15	325312	keystroke_a	a	n/a
162.776	0.135	325552	keystroke_d	d	n/a
163.1065	0.09	326213	keystroke_v	v	n/a
163.2565	0.21	326513	keystroke_e	e	n/a
163.376	0.136	326752	keystroke_r	r	n/a
163.6015	0.1355	327203	keystroke_t	t	n/a
163.812	0.15	327624	keystroke_Key.enter	Key.enter	n/a
163.9695	15.0995	327939	prompt	n/a	washington fabulous spirit erotica\n
164.697	0.15	329394	keystroke_w	w	n/a
164.832	0.1795	329664	keystroke_a	a	n/a
164.936	0.181	329872	keystroke_s	s	n/a
165.162	0.135	330324	keystroke_h	h	n/a
165.4025	0.15	330805	keystroke_i	i	n/a
165.5675	0.1195	331135	keystroke_n	n	n/a
165.6565	0.0905	331313	keystroke_g	g	n/a
165.837	0.135	331674	keystroke_t	t	n/a
165.912	0.15	331824	keystroke_o	o	n/a
165.987	0.105	331974	keystroke_p	p	n/a
166.4675	0.1045	332935	keystroke_Key.backspace	Key.backspace	n/a
166.766	0.121	333532	keystroke_n	n	n/a
166.962	0.1495	333924	keystroke_Key.space	Key.space	n/a
167.607	0.06	335214	keystroke_f	f	n/a
167.697	0.12	335394	keystroke_a	a	n/a
167.907	0.0905	335814	keystroke_l	l	n/a
168.312	0.134	336624	keystroke_Key.backspace	Key.backspace	n/a
168.6565	0.1505	337313	keystroke_b	b	n/a
168.837	0.12	337674	keystroke_o	o	n/a
170.262	0.135	340524	keystroke_Key.backspace	Key.backspace	n/a
171.042	0.1045	342084	keystroke_u	u	n/a
171.327	0.075	342654	keystroke_l	l	n/a
171.477	0.1055	342954	keystroke_o	o	n/a
172.047	0.105	344094	keystroke_u	u	n/a
172.122	0.195	344244	keystroke_s	s	n/a
172.3465	0.1655	344693	keystroke_Key.space	Key.space	n/a
172.8865	0.1655	345773	keystroke_s	s	n/a
173.097	0.135	346194	keystroke_p	p	n/a
173.337	0.105	346674	keystroke_i	i	n/a
173.546	0.0755	347092	keystroke_t	t	n/a
174.582	0.104	349164	keystroke_Key.backspace	Key.backspace	n/a
174.672	0.15	349344	keystroke_r	r	n/a
175.317	0.1205	350634	keystroke_i	i	n/a
175.497	0.135	350994	keystroke_t	t	n/a
175.707	0.136	351414	keystroke_Key.space	Key.space	n/a
176.712	0.181	353424	keystroke_e	e	n/a
177.357	0.105	354714	keystroke_r	r	n/a
177.432	0.1355	354864	keystroke_o	o	n/a
177.6275	0.09	355255	keystroke_c	c	n/a
178.167	0.1205	356334	keystroke_Key.backspace	Key.backspace	n/a
178.302	0.105	356604	keystroke_t	t	n/a
178.4675	0.1645	356935	keystroke_i	i	n/a
178.618	0.0895	357236	keystroke_c	c	n/a
178.767	0.121	357534	keystroke_a	a	n/a
178.947	0.1205	357894	keystroke_Key.enter	Key.enter	n/a
179.073	10.18	358146	prompt	n/a	alert associates tribute diego\n
179.6975	0.1655	359395	keystroke_a	a	n/a
179.877	0.12	359754	keystroke_l	l	n/a
180.012	0.195	360024	keystroke_e	e	n/a
180.102	0.15	360204	keystroke_r	r	n/a
180.372	0.135	360744	keystroke_t	t	n/a
181.017	0.1195	362034	keystroke_Key.space	Key.space	n/a
181.5565	0.1805	363113	keystroke_a	a	n/a
181.6915	0.106	363383	keystroke_s	s	n/a
181.8575	0.135	363715	keystroke_s	s	n/a
182.006	0.106	364012	keystroke_o	o	n/a
182.817	0.1355	365634	keystroke_c	c	n/a
182.938	0.119	365876	keystroke_i	i	n/a
183.013	0.149	366026	keystroke_a	a	n/a
183.282	0.1195	366564	keystroke_t	t	n/a
183.4315	0.1655	366863	keystroke_e	e	n/a
183.5825	0.165	367165	keystroke_s	s	n/a
183.8225	0.1195	367645	keystroke_Key.space	Key.space	n/a
184.542	0.015	369084	keystroke_t	t	n/a
184.5715	0.0755	369143	keystroke_r	r	n/a
184.603	0.074	369206	keystroke_u	u	n/a
185.292	0.12	370584	keystroke_Key.backspace	Key.backspace	n/a
185.5925	0.1355	371185	keystroke_i	i	n/a
185.7575	0.1505	371515	keystroke_b	b	n/a
186.432	0.135	372864	keystroke_u	u	n/a
186.552	0.1205	373104	keystroke_t	t	n/a
186.7175	0.091	373435	keystroke_e	e	n/a
187.1515	0.1055	374303	keystroke_Key.space	Key.space	n/a
187.527	0.1045	375054	keystroke_d	d	n/a
187.828	0.164	375656	keystroke_i	i	n/a
188.158	0.1035	376316	keystroke_e	e	n/a
188.8325	0.12	377665	keystroke_g	g	n/a
188.907	0.12	377814	keystroke_o	o	n/a
189.117	0.1345	378234	keystroke_Key.enter	Key.enter	n/a
189.2595	10.96	378519	prompt	n/a	failure meanwhile handle aids\n
190.123	0.104	380246	keystroke_f	f	n/a
190.242	0.1355	380484	keystroke_a	a	n/a
190.4075	0.12	380815	keystroke_i	i	n/a
190.6325	0.1045	381265	keystroke_l	l	n/a
190.874	0.163	381748	keystroke_u	u	n/a
191.007	0.135	382014	keystroke_e	e	n/a
191.0975	0.1195	382195	keystroke_r	r	n/a
191.427	0.0745	382854	keystroke_Key.backspace	Key.backspace	n/a
191.592	0.0305	383184	keystroke_Key.backspace	Key.backspace	n/a
191.683	0.0895	383366	keystroke_Key.backspace	Key.backspace	n/a
191.7575	0.12	383515	keystroke_r	r	n/a
191.8175	0.149	383635	keystroke_e	e	n/a
192.2075	0.0595	384415	keystroke_Key.backspace	Key.backspace	n/a
192.327	0.105	384654	keystroke_Key.backspace	Key.backspace	n/a
193.078	0.1195	386156	keystroke_u	u	n/a
193.1085	0.1645	386217	keystroke_r	r	n/a
193.183	0.15	386366	keystroke_e	e	n/a
193.3165	0.1665	386633	keystroke_Key.space	Key.space	n/a
193.9625	0.135	387925	keystroke_m	m	n/a
194.053	0.105	388106	keystroke_e	e	n/a
194.112	0.151	388224	keystroke_a	a	n/a
194.248	0.12	388496	keystroke_n	n	n/a
194.6525	0.105	389305	keystroke_w	w	n/a
194.8025	0.09	389605	keystroke_h	h	n/a
195.0575	0.1195	390115	keystroke_i	i	n/a
195.2815	0.1505	390563	keystroke_l	l	n/a
195.4025	0.165	390805	keystroke_e	e	n/a
195.5225	0.1345	391045	keystroke_Key.space	Key.space	n/a
196.0925	0.1055	392185	keystroke_h	h	n/a
196.1225	0.1495	392245	keystroke_a	a	n/a
196.573	0.135	393146	keystroke_n	n	n/a
196.7225	0.1345	393445	keystroke_d	d	n/a
197.1425	0.149	394285	keystroke_l	l	n/a
197.3065	0.1655	394613	keystroke_e	e	n/a
197.607	0.1495	395214	keystroke_Key.space	Key.space	n/a
197.967	0.1205	395934	keystroke_a	a	n/a
198.237	0.09	396474	keystroke_o	o	n/a
198.252	0.045	396504	keystroke_i	i	n/a
198.312	0.135	396624	keystroke_d	d	n/a
198.687	0.0905	397374	keystroke_Key.backspace	Key.backspace	n/a
198.9415	0.1055	397883	keystroke_Key.backspace	Key.backspace	n/a
199.167	0.1205	398334	keystroke_Key.backspace	Key.backspace	n/a
199.7525	0.12	399505	keystroke_i	i	n/a
199.8425	0.1345	399685	keystroke_d	d	n/a
199.8875	0.1505	399775	keystroke_s	s	n/a
200.083	0.1345	400166	keystroke_Key.enter	Key.enter	n/a
200.2245	12.0555	400449	prompt	n/a	extract strengths actually medicines\n
201.402	0.121	402804	keystroke_e	e	n/a
201.7025	0.0905	403405	keystroke_x	x	n/a
202.016	0.1365	404032	keystroke_r	r	n/a
202.452	0.1355	404904	keystroke_Key.backspace	Key.backspace	n/a
202.557	0.121	405114	keystroke_t	t	n/a
202.903	0.12	405806	keystroke_r	r	n/a
203.037	0.106	406074	keystroke_a	a	n/a
203.2175	0.105	406435	keystroke_c	c	n/a
203.4425	0.09	406885	keystroke_t	t	n/a
203.6835	0.149	407367	keystroke_Key.space	Key.space	n/a
204.058	0.1345	408116	keystroke_s	s	n/a
204.2675	0.105	408535	keystroke_t	t	n/a
204.507	0.1355	409014	keystroke_r	r	n/a
204.612	0.1205	409224	keystroke_e	e	n/a
204.928	0.1195	409856	keystroke_n	n	n/a
206.428	0.119	412856	keystroke_g	g	n/a
207.193	0.1355	414386	keystroke_t	t	n/a
207.253	0.1195	414506	keystroke_h	h	n/a
207.4185	0.1485	414837	keystroke_s	s	n/a
207.792	0.1055	415584	keystroke_Key.space	Key.space	n/a
208.123	0.1055	416246	keystroke_a	a	n/a
208.3025	0.12	416605	keystroke_c	c	n/a
208.6335	0.074	417267	keystroke_t	t	n/a
208.7235	0.105	417447	keystroke_u	u	n/a
208.9025	0.105	417805	keystroke_a	a	n/a
209.0525	0.0895	418105	keystroke_l	l	n/a
209.233	0.0605	418466	keystroke_l	l	n/a
209.8025	0.165	419605	keystroke_y	y	n/a
209.9525	0.0745	419905	keystroke_Key.space	Key.space	n/a
210.313	0.1345	420626	keystroke_m	m	n/a
210.4325	0.0895	420865	keystroke_e	e	n/a
210.598	0.119	421196	keystroke_d	d	n/a
210.7925	0.105	421585	keystroke_i	i	n/a
211.4075	0.1345	422815	keystroke_c	c	n/a
211.482	0.0905	422964	keystroke_i	i	n/a
211.6925	0.105	423385	keystroke_n	n	n/a
211.737	0.166	423474	keystroke_e	e	n/a
211.8575	0.15	423715	keystroke_s	s	n/a
212.143	0.1345	424286	keystroke_Key.enter	Key.enter	n/a
212.2855	9.729	424571	prompt	n/a	expired able vietnamese committed\n
213.0725	0.0905	426145	keystroke_e	e	n/a
213.2835	0.119	426567	keystroke_x	x	n/a
213.418	0.1195	426836	keystroke_p	p	n/a
213.6575	0.15	427315	keystroke_i	i	n/a
213.7785	0.1195	427557	keystroke_r	r	n/a
213.8825	0.075	427765	keystroke_e	e	n/a
214.0775	0.135	428155	keystroke_d	d	n/a
214.3025	0.135	428605	keystroke_Key.space	Key.space	n/a
214.6925	0.1355	429385	keystroke_a	a	n/a
215.008	0.105	430016	keystroke_b	b	n/a
215.1425	0.1505	430285	keystroke_l	l	n/a
215.2775	0.1355	430555	keystroke_e	e	n/a
215.368	0.15	430736	keystroke_Key.space	Key.space	n/a
216.013	0.1185	432026	keystroke_v	v	n/a
216.0875	0.12	432175	keystroke_i	i	n/a
216.673	0.21	433346	keystroke_e	e	n/a
216.853	0.105	433706	keystroke_t	t	n/a
217.4535	0.0885	434907	keystroke_n	n	n/a
217.5135	0.134	435027	keystroke_a	a	n/a
217.648	0.1495	435296	keystroke_m	m	n/a
217.7525	0.12	435505	keystroke_e	e	n/a
218.0525	0.1805	436105	keystroke_s	s	n/a
218.1875	0.12	436375	keystroke_e	e	n/a
218.428	0.134	436856	keystroke_Key.space	Key.space	n/a
218.7425	0.135	437485	keystroke_c	c	n/a
218.8325	0.1205	437665	keystroke_o	o	n/a
219.223	0.06	438446	keystroke_o	o	n/a
219.6275	0.09	439255	keystroke_Key.backspace	Key.backspace	n/a
219.867	0.091	439734	keystroke_m	m	n/a
220.018	0.1345	440036	keystroke_m	m	n/a
220.618	0.12	441236	keystroke_i	i	n/a
220.753	0.09	441506	keystroke_t	t	n/a
220.918	0.135	441836	keystroke_t	t	n/a
221.1575	0.1205	442315	keystroke_e	e	n/a
221.5925	0.135	443185	keystroke_d	d	n/a
221.863	0.15	443726	keystroke_Key.enter	Key.enter	n/a
222.018	9.7775	444036	prompt	n/a	mount nowhere commitment newest\n
222.748	0.1495	445496	keystroke_m	m	n/a
222.8225	0.15	445645	keystroke_o	o	n/a
223.0475	0.1805	446095	keystroke_u	u	n/a
223.1075	0.165	446215	keystroke_n	n	n/a
223.243	0.1495	446486	keystroke_t	t	n/a
223.3935	0.1345	446787	keystroke_Key.space	Key.space	n/a
224.1425	0.1505	448285	keystroke_n	n	n/a
224.2625	0.18	448525	keystroke_o	o	n/a
224.398	0.135	448796	keystroke_w	w	n/a
224.638	0.09	449276	keystroke_h	h	n/a
224.743	0.1645	449486	keystroke_e	e	n/a
224.999	0.1035	449998	keystroke_r	r	n/a
225.058	0.15	450116	keystroke_e	e	n/a
225.283	0.1645	450566	keystroke_Key.space	Key.space	n/a
225.988	0.1495	451976	keystroke_c	c	n/a
226.1525	0.1505	452305	keystroke_o	o	n/a
226.348	0.105	452696	keystroke_m	m	n/a
226.498	0.1645	452996	keystroke_m	m	n/a
226.6925	0.1955	453385	keystroke_i	i	n/a
226.993	0.1345	453986	keystroke_n	n	n/a
227.503	0.1345	455006	keystroke_Key.backspace	Key.backspace	n/a
227.608	0.135	455216	keystroke_t	t	n/a
228.1775	0.09	456355	keystroke_m	m	n/a
228.2825	0.09	456565	keystroke_e	e	n/a
228.3735	0.1195	456747	keystroke_n	n	n/a
228.508	0.075	457016	keystroke_t	t	n/a
228.703	0.135	457406	keystroke_Key.space	Key.space	n/a
229.138	0.105	458276	keystroke_n	n	n/a
229.1675	0.135	458335	keystroke_e	e	n/a
229.2875	0.0305	458575	keystroke_w	w	n/a
229.438	0.225	458876	keystroke_s	s	n/a
229.618	0.1645	459236	keystroke_e	e	n/a
230.083	0.0745	460166	keystroke_Key.backspace	Key.backspace	n/a
230.2625	0.045	460525	keystroke_Key.backspace	Key.backspace	n/a
230.4435	0.135	460887	keystroke_e	e	n/a
230.5185	0.1645	461037	keystroke_s	s	n/a
230.773	0.135	461546	keystroke_r	r	n/a
231.3885	0.1045	462777	keystroke_Key.backspace	Key.backspace	n/a
231.4485	0.134	462897	keystroke_t	t	n/a
231.7025	0.0905	463405	keystroke_Key.enter	Key.enter	n/a
231.8	10.18	463600	prompt	n/a	academic arrangement vietnam buy\n
232.4075	0.1055	464815	keystroke_a	a	n/a
232.6475	0.106	465295	keystroke_c	c	n/a
232.8875	0.105	465775	keystroke_a	a	n/a
233.368	0.0745	466736	keystroke_d	d	n/a
233.548	0.1055	467096	keystroke_e	e	n/a
233.6385	0.2695	467277	keystroke_m	m	n/a
234.0585	0.1495	468117	keystroke_i	i	n/a
234.283	0.18	468566	keystroke_c	c	n/a
234.838	0.0455	469676	keystroke_Key.space	Key.space	n/a
235.1385	0.15	470277	keystroke_a	a	n/a
235.438	0.0905	470876	keystroke_r	r	n/a
235.6025	0.1205	471205	keystroke_r	r	n/a
235.738	0.1195	471476	keystroke_a	a	n/a
235.978	0.12	471956	keystroke_n	n	n/a
236.113	0.0895	472226	keystroke_g	g	n/a
236.3825	0.1655	472765	keystroke_e	e	n/a
236.6075	0.135	473215	keystroke_m	m	n/a
236.9225	0.105	473845	keystroke_e	e	n/a
237.298	0.1345	474596	keystroke_n	n	n/a
237.478	0.1205	474956	keystroke_t	t	n/a
237.703	0.105	475406	keystroke_Key.space	Key.space	n/a
238.408	0.12	476816	keystroke_v	v	n/a
238.5135	0.12	477027	keystroke_i	i	n/a
238.693	0.0905	477386	keystroke_e	e	n/a
239.1435	0.1045	478287	keystroke_t	t	n/a
239.908	0.1355	479816	keystroke_n	n	n/a
240.058	0.105	480116	keystroke_a	a	n/a
240.1325	0.121	480265	keystroke_m	m	n/a
240.3275	0.1355	480655	keystroke_Key.space	Key.space	n/a
240.9575	0.1655	481915	keystroke_b	b	n/a
241.0185	0.1645	482037	keystroke_u	u	n/a
241.1245	0.104	482249	keystroke_t	t	n/a
241.498	0.105	482996	keystroke_Key.backspace	Key.backspace	n/a
241.6335	0.1345	483267	keystroke_y	y	n/a
241.873	0.105	483746	keystroke_Key.enter	Key.enter	n/a
241.9855	9.2195	483971	prompt	n/a	poison transform possibly futures\n
242.8485	0.1045	485697	keystroke_p	p	n/a
243.0275	0.151	486055	keystroke_o	o	n/a
243.898	0.105	487796	keystroke_i	i	n/a
244.0175	0.1505	488035	keystroke_s	s	n/a
244.153	0.165	488306	keystroke_o	o	n/a
244.303	0.12	488606	keystroke_n	n	n/a
244.468	0.1795	488936	keystroke_Key.space	Key.space	n/a
245.1125	0.1205	490225	keystroke_t	t	n/a
245.3385	0.12	490677	keystroke_r	r	n/a
245.4735	0.1195	490947	keystroke_a	a	n/a
245.638	0.106	491276	keystroke_n	n	n/a
245.774	0.1345	491548	keystroke_s	s	n/a
246.253	0.1205	492506	keystroke_f	f	n/a
246.358	0.1355	492716	keystroke_o	o	n/a
246.478	0.1495	492956	keystroke_r	r	n/a
246.6435	0.12	493287	keystroke_m	m	n/a
246.8235	0.1345	493647	keystroke_Key.space	Key.space	n/a
247.364	0.1185	494728	keystroke_p	p	n/a
247.5735	0.105	495147	keystroke_o	o	n/a
247.6935	0.09	495387	keystroke_s	s	n/a
247.8735	0.1195	495747	keystroke_s	s	n/a
248.0085	0.1045	496017	keystroke_i	i	n/a
248.264	0.1045	496528	keystroke_b	b	n/a
248.3835	0.1505	496767	keystroke_l	l	n/a
248.6685	0.1355	497337	keystroke_y	y	n/a
248.938	0.12	497876	keystroke_Key.space	Key.space	n/a
249.538	0.12	499076	keystroke_f	f	n/a
249.673	0.12	499346	keystroke_u	u	n/a
249.958	0.1345	499916	keystroke_t	t	n/a
250.048	0.1645	500096	keystroke_u	u	n/a
250.2285	0.149	500457	keystroke_r	r	n/a
250.318	0.1195	500636	keystroke_e	e	n/a
250.5575	0.12	501115	keystroke_s	s	n/a
251.068	0.1355	502136	keystroke_Key.enter	Key.enter	n/a
251.21	9.595	502420	prompt	n/a	their perfect cameron homepage\n
251.9975	0.1355	503995	keystroke_t	t	n/a
252.118	0.1205	504236	keystroke_h	h	n/a
252.2535	0.09	504507	keystroke_e	e	n/a
252.6135	0.12	505227	keystroke_i	i	n/a
252.6585	0.1345	505317	keystroke_r	r	n/a
252.8075	0.1505	505615	keystroke_Key.space	Key.space	n/a
254.5635	0.1045	509127	keystroke_p	p	n/a
254.6385	0.1645	509277	keystroke_e	e	n/a
254.7735	0.121	509547	keystroke_r	r	n/a
255.1775	0.136	510355	keystroke_f	f	n/a
255.433	0.151	510866	keystroke_e	e	n/a
255.703	0.1055	511406	keystroke_c	c	n/a
255.9275	0.12	511855	keystroke_t	t	n/a
256.063	0.105	512126	keystroke_Key.space	Key.space	n/a
256.3935	0.0895	512787	keystroke_c	c	n/a
256.4985	0.1345	512997	keystroke_a	a	n/a
256.679	0.134	513358	keystroke_m	m	n/a
256.799	0.149	513598	keystroke_e	e	n/a
256.888	0.1205	513776	keystroke_r	r	n/a
257.0235	0.135	514047	keystroke_o	o	n/a
257.2935	0.1345	514587	keystroke_n	n	n/a
257.5785	0.1795	515157	keystroke_Key.space	Key.space	n/a
259.228	0.1205	518456	keystroke_h	h	n/a
259.288	0.0905	518576	keystroke_o	o	n/a
259.498	0.105	518996	keystroke_m	m	n/a
259.558	0.0905	519116	keystroke_e	e	n/a
259.7385	0.1495	519477	keystroke_p	p	n/a
259.8435	0.135	519687	keystroke_a	a	n/a
260.443	0.105	520886	keystroke_g	g	n/a
260.5035	0.1345	521007	keystroke_e	e	n/a
260.653	0.1495	521306	keystroke_Key.enter	Key.enter	n/a
260.808	13.452	521616	prompt	n/a	varying porter bless debt\n
261.7935	0.0905	523587	keystroke_v	v	n/a
262.0335	0.0305	524067	keystroke_a	a	n/a
262.1085	0.135	524217	keystroke_r	r	n/a
263.1725	0.121	526345	keystroke_y	y	n/a
263.2945	0.119	526589	keystroke_i	i	n/a
263.5185	0.135	527037	keystroke_m	m	n/a
263.6385	0.165	527277	keystroke_g	g	n/a
263.9235	0.1945	527847	keystroke_Key.space	Key.space	n/a
264.6735	0.1045	529347	keystroke_p	p	n/a
264.8535	0.15	529707	keystroke_o	o	n/a
264.9285	0.119	529857	keystroke_r	r	n/a
265.1525	0.1205	530305	keystroke_t	t	n/a
265.6785	0.12	531357	keystroke_Key.backspace	Key.backspace	n/a
265.9485	0.015	531897	keystroke_Key.backspace	Key.backspace	n/a
266.023	0.0455	532046	keystroke_Key.backspace	Key.backspace	n/a
266.143	0.0755	532286	keystroke_Key.backspace	Key.backspace	n/a
266.2935	0.074	532587	keystroke_Key.backspace	Key.backspace	n/a
266.458	0.075	532916	keystroke_Key.backspace	Key.backspace	n/a
266.593	0.0895	533186	keystroke_Key.backspace	Key.backspace	n/a
267.4495	0.104	534899	keystroke_n	n	n/a
267.4785	0.135	534957	keystroke_g	g	n/a
267.6285	0.135	535257	keystroke_Key.space	Key.space	n/a
268.288	0.0605	536576	keystroke_p	p	n/a
268.4395	0.179	536879	keystroke_o	o	n/a
268.559	0.1195	537118	keystroke_r	r	n/a
268.7685	0.12	537537	keystroke_t	t	n/a
268.9035	0.1645	537807	keystroke_e	e	n/a
269.053	0.075	538106	keystroke_t	t	n/a
269.4435	0.1345	538887	keystroke_Key.backspace	Key.backspace	n/a
269.503	0.136	539006	keystroke_r	r	n/a
269.6535	0.1795	539307	keystroke_Key.space	Key.space	n/a
270.7785	0.09	541557	keystroke_b	b	n/a
270.959	0.119	541918	keystroke_l	l	n/a
271.0335	0.1495	542067	keystroke_e	e	n/a
271.2585	0.105	542517	keystroke_s	s	n/a
271.4685	0.1195	542937	keystroke_s	s	n/a
272.549	0.149	545098	keystroke_Key.space	Key.space	n/a
273.5085	0.0155	547017	keystroke_d	d	n/a
273.584	0.1495	547168	keystroke_e	e	n/a
273.8395	0.0895	547679	keystroke_b	b	n/a
273.914	0.1045	547828	keystroke_t	t	n/a
274.138	0.12	548276	keystroke_Key.enter	Key.enter	n/a
274.263	9.267	548526	prompt	n/a	literacy scores sleeve magnitude\n
275.173	0.105	550346	keystroke_l	l	n/a
275.3685	0.105	550737	keystroke_i	i	n/a
275.578	0.12	551156	keystroke_t	t	n/a
275.7435	0.1955	551487	keystroke_e	e	n/a
275.8335	0.135	551667	keystroke_r	r	n/a
275.983	0.12	551966	keystroke_a	a	n/a
276.193	0.1045	552386	keystroke_c	c	n/a
276.569	0.15	553138	keystroke_y	y	n/a
276.7335	0.15	553467	keystroke_Key.space	Key.space	n/a
277.0035	0.15	554007	keystroke_s	s	n/a
277.1985	0.135	554397	keystroke_c	c	n/a
277.3785	0.0905	554757	keystroke_o	o	n/a
277.499	0.1195	554998	keystroke_r	r	n/a
277.6035	0.135	555207	keystroke_e	e	n/a
277.7085	0.225	555417	keystroke_s	s	n/a
277.919	0.1345	555838	keystroke_Key.space	Key.space	n/a
278.3535	0.105	556707	keystroke_s	s	n/a
278.5635	0.135	557127	keystroke_l	l	n/a
278.6835	0.1505	557367	keystroke_e	e	n/a
278.9085	0.1355	557817	keystroke_e	e	n/a
279.164	0.09	558328	keystroke_v	v	n/a
279.283	0.1655	558566	keystroke_e	e	n/a
280.0035	0.1505	560007	keystroke_Key.space	Key.space	n/a
280.5585	0.1055	561117	keystroke_m	m	n/a
280.619	0.135	561238	keystroke_a	a	n/a
280.8885	0.09	561777	keystroke_g	g	n/a
281.3085	0.1955	562617	keystroke_n	n	n/a
281.459	0.12	562918	keystroke_i	i	n/a
281.699	0.1195	563398	keystroke_t	t	n/a
281.999	0.1045	563998	keystroke_i	i	n/a
282.404	0.1645	564808	keystroke_Key.backspace	Key.backspace	n/a
282.719	0.149	565438	keystroke_u	u	n/a
282.853	0.09	565706	keystroke_d	d	n/a
283.0485	0.091	566097	keystroke_e	e	n/a
283.4085	0.12	566817	keystroke_Key.enter	Key.enter	n/a
283.534	16.2565	567068	prompt	n/a	pastor stakeholders rugs crossword\n
284.3385	0.105	568677	keystroke_p	p	n/a
284.3835	0.165	568767	keystroke_a	a	n/a
284.4735	0.1805	568947	keystroke_s	s	n/a
284.864	0.105	569728	keystroke_t	t	n/a
284.984	0.09	569968	keystroke_o	o	n/a
285.134	0.1495	570268	keystroke_Key.space	Key.space	n/a
285.8245	0.1045	571649	keystroke_Key.backspace	Key.backspace	n/a
285.945	0.1645	571890	keystroke_r	r	n/a
286.079	0.1205	572158	keystroke_Key.space	Key.space	n/a
286.4535	0.135	572907	keystroke_s	s	n/a
286.6335	0.1055	573267	keystroke_t	t	n/a
286.814	0.1195	573628	keystroke_a	a	n/a
287.0385	0.1205	574077	keystroke_k	k	n/a
287.1435	0.0905	574287	keystroke_e	e	n/a
287.5185	0.12	575037	keystroke_h	h	n/a
287.6535	0.06	575307	keystroke_o	o	n/a
287.848	0.1055	575696	keystroke_l	l	n/a
287.9235	0.09	575847	keystroke_d	d	n/a
288.1335	0.105	576267	keystroke_e	e	n/a
288.314	0.0745	576628	keystroke_r	r	n/a
288.5235	0.1205	577047	keystroke_s	s	n/a
288.703	0.1055	577406	keystroke_Key.space	Key.space	n/a
289.2435	0.0905	578487	keystroke_t	t	n/a
289.319	0.1045	578638	keystroke_u	u	n/a
290.0385	0.165	580077	keystroke_Key.backspace	Key.backspace	n/a
290.219	0.0135	580438	keystroke_Key.backspace	Key.backspace	n/a
290.339	0.1485	580678	keystroke_Key.backspace	Key.backspace	n/a
290.6835	0.105	581367	keystroke_r	r	n/a
290.7895	0.119	581579	keystroke_u	u	n/a
290.8635	0.105	581727	keystroke_g	g	n/a
290.9695	0.1785	581939	keystroke_s	s	n/a
291.118	0.1505	582236	keystroke_Key.space	Key.space	n/a
291.5085	0.136	583017	keystroke_c	c	n/a
291.7935	0.1205	583587	keystroke_o	o	n/a
291.854	0.15	583708	keystroke_r	r	n/a
292.1535	0.0895	584307	keystroke_Key.backspace	Key.backspace	n/a
292.304	0.12	584608	keystroke_Key.backspace	Key.backspace	n/a
292.529	0.15	585058	keystroke_r	r	n/a
292.649	0.1195	585298	keystroke_o	o	n/a
293.9825	0.181	587965	keystroke_Key.backspace	Key.backspace	n/a
294.209	0.06	588418	keystroke_Key.backspace	Key.backspace	n/a
294.329	0.075	588658	keystroke_Key.backspace	Key.backspace	n/a
294.478	0.076	588956	keystroke_Key.backspace	Key.backspace	n/a
294.6285	0.0755	589257	keystroke_Key.backspace	Key.backspace	n/a
294.779	0.075	589558	keystroke_Key.backspace	Key.backspace	n/a
294.929	0.0745	589858	keystroke_Key.backspace	Key.backspace	n/a
295.0785	0.1055	590157	keystroke_Key.backspace	Key.backspace	n/a
295.394	0.1195	590788	keystroke_Key.space	Key.space	n/a
296.0085	0.1055	592017	keystroke_r	r	n/a
296.069	0.1045	592138	keystroke_o	o	n/a
296.4735	0.1195	592947	keystroke_Key.backspace	Key.backspace	n/a
296.9535	0.09	593907	keystroke_u	u	n/a
297.0585	0.0905	594117	keystroke_g	g	n/a
297.1935	0.1055	594387	keystroke_s	s	n/a
297.6435	0.1355	595287	keystroke_Key.space	Key.space	n/a
298.0485	0.12	596097	keystroke_c	c	n/a
298.2585	0.1345	596517	keystroke_r	r	n/a
298.364	0.104	596728	keystroke_o	o	n/a
298.5285	0.0895	597057	keystroke_s	s	n/a
298.693	0.091	597386	keystroke_s	s	n/a
298.8735	0.1495	597747	keystroke_w	w	n/a
298.994	0.1345	597988	keystroke_o	o	n/a
299.1735	0.105	598347	keystroke_r	r	n/a
299.3835	0.135	598767	keystroke_d	d	n/a
299.639	0.15	599278	keystroke_Key.enter	Key.enter	n/a
299.7995	8.7955	599599	prompt	n/a	hydraulic necklace patch announce\n
300.884	0.12	601768	keystroke_h	h	n/a
300.9735	0.1205	601947	keystroke_y	y	n/a
301.109	0.15	602218	keystroke_d	d	n/a
301.4835	0.105	602967	keystroke_r	r	n/a
301.6185	0.12	603237	keystroke_a	a	n/a
302.2935	0.09	604587	keystroke_u	u	n/a
302.5185	0.0895	605037	keystroke_l	l	n/a
302.669	0.149	605338	keystroke_i	i	n/a
302.759	0.165	605518	keystroke_c	c	n/a
302.968	0.181	605936	keystroke_Key.space	Key.space	n/a
303.539	0.0895	607078	keystroke_n	n	n/a
303.614	0.075	607228	keystroke_e	e	n/a
303.7945	0.105	607589	keystroke_c	c	n/a
303.884	0.0895	607768	keystroke_k	k	n/a
304.1235	0.1205	608247	keystroke_l	l	n/a
304.199	0.12	608398	keystroke_a	a	n/a
304.4235	0.0905	608847	keystroke_c	c	n/a
304.4835	0.1355	608967	keystroke_e	e	n/a
304.709	0.105	609418	keystroke_Key.space	Key.space	n/a
305.0385	0.1205	610077	keystroke_p	p	n/a
305.113	0.151	610226	keystroke_a	a	n/a
305.369	0.12	610738	keystroke_t	t	n/a
305.579	0.1055	611158	keystroke_c	c	n/a
305.698	0.09	611396	keystroke_h	h	n/a
305.8035	0.151	611607	keystroke_Key.space	Key.space	n/a
306.1495	0.1345	612299	keystroke_a	a	n/a
306.4045	0.089	612809	keystroke_n	n	n/a
306.6285	0.12	613257	keystroke_n	n	n/a
306.8235	0.1795	613647	keystroke_o	o	n/a
307.1235	0.1955	614247	keystroke_u	u	n/a
307.259	0.135	614518	keystroke_n	n	n/a
307.4085	0.1345	614817	keystroke_c	c	n/a
307.5135	0.1345	615027	keystroke_e	e	n/a
307.7385	0.1045	615477	keystroke_Key.space	Key.space	n/a
308.218	0.12	616436	keystroke_Key.backspace	Key.backspace	n/a
308.489	0.105	616978	keystroke_Key.enter	Key.enter	n/a
308.6	10.2525	617200	prompt	n/a	cream bench bicycle counter\n
309.209	0.105	618418	keystroke_c	c	n/a
309.4195	0.134	618839	keystroke_r	r	n/a
309.5235	0.135	619047	keystroke_a	a	n/a
309.6285	0.1355	619257	keystroke_m	m	n/a
309.794	0.15	619588	keystroke_Key.space	Key.space	n/a
311.099	0.09	622198	keystroke_b	b	n/a
311.129	0.135	622258	keystroke_e	e	n/a
311.3845	0.1495	622769	keystroke_n	n	n/a
311.504	0.1495	623008	keystroke_h	h	n/a
311.909	0.105	623818	keystroke_Key.backspace	Key.backspace	n/a
312.5535	0.0905	625107	keystroke_c	c	n/a
312.6285	0.15	625257	keystroke_h	h	n/a
312.794	0.1645	625588	keystroke_Key.space	Key.space	n/a
313.694	0.15	627388	keystroke_b	b	n/a
313.769	0.18	627538	keystroke_i	i	n/a
313.889	0.15	627778	keystroke_c	c	n/a
314.099	0.105	628198	keystroke_y	y	n/a
315.1945	0.119	630389	keystroke_c	c	n/a
315.284	0.12	630568	keystroke_l	l	n/a
315.434	0.135	630868	keystroke_e	e	n/a
315.719	0.12	631438	keystroke_Key.space	Key.space	n/a
316.7085	0.136	633417	keystroke_c	c	n/a
316.889	0.15	633778	keystroke_o	o	n/a
317.1745	0.1805	634349	keystroke_u	u	n/a
317.2345	0.1665	634469	keystroke_n	n	n/a
317.431	0.1205	634862	keystroke_t	t	n/a
317.597	0.1655	635194	keystroke_e	e	n/a
317.672	0.152	635344	keystroke_r	r	n/a
318.004	0.106	636008	keystroke_Key.space	Key.space	n/a
318.443	0.12	636886	keystroke_Key.backspace	Key.backspace	n/a
318.729	0.121	637458	keystroke_Key.enter	Key.enter	n/a
318.856	8.1465	637712	prompt	n/a	comparable fits dance streams\n
320.0275	0.1355	640055	keystroke_c	c	n/a
320.148	0.091	640296	keystroke_o	o	n/a
320.3445	0.1055	640689	keystroke_m	m	n/a
320.5855	0.1055	641171	keystroke_p	p	n/a
320.6155	0.151	641231	keystroke_a	a	n/a
320.8425	0.121	641685	keystroke_r	r	n/a
320.9785	0.1055	641957	keystroke_a	a	n/a
321.8685	0.106	643737	keystroke_b	b	n/a
322.1405	0.1215	644281	keystroke_l	l	n/a
322.201	0.1655	644402	keystroke_e	e	n/a
322.3365	0.1815	644673	keystroke_Key.space	Key.space	n/a
323.137	0.121	646274	keystroke_f	f	n/a
323.3025	0.1665	646605	keystroke_i	i	n/a
323.3635	0.1665	646727	keystroke_t	t	n/a
323.5145	0.196	647029	keystroke_s	s	n/a
323.6955	0.136	647391	keystroke_Key.space	Key.space	n/a
324.1335	0.0905	648267	keystroke_d	d	n/a
324.209	0.1205	648418	keystroke_a	a	n/a
324.39	0.091	648780	keystroke_n	n	n/a
324.4505	0.12	648901	keystroke_c	c	n/a
324.556	0.165	649112	keystroke_e	e	n/a
324.691	0.1365	649382	keystroke_Key.space	Key.space	n/a
325.1145	0.136	650229	keystroke_s	s	n/a
325.311	0.09	650622	keystroke_t	t	n/a
325.522	0.1355	651044	keystroke_r	r	n/a
325.673	0.1205	651346	keystroke_e	e	n/a
325.9295	0.137	651859	keystroke_a	a	n/a
326.261	0.121	652522	keystroke_m	m	n/a
326.427	0.1215	652854	keystroke_s	s	n/a
326.9255	0.076	653851	keystroke_Key.enter	Key.enter	n/a
327.0065	12.5695	654013	prompt	n/a	peripherals invitations subaru suffered\n
328.027	0.1215	656054	keystroke_p	p	n/a
328.088	0.1965	656176	keystroke_e	e	n/a
328.1935	0.166	656387	keystroke_r	r	n/a
328.903	0.1065	657806	keystroke_i	i	n/a
329.16	0.0905	658320	keystroke_p	p	n/a
329.9445	0.091	659889	keystroke_h	h	n/a
330.0045	0.197	660009	keystroke_e	e	n/a
330.1415	0.1505	660283	keystroke_r	r	n/a
330.4275	0.1215	660855	keystroke_a	a	n/a
331.0165	0.105	662033	keystroke_l	l	n/a
331.077	0.1665	662154	keystroke_s	s	n/a
331.2885	0.1505	662577	keystroke_Key.space	Key.space	n/a
331.8015	0.1355	663603	keystroke_i	i	n/a
331.922	0.1355	663844	keystroke_n	n	n/a
332.0425	0.106	664085	keystroke_t	t	n/a
332.526	0.1055	665052	keystroke_Key.backspace	Key.backspace	n/a
332.677	0.1055	665354	keystroke_v	v	n/a
332.828	0.1355	665656	keystroke_i	i	n/a
332.9935	0.1215	665987	keystroke_t	t	n/a
333.7785	0.152	667557	keystroke_a	a	n/a
334.035	0.1055	668070	keystroke_t	t	n/a
334.156	0.257	668312	keystroke_i	i	n/a
334.277	0.075	668554	keystroke_o	o	n/a
334.6395	0.121	669279	keystroke_n	n	n/a
334.7755	0.1345	669551	keystroke_s	s	n/a
335.107	0.151	670214	keystroke_Key.space	Key.space	n/a
335.757	0.12	671514	keystroke_s	s	n/a
335.9375	0.12	671875	keystroke_u	u	n/a
336.1795	0.0745	672359	keystroke_b	b	n/a
336.2085	0.1665	672417	keystroke_a	a	n/a
336.4205	0.1195	672841	keystroke_r	r	n/a
336.813	0.1355	673626	keystroke_u	u	n/a
337.5975	0.151	675195	keystroke_Key.space	Key.space	n/a
337.9595	0.121	675919	keystroke_s	s	n/a
338.201	0.137	676402	keystroke_u	u	n/a
338.473	0.03	676946	keystroke_f	f	n/a
338.6245	0.0595	677249	keystroke_f	f	n/a
338.7445	0.136	677489	keystroke_e	e	n/a
338.85	0.1355	677700	keystroke_r	r	n/a
338.97	0.1365	677940	keystroke_e	e	n/a
339.167	0.136	678334	keystroke_d	d	n/a
339.4535	0.121	678907	keystroke_Key.enter	Key.enter	n/a
339.58	14.003	679160	prompt	n/a	experiencing divine retrieval professionals\n
340.6315	0.1505	681263	keystroke_e	e	n/a
340.8285	0.1345	681657	keystroke_x	x	n/a
340.979	0.1045	681958	keystroke_p	p	n/a
341.069	0.2415	682138	keystroke_e	e	n/a
341.2655	0.135	682531	keystroke_r	r	n/a
342.005	0.1195	684010	keystroke_i	i	n/a
342.05	0.136	684100	keystroke_e	e	n/a
342.2615	0.1205	684523	keystroke_n	n	n/a
342.412	0.136	684824	keystroke_c	c	n/a
342.5625	0.1515	685125	keystroke_e	e	n/a
343.046	0.1205	686092	keystroke_Key.backspace	Key.backspace	n/a
343.544	0.121	687088	keystroke_i	i	n/a
343.68	0.121	687360	keystroke_n	n	n/a
343.695	0.151	687390	keystroke_g	g	n/a
343.936	0.1355	687872	keystroke_Key.space	Key.space	n/a
344.2085	0.166	688417	keystroke_d	d	n/a
344.691	0.121	689382	keystroke_i	i	n/a
344.9625	0.1055	689925	keystroke_v	v	n/a
345.0375	0.121	690075	keystroke_i	i	n/a
345.823	0.0895	691646	keystroke_n	n	n/a
345.8685	0.15	691737	keystroke_e	e	n/a
345.959	0.18	691918	keystroke_Key.space	Key.space	n/a
346.351	0.1355	692702	keystroke_r	r	n/a
346.4715	0.1655	692943	keystroke_e	e	n/a
347.075	0.1355	694150	keystroke_t	t	n/a
347.347	0.1205	694694	keystroke_r	r	n/a
348.176	0.1375	696352	keystroke_i	i	n/a
348.2525	0.1355	696505	keystroke_e	e	n/a
348.8865	0.0895	697773	keystroke_v	v	n/a
349.0815	0.0765	698163	keystroke_a	a	n/a
349.324	0.1345	698648	keystroke_l	l	n/a
349.6695	0.1525	699339	keystroke_Key.space	Key.space	n/a
349.987	0.1505	699974	keystroke_p	p	n/a
350.275	0.1495	700550	keystroke_r	r	n/a
350.666	0.121	701332	keystroke_o	o	n/a
350.893	0.1355	701786	keystroke_f	f	n/a
351.0135	0.1355	702027	keystroke_e	e	n/a
351.2095	0.1065	702419	keystroke_s	s	n/a
351.3455	0.15	702691	keystroke_s	s	n/a
351.451	0.165	702902	keystroke_i	i	n/a
352.2355	0.1055	704471	keystroke_o	o	n/a
352.5365	0.121	705073	keystroke_n	n	n/a
352.642	0.152	705284	keystroke_a	a	n/a
353.1405	0.1215	706281	keystroke_l	l	n/a
353.202	0.165	706404	keystroke_s	s	n/a
353.4425	0.1355	706885	keystroke_Key.enter	Key.enter	n/a
353.5885	8.5435	707177	prompt	n/a	circular coverage matches carroll\n
354.408	0.1355	708816	keystroke_c	c	n/a
354.5885	0.1365	709177	keystroke_i	i	n/a
354.74	0.1055	709480	keystroke_r	r	n/a
354.981	0.1355	709962	keystroke_c	c	n/a
355.193	0.105	710386	keystroke_u	u	n/a
355.509	0.12	711018	keystroke_l	l	n/a
355.584	0.121	711168	keystroke_a	a	n/a
355.7205	0.1355	711441	keystroke_r	r	n/a
355.9765	0.1205	711953	keystroke_Key.space	Key.space	n/a
356.3235	0.1205	712647	keystroke_c	c	n/a
356.4295	0.105	712859	keystroke_o	o	n/a
356.6545	0.0915	713309	keystroke_v	v	n/a
356.806	0.1515	713612	keystroke_e	e	n/a
356.8965	0.1355	713793	keystroke_r	r	n/a
357.0625	0.151	714125	keystroke_a	a	n/a
357.334	0.0905	714668	keystroke_g	g	n/a
357.44	0.1045	714880	keystroke_e	e	n/a
357.712	0.1345	715424	keystroke_Key.space	Key.space	n/a
358.284	0.121	716568	keystroke_m	m	n/a
358.3595	0.121	716719	keystroke_a	a	n/a
358.5705	0.1065	717141	keystroke_t	t	n/a
358.7975	0.105	717595	keystroke_c	c	n/a
358.9475	0.121	717895	keystroke_h	h	n/a
359.144	0.151	718288	keystroke_e	e	n/a
359.446	0.105	718892	keystroke_s	s	n/a
359.6725	0.12	719345	keystroke_Key.space	Key.space	n/a
360.079	0.077	720158	keystroke_c	c	n/a
360.1855	0.105	720371	keystroke_a	a	n/a
360.411	0.106	720822	keystroke_r	r	n/a
360.591	0.092	721182	keystroke_r	r	n/a
361.196	0.0905	722392	keystroke_o	o	n/a
361.5565	0.06	723113	keystroke_l	l	n/a
361.7085	0.0905	723417	keystroke_l	l	n/a
361.9795	0.1495	723959	keystroke_Key.enter	Key.enter	n/a
362.1385	9.5415	724277	prompt	n/a	decreased bills lift brochure\n
362.914	0.1515	725828	keystroke_d	d	n/a
363.05	0.1205	726100	keystroke_e	e	n/a
363.3525	0.1055	726705	keystroke_c	c	n/a
363.668	0.0915	727336	keystroke_r	r	n/a
363.698	0.151	727396	keystroke_e	e	n/a
363.9395	0.1955	727879	keystroke_a	a	n/a
364.0445	0.2115	728089	keystroke_s	s	n/a
364.271	0.1365	728542	keystroke_e	e	n/a
364.453	0.1505	728906	keystroke_d	d	n/a
364.618	0.151	729236	keystroke_Key.space	Key.space	n/a
365.1605	0.091	730321	keystroke_b	b	n/a
365.358	0.1205	730716	keystroke_i	i	n/a
365.5835	0.0605	731167	keystroke_l	l	n/a
365.719	0.105	731438	keystroke_l	l	n/a
365.7495	0.181	731499	keystroke_s	s	n/a
365.8695	0.1215	731739	keystroke_Key.space	Key.space	n/a
366.322	0.1065	732644	keystroke_b	b	n/a
366.382	0.1365	732764	keystroke_i	i	n/a
367.4055	0.046	734811	keystroke_Key.backspace	Key.backspace	n/a
367.527	0.0595	735054	keystroke_Key.backspace	Key.backspace	n/a
367.662	0.0755	735324	keystroke_Key.backspace	Key.backspace	n/a
368.1265	0.135	736253	keystroke_Key.space	Key.space	n/a
368.3075	0.088	736615	keystroke_l	l	n/a
368.5005	0.106	737001	keystroke_i	i	n/a
368.666	0.0755	737332	keystroke_f	f	n/a
368.8465	0.121	737693	keystroke_t	t	n/a
369.011	0.12	738022	keystroke_Key.space	Key.space	n/a
369.8655	0.089	739731	keystroke_b	b	n/a
370.15	0.1055	740300	keystroke_r	r	n/a
370.449	0.1055	740898	keystroke_o	o	n/a
370.8835	0.105	741767	keystroke_c	c	n/a
371.0035	0.1055	742007	keystroke_h	h	n/a
371.184	0.1505	742368	keystroke_u	u	n/a
371.274	0.1185	742548	keystroke_r	r	n/a
371.349	0.1335	742698	keystroke_e	e	n/a
371.5275	0.1495	743055	keystroke_Key.enter	Key.enter	n/a
371.684	10.0135	743368	prompt	n/a	instructors blackjack space decision\n
372.5915	0.1505	745183	keystroke_i	i	n/a
372.727	0.151	745454	keystroke_n	n	n/a
372.863	0.1475	745726	keystroke_s	s	n/a
373.0255	0.105	746051	keystroke_t	t	n/a
373.2665	0.106	746533	keystroke_r	r	n/a
373.4155	0.135	746831	keystroke_u	u	n/a
373.5955	0.1205	747191	keystroke_c	c	n/a
373.852	0.1185	747704	keystroke_t	t	n/a
374.51	0.105	749020	keystroke_o	o	n/a
374.555	0.1505	749110	keystroke_r	r	n/a
374.69	0.1655	749380	keystroke_s	s	n/a
374.9735	0.121	749947	keystroke_Key.space	Key.space	n/a
375.7845	0.105	751569	keystroke_b	b	n/a
376.1885	0.135	752377	keystroke_l	l	n/a
376.2485	0.1205	752497	keystroke_a	a	n/a
376.4275	0.12	752855	keystroke_c	c	n/a
376.5325	0.1055	753065	keystroke_k	k	n/a
377.192	0.0755	754384	keystroke_j	j	n/a
377.207	0.121	754414	keystroke_a	a	n/a
377.3725	0.149	754745	keystroke_c	c	n/a
377.7625	0.12	755525	keystroke_k	k	n/a
378.227	0.135	756454	keystroke_Key.space	Key.space	n/a
378.601	0.1355	757202	keystroke_s	s	n/a
378.7065	0.105	757413	keystroke_p	p	n/a
378.8415	0.1335	757683	keystroke_a	a	n/a
379.035	0.1205	758070	keystroke_c	c	n/a
379.1255	0.18	758251	keystroke_e	e	n/a
379.3355	0.134	758671	keystroke_Key.space	Key.space	n/a
379.5895	0.15	759179	keystroke_d	d	n/a
379.709	0.136	759418	keystroke_e	e	n/a
380.564	0.12	761128	keystroke_c	c	n/a
380.669	0.1055	761338	keystroke_i	i	n/a
380.8655	0.1195	761731	keystroke_s	s	n/a
380.954	0.195	761908	keystroke_i	i	n/a
381.059	0.1505	762118	keystroke_o	o	n/a
381.3005	0.1045	762601	keystroke_n	n	n/a
381.568	0.12	763136	keystroke_Key.enter	Key.enter	n/a
381.7015	11.3475	763403	prompt	n/a	transportation plains checks somewhat\n
382.9185	0.119	765837	keystroke_t	t	n/a
383.142	0.121	766284	keystroke_r	r	n/a
383.247	0.1365	766494	keystroke_a	a	n/a
383.741	0.0905	767482	keystroke_n	n	n/a
383.8165	0.105	767633	keystroke_s	s	n/a
384.116	0.105	768232	keystroke_p	p	n/a
384.2955	0.1355	768591	keystroke_o	o	n/a
384.386	0.134	768772	keystroke_r	r	n/a
384.565	0.1205	769130	keystroke_t	t	n/a
384.7755	0.121	769551	keystroke_a	a	n/a
385.015	0.105	770030	keystroke_t	t	n/a
385.105	0.135	770210	keystroke_i	i	n/a
385.1955	0.1495	770391	keystroke_o	o	n/a
385.33	0.135	770660	keystroke_n	n	n/a
385.9745	0.119	771949	keystroke_Key.space	Key.space	n/a
387.818	0.1345	775636	keystroke_p	p	n/a
387.908	0.134	775816	keystroke_l	l	n/a
388.0115	0.15	776023	keystroke_a	a	n/a
388.882	0.135	777764	keystroke_i	i	n/a
389.0015	0.104	778003	keystroke_n	n	n/a
389.0755	0.2105	778151	keystroke_s	s	n/a
389.24	0.166	778480	keystroke_Key.space	Key.space	n/a
389.6	0.1195	779200	keystroke_c	c	n/a
389.81	0.1045	779620	keystroke_h	h	n/a
389.9005	0.1355	779801	keystroke_e	e	n/a
390.229	0.12	780458	keystroke_k	k	n/a
390.335	0.164	780670	keystroke_s	s	n/a
390.5585	0.1505	781117	keystroke_Key.space	Key.space	n/a
391.0385	0.1195	782077	keystroke_s	s	n/a
391.204	0.104	782408	keystroke_o	o	n/a
391.4135	0.164	782827	keystroke_m	m	n/a
391.519	0.1035	783038	keystroke_e	e	n/a
392.013	0.119	784026	keystroke_w	w	n/a
392.117	0.1055	784234	keystroke_h	h	n/a
392.2825	0.1205	784565	keystroke_a	a	n/a
392.523	0.1185	785046	keystroke_t	t	n/a
392.9115	0.136	785823	keystroke_Key.enter	Key.enter	n/a
393.0525	9.452	786105	prompt	n/a	cells stamps holocaust texture\n
394.0365	0.15	788073	keystroke_c	c	n/a
394.171	0.121	788342	keystroke_e	e	n/a
394.336	0.0755	788672	keystroke_l	l	n/a
394.5015	0.1195	789003	keystroke_l	l	n/a
394.592	0.148	789184	keystroke_s	s	n/a
394.725	0.135	789450	keystroke_Key.space	Key.space	n/a
395.0855	0.15	790171	keystroke_s	s	n/a
395.265	0.106	790530	keystroke_t	t	n/a
395.461	0.1055	790922	keystroke_a	a	n/a
395.7015	0.2225	791403	keystroke_m	m	n/a
395.88	0.1495	791760	keystroke_p	p	n/a
396.0145	0.105	792029	keystroke_s	s	n/a
396.224	0.1345	792448	keystroke_Key.space	Key.space	n/a
397.2425	0.1035	794485	keystroke_h	h	n/a
397.3775	0.1195	794755	keystroke_o	o	n/a
397.602	0.0745	795204	keystroke_l	l	n/a
397.766	0.1495	795532	keystroke_o	o	n/a
398.051	0.09	796102	keystroke_c	c	n/a
398.156	0.105	796312	keystroke_a	a	n/a
398.846	0.1495	797692	keystroke_u	u	n/a
398.9505	0.1355	797901	keystroke_s	s	n/a
399.2505	0.1045	798501	keystroke_t	t	n/a
399.7305	0.105	799461	keystroke_Key.space	Key.space	n/a
400.106	0.059	800212	keystroke_t	t	n/a
400.1505	0.121	800301	keystroke_e	e	n/a
400.839	0.1205	801678	keystroke_x	x	n/a
401.5135	0.1055	803027	keystroke_t	t	n/a
401.814	0.149	803628	keystroke_u	u	n/a
401.903	0.105	803806	keystroke_r	r	n/a
401.964	0.134	803928	keystroke_e	e	n/a
402.383	0.119	804766	keystroke_Key.enter	Key.enter	n/a
402.5125	12.5335	805025	prompt	n/a	negotiations ranger breeding shake\n
403.1915	0.106	806383	keystroke_r	r	n/a
403.2375	0.1335	806475	keystroke_e	e	n/a
403.7925	0.133	807585	keystroke_n	n	n/a
404.151	0.0905	808302	keystroke_Key.backspace	Key.backspace	n/a
404.301	0.0605	808602	keystroke_Key.backspace	Key.backspace	n/a
404.42	0.1055	808840	keystroke_Key.backspace	Key.backspace	n/a
404.99	0.09	809980	keystroke_n	n	n/a
405.05	0.1205	810100	keystroke_e	e	n/a
405.724	0.091	811448	keystroke_g	g	n/a
405.8445	0.135	811689	keystroke_o	o	n/a
405.964	0.1355	811928	keystroke_t	t	n/a
406.6985	0.09	813397	keystroke_i	i	n/a
407.0295	0.133	814059	keystroke_a	a	n/a
407.942	0.12	815884	keystroke_t	t	n/a
408.033	0.1795	816066	keystroke_i	i	n/a
408.1225	0.1495	816245	keystroke_o	o	n/a
408.2875	0.1655	816575	keystroke_n	n	n/a
408.3925	0.1945	816785	keystroke_s	s	n/a
408.8115	0.165	817623	keystroke_Key.space	Key.space	n/a
409.4105	0.1195	818821	keystroke_r	r	n/a
409.545	0.106	819090	keystroke_a	a	n/a
409.74	0.135	819480	keystroke_n	n	n/a
409.86	0.0915	819720	keystroke_g	g	n/a
409.995	0.1955	819990	keystroke_e	e	n/a
410.1	0.1655	820200	keystroke_r	r	n/a
410.2795	0.1655	820559	keystroke_Key.space	Key.space	n/a
411.2385	0.135	822477	keystroke_b	b	n/a
411.2985	0.135	822597	keystroke_r	r	n/a
411.4185	0.0305	822837	keystroke_e	e	n/a
411.5075	0.1355	823015	keystroke_e	e	n/a
411.7175	0.1355	823435	keystroke_d	d	n/a
412.004	0.1485	824008	keystroke_i	i	n/a
412.2135	0.1345	824427	keystroke_n	n	n/a
412.258	0.1345	824516	keystroke_g	g	n/a
412.4835	0.118	824967	keystroke_Key.space	Key.space	n/a
412.9015	0.134	825803	keystroke_s	s	n/a
413.231	0.104	826462	keystroke_h	h	n/a
413.291	0.1355	826582	keystroke_a	a	n/a
413.6205	0.12	827241	keystroke_k	k	n/a
413.6805	0.1805	827361	keystroke_e	e	n/a
413.8305	0.12	827661	keystroke_Key.space	Key.space	n/a
414.609	0.1355	829218	keystroke_Key.backspace	Key.backspace	n/a
414.894	0.15	829788	keystroke_Key.enter	Key.enter	n/a
415.0515	9.6425	830103	prompt	n/a	entrance husband administrator invite\n
416.137	0.135	832274	keystroke_e	e	n/a
416.2265	0.1205	832453	keystroke_n	n	n/a
416.422	0.09	832844	keystroke_t	t	n/a
416.6315	0.089	833263	keystroke_r	r	n/a
416.751	0.075	833502	keystroke_a	a	n/a
416.856	0.1205	833712	keystroke_n	n	n/a
417.0055	0.0755	834011	keystroke_c	c	n/a
417.065	0.151	834130	keystroke_e	e	n/a
417.29	0.1205	834580	keystroke_Key.space	Key.space	n/a
418.0385	0.136	836077	keystroke_h	h	n/a
418.084	0.1345	836168	keystroke_u	u	n/a
418.1285	0.135	836257	keystroke_s	s	n/a
418.369	0.1045	836738	keystroke_b	b	n/a
418.444	0.149	836888	keystroke_a	a	n/a
418.608	0.1355	837216	keystroke_n	n	n/a
418.7135	0.1655	837427	keystroke_d	d	n/a
418.8635	0.164	837727	keystroke_Key.space	Key.space	n/a
419.3285	0.1195	838657	keystroke_a	a	n/a
419.463	0.15	838926	keystroke_d	d	n/a
419.658	0.1795	839316	keystroke_m	m	n/a
419.8075	0.195	839615	keystroke_i	i	n/a
419.9875	0.21	839975	keystroke_n	n	n/a
420.123	0.1785	840246	keystroke_i	i	n/a
420.182	0.1955	840364	keystroke_s	s	n/a
420.677	0.106	841354	keystroke_t	t	n/a
420.9475	0.178	841895	keystroke_r	r	n/a
421.097	0.1505	842194	keystroke_a	a	n/a
421.906	0.12	843812	keystroke_t	t	n/a
422.1305	0.119	844261	keystroke_o	o	n/a
422.145	0.1655	844290	keystroke_r	r	n/a
422.685	0.089	845370	keystroke_Key.space	Key.space	n/a
423.2385	0.18	846477	keystroke_i	i	n/a
423.3745	0.134	846749	keystroke_n	n	n/a
423.6435	0.12	847287	keystroke_v	v	n/a
423.733	0.15	847466	keystroke_i	i	n/a
423.9285	0.105	847857	keystroke_t	t	n/a
424.363	0.15	848726	keystroke_e	e	n/a
424.543	0.149	849086	keystroke_Key.enter	Key.enter	n/a
424.6995	5.5825	849399	prompt	n/a	chen kills trout provider\n
425.3215	0.106	850643	keystroke_c	c	n/a
425.5465	0.076	851093	keystroke_h	h	n/a
425.637	0.104	851274	keystroke_e	e	n/a
425.771	0.12	851542	keystroke_n	n	n/a
425.906	0.12	851812	keystroke_Key.space	Key.space	n/a
426.3255	0.09	852651	keystroke_k	k	n/a
426.386	0.1195	852772	keystroke_i	i	n/a
426.5955	0.105	853191	keystroke_l	l	n/a
426.745	0.1355	853490	keystroke_l	l	n/a
426.865	0.1505	853730	keystroke_s	s	n/a
426.9855	0.12	853971	keystroke_Key.space	Key.space	n/a
427.389	0.136	854778	keystroke_t	t	n/a
427.6145	0.105	855229	keystroke_r	r	n/a
427.704	0.105	855408	keystroke_o	o	n/a
427.959	0.1355	855918	keystroke_u	u	n/a
428.064	0.164	856128	keystroke_t	t	n/a
428.2425	0.1055	856485	keystroke_Key.space	Key.space	n/a
428.723	0.1195	857446	keystroke_p	p	n/a
428.8275	0.135	857655	keystroke_r	r	n/a
428.948	0.135	857896	keystroke_o	o	n/a
429.247	0.1045	858494	keystroke_v	v	n/a
429.3365	0.15	858673	keystroke_i	i	n/a
429.532	0.0745	859064	keystroke_d	d	n/a
429.712	0.104	859424	keystroke_e	e	n/a
429.906	0.135	859812	keystroke_d	d	n/a
430.116	0.1645	860232	keystroke_Key.enter	Key.enter	n/a
430.286	6.453	860572	prompt	n/a	hood loading wrote admitted\n
431.33	0.105	862660	keystroke_h	h	n/a
431.4795	0.09	862959	keystroke_o	o	n/a
431.63	0.1345	863260	keystroke_o	o	n/a
431.7205	0.2085	863441	keystroke_d	d	n/a
431.8835	0.105	863767	keystroke_Key.space	Key.space	n/a
432.3635	0.106	864727	keystroke_l	l	n/a
432.5585	0.136	865117	keystroke_o	o	n/a
432.6335	0.1645	865267	keystroke_a	a	n/a
432.724	0.134	865448	keystroke_d	d	n/a
432.903	0.15	865806	keystroke_i	i	n/a
433.054	0.1335	866108	keystroke_n	n	n/a
433.1125	0.1345	866225	keystroke_g	g	n/a
433.321	0.166	866642	keystroke_Key.space	Key.space	n/a
433.921	0.18	867842	keystroke_w	w	n/a
434.3405	0.1205	868681	keystroke_r	r	n/a
434.4155	0.135	868831	keystroke_o	o	n/a
434.5795	0.091	869159	keystroke_t	t	n/a
434.685	0.1645	869370	keystroke_e	e	n/a
434.9245	0.135	869849	keystroke_Key.space	Key.space	n/a
435.2995	0.15	870599	keystroke_a	a	n/a
435.4195	0.121	870839	keystroke_d	d	n/a
435.645	0.1505	871290	keystroke_m	m	n/a
435.735	0.165	871470	keystroke_i	i	n/a
435.93	0.06	871860	keystroke_t	t	n/a
436.109	0.0605	872218	keystroke_t	t	n/a
436.199	0.104	872398	keystroke_e	e	n/a
436.3935	0.1195	872787	keystroke_d	d	n/a
436.588	0.149	873176	keystroke_Key.enter	Key.enter	n/a
436.743	12.3875	873486	prompt	n/a	conclusions columnists reminder demonstrate\n
437.4575	0.134	874915	keystroke_c	c	n/a
437.577	0.1505	875154	keystroke_o	o	n/a
437.847	0.105	875694	keystroke_n	n	n/a
438.057	0.1345	876114	keystroke_c	c	n/a
438.1765	0.1345	876353	keystroke_l	l	n/a
438.431	0.1645	876862	keystroke_u	u	n/a
438.5805	0.135	877161	keystroke_s	s	n/a
438.7455	0.15	877491	keystroke_i	i	n/a
438.7905	0.165	877581	keystroke_o	o	n/a
438.9255	0.165	877851	keystroke_n	n	n/a
439.0755	0.12	878151	keystroke_g	g	n/a
439.54	0.1645	879080	keystroke_Key.backspace	Key.backspace	n/a
439.6605	0.148	879321	keystroke_s	s	n/a
439.7935	0.166	879587	keystroke_Key.space	Key.space	n/a
440.3335	0.15	880667	keystroke_c	c	n/a
440.4985	0.105	880997	keystroke_o	o	n/a
440.6935	0.1195	881387	keystroke_l	l	n/a
440.948	0.1355	881896	keystroke_u	u	n/a
441.068	0.12	882136	keystroke_m	m	n/a
441.3225	0.21	882645	keystroke_n	n	n/a
441.4575	0.164	882915	keystroke_i	i	n/a
441.607	0.1645	883214	keystroke_s	s	n/a
441.7865	0.12	883573	keystroke_t	t	n/a
441.967	0.1045	883934	keystroke_s	s	n/a
442.252	0.1195	884504	keystroke_Key.space	Key.space	n/a
443.016	0.09	886032	keystroke_r	r	n/a
443.031	0.135	886062	keystroke_e	e	n/a
443.271	0.119	886542	keystroke_m	m	n/a
443.3605	0.15	886721	keystroke_i	i	n/a
443.555	0.137	887110	keystroke_n	n	n/a
443.6755	0.09	887351	keystroke_d	d	n/a
444.095	0.1195	888190	keystroke_r	r	n/a
444.589	0.12	889178	keystroke_Key.backspace	Key.backspace	n/a
444.679	0.1645	889358	keystroke_e	e	n/a
444.739	0.1655	889478	keystroke_r	r	n/a
444.9055	0.148	889811	keystroke_Key.space	Key.space	n/a
446.461	0.045	892922	keystroke_d	d	n/a
446.611	0.1045	893222	keystroke_e	e	n/a
446.761	0.135	893522	keystroke_m	m	n/a
446.821	0.2245	893642	keystroke_o	o	n/a
447.121	0.135	894242	keystroke_n	n	n/a
447.3315	0.1335	894663	keystroke_s	s	n/a
447.84	0.1045	895680	keystroke_t	t	n/a
448.1695	0.12	896339	keystroke_r	r	n/a
448.365	0.104	896730	keystroke_a	a	n/a
448.604	0.136	897208	keystroke_t	t	n/a
448.742	0.103	897484	keystroke_e	e	n/a
448.9935	0.135	897987	keystroke_Key.enter	Key.enter	n/a
449.1355	11.609	898271	prompt	n/a	temporarily grenada fusion mapping\n
449.8335	0.088	899667	keystroke_t	t	n/a
449.9365	0.106	899873	keystroke_e	e	n/a
450.1465	0.1805	900293	keystroke_m	m	n/a
450.2975	0.1795	900595	keystroke_p	p	n/a
450.312	0.0295	900624	keystroke_o	o	n/a
451.046	0.1195	902092	keystroke_Key.backspace	Key.backspace	n/a
451.6155	0.0595	903231	keystroke_o	o	n/a
452.35	0.119	904700	keystroke_r	r	n/a
452.4385	0.121	904877	keystroke_a	a	n/a
452.6785	0.105	905357	keystroke_r	r	n/a
452.889	0.164	905778	keystroke_i	i	n/a
453.1875	0.1205	906375	keystroke_l	l	n/a
453.428	0.12	906856	keystroke_y	y	n/a
453.998	0.1335	907996	keystroke_Key.space	Key.space	n/a
454.657	0.135	909314	keystroke_g	g	n/a
454.793	0.1485	909586	keystroke_r	r	n/a
454.9265	0.0295	909853	keystroke_e	e	n/a
455.6305	0.03	911261	keystroke_n	n	n/a
455.6905	0.1495	911381	keystroke_a	a	n/a
455.915	0.15	911830	keystroke_d	d	n/a
456.05	0.1655	912100	keystroke_a	a	n/a
456.29	0.1795	912580	keystroke_Key.space	Key.space	n/a
457.114	0.1205	914228	keystroke_f	f	n/a
457.429	0.1195	914858	keystroke_u	u	n/a
457.623	0.1205	915246	keystroke_s	s	n/a
457.6835	0.1645	915367	keystroke_i	i	n/a
457.7585	0.15	915517	keystroke_o	o	n/a
457.8925	0.1495	915785	keystroke_n	n	n/a
458.6715	0.1205	917343	keystroke_Key.space	Key.space	n/a
458.942	0.1195	917884	keystroke_m	m	n/a
459.0315	0.15	918063	keystroke_a	a	n/a
459.391	0.09	918782	keystroke_p	p	n/a
459.5705	0.1055	919141	keystroke_p	p	n/a
460.2905	0.12	920581	keystroke_i	i	n/a
460.4245	0.031	920849	keystroke_n	n	n/a
460.44	0.045	920880	keystroke_g	g	n/a
460.59	0.149	921180	keystroke_Key.enter	Key.enter	n/a
460.7495	6.869	921499	prompt	n/a	apparel optical women saver\n
461.3995	0.105	922799	keystroke_a	a	n/a
461.579	0.12	923158	keystroke_p	p	n/a
461.744	0.12	923488	keystroke_p	p	n/a
461.9835	0.15	923967	keystroke_a	a	n/a
462.5975	0.0745	925195	keystroke_r	r	n/a
462.642	0.15	925284	keystroke_e	e	n/a
463.182	0.15	926364	keystroke_l	l	n/a
463.3165	0.1055	926633	keystroke_Key.space	Key.space	n/a
464.096	0.1795	928192	keystroke_o	o	n/a
464.1555	0.15	928311	keystroke_p	p	n/a
464.5	0.0905	929000	keystroke_t	t	n/a
464.5755	0.12	929151	keystroke_i	i	n/a
464.7555	0.105	929511	keystroke_c	c	n/a
464.8745	0.091	929749	keystroke_a	a	n/a
464.9805	0.134	929961	keystroke_l	l	n/a
465.159	0.1655	930318	keystroke_Key.space	Key.space	n/a
465.653	0.136	931306	keystroke_w	w	n/a
465.804	0.09	931608	keystroke_o	o	n/a
466.0885	0.1195	932177	keystroke_m	m	n/a
466.2535	0.1345	932507	keystroke_e	e	n/a
466.3435	0.1345	932687	keystroke_n	n	n/a
466.479	0.1635	932958	keystroke_Key.space	Key.space	n/a
466.793	0.15	933586	keystroke_s	s	n/a
466.8825	0.12	933765	keystroke_a	a	n/a
467.122	0.076	934244	keystroke_v	v	n/a
467.242	0.1955	934484	keystroke_e	e	n/a
467.3625	0.135	934725	keystroke_r	r	n/a
467.467	0.15	934934	keystroke_Key.enter	Key.enter	n/a
467.622	11.01	935244	prompt	n/a	oval demonstrated booking agreement\n
468.576	0.1205	937152	keystroke_o	o	n/a
468.6355	0.105	937271	keystroke_v	v	n/a
468.831	0.09	937662	keystroke_a	a	n/a
468.951	0.12	937902	keystroke_l	l	n/a
469.1155	0.15	938231	keystroke_Key.space	Key.space	n/a
469.49	0.0155	938980	keystroke_d	d	n/a
469.775	0.1045	939550	keystroke_e	e	n/a
469.9545	0.165	939909	keystroke_m	m	n/a
470.06	0.1645	940120	keystroke_o	o	n/a
470.5985	0.135	941197	keystroke_n	n	n/a
470.8085	0.1055	941617	keystroke_s	s	n/a
471.198	0.0745	942396	keystroke_t	t	n/a
471.4225	0.1505	942845	keystroke_r	r	n/a
471.6325	0.105	943265	keystroke_a	a	n/a
472.1725	0.0745	944345	keystroke_t	t	n/a
472.2765	0.135	944553	keystroke_e	e	n/a
472.532	0.1195	945064	keystroke_d	d	n/a
472.7115	0.1495	945423	keystroke_Key.space	Key.space	n/a
473.4305	0.09	946861	keystroke_b	b	n/a
473.565	0.09	947130	keystroke_o	o	n/a
473.73	0.1055	947460	keystroke_o	o	n/a
473.85	0.135	947700	keystroke_k	k	n/a
473.97	0.15	947940	keystroke_i	i	n/a
474.135	0.165	948270	keystroke_n	n	n/a
474.255	0.165	948510	keystroke_g	g	n/a
474.4345	0.135	948869	keystroke_Key.space	Key.space	n/a
474.9435	0.15	949887	keystroke_a	a	n/a
475.4685	0.0755	950937	keystroke_g	g	n/a
475.6485	0.2395	951297	keystroke_e	e	n/a
476.338	0.119	952676	keystroke_Key.backspace	Key.backspace	n/a
476.4425	0.1345	952885	keystroke_r	r	n/a
476.533	0.0755	953066	keystroke_e	e	n/a
476.638	0.1495	953276	keystroke_e	e	n/a
476.937	0.1195	953874	keystroke_e	e	n/a
477.3265	0.105	954653	keystroke_Key.backspace	Key.backspace	n/a
477.8805	0.1055	955761	keystroke_m	m	n/a
477.9415	0.1495	955883	keystroke_e	e	n/a
478.1055	0.0905	956211	keystroke_n	n	n/a
478.211	0.0895	956422	keystroke_t	t	n/a
478.5255	0.104	957051	keystroke_Key.enter	Key.enter	n/a
478.636	9.2865	957272	prompt	n/a	camel call heard brooklyn\n
479.7835	0.1205	959567	keystroke_c	c	n/a
479.9345	0.134	959869	keystroke_a	a	n/a
480.054	0.1045	960108	keystroke_m	m	n/a
480.3995	0.104	960799	keystroke_e	e	n/a
480.6835	0.105	961367	keystroke_l	l	n/a
480.7735	0.15	961547	keystroke_Key.space	Key.space	n/a
481.1475	0.091	962295	keystroke_c	c	n/a
481.2525	0.1205	962505	keystroke_a	a	n/a
481.357	0.075	962714	keystroke_l	l	n/a
481.508	0.1345	963016	keystroke_l	l	n/a
481.6125	0.1645	963225	keystroke_Key.space	Key.space	n/a
482.6915	0.119	965383	keystroke_h	h	n/a
482.7515	0.134	965503	keystroke_e	e	n/a
482.8255	0.165	965651	keystroke_a	a	n/a
483.0055	0.195	966011	keystroke_r	r	n/a
483.32	0.1805	966640	keystroke_d	d	n/a
483.5155	0.1645	967031	keystroke_Key.space	Key.space	n/a
484.145	0.105	968290	keystroke_n	n	n/a
484.534	0.135	969068	keystroke_Key.backspace	Key.backspace	n/a
484.6845	0.09	969369	keystroke_b	b	n/a
484.909	0.1045	969818	keystroke_r	r	n/a
485.074	0.1345	970148	keystroke_r	r	n/a
485.943	0.1205	971886	keystroke_Key.backspace	Key.backspace	n/a
486.229	0.104	972458	keystroke_o	o	n/a
486.3775	0.164	972755	keystroke_o	o	n/a
486.4825	0.1495	972965	keystroke_k	k	n/a
486.6915	0.151	973383	keystroke_l	l	n/a
487.4415	0.135	974883	keystroke_y	y	n/a
487.5165	0.105	975033	keystroke_n	n	n/a
487.801	0.12	975602	keystroke_Key.enter	Key.enter	n/a
487.927	10.0235	975854	prompt	n/a	quarterly tomatoes hygiene guru\n
489.4195	0.1045	978839	keystroke_q	q	n/a
489.5095	0.105	979019	keystroke_u	u	n/a
489.629	0.165	979258	keystroke_a	a	n/a
489.9285	0.135	979857	keystroke_r	r	n/a
490.1685	0.12	980337	keystroke_t	t	n/a
490.3335	0.165	980667	keystroke_e	e	n/a
490.603	0.135	981206	keystroke_r	r	n/a
491.2025	0.165	982405	keystroke_l	l	n/a
491.4275	0.12	982855	keystroke_y	y	n/a
491.6815	0.106	983363	keystroke_Key.space	Key.space	n/a
492.312	0.119	984624	keystroke_t	t	n/a
492.3725	0.104	984745	keystroke_o	o	n/a
492.641	0.1205	985282	keystroke_m	m	n/a
492.687	0.119	985374	keystroke_a	a	n/a
492.9855	0.135	985971	keystroke_t	t	n/a
493.001	0.1495	986002	keystroke_o	o	n/a
493.165	0.225	986330	keystroke_e	e	n/a
493.345	0.1805	986690	keystroke_s	s	n/a
493.54	0.15	987080	keystroke_Key.space	Key.space	n/a
494.454	0.1355	988908	keystroke_h	h	n/a
494.634	0.1205	989268	keystroke_y	y	n/a
494.934	0.134	989868	keystroke_g	g	n/a
495.0235	0.1645	990047	keystroke_i	i	n/a
495.3385	0.12	990677	keystroke_e	e	n/a
495.817	0.121	991634	keystroke_n	n	n/a
495.907	0.121	991814	keystroke_e	e	n/a
496.1475	0.12	992295	keystroke_Key.space	Key.space	n/a
496.612	0.0745	993224	keystroke_g	g	n/a
496.7015	0.1355	993403	keystroke_u	u	n/a
496.807	0.0905	993614	keystroke_t	t	n/a
497.1655	0.1205	994331	keystroke_Key.backspace	Key.backspace	n/a
497.391	0.12	994782	keystroke_r	r	n/a
497.526	0.1205	995052	keystroke_u	u	n/a
497.811	0.135	995622	keystroke_Key.enter	Key.enter	n/a
497.9615	8.004	995923	prompt	n/a	pools rocks theater ghost\n
498.98	0.075	997960	keystroke_p	p	n/a
499.175	0.045	998350	keystroke_o	o	n/a
499.2795	0.1055	998559	keystroke_o	o	n/a
499.5195	0.105	999039	keystroke_l	l	n/a
499.6385	0.181	999277	keystroke_s	s	n/a
499.744	0.1505	999488	keystroke_Key.space	Key.space	n/a
500.0585	0.105	1000117	keystroke_r	r	n/a
500.1335	0.105	1000267	keystroke_o	o	n/a
500.2985	0.1205	1000597	keystroke_c	c	n/a
500.419	0.134	1000838	keystroke_k	k	n/a
500.538	0.165	1001076	keystroke_s	s	n/a
500.7335	0.225	1001467	keystroke_Key.space	Key.space	n/a
501.168	0.089	1002336	keystroke_t	t	n/a
501.273	0.15	1002546	keystroke_h	h	n/a
501.363	0.165	1002726	keystroke_e	e	n/a
501.648	0.1495	1003296	keystroke_a	a	n/a
501.902	0.1055	1003804	keystroke_t	t	n/a
502.0375	0.1945	1004075	keystroke_e	e	n/a
502.172	0.195	1004344	keystroke_r	r	n/a
502.368	0.1335	1004736	keystroke_Key.space	Key.space	n/a
503.0405	0.0745	1006081	keystroke_h	h	n/a
503.4155	0.1345	1006831	keystroke_Key.backspace	Key.backspace	n/a
503.5355	0.09	1007071	keystroke_g	g	n/a
503.655	0.1205	1007310	keystroke_h	h	n/a
503.8055	0.18	1007611	keystroke_o	o	n/a
503.9255	0.1345	1007851	keystroke_t	t	n/a
504.27	0.105	1008540	keystroke_s	s	n/a
504.5395	0.09	1009079	keystroke_Key.backspace	Key.backspace	n/a
504.7045	0.135	1009409	keystroke_s	s	n/a
504.7795	0.135	1009559	keystroke_t	t	n/a
504.9735	0.0755	1009947	keystroke_Key.backspace	Key.backspace	n/a
505.124	0.059	1010248	keystroke_Key.backspace	Key.backspace	n/a
505.2445	0.134	1010489	keystroke_Key.backspace	Key.backspace	n/a
505.3345	0.164	1010669	keystroke_s	s	n/a
505.4085	0.1655	1010817	keystroke_t	t	n/a
505.813	0.1505	1011626	keystroke_Key.enter	Key.enter	n/a
505.9695	9.226	1011939	prompt	n/a	articles portugal precipitation plan\n
506.6675	0.1195	1013335	keystroke_a	a	n/a
507.072	0.075	1014144	keystroke_r	r	n/a
507.328	0.119	1014656	keystroke_t	t	n/a
507.5365	0.105	1015073	keystroke_i	i	n/a
507.701	0.045	1015402	keystroke_c	c	n/a
507.836	0.211	1015672	keystroke_l	l	n/a
508.2555	0.181	1016511	keystroke_e	e	n/a
508.361	0.135	1016722	keystroke_s	s	n/a
508.7355	0.164	1017471	keystroke_Key.space	Key.space	n/a
509.395	0.0905	1018790	keystroke_p	p	n/a
509.5605	0.1345	1019121	keystroke_o	o	n/a
509.7245	0.1205	1019449	keystroke_r	r	n/a
509.9345	0.105	1019869	keystroke_t	t	n/a
510.2195	0.105	1020439	keystroke_u	u	n/a
510.519	0.06	1021038	keystroke_g	g	n/a
510.7435	0.09	1021487	keystroke_a	a	n/a
510.8485	0.12	1021697	keystroke_l	l	n/a
511.0285	0.1795	1022057	keystroke_Key.space	Key.space	n/a
511.4945	0.134	1022989	keystroke_p	p	n/a
511.5385	0.12	1023077	keystroke_r	r	n/a
511.613	0.1345	1023226	keystroke_e	e	n/a
511.9285	0.134	1023857	keystroke_c	c	n/a
512.0175	0.105	1024035	keystroke_i	i	n/a
512.287	0.1505	1024574	keystroke_p	p	n/a
512.512	0.1355	1025024	keystroke_i	i	n/a
512.692	0.12	1025384	keystroke_t	t	n/a
512.872	0.1195	1025744	keystroke_a	a	n/a
513.1115	0.1045	1026223	keystroke_t	t	n/a
513.171	0.165	1026342	keystroke_i	i	n/a
513.217	0.1635	1026434	keystroke_o	o	n/a
513.3815	0.134	1026763	keystroke_n	n	n/a
513.8155	0.165	1027631	keystroke_Key.space	Key.space	n/a
514.2505	0.1645	1028501	keystroke_p	p	n/a
514.386	0.1645	1028772	keystroke_l	l	n/a
514.5205	0.164	1029041	keystroke_a	a	n/a
514.7	0.135	1029400	keystroke_n	n	n/a
515.06	0.134	1030120	keystroke_Key.enter	Key.enter	n/a
515.1995	7.8195	1030399	prompt	n/a	suspected charity merger firms\n
515.974	0.12	1031948	keystroke_s	s	n/a
516.1535	0.1045	1032307	keystroke_u	u	n/a
516.243	0.1055	1032486	keystroke_s	s	n/a
516.7975	0.135	1033595	keystroke_p	p	n/a
516.888	0.105	1033776	keystroke_e	e	n/a
517.083	0.105	1034166	keystroke_c	c	n/a
517.337	0.105	1034674	keystroke_t	t	n/a
517.502	0.09	1035004	keystroke_e	e	n/a
517.7735	0.1485	1035547	keystroke_d	d	n/a
518.012	0.1045	1036024	keystroke_Key.space	Key.space	n/a
518.3265	0.12	1036653	keystroke_c	c	n/a
518.596	0.1055	1037192	keystroke_h	h	n/a
518.6865	0.1495	1037373	keystroke_a	a	n/a
518.926	0.1345	1037852	keystroke_r	r	n/a
519.4055	0.135	1038811	keystroke_i	i	n/a
519.5855	0.105	1039171	keystroke_t	t	n/a
519.78	0.135	1039560	keystroke_y	y	n/a
519.9745	0.1345	1039949	keystroke_Key.space	Key.space	n/a
520.6045	0.03	1041209	keystroke_m	m	n/a
520.6195	0.06	1041239	keystroke_e	e	n/a
520.859	0.091	1041718	keystroke_g	g	n/a
521.0245	0.1945	1042049	keystroke_e	e	n/a
521.1285	0.15	1042257	keystroke_r	r	n/a
521.323	0.1655	1042646	keystroke_Key.space	Key.space	n/a
521.9235	0.1495	1043847	keystroke_f	f	n/a
522.133	0.121	1044266	keystroke_i	i	n/a
522.313	0.12	1044626	keystroke_l	l	n/a
522.5225	0.106	1045045	keystroke_m	m	n/a
522.5835	0.134	1045167	keystroke_s	s	n/a
522.8675	0.15	1045735	keystroke_Key.enter	Key.enter	n/a
523.0235	8.6125	1046047	prompt	n/a	philips improving bathroom dance\n
524.1715	0.1195	1048343	keystroke_p	p	n/a
524.6065	0.1345	1049213	keystroke_i	i	n/a
524.7715	0.1495	1049543	keystroke_h	h	n/a
524.906	0.12	1049812	keystroke_l	l	n/a
525.101	0.135	1050202	keystroke_i	i	n/a
525.3405	0.135	1050681	keystroke_p	p	n/a
525.5505	0.18	1051101	keystroke_s	s	n/a
525.7	0.15	1051400	keystroke_Key.space	Key.space	n/a
526.3745	0.165	1052749	keystroke_i	i	n/a
526.4505	0.119	1052901	keystroke_m	m	n/a
526.6895	0.15	1053379	keystroke_p	p	n/a
526.869	0.1195	1053738	keystroke_r	r	n/a
526.974	0.15	1053948	keystroke_o	o	n/a
527.334	0.12	1054668	keystroke_v	v	n/a
527.499	0.2395	1054998	keystroke_i	i	n/a
527.6635	0.12	1055327	keystroke_n	n	n/a
527.7675	0.151	1055535	keystroke_g	g	n/a
527.9635	0.2095	1055927	keystroke_Key.space	Key.space	n/a
529.1635	0.0585	1058327	keystroke_b	b	n/a
529.2375	0.1195	1058475	keystroke_a	a	n/a
529.462	0.1345	1058924	keystroke_t	t	n/a
529.582	0.0905	1059164	keystroke_h	h	n/a
529.7915	0.075	1059583	keystroke_r	r	n/a
530.0465	0.1195	1060093	keystroke_o	o	n/a
530.391	0.1045	1060782	keystroke_o	o	n/a
530.5855	0.1345	1061171	keystroke_m	m	n/a
530.736	0.119	1061472	keystroke_Key.space	Key.space	n/a
530.915	0.12	1061830	keystroke_d	d	n/a
530.9905	0.1505	1061981	keystroke_a	a	n/a
531.156	0.104	1062312	keystroke_n	n	n/a
531.245	0.12	1062490	keystroke_c	c	n/a
531.335	0.1205	1062670	keystroke_e	e	n/a
531.4845	0.15	1062969	keystroke_Key.enter	Key.enter	n/a
531.6395	13.351	1063279	prompt	n/a	gave helpful bluetooth transferred\n
532.654	0.105	1065308	keystroke_g	g	n/a
533.209	0.15	1066418	keystroke_a	a	n/a
533.494	0.135	1066988	keystroke_v	v	n/a
533.5995	0.1945	1067199	keystroke_e	e	n/a
533.779	0.134	1067558	keystroke_Key.space	Key.space	n/a
534.588	0.135	1069176	keystroke_h	h	n/a
535.127	0.15	1070254	keystroke_e	e	n/a
535.262	0.195	1070524	keystroke_p	p	n/a
535.8315	0.075	1071663	keystroke_Key.backspace	Key.backspace	n/a
536.101	0.106	1072202	keystroke_l	l	n/a
536.1465	0.15	1072293	keystroke_p	p	n/a
536.821	0.1195	1073642	keystroke_f	f	n/a
536.985	0.136	1073970	keystroke_u	u	n/a
537.2555	0.1645	1074511	keystroke_l	l	n/a
537.4055	0.179	1074811	keystroke_Key.space	Key.space	n/a
537.99	0.12	1075980	keystroke_b	b	n/a
538.0945	0.135	1076189	keystroke_l	l	n/a
538.4095	0.1195	1076819	keystroke_u	u	n/a
538.4695	0.1195	1076939	keystroke_e	e	n/a
538.724	0.105	1077448	keystroke_t	t	n/a
539.2785	0.0755	1078557	keystroke_o	o	n/a
539.414	0.1345	1078828	keystroke_o	o	n/a
539.6235	0.1345	1079247	keystroke_t	t	n/a
539.788	0.1205	1079576	keystroke_h	h	n/a
540.3425	0.12	1080685	keystroke_Key.space	Key.space	n/a
540.9725	0.135	1081945	keystroke_t	t	n/a
541.558	0.1045	1083116	keystroke_r	r	n/a
541.7215	0.1055	1083443	keystroke_a	a	n/a
541.9165	0.1345	1083833	keystroke_n	n	n/a
542.0665	0.12	1084133	keystroke_s	s	n/a
542.651	0.12	1085302	keystroke_f	f	n/a
542.8455	0.12	1085691	keystroke_e	e	n/a
544.299	0.075	1088598	keystroke_r	r	n/a
544.479	0.075	1088958	keystroke_r	r	n/a
544.5245	0.1495	1089049	keystroke_e	e	n/a
544.719	0.165	1089438	keystroke_d	d	n/a
544.869	0.12	1089738	keystroke_Key.enter	Key.enter	n/a
544.9945	10.323	1089989	prompt	n/a	words indians configuration carrier\n
545.8435	0.15	1091687	keystroke_w	w	n/a
545.948	0.1355	1091896	keystroke_o	o	n/a
546.023	0.12	1092046	keystroke_r	r	n/a
546.2175	0.12	1092435	keystroke_d	d	n/a
546.293	0.1945	1092586	keystroke_s	s	n/a
546.5025	0.135	1093005	keystroke_Key.space	Key.space	n/a
546.938	0.1795	1093876	keystroke_i	i	n/a
547.072	0.135	1094144	keystroke_n	n	n/a
547.252	0.136	1094504	keystroke_d	d	n/a
547.342	0.1805	1094684	keystroke_i	i	n/a
547.567	0.27	1095134	keystroke_a	a	n/a
548.002	0.105	1096004	keystroke_n	n	n/a
548.1365	0.21	1096273	keystroke_s	s	n/a
548.4515	0.209	1096903	keystroke_Key.space	Key.space	n/a
548.916	0.1495	1097832	keystroke_c	c	n/a
549.0965	0.1345	1098193	keystroke_o	o	n/a
549.381	0.1355	1098762	keystroke_n	n	n/a
551.1345	0.105	1102269	keystroke_f	f	n/a
551.434	0.075	1102868	keystroke_i	i	n/a
551.7045	0.0895	1103409	keystroke_g	g	n/a
551.854	0.119	1103708	keystroke_u	u	n/a
551.974	0.135	1103948	keystroke_r	r	n/a
552.1685	0.0905	1104337	keystroke_a	a	n/a
552.3635	0.1195	1104727	keystroke_t	t	n/a
552.4685	0.1495	1104937	keystroke_i	i	n/a
552.543	0.1645	1105086	keystroke_o	o	n/a
552.6925	0.136	1105385	keystroke_n	n	n/a
552.903	0.1795	1105806	keystroke_Key.space	Key.space	n/a
553.862	0.09	1107724	keystroke_c	c	n/a
553.967	0.1495	1107934	keystroke_a	a	n/a
554.2965	0.09	1108593	keystroke_r	r	n/a
554.4765	0.105	1108953	keystroke_r	r	n/a
554.5365	0.15	1109073	keystroke_i	i	n/a
554.6415	0.135	1109283	keystroke_e	e	n/a
554.8815	0.105	1109763	keystroke_r	r	n/a
555.181	0.1345	1110362	keystroke_Key.enter	Key.enter	n/a
555.3225	15.974	1110645	prompt	n/a	vbulletin waiting democracy recruitment\n
556.5905	0.135	1113181	keystroke_v	v	n/a
557.3695	0.12	1114739	keystroke_b	b	n/a
557.534	0.0755	1115068	keystroke_u	u	n/a
557.7595	0.2545	1115519	keystroke_l	l	n/a
557.999	0.09	1115998	keystroke_e	e	n/a
558.8085	0.075	1117617	keystroke_Key.backspace	Key.backspace	n/a
559.453	0.0895	1118906	keystroke_l	l	n/a
559.5135	0.1045	1119027	keystroke_e	e	n/a
559.7375	0.1055	1119475	keystroke_t	t	n/a
559.7675	0.135	1119535	keystroke_i	i	n/a
559.9475	0.135	1119895	keystroke_n	n	n/a
560.038	0.105	1120076	keystroke_g	g	n/a
560.457	0.1055	1120914	keystroke_Key.backspace	Key.backspace	n/a
560.637	0.15	1121274	keystroke_Key.space	Key.space	n/a
561.342	0.2245	1122684	keystroke_w	w	n/a
561.4615	0.135	1122923	keystroke_a	a	n/a
561.7315	0.09	1123463	keystroke_i	i	n/a
561.941	0.12	1123882	keystroke_t	t	n/a
562.0155	0.1505	1124031	keystroke_i	i	n/a
562.1805	0.15	1124361	keystroke_n	n	n/a
562.2855	0.1205	1124571	keystroke_g	g	n/a
562.915	0.1505	1125830	keystroke_Key.space	Key.space	n/a
563.4855	0.1045	1126971	keystroke_d	d	n/a
563.665	0.135	1127330	keystroke_e	e	n/a
563.965	0.135	1127930	keystroke_c	c	n/a
564.609	0.12	1129218	keystroke_Key.backspace	Key.backspace	n/a
564.924	0.195	1129848	keystroke_m	m	n/a
565.0595	0.12	1130119	keystroke_o	o	n/a
565.898	0.135	1131796	keystroke_c	c	n/a
566.138	0.09	1132276	keystroke_a	a	n/a
566.557	0.0905	1133114	keystroke_Key.backspace	Key.backspace	n/a
566.603	0.121	1133206	keystroke_r	r	n/a
566.7385	0.1195	1133477	keystroke_a	a	n/a
567.2325	0.09	1134465	keystroke_c	c	n/a
567.4575	0.12	1134915	keystroke_y	y	n/a
567.6825	0.1345	1135365	keystroke_Key.space	Key.space	n/a
568.102	0.1345	1136204	keystroke_e	e	n/a
568.6265	0.09	1137253	keystroke_Key.backspace	Key.backspace	n/a
568.6865	0.12	1137373	keystroke_r	r	n/a
568.7465	0.15	1137493	keystroke_e	e	n/a
569.376	0.106	1138752	keystroke_c	c	n/a
569.916	0.1045	1139832	keystroke_r	r	n/a
570.036	0.195	1140072	keystroke_u	u	n/a
570.1255	0.1065	1140251	keystroke_i	i	n/a
570.1855	0.1205	1140371	keystroke_t	t	n/a
570.6505	0.075	1141301	keystroke_m	m	n/a
570.7405	0.135	1141481	keystroke_e	e	n/a
570.86	0.12	1141720	keystroke_n	n	n/a
570.9955	0.104	1141991	keystroke_t	t	n/a
571.205	0.0895	1142410	keystroke_Key.enter	Key.enter	n/a
571.3015	5.871	1142603	prompt	n/a	wallace cook over normally\n
572.134	0.1355	1144268	keystroke_w	w	n/a
572.209	0.15	1144418	keystroke_a	a	n/a
572.435	0.0595	1144870	keystroke_l	l	n/a
572.569	0.12	1145138	keystroke_l	l	n/a
572.719	0.15	1145438	keystroke_a	a	n/a
573.019	0.045	1146038	keystroke_c	c	n/a
573.065	0.1185	1146130	keystroke_e	e	n/a
573.348	0.15	1146696	keystroke_Key.space	Key.space	n/a
573.6485	0.105	1147297	keystroke_c	c	n/a
573.7235	0.105	1147447	keystroke_o	o	n/a
573.904	0.1345	1147808	keystroke_o	o	n/a
573.994	0.1495	1147988	keystroke_k	k	n/a
574.098	0.165	1148196	keystroke_Key.space	Key.space	n/a
574.623	0.15	1149246	keystroke_o	o	n/a
574.713	0.105	1149426	keystroke_v	v	n/a
574.878	0.18	1149756	keystroke_e	e	n/a
574.983	0.1795	1149966	keystroke_r	r	n/a
575.1325	0.135	1150265	keystroke_Key.space	Key.space	n/a
575.4925	0.1645	1150985	keystroke_n	n	n/a
575.597	0.135	1151194	keystroke_o	o	n/a
575.702	0.135	1151404	keystroke_r	r	n/a
575.897	0.12	1151794	keystroke_m	m	n/a
575.972	0.12	1151944	keystroke_a	a	n/a
576.302	0.089	1152604	keystroke_l	l	n/a
576.4665	0.105	1152933	keystroke_l	l	n/a
576.811	0.15	1153622	keystroke_y	y	n/a
577.0515	0.119	1154103	keystroke_Key.enter	Key.enter	n/a
577.1765	10.3995	1154353	prompt	n/a	shanghai relationship when vaccine\n
578.145	0.12	1156290	keystroke_s	s	n/a
578.2505	0.1045	1156501	keystroke_h	h	n/a
578.37	0.106	1156740	keystroke_a	a	n/a
578.716	0.1045	1157432	keystroke_n	n	n/a
578.85	0.09	1157700	keystroke_g	g	n/a
579.525	0.0895	1159050	keystroke_h	h	n/a
579.585	0.1195	1159170	keystroke_a	a	n/a
579.794	0.165	1159588	keystroke_i	i	n/a
579.9895	0.1495	1159979	keystroke_Key.space	Key.space	n/a
580.6035	0.105	1161207	keystroke_r	r	n/a
580.6635	0.1055	1161327	keystroke_e	e	n/a
580.933	0.1205	1161866	keystroke_l	l	n/a
581.024	0.1045	1162048	keystroke_a	a	n/a
581.5035	0.12	1163007	keystroke_t	t	n/a
581.5485	0.15	1163097	keystroke_i	i	n/a
581.6385	0.15	1163277	keystroke_o	o	n/a
581.8035	0.134	1163607	keystroke_n	n	n/a
581.923	0.1495	1163846	keystroke_s	s	n/a
582.537	0.12	1165074	keystroke_h	h	n/a
583.0325	0.1495	1166065	keystroke_i	i	n/a
583.1225	0.134	1166245	keystroke_p	p	n/a
583.377	0.1795	1166754	keystroke_Key.space	Key.space	n/a
583.782	0.2095	1167564	keystroke_w	w	n/a
583.9465	0.09	1167893	keystroke_h	h	n/a
584.006	0.15	1168012	keystroke_e	e	n/a
584.1715	0.1955	1168343	keystroke_n	n	n/a
584.321	0.15	1168642	keystroke_Key.space	Key.space	n/a
585.296	0.089	1170592	keystroke_v	v	n/a
585.4605	0.1195	1170921	keystroke_a	a	n/a
585.7155	0.12	1171431	keystroke_c	c	n/a
585.8945	0.136	1171789	keystroke_c	c	n/a
586.4505	0.104	1172901	keystroke_i	i	n/a
586.6755	0.074	1173351	keystroke_n	n	n/a
586.8695	0.2105	1173739	keystroke_e	e	n/a
587.439	0.1355	1174878	keystroke_Key.enter	Key.enter	n/a
587.581	10.2195	1175162	prompt	n/a	continues katrina album paintings\n
588.2495	0.135	1176499	keystroke_c	c	n/a
588.3985	0.12	1176797	keystroke_o	o	n/a
588.654	0.105	1177308	keystroke_n	n	n/a
588.9985	0.0905	1177997	keystroke_t	t	n/a
589.074	0.12	1178148	keystroke_i	i	n/a
589.269	0.2095	1178538	keystroke_n	n	n/a
589.4335	0.135	1178867	keystroke_u	u	n/a
589.6435	0.149	1179287	keystroke_e	e	n/a
589.7775	0.195	1179555	keystroke_s	s	n/a
589.9735	0.15	1179947	keystroke_Key.space	Key.space	n/a
590.962	0.1355	1181924	keystroke_k	k	n/a
591.0525	0.165	1182105	keystroke_a	a	n/a
591.3515	0.12	1182703	keystroke_t	t	n/a
591.592	0.12	1183184	keystroke_r	r	n/a
591.7125	0.104	1183425	keystroke_i	i	n/a
591.8915	0.105	1183783	keystroke_n	n	n/a
592.0265	0.1655	1184053	keystroke_a	a	n/a
592.1465	0.1495	1184293	keystroke_Key.space	Key.space	n/a
592.431	0.1355	1184862	keystroke_a	a	n/a
592.5215	0.135	1185043	keystroke_l	l	n/a
593.2565	0.1195	1186513	keystroke_b	b	n/a
593.361	0.12	1186722	keystroke_u	u	n/a
593.5255	0.1355	1187051	keystroke_m	m	n/a
593.7655	0.1205	1187531	keystroke_Key.space	Key.space	n/a
594.351	0.1345	1188702	keystroke_p	p	n/a
594.426	0.135	1188852	keystroke_a	a	n/a
594.726	0.1195	1189452	keystroke_i	i	n/a
594.8465	0.149	1189693	keystroke_n	n	n/a
595.115	0.12	1190230	keystroke_t	t	n/a
595.22	0.09	1190440	keystroke_i	i	n/a
595.399	0.106	1190798	keystroke_g	g	n/a
595.535	0.1195	1191070	keystroke_n	n	n/a
596.209	0.285	1192418	keystroke_Key.backspace	Key.backspace	n/a
596.674	0.1045	1193348	keystroke_Key.backspace	Key.backspace	n/a
597.0195	0.105	1194039	keystroke_n	n	n/a
597.11	0.0745	1194220	keystroke_g	g	n/a
597.2445	0.164	1194489	keystroke_s	s	n/a
597.633	0.1655	1195266	keystroke_Key.enter	Key.enter	n/a
597.804	12.0655	1195608	prompt	n/a	vintage won't wolf textbook\n
598.893	0.1195	1197786	keystroke_v	v	n/a
598.938	0.1045	1197876	keystroke_i	i	n/a
599.1625	0.121	1198325	keystroke_n	n	n/a
599.3575	0.1345	1198715	keystroke_t	t	n/a
599.597	0.09	1199194	keystroke_a	a	n/a
599.792	0.12	1199584	keystroke_g	g	n/a
599.897	0.1195	1199794	keystroke_e	e	n/a
600.1365	0.12	1200273	keystroke_Key.space	Key.space	n/a
600.796	0.12	1201592	keystroke_w	w	n/a
600.901	0.105	1201802	keystroke_o	o	n/a
601.186	0.105	1202372	keystroke_n	n	n/a
601.951	0.135	1203902	keystroke_;	;	n/a
602.1155	0.1505	1204231	keystroke_t	t	n/a
602.7905	0.0895	1205581	keystroke_Key.backspace	Key.backspace	n/a
603	0.06	1206000	keystroke_Key.backspace	Key.backspace	n/a
603.2705	0.135	1206541	keystroke_;	;	n/a
603.4205	0.1195	1206841	keystroke_t	t	n/a
603.7355	0.09	1207471	keystroke_Key.backspace	Key.backspace	n/a
603.9	0.105	1207800	keystroke_Key.backspace	Key.backspace	n/a
604.8445	0.12	1209689	keystroke_'	'	n/a
604.9495	0.1345	1209899	keystroke_t	t	n/a
605.0545	0.134	1210109	keystroke_Key.space	Key.space	n/a
605.4585	0.1345	1210917	keystroke_w	w	n/a
605.6985	0.061	1211397	keystroke_i	i	n/a
606.044	0.09	1212088	keystroke_Key.backspace	Key.backspace	n/a
606.2685	0.12	1212537	keystroke_o	o	n/a
606.4345	0.149	1212869	keystroke_l	l	n/a
606.8385	0.15	1213677	keystroke_f	f	n/a
607.4385	0.1345	1214877	keystroke_Key.space	Key.space	n/a
607.858	0.105	1215716	keystroke_t	t	n/a
607.964	0.1635	1215928	keystroke_e	e	n/a
608.232	0.1655	1216464	keystroke_x	x	n/a
608.443	0.12	1216886	keystroke_t	t	n/a
608.8775	0.0895	1217755	keystroke_b	b	n/a
609.192	0.075	1218384	keystroke_o	o	n/a
609.343	0.134	1218686	keystroke_o	o	n/a
609.432	0.166	1218864	keystroke_k	k	n/a
609.7465	0.1195	1219493	keystroke_Key.enter	Key.enter	n/a
609.8755	10.743	1219751	prompt	n/a	cartoons ethical locations outcomes\n
610.5415	0.0905	1221083	keystroke_c	c	n/a
610.662	0.1345	1221324	keystroke_a	a	n/a
610.9465	0.1345	1221893	keystroke_r	r	n/a
611.1705	0.1205	1222341	keystroke_t	t	n/a
611.3515	0.0895	1222703	keystroke_o	o	n/a
611.531	0.075	1223062	keystroke_o	o	n/a
611.711	0.12	1223422	keystroke_n	n	n/a
611.755	0.166	1223510	keystroke_s	s	n/a
611.906	0.1195	1223812	keystroke_Key.space	Key.space	n/a
613.5255	0.1945	1227051	keystroke_e	e	n/a
613.6455	0.1345	1227291	keystroke_t	t	n/a
613.8555	0.105	1227711	keystroke_h	h	n/a
614.0045	0.076	1228009	keystroke_i	i	n/a
614.1245	0.075	1228249	keystroke_v	v	n/a
614.3505	0.0435	1228701	keystroke_a	a	n/a
614.739	0.0605	1229478	keystroke_Key.backspace	Key.backspace	n/a
614.904	0.105	1229808	keystroke_Key.backspace	Key.backspace	n/a
614.994	0.12	1229988	keystroke_c	c	n/a
615.1295	0.149	1230259	keystroke_a	a	n/a
615.4145	0.1505	1230829	keystroke_l	l	n/a
615.999	0.135	1231998	keystroke_Key.space	Key.space	n/a
616.284	0.0755	1232568	keystroke_l	l	n/a
616.4335	0.15	1232867	keystroke_o	o	n/a
616.5235	0.121	1233047	keystroke_c	c	n/a
616.6585	0.1045	1233317	keystroke_a	a	n/a
616.8675	0.106	1233735	keystroke_t	t	n/a
616.943	0.12	1233886	keystroke_i	i	n/a
617.0035	0.1795	1234007	keystroke_o	o	n/a
617.1675	0.1205	1234335	keystroke_n	n	n/a
617.303	0.1645	1234606	keystroke_s	s	n/a
617.4375	0.135	1234875	keystroke_Key.space	Key.space	n/a
618.3375	0.105	1236675	keystroke_o	o	n/a
618.7425	0.135	1237485	keystroke_u	u	n/a
618.8325	0.1195	1237665	keystroke_t	t	n/a
619.447	0.12	1238894	keystroke_c	c	n/a
619.5825	0.1795	1239165	keystroke_o	o	n/a
619.687	0.104	1239374	keystroke_m	m	n/a
619.9725	0.09	1239945	keystroke_e	e	n/a
620.0775	0.1345	1240155	keystroke_s	s	n/a
620.482	0.135	1240964	keystroke_Key.enter	Key.enter	n/a
620.623	9.4705	1241246	prompt	n/a	proceeding alignment samba terms\n
621.666	0.104	1243332	keystroke_p	p	n/a
621.741	0.12	1243482	keystroke_r	r	n/a
621.906	0.1355	1243812	keystroke_o	o	n/a
622.2065	0.075	1244413	keystroke_v	v	n/a
622.536	0.135	1245072	keystroke_Key.backspace	Key.backspace	n/a
622.685	0.106	1245370	keystroke_c	c	n/a
622.94	0.09	1245880	keystroke_e	e	n/a
623.0905	0.1055	1246181	keystroke_e	e	n/a
623.2855	0.1205	1246571	keystroke_d	d	n/a
623.855	0.18	1247710	keystroke_i	i	n/a
623.93	0.135	1247860	keystroke_n	n	n/a
624.005	0.1495	1248010	keystroke_g	g	n/a
624.1845	0.1655	1248369	keystroke_Key.space	Key.space	n/a
624.8595	0.1505	1249719	keystroke_a	a	n/a
625.084	0.0755	1250168	keystroke_l	l	n/a
625.249	0.1655	1250498	keystroke_i	i	n/a
625.4885	0.1505	1250977	keystroke_g	g	n/a
625.6535	0.106	1251307	keystroke_h	h	n/a
625.864	0.165	1251728	keystroke_n	n	n/a
626.3295	0.134	1252659	keystroke_m	m	n/a
626.4045	0.134	1252809	keystroke_e	e	n/a
626.569	0.1795	1253138	keystroke_n	n	n/a
626.688	0.136	1253376	keystroke_t	t	n/a
626.928	0.12	1253856	keystroke_Key.space	Key.space	n/a
627.2735	0.1645	1254547	keystroke_s	s	n/a
627.393	0.1205	1254786	keystroke_a	a	n/a
627.5145	0.134	1255029	keystroke_m	m	n/a
627.768	0.12	1255536	keystroke_b	b	n/a
628.053	0.165	1256106	keystroke_a	a	n/a
628.248	0.164	1256496	keystroke_Key.space	Key.space	n/a
629.117	0.135	1258234	keystroke_t	t	n/a
629.297	0.165	1258594	keystroke_e	e	n/a
629.387	0.15	1258774	keystroke_r	r	n/a
629.522	0.12	1259044	keystroke_m	m	n/a
629.702	0.12	1259404	keystroke_s	s	n/a
629.987	0.105	1259974	keystroke_Key.enter	Key.enter	n/a
630.099	15.933	1260198	prompt	n/a	creates defendant crude investments\n
631.2315	0.1195	1262463	keystroke_c	c	n/a
631.471	0.1205	1262942	keystroke_e	e	n/a
631.486	0.12	1262972	keystroke_r	r	n/a
631.651	0.1355	1263302	keystroke_a	a	n/a
631.876	0.1055	1263752	keystroke_t	t	n/a
631.996	0.135	1263992	keystroke_e	e	n/a
632.101	0.15	1264202	keystroke_s	s	n/a
632.521	0.075	1265042	keystroke_Key.backspace	Key.backspace	n/a
632.701	0.0595	1265402	keystroke_Key.backspace	Key.backspace	n/a
632.8355	0.0455	1265671	keystroke_Key.backspace	Key.backspace	n/a
632.9705	0.045	1265941	keystroke_Key.backspace	Key.backspace	n/a
633.1205	0.045	1266241	keystroke_Key.backspace	Key.backspace	n/a
633.271	0.0445	1266542	keystroke_Key.backspace	Key.backspace	n/a
633.4055	0.12	1266811	keystroke_r	r	n/a
633.4505	0.18	1266901	keystroke_e	e	n/a
633.6455	0.1505	1267291	keystroke_a	a	n/a
633.9605	0.12	1267921	keystroke_t	t	n/a
634.1105	0.195	1268221	keystroke_e	e	n/a
634.2905	0.15	1268581	keystroke_s	s	n/a
634.5595	0.1505	1269119	keystroke_Key.space	Key.space	n/a
635.025	0.0895	1270050	keystroke_d	d	n/a
635.175	0.1055	1270350	keystroke_e	e	n/a
635.4745	0.0455	1270949	keystroke_f	f	n/a
636.2695	0.1355	1272539	keystroke_e	e	n/a
636.614	0.135	1273228	keystroke_n	n	n/a
636.9895	0.1345	1273979	keystroke_d	d	n/a
637.199	0.1345	1274398	keystroke_a	a	n/a
638.3385	0.12	1276677	keystroke_n	n	n/a
638.5035	0.06	1277007	keystroke_t	t	n/a
638.863	0.15	1277726	keystroke_Key.space	Key.space	n/a
639.163	0.0895	1278326	keystroke_c	c	n/a
639.3735	0.12	1278747	keystroke_r	r	n/a
639.4775	0.1205	1278955	keystroke_u	u	n/a
639.613	0.06	1279226	keystroke_d	d	n/a
639.763	0.135	1279526	keystroke_e	e	n/a
640.048	0.179	1280096	keystroke_Key.space	Key.space	n/a
641.2775	0.225	1282555	keystroke_i	i	n/a
641.338	0.1495	1282676	keystroke_n	n	n/a
641.8625	0.15	1283725	keystroke_s	s	n/a
642.4025	0.1335	1284805	keystroke_Key.backspace	Key.backspace	n/a
642.462	0.09	1284924	keystroke_v	v	n/a
642.642	0.1945	1285284	keystroke_e	e	n/a
642.9265	0.15	1285853	keystroke_s	s	n/a
643.826	0.135	1287652	keystroke_t	t	n/a
644.111	0.105	1288222	keystroke_m	m	n/a
644.171	0.1205	1288342	keystroke_e	e	n/a
