onset	duration	sample	value	key	prompt_text
2.544	17.106	5088	prompt	n/a	the quick brown fox jumps over a lazy dog\n
7.0955	0.028	14191	keystroke	t	n/a
7.1385	0.06	14277	keystroke	h	n/a
7.2135	0.12	14427	keystroke	e	n/a
7.4085	0.09	14817	keystroke	Key.space	n/a
8.533	0.075	17066	keystroke	q	n/a
8.743	0.075	17486	keystroke	u	n/a
9.148	0.0745	18296	keystroke	i	n/a
9.4925	0.09	18985	keystroke	c	n/a
9.5975	0.075	19195	keystroke	k	n/a
9.7925	0.09	19585	keystroke	Key.space	n/a
10.0925	0.09	20185	keystroke	b	n/a
10.5875	0.075	21175	keystroke	r	n/a
10.9775	0.075	21955	keystroke	o	n/a
11.1425	0.105	22285	keystroke	w	n/a
11.2625	0.075	22525	keystroke	n	n/a
11.4575	0.09	22915	keystroke	Key.space	n/a
11.7275	0.09	23455	keystroke	o	n/a
12.2225	0.06	24445	keystroke	Key.backspace	n/a
12.3275	0.075	24655	keystroke	f	n/a
12.5675	0.09	25135	keystroke	o	n/a
13.0175	0.135	26035	keystroke	x	n/a
13.2575	0.06	26515	keystroke	Key.space	n/a
14.0975	0.0455	28195	keystroke	j	n/a
14.233	0.075	28466	keystroke	u	n/a
14.443	0.075	28886	keystroke	m	n/a
14.578	0.105	29156	keystroke	p	n/a
14.728	0.105	29456	keystroke	s	n/a
14.833	0.0895	29666	keystroke	Key.space	n/a
15.0125	0.105	30025	keystroke	o	n/a
15.1475	0.076	30295	keystroke	v	n/a
15.2985	0.164	30597	keystroke	e	n/a
15.3885	0.089	30777	keystroke	r	n/a
15.5225	0.06	31045	keystroke	Key.space	n/a
15.853	0.09	31706	keystroke	a	n/a
15.973	0.09	31946	keystroke	Key.space	n/a
16.603	0.075	33206	keystroke	l	n/a
16.873	0.09	33746	keystroke	a	n/a
17.128	0.135	34256	keystroke	z	n/a
17.293	0.09	34586	keystroke	y	n/a
17.533	0.09	35066	keystroke	Key.space	n/a
17.818	0.09	35636	keystroke	d	n/a
17.923	0.075	35846	keystroke	o	n/a
18.718	0.06	37436	keystroke	g	n/a
19.5875	0.06	39175	keystroke	Key.enter	n/a
19.654	10.06	39308	prompt	n/a	idea dramatically menu british\n
20.7725	0.0755	41545	keystroke	i	n/a
20.953	0.12	41906	keystroke	d	n/a
21.343	0.105	42686	keystroke	e	n/a
21.523	0.12	43046	keystroke	a	n/a
21.718	0.09	43436	keystroke	Key.space	n/a
22.168	0.075	44336	keystroke	d	n/a
22.408	0.09	44816	keystroke	r	n/a
22.618	0.09	45236	keystroke	a	n/a
22.783	0.09	45566	keystroke	m	n/a
22.963	0.12	45926	keystroke	a	n/a
23.278	0.12	46556	keystroke	t	n/a
24.043	0.09	48086	keystroke	i	n/a
24.568	0.09	49136	keystroke	c	n/a
24.958	0.075	49916	keystroke	a	n/a
25.213	0.06	50426	keystroke	l	n/a
25.333	0.075	50666	keystroke	l	n/a
25.528	0.09	51056	keystroke	y	n/a
25.7825	0.09	51565	keystroke	Key.space	n/a
26.0675	0.075	52135	keystroke	m	n/a
26.5775	0.075	53155	keystroke	e	n/a
26.7275	0.075	53455	keystroke	n	n/a
26.9675	0.075	53935	keystroke	u	n/a
27.2075	0.075	54415	keystroke	Key.space	n/a
27.5225	0.075	55045	keystroke	b	n/a
27.8825	0.09	55765	keystroke	r	n/a
28.1075	0.075	56215	keystroke	i	n/a
28.3175	0.09	56635	keystroke	t	n/a
28.4375	0.105	56875	keystroke	i	n/a
28.6775	0.09	57355	keystroke	s	n/a
28.7825	0.075	57565	keystroke	h	n/a
29.653	0.059	59306	keystroke	Key.enter	n/a
29.7175	10.2265	59435	prompt	n/a	genre encourages carrying chick\n
30.763	0.075	61526	keystroke	g	n/a
31.318	0.06	62636	keystroke	e	n/a
31.483	0.06	62966	keystroke	n	n/a
31.798	0.12	63596	keystroke	r	n/a
31.888	0.105	63776	keystroke	e	n/a
32.817	0.075	65634	keystroke	Key.space	n/a
33.118	0.075	66236	keystroke	e	n/a
33.433	0.075	66866	keystroke	x	n/a
34.062	0.075	68124	keystroke	Key.backspace	n/a
34.753	0.06	69506	keystroke	n	n/a
34.903	0.09	69806	keystroke	c	n/a
35.053	0.135	70106	keystroke	o	n/a
35.173	0.045	70346	keystroke	u	n/a
35.383	0.105	70766	keystroke	r	n/a
35.608	0.135	71216	keystroke	a	n/a
35.758	0.105	71516	keystroke	g	n/a
35.848	0.105	71696	keystroke	e	n/a
36.253	0.09	72506	keystroke	s	n/a
36.432	0.06	72864	keystroke	Key.space	n/a
36.793	0.09	73586	keystroke	c	n/a
36.973	0.12	73946	keystroke	a	n/a
37.228	0.06	74456	keystroke	r	n/a
37.348	0.06	74696	keystroke	r	n/a
37.453	0.06	74906	keystroke	y	n/a
37.573	0.15	75146	keystroke	i	n/a
37.708	0.09	75416	keystroke	n	n/a
37.828	0.075	75656	keystroke	g	n/a
37.948	0.075	75896	keystroke	Key.space	n/a
38.548	0.09	77096	keystroke	c	n/a
38.683	0.075	77366	keystroke	h	n/a
38.848	0.075	77696	keystroke	i	n/a
38.998	0.09	77996	keystroke	c	n/a
39.073	0.09	78146	keystroke	k	n/a
39.868	0.075	79736	keystroke	Key.enter	n/a
39.9475	11.306	79895	prompt	n/a	information phantom rarely actions\n
40.603	0.075	81206	keystroke	i	n/a
40.738	0.105	81476	keystroke	n	n/a
41.5625	0.075	83125	keystroke	f	n/a
41.8775	0.105	83755	keystroke	o	n/a
42.1475	0.06	84295	keystroke	r	n/a
42.7775	0.06	85555	keystroke	m	n/a
42.8975	0.12	85795	keystroke	a	n/a
43.0325	0.12	86065	keystroke	t	n/a
43.0475	0.12	86095	keystroke	i	n/a
43.1375	0.165	86275	keystroke	o	n/a
43.2575	0.075	86515	keystroke	n	n/a
43.4225	0.09	86845	keystroke	Key.space	n/a
43.6775	0.09	87355	keystroke	p	n/a
43.8725	0.09	87745	keystroke	h	n/a
44.2625	0.135	88525	keystroke	a	n/a
44.6075	0.06	89215	keystroke	n	n/a
44.8325	0.09	89665	keystroke	t	n/a
44.9675	0.165	89935	keystroke	o	n/a
45.0875	0.105	90175	keystroke	m	n/a
45.4025	0.06	90805	keystroke	Key.space	n/a
45.9575	0.12	91915	keystroke	r	n/a
46.0325	0.12	92065	keystroke	e	n/a
47.2475	0.09	94495	keystroke	Key.backspace	n/a
47.3825	0.12	94765	keystroke	a	n/a
47.7725	0.12	95545	keystroke	r	n/a
47.8325	0.12	95665	keystroke	e	n/a
48.1775	0.09	96355	keystroke	l	n/a
48.3875	0.06	96775	keystroke	y	n/a
48.6425	0.06	97285	keystroke	Key.space	n/a
49.6025	0.105	99205	keystroke	a	n/a
49.7375	0.09	99475	keystroke	c	n/a
49.9775	0.12	99955	keystroke	t	n/a
50.1125	0.105	100225	keystroke	i	n/a
50.2025	0.135	100405	keystroke	o	n/a
50.2925	0.09	100585	keystroke	n	n/a
50.4275	0.135	100855	keystroke	s	n/a
51.1925	0.06	102385	keystroke	Key.enter	n/a
51.2565	13.9175	102513	prompt	n/a	searched kentucky conference brooklyn\n
52.2875	0.075	104575	keystroke	s	n/a
52.4675	0.105	104935	keystroke	e	n/a
52.6175	0.135	105235	keystroke	a	n/a
53.2475	0.09	106495	keystroke	r	n/a
53.5175	0.09	107035	keystroke	c	n/a
53.8475	0.075	107695	keystroke	h	n/a
54.1325	0.075	108265	keystroke	e	n/a
54.3125	0.09	108625	keystroke	d	n/a
54.447	0.075	108894	keystroke	Key.space	n/a
54.9575	0.075	109915	keystroke	k	n/a
55.0775	0.075	110155	keystroke	e	n/a
55.1975	0.105	110395	keystroke	n	n/a
55.6025	0.075	111205	keystroke	t	n/a
55.7675	0.06	111535	keystroke	u	n/a
55.977	0.09	111954	keystroke	c	n/a
56.082	0.09	112164	keystroke	k	n/a
56.322	0.045	112644	keystroke	y	n/a
56.562	0.075	113124	keystroke	Key.space	n/a
56.862	0.075	113724	keystroke	c	n/a
56.967	0.105	113934	keystroke	o	n/a
57.057	0.09	114114	keystroke	n	n/a
57.657	0.045	115314	keystroke	g	n/a
57.852	0.12	115704	keystroke	e	n/a
57.927	0.09	115854	keystroke	r	n/a
58.872	0.06	117744	keystroke	Key.backspace	n/a
59.007	0.09	118014	keystroke	Key.backspace	n/a
59.442	0.075	118884	keystroke	Key.backspace	n/a
59.562	0.06	119124	keystroke	f	n/a
59.937	0.18	119874	keystroke	e	n/a
60.087	0.105	120174	keystroke	r	n/a
60.387	0.06	120774	keystroke	e	n/a
61.017	0.06	122034	keystroke	n	n/a
61.092	0.12	122184	keystroke	c	n/a
61.227	0.075	122454	keystroke	e	n/a
61.407	0.06	122814	keystroke	Key.space	n/a
62.067	0.075	124134	keystroke	b	n/a
62.442	0.06	124884	keystroke	r	n/a
62.637	0.09	125274	keystroke	o	n/a
62.787	0.09	125574	keystroke	o	n/a
62.937	0.09	125874	keystroke	k	n/a
63.132	0.075	126264	keystroke	l	n/a
63.312	0.06	126624	keystroke	y	n/a
63.537	0.015	127074	keystroke	b	n/a
64.452	0.06	128904	keystroke	Key.backspace	n/a
64.782	0.045	129564	keystroke	n	n/a
65.097	0.075	130194	keystroke	Key.enter	n/a
65.177	8.037	130354	prompt	n/a	cargo warnings fares stating\n
65.907	0.06	131814	keystroke	c	n/a
66.072	0.105	132144	keystroke	a	n/a
66.222	0.105	132444	keystroke	r	n/a
66.507	0.06	133014	keystroke	g	n/a
66.642	0.075	133284	keystroke	o	n/a
66.792	0.12	133584	keystroke	Key.space	n/a
67.077	0.075	134154	keystroke	w	n/a
67.257	0.105	134514	keystroke	a	n/a
67.542	0.09	135084	keystroke	r	n/a
67.842	0.075	135684	keystroke	n	n/a
67.962	0.135	135924	keystroke	i	n/a
68.082	0.09	136164	keystroke	n	n/a
68.262	0.075	136524	keystroke	g	n/a
68.472	0.075	136944	keystroke	s	n/a
68.637	0.06	137274	keystroke	Key.space	n/a
69.447	0.06	138894	keystroke	f	n/a
69.717	0.105	139434	keystroke	a	n/a
70.047	0.105	140094	keystroke	e	n/a
70.527	0.09	141054	keystroke	Key.backspace	n/a
70.632	0.075	141264	keystroke	r	n/a
70.692	0.075	141384	keystroke	e	n/a
70.902	0.09	141804	keystroke	s	n/a
71.142	0.075	142284	keystroke	Key.space	n/a
71.547	0.075	143094	keystroke	s	n/a
71.727	0.09	143454	keystroke	t	n/a
71.892	0.105	143784	keystroke	a	n/a
72.057	0.09	144114	keystroke	t	n/a
72.162	0.105	144324	keystroke	i	n/a
72.282	0.075	144564	keystroke	n	n/a
72.387	0.075	144774	keystroke	g	n/a
73.137	0.075	146274	keystroke	Key.enter	n/a
73.219	11.935	146438	prompt	n/a	temperatures determination seekers shame\n
74.007	0.075	148014	keystroke	t	n/a
74.472	0.06	148944	keystroke	e	n/a
74.727	0.09	149454	keystroke	m	n/a
74.922	0.0905	149844	keystroke	p	n/a
75.4775	0.12	150955	keystroke	e	n/a
75.5525	0.105	151105	keystroke	r	n/a
76.8425	0.09	153685	keystroke	a	n/a
77.1575	0.09	154315	keystroke	t	n/a
77.2775	0.09	154555	keystroke	u	n/a
77.4125	0.105	154825	keystroke	r	n/a
77.4875	0.105	154975	keystroke	e	n/a
77.7125	0.09	155425	keystroke	s	n/a
77.8475	0.075	155695	keystroke	Key.space	n/a
78.5225	0.075	157045	keystroke	d	n/a
78.7025	0.15	157405	keystroke	e	n/a
78.7925	0.105	157585	keystroke	r	n/a
79.4675	0.09	158935	keystroke	Key.backspace	n/a
79.5425	0.09	159085	keystroke	t	n/a
79.7225	0.15	159445	keystroke	e	n/a
79.8125	0.075	159625	keystroke	r	n/a
79.9925	0.09	159985	keystroke	m	n/a
80.1725	0.105	160345	keystroke	i	n/a
80.3075	0.12	160615	keystroke	n	n/a
80.8175	0.12	161635	keystroke	a	n/a
80.9975	0.09	161995	keystroke	t	n/a
81.0275	0.135	162055	keystroke	i	n/a
81.1475	0.12	162295	keystroke	o	n/a
81.2075	0.09	162415	keystroke	n	n/a
81.5075	0.075	163015	keystroke	Key.space	n/a
82.3325	0.075	164665	keystroke	s	n/a
82.5125	0.06	165025	keystroke	e	n/a
82.6475	0.06	165295	keystroke	e	n/a
82.7825	0.09	165565	keystroke	k	n/a
82.8875	0.15	165775	keystroke	e	n/a
82.9925	0.105	165985	keystroke	r	n/a
83.2025	0.09	166405	keystroke	s	n/a
83.3375	0.09	166675	keystroke	Key.space	n/a
83.6675	0.075	167335	keystroke	s	n/a
83.7875	0.09	167575	keystroke	h	n/a
84.0125	0.12	168025	keystroke	a	n/a
84.2375	0.06	168475	keystroke	m	n/a
84.3725	0.09	168745	keystroke	e	n/a
85.0775	0.075	170155	keystroke	Key.enter	n/a
85.1595	8.334	170319	prompt	n/a	saves vocal brilliant prior\n
85.8425	0.075	171685	keystroke	s	n/a
86.2475	0.12	172495	keystroke	a	n/a
86.4125	0.12	172825	keystroke	c	n/a
86.5925	0.09	173185	keystroke	e	n/a
87.1175	0.075	174235	keystroke	Key.backspace	n/a
87.2675	0.09	174535	keystroke	Key.backspace	n/a
87.3725	0.105	174745	keystroke	v	n/a
87.5225	0.105	175045	keystroke	e	n/a
87.7175	0.09	175435	keystroke	s	n/a
87.9275	0.075	175855	keystroke	Key.space	n/a
88.5725	0.075	177145	keystroke	v	n/a
88.7675	0.105	177535	keystroke	o	n/a
88.9025	0.105	177805	keystroke	c	n/a
89.0825	0.12	178165	keystroke	a	n/a
89.1875	0.075	178375	keystroke	l	n/a
89.3525	0.09	178705	keystroke	Key.space	n/a
89.6075	0.075	179215	keystroke	b	n/a
89.8775	0.075	179755	keystroke	r	n/a
90.1325	0.015	180265	keystroke	i	n/a
90.2825	0.075	180565	keystroke	l	n/a
90.4325	0.06	180865	keystroke	l	n/a
90.8375	0.075	181675	keystroke	i	n/a
90.9725	0.105	181945	keystroke	a	n/a
91.0625	0.105	182125	keystroke	n	n/a
91.3625	0.075	182725	keystroke	t	n/a
91.5575	0.06	183115	keystroke	Key.space	n/a
91.9925	0.09	183985	keystroke	p	n/a
92.1425	0.105	184285	keystroke	r	n/a
92.2925	0.135	184585	keystroke	i	n/a
92.4275	0.15	184855	keystroke	o	n/a
92.6825	0.075	185365	keystroke	r	n/a
93.4175	0.075	186835	keystroke	Key.enter	n/a
93.4965	11.3975	186993	prompt	n/a	resistance cashiers warming came\n
94.2575	0.12	188515	keystroke	r	n/a
94.3175	0.105	188635	keystroke	e	n/a
94.5425	0.105	189085	keystroke	s	n/a
95.1575	0.06	190315	keystroke	i	n/a
95.3675	0.09	190735	keystroke	s	n/a
95.7125	0.09	191425	keystroke	t	n/a
95.9975	0.09	191995	keystroke	a	n/a
96.6425	0.075	193285	keystroke	n	n/a
96.7025	0.105	193405	keystroke	c	n/a
96.7625	0.105	193525	keystroke	e	n/a
97.0025	0.075	194005	keystroke	Key.space	n/a
97.2425	0.075	194485	keystroke	c	n/a
97.3775	0.135	194755	keystroke	a	n/a
97.5875	0.06	195175	keystroke	h	n/a
98.6225	0.06	197245	keystroke	Key.backspace	n/a
98.7575	0.06	197515	keystroke	s	n/a
99.237	0.06	198474	keystroke	h	n/a
99.747	0.09	199494	keystroke	i	n/a
99.852	0.135	199704	keystroke	e	n/a
99.927	0.135	199854	keystroke	r	n/a
100.167	0.09	200334	keystroke	s	n/a
100.302	0.075	200604	keystroke	Key.space	n/a
100.662	0.075	201324	keystroke	w	n/a
100.842	0.12	201684	keystroke	a	n/a
101.082	0.075	202164	keystroke	r	n/a
101.667	0.06	203334	keystroke	m	n/a
101.832	0.165	203664	keystroke	i	n/a
102.312	0.045	204624	keystroke	n	n/a
102.897	0.06	205794	keystroke	g	n/a
103.392	0.06	206784	keystroke	Key.space	n/a
103.7675	0.09	207535	keystroke	c	n/a
103.8875	0.105	207775	keystroke	a	n/a
104.0075	0.06	208015	keystroke	m	n/a
104.1125	0.075	208225	keystroke	e	n/a
104.8175	0.075	209635	keystroke	Key.enter	n/a
104.8975	16.4665	209795	prompt	n/a	traveling bookmark italiano criteria\n
105.6725	0.06	211345	keystroke	t	n/a
105.8525	0.105	211705	keystroke	r	n/a
106.0925	0.12	212185	keystroke	a	n/a
106.3325	0.09	212665	keystroke	v	n/a
106.9925	0.06	213985	keystroke	e	n/a
107.1575	0.105	214315	keystroke	l	n/a
107.4875	0.12	214975	keystroke	i	n/a
107.6225	0.09	215245	keystroke	n	n/a
107.7285	0.089	215457	keystroke	g	n/a
107.8625	0.075	215725	keystroke	Key.space	n/a
108.5535	0.089	217107	keystroke	b	n/a
108.7925	0.075	217585	keystroke	o	n/a
108.9275	0.09	217855	keystroke	o	n/a
109.0775	0.105	218155	keystroke	k	n/a
109.3025	0.091	218605	keystroke	m	n/a
109.4685	0.104	218937	keystroke	a	n/a
109.6475	0.09	219295	keystroke	r	n/a
109.9325	0.075	219865	keystroke	k	n/a
110.1275	0.09	220255	keystroke	Key.space	n/a
110.5935	0.075	221187	keystroke	i	n/a
111.1185	0.089	222237	keystroke	t	n/a
111.3275	0.0895	222655	keystroke	a	n/a
111.568	0.09	223136	keystroke	l	n/a
111.762	0.105	223524	keystroke	i	n/a
112.557	0.061	225114	keystroke	o	n/a
113.007	0.075	226014	keystroke	Key.backspace	n/a
113.143	0.105	226286	keystroke	a	n/a
113.293	0.104	226586	keystroke	n	n/a
113.652	0.075	227304	keystroke	o	n/a
113.907	0.075	227814	keystroke	Key.space	n/a
114.237	0.075	228474	keystroke	c	n/a
114.957	0.075	229914	keystroke	r	n/a
115.393	0.059	230786	keystroke	i	n/a
115.708	0.075	231416	keystroke	t	n/a
115.873	0.134	231746	keystroke	e	n/a
118.23	0.028	236460	keystroke	r	n/a
118.303	0.09	236606	keystroke	i	n/a
118.963	0.075	237926	keystroke	a	n/a
121.35	0.012	242700	keystroke	Key.enter	n/a
121.367	8.367	242734	prompt	n/a	proper clear dollar among\n
122.173	0.09	244346	keystroke	p	n/a
122.563	0.075	245126	keystroke	r	n/a
122.818	0.09	245636	keystroke	o	n/a
123.073	0.09	246146	keystroke	p	n/a
123.298	0.15	246596	keystroke	e	n/a
123.373	0.105	246746	keystroke	r	n/a
123.598	0.075	247196	keystroke	Key.space	n/a
124.858	0.045	249716	keystroke	c	n/a
125.683	0.09	251366	keystroke	l	n/a
125.788	0.105	251576	keystroke	e	n/a
125.938	0.135	251876	keystroke	a	n/a
126.103	0.09	252206	keystroke	r	n/a
126.223	0.075	252446	keystroke	Key.space	n/a
126.793	0.06	253586	keystroke	d	n/a
127.093	0.09	254186	keystroke	o	n/a
127.438	0.045	254876	keystroke	l	n/a
127.558	0.09	255116	keystroke	l	n/a
127.678	0.105	255356	keystroke	a	n/a
127.858	0.105	255716	keystroke	r	n/a
128.038	0.06	256076	keystroke	Key.space	n/a
128.263	0.09	256526	keystroke	a	n/a
128.368	0.09	256736	keystroke	m	n/a
128.533	0.18	257066	keystroke	o	n/a
128.698	0.09	257396	keystroke	n	n/a
128.863	0.09	257726	keystroke	g	n/a
129.6725	0.06	259345	keystroke	Key.enter	n/a
129.7365	10.5125	259473	prompt	n/a	literacy mailing legendary elections\n
130.6475	0.09	261295	keystroke	l	n/a
130.8575	0.075	261715	keystroke	i	n/a
131.3675	0.075	262735	keystroke	t	n/a
131.5325	0.18	263065	keystroke	e	n/a
131.6675	0.135	263335	keystroke	r	n/a
132.3125	0.12	264625	keystroke	a	n/a
132.4625	0.12	264925	keystroke	c	n/a
132.9725	0.06	265945	keystroke	y	n/a
133.2575	0.06	266515	keystroke	Key.space	n/a
133.8125	0.09	267625	keystroke	m	n/a
134.0075	0.09	268015	keystroke	a	n/a
134.1125	0.09	268225	keystroke	i	n/a
134.3225	0.105	268645	keystroke	l	n/a
134.5025	0.12	269005	keystroke	i	n/a
134.6375	0.09	269275	keystroke	n	n/a
134.7875	0.075	269575	keystroke	g	n/a
134.8775	0.09	269755	keystroke	Key.space	n/a
135.1325	0.09	270265	keystroke	l	n/a
135.2825	0.105	270565	keystroke	e	n/a
135.5525	0.045	271105	keystroke	n	n/a
135.8975	0.075	271795	keystroke	Key.backspace	n/a
135.9875	0.09	271975	keystroke	g	n/a
136.6625	0.075	273325	keystroke	e	n/a
136.8275	0.06	273655	keystroke	n	n/a
137.0075	0.09	274015	keystroke	d	n/a
137.2175	0.12	274435	keystroke	a	n/a
137.3825	0.105	274765	keystroke	r	n/a
137.5025	0.06	275005	keystroke	y	n/a
137.7275	0.075	275455	keystroke	Key.space	n/a
137.9525	0.075	275905	keystroke	e	n/a
138.0725	0.09	276145	keystroke	l	n/a
138.2075	0.075	276415	keystroke	e	n/a
138.4925	0.09	276985	keystroke	c	n/a
138.7625	0.09	277525	keystroke	t	n/a
138.8375	0.12	277675	keystroke	i	n/a
138.9425	0.135	277885	keystroke	o	n/a
139.0325	0.09	278065	keystroke	n	n/a
139.1975	0.09	278395	keystroke	s	n/a
140.2025	0.045	280405	keystroke	Key.enter	n/a
140.252	21.117	280504	prompt	n/a	broadway executives institutes diamonds\n
141.1025	0.075	282205	keystroke	b	n/a
141.2825	0.105	282565	keystroke	r	n/a
141.4325	0.105	282865	keystroke	o	n/a
141.6125	0.0895	283225	keystroke	a	n/a
141.9425	0.09	283885	keystroke	d	n/a
142.257	0.105	284514	keystroke	w	n/a
142.437	0.1205	284874	keystroke	a	n/a
142.902	0.06	285804	keystroke	Key.space	n/a
143.277	0.09	286554	keystroke	Key.backspace	n/a
143.532	0.075	287064	keystroke	y	n/a
143.772	0.075	287544	keystroke	Key.space	n/a
143.967	0.075	287934	keystroke	e	n/a
145.152	0.09	290304	keystroke	x	n/a
146.832	0.09	293664	keystroke	e	n/a
149.805	0.012	299610	keystroke	c	n/a
149.922	0.075	299844	keystroke	u	n/a
150.132	0.09	300264	keystroke	t	n/a
150.252	0.09	300504	keystroke	i	n/a
150.417	0.12	300834	keystroke	v	n/a
150.597	0.09	301194	keystroke	e	n/a
150.732	0.075	301464	keystroke	Key.space	n/a
151.197	0.09	302394	keystroke	i	n/a
151.362	0.09	302724	keystroke	n	n/a
151.602	0.09	303204	keystroke	s	n/a
151.782	0.09	303564	keystroke	t	n/a
151.887	0.075	303774	keystroke	i	n/a
152.592	0.06	305184	keystroke	Key.backspace	n/a
152.742	0.075	305484	keystroke	Key.backspace	n/a
153.042	0.09	306084	keystroke	Key.backspace	n/a
153.222	0.075	306444	keystroke	Key.backspace	n/a
153.462	0.075	306924	keystroke	Key.backspace	n/a
153.687	0.075	307374	keystroke	Key.backspace	n/a
153.957	0.075	307914	keystroke	s	n/a
154.077	0.09	308154	keystroke	Key.space	n/a
154.947	0.075	309894	keystroke	i	n/a
155.113	0.075	310226	keystroke	n	n/a
155.802	0.105	311604	keystroke	s	n/a
155.967	0.12	311934	keystroke	t	n/a
156.147	0.091	312294	keystroke	i	n/a
156.462	0.09	312924	keystroke	t	n/a
156.567	0.075	313134	keystroke	u	n/a
157.797	0.075	315594	keystroke	t	n/a
157.947	0.09	315894	keystroke	e	n/a
158.173	0.089	316346	keystroke	s	n/a
158.322	0.075	316644	keystroke	Key.space	n/a
158.907	0.09	317814	keystroke	d	n/a
159.072	0.105	318144	keystroke	a	n/a
159.192	0.09	318384	keystroke	i	n/a
159.388	0.089	318776	keystroke	m	n/a
159.582	0.12	319164	keystroke	o	n/a
159.672	0.105	319344	keystroke	n	n/a
160.257	0.06	320514	keystroke	d	n/a
160.467	0.105	320934	keystroke	s	n/a
161.307	0.06	322614	keystroke	Key.enter	n/a
161.372	12.402	322744	prompt	n/a	joan assess sequences angle\n
162.0575	0.075	324115	keystroke	j	n/a
162.2525	0.105	324505	keystroke	o	n/a
162.4935	0.089	324987	keystroke	a	n/a
162.6125	0.06	325225	keystroke	n	n/a
162.8385	0.074	325677	keystroke	Key.space	n/a
164.1435	0.074	328287	keystroke	a	n/a
164.3825	0.075	328765	keystroke	s	n/a
164.5485	0.044	329097	keystroke	s	n/a
164.6985	0.074	329397	keystroke	e	n/a
164.9825	0.06	329965	keystroke	s	n/a
165.1175	0.06	330235	keystroke	s	n/a
167.5505	0.001	335101	keystroke	Key.space	n/a
168.1485	0.074	336297	keystroke	s	n/a
168.7785	0.075	337557	keystroke	i	n/a
169.2125	0.09	338425	keystroke	Key.backspace	n/a
169.2885	0.09	338577	keystroke	e	n/a
169.7085	0.09	339417	keystroke	q	n/a
169.8885	0.09	339777	keystroke	u	n/a
170.1285	0.075	340257	keystroke	e	n/a
170.3235	0.075	340647	keystroke	n	n/a
170.4585	0.135	340917	keystroke	c	n/a
170.6085	0.12	341217	keystroke	e	n/a
170.9085	0.06	341817	keystroke	s	n/a
170.9975	0.076	341995	keystroke	Key.space	n/a
171.3135	0.105	342627	keystroke	a	n/a
171.4635	0.045	342927	keystroke	n	n/a
172.1385	0.06	344277	keystroke	g	n/a
172.4085	0.075	344817	keystroke	l	n/a
172.5285	0.075	345057	keystroke	e	n/a
173.7135	0.059	347427	keystroke	Key.enter	n/a
173.777	9.4475	347554	prompt	n/a	divorce mortality zoloft returns\n
174.6735	0.09	349347	keystroke	d	n/a
174.9585	0.075	349917	keystroke	i	n/a
175.1085	0.135	350217	keystroke	v	n/a
175.3485	0.09	350697	keystroke	o	n/a
175.5135	0.105	351027	keystroke	r	n/a
175.7835	0.15	351567	keystroke	c	n/a
175.9185	0.09	351837	keystroke	e	n/a
176.5035	0.06	353007	keystroke	Key.space	n/a
176.7585	0.075	353517	keystroke	m	n/a
176.9835	0.09	353967	keystroke	o	n/a
177.1785	0.075	354357	keystroke	r	n/a
177.4035	0.075	354807	keystroke	t	n/a
177.5985	0.09	355197	keystroke	a	n/a
177.7035	0.06	355407	keystroke	l	n/a
177.8535	0.09	355707	keystroke	i	n/a
177.9585	0.105	355917	keystroke	t	n/a
178.0935	0.06	356187	keystroke	y	n/a
178.3185	0.06	356637	keystroke	Key.space	n/a
178.6935	0.105	357387	keystroke	z	n/a
178.8735	0.09	357747	keystroke	o	n/a
179.0685	0.09	358137	keystroke	l	n/a
179.2635	0.09	358527	keystroke	o	n/a
179.4135	0.06	358827	keystroke	f	n/a
179.7435	0.09	359487	keystroke	t	n/a
180.3585	0.075	360717	keystroke	Key.space	n/a
180.6885	0.105	361377	keystroke	r	n/a
180.7335	0.105	361467	keystroke	e	n/a
181.1535	0.06	362307	keystroke	t	n/a
181.2585	0.09	362517	keystroke	u	n/a
181.3635	0.135	362727	keystroke	r	n/a
182.1135	0.075	364227	keystroke	n	n/a
182.2335	0.09	364467	keystroke	s	n/a
183.1485	0.075	366297	keystroke	Key.enter	n/a
183.2285	9.8205	366457	prompt	n/a	adelaide adrian disorder rivers\n
184.3185	0.09	368637	keystroke	a	n/a
184.4985	0.105	368997	keystroke	d	n/a
184.7085	0.075	369417	keystroke	e	n/a
184.8885	0.105	369777	keystroke	l	n/a
185.1135	0.105	370227	keystroke	a	n/a
185.8785	0.09	371757	keystroke	i	n/a
186.0135	0.0895	372027	keystroke	d	n/a
186.193	0.09	372386	keystroke	e	n/a
186.373	0.075	372746	keystroke	Key.space	n/a
186.838	0.12	373676	keystroke	a	n/a
187.033	0.105	374066	keystroke	d	n/a
187.348	0.09	374696	keystroke	r	n/a
187.573	0.075	375146	keystroke	i	n/a
187.708	0.12	375416	keystroke	a	n/a
187.828	0.075	375656	keystroke	n	n/a
188.023	0.075	376046	keystroke	Key.space	n/a
188.458	0.075	376916	keystroke	d	n/a
188.608	0.105	377216	keystroke	i	n/a
188.773	0.075	377546	keystroke	s	n/a
189.028	0.09	378056	keystroke	o	n/a
189.193	0.09	378386	keystroke	r	n/a
189.778	0.06	379556	keystroke	d	n/a
189.958	0.135	379916	keystroke	e	n/a
190.048	0.09	380096	keystroke	r	n/a
190.363	0.075	380726	keystroke	Key.space	n/a
190.678	0.12	381356	keystroke	r	n/a
190.753	0.09	381506	keystroke	e	n/a
190.993	0.09	381986	keystroke	v	n/a
191.188	0.165	382376	keystroke	e	n/a
191.293	0.105	382586	keystroke	r	n/a
191.563	0.075	383126	keystroke	s	n/a
192.973	0.075	385946	keystroke	Key.enter	n/a
193.0515	13.0025	386103	prompt	n/a	maintain magnificent tumor confirmed\n
194.053	0.075	388106	keystroke	m	n/a
194.173	0.12	388346	keystroke	a	n/a
194.308	0.09	388616	keystroke	i	n/a
194.443	0.09	388886	keystroke	n	n/a
194.863	0.075	389726	keystroke	t	n/a
194.983	0.135	389966	keystroke	i	n/a
195.118	0.09	390236	keystroke	n	n/a
195.223	0.135	390446	keystroke	a	n/a
195.808	0.06	391616	keystroke	Key.backspace	n/a
195.943	0.09	391886	keystroke	Key.backspace	n/a
196.303	0.09	392606	keystroke	Key.backspace	n/a
196.498	0.12	392996	keystroke	a	n/a
196.603	0.15	393206	keystroke	i	n/a
196.738	0.075	393476	keystroke	n	n/a
197.278	0.075	394556	keystroke	Key.space	n/a
197.743	0.06	395486	keystroke	m	n/a
197.863	0.135	395726	keystroke	a	n/a
198.343	0.075	396686	keystroke	g	n/a
198.598	0.075	397196	keystroke	n	n/a
198.793	0.075	397586	keystroke	i	n/a
199.153	0.045	398306	keystroke	f	n/a
199.708	0.06	399416	keystroke	i	n/a
199.888	0.09	399776	keystroke	c	n/a
200.323	0.06	400646	keystroke	e	n/a
200.443	0.075	400886	keystroke	n	n/a
200.548	0.105	401096	keystroke	t	n/a
200.953	0.06	401906	keystroke	Key.space	n/a
201.253	0.075	402506	keystroke	t	n/a
201.928	0.105	403856	keystroke	u	n/a
202.423	0.075	404846	keystroke	m	n/a
202.648	0.075	405296	keystroke	o	n/a
202.858	0.09	405716	keystroke	r	n/a
203.113	0.075	406226	keystroke	Key.space	n/a
203.473	0.075	406946	keystroke	c	n/a
203.563	0.105	407126	keystroke	o	n/a
203.593	0.135	407186	keystroke	n	n/a
203.908	0.075	407816	keystroke	f	n/a
204.433	0.075	408866	keystroke	i	n/a
204.583	0.09	409166	keystroke	r	n/a
204.703	0.09	409406	keystroke	m	n/a
204.868	0.09	409736	keystroke	e	n/a
205.078	0.09	410156	keystroke	d	n/a
205.993	0.06	411986	keystroke	Key.enter	n/a
206.057	7.467	412114	prompt	n/a	bacterial prevent tubes nokia\n
206.908	0.075	413816	keystroke	b	n/a
207.103	0.12	414206	keystroke	a	n/a
207.313	0.105	414626	keystroke	t	n/a
207.823	0.06	415646	keystroke	Key.backspace	n/a
207.898	0.09	415796	keystroke	c	n/a
208.168	0.105	416336	keystroke	t	n/a
208.393	0.15	416786	keystroke	e	n/a
208.468	0.105	416936	keystroke	r	n/a
208.723	0.0745	417446	keystroke	i	n/a
208.8425	0.09	417685	keystroke	a	n/a
208.9475	0.09	417895	keystroke	l	n/a
209.0975	0.09	418195	keystroke	Key.space	n/a
209.4425	0.075	418885	keystroke	p	n/a
209.5325	0.12	419065	keystroke	r	n/a
209.5925	0.105	419185	keystroke	e	n/a
209.8325	0.09	419665	keystroke	v	n/a
209.9975	0.09	419995	keystroke	e	n/a
210.1325	0.075	420265	keystroke	n	n/a
210.3725	0.016	420745	keystroke	t	n/a
210.4025	0.06	420805	keystroke	Key.space	n/a
210.8835	0.074	421767	keystroke	t	n/a
211.0035	0.074	422007	keystroke	u	n/a
211.2275	0.09	422455	keystroke	b	n/a
211.3625	0.09	422725	keystroke	e	n/a
211.5575	0.09	423115	keystroke	s	n/a
211.6325	0.075	423265	keystroke	Key.space	n/a
211.9625	0.06	423925	keystroke	n	n/a
212.1875	0.076	424375	keystroke	o	n/a
212.4275	0.06	424855	keystroke	k	n/a
212.6075	0.09	425215	keystroke	i	n/a
212.7275	0.12	425455	keystroke	a	n/a
213.4475	0.075	426895	keystroke	Key.enter	n/a
213.527	7.962	427054	prompt	n/a	origins all seller he's\n
214.2275	0.091	428455	keystroke	o	n/a
214.4225	0.06	428845	keystroke	r	n/a
215.1425	0.06	430285	keystroke	i	n/a
215.8335	0.044	431667	keystroke	g	n/a
215.9835	0.134	431967	keystroke	i	n/a
216.2975	0.076	432595	keystroke	n	n/a
216.4775	0.075	432955	keystroke	s	n/a
216.8825	0.075	433765	keystroke	Key.space	n/a
217.3475	0.09	434695	keystroke	a	n/a
217.4975	0.061	434995	keystroke	l	n/a
217.6335	0.089	435267	keystroke	l	n/a
217.7675	0.105	435535	keystroke	Key.space	n/a
217.9625	0.09	435925	keystroke	s	n/a
218.2035	0.074	436407	keystroke	e	n/a
218.4425	0.06	436885	keystroke	l	n/a
218.5775	0.091	437155	keystroke	l	n/a
218.7135	0.15	437427	keystroke	e	n/a
218.8175	0.091	437635	keystroke	r	n/a
218.9525	0.075	437905	keystroke	Key.space	n/a
219.3135	0.075	438627	keystroke	h	n/a
219.4335	0.075	438867	keystroke	e	n/a
219.5835	0.089	439167	keystroke	'	n/a
219.7485	0.074	439497	keystroke	s	n/a
219.8675	0.075	439735	keystroke	Key.space	n/a
221.1425	0.06	442285	keystroke	Key.backspace	n/a
221.4125	0.075	442825	keystroke	Key.enter	n/a
221.4955	11.6785	442991	prompt	n/a	inventory experts disk effects\n
223.0185	0.09	446037	keystroke	i	n/a
223.1985	0.075	446397	keystroke	n	n/a
223.2735	0.105	446547	keystroke	v	n/a
223.4985	0.18	446997	keystroke	e	n/a
224.0685	0.075	448137	keystroke	n	n/a
224.2335	0.09	448467	keystroke	t	n/a
224.3535	0.105	448707	keystroke	o	n/a
224.4735	0.0895	448947	keystroke	r	n/a
224.608	0.0605	449216	keystroke	y	n/a
224.8335	0.09	449667	keystroke	Key.space	n/a
225.073	0.045	450146	keystroke	e	n/a
225.4335	0.075	450867	keystroke	p	n/a
225.8385	0.075	451677	keystroke	Key.backspace	n/a
226.2735	0.075	452547	keystroke	x	n/a
226.5285	0.075	453057	keystroke	p	n/a
226.7085	0.135	453417	keystroke	e	n/a
226.7685	0.12	453537	keystroke	r	n/a
227.0685	0.075	454137	keystroke	t	n/a
227.2635	0.075	454527	keystroke	s	n/a
227.3835	0.075	454767	keystroke	Key.space	n/a
227.8635	0.06	455727	keystroke	d	n/a
227.9985	0.165	455997	keystroke	i	n/a
228.7635	0.075	457527	keystroke	s	n/a
228.8835	0.075	457767	keystroke	k	n/a
229.4835	0.06	458967	keystroke	Key.space	n/a
229.7085	0.075	459417	keystroke	e	n/a
230.0085	0.03	460017	keystroke	f	n/a
230.1135	0.06	460227	keystroke	f	n/a
230.4735	0.03	460947	keystroke	c	n/a
230.8785	0.075	461757	keystroke	Key.backspace	n/a
230.9535	0.105	461907	keystroke	e	n/a
231.1035	0.21	462207	keystroke	c	n/a
231.4935	0.12	462987	keystroke	t	n/a
231.8235	0.075	463647	keystroke	s	n/a
233.113	0.06	466226	keystroke	Key.enter	n/a
233.177	10.2865	466354	prompt	n/a	pearl belize christmas bags\n
233.9085	0.09	467817	keystroke	p	n/a
234.1335	0.1045	468267	keystroke	e	n/a
234.388	0.15	468776	keystroke	a	n/a
234.658	0.075	469316	keystroke	r	n/a
234.8385	0.0895	469677	keystroke	l	n/a
235.078	0.075	470156	keystroke	Key.space	n/a
235.558	0.045	471116	keystroke	b	n/a
236.098	0.06	472196	keystroke	e	n/a
236.218	0.105	472436	keystroke	l	n/a
236.398	0.09	472796	keystroke	i	n/a
237.898	0.075	475796	keystroke	z	n/a
238.213	0.075	476426	keystroke	e	n/a
238.453	0.075	476906	keystroke	Key.space	n/a
239.293	0.075	478586	keystroke	c	n/a
239.608	0.075	479216	keystroke	h	n/a
239.788	0.09	479576	keystroke	r	n/a
239.923	0.09	479846	keystroke	i	n/a
240.073	0.105	480146	keystroke	s	n/a
240.208	0.105	480416	keystroke	t	n/a
240.463	0.075	480926	keystroke	m	n/a
240.568	0.105	481136	keystroke	a	n/a
240.913	0.09	481826	keystroke	s	n/a
241.138	0.06	482276	keystroke	Key.space	n/a
241.468	0.075	482936	keystroke	b	n/a
241.558	0.09	483116	keystroke	a	n/a
242.3075	0.09	484615	keystroke	g	n/a
242.5775	0.09	485155	keystroke	s	n/a
243.3875	0.075	486775	keystroke	Key.enter	n/a
243.4665	11.172	486933	prompt	n/a	offset scientist opening heart\n
244.1975	0.09	488395	keystroke	o	n/a
244.3925	0.045	488785	keystroke	f	n/a
244.5125	0.075	489025	keystroke	f	n/a
244.6775	0.09	489355	keystroke	e	n/a
245.1575	0.075	490315	keystroke	Key.backspace	n/a
245.2475	0.105	490495	keystroke	s	n/a
245.6675	0.105	491335	keystroke	e	n/a
245.8775	0.06	491755	keystroke	t	n/a
245.9975	0.075	491995	keystroke	Key.space	n/a
246.2375	0.09	492475	keystroke	s	n/a
246.4175	0.105	492835	keystroke	c	n/a
247.0475	0.09	494095	keystroke	i	n/a
247.2275	0.075	494455	keystroke	e	n/a
247.3625	0.075	494725	keystroke	n	n/a
247.6775	0.075	495355	keystroke	t	n/a
247.7375	0.075	495475	keystroke	i	n/a
247.9175	0.135	495835	keystroke	s	n/a
248.0825	0.105	496165	keystroke	t	n/a
248.3375	0.075	496675	keystroke	Key.space	n/a
248.8325	0.075	497665	keystroke	o	n/a
249.0125	0.075	498025	keystroke	p	n/a
249.1175	0.075	498235	keystroke	e	n/a
249.2525	0.09	498505	keystroke	n	n/a
249.4775	0.12	498955	keystroke	i	n/a
249.5825	0.09	499165	keystroke	n	n/a
249.7025	0.075	499405	keystroke	g	n/a
249.8825	0.075	499765	keystroke	Key.space	n/a
250.7075	0.045	501415	keystroke	h	n/a
251.4275	0.09	502855	keystroke	e	n/a
252.1475	0.105	504295	keystroke	a	n/a
253.1675	0.09	506335	keystroke	r	n/a
253.3475	0.09	506695	keystroke	t	n/a
254.5625	0.075	509125	keystroke	Key.enter	n/a
254.642	10.1215	509284	prompt	n/a	watching court determine coordinator\n
255.4625	0.09	510925	keystroke	w	n/a
255.6725	0.135	511345	keystroke	a	n/a
255.9425	0.105	511885	keystroke	t	n/a
256.2275	0.09	512455	keystroke	c	n/a
256.3625	0.09	512725	keystroke	h	n/a
256.4375	0.15	512875	keystroke	i	n/a
256.6025	0.105	513205	keystroke	n	n/a
256.7225	0.09	513445	keystroke	g	n/a
256.8575	0.075	513715	keystroke	Key.space	n/a
257.1425	0.075	514285	keystroke	c	n/a
257.2775	0.12	514555	keystroke	o	n/a
257.3525	0.12	514705	keystroke	u	n/a
257.5175	0.105	515035	keystroke	r	n/a
257.7275	0.075	515455	keystroke	t	n/a
257.9075	0.075	515815	keystroke	Key.space	n/a
258.3725	0.06	516745	keystroke	d	n/a
258.5825	0.09	517165	keystroke	e	n/a
258.7925	0.09	517585	keystroke	t	n/a
258.9425	0.165	517885	keystroke	e	n/a
260.3525	0.09	520705	keystroke	r	n/a
260.5925	0.09	521185	keystroke	m	n/a
260.7725	0.12	521545	keystroke	i	n/a
260.8775	0.09	521755	keystroke	n	n/a
261.0125	0.09	522025	keystroke	e	n/a
261.7625	0.075	523525	keystroke	Key.space	n/a
261.9575	0.09	523915	keystroke	c	n/a
262.2125	0.075	524425	keystroke	o	n/a
262.3475	0.09	524695	keystroke	o	n/a
262.5575	0.075	525115	keystroke	r	n/a
262.7825	0.105	525565	keystroke	d	n/a
262.9625	0.09	525925	keystroke	i	n/a
263.2625	0.075	526525	keystroke	n	n/a
263.4125	0.105	526825	keystroke	a	n/a
263.5475	0.105	527095	keystroke	t	n/a
263.6825	0.105	527365	keystroke	o	n/a
263.8325	0.075	527665	keystroke	r	n/a
264.7025	0.06	529405	keystroke	Key.enter	n/a
264.7675	11.187	529535	prompt	n/a	acrylic recovered cope katrina\n
265.9475	0.12	531895	keystroke	a	n/a
266.0975	0.105	532195	keystroke	c	n/a
266.4275	0.09	532855	keystroke	r	n/a
266.6975	0.06	533395	keystroke	y	n/a
268.7225	0.09	537445	keystroke	l	n/a
269.0225	0.075	538045	keystroke	i	n/a
269.1575	0.09	538315	keystroke	c	n/a
269.3525	0.075	538705	keystroke	Key.space	n/a
269.9225	0.12	539845	keystroke	r	n/a
269.9975	0.09	539995	keystroke	e	n/a
270.3125	0.09	540625	keystroke	v	n/a
270.8825	0.06	541765	keystroke	o	n/a
271.2275	0.06	542455	keystroke	Key.backspace	n/a
271.3775	0.075	542755	keystroke	Key.backspace	n/a
271.5875	0.09	543175	keystroke	c	n/a
271.7975	0.06	543595	keystroke	o	n/a
272.1425	0.075	544285	keystroke	v	n/a
272.3375	0.135	544675	keystroke	e	n/a
272.4275	0.165	544855	keystroke	r	n/a
272.5775	0.075	545155	keystroke	e	n/a
272.7275	0.105	545455	keystroke	d	n/a
272.8925	0.075	545785	keystroke	Key.space	n/a
273.6875	0.06	547375	keystroke	c	n/a
273.8075	0.09	547615	keystroke	o	n/a
273.9875	0.09	547975	keystroke	p	n/a
274.1075	0.075	548215	keystroke	e	n/a
274.2275	0.09	548455	keystroke	Key.space	n/a
274.5875	0.09	549175	keystroke	k	n/a
274.6925	0.12	549385	keystroke	a	n/a
274.8725	0.105	549745	keystroke	t	n/a
275.1125	0.06	550225	keystroke	r	n/a
275.2475	0.09	550495	keystroke	i	n/a
275.4425	0.075	550885	keystroke	n	n/a
275.6375	0.09	551275	keystroke	a	n/a
275.8775	0.075	551755	keystroke	Key.enter	n/a
275.9575	11.1415	551915	prompt	n/a	salaries gilbert restoration object\n
276.9725	0.09	553945	keystroke	s	n/a
277.1525	0.105	554305	keystroke	a	n/a
277.3025	0.09	554605	keystroke	l	n/a
277.5725	0.09	555145	keystroke	a	n/a
277.7375	0.09	555475	keystroke	r	n/a
277.9325	0.09	555865	keystroke	i	n/a
278.1575	0.06	556315	keystroke	e	n/a
278.4275	0.045	556855	keystroke	s	n/a
278.6525	0.075	557305	keystroke	Key.space	n/a
279.4775	0.06	558955	keystroke	g	n/a
279.5975	0.105	559195	keystroke	i	n/a
279.8075	0.09	559615	keystroke	l	n/a
280.0175	0.075	560035	keystroke	b	n/a
280.1675	0.135	560335	keystroke	e	n/a
280.2575	0.075	560515	keystroke	r	n/a
280.5125	0.075	561025	keystroke	Key.space	n/a
281.7275	0.09	563455	keystroke	Key.backspace	n/a
281.8775	0.075	563755	keystroke	t	n/a
282.1475	0.075	564295	keystroke	Key.space	n/a
282.5525	0.105	565105	keystroke	r	n/a
282.6575	0.09	565315	keystroke	e	n/a
282.9125	0.105	565825	keystroke	s	n/a
283.0625	0.105	566125	keystroke	t	n/a
283.2125	0.09	566425	keystroke	o	n/a
283.4975	0.075	566995	keystroke	r	n/a
283.6925	0.105	567385	keystroke	a	n/a
283.8575	0.09	567715	keystroke	t	n/a
283.9175	0.105	567835	keystroke	i	n/a
284.0375	0.105	568075	keystroke	o	n/a
284.0825	0.105	568165	keystroke	n	n/a
284.3075	0.09	568615	keystroke	Key.space	n/a
285.2525	0.075	570505	keystroke	o	n/a
285.3875	0.105	570775	keystroke	b	n/a
285.7325	0.075	571465	keystroke	j	n/a
285.8675	0.075	571735	keystroke	e	n/a
286.0625	0.09	572125	keystroke	c	n/a
286.3175	0.075	572635	keystroke	t	n/a
287.0225	0.075	574045	keystroke	Key.enter	n/a
287.102	15.987	574204	prompt	n/a	jewel coordinator surfaces specified\n
288.6575	0.09	577315	keystroke	j	n/a
288.7925	0.12	577585	keystroke	e	n/a
289.0775	0.12	578155	keystroke	r	n/a
289.6775	0.06	579355	keystroke	Key.backspace	n/a
289.7975	0.105	579595	keystroke	w	n/a
289.9775	0.225	579955	keystroke	e	n/a
290.7125	0.06	581425	keystroke	l	n/a
290.9225	0.06	581845	keystroke	Key.space	n/a
291.8075	0.075	583615	keystroke	c	n/a
292.0475	0.075	584095	keystroke	o	n/a
292.1825	0.09	584365	keystroke	o	n/a
292.3325	0.105	584665	keystroke	r	n/a
292.6175	0.105	585235	keystroke	d	n/a
292.8275	0.09	585655	keystroke	i	n/a
293.0225	0.09	586045	keystroke	n	n/a
293.2025	0.105	586405	keystroke	a	n/a
293.3525	0.15	586705	keystroke	t	n/a
293.5175	0.09	587035	keystroke	o	n/a
293.6825	0.09	587365	keystroke	r	n/a
293.7575	0.09	587515	keystroke	Key.space	n/a
294.7025	0.105	589405	keystroke	s	n/a
294.8525	0.09	589705	keystroke	u	n/a
295.0325	0.075	590065	keystroke	r	n/a
295.6325	0.06	591265	keystroke	f	n/a
295.8575	0.15	591715	keystroke	a	n/a
296.0225	0.165	592045	keystroke	c	n/a
296.1575	0.12	592315	keystroke	e	n/a
296.3975	0.105	592795	keystroke	s	n/a
296.5775	0.075	593155	keystroke	Key.space	n/a
297.0125	0.075	594025	keystroke	s	n/a
297.1625	0.09	594325	keystroke	p	n/a
297.3125	0.075	594625	keystroke	e	n/a
297.5225	0.12	595045	keystroke	c	n/a
297.7025	0.09	595405	keystroke	i	n/a
297.8975	0.09	595795	keystroke	d	n/a
298.0175	0.09	596035	keystroke	i	n/a
298.1975	0.12	596395	keystroke	e	n/a
299.0675	0.03	598135	keystroke	Key.backspace	n/a
300.0575	0.045	600115	keystroke	Key.backspace	n/a
300.1925	0.075	600385	keystroke	Key.backspace	n/a
301.1375	0.06	602275	keystroke	f	n/a
301.3325	0.075	602665	keystroke	i	n/a
301.4675	0.09	602935	keystroke	e	n/a
301.6625	0.135	603325	keystroke	d	n/a
303.0125	0.075	606025	keystroke	Key.enter	n/a
303.092	8.683	606184	prompt	n/a	phrases janet societies ever\n
303.8375	0.075	607675	keystroke	p	n/a
304.0625	0.075	608125	keystroke	h	n/a
304.4225	0.09	608845	keystroke	r	n/a
304.6625	0.15	609325	keystroke	a	n/a
304.9325	0.15	609865	keystroke	s	n/a
305.1575	0.135	610315	keystroke	e	n/a
305.3525	0.12	610705	keystroke	s	n/a
305.6975	0.06	611395	keystroke	Key.space	n/a
306.0875	0.075	612175	keystroke	j	n/a
306.2825	0.135	612565	keystroke	a	n/a
306.4185	0.074	612837	keystroke	n	n/a
306.7325	0.105	613465	keystroke	e	n/a
306.8975	0.09	613795	keystroke	t	n/a
306.9875	0.09	613975	keystroke	Key.space	n/a
307.2575	0.075	614515	keystroke	s	n/a
308.1125	0.075	616225	keystroke	o	n/a
308.2325	0.09	616465	keystroke	c	n/a
308.4575	0.075	616915	keystroke	i	n/a
309.1325	0.105	618265	keystroke	e	n/a
309.3725	0.09	618745	keystroke	t	n/a
309.5375	0.09	619075	keystroke	i	n/a
309.6575	0.105	619315	keystroke	e	n/a
309.8675	0.105	619735	keystroke	s	n/a
310.0175	0.075	620035	keystroke	Key.space	n/a
310.5125	0.09	621025	keystroke	e	n/a
310.6775	0.09	621355	keystroke	v	n/a
310.8125	0.18	621625	keystroke	e	n/a
310.9325	0.121	621865	keystroke	r	n/a
311.6975	0.075	623395	keystroke	Key.enter	n/a
311.7775	14.0215	623555	prompt	n/a	philosophy zone associate nathan\n
312.4035	0.089	624807	keystroke	p	n/a
312.5975	0.075	625195	keystroke	h	n/a
312.7775	0.076	625555	keystroke	i	n/a
312.9725	0.09	625945	keystroke	l	n/a
313.1525	0.076	626305	keystroke	o	n/a
313.3175	0.09	626635	keystroke	s	n/a
313.5275	0.091	627055	keystroke	p	n/a
313.7675	0.075	627535	keystroke	h	n/a
314.9675	0.06	629935	keystroke	y	n/a
315.4925	0.06	630985	keystroke	Key.space	n/a
316.8725	0.09	633745	keystroke	Key.backspace	n/a
317.0525	0.075	634105	keystroke	Key.backspace	n/a
317.3075	0.015	634615	keystroke	Key.backspace	n/a
318.1625	0.06	636325	keystroke	Key.backspace	n/a
318.6135	0.09	637227	keystroke	o	n/a
318.8535	0.09	637707	keystroke	p	n/a
319.0785	0.075	638157	keystroke	h	n/a
319.2875	0.061	638575	keystroke	y	n/a
319.5575	0.06	639115	keystroke	Key.space	n/a
320.5625	0.12	641125	keystroke	o	n/a
320.6525	0.075	641305	keystroke	n	n/a
321.0415	0.06	642083	keystroke	Key.backspace	n/a
321.1765	0.091	642353	keystroke	Key.backspace	n/a
321.2985	0.105	642597	keystroke	z	n/a
321.4485	0.09	642897	keystroke	o	n/a
321.4635	0.135	642927	keystroke	n	n/a
321.6135	0.089	643227	keystroke	e	n/a
321.8365	0.06	643673	keystroke	Key.space	n/a
322.5875	0.105	645175	keystroke	a	n/a
322.8275	0.075	645655	keystroke	s	n/a
322.9475	0.09	645895	keystroke	s	n/a
323.0975	0.09	646195	keystroke	o	n/a
323.2025	0.09	646405	keystroke	c	n/a
323.3975	0.075	646795	keystroke	i	n/a
323.6375	0.12	647275	keystroke	a	n/a
323.8325	0.12	647665	keystroke	t	n/a
323.9975	0.105	647995	keystroke	e	n/a
324.1625	0.074	648325	keystroke	Key.space	n/a
324.6425	0.09	649285	keystroke	n	n/a
324.8525	0.105	649705	keystroke	a	n/a
325.0325	0.09	650065	keystroke	t	n/a
325.1375	0.075	650275	keystroke	h	n/a
325.3625	0.09	650725	keystroke	a	n/a
325.4675	0.075	650935	keystroke	n	n/a
325.7525	0.045	651505	keystroke	Key.enter	n/a
325.8025	10.166	651605	prompt	n/a	reductions highlight herein theater\n
326.5175	0.105	653035	keystroke	r	n/a
326.5925	0.09	653185	keystroke	e	n/a
327.0275	0.075	654055	keystroke	d	n/a
327.3125	0.075	654625	keystroke	u	n/a
327.4325	0.09	654865	keystroke	c	n/a
327.6725	0.12	655345	keystroke	t	n/a
327.7475	0.12	655495	keystroke	i	n/a
327.8375	0.135	655675	keystroke	o	n/a
327.9275	0.09	655855	keystroke	n	n/a
328.0775	0.075	656155	keystroke	s	n/a
328.2125	0.075	656425	keystroke	Key.space	n/a
328.7675	0.06	657535	keystroke	h	n/a
328.9175	0.075	657835	keystroke	i	n/a
329.0825	0.06	658165	keystroke	g	n/a
329.1575	0.075	658315	keystroke	h	n/a
329.4275	0.06	658855	keystroke	l	n/a
329.5925	0.075	659185	keystroke	i	n/a
329.7875	0.06	659575	keystroke	g	n/a
329.8625	0.075	659725	keystroke	h	n/a
330.0725	0.06	660145	keystroke	Key.space	n/a
331.1075	0.075	662215	keystroke	Key.backspace	n/a
331.2575	0.075	662515	keystroke	t	n/a
331.4375	0.105	662875	keystroke	Key.space	n/a
332.1725	0.075	664345	keystroke	h	n/a
332.3225	0.15	664645	keystroke	e	n/a
332.5175	0.12	665035	keystroke	r	n/a
333.0575	0.075	666115	keystroke	e	n/a
333.1775	0.09	666355	keystroke	i	n/a
333.3275	0.09	666655	keystroke	n	n/a
333.6125	0.06	667225	keystroke	Key.space	n/a
334.1825	0.075	668365	keystroke	t	n/a
334.2725	0.075	668545	keystroke	h	n/a
334.4525	0.105	668905	keystroke	e	n/a
334.7075	0.12	669415	keystroke	a	n/a
334.8875	0.105	669775	keystroke	t	n/a
335.0975	0.15	670195	keystroke	e	n/a
335.1875	0.09	670375	keystroke	r	n/a
335.9075	0.06	671815	keystroke	Key.enter	n/a
335.9715	5.982	671943	prompt	n/a	stable hart carter pressed\n
336.6725	0.075	673345	keystroke	s	n/a
336.9275	0.09	673855	keystroke	t	n/a
337.0925	0.12	674185	keystroke	a	n/a
337.2425	0.075	674485	keystroke	b	n/a
337.4075	0.09	674815	keystroke	l	n/a
337.5275	0.06	675055	keystroke	e	n/a
337.5725	0.105	675145	keystroke	Key.space	n/a
337.8275	0.075	675655	keystroke	h	n/a
337.9175	0.12	675835	keystroke	a	n/a
338.0525	0.105	676105	keystroke	r	n/a
338.2625	0.075	676525	keystroke	t	n/a
338.3975	0.09	676795	keystroke	Key.space	n/a
338.7875	0.075	677575	keystroke	c	n/a
338.9375	0.135	677875	keystroke	a	n/a
339.1175	0.105	678235	keystroke	r	n/a
339.3275	0.105	678655	keystroke	t	n/a
339.4625	0.21	678925	keystroke	e	n/a
339.5975	0.12	679195	keystroke	r	n/a
339.8375	0.075	679675	keystroke	Key.space	n/a
340.0625	0.09	680125	keystroke	p	n/a
340.2125	0.135	680425	keystroke	r	n/a
340.3175	0.105	680635	keystroke	e	n/a
340.6025	0.06	681205	keystroke	s	n/a
340.7525	0.06	681505	keystroke	s	n/a
340.9175	0.09	681835	keystroke	e	n/a
341.1275	0.105	682255	keystroke	d	n/a
341.8925	0.06	683785	keystroke	Key.enter	n/a
341.9585	20.545	683917	prompt	n/a	technique helped here frequency\n
342.7025	0.105	685405	keystroke	t	n/a
342.8675	0.105	685735	keystroke	e	n/a
343.1225	0.075	686245	keystroke	c	n/a
343.2725	0.075	686545	keystroke	h	n/a
343.4375	0.105	686875	keystroke	i	n/a
343.5725	0.105	687145	keystroke	n	n/a
343.8425	0.06	687685	keystroke	u	n/a
344.3375	0.045	688675	keystroke	Key.backspace	n/a
344.5475	0.075	689095	keystroke	i	n/a
345.8525	0.09	691705	keystroke	q	n/a
346.0175	0.075	692035	keystroke	u	n/a
346.2425	0.09	692485	keystroke	e	n/a
346.5275	0.075	693055	keystroke	Key.space	n/a
346.8875	0.075	693775	keystroke	h	n/a
347.1125	0.06	694225	keystroke	e	n/a
348.0425	0.075	696085	keystroke	Key.backspace	n/a
348.1925	0.075	696385	keystroke	Key.backspace	n/a
348.5075	0.075	697015	keystroke	Key.backspace	n/a
348.7025	0.075	697405	keystroke	Key.backspace	n/a
349.0475	0.06	698095	keystroke	Key.backspace	n/a
350.0825	0.06	700165	keystroke	Key.backspace	n/a
351.7475	0.075	703495	keystroke	Key.backspace	n/a
351.9125	0.06	703825	keystroke	Key.backspace	n/a
352.1975	0.06	704395	keystroke	Key.backspace	n/a
353.0075	0.06	706015	keystroke	n	n/a
353.2025	0.06	706405	keystroke	i	n/a
353.6225	0.045	707245	keystroke	w	n/a
353.7125	0.075	707425	keystroke	u	n/a
354.3575	0.06	708715	keystroke	Key.backspace	n/a
354.5075	0.075	709015	keystroke	Key.backspace	n/a
355.3175	0.09	710635	keystroke	q	n/a
355.5125	0.075	711025	keystroke	u	n/a
355.7375	0.09	711475	keystroke	e	n/a
355.9475	0.075	711895	keystroke	Key.space	n/a
356.9375	0.075	713875	keystroke	h	n/a
357.1025	0.06	714205	keystroke	e	n/a
357.2225	0.075	714445	keystroke	l	n/a
357.3725	0.12	714745	keystroke	p	n/a
357.4775	0.075	714955	keystroke	e	n/a
357.6575	0.09	715315	keystroke	d	n/a
357.7625	0.075	715525	keystroke	Key.space	n/a
358.0775	0.09	716155	keystroke	h	n/a
358.1825	0.135	716365	keystroke	e	n/a
358.2875	0.15	716575	keystroke	r	n/a
358.4075	0.105	716815	keystroke	e	n/a
358.5275	0.09	717055	keystroke	Key.space	n/a
359.0225	0.045	718045	keystroke	f	n/a
359.2025	0.135	718405	keystroke	r	n/a
359.3525	0.09	718705	keystroke	e	n/a
359.6975	0.09	719395	keystroke	q	n/a
359.9375	0.075	719875	keystroke	u	n/a
360.6275	0.105	721255	keystroke	e	n/a
361.1075	0.06	722215	keystroke	n	n/a
361.2425	0.105	722485	keystroke	c	n/a
361.5125	0.075	723025	keystroke	y	n/a
362.4425	0.06	724885	keystroke	Key.enter	n/a
362.5065	7.947	725013	prompt	n/a	written carl clear hack\n
363.2975	0.09	726595	keystroke	w	n/a
363.8375	0.09	727675	keystroke	r	n/a
364.4825	0.06	728965	keystroke	i	n/a
364.6925	0.06	729385	keystroke	t	n/a
364.8125	0.09	729625	keystroke	t	n/a
364.9775	0.18	729955	keystroke	e	n/a
365.3075	0.06	730615	keystroke	n	n/a
365.5175	0.075	731035	keystroke	Key.space	n/a
365.8325	0.09	731665	keystroke	c	n/a
366.0875	0.135	732175	keystroke	a	n/a
366.2675	0.09	732535	keystroke	r	n/a
366.4625	0.075	732925	keystroke	l	n/a
366.5975	0.105	733195	keystroke	Key.space	n/a
366.8375	0.09	733675	keystroke	c	n/a
366.9725	0.09	733945	keystroke	l	n/a
367.0775	0.165	734155	keystroke	e	n/a
367.1675	0.12	734335	keystroke	r	n/a
367.4975	0.09	734995	keystroke	Key.space	n/a
368.0375	0.075	736075	keystroke	Key.backspace	n/a
368.1875	0.09	736375	keystroke	Key.backspace	n/a
368.3375	0.165	736675	keystroke	a	n/a
368.5925	0.09	737185	keystroke	r	n/a
368.8025	0.075	737605	keystroke	Key.space	n/a
369.2225	0.06	738445	keystroke	h	n/a
369.2975	0.09	738595	keystroke	a	n/a
369.5225	0.09	739045	keystroke	c	n/a
369.6275	0.09	739255	keystroke	k	n/a
370.3775	0.075	740755	keystroke	Key.enter	n/a
370.4565	11.5625	740913	prompt	n/a	curious except recognition acres\n
371.1875	0.075	742375	keystroke	c	n/a
371.5175	0.075	743035	keystroke	u	n/a
371.7575	0.105	743515	keystroke	r	n/a
371.9225	0.105	743845	keystroke	i	n/a
371.9675	0.165	743935	keystroke	o	n/a
372.2975	0.075	744595	keystroke	s	n/a
373.4075	0.045	746815	keystroke	Key.backspace	n/a
373.6175	0.015	747235	keystroke	Key.backspace	n/a
375.1475	0.06	750295	keystroke	o	n/a
375.3425	0.06	750685	keystroke	u	n/a
375.5225	0.105	751045	keystroke	s	n/a
375.6725	0.075	751345	keystroke	Key.space	n/a
376.3775	0.075	752755	keystroke	e	n/a
376.6325	0.135	753265	keystroke	x	n/a
376.9625	0.09	753925	keystroke	c	n/a
377.2475	0.09	754495	keystroke	e	n/a
377.4425	0.075	754885	keystroke	p	n/a
377.5475	0.09	755095	keystroke	t	n/a
377.6975	0.09	755395	keystroke	Key.space	n/a
378.1475	0.12	756295	keystroke	r	n/a
378.2075	0.12	756415	keystroke	e	n/a
378.4925	0.105	756985	keystroke	c	n/a
378.6275	0.105	757255	keystroke	o	n/a
379.0775	0.06	758155	keystroke	g	n/a
379.4075	0.075	758815	keystroke	n	n/a
379.572	0.0905	759144	keystroke	i	n/a
379.8125	0.075	759625	keystroke	t	n/a
379.8725	0.135	759745	keystroke	i	n/a
379.9775	0.15	759955	keystroke	o	n/a
380.0825	0.075	760165	keystroke	n	n/a
380.3225	0.075	760645	keystroke	Key.space	n/a
380.6375	0.09	761275	keystroke	a	n/a
380.7875	0.105	761575	keystroke	c	n/a
381.0425	0.135	762085	keystroke	r	n/a
381.1475	0.12	762295	keystroke	e	n/a
381.3725	0.09	762745	keystroke	s	n/a
381.9425	0.075	763885	keystroke	Key.enter	n/a
382.0215	8.982	764043	prompt	n/a	funk donald cottages offshore\n
382.7975	0.09	765595	keystroke	f	n/a
382.9625	0.075	765925	keystroke	u	n/a
383.1425	0.09	766285	keystroke	n	n/a
383.3075	0.09	766615	keystroke	k	n/a
383.4575	0.105	766915	keystroke	Key.space	n/a
383.7875	0.075	767575	keystroke	d	n/a
383.8925	0.1045	767785	keystroke	o	n/a
384.0125	0.0895	768025	keystroke	n	n/a
384.267	0.0905	768534	keystroke	a	n/a
384.387	0.09	768774	keystroke	l	n/a
384.672	0.075	769344	keystroke	d	n/a
384.8225	0.0745	769645	keystroke	Key.space	n/a
385.197	0.0755	770394	keystroke	c	n/a
385.362	0.0755	770724	keystroke	o	n/a
385.677	0.075	771354	keystroke	t	n/a
385.842	0.045	771684	keystroke	t	n/a
386.037	0.12	772074	keystroke	a	n/a
386.262	0.15	772524	keystroke	c	n/a
386.472	0.09	772944	keystroke	e	n/a
386.847	0.075	773694	keystroke	s	n/a
387.312	0.075	774624	keystroke	Key.backspace	n/a
387.462	0.075	774924	keystroke	Key.backspace	n/a
387.612	0.075	775224	keystroke	Key.backspace	n/a
387.717	0.105	775434	keystroke	g	n/a
387.837	0.09	775674	keystroke	e	n/a
388.032	0.105	776064	keystroke	s	n/a
388.167	0.075	776334	keystroke	Key.space	n/a
389.127	0.09	778254	keystroke	o	n/a
389.322	0.03	778644	keystroke	f	n/a
389.457	0.045	778914	keystroke	f	n/a
389.607	0.09	779214	keystroke	s	n/a
389.712	0.09	779424	keystroke	h	n/a
389.862	0.12	779724	keystroke	o	n/a
390.072	0.105	780144	keystroke	r	n/a
390.162	0.105	780324	keystroke	e	n/a
390.927	0.075	781854	keystroke	Key.enter	n/a
391.0065	12.312	782013	prompt	n/a	engineering mention monitor enterprise\n
391.797	0.06	783594	keystroke	e	n/a
392.742	0.075	785484	keystroke	n	n/a
392.877	0.075	785754	keystroke	g	n/a
393.252	0.06	786504	keystroke	i	n/a
393.417	0.075	786834	keystroke	n	n/a
393.717	0.06	787434	keystroke	e	n/a
393.852	0.09	787704	keystroke	e	n/a
394.017	0.0745	788034	keystroke	r	n/a
394.1515	0.135	788303	keystroke	i	n/a
394.2715	0.105	788543	keystroke	n	n/a
394.4065	0.075	788813	keystroke	g	n/a
394.5715	0.075	789143	keystroke	Key.space	n/a
395.0215	0.075	790043	keystroke	m	n/a
395.1415	0.075	790283	keystroke	e	n/a
395.2615	0.075	790523	keystroke	n	n/a
395.3815	0.09	790763	keystroke	t	n/a
395.5015	0.12	791003	keystroke	i	n/a
395.6065	0.135	791213	keystroke	o	n/a
395.6665	0.135	791333	keystroke	n	n/a
396.0565	0.06	792113	keystroke	Key.space	n/a
396.6865	0.045	793373	keystroke	m	n/a
396.8215	0.09	793643	keystroke	o	n/a
396.9715	0.075	793943	keystroke	n	n/a
397.1515	0.075	794303	keystroke	i	n/a
397.4665	0.045	794933	keystroke	r	n/a
397.5565	0.09	795113	keystroke	o	n/a
397.7365	0.09	795473	keystroke	t	n/a
397.8415	0.06	795683	keystroke	Key.space	n/a
398.2015	0.06	796403	keystroke	Key.backspace	n/a
398.3515	0.075	796703	keystroke	Key.backspace	n/a
398.5015	0.06	797003	keystroke	Key.backspace	n/a
398.8765	0.075	797753	keystroke	Key.backspace	n/a
399.0865	0.045	798173	keystroke	t	n/a
399.1765	0.105	798353	keystroke	o	n/a
400.2565	0.06	800513	keystroke	r	n/a
400.4665	0.075	800933	keystroke	Key.space	n/a
401.1115	0.06	802223	keystroke	e	n/a
401.3215	0.075	802643	keystroke	n	n/a
401.7115	0.075	803423	keystroke	t	n/a
401.8765	0.135	803753	keystroke	e	n/a
401.9665	0.06	803933	keystroke	r	n/a
402.2065	0.075	804413	keystroke	p	n/a
402.4015	0.075	804803	keystroke	r	n/a
402.5065	0.09	805013	keystroke	i	n/a
402.8365	0.135	805673	keystroke	s	n/a
402.9565	0.09	805913	keystroke	e	n/a
403.2565	0.06	806513	keystroke	Key.enter	n/a
403.321	7.077	806642	prompt	n/a	duke harder detail moss\n
404.5925	0.089	809185	keystroke	d	n/a
404.8465	0.045	809693	keystroke	u	n/a
405.0865	0.075	810173	keystroke	k	n/a
405.2065	0.075	810413	keystroke	e	n/a
405.3115	0.075	810623	keystroke	Key.space	n/a
405.6565	0.06	811313	keystroke	h	n/a
405.8065	0.105	811613	keystroke	a	n/a
405.9715	0.09	811943	keystroke	r	n/a
406.1965	0.09	812393	keystroke	d	n/a
406.3915	0.12	812783	keystroke	e	n/a
406.4665	0.076	812933	keystroke	r	n/a
406.6165	0.075	813233	keystroke	Key.space	n/a
406.887	0.06	813774	keystroke	d	n/a
407.052	0.09	814104	keystroke	e	n/a
407.337	0.105	814674	keystroke	t	n/a
407.547	0.105	815094	keystroke	a	n/a
407.667	0.09	815334	keystroke	i	n/a
407.832	0.09	815664	keystroke	l	n/a
408.042	0.015	816084	keystroke	Key.space	n/a
408.972	0.06	817944	keystroke	m	n/a
409.182	0.075	818364	keystroke	o	n/a
409.407	0.06	818814	keystroke	s	n/a
409.542	0.06	819084	keystroke	s	n/a
410.322	0.075	820644	keystroke	Key.enter	n/a
410.4035	7.315	820807	prompt	n/a	town free photographs rebel\n
411.177	0.09	822354	keystroke	t	n/a
411.357	0.09	822714	keystroke	o	n/a
411.462	0.09	822924	keystroke	w	n/a
411.582	0.075	823164	keystroke	n	n/a
411.762	0.075	823524	keystroke	Key.space	n/a
411.927	0.075	823854	keystroke	f	n/a
412.152	0.09	824304	keystroke	r	n/a
412.407	0.06	824814	keystroke	e	n/a
412.527	0.06	825054	keystroke	e	n/a
412.602	0.075	825204	keystroke	Key.space	n/a
412.812	0.09	825624	keystroke	p	n/a
413.022	0.09	826044	keystroke	h	n/a
413.202	0.075	826404	keystroke	o	n/a
413.397	0.075	826794	keystroke	t	n/a
413.472	0.105	826944	keystroke	o	n/a
414.057	0.075	828114	keystroke	g	n/a
414.282	0.12	828564	keystroke	r	n/a
414.657	0.075	829314	keystroke	a	n/a
415.047	0.09	830094	keystroke	p	n/a
415.272	0.075	830544	keystroke	h	n/a
415.422	0.105	830844	keystroke	s	n/a
415.587	0.06	831174	keystroke	Key.space	n/a
416.067	0.105	832134	keystroke	r	n/a
416.142	0.09	832284	keystroke	e	n/a
416.622	0.075	833244	keystroke	b	n/a
416.772	0.075	833544	keystroke	e	n/a
416.877	0.09	833754	keystroke	l	n/a
417.657	0.06	835314	keystroke	Key.enter	n/a
417.721	12.3425	835442	prompt	n/a	filter trinity uniprotkb tournaments\n
418.842	0.06	837684	keystroke	f	n/a
418.962	0.075	837924	keystroke	i	n/a
419.142	0.09	838284	keystroke	l	n/a
419.277	0.105	838554	keystroke	t	n/a
419.442	0.135	838884	keystroke	e	n/a
419.532	0.06	839064	keystroke	r	n/a
419.622	0.075	839244	keystroke	Key.space	n/a
419.877	0.075	839754	keystroke	t	n/a
420.387	0.06	840774	keystroke	r	n/a
420.852	0.06	841704	keystroke	i	n/a
421.017	0.09	842034	keystroke	n	n/a
421.212	0.075	842424	keystroke	i	n/a
421.347	0.075	842694	keystroke	t	n/a
421.452	0.06	842904	keystroke	y	n/a
421.662	0.09	843324	keystroke	Key.space	n/a
422.022	0.12	844044	keystroke	u	n/a
422.322	0.06	844644	keystroke	n	n/a
422.502	0.09	845004	keystroke	i	n/a
422.802	0.09	845604	keystroke	p	n/a
423.777	0.075	847554	keystroke	r	n/a
424.302	0.075	848604	keystroke	o	n/a
424.617	0.09	849234	keystroke	t	n/a
424.977	0.075	849954	keystroke	k	n/a
425.262	0.06	850524	keystroke	b	n/a
425.652	0.06	851304	keystroke	Key.space	n/a
426.5525	0.09	853105	keystroke	t	n/a
426.9875	0.12	853975	keystroke	o	n/a
427.0775	0.09	854155	keystroke	u	n/a
428.2025	0.075	856405	keystroke	r	n/a
428.4875	0.075	856975	keystroke	n	n/a
428.6375	0.12	857275	keystroke	a	n/a
428.9225	0.06	857845	keystroke	m	n/a
429.0425	0.105	858085	keystroke	e	n/a
429.1625	0.075	858325	keystroke	n	n/a
429.2825	0.09	858565	keystroke	t	n/a
429.5375	0.09	859075	keystroke	s	n/a
430.0175	0.045	860035	keystroke	Key.enter	n/a
430.0665	12.402	860133	prompt	n/a	wage parallel capable declared\n
432.6595	0.043	865319	keystroke	a	n/a
433.0325	0.075	866065	keystroke	Key.backspace	n/a
433.1225	0.105	866245	keystroke	w	n/a
433.2875	0.15	866575	keystroke	a	n/a
433.4525	0.12	866905	keystroke	g	n/a
433.6175	0.105	867235	keystroke	e	n/a
433.7675	0.075	867535	keystroke	Key.space	n/a
434.007	0.09	868014	keystroke	p	n/a
434.157	0.105	868314	keystroke	a	n/a
434.412	0.06	868824	keystroke	r	n/a
434.997	0.0755	869994	keystroke	e	n/a
435.822	0.06	871644	keystroke	Key.backspace	n/a
435.9575	0.1045	871915	keystroke	a	n/a
436.2425	0.075	872485	keystroke	l	n/a
436.362	0.09	872724	keystroke	l	n/a
436.512	0.09	873024	keystroke	e	n/a
436.8425	0.075	873685	keystroke	l	n/a
437.082	0.06	874164	keystroke	Key.space	n/a
437.517	0.09	875034	keystroke	c	n/a
438.1025	0.0595	876205	keystroke	a	n/a
438.237	0.09	876474	keystroke	p	n/a
438.537	0.09	877074	keystroke	a	n/a
438.672	0.06	877344	keystroke	b	n/a
438.852	0.105	877704	keystroke	l	n/a
439.002	0.075	878004	keystroke	e	n/a
439.092	0.09	878184	keystroke	Key.space	n/a
439.467	0.075	878934	keystroke	d	n/a
439.662	0.075	879324	keystroke	e	n/a
439.887	0.09	879774	keystroke	c	n/a
440.022	0.105	880044	keystroke	l	n/a
440.232	0.105	880464	keystroke	a	n/a
440.442	0.135	880884	keystroke	r	n/a
440.532	0.135	881064	keystroke	e	n/a
441.477	0.06	882954	keystroke	d	n/a
442.4065	0.06	884813	keystroke	Key.enter	n/a
442.4715	11.592	884943	prompt	n/a	backgrounds disputes currency omaha\n
443.2465	0.075	886493	keystroke	b	n/a
443.3965	0.105	886793	keystroke	a	n/a
443.5165	0.105	887033	keystroke	c	n/a
443.5465	0.09	887093	keystroke	k	n/a
443.9965	0.075	887993	keystroke	g	n/a
444.2215	0.075	888443	keystroke	r	n/a
444.3415	0.135	888683	keystroke	o	n/a
444.4015	0.06	888803	keystroke	i	n/a
444.4465	0.06	888893	keystroke	u	n/a
444.6565	0.075	889313	keystroke	n	n/a
444.7465	0.12	889493	keystroke	d	n/a
445.1515	0.09	890303	keystroke	Key.backspace	n/a
445.3015	0.09	890603	keystroke	Key.backspace	n/a
445.512	0.075	891024	keystroke	Key.backspace	n/a
445.722	0.075	891444	keystroke	Key.backspace	n/a
446.1565	0.075	892313	keystroke	u	n/a
446.3665	0.09	892733	keystroke	n	n/a
446.5015	0.135	893003	keystroke	d	n/a
446.6215	0.105	893243	keystroke	s	n/a
447.0115	0.06	894023	keystroke	Key.space	n/a
447.3415	0.075	894683	keystroke	d	n/a
447.4615	0.075	894923	keystroke	i	n/a
447.5965	0.12	895193	keystroke	s	n/a
447.7465	0.09	895493	keystroke	p	n/a
448.017	0.06	896034	keystroke	u	n/a
448.302	0.105	896604	keystroke	t	n/a
448.4515	0.12	896903	keystroke	e	n/a
448.692	0.0745	897384	keystroke	s	n/a
448.7815	0.09	897563	keystroke	Key.space	n/a
448.9915	0.075	897983	keystroke	c	n/a
449.1265	0.075	898253	keystroke	u	n/a
449.3815	0.075	898763	keystroke	r	n/a
449.5165	0.075	899033	keystroke	r	n/a
449.6665	0.09	899333	keystroke	e	n/a
449.8015	0.06	899603	keystroke	n	n/a
449.9065	0.09	899813	keystroke	c	n/a
450.1015	0.075	900203	keystroke	y	n/a
450.3715	0.075	900743	keystroke	Key.space	n/a
450.7765	0.105	901553	keystroke	o	n/a
451.1665	0.03	902333	keystroke	b	n/a
451.6015	0.075	903203	keystroke	Key.backspace	n/a
451.8565	0.045	903713	keystroke	m	n/a
451.9915	0.09	903983	keystroke	a	n/a
452.6965	0.075	905393	keystroke	h	n/a
452.892	0.105	905784	keystroke	a	n/a
454.002	0.06	908004	keystroke	Key.enter	n/a
454.068	10.105	908136	prompt	n/a	governing dependence beads concern\n
455.067	0.105	910134	keystroke	g	n/a
455.247	0.09	910494	keystroke	o	n/a
455.367	0.105	910734	keystroke	v	n/a
455.547	0.15	911094	keystroke	e	n/a
455.637	0.075	911274	keystroke	r	n/a
455.742	0.09	911484	keystroke	n	n/a
455.907	0.105	911814	keystroke	i	n/a
456.027	0.075	912054	keystroke	n	n/a
456.102	0.075	912204	keystroke	g	n/a
456.237	0.09	912474	keystroke	Key.space	n/a
456.822	0.06	913644	keystroke	d	n/a
457.002	0.06	914004	keystroke	e	n/a
457.167	0.09	914334	keystroke	p	n/a
457.332	0.06	914664	keystroke	e	n/a
457.437	0.075	914874	keystroke	n	n/a
457.632	0.09	915264	keystroke	d	n/a
457.842	0.09	915684	keystroke	e	n/a
458.037	0.06	916074	keystroke	n	n/a
458.112	0.135	916224	keystroke	c	n/a
458.232	0.09	916464	keystroke	e	n/a
458.382	0.075	916764	keystroke	Key.space	n/a
459.087	0.06	918174	keystroke	b	n/a
459.237	0.09	918474	keystroke	r	n/a
459.282	0.135	918564	keystroke	e	n/a
459.477	0.12	918954	keystroke	a	n/a
459.657	0.135	919314	keystroke	d	n/a
459.957	0.105	919914	keystroke	s	n/a
460.167	0.06	920334	keystroke	Key.space	n/a
460.632	0.075	921264	keystroke	c	n/a
460.752	0.12	921504	keystroke	o	n/a
460.857	0.075	921714	keystroke	n	n/a
460.992	0.12	921984	keystroke	c	n/a
461.187	0.195	922374	keystroke	e	n/a
461.322	0.12	922644	keystroke	r	n/a
462.402	0.03	924804	keystroke	s	n/a
462.852	0.075	925704	keystroke	Key.backspace	n/a
463.707	0.075	927414	keystroke	n	n/a
464.112	0.06	928224	keystroke	Key.enter	n/a
464.176	11.667	928352	prompt	n/a	brand effectiveness sunset uncertainty\n
464.952	0.075	929904	keystroke	b	n/a
465.042	0.12	930084	keystroke	r	n/a
465.267	0.12	930534	keystroke	a	n/a
465.372	0.075	930744	keystroke	n	n/a
465.507	0.09	931014	keystroke	d	n/a
465.582	0.06	931164	keystroke	Key.space	n/a
465.867	0.06	931734	keystroke	e	n/a
466.287	0.06	932574	keystroke	f	n/a
466.407	0.075	932814	keystroke	f	n/a
466.632	0.09	933264	keystroke	e	n/a
466.827	0.12	933654	keystroke	c	n/a
467.142	0.09	934284	keystroke	t	n/a
467.307	0.09	934614	keystroke	i	n/a
467.487	0.09	934974	keystroke	v	n/a
467.862	0.09	935724	keystroke	e	n/a
468.297	0.075	936594	keystroke	n	n/a
468.477	0.09	936954	keystroke	e	n/a
468.747	0.06	937494	keystroke	s	n/a
468.867	0.075	937734	keystroke	s	n/a
468.972	0.09	937944	keystroke	Key.space	n/a
469.152	0.09	938304	keystroke	s	n/a
469.272	0.09	938544	keystroke	u	n/a
469.467	0.09	938934	keystroke	n	n/a
469.647	0.105	939294	keystroke	s	n/a
469.782	0.105	939564	keystroke	e	n/a
469.992	0.075	939984	keystroke	t	n/a
470.127	0.075	940254	keystroke	Key.space	n/a
470.712	0.075	941424	keystroke	u	n/a
470.922	0.075	941844	keystroke	n	n/a
471.042	0.105	942084	keystroke	c	n/a
471.222	0.165	942444	keystroke	e	n/a
471.342	0.075	942684	keystroke	r	n/a
472.077	0.09	944154	keystroke	t	n/a
473.307	0.105	946614	keystroke	a	n/a
474.102	0.075	948204	keystroke	i	n/a
474.297	0.0745	948594	keystroke	n	n/a
474.657	0.075	949314	keystroke	t	n/a
474.807	0.0745	949614	keystroke	y	n/a
475.7665	0.075	951533	keystroke	Key.enter	n/a
475.846	11.742	951692	prompt	n/a	anniversary showtimes draw directories\n
476.5765	0.09	953153	keystroke	a	n/a
476.7415	0.075	953483	keystroke	n	n/a
476.8915	0.075	953783	keystroke	n	n/a
477.0715	0.09	954143	keystroke	i	n/a
477.2065	0.09	954413	keystroke	v	n/a
477.3415	0.21	954683	keystroke	e	n/a
477.4615	0.165	954923	keystroke	r	n/a
478.2415	0.06	956483	keystroke	s	n/a
478.3915	0.12	956783	keystroke	a	n/a
478.5865	0.075	957173	keystroke	y	n/a
479.8165	0.09	959633	keystroke	Key.backspace	n/a
480.0565	0.06	960113	keystroke	r	n/a
480.1915	0.06	960383	keystroke	y	n/a
480.4015	0.075	960803	keystroke	Key.space	n/a
480.8665	0.09	961733	keystroke	s	n/a
480.9715	0.075	961943	keystroke	h	n/a
481.1515	0.09	962303	keystroke	o	n/a
481.9765	0.09	963953	keystroke	w	n/a
482.3965	0.105	964793	keystroke	t	n/a
482.4865	0.105	964973	keystroke	i	n/a
482.6215	0.105	965243	keystroke	m	n/a
482.7115	0.0905	965423	keystroke	e	n/a
482.922	0.105	965844	keystroke	s	n/a
483.012	0.074	966024	keystroke	Key.space	n/a
483.267	0.075	966534	keystroke	d	n/a
483.597	0.105	967194	keystroke	r	n/a
483.927	0.12	967854	keystroke	a	n/a
484.167	0.105	968334	keystroke	w	n/a
484.527	0.074	969054	keystroke	Key.space	n/a
484.797	0.09	969594	keystroke	d	n/a
484.992	0.075	969984	keystroke	i	n/a
485.127	0.135	970254	keystroke	r	n/a
485.217	0.105	970434	keystroke	e	n/a
485.457	0.12	970914	keystroke	c	n/a
485.712	0.06	971424	keystroke	t	n/a
485.787	0.075	971574	keystroke	o	n/a
485.982	0.075	971964	keystroke	r	n/a
486.042	0.09	972084	keystroke	i	n/a
486.492	0.075	972984	keystroke	e	n/a
486.702	0.09	973404	keystroke	s	n/a
487.527	0.06	975054	keystroke	Key.enter	n/a
487.5905	14.3225	975181	prompt	n/a	gentleman variation packed supervision\n
488.292	0.06	976584	keystroke	g	n/a
488.472	0.09	976944	keystroke	e	n/a
488.622	0.09	977244	keystroke	n	n/a
488.817	0.12	977634	keystroke	t	n/a
489.657	0.075	979314	keystroke	l	n/a
489.762	0.075	979524	keystroke	e	n/a
490.047	0.06	980094	keystroke	m	n/a
490.842	0.09	981684	keystroke	a	n/a
490.977	0.06	981954	keystroke	n	n/a
491.157	0.075	982314	keystroke	Key.space	n/a
491.487	0.105	982974	keystroke	v	n/a
491.757	0.105	983514	keystroke	a	n/a
492.237	0.06	984474	keystroke	r	n/a
492.402	0.09	984804	keystroke	i	n/a
492.687	0.09	985374	keystroke	a	n/a
492.957	0.09	985914	keystroke	t	n/a
494.217	0.12	988434	keystroke	i	n/a
494.322	0.165	988644	keystroke	o	n/a
494.442	0.105	988884	keystroke	n	n/a
494.622	0.075	989244	keystroke	Key.space	n/a
495.537	0.09	991074	keystroke	p	n/a
495.687	0.09	991374	keystroke	a	n/a
495.792	0.105	991584	keystroke	c	n/a
495.882	0.075	991764	keystroke	k	n/a
496.002	0.06	992004	keystroke	e	n/a
496.182	0.06	992364	keystroke	d	n/a
496.227	0.075	992454	keystroke	Key.space	n/a
496.722	0.075	993444	keystroke	s	n/a
496.872	0.06	993744	keystroke	u	n/a
497.037	0.075	994074	keystroke	p	n/a
497.127	0.12	994254	keystroke	e	n/a
497.187	0.075	994374	keystroke	r	n/a
497.427	0.105	994854	keystroke	v	n/a
497.577	0.09	995154	keystroke	i	n/a
498.552	0.09	997104	keystroke	w	n/a
498.867	0.12	997734	keystroke	i	n/a
499.302	0.075	998604	keystroke	Key.backspace	n/a
499.437	0.075	998874	keystroke	Key.backspace	n/a
500.232	0.06	1000464	keystroke	s	n/a
500.397	0.105	1000794	keystroke	i	n/a
500.442	0.195	1000884	keystroke	o	n/a
500.607	0.09	1001214	keystroke	n	n/a
501.852	0.06	1003704	keystroke	Key.enter	n/a
501.916	11.187	1003832	prompt	n/a	easter elementary benefits admit\n
503.127	0.12	1006254	keystroke	e	n/a
503.322	0.09	1006644	keystroke	a	n/a
503.397	0.135	1006794	keystroke	s	n/a
503.577	0.135	1007154	keystroke	t	n/a
503.772	0.15	1007544	keystroke	e	n/a
503.862	0.09	1007724	keystroke	r	n/a
504.027	0.09	1008054	keystroke	Key.space	n/a
504.297	0.075	1008594	keystroke	e	n/a
504.432	0.105	1008864	keystroke	l	n/a
504.522	0.075	1009044	keystroke	e	n/a
504.657	0.075	1009314	keystroke	m	n/a
507.194	0.013	1014388	keystroke	e	n/a
508.182	0.075	1016364	keystroke	n	n/a
508.332	0.135	1016664	keystroke	t	n/a
508.572	0.165	1017144	keystroke	a	n/a
508.752	0.09	1017504	keystroke	r	n/a
508.887	0.075	1017774	keystroke	y	n/a
509.112	0.09	1018224	keystroke	Key.space	n/a
509.397	0.075	1018794	keystroke	b	n/a
509.547	0.06	1019094	keystroke	e	n/a
509.892	0.06	1019784	keystroke	n	n/a
510.162	0.105	1020324	keystroke	e	n/a
510.477	0.0745	1020954	keystroke	f	n/a
510.6115	0.09	1021223	keystroke	i	n/a
510.747	0.12	1021494	keystroke	t	n/a
511.137	0.105	1022274	keystroke	s	n/a
511.3015	0.06	1022603	keystroke	Key.space	n/a
511.692	0.1045	1023384	keystroke	a	n/a
511.8415	0.12	1023683	keystroke	d	n/a
512.0065	0.075	1024013	keystroke	m	n/a
512.1865	0.09	1024373	keystroke	i	n/a
512.3365	0.09	1024673	keystroke	t	n/a
513.0265	0.075	1026053	keystroke	Key.enter	n/a
513.1055	11.398	1026211	prompt	n/a	schemes toolkit moreover spoke\n
514.0165	0.105	1028033	keystroke	s	n/a
514.1965	0.12	1028393	keystroke	c	n/a
514.3915	0.09	1028783	keystroke	h	n/a
514.5715	0.075	1029143	keystroke	e	n/a
514.7215	0.09	1029443	keystroke	m	n/a
514.7815	0.09	1029563	keystroke	e	n/a
514.9915	0.105	1029983	keystroke	s	n/a
515.1265	0.075	1030253	keystroke	Key.space	n/a
515.6515	0.075	1031303	keystroke	t	n/a
515.847	0.0745	1031694	keystroke	o	n/a
515.9965	0.06	1031993	keystroke	o	n/a
516.1615	0.09	1032323	keystroke	l	n/a
516.3715	0.09	1032743	keystroke	k	n/a
516.5665	0.09	1033133	keystroke	i	n/a
516.7765	0.09	1033553	keystroke	t	n/a
516.9265	0.06	1033853	keystroke	Key.space	n/a
517.2715	0.06	1034543	keystroke	m	n/a
517.452	0.09	1034904	keystroke	o	n/a
517.527	0.105	1035054	keystroke	r	n/a
517.572	0.105	1035144	keystroke	e	n/a
517.872	0.075	1035744	keystroke	v	n/a
517.962	0.105	1035924	keystroke	o	n/a
518.322	0.06	1036644	keystroke	Key.backspace	n/a
518.472	0.06	1036944	keystroke	Key.backspace	n/a
518.682	0.105	1037364	keystroke	o	n/a
518.712	0.105	1037424	keystroke	v	n/a
519.012	0.075	1038024	keystroke	r	n/a
519.552	0.09	1039104	keystroke	Key.backspace	n/a
519.642	0.18	1039284	keystroke	r	n/a
519.762	0.09	1039524	keystroke	t	n/a
520.032	0.06	1040064	keystroke	Key.space	n/a
520.362	0.09	1040724	keystroke	Key.backspace	n/a
520.512	0.09	1041024	keystroke	Key.backspace	n/a
520.857	0.075	1041714	keystroke	Key.backspace	n/a
521.607	0.105	1043214	keystroke	e	n/a
521.802	0.105	1043604	keystroke	r	n/a
522.162	0.075	1044324	keystroke	Key.space	n/a
523.077	0.075	1046154	keystroke	s	n/a
523.167	0.075	1046334	keystroke	p	n/a
523.362	0.09	1046724	keystroke	o	n/a
523.572	0.09	1047144	keystroke	k	n/a
523.677	0.075	1047354	keystroke	e	n/a
524.427	0.075	1048854	keystroke	Key.enter	n/a
524.5065	13.932	1049013	prompt	n/a	interference governance mats vendors\n
525.207	0.075	1050414	keystroke	i	n/a
525.357	0.09	1050714	keystroke	n	n/a
525.657	0.09	1051314	keystroke	t	n/a
525.927	0.135	1051854	keystroke	e	n/a
525.987	0.12	1051974	keystroke	r	n/a
526.467	0.06	1052934	keystroke	f	n/a
526.677	0.165	1053354	keystroke	e	n/a
526.782	0.12	1053564	keystroke	r	n/a
527.592	0.075	1055184	keystroke	e	n/a
527.757	0.075	1055514	keystroke	n	n/a
527.847	0.12	1055694	keystroke	c	n/a
527.922	0.12	1055844	keystroke	e	n/a
528.192	0.06	1056384	keystroke	Key.space	n/a
528.462	0.075	1056924	keystroke	g	n/a
528.942	0.09	1057884	keystroke	v	n/a
529.467	0.09	1058934	keystroke	Key.backspace	n/a
529.737	0.09	1059474	keystroke	v	n/a
529.752	0.09	1059504	keystroke	o	n/a
530.322	0.075	1060644	keystroke	Key.backspace	n/a
530.457	0.075	1060914	keystroke	Key.backspace	n/a
530.637	0.09	1061274	keystroke	v	n/a
530.712	0.105	1061424	keystroke	o	n/a
530.937	0.165	1061874	keystroke	e	n/a
531.042	0.09	1062084	keystroke	r	n/a
531.417	0.075	1062834	keystroke	Key.backspace	n/a
531.567	0.09	1063134	keystroke	Key.backspace	n/a
531.837	0.075	1063674	keystroke	Key.backspace	n/a
532.077	0.075	1064154	keystroke	Key.backspace	n/a
532.812	0.09	1065624	keystroke	o	n/a
532.932	0.09	1065864	keystroke	v	n/a
533.127	0.1805	1066254	keystroke	e	n/a
533.2475	0.105	1066495	keystroke	r	n/a
533.5025	0.075	1067005	keystroke	n	n/a
533.7275	0.105	1067455	keystroke	a	n/a
533.8925	0.06	1067785	keystroke	n	n/a
533.9825	0.105	1067965	keystroke	c	n/a
534.0425	0.12	1068085	keystroke	e	n/a
534.9265	0.06	1069853	keystroke	Key.space	n/a
535.5425	0.075	1071085	keystroke	m	n/a
535.6775	0.12	1071355	keystroke	a	n/a
535.8425	0.12	1071685	keystroke	t	n/a
536.0675	0.105	1072135	keystroke	s	n/a
536.1725	0.075	1072345	keystroke	Key.space	n/a
536.4125	0.105	1072825	keystroke	v	n/a
536.6375	0.09	1073275	keystroke	e	n/a
536.8025	0.075	1073605	keystroke	n	n/a
536.9975	0.09	1073995	keystroke	d	n/a
537.1325	0.105	1074265	keystroke	o	n/a
537.2975	0.15	1074595	keystroke	r	n/a
537.6725	0.075	1075345	keystroke	s	n/a
538.3625	0.075	1076725	keystroke	Key.enter	n/a
538.4415	13.1815	1076883	prompt	n/a	optimize laboratories nextel teen\n
539.2625	0.09	1078525	keystroke	o	n/a
539.5025	0.075	1079005	keystroke	p	n/a
539.8025	0.09	1079605	keystroke	t	n/a
539.9975	0.09	1079995	keystroke	i	n/a
540.1925	0.075	1080385	keystroke	m	n/a
540.6725	0.075	1081345	keystroke	i	n/a
541.0775	0.105	1082155	keystroke	z	n/a
541.4075	0.075	1082815	keystroke	e	n/a
541.6775	0.075	1083355	keystroke	Key.space	n/a
542.0075	0.09	1084015	keystroke	l	n/a
542.1425	0.105	1084285	keystroke	a	n/a
542.3225	0.075	1084645	keystroke	b	n/a
543.5375	0.075	1087075	keystroke	o	n/a
543.8975	0.09	1087795	keystroke	r	n/a
544.1825	0.135	1088365	keystroke	a	n/a
544.5425	0.09	1089085	keystroke	t	n/a
544.6625	0.105	1089325	keystroke	o	n/a
545.5625	0.075	1091125	keystroke	r	n/a
545.6975	0.075	1091395	keystroke	i	n/a
545.7725	0.105	1091545	keystroke	e	n/a
545.9825	0.09	1091965	keystroke	s	n/a
546.1475	0.075	1092295	keystroke	Key.space	n/a
546.7475	0.045	1093495	keystroke	e	n/a
547.1075	0.09	1094215	keystroke	Key.backspace	n/a
547.3625	0.09	1094725	keystroke	n	n/a
547.5275	0.075	1095055	keystroke	e	n/a
548.6075	0.075	1097215	keystroke	x	n/a
548.9225	0.12	1097845	keystroke	t	n/a
549.0575	0.12	1098115	keystroke	e	n/a
549.2525	0.075	1098505	keystroke	l	n/a
549.6125	0.06	1099225	keystroke	Key.space	n/a
550.1825	0.105	1100365	keystroke	t	n/a
550.4525	0.075	1100905	keystroke	e	n/a
550.6025	0.09	1101205	keystroke	e	n/a
550.7975	0.075	1101595	keystroke	n	n/a
551.5475	0.075	1103095	keystroke	Key.enter	n/a
551.626	7.8425	1103252	prompt	n/a	demanding york cruise through\n
552.4625	0.075	1104925	keystroke	d	n/a
552.6575	0.075	1105315	keystroke	e	n/a
553.1675	0.09	1106335	keystroke	m	n/a
553.3325	0.12	1106665	keystroke	a	n/a
553.4675	0.06	1106935	keystroke	n	n/a
553.5575	0.105	1107115	keystroke	d	n/a
553.6925	0.12	1107385	keystroke	i	n/a
553.7975	0.075	1107595	keystroke	n	n/a
553.8875	0.075	1107775	keystroke	g	n/a
554.0225	0.09	1108045	keystroke	Key.space	n/a
554.3375	0.06	1108675	keystroke	y	n/a
554.5175	0.075	1109035	keystroke	o	n/a
554.6225	0.075	1109245	keystroke	r	n/a
554.7725	0.09	1109545	keystroke	k	n/a
554.9675	0.075	1109935	keystroke	Key.space	n/a
555.2075	0.075	1110415	keystroke	c	n/a
555.4475	0.075	1110895	keystroke	u	n/a
555.9575	0.075	1111915	keystroke	Key.backspace	n/a
556.0775	0.075	1112155	keystroke	r	n/a
556.2575	0.075	1112515	keystroke	u	n/a
556.7975	0.06	1113595	keystroke	i	n/a
557.0075	0.075	1114015	keystroke	s	n/a
557.1425	0.09	1114285	keystroke	e	n/a
557.2625	0.075	1114525	keystroke	Key.space	n/a
557.5025	0.105	1115005	keystroke	t	n/a
557.5925	0.075	1115185	keystroke	h	n/a
557.9975	0.06	1115995	keystroke	r	n/a
558.2225	0.12	1116445	keystroke	o	n/a
558.2975	0.105	1116595	keystroke	u	n/a
558.4325	0.06	1116865	keystroke	g	n/a
558.5675	0.075	1117135	keystroke	h	n/a
559.4075	0.06	1118815	keystroke	Key.enter	n/a
559.4715	9.9415	1118943	prompt	n/a	overview boston warm refuse\n
560.2775	0.09	1120555	keystroke	o	n/a
560.3525	0.09	1120705	keystroke	v	n/a
560.5175	0.165	1121035	keystroke	e	n/a
560.6225	0.09	1121245	keystroke	r	n/a
561.0425	0.09	1122085	keystroke	v	n/a
561.2675	0.075	1122535	keystroke	i	n/a
561.3725	0.135	1122745	keystroke	e	n/a
562.1525	0.105	1124305	keystroke	e	n/a
562.572	0.075	1125144	keystroke	Key.backspace	n/a
562.662	0.105	1125324	keystroke	w	n/a
562.8875	0.075	1125775	keystroke	Key.space	n/a
563.352	0.06	1126704	keystroke	b	n/a
563.607	0.015	1127214	keystroke	o	n/a
563.637	0.075	1127274	keystroke	s	n/a
563.757	0.09	1127514	keystroke	t	n/a
563.862	0.12	1127724	keystroke	o	n/a
563.952	0.075	1127904	keystroke	n	n/a
564.162	0.075	1128324	keystroke	Key.space	n/a
564.507	0.09	1129014	keystroke	w	n/a
564.717	0.12	1129434	keystroke	a	n/a
564.9865	0.06	1129973	keystroke	r	n/a
565.1965	0.075	1130393	keystroke	m	n/a
565.9765	0.075	1131953	keystroke	Key.space	n/a
566.3515	0.105	1132703	keystroke	f	n/a
566.8165	0.075	1133633	keystroke	Key.backspace	n/a
566.9065	0.105	1133813	keystroke	r	n/a
566.9665	0.105	1133933	keystroke	e	n/a
567.2665	0.075	1134533	keystroke	f	n/a
567.5815	0.075	1135163	keystroke	u	n/a
568.1365	0.15	1136273	keystroke	s	n/a
568.3465	0.12	1136693	keystroke	e	n/a
569.3215	0.09	1138643	keystroke	Key.enter	n/a
569.4165	6.8215	1138833	prompt	n/a	confident ford tube mutual\n
570.1165	0.09	1140233	keystroke	c	n/a
570.2515	0.105	1140503	keystroke	o	n/a
570.7915	0.06	1141583	keystroke	n	n/a
570.9715	0.075	1141943	keystroke	f	n/a
571.1365	0.09	1142273	keystroke	i	n/a
571.3915	0.06	1142783	keystroke	d	n/a
571.5715	0.075	1143143	keystroke	e	n/a
571.7365	0.076	1143473	keystroke	n	n/a
571.8565	0.09	1143713	keystroke	t	n/a
571.9615	0.075	1143923	keystroke	Key.space	n/a
572.1865	0.09	1144373	keystroke	f	n/a
572.2625	0.089	1144525	keystroke	o	n/a
572.4115	0.09	1144823	keystroke	r	n/a
573.0265	0.06	1146053	keystroke	d	n/a
573.2065	0.075	1146413	keystroke	Key.space	n/a
573.4765	0.09	1146953	keystroke	t	n/a
573.5815	0.075	1147163	keystroke	u	n/a
573.8215	0.075	1147643	keystroke	b	n/a
573.9415	0.075	1147883	keystroke	e	n/a
574.0465	0.09	1148093	keystroke	Key.space	n/a
574.2875	0.089	1148575	keystroke	m	n/a
574.5265	0.075	1149053	keystroke	u	n/a
574.7825	0.104	1149565	keystroke	t	n/a
575.0065	0.09	1150013	keystroke	u	n/a
575.2465	0.075	1150493	keystroke	a	n/a
575.3665	0.09	1150733	keystroke	l	n/a
576.1615	0.075	1152323	keystroke	Key.enter	n/a
576.2485	10.0245	1152497	prompt	n/a	turns annotation topic oughtn't\n
576.9865	0.075	1153973	keystroke	t	n/a
577.1065	0.09	1154213	keystroke	u	n/a
577.2565	0.075	1154513	keystroke	r	n/a
577.3615	0.09	1154723	keystroke	n	n/a
577.5565	0.09	1155113	keystroke	s	n/a
577.6315	0.075	1155263	keystroke	Key.space	n/a
577.9315	0.075	1155863	keystroke	a	n/a
578.1115	0.06	1156223	keystroke	n	n/a
578.2775	0.059	1156555	keystroke	n	n/a
578.4275	0.089	1156855	keystroke	o	n/a
578.6215	0.09	1157243	keystroke	t	n/a
578.8325	0.134	1157665	keystroke	a	n/a
578.9815	0.09	1157963	keystroke	t	n/a
579.1175	0.12	1158235	keystroke	i	n/a
579.2825	0.119	1158565	keystroke	o	n/a
579.4165	0.061	1158833	keystroke	n	n/a
580.1065	0.076	1160213	keystroke	Key.space	n/a
580.3925	0.105	1160785	keystroke	t	n/a
580.4975	0.06	1160995	keystroke	o	n/a
580.6325	0.09	1161265	keystroke	p	n/a
580.8425	0.09	1161685	keystroke	i	n/a
581.0075	0.12	1162015	keystroke	c	n/a
581.2165	0.06	1162433	keystroke	Key.space	n/a
581.5175	0.1495	1163035	keystroke	o	n/a
581.6075	0.09	1163215	keystroke	u	n/a
581.7725	0.105	1163545	keystroke	t	n/a
582.6115	0.061	1165223	keystroke	Key.backspace	n/a
583.1375	0.03	1166275	keystroke	g	n/a
583.2275	0.075	1166455	keystroke	h	n/a
583.452	0.105	1166904	keystroke	t	n/a
584.5025	0.06	1169005	keystroke	n	n/a
584.7425	0.06	1169485	keystroke	'	n/a
585.0575	0.0895	1170115	keystroke	t	n/a
586.182	0.09	1172364	keystroke	Key.enter	n/a
586.276	7.587	1172552	prompt	n/a	oxide herbal jewish title\n
586.992	0.105	1173984	keystroke	o	n/a
587.247	0.12	1174494	keystroke	x	n/a
587.427	0.09	1174854	keystroke	i	n/a
587.727	0.09	1175454	keystroke	d	n/a
588.357	0.075	1176714	keystroke	e	n/a
588.596	0.061	1177192	keystroke	Key.space	n/a
588.882	0.075	1177764	keystroke	h	n/a
588.987	0.135	1177974	keystroke	e	n/a
589.077	0.075	1178154	keystroke	r	n/a
589.272	0.075	1178544	keystroke	b	n/a
589.392	0.09	1178784	keystroke	a	n/a
589.497	0.075	1178994	keystroke	l	n/a
589.632	0.09	1179264	keystroke	Key.space	n/a
590.037	0.075	1180074	keystroke	j	n/a
590.157	0.165	1180314	keystroke	e	n/a
590.247	0.09	1180494	keystroke	r	n/a
591.102	0.09	1182204	keystroke	w	n/a
591.312	0.075	1182624	keystroke	i	n/a
591.447	0.105	1182894	keystroke	s	n/a
591.567	0.075	1183134	keystroke	h	n/a
591.867	0.075	1183734	keystroke	Key.space	n/a
592.182	0.075	1184364	keystroke	t	n/a
592.272	0.075	1184544	keystroke	i	n/a
592.407	0.09	1184814	keystroke	t	n/a
592.527	0.09	1185054	keystroke	l	n/a
592.902	0.09	1185804	keystroke	e	n/a
593.787	0.075	1187574	keystroke	Key.enter	n/a
593.8665	8.2765	1187733	prompt	n/a	mega accident maiden belfast\n
594.537	0.075	1189074	keystroke	m	n/a
594.657	0.105	1189314	keystroke	e	n/a
594.882	0.135	1189764	keystroke	a	n/a
595.182	0.135	1190364	keystroke	g	n/a
595.527	0.075	1191054	keystroke	Key.backspace	n/a
595.677	0.09	1191354	keystroke	Key.backspace	n/a
595.752	0.12	1191504	keystroke	g	n/a
595.887	0.12	1191774	keystroke	a	n/a
596.127	0.06	1192254	keystroke	Key.space	n/a
596.517	0.105	1193034	keystroke	a	n/a
596.727	0.06	1193454	keystroke	c	n/a
596.847	0.09	1193694	keystroke	c	n/a
596.967	0.09	1193934	keystroke	i	n/a
597.087	0.105	1194174	keystroke	d	n/a
597.267	0.09	1194534	keystroke	e	n/a
597.402	0.075	1194804	keystroke	n	n/a
597.522	0.075	1195044	keystroke	t	n/a
597.657	0.06	1195314	keystroke	Key.space	n/a
597.942	0.06	1195884	keystroke	m	n/a
598.047	0.09	1196094	keystroke	a	n/a
598.197	0.09	1196394	keystroke	i	n/a
598.542	0.06	1197084	keystroke	d	n/a
598.797	0.105	1197594	keystroke	e	n/a
599.052	0.075	1198104	keystroke	n	n/a
599.292	0.075	1198584	keystroke	Key.space	n/a
599.712	0.075	1199424	keystroke	b	n/a
600.087	0.06	1200174	keystroke	e	n/a
600.537	0.075	1201074	keystroke	l	n/a
600.762	0.09	1201524	keystroke	f	n/a
600.942	0.135	1201884	keystroke	a	n/a
601.122	0.15	1202244	keystroke	s	n/a
601.302	0.12	1202604	keystroke	t	n/a
602.067	0.075	1204134	keystroke	Key.enter	n/a
602.146	12.9265	1204292	prompt	n/a	proprietary manga neighbors campaign\n
603.072	0.09	1206144	keystroke	p	n/a
603.282	0.06	1206564	keystroke	r	n/a
603.357	0.105	1206714	keystroke	o	n/a
603.597	0.09	1207194	keystroke	p	n/a
604.917	0.09	1209834	keystroke	r	n/a
605.112	0.075	1210224	keystroke	i	n/a
605.247	0.12	1210494	keystroke	e	n/a
605.532	0.105	1211064	keystroke	t	n/a
605.757	0.135	1211514	keystroke	a	n/a
605.892	0.075	1211784	keystroke	r	n/a
606.027	0.075	1212054	keystroke	y	n/a
606.252	0.075	1212504	keystroke	Key.space	n/a
606.492	0.075	1212984	keystroke	m	n/a
606.597	0.135	1213194	keystroke	a	n/a
607.9015	0.075	1215803	keystroke	n	n/a
608.082	0.105	1216164	keystroke	g	n/a
608.277	0.105	1216554	keystroke	a	n/a
608.412	0.075	1216824	keystroke	Key.space	n/a
608.757	0.075	1217514	keystroke	n	n/a
608.907	0.075	1217814	keystroke	e	n/a
609.372	0.075	1218744	keystroke	i	n/a
609.567	0.075	1219134	keystroke	g	n/a
609.657	0.075	1219314	keystroke	h	n/a
609.897	0.09	1219794	keystroke	b	n/a
610.092	0.09	1220184	keystroke	o	n/a
610.242	0.09	1220484	keystroke	r	n/a
610.437	0.075	1220874	keystroke	s	n/a
610.512	0.075	1221024	keystroke	Key.space	n/a
610.752	0.105	1221504	keystroke	c	n/a
610.917	0.12	1221834	keystroke	a	n/a
611.472	0.075	1222944	keystroke	m	n/a
611.727	0.0745	1223454	keystroke	p	n/a
612.0715	0.09	1224143	keystroke	a	n/a
612.717	0.06	1225434	keystroke	i	n/a
613.032	0.075	1226064	keystroke	g	n/a
613.137	0.045	1226274	keystroke	n	n/a
613.152	0.045	1226304	keystroke	b	n/a
614.0515	0.075	1228103	keystroke	Key.backspace	n/a
614.9965	0.075	1229993	keystroke	Key.enter	n/a
615.0755	12.298	1230151	prompt	n/a	affected virginia unusual packages\n
615.897	0.09	1231794	keystroke	a	n/a
616.077	0.075	1232154	keystroke	f	n/a
616.227	0.075	1232454	keystroke	f	n/a
616.857	0.075	1233714	keystroke	e	n/a
617.052	0.12	1234104	keystroke	c	n/a
617.307	0.12	1234614	keystroke	t	n/a
617.502	0.12	1235004	keystroke	e	n/a
617.742	0.09	1235484	keystroke	d	n/a
617.877	0.075	1235754	keystroke	Key.space	n/a
618.072	0.09	1236144	keystroke	v	n/a
618.252	0.075	1236504	keystroke	i	n/a
618.792	0.105	1237584	keystroke	r	n/a
619.017	0.105	1238034	keystroke	d	n/a
619.572	0.075	1239144	keystroke	Key.backspace	n/a
619.677	0.075	1239354	keystroke	g	n/a
620.277	0.075	1240554	keystroke	i	n/a
620.487	0.075	1240974	keystroke	n	n/a
620.772	0.06	1241544	keystroke	i	n/a
621.012	0.105	1242024	keystroke	a	n/a
621.192	0.09	1242384	keystroke	Key.space	n/a
622.152	0.075	1244304	keystroke	u	n/a
622.377	0.075	1244754	keystroke	n	n/a
622.887	0.075	1245774	keystroke	u	n/a
623.667	0.09	1247334	keystroke	s	n/a
623.817	0.075	1247634	keystroke	u	n/a
624.252	0.06	1248504	keystroke	a	n/a
624.342	0.075	1248684	keystroke	l	n/a
624.567	0.075	1249134	keystroke	Key.space	n/a
624.762	0.09	1249524	keystroke	p	n/a
624.882	0.09	1249764	keystroke	a	n/a
625.032	0.09	1250064	keystroke	c	n/a
625.932	0.075	1251864	keystroke	k	n/a
626.127	0.105	1252254	keystroke	a	n/a
626.277	0.12	1252554	keystroke	g	n/a
626.442	0.105	1252884	keystroke	e	n/a
626.652	0.12	1253304	keystroke	s	n/a
627.282	0.09	1254564	keystroke	Key.enter	n/a
627.376	8.202	1254752	prompt	n/a	stats spine somewhat alter\n
628.152	0.105	1256304	keystroke	s	n/a
628.317	0.105	1256634	keystroke	t	n/a
628.527	0.12	1257054	keystroke	a	n/a
628.707	0.105	1257414	keystroke	t	n/a
628.917	0.105	1257834	keystroke	s	n/a
629.037	0.075	1258074	keystroke	Key.space	n/a
629.262	0.075	1258524	keystroke	s	n/a
629.367	0.03	1258734	keystroke	p	n/a
630.147	0.075	1260294	keystroke	i	n/a
630.312	0.0895	1260624	keystroke	n	n/a
630.4165	0.09	1260833	keystroke	e	n/a
630.5515	0.09	1261103	keystroke	Key.space	n/a
631.2415	0.09	1262483	keystroke	s	n/a
631.3465	0.105	1262693	keystroke	o	n/a
631.4365	0.09	1262873	keystroke	m	n/a
631.5715	0.105	1263143	keystroke	e	n/a
631.9315	0.06	1263863	keystroke	w	n/a
632.5315	0.06	1265063	keystroke	h	n/a
632.6515	0.12	1265303	keystroke	a	n/a
632.787	0.104	1265574	keystroke	t	n/a
633.581	0.075	1267162	keystroke	Key.space	n/a
634.106	0.09	1268212	keystroke	a	n/a
634.241	0.09	1268482	keystroke	l	n/a
634.497	0.105	1268994	keystroke	t	n/a
634.707	0.165	1269414	keystroke	e	n/a
634.781	0.136	1269562	keystroke	r	n/a
635.486	0.09	1270972	keystroke	Key.enter	n/a
635.581	10.7375	1271162	prompt	n/a	colleges older extends responded\n
636.4325	0.104	1272865	keystroke	c	n/a
636.6115	0.091	1273223	keystroke	o	n/a
636.8525	0.075	1273705	keystroke	l	n/a
636.9865	0.091	1273973	keystroke	l	n/a
637.0915	0.106	1274183	keystroke	e	n/a
637.332	0.15	1274664	keystroke	g	n/a
637.467	0.105	1274934	keystroke	e	n/a
637.7675	0.0745	1275535	keystroke	s	n/a
637.931	0.09	1275862	keystroke	Key.space	n/a
638.397	0.06	1276794	keystroke	o	n/a
638.577	0.09	1277154	keystroke	l	n/a
639.1475	0.09	1278295	keystroke	d	n/a
639.387	0.15	1278774	keystroke	e	n/a
639.477	0.12	1278954	keystroke	r	n/a
639.806	0.0755	1279612	keystroke	Key.space	n/a
640.287	0.0755	1280574	keystroke	e	n/a
640.5725	0.12	1281145	keystroke	x	n/a
640.8425	0.12	1281685	keystroke	t	n/a
640.9775	0.105	1281955	keystroke	e	n/a
641.2775	0.075	1282555	keystroke	n	n/a
641.4125	0.1945	1282825	keystroke	d	n/a
641.712	0.075	1283424	keystroke	s	n/a
641.921	0.0605	1283842	keystroke	Key.space	n/a
642.2525	0.03	1284505	keystroke	s	n/a
642.5975	0.089	1285195	keystroke	Key.backspace	n/a
642.7025	0.09	1285405	keystroke	r	n/a
642.7625	0.09	1285525	keystroke	e	n/a
643.4525	0.09	1286905	keystroke	s	n/a
643.5575	0.105	1287115	keystroke	p	n/a
643.7975	0.09	1287595	keystroke	o	n/a
644.0225	0.075	1288045	keystroke	k	n/a
644.6075	0.075	1289215	keystroke	Key.backspace	n/a
644.8775	0.09	1289755	keystroke	n	n/a
645.1175	0.075	1290235	keystroke	d	n/a
645.3275	0.06	1290655	keystroke	e	n/a
645.5075	0.15	1291015	keystroke	d	n/a
646.2425	0.075	1292485	keystroke	Key.enter	n/a
646.323	10.015	1292646	prompt	n/a	meaning substances engaged queensland\n
647.0825	0.075	1294165	keystroke	m	n/a
647.1725	0.135	1294345	keystroke	e	n/a
647.3225	0.15	1294645	keystroke	a	n/a
647.4875	0.06	1294975	keystroke	n	n/a
647.6525	0.105	1295305	keystroke	i	n/a
647.7425	0.09	1295485	keystroke	n	n/a
647.8625	0.075	1295725	keystroke	g	n/a
648.2075	0.09	1296415	keystroke	Key.space	n/a
648.5525	0.09	1297105	keystroke	s	n/a
648.6725	0.09	1297345	keystroke	u	n/a
648.8975	0.105	1297795	keystroke	b	n/a
649.3925	0.09	1298785	keystroke	s	n/a
649.5725	0.105	1299145	keystroke	t	n/a
649.7675	0.105	1299535	keystroke	a	n/a
649.8425	0.075	1299685	keystroke	n	n/a
649.9475	0.12	1299895	keystroke	c	n/a
650.0075	0.15	1300015	keystroke	e	n/a
650.2775	0.09	1300555	keystroke	s	n/a
650.4575	0.075	1300915	keystroke	Key.space	n/a
650.7575	0.075	1301515	keystroke	e	n/a
650.8625	0.075	1301725	keystroke	n	n/a
651.0725	0.09	1302145	keystroke	g	n/a
651.2825	0.105	1302565	keystroke	a	n/a
651.4475	0.12	1302895	keystroke	g	n/a
651.6275	0.12	1303255	keystroke	e	n/a
651.9575	0.075	1303915	keystroke	d	n/a
652.2125	0.075	1304425	keystroke	Key.space	n/a
652.9325	0.09	1305865	keystroke	q	n/a
653.1575	0.075	1306315	keystroke	u	n/a
653.4575	0.06	1306915	keystroke	e	n/a
653.5925	0.06	1307185	keystroke	e	n/a
653.6675	0.075	1307335	keystroke	n	n/a
653.8925	0.06	1307785	keystroke	l	n/a
654.7025	0.0895	1309405	keystroke	Key.backspace	n/a
654.9425	0.075	1309885	keystroke	s	n/a
655.1075	0.0895	1310215	keystroke	l	n/a
655.302	0.075	1310604	keystroke	a	n/a
655.467	0.06	1310934	keystroke	n	n/a
655.587	0.105	1311174	keystroke	d	n/a
656.262	0.075	1312524	keystroke	Key.enter	n/a
656.341	11.3215	1312682	prompt	n/a	sensitive somalia larger genesis\n
657.012	0.075	1314024	keystroke	s	n/a
657.297	0.075	1314594	keystroke	n	n/a
657.492	0.09	1314984	keystroke	e	n/a
657.732	0.075	1315464	keystroke	i	n/a
658.287	0.045	1316574	keystroke	Key.backspace	n/a
658.407	0.075	1316814	keystroke	Key.backspace	n/a
658.887	0.075	1317774	keystroke	Key.backspace	n/a
659.112	0.03	1318224	keystroke	e	n/a
659.532	0.075	1319064	keystroke	n	n/a
659.742	0.075	1319484	keystroke	s	n/a
659.847	0.075	1319694	keystroke	i	n/a
660.087	0.105	1320174	keystroke	t	n/a
660.237	0.09	1320474	keystroke	i	n/a
660.357	0.15	1320714	keystroke	v	n/a
660.507	0.105	1321014	keystroke	e	n/a
661.1365	0.075	1322273	keystroke	Key.space	n/a
661.3465	0.09	1322693	keystroke	s	n/a
661.5115	0.105	1323023	keystroke	o	n/a
661.6315	0.12	1323263	keystroke	m	n/a
662.861	0.105	1325722	keystroke	a	n/a
662.996	0.09	1325992	keystroke	l	n/a
663.2215	0.0895	1326443	keystroke	i	n/a
663.356	0.105	1326712	keystroke	a	n/a
663.521	0.075	1327042	keystroke	Key.space	n/a
663.881	0.075	1327762	keystroke	l	n/a
663.986	0.135	1327972	keystroke	a	n/a
664.181	0.09	1328362	keystroke	r	n/a
664.376	0.09	1328752	keystroke	g	n/a
664.511	0.18	1329022	keystroke	e	n/a
664.631	0.105	1329262	keystroke	r	n/a
664.781	0.075	1329562	keystroke	Key.space	n/a
665.441	0.075	1330882	keystroke	g	n/a
665.651	0.09	1331302	keystroke	e	n/a
665.861	0.06	1331722	keystroke	n	n/a
666.056	0.075	1332112	keystroke	e	n/a
666.506	0.09	1333012	keystroke	s	n/a
666.686	0.09	1333372	keystroke	i	n/a
666.761	0.09	1333522	keystroke	s	n/a
667.586	0.075	1335172	keystroke	Key.enter	n/a
667.665	8.787	1335330	prompt	n/a	rocky chest diving supporters\n
668.411	0.12	1336822	keystroke	r	n/a
668.501	0.15	1337002	keystroke	e	n/a
669.371	0.06	1338742	keystroke	Key.backspace	n/a
669.671	0.09	1339342	keystroke	o	n/a
669.821	0.075	1339642	keystroke	c	n/a
669.911	0.105	1339822	keystroke	k	n/a
670.166	0.06	1340332	keystroke	y	n/a
670.391	0.075	1340782	keystroke	Key.space	n/a
670.676	0.09	1341352	keystroke	c	n/a
670.811	0.06	1341622	keystroke	h	n/a
670.916	0.075	1341832	keystroke	e	n/a
671.111	0.105	1342222	keystroke	s	n/a
671.186	0.075	1342372	keystroke	Key.space	n/a
671.351	0.09	1342702	keystroke	t	n/a
671.636	0.06	1343272	keystroke	Key.backspace	n/a
671.756	0.09	1343512	keystroke	Key.backspace	n/a
671.876	0.09	1343752	keystroke	t	n/a
672.026	0.06	1344052	keystroke	Key.space	n/a
672.611	0.075	1345222	keystroke	d	n/a
672.776	0.075	1345552	keystroke	i	n/a
672.896	0.09	1345792	keystroke	v	n/a
673.061	0.135	1346122	keystroke	i	n/a
673.181	0.09	1346362	keystroke	n	n/a
673.286	0.09	1346572	keystroke	g	n/a
673.451	0.075	1346902	keystroke	Key.space	n/a
674.081	0.09	1348162	keystroke	s	n/a
674.231	0.075	1348462	keystroke	u	n/a
674.486	0.06	1348972	keystroke	p	n/a
674.621	0.075	1349242	keystroke	p	n/a
674.816	0.09	1349632	keystroke	o	n/a
674.951	0.09	1349902	keystroke	r	n/a
675.146	0.075	1350292	keystroke	t	n/a
675.296	0.225	1350592	keystroke	e	n/a
675.431	0.135	1350862	keystroke	r	n/a
675.686	0.105	1351372	keystroke	s	n/a
676.361	0.09	1352722	keystroke	Key.enter	n/a
676.455	14.847	1352910	prompt	n/a	palm comics lover winners\n
677.1705	0.09	1354341	keystroke	p	n/a
677.561	0.0445	1355122	keystroke	l	n/a
677.7855	0.12	1355571	keystroke	a	n/a
678.4305	0.075	1356861	keystroke	Key.backspace	n/a
678.5955	0.075	1357191	keystroke	Key.backspace	n/a
678.8505	0.09	1357701	keystroke	a	n/a
679.5105	0.09	1359021	keystroke	l	n/a
679.8555	0.045	1359711	keystroke	Key.space	n/a
680.4255	0.045	1360851	keystroke	\	n/a
681.3105	0.075	1362621	keystroke	Key.backspace	n/a
681.4605	0.075	1362921	keystroke	Key.backspace	n/a
681.746	0.075	1363492	keystroke	m	n/a
683.4855	0.06	1366971	keystroke	Key.space	n/a
683.7255	0.09	1367451	keystroke	c	n/a
683.8755	0.135	1367751	keystroke	o	n/a
684.0255	0.045	1368051	keystroke	m	n/a
684.1755	0.075	1368351	keystroke	i	n/a
684.2955	0.105	1368591	keystroke	c	n/a
684.4755	0.12	1368951	keystroke	s	n/a
684.5655	0.075	1369131	keystroke	Key.space	n/a
685.0155	0.075	1370031	keystroke	l	n/a
685.1955	0.09	1370391	keystroke	v	n/a
685.2105	0.06	1370421	keystroke	o	n/a
685.3755	0.165	1370751	keystroke	e	n/a
685.4805	0.09	1370961	keystroke	r	n/a
685.6155	0.09	1371231	keystroke	Key.space	n/a
686.3505	0.06	1372701	keystroke	Key.backspace	n/a
686.4855	0.09	1372971	keystroke	Key.backspace	n/a
686.6505	0.075	1373301	keystroke	Key.backspace	n/a
686.8455	0.06	1373691	keystroke	Key.backspace	n/a
687.0255	0.075	1374051	keystroke	Key.backspace	n/a
687.311	0.09	1374622	keystroke	o	n/a
687.431	0.075	1374862	keystroke	v	n/a
687.566	0.1795	1375132	keystroke	e	n/a
687.686	0.0745	1375372	keystroke	r	n/a
687.7755	0.09	1375551	keystroke	Key.space	n/a
689.006	0.09	1378012	keystroke	w	n/a
689.2155	0.09	1378431	keystroke	i	n/a
689.4855	0.06	1378971	keystroke	n	n/a
689.6955	0.015	1379391	keystroke	n	n/a
689.7405	0.135	1379481	keystroke	e	n/a
689.8305	0.105	1379661	keystroke	r	n/a
690.0405	0.135	1380081	keystroke	s	n/a
691.2255	0.075	1382451	keystroke	Key.enter	n/a
691.307	6.895	1382614	prompt	n/a	cursor odds down somewhat\n
692.3055	0.09	1384611	keystroke	c	n/a
692.5155	0.09	1385031	keystroke	u	n/a
692.7105	0.105	1385421	keystroke	r	n/a
692.9505	0.09	1385901	keystroke	s	n/a
693.0705	0.09	1386141	keystroke	o	n/a
693.2505	0.09	1386501	keystroke	r	n/a
693.3855	0.075	1386771	keystroke	Key.space	n/a
693.6705	0.09	1387341	keystroke	o	n/a
693.8205	0.075	1387641	keystroke	d	n/a
693.9855	0.075	1387971	keystroke	d	n/a
694.1505	0.105	1388301	keystroke	s	n/a
694.2855	0.075	1388571	keystroke	Key.space	n/a
694.8255	0.09	1389651	keystroke	d	n/a
694.9605	0.09	1389921	keystroke	o	n/a
695.0655	0.105	1390131	keystroke	w	n/a
695.2005	0.09	1390401	keystroke	n	n/a
695.4255	0.075	1390851	keystroke	Key.space	n/a
695.8605	0.075	1391721	keystroke	s	n/a
695.9655	0.135	1391931	keystroke	o	n/a
696.1155	0.09	1392231	keystroke	m	n/a
696.2655	0.0455	1392531	keystroke	e	n/a
696.8055	0.045	1393611	keystroke	w	n/a
696.9705	0.075	1393941	keystroke	h	n/a
697.1655	0.135	1394331	keystroke	a	n/a
697.3305	0.105	1394661	keystroke	t	n/a
698.1255	0.075	1396251	keystroke	Key.enter	n/a
698.205	9.4175	1396410	prompt	n/a	millions freely valentine kruger\n
699.0255	0.06	1398051	keystroke	m	n/a
699.2205	0.075	1398441	keystroke	i	n/a
699.4455	0.06	1398891	keystroke	l	n/a
699.5805	0.075	1399161	keystroke	l	n/a
699.7155	0.15	1399431	keystroke	i	n/a
699.8355	0.12	1399671	keystroke	o	n/a
699.8805	0.12	1399761	keystroke	n	n/a
700.0905	0.075	1400181	keystroke	s	n/a
700.1955	0.09	1400391	keystroke	Key.space	n/a
700.4355	0.0905	1400871	keystroke	f	n/a
700.7805	0.105	1401561	keystroke	r	n/a
701.1855	0.06	1402371	keystroke	e	n/a
701.3355	0.075	1402671	keystroke	e	n/a
701.5305	0.09	1403061	keystroke	l	n/a
701.9205	0.075	1403841	keystroke	y	n/a
702.1755	0.075	1404351	keystroke	Key.space	n/a
703.3005	0.075	1406601	keystroke	v	n/a
703.4505	0.105	1406901	keystroke	a	n/a
703.5855	0.105	1407171	keystroke	l	n/a
703.8555	0.075	1407711	keystroke	e	n/a
704.0955	0.015	1408191	keystroke	n	n/a
704.1705	0.09	1408341	keystroke	t	n/a
704.2755	0.135	1408551	keystroke	i	n/a
704.4105	0.09	1408821	keystroke	n	n/a
704.5305	0.075	1409061	keystroke	e	n/a
704.6805	0.075	1409361	keystroke	Key.space	n/a
705.1455	0.06	1410291	keystroke	k	n/a
705.7605	0.09	1411521	keystroke	r	n/a
705.9555	0.075	1411911	keystroke	u	n/a
706.3605	0.075	1412721	keystroke	g	n/a
706.5255	0.195	1413051	keystroke	e	n/a
706.6155	0.15	1413231	keystroke	r	n/a
707.5455	0.075	1415091	keystroke	Key.enter	n/a
707.627	11.5305	1415254	prompt	n/a	locked stats antonio launches\n
708.7905	0.075	1417581	keystroke	l	n/a
708.9705	0.075	1417941	keystroke	o	n/a
709.0605	0.075	1418121	keystroke	c	n/a
709.1655	0.09	1418331	keystroke	k	n/a
709.3155	0.075	1418631	keystroke	e	n/a
709.5105	0.075	1419021	keystroke	d	n/a
709.6005	0.075	1419201	keystroke	Key.space	n/a
709.8555	0.105	1419711	keystroke	s	n/a
710.0205	0.105	1420041	keystroke	t	n/a
710.2155	0.075	1420431	keystroke	a	n/a
710.3355	0.09	1420671	keystroke	t	n/a
710.8155	0.075	1421631	keystroke	s	n/a
710.9955	0.075	1421991	keystroke	Key.space	n/a
711.4455	0.105	1422891	keystroke	a	n/a
711.5655	0.06	1423131	keystroke	n	n/a
711.8655	0.09	1423731	keystroke	t	n/a
712.4505	0.09	1424901	keystroke	o	n/a
712.6005	0.0905	1425201	keystroke	n	n/a
712.826	0.09	1425652	keystroke	i	n/a
713.081	0.105	1426162	keystroke	a	n/a
713.711	0.075	1427422	keystroke	Key.backspace	n/a
714.071	0.09	1428142	keystroke	o	n/a
714.296	0.075	1428592	keystroke	Key.space	n/a
714.581	0.09	1429162	keystroke	l	n/a
714.731	0.09	1429462	keystroke	a	n/a
714.911	0.09	1429822	keystroke	u	n/a
717.884	0.012	1435768	keystroke	n	n/a
718.031	0.09	1436062	keystroke	c	n/a
718.136	0.075	1436272	keystroke	h	n/a
718.256	0.09	1436512	keystroke	e	n/a
718.481	0.12	1436962	keystroke	s	n/a
719.081	0.075	1438162	keystroke	Key.enter	n/a
719.163	9.6995	1438326	prompt	n/a	powers bands handles robust\n
719.816	0.075	1439632	keystroke	p	n/a
720.011	0.105	1440022	keystroke	o	n/a
720.311	0.06	1440622	keystroke	w	n/a
720.341	0.195	1440682	keystroke	e	n/a
720.491	0.136	1440982	keystroke	r	n/a
720.791	0.12	1441582	keystroke	s	n/a
721.001	0.06	1442002	keystroke	Key.space	n/a
721.436	0.06	1442872	keystroke	b	n/a
721.571	0.09	1443142	keystroke	a	n/a
721.721	0.09	1443442	keystroke	n	n/a
721.856	0.12	1443712	keystroke	d	n/a
722.036	0.12	1444072	keystroke	s	n/a
722.276	0.075	1444552	keystroke	Key.space	n/a
722.891	0.075	1445782	keystroke	b	n/a
723.086	0.136	1446172	keystroke	a	n/a
724.0165	0.09	1448033	keystroke	Key.backspace	n/a
724.1665	0.075	1448333	keystroke	Key.backspace	n/a
725.0965	0.09	1450193	keystroke	h	n/a
725.4715	0.105	1450943	keystroke	a	n/a
725.6815	0.06	1451363	keystroke	n	n/a
725.8015	0.12	1451603	keystroke	d	n/a
726.1015	0.09	1452203	keystroke	l	n/a
726.1765	0.15	1452353	keystroke	e	n/a
726.4015	0.12	1452803	keystroke	s	n/a
726.6415	0.06	1453283	keystroke	Key.space	n/a
727.0315	0.075	1454063	keystroke	r	n/a
727.1665	0.105	1454333	keystroke	o	n/a
727.5865	0.075	1455173	keystroke	b	n/a
727.8265	0.075	1455653	keystroke	u	n/a
727.9315	0.12	1455863	keystroke	s	n/a
728.0815	0.12	1456163	keystroke	t	n/a
728.7865	0.075	1457573	keystroke	Key.enter	n/a
728.866	12.4165	1457732	prompt	n/a	gonna enjoying collectibles chicago\n
729.9265	0.09	1459853	keystroke	g	n/a
730.1215	0.105	1460243	keystroke	o	n/a
730.4065	0.045	1460813	keystroke	n	n/a
730.5265	0.075	1461053	keystroke	n	n/a
730.6465	0.105	1461293	keystroke	a	n/a
730.7665	0.09	1461533	keystroke	Key.space	n/a
731.5765	0.09	1463153	keystroke	e	n/a
731.7115	0.075	1463423	keystroke	n	n/a
731.9665	0.075	1463933	keystroke	o	n/a
732.2065	0.075	1464413	keystroke	y	n/a
732.8965	0.075	1465793	keystroke	Key.backspace	n/a
733.1215	0.09	1466243	keystroke	Key.backspace	n/a
733.7065	0.09	1467413	keystroke	j	n/a
733.9165	0.165	1467833	keystroke	o	n/a
734.0815	0.06	1468163	keystroke	y	n/a
734.2765	0.15	1468553	keystroke	i	n/a
734.4865	0.075	1468973	keystroke	n	n/a
734.7415	0.075	1469483	keystroke	g	n/a
735.0115	0.075	1470023	keystroke	Key.space	n/a
735.5065	0.09	1471013	keystroke	c	n/a
736.1215	0.075	1472243	keystroke	o	n/a
736.3765	0.06	1472753	keystroke	l	n/a
736.5115	0.09	1473023	keystroke	l	n/a
736.6315	0.105	1473263	keystroke	e	n/a
736.8715	0.09	1473743	keystroke	c	n/a
737.1115	0.12	1474223	keystroke	t	n/a
737.6515	0.075	1475303	keystroke	i	n/a
737.8165	0.09	1475633	keystroke	b	n/a
738.0715	0.09	1476143	keystroke	l	n/a
738.1915	0.105	1476383	keystroke	e	n/a
738.3715	0.105	1476743	keystroke	s	n/a
738.4915	0.06	1476983	keystroke	Key.space	n/a
738.7615	0.09	1477523	keystroke	c	n/a
738.8965	0.09	1477793	keystroke	h	n/a
739.0465	0.105	1478093	keystroke	i	n/a
739.3615	0.09	1478723	keystroke	c	n/a
739.5415	0.15	1479083	keystroke	a	n/a
739.8415	0.105	1479683	keystroke	g	n/a
740.2015	0.09	1480403	keystroke	o	n/a
741.2065	0.075	1482413	keystroke	Key.enter	n/a
741.286	10.812	1482572	prompt	n/a	incentive oecd modify seeks\n
741.9415	0.09	1483883	keystroke	i	n/a
742.0915	0.105	1484183	keystroke	n	n/a
742.2115	0.12	1484423	keystroke	c	n/a
742.3765	0.105	1484753	keystroke	e	n/a
742.5115	0.075	1485023	keystroke	n	n/a
742.6765	0.105	1485353	keystroke	t	n/a
742.7965	0.12	1485593	keystroke	i	n/a
742.9615	0.135	1485923	keystroke	v	n/a
743.1115	0.09	1486223	keystroke	e	n/a
743.2315	0.075	1486463	keystroke	Key.space	n/a
744.3265	0.075	1488653	keystroke	o	n/a
744.6865	0.09	1489373	keystroke	e	n/a
745.1065	0.105	1490213	keystroke	c	n/a
745.3465	0.12	1490693	keystroke	d	n/a
745.7815	0.06	1491563	keystroke	Key.space	n/a
746.8465	0.09	1493693	keystroke	o	n/a
747.0865	0.135	1494173	keystroke	d	n/a
747.2515	0.09	1494503	keystroke	i	n/a
747.8065	0.075	1495613	keystroke	Key.backspace	n/a
747.9415	0.09	1495883	keystroke	Key.backspace	n/a
748.1365	0.075	1496273	keystroke	Key.backspace	n/a
748.4665	0.075	1496933	keystroke	m	n/a
749.0515	0.075	1498103	keystroke	o	n/a
749.2465	0.09	1498493	keystroke	d	n/a
749.3965	0.09	1498793	keystroke	i	n/a
749.6815	0.075	1499363	keystroke	f	n/a
749.8315	0.075	1499663	keystroke	y	n/a
750.2515	0.06	1500503	keystroke	Key.space	n/a
750.5215	0.09	1501043	keystroke	s	n/a
750.7315	0.075	1501463	keystroke	e	n/a
