onset	duration	sample	value	key	prompt_text
6.4025	14.3645	12805	prompt	n/a	the quick brown fox jumps over a lazy dog\n
7.4455	0.012	14891	keystroke_t	t	n/a
7.5185	0.0745	15037	keystroke_h	h	n/a
7.623	0.075	15246	keystroke_e	e	n/a
8.3425	0.075	16685	keystroke_Key.space	Key.space	n/a
8.4925	0.12	16985	keystroke_q	q	n/a
8.5975	0.09	17195	keystroke_u	u	n/a
8.7925	0.09	17585	keystroke_i	i	n/a
8.9275	0.075	17855	keystroke_c	c	n/a
9.1675	0.09	18335	keystroke_Key.space	Key.space	n/a
9.4075	0.09	18815	keystroke_Key.backspace	Key.backspace	n/a
9.5725	0.09	19145	keystroke_j	j	n/a
9.9475	0.135	19895	keystroke_Key.backspace	Key.backspace	n/a
10.2925	0.075	20585	keystroke_k	k	n/a
10.3685	0.104	20737	keystroke_Key.space	Key.space	n/a
10.7425	0.09	21485	keystroke_b	b	n/a
10.9225	0.06	21845	keystroke_o	o	n/a
11.0275	0.12	22055	keystroke_w	w	n/a
11.3425	0.09	22685	keystroke_Key.backspace	Key.backspace	n/a
11.4925	0.135	22985	keystroke_Key.backspace	Key.backspace	n/a
11.5525	0.09	23105	keystroke_w	w	n/a
11.6125	0.105	23225	keystroke_o	o	n/a
11.7925	0.075	23585	keystroke_e	e	n/a
12.0925	0.09	24185	keystroke_Key.backspace	Key.backspace	n/a
12.2575	0.09	24515	keystroke_Key.backspace	Key.backspace	n/a
12.4075	0.1195	24815	keystroke_Key.backspace	Key.backspace	n/a
12.5435	0.074	25087	keystroke_r	r	n/a
12.6325	0.075	25265	keystroke_o	o	n/a
12.7525	0.06	25505	keystroke_w	w	n/a
12.8725	0.045	25745	keystroke_n	n	n/a
12.9775	0.105	25955	keystroke_Key.space	Key.space	n/a
13.7125	0.03	27425	keystroke_f	f	n/a
13.8175	0.06	27635	keystroke_f	f	n/a
14.2825	0.1505	28565	keystroke_Key.backspace	Key.backspace	n/a
14.388	0.12	28776	keystroke_o	o	n/a
14.523	0.045	29046	keystroke_c	c	n/a
14.883	0.074	29766	keystroke_Key.backspace	Key.backspace	n/a
14.943	0.105	29886	keystroke_x	x	n/a
15.138	0.1345	30276	keystroke_Key.space	Key.space	n/a
15.6475	0.105	31295	keystroke_j	j	n/a
15.7675	0.09	31535	keystroke_u	u	n/a
15.8875	0.075	31775	keystroke_m	m	n/a
16.0675	0.09	32135	keystroke_p	p	n/a
16.1725	0.075	32345	keystroke_s	s	n/a
16.2325	0.09	32465	keystroke_Key.space	Key.space	n/a
16.3375	0.075	32675	keystroke_o	o	n/a
16.4275	0.06	32855	keystroke_v	v	n/a
16.5475	0.105	33095	keystroke_e	e	n/a
16.6075	0.09	33215	keystroke_r	r	n/a
16.7125	0.075	33425	keystroke_Key.space	Key.space	n/a
16.8175	0.06	33635	keystroke_a	a	n/a
16.8775	0.0755	33755	keystroke_Key.space	Key.space	n/a
17.0725	0.075	34145	keystroke_l	l	n/a
17.1175	0.135	34235	keystroke_a	a	n/a
17.2675	0.12	34535	keystroke_z	z	n/a
17.4625	0.09	34925	keystroke_y	y	n/a
17.6575	0.105	35315	keystroke_Key.space	Key.space	n/a
17.928	0.045	35856	keystroke_g	g	n/a
18.003	0.075	36006	keystroke_o	o	n/a
18.138	0.075	36276	keystroke_d	d	n/a
18.483	0.075	36966	keystroke_Key.backspace	Key.backspace	n/a
18.6325	0.09	37265	keystroke_Key.backspace	Key.backspace	n/a
18.7825	0.075	37565	keystroke_Key.backspace	Key.backspace	n/a
18.9325	0.0605	37865	keystroke_g	g	n/a
19.2925	0.105	38585	keystroke_Key.backspace	Key.backspace	n/a
19.5175	0.09	39035	keystroke_o	o	n/a
19.8475	0.09	39695	keystroke_Key.backspace	Key.backspace	n/a
20.1175	0.06	40235	keystroke_d	d	n/a
20.2225	0.091	40445	keystroke_o	o	n/a
20.3275	0.075	40655	keystroke_g	g	n/a
20.6875	0.075	41375	keystroke_Key.enter	Key.enter	n/a
20.7725	8.153	41545	prompt	n/a	length rare shield advertiser\n
21.4525	0.091	42905	keystroke_l	l	n/a
21.5575	0.0755	43115	keystroke_e	e	n/a
21.6925	0.075	43385	keystroke_n	n	n/a
21.7525	0.09	43505	keystroke_g	g	n/a
21.8875	0.075	43775	keystroke_t	t	n/a
21.9775	0.06	43955	keystroke_h	h	n/a
22.3675	0.075	44735	keystroke_Key.space	Key.space	n/a
22.6075	0.061	45215	keystroke_r	r	n/a
22.7725	0.06	45545	keystroke_a	a	n/a
22.8775	0.06	45755	keystroke_t	t	n/a
22.9385	0.089	45877	keystroke_e	e	n/a
23.0425	0.075	46085	keystroke_Key.space	Key.space	n/a
23.1475	0.105	46295	keystroke_s	s	n/a
23.2375	0.045	46475	keystroke_h	h	n/a
23.3875	0.075	46775	keystroke_i	i	n/a
23.4925	0.06	46985	keystroke_e	e	n/a
23.6725	0.12	47345	keystroke_Key.backspace	Key.backspace	n/a
23.8525	0.105	47705	keystroke_Key.backspace	Key.backspace	n/a
24.0325	0.105	48065	keystroke_Key.backspace	Key.backspace	n/a
24.2275	0.09	48455	keystroke_Key.backspace	Key.backspace	n/a
24.3625	0.12	48725	keystroke_Key.backspace	Key.backspace	n/a
24.5425	0.075	49085	keystroke_Key.backspace	Key.backspace	n/a
24.6925	0.105	49385	keystroke_Key.backspace	Key.backspace	n/a
24.8275	0.09	49655	keystroke_r	r	n/a
24.8875	0.09	49775	keystroke_e	e	n/a
25.0375	0.075	50075	keystroke_Key.space	Key.space	n/a
25.188	0.12	50376	keystroke_s	s	n/a
25.383	0.105	50766	keystroke_h	h	n/a
25.608	0.09	51216	keystroke_i	i	n/a
25.773	0.075	51546	keystroke_e	e	n/a
25.9225	0.091	51845	keystroke_l	l	n/a
26.0275	0.0755	52055	keystroke_d	d	n/a
26.118	0.195	52236	keystroke_Key.space	Key.space	n/a
26.5835	0.075	53167	keystroke_a	a	n/a
26.7175	0.076	53435	keystroke_d	d	n/a
26.9285	0.044	53857	keystroke_v	v	n/a
27.0485	0.105	54097	keystroke_e	e	n/a
27.2435	0.044	54487	keystroke_r	r	n/a
27.378	0.06	54756	keystroke_t	t	n/a
27.528	0.06	55056	keystroke_i	i	n/a
27.918	0.06	55836	keystroke_z	z	n/a
28.158	0.105	56316	keystroke_Key.backspace	Key.backspace	n/a
28.218	0.075	56436	keystroke_s	s	n/a
28.4135	0.1045	56827	keystroke_e	e	n/a
28.473	0.09	56946	keystroke_r	r	n/a
28.8475	0.075	57695	keystroke_Key.enter	Key.enter	n/a
28.931	11.214	57862	prompt	n/a	who's move mpegs experience\n
31.1165	0.027	62233	keystroke_w	w	n/a
31.1735	0.09	62347	keystroke_h	h	n/a
31.3835	0.09	62767	keystroke_o	o	n/a
31.4885	0.045	62977	keystroke_s	s	n/a
31.8325	0.09	63665	keystroke_Key.backspace	Key.backspace	n/a
32.2085	0.09	64417	keystroke_'	'	n/a
32.3135	0.135	64627	keystroke_s	s	n/a
32.4925	0.135	64985	keystroke_Key.space	Key.space	n/a
33.2735	0.045	66547	keystroke_m	m	n/a
33.3325	0.106	66665	keystroke_o	o	n/a
33.4085	0.075	66817	keystroke_v	v	n/a
33.5575	0.076	67115	keystroke_e	e	n/a
33.7075	0.045	67415	keystroke_Key.space	Key.space	n/a
33.9335	0.089	67867	keystroke_p	p	n/a
34.2185	0.09	68437	keystroke_m	m	n/a
34.6835	0.074	69367	keystroke_Key.backspace	Key.backspace	n/a
34.9385	0.029	69877	keystroke_Key.backspace	Key.backspace	n/a
34.9525	0.061	69905	keystroke_m	m	n/a
35.1485	0.09	70297	keystroke_p	p	n/a
35.4635	0.135	70927	keystroke_e	e	n/a
35.6285	0.075	71257	keystroke_g	g	n/a
35.8235	0.074	71647	keystroke_s	s	n/a
35.9725	0.091	71945	keystroke_Key.space	Key.space	n/a
36.4535	0.075	72907	keystroke_e	e	n/a
36.5885	0.12	73177	keystroke_x	x	n/a
37.1435	0.075	74287	keystroke_t	t	n/a
37.3685	0.09	74737	keystroke_e	e	n/a
38.2535	0.03	76507	keystroke_Key.backspace	Key.backspace	n/a
38.4025	0.181	76805	keystroke_Key.backspace	Key.backspace	n/a
38.5675	0.106	77135	keystroke_p	p	n/a
38.7785	0.135	77557	keystroke_e	e	n/a
38.8535	0.09	77707	keystroke_r	r	n/a
38.9885	0.12	77977	keystroke_i	i	n/a
39.2885	0.075	78577	keystroke_e	e	n/a
39.6185	0.075	79237	keystroke_n	n	n/a
39.6785	0.09	79357	keystroke_c	c	n/a
39.7535	0.12	79507	keystroke_e	e	n/a
40.0525	0.09	80105	keystroke_Key.enter	Key.enter	n/a
40.151	9.699	80302	prompt	n/a	screw treasurer tiny byte\n
40.8335	0.089	81667	keystroke_s	s	n/a
41.0135	0.09	82027	keystroke_c	c	n/a
41.0885	0.105	82177	keystroke_r	r	n/a
41.2985	0.075	82597	keystroke_e	e	n/a
41.7785	0.105	83557	keystroke_w	w	n/a
42.0035	0.075	84007	keystroke_Key.space	Key.space	n/a
42.2585	0.06	84517	keystroke_t	t	n/a
42.4385	0.06	84877	keystroke_r	r	n/a
42.8285	0.12	85657	keystroke_e	e	n/a
43.5785	0.135	87157	keystroke_a	a	n/a
43.6535	0.12	87307	keystroke_s	s	n/a
44.6435	0.075	89287	keystroke_u	u	n/a
44.7935	0.09	89587	keystroke_t	t	n/a
45.1535	0.12	90307	keystroke_e	e	n/a
45.2585	0.09	90517	keystroke_r	r	n/a
45.4835	0.075	90967	keystroke_Key.space	Key.space	n/a
45.7385	0.105	91477	keystroke_Key.backspace	Key.backspace	n/a
45.9335	0.09	91867	keystroke_Key.backspace	Key.backspace	n/a
46.0835	0.105	92167	keystroke_Key.backspace	Key.backspace	n/a
46.2335	0.12	92467	keystroke_Key.backspace	Key.backspace	n/a
46.3385	0.135	92677	keystroke_r	r	n/a
46.4585	0.12	92917	keystroke_e	e	n/a
46.5485	0.12	93097	keystroke_r	r	n/a
46.6835	0.105	93367	keystroke_Key.space	Key.space	n/a
47.7035	0.09	95407	keystroke_t	t	n/a
47.8085	0.12	95617	keystroke_i	i	n/a
47.8985	0.12	95797	keystroke_n	n	n/a
48.1385	0.09	96277	keystroke_y	y	n/a
48.2885	0.135	96577	keystroke_Key.space	Key.space	n/a
48.4985	0.075	96997	keystroke_b	b	n/a
48.7235	0.105	97447	keystroke_y	y	n/a
49.2185	0.12	98437	keystroke_t	t	n/a
49.3985	0.105	98797	keystroke_e	e	n/a
49.7135	0.135	99427	keystroke_Key.enter	Key.enter	n/a
49.8555	9.1455	99711	prompt	n/a	counseling triple increases hence\n
51.2735	0.075	102547	keystroke_c	c	n/a
51.6485	0.09	103297	keystroke_o	o	n/a
51.8735	0.12	103747	keystroke_u	u	n/a
51.9785	0.105	103957	keystroke_n	n	n/a
52.2635	0.075	104527	keystroke_s	s	n/a
52.4435	0.09	104887	keystroke_e	e	n/a
52.5935	0.105	105187	keystroke_l	l	n/a
52.9235	0.09	105847	keystroke_i	i	n/a
53.0585	0.075	106117	keystroke_n	n	n/a
53.1635	0.075	106327	keystroke_g	g	n/a
53.2535	0.075	106507	keystroke_Key.space	Key.space	n/a
53.6435	0.06	107287	keystroke_t	t	n/a
53.8235	0.075	107647	keystroke_r	r	n/a
54.0335	0.045	108067	keystroke_i	i	n/a
54.4085	0.135	108817	keystroke_p	p	n/a
54.5285	0.12	109057	keystroke_l	l	n/a
54.6335	0.105	109267	keystroke_e	e	n/a
54.8135	0.18	109627	keystroke_Key.space	Key.space	n/a
55.3235	0.12	110647	keystroke_i	i	n/a
55.4585	0.09	110917	keystroke_n	n	n/a
55.5785	0.135	111157	keystroke_c	c	n/a
55.7735	0.105	111547	keystroke_r	r	n/a
55.9535	0.105	111907	keystroke_e	e	n/a
56.1335	0.165	112267	keystroke_a	a	n/a
56.2385	0.105	112477	keystroke_s	s	n/a
56.7935	0.105	113587	keystroke_e	e	n/a
56.9885	0.12	113977	keystroke_d	d	n/a
57.3335	0.09	114667	keystroke_Key.space	Key.space	n/a
57.6635	0.06	115327	keystroke_Key.backspace	Key.backspace	n/a
57.8135	0.09	115627	keystroke_Key.backspace	Key.backspace	n/a
57.8285	0.135	115657	keystroke_s	s	n/a
57.9785	0.09	115957	keystroke_Key.space	Key.space	n/a
58.2635	0.075	116527	keystroke_h	h	n/a
58.3835	0.075	116767	keystroke_e	e	n/a
58.5335	0.075	117067	keystroke_n	n	n/a
58.6385	0.09	117277	keystroke_c	c	n/a
58.6985	0.105	117397	keystroke_e	e	n/a
58.9235	0.075	117847	keystroke_Key.enter	Key.enter	n/a
59.0045	6.6715	118009	prompt	n/a	basename faith everyday laden\n
59.9135	0.06	119827	keystroke_b	b	n/a
60.0185	0.165	120037	keystroke_a	a	n/a
60.1085	0.12	120217	keystroke_s	s	n/a
60.3485	0.105	120697	keystroke_e	e	n/a
60.5435	0.09	121087	keystroke_m	m	n/a
60.8435	0.06	121687	keystroke_Key.backspace	Key.backspace	n/a
60.9485	0.075	121897	keystroke_n	n	n/a
61.0835	0.075	122167	keystroke_a	a	n/a
61.2185	0.075	122437	keystroke_m	m	n/a
61.3085	0.075	122617	keystroke_e	e	n/a
61.4285	0.09	122857	keystroke_Key.space	Key.space	n/a
61.9685	0.075	123937	keystroke_f	f	n/a
62.0885	0.09	124177	keystroke_a	a	n/a
62.1635	0.105	124327	keystroke_i	i	n/a
62.3585	0.09	124717	keystroke_t	t	n/a
62.5085	0.105	125017	keystroke_h	h	n/a
62.6585	0.09	125317	keystroke_Key.space	Key.space	n/a
63.2885	0.045	126577	keystroke_e	e	n/a
63.3635	0.06	126727	keystroke_v	v	n/a
63.4835	0.075	126967	keystroke_e	e	n/a
63.6485	0.045	127297	keystroke_r	r	n/a
63.7235	0.06	127447	keystroke_y	y	n/a
63.8135	0.12	127627	keystroke_d	d	n/a
63.9185	0.09	127837	keystroke_a	a	n/a
63.9935	0.075	127987	keystroke_y	y	n/a
64.0985	0.135	128197	keystroke_Key.space	Key.space	n/a
64.8635	0.09	129727	keystroke_l	l	n/a
64.9385	0.09	129877	keystroke_a	a	n/a
65.0435	0.09	130087	keystroke_d	d	n/a
65.1485	0.075	130297	keystroke_e	e	n/a
65.2385	0.075	130477	keystroke_n	n	n/a
65.6135	0.06	131227	keystroke_Key.enter	Key.enter	n/a
65.683	8.5285	131366	prompt	n/a	scholar touched situation barriers\n
67.6385	0.135	135277	keystroke_s	s	n/a
67.8035	0.105	135607	keystroke_c	c	n/a
67.9535	0.09	135907	keystroke_h	h	n/a
68.2235	0.075	136447	keystroke_o	o	n/a
68.3585	0.105	136717	keystroke_l	l	n/a
68.4935	0.09	136987	keystroke_a	a	n/a
68.5985	0.105	137197	keystroke_r	r	n/a
69.2435	0.06	138487	keystroke_Key.space	Key.space	n/a
69.6485	0.075	139297	keystroke_t	t	n/a
69.7385	0.075	139477	keystroke_o	o	n/a
69.9335	0.075	139867	keystroke_u	u	n/a
69.9935	0.105	139987	keystroke_c	c	n/a
70.1435	0.105	140287	keystroke_h	h	n/a
70.2495	0.119	140499	keystroke_e	e	n/a
70.3235	0.135	140647	keystroke_d	d	n/a
70.7735	0.075	141547	keystroke_Key.space	Key.space	n/a
71.0585	0.075	142117	keystroke_s	s	n/a
71.1485	0.09	142297	keystroke_i	i	n/a
71.3285	0.09	142657	keystroke_t	t	n/a
71.7335	0.09	143467	keystroke_u	u	n/a
71.9135	0.105	143827	keystroke_a	a	n/a
72.1235	0.09	144247	keystroke_t	t	n/a
72.2285	0.09	144457	keystroke_i	i	n/a
72.4235	0.06	144847	keystroke_o	o	n/a
72.5135	0.105	145027	keystroke_n	n	n/a
72.6935	0.105	145387	keystroke_Key.space	Key.space	n/a
72.8885	0.06	145777	keystroke_b	b	n/a
73.0835	0.075	146167	keystroke_a	a	n/a
73.2335	0.09	146467	keystroke_r	r	n/a
73.4135	0.06	146827	keystroke_r	r	n/a
73.5035	0.135	147007	keystroke_i	i	n/a
73.6235	0.105	147247	keystroke_e	e	n/a
73.6985	0.09	147397	keystroke_r	r	n/a
73.8485	0.105	147697	keystroke_s	s	n/a
74.1185	0.09	148237	keystroke_Key.enter	Key.enter	n/a
74.2185	9.322	148437	prompt	n/a	strips hughes based intervals\n
74.9735	0.075	149947	keystroke_s	s	n/a
75.1385	0.075	150277	keystroke_t	t	n/a
75.2435	0.12	150487	keystroke_r	r	n/a
75.4235	0.075	150847	keystroke_i	i	n/a
75.9635	0.075	151927	keystroke_p	p	n/a
76.0835	0.135	152167	keystroke_s	s	n/a
76.2335	0.15	152467	keystroke_Key.space	Key.space	n/a
76.9535	0.075	153907	keystroke_h	h	n/a
78.0035	0.06	156007	keystroke_u	u	n/a
78.0935	0.09	156187	keystroke_g	g	n/a
78.2435	0.075	156487	keystroke_h	h	n/a
78.3785	0.105	156757	keystroke_e	e	n/a
78.6335	0.09	157267	keystroke_s	s	n/a
79.0535	0.045	158107	keystroke_Key.space	Key.space	n/a
79.3235	0.06	158647	keystroke_b	b	n/a
79.4135	0.15	158827	keystroke_a	a	n/a
79.4735	0.105	158947	keystroke_s	s	n/a
79.6985	0.135	159397	keystroke_e	e	n/a
79.7885	0.135	159577	keystroke_d	d	n/a
80.1035	0.105	160207	keystroke_i	i	n/a
80.2235	0.09	160447	keystroke_n	n	n/a
80.7035	0.09	161407	keystroke_Key.backspace	Key.backspace	n/a
80.8535	0.105	161707	keystroke_Key.backspace	Key.backspace	n/a
80.9735	0.105	161947	keystroke_Key.space	Key.space	n/a
81.0935	0.15	162187	keystroke_i	i	n/a
81.1985	0.105	162397	keystroke_n	n	n/a
81.7835	0.09	163567	keystroke_t	t	n/a
81.9935	0.15	163987	keystroke_e	e	n/a
82.0685	0.12	164137	keystroke_r	r	n/a
82.4285	0.09	164857	keystroke_v	v	n/a
82.6235	0.1055	165247	keystroke_a	a	n/a
82.804	0.12	165608	keystroke_l	l	n/a
82.864	0.09	165728	keystroke_s	s	n/a
83.434	0.104	166868	keystroke_Key.enter	Key.enter	n/a
83.5465	8.364	167093	prompt	n/a	punishment favorite stunning ruling\n
84.214	0.075	168428	keystroke_p	p	n/a
84.439	0.105	168878	keystroke_u	u	n/a
84.529	0.12	169058	keystroke_n	n	n/a
84.739	0.06	169478	keystroke_i	i	n/a
84.994	0.075	169988	keystroke_s	s	n/a
85.324	0.09	170648	keystroke_h	h	n/a
85.924	0.09	171848	keystroke_m	m	n/a
86.074	0.075	172148	keystroke_e	e	n/a
86.179	0.105	172358	keystroke_n	n	n/a
86.329	0.06	172658	keystroke_t	t	n/a
86.419	0.075	172838	keystroke_Key.space	Key.space	n/a
86.734	0.045	173468	keystroke_f	f	n/a
86.899	0.09	173798	keystroke_a	a	n/a
87.454	0.105	174908	keystroke_v	v	n/a
87.619	0.12	175238	keystroke_o	o	n/a
87.799	0.09	175598	keystroke_r	r	n/a
88.114	0.075	176228	keystroke_i	i	n/a
88.204	0.15	176408	keystroke_t	t	n/a
88.309	0.135	176618	keystroke_e	e	n/a
88.504	0.09	177008	keystroke_Key.space	Key.space	n/a
88.624	0.09	177248	keystroke_s	s	n/a
88.774	0.105	177548	keystroke_u	u	n/a
88.894	0.105	177788	keystroke_n	n	n/a
89.449	0.105	178898	keystroke_Key.backspace	Key.backspace	n/a
89.614	0.135	179228	keystroke_Key.backspace	Key.backspace	n/a
89.734	0.075	179468	keystroke_t	t	n/a
89.839	0.09	179678	keystroke_u	u	n/a
90.004	0.075	180008	keystroke_n	n	n/a
90.154	0.075	180308	keystroke_n	n	n/a
90.274	0.105	180548	keystroke_i	i	n/a
90.364	0.09	180728	keystroke_n	n	n/a
90.439	0.075	180878	keystroke_g	g	n/a
90.544	0.09	181088	keystroke_Key.space	Key.space	n/a
90.904	0.075	181808	keystroke_r	r	n/a
91.009	0.075	182018	keystroke_u	u	n/a
91.249	0.09	182498	keystroke_l	l	n/a
91.399	0.15	182798	keystroke_i	i	n/a
91.504	0.09	183008	keystroke_n	n	n/a
91.624	0.075	183248	keystroke_g	g	n/a
91.819	0.09	183638	keystroke_Key.enter	Key.enter	n/a
91.916	7.5695	183832	prompt	n/a	causes treasury ebay recorder\n
92.509	0.105	185018	keystroke_c	c	n/a
92.644	0.09	185288	keystroke_a	a	n/a
92.824	0.075	185648	keystroke_u	u	n/a
92.884	0.075	185768	keystroke_s	s	n/a
93.064	0.075	186128	keystroke_e	e	n/a
93.214	0.075	186428	keystroke_s	s	n/a
93.304	0.09	186608	keystroke_Key.space	Key.space	n/a
93.514	0.075	187028	keystroke_t	t	n/a
93.724	0.105	187448	keystroke_e	e	n/a
93.904	0.045	187808	keystroke_e	e	n/a
94.264	0.09	188528	keystroke_Key.backspace	Key.backspace	n/a
94.414	0.12	188828	keystroke_Key.backspace	Key.backspace	n/a
94.474	0.09	188948	keystroke_r	r	n/a
94.549	0.075	189098	keystroke_e	e	n/a
94.699	0.105	189398	keystroke_a	a	n/a
94.744	0.12	189488	keystroke_s	s	n/a
95.149	0.075	190298	keystroke_u	u	n/a
95.299	0.105	190598	keystroke_r	r	n/a
96.064	0.075	192128	keystroke_y	y	n/a
96.169	0.135	192338	keystroke_Key.space	Key.space	n/a
96.919	0.075	193838	keystroke_e	e	n/a
97.114	0.09	194228	keystroke_b	b	n/a
97.309	0.075	194618	keystroke_a	a	n/a
97.429	0.075	194858	keystroke_y	y	n/a
97.549	0.12	195098	keystroke_Key.space	Key.space	n/a
97.849	0.105	195698	keystroke_r	r	n/a
97.969	0.075	195938	keystroke_e	e	n/a
98.104	0.075	196208	keystroke_c	c	n/a
98.224	0.09	196448	keystroke_o	o	n/a
98.3285	0.075	196657	keystroke_r	r	n/a
98.5535	0.105	197107	keystroke_d	d	n/a
98.9135	0.21	197827	keystroke_e	e	n/a
99.1085	0.105	198217	keystroke_r	r	n/a
99.3935	0.09	198787	keystroke_Key.enter	Key.enter	n/a
99.4905	5.2905	198981	prompt	n/a	fame resistant cruz american\n
100.2485	0.06	200497	keystroke_f	f	n/a
100.3685	0.076	200737	keystroke_a	a	n/a
100.4735	0.091	200947	keystroke_m	m	n/a
100.5785	0.075	201157	keystroke_e	e	n/a
100.6845	0.089	201369	keystroke_Key.space	Key.space	n/a
100.8795	0.149	201759	keystroke_r	r	n/a
100.9985	0.105	201997	keystroke_e	e	n/a
101.2085	0.06	202417	keystroke_s	s	n/a
101.3435	0.075	202687	keystroke_i	i	n/a
101.3885	0.09	202777	keystroke_s	s	n/a
101.5235	0.075	203047	keystroke_t	t	n/a
101.6585	0.075	203317	keystroke_a	a	n/a
101.7345	0.089	203469	keystroke_n	n	n/a
101.8685	0.075	203737	keystroke_t	t	n/a
101.9585	0.075	203917	keystroke_Key.space	Key.space	n/a
102.5445	0.105	205089	keystroke_c	c	n/a
102.9185	0.046	205837	keystroke_r	r	n/a
103.1585	0.106	206317	keystroke_u	u	n/a
103.3095	0.074	206619	keystroke_z	z	n/a
103.4585	0.165	206917	keystroke_Key.space	Key.space	n/a
103.6545	0.09	207309	keystroke_a	a	n/a
103.7885	0.075	207577	keystroke_m	m	n/a
103.8645	0.134	207729	keystroke_e	e	n/a
103.9845	0.075	207969	keystroke_r	r	n/a
104.1035	0.09	208207	keystroke_i	i	n/a
104.2095	0.074	208419	keystroke_c	c	n/a
104.3435	0.106	208687	keystroke_a	a	n/a
104.3885	0.09	208777	keystroke_n	n	n/a
104.7185	0.06	209437	keystroke_Key.enter	Key.enter	n/a
104.7865	6.82	209573	prompt	n/a	demo champion handling requests\n
105.3795	0.149	210759	keystroke_d	d	n/a
105.4995	0.12	210999	keystroke_e	e	n/a
105.5735	0.091	211147	keystroke_m	m	n/a
105.7395	0.089	211479	keystroke_o	o	n/a
105.8435	0.12	211687	keystroke_Key.space	Key.space	n/a
105.9785	0.076	211957	keystroke_c	c	n/a
106.0845	0.074	212169	keystroke_h	h	n/a
106.1885	0.105	212377	keystroke_a	a	n/a
106.2785	0.105	212557	keystroke_m	m	n/a
106.4745	0.09	212949	keystroke_p	p	n/a
106.6695	0.074	213339	keystroke_i	i	n/a
106.8185	0.075	213637	keystroke_o	o	n/a
106.9685	0.076	213937	keystroke_n	n	n/a
107.1485	0.06	214297	keystroke_Key.space	Key.space	n/a
107.2835	0.075	214567	keystroke_h	h	n/a
107.3745	0.089	214749	keystroke_a	a	n/a
107.4785	0.09	214957	keystroke_n	n	n/a
107.6135	0.046	215227	keystroke_d	d	n/a
107.6895	0.074	215379	keystroke_l	l	n/a
107.8085	0.15	215617	keystroke_o	o	n/a
107.9295	0.089	215859	keystroke_n	n	n/a
108.1395	0.059	216279	keystroke_g	g	n/a
108.3035	0.075	216607	keystroke_n	n	n/a
108.5885	0.076	217177	keystroke_Key.backspace	Key.backspace	n/a
108.7535	0.075	217507	keystroke_Key.backspace	Key.backspace	n/a
108.9335	0.075	217867	keystroke_Key.backspace	Key.backspace	n/a
109.0685	0.12	218137	keystroke_Key.backspace	Key.backspace	n/a
109.1745	0.134	218349	keystroke_i	i	n/a
109.2645	0.105	218529	keystroke_n	n	n/a
109.4585	0.105	218917	keystroke_Key.space	Key.space	n/a
109.6545	0.105	219309	keystroke_r	r	n/a
109.7435	0.106	219487	keystroke_e	e	n/a
110.0295	0.045	220059	keystroke_q	q	n/a
110.3135	0.075	220627	keystroke_u	u	n/a
110.4045	0.075	220809	keystroke_e	e	n/a
110.7645	0.104	221529	keystroke_s	s	n/a
110.9895	0.105	221979	keystroke_t	t	n/a
111.2745	0.105	222549	keystroke_s	s	n/a
111.4995	0.105	222999	keystroke_Key.enter	Key.enter	n/a
111.6105	10.0005	223221	prompt	n/a	relevant calculation louisville ultimately\n
112.2495	0.105	224499	keystroke_r	r	n/a
112.3395	0.12	224679	keystroke_e	e	n/a
112.8045	0.105	225609	keystroke_l	l	n/a
112.9545	0.09	225909	keystroke_e	e	n/a
113.2385	0.106	226477	keystroke_v	v	n/a
113.5845	0.089	227169	keystroke_a	a	n/a
113.7345	0.09	227469	keystroke_n	n	n/a
113.8545	0.075	227709	keystroke_t	t	n/a
113.9885	0.06	227977	keystroke_Key.space	Key.space	n/a
114.1995	0.104	228399	keystroke_c	c	n/a
114.3495	0.075	228699	keystroke_a	a	n/a
114.4545	0.089	228909	keystroke_l	l	n/a
114.5595	0.105	229119	keystroke_c	c	n/a
114.9045	0.06	229809	keystroke_u	u	n/a
115.1295	0.12	230259	keystroke_l	l	n/a
115.2185	0.076	230437	keystroke_a	a	n/a
115.3235	0.106	230647	keystroke_t	t	n/a
115.4745	0.074	230949	keystroke_i	i	n/a
115.6695	0.03	231339	keystroke_o	o	n/a
115.7745	0.075	231549	keystroke_n	n	n/a
115.9095	0.09	231819	keystroke_Key.space	Key.space	n/a
116.6445	0.09	233289	keystroke_l	l	n/a
116.8245	0.105	233649	keystroke_o	o	n/a
117.0945	0.075	234189	keystroke_u	u	n/a
117.3045	0.075	234609	keystroke_i	i	n/a
117.3945	0.105	234789	keystroke_s	s	n/a
117.7395	0.105	235479	keystroke_v	v	n/a
117.8745	0.09	235749	keystroke_i	i	n/a
118.1445	0.075	236289	keystroke_l	l	n/a
118.2795	0.075	236559	keystroke_l	l	n/a
118.3695	0.15	236739	keystroke_e	e	n/a
118.4895	0.135	236979	keystroke_Key.space	Key.space	n/a
118.9845	0.075	237969	keystroke_u	u	n/a
119.2095	0.09	238419	keystroke_l	l	n/a
119.3445	0.09	238689	keystroke_t	t	n/a
119.4495	0.135	238899	keystroke_i	i	n/a
119.5995	0.105	239199	keystroke_m	m	n/a
119.7645	0.09	239529	keystroke_a	a	n/a
120.1395	0.074	240279	keystroke_t	t	n/a
120.1695	0.03	240339	keystroke_r	r	n/a
120.1845	0.135	240369	keystroke_e	e	n/a
120.5585	0.091	241117	keystroke_Key.backspace	Key.backspace	n/a
120.7095	0.12	241419	keystroke_Key.backspace	Key.backspace	n/a
120.8305	0.089	241661	keystroke_e	e	n/a
120.9795	0.075	241959	keystroke_l	l	n/a
121.1295	0.12	242259	keystroke_y	y	n/a
121.5195	0.09	243039	keystroke_Key.enter	Key.enter	n/a
121.618	8.318	243236	prompt	n/a	myself mainly concrete seed\n
122.2095	0.09	244419	keystroke_m	m	n/a
122.4945	0.09	244989	keystroke_s	s	n/a
122.7795	0.059	245559	keystroke_Key.backspace	Key.backspace	n/a
122.9595	0.075	245919	keystroke_y	y	n/a
123.0495	0.075	246099	keystroke_s	s	n/a
123.2145	0.075	246429	keystroke_e	e	n/a
123.3045	0.09	246609	keystroke_l	l	n/a
123.4095	0.12	246819	keystroke_f	f	n/a
123.5445	0.135	247089	keystroke_Key.space	Key.space	n/a
125.8275	0.001	251655	keystroke_m	m	n/a
125.8845	0.09	251769	keystroke_a	a	n/a
125.9445	0.105	251889	keystroke_i	i	n/a
126.0645	0.075	252129	keystroke_n	n	n/a
126.3645	0.09	252729	keystroke_l	l	n/a
126.5295	0.105	253059	keystroke_y	y	n/a
126.7395	0.06	253479	keystroke_Key.space	Key.space	n/a
126.9645	0.09	253929	keystroke_c	c	n/a
127.0695	0.09	254139	keystroke_o	o	n/a
127.1745	0.09	254349	keystroke_n	n	n/a
127.2795	0.105	254559	keystroke_c	c	n/a
127.5945	0.12	255189	keystroke_r	r	n/a
127.8195	0.09	255639	keystroke_e	e	n/a
128.0445	0.075	256089	keystroke_a	a	n/a
128.3445	0.105	256689	keystroke_Key.backspace	Key.backspace	n/a
128.4645	0.135	256929	keystroke_t	t	n/a
128.5845	0.105	257169	keystroke_e	e	n/a
128.8245	0.09	257649	keystroke_Key.space	Key.space	n/a
129.1845	0.075	258369	keystroke_s	s	n/a
129.3795	0.09	258759	keystroke_e	e	n/a
129.5445	0.15	259089	keystroke_e	e	n/a
129.6495	0.105	259299	keystroke_d	d	n/a
129.8445	0.09	259689	keystroke_Key.enter	Key.enter	n/a
129.941	8.425	259882	prompt	n/a	tribune physician whereas batteries\n
130.7445	0.09	261489	keystroke_t	t	n/a
130.9695	0.09	261939	keystroke_r	r	n/a
131.2395	0.075	262479	keystroke_i	i	n/a
131.5245	0.075	263049	keystroke_b	b	n/a
131.8095	0.12	263619	keystroke_u	u	n/a
131.9305	0.119	263861	keystroke_n	n	n/a
131.9895	0.15	263979	keystroke_e	e	n/a
132.1095	0.135	264219	keystroke_Key.space	Key.space	n/a
132.4395	0.09	264879	keystroke_p	p	n/a
132.6645	0.135	265329	keystroke_h	h	n/a
132.7845	0.105	265569	keystroke_y	y	n/a
132.9195	0.135	265839	keystroke_s	s	n/a
133.1145	0.105	266229	keystroke_i	i	n/a
133.5645	0.12	267129	keystroke_c	c	n/a
133.7445	0.075	267489	keystroke_i	i	n/a
133.8495	0.09	267699	keystroke_a	a	n/a
133.9845	0.075	267969	keystroke_n	n	n/a
134.0895	0.105	268179	keystroke_Key.space	Key.space	n/a
134.3895	0.075	268779	keystroke_e	e	n/a
134.7495	0.075	269499	keystroke_h	h	n/a
135.0645	0.06	270129	keystroke_Key.backspace	Key.backspace	n/a
135.1995	0.045	270399	keystroke_Key.backspace	Key.backspace	n/a
135.2745	0.045	270549	keystroke_w	w	n/a
135.3495	0.06	270699	keystroke_h	h	n/a
135.4695	0.15	270939	keystroke_e	e	n/a
135.6045	0.135	271209	keystroke_r	r	n/a
135.6795	0.12	271359	keystroke_e	e	n/a
136.0995	0.18	272199	keystroke_a	a	n/a
136.2045	0.135	272409	keystroke_s	s	n/a
136.4745	0.09	272949	keystroke_Key.space	Key.space	n/a
136.8345	0.045	273669	keystroke_b	b	n/a
136.9095	0.09	273819	keystroke_a	a	n/a
137.1795	0.075	274359	keystroke_t	t	n/a
137.3445	0.09	274689	keystroke_t	t	n/a
137.5095	0.09	275019	keystroke_e	e	n/a
137.5695	0.105	275139	keystroke_r	r	n/a
137.8695	0.09	275739	keystroke_i	i	n/a
137.9605	0.059	275921	keystroke_e	e	n/a
138.1245	0.09	276249	keystroke_s	s	n/a
138.2595	0.105	276519	keystroke_Key.enter	Key.enter	n/a
138.3725	7.359	276745	prompt	n/a	copyright readings link tonight\n
138.9945	0.12	277989	keystroke_c	c	n/a
139.1295	0.075	278259	keystroke_o	o	n/a
139.3095	0.075	278619	keystroke_p	p	n/a
139.4295	0.06	278859	keystroke_y	y	n/a
139.8195	0.075	279639	keystroke_r	r	n/a
139.9245	0.105	279849	keystroke_i	i	n/a
140.0745	0.06	280149	keystroke_g	g	n/a
140.1645	0.105	280329	keystroke_h	h	n/a
140.2545	0.06	280509	keystroke_t	t	n/a
140.3295	0.12	280659	keystroke_Key.space	Key.space	n/a
141.124	0.106	282248	keystroke_r	r	n/a
141.214	0.105	282428	keystroke_e	e	n/a
141.38	0.105	282760	keystroke_a	a	n/a
141.439	0.09	282878	keystroke_d	d	n/a
141.574	0.151	283148	keystroke_i	i	n/a
141.679	0.151	283358	keystroke_n	n	n/a
141.815	0.06	283630	keystroke_g	g	n/a
141.995	0.074	283990	keystroke_s	s	n/a
142.099	0.09	284198	keystroke_Key.space	Key.space	n/a
142.4	0.075	284800	keystroke_l	l	n/a
142.564	0.105	285128	keystroke_i	i	n/a
142.624	0.091	285248	keystroke_n	n	n/a
142.79	0.104	285580	keystroke_k	k	n/a
142.909	0.105	285818	keystroke_Key.space	Key.space	n/a
143.059	0.09	286118	keystroke_t	t	n/a
143.12	0.074	286240	keystroke_o	o	n/a
143.225	0.075	286450	keystroke_n	n	n/a
143.375	0.089	286750	keystroke_o	o	n/a
143.554	0.06	287108	keystroke_g	g	n/a
143.629	0.075	287258	keystroke_h	h	n/a
143.734	0.076	287468	keystroke_t	t	n/a
143.974	0.075	287948	keystroke_Key.backspace	Key.backspace	n/a
144.139	0.09	288278	keystroke_Key.backspace	Key.backspace	n/a
144.304	0.106	288608	keystroke_Key.backspace	Key.backspace	n/a
144.469	0.106	288938	keystroke_Key.backspace	Key.backspace	n/a
144.98	0.089	289960	keystroke_i	i	n/a
145.219	0.076	290438	keystroke_g	g	n/a
145.325	0.075	290650	keystroke_h	h	n/a
145.414	0.061	290828	keystroke_t	t	n/a
145.669	0.06	291338	keystroke_Key.enter	Key.enter	n/a
145.7375	6.7735	291475	prompt	n/a	fought cliff rendered attempting\n
146.51	0.06	293020	keystroke_f	f	n/a
146.63	0.104	293260	keystroke_o	o	n/a
146.855	0.075	293710	keystroke_u	u	n/a
146.944	0.076	293888	keystroke_g	g	n/a
147.064	0.105	294128	keystroke_h	h	n/a
147.154	0.076	294308	keystroke_t	t	n/a
147.244	0.075	294488	keystroke_Key.space	Key.space	n/a
147.425	0.09	294850	keystroke_c	c	n/a
147.5	0.075	295000	keystroke_l	l	n/a
147.65	0.105	295300	keystroke_i	i	n/a
147.74	0.105	295480	keystroke_f	f	n/a
147.919	0.106	295838	keystroke_f	f	n/a
148.175	0.075	296350	keystroke_Key.space	Key.space	n/a
148.67	0.105	297340	keystroke_r	r	n/a
148.789	0.12	297578	keystroke_e	e	n/a
149.255	0.059	298510	keystroke_n	n	n/a
149.405	0.12	298810	keystroke_d	d	n/a
149.555	0.149	299110	keystroke_e	e	n/a
149.719	0.106	299438	keystroke_r	r	n/a
149.87	0.135	299740	keystroke_e	e	n/a
149.96	0.104	299920	keystroke_d	d	n/a
150.109	0.091	300218	keystroke_Key.space	Key.space	n/a
150.305	0.089	300610	keystroke_a	a	n/a
150.515	0.06	301030	keystroke_t	t	n/a
150.665	0.06	301330	keystroke_t	t	n/a
150.83	0.09	301660	keystroke_e	e	n/a
150.934	0.076	301868	keystroke_m	m	n/a
151.13	0.09	302260	keystroke_p	p	n/a
151.25	0.059	302500	keystroke_y	y	n/a
151.445	0.075	302890	keystroke_i	i	n/a
151.684	0.061	303368	keystroke_Key.backspace	Key.backspace	n/a
151.819	0.105	303638	keystroke_Key.backspace	Key.backspace	n/a
151.895	0.059	303790	keystroke_t	t	n/a
151.97	0.15	303940	keystroke_i	i	n/a
152.075	0.12	304150	keystroke_n	n	n/a
152.18	0.06	304360	keystroke_g	g	n/a
152.434	0.075	304868	keystroke_Key.enter	Key.enter	n/a
152.5155	6.6705	305031	prompt	n/a	brooks blacks currencies claimed\n
153.14	0.075	306280	keystroke_b	b	n/a
153.245	0.12	306490	keystroke_r	r	n/a
153.379	0.061	306758	keystroke_o	o	n/a
153.515	0.135	307030	keystroke_o	o	n/a
153.604	0.106	307208	keystroke_k	k	n/a
153.695	0.105	307390	keystroke_s	s	n/a
153.844	0.09	307688	keystroke_Key.space	Key.space	n/a
154.205	0.12	308410	keystroke_c	c	n/a
154.28	0.105	308560	keystroke_l	l	n/a
154.684	0.061	309368	keystroke_Key.backspace	Key.backspace	n/a
154.82	0.105	309640	keystroke_Key.backspace	Key.backspace	n/a
154.85	0.09	309700	keystroke_b	b	n/a
155.03	0.09	310060	keystroke_l	l	n/a
155.15	0.075	310300	keystroke_a	a	n/a
155.225	0.09	310450	keystroke_c	c	n/a
155.345	0.089	310690	keystroke_k	k	n/a
155.45	0.12	310900	keystroke_s	s	n/a
155.63	0.179	311260	keystroke_Key.space	Key.space	n/a
156.305	0.105	312610	keystroke_c	c	n/a
156.455	0.075	312910	keystroke_u	u	n/a
156.545	0.09	313090	keystroke_r	r	n/a
156.71	0.075	313420	keystroke_r	r	n/a
156.934	0.061	313868	keystroke_e	e	n/a
157.1	0.075	314200	keystroke_n	n	n/a
157.19	0.09	314380	keystroke_c	c	n/a
157.475	0.105	314950	keystroke_i	i	n/a
157.565	0.075	315130	keystroke_e	e	n/a
157.745	0.075	315490	keystroke_s	s	n/a
157.805	0.09	315610	keystroke_Key.space	Key.space	n/a
158.105	0.075	316210	keystroke_c	c	n/a
158.21	0.06	316420	keystroke_l	l	n/a
158.465	0.09	316930	keystroke_a	a	n/a
158.57	0.135	317140	keystroke_i	i	n/a
158.675	0.105	317350	keystroke_m	m	n/a
158.795	0.119	317590	keystroke_e	e	n/a
158.885	0.09	317770	keystroke_d	d	n/a
159.125	0.059	318250	keystroke_Key.enter	Key.enter	n/a
159.1905	5.171	318381	prompt	n/a	harassment packs keith below\n
160.055	0.06	320110	keystroke_h	h	n/a
160.13	0.105	320260	keystroke_a	a	n/a
160.355	0.06	320710	keystroke_r	r	n/a
160.625	0.105	321250	keystroke_a	a	n/a
160.865	0.06	321730	keystroke_s	s	n/a
161.015	0.075	322030	keystroke_s	s	n/a
161.27	0.075	322540	keystroke_m	m	n/a
161.39	0.09	322780	keystroke_e	e	n/a
161.51	0.075	323020	keystroke_n	n	n/a
161.615	0.06	323230	keystroke_t	t	n/a
161.705	0.06	323410	keystroke_Key.space	Key.space	n/a
161.9	0.09	323800	keystroke_p	p	n/a
161.975	0.09	323950	keystroke_a	a	n/a
162.05	0.09	324100	keystroke_c	c	n/a
162.125	0.09	324250	keystroke_k	k	n/a
162.245	0.075	324490	keystroke_s	s	n/a
162.365	0.06	324730	keystroke_Key.space	Key.space	n/a
162.53	0.075	325060	keystroke_k	k	n/a
162.635	0.075	325270	keystroke_e	e	n/a
162.77	0.09	325540	keystroke_i	i	n/a
162.935	0.06	325870	keystroke_t	t	n/a
163.025	0.075	326050	keystroke_h	h	n/a
163.175	0.06	326350	keystroke_Key.space	Key.space	n/a
163.49	0.045	326980	keystroke_b	b	n/a
163.655	0.06	327310	keystroke_e	e	n/a
163.7	0.075	327400	keystroke_l	l	n/a
163.85	0.09	327700	keystroke_o	o	n/a
163.94	0.09	327880	keystroke_w	w	n/a
164.285	0.075	328570	keystroke_Key.enter	Key.enter	n/a
164.369	7.9875	328738	prompt	n/a	vehicles sequence they're districts\n
165.125	0.075	330250	keystroke_v	v	n/a
165.275	0.105	330550	keystroke_e	e	n/a
165.425	0.075	330850	keystroke_h	h	n/a
165.635	0.075	331270	keystroke_i	i	n/a
165.725	0.075	331450	keystroke_c	c	n/a
165.875	0.09	331750	keystroke_l	l	n/a
165.95	0.075	331900	keystroke_e	e	n/a
166.145	0.075	332290	keystroke_s	s	n/a
166.25	0.105	332500	keystroke_Key.space	Key.space	n/a
166.64	0.12	333280	keystroke_s	s	n/a
166.82	0.09	333640	keystroke_e	e	n/a
167.06	0.075	334120	keystroke_q	q	n/a
167.165	0.09	334330	keystroke_u	u	n/a
167.285	0.075	334570	keystroke_e	e	n/a
167.42	0.09	334840	keystroke_n	n	n/a
167.525	0.075	335050	keystroke_c	c	n/a
167.601	0.104	335202	keystroke_e	e	n/a
167.735	0.075	335470	keystroke_Key.space	Key.space	n/a
168.2	0.12	336400	keystroke_t	t	n/a
168.335	0.03	336670	keystroke_h	h	n/a
168.395	0.09	336790	keystroke_e	e	n/a
169.145	0.09	338290	keystroke_y	y	n/a
169.445	0.03	338890	keystroke_;	;	n/a
169.745	0.18	339490	keystroke_Key.backspace	Key.backspace	n/a
169.895	0.105	339790	keystroke_'	'	n/a
170.015	0.12	340030	keystroke_r	r	n/a
170.105	0.12	340210	keystroke_e	e	n/a
170.21	0.165	340420	keystroke_Key.space	Key.space	n/a
170.825	0.105	341650	keystroke_d	d	n/a
170.945	0.075	341890	keystroke_i	i	n/a
171.035	0.09	342070	keystroke_s	s	n/a
171.2	0.12	342400	keystroke_t	t	n/a
171.455	0.075	342910	keystroke_r	r	n/a
171.725	0.09	343450	keystroke_i	i	n/a
171.8	0.06	343600	keystroke_c	c	n/a
171.95	0.075	343900	keystroke_t	t	n/a
172.16	0.09	344320	keystroke_s	s	n/a
172.265	0.09	344530	keystroke_Key.enter	Key.enter	n/a
172.361	7.8855	344722	prompt	n/a	determines nevertheless why's dare\n
173.015	0.105	346030	keystroke_d	d	n/a
173.21	0.135	346420	keystroke_e	e	n/a
173.375	0.105	346750	keystroke_t	t	n/a
173.51	0.12	347020	keystroke_e	e	n/a
173.615	0.06	347230	keystroke_r	r	n/a
174.515	0.09	349030	keystroke_m	m	n/a
174.635	0.15	349270	keystroke_i	i	n/a
174.77	0.105	349540	keystroke_n	n	n/a
174.86	0.075	349720	keystroke_e	e	n/a
175.055	0.075	350110	keystroke_s	s	n/a
175.145	0.075	350290	keystroke_Key.space	Key.space	n/a
175.37	0.09	350740	keystroke_n	n	n/a
175.43	0.105	350860	keystroke_e	e	n/a
175.61	0.06	351220	keystroke_v	v	n/a
175.73	0.09	351460	keystroke_e	e	n/a
175.91	0.075	351820	keystroke_r	r	n/a
176.18	0.045	352360	keystroke_t	t	n/a
176.315	0.06	352630	keystroke_h	h	n/a
176.39	0.09	352780	keystroke_e	e	n/a
176.585	0.105	353170	keystroke_l	l	n/a
176.66	0.075	353320	keystroke_e	e	n/a
176.855	0.09	353710	keystroke_s	s	n/a
177.02	0.09	354040	keystroke_s	s	n/a
177.14	0.135	354280	keystroke_Key.space	Key.space	n/a
177.44	0.12	354880	keystroke_w	w	n/a
177.575	0.09	355150	keystroke_h	h	n/a
177.77	0.075	355540	keystroke_y	y	n/a
178.6095	0.061	357219	keystroke_'	'	n/a
178.7595	0.18	357519	keystroke_s	s	n/a
179.2245	0.135	358449	keystroke_Key.space	Key.space	n/a
179.6595	0.12	359319	keystroke_d	d	n/a
179.7955	0.105	359591	keystroke_a	a	n/a
179.9305	0.104	359861	keystroke_r	r	n/a
180.0205	0.104	360041	keystroke_e	e	n/a
180.1545	0.09	360309	keystroke_Key.enter	Key.enter	n/a
180.253	7.209	360506	prompt	n/a	shut counters chips feed\n
180.8005	0.104	361601	keystroke_s	s	n/a
180.9505	0.089	361901	keystroke_h	h	n/a
181.1445	0.076	362289	keystroke_i	i	n/a
181.1595	0.046	362319	keystroke_u	u	n/a
181.2355	0.044	362471	keystroke_t	t	n/a
181.8195	0.075	363639	keystroke_Key.backspace	Key.backspace	n/a
181.9995	0.06	363999	keystroke_Key.backspace	Key.backspace	n/a
182.1195	0.135	364239	keystroke_Key.backspace	Key.backspace	n/a
182.2695	0.091	364539	keystroke_u	u	n/a
182.3755	0.089	364751	keystroke_t	t	n/a
182.8105	0.104	365621	keystroke_Key.space	Key.space	n/a
183.0345	0.06	366069	keystroke_c	c	n/a
183.1245	0.076	366249	keystroke_o	o	n/a
183.3045	0.15	366609	keystroke_u	u	n/a
183.3945	0.12	366789	keystroke_n	n	n/a
183.4695	0.09	366939	keystroke_t	t	n/a
183.5755	0.134	367151	keystroke_e	e	n/a
183.6795	0.121	367359	keystroke_r	r	n/a
183.8455	0.105	367691	keystroke_s	s	n/a
183.9645	0.09	367929	keystroke_Key.space	Key.space	n/a
184.1455	0.089	368291	keystroke_s	s	n/a
184.4595	0.06	368919	keystroke_Key.backspace	Key.backspace	n/a
184.5045	0.106	369009	keystroke_c	c	n/a
184.6115	0.088	369223	keystroke_h	h	n/a
184.865	0.075	369730	keystroke_i	i	n/a
185.135	0.105	370270	keystroke_p	p	n/a
185.33	0.1195	370660	keystroke_s	s	n/a
185.5695	0.135	371139	keystroke_Key.space	Key.space	n/a
185.8395	0.12	371679	keystroke_d	d	n/a
186.0945	0.09	372189	keystroke_e	e	n/a
186.3045	0.075	372609	keystroke_Key.backspace	Key.backspace	n/a
186.5145	0.045	373029	keystroke_Key.backspace	Key.backspace	n/a
186.5295	0.06	373059	keystroke_f	f	n/a
186.9345	0.06	373869	keystroke_e	e	n/a
187.0845	0.12	374169	keystroke_e	e	n/a
187.1595	0.135	374319	keystroke_d	d	n/a
187.3845	0.075	374769	keystroke_Key.enter	Key.enter	n/a
187.4665	5.9195	374933	prompt	n/a	compliance sean hostel element\n
188.1195	0.09	376239	keystroke_c	c	n/a
188.2395	0.18	376479	keystroke_o	o	n/a
188.4195	0.075	376839	keystroke_m	m	n/a
188.5995	0.135	377199	keystroke_p	p	n/a
188.7195	0.09	377439	keystroke_l	l	n/a
188.8995	0.09	377799	keystroke_i	i	n/a
189.0045	0.105	378009	keystroke_c	c	n/a
189.1395	0.105	378279	keystroke_a	a	n/a
189.2895	0.09	378579	keystroke_n	n	n/a
189.3345	0.105	378669	keystroke_c	c	n/a
189.4095	0.105	378819	keystroke_e	e	n/a
189.6195	0.075	379239	keystroke_Key.space	Key.space	n/a
189.8445	0.105	379689	keystroke_s	s	n/a
190.3395	0.09	380679	keystroke_e	e	n/a
190.5645	0.075	381129	keystroke_a	a	n/a
190.7895	0.075	381579	keystroke_n	n	n/a
190.9845	0.12	381969	keystroke_Key.space	Key.space	n/a
191.2095	0.075	382419	keystroke_h	h	n/a
191.4645	0.075	382929	keystroke_o	o	n/a
191.4945	0.12	382989	keystroke_s	s	n/a
191.6745	0.105	383349	keystroke_t	t	n/a
191.7645	0.105	383529	keystroke_e	e	n/a
191.9145	0.09	383829	keystroke_l	l	n/a
191.9445	0.135	383889	keystroke_Key.space	Key.space	n/a
192.3495	0.105	384699	keystroke_e	e	n/a
192.4845	0.105	384969	keystroke_l	l	n/a
192.5745	0.09	385149	keystroke_e	e	n/a
192.7695	0.075	385539	keystroke_m	m	n/a
192.8895	0.06	385779	keystroke_e	e	n/a
193.0095	0.06	386019	keystroke_n	n	n/a
193.0845	0.09	386169	keystroke_t	t	n/a
193.3245	0.06	386649	keystroke_Key.enter	Key.enter	n/a
193.3905	11.1865	386781	prompt	n/a	elizabeth murphy croatia acquire\n
194.0605	0.059	388121	keystroke_e	e	n/a
194.2845	0.09	388569	keystroke_l	l	n/a
194.4945	0.075	388989	keystroke_i	i	n/a
194.5995	0.15	389199	keystroke_z	z	n/a
194.8245	0.12	389649	keystroke_a	a	n/a
195.6495	0.105	391299	keystroke_b	b	n/a
196.1745	0.06	392349	keystroke_e	e	n/a
196.3695	0.075	392739	keystroke_t	t	n/a
196.4745	0.09	392949	keystroke_h	h	n/a
196.6095	0.12	393219	keystroke_Key.space	Key.space	n/a
197.0295	0.045	394059	keystroke_n	n	n/a
197.2545	0.09	394509	keystroke_Key.backspace	Key.backspace	n/a
197.3595	0.075	394719	keystroke_m	m	n/a
197.5245	0.09	395049	keystroke_u	u	n/a
197.7795	0.105	395559	keystroke_t	t	n/a
198.0345	0.09	396069	keystroke_p	p	n/a
198.3495	0.075	396699	keystroke_Key.backspace	Key.backspace	n/a
198.4845	0.135	396969	keystroke_Key.backspace	Key.backspace	n/a
198.5745	0.06	397149	keystroke_r	r	n/a
198.6045	0.12	397209	keystroke_l	l	n/a
198.8895	0.135	397779	keystroke_Key.backspace	Key.backspace	n/a
198.9805	0.119	397961	keystroke_p	p	n/a
199.2795	0.105	398559	keystroke_h	h	n/a
199.3995	0.12	398799	keystroke_y	y	n/a
199.6245	0.105	399249	keystroke_Key.space	Key.space	n/a
200.4495	0.06	400899	keystroke_c	c	n/a
200.5695	0.105	401139	keystroke_r	r	n/a
200.7045	0.075	401409	keystroke_o	o	n/a
200.8245	0.075	401649	keystroke_a	a	n/a
201.0045	0.06	402009	keystroke_t	t	n/a
201.2895	0.09	402579	keystroke_a	a	n/a
201.6195	0.09	403239	keystroke_Key.backspace	Key.backspace	n/a
201.7245	0.09	403449	keystroke_i	i	n/a
201.8155	0.104	403631	keystroke_a	a	n/a
201.9345	0.15	403869	keystroke_Key.space	Key.space	n/a
202.7145	0.09	405429	keystroke_a	a	n/a
203.1045	0.12	406209	keystroke_c	c	n/a
203.6745	0.09	407349	keystroke_q	q	n/a
203.7945	0.075	407589	keystroke_u	u	n/a
203.9745	0.09	407949	keystroke_i	i	n/a
204.1095	0.165	408219	keystroke_r	r	n/a
204.2295	0.105	408459	keystroke_e	e	n/a
204.4995	0.075	408999	keystroke_Key.enter	Key.enter	n/a
204.5825	10.149	409165	prompt	n/a	exposed effectiveness programmers payroll\n
205.2495	0.09	410499	keystroke_e	e	n/a
205.4145	0.12	410829	keystroke_x	x	n/a
205.5645	0.105	411129	keystroke_p	p	n/a
205.7745	0.09	411549	keystroke_o	o	n/a
205.8945	0.06	411789	keystroke_s	s	n/a
206.0745	0.135	412149	keystroke_e	e	n/a
206.1795	0.136	412359	keystroke_d	d	n/a
206.3595	0.09	412719	keystroke_Key.space	Key.space	n/a
206.6295	0.09	413259	keystroke_e	e	n/a
206.8245	0.09	413649	keystroke_f	f	n/a
206.9745	0.06	413949	keystroke_f	f	n/a
207.0805	0.149	414161	keystroke_e	e	n/a
207.1995	0.075	414399	keystroke_c	c	n/a
207.4095	0.06	414819	keystroke_t	t	n/a
209.0145	0.075	418029	keystroke_i	i	n/a
209.0745	0.121	418149	keystroke_v	v	n/a
209.2695	0.105	418539	keystroke_e	e	n/a
209.5255	0.059	419051	keystroke_n	n	n/a
209.5855	0.089	419171	keystroke_e	e	n/a
209.7795	0.06	419559	keystroke_s	s	n/a
209.9145	0.075	419829	keystroke_s	s	n/a
209.9745	0.0755	419949	keystroke_Key.space	Key.space	n/a
210.185	0.09	420370	keystroke_p	p	n/a
210.26	0.105	420520	keystroke_r	r	n/a
210.395	0.105	420790	keystroke_o	o	n/a
210.995	0.135	421990	keystroke_g	g	n/a
211.265	0.12	422530	keystroke_r	r	n/a
211.505	0.105	423010	keystroke_a	a	n/a
211.64	0.06	423280	keystroke_m	m	n/a
211.775	0.09	423550	keystroke_m	m	n/a
211.94	0.15	423880	keystroke_e	e	n/a
212.06	0.09	424120	keystroke_r	r	n/a
212.225	0.09	424450	keystroke_s	s	n/a
212.345	0.06	424690	keystroke_Key.space	Key.space	n/a
212.555	0.075	425110	keystroke_p	p	n/a
212.63	0.105	425260	keystroke_a	a	n/a
212.78	0.09	425560	keystroke_y	y	n/a
212.93	0.09	425860	keystroke_r	r	n/a
213.395	0.12	426790	keystroke_o	o	n/a
213.695	0.195	427390	keystroke_l	l	n/a
214.2795	0.09	428559	keystroke_l	l	n/a
214.6545	0.075	429309	keystroke_Key.enter	Key.enter	n/a
214.7375	10.6455	429475	prompt	n/a	aren't crown stem they've\n
215.4045	0.09	430809	keystroke_a	a	n/a
215.6595	0.075	431319	keystroke_r	r	n/a
215.8405	0.074	431681	keystroke_e	e	n/a
215.9745	0.075	431949	keystroke_n	n	n/a
216.2595	0.09	432519	keystroke_'	'	n/a
216.3795	0.121	432759	keystroke_t	t	n/a
217.0095	0.105	434019	keystroke_Key.space	Key.space	n/a
217.9695	0.105	435939	keystroke_c	c	n/a
218.1195	0.105	436239	keystroke_r	r	n/a
218.6455	0.074	437291	keystroke_o	o	n/a
218.7795	0.09	437559	keystroke_w	w	n/a
218.9455	0.089	437891	keystroke_n	n	n/a
219.1695	0.105	438339	keystroke_Key.space	Key.space	n/a
219.7845	0.12	439569	keystroke_s	s	n/a
220.0545	0.075	440109	keystroke_t	t	n/a
220.4155	0.12	440831	keystroke_e	e	n/a
220.5805	0.104	441161	keystroke_m	m	n/a
220.6995	0.135	441399	keystroke_Key.space	Key.space	n/a
221.3005	0.075	442601	keystroke_t	t	n/a
221.4355	0.089	442871	keystroke_h	h	n/a
221.5395	0.06	443079	keystroke_e	e	n/a
221.6445	0.06	443289	keystroke_y	y	n/a
222.3955	0.075	444791	keystroke_;	;	n/a
223.2495	0.03	446499	keystroke_c	c	n/a
223.5345	0.121	447069	keystroke_Key.backspace	Key.backspace	n/a
223.7145	0.106	447429	keystroke_Key.backspace	Key.backspace	n/a
224.0155	0.059	448031	keystroke_;	;	n/a
224.0895	0.136	448179	keystroke_v	v	n/a
224.4495	0.09	448899	keystroke_Key.backspace	Key.backspace	n/a
224.6145	0.135	449229	keystroke_Key.backspace	Key.backspace	n/a
224.7205	0.119	449441	keystroke_'	'	n/a
224.8095	0.106	449619	keystroke_v	v	n/a
225.0205	0.104	450041	keystroke_e	e	n/a
225.3045	0.075	450609	keystroke_Key.enter	Key.enter	n/a
225.387	8.2005	450774	prompt	n/a	bibliographic george chase reef\n
226.2055	0.09	452411	keystroke_b	b	n/a
226.3705	0.105	452741	keystroke_i	i	n/a
226.8205	0.075	453641	keystroke_b	b	n/a
226.9395	0.106	453879	keystroke_l	l	n/a
227.1955	0.044	454391	keystroke_i	i	n/a
227.5845	0.091	455169	keystroke_o	o	n/a
228.3355	0.135	456671	keystroke_g	g	n/a
228.4245	0.121	456849	keystroke_r	r	n/a
228.6945	0.091	457389	keystroke_a	a	n/a
228.7555	0.074	457511	keystroke_p	p	n/a
229.0095	0.075	458019	keystroke_h	h	n/a
229.1905	0.105	458381	keystroke_i	i	n/a
229.2805	0.105	458561	keystroke_c	c	n/a
229.6245	0.105	459249	keystroke_Key.space	Key.space	n/a
230.0605	0.135	460121	keystroke_g	g	n/a
230.3005	0.06	460601	keystroke_e	e	n/a
230.6755	0.09	461351	keystroke_o	o	n/a
230.8705	0.089	461741	keystroke_r	r	n/a
231.0655	0.105	462131	keystroke_g	g	n/a
231.2155	0.12	462431	keystroke_e	e	n/a
231.3205	0.12	462641	keystroke_Key.space	Key.space	n/a
231.5905	0.105	463181	keystroke_c	c	n/a
231.7555	0.09	463511	keystroke_h	h	n/a
231.8305	0.1495	463661	keystroke_a	a	n/a
231.92	0.09	463840	keystroke_s	s	n/a
232.1	0.12	464200	keystroke_e	e	n/a
232.205	0.15	464410	keystroke_Key.space	Key.space	n/a
232.64	0.15	465280	keystroke_r	r	n/a
232.805	0.12	465610	keystroke_e	e	n/a
233	0.135	466000	keystroke_e	e	n/a
233.105	0.15	466210	keystroke_f	f	n/a
233.495	0.09	466990	keystroke_Key.enter	Key.enter	n/a
233.593	7.795	467186	prompt	n/a	situation analog formation vision\n
234.2	0.105	468400	keystroke_s	s	n/a
234.365	0.105	468730	keystroke_i	i	n/a
234.5	0.09	469000	keystroke_t	t	n/a
234.65	0.06	469300	keystroke_u	u	n/a
234.8	0.06	469600	keystroke_a	a	n/a
234.965	0.09	469930	keystroke_t	t	n/a
235.07	0.06	470140	keystroke_i	i	n/a
235.22	0.075	470440	keystroke_o	o	n/a
235.475	0.105	470950	keystroke_Key.space	Key.space	n/a
235.775	0.105	471550	keystroke_Key.backspace	Key.backspace	n/a
235.895	0.075	471790	keystroke_n	n	n/a
235.985	0.12	471970	keystroke_Key.space	Key.space	n/a
236.24	0.09	472480	keystroke_a	a	n/a
236.3895	0.045	472779	keystroke_n	n	n/a
236.4645	0.105	472929	keystroke_a	a	n/a
236.9445	0.075	473889	keystroke_l	l	n/a
237.0945	0.09	474189	keystroke_o	o	n/a
237.1855	0.104	474371	keystroke_g	g	n/a
237.5295	0.165	475059	keystroke_Key.space	Key.space	n/a
238.0095	0.045	476019	keystroke_d	d	n/a
238.4595	0.1205	476919	keystroke_Key.backspace	Key.backspace	n/a
238.5655	0.105	477131	keystroke_f	f	n/a
238.6855	0.075	477371	keystroke_o	o	n/a
238.7905	0.074	477581	keystroke_r	r	n/a
238.9095	0.075	477819	keystroke_m	m	n/a
239.0595	0.105	478119	keystroke_a	a	n/a
239.1945	0.106	478389	keystroke_t	t	n/a
239.3015	0.089	478603	keystroke_i	i	n/a
239.4655	0.089	478931	keystroke_o	o	n/a
239.6005	0.074	479201	keystroke_n	n	n/a
239.7045	0.12	479409	keystroke_Key.space	Key.space	n/a
240.0495	0.105	480099	keystroke_v	v	n/a
240.1845	0.106	480369	keystroke_i	i	n/a
240.3505	0.09	480701	keystroke_s	s	n/a
240.4545	0.075	480909	keystroke_i	i	n/a
240.8145	0.075	481629	keystroke_o	o	n/a
241.0245	0.03	482049	keystroke_n	n	n/a
241.3245	0.06	482649	keystroke_Key.enter	Key.enter	n/a
241.3945	8.948	482789	prompt	n/a	disappointed populations deserve cayman\n
242.1505	0.105	484301	keystroke_d	d	n/a
242.2705	0.074	484541	keystroke_i	i	n/a
242.3895	0.075	484779	keystroke_s	s	n/a
242.5705	0.074	485141	keystroke_a	a	n/a
242.9155	0.075	485831	keystroke_p	p	n/a
243.1705	0.089	486341	keystroke_p	p	n/a
243.4095	0.105	486819	keystroke_o	o	n/a
243.6205	0.089	487241	keystroke_i	i	n/a
243.7845	0.09	487569	keystroke_n	n	n/a
243.9645	0.06	487929	keystroke_t	t	n/a
244.1295	0.106	488259	keystroke_e	e	n/a
244.1755	0.149	488351	keystroke_d	d	n/a
244.3095	0.135	488619	keystroke_Key.space	Key.space	n/a
244.7145	0.075	489429	keystroke_p	p	n/a
244.8645	0.09	489729	keystroke_o	o	n/a
245.0455	0.089	490091	keystroke_p	p	n/a
245.2845	0.06	490569	keystroke_u	u	n/a
245.5105	0.074	491021	keystroke_l	l	n/a
245.6005	0.104	491201	keystroke_a	a	n/a
245.7195	0.09	491439	keystroke_t	t	n/a
245.8105	0.089	491621	keystroke_i	i	n/a
245.9905	0.105	491981	keystroke_o	o	n/a
246.1105	0.09	492221	keystroke_n	n	n/a
246.2295	0.135	492459	keystroke_s	s	n/a
246.3495	0.075	492699	keystroke_Key.space	Key.space	n/a
247.0405	0.12	494081	keystroke_d	d	n/a
247.3705	0.105	494741	keystroke_e	e	n/a
247.5955	0.09	495191	keystroke_s	s	n/a
247.8205	0.09	495641	keystroke_e	e	n/a
248.0005	0.075	496001	keystroke_r	r	n/a
248.1505	0.105	496301	keystroke_v	v	n/a
248.3005	0.135	496601	keystroke_e	e	n/a
248.3905	0.12	496781	keystroke_Key.space	Key.space	n/a
249.2305	0.105	498461	keystroke_c	c	n/a
249.3655	0.105	498731	keystroke_a	a	n/a
249.5005	0.075	499001	keystroke_y	y	n/a
249.7105	0.09	499421	keystroke_m	m	n/a
249.8155	0.09	499631	keystroke_a	a	n/a
249.8905	0.09	499781	keystroke_n	n	n/a
250.2655	0.075	500531	keystroke_Key.enter	Key.enter	n/a
250.351	11.108	500702	prompt	n/a	pleasure pills identifying inexpensive\n
250.9255	0.15	501851	keystroke_p	p	n/a
251.0455	0.12	502091	keystroke_l	l	n/a
251.1355	0.09	502271	keystroke_e	e	n/a
251.3155	0.105	502631	keystroke_a	a	n/a
251.3755	0.105	502751	keystroke_s	s	n/a
251.8405	0.045	503681	keystroke_t	t	n/a
252.0955	0.075	504191	keystroke_Key.backspace	Key.backspace	n/a
252.2605	0.09	504521	keystroke_u	u	n/a
252.3515	0.104	504703	keystroke_r	r	n/a
252.4105	0.12	504821	keystroke_e	e	n/a
252.7705	0.075	505541	keystroke_Key.space	Key.space	n/a
253.1005	0.075	506201	keystroke_p	p	n/a
253.2805	0.075	506561	keystroke_i	i	n/a
253.5055	0.075	507011	keystroke_l	l	n/a
253.6555	0.075	507311	keystroke_l	l	n/a
253.7905	0.105	507581	keystroke_s	s	n/a
253.8505	0.12	507701	keystroke_Key.space	Key.space	n/a
254.3755	0.1045	508751	keystroke_i	i	n/a
254.5105	0.015	509021	keystroke_i	i	n/a
254.5105	0.075	509021	keystroke_n	n	n/a
254.8555	0.09	509711	keystroke_Key.backspace	Key.backspace	n/a
254.9605	0.09	509921	keystroke_d	d	n/a
255.1705	0.06	510341	keystroke_e	e	n/a
255.2755	0.075	510551	keystroke_n	n	n/a
255.5605	0.09	511121	keystroke_Key.backspace	Key.backspace	n/a
255.7255	0.09	511451	keystroke_Key.backspace	Key.backspace	n/a
255.9055	0.09	511811	keystroke_Key.backspace	Key.backspace	n/a
256.0705	0.09	512141	keystroke_Key.backspace	Key.backspace	n/a
256.175	0.075	512350	keystroke_Key.backspace	Key.backspace	n/a
256.31	0.0755	512620	keystroke_e	e	n/a
256.625	0.0755	513250	keystroke_Key.backspace	Key.backspace	n/a
256.805	0.06	513610	keystroke_i	i	n/a
256.925	0.135	513850	keystroke_d	d	n/a
257.0305	0.105	514061	keystroke_e	e	n/a
257.1505	0.0595	514301	keystroke_n	n	n/a
258.291	0.075	516582	keystroke_t	t	n/a
258.411	0.089	516822	keystroke_i	i	n/a
258.561	0.089	517122	keystroke_f	f	n/a
258.695	0.045	517390	keystroke_y	y	n/a
258.86	0.105	517720	keystroke_i	i	n/a
258.92	0.121	517840	keystroke_n	n	n/a
259.055	0.075	518110	keystroke_g	g	n/a
259.16	0.075	518320	keystroke_Key.space	Key.space	n/a
259.356	0.135	518712	keystroke_i	i	n/a
259.46	0.076	518920	keystroke_n	n	n/a
259.925	0.06	519850	keystroke_e	e	n/a
260.136	0.089	520272	keystroke_x	x	n/a
260.391	0.074	520782	keystroke_p	p	n/a
260.556	0.09	521112	keystroke_e	e	n/a
260.721	0.089	521442	keystroke_n	n	n/a
260.87	0.06	521740	keystroke_s	s	n/a
260.975	0.091	521950	keystroke_i	i	n/a
261.081	0.044	522162	keystroke_v	v	n/a
261.096	0.015	522192	keystroke_c	c	n/a
261.171	0.12	522342	keystroke_e	e	n/a
261.426	0.029	522852	keystroke_Key.enter	Key.enter	n/a
261.4645	4.853	522929	prompt	n/a	hacker ranked anaheim brian\n
262.476	0.06	524952	keystroke_h	h	n/a
262.536	0.105	525072	keystroke_a	a	n/a
262.611	0.105	525222	keystroke_c	c	n/a
262.746	0.104	525492	keystroke_k	k	n/a
262.821	0.12	525642	keystroke_e	e	n/a
262.911	0.075	525822	keystroke_r	r	n/a
263	0.075	526000	keystroke_Key.space	Key.space	n/a
263.181	0.09	526362	keystroke_r	r	n/a
263.345	0.091	526690	keystroke_a	a	n/a
263.42	0.076	526840	keystroke_n	n	n/a
263.6	0.091	527200	keystroke_k	k	n/a
263.692	0.088	527384	keystroke_e	e	n/a
263.736	0.105	527472	keystroke_d	d	n/a
263.825	0.075	527650	keystroke_Key.space	Key.space	n/a
264.006	0.06	528012	keystroke_a	a	n/a
264.111	0.06	528222	keystroke_n	n	n/a
264.186	0.075	528372	keystroke_a	a	n/a
264.441	0.075	528882	keystroke_h	h	n/a
264.561	0.075	529122	keystroke_e	e	n/a
264.666	0.12	529332	keystroke_i	i	n/a
264.816	0.075	529632	keystroke_m	m	n/a
264.905	0.12	529810	keystroke_Key.space	Key.space	n/a
265.446	0.075	530892	keystroke_b	b	n/a
265.566	0.105	531132	keystroke_r	r	n/a
265.701	0.075	531402	keystroke_i	i	n/a
265.836	0.12	531672	keystroke_a	a	n/a
265.941	0.0595	531882	keystroke_n	n	n/a
266.2255	0.09	532451	keystroke_Key.enter	Key.enter	n/a
266.3225	6.2045	532645	prompt	n/a	brave guys some argument\n
267.0055	0.075	534011	keystroke_b	b	n/a
267.0955	0.075	534191	keystroke_r	r	n/a
267.2455	0.075	534491	keystroke_a	a	n/a
267.3655	0.075	534731	keystroke_v	v	n/a
267.4555	0.06	534911	keystroke_e	e	n/a
267.5455	0.06	535091	keystroke_Key.space	Key.space	n/a
267.6355	0.06	535271	keystroke_g	g	n/a
267.7255	0.09	535451	keystroke_u	u	n/a
267.9055	0.09	535811	keystroke_y	y	n/a
268.0105	0.09	536021	keystroke_s	s	n/a
268.1015	0.134	536203	keystroke_Key.space	Key.space	n/a
268.5655	0.09	537131	keystroke_s	s	n/a
268.6405	0.15	537281	keystroke_o	o	n/a
268.7455	0.105	537491	keystroke_m	m	n/a
268.8205	0.09	537641	keystroke_e	e	n/a
268.9255	0.09	537851	keystroke_Key.space	Key.space	n/a
269.1055	0.06	538211	keystroke_e	e	n/a
269.5405	0.09	539081	keystroke_r	r	n/a
269.8555	0.06	539711	keystroke_Key.backspace	Key.backspace	n/a
269.9905	0.135	539981	keystroke_Key.backspace	Key.backspace	n/a
270.0055	0.09	540011	keystroke_a	a	n/a
270.1705	0.09	540341	keystroke_r	r	n/a
270.6955	0.09	541391	keystroke_g	g	n/a
270.8155	0.075	541631	keystroke_u	u	n/a
271.7455	0.09	543491	keystroke_m	m	n/a
271.9255	0.06	543851	keystroke_e	e	n/a
272.0005	0.075	544001	keystroke_n	n	n/a
272.1355	0.075	544271	keystroke_t	t	n/a
272.4505	0.075	544901	keystroke_Key.enter	Key.enter	n/a
272.533	7.6145	545066	prompt	n/a	cancelled java messaging therapist\n
273.2005	0.12	546401	keystroke_c	c	n/a
273.3655	0.06	546731	keystroke_a	a	n/a
273.4705	0.09	546941	keystroke_n	n	n/a
273.5455	0.12	547091	keystroke_c	c	n/a
273.6355	0.105	547271	keystroke_e	e	n/a
273.7555	0.06	547511	keystroke_l	l	n/a
273.8905	0.075	547781	keystroke_l	l	n/a
273.9805	0.105	547961	keystroke_e	e	n/a
274.0555	0.09	548111	keystroke_d	d	n/a
274.1755	0.06	548351	keystroke_Key.space	Key.space	n/a
274.5355	0.075	549071	keystroke_a	a	n/a
274.7905	0.075	549581	keystroke_Key.backspace	Key.backspace	n/a
274.9105	0.12	549821	keystroke_j	j	n/a
275.0455	0.075	550091	keystroke_a	a	n/a
275.2555	0.045	550511	keystroke_v	v	n/a
275.3305	0.135	550661	keystroke_a	a	n/a
275.6755	0.105	551351	keystroke_Key.space	Key.space	n/a
276.0805	0.075	552161	keystroke_m	m	n/a
276.1705	0.09	552341	keystroke_e	e	n/a
276.3955	0.045	552791	keystroke_s	s	n/a
276.5155	0.105	553031	keystroke_s	s	n/a
276.7105	0.06	553421	keystroke_a	a	n/a
276.8755	0.075	553751	keystroke_g	g	n/a
276.9955	0.15	553991	keystroke_i	i	n/a
277.1155	0.135	554231	keystroke_n	n	n/a
277.2655	0.06	554531	keystroke_g	g	n/a
277.3555	0.075	554711	keystroke_Key.space	Key.space	n/a
277.7455	0.06	555491	keystroke_t	t	n/a
277.8355	0.09	555671	keystroke_h	h	n/a
277.9555	0.135	555911	keystroke_e	e	n/a
278.1055	0.09	556211	keystroke_r	r	n/a
278.2405	0.09	556481	keystroke_q	q	n/a
278.6305	0.135	557261	keystroke_Key.backspace	Key.backspace	n/a
278.9005	0.09	557801	keystroke_a	a	n/a
279.2905	0.075	558581	keystroke_p	p	n/a
279.5005	0.06	559001	keystroke_i	i	n/a
279.5905	0.075	559181	keystroke_s	s	n/a
279.7255	0.09	559451	keystroke_t	t	n/a
280.0855	0.06	560171	keystroke_Key.enter	Key.enter	n/a
280.152	6.506	560304	prompt	n/a	posts tree consortium dash\n
280.8355	0.105	561671	keystroke_p	p	n/a
281.0455	0.105	562091	keystroke_o	o	n/a
281.1355	0.075	562271	keystroke_s	s	n/a
281.2255	0.105	562451	keystroke_t	t	n/a
281.3605	0.075	562721	keystroke_s	s	n/a
281.4955	0.075	562991	keystroke_Key.space	Key.space	n/a
281.6905	0.135	563381	keystroke_t	t	n/a
281.8405	0.075	563681	keystroke_r	r	n/a
282.1405	0.045	564281	keystroke_e	e	n/a
282.2905	0.075	564581	keystroke_e	e	n/a
282.4705	0.06	564941	keystroke_Key.space	Key.space	n/a
282.8755	0.075	565751	keystroke_o	o	n/a
283.4005	0.105	566801	keystroke_Key.backspace	Key.backspace	n/a
283.5515	0.104	567103	keystroke_c	c	n/a
283.6405	0.075	567281	keystroke_o	o	n/a
283.8355	0.061	567671	keystroke_n	n	n/a
284.2715	0.089	568543	keystroke_s	s	n/a
284.4205	0.105	568841	keystroke_o	o	n/a
284.6155	0.09	569231	keystroke_r	r	n/a
284.8105	0.075	569621	keystroke_t	t	n/a
285.1705	0.06	570341	keystroke_i	i	n/a
285.3505	0.09	570701	keystroke_u	u	n/a
285.5455	0.075	571091	keystroke_m	m	n/a
285.7105	0.105	571421	keystroke_Key.space	Key.space	n/a
285.9805	0.135	571961	keystroke_d	d	n/a
286.1305	0.135	572261	keystroke_a	a	n/a
286.2205	0.09	572441	keystroke_s	s	n/a
286.2955	0.075	572591	keystroke_h	h	n/a
286.5955	0.06	573191	keystroke_Key.enter	Key.enter	n/a
286.6635	12.85	573327	prompt	n/a	deeply patches alexander methodology\n
287.4355	0.06	574871	keystroke_f	f	n/a
287.4505	0.06	574901	keystroke_d	d	n/a
287.7955	0.075	575591	keystroke_Key.backspace	Key.backspace	n/a
287.9455	0.12	575891	keystroke_Key.backspace	Key.backspace	n/a
288.0505	0.12	576101	keystroke_d	d	n/a
288.1715	0.044	576343	keystroke_e	e	n/a
288.3055	0.09	576611	keystroke_e	e	n/a
288.4105	0.09	576821	keystroke_p	p	n/a
289.2065	0.074	578413	keystroke_l	l	n/a
289.4305	0.09	578861	keystroke_y	y	n/a
289.5955	0.09	579191	keystroke_Key.space	Key.space	n/a
291.666	0.09	583332	keystroke_p	p	n/a
291.741	0.09	583482	keystroke_a	a	n/a
291.951	0.029	583902	keystroke_t	t	n/a
292.071	0.075	584142	keystroke_c	c	n/a
292.206	0.075	584412	keystroke_h	h	n/a
292.251	0.075	584502	keystroke_e	e	n/a
292.431	0.075	584862	keystroke_s	s	n/a
292.521	0.074	585042	keystroke_Key.space	Key.space	n/a
293.046	0.075	586092	keystroke_a	a	n/a
293.151	0.075	586302	keystroke_l	l	n/a
293.421	0.06	586842	keystroke_e	e	n/a
293.601	0.09	587202	keystroke_x	x	n/a
293.931	0.06	587862	keystroke_a	a	n/a
294.051	0.075	588102	keystroke_n	n	n/a
294.216	0.105	588432	keystroke_d	d	n/a
294.366	0.105	588732	keystroke_e	e	n/a
294.456	0.075	588912	keystroke_r	r	n/a
294.546	0.105	589092	keystroke_Key.space	Key.space	n/a
294.756	0.06	589512	keystroke_m	m	n/a
294.831	0.09	589662	keystroke_e	e	n/a
294.966	0.075	589932	keystroke_t	t	n/a
295.071	0.105	590142	keystroke_h	h	n/a
295.341	0.09	590682	keystroke_o	o	n/a
295.536	0.105	591072	keystroke_d	d	n/a
295.656	0.09	591312	keystroke_o	o	n/a
296.601	0.105	593202	keystroke_o	o	n/a
296.691	0.09	593382	keystroke_l	l	n/a
296.766	0.105	593532	keystroke_g	g	n/a
297.216	0.075	594432	keystroke_Key.backspace	Key.backspace	n/a
297.396	0.075	594792	keystroke_Key.backspace	Key.backspace	n/a
297.561	0.105	595122	keystroke_Key.backspace	Key.backspace	n/a
298.206	0.09	596412	keystroke_l	l	n/a
298.446	0.075	596892	keystroke_o	o	n/a
298.566	0.09	597132	keystroke_g	g	n/a
298.761	0.12	597522	keystroke_y	y	n/a
298.882	0.134	597764	keystroke_Key.space	Key.space	n/a
299.241	0.06	598482	keystroke_Key.backspace	Key.backspace	n/a
299.421	0.09	598842	keystroke_Key.enter	Key.enter	n/a
299.52	9.2775	599040	prompt	n/a	organized basement corresponding dental\n
300.486	0.075	600972	keystroke_o	o	n/a
300.591	0.12	601182	keystroke_r	r	n/a
300.741	0.075	601482	keystroke_g	g	n/a
300.891	0.09	601782	keystroke_a	a	n/a
300.996	0.075	601992	keystroke_n	n	n/a
301.146	0.09	602292	keystroke_i	i	n/a
301.221	0.075	602442	keystroke_z	z	n/a
301.446	0.12	602892	keystroke_e	e	n/a
301.506	0.105	603012	keystroke_d	d	n/a
301.656	0.06	603312	keystroke_Key.space	Key.space	n/a
302.031	0.075	604062	keystroke_b	b	n/a
302.091	0.135	604182	keystroke_a	a	n/a
302.151	0.09	604302	keystroke_s	s	n/a
302.346	0.09	604692	keystroke_e	e	n/a
302.541	0.09	605082	keystroke_m	m	n/a
302.571	0.075	605142	keystroke_e	e	n/a
303.501	0.075	607002	keystroke_n	n	n/a
303.606	0.06	607212	keystroke_t	t	n/a
303.756	0.045	607512	keystroke_Key.space	Key.space	n/a
303.966	0.105	607932	keystroke_c	c	n/a
304.116	0.075	608232	keystroke_o	o	n/a
304.896	0.045	609792	keystroke_r	r	n/a
305.031	0.075	610062	keystroke_r	r	n/a
305.241	0.045	610482	keystroke_s	s	n/a
305.541	0.105	611082	keystroke_Key.backspace	Key.backspace	n/a
305.616	0.06	611232	keystroke_e	e	n/a
305.796	0.075	611592	keystroke_s	s	n/a
305.916	0.105	611832	keystroke_p	p	n/a
306.126	0.105	612252	keystroke_o	o	n/a
306.381	0.075	612762	keystroke_n	n	n/a
306.771	0.09	613542	keystroke_d	d	n/a
306.996	0.18	613992	keystroke_i	i	n/a
307.056	0.135	614112	keystroke_n	n	n/a
307.206	0.075	614412	keystroke_g	g	n/a
307.371	0.06	614742	keystroke_Key.space	Key.space	n/a
307.761	0.12	615522	keystroke_d	d	n/a
307.896	0.12	615792	keystroke_e	e	n/a
308.031	0.09	616062	keystroke_n	n	n/a
308.151	0.06	616302	keystroke_t	t	n/a
308.3305	0.105	616661	keystroke_a	a	n/a
308.4205	0.09	616841	keystroke_l	l	n/a
308.7205	0.075	617441	keystroke_Key.enter	Key.enter	n/a
308.802	8.606	617604	prompt	n/a	otherwise initiative allowing designation\n
309.7415	0.074	619483	keystroke_o	o	n/a
309.8605	0.06	619721	keystroke_t	t	n/a
310.2205	0.091	620441	keystroke_h	h	n/a
310.3265	0.104	620653	keystroke_e	e	n/a
310.3865	0.075	620773	keystroke_r	r	n/a
310.6415	0.074	621283	keystroke_w	w	n/a
310.8055	0.075	621611	keystroke_i	i	n/a
310.9255	0.075	621851	keystroke_s	s	n/a
311.0915	0.059	622183	keystroke_e	e	n/a
311.1955	0.075	622391	keystroke_Key.space	Key.space	n/a
311.4065	0.135	622813	keystroke_i	i	n/a
311.5255	0.075	623051	keystroke_n	n	n/a
311.6915	0.104	623383	keystroke_i	i	n/a
311.8415	0.09	623683	keystroke_t	t	n/a
312.2615	0.074	624523	keystroke_i	i	n/a
312.3805	0.091	624761	keystroke_a	a	n/a
312.6055	0.076	625211	keystroke_t	t	n/a
312.8315	0.089	625663	keystroke_i	i	n/a
312.9055	0.075	625811	keystroke_v	v	n/a
313.0405	0.091	626081	keystroke_e	e	n/a
313.1605	0.075	626321	keystroke_Key.space	Key.space	n/a
313.6115	0.104	627223	keystroke_a	a	n/a
313.7005	0.075	627401	keystroke_l	l	n/a
313.8505	0.075	627701	keystroke_l	l	n/a
313.9715	0.135	627943	keystroke_o	o	n/a
314.1215	0.135	628243	keystroke_w	w	n/a
314.3615	0.18	628723	keystroke_i	i	n/a
314.4815	0.089	628963	keystroke_n	n	n/a
314.5855	0.075	629171	keystroke_g	g	n/a
314.6905	0.075	629381	keystroke_Key.space	Key.space	n/a
314.8705	0.106	629741	keystroke_d	d	n/a
314.9915	0.09	629983	keystroke_e	e	n/a
315.1865	0.06	630373	keystroke_s	s	n/a
315.3055	0.091	630611	keystroke_i	i	n/a
315.5015	0.06	631003	keystroke_g	g	n/a
315.9215	0.075	631843	keystroke_n	n	n/a
316.0555	0.076	632111	keystroke_a	a	n/a
316.1905	0.091	632381	keystroke_t	t	n/a
316.3415	0.074	632683	keystroke_i	i	n/a
316.4755	0.12	632951	keystroke_o	o	n/a
316.6255	0.076	633251	keystroke_n	n	n/a
317.3015	0.104	634603	keystroke_Key.enter	Key.enter	n/a
317.4135	8.395	634827	prompt	n/a	charger encouraged minerals snapshot\n
318.1715	0.089	636343	keystroke_c	c	n/a
318.3205	0.076	636641	keystroke_h	h	n/a
318.4115	0.105	636823	keystroke_r	r	n/a
319.0855	0.045	638171	keystroke_Key.backspace	Key.backspace	n/a
319.1615	0.09	638323	keystroke_a	a	n/a
319.3255	0.106	638651	keystroke_r	r	n/a
319.4615	0.075	638923	keystroke_g	g	n/a
319.6565	0.105	639313	keystroke_e	e	n/a
319.7165	0.104	639433	keystroke_r	r	n/a
319.8965	0.089	639793	keystroke_Key.space	Key.space	n/a
320.1955	0.076	640391	keystroke_e	e	n/a
320.2855	0.075	640571	keystroke_n	n	n/a
320.4365	0.12	640873	keystroke_c	c	n/a
320.5415	0.075	641083	keystroke_o	o	n/a
320.7215	0.074	641443	keystroke_u	u	n/a
320.7815	0.09	641563	keystroke_r	r	n/a
321.0365	0.06	642073	keystroke_a	a	n/a
321.1415	0.09	642283	keystroke_g	g	n/a
321.8915	0.12	643783	keystroke_e	e	n/a
321.9665	0.09	643933	keystroke_d	d	n/a
322.0865	0.074	644173	keystroke_Key.space	Key.space	n/a
322.3115	0.06	644623	keystroke_m	m	n/a
322.4165	0.12	644833	keystroke_i	i	n/a
322.5215	0.075	645043	keystroke_n	n	n/a
322.6565	0.105	645313	keystroke_e	e	n/a
322.7465	0.075	645493	keystroke_r	r	n/a
322.9265	0.075	645853	keystroke_a	a	n/a
323.0315	0.089	646063	keystroke_l	l	n/a
323.2565	0.089	646513	keystroke_s	s	n/a
323.5415	0.074	647083	keystroke_Key.space	Key.space	n/a
323.7365	0.075	647473	keystroke_s	s	n/a
323.8555	0.076	647711	keystroke_h	h	n/a
324.1255	0.076	648251	keystroke_Key.backspace	Key.backspace	n/a
324.3815	0.075	648763	keystroke_n	n	n/a
324.5155	0.091	649031	keystroke_a	a	n/a
324.6515	0.105	649303	keystroke_p	p	n/a
324.8915	0.06	649783	keystroke_s	s	n/a
325.0715	0.059	650143	keystroke_h	h	n/a
325.2515	0.075	650503	keystroke_o	o	n/a
325.3865	0.075	650773	keystroke_t	t	n/a
325.7465	0.059	651493	keystroke_Key.enter	Key.enter	n/a
325.814	8.739	651628	prompt	n/a	treating tracy royal ordinary\n
326.4965	0.075	652993	keystroke_t	t	n/a
326.6755	0.076	653351	keystroke_r	r	n/a
326.8715	0.09	653743	keystroke_a	a	n/a
327.1855	0.09	654371	keystroke_Key.backspace	Key.backspace	n/a
327.2615	0.075	654523	keystroke_e	e	n/a
327.3965	0.105	654793	keystroke_a	a	n/a
327.6515	0.075	655303	keystroke_r	r	n/a
327.9515	0.12	655903	keystroke_i	i	n/a
328.2065	0.06	656413	keystroke_Key.backspace	Key.backspace	n/a
328.3405	0.121	656681	keystroke_Key.backspace	Key.backspace	n/a
328.4465	0.075	656893	keystroke_t	t	n/a
328.5365	0.165	657073	keystroke_i	i	n/a
328.6255	0.121	657251	keystroke_n	n	n/a
328.7315	0.075	657463	keystroke_g	g	n/a
328.8205	0.091	657641	keystroke_Key.space	Key.space	n/a
329.1365	0.105	658273	keystroke_r	r	n/a
329.5705	0.091	659141	keystroke_Key.backspace	Key.backspace	n/a
329.6615	0.105	659323	keystroke_t	t	n/a
329.7365	0.09	659473	keystroke_r	r	n/a
329.9315	0.075	659863	keystroke_a	a	n/a
330.0365	0.15	660073	keystroke_c	c	n/a
330.2915	0.09	660583	keystroke_y	y	n/a
330.5165	0.134	661033	keystroke_Key.space	Key.space	n/a
331.371	0.06	662742	keystroke_r	r	n/a
331.446	0.09	662892	keystroke_o	o	n/a
331.626	0.045	663252	keystroke_y	y	n/a
332.511	0.075	665022	keystroke_a	a	n/a
332.601	0.09	665202	keystroke_l	l	n/a
332.916	0.105	665832	keystroke_Key.space	Key.space	n/a
333.186	0.075	666372	keystroke_o	o	n/a
333.366	0.061	666732	keystroke_r	r	n/a
333.501	0.105	667002	keystroke_d	d	n/a
333.621	0.09	667242	keystroke_i	i	n/a
333.726	0.09	667452	keystroke_n	n	n/a
333.846	0.075	667692	keystroke_a	a	n/a
334.071	0.075	668142	keystroke_r	r	n/a
334.147	0.059	668294	keystroke_y	y	n/a
334.491	0.06	668982	keystroke_Key.enter	Key.enter	n/a
334.56	10.269	669120	prompt	n/a	euros psychology advantages beautiful\n
335.541	0.06	671082	keystroke_e	e	n/a
335.691	0.075	671382	keystroke_u	u	n/a
335.826	0.075	671652	keystroke_r	r	n/a
335.931	0.09	671862	keystroke_o	o	n/a
336.066	0.09	672132	keystroke_s	s	n/a
336.171	0.135	672342	keystroke_Key.space	Key.space	n/a
336.681	0.09	673362	keystroke_p	p	n/a
336.936	0.09	673872	keystroke_s	s	n/a
337.071	0.06	674142	keystroke_y	y	n/a
337.176	0.105	674352	keystroke_c	c	n/a
337.611	0.09	675222	keystroke_h	h	n/a
337.866	0.105	675732	keystroke_o	o	n/a
338.061	0.09	676122	keystroke_l	l	n/a
338.196	0.09	676392	keystroke_o	o	n/a
338.391	0.09	676782	keystroke_g	g	n/a
338.526	0.075	677052	keystroke_y	y	n/a
338.631	0.12	677262	keystroke_Key.space	Key.space	n/a
339.127	0.089	678254	keystroke_a	a	n/a
339.336	0.12	678672	keystroke_d	d	n/a
340.641	0.06	681282	keystroke_v	v	n/a
340.821	0.075	681642	keystroke_a	a	n/a
340.941	0.06	681882	keystroke_n	n	n/a
341.421	0.075	682842	keystroke_t	t	n/a
341.617	0.059	683234	keystroke_a	a	n/a
341.737	0.104	683474	keystroke_g	g	n/a
341.871	0.105	683742	keystroke_e	e	n/a
342.066	0.075	684132	keystroke_s	s	n/a
342.156	0.09	684312	keystroke_Key.space	Key.space	n/a
342.501	0.075	685002	keystroke_b	b	n/a
342.592	0.075	685184	keystroke_e	e	n/a
342.741	0.105	685482	keystroke_a	a	n/a
342.951	0.105	685902	keystroke_u	u	n/a
343.207	0.059	686414	keystroke_r	r	n/a
343.581	0.135	687162	keystroke_Key.backspace	Key.backspace	n/a
343.731	0.09	687462	keystroke_t	t	n/a
343.881	0.075	687762	keystroke_i	i	n/a
344.031	0.09	688062	keystroke_f	f	n/a
344.136	0.06	688272	keystroke_u	u	n/a
344.346	0.075	688692	keystroke_l	l	n/a
344.736	0.09	689472	keystroke_Key.enter	Key.enter	n/a
344.8365	12.0675	689673	prompt	n/a	disclosure publicity worn notified\n
345.787	0.104	691574	keystroke_d	d	n/a
345.921	0.09	691842	keystroke_i	i	n/a
345.996	0.076	691992	keystroke_s	s	n/a
346.161	0.075	692322	keystroke_c	c	n/a
346.896	0.075	693792	keystroke_l	l	n/a
347.077	0.09	694154	keystroke_o	o	n/a
347.451	0.091	694902	keystroke_u	u	n/a
347.646	0.06	695292	keystroke_s	s	n/a
347.826	0.075	695652	keystroke_e	e	n/a
347.946	0.06	695892	keystroke_Key.space	Key.space	n/a
348.201	0.075	696402	keystroke_Key.backspace	Key.backspace	n/a
348.351	0.075	696702	keystroke_Key.backspace	Key.backspace	n/a
348.487	0.089	696974	keystroke_u	u	n/a
348.546	0.135	697092	keystroke_r	r	n/a
348.651	0.09	697302	keystroke_e	e	n/a
348.756	0.09	697512	keystroke_Key.space	Key.space	n/a
349.146	0.075	698292	keystroke_Key.backspace	Key.backspace	n/a
349.341	0.075	698682	keystroke_Key.backspace	Key.backspace	n/a
349.521	0.12	699042	keystroke_Key.backspace	Key.backspace	n/a
349.731	0.09	699462	keystroke_Key.backspace	Key.backspace	n/a
349.911	0.09	699822	keystroke_Key.backspace	Key.backspace	n/a
350.076	0.09	700152	keystroke_Key.backspace	Key.backspace	n/a
350.707	0.075	701414	keystroke_s	s	n/a
350.841	0.075	701682	keystroke_u	u	n/a
350.901	0.105	701802	keystroke_r	r	n/a
350.976	0.105	701952	keystroke_e	e	n/a
351.066	0.06	702132	keystroke_Key.space	Key.space	n/a
351.862	0.074	703724	keystroke_p	p	n/a
352.071	0.061	704142	keystroke_u	u	n/a
352.176	0.06	704352	keystroke_b	b	n/a
352.251	0.075	704502	keystroke_l	l	n/a
352.401	0.075	704802	keystroke_i	i	n/a
352.461	0.076	704922	keystroke_c	c	n/a
352.641	0.091	705282	keystroke_i	i	n/a
352.882	0.089	705764	keystroke_t	t	n/a
353.166	0.091	706332	keystroke_y	y	n/a
353.316	0.09	706632	keystroke_Key.space	Key.space	n/a
353.841	0.076	707682	keystroke_w	w	n/a
353.932	0.105	707864	keystroke_o	o	n/a
354.202	0.075	708404	keystroke_n	n	n/a
354.471	0.06	708942	keystroke_Key.backspace	Key.backspace	n/a
354.517	0.074	709034	keystroke_r	r	n/a
354.621	0.076	709242	keystroke_n	n	n/a
354.756	0.12	709512	keystroke_Key.space	Key.space	n/a
355.207	0.06	710414	keystroke_n	n	n/a
355.357	0.12	710714	keystroke_o	o	n/a
355.551	0.031	711102	keystroke_t	t	n/a
355.987	0.104	711974	keystroke_i	i	n/a
356.212	0.075	712424	keystroke_f	f	n/a
356.377	0.09	712754	keystroke_i	i	n/a
356.512	0.12	713024	keystroke_e	e	n/a
356.662	0.09	713324	keystroke_d	d	n/a
356.826	0.075	713652	keystroke_Key.enter	Key.enter	n/a
356.91	7.253	713820	prompt	n/a	enough rebecca ryan loving\n
358.192	0.074	716384	keystroke_e	e	n/a
358.296	0.076	716592	keystroke_n	n	n/a
358.477	0.074	716954	keystroke_o	o	n/a
358.657	0.075	717314	keystroke_u	u	n/a
359.092	0.09	718184	keystroke_g	g	n/a
359.166	0.091	718332	keystroke_h	h	n/a
359.346	0.075	718692	keystroke_Key.space	Key.space	n/a
359.482	0.12	718964	keystroke_r	r	n/a
359.617	0.105	719234	keystroke_e	e	n/a
360.082	0.06	720164	keystroke_b	b	n/a
360.322	0.075	720644	keystroke_e	e	n/a
360.577	0.105	721154	keystroke_c	c	n/a
361.071	0.091	722142	keystroke_c	c	n/a
361.252	0.104	722504	keystroke_a	a	n/a
361.416	0.06	722832	keystroke_Key.space	Key.space	n/a
361.987	0.0745	723974	keystroke_r	r	n/a
362.1215	0.045	724243	keystroke_y	y	n/a
362.257	0.0895	724514	keystroke_a	a	n/a
362.3915	0.075	724783	keystroke_n	n	n/a
362.5115	0.104	725023	keystroke_Key.space	Key.space	n/a
363.1115	0.0755	726223	keystroke_l	l	n/a
363.2615	0.12	726523	keystroke_o	o	n/a
363.4415	0.09	726883	keystroke_v	v	n/a
363.5465	0.18	727093	keystroke_i	i	n/a
363.6665	0.074	727333	keystroke_n	n	n/a
363.7115	0.09	727423	keystroke_g	g	n/a
364.0855	0.075	728171	keystroke_Key.enter	Key.enter	n/a
364.1685	6.8945	728337	prompt	n/a	decades implementing feof raised\n
364.8065	0.09	729613	keystroke_d	d	n/a
364.8965	0.105	729793	keystroke_e	e	n/a
365.0615	0.12	730123	keystroke_c	c	n/a
365.3015	0.105	730603	keystroke_a	a	n/a
365.3915	0.135	730783	keystroke_d	d	n/a
365.5115	0.09	731023	keystroke_e	e	n/a
365.7065	0.105	731413	keystroke_s	s	n/a
366.4405	0.061	732881	keystroke_Key.space	Key.space	n/a
366.6815	0.075	733363	keystroke_i	i	n/a
366.7865	0.105	733573	keystroke_m	m	n/a
366.9815	0.12	733963	keystroke_p	p	n/a
367.0715	0.09	734143	keystroke_l	l	n/a
367.2065	0.09	734413	keystroke_e	e	n/a
367.4165	0.09	734833	keystroke_m	m	n/a
367.5515	0.075	735103	keystroke_e	e	n/a
367.6415	0.075	735283	keystroke_n	n	n/a
367.7765	0.09	735553	keystroke_t	t	n/a
367.8815	0.135	735763	keystroke_i	i	n/a
367.9715	0.105	735943	keystroke_n	n	n/a
368.0615	0.075	736123	keystroke_g	g	n/a
368.1815	0.074	736363	keystroke_Key.space	Key.space	n/a
368.5115	0.12	737023	keystroke_f	f	n/a
368.7065	0.12	737413	keystroke_e	e	n/a
368.8415	0.075	737683	keystroke_o	o	n/a
369.0365	0.165	738073	keystroke_f	f	n/a
369.3815	0.134	738763	keystroke_Key.space	Key.space	n/a
369.8165	0.09	739633	keystroke_r	r	n/a
370.0265	0.09	740053	keystroke_a	a	n/a
370.1915	0.09	740383	keystroke_i	i	n/a
370.2815	0.045	740563	keystroke_s	s	n/a
370.7165	0.12	741433	keystroke_d	d	n/a
370.9415	0.119	741883	keystroke_Key.enter	Key.enter	n/a
371.069	5.049	742138	prompt	n/a	during plate brook forge\n
372.3515	0.06	744703	keystroke_u	u	n/a
372.5915	0.09	745183	keystroke_Key.backspace	Key.backspace	n/a
372.6365	0.105	745273	keystroke_d	d	n/a
372.7865	0.06	745573	keystroke_u	u	n/a
372.8615	0.075	745723	keystroke_r	r	n/a
372.9515	0.105	745903	keystroke_i	i	n/a
373.0415	0.105	746083	keystroke_n	n	n/a
373.1615	0.06	746323	keystroke_g	g	n/a
373.2515	0.09	746503	keystroke_Key.space	Key.space	n/a
373.5365	0.12	747073	keystroke_p	p	n/a
373.6415	0.09	747283	keystroke_l	l	n/a
373.7615	0.09	747523	keystroke_a	a	n/a
373.8815	0.105	747763	keystroke_t	t	n/a
373.9715	0.075	747943	keystroke_e	e	n/a
374.0315	0.075	748063	keystroke_Key.space	Key.space	n/a
374.2415	0.06	748483	keystroke_b	b	n/a
374.4365	0.06	748873	keystroke_r	r	n/a
374.5265	0.075	749053	keystroke_o	o	n/a
374.6915	0.135	749383	keystroke_o	o	n/a
374.7665	0.105	749533	keystroke_k	k	n/a
374.9015	0.12	749803	keystroke_Key.space	Key.space	n/a
375.3065	0.135	750613	keystroke_f	f	n/a
375.4715	0.075	750943	keystroke_o	o	n/a
375.5765	0.09	751153	keystroke_r	r	n/a
375.7265	0.075	751453	keystroke_g	g	n/a
375.8615	0.12	751723	keystroke_e	e	n/a
376.0415	0.075	752083	keystroke_Key.enter	Key.enter	n/a
376.123	8.095	752246	prompt	n/a	paintings annoying contribute pricing\n
376.7765	0.09	753553	keystroke_p	p	n/a
376.8515	0.12	753703	keystroke_a	a	n/a
377.0015	0.09	754003	keystroke_i	i	n/a
377.1065	0.12	754213	keystroke_n	n	n/a
377.5265	0.075	755053	keystroke_t	t	n/a
377.8415	0.165	755683	keystroke_i	i	n/a
377.9465	0.105	755893	keystroke_n	n	n/a
378.0215	0.075	756043	keystroke_g	g	n/a
378.1865	0.075	756373	keystroke_s	s	n/a
378.2765	0.09	756553	keystroke_Key.space	Key.space	n/a
378.4265	0.09	756853	keystroke_a	a	n/a
378.5315	0.045	757063	keystroke_n	n	n/a
378.6665	0.045	757333	keystroke_n	n	n/a
378.8315	0.06	757663	keystroke_o	o	n/a
378.9065	0.105	757813	keystroke_y	y	n/a
379.0415	0.15	758083	keystroke_i	i	n/a
379.1315	0.12	758263	keystroke_n	n	n/a
379.2365	0.09	758473	keystroke_g	g	n/a
379.3565	0.09	758713	keystroke_Key.space	Key.space	n/a
379.6565	0.12	759313	keystroke_c	c	n/a
379.9865	0.09	759973	keystroke_o	o	n/a
380.1065	0.09	760213	keystroke_n	n	n/a
380.4515	0.165	760903	keystroke_t	t	n/a
380.6615	0.09	761323	keystroke_r	r	n/a
380.8415	0.105	761683	keystroke_i	i	n/a
381.0365	0.105	762073	keystroke_b	b	n/a
381.2465	0.09	762493	keystroke_u	u	n/a
381.3965	0.135	762793	keystroke_t	t	n/a
381.4865	0.135	762973	keystroke_e	e	n/a
381.6965	0.075	763393	keystroke_Key.space	Key.space	n/a
381.9665	0.075	763933	keystroke_p	p	n/a
382.1015	0.075	764203	keystroke_r	r	n/a
382.1915	0.135	764383	keystroke_i	i	n/a
383.2415	0.12	766483	keystroke_c	c	n/a
383.6615	0.09	767323	keystroke_i	i	n/a
383.8115	0.075	767623	keystroke_n	n	n/a
383.9465	0.075	767893	keystroke_g	g	n/a
384.1415	0.075	768283	keystroke_Key.enter	Key.enter	n/a
384.224	8.065	768448	prompt	n/a	node enrolled calculator scales\n
384.8165	0.06	769633	keystroke_n	n	n/a
384.9965	0.105	769993	keystroke_o	o	n/a
385.0715	0.15	770143	keystroke_d	d	n/a
385.1465	0.12	770293	keystroke_e	e	n/a
385.2815	0.075	770563	keystroke_Key.space	Key.space	n/a
385.6715	0.075	771343	keystroke_e	e	n/a
385.8365	0.06	771673	keystroke_n	n	n/a
385.9265	0.09	771853	keystroke_t	t	n/a
386.2865	0.105	772573	keystroke_Key.backspace	Key.backspace	n/a
386.4065	0.06	772813	keystroke_r	r	n/a
386.4815	0.06	772963	keystroke_i	i	n/a
386.6765	0.045	773353	keystroke_l	l	n/a
386.9165	0.06	773833	keystroke_Key.backspace	Key.backspace	n/a
387.0215	0.15	774043	keystroke_Key.backspace	Key.backspace	n/a
387.1565	0.075	774313	keystroke_o	o	n/a
387.3065	0.075	774613	keystroke_l	l	n/a
387.4415	0.09	774883	keystroke_l	l	n/a
387.5765	0.15	775153	keystroke_e	e	n/a
387.6665	0.12	775333	keystroke_d	d	n/a
387.8015	0.09	775603	keystroke_Key.space	Key.space	n/a
388.0415	0.12	776083	keystroke_c	c	n/a
388.5215	0.075	777043	keystroke_a	a	n/a
388.6265	0.105	777253	keystroke_l	l	n/a
389.0915	0.09	778183	keystroke_c	c	n/a
389.2415	0.09	778483	keystroke_u	u	n/a
389.4965	0.09	778993	keystroke_l	l	n/a
389.6315	0.075	779263	keystroke_a	a	n/a
389.8265	0.075	779653	keystroke_o	o	n/a
390.2315	0.09	780463	keystroke_Key.backspace	Key.backspace	n/a
390.2915	0.12	780583	keystroke_t	t	n/a
390.3965	0.105	780793	keystroke_o	o	n/a
390.4865	0.105	780973	keystroke_r	r	n/a
390.6065	0.135	781213	keystroke_Key.space	Key.space	n/a
391.3565	0.09	782713	keystroke_s	s	n/a
391.4915	0.1045	782983	keystroke_c	c	n/a
391.611	0.091	783222	keystroke_a	a	n/a
391.762	0.089	783524	keystroke_l	l	n/a
391.882	0.06	783764	keystroke_e	e	n/a
392.077	0.089	784154	keystroke_s	s	n/a
392.226	0.06	784452	keystroke_Key.enter	Key.enter	n/a
392.2955	7.7635	784591	prompt	n/a	operator collected building atlantic\n
392.947	0.09	785894	keystroke_o	o	n/a
393.142	0.09	786284	keystroke_p	p	n/a
393.246	0.12	786492	keystroke_e	e	n/a
393.321	0.091	786642	keystroke_r	r	n/a
393.516	0.061	787032	keystroke_a	a	n/a
393.607	0.105	787214	keystroke_t	t	n/a
393.817	0.074	787634	keystroke_o	o	n/a
393.921	0.075	787842	keystroke_r	r	n/a
394.026	0.106	788052	keystroke_Key.space	Key.space	n/a
394.266	0.076	788532	keystroke_c	c	n/a
394.507	0.09	789014	keystroke_o	o	n/a
394.686	0.061	789372	keystroke_l	l	n/a
394.852	0.059	789704	keystroke_l	l	n/a
395.137	0.09	790274	keystroke_e	e	n/a
395.242	0.12	790484	keystroke_c	c	n/a
395.437	0.059	790874	keystroke_t	t	n/a
395.631	0.106	791262	keystroke_e	e	n/a
395.677	0.12	791354	keystroke_d	d	n/a
395.826	0.075	791652	keystroke_Key.space	Key.space	n/a
396.007	0.074	792014	keystroke_v	v	n/a
396.096	0.076	792192	keystroke_u	u	n/a
396.576	0.09	793152	keystroke_Key.backspace	Key.backspace	n/a
396.727	0.119	793454	keystroke_Key.backspace	Key.backspace	n/a
396.832	0.075	793664	keystroke_b	b	n/a
396.922	0.09	793844	keystroke_u	u	n/a
397.132	0.075	794264	keystroke_i	i	n/a
397.327	0.105	794654	keystroke_l	l	n/a
397.611	0.091	795222	keystroke_d	d	n/a
397.927	0.165	795854	keystroke_i	i	n/a
398.077	0.105	796154	keystroke_n	n	n/a
398.212	0.09	796424	keystroke_g	g	n/a
398.286	0.075	796572	keystroke_Key.space	Key.space	n/a
398.542	0.12	797084	keystroke_a	a	n/a
398.782	0.075	797564	keystroke_t	t	n/a
399.052	0.09	798104	keystroke_l	l	n/a
399.187	0.09	798374	keystroke_a	a	n/a
399.322	0.075	798644	keystroke_n	n	n/a
399.442	0.06	798884	keystroke_t	t	n/a
399.562	0.09	799124	keystroke_i	i	n/a
399.667	0.105	799334	keystroke_c	c	n/a
399.982	0.075	799964	keystroke_Key.enter	Key.enter	n/a
400.0665	6.442	800133	prompt	n/a	bowl pediatric pressing casio\n
401.212	0.06	802424	keystroke_b	b	n/a
401.317	0.075	802634	keystroke_o	o	n/a
401.452	0.075	802904	keystroke_w	w	n/a
401.572	0.06	803144	keystroke_l	l	n/a
401.646	0.135	803292	keystroke_Key.space	Key.space	n/a
402.427	0.09	804854	keystroke_p	p	n/a
402.562	0.135	805124	keystroke_e	e	n/a
402.666	0.136	805332	keystroke_d	d	n/a
403.072	0.09	806144	keystroke_i	i	n/a
403.342	0.075	806684	keystroke_a	a	n/a
403.477	0.105	806954	keystroke_t	t	n/a
403.627	0.09	807254	keystroke_r	r	n/a
403.777	0.075	807554	keystroke_i	i	n/a
403.867	0.105	807734	keystroke_c	c	n/a
403.957	0.15	807914	keystroke_Key.space	Key.space	n/a
404.347	0.09	808694	keystroke_p	p	n/a
404.452	0.12	808904	keystroke_r	r	n/a
404.542	0.09	809084	keystroke_e	e	n/a
404.737	0.075	809474	keystroke_s	s	n/a
404.9015	0.09	809803	keystroke_s	s	n/a
405.0515	0.165	810103	keystroke_i	i	n/a
405.1565	0.09	810313	keystroke_n	n	n/a
405.2615	0.09	810523	keystroke_g	g	n/a
405.3665	0.075	810733	keystroke_Key.space	Key.space	n/a
405.5615	0.15	811123	keystroke_c	c	n/a
405.7865	0.12	811573	keystroke_a	a	n/a
405.8465	0.135	811693	keystroke_s	s	n/a
405.9825	0.089	811965	keystroke_i	i	n/a
406.1615	0.075	812323	keystroke_o	o	n/a
406.4315	0.075	812863	keystroke_Key.enter	Key.enter	n/a
406.515	6.6385	813030	prompt	n/a	download young relate singapore\n
407.2265	0.105	814453	keystroke_d	d	n/a
407.3615	0.075	814723	keystroke_o	o	n/a
407.4965	0.06	814993	keystroke_w	w	n/a
407.6465	0.06	815293	keystroke_n	n	n/a
408.1415	0.09	816283	keystroke_l	l	n/a
408.2915	0.105	816583	keystroke_o	o	n/a
408.4415	0.12	816883	keystroke_a	a	n/a
408.5315	0.12	817063	keystroke_d	d	n/a
408.6815	0.075	817363	keystroke_Key.space	Key.space	n/a
409.1165	0.09	818233	keystroke_y	y	n/a
409.1765	0.09	818353	keystroke_o	o	n/a
409.3715	0.12	818743	keystroke_u	u	n/a
409.4315	0.135	818863	keystroke_n	n	n/a
409.5815	0.075	819163	keystroke_g	g	n/a
409.6715	0.09	819343	keystroke_Key.space	Key.space	n/a
410.3165	0.09	820633	keystroke_r	r	n/a
410.3615	0.135	820723	keystroke_e	e	n/a
410.5715	0.12	821143	keystroke_l	l	n/a
410.6615	0.075	821323	keystroke_a	a	n/a
410.7665	0.105	821533	keystroke_t	t	n/a
410.8565	0.12	821713	keystroke_e	e	n/a
411.1265	0.09	822253	keystroke_Key.space	Key.space	n/a
411.4715	0.12	822943	keystroke_s	s	n/a
411.6065	0.105	823213	keystroke_i	i	n/a
411.7415	0.075	823483	keystroke_g	g	n/a
411.8615	0.075	823723	keystroke_n	n	n/a
412.1015	0.015	824203	keystroke_a	a	n/a
412.2365	0.09	824473	keystroke_p	p	n/a
412.4015	0.09	824803	keystroke_o	o	n/a
412.5215	0.105	825043	keystroke_r	r	n/a
412.5815	0.135	825163	keystroke_e	e	n/a
412.7615	0.075	825523	keystroke_'	'	n/a
413.0465	0.105	826093	keystroke_Key.enter	Key.enter	n/a
413.16	5.8285	826320	prompt	n/a	letting realtor whole connecticut\n
413.7665	0.09	827533	keystroke_l	l	n/a
413.8715	0.105	827743	keystroke_e	e	n/a
414.0515	0.06	828103	keystroke_t	t	n/a
414.2015	0.045	828403	keystroke_t	t	n/a
414.2615	0.165	828523	keystroke_i	i	n/a
414.3975	0.089	828795	keystroke_n	n	n/a
414.4715	0.06	828943	keystroke_g	g	n/a
414.5915	0.075	829183	keystroke_Key.space	Key.space	n/a
414.7865	0.105	829573	keystroke_r	r	n/a
414.8615	0.135	829723	keystroke_e	e	n/a
415.0115	0.135	830023	keystroke_a	a	n/a
415.1165	0.06	830233	keystroke_l	l	n/a
415.3865	0.075	830773	keystroke_t	t	n/a
415.5065	0.09	831013	keystroke_o	o	n/a
415.6115	0.135	831223	keystroke_r	r	n/a
415.8815	0.12	831763	keystroke_Key.space	Key.space	n/a
416.2565	0.075	832513	keystroke_w	w	n/a
416.3465	0.075	832693	keystroke_h	h	n/a
416.5415	0.105	833083	keystroke_o	o	n/a
416.6915	0.12	833383	keystroke_l	l	n/a
416.8415	0.045	833683	keystroke_e	e	n/a
416.8565	0.135	833713	keystroke_Key.space	Key.space	n/a
417.1265	0.09	834253	keystroke_c	c	n/a
417.1865	0.09	834373	keystroke_o	o	n/a
417.4265	0.045	834853	keystroke_n	n	n/a
417.5465	0.075	835093	keystroke_n	n	n/a
417.6365	0.12	835273	keystroke_e	e	n/a
417.7265	0.105	835453	keystroke_c	c	n/a
417.9065	0.075	835813	keystroke_t	t	n/a
418.0115	0.075	836023	keystroke_i	i	n/a
418.3565	0.12	836713	keystroke_c	c	n/a
418.5065	0.075	837013	keystroke_u	u	n/a
418.5825	0.119	837165	keystroke_t	t	n/a
418.9265	0.06	837853	keystroke_Key.enter	Key.enter	n/a
418.995	11.4835	837990	prompt	n/a	listprice quantitative ranges avon\n
419.9015	0.06	839803	keystroke_l	l	n/a
420.0515	0.09	840103	keystroke_i	i	n/a
420.1265	0.09	840253	keystroke_s	s	n/a
420.2465	0.09	840493	keystroke_t	t	n/a
420.4715	0.105	840943	keystroke_p	p	n/a
420.8465	0.075	841693	keystroke_r	r	n/a
421.4615	0.09	842923	keystroke_i	i	n/a
421.5675	0.104	843135	keystroke_c	c	n/a
421.7015	0.15	843403	keystroke_e	e	n/a
421.8215	0.135	843643	keystroke_Key.space	Key.space	n/a
422.3615	0.105	844723	keystroke_q	q	n/a
422.4815	0.09	844963	keystroke_u	u	n/a
422.6015	0.105	845203	keystroke_a	a	n/a
422.7515	0.075	845503	keystroke_n	n	n/a
423.0965	0.09	846193	keystroke_t	t	n/a
423.5925	0.104	847185	keystroke_i	i	n/a
423.7865	0.045	847573	keystroke_t	t	n/a
424.4015	0.09	848803	keystroke_Key.backspace	Key.backspace	n/a
424.5065	0.12	849013	keystroke_a	a	n/a
424.5975	0.074	849195	keystroke_t	t	n/a
425.0165	0.06	850033	keystroke_Key.backspace	Key.backspace	n/a
425.1365	0.135	850273	keystroke_Key.backspace	Key.backspace	n/a
425.2865	0.09	850573	keystroke_t	t	n/a
425.6315	0.06	851263	keystroke_a	a	n/a
425.8265	0.03	851653	keystroke_t	t	n/a
425.9315	0.075	851863	keystroke_i	i	n/a
425.9915	0.075	851983	keystroke_v	v	n/a
426.1115	0.105	852223	keystroke_e	e	n/a
426.1865	0.12	852373	keystroke_Key.space	Key.space	n/a
427.042	0.12	854084	keystroke_r	r	n/a
427.237	0.075	854474	keystroke_a	a	n/a
427.342	0.09	854684	keystroke_n	n	n/a
427.402	0.075	854804	keystroke_g	g	n/a
427.597	0.09	855194	keystroke_e	e	n/a
428.017	0.075	856034	keystroke_s	s	n/a
428.182	0.12	856364	keystroke_Key.space	Key.space	n/a
428.452	0.075	856904	keystroke_a	a	n/a
428.947	0.045	857894	keystroke_b	b	n/a
429.262	0.09	858524	keystroke_Key.backspace	Key.backspace	n/a
429.412	0.09	858824	keystroke_v	v	n/a
429.847	0.075	859694	keystroke_o	o	n/a
429.967	0.09	859934	keystroke_n	n	n/a
430.417	0.06	860834	keystroke_Key.enter	Key.enter	n/a
430.4835	7.5555	860967	prompt	n/a	report initiated body profit\n
431.827	0.135	863654	keystroke_r	r	n/a
431.917	0.105	863834	keystroke_e	e	n/a
432.052	0.09	864104	keystroke_p	p	n/a
432.232	0.105	864464	keystroke_o	o	n/a
432.322	0.105	864644	keystroke_r	r	n/a
432.562	0.09	865124	keystroke_t	t	n/a
433.072	0.09	866144	keystroke_Key.space	Key.space	n/a
433.297	0.12	866594	keystroke_i	i	n/a
433.477	0.105	866954	keystroke_n	n	n/a
434.377	0.09	868754	keystroke_i	i	n/a
434.527	0.075	869054	keystroke_t	t	n/a
434.617	0.09	869234	keystroke_i	i	n/a
434.752	0.105	869504	keystroke_a	a	n/a
434.902	0.09	869804	keystroke_t	t	n/a
435.037	0.105	870074	keystroke_e	e	n/a
435.112	0.105	870224	keystroke_d	d	n/a
435.232	0.12	870464	keystroke_Key.space	Key.space	n/a
435.562	0.06	871124	keystroke_b	b	n/a
435.862	0.075	871724	keystroke_o	o	n/a
435.952	0.09	871904	keystroke_d	d	n/a
436.087	0.09	872174	keystroke_y	y	n/a
436.147	0.12	872294	keystroke_Key.space	Key.space	n/a
436.447	0.105	872894	keystroke_p	p	n/a
436.567	0.09	873134	keystroke_r	r	n/a
436.687	0.09	873374	keystroke_o	o	n/a
437.107	0.15	874214	keystroke_f	f	n/a
437.227	0.105	874454	keystroke_i	i	n/a
437.617	0.075	875234	keystroke_t	t	n/a
437.977	0.06	875954	keystroke_Key.enter	Key.enter	n/a
438.0455	5.1685	876091	prompt	n/a	either conversations pasta built\n
438.607	0.09	877214	keystroke_e	e	n/a
438.757	0.09	877514	keystroke_i	i	n/a
438.862	0.045	877724	keystroke_t	t	n/a
438.997	0.075	877994	keystroke_h	h	n/a
439.057	0.135	878114	keystroke_e	e	n/a
439.147	0.09	878294	keystroke_r	r	n/a
439.252	0.075	878504	keystroke_Key.space	Key.space	n/a
439.492	0.075	878984	keystroke_c	c	n/a
439.552	0.105	879104	keystroke_o	o	n/a
439.717	0.075	879434	keystroke_n	n	n/a
439.867	0.105	879734	keystroke_v	v	n/a
440.062	0.075	880124	keystroke_e	e	n/a
440.227	0.105	880454	keystroke_r	r	n/a
440.467	0.105	880934	keystroke_s	s	n/a
440.632	0.09	881264	keystroke_a	a	n/a
440.752	0.06	881504	keystroke_t	t	n/a
440.827	0.09	881654	keystroke_i	i	n/a
440.992	0.045	881984	keystroke_o	o	n/a
441.082	0.06	882164	keystroke_n	n	n/a
441.247	0.075	882494	keystroke_Key.space	Key.space	n/a
441.412	0.075	882824	keystroke_p	p	n/a
441.472	0.09	882944	keystroke_a	a	n/a
441.502	0.135	883004	keystroke_s	s	n/a
441.712	0.075	883424	keystroke_t	t	n/a
441.817	0.09	883634	keystroke_a	a	n/a
441.922	0.06	883844	keystroke_Key.space	Key.space	n/a
442.132	0.06	884264	keystroke_b	b	n/a
442.252	0.09	884504	keystroke_u	u	n/a
442.447	0.09	884894	keystroke_i	i	n/a
442.612	0.105	885224	keystroke_l	l	n/a
442.718	0.059	885436	keystroke_t	t	n/a
443.152	0.06	886304	keystroke_Key.enter	Key.enter	n/a
443.2195	5.469	886439	prompt	n/a	mrna addition references flow\n
444.172	0.075	888344	keystroke_m	m	n/a
444.277	0.075	888554	keystroke_r	r	n/a
444.562	0.075	889124	keystroke_n	n	n/a
444.667	0.12	889334	keystroke_a	a	n/a
444.832	0.09	889664	keystroke_Key.space	Key.space	n/a
445.042	0.105	890084	keystroke_a	a	n/a
445.192	0.075	890384	keystroke_d	d	n/a
445.327	0.105	890654	keystroke_d	d	n/a
445.447	0.09	890894	keystroke_i	i	n/a
445.612	0.105	891224	keystroke_t	t	n/a
445.717	0.075	891434	keystroke_i	i	n/a
445.867	0.075	891734	keystroke_o	o	n/a
446.017	0.09	892034	keystroke_n	n	n/a
446.197	0.105	892394	keystroke_Key.space	Key.space	n/a
446.647	0.105	893294	keystroke_r	r	n/a
446.722	0.12	893444	keystroke_e	e	n/a
446.902	0.105	893804	keystroke_f	f	n/a
447.127	0.06	894254	keystroke_e	e	n/a
447.172	0.105	894344	keystroke_r	r	n/a
447.322	0.09	894644	keystroke_e	e	n/a
447.457	0.06	894914	keystroke_n	n	n/a
447.547	0.075	895094	keystroke_c	c	n/a
447.652	0.075	895304	keystroke_e	e	n/a
447.847	0.045	895694	keystroke_s	s	n/a
447.907	0.09	895814	keystroke_Key.space	Key.space	n/a
448.057	0.09	896114	keystroke_f	f	n/a
448.162	0.09	896324	keystroke_l	l	n/a
448.282	0.105	896564	keystroke_o	o	n/a
448.372	0.105	896744	keystroke_w	w	n/a
448.612	0.075	897224	keystroke_Key.enter	Key.enter	n/a
448.6935	11.3815	897387	prompt	n/a	viewpicture architectural journal convergence\n
449.512	0.09	899024	keystroke_v	v	n/a
449.647	0.105	899294	keystroke_i	i	n/a
449.737	0.15	899474	keystroke_e	e	n/a
449.857	0.105	899714	keystroke_w	w	n/a
450.097	0.075	900194	keystroke_p	p	n/a
450.307	0.075	900614	keystroke_i	i	n/a
450.412	0.09	900824	keystroke_c	c	n/a
450.637	0.075	901274	keystroke_t	t	n/a
450.862	0.015	901724	keystroke_u	u	n/a
450.892	0.105	901784	keystroke_r	r	n/a
450.967	0.105	901934	keystroke_e	e	n/a
451.312	0.09	902624	keystroke_Key.space	Key.space	n/a
451.792	0.09	903584	keystroke_a	a	n/a
452.002	0.06	904004	keystroke_r	r	n/a
452.167	0.075	904334	keystroke_c	c	n/a
452.272	0.09	904544	keystroke_h	h	n/a
452.467	0.075	904934	keystroke_i	i	n/a
452.752	0.12	905504	keystroke_t	t	n/a
452.977	0.105	905954	keystroke_e	e	n/a
453.187	0.09	906374	keystroke_c	c	n/a
453.757	0.09	907514	keystroke_t	t	n/a
453.952	0.075	907904	keystroke_u	u	n/a
454.057	0.105	908114	keystroke_a	a	n/a
454.192	0.09	908384	keystroke_l	l	n/a
454.297	0.105	908594	keystroke_Key.space	Key.space	n/a
455.557	0.06	911114	keystroke_j	j	n/a
455.737	0.09	911474	keystroke_o	o	n/a
455.932	0.06	911864	keystroke_u	u	n/a
456.037	0.15	912074	keystroke_r	r	n/a
456.382	0.075	912764	keystroke_n	n	n/a
456.532	0.105	913064	keystroke_a	a	n/a
456.697	0.075	913394	keystroke_l	l	n/a
456.787	0.105	913574	keystroke_Key.space	Key.space	n/a
456.997	0.12	913994	keystroke_c	c	n/a
457.147	0.09	914294	keystroke_o	o	n/a
458.092	0.06	916184	keystroke_n	n	n/a
458.677	0.105	917354	keystroke_v	v	n/a
458.8425	0.1795	917685	keystroke_e	e	n/a
458.977	0.105	917954	keystroke_r	r	n/a
459.217	0.075	918434	keystroke_g	g	n/a
459.352	0.12	918704	keystroke_e	e	n/a
459.562	0.09	919124	keystroke_n	n	n/a
459.682	0.105	919364	keystroke_c	c	n/a
459.772	0.105	919544	keystroke_e	e	n/a
459.997	0.075	919994	keystroke_Key.enter	Key.enter	n/a
460.0785	7.5875	920157	prompt	n/a	reflect that'd interested universe\n
460.747	0.135	921494	keystroke_f	f	n/a
460.957	0.09	921914	keystroke_e	e	n/a
461.227	0.075	922454	keystroke_Key.backspace	Key.backspace	n/a
461.437	0.06	922874	keystroke_Key.backspace	Key.backspace	n/a
461.452	0.09	922904	keystroke_r	r	n/a
461.527	0.12	923054	keystroke_e	e	n/a
461.722	0.09	923444	keystroke_f	f	n/a
461.977	0.12	923954	keystroke_l	l	n/a
462.082	0.135	924164	keystroke_e	e	n/a
462.202	0.105	924404	keystroke_c	c	n/a
462.397	0.105	924794	keystroke_t	t	n/a
462.592	0.09	925184	keystroke_Key.space	Key.space	n/a
463.0725	0.075	926145	keystroke_t	t	n/a
463.1625	0.09	926325	keystroke_h	h	n/a
463.4025	0.09	926805	keystroke_t	t	n/a
463.7925	0.12	927585	keystroke_Key.backspace	Key.backspace	n/a
463.8975	0.075	927795	keystroke_a	a	n/a
463.9875	0.075	927975	keystroke_t	t	n/a
464.1075	0.09	928215	keystroke_'	'	n/a
464.302	0.09	928604	keystroke_s	s	n/a
464.422	0.15	928844	keystroke_Key.space	Key.space	n/a
464.947	0.09	929894	keystroke_i	i	n/a
465.067	0.105	930134	keystroke_n	n	n/a
465.173	0.074	930346	keystroke_t	t	n/a
465.307	0.09	930614	keystroke_e	e	n/a
465.367	0.12	930734	keystroke_r	r	n/a
465.502	0.09	931004	keystroke_e	e	n/a
465.712	0.075	931424	keystroke_s	s	n/a
465.832	0.09	931664	keystroke_t	t	n/a
465.952	0.135	931904	keystroke_e	e	n/a
466.072	0.12	932144	keystroke_d	d	n/a
466.207	0.105	932414	keystroke_Key.space	Key.space	n/a
466.432	0.15	932864	keystroke_u	u	n/a
466.583	0.074	933166	keystroke_n	n	n/a
466.702	0.135	933404	keystroke_i	i	n/a
466.822	0.09	933644	keystroke_v	v	n/a
466.972	0.12	933944	keystroke_e	e	n/a
467.077	0.12	934154	keystroke_r	r	n/a
467.302	0.106	934604	keystroke_s	s	n/a
467.452	0.105	934904	keystroke_e	e	n/a
467.602	0.06	935204	keystroke_Key.enter	Key.enter	n/a
467.672	11.3475	935344	prompt	n/a	device trees welding initiated\n
468.278	0.119	936556	keystroke_d	d	n/a
468.367	0.135	936734	keystroke_e	e	n/a
468.577	0.075	937154	keystroke_v	v	n/a
468.697	0.09	937394	keystroke_i	i	n/a
468.802	0.18	937604	keystroke_d	d	n/a
468.907	0.136	937814	keystroke_e	e	n/a
469.4025	0.09	938805	keystroke_Key.backspace	Key.backspace	n/a
469.5825	0.105	939165	keystroke_Key.backspace	Key.backspace	n/a
469.7175	0.135	939435	keystroke_c	c	n/a
469.8675	0.195	939735	keystroke_e	e	n/a
469.9725	0.15	939945	keystroke_Key.space	Key.space	n/a
470.7375	0.06	941475	keystroke_t	t	n/a
470.9025	0.12	941805	keystroke_r	r	n/a
471.0375	0.075	942075	keystroke_e	e	n/a
471.2325	0.075	942465	keystroke_e	e	n/a
471.4575	0.075	942915	keystroke_s	s	n/a
471.5925	0.09	943185	keystroke_Key.space	Key.space	n/a
471.9525	0.075	943905	keystroke_w	w	n/a
472.1475	0.075	944295	keystroke_e	e	n/a
472.2675	0.09	944535	keystroke_l	l	n/a
472.3725	0.12	944745	keystroke_d	d	n/a
472.6275	0.09	945255	keystroke_i	i	n/a
472.7025	0.09	945405	keystroke_n	n	n/a
472.8225	0.075	945645	keystroke_g	g	n/a
472.9275	0.075	945855	keystroke_Key.space	Key.space	n/a
473.2575	0.12	946515	keystroke_i	i	n/a
473.3925	0.075	946785	keystroke_n	n	n/a
473.6025	0.09	947205	keystroke_i	i	n/a
473.8125	0.09	947625	keystroke_t	t	n/a
475.7775	0.075	951555	keystroke_u	u	n/a
475.8975	0.135	951795	keystroke_a	a	n/a
476.1075	0.06	952215	keystroke_t	t	n/a
476.2275	0.135	952455	keystroke_e	e	n/a
476.3175	0.135	952635	keystroke_d	d	n/a
476.5875	0.045	953175	keystroke_Key.backspace	Key.backspace	n/a
476.7225	0.27	953445	keystroke_Key.backspace	Key.backspace	n/a
477.0675	0.09	954135	keystroke_Key.backspace	Key.backspace	n/a
477.2475	0.09	954495	keystroke_Key.backspace	Key.backspace	n/a
477.4275	0.12	954855	keystroke_Key.backspace	Key.backspace	n/a
477.9375	0.075	955875	keystroke_i	i	n/a
478.0425	0.075	956085	keystroke_a	a	n/a
478.1625	0.06	956325	keystroke_t	t	n/a
478.2825	0.12	956565	keystroke_e	e	n/a
478.3725	0.105	956745	keystroke_d	d	n/a
478.4625	0.12	956925	keystroke_Key.space	Key.space	n/a
478.7025	0.105	957405	keystroke_Key.backspace	Key.backspace	n/a
478.9725	0.045	957945	keystroke_Key.enter	Key.enter	n/a
479.024	9.955	958048	prompt	n/a	spice banks controlling supplements\n
480.3675	0.075	960735	keystroke_s	s	n/a
480.4575	0.075	960915	keystroke_p	p	n/a
480.6525	0.09	961305	keystroke_i	i	n/a
480.8025	0.12	961605	keystroke_c	c	n/a
480.8775	0.135	961755	keystroke_e	e	n/a
480.9975	0.15	961995	keystroke_Key.space	Key.space	n/a
481.9275	0.105	963855	keystroke_a	a	n/a
482.2575	0.06	964515	keystroke_Key.backspace	Key.backspace	n/a
482.4225	0.06	964845	keystroke_b	b	n/a
482.5725	0.06	965145	keystroke_a	a	n/a
482.6625	0.075	965325	keystroke_j	j	n/a
483.0375	0.12	966075	keystroke_Key.backspace	Key.backspace	n/a
483.1875	0.075	966375	keystroke_n	n	n/a
483.3825	0.09	966765	keystroke_k	k	n/a
483.5025	0.135	967005	keystroke_s	s	n/a
483.9225	0.105	967845	keystroke_Key.space	Key.space	n/a
484.2975	0.075	968595	keystroke_c	c	n/a
484.5075	0.06	969015	keystroke_n	n	n/a
484.7625	0.09	969525	keystroke_Key.backspace	Key.backspace	n/a
484.8675	0.09	969735	keystroke_o	o	n/a
485.0325	0.09	970065	keystroke_n	n	n/a
485.1675	0.09	970335	keystroke_t	t	n/a
485.2425	0.12	970485	keystroke_r	r	n/a
485.2725	0.091	970545	keystroke_o	o	n/a
485.4675	0.06	970935	keystroke_l	l	n/a
485.6025	0.075	971205	keystroke_l	l	n/a
485.7675	0.12	971535	keystroke_i	i	n/a
485.8275	0.135	971655	keystroke_n	n	n/a
485.9635	0.074	971927	keystroke_g	g	n/a
486.0675	0.09	972135	keystroke_Key.space	Key.space	n/a
486.4575	0.105	972915	keystroke_a	a	n/a
486.5775	0.09	973155	keystroke_u	u	n/a
486.8775	0.075	973755	keystroke_Key.backspace	Key.backspace	n/a
487.0125	0.105	974025	keystroke_Key.backspace	Key.backspace	n/a
487.1475	0.09	974295	keystroke_s	s	n/a
487.2225	0.075	974445	keystroke_u	u	n/a
487.5225	0.105	975045	keystroke_p	p	n/a
487.6875	0.105	975375	keystroke_p	p	n/a
487.7625	0.105	975525	keystroke_l	l	n/a
488.0025	0.105	976005	keystroke_e	e	n/a
488.2425	0.075	976485	keystroke_m	m	n/a
488.3475	0.105	976695	keystroke_e	e	n/a
488.4675	0.09	976935	keystroke_n	n	n/a
488.6175	0.045	977235	keystroke_t	t	n/a
488.8125	0.09	977625	keystroke_s	s	n/a
488.8875	0.09	977775	keystroke_Key.enter	Key.enter	n/a
488.9835	6.0865	977967	prompt	n/a	combined groups node form\n
489.6525	0.18	979305	keystroke_c	c	n/a
489.8175	0.075	979635	keystroke_i	i	n/a
489.9375	0.06	979875	keystroke_m	m	n/a
490.2075	0.06	980415	keystroke_Key.backspace	Key.backspace	n/a
490.3425	0.105	980685	keystroke_Key.backspace	Key.backspace	n/a
490.4175	0.135	980835	keystroke_o	o	n/a
490.5225	0.09	981045	keystroke_m	m	n/a
490.6725	0.09	981345	keystroke_b	b	n/a
490.7925	0.12	981585	keystroke_i	i	n/a
490.8825	0.105	981765	keystroke_n	n	n/a
491.0775	0.12	982155	keystroke_e	e	n/a
491.1675	0.105	982335	keystroke_d	d	n/a
491.8725	0.09	983745	keystroke_Key.space	Key.space	n/a
492.0525	0.09	984105	keystroke_g	g	n/a
492.2025	0.09	984405	keystroke_r	r	n/a
492.3525	0.075	984705	keystroke_o	o	n/a
492.5625	0.045	985125	keystroke_u	u	n/a
492.7575	0.105	985515	keystroke_p	p	n/a
492.8475	0.15	985695	keystroke_s	s	n/a
492.9825	0.135	985965	keystroke_Key.space	Key.space	n/a
493.3425	0.06	986685	keystroke_n	n	n/a
493.5225	0.09	987045	keystroke_o	o	n/a
493.5675	0.12	987135	keystroke_d	d	n/a
493.6425	0.09	987285	keystroke_e	e	n/a
493.7475	0.06	987495	keystroke_Key.space	Key.space	n/a
493.8525	0.135	987705	keystroke_f	f	n/a
494.4975	0.075	988995	keystroke_o	o	n/a
494.6175	0.06	989235	keystroke_r	r	n/a
494.6925	0.075	989385	keystroke_m	m	n/a
494.9925	0.075	989985	keystroke_Key.enter	Key.enter	n/a
495.0755	9.1585	990151	prompt	n/a	deutsche criminal submitting debt\n
495.9825	0.09	991965	keystroke_d	d	n/a
496.0875	0.06	992175	keystroke_e	e	n/a
497.0325	0.06	994065	keystroke_u	u	n/a
497.3475	0.06	994695	keystroke_t	t	n/a
497.6475	0.105	995295	keystroke_s	s	n/a
498.3675	0.105	996735	keystroke_c	c	n/a
498.4875	0.06	996975	keystroke_h	h	n/a
498.6225	0.12	997245	keystroke_e	e	n/a
498.7875	0.105	997575	keystroke_Key.space	Key.space	n/a
499.1175	0.165	998235	keystroke_c	c	n/a
499.3425	0.12	998685	keystroke_r	r	n/a
499.4925	0.045	998985	keystroke_i	i	n/a
499.7775	0.105	999555	keystroke_m	m	n/a
500.0625	0.12	1000125	keystroke_i	i	n/a
500.1975	0.09	1000395	keystroke_n	n	n/a
500.3475	0.105	1000695	keystroke_a	a	n/a
500.5125	0.09	1001025	keystroke_l	l	n/a
500.6325	0.12	1001265	keystroke_Key.space	Key.space	n/a
500.9625	0.105	1001925	keystroke_s	s	n/a
501.1125	0.09	1002225	keystroke_u	u	n/a
501.6525	0.105	1003305	keystroke_b	b	n/a
502.0435	0.074	1004087	keystroke_m	m	n/a
502.1775	0.075	1004355	keystroke_i	i	n/a
502.2975	0.09	1004595	keystroke_t	t	n/a
502.4625	0.06	1004925	keystroke_t	t	n/a
502.5375	0.135	1005075	keystroke_i	i	n/a
502.6125	0.12	1005225	keystroke_n	n	n/a
502.7175	0.06	1005435	keystroke_g	g	n/a
502.8225	0.09	1005645	keystroke_Key.space	Key.space	n/a
503.2275	0.09	1006455	keystroke_d	d	n/a
503.3475	0.09	1006695	keystroke_e	e	n/a
503.5575	0.075	1007115	keystroke_b	b	n/a
503.7525	0.105	1007505	keystroke_t	t	n/a
504.1425	0.09	1008285	keystroke_Key.enter	Key.enter	n/a
504.2415	8.5735	1008483	prompt	n/a	wrote deutsche cups draw\n
504.8775	0.105	1009755	keystroke_w	w	n/a
505.1475	0.09	1010295	keystroke_r	r	n/a
505.5525	0.105	1011105	keystroke_o	o	n/a
