onset	duration	sample	value	key	prompt_text
5.388	11.6745	10776	prompt	n/a	the quick brown fox jumps over a lazy dog\n
7.617	0.057	15234	keystroke_t	t	n/a
7.689	0.09	15378	keystroke_h	h	n/a
7.734	0.12	15468	keystroke_e	e	n/a
7.914	0.12	15828	keystroke_Key.space	Key.space	n/a
8.289	0.1505	16578	keystroke_q	q	n/a
8.3645	0.135	16729	keystroke_u	u	n/a
8.86	0.076	17720	keystroke_i	i	n/a
8.92	0.1355	17840	keystroke_c	c	n/a
9.0555	0.15	18111	keystroke_k	k	n/a
9.341	0.135	18682	keystroke_Key.space	Key.space	n/a
9.641	0.075	19282	keystroke_b	b	n/a
9.8215	0.135	19643	keystroke_o	o	n/a
9.9415	0.105	19883	keystroke_r	r	n/a
10.512	0.0605	21024	keystroke_Key.backspace	Key.backspace	n/a
10.6625	0.105	21325	keystroke_Key.backspace	Key.backspace	n/a
10.7525	0.135	21505	keystroke_r	r	n/a
10.933	0.15	21866	keystroke_o	o	n/a
11.098	0.135	22196	keystroke_w	w	n/a
11.188	0.12	22376	keystroke_n	n	n/a
11.653	0.1055	23306	keystroke_Key.space	Key.space	n/a
11.7885	0.135	23577	keystroke_f	f	n/a
11.9085	0.105	23817	keystroke_o	o	n/a
12.0285	0.1655	24057	keystroke_x	x	n/a
12.239	0.15	24478	keystroke_Key.space	Key.space	n/a
12.494	0.0605	24988	keystroke_j	j	n/a
12.6445	0.105	25289	keystroke_u	u	n/a
12.8845	0.091	25769	keystroke_m	m	n/a
13.08	0.12	26160	keystroke_p	p	n/a
13.2	0.1355	26400	keystroke_s	s	n/a
13.5755	0.165	27151	keystroke_Key.space	Key.space	n/a
13.831	0.12	27662	keystroke_o	o	n/a
13.921	0.105	27842	keystroke_v	v	n/a
14.086	0.1505	28172	keystroke_e	e	n/a
14.1915	0.12	28383	keystroke_r	r	n/a
14.2965	0.12	28593	keystroke_Key.space	Key.space	n/a
14.4465	0.1505	28893	keystroke_a	a	n/a
14.567	0.135	29134	keystroke_Key.space	Key.space	n/a
15.002	0.1505	30004	keystroke_l	l	n/a
15.1075	0.135	30215	keystroke_a	a	n/a
15.378	0.135	30756	keystroke_z	z	n/a
15.513	0.195	31026	keystroke_y	y	n/a
15.693	0.1655	31386	keystroke_Key.space	Key.space	n/a
16.2195	0.1345	32439	keystroke_d	d	n/a
16.3695	0.135	32739	keystroke_o	o	n/a
16.5195	0.12	33039	keystroke_g	g	n/a
16.895	0.165	33790	keystroke_Key.enter	Key.enter	n/a
17.067	8.331	34134	prompt	n/a	duke heavy historic guide\n
17.9915	0.09	35983	keystroke_h	h	n/a
18.7125	0.075	37425	keystroke_Key.backspace	Key.backspace	n/a
18.9225	0.1505	37845	keystroke_d	d	n/a
19.013	0.15	38026	keystroke_u	u	n/a
19.4185	0.1505	38837	keystroke_k	k	n/a
19.524	0.15	39048	keystroke_e	e	n/a
19.9435	0.136	39887	keystroke_Key.space	Key.space	n/a
20.2745	0.12	40549	keystroke_h	h	n/a
20.3495	0.12	40699	keystroke_e	e	n/a
20.5295	0.1805	41059	keystroke_a	a	n/a
20.695	0.12	41390	keystroke_v	v	n/a
20.9055	0.135	41811	keystroke_y	y	n/a
21.521	0.075	43042	keystroke_Key.space	Key.space	n/a
21.7315	0.09	43463	keystroke_h	h	n/a
21.9265	0.1205	43853	keystroke_i	i	n/a
21.9865	0.1205	43973	keystroke_s	s	n/a
22.227	0.06	44454	keystroke_t	t	n/a
22.3025	0.15	44605	keystroke_o	o	n/a
22.4075	0.1195	44815	keystroke_r	r	n/a
23.0825	0.1505	46165	keystroke_i	i	n/a
23.293	0.1655	46586	keystroke_c	c	n/a
23.9085	0.1655	47817	keystroke_Key.space	Key.space	n/a
24.3295	0.106	48659	keystroke_g	g	n/a
24.4655	0.135	48931	keystroke_u	u	n/a
24.5395	0.166	49079	keystroke_i	i	n/a
24.6605	0.1055	49321	keystroke_d	d	n/a
24.901	0.1195	49802	keystroke_e	e	n/a
25.216	0.18	50432	keystroke_Key.enter	Key.enter	n/a
25.4015	7.791	50803	prompt	n/a	recently sitting coat rarely\n
26.2825	0.12	52565	keystroke_r	r	n/a
26.4625	0.1055	52925	keystroke_e	e	n/a
26.658	0.135	53316	keystroke_c	c	n/a
26.808	0.135	53616	keystroke_e	e	n/a
26.958	0.1055	53916	keystroke_n	n	n/a
27.0335	0.105	54067	keystroke_t	t	n/a
27.1985	0.1355	54397	keystroke_l	l	n/a
27.424	0.165	54848	keystroke_y	y	n/a
27.529	0.1195	55058	keystroke_Key.space	Key.space	n/a
27.7385	0.151	55477	keystroke_s	s	n/a
27.8445	0.135	55689	keystroke_i	i	n/a
28.145	0.135	56290	keystroke_t	t	n/a
28.4	0.1205	56800	keystroke_t	t	n/a
28.6555	0.15	57311	keystroke_i	i	n/a
28.7305	0.1805	57461	keystroke_n	n	n/a
28.896	0.135	57792	keystroke_g	g	n/a
29.2555	0.1355	58511	keystroke_Key.space	Key.space	n/a
29.571	0.1355	59142	keystroke_c	c	n/a
29.6765	0.135	59353	keystroke_o	o	n/a
29.8415	0.2405	59683	keystroke_a	a	n/a
29.9765	0.1505	59953	keystroke_t	t	n/a
30.563	0.195	61126	keystroke_Key.space	Key.space	n/a
30.803	0.1505	61606	keystroke_r	r	n/a
30.8785	0.135	61757	keystroke_e	e	n/a
31.6885	0.106	63377	keystroke_Key.backspace	Key.backspace	n/a
31.7795	0.1805	63559	keystroke_a	a	n/a
31.9	0.165	63800	keystroke_r	r	n/a
32.005	0.135	64010	keystroke_e	e	n/a
32.4405	0.15	64881	keystroke_l	l	n/a
32.6955	0.1205	65391	keystroke_y	y	n/a
33.0105	0.18	66021	keystroke_Key.enter	Key.enter	n/a
33.1955	10.1345	66391	prompt	n/a	receipt panama irrigation meet\n
33.9865	0.105	67973	keystroke_r	r	n/a
34.0765	0.09	68153	keystroke_e	e	n/a
34.2565	0.2265	68513	keystroke_c	c	n/a
34.498	0.15	68996	keystroke_e	e	n/a
34.588	0.1945	69176	keystroke_i	i	n/a
34.7675	0.1655	69535	keystroke_p	p	n/a
34.8875	0.1205	69775	keystroke_t	t	n/a
35.9695	0.1645	71939	keystroke_Key.space	Key.space	n/a
36.5255	0.105	73051	keystroke_p	p	n/a
36.5855	0.165	73171	keystroke_a	a	n/a
36.7505	0.15	73501	keystroke_n	n	n/a
36.946	0.165	73892	keystroke_a	a	n/a
37.6355	0.136	75271	keystroke_m	m	n/a
37.7405	0.1815	75481	keystroke_a	a	n/a
38.3265	0.15	76653	keystroke_Key.space	Key.space	n/a
38.598	0.15	77196	keystroke_i	i	n/a
38.838	0.09	77676	keystroke_r	r	n/a
39.033	0.135	78066	keystroke_r	r	n/a
39.183	0.1645	78366	keystroke_i	i	n/a
39.5135	0.105	79027	keystroke_g	g	n/a
39.724	0.1795	79448	keystroke_a	a	n/a
39.8885	0.12	79777	keystroke_t	t	n/a
40.0245	0.165	80049	keystroke_i	i	n/a
40.0695	0.21	80139	keystroke_o	o	n/a
40.1595	0.18	80319	keystroke_n	n	n/a
41.0755	0.15	82151	keystroke_Key.space	Key.space	n/a
41.3305	0.1505	82661	keystroke_m	m	n/a
41.4055	0.1505	82811	keystroke_e	e	n/a
41.676	0.075	83352	keystroke_t	t	n/a
41.871	0.1055	83742	keystroke_t	t	n/a
42.277	0.075	84554	keystroke_Key.backspace	Key.backspace	n/a
42.472	0.09	84944	keystroke_Key.backspace	Key.backspace	n/a
42.5465	0.1505	85093	keystroke_e	e	n/a
42.757	0.12	85514	keystroke_t	t	n/a
43.1775	0.15	86355	keystroke_Key.enter	Key.enter	n/a
43.3335	15.4295	86667	prompt	n/a	mailed declaration worlds aviation\n
46.694	0.0005	93388	keystroke_f	f	n/a
47.2175	0.12	94435	keystroke_Key.backspace	Key.backspace	n/a
47.743	0.12	95486	keystroke_m	m	n/a
47.848	0.1795	95696	keystroke_a	a	n/a
49.77	0.15	99540	keystroke_a	a	n/a
50.326	0.075	100652	keystroke_Key.backspace	Key.backspace	n/a
50.566	0.075	101132	keystroke_i	i	n/a
50.7465	0.135	101493	keystroke_l	l	n/a
50.8665	0.12	101733	keystroke_e	e	n/a
51.0615	0.1505	102123	keystroke_d	d	n/a
51.257	0.179	102514	keystroke_Key.space	Key.space	n/a
51.557	0.1055	103114	keystroke_d	d	n/a
51.7375	0.135	103475	keystroke_e	e	n/a
52.277	0.1505	104554	keystroke_c	c	n/a
52.4425	0.15	104885	keystroke_l	l	n/a
52.6075	0.135	105215	keystroke_a	a	n/a
52.8935	0.1195	105787	keystroke_t	t	n/a
53.3885	0.09	106777	keystroke_Key.backspace	Key.backspace	n/a
53.4635	0.105	106927	keystroke_r	r	n/a
53.6585	0.1355	107317	keystroke_a	a	n/a
54.004	0.135	108008	keystroke_t	t	n/a
54.184	0.1655	108368	keystroke_i	i	n/a
54.2895	0.2105	108579	keystroke_o	o	n/a
54.3945	0.1655	108789	keystroke_n	n	n/a
54.935	0.15	109870	keystroke_Key.space	Key.space	n/a
55.22	0.1355	110440	keystroke_w	w	n/a
55.3405	0.135	110681	keystroke_o	o	n/a
55.4305	0.105	110861	keystroke_r	r	n/a
55.5655	0.135	111131	keystroke_l	l	n/a
55.6405	0.1205	111281	keystroke_d	d	n/a
55.851	0.135	111702	keystroke_s	s	n/a
56.3615	0.1655	112723	keystroke_Key.space	Key.space	n/a
57.006	0.15	114012	keystroke_a	a	n/a
57.186	0.12	114372	keystroke_v	v	n/a
57.321	0.12	114642	keystroke_i	i	n/a
57.426	0.136	114852	keystroke_a	a	n/a
57.607	0.135	115214	keystroke_t	t	n/a
57.712	0.1795	115424	keystroke_i	i	n/a
57.802	0.2095	115604	keystroke_o	o	n/a
57.9065	0.18	115813	keystroke_n	n	n/a
58.6265	0.135	117253	keystroke_Key.enter	Key.enter	n/a
58.767	21.8295	117534	prompt	n/a	consoles friday shouldn't've taylor\n
59.6165	0.15	119233	keystroke_c	c	n/a
60.021	0.18	120042	keystroke_o	o	n/a
60.081	0.18	120162	keystroke_n	n	n/a
60.3355	0.165	120671	keystroke_s	s	n/a
60.4255	0.105	120851	keystroke_o	o	n/a
60.6205	0.1655	121241	keystroke_l	l	n/a
61.22	0.1205	122440	keystroke_e	e	n/a
61.475	0.1505	122950	keystroke_s	s	n/a
61.9845	0.121	123969	keystroke_Key.space	Key.space	n/a
62.1205	0.105	124241	keystroke_f	f	n/a
62.6305	0.12	125261	keystroke_r	r	n/a
62.7655	0.1495	125531	keystroke_i	i	n/a
63.005	0.15	126010	keystroke_d	d	n/a
63.185	0.165	126370	keystroke_a	a	n/a
63.334	0.136	126668	keystroke_y	y	n/a
64.295	0.0745	128590	keystroke_Key.space	Key.space	n/a
64.4295	0.1345	128859	keystroke_s	s	n/a
64.5195	0.09	129039	keystroke_h	h	n/a
64.6535	0.195	129307	keystroke_o	o	n/a
64.7295	0.134	129459	keystroke_u	u	n/a
65.749	0.1505	131498	keystroke_l	l	n/a
65.854	0.18	131708	keystroke_d	d	n/a
67.2185	0.15	134437	keystroke_n	n	n/a
67.2785	0.21	134557	keystroke_'	'	n/a
67.4285	0.135	134857	keystroke_t	t	n/a
69.98	0.1325	139960	keystroke_'	'	n/a
70.008	0.1345	140016	keystroke_v	v	n/a
70.2625	0.135	140525	keystroke_e	e	n/a
71.012	0.1655	142024	keystroke_Key.space	Key.space	n/a
71.4625	0.075	142925	keystroke_t	t	n/a
71.6575	0.15	143315	keystroke_a	a	n/a
71.8225	0.12	143645	keystroke_y	y	n/a
72.392	0.105	144784	keystroke_l	l	n/a
72.6165	0.105	145233	keystroke_o	o	n/a
73.1565	0.15	146313	keystroke_r	r	n/a
80.462	0.132	160924	keystroke_Key.enter	Key.enter	n/a
80.599	7.3005	161198	prompt	n/a	fail sterling rick latino\n
81.6745	0.105	163349	keystroke_f	f	n/a
81.8095	0.15	163619	keystroke_a	a	n/a
81.9295	0.105	163859	keystroke_i	i	n/a
82.0795	0.2245	164159	keystroke_l	l	n/a
82.2585	0.18	164517	keystroke_Key.space	Key.space	n/a
83.009	0.12	166018	keystroke_s	s	n/a
83.219	0.12	166438	keystroke_t	t	n/a
83.4435	0.165	166887	keystroke_e	e	n/a
83.5485	0.165	167097	keystroke_r	r	n/a
84.2535	0.12	168507	keystroke_l	l	n/a
84.4335	0.165	168867	keystroke_i	i	n/a
84.5385	0.12	169077	keystroke_n	n	n/a
84.6435	0.105	169287	keystroke_g	g	n/a
84.838	0.1345	169676	keystroke_Key.space	Key.space	n/a
85.168	0.105	170336	keystroke_r	r	n/a
85.274	0.119	170548	keystroke_i	i	n/a
85.5875	0.15	171175	keystroke_c	c	n/a
85.8275	0.15	171655	keystroke_k	k	n/a
86.413	0.15	172826	keystroke_Key.space	Key.space	n/a
86.683	0.15	173366	keystroke_l	l	n/a
86.773	0.12	173546	keystroke_a	a	n/a
87.013	0.12	174026	keystroke_t	t	n/a
87.103	0.12	174206	keystroke_i	i	n/a
87.298	0.12	174596	keystroke_n	n	n/a
87.433	0.1345	174866	keystroke_o	o	n/a
87.7625	0.1345	175525	keystroke_Key.enter	Key.enter	n/a
87.9045	12.1705	175809	prompt	n/a	merry peninsula burning angle\n
88.8275	0.1345	177655	keystroke_m	m	n/a
88.917	0.1345	177834	keystroke_e	e	n/a
89.1115	0.09	178223	keystroke_r	r	n/a
89.3365	0.12	178673	keystroke_r	r	n/a
89.4415	0.18	178883	keystroke_y	y	n/a
89.5615	0.12	179123	keystroke_Key.space	Key.space	n/a
89.9515	0.1195	179903	keystroke_p	p	n/a
90.2215	0.12	180443	keystroke_i	i	n/a
91.196	0.1195	182392	keystroke_Key.backspace	Key.backspace	n/a
91.4515	0.135	182903	keystroke_e	e	n/a
91.976	0.09	183952	keystroke_n	n	n/a
92.366	0.12	184732	keystroke_i	i	n/a
92.7555	0.135	185511	keystroke_n	n	n/a
93.07	0.15	186140	keystroke_s	s	n/a
93.19	0.105	186380	keystroke_u	u	n/a
93.43	0.12	186860	keystroke_l	l	n/a
93.565	0.21	187130	keystroke_a	a	n/a
94.4495	0.151	188899	keystroke_Key.space	Key.space	n/a
94.7205	0.075	189441	keystroke_b	b	n/a
94.9305	0.135	189861	keystroke_u	u	n/a
95.2595	0.15	190519	keystroke_r	r	n/a
95.5595	0.105	191119	keystroke_i	i	n/a
96.4895	0.135	192979	keystroke_Key.backspace	Key.backspace	n/a
97.3435	0.135	194687	keystroke_n	n	n/a
97.4935	0.181	194987	keystroke_i	i	n/a
97.5985	0.165	195197	keystroke_n	n	n/a
97.7035	0.12	195407	keystroke_g	g	n/a
97.8985	0.15	195797	keystroke_Key.space	Key.space	n/a
98.1545	0.164	196309	keystroke_a	a	n/a
98.3035	0.12	196607	keystroke_n	n	n/a
98.4535	0.105	196907	keystroke_g	g	n/a
98.5735	0.135	197147	keystroke_l	l	n/a
98.6485	0.15	197297	keystroke_e	e	n/a
99.8785	0.195	199757	keystroke_Key.enter	Key.enter	n/a
100.078	10.599	200156	prompt	n/a	sphere perfect emerald roughly\n
101.0635	0.1495	202127	keystroke_s	s	n/a
101.348	0.15	202696	keystroke_p	p	n/a
101.633	0.135	203266	keystroke_h	h	n/a
101.798	0.165	203596	keystroke_e	e	n/a
102.2625	0.105	204525	keystroke_r	r	n/a
102.4125	0.1355	204825	keystroke_e	e	n/a
103.1175	0.15	206235	keystroke_Key.space	Key.space	n/a
103.403	0.15	206806	keystroke_p	p	n/a
103.493	0.165	206986	keystroke_e	e	n/a
103.583	0.164	207166	keystroke_r	r	n/a
103.927	0.105	207854	keystroke_f	f	n/a
104.137	0.045	208274	keystroke_e	e	n/a
104.243	0.134	208486	keystroke_c	c	n/a
104.4965	0.1355	208993	keystroke_t	t	n/a
105.307	0.135	210614	keystroke_Key.space	Key.space	n/a
105.502	0.135	211004	keystroke_e	e	n/a
105.7565	0.135	211513	keystroke_m	m	n/a
105.877	0.1195	211754	keystroke_e	e	n/a
106.0865	0.12	212173	keystroke_r	r	n/a
106.2815	0.15	212563	keystroke_a	a	n/a
106.4765	0.165	212953	keystroke_l	l	n/a
107.0015	0.12	214003	keystroke_d	d	n/a
107.421	0.165	214842	keystroke_Key.space	Key.space	n/a
108.321	0.12	216642	keystroke_r	r	n/a
108.426	0.225	216852	keystroke_o	o	n/a
108.501	0.165	217002	keystroke_u	u	n/a
108.711	0.135	217422	keystroke_g	g	n/a
108.831	0.135	217662	keystroke_h	h	n/a
109.1905	0.15	218381	keystroke_l	l	n/a
109.5055	0.15	219011	keystroke_y	y	n/a
110.51	0.1655	221020	keystroke_Key.enter	Key.enter	n/a
110.6805	10.1035	221361	prompt	n/a	defining chairs above bite\n
111.395	0.09	222790	keystroke_d	d	n/a
111.5905	0.12	223181	keystroke_e	e	n/a
112.445	0.165	224890	keystroke_f	f	n/a
112.879	0.135	225758	keystroke_i	i	n/a
113.164	0.12	226328	keystroke_n	n	n/a
113.374	0.136	226748	keystroke_i	i	n/a
114.469	0.12	228938	keystroke_n	n	n/a
114.604	0.135	229208	keystroke_g	g	n/a
115.3385	0.15	230677	keystroke_Key.space	Key.space	n/a
115.6085	0.135	231217	keystroke_c	c	n/a
115.7285	0.165	231457	keystroke_h	h	n/a
115.8785	0.09	231757	keystroke_a	a	n/a
116.058	0.1505	232116	keystroke_i	i	n/a
116.1335	0.12	232267	keystroke_r	r	n/a
116.4785	0.15	232957	keystroke_s	s	n/a
117.138	0.165	234276	keystroke_Key.space	Key.space	n/a
117.438	0.1505	234876	keystroke_a	a	n/a
117.5885	0.135	235177	keystroke_b	b	n/a
117.828	0.165	235656	keystroke_o	o	n/a
117.978	0.105	235956	keystroke_v	v	n/a
118.143	0.165	236286	keystroke_e	e	n/a
118.9525	0.15	237905	keystroke_Key.space	Key.space	n/a
119.3125	0.12	238625	keystroke_b	b	n/a
119.4925	0.165	238985	keystroke_i	i	n/a
119.5975	0.09	239195	keystroke_t	t	n/a
119.777	0.12	239554	keystroke_e	e	n/a
120.6025	0.18	241205	keystroke_Key.enter	Key.enter	n/a
120.7865	11.424	241573	prompt	n/a	robertson championship motivation increased\n
121.8615	0.105	243723	keystroke_r	r	n/a
121.9815	0.135	243963	keystroke_o	o	n/a
122.1915	0.12	244383	keystroke_b	b	n/a
122.2515	0.18	244503	keystroke_e	e	n/a
122.3415	0.18	244683	keystroke_r	r	n/a
122.987	0.09	245974	keystroke_t	t	n/a
123.242	0.135	246484	keystroke_s	s	n/a
123.392	0.135	246784	keystroke_o	o	n/a
123.452	0.15	246904	keystroke_n	n	n/a
124.1715	0.15	248343	keystroke_Key.space	Key.space	n/a
124.3665	0.15	248733	keystroke_c	c	n/a
124.4715	0.105	248943	keystroke_h	h	n/a
124.5915	0.135	249183	keystroke_a	a	n/a
124.6965	0.105	249393	keystroke_m	m	n/a
124.9065	0.135	249813	keystroke_p	p	n/a
125.176	0.165	250352	keystroke_i	i	n/a
125.521	0.18	251042	keystroke_o	o	n/a
125.626	0.165	251252	keystroke_n	n	n/a
125.9405	0.15	251881	keystroke_s	s	n/a
126.0305	0.105	252061	keystroke_h	h	n/a
126.1055	0.195	252211	keystroke_i	i	n/a
126.2855	0.18	252571	keystroke_p	p	n/a
126.975	0.1505	253950	keystroke_Key.space	Key.space	n/a
127.3505	0.09	254701	keystroke_m	m	n/a
127.5305	0.135	255061	keystroke_o	o	n/a
127.6505	0.12	255301	keystroke_t	t	n/a
127.7555	0.15	255511	keystroke_i	i	n/a
127.9205	0.105	255841	keystroke_v	v	n/a
128.1155	0.15	256231	keystroke_a	a	n/a
128.3405	0.1495	256681	keystroke_t	t	n/a
128.445	0.195	256890	keystroke_i	i	n/a
128.535	0.21	257070	keystroke_o	o	n/a
128.61	0.18	257220	keystroke_n	n	n/a
129.045	0.1505	258090	keystroke_Key.space	Key.space	n/a
129.3895	0.166	258779	keystroke_i	i	n/a
129.4955	0.15	258991	keystroke_n	n	n/a
129.7055	0.119	259411	keystroke_c	c	n/a
129.96	0.1795	259920	keystroke_r	r	n/a
130.08	0.149	260160	keystroke_e	e	n/a
130.29	0.165	260580	keystroke_a	a	n/a
130.41	0.179	260820	keystroke_s	s	n/a
130.5	0.135	261000	keystroke_e	e	n/a
130.755	0.1645	261510	keystroke_d	d	n/a
132.0285	0.181	264057	keystroke_Key.enter	Key.enter	n/a
132.2135	10.719	264427	prompt	n/a	undertake jackson checkout uncertainty\n
133.0485	0.12	266097	keystroke_u	u	n/a
133.3185	0.12	266637	keystroke_n	n	n/a
133.4845	0.074	266969	keystroke_d	d	n/a
133.6635	0.15	267327	keystroke_e	e	n/a
133.7385	0.15	267477	keystroke_r	r	n/a
133.9935	0.105	267987	keystroke_t	t	n/a
134.1735	0.12	268347	keystroke_a	a	n/a
134.2945	0.1785	268589	keystroke_k	k	n/a
134.428	0.09	268856	keystroke_e	e	n/a
134.834	0.165	269668	keystroke_Key.space	Key.space	n/a
135.493	0.15	270986	keystroke_j	j	n/a
135.583	0.195	271166	keystroke_a	a	n/a
135.733	0.165	271466	keystroke_c	c	n/a
135.913	0.165	271826	keystroke_k	k	n/a
136.348	0.15	272696	keystroke_s	s	n/a
136.468	0.1955	272936	keystroke_o	o	n/a
136.558	0.1645	273116	keystroke_n	n	n/a
137.0975	0.165	274195	keystroke_Key.space	Key.space	n/a
137.368	0.15	274736	keystroke_c	c	n/a
137.503	0.105	275006	keystroke_h	h	n/a
137.592	0.135	275184	keystroke_e	e	n/a
137.923	0.134	275846	keystroke_c	c	n/a
138.132	0.166	276264	keystroke_k	k	n/a
138.643	0.149	277286	keystroke_o	o	n/a
138.688	0.1795	277376	keystroke_u	u	n/a
138.763	0.1495	277526	keystroke_t	t	n/a
139.1075	0.135	278215	keystroke_Key.space	Key.space	n/a
139.4075	0.12	278815	keystroke_u	u	n/a
139.6325	0.12	279265	keystroke_n	n	n/a
140.232	0.135	280464	keystroke_c	c	n/a
140.457	0.135	280914	keystroke_e	e	n/a
140.547	0.18	281094	keystroke_r	r	n/a
140.832	0.1045	281664	keystroke_t	t	n/a
141.0865	0.135	282173	keystroke_a	a	n/a
141.2815	0.165	282563	keystroke_i	i	n/a
141.3865	0.165	282773	keystroke_n	n	n/a
142.0315	0.1795	284063	keystroke_t	t	n/a
142.331	0.15	284662	keystroke_y	y	n/a
142.751	0.1805	285502	keystroke_Key.enter	Key.enter	n/a
142.936	10.1045	285872	prompt	n/a	modified assignments makers newest\n
143.846	0.0605	287692	keystroke_m	m	n/a
143.9965	0.135	287993	keystroke_o	o	n/a
144.0715	0.1345	288143	keystroke_d	d	n/a
144.206	0.15	288412	keystroke_i	i	n/a
144.356	0.1505	288712	keystroke_f	f	n/a
144.5215	0.1495	289043	keystroke_i	i	n/a
144.626	0.12	289252	keystroke_e	e	n/a
144.821	0.15	289642	keystroke_d	d	n/a
145.106	0.165	290212	keystroke_Key.space	Key.space	n/a
145.391	0.119	290782	keystroke_a	a	n/a
145.646	0.104	291292	keystroke_s	s	n/a
145.856	0.12	291712	keystroke_s	s	n/a
145.976	0.1495	291952	keystroke_i	i	n/a
146.1105	0.09	292221	keystroke_g	g	n/a
146.2155	0.105	292431	keystroke_n	n	n/a
146.3215	0.119	292643	keystroke_e	e	n/a
146.62	0.15	293240	keystroke_m	m	n/a
147.16	0.105	294320	keystroke_Key.backspace	Key.backspace	n/a
147.355	0.105	294710	keystroke_Key.backspace	Key.backspace	n/a
148.12	0.12	296240	keystroke_m	m	n/a
148.225	0.12	296450	keystroke_e	e	n/a
148.33	0.135	296660	keystroke_n	n	n/a
148.4495	0.105	296899	keystroke_t	t	n/a
148.6595	0.15	297319	keystroke_s	s	n/a
149.17	0.105	298340	keystroke_Key.space	Key.space	n/a
149.4545	0.105	298909	keystroke_m	m	n/a
149.5295	0.165	299059	keystroke_a	a	n/a
149.6795	0.1205	299359	keystroke_k	k	n/a
149.7545	0.1205	299509	keystroke_e	e	n/a
149.83	0.12	299660	keystroke_r	r	n/a
150.025	0.15	300050	keystroke_s	s	n/a
150.2045	0.1505	300409	keystroke_Key.space	Key.space	n/a
150.58	0.165	301160	keystroke_n	n	n/a
150.7	0.1945	301400	keystroke_e	e	n/a
150.805	0.1645	301610	keystroke_w	w	n/a
151.3295	0.1205	302659	keystroke_e	e	n/a
151.509	0.225	303018	keystroke_s	s	n/a
151.63	0.1495	303260	keystroke_t	t	n/a
152.829	0.2105	305658	keystroke_Key.enter	Key.enter	n/a
153.043	6.821	306086	prompt	n/a	special collar sizes plates\n
154.3735	0.105	308747	keystroke_s	s	n/a
154.4635	0.1505	308927	keystroke_p	p	n/a
154.5385	0.1055	309077	keystroke_e	e	n/a
154.719	0.135	309438	keystroke_c	c	n/a
154.868	0.121	309736	keystroke_i	i	n/a
154.974	0.135	309948	keystroke_a	a	n/a
155.079	0.1495	310158	keystroke_l	l	n/a
155.8585	0.164	311717	keystroke_Key.space	Key.space	n/a
156.0835	0.15	312167	keystroke_c	c	n/a
156.1885	0.105	312377	keystroke_o	o	n/a
156.3985	0.06	312797	keystroke_l	l	n/a
156.5335	0.1495	313067	keystroke_l	l	n/a
156.638	0.1505	313276	keystroke_a	a	n/a
156.698	0.165	313396	keystroke_r	r	n/a
156.878	0.1345	313756	keystroke_Key.space	Key.space	n/a
157.0135	0.134	314027	keystroke_s	s	n/a
157.1335	0.12	314267	keystroke_i	i	n/a
157.2985	0.179	314597	keystroke_z	z	n/a
157.3885	0.15	314777	keystroke_e	e	n/a
158.1225	0.12	316245	keystroke_s	s	n/a
158.3625	0.135	316725	keystroke_Key.space	Key.space	n/a
158.5885	0.12	317177	keystroke_p	p	n/a
158.8125	0.135	317625	keystroke_l	l	n/a
158.8875	0.165	317775	keystroke_a	a	n/a
159.0375	0.12	318075	keystroke_t	t	n/a
159.1575	0.12	318315	keystroke_e	e	n/a
159.3975	0.135	318795	keystroke_s	s	n/a
159.6825	0.18	319365	keystroke_Key.enter	Key.enter	n/a
159.8675	6.055	319735	prompt	n/a	combine cart chad some\n
160.642	0.151	321284	keystroke_c	c	n/a
160.762	0.105	321524	keystroke_o	o	n/a
160.957	0.105	321914	keystroke_m	m	n/a
161.197	0.105	322394	keystroke_b	b	n/a
161.362	0.2095	322724	keystroke_i	i	n/a
161.467	0.1495	322934	keystroke_n	n	n/a
161.5865	0.15	323173	keystroke_e	e	n/a
161.812	0.15	323624	keystroke_Key.space	Key.space	n/a
162.022	0.12	324044	keystroke_c	c	n/a
162.172	0.18	324344	keystroke_a	a	n/a
162.277	0.165	324554	keystroke_r	r	n/a
162.5465	0.12	325093	keystroke_t	t	n/a
163.2065	0.15	326413	keystroke_Key.space	Key.space	n/a
163.4765	0.15	326953	keystroke_c	c	n/a
163.6115	0.12	327223	keystroke_h	h	n/a
163.7165	0.1945	327433	keystroke_a	a	n/a
164.3765	0.15	328753	keystroke_d	d	n/a
164.7665	0.1345	329533	keystroke_Key.space	Key.space	n/a
164.901	0.135	329802	keystroke_s	s	n/a
164.976	0.12	329952	keystroke_o	o	n/a
165.171	0.12	330342	keystroke_m	m	n/a
165.246	0.15	330492	keystroke_e	e	n/a
165.7405	0.18	331481	keystroke_Key.enter	Key.enter	n/a
165.9255	7.7055	331851	prompt	n/a	stamp boost salmon catering\n
166.701	0.06	333402	keystroke_s	s	n/a
166.8365	0.104	333673	keystroke_t	t	n/a
166.9855	0.151	333971	keystroke_a	a	n/a
167.1205	0.09	334241	keystroke_m	m	n/a
167.301	0.149	334602	keystroke_p	p	n/a
167.766	0.1345	335532	keystroke_Key.space	Key.space	n/a
168.201	0.105	336402	keystroke_b	b	n/a
168.6355	0.075	337271	keystroke_o	o	n/a
168.7855	0.15	337571	keystroke_o	o	n/a
168.8905	0.24	337781	keystroke_s	s	n/a
169.0105	0.15	338021	keystroke_t	t	n/a
169.535	0.105	339070	keystroke_Key.space	Key.space	n/a
169.73	0.105	339460	keystroke_s	s	n/a
169.97	0.15	339940	keystroke_a	a	n/a
170.135	0.165	340270	keystroke_l	l	n/a
170.855	0.1045	341710	keystroke_m	m	n/a
171.1395	0.18	342279	keystroke_o	o	n/a
171.2145	0.165	342429	keystroke_n	n	n/a
171.7845	0.12	343569	keystroke_Key.space	Key.space	n/a
172.0245	0.15	344049	keystroke_c	c	n/a
172.2195	0.135	344439	keystroke_a	a	n/a
172.399	0.09	344798	keystroke_t	t	n/a
172.564	0.12	345128	keystroke_e	e	n/a
172.639	0.1355	345278	keystroke_r	r	n/a
172.9695	0.15	345939	keystroke_i	i	n/a
173.0445	0.135	346089	keystroke_n	n	n/a
173.1645	0.09	346329	keystroke_g	g	n/a
173.4645	0.165	346929	keystroke_Key.enter	Key.enter	n/a
173.6345	8.3795	347269	prompt	n/a	measures compute genesis guess\n
174.544	0.15	349088	keystroke_m	m	n/a
174.604	0.105	349208	keystroke_e	e	n/a
174.7695	0.165	349539	keystroke_a	a	n/a
175.1745	0.1195	350349	keystroke_s	s	n/a
175.354	0.1345	350708	keystroke_u	u	n/a
175.4135	0.165	350827	keystroke_r	r	n/a
175.5335	0.09	351067	keystroke_e	e	n/a
175.7285	0.135	351457	keystroke_s	s	n/a
175.9385	0.165	351877	keystroke_Key.space	Key.space	n/a
176.1935	0.15	352387	keystroke_c	c	n/a
176.3135	0.1045	352627	keystroke_o	o	n/a
176.584	0.119	353168	keystroke_m	m	n/a
176.8535	0.1355	353707	keystroke_p	p	n/a
177.079	0.15	354158	keystroke_u	u	n/a
177.199	0.06	354398	keystroke_t	t	n/a
177.334	0.18	354668	keystroke_e	e	n/a
178.3385	0.165	356677	keystroke_Key.space	Key.space	n/a
178.7585	0.075	357517	keystroke_g	g	n/a
178.9085	0.12	357817	keystroke_e	e	n/a
179.0135	0.135	358027	keystroke_n	n	n/a
179.1335	0.12	358267	keystroke_e	e	n/a
179.4935	0.135	358987	keystroke_s	s	n/a
179.5835	0.15	359167	keystroke_i	i	n/a
179.6885	0.15	359377	keystroke_s	s	n/a
180.0035	0.135	360007	keystroke_Key.space	Key.space	n/a
180.258	0.1045	360516	keystroke_g	g	n/a
180.3775	0.136	360755	keystroke_u	u	n/a
180.4525	0.105	360905	keystroke_e	e	n/a
180.6485	0.1195	361297	keystroke_s	s	n/a
180.858	0.135	361716	keystroke_s	s	n/a
181.9075	0.105	363815	keystroke_Key.enter	Key.enter	n/a
182.017	12.31	364034	prompt	n/a	carbon findlaw fans attitudes\n
182.7325	0.15	365465	keystroke_c	c	n/a
182.8675	0.18	365735	keystroke_a	a	n/a
183.0175	0.15	366035	keystroke_r	r	n/a
183.1975	0.12	366395	keystroke_b	b	n/a
183.3325	0.2095	366665	keystroke_o	o	n/a
183.422	0.165	366844	keystroke_n	n	n/a
183.602	0.165	367204	keystroke_Key.space	Key.space	n/a
183.827	0.15	367654	keystroke_f	f	n/a
183.978	0.149	367956	keystroke_i	i	n/a
184.772	0.135	369544	keystroke_n	n	n/a
184.9225	0.1345	369845	keystroke_d	d	n/a
185.5825	0.1795	371165	keystroke_l	l	n/a
185.867	0.135	371734	keystroke_a	a	n/a
186.092	0.165	372184	keystroke_w	w	n/a
186.8715	0.135	373743	keystroke_Key.space	Key.space	n/a
187.0965	0.105	374193	keystroke_f	f	n/a
187.2165	0.135	374433	keystroke_a	a	n/a
187.3365	0.12	374673	keystroke_n	n	n/a
187.4565	0.135	374913	keystroke_s	s	n/a
187.8315	0.15	375663	keystroke_Key.space	Key.space	n/a
192.2425	0.073	384485	keystroke_a	a	n/a
192.3455	0.0905	384691	keystroke_t	t	n/a
192.541	0.105	385082	keystroke_t	t	n/a
192.856	0.15	385712	keystroke_i	i	n/a
193.201	0.09	386402	keystroke_t	t	n/a
193.306	0.12	386612	keystroke_u	u	n/a
193.486	0.105	386972	keystroke_d	d	n/a
193.666	0.12	387332	keystroke_e	e	n/a
193.876	0.1345	387752	keystroke_s	s	n/a
194.1455	0.1805	388291	keystroke_Key.enter	Key.enter	n/a
194.3325	12.502	388665	prompt	n/a	mortality referral lynn otherwise\n
195.2255	0.09	390451	keystroke_m	m	n/a
195.406	0.135	390812	keystroke_o	o	n/a
195.451	0.12	390902	keystroke_r	r	n/a
195.721	0.0895	391442	keystroke_t	t	n/a
195.9155	0.15	391831	keystroke_a	a	n/a
196.0505	0.135	392101	keystroke_l	l	n/a
196.2605	0.135	392521	keystroke_i	i	n/a
196.3805	0.12	392761	keystroke_t	t	n/a
196.5155	0.15	393031	keystroke_y	y	n/a
196.6945	0.135	393389	keystroke_Key.space	Key.space	n/a
196.9355	0.12	393871	keystroke_r	r	n/a
197.0105	0.165	394021	keystroke_e	e	n/a
197.5345	0.091	395069	keystroke_f	f	n/a
197.7745	0.1355	395549	keystroke_e	e	n/a
198.015	0.12	396030	keystroke_r	r	n/a
198.405	0.135	396810	keystroke_r	r	n/a
198.72	0.1655	397440	keystroke_a	a	n/a
198.9145	0.15	397829	keystroke_l	l	n/a
199.3045	0.15	398609	keystroke_Key.space	Key.space	n/a
199.6195	0.12	399239	keystroke_l	l	n/a
199.8745	0.12	399749	keystroke_y	y	n/a
200.1445	0.06	400289	keystroke_n	n	n/a
200.3095	0.1055	400619	keystroke_n	n	n/a
200.669	0.1505	401338	keystroke_Key.space	Key.space	n/a
200.8645	0.12	401729	keystroke_o	o	n/a
200.9995	0.075	401999	keystroke_t	t	n/a
201.1045	0.105	402209	keystroke_h	h	n/a
201.1795	0.18	402359	keystroke_e	e	n/a
201.2695	0.12	402539	keystroke_r	r	n/a
201.4045	0.045	402809	keystroke_Key.space	Key.space	n/a
201.8995	0.03	403799	keystroke_Key.backspace	Key.backspace	n/a
202.139	0.12	404278	keystroke_i	i	n/a
202.244	0.1655	404488	keystroke_s	s	n/a
202.319	0.1805	404638	keystroke_e	e	n/a
203.3245	0.1045	406649	keystroke_Key.backspace	Key.backspace	n/a
203.519	0.09	407038	keystroke_Key.backspace	Key.backspace	n/a
203.684	0.15	407368	keystroke_Key.backspace	Key.backspace	n/a
204.374	0.1795	408748	keystroke_s	s	n/a
204.929	0.12	409858	keystroke_Key.backspace	Key.backspace	n/a
205.064	0.135	410128	keystroke_w	w	n/a
205.214	0.1345	410428	keystroke_i	i	n/a
205.304	0.239	410608	keystroke_s	s	n/a
205.408	0.1955	410816	keystroke_e	e	n/a
206.6385	0.195	413277	keystroke_Key.enter	Key.enter	n/a
206.838	9.565	413676	prompt	n/a	gave thesis alexandria pediatric\n
207.688	0.105	415376	keystroke_g	g	n/a
207.853	0.135	415706	keystroke_a	a	n/a
207.988	0.105	415976	keystroke_v	v	n/a
208.153	0.135	416306	keystroke_e	e	n/a
208.318	0.135	416636	keystroke_Key.space	Key.space	n/a
208.423	0.075	416846	keystroke_t	t	n/a
208.543	0.12	417086	keystroke_h	h	n/a
208.633	0.105	417266	keystroke_e	e	n/a
208.9325	0.135	417865	keystroke_s	s	n/a
209.0525	0.18	418105	keystroke_i	i	n/a
209.1725	0.121	418345	keystroke_s	s	n/a
209.4875	0.12	418975	keystroke_Key.space	Key.space	n/a
209.8325	0.135	419665	keystroke_a	a	n/a
209.9825	0.15	419965	keystroke_l	l	n/a
210.0725	0.12	420145	keystroke_e	e	n/a
210.8225	0.15	421645	keystroke_x	x	n/a
211.1525	0.18	422305	keystroke_a	a	n/a
211.3475	0.1195	422695	keystroke_n	n	n/a
211.452	0.12	422904	keystroke_d	d	n/a
211.7815	0.15	423563	keystroke_r	r	n/a
211.9465	0.12	423893	keystroke_i	i	n/a
212.0215	0.1505	424043	keystroke_a	a	n/a
212.292	0.135	424584	keystroke_Key.space	Key.space	n/a
212.5165	0.166	425033	keystroke_p	p	n/a
212.667	0.1505	425334	keystroke_e	e	n/a
213.6415	0.15	427283	keystroke_d	d	n/a
213.9265	0.105	427853	keystroke_i	i	n/a
214.1965	0.1505	428393	keystroke_a	a	n/a
214.497	0.075	428994	keystroke_t	t	n/a
214.692	0.09	429384	keystroke_r	r	n/a
215.457	0.135	430914	keystroke_i	i	n/a
215.562	0.1345	431124	keystroke_c	c	n/a
216.2365	0.165	432473	keystroke_Key.enter	Key.enter	n/a
216.406	9.431	432812	prompt	n/a	escape feeling displayed channels\n
217.287	0.105	434574	keystroke_e	e	n/a
217.466	0.136	434932	keystroke_s	s	n/a
217.737	0.12	435474	keystroke_p	p	n/a
218.156	0.106	436312	keystroke_Key.backspace	Key.backspace	n/a
218.277	0.149	436554	keystroke_c	c	n/a
218.381	0.165	436762	keystroke_a	a	n/a
218.516	0.1505	437032	keystroke_p	p	n/a
218.651	0.1205	437302	keystroke_e	e	n/a
219.3265	0.15	438653	keystroke_Key.space	Key.space	n/a
219.5515	0.135	439103	keystroke_f	f	n/a
219.866	0.105	439732	keystroke_e	e	n/a
220.091	0.135	440182	keystroke_e	e	n/a
220.271	0.135	440542	keystroke_l	l	n/a
220.4815	0.15	440963	keystroke_i	i	n/a
220.5865	0.12	441173	keystroke_n	n	n/a
220.6915	0.12	441383	keystroke_g	g	n/a
220.8415	0.1495	441683	keystroke_Key.space	Key.space	n/a
221.141	0.12	442282	keystroke_d	d	n/a
221.261	0.135	442522	keystroke_i	i	n/a
221.351	0.15	442702	keystroke_s	s	n/a
221.576	0.12	443152	keystroke_p	p	n/a
221.7855	0.12	443571	keystroke_l	l	n/a
222.1155	0.195	444231	keystroke_y	y	n/a
222.851	0.045	445702	keystroke_Key.backspace	Key.backspace	n/a
222.911	0.135	445822	keystroke_a	a	n/a
223.016	0.1495	446032	keystroke_y	y	n/a
223.1805	0.09	446361	keystroke_e	e	n/a
223.3455	0.135	446691	keystroke_d	d	n/a
223.7205	0.15	447441	keystroke_Key.space	Key.space	n/a
223.975	0.165	447950	keystroke_c	c	n/a
224.095	0.105	448190	keystroke_h	h	n/a
224.185	0.15	448370	keystroke_a	a	n/a
224.38	0.03	448760	keystroke_n	n	n/a
224.515	0.12	449030	keystroke_n	n	n/a
224.6655	0.135	449331	keystroke_e	e	n/a
224.8155	0.135	449631	keystroke_l	l	n/a
225.0555	0.1495	450111	keystroke_s	s	n/a
225.67	0.165	451340	keystroke_Key.enter	Key.enter	n/a
225.84	6.6405	451680	prompt	n/a	locale lance cycle danish\n
226.54	0.09	453080	keystroke_l	l	n/a
226.7505	0.09	453501	keystroke_o	o	n/a
226.8105	0.15	453621	keystroke_c	c	n/a
226.9305	0.195	453861	keystroke_a	a	n/a
227.1405	0.12	454281	keystroke_l	l	n/a
227.2155	0.135	454431	keystroke_e	e	n/a
227.845	0.12	455690	keystroke_Key.space	Key.space	n/a
228.115	0.135	456230	keystroke_l	l	n/a
228.235	0.135	456470	keystroke_a	a	n/a
228.34	0.15	456680	keystroke_n	n	n/a
228.43	0.24	456860	keystroke_c	c	n/a
228.565	0.15	457130	keystroke_e	e	n/a
228.805	0.12	457610	keystroke_Key.space	Key.space	n/a
228.955	0.165	457910	keystroke_c	c	n/a
229.105	0.105	458210	keystroke_y	y	n/a
229.225	0.1355	458450	keystroke_c	c	n/a
229.3455	0.149	458691	keystroke_l	l	n/a
229.4205	0.1495	458841	keystroke_e	e	n/a
230.125	0.1345	460250	keystroke_Key.space	Key.space	n/a
230.47	0.15	460940	keystroke_d	d	n/a
230.7095	0.165	461419	keystroke_a	a	n/a
231.1895	0.12	462379	keystroke_n	n	n/a
231.3695	0.12	462739	keystroke_i	i	n/a
231.474	0.165	462948	keystroke_s	s	n/a
231.579	0.135	463158	keystroke_h	h	n/a
232.2985	0.18	464597	keystroke_Key.enter	Key.enter	n/a
232.4835	10.706	464967	prompt	n/a	alone conversion louisville barrier\n
233.3935	0.18	466787	keystroke_a	a	n/a
233.5595	0.074	467119	keystroke_l	l	n/a
233.754	0.135	467508	keystroke_o	o	n/a
233.829	0.165	467658	keystroke_n	n	n/a
233.919	0.135	467838	keystroke_e	e	n/a
234.099	0.135	468198	keystroke_Key.space	Key.space	n/a
234.399	0.135	468798	keystroke_o	o	n/a
234.489	0.09	468978	keystroke_v	v	n/a
234.669	0.12	469338	keystroke_e	e	n/a
234.744	0.135	469488	keystroke_r	r	n/a
234.984	0.135	469968	keystroke_s	s	n/a
235.089	0.165	470178	keystroke_i	i	n/a
235.179	0.18	470358	keystroke_o	o	n/a
235.269	0.15	470538	keystroke_n	n	n/a
235.374	0.15	470748	keystroke_Key.space	Key.space	n/a
235.704	0.121	471408	keystroke_l	l	n/a
236.469	0.224	472938	keystroke_o	o	n/a
236.634	0.21	473268	keystroke_u	u	n/a
237.459	0.1195	474918	keystroke_s	s	n/a
237.9985	0.12	475997	keystroke_Key.backspace	Key.backspace	n/a
238.3435	0.135	476687	keystroke_i	i	n/a
238.4635	0.135	476927	keystroke_s	s	n/a
239.483	0.135	478966	keystroke_v	v	n/a
239.723	0.1205	479446	keystroke_i	i	n/a
240.204	0.0445	480408	keystroke_l	l	n/a
240.339	0.1345	480678	keystroke_l	l	n/a
240.4585	0.12	480917	keystroke_e	e	n/a
241.088	0.1355	482176	keystroke_Key.space	Key.space	n/a
241.3585	0.105	482717	keystroke_b	b	n/a
241.4785	0.135	482957	keystroke_a	a	n/a
241.6735	0.105	483347	keystroke_r	r	n/a
241.8835	0.105	483767	keystroke_r	r	n/a
242.0335	0.15	484067	keystroke_i	i	n/a
242.1235	0.135	484247	keystroke_e	e	n/a
242.2285	0.135	484457	keystroke_r	r	n/a
243.008	0.18	486016	keystroke_Key.enter	Key.enter	n/a
243.1925	14.9965	486385	prompt	n/a	graphical angola subscription aspects\n
244.553	0.15	489106	keystroke_p	p	n/a
245.438	0.135	490876	keystroke_Key.backspace	Key.backspace	n/a
246.3075	0.075	492615	keystroke_g	g	n/a
246.4875	0.105	492975	keystroke_r	r	n/a
246.652	0.151	493304	keystroke_a	a	n/a
246.787	0.135	493574	keystroke_p	p	n/a
247.012	0.1055	494024	keystroke_h	h	n/a
247.1325	0.165	494265	keystroke_i	i	n/a
247.2525	0.135	494505	keystroke_c	c	n/a
247.3875	0.165	494775	keystroke_a	a	n/a
247.5675	0.165	495135	keystroke_l	l	n/a
247.8975	0.135	495795	keystroke_Key.space	Key.space	n/a
248.1525	0.15	496305	keystroke_a	a	n/a
248.377	0.105	496754	keystroke_n	n	n/a
248.572	0.134	497144	keystroke_g	g	n/a
249.1105	0.1345	498221	keystroke_o	o	n/a
249.365	0.135	498730	keystroke_l	l	n/a
249.545	0.165	499090	keystroke_a	a	n/a
250.624	0.1345	501248	keystroke_Key.space	Key.space	n/a
250.8035	0.15	501607	keystroke_s	s	n/a
250.9685	0.0895	501937	keystroke_u	u	n/a
251.193	0.105	502386	keystroke_b	b	n/a
251.283	0.1195	502566	keystroke_s	s	n/a
251.5075	0.105	503015	keystroke_t	t	n/a
252.1815	0.15	504363	keystroke_Key.backspace	Key.backspace	n/a
252.3465	0.135	504693	keystroke_c	c	n/a
252.676	0.1495	505352	keystroke_r	r	n/a
252.8855	0.165	505771	keystroke_i	i	n/a
253.0355	0.1495	506071	keystroke_p	p	n/a
253.14	0.15	506280	keystroke_t	t	n/a
253.305	0.1195	506610	keystroke_i	i	n/a
253.38	0.1795	506760	keystroke_o	o	n/a
253.4695	0.165	506939	keystroke_n	n	n/a
253.9935	0.1345	507987	keystroke_Key.space	Key.space	n/a
254.5025	0.1355	509005	keystroke_a	a	n/a
254.6075	0.18	509215	keystroke_s	s	n/a
254.9225	0.15	509845	keystroke_p	p	n/a
255.1015	0.135	510203	keystroke_e	e	n/a
256.2105	0.1195	512421	keystroke_c	c	n/a
256.5095	0.09	513019	keystroke_t	t	n/a
256.7045	0.135	513409	keystroke_s	s	n/a
257.9925	0.1945	515985	keystroke_Key.enter	Key.enter	n/a
258.194	9.8305	516388	prompt	n/a	axis membrane criminal harris\n
259.2815	0.15	518563	keystroke_a	a	n/a
259.566	0.12	519132	keystroke_x	x	n/a
259.716	0.1345	519432	keystroke_i	i	n/a
259.791	0.1345	519582	keystroke_s	s	n/a
260.5995	0.1205	521199	keystroke_Key.space	Key.space	n/a
260.81	0.135	521620	keystroke_m	m	n/a
260.855	0.1495	521710	keystroke_e	e	n/a
261.0345	0.165	522069	keystroke_m	m	n/a
261.799	0.045	523598	keystroke_b	b	n/a
262.189	0.119	524378	keystroke_r	r	n/a
262.339	0.164	524678	keystroke_a	a	n/a
262.8335	0.1345	525667	keystroke_n	n	n/a
262.938	0.1945	525876	keystroke_c	c	n/a
263.0575	0.165	526115	keystroke_e	e	n/a
263.613	0.1495	527226	keystroke_Key.space	Key.space	n/a
263.8225	0.15	527645	keystroke_c	c	n/a
264.093	0.12	528186	keystroke_r	r	n/a
264.153	0.1205	528306	keystroke_i	i	n/a
264.4085	0.0895	528817	keystroke_m	m	n/a
264.603	0.089	529206	keystroke_i	i	n/a
264.7985	0.12	529597	keystroke_n	n	n/a
264.9185	0.1495	529837	keystroke_a	a	n/a
264.993	0.15	529986	keystroke_l	l	n/a
265.217	0.181	530434	keystroke_Key.space	Key.space	n/a
265.5625	0.135	531125	keystroke_a	a	n/a
265.7125	0.135	531425	keystroke_h	h	n/a
266.0725	0.0745	532145	keystroke_Key.backspace	Key.backspace	n/a
266.238	0.1045	532476	keystroke_Key.backspace	Key.backspace	n/a
266.4775	0.105	532955	keystroke_h	h	n/a
266.5675	0.135	533135	keystroke_a	a	n/a
266.7925	0.105	533585	keystroke_r	r	n/a
266.9875	0.12	533975	keystroke_r	r	n/a
267.1225	0.1345	534245	keystroke_i	i	n/a
267.212	0.166	534424	keystroke_s	s	n/a
267.843	0.18	535686	keystroke_Key.enter	Key.enter	n/a
268.027	9.4025	536054	prompt	n/a	hosting detailed lucy chances\n
268.863	0.1055	537726	keystroke_h	h	n/a
269.8075	0.1505	539615	keystroke_o	o	n/a
269.898	0.15	539796	keystroke_s	s	n/a
270.1235	0.1345	540247	keystroke_t	t	n/a
270.2285	0.135	540457	keystroke_i	i	n/a
270.303	0.1345	540606	keystroke_n	n	n/a
270.4235	0.104	540847	keystroke_g	g	n/a
270.6025	0.1495	541205	keystroke_Key.space	Key.space	n/a
270.8585	0.135	541717	keystroke_d	d	n/a
271.0525	0.1505	542105	keystroke_e	e	n/a
271.3075	0.1355	542615	keystroke_t	t	n/a
271.503	0.1495	543006	keystroke_a	a	n/a
271.6535	0.119	543307	keystroke_i	i	n/a
271.8475	0.1505	543695	keystroke_l	l	n/a
271.953	0.12	543906	keystroke_e	e	n/a
272.1475	0.135	544295	keystroke_d	d	n/a
272.7625	0.1055	545525	keystroke_Key.space	Key.space	n/a
272.973	0.135	545946	keystroke_l	l	n/a
273.2875	0.165	546575	keystroke_c	c	n/a
273.4075	0.135	546815	keystroke_y	y	n/a
273.9635	0.015	547927	keystroke_Key.backspace	Key.backspace	n/a
274.053	0.09	548106	keystroke_Key.backspace	Key.backspace	n/a
274.2335	0.134	548467	keystroke_u	u	n/a
274.323	0.1645	548646	keystroke_c	c	n/a
274.4435	0.119	548887	keystroke_y	y	n/a
275.1325	0.135	550265	keystroke_Key.space	Key.space	n/a
275.373	0.135	550746	keystroke_c	c	n/a
275.463	0.105	550926	keystroke_h	h	n/a
275.583	0.15	551166	keystroke_a	a	n/a
275.673	0.1205	551346	keystroke_n	n	n/a
275.8235	0.2105	551647	keystroke_c	c	n/a
275.974	0.1345	551948	keystroke_e	e	n/a
276.1975	0.15	552395	keystroke_s	s	n/a
277.2775	0.1505	554555	keystroke_Key.enter	Key.enter	n/a
277.4325	9.4325	554865	prompt	n/a	collective wood replaced operated\n
278.343	0.1505	556686	keystroke_c	c	n/a
278.973	0.12	557946	keystroke_o	o	n/a
279.228	0.06	558456	keystroke_l	l	n/a
279.393	0.12	558786	keystroke_l	l	n/a
279.468	0.105	558936	keystroke_e	e	n/a
279.6485	0.12	559297	keystroke_c	c	n/a
279.9185	0.09	559837	keystroke_t	t	n/a
280.0235	0.135	560047	keystroke_i	i	n/a
280.1135	0.105	560227	keystroke_v	v	n/a
280.2935	0.12	560587	keystroke_e	e	n/a
280.5635	0.1345	561127	keystroke_Key.space	Key.space	n/a
280.773	0.1505	561546	keystroke_w	w	n/a
280.9685	0.0745	561937	keystroke_o	o	n/a
281.1325	0.165	562265	keystroke_o	o	n/a
281.2525	0.135	562505	keystroke_d	d	n/a
281.538	0.1345	563076	keystroke_Key.space	Key.space	n/a
281.7775	0.135	563555	keystroke_r	r	n/a
281.8525	0.1655	563705	keystroke_e	e	n/a
282.003	0.135	564006	keystroke_p	p	n/a
282.243	0.15	564486	keystroke_l	l	n/a
282.363	0.165	564726	keystroke_a	a	n/a
282.468	0.195	564936	keystroke_c	c	n/a
282.648	0.135	565296	keystroke_e	e	n/a
282.888	0.135	565776	keystroke_d	d	n/a
283.218	0.12	566436	keystroke_Key.space	Key.space	n/a
283.428	0.1505	566856	keystroke_o	o	n/a
283.5935	0.1195	567187	keystroke_r	r	n/a
283.758	0.135	567516	keystroke_e	e	n/a
284.493	0.09	568986	keystroke_Key.backspace	Key.backspace	n/a
284.6735	0.15	569347	keystroke_Key.backspace	Key.backspace	n/a
285.2735	0.1645	570547	keystroke_p	p	n/a
285.393	0.1355	570786	keystroke_e	e	n/a
285.5435	0.15	571087	keystroke_r	r	n/a
285.7385	0.1945	571477	keystroke_a	a	n/a
285.858	0.1355	571716	keystroke_t	t	n/a
285.9785	0.15	571957	keystroke_e	e	n/a
286.2335	0.12	572467	keystroke_d	d	n/a
286.683	0.18	573366	keystroke_Key.enter	Key.enter	n/a
286.8675	11.277	573735	prompt	n/a	penalty targeted yield congressional\n
288.048	0.1505	576096	keystroke_p	p	n/a
288.6335	0.135	577267	keystroke_e	e	n/a
288.8135	0.1195	577627	keystroke_n	n	n/a
288.918	0.1505	577836	keystroke_a	a	n/a
289.1285	0.15	578257	keystroke_l	l	n/a
289.3985	0.18	578797	keystroke_t	t	n/a
289.5185	0.12	579037	keystroke_y	y	n/a
289.7585	0.1345	579517	keystroke_Key.space	Key.space	n/a
289.9835	0.075	579967	keystroke_t	t	n/a
290.1635	0.1645	580327	keystroke_a	a	n/a
290.238	0.135	580476	keystroke_r	r	n/a
290.4785	0.06	580957	keystroke_g	g	n/a
290.5985	0.1645	581197	keystroke_e	e	n/a
290.703	0.135	581406	keystroke_t	t	n/a
291.0335	0.1645	582067	keystroke_e	e	n/a
291.438	0.135	582876	keystroke_d	d	n/a
291.948	0.045	583896	keystroke_Key.space	Key.space	n/a
292.2325	0.06	584465	keystroke_s	s	n/a
292.8475	0.075	585695	keystroke_Key.backspace	Key.backspace	n/a
293.103	0.12	586206	keystroke_y	y	n/a
294.003	0.135	588006	keystroke_i	i	n/a
294.093	0.15	588186	keystroke_e	e	n/a
294.303	0.18	588606	keystroke_l	l	n/a
294.4225	0.1505	588845	keystroke_d	d	n/a
295.008	0.135	590016	keystroke_Key.space	Key.space	n/a
295.293	0.1205	590586	keystroke_c	c	n/a
295.5635	0.18	591127	keystroke_o	o	n/a
295.6835	0.15	591367	keystroke_n	n	n/a
295.8935	0.09	591787	keystroke_g	g	n/a
296.1635	0.18	592327	keystroke_r	r	n/a
296.3585	0.15	592717	keystroke_e	e	n/a
296.7635	0.09	593527	keystroke_s	s	n/a
296.9285	0.15	593857	keystroke_s	s	n/a
297.0335	0.165	594067	keystroke_i	i	n/a
297.1085	0.21	594217	keystroke_o	o	n/a
297.2135	0.135	594427	keystroke_n	n	n/a
297.3335	0.1345	594667	keystroke_a	a	n/a
297.438	0.1505	594876	keystroke_l	l	n/a
297.963	0.18	595926	keystroke_Key.enter	Key.enter	n/a
298.1505	13.2395	596301	prompt	n/a	thesaurus departure under leaves\n
299.088	0.09	598176	keystroke_t	t	n/a
299.178	0.105	598356	keystroke_h	h	n/a
299.298	0.1645	598596	keystroke_e	e	n/a
300.168	0.12	600336	keystroke_s	s	n/a
300.408	0.135	600816	keystroke_a	a	n/a
301.068	0.135	602136	keystroke_u	u	n/a
301.3085	0.18	602617	keystroke_r	r	n/a
303.364	0.1195	606728	keystroke_u	u	n/a
303.4385	0.15	606877	keystroke_s	s	n/a
303.874	0.15	607748	keystroke_Key.space	Key.space	n/a
304.2335	0.12	608467	keystroke_d	d	n/a
304.4885	0.1495	608977	keystroke_p	p	n/a
304.743	0.1955	609486	keystroke_a	a	n/a
304.8035	0.21	609607	keystroke_r	r	n/a
305.1485	0.09	610297	keystroke_Key.backspace	Key.backspace	n/a
305.3285	0.075	610657	keystroke_Key.backspace	Key.backspace	n/a
305.4785	0.1345	610957	keystroke_Key.backspace	Key.backspace	n/a
305.5985	0.135	611197	keystroke_e	e	n/a
305.7785	0.15	611557	keystroke_a	a	n/a
306.258	0.12	612516	keystroke_p	p	n/a
306.348	0.015	612696	keystroke_o	o	n/a
306.528	0.075	613056	keystroke_Key.backspace	Key.backspace	n/a
306.708	0.09	613416	keystroke_Key.backspace	Key.backspace	n/a
306.858	0.135	613716	keystroke_Key.backspace	Key.backspace	n/a
307.1425	0.1655	614285	keystroke_p	p	n/a
307.293	0.18	614586	keystroke_a	a	n/a
307.383	0.135	614766	keystroke_r	r	n/a
307.6225	0.1205	615245	keystroke_t	t	n/a
307.818	0.135	615636	keystroke_u	u	n/a
308.433	0.15	616866	keystroke_r	r	n/a
308.523	0.165	617046	keystroke_e	e	n/a
309.093	0.15	618186	keystroke_Key.space	Key.space	n/a
309.348	0.09	618696	keystroke_u	u	n/a
309.543	0.12	619086	keystroke_n	n	n/a
309.618	0.12	619236	keystroke_d	d	n/a
309.8285	0.1355	619657	keystroke_e	e	n/a
309.8885	0.1805	619777	keystroke_r	r	n/a
310.023	0.136	620046	keystroke_Key.space	Key.space	n/a
310.204	0.15	620408	keystroke_l	l	n/a
310.2935	0.1055	620587	keystroke_e	e	n/a
310.459	0.15	620918	keystroke_a	a	n/a
310.623	0.0905	621246	keystroke_v	v	n/a
310.7735	0.12	621547	keystroke_e	e	n/a
310.9835	0.1345	621967	keystroke_s	s	n/a
311.223	0.165	622446	keystroke_Key.enter	Key.enter	n/a
311.393	11.022	622786	prompt	n/a	sail contributing combines construction\n
312.288	0.09	624576	keystroke_s	s	n/a
312.498	0.136	624996	keystroke_a	a	n/a
312.588	0.091	625176	keystroke_i	i	n/a
312.754	0.21	625508	keystroke_l	l	n/a
312.874	0.12	625748	keystroke_Key.space	Key.space	n/a
313.5335	0.15	627067	keystroke_c	c	n/a
313.6685	0.1795	627337	keystroke_o	o	n/a
313.7585	0.1355	627517	keystroke_n	n	n/a
313.908	0.076	627816	keystroke_t	t	n/a
314.0885	0.12	628177	keystroke_r	r	n/a
314.1335	0.104	628267	keystroke_i	i	n/a
314.3425	0.0755	628685	keystroke_b	b	n/a
314.5385	0.1345	629077	keystroke_u	u	n/a
314.674	0.134	629348	keystroke_t	t	n/a
314.793	0.15	629586	keystroke_i	i	n/a
314.868	0.15	629736	keystroke_n	n	n/a
315.003	0.1055	630006	keystroke_g	g	n/a
315.1235	0.105	630247	keystroke_Key.space	Key.space	n/a
315.4235	0.15	630847	keystroke_c	c	n/a
316.4585	0.12	632917	keystroke_o	o	n/a
316.7135	0.105	633427	keystroke_m	m	n/a
316.9535	0.09	633907	keystroke_b	b	n/a
317.1185	0.1345	634237	keystroke_i	i	n/a
317.208	0.12	634416	keystroke_n	n	n/a
317.298	0.1355	634596	keystroke_e	e	n/a
317.5085	0.15	635017	keystroke_s	s	n/a
317.7335	0.135	635467	keystroke_Key.space	Key.space	n/a
317.9885	0.135	635977	keystroke_c	c	n/a
318.5285	0.15	637057	keystroke_o	o	n/a
318.6185	0.165	637237	keystroke_n	n	n/a
318.7385	0.165	637477	keystroke_s	s	n/a
319.0235	0.09	638047	keystroke_t	t	n/a
319.2635	0.06	638527	keystroke_r	r	n/a
319.3385	0.1195	638677	keystroke_u	u	n/a
320.373	0.121	640746	keystroke_c	c	n/a
320.673	0.121	641346	keystroke_t	t	n/a
320.764	0.135	641528	keystroke_i	i	n/a
320.854	0.21	641708	keystroke_o	o	n/a
320.928	0.18	641856	keystroke_n	n	n/a
322.2335	0.18	644467	keystroke_Key.enter	Key.enter	n/a
322.4185	9.3265	644837	prompt	n/a	wifi daughters diesel winds\n
323.5385	0.12	647077	keystroke_w	w	n/a
323.6285	0.105	647257	keystroke_i	i	n/a
323.7485	0.105	647497	keystroke_f	f	n/a
323.8385	0.15	647677	keystroke_i	i	n/a
324.199	0.15	648398	keystroke_Key.space	Key.space	n/a
324.7535	0.1495	649507	keystroke_d	d	n/a
325.008	0.1355	650016	keystroke_u	u	n/a
325.608	0.135	651216	keystroke_Key.backspace	Key.backspace	n/a
325.728	0.121	651456	keystroke_a	a	n/a
325.849	0.134	651698	keystroke_u	u	n/a
325.968	0.091	651936	keystroke_g	g	n/a
326.088	0.136	652176	keystroke_h	h	n/a
326.238	0.105	652476	keystroke_t	t	n/a
326.403	0.135	652806	keystroke_e	e	n/a
326.478	0.135	652956	keystroke_r	r	n/a
326.748	0.165	653496	keystroke_s	s	n/a
327.6785	0.135	655357	keystroke_Key.space	Key.space	n/a
327.8585	0.15	655717	keystroke_d	d	n/a
327.9635	0.15	655927	keystroke_i	i	n/a
328.1435	0.135	656287	keystroke_e	e	n/a
329.404	0.12	658808	keystroke_s	s	n/a
329.5685	0.165	659137	keystroke_e	e	n/a
329.6885	0.195	659377	keystroke_l	l	n/a
330.5435	0.165	661087	keystroke_Key.space	Key.space	n/a
330.7235	0.135	661447	keystroke_w	w	n/a
330.8885	0.135	661777	keystroke_i	i	n/a
330.9635	0.15	661927	keystroke_n	n	n/a
331.0535	0.105	662107	keystroke_d	d	n/a
331.2335	0.135	662467	keystroke_s	s	n/a
331.578	0.165	663156	keystroke_Key.enter	Key.enter	n/a
331.748	9.9875	663496	prompt	n/a	cradle fastest providence calculation\n
332.7785	0.0755	665557	keystroke_c	c	n/a
332.944	0.09	665888	keystroke_r	r	n/a
333.064	0.165	666128	keystroke_a	a	n/a
333.199	0.15	666398	keystroke_d	d	n/a
333.4235	0.15	666847	keystroke_l	l	n/a
333.5285	0.12	667057	keystroke_e	e	n/a
333.9485	0.135	667897	keystroke_Key.space	Key.space	n/a
334.5785	0.1345	669157	keystroke_f	f	n/a
334.683	0.1655	669366	keystroke_a	a	n/a
334.8335	0.195	669667	keystroke_s	s	n/a
335.0435	0.135	670087	keystroke_t	t	n/a
335.2385	0.18	670477	keystroke_e	e	n/a
335.764	0.15	671528	keystroke_s	s	n/a
335.974	0.135	671948	keystroke_t	t	n/a
336.514	0.135	673028	keystroke_Key.space	Key.space	n/a
336.709	0.135	673418	keystroke_p	p	n/a
336.829	0.12	673658	keystroke_r	r	n/a
336.994	0.12	673988	keystroke_o	o	n/a
337.144	0.12	674288	keystroke_v	v	n/a
337.309	0.135	674618	keystroke_i	i	n/a
337.399	0.105	674798	keystroke_d	d	n/a
337.608	0.135	675216	keystroke_e	e	n/a
337.758	0.12	675516	keystroke_n	n	n/a
337.833	0.18	675666	keystroke_c	c	n/a
337.983	0.15	675966	keystroke_e	e	n/a
338.118	0.12	676236	keystroke_Key.space	Key.space	n/a
338.283	0.165	676566	keystroke_c	c	n/a
338.463	0.15	676926	keystroke_a	a	n/a
338.643	0.135	677286	keystroke_l	l	n/a
339.558	0.1505	679116	keystroke_c	c	n/a
339.7235	0.12	679447	keystroke_u	u	n/a
339.9485	0.135	679897	keystroke_l	l	n/a
340.0535	0.1345	680107	keystroke_a	a	n/a
340.248	0.12	680496	keystroke_t	t	n/a
340.398	0.165	680796	keystroke_i	i	n/a
340.548	0.195	681096	keystroke_o	o	n/a
340.623	0.21	681246	keystroke_n	n	n/a
341.5685	0.1655	683137	keystroke_Key.enter	Key.enter	n/a
341.7385	6.4615	683477	prompt	n/a	iran recorder we'd march\n
342.5135	0.15	685027	keystroke_i	i	n/a
342.6035	0.075	685207	keystroke_n	n	n/a
343.158	0.1205	686316	keystroke_Key.backspace	Key.backspace	n/a
343.3085	0.105	686617	keystroke_r	r	n/a
343.4735	0.18	686947	keystroke_a	a	n/a
343.6385	0.1055	687277	keystroke_n	n	n/a
344.419	0.135	688838	keystroke_Key.space	Key.space	n/a
344.6585	0.135	689317	keystroke_r	r	n/a
344.7635	0.135	689527	keystroke_e	e	n/a
344.9735	0.105	689947	keystroke_c	c	n/a
345.1085	0.135	690217	keystroke_o	o	n/a
345.2135	0.105	690427	keystroke_r	r	n/a
345.4085	0.105	690817	keystroke_d	d	n/a
345.6185	0.12	691237	keystroke_e	e	n/a
345.6635	0.165	691327	keystroke_r	r	n/a
345.9185	0.135	691837	keystroke_Key.space	Key.space	n/a
346.0985	0.1805	692197	keystroke_w	w	n/a
346.203	0.135	692406	keystroke_e	e	n/a
346.398	0.151	692796	keystroke_'	'	n/a
346.5335	0.1195	693067	keystroke_d	d	n/a
346.864	0.134	693728	keystroke_Key.space	Key.space	n/a
347.118	0.136	694236	keystroke_m	m	n/a
347.329	0.21	694658	keystroke_a	a	n/a
347.418	0.181	694836	keystroke_r	r	n/a
347.688	0.151	695376	keystroke_c	c	n/a
347.824	0.105	695648	keystroke_h	h	n/a
348.034	0.164	696068	keystroke_Key.enter	Key.enter	n/a
348.2025	12.868	696405	prompt	n/a	charging inquire bearing property\n
349.504	0.135	699008	keystroke_c	c	n/a
349.609	0.105	699218	keystroke_h	h	n/a
349.729	0.165	699458	keystroke_a	a	n/a
349.834	0.135	699668	keystroke_r	r	n/a
350.089	0.12	700178	keystroke_g	g	n/a
350.224	0.15	700448	keystroke_i	i	n/a
350.299	0.135	700598	keystroke_n	n	n/a
350.389	0.09	700778	keystroke_g	g	n/a
350.8235	0.09	701647	keystroke_Key.space	Key.space	n/a
350.9735	0.15	701947	keystroke_i	i	n/a
351.0335	0.135	702067	keystroke_n	n	n/a
351.4235	0.15	702847	keystroke_q	q	n/a
352.024	0.1945	704048	keystroke_u	u	n/a
352.1585	0.2855	704317	keystroke_i	i	n/a
352.939	0.135	705878	keystroke_r	r	n/a
353.014	0.1505	706028	keystroke_e	e	n/a
354.229	0.15	708458	keystroke_Key.space	Key.space	n/a
354.544	0.12	709088	keystroke_h	h	n/a
354.634	0.105	709268	keystroke_e	e	n/a
355.024	0.105	710048	keystroke_Key.backspace	Key.backspace	n/a
355.174	0.105	710348	keystroke_Key.backspace	Key.backspace	n/a
355.4135	0.09	710827	keystroke_b	b	n/a
355.4885	0.135	710977	keystroke_e	e	n/a
356.164	0.1495	712328	keystroke_a	a	n/a
356.358	0.09	712716	keystroke_r	r	n/a
356.523	0.09	713046	keystroke_i	i	n/a
356.538	0.135	713076	keystroke_n	n	n/a
356.643	0.105	713286	keystroke_g	g	n/a
357.6935	0.1205	715387	keystroke_Key.space	Key.space	n/a
357.874	0.12	715748	keystroke_p	p	n/a
357.964	0.135	715928	keystroke_r	r	n/a
358.084	0.165	716168	keystroke_o	o	n/a
358.9685	0.1505	717937	keystroke_t	t	n/a
359.659	0.135	719318	keystroke_Key.backspace	Key.backspace	n/a
359.989	0.1645	719978	keystroke_p	p	n/a
360.1385	0.135	720277	keystroke_e	e	n/a
360.1985	0.15	720397	keystroke_r	r	n/a
360.4835	0.1205	720967	keystroke_t	t	n/a
360.5885	0.1205	721177	keystroke_y	y	n/a
360.889	0.18	721778	keystroke_Key.enter	Key.enter	n/a
361.075	12.5955	722150	prompt	n/a	variable tyler protocols section\n
362.0135	0.1055	724027	keystroke_w	w	n/a
362.569	0.121	725138	keystroke_r	r	n/a
362.749	0.1045	725498	keystroke_i	i	n/a
362.8685	0.15	725737	keystroke_a	a	n/a
362.9885	0.09	725977	keystroke_b	b	n/a
363.1685	0.15	726337	keystroke_l	l	n/a
363.2735	0.1355	726547	keystroke_e	e	n/a
364.249	0.135	728498	keystroke_Key.space	Key.space	n/a
364.534	0.1045	729068	keystroke_t	t	n/a
364.6985	0.105	729397	keystroke_y	y	n/a
364.9835	0.135	729967	keystroke_l	l	n/a
365.0735	0.135	730147	keystroke_e	e	n/a
365.1485	0.165	730297	keystroke_r	r	n/a
365.4035	0.105	730807	keystroke_Key.space	Key.space	n/a
365.569	0.105	731138	keystroke_p	p	n/a
365.689	0.165	731378	keystroke_r	r	n/a
365.779	0.135	731558	keystroke_o	o	n/a
366.529	0.1345	733058	keystroke_t	t	n/a
366.6485	0.165	733297	keystroke_o	o	n/a
367.0235	0.15	734047	keystroke_c	c	n/a
367.1885	0.165	734377	keystroke_l	l	n/a
367.8935	0.09	735787	keystroke_Key.backspace	Key.backspace	n/a
368.1485	0.105	736297	keystroke_o	o	n/a
368.3435	0.165	736687	keystroke_l	l	n/a
369.094	0.1505	738188	keystroke_Key.space	Key.space	n/a
369.4245	0.165	738849	keystroke_s	s	n/a
369.5145	0.1645	739029	keystroke_e	e	n/a
369.859	0.135	739718	keystroke_c	c	n/a
370.1445	0.1195	740289	keystroke_t	t	n/a
370.204	0.195	740408	keystroke_i	i	n/a
370.324	0.165	740648	keystroke_o	o	n/a
370.429	0.15	740858	keystroke_n	n	n/a
373.551	0.118	747102	keystroke_Key.enter	Key.enter	n/a
373.6735	8.337	747347	prompt	n/a	cathedral stroke discover novel\n
374.509	0.165	749018	keystroke_c	c	n/a
374.794	0.105	749588	keystroke_a	a	n/a
375.184	0.105	750368	keystroke_t	t	n/a
375.319	0.12	750638	keystroke_h	h	n/a
375.559	0.15	751118	keystroke_e	e	n/a
376.054	0.12	752108	keystroke_d	d	n/a
376.429	0.1205	752858	keystroke_r	r	n/a
376.609	0.1655	753218	keystroke_a	a	n/a
376.7595	0.165	753519	keystroke_l	l	n/a
377.0735	0.135	754147	keystroke_Key.space	Key.space	n/a
377.3295	0.105	754659	keystroke_s	s	n/a
377.5245	0.09	755049	keystroke_t	t	n/a
377.7045	0.12	755409	keystroke_r	r	n/a
377.8095	0.105	755619	keystroke_o	o	n/a
377.9895	0.15	755979	keystroke_k	k	n/a
378.0945	0.135	756189	keystroke_e	e	n/a
378.6345	0.105	757269	keystroke_Key.space	Key.space	n/a
378.8145	0.15	757629	keystroke_d	d	n/a
378.9495	0.135	757899	keystroke_i	i	n/a
379.0395	0.1195	758079	keystroke_s	s	n/a
379.264	0.135	758528	keystroke_c	c	n/a
379.384	0.135	758768	keystroke_o	o	n/a
379.729	0.09	759458	keystroke_v	v	n/a
379.939	0.12	759878	keystroke_e	e	n/a
380.014	0.12	760028	keystroke_r	r	n/a
380.5985	0.135	761197	keystroke_Key.space	Key.space	n/a
380.8395	0.12	761679	keystroke_n	n	n/a
381.1245	0.1335	762249	keystroke_o	o	n/a
381.214	0.075	762428	keystroke_v	v	n/a
381.3795	0.12	762759	keystroke_e	e	n/a
381.5285	0.135	763057	keystroke_l	l	n/a
381.8435	0.165	763687	keystroke_Key.enter	Key.enter	n/a
382.014	11.052	764028	prompt	n/a	cricket ambassador something's population\n
382.864	0.105	765728	keystroke_c	c	n/a
383.104	0.135	766208	keystroke_r	r	n/a
383.4485	0.165	766897	keystroke_i	i	n/a
383.5685	0.12	767137	keystroke_c	c	n/a
383.6735	0.15	767347	keystroke_k	k	n/a
383.794	0.1795	767588	keystroke_e	e	n/a
383.9285	0.1505	767857	keystroke_t	t	n/a
384.1985	0.135	768397	keystroke_Key.space	Key.space	n/a
384.4535	0.15	768907	keystroke_a	a	n/a
384.5885	0.1355	769177	keystroke_m	m	n/a
384.874	0.09	769748	keystroke_b	b	n/a
385.0085	0.135	770017	keystroke_a	a	n/a
385.4295	0.12	770859	keystroke_s	s	n/a
385.6845	0.15	771369	keystroke_s	s	n/a
385.9245	0.1495	771849	keystroke_a	a	n/a
386.194	0.12	772388	keystroke_d	d	n/a
386.344	0.135	772688	keystroke_o	o	n/a
386.419	0.15	772838	keystroke_r	r	n/a
386.7485	0.121	773497	keystroke_Key.space	Key.space	n/a
386.9745	0.135	773949	keystroke_s	s	n/a
387.0645	0.09	774129	keystroke_o	o	n/a
387.2595	0.0895	774519	keystroke_m	m	n/a
387.2745	0.12	774549	keystroke_e	e	n/a
387.469	0.1055	774938	keystroke_t	t	n/a
387.529	0.1355	775058	keystroke_h	h	n/a
387.6495	0.165	775299	keystroke_i	i	n/a
387.7545	0.135	775509	keystroke_n	n	n/a
387.8445	0.105	775689	keystroke_g	g	n/a
388.2945	0.1045	776589	keystroke_Key.space	Key.space	n/a
388.834	0.15	777668	keystroke_Key.backspace	Key.backspace	n/a
389.7785	0.15	779557	keystroke_'	'	n/a
389.8685	0.12	779737	keystroke_s	s	n/a
390.1835	0.1355	780367	keystroke_Key.space	Key.space	n/a
390.394	0.1195	780788	keystroke_p	p	n/a
390.9035	0.165	781807	keystroke_o	o	n/a
391.444	0.15	782888	keystroke_p	p	n/a
391.654	0.1495	783308	keystroke_u	u	n/a
391.9385	0.12	783877	keystroke_l	l	n/a
392.0435	0.195	784087	keystroke_a	a	n/a
392.2535	0.12	784507	keystroke_t	t	n/a
392.3435	0.135	784687	keystroke_i	i	n/a
392.4185	0.165	784837	keystroke_o	o	n/a
392.4935	0.1655	784987	keystroke_n	n	n/a
392.899	0.1655	785798	keystroke_Key.enter	Key.enter	n/a
393.0685	12.2225	786137	prompt	n/a	thanksgiving crucial alphabetical claim\n
394.2195	0.105	788439	keystroke_t	t	n/a
394.294	0.09	788588	keystroke_h	h	n/a
394.7745	0.135	789549	keystroke_a	a	n/a
394.9845	0.165	789969	keystroke_n	n	n/a
395.1045	0.18	790209	keystroke_k	k	n/a
395.2095	0.15	790419	keystroke_s	s	n/a
395.7345	0.135	791469	keystroke_g	g	n/a
395.9295	0.105	791859	keystroke_i	i	n/a
396.0195	0.12	792039	keystroke_v	v	n/a
396.1395	0.18	792279	keystroke_i	i	n/a
396.2295	0.165	792459	keystroke_n	n	n/a
396.3645	0.12	792729	keystroke_g	g	n/a
396.7395	0.135	793479	keystroke_Key.space	Key.space	n/a
396.934	0.12	793868	keystroke_c	c	n/a
397.204	0.135	794408	keystroke_r	r	n/a
397.324	0.1195	794648	keystroke_u	u	n/a
397.6085	0.1655	795217	keystroke_c	c	n/a
397.729	0.1495	795458	keystroke_i	i	n/a
397.8635	0.1505	795727	keystroke_a	a	n/a
397.9535	0.18	795907	keystroke_l	l	n/a
398.0435	0.1655	796087	keystroke_Key.space	Key.space	n/a
398.404	0.1795	796808	keystroke_p	p	n/a
398.569	0.18	797138	keystroke_a	a	n/a
399.1695	0.09	798339	keystroke_Key.backspace	Key.backspace	n/a
399.3345	0.12	798669	keystroke_Key.backspace	Key.backspace	n/a
399.4395	0.15	798879	keystroke_a	a	n/a
399.8745	0.1645	799749	keystroke_l	l	n/a
400.3845	0.12	800769	keystroke_p	p	n/a
400.625	0.12	801250	keystroke_h	h	n/a
400.714	0.1505	801428	keystroke_a	a	n/a
401.2845	0.12	802569	keystroke_b	b	n/a
401.3745	0.15	802749	keystroke_e	e	n/a
401.6295	0.09	803259	keystroke_t	t	n/a
401.7345	0.135	803469	keystroke_i	i	n/a
401.8545	0.15	803709	keystroke_c	c	n/a
402.0195	0.165	804039	keystroke_a	a	n/a
402.1395	0.18	804279	keystroke_l	l	n/a
402.2445	0.135	804489	keystroke_Key.space	Key.space	n/a
402.5445	0.1645	805089	keystroke_c	c	n/a
403.129	0.12	806258	keystroke_l	l	n/a
403.279	0.165	806558	keystroke_a	a	n/a
403.399	0.12	806798	keystroke_i	i	n/a
403.624	0.12	807248	keystroke_m	m	n/a
405.124	0.165	810248	keystroke_Key.enter	Key.enter	n/a
405.295	17.771	810590	prompt	n/a	louisville alice removable certification\n
407.0745	0.135	814149	keystroke_l	l	n/a
407.3445	0.255	814689	keystroke_o	o	n/a
407.4795	0.135	814959	keystroke_i	i	n/a
408.2595	0.075	816519	keystroke_Key.backspace	Key.backspace	n/a
408.4395	0.135	816879	keystroke_u	u	n/a
408.994	0.1655	817988	keystroke_s	s	n/a
409.1745	0.15	818349	keystroke_i	i	n/a
410.149	0.075	820298	keystroke_Key.backspace	Key.backspace	n/a
410.299	0.09	820598	keystroke_Key.backspace	Key.backspace	n/a
410.509	0.1355	821018	keystroke_i	i	n/a
410.6145	0.15	821229	keystroke_s	s	n/a
411.9795	0.09	823959	keystroke_v	v	n/a
412.0845	0.105	824169	keystroke_i	i	n/a
412.4295	0.135	824859	keystroke_l	l	n/a
412.5495	0.135	825099	keystroke_e	e	n/a
413.0145	0.12	826029	keystroke_Key.backspace	Key.backspace	n/a
413.3745	0.135	826749	keystroke_l	l	n/a
413.5245	0.15	827049	keystroke_e	e	n/a
414.094	0.165	828188	keystroke_Key.space	Key.space	n/a
414.439	0.15	828878	keystroke_a	a	n/a
414.6795	0.075	829359	keystroke_l	l	n/a
414.8445	0.12	829689	keystroke_i	i	n/a
414.9045	0.225	829809	keystroke_c	c	n/a
415.0845	0.165	830169	keystroke_e	e	n/a
415.924	0.1355	831848	keystroke_Key.space	Key.space	n/a
416.09	0.1795	832180	keystroke_r	r	n/a
416.195	0.135	832390	keystroke_e	e	n/a
416.3445	0.105	832689	keystroke_m	m	n/a
416.5395	0.135	833079	keystroke_o	o	n/a
416.8695	0.12	833739	keystroke_v	v	n/a
417.0645	0.165	834129	keystroke_a	a	n/a
417.44	0.105	834880	keystroke_b	b	n/a
417.65	0.15	835300	keystroke_l	l	n/a
417.785	0.12	835570	keystroke_e	e	n/a
418.445	0.15	836890	keystroke_Key.space	Key.space	n/a
418.64	0.1195	837280	keystroke_c	c	n/a
418.8195	0.12	837639	keystroke_e	e	n/a
418.9095	0.12	837819	keystroke_r	r	n/a
420.065	0.195	840130	keystroke_r	r	n/a
420.6645	0.12	841329	keystroke_Key.backspace	Key.backspace	n/a
420.7995	0.105	841599	keystroke_t	t	n/a
420.9645	0.165	841929	keystroke_i	i	n/a
421.294	0.151	842588	keystroke_f	f	n/a
421.46	0.12	842920	keystroke_i	i	n/a
421.955	0.12	843910	keystroke_c	c	n/a
422.075	0.149	844150	keystroke_a	a	n/a
422.33	0.104	844660	keystroke_t	t	n/a
422.405	0.164	844810	keystroke_i	i	n/a
422.494	0.1805	844988	keystroke_o	o	n/a
422.584	0.1655	845168	keystroke_n	n	n/a
422.945	0.119	845890	keystroke_Key.enter	Key.enter	n/a
423.069	10.992	846138	prompt	n/a	smell eclipse consists perfectly\n
424.4295	0.135	848859	keystroke_s	s	n/a
424.5195	0.12	849039	keystroke_m	m	n/a
424.6545	0.12	849309	keystroke_e	e	n/a
424.8045	0.105	849609	keystroke_l	l	n/a
425.029	0.121	850058	keystroke_l	l	n/a
425.6295	0.15	851259	keystroke_Key.space	Key.space	n/a
426.199	0.1055	852398	keystroke_e	e	n/a
426.6045	0.15	853209	keystroke_c	c	n/a
426.9495	0.18	853899	keystroke_l	l	n/a
428.164	0.06	856328	keystroke_i	i	n/a
428.314	0.15	856628	keystroke_p	p	n/a
428.509	0.1955	857018	keystroke_s	s	n/a
428.6145	0.15	857229	keystroke_e	e	n/a
429.0795	0.105	858159	keystroke_Key.space	Key.space	n/a
429.2895	0.135	858579	keystroke_c	c	n/a
429.739	0.15	859478	keystroke_o	o	n/a
430.009	0.12	860018	keystroke_n	n	n/a
430.309	0.105	860618	keystroke_s	s	n/a
430.399	0.135	860798	keystroke_i	i	n/a
430.504	0.1355	861008	keystroke_s	s	n/a
430.7445	0.105	861489	keystroke_t	t	n/a
431.044	0.15	862088	keystroke_s	s	n/a
431.464	0.15	862928	keystroke_Key.space	Key.space	n/a
431.764	0.135	863528	keystroke_p	p	n/a
431.854	0.15	863708	keystroke_e	e	n/a
431.944	0.135	863888	keystroke_r	r	n/a
432.199	0.105	864398	keystroke_f	f	n/a
432.3495	0.12	864699	keystroke_e	e	n/a
432.5295	0.12	865059	keystroke_c	c	n/a
432.7995	0.105	865599	keystroke_t	t	n/a
432.9945	0.135	865989	keystroke_l	l	n/a
433.2345	0.135	866469	keystroke_y	y	n/a
433.9095	0.15	867819	keystroke_Key.enter	Key.enter	n/a
434.0655	10.826	868131	prompt	n/a	amongst pupils happening chuck\n
434.7795	0.1505	869559	keystroke_a	a	n/a
434.975	0.06	869950	keystroke_m	m	n/a
435.1245	0.165	870249	keystroke_o	o	n/a
435.2295	0.135	870459	keystroke_n	n	n/a
435.2905	0.104	870581	keystroke_g	g	n/a
435.4545	0.21	870909	keystroke_s	s	n/a
435.5895	0.135	871179	keystroke_t	t	n/a
435.9345	0.135	871869	keystroke_Key.space	Key.space	n/a
436.1145	0.165	872229	keystroke_p	p	n/a
436.3095	0.15	872619	keystroke_u	u	n/a
436.7145	0.12	873429	keystroke_p	p	n/a
436.9545	0.105	873909	keystroke_u	u	n/a
437.4045	0.09	874809	keystroke_Key.backspace	Key.backspace	n/a
437.6295	0.12	875259	keystroke_i	i	n/a
438.2	0.135	876400	keystroke_l	l	n/a
438.395	0.1495	876790	keystroke_s	s	n/a
438.71	0.135	877420	keystroke_Key.space	Key.space	n/a
438.95	0.105	877900	keystroke_h	h	n/a
439.04	0.15	878080	keystroke_a	a	n/a
439.22	0.09	878440	keystroke_p	p	n/a
439.415	0.15	878830	keystroke_p	p	n/a
439.9695	0.1345	879939	keystroke_e	e	n/a
440.179	0.105	880358	keystroke_n	n	n/a
440.39	0.149	880780	keystroke_i	i	n/a
440.479	0.1355	880958	keystroke_n	n	n/a
440.599	0.1055	881198	keystroke_g	g	n/a
440.7645	0.15	881529	keystroke_Key.space	Key.space	n/a
441.0045	0.12	882009	keystroke_c	c	n/a
441.1095	0.12	882219	keystroke_h	h	n/a
441.424	0.105	882848	keystroke_u	u	n/a
441.6645	0.091	883329	keystroke_h	h	n/a
442.264	0.06	884528	keystroke_Key.backspace	Key.backspace	n/a
442.31	0.12	884620	keystroke_c	c	n/a
443.255	0.135	886510	keystroke_j	j	n/a
443.7345	0.0905	887469	keystroke_Key.backspace	Key.backspace	n/a
444.005	0.135	888010	keystroke_k	k	n/a
444.7245	0.165	889449	keystroke_Key.enter	Key.enter	n/a
444.8945	8.622	889789	prompt	n/a	accordingly laser logos restoration\n
445.6395	0.135	891279	keystroke_a	a	n/a
445.8195	0.12	891639	keystroke_c	c	n/a
446.03	0.135	892060	keystroke_c	c	n/a
446.195	0.15	892390	keystroke_o	o	n/a
446.315	0.12	892630	keystroke_r	r	n/a
446.495	0.1645	892990	keystroke_d	d	n/a
446.6445	0.135	893289	keystroke_i	i	n/a
446.7045	0.165	893409	keystroke_n	n	n/a
446.8255	0.105	893651	keystroke_g	g	n/a
447.3805	0.015	894761	keystroke_l	l	n/a
447.5005	0.134	895001	keystroke_y	y	n/a
448.0395	0.075	896079	keystroke_Key.space	Key.space	n/a
448.204	0.135	896408	keystroke_l	l	n/a
448.295	0.104	896590	keystroke_a	a	n/a
448.519	0.091	897038	keystroke_s	s	n/a
448.895	0.15	897790	keystroke_e	e	n/a
448.94	0.21	897880	keystroke_r	r	n/a
449.3445	0.105	898689	keystroke_Key.space	Key.space	n/a
449.5095	0.105	899019	keystroke_l	l	n/a
449.7195	0.105	899439	keystroke_o	o	n/a
449.7495	0.12	899499	keystroke_g	g	n/a
449.9155	0.1345	899831	keystroke_o	o	n/a
450.32	0.165	900640	keystroke_s	s	n/a
450.665	0.15	901330	keystroke_Key.space	Key.space	n/a
450.89	0.18	901780	keystroke_r	r	n/a
450.965	0.12	901930	keystroke_e	e	n/a
451.16	0.165	902320	keystroke_s	s	n/a
451.415	0.1055	902830	keystroke_t	t	n/a
451.5805	0.165	903161	keystroke_o	o	n/a
452.0295	0.105	904059	keystroke_r	r	n/a
452.1945	0.135	904389	keystroke_a	a	n/a
452.3895	0.12	904779	keystroke_t	t	n/a
452.4645	0.2105	904929	keystroke_i	i	n/a
452.5245	0.2105	905049	keystroke_o	o	n/a
452.719	0.0905	905438	keystroke_n	n	n/a
453.35	0.165	906700	keystroke_Key.enter	Key.enter	n/a
453.52	8.6515	907040	prompt	n/a	tribes moreover albania crime\n
454.355	0.12	908710	keystroke_t	t	n/a
454.655	0.105	909310	keystroke_r	r	n/a
454.775	0.105	909550	keystroke_i	i	n/a
454.985	0.0905	909970	keystroke_b	b	n/a
455.0905	0.12	910181	keystroke_e	e	n/a
455.3005	0.1345	910601	keystroke_s	s	n/a
455.54	0.12	911080	keystroke_Key.space	Key.space	n/a
455.795	0.0895	911590	keystroke_m	m	n/a
456.0495	0.15	912099	keystroke_o	o	n/a
456.1245	0.2095	912249	keystroke_r	r	n/a
456.2445	0.1505	912489	keystroke_e	e	n/a
457.1595	0.12	914319	keystroke_o	o	n/a
457.2195	0.09	914439	keystroke_v	v	n/a
457.3695	0.135	914739	keystroke_e	e	n/a
457.4595	0.135	914919	keystroke_r	r	n/a
457.7745	0.135	915549	keystroke_Key.space	Key.space	n/a
457.9245	0.15	915849	keystroke_a	a	n/a
458.0295	0.15	916059	keystroke_l	l	n/a
458.5095	0.09	917019	keystroke_b	b	n/a
458.644	0.121	917288	keystroke_a	a	n/a
458.809	0.136	917618	keystroke_n	n	n/a
458.9755	0.134	917951	keystroke_i	i	n/a
459.0805	0.1495	918161	keystroke_a	a	n/a
459.5595	0.1355	919119	keystroke_Key.space	Key.space	n/a
459.68	0.15	919360	keystroke_c	c	n/a
460.025	0.15	920050	keystroke_r	r	n/a
461.435	0.105	922870	keystroke_i	i	n/a
461.66	0.12	923320	keystroke_m	m	n/a
461.765	0.105	923530	keystroke_e	e	n/a
461.99	0.18	923980	keystroke_Key.enter	Key.enter	n/a
462.1745	8.607	924349	prompt	n/a	voltage supporting gospel nuts\n
463.355	0.12	926710	keystroke_v	v	n/a
463.7145	0.105	927429	keystroke_o	o	n/a
463.9095	0.165	927819	keystroke_l	l	n/a
464.1045	0.12	928209	keystroke_t	t	n/a
464.3295	0.105	928659	keystroke_a	a	n/a
464.4795	0.06	928959	keystroke_g	g	n/a
464.5695	0.1505	929139	keystroke_e	e	n/a
464.945	0.15	929890	keystroke_Key.space	Key.space	n/a
465.185	0.135	930370	keystroke_s	s	n/a
465.305	0.1045	930610	keystroke_u	u	n/a
465.5445	0.076	931089	keystroke_p	p	n/a
465.6945	0.106	931389	keystroke_p	p	n/a
465.9045	0.12	931809	keystroke_o	o	n/a
466.0105	0.104	932021	keystroke_r	r	n/a
466.2045	0.12	932409	keystroke_t	t	n/a
466.3095	0.135	932619	keystroke_i	i	n/a
466.4005	0.104	932801	keystroke_n	n	n/a
466.4905	0.089	932981	keystroke_g	g	n/a
466.5945	0.135	933189	keystroke_Key.space	Key.space	n/a
466.9695	0.135	933939	keystroke_g	g	n/a
467.2105	0.134	934421	keystroke_o	o	n/a
467.4795	0.12	934959	keystroke_e	e	n/a
468.05	0.09	936100	keystroke_Key.backspace	Key.backspace	n/a
468.125	0.1355	936250	keystroke_s	s	n/a
468.29	0.1655	936580	keystroke_p	p	n/a
468.5005	0.1345	937001	keystroke_e	e	n/a
469.3855	0.15	938771	keystroke_l	l	n/a
469.7	0.135	939400	keystroke_Key.space	Key.space	n/a
469.895	0.09	939790	keystroke_n	n	n/a
470.09	0.12	940180	keystroke_u	u	n/a
470.15	0.105	940300	keystroke_t	t	n/a
470.345	0.1505	940690	keystroke_s	s	n/a
470.6145	0.165	941229	keystroke_Key.enter	Key.enter	n/a
470.7845	7.8275	941569	prompt	n/a	plates seekers films stop\n
471.8295	0.12	943659	keystroke_p	p	n/a
472.0545	0.135	944109	keystroke_l	l	n/a
472.1745	0.18	944349	keystroke_a	a	n/a
472.3555	0.09	944711	keystroke_t	t	n/a
472.4595	0.12	944919	keystroke_e	e	n/a
472.85	0.135	945700	keystroke_s	s	n/a
473.1195	0.1505	946239	keystroke_Key.space	Key.space	n/a
473.54	0.15	947080	keystroke_s	s	n/a
473.72	0.135	947440	keystroke_e	e	n/a
473.93	0.15	947860	keystroke_e	e	n/a
474.515	0.15	949030	keystroke_k	k	n/a
474.68	0.15	949360	keystroke_e	e	n/a
474.755	0.15	949510	keystroke_r	r	n/a
474.995	0.15	949990	keystroke_s	s	n/a
475.265	0.15	950530	keystroke_Key.space	Key.space	n/a
475.4605	0.15	950921	keystroke_f	f	n/a
475.6405	0.12	951281	keystroke_i	i	n/a
475.8205	0.12	951641	keystroke_l	l	n/a
476.03	0.135	952060	keystroke_m	m	n/a
477.08	0.15	954160	keystroke_s	s	n/a
477.425	0.165	954850	keystroke_Key.space	Key.space	n/a
477.605	0.12	955210	keystroke_s	s	n/a
477.755	0.165	955510	keystroke_t	t	n/a
477.875	0.075	955750	keystroke_o	o	n/a
478.04	0.135	956080	keystroke_p	p	n/a
478.4455	0.165	956891	keystroke_Key.enter	Key.enter	n/a
478.6145	7.4675	957229	prompt	n/a	cons agenda miss recover\n
479.54	0.15	959080	keystroke_c	c	n/a
479.825	0.1645	959650	keystroke_o	o	n/a
479.9145	0.136	959829	keystroke_n	n	n/a
480.0355	0.165	960071	keystroke_s	s	n/a
480.3205	0.15	960641	keystroke_Key.space	Key.space	n/a
480.635	0.135	961270	keystroke_g	g	n/a
481.04	0.105	962080	keystroke_Key.backspace	Key.backspace	n/a
481.13	0.165	962260	keystroke_a	a	n/a
481.25	0.12	962500	keystroke_g	g	n/a
481.445	0.135	962890	keystroke_e	e	n/a
481.595	0.135	963190	keystroke_n	n	n/a
481.97	0.135	963940	keystroke_d	d	n/a
482.106	0.164	964212	keystroke_a	a	n/a
482.375	0.135	964750	keystroke_Key.space	Key.space	n/a
482.585	0.0905	965170	keystroke_m	m	n/a
482.7805	0.135	965561	keystroke_i	i	n/a
482.9005	0.12	965801	keystroke_s	s	n/a
483.0805	0.165	966161	keystroke_s	s	n/a
483.4705	0.165	966941	keystroke_Key.space	Key.space	n/a
483.9055	0.12	967811	keystroke_r	r	n/a
483.9655	0.12	967931	keystroke_e	e	n/a
484.2055	0.135	968411	keystroke_c	c	n/a
484.3555	0.165	968711	keystroke_o	o	n/a
484.5805	0.09	969161	keystroke_v	v	n/a
484.7455	0.12	969491	keystroke_e	e	n/a
484.8055	0.15	969611	keystroke_r	r	n/a
485.9005	0.18	971801	keystroke_Key.enter	Key.enter	n/a
486.0845	6.6875	972169	prompt	n/a	fred get crack both\n
486.8905	0.105	973781	keystroke_f	f	n/a
487.3555	0.06	974711	keystroke_r	r	n/a
487.3705	0.12	974741	keystroke_e	e	n/a
487.5805	0.135	975161	keystroke_d	d	n/a
487.9555	0.18	975911	keystroke_Key.space	Key.space	n/a
488.1805	0.09	976361	keystroke_g	g	n/a
488.3155	0.1795	976631	keystroke_e	e	n/a
488.4205	0.1495	976841	keystroke_t	t	n/a
488.705	0.165	977410	keystroke_Key.space	Key.space	n/a
488.945	0.105	977890	keystroke_c	c	n/a
489.305	0.1055	978610	keystroke_r	r	n/a
489.4705	0.1495	978941	keystroke_a	a	n/a
489.5755	0.1655	979151	keystroke_c	c	n/a
489.725	0.15	979450	keystroke_k	k	n/a
490.251	0.104	980502	keystroke_Key.space	Key.space	n/a
490.446	0.045	980892	keystroke_b	b	n/a
490.551	0.149	981102	keystroke_o	o	n/a
490.641	0.135	981282	keystroke_t	t	n/a
490.79	0.1505	981580	keystroke_h	h	n/a
492.59	0.1805	985180	keystroke_Key.enter	Key.enter	n/a
492.7745	5.3075	985549	prompt	n/a	tried pending paid heater\n
493.5655	0.105	987131	keystroke_t	t	n/a
493.7755	0.105	987551	keystroke_r	r	n/a
493.8955	0.12	987791	keystroke_i	i	n/a
493.9855	0.1195	987971	keystroke_e	e	n/a
494.18	0.15	988360	keystroke_d	d	n/a
494.405	0.15	988810	keystroke_Key.space	Key.space	n/a
494.6	0.15	989200	keystroke_p	p	n/a
494.705	0.135	989410	keystroke_e	e	n/a
494.841	0.104	989682	keystroke_n	n	n/a
494.93	0.1355	989860	keystroke_d	d	n/a
495.0355	0.15	990071	keystroke_i	i	n/a
495.0955	0.15	990191	keystroke_n	n	n/a
495.2155	0.105	990431	keystroke_g	g	n/a
495.3355	0.12	990671	keystroke_Key.space	Key.space	n/a
495.5155	0.1505	991031	keystroke_p	p	n/a
495.6505	0.135	991301	keystroke_a	a	n/a
495.8605	0.135	991721	keystroke_i	i	n/a
495.9655	0.15	991931	keystroke_d	d	n/a
496.2205	0.165	992441	keystroke_Key.space	Key.space	n/a
496.505	0.106	993010	keystroke_h	h	n/a
496.535	0.121	993070	keystroke_e	e	n/a
496.7155	0.165	993431	keystroke_a	a	n/a
497.1655	0.09	994331	keystroke_t	t	n/a
497.3455	0.105	994691	keystroke_e	e	n/a
497.4055	0.12	994811	keystroke_r	r	n/a
497.9455	0.1355	995891	keystroke_Key.enter	Key.enter	n/a
498.0865	12.6405	996173	prompt	n/a	tragedy succeed stories safety\n
498.8	0.09	997600	keystroke_t	t	n/a
499.0255	0.105	998051	keystroke_r	r	n/a
499.1755	0.18	998351	keystroke_a	a	n/a
499.4155	0.09	998831	keystroke_g	g	n/a
499.5955	0.12	999191	keystroke_e	e	n/a
500.586	0.1345	1001172	keystroke_g	g	n/a
501.2305	0.105	1002461	keystroke_Key.backspace	Key.backspace	n/a
501.3505	0.15	1002701	keystroke_d	d	n/a
501.4855	0.12	1002971	keystroke_y	y	n/a
502.205	0.165	1004410	keystroke_Key.space	Key.space	n/a
502.46	0.135	1004920	keystroke_s	s	n/a
502.61	0.15	1005220	keystroke_u	u	n/a
502.745	0.105	1005490	keystroke_c	c	n/a
502.97	0.135	1005940	keystroke_c	c	n/a
503.136	0.1345	1006272	keystroke_e	e	n/a
503.4355	0.1645	1006871	keystroke_d	d	n/a
504.5005	0.09	1009001	keystroke_Key.backspace	Key.backspace	n/a
504.6055	0.105	1009211	keystroke_e	e	n/a
505.4455	0.15	1010891	keystroke_d	d	n/a
505.9855	0.18	1011971	keystroke_Key.space	Key.space	n/a
506.1805	0.135	1012361	keystroke_s	s	n/a
506.3905	0.09	1012781	keystroke_t	t	n/a
506.5255	0.1645	1013051	keystroke_o	o	n/a
506.63	0.12	1013260	keystroke_r	r	n/a
507.1255	0.135	1014251	keystroke_i	i	n/a
507.1855	0.1195	1014371	keystroke_e	e	n/a
507.38	0.15	1014760	keystroke_s	s	n/a
507.65	0.165	1015300	keystroke_Key.space	Key.space	n/a
507.875	0.105	1015750	keystroke_s	s	n/a
508.385	0.15	1016770	keystroke_a	a	n/a
508.8655	0.12	1017731	keystroke_f	f	n/a
509.0605	0.135	1018121	keystroke_e	e	n/a
509.705	0.15	1019410	keystroke_t	t	n/a
509.825	0.135	1019650	keystroke_y	y	n/a
510.515	0.2105	1021030	keystroke_Key.enter	Key.enter	n/a
510.7305	9.6715	1021461	prompt	n/a	sunrise taiwan patch gloves\n
511.415	0.135	1022830	keystroke_s	s	n/a
511.565	0.12	1023130	keystroke_u	u	n/a
512.015	0.135	1024030	keystroke_n	n	n/a
512.315	0.15	1024630	keystroke_r	r	n/a
512.42	0.15	1024840	keystroke_i	i	n/a
512.6	0.21	1025200	keystroke_s	s	n/a
512.705	0.21	1025410	keystroke_e	e	n/a
513.14	0.15	1026280	keystroke_Key.space	Key.space	n/a
513.32	0.135	1026640	keystroke_t	t	n/a
513.56	0.195	1027120	keystroke_a	a	n/a
513.98	0.165	1027960	keystroke_i	i	n/a
514.22	0.105	1028440	keystroke_w	w	n/a
514.4	0.15	1028800	keystroke_a	a	n/a
514.7755	0.135	1029551	keystroke_n	n	n/a
515.645	0.15	1031290	keystroke_Key.space	Key.space	n/a
515.9	0.135	1031800	keystroke_p	p	n/a
516.1255	0.105	1032251	keystroke_a	a	n/a
516.3355	0.12	1032671	keystroke_t	t	n/a
516.6055	0.135	1033211	keystroke_c	c	n/a
516.7555	0.105	1033511	keystroke_h	h	n/a
519.0075	0.073	1038015	keystroke_Key.space	Key.space	n/a
519.2605	0.15	1038521	keystroke_g	g	n/a
519.4255	0.1045	1038851	keystroke_l	l	n/a
519.6205	0.135	1039241	keystroke_o	o	n/a
519.6655	0.12	1039331	keystroke_v	v	n/a
519.8755	0.105	1039751	keystroke_e	e	n/a
520.0705	0.135	1040141	keystroke_s	s	n/a
520.2355	0.165	1040471	keystroke_Key.enter	Key.enter	n/a
520.4055	10.947	1040811	prompt	n/a	wifi derek turtle equipment\n
521.33	0.15	1042660	keystroke_w	w	n/a
521.615	0.12	1043230	keystroke_i	i	n/a
521.705	0.135	1043410	keystroke_f	f	n/a
521.825	0.135	1043650	keystroke_i	i	n/a
522.471	0.1045	1044942	keystroke_Key.space	Key.space	n/a
522.635	0.12	1045270	keystroke_d	d	n/a
522.83	0.12	1045660	keystroke_e	e	n/a
523.04	0.06	1046080	keystroke_f	f	n/a
523.7305	0.1055	1047461	keystroke_Key.backspace	Key.backspace	n/a
523.8205	0.1355	1047641	keystroke_r	r	n/a
523.926	0.1345	1047852	keystroke_e	e	n/a
524.5255	0.1505	1049051	keystroke_k	k	n/a
525.1705	0.165	1050341	keystroke_Key.space	Key.space	n/a
525.906	0.105	1051812	keystroke_t	t	n/a
526.026	0.1045	1052052	keystroke_u	u	n/a
526.1005	0.1355	1052201	keystroke_r	r	n/a
526.851	0.105	1053702	keystroke_t	t	n/a
527.1505	0.135	1054301	keystroke_l	l	n/a
527.2555	0.135	1054511	keystroke_e	e	n/a
527.841	0.12	1055682	keystroke_Key.space	Key.space	n/a
528.081	0.1205	1056162	keystroke_q	q	n/a
528.9055	0.105	1057811	keystroke_Key.backspace	Key.backspace	n/a
529.0255	0.1355	1058051	keystroke_e	e	n/a
529.221	0.15	1058442	keystroke_q	q	n/a
529.326	0.18	1058652	keystroke_u	u	n/a
529.446	0.195	1058892	keystroke_i	i	n/a
529.8365	0.18	1059673	keystroke_p	p	n/a
530.346	0.105	1060692	keystroke_m	m	n/a
530.421	0.1345	1060842	keystroke_e	e	n/a
530.5405	0.1205	1061081	keystroke_n	n	n/a
530.676	0.09	1061352	keystroke_t	t	n/a
531.186	0.165	1062372	keystroke_Key.enter	Key.enter	n/a
531.3555	12.627	1062711	prompt	n/a	pursue up editions heather\n
532.266	0.135	1064532	keystroke_p	p	n/a
532.566	0.135	1065132	keystroke_u	u	n/a
532.671	0.12	1065342	keystroke_r	r	n/a
533.016	0.165	1066032	keystroke_s	s	n/a
533.1955	0.12	1066391	keystroke_u	u	n/a
533.3605	0.135	1066721	keystroke_r	r	n/a
533.4355	0.18	1066871	keystroke_e	e	n/a
533.9755	0.06	1067951	keystroke_Key.backspace	Key.backspace	n/a
534.1405	0.12	1068281	keystroke_Key.backspace	Key.backspace	n/a
534.2305	0.15	1068461	keystroke_e	e	n/a
534.696	0.15	1069392	keystroke_Key.space	Key.space	n/a
534.891	0.15	1069782	keystroke_u	u	n/a
534.951	0.225	1069902	keystroke_p	p	n/a
535.086	0.18	1070172	keystroke_Key.space	Key.space	n/a
536.0905	0.105	1072181	keystroke_e	e	n/a
536.2855	0.135	1072571	keystroke_d	d	n/a
536.4055	0.12	1072811	keystroke_i	i	n/a
536.5555	0.1205	1073111	keystroke_t	t	n/a
536.646	0.15	1073292	keystroke_i	i	n/a
536.751	0.195	1073502	keystroke_o	o	n/a
536.841	0.165	1073682	keystroke_n	n	n/a
537.0205	0.165	1074041	keystroke_s	s	n/a
537.3205	0.151	1074641	keystroke_Key.space	Key.space	n/a
537.6065	0.1045	1075213	keystroke_h	h	n/a
537.6215	0.1045	1075243	keystroke_e	e	n/a
537.786	0.1505	1075572	keystroke_a	a	n/a
538.2505	0.166	1076501	keystroke_l	l	n/a
538.4755	0.106	1076951	keystroke_t	t	n/a
538.5815	0.119	1077163	keystroke_h	h	n/a
540.0065	0.149	1080013	keystroke_i	i	n/a
540.1265	0.104	1080253	keystroke_e	e	n/a
540.6355	0.105	1081271	keystroke_Key.backspace	Key.backspace	n/a
540.8455	0.12	1081691	keystroke_Key.backspace	Key.backspace	n/a
541.0705	0.12	1082141	keystroke_Key.backspace	Key.backspace	n/a
541.3705	0.166	1082741	keystroke_Key.backspace	Key.backspace	n/a
542.5105	0.09	1085021	keystroke_Key.backspace	Key.backspace	n/a
543.3365	0.0895	1086673	keystroke_t	t	n/a
543.441	0.105	1086882	keystroke_h	h	n/a
543.501	0.105	1087002	keystroke_e	e	n/a
543.591	0.105	1087182	keystroke_r	r	n/a
543.831	0.15	1087662	keystroke_Key.enter	Key.enter	n/a
543.987	10.9605	1087974	prompt	n/a	alloy virgin bill probability\n
544.9105	0.1355	1089821	keystroke_a	a	n/a
545.076	0.075	1090152	keystroke_l	l	n/a
545.226	0.09	1090452	keystroke_l	l	n/a
545.406	0.1505	1090812	keystroke_o	o	n/a
545.6615	0.135	1091323	keystroke_y	y	n/a
545.8715	0.135	1091743	keystroke_Key.space	Key.space	n/a
546.1715	0.09	1092343	keystroke_v	v	n/a
546.2915	0.135	1092583	keystroke_i	i	n/a
546.3965	0.12	1092793	keystroke_r	r	n/a
546.696	0.135	1093392	keystroke_g	g	n/a
546.832	0.224	1093664	keystroke_i	i	n/a
546.936	0.075	1093872	keystroke_o	o	n/a
547.026	0.195	1094052	keystroke_n	n	n/a
547.6565	0.045	1095313	keystroke_Key.backspace	Key.backspace	n/a
547.7165	0.015	1095433	keystroke_Key.backspace	Key.backspace	n/a
547.8065	0.15	1095613	keystroke_Key.backspace	Key.backspace	n/a
548.5715	0.165	1097143	keystroke_i	i	n/a
548.7215	0.15	1097443	keystroke_n	n	n/a
549.4565	0.1495	1098913	keystroke_Key.space	Key.space	n/a
549.726	0.09	1099452	keystroke_b	b	n/a
549.8615	0.12	1099723	keystroke_i	i	n/a
550.2365	0.09	1100473	keystroke_l	l	n/a
550.3865	0.15	1100773	keystroke_l	l	n/a
551.061	0.12	1102122	keystroke_Key.space	Key.space	n/a
551.226	0.105	1102452	keystroke_p	p	n/a
551.346	0.135	1102692	keystroke_r	r	n/a
551.436	0.15	1102872	keystroke_o	o	n/a
552.021	0.12	1104042	keystroke_b	b	n/a
552.156	0.18	1104312	keystroke_a	a	n/a
552.6965	0.12	1105393	keystroke_b	b	n/a
553.4015	0.1195	1106803	keystroke_i	i	n/a
553.6115	0.105	1107223	keystroke_l	l	n/a
553.8365	0.135	1107673	keystroke_i	i	n/a
554.0315	0.15	1108063	keystroke_t	t	n/a
554.1365	0.15	1108273	keystroke_y	y	n/a
554.766	0.1795	1109532	keystroke_Key.enter	Key.enter	n/a
554.9505	7.4525	1109901	prompt	n/a	candy david potato incoming\n
555.7705	0.1355	1111541	keystroke_c	c	n/a
555.921	0.1505	1111842	keystroke_a	a	n/a
556.0115	0.135	1112023	keystroke_n	n	n/a
556.1315	0.1495	1112263	keystroke_d	d	n/a
556.401	0.135	1112802	keystroke_y	y	n/a
556.671	0.15	1113342	keystroke_Key.space	Key.space	n/a
557.076	0.12	1114152	keystroke_d	d	n/a
557.256	0.1805	1114512	keystroke_a	a	n/a
557.586	0.105	1115172	keystroke_v	v	n/a
557.721	0.135	1115442	keystroke_i	i	n/a
557.826	0.15	1115652	keystroke_d	d	n/a
558.441	0.135	1116882	keystroke_Key.space	Key.space	n/a
558.6505	0.1355	1117301	keystroke_p	p	n/a
559.131	0.165	1118262	keystroke_o	o	n/a
559.476	0.105	1118952	keystroke_t	t	n/a
559.656	0.1355	1119312	keystroke_a	a	n/a
559.8965	0.12	1119793	keystroke_t	t	n/a
560.0015	0.15	1120003	keystroke_o	o	n/a
560.6915	0.15	1121383	keystroke_Key.space	Key.space	n/a
560.9165	0.18	1121833	keystroke_i	i	n/a
560.9915	0.135	1121983	keystroke_n	n	n/a
561.1715	0.15	1122343	keystroke_c	c	n/a
561.2915	0.12	1122583	keystroke_o	o	n/a
561.5165	0.105	1123033	keystroke_m	m	n/a
561.7415	0.1195	1123483	keystroke_i	i	n/a
561.8015	0.1345	1123603	keystroke_n	n	n/a
561.921	0.12	1123842	keystroke_g	g	n/a
562.236	0.165	1124472	keystroke_Key.enter	Key.enter	n/a
562.4055	8.2025	1124811	prompt	n/a	charming ukraine international sent\n
563.3165	0.1645	1126633	keystroke_c	c	n/a
563.482	0.134	1126964	keystroke_h	h	n/a
563.571	0.15	1127142	keystroke_a	a	n/a
563.631	0.15	1127262	keystroke_r	r	n/a
563.826	0.045	1127652	keystroke_m	m	n/a
563.991	0.12	1127982	keystroke_i	i	n/a
564.066	0.12	1128132	keystroke_n	n	n/a
564.156	0.105	1128312	keystroke_g	g	n/a
564.276	0.105	1128552	keystroke_Key.space	Key.space	n/a
564.562	0.1195	1129124	keystroke_u	u	n/a
564.8615	0.15	1129723	keystroke_k	k	n/a
565.1315	0.12	1130263	keystroke_r	r	n/a
565.2965	0.165	1130593	keystroke_a	a	n/a
566.407	0.135	1132814	keystroke_i	i	n/a
566.527	0.165	1133054	keystroke_n	n	n/a
566.677	0.135	1133354	keystroke_e	e	n/a
567.231	0.15	1134462	keystroke_Key.space	Key.space	n/a
567.607	0.164	1135214	keystroke_i	i	n/a
567.6665	0.1505	1135333	keystroke_n	n	n/a
567.786	0.09	1135572	keystroke_t	t	n/a
567.922	0.15	1135844	keystroke_e	e	n/a
568.011	0.1205	1136022	keystroke_r	r	n/a
568.206	0.136	1136412	keystroke_n	n	n/a
568.327	0.135	1136654	keystroke_a	a	n/a
568.477	0.12	1136954	keystroke_t	t	n/a
568.522	0.1795	1137044	keystroke_i	i	n/a
568.612	0.1645	1137224	keystroke_o	o	n/a
568.687	0.1645	1137374	keystroke_n	n	n/a
568.8065	0.135	1137613	keystroke_a	a	n/a
568.9265	0.15	1137853	keystroke_l	l	n/a
569.0015	0.1795	1138003	keystroke_Key.space	Key.space	n/a
569.7215	0.165	1139443	keystroke_s	s	n/a
569.7965	0.18	1139593	keystroke_e	e	n/a
569.9915	0.135	1139983	keystroke_n	n	n/a
570.0965	0.12	1140193	keystroke_t	t	n/a
570.4265	0.18	1140853	keystroke_Key.enter	Key.enter	n/a
570.611	8.217	1141222	prompt	n/a	auction ebony 'twas zambia\n
571.5365	0.135	1143073	keystroke_a	a	n/a
571.6865	0.105	1143373	keystroke_c	c	n/a
572.0915	0.09	1144183	keystroke_Key.backspace	Key.backspace	n/a
572.3315	0.105	1144663	keystroke_u	u	n/a
572.3915	0.135	1144783	keystroke_c	c	n/a
572.6765	0.1055	1145353	keystroke_t	t	n/a
572.752	0.135	1145504	keystroke_i	i	n/a
572.842	0.18	1145684	keystroke_o	o	n/a
572.917	0.18	1145834	keystroke_n	n	n/a
573.127	0.135	1146254	keystroke_Key.space	Key.space	n/a
573.292	0.15	1146584	keystroke_e	e	n/a
573.667	0.105	1147334	keystroke_b	b	n/a
573.862	0.165	1147724	keystroke_o	o	n/a
574.117	0.105	1148234	keystroke_n	n	n/a
574.3565	0.135	1148713	keystroke_y	y	n/a
574.672	0.1495	1149344	keystroke_Key.space	Key.space	n/a
575.361	0.1655	1150722	keystroke_'	'	n/a
575.6465	0.135	1151293	keystroke_t	t	n/a
576.1115	0.105	1152223	keystroke_w	w	n/a
576.3065	0.12	1152613	keystroke_a	a	n/a
576.3515	0.165	1152703	keystroke_s	s	n/a
576.7115	0.15	1153423	keystroke_Key.space	Key.space	n/a
577.0415	0.135	1154083	keystroke_z	z	n/a
577.2515	0.15	1154503	keystroke_a	a	n/a
577.3715	0.12	1154743	keystroke_m	m	n/a
577.6565	0.0905	1155313	keystroke_b	b	n/a
577.807	0.164	1155614	keystroke_i	i	n/a
577.897	0.149	1155794	keystroke_a	a	n/a
578.661	0.165	1157322	keystroke_Key.enter	Key.enter	n/a
578.831	9.282	1157662	prompt	n/a	luggage auditor decision dollar\n
579.666	0.12	1159332	keystroke_l	l	n/a
579.891	0.1355	1159782	keystroke_u	u	n/a
580.3415	0.0745	1160683	keystroke_j	j	n/a
580.807	0.12	1161614	keystroke_Key.backspace	Key.backspace	n/a
580.972	0.09	1161944	keystroke_g	g	n/a
581.167	0.105	1162334	keystroke_g	g	n/a
581.3315	0.165	1162663	keystroke_a	a	n/a
581.4665	0.12	1162933	keystroke_g	g	n/a
581.6765	0.165	1163353	keystroke_e	e	n/a
582.3365	0.18	1164673	keystroke_Key.space	Key.space	n/a
582.5915	0.135	1165183	keystroke_a	a	n/a
582.7415	0.135	1165483	keystroke_u	u	n/a
583.0565	0.165	1166113	keystroke_d	d	n/a
583.2065	0.15	1166413	keystroke_i	i	n/a
583.4765	0.075	1166953	keystroke_t	t	n/a
583.5665	0.135	1167133	keystroke_o	o	n/a
583.6565	0.135	1167313	keystroke_r	r	n/a
583.9715	0.135	1167943	keystroke_Key.space	Key.space	n/a
584.2415	0.105	1168483	keystroke_d	d	n/a
584.4665	0.12	1168933	keystroke_e	e	n/a
585.202	0.135	1170404	keystroke_c	c	n/a
585.397	0.105	1170794	keystroke_i	i	n/a
585.532	0.135	1171064	keystroke_s	s	n/a
585.622	0.195	1171244	keystroke_i	i	n/a
585.712	0.21	1171424	keystroke_o	o	n/a
585.862	0.12	1171724	keystroke_n	n	n/a
586.027	0.12	1172054	keystroke_Key.space	Key.space	n/a
586.237	0.1645	1172474	keystroke_d	d	n/a
586.8065	0.105	1173613	keystroke_o	o	n/a
587.0315	0.075	1174063	keystroke_l	l	n/a
587.1965	0.15	1174393	keystroke_l	l	n/a
587.2565	0.195	1174513	keystroke_a	a	n/a
587.3315	0.21	1174663	keystroke_r	r	n/a
587.961	0.15	1175922	keystroke_Key.enter	Key.enter	n/a
588.1155	10.723	1176231	prompt	n/a	together watt notify vinyl\n
592.2235	0.058	1184447	keystroke_t	t	n/a
592.2665	0.15	1184533	keystroke_o	o	n/a
592.627	0.1045	1185254	keystroke_g	g	n/a
592.807	0.1195	1185614	keystroke_e	e	n/a
592.9875	0.089	1185975	keystroke_t	t	n/a
593.137	0.1195	1186274	keystroke_h	h	n/a
593.1815	0.136	1186363	keystroke_e	e	n/a
593.2715	0.1355	1186543	keystroke_r	r	n/a
593.497	0.15	1186994	keystroke_Key.space	Key.space	n/a
593.707	0.105	1187414	keystroke_w	w	n/a
594.007	0.165	1188014	keystroke_a	a	n/a
594.307	0.09	1188614	keystroke_t	t	n/a
594.487	0.105	1188974	keystroke_t	t	n/a
595.1315	0.15	1190263	keystroke_Key.space	Key.space	n/a
595.5215	0.15	1191043	keystroke_n	n	n/a
595.6415	0.135	1191283	keystroke_o	o	n/a
595.7465	0.105	1191493	keystroke_t	t	n/a
595.927	0.12	1191854	keystroke_i	i	n/a
596.137	0.15	1192274	keystroke_f	f	n/a
596.272	0.12	1192544	keystroke_y	y	n/a
596.497	0.1495	1192994	keystroke_Key.space	Key.space	n/a
596.8865	0.135	1193773	keystroke_v	v	n/a
597.502	0.075	1195004	keystroke_i	i	n/a
597.682	0.12	1195364	keystroke_n	n	n/a
597.967	0.12	1195934	keystroke_y	y	n/a
598.207	0.15	1196414	keystroke_l	l	n/a
598.342	0.135	1196684	keystroke_e	e	n/a
598.642	0.1945	1197284	keystroke_Key.enter	Key.enter	n/a
598.8425	0.2055	1197685	prompt	n/a	coordinated elements constitution architecture\n
598.8665	0.18	1197733	keystroke_Key.enter	Key.enter	n/a
599.0505	9.4475	1198101	prompt	n/a	worn spend christian stories\n
600.037	0.12	1200074	keystroke_w	w	n/a
600.127	0.12	1200254	keystroke_o	o	n/a
600.202	0.135	1200404	keystroke_r	r	n/a
600.322	0.165	1200644	keystroke_n	n	n/a
600.7415	0.135	1201483	keystroke_Key.space	Key.space	n/a
600.9365	0.135	1201873	keystroke_s	s	n/a
601.0415	0.12	1202083	keystroke_p	p	n/a
601.1465	0.15	1202293	keystroke_e	e	n/a
601.2515	0.121	1202503	keystroke_n	n	n/a
601.3865	0.165	1202773	keystroke_d	d	n/a
604.374	0.088	1208748	keystroke_Key.space	Key.space	n/a
604.477	0.1345	1208954	keystroke_c	c	n/a
604.597	0.1195	1209194	keystroke_h	h	n/a
604.8965	0.135	1209793	keystroke_r	r	n/a
605.0465	0.165	1210093	keystroke_i	i	n/a
605.3765	0.15	1210753	keystroke_s	s	n/a
605.5865	0.135	1211173	keystroke_t	t	n/a
605.7065	0.105	1211413	keystroke_i	i	n/a
605.8265	0.165	1211653	keystroke_a	a	n/a
605.9465	0.135	1211893	keystroke_n	n	n/a
606.3515	0.135	1212703	keystroke_Key.space	Key.space	n/a
606.8615	0.12	1213723	keystroke_s	s	n/a
607.0415	0.1055	1214083	keystroke_t	t	n/a
607.162	0.135	1214324	keystroke_o	o	n/a
607.282	0.12	1214564	keystroke_r	r	n/a
607.447	0.105	1214894	keystroke_i	i	n/a
607.477	0.12	1214954	keystroke_e	e	n/a
607.657	0.165	1215314	keystroke_s	s	n/a
608.317	0.18	1216634	keystroke_Key.enter	Key.enter	n/a
608.501	10.6025	1217002	prompt	n/a	artificial transfers driven apnic\n
609.3665	0.15	1218733	keystroke_a	a	n/a
609.4565	0.1355	1218913	keystroke_r	r	n/a
609.952	0.105	1219904	keystroke_t	t	n/a
610.102	0.15	1220204	keystroke_i	i	n/a
610.357	0.12	1220714	keystroke_f	f	n/a
610.462	0.135	1220924	keystroke_i	i	n/a
610.672	0.165	1221344	keystroke_c	c	n/a
610.867	0.135	1221734	keystroke_i	i	n/a
611.407	0.165	1222814	keystroke_a	a	n/a
611.557	0.24	1223114	keystroke_l	l	n/a
611.707	0.165	1223414	keystroke_Key.space	Key.space	n/a
612.202	0.09	1224404	keystroke_t	t	n/a
612.397	0.09	1224794	keystroke_r	r	n/a
612.517	0.1505	1225034	keystroke_a	a	n/a
612.652	0.12	1225304	keystroke_n	n	n/a
612.772	0.0895	1225544	keystroke_s	s	n/a
612.982	0.12	1225964	keystroke_f	f	n/a
613.222	0.15	1226444	keystroke_e	e	n/a
613.282	0.1945	1226564	keystroke_r	r	n/a
614.287	0.1645	1228574	keystroke_s	s	n/a
615.2765	0.165	1230553	keystroke_Key.space	Key.space	n/a
615.5015	0.136	1231003	keystroke_d	d	n/a
615.9075	0.119	1231815	keystroke_r	r	n/a
616.0415	0.136	1232083	keystroke_i	i	n/a
616.1925	0.089	1232385	keystroke_v	v	n/a
616.3565	0.121	1232713	keystroke_e	e	n/a
616.4475	0.134	1232895	keystroke_n	n	n/a
616.822	0.15	1233644	keystroke_Key.space	Key.space	n/a
617.362	0.18	1234724	keystroke_a	a	n/a
617.647	0.1355	1235294	keystroke_p	p	n/a
617.8865	0.121	1235773	keystroke_n	n	n/a
618.0225	0.165	1236045	keystroke_i	i	n/a
618.2025	0.149	1236405	keystroke_c	c	n/a
618.9525	0.149	1237905	keystroke_Key.enter	Key.enter	n/a
619.107	6.7615	1238214	prompt	n/a	algeria routes policy voip\n
620.017	0.18	1240034	keystroke_a	a	n/a
620.257	0.1495	1240514	keystroke_l	l	n/a
620.707	0.075	1241414	keystroke_g	g	n/a
620.9325	0.12	1241865	keystroke_e	e	n/a
621.1575	0.12	1242315	keystroke_r	r	n/a
621.2325	0.1345	1242465	keystroke_i	i	n/a
621.337	0.1655	1242674	keystroke_a	a	n/a
621.5175	0.15	1243035	keystroke_Key.space	Key.space	n/a
621.832	0.12	1243664	keystroke_r	r	n/a
621.892	0.18	1243784	keystroke_o	o	n/a
621.967	0.165	1243934	keystroke_u	u	n/a
622.117	0.075	1244234	keystroke_t	t	n/a
622.252	0.12	1244504	keystroke_e	e	n/a
622.447	0.135	1244894	keystroke_s	s	n/a
622.6275	0.12	1245255	keystroke_Key.space	Key.space	n/a
622.852	0.135	1245704	keystroke_p	p	n/a
623.257	0.12	1246514	keystroke_o	o	n/a
623.467	0.12	1246934	keystroke_l	l	n/a
623.632	0.1355	1247264	keystroke_i	i	n/a
623.7375	0.15	1247475	keystroke_c	c	n/a
623.8725	0.1505	1247745	keystroke_y	y	n/a
624.2025	0.135	1248405	keystroke_Key.space	Key.space	n/a
624.6065	0.136	1249213	keystroke_v	v	n/a
624.8325	0.18	1249665	keystroke_o	o	n/a
624.9225	0.18	1249845	keystroke_i	i	n/a
625.2815	0.166	1250563	keystroke_p	p	n/a
625.702	0.165	1251404	keystroke_Key.enter	Key.enter	n/a
625.8715	5.802	1251743	prompt	n/a	worn hosted susan shaped\n
626.8425	0.119	1253685	keystroke_w	w	n/a
626.9315	0.105	1253863	keystroke_o	o	n/a
627.0215	0.12	1254043	keystroke_r	r	n/a
627.0965	0.151	1254193	keystroke_n	n	n/a
627.307	0.15	1254614	keystroke_Key.space	Key.space	n/a
627.637	0.09	1255274	keystroke_h	h	n/a
627.742	0.18	1255484	keystroke_o	o	n/a
627.847	0.18	1255694	keystroke_s	s	n/a
627.937	0.12	1255874	keystroke_t	t	n/a
628.102	0.135	1256204	keystroke_e	e	n/a
628.327	0.15	1256654	keystroke_d	d	n/a
628.552	0.15	1257104	keystroke_Key.space	Key.space	n/a
628.8675	0.135	1257735	keystroke_s	s	n/a
628.9875	0.12	1257975	keystroke_u	u	n/a
629.1225	0.15	1258245	keystroke_s	s	n/a
629.3625	0.165	1258725	keystroke_a	a	n/a
629.4825	0.15	1258965	keystroke_n	n	n/a
630.1725	0.15	1260345	keystroke_Key.space	Key.space	n/a
630.3825	0.1045	1260765	keystroke_s	s	n/a
630.517	0.12	1261034	keystroke_h	h	n/a
630.592	0.15	1261184	keystroke_a	a	n/a
630.772	0.15	1261544	keystroke_p	p	n/a
630.907	0.105	1261814	keystroke_e	e	n/a
631.207	0.1505	1262414	keystroke_d	d	n/a
631.522	0.15	1263044	keystroke_Key.enter	Key.enter	n/a
631.6775	11.4565	1263355	prompt	n/a	treasury warren compound vulnerability\n
632.767	0.015	1265534	keystroke_t	t	n/a
632.902	0.15	1265804	keystroke_r	r	n/a
633.022	0.135	1266044	keystroke_e	e	n/a
633.1875	0.15	1266375	keystroke_a	a	n/a
633.2925	0.1805	1266585	keystroke_d	d	n/a
633.997	0.09	1267994	keystroke_Key.backspace	Key.backspace	n/a
634.102	0.135	1268204	keystroke_s	s	n/a
634.207	0.12	1268414	keystroke_u	u	n/a
634.447	0.1655	1268894	keystroke_r	r	n/a
634.597	0.1355	1269194	keystroke_y	y	n/a
635.2275	0.15	1270455	keystroke_Key.space	Key.space	n/a
635.4075	0.135	1270815	keystroke_w	w	n/a
635.6175	0.15	1271235	keystroke_a	a	n/a
635.7075	0.105	1271415	keystroke_r	r	n/a
635.9175	0.105	1271835	keystroke_r	r	n/a
636.0375	0.165	1272075	keystroke_e	e	n/a
636.1875	0.105	1272375	keystroke_n	n	n/a
636.3075	0.105	1272615	keystroke_t	t	n/a
636.4575	0.105	1272915	keystroke_Key.space	Key.space	n/a
636.623	0.135	1273246	keystroke_c	c	n/a
636.713	0.135	1273426	keystroke_o	o	n/a
636.968	0.12	1273936	keystroke_m	m	n/a
637.208	0.12	1274416	keystroke_p	p	n/a
637.553	0.165	1275106	keystroke_o	o	n/a
637.628	0.1345	1275256	keystroke_u	u	n/a
637.852	0.135	1275704	keystroke_n	n	n/a
638.257	0.165	1276514	keystroke_d	d	n/a
638.542	0.15	1277084	keystroke_Key.space	Key.space	n/a
638.887	0.135	1277774	keystroke_v	v	n/a
639.082	0.12	1278164	keystroke_u	u	n/a
639.307	0.165	1278614	keystroke_l	l	n/a
639.502	0.121	1279004	keystroke_t	t	n/a
640.1475	0.09	1280295	keystroke_Key.backspace	Key.backspace	n/a
640.3725	0.15	1280745	keystroke_n	n	n/a
640.4625	0.135	1280925	keystroke_e	e	n/a
640.5075	0.1655	1281015	keystroke_r	r	n/a
640.9575	0.18	1281915	keystroke_a	a	n/a
641.2875	0.12	1282575	keystroke_b	b	n/a
641.9775	0.105	1283955	keystroke_i	i	n/a
642.1875	0.1045	1284375	keystroke_l	l	n/a
642.353	0.135	1284706	keystroke_i	i	n/a
642.503	0.1045	1285006	keystroke_t	t	n/a
642.5925	0.12	1285185	keystroke_y	y	n/a
642.9675	0.165	1285935	keystroke_Key.enter	Key.enter	n/a
643.1375	6.2965	1286275	prompt	n/a	older break journey deals\n
643.9425	0.09	1287885	keystroke_o	o	n/a
644.1675	0.09	1288335	keystroke_l	l	n/a
644.2275	0.09	1288455	keystroke_d	d	n/a
644.4225	0.15	1288845	keystroke_e	e	n/a
644.4975	0.195	1288995	keystroke_r	r	n/a
644.6775	0.12	1289355	keystroke_Key.space	Key.space	n/a
644.9025	0.09	1289805	keystroke_b	b	n/a
644.9775	0.135	1289955	keystroke_e	e	n/a
645.1725	0.21	1290345	keystroke_a	a	n/a
645.6525	0.09	1291305	keystroke_Key.backspace	Key.backspace	n/a
645.8325	0.12	1291665	keystroke_Key.backspace	Key.backspace	n/a
645.8925	0.1495	1291785	keystroke_r	r	n/a
645.9525	0.165	1291905	keystroke_e	e	n/a
646.1025	0.15	1292205	keystroke_a	a	n/a
646.2535	0.1495	1292507	keystroke_k	k	n/a
646.778	0.135	1293556	keystroke_Key.space	Key.space	n/a
647.003	0.09	1294006	keystroke_j	j	n/a
647.123	0.21	1294246	keystroke_o	o	n/a
647.213	0.135	1294426	keystroke_u	u	n/a
647.303	0.12	1294606	keystroke_r	r	n/a
647.438	0.105	1294876	keystroke_n	n	n/a
647.558	0.135	1295116	keystroke_e	e	n/a
647.663	0.15	1295326	keystroke_y	y	n/a
648.1575	0.12	1296315	keystroke_Key.space	Key.space	n/a
648.3825	0.1055	1296765	keystroke_d	d	n/a
648.5775	0.1055	1297155	keystroke_e	e	n/a
648.713	0.165	1297426	keystroke_a	a	n/a
648.848	0.15	1297696	keystroke_l	l	n/a
648.953	0.15	1297906	keystroke_s	s	n/a
649.253	0.18	1298506	keystroke_Key.enter	Key.enter	n/a
649.437	8.832	1298874	prompt	n/a	disk assured intl simpson\n
650.768	0.135	1301536	keystroke_s	s	n/a
651.248	0.09	1302496	keystroke_Key.backspace	Key.backspace	n/a
651.353	0.135	1302706	keystroke_d	d	n/a
651.503	0.09	1303006	keystroke_i	i	n/a
651.548	0.1495	1303096	keystroke_s	s	n/a
651.683	0.1495	1303366	keystroke_k	k	n/a
652.253	0.1645	1304506	keystroke_s	s	n/a
653.303	0.1045	1306606	keystroke_Key.backspace	Key.backspace	n/a
653.9025	0.165	1307805	keystroke_Key.space	Key.space	n/a
654.0375	0.12	1308075	keystroke_a	a	n/a
654.2475	0.09	1308495	keystroke_s	s	n/a
654.4275	0.12	1308855	keystroke_s	s	n/a
654.5625	0.135	1309125	keystroke_u	u	n/a
654.6525	0.15	1309305	keystroke_r	r	n/a
654.7275	0.12	1309455	keystroke_e	e	n/a
654.9825	0.105	1309965	keystroke_d	d	n/a
655.1325	0.135	1310265	keystroke_Key.space	Key.space	n/a
655.643	0.12	1311286	keystroke_i	i	n/a
655.883	0.12	1311766	keystroke_n	n	n/a
656.048	0.09	1312096	keystroke_t	t	n/a
656.153	0.15	1312306	keystroke_l	l	n/a
656.558	0.134	1313116	keystroke_Key.space	Key.space	n/a
656.798	0.15	1313596	keystroke_s	s	n/a
656.872	0.105	1313744	keystroke_i	i	n/a
657.098	0.029	1314196	keystroke_m	m	n/a
657.203	0.164	1314406	keystroke_p	p	n/a
657.3975	0.15	1314795	keystroke_s	s	n/a
657.5325	0.18	1315065	keystroke_o	o	n/a
657.6075	0.1945	1315215	keystroke_n	n	n/a
658.133	0.135	1316266	keystroke_Key.enter	Key.enter	n/a
658.2725	14.382	1316545	prompt	n/a	glance electron untitled logs\n
659.453	0.12	1318906	keystroke_g	g	n/a
659.708	0.12	1319416	keystroke_l	l	n/a
659.813	0.15	1319626	keystroke_a	a	n/a
659.918	0.1645	1319836	keystroke_n	n	n/a
660.0375	0.21	1320075	keystroke_c	c	n/a
660.2025	0.135	1320405	keystroke_e	e	n/a
660.3975	0.12	1320795	keystroke_Key.space	Key.space	n/a
660.5775	0.1205	1321155	keystroke_e	e	n/a
660.683	0.15	1321366	keystroke_l	l	n/a
660.848	0.12	1321696	keystroke_e	e	n/a
661.463	0.12	1322926	keystroke_c	c	n/a
661.748	0.105	1323496	keystroke_t	t	n/a
661.928	0.12	1323856	keystroke_o	o	n/a
662.048	0.12	1324096	keystroke_r	r	n/a
662.213	0.15	1324426	keystroke_n	n	n/a
662.9925	0.075	1325985	keystroke_Key.backspace	Key.backspace	n/a
663.158	0.135	1326316	keystroke_Key.backspace	Key.backspace	n/a
663.3825	0.15	1326765	keystroke_r	r	n/a
663.7275	0.09	1327455	keystroke_Key.backspace	Key.backspace	n/a
663.908	0.0895	1327816	keystroke_Key.backspace	Key.backspace	n/a
663.9975	0.15	1327995	keystroke_r	r	n/a
664.1625	0.151	1328325	keystroke_o	o	n/a
664.2225	0.165	1328445	keystroke_n	n	n/a
664.883	0.12	1329766	keystroke_Key.space	Key.space	n/a
665.108	0.105	1330216	keystroke_m	m	n/a
665.318	0.09	1330636	keystroke_u	u	n/a
665.528	0.09	1331056	keystroke_n	n	n/a
665.633	0.12	1331266	keystroke_t	t	n/a
665.738	0.135	1331476	keystroke_i	i	n/a
665.903	0.135	1331806	keystroke_t	t	n/a
666.788	0.09	1333576	keystroke_Key.backspace	Key.backspace	n/a
666.968	0.09	1333936	keystroke_Key.backspace	Key.backspace	n/a
667.148	0.075	1334296	keystroke_Key.backspace	Key.backspace	n/a
667.313	0.075	1334626	keystroke_Key.backspace	Key.backspace	n/a
667.463	0.09	1334926	keystroke_Key.backspace	Key.backspace	n/a
667.853	0.15	1335706	keystroke_Key.backspace	Key.backspace	n/a
668.198	0.105	1336396	keystroke_u	u	n/a
668.663	0.09	1337326	keystroke_t	t	n/a
669.038	0.12	1338076	keystroke_Key.backspace	Key.backspace	n/a
669.278	0.12	1338556	keystroke_n	n	n/a
669.488	0.1345	1338976	keystroke_t	t	n/a
669.6375	0.12	1339275	keystroke_i	i	n/a
669.983	0.15	1339966	keystroke_t	t	n/a
670.358	0.15	1340716	keystroke_l	l	n/a
670.6125	0.121	1341225	keystroke_e	e	n/a
671.213	0.1345	1342426	keystroke_d	d	n/a
671.6325	0.105	1343265	keystroke_Key.space	Key.space	n/a
671.8125	0.12	1343625	keystroke_l	l	n/a
672.0075	0.12	1344015	keystroke_o	o	n/a
672.0975	0.075	1344195	keystroke_g	g	n/a
672.2475	0.135	1344495	keystroke_s	s	n/a
672.4725	0.18	1344945	keystroke_Key.enter	Key.enter	n/a
672.6575	13.2565	1345315	prompt	n/a	psychiatry motherboard fare browsers\n
673.5675	0.15	1347135	keystroke_p	p	n/a
674.033	0.165	1348066	keystroke_s	s	n/a
674.153	0.12	1348306	keystroke_y	y	n/a
674.573	0.15	1349146	keystroke_c	c	n/a
674.693	0.135	1349386	keystroke_h	h	n/a
