onset	duration	sample	value	key	prompt_text
30.893	17.0915	61786	prompt	n/a	the quick brown fox jumps over a lazy dog\n
33.779	0.058	67558	keystroke_t	t	n/a
33.822	0.075	67644	keystroke_h	h	n/a
33.942	0.165	67884	keystroke_e	e	n/a
34.062	0.12	68124	keystroke_Key.space	Key.space	n/a
34.287	0.135	68574	keystroke_q	q	n/a
34.407	0.075	68814	keystroke_u	u	n/a
35.082	0.06	70164	keystroke_u	u	n/a
35.547	0.09	71094	keystroke_Key.backspace	Key.backspace	n/a
35.787	0.09	71574	keystroke_i	i	n/a
35.982	0.09	71964	keystroke_c	c	n/a
36.102	0.105	72204	keystroke_k	k	n/a
36.252	0.135	72504	keystroke_Key.space	Key.space	n/a
36.597	0.075	73194	keystroke_b	b	n/a
36.702	0.12	73404	keystroke_r	r	n/a
36.867	0.03	73734	keystroke_o	o	n/a
36.972	0.105	73944	keystroke_w	w	n/a
37.287	0.135	74574	keystroke_n	n	n/a
37.467	0.105	74934	keystroke_Key.space	Key.space	n/a
37.752	0.09	75504	keystroke_f	f	n/a
37.857	0.105	75714	keystroke_o	o	n/a
38.097	0.135	76194	keystroke_x	x	n/a
38.202	0.12	76404	keystroke_Key.space	Key.space	n/a
38.742	0.075	77484	keystroke_j	j	n/a
38.937	0.06	77874	keystroke_u	u	n/a
39.132	0.105	78264	keystroke_m	m	n/a
39.312	0.06	78624	keystroke_o	o	n/a
39.432	0.1055	78864	keystroke_s	s	n/a
39.612	0.09	79224	keystroke_Key.space	Key.space	n/a
39.747	0.135	79494	keystroke_o	o	n/a
39.8975	0.119	79795	keystroke_v	v	n/a
40.1515	0.06	80303	keystroke_Key.backspace	Key.backspace	n/a
40.2865	0.06	80573	keystroke_Key.backspace	Key.backspace	n/a
40.4215	0.045	80843	keystroke_Key.backspace	Key.backspace	n/a
40.5265	0.075	81053	keystroke_Key.backspace	Key.backspace	n/a
40.8265	0.075	81653	keystroke_Key.backspace	Key.backspace	n/a
41.0815	0.105	82163	keystroke_o	o	n/a
41.6815	0.09	83363	keystroke_Key.backspace	Key.backspace	n/a
41.9965	0.075	83993	keystroke_p	p	n/a
42.2065	0.12	84413	keystroke_s	s	n/a
42.3565	0.105	84713	keystroke_Key.space	Key.space	n/a
42.5515	0.09	85103	keystroke_o	o	n/a
42.6715	0.135	85343	keystroke_v	v	n/a
42.8215	0.15	85643	keystroke_e	e	n/a
42.9415	0.135	85883	keystroke_r	r	n/a
43.0615	0.12	86123	keystroke_Key.space	Key.space	n/a
43.2415	0.12	86483	keystroke_a	a	n/a
43.3315	0.12	86663	keystroke_Key.space	Key.space	n/a
43.5865	0.075	87173	keystroke_l	l	n/a
43.6915	0.105	87383	keystroke_a	a	n/a
43.9465	0.1355	87893	keystroke_z	z	n/a
44.052	0.12	88104	keystroke_y	y	n/a
44.202	0.105	88404	keystroke_Key.space	Key.space	n/a
44.652	0.12	89304	keystroke_g	g	n/a
44.727	0.105	89454	keystroke_o	o	n/a
44.967	0.15	89934	keystroke_d	d	n/a
45.237	0.06	90474	keystroke_Key.backspace	Key.backspace	n/a
45.387	0.045	90774	keystroke_Key.backspace	Key.backspace	n/a
45.492	0.075	90984	keystroke_Key.backspace	Key.backspace	n/a
46.752	0.12	93504	keystroke_d	d	n/a
46.842	0.105	93684	keystroke_o	o	n/a
47.172	0.135	94344	keystroke_g	g	n/a
47.892	0.09	95784	keystroke_Key.enter	Key.enter	n/a
47.995	11.074	95990	prompt	n/a	cancellation momentum adoption disclaimer\n
48.612	0.105	97224	keystroke_c	c	n/a
48.762	0.105	97524	keystroke_w	w	n/a
48.882	0.105	97764	keystroke_n	n	n/a
49.2575	0.059	98515	keystroke_Key.backspace	Key.backspace	n/a
49.3925	0.1045	98785	keystroke_Key.backspace	Key.backspace	n/a
49.482	0.105	98964	keystroke_e	e	n/a
49.782	0.075	99564	keystroke_Key.backspace	Key.backspace	n/a
49.887	0.12	99774	keystroke_a	a	n/a
50.082	0.075	100164	keystroke_n	n	n/a
50.202	0.12	100404	keystroke_c	c	n/a
50.352	0.135	100704	keystroke_e	e	n/a
50.457	0.09	100914	keystroke_l	l	n/a
50.607	0.09	101214	keystroke_l	l	n/a
50.787	0.12	101574	keystroke_a	a	n/a
51.012	0.12	102024	keystroke_t	t	n/a
51.117	0.075	102234	keystroke_i	i	n/a
51.282	0.105	102564	keystroke_o	o	n/a
51.462	0.12	102924	keystroke_n	n	n/a
51.597	0.075	103194	keystroke_Key.space	Key.space	n/a
51.732	0.12	103464	keystroke_m	m	n/a
52.047	0.09	104094	keystroke_o	o	n/a
52.467	0.09	104934	keystroke_m	m	n/a
52.587	0.12	105174	keystroke_e	e	n/a
52.722	0.105	105444	keystroke_n	n	n/a
52.857	0.12	105714	keystroke_t	t	n/a
52.992	0.075	105984	keystroke_u	u	n/a
53.502	0.12	107004	keystroke_m	m	n/a
53.637	0.12	107274	keystroke_Key.space	Key.space	n/a
53.997	0.135	107994	keystroke_a	a	n/a
54.252	0.135	108504	keystroke_d	d	n/a
54.597	0.075	109194	keystroke_o	o	n/a
54.777	0.075	109554	keystroke_p	p	n/a
54.867	0.12	109734	keystroke_t	t	n/a
55.047	0.06	110094	keystroke_i	i	n/a
55.4365	0.09	110873	keystroke_o	o	n/a
55.6615	0.15	111323	keystroke_n	n	n/a
55.7965	0.12	111593	keystroke_Key.space	Key.space	n/a
55.9615	0.15	111923	keystroke_d	d	n/a
56.0965	0.12	112193	keystroke_i	i	n/a
56.2465	0.1205	112493	keystroke_s	s	n/a
56.532	0.105	113064	keystroke_c	c	n/a
56.682	0.045	113364	keystroke_k	k	n/a
57.162	0.0895	114324	keystroke_Key.backspace	Key.backspace	n/a
57.4465	0.09	114893	keystroke_l	l	n/a
57.672	0.105	115344	keystroke_a	a	n/a
57.807	0.09	115614	keystroke_i	i	n/a
58.017	0.105	116034	keystroke_m	m	n/a
58.557	0.225	117114	keystroke_e	e	n/a
58.722	0.135	117444	keystroke_r	r	n/a
58.917	0.15	117834	keystroke_Key.enter	Key.enter	n/a
59.074	6.9845	118148	prompt	n/a	marble delhi demanding slot\n
59.937	0.105	119874	keystroke_m	m	n/a
60.012	0.15	120024	keystroke_a	a	n/a
60.192	0.105	120384	keystroke_r	r	n/a
61.3015	0.135	122603	keystroke_b	b	n/a
61.4515	0.12	122903	keystroke_l	l	n/a
61.6015	0.12	123203	keystroke_e	e	n/a
61.752	0.135	123504	keystroke_Key.space	Key.space	n/a
62.022	0.12	124044	keystroke_d	d	n/a
62.157	0.105	124314	keystroke_e	e	n/a
62.247	0.105	124494	keystroke_l	l	n/a
62.502	0.12	125004	keystroke_h	h	n/a
62.652	0.15	125304	keystroke_i	i	n/a
62.817	0.12	125634	keystroke_Key.space	Key.space	n/a
63.342	0.165	126684	keystroke_d	d	n/a
63.492	0.105	126984	keystroke_e	e	n/a
63.612	0.1045	127224	keystroke_m	m	n/a
63.7465	0.12	127493	keystroke_a	a	n/a
63.8515	0.12	127703	keystroke_n	n	n/a
63.9565	0.1355	127913	keystroke_d	d	n/a
64.077	0.09	128154	keystroke_i	i	n/a
64.227	0.135	128454	keystroke_n	n	n/a
64.332	0.105	128664	keystroke_g	g	n/a
64.407	0.1045	128814	keystroke_Key.space	Key.space	n/a
64.6315	0.12	129263	keystroke_s	s	n/a
64.7065	0.105	129413	keystroke_l	l	n/a
64.8875	0.15	129775	keystroke_o	o	n/a
64.9915	0.121	129983	keystroke_t	t	n/a
65.9215	0.136	131843	keystroke_Key.enter	Key.enter	n/a
66.061	5.7725	132122	prompt	n/a	capable instead place panic\n
66.7465	0.12	133493	keystroke_c	c	n/a
66.9115	0.151	133823	keystroke_a	a	n/a
67.0915	0.12	134183	keystroke_p	p	n/a
67.2565	0.106	134513	keystroke_a	a	n/a
67.4675	0.134	134935	keystroke_b	b	n/a
67.7075	0.12	135415	keystroke_l	l	n/a
67.8125	0.12	135625	keystroke_e	e	n/a
67.9175	0.089	135835	keystroke_Key.space	Key.space	n/a
68.4565	0.09	136913	keystroke_i	i	n/a
68.6515	0.105	137303	keystroke_n	n	n/a
68.7425	0.12	137485	keystroke_s	s	n/a
68.9365	0.105	137873	keystroke_t	t	n/a
69.1765	0.12	138353	keystroke_e	e	n/a
69.5965	0.12	139193	keystroke_a	a	n/a
69.6715	0.165	139343	keystroke_d	d	n/a
69.8515	0.12	139703	keystroke_Key.space	Key.space	n/a
70.0915	0.076	140183	keystroke_p	p	n/a
70.2415	0.105	140483	keystroke_l	l	n/a
70.3315	0.106	140663	keystroke_a	a	n/a
70.4525	0.1495	140905	keystroke_c	c	n/a
70.617	0.165	141234	keystroke_e	e	n/a
70.767	0.105	141534	keystroke_Key.space	Key.space	n/a
71.007	0.105	142014	keystroke_p	p	n/a
71.127	0.105	142254	keystroke_a	a	n/a
71.277	0.105	142554	keystroke_n	n	n/a
71.442	0.105	142884	keystroke_i	i	n/a
71.517	0.15	143034	keystroke_c	c	n/a
71.712	0.12	143424	keystroke_Key.enter	Key.enter	n/a
71.8365	6.942	143673	prompt	n/a	examples defense self monitor\n
72.537	0.1055	145074	keystroke_e	e	n/a
72.7925	0.104	145585	keystroke_x	x	n/a
72.9115	0.15	145823	keystroke_a	a	n/a
73.0175	0.074	146035	keystroke_m	m	n/a
73.167	0.105	146334	keystroke_p	p	n/a
73.317	0.105	146634	keystroke_l	l	n/a
73.437	0.09	146874	keystroke_e	e	n/a
73.632	0.105	147264	keystroke_s	s	n/a
73.722	0.135	147444	keystroke_Key.space	Key.space	n/a
73.932	0.195	147864	keystroke_d	d	n/a
74.112	0.12	148224	keystroke_e	e	n/a
74.532	0.12	149064	keystroke_f	f	n/a
75.147	0.12	150294	keystroke_e	e	n/a
75.282	0.1345	150564	keystroke_n	n	n/a
75.4915	0.195	150983	keystroke_s	s	n/a
75.6565	0.135	151313	keystroke_e	e	n/a
75.9565	0.1805	151913	keystroke_Key.space	Key.space	n/a
76.377	0.195	152754	keystroke_s	s	n/a
76.497	0.135	152994	keystroke_e	e	n/a
76.662	0.105	153324	keystroke_l	l	n/a
76.782	0.12	153564	keystroke_f	f	n/a
76.887	0.135	153774	keystroke_Key.space	Key.space	n/a
77.277	0.1045	154554	keystroke_m	m	n/a
77.4565	0.0905	154913	keystroke_o	o	n/a
77.637	0.105	155274	keystroke_n	n	n/a
77.802	0.1055	155604	keystroke_i	i	n/a
78.1615	0.135	156323	keystroke_t	t	n/a
78.2815	0.135	156563	keystroke_o	o	n/a
78.4015	0.12	156803	keystroke_r	r	n/a
78.6415	0.135	157283	keystroke_Key.enter	Key.enter	n/a
78.784	12.8345	157568	prompt	n/a	attended occasion southampton chester\n
79.5565	0.09	159113	keystroke_a	a	n/a
79.8115	0.09	159623	keystroke_t	t	n/a
79.9765	0.0905	159953	keystroke_t	t	n/a
80.2025	0.105	160405	keystroke_e	e	n/a
80.3225	0.105	160645	keystroke_n	n	n/a
80.5325	0.105	161065	keystroke_d	d	n/a
80.7125	0.1495	161425	keystroke_e	e	n/a
80.832	0.18	161664	keystroke_d	d	n/a
80.967	0.12	161934	keystroke_Key.space	Key.space	n/a
81.207	0.12	162414	keystroke_o	o	n/a
81.357	0.075	162714	keystroke_c	c	n/a
81.507	0.105	163014	keystroke_c	c	n/a
81.687	0.15	163374	keystroke_a	a	n/a
82.062	0.105	164124	keystroke_s	s	n/a
82.122	0.1055	164244	keystroke_i	i	n/a
82.4815	0.091	164963	keystroke_o	o	n/a
82.6615	0.165	165323	keystroke_n	n	n/a
82.8115	0.106	165623	keystroke_Key.space	Key.space	n/a
83.0965	0.105	166193	keystroke_s	s	n/a
83.1725	0.09	166345	keystroke_o	o	n/a
83.3975	0.105	166795	keystroke_u	u	n/a
83.577	0.105	167154	keystroke_t	t	n/a
83.667	0.105	167334	keystroke_h	h	n/a
84.237	0.105	168474	keystroke_a	a	n/a
84.897	0.09	169794	keystroke_m	m	n/a
85.527	0.075	171054	keystroke_p	p	n/a
85.767	0.105	171534	keystroke_t	t	n/a
86.157	0.075	172314	keystroke_o	o	n/a
86.652	0.12	173304	keystroke_n	n	n/a
86.787	0.105	173574	keystroke_Key.space	Key.space	n/a
87.132	0.09	174264	keystroke_c	c	n/a
87.267	0.135	174534	keystroke_h	h	n/a
87.447	0.06	174894	keystroke_e	e	n/a
87.7465	0.12	175493	keystroke_s	s	n/a
88.0315	0.135	176063	keystroke_t	t	n/a
88.4215	0.195	176843	keystroke_e	e	n/a
88.5865	0.135	177173	keystroke_r	r	n/a
91.5895	0.027	183179	keystroke_Key.enter	Key.enter	n/a
91.622	25.947	183244	prompt	n/a	cardiovascular caused muscle where've\n
92.322	0.12	184644	keystroke_c	c	n/a
92.787	0.105	185574	keystroke_a	a	n/a
92.997	0.105	185994	keystroke_r	r	n/a
93.2815	0.12	186563	keystroke_d	d	n/a
93.3715	0.105	186743	keystroke_i	i	n/a
94.3765	0.105	188753	keystroke_o	o	n/a
94.6615	0.12	189323	keystroke_v	v	n/a
94.9015	0.12	189803	keystroke_a	a	n/a
95.1565	0.09	190313	keystroke_s	s	n/a
95.3665	0.12	190733	keystroke_c	c	n/a
95.4565	0.09	190913	keystroke_u	u	n/a
95.6815	0.12	191363	keystroke_l	l	n/a
95.7715	0.0755	191543	keystroke_a	a	n/a
95.907	0.135	191814	keystroke_r	r	n/a
96.252	0.12	192504	keystroke_Key.space	Key.space	n/a
96.567	0.12	193134	keystroke_c	c	n/a
96.732	0.135	193464	keystroke_a	a	n/a
96.927	0.075	193854	keystroke_u	u	n/a
97.317	0.105	194634	keystroke_Key.backspace	Key.backspace	n/a
97.482	0.12	194964	keystroke_s	s	n/a
97.647	0.135	195294	keystroke_u	u	n/a
98.112	0.105	196224	keystroke_Key.backspace	Key.backspace	n/a
98.292	0.09	196584	keystroke_Key.backspace	Key.backspace	n/a
98.6815	0.09	197363	keystroke_u	u	n/a
98.8165	0.24	197633	keystroke_s	s	n/a
98.9665	0.21	197933	keystroke_e	e	n/a
99.0865	0.18	198173	keystroke_d	d	n/a
99.4165	0.105	198833	keystroke_Key.space	Key.space	n/a
99.8365	0.105	199673	keystroke_m	m	n/a
100.0915	0.105	200183	keystroke_u	u	n/a
100.2415	0.12	200483	keystroke_s	s	n/a
100.4215	0.105	200843	keystroke_c	c	n/a
100.6015	0.135	201203	keystroke_l	l	n/a
100.7515	0.12	201503	keystroke_e	e	n/a
100.8565	0.12	201713	keystroke_Key.space	Key.space	n/a
101.4265	0.18	202853	keystroke_w	w	n/a
101.5915	0.105	203183	keystroke_h	h	n/a
101.7415	0.166	203483	keystroke_e	e	n/a
102.7325	0.179	205465	keystroke_e	e	n/a
102.8815	0.15	205763	keystroke_w	w	n/a
103.947	0.09	207894	keystroke_Key.backspace	Key.backspace	n/a
104.082	0.075	208164	keystroke_Key.backspace	Key.backspace	n/a
104.397	0.21	208794	keystroke_e	e	n/a
104.547	0.149	209094	keystroke_w	w	n/a
104.921	0.046	209842	keystroke_Key.backspace	Key.backspace	n/a
105.057	0.06	210114	keystroke_Key.backspace	Key.backspace	n/a
105.986	0.165	211972	keystroke_r	r	n/a
106.091	0.166	212182	keystroke_e	e	n/a
106.5115	0.09	213023	keystroke_;	;	n/a
106.6615	0.12	213323	keystroke_v	v	n/a
107.0065	0.045	214013	keystroke_Key.backspace	Key.backspace	n/a
107.1565	0.0755	214313	keystroke_Key.backspace	Key.backspace	n/a
108.3565	0.075	216713	keystroke_l	l	n/a
108.8215	0.075	217643	keystroke_Key.backspace	Key.backspace	n/a
109.0315	0.12	218063	keystroke_'	'	n/a
109.5565	0.135	219113	keystroke_v	v	n/a
109.7065	0.18	219413	keystroke_e	e	n/a
117.5395	0.0275	235079	keystroke_Key.enter	Key.enter	n/a
117.5775	9.0665	235155	prompt	n/a	living scientific utilities handbags\n
118.6175	0.0905	237235	keystroke_l	l	n/a
118.8275	0.075	237655	keystroke_i	i	n/a
118.9475	0.1195	237895	keystroke_v	v	n/a
119.0825	0.075	238165	keystroke_i	i	n/a
119.2475	0.1205	238495	keystroke_n	n	n/a
119.337	0.105	238674	keystroke_g	g	n/a
119.472	0.1055	238944	keystroke_Key.space	Key.space	n/a
119.8615	0.151	239723	keystroke_s	s	n/a
119.9975	0.15	239995	keystroke_c	c	n/a
120.4775	0.09	240955	keystroke_i	i	n/a
120.7625	0.12	241525	keystroke_e	e	n/a
121.018	0.105	242036	keystroke_n	n	n/a
121.183	0.089	242366	keystroke_t	t	n/a
121.287	0.135	242574	keystroke_i	i	n/a
121.467	0.135	242934	keystroke_f	f	n/a
121.617	0.135	243234	keystroke_i	i	n/a
121.8125	0.1195	243625	keystroke_c	c	n/a
121.933	0.149	243866	keystroke_Key.space	Key.space	n/a
122.382	0.105	244764	keystroke_u	u	n/a
122.802	0.1205	245604	keystroke_t	t	n/a
122.937	0.076	245874	keystroke_i	i	n/a
123.1325	0.0745	246265	keystroke_l	l	n/a
123.3125	0.0745	246625	keystroke_i	i	n/a
123.492	0.1205	246984	keystroke_t	t	n/a
123.657	0.105	247314	keystroke_i	i	n/a
123.777	0.1055	247554	keystroke_e	e	n/a
123.9725	0.12	247945	keystroke_s	s	n/a
124.0615	0.121	248123	keystroke_Key.space	Key.space	n/a
124.437	0.12	248874	keystroke_h	h	n/a
124.572	0.12	249144	keystroke_a	a	n/a
124.707	0.1205	249414	keystroke_n	n	n/a
124.8425	0.1055	249685	keystroke_d	d	n/a
125.233	0.104	250466	keystroke_b	b	n/a
125.367	0.135	250734	keystroke_a	a	n/a
125.517	0.105	251034	keystroke_g	g	n/a
125.9375	0.0905	251875	keystroke_s	s	n/a
126.537	0.105	253074	keystroke_Key.enter	Key.enter	n/a
126.6475	7.6015	253295	prompt	n/a	grove sewing fate columbia\n
127.467	0.091	254934	keystroke_g	g	n/a
127.9325	0.105	255865	keystroke_r	r	n/a
128.0375	0.12	256075	keystroke_o	o	n/a
128.1875	0.135	256375	keystroke_v	v	n/a
128.3525	0.12	256705	keystroke_e	e	n/a
128.6825	0.12	257365	keystroke_Key.space	Key.space	n/a
129.013	0.179	258026	keystroke_s	s	n/a
129.1325	0.149	258265	keystroke_e	e	n/a
129.837	0.1355	259674	keystroke_w	w	n/a
129.9575	0.0905	259915	keystroke_i	i	n/a
130.137	0.1205	260274	keystroke_n	n	n/a
130.272	0.0905	260544	keystroke_g	g	n/a
130.347	0.1055	260694	keystroke_Key.space	Key.space	n/a
130.5275	0.1345	261055	keystroke_f	f	n/a
130.7975	0.12	261595	keystroke_a	a	n/a
131.0675	0.1495	262135	keystroke_t	t	n/a
131.262	0.105	262524	keystroke_h	h	n/a
131.427	0.1055	262854	keystroke_Key.space	Key.space	n/a
131.8625	0.059	263725	keystroke_Key.backspace	Key.backspace	n/a
131.9815	0.106	263963	keystroke_Key.backspace	Key.backspace	n/a
132.133	0.0895	264266	keystroke_e	e	n/a
132.2375	0.15	264475	keystroke_Key.space	Key.space	n/a
132.642	0.105	265284	keystroke_c	c	n/a
132.7175	0.0605	265435	keystroke_o	o	n/a
132.912	0.0755	265824	keystroke_l	l	n/a
133.1225	0.075	266245	keystroke_u	u	n/a
133.3025	0.105	266605	keystroke_m	m	n/a
133.5425	0.135	267085	keystroke_b	b	n/a
133.6625	0.12	267325	keystroke_i	i	n/a
133.887	0.15	267774	keystroke_a	a	n/a
134.127	0.12	268254	keystroke_Key.enter	Key.enter	n/a
134.254	8.08	268508	prompt	n/a	wendy granny sustained characteristics\n
135.027	0.165	270054	keystroke_w	w	n/a
135.1775	0.134	270355	keystroke_e	e	n/a
135.282	0.15	270564	keystroke_n	n	n/a
135.417	0.1505	270834	keystroke_d	d	n/a
135.582	0.105	271164	keystroke_y	y	n/a
135.7025	0.119	271405	keystroke_Key.space	Key.space	n/a
135.9875	0.1645	271975	keystroke_g	g	n/a
136.183	0.1345	272366	keystroke_r	r	n/a
136.5575	0.09	273115	keystroke_a	a	n/a
136.662	0.061	273324	keystroke_n	n	n/a
136.7975	0.1045	273595	keystroke_n	n	n/a
136.978	0.1345	273956	keystroke_y	y	n/a
137.0825	0.134	274165	keystroke_Key.space	Key.space	n/a
137.2775	0.135	274555	keystroke_s	s	n/a
137.3825	0.12	274765	keystroke_u	u	n/a
137.8025	0.135	275605	keystroke_s	s	n/a
138.042	0.0905	276084	keystroke_t	t	n/a
138.2675	0.12	276535	keystroke_a	a	n/a
138.3275	0.09	276655	keystroke_i	i	n/a
138.4925	0.15	276985	keystroke_n	n	n/a
138.6265	0.136	277253	keystroke_e	e	n/a
138.7475	0.135	277495	keystroke_d	d	n/a
138.8975	0.1195	277795	keystroke_Key.space	Key.space	n/a
139.3475	0.1045	278695	keystroke_c	c	n/a
139.4675	0.075	278935	keystroke_h	h	n/a
139.557	0.1205	279114	keystroke_a	a	n/a
139.797	0.1055	279594	keystroke_r	r	n/a
140.022	0.09	280044	keystroke_a	a	n/a
140.142	0.1355	280284	keystroke_c	c	n/a
140.412	0.135	280824	keystroke_t	t	n/a
140.608	0.1495	281216	keystroke_e	e	n/a
140.7125	0.12	281425	keystroke_r	r	n/a
140.8475	0.135	281695	keystroke_i	i	n/a
140.9975	0.12	281995	keystroke_s	s	n/a
141.4775	0.15	282955	keystroke_t	t	n/a
141.6125	0.105	283225	keystroke_i	i	n/a
141.808	0.135	283616	keystroke_c	c	n/a
141.9865	0.121	283973	keystroke_s	s	n/a
142.182	0.1505	284364	keystroke_Key.enter	Key.enter	n/a
142.3385	8.1705	284677	prompt	n/a	shopper cooper maintenance sides\n
142.9775	0.1055	285955	keystroke_s	s	n/a
143.097	0.121	286194	keystroke_h	h	n/a
143.3075	0.0745	286615	keystroke_o	o	n/a
143.5175	0.029	287035	keystroke_p	p	n/a
143.6215	0.061	287243	keystroke_p	p	n/a
144.0115	0.2255	288023	keystroke_e	e	n/a
144.1625	0.1495	288325	keystroke_r	r	n/a
144.282	0.105	288564	keystroke_Key.space	Key.space	n/a
144.522	0.09	289044	keystroke_c	c	n/a
144.5525	0.0745	289105	keystroke_o	o	n/a
144.7175	0.105	289435	keystroke_o	o	n/a
144.837	0.1345	289674	keystroke_p	p	n/a
145.0165	0.2105	290033	keystroke_e	e	n/a
145.152	0.1495	290304	keystroke_r	r	n/a
145.272	0.12	290544	keystroke_Key.space	Key.space	n/a
145.842	0.0905	291684	keystroke_m	m	n/a
145.9475	0.1195	291895	keystroke_a	a	n/a
146.0525	0.0745	292105	keystroke_i	i	n/a
146.187	0.105	292374	keystroke_n	n	n/a
146.322	0.0905	292644	keystroke_t	t	n/a
146.5775	0.105	293155	keystroke_a	a	n/a
146.6665	0.121	293333	keystroke_n	n	n/a
147.582	0.045	295164	keystroke_Key.backspace	Key.backspace	n/a
147.7175	0.0595	295435	keystroke_Key.backspace	Key.backspace	n/a
148.167	0.121	296334	keystroke_e	e	n/a
148.272	0.09	296544	keystroke_n	n	n/a
148.453	0.0895	296906	keystroke_a	a	n/a
148.557	0.0905	297114	keystroke_n	n	n/a
148.752	0.06	297504	keystroke_c	c	n/a
148.8425	0.12	297685	keystroke_e	e	n/a
148.9775	0.0895	297955	keystroke_Key.space	Key.space	n/a
149.712	0.12	299424	keystroke_s	s	n/a
149.802	0.106	299604	keystroke_i	i	n/a
149.937	0.15	299874	keystroke_d	d	n/a
150.1025	0.09	300205	keystroke_e	e	n/a
150.252	0.15	300504	keystroke_s	s	n/a
150.387	0.12	300774	keystroke_Key.enter	Key.enter	n/a
150.513	7.5105	301026	prompt	n/a	reservoir diane port compare\n
151.138	0.1645	302276	keystroke_r	r	n/a
151.287	0.1055	302574	keystroke_e	e	n/a
151.527	0.1655	303054	keystroke_s	s	n/a
151.662	0.1205	303324	keystroke_e	e	n/a
151.857	0.09	303714	keystroke_r	r	n/a
152.472	0.1055	304944	keystroke_v	v	n/a
152.757	0.075	305514	keystroke_o	o	n/a
153.012	0.0605	306024	keystroke_i	i	n/a
153.4325	0.1495	306865	keystroke_r	r	n/a
153.568	0.119	307136	keystroke_Key.space	Key.space	n/a
153.8825	0.1195	307765	keystroke_d	d	n/a
153.987	0.09	307974	keystroke_i	i	n/a
154.197	0.121	308394	keystroke_a	a	n/a
154.303	0.119	308606	keystroke_n	n	n/a
154.497	0.12	308994	keystroke_e	e	n/a
154.662	0.1055	309324	keystroke_Key.space	Key.space	n/a
154.948	0.015	309896	keystroke_o	o	n/a
155.5775	0.09	311155	keystroke_Key.backspace	Key.backspace	n/a
155.8025	0.09	311605	keystroke_p	p	n/a
156.0125	0.075	312025	keystroke_o	o	n/a
156.1175	0.075	312235	keystroke_r	r	n/a
156.3125	0.12	312625	keystroke_t	t	n/a
156.4025	0.12	312805	keystroke_Key.space	Key.space	n/a
156.6875	0.12	313375	keystroke_c	c	n/a
156.7625	0.075	313525	keystroke_o	o	n/a
156.9725	0.075	313945	keystroke_m	m	n/a
157.167	0.105	314334	keystroke_p	p	n/a
157.302	0.106	314604	keystroke_a	a	n/a
157.5115	0.196	315023	keystroke_r	r	n/a
157.662	0.1355	315324	keystroke_e	e	n/a
157.8865	0.135	315773	keystroke_Key.enter	Key.enter	n/a
158.028	10.151	316056	prompt	n/a	egypt heavily permits lawsuit\n
159.417	0.0895	318834	keystroke_e	e	n/a
160.212	0.1205	320424	keystroke_g	g	n/a
160.347	0.09	320694	keystroke_y	y	n/a
160.6025	0.1045	321205	keystroke_o	o	n/a
160.888	0.104	321776	keystroke_t	t	n/a
160.993	0.1345	321986	keystroke_Key.space	Key.space	n/a
161.352	0.045	322704	keystroke_Key.backspace	Key.backspace	n/a
161.487	0.06	322974	keystroke_Key.backspace	Key.backspace	n/a
161.607	0.06	323214	keystroke_Key.backspace	Key.backspace	n/a
162.0125	0.0895	324025	keystroke_p	p	n/a
162.177	0.121	324354	keystroke_t	t	n/a
162.312	0.12	324624	keystroke_Key.space	Key.space	n/a
163.1525	0.0745	326305	keystroke_h	h	n/a
163.212	0.1055	326424	keystroke_e	e	n/a
163.392	0.105	326784	keystroke_a	a	n/a
164.2615	0.106	328523	keystroke_v	v	n/a
164.3825	0.12	328765	keystroke_i	i	n/a
164.7115	0.091	329423	keystroke_l	l	n/a
164.982	0.12	329964	keystroke_y	y	n/a
165.132	0.1195	330264	keystroke_Key.space	Key.space	n/a
165.402	0.12	330804	keystroke_p	p	n/a
165.582	0.195	331164	keystroke_e	e	n/a
165.717	0.12	331434	keystroke_r	r	n/a
165.912	0.105	331824	keystroke_m	m	n/a
166.152	0.1055	332304	keystroke_i	i	n/a
166.2725	0.1345	332545	keystroke_t	t	n/a
166.587	0.0755	333174	keystroke_s	s	n/a
166.602	0.105	333204	keystroke_Key.space	Key.space	n/a
166.827	0.1045	333654	keystroke_l	l	n/a
166.9165	0.211	333833	keystroke_a	a	n/a
167.1125	0.12	334225	keystroke_w	w	n/a
167.4425	0.12	334885	keystroke_s	s	n/a
167.578	0.0745	335156	keystroke_u	u	n/a
167.7425	0.105	335485	keystroke_i	i	n/a
167.8325	0.135	335665	keystroke_t	t	n/a
168.027	0.15	336054	keystroke_Key.enter	Key.enter	n/a
168.1885	8.315	336377	prompt	n/a	thumbs busy undergraduate frozen\n
168.9725	0.105	337945	keystroke_t	t	n/a
169.0925	0.09	338185	keystroke_h	h	n/a
169.2425	0.089	338485	keystroke_u	u	n/a
169.497	0.06	338994	keystroke_m	m	n/a
169.827	0.075	339654	keystroke_b	b	n/a
169.947	0.121	339894	keystroke_s	s	n/a
170.112	0.1655	340224	keystroke_Key.space	Key.space	n/a
170.697	0.0755	341394	keystroke_b	b	n/a
170.862	0.0905	341724	keystroke_u	u	n/a
171.0425	0.119	342085	keystroke_s	s	n/a
171.1465	0.135	342293	keystroke_y	y	n/a
171.267	0.1345	342534	keystroke_Key.space	Key.space	n/a
171.6115	0.105	343223	keystroke_u	u	n/a
171.792	0.135	343584	keystroke_n	n	n/a
171.912	0.135	343824	keystroke_d	d	n/a
172.152	0.09	344304	keystroke_e	e	n/a
172.362	0.06	344724	keystroke_r	r	n/a
172.857	0.12	345714	keystroke_g	g	n/a
172.992	0.1495	345984	keystroke_r	r	n/a
173.3365	0.12	346673	keystroke_a	a	n/a
173.5015	0.166	347003	keystroke_d	d	n/a
173.8325	0.1195	347665	keystroke_u	u	n/a
174.027	0.12	348054	keystroke_a	a	n/a
174.342	0.105	348684	keystroke_t	t	n/a
174.567	0.12	349134	keystroke_e	e	n/a
174.6725	0.1195	349345	keystroke_Key.space	Key.space	n/a
175.062	0.12	350124	keystroke_f	f	n/a
175.1965	0.165	350393	keystroke_r	r	n/a
175.302	0.1055	350604	keystroke_o	o	n/a
175.6475	0.089	351295	keystroke_z	z	n/a
175.962	0.1655	351924	keystroke_e	e	n/a
176.112	0.06	352224	keystroke_n	n	n/a
176.3815	0.1205	352763	keystroke_Key.enter	Key.enter	n/a
176.508	8.3505	353016	prompt	n/a	arms youth aluminum either\n
177.147	0.12	354294	keystroke_a	a	n/a
177.3125	0.135	354625	keystroke_r	r	n/a
177.462	0.1055	354924	keystroke_m	m	n/a
177.6125	0.1195	355225	keystroke_s	s	n/a
177.7325	0.104	355465	keystroke_Key.space	Key.space	n/a
178.1975	0.1195	356395	keystroke_y	y	n/a
178.3325	0.0745	356665	keystroke_o	o	n/a
178.542	0.09	357084	keystroke_u	u	n/a
178.692	0.135	357384	keystroke_t	t	n/a
178.812	0.0905	357624	keystroke_h	h	n/a
178.947	0.1045	357894	keystroke_Key.space	Key.space	n/a
179.5615	0.12	359123	keystroke_a	a	n/a
180.493	0.074	360986	keystroke_l	l	n/a
180.7475	0.06	361495	keystroke_u	u	n/a
180.9715	0.12	361943	keystroke_m	m	n/a
181.6475	0.0895	363295	keystroke_i	i	n/a
181.8715	0.075	363743	keystroke_n	n	n/a
182.0515	0.06	364103	keystroke_u	u	n/a
182.3515	0.1355	364703	keystroke_m	m	n/a
182.5315	0.165	365063	keystroke_Key.space	Key.space	n/a
182.7715	0.0755	365543	keystroke_a	a	n/a
183.072	0.09	366144	keystroke_Key.backspace	Key.backspace	n/a
183.2075	0.104	366415	keystroke_e	e	n/a
183.4175	0.105	366835	keystroke_t	t	n/a
183.8375	0.09	367675	keystroke_Key.backspace	Key.backspace	n/a
184.0625	0.075	368125	keystroke_i	i	n/a
184.1675	0.105	368335	keystroke_t	t	n/a
184.3475	0.059	368695	keystroke_h	h	n/a
184.4225	0.194	368845	keystroke_e	e	n/a
184.5275	0.179	369055	keystroke_r	r	n/a
184.737	0.12	369474	keystroke_Key.enter	Key.enter	n/a
184.8655	8.8585	369731	prompt	n/a	maker decrease intervention testimonials\n
185.802	0.075	371604	keystroke_m	m	n/a
185.907	0.12	371814	keystroke_a	a	n/a
186.057	0.135	372114	keystroke_k	k	n/a
186.252	0.24	372504	keystroke_e	e	n/a
186.4175	0.1495	372835	keystroke_r	r	n/a
186.522	0.1205	373044	keystroke_Key.space	Key.space	n/a
186.972	0.225	373944	keystroke_d	d	n/a
187.302	0.181	374604	keystroke_e	e	n/a
187.722	0.1055	375444	keystroke_c	c	n/a
187.8865	0.196	375773	keystroke_r	r	n/a
188.0375	0.12	376075	keystroke_e	e	n/a
188.2915	0.106	376583	keystroke_a	a	n/a
188.5465	0.1655	377093	keystroke_s	s	n/a
188.667	0.1645	377334	keystroke_e	e	n/a
188.8325	0.12	377665	keystroke_Key.space	Key.space	n/a
189.0115	0.1055	378023	keystroke_i	i	n/a
189.192	0.105	378384	keystroke_n	n	n/a
189.267	0.12	378534	keystroke_t	t	n/a
189.462	0.1655	378924	keystroke_e	e	n/a
189.537	0.1505	379074	keystroke_r	r	n/a
189.777	0.1505	379554	keystroke_v	v	n/a
190.002	0.1505	380004	keystroke_e	e	n/a
190.092	0.12	380184	keystroke_n	n	n/a
190.272	0.135	380544	keystroke_t	t	n/a
190.362	0.1205	380724	keystroke_i	i	n/a
190.557	0.09	381114	keystroke_o	o	n/a
190.7365	0.135	381473	keystroke_n	n	n/a
190.8565	0.12	381713	keystroke_Key.space	Key.space	n/a
191.2165	0.12	382433	keystroke_t	t	n/a
191.4415	0.09	382883	keystroke_e	e	n/a
191.6525	0.089	383305	keystroke_s	s	n/a
191.788	0.1185	383576	keystroke_t	t	n/a
191.9215	0.09	383843	keystroke_i	i	n/a
192.162	0.0445	384324	keystroke_m	m	n/a
192.4015	0.0765	384803	keystroke_o	o	n/a
192.6265	0.091	385253	keystroke_n	n	n/a
192.8065	0.076	385613	keystroke_i	i	n/a
193.0775	0.1195	386155	keystroke_a	a	n/a
193.1815	0.105	386363	keystroke_l	l	n/a
193.347	0.1045	386694	keystroke_s	s	n/a
193.6015	0.12	387203	keystroke_Key.enter	Key.enter	n/a
193.7295	8.0945	387459	prompt	n/a	gradually flash romantic broken\n
194.607	0.06	389214	keystroke_g	g	n/a
194.802	0.075	389604	keystroke_r	r	n/a
194.997	0.135	389994	keystroke_a	a	n/a
195.147	0.1055	390294	keystroke_d	d	n/a
195.2525	0.074	390505	keystroke_u	u	n/a
195.4925	0.059	390985	keystroke_l	l	n/a
195.972	0.0745	391944	keystroke_Key.backspace	Key.backspace	n/a
196.077	0.1045	392154	keystroke_a	a	n/a
196.2125	0.075	392425	keystroke_l	l	n/a
196.3615	0.076	392723	keystroke_l	l	n/a
196.602	0.105	393204	keystroke_y	y	n/a
196.737	0.1195	393474	keystroke_Key.space	Key.space	n/a
197.2315	0.1205	394463	keystroke_f	f	n/a
197.3525	0.1055	394705	keystroke_l	l	n/a
197.488	0.104	394976	keystroke_a	a	n/a
197.6815	0.1205	395363	keystroke_s	s	n/a
197.772	0.12	395544	keystroke_h	h	n/a
197.907	0.1195	395814	keystroke_Key.space	Key.space	n/a
198.297	0.1355	396594	keystroke_r	r	n/a
198.447	0.045	396894	keystroke_o	o	n/a
198.627	0.091	397254	keystroke_m	m	n/a
198.777	0.06	397554	keystroke_a	a	n/a
198.867	0.091	397734	keystroke_n	n	n/a
199.122	0.045	398244	keystroke_t	t	n/a
199.257	0.1205	398514	keystroke_i	i	n/a
199.4075	0.105	398815	keystroke_c	c	n/a
199.542	0.0905	399084	keystroke_Key.space	Key.space	n/a
200.1875	0.105	400375	keystroke_b	b	n/a
200.3225	0.105	400645	keystroke_o	o	n/a
200.7425	0.045	401485	keystroke_Key.backspace	Key.backspace	n/a
200.8475	0.0895	401695	keystroke_r	r	n/a
200.967	0.0745	401934	keystroke_o	o	n/a
201.1465	0.09	402293	keystroke_k	k	n/a
201.297	0.1495	402594	keystroke_e	e	n/a
201.4475	0.089	402895	keystroke_n	n	n/a
201.702	0.12	403404	keystroke_Key.enter	Key.enter	n/a
201.829	9.55	403658	prompt	n/a	entity automobiles stream sanyo\n
202.587	0.075	405174	keystroke_e	e	n/a
202.677	0.09	405354	keystroke_n	n	n/a
202.8275	0.09	405655	keystroke_t	t	n/a
202.9465	0.105	405893	keystroke_i	i	n/a
203.067	0.1055	406134	keystroke_t	t	n/a
203.2625	0.105	406525	keystroke_y	y	n/a
203.397	0.105	406794	keystroke_Key.space	Key.space	n/a
203.7125	0.0895	407425	keystroke_s	s	n/a
204.057	0.1045	408114	keystroke_Key.backspace	Key.backspace	n/a
204.177	0.075	408354	keystroke_a	a	n/a
204.3565	0.091	408713	keystroke_u	u	n/a
204.492	0.106	408984	keystroke_t	t	n/a
204.6725	0.09	409345	keystroke_o	o	n/a
204.912	0.045	409824	keystroke_m	m	n/a
205.107	0.075	410214	keystroke_o	o	n/a
205.782	0.09	411564	keystroke_b	b	n/a
206.037	0.075	412074	keystroke_i	i	n/a
206.2625	0.09	412525	keystroke_l	l	n/a
206.3965	0.091	412793	keystroke_e	e	n/a
206.6225	0.1045	413245	keystroke_s	s	n/a
206.757	0.0905	413514	keystroke_Key.space	Key.space	n/a
207.1775	0.119	414355	keystroke_s	s	n/a
207.3865	0.1805	414773	keystroke_t	t	n/a
207.582	0.09	415164	keystroke_r	r	n/a
208.092	0.091	416184	keystroke_e	e	n/a
208.3175	0.1345	416635	keystroke_a	a	n/a
208.4375	0.104	416875	keystroke_m	m	n/a
208.662	0.075	417324	keystroke_Key.space	Key.space	n/a
209.6365	0.075	419273	keystroke_s	s	n/a
209.8165	0.09	419633	keystroke_a	a	n/a
209.892	0.1045	419784	keystroke_n	n	n/a
210.1015	0.061	420203	keystroke_y	y	n/a
210.912	0.09	421824	keystroke_o	o	n/a
211.2425	0.1345	422485	keystroke_Key.enter	Key.enter	n/a
211.3875	8.4375	422775	prompt	n/a	calculation shield minimum remedies\n
212.052	0.09	424104	keystroke_c	c	n/a
212.172	0.15	424344	keystroke_a	a	n/a
212.248	0.104	424496	keystroke_l	l	n/a
212.412	0.1205	424824	keystroke_c	c	n/a
212.547	0.075	425094	keystroke_u	u	n/a
212.742	0.135	425484	keystroke_l	l	n/a
212.847	0.091	425694	keystroke_a	a	n/a
213.0875	0.12	426175	keystroke_t	t	n/a
213.1925	0.09	426385	keystroke_i	i	n/a
213.3575	0.105	426715	keystroke_o	o	n/a
213.537	0.1505	427074	keystroke_n	n	n/a
213.7925	0.119	427585	keystroke_Key.space	Key.space	n/a
214.3175	0.1345	428635	keystroke_s	s	n/a
214.4965	0.0605	428993	keystroke_h	h	n/a
214.6175	0.135	429235	keystroke_i	i	n/a
214.9165	0.15	429833	keystroke_e	e	n/a
215.0375	0.1345	430075	keystroke_l	l	n/a
215.187	0.091	430374	keystroke_d	d	n/a
215.472	0.0905	430944	keystroke_Key.space	Key.space	n/a
216.1175	0.104	432235	keystroke_m	m	n/a
216.342	0.1195	432684	keystroke_i	i	n/a
216.5515	0.1055	433103	keystroke_n	n	n/a
216.9865	0.091	433973	keystroke_i	i	n/a
217.3025	0.09	434605	keystroke_m	m	n/a
217.4975	0.075	434995	keystroke_u	u	n/a
217.7075	0.104	435415	keystroke_m	m	n/a
217.8575	0.1195	435715	keystroke_Key.space	Key.space	n/a
218.113	0.194	436226	keystroke_r	r	n/a
218.2615	0.151	436523	keystroke_e	e	n/a
218.3815	0.1055	436763	keystroke_m	m	n/a
218.6225	0.089	437245	keystroke_e	e	n/a
218.952	0.105	437904	keystroke_d	d	n/a
219.027	0.09	438054	keystroke_i	i	n/a
219.118	0.119	438236	keystroke_e	e	n/a
219.447	0.18	438894	keystroke_s	s	n/a
219.687	0.135	439374	keystroke_Key.enter	Key.enter	n/a
219.836	7.0375	439672	prompt	n/a	constantly artistic windows hugh\n
220.378	0.089	440756	keystroke_c	c	n/a
220.4675	0.09	440935	keystroke_o	o	n/a
220.662	0.0895	441324	keystroke_n	n	n/a
220.7675	0.119	441535	keystroke_s	s	n/a
220.9465	0.12	441893	keystroke_t	t	n/a
221.1875	0.1045	442375	keystroke_a	a	n/a
221.262	0.1055	442524	keystroke_n	n	n/a
221.427	0.1505	442854	keystroke_t	t	n/a
221.5925	0.1195	443185	keystroke_l	l	n/a
221.7425	0.1195	443485	keystroke_y	y	n/a
221.847	0.12	443694	keystroke_Key.space	Key.space	n/a
222.102	0.135	444204	keystroke_a	a	n/a
222.342	0.12	444684	keystroke_r	r	n/a
222.582	0.0895	445164	keystroke_t	t	n/a
222.687	0.105	445374	keystroke_i	i	n/a
222.897	0.1345	445794	keystroke_s	s	n/a
223.1525	0.135	446305	keystroke_t	t	n/a
223.3165	0.12	446633	keystroke_i	i	n/a
223.4815	0.105	446963	keystroke_c	c	n/a
223.632	0.105	447264	keystroke_Key.space	Key.space	n/a
223.9475	0.105	447895	keystroke_w	w	n/a
224.0375	0.09	448075	keystroke_i	i	n/a
224.3515	0.09	448703	keystroke_n	n	n/a
224.5765	0.121	449153	keystroke_d	d	n/a
224.712	0.105	449424	keystroke_o	o	n/a
224.862	0.135	449724	keystroke_w	w	n/a
225.2815	0.135	450563	keystroke_s	s	n/a
225.4615	0.0905	450923	keystroke_Key.space	Key.space	n/a
225.642	0.1045	451284	keystroke_h	h	n/a
225.8365	0.06	451673	keystroke_u	u	n/a
226.1675	0.1045	452335	keystroke_g	g	n/a
226.3015	0.06	452603	keystroke_h	h	n/a
226.737	0.135	453474	keystroke_Key.enter	Key.enter	n/a
226.88	8.5135	453760	prompt	n/a	lisa hereby week romania\n
228.2665	0.0755	456533	keystroke_l	l	n/a
228.4765	0.1055	456953	keystroke_i	i	n/a
228.6115	0.0905	457223	keystroke_s	s	n/a
229.0475	0.12	458095	keystroke_a	a	n/a
229.1525	0.1195	458305	keystroke_Key.space	Key.space	n/a
230.217	0.075	460434	keystroke_h	h	n/a
230.337	0.18	460674	keystroke_e	e	n/a
230.487	0.1955	460974	keystroke_r	r	n/a
230.6525	0.164	461305	keystroke_e	e	n/a
231.1015	0.135	462203	keystroke_b	b	n/a
231.222	0.1205	462444	keystroke_y	y	n/a
231.402	0.1045	462804	keystroke_Key.space	Key.space	n/a
231.5975	0.149	463195	keystroke_w	w	n/a
231.762	0.1045	463524	keystroke_e	e	n/a
231.9575	0.1045	463915	keystroke_e	e	n/a
232.8265	0.1055	465653	keystroke_k	k	n/a
233.037	0.135	466074	keystroke_Key.space	Key.space	n/a
233.247	0.18	466494	keystroke_r	r	n/a
233.682	0.0905	467364	keystroke_o	o	n/a
234.177	0.075	468354	keystroke_m	m	n/a
234.357	0.12	468714	keystroke_a	a	n/a
234.672	0.09	469344	keystroke_n	n	n/a
234.822	0.105	469644	keystroke_i	i	n/a
234.942	0.12	469884	keystroke_a	a	n/a
235.257	0.1345	470514	keystroke_Key.enter	Key.enter	n/a
235.3985	12.34	470797	prompt	n/a	matter next pole again\n
236.0675	0.104	472135	keystroke_m	m	n/a
236.1725	0.104	472345	keystroke_e	e	n/a
236.427	0.0745	472854	keystroke_t	t	n/a
236.562	0.1055	473124	keystroke_t	t	n/a
236.7565	0.1805	473513	keystroke_e	e	n/a
236.9075	0.1045	473815	keystroke_r	r	n/a
237.027	0.1055	474054	keystroke_n	n	n/a
237.1925	0.12	474385	keystroke_e	e	n/a
237.717	0.1355	475434	keystroke_x	x	n/a
237.9275	0.135	475855	keystroke_t	t	n/a
238.332	0.0445	476664	keystroke_Key.backspace	Key.backspace	n/a
238.4825	0.06	476965	keystroke_Key.backspace	Key.backspace	n/a
238.6465	0.0605	477293	keystroke_Key.backspace	Key.backspace	n/a
238.7965	0.0605	477593	keystroke_Key.backspace	Key.backspace	n/a
239.051	0.1205	478102	keystroke_Key.space	Key.space	n/a
239.3065	0.09	478613	keystroke_n	n	n/a
239.4125	0.074	478825	keystroke_e	e	n/a
239.622	0.075	479244	keystroke_t	t	n/a
240.102	0.075	480204	keystroke_Key.backspace	Key.backspace	n/a
240.1915	0.12	480383	keystroke_x	x	n/a
240.4165	0.12	480833	keystroke_t	t	n/a
240.8065	0.0605	481613	keystroke_Key.backspace	Key.backspace	n/a
240.987	0.045	481974	keystroke_Key.backspace	Key.backspace	n/a
241.1515	0.0605	482303	keystroke_Key.backspace	Key.backspace	n/a
241.3315	0.045	482663	keystroke_Key.backspace	Key.backspace	n/a
241.4965	0.045	482993	keystroke_Key.backspace	Key.backspace	n/a
241.6615	0.0605	483323	keystroke_Key.backspace	Key.backspace	n/a
241.8425	0.044	483685	keystroke_Key.backspace	Key.backspace	n/a
242.007	0.06	484014	keystroke_Key.backspace	Key.backspace	n/a
242.187	0.045	484374	keystroke_Key.backspace	Key.backspace	n/a
242.337	0.075	484674	keystroke_Key.backspace	Key.backspace	n/a
242.472	0.1205	484944	keystroke_a	a	n/a
242.997	0.0595	485994	keystroke_t	t	n/a
243.1465	0.0755	486293	keystroke_t	t	n/a
243.2365	0.09	486473	keystroke_e	e	n/a
243.4165	0.09	486833	keystroke_r	r	n/a
243.597	0.0745	487194	keystroke_Key.space	Key.space	n/a
243.7765	0.075	487553	keystroke_n	n	n/a
243.8075	0.074	487615	keystroke_e	e	n/a
244.062	0.135	488124	keystroke_x	x	n/a
244.317	0.0745	488634	keystroke_t	t	n/a
244.4365	0.105	488873	keystroke_Key.space	Key.space	n/a
244.692	0.0305	489384	keystroke_p	p	n/a
245.1415	0.075	490283	keystroke_i	i	n/a
245.697	0.09	491394	keystroke_Key.backspace	Key.backspace	n/a
246.042	0.0605	492084	keystroke_o	o	n/a
246.222	0.09	492444	keystroke_l	l	n/a
246.387	0.105	492774	keystroke_e	e	n/a
246.537	0.105	493074	keystroke_Key.space	Key.space	n/a
246.777	0.1355	493554	keystroke_a	a	n/a
246.972	0.0755	493944	keystroke_g	g	n/a
247.167	0.12	494334	keystroke_a	a	n/a
247.288	0.0745	494576	keystroke_i	i	n/a
247.4675	0.075	494935	keystroke_n	n	n/a
247.6475	0.089	495295	keystroke_Key.enter	Key.enter	n/a
247.7435	8.92	495487	prompt	n/a	determined combinations fruits races\n
248.577	0.1205	497154	keystroke_d	d	n/a
248.817	0.105	497634	keystroke_e	e	n/a
249.0425	0.12	498085	keystroke_t	t	n/a
249.2375	0.1635	498475	keystroke_e	e	n/a
249.3575	0.105	498715	keystroke_r	r	n/a
249.5075	0.075	499015	keystroke_n	n	n/a
249.8365	0.061	499673	keystroke_Key.backspace	Key.backspace	n/a
250.0475	0.105	500095	keystroke_m	m	n/a
250.2575	0.09	500515	keystroke_i	i	n/a
250.4375	0.105	500875	keystroke_n	n	n/a
250.5725	0.09	501145	keystroke_e	e	n/a
250.932	0.1345	501864	keystroke_d	d	n/a
251.0515	0.0905	502103	keystroke_Key.space	Key.space	n/a
251.277	0.0905	502554	keystroke_c	c	n/a
251.352	0.075	502704	keystroke_o	o	n/a
251.547	0.09	503094	keystroke_m	m	n/a
251.802	0.075	503604	keystroke_b	b	n/a
251.9525	0.105	503905	keystroke_i	i	n/a
252.1625	0.09	504325	keystroke_n	n	n/a
252.2825	0.12	504565	keystroke_a	a	n/a
252.507	0.09	505014	keystroke_t	t	n/a
252.612	0.075	505224	keystroke_i	i	n/a
252.762	0.09	505524	keystroke_o	o	n/a
252.913	0.1195	505826	keystroke_n	n	n/a
253.062	0.1355	506124	keystroke_s	s	n/a
253.212	0.09	506424	keystroke_Key.space	Key.space	n/a
253.8115	0.09	507623	keystroke_f	f	n/a
253.9465	0.135	507893	keystroke_r	r	n/a
254.0825	0.0895	508165	keystroke_u	u	n/a
254.337	0.105	508674	keystroke_i	i	n/a
254.457	0.135	508914	keystroke_t	t	n/a
254.682	0.06	509364	keystroke_Key.space	Key.space	n/a
255.297	0.09	510594	keystroke_Key.backspace	Key.backspace	n/a
255.357	0.12	510714	keystroke_s	s	n/a
255.522	0.12	511044	keystroke_Key.space	Key.space	n/a
255.687	0.105	511374	keystroke_r	r	n/a
255.897	0.12	511794	keystroke_a	a	n/a
256.047	0.135	512094	keystroke_c	c	n/a
256.212	0.15	512424	keystroke_e	e	n/a
256.422	0.1345	512844	keystroke_s	s	n/a
256.5715	0.0905	513143	keystroke_Key.enter	Key.enter	n/a
256.668	7.3315	513336	prompt	n/a	brunei runs motorcycles stored\n
257.3225	0.09	514645	keystroke_b	b	n/a
257.4425	0.089	514885	keystroke_r	r	n/a
257.6675	0.104	515335	keystroke_u	u	n/a
257.952	0.075	515904	keystroke_n	n	n/a
258.117	0.105	516234	keystroke_e	e	n/a
258.252	0.09	516504	keystroke_i	i	n/a
258.432	0.09	516864	keystroke_Key.space	Key.space	n/a
258.552	0.105	517104	keystroke_r	r	n/a
258.672	0.075	517344	keystroke_u	u	n/a
258.822	0.12	517644	keystroke_n	n	n/a
259.962	0.1045	519924	keystroke_s	s	n/a
260.082	0.0895	520164	keystroke_Key.space	Key.space	n/a
260.2615	0.105	520523	keystroke_m	m	n/a
260.4415	0.09	520883	keystroke_o	o	n/a
260.562	0.1045	521124	keystroke_t	t	n/a
260.7265	0.106	521453	keystroke_o	o	n/a
261.1015	0.061	522203	keystroke_r	r	n/a
261.582	0.0895	523164	keystroke_c	c	n/a
261.6865	0.0905	523373	keystroke_y	y	n/a
261.882	0.075	523764	keystroke_c	c	n/a
262.032	0.12	524064	keystroke_l	l	n/a
262.167	0.0905	524334	keystroke_e	e	n/a
262.3775	0.1195	524755	keystroke_s	s	n/a
262.497	0.105	524994	keystroke_Key.space	Key.space	n/a
262.752	0.135	525504	keystroke_s	s	n/a
263.0375	0.104	526075	keystroke_t	t	n/a
263.172	0.12	526344	keystroke_o	o	n/a
263.3375	0.164	526675	keystroke_r	r	n/a
263.4715	0.1505	526943	keystroke_e	e	n/a
263.697	0.1505	527394	keystroke_d	d	n/a
263.8475	0.149	527695	keystroke_Key.enter	Key.enter	n/a
264.005	15.1745	528010	prompt	n/a	wallpapers hardcover sensitivity minus\n
264.7175	0.1045	529435	keystroke_w	w	n/a
264.957	0.09	529914	keystroke_a	a	n/a
265.017	0.0605	530034	keystroke_l	l	n/a
265.1675	0.075	530335	keystroke_l	l	n/a
265.347	0.1045	530694	keystroke_p	p	n/a
265.4815	0.06	530963	keystroke_e	e	n/a
265.7965	0.075	531593	keystroke_Key.backspace	Key.backspace	n/a
265.8875	0.075	531775	keystroke_a	a	n/a
266.307	0.09	532614	keystroke_p	p	n/a
266.502	0.21	533004	keystroke_e	e	n/a
266.637	0.135	533274	keystroke_r	r	n/a
266.922	0.1355	533844	keystroke_s	s	n/a
267.042	0.12	534084	keystroke_Key.space	Key.space	n/a
267.417	0.075	534834	keystroke_h	h	n/a
267.507	0.165	535014	keystroke_a	a	n/a
267.6565	0.105	535313	keystroke_n	n	n/a
267.7775	0.119	535555	keystroke_d	d	n/a
268.152	0.0595	536304	keystroke_Key.backspace	Key.backspace	n/a
268.2865	0.0605	536573	keystroke_Key.backspace	Key.backspace	n/a
268.4515	0.06	536903	keystroke_Key.backspace	Key.backspace	n/a
268.9625	0.075	537925	keystroke_r	r	n/a
269.2315	0.075	538463	keystroke_Key.backspace	Key.backspace	n/a
269.367	0.12	538734	keystroke_a	a	n/a
269.5775	0.104	539155	keystroke_r	r	n/a
269.7865	0.1205	539573	keystroke_d	d	n/a
270.3125	0.105	540625	keystroke_c	c	n/a
270.4325	0.089	540865	keystroke_o	o	n/a
270.5365	0.105	541073	keystroke_v	v	n/a
270.6865	0.166	541373	keystroke_e	e	n/a
270.7765	0.151	541553	keystroke_r	r	n/a
271.0015	0.1205	542003	keystroke_Key.space	Key.space	n/a
271.2865	0.1055	542573	keystroke_s	s	n/a
271.5715	0.135	543143	keystroke_e	e	n/a
271.692	0.0895	543384	keystroke_n	n	n/a
271.9175	0.104	543835	keystroke_s	s	n/a
272.0065	0.1055	544013	keystroke_i	i	n/a
272.187	0.15	544374	keystroke_t	t	n/a
272.5615	0.0905	545123	keystroke_i	i	n/a
272.667	0.1045	545334	keystroke_t	t	n/a
273.0125	0.1045	546025	keystroke_v	v	n/a
273.192	0.0755	546384	keystroke_y	y	n/a
273.702	0.045	547404	keystroke_Key.backspace	Key.backspace	n/a
273.837	0.09	547674	keystroke_Key.backspace	Key.backspace	n/a
274.677	0.09	549354	keystroke_Key.backspace	Key.backspace	n/a
275.6075	0.0745	551215	keystroke_v	v	n/a
275.697	0.105	551394	keystroke_i	i	n/a
275.847	0.09	551694	keystroke_t	t	n/a
276.057	0.1205	552114	keystroke_y	y	n/a
276.192	0.105	552384	keystroke_Key.space	Key.space	n/a
276.807	0.045	553614	keystroke_n	n	n/a
277.2565	0.075	554513	keystroke_Key.backspace	Key.backspace	n/a
277.542	0.075	555084	keystroke_m	m	n/a
277.722	0.075	555444	keystroke_i	i	n/a
277.872	0.0905	555744	keystroke_n	n	n/a
278.037	0.105	556074	keystroke_u	u	n/a
278.2015	0.135	556403	keystroke_s	s	n/a
279.1165	0.0605	558233	keystroke_Key.enter	Key.enter	n/a
279.1855	6.0685	558371	prompt	n/a	debut answers profit midnight\n
279.9125	0.135	559825	keystroke_d	d	n/a
280.032	0.1055	560064	keystroke_e	e	n/a
280.271	0.091	560542	keystroke_b	b	n/a
280.4675	0.09	560935	keystroke_u	u	n/a
280.6025	0.09	561205	keystroke_t	t	n/a
280.737	0.12	561474	keystroke_Key.space	Key.space	n/a
280.992	0.105	561984	keystroke_a	a	n/a
281.083	0.1035	562166	keystroke_n	n	n/a
281.2165	0.12	562433	keystroke_s	s	n/a
281.4415	0.136	562883	keystroke_w	w	n/a
281.682	0.09	563364	keystroke_e	e	n/a
281.8465	0.12	563693	keystroke_r	r	n/a
282.2825	0.1205	564565	keystroke_s	s	n/a
282.417	0.1345	564834	keystroke_Key.space	Key.space	n/a
282.6865	0.091	565373	keystroke_p	p	n/a
282.8065	0.151	565613	keystroke_r	r	n/a
282.9735	0.074	565947	keystroke_o	o	n/a
283.122	0.136	566244	keystroke_f	f	n/a
283.302	0.045	566604	keystroke_i	i	n/a
283.422	0.0905	566844	keystroke_t	t	n/a
283.572	0.12	567144	keystroke_Key.space	Key.space	n/a
283.7965	0.105	567593	keystroke_m	m	n/a
284.0065	0.09	568013	keystroke_i	i	n/a
284.1425	0.1055	568285	keystroke_d	d	n/a
284.2625	0.089	568525	keystroke_n	n	n/a
284.4125	0.104	568825	keystroke_i	i	n/a
284.6225	0.075	569245	keystroke_g	g	n/a
284.7875	0.074	569575	keystroke_h	h	n/a
284.8925	0.105	569785	keystroke_t	t	n/a
285.147	0.105	570294	keystroke_Key.enter	Key.enter	n/a
285.2605	7.344	570521	prompt	n/a	findings major justice prayers\n
285.927	0.09	571854	keystroke_f	f	n/a
286.062	0.045	572124	keystroke_i	i	n/a
286.227	0.09	572454	keystroke_n	n	n/a
286.362	0.106	572724	keystroke_d	d	n/a
286.527	0.075	573054	keystroke_i	i	n/a
286.7525	0.1045	573505	keystroke_n	n	n/a
287.0665	0.121	574133	keystroke_g	g	n/a
287.367	0.12	574734	keystroke_s	s	n/a
287.5915	0.105	575183	keystroke_Key.space	Key.space	n/a
287.862	0.09	575724	keystroke_m	m	n/a
287.982	0.134	575964	keystroke_a	a	n/a
288.1325	0.075	576265	keystroke_j	j	n/a
288.312	0.1055	576624	keystroke_o	o	n/a
288.4475	0.09	576895	keystroke_r	r	n/a
288.581	0.136	577162	keystroke_Key.space	Key.space	n/a
288.851	0.0755	577702	keystroke_j	j	n/a
289.032	0.075	578064	keystroke_u	u	n/a
289.152	0.075	578304	keystroke_s	s	n/a
289.3025	0.0895	578605	keystroke_t	t	n/a
289.467	0.075	578934	keystroke_i	i	n/a
289.796	0.136	579592	keystroke_c	c	n/a
289.9925	0.135	579985	keystroke_e	e	n/a
290.337	0.105	580674	keystroke_Key.space	Key.space	n/a
290.6065	0.045	581213	keystroke_p	p	n/a
290.712	0.09	581424	keystroke_r	r	n/a
291.0415	0.105	582083	keystroke_a	a	n/a
291.2075	0.089	582415	keystroke_y	y	n/a
291.657	0.2095	583314	keystroke_e	e	n/a
291.837	0.1045	583674	keystroke_r	r	n/a
292.0465	0.135	584093	keystroke_s	s	n/a
292.527	0.0745	585054	keystroke_Key.enter	Key.enter	n/a
292.6085	11.29	585217	prompt	n/a	posters carrier initiated hugo\n
293.352	0.0595	586704	keystroke_p	p	n/a
293.5165	0.075	587033	keystroke_o	o	n/a
293.6365	0.09	587273	keystroke_s	s	n/a
293.8325	0.1045	587665	keystroke_t	t	n/a
294.2665	0.1655	588533	keystroke_e	e	n/a
294.4025	0.1195	588805	keystroke_r	r	n/a
294.642	0.12	589284	keystroke_s	s	n/a
294.746	0.106	589492	keystroke_Key.space	Key.space	n/a
295.0025	0.119	590005	keystroke_s	s	n/a
295.3465	0.075	590693	keystroke_Key.backspace	Key.backspace	n/a
295.4065	0.105	590813	keystroke_c	c	n/a
295.572	0.12	591144	keystroke_a	a	n/a
295.8265	0.076	591653	keystroke_r	r	n/a
295.9775	0.089	591955	keystroke_r	r	n/a
296.1565	0.105	592313	keystroke_i	i	n/a
296.322	0.09	592644	keystroke_e	e	n/a
296.5925	0.045	593185	keystroke_r	r	n/a
296.6815	0.12	593363	keystroke_Key.space	Key.space	n/a
296.9365	0.076	593873	keystroke_i	i	n/a
297.117	0.09	594234	keystroke_n	n	n/a
297.3275	0.089	594655	keystroke_i	i	n/a
297.492	0.1205	594984	keystroke_t	t	n/a
297.7025	0.0745	595405	keystroke_i	i	n/a
298.002	0.12	596004	keystroke_a	a	n/a
298.242	0.09	596484	keystroke_t	t	n/a
298.617	0.045	597234	keystroke_Key.backspace	Key.backspace	n/a
298.707	0.075	597414	keystroke_Key.backspace	Key.backspace	n/a
301.349	0.0585	602698	keystroke_a	a	n/a
301.5425	0.075	603085	keystroke_t	t	n/a
302.1265	0.166	604253	keystroke_e	e	n/a
302.2465	0.151	604493	keystroke_d	d	n/a
302.367	0.1495	604734	keystroke_Key.space	Key.space	n/a
302.637	0.09	605274	keystroke_h	h	n/a
302.817	0.09	605634	keystroke_u	u	n/a
303.0425	0.105	606085	keystroke_g	g	n/a
303.148	0.089	606296	keystroke_o	o	n/a
303.7915	0.1055	607583	keystroke_Key.enter	Key.enter	n/a
303.906	8.198	607812	prompt	n/a	atmospheric indices spot oakland\n
304.587	0.09	609174	keystroke_a	a	n/a
304.871	0.016	609742	keystroke_t	t	n/a
304.9175	0.1045	609835	keystroke_m	m	n/a
305.1275	0.089	610255	keystroke_o	o	n/a
305.202	0.0905	610404	keystroke_s	s	n/a
305.3665	0.12	610733	keystroke_t	t	n/a
305.9215	0.09	611843	keystroke_Key.backspace	Key.backspace	n/a
306.1915	0.0905	612383	keystroke_p	p	n/a
306.642	0.0895	613284	keystroke_h	h	n/a
306.8075	0.1195	613615	keystroke_e	e	n/a
307.047	0.12	614094	keystroke_r	r	n/a
307.152	0.12	614304	keystroke_i	i	n/a
307.587	0.09	615174	keystroke_c	c	n/a
307.646	0.0905	615292	keystroke_Key.space	Key.space	n/a
307.842	0.09	615684	keystroke_i	i	n/a
308.022	0.105	616044	keystroke_n	n	n/a
308.577	0.135	617154	keystroke_d	d	n/a
308.667	0.12	617334	keystroke_i	i	n/a
308.817	0.105	617634	keystroke_c	c	n/a
308.982	0.1205	617964	keystroke_e	e	n/a
309.2065	0.121	618413	keystroke_s	s	n/a
309.3125	0.089	618625	keystroke_Key.space	Key.space	n/a
309.5675	0.09	619135	keystroke_s	s	n/a
309.627	0.09	619254	keystroke_p	p	n/a
309.852	0.06	619704	keystroke_o	o	n/a
309.942	0.12	619884	keystroke_t	t	n/a
310.107	0.105	620214	keystroke_Key.space	Key.space	n/a
310.587	0.09	621174	keystroke_o	o	n/a
310.8575	0.1045	621715	keystroke_a	a	n/a
311.007	0.0895	622014	keystroke_k	k	n/a
311.2915	0.106	622583	keystroke_l	l	n/a
311.4115	0.105	622823	keystroke_a	a	n/a
311.5315	0.1205	623063	keystroke_n	n	n/a
311.6075	0.12	623215	keystroke_d	d	n/a
311.982	0.12	623964	keystroke_Key.enter	Key.enter	n/a
312.109	10.9745	624218	prompt	n/a	carpet atlanta latex possess\n
312.687	0.12	625374	keystroke_c	c	n/a
312.852	0.12	625704	keystroke_a	a	n/a
313.032	0.1495	626064	keystroke_r	r	n/a
313.272	0.1045	626544	keystroke_o	o	n/a
313.4365	0.1805	626873	keystroke_e	e	n/a
313.6315	0.1205	627263	keystroke_t	t	n/a
313.992	0.045	627984	keystroke_Key.backspace	Key.backspace	n/a
314.142	0.03	628284	keystroke_Key.backspace	Key.backspace	n/a
314.247	0.09	628494	keystroke_Key.backspace	Key.backspace	n/a
314.457	0.0905	628914	keystroke_p	p	n/a
314.5915	0.135	629183	keystroke_e	e	n/a
314.7565	0.1505	629513	keystroke_t	t	n/a
314.9215	0.12	629843	keystroke_Key.space	Key.space	n/a
315.342	0.136	630684	keystroke_a	a	n/a
315.582	0.075	631164	keystroke_t	t	n/a
315.687	0.105	631374	keystroke_l	l	n/a
315.912	0.15	631824	keystroke_a	a	n/a
316.032	0.105	632064	keystroke_n	n	n/a
316.182	0.105	632364	keystroke_d	d	n/a
316.677	0.0895	633354	keystroke_Key.backspace	Key.backspace	n/a
316.797	0.1045	633594	keystroke_t	t	n/a
317.0815	0.121	634163	keystroke_a	a	n/a
317.1865	0.12	634373	keystroke_Key.space	Key.space	n/a
317.7725	0.0895	635545	keystroke_l	l	n/a
317.877	0.0895	635754	keystroke_a	a	n/a
318.1015	0.091	636203	keystroke_t	t	n/a
318.3715	0.121	636743	keystroke_e	e	n/a
318.6875	0.135	637375	keystroke_x	x	n/a
318.8365	0.0605	637673	keystroke_Key.space	Key.space	n/a
319.003	0.089	638006	keystroke_p	p	n/a
319.2125	0.09	638425	keystroke_o	o	n/a
319.9165	0.0905	639833	keystroke_s	s	n/a
320.0825	0.1195	640165	keystroke_s	s	n/a
320.3075	0.225	640615	keystroke_e	e	n/a
320.697	0.0755	641394	keystroke_s	s	n/a
320.877	0.0755	641754	keystroke_s	s	n/a
323.0385	0.043	646077	keystroke_Key.enter	Key.enter	n/a
323.09	9.413	646180	prompt	n/a	assists brussels certificate quickly\n
323.6825	0.089	647365	keystroke_a	a	n/a
323.9065	0.061	647813	keystroke_s	s	n/a
324.0415	0.091	648083	keystroke_s	s	n/a
324.177	0.1195	648354	keystroke_i	i	n/a
324.3115	0.121	648623	keystroke_s	s	n/a
324.5215	0.135	649043	keystroke_t	t	n/a
324.807	0.12	649614	keystroke_s	s	n/a
324.912	0.12	649824	keystroke_Key.space	Key.space	n/a
325.2125	0.1045	650425	keystroke_b	b	n/a
325.331	0.121	650662	keystroke_r	r	n/a
325.527	0.105	651054	keystroke_u	u	n/a
325.857	0.075	651714	keystroke_s	s	n/a
326.0225	0.104	652045	keystroke_s	s	n/a
326.277	0.09	652554	keystroke_e	e	n/a
326.3965	0.105	652793	keystroke_l	l	n/a
326.5615	0.12	653123	keystroke_s	s	n/a
326.7265	0.09	653453	keystroke_Key.space	Key.space	n/a
327.2225	0.134	654445	keystroke_c	c	n/a
327.777	0.225	655554	keystroke_e	e	n/a
327.927	0.135	655854	keystroke_r	r	n/a
328.182	0.09	656364	keystroke_t	t	n/a
328.287	0.105	656574	keystroke_i	i	n/a
328.737	0.1205	657474	keystroke_f	f	n/a
328.842	0.09	657684	keystroke_i	i	n/a
329.142	0.12	658284	keystroke_c	c	n/a
329.367	0.12	658734	keystroke_a	a	n/a
329.937	0.0895	659874	keystroke_t	t	n/a
330.1615	0.225	660323	keystroke_e	e	n/a
330.717	0.1495	661434	keystroke_Key.space	Key.space	n/a
331.1515	0.15	662303	keystroke_q	q	n/a
331.347	0.075	662694	keystroke_u	u	n/a
331.5265	0.0905	663053	keystroke_i	i	n/a
331.662	0.12	663324	keystroke_c	c	n/a
331.767	0.104	663534	keystroke_k	k	n/a
332.007	0.105	664014	keystroke_l	l	n/a
332.0965	0.1205	664193	keystroke_y	y	n/a
332.3665	0.1355	664733	keystroke_Key.enter	Key.enter	n/a
332.507	6.2075	665014	prompt	n/a	frost current packet courses\n
333.207	0.12	666414	keystroke_f	f	n/a
333.4325	0.09	666865	keystroke_r	r	n/a
333.537	0.12	667074	keystroke_o	o	n/a
333.702	0.1055	667404	keystroke_s	s	n/a
333.882	0.12	667764	keystroke_t	t	n/a
334.0175	0.119	668035	keystroke_Key.space	Key.space	n/a
334.257	0.12	668514	keystroke_c	c	n/a
334.391	0.076	668782	keystroke_u	u	n/a
334.497	0.075	668994	keystroke_r	r	n/a
334.647	0.135	669294	keystroke_r	r	n/a
334.8265	0.1505	669653	keystroke_e	e	n/a
334.9925	0.1045	669985	keystroke_n	n	n/a
335.127	0.135	670254	keystroke_t	t	n/a
335.277	0.09	670554	keystroke_Key.space	Key.space	n/a
335.637	0.1045	671274	keystroke_p	p	n/a
335.7425	0.134	671485	keystroke_a	a	n/a
335.8915	0.1055	671783	keystroke_c	c	n/a
336.1315	0.105	672263	keystroke_k	k	n/a
336.282	0.1795	672564	keystroke_e	e	n/a
336.4465	0.135	672893	keystroke_t	t	n/a
336.612	0.1345	673224	keystroke_Key.space	Key.space	n/a
336.9715	0.0905	673943	keystroke_c	c	n/a
337.181	0.09	674362	keystroke_o	o	n/a
337.392	0.075	674784	keystroke_u	u	n/a
337.6915	0.121	675383	keystroke_r	r	n/a
337.9315	0.195	675863	keystroke_s	s	n/a
338.112	0.1345	676224	keystroke_e	e	n/a
338.2615	0.1365	676523	keystroke_s	s	n/a
338.607	0.105	677214	keystroke_Key.enter	Key.enter	n/a
338.719	5.229	677438	prompt	n/a	heights part stamp school\n
339.597	0.0905	679194	keystroke_h	h	n/a
339.703	0.1035	679406	keystroke_e	e	n/a
339.8065	0.0905	679613	keystroke_i	i	n/a
340.0315	0.06	680063	keystroke_g	g	n/a
340.1815	0.09	680363	keystroke_h	h	n/a
340.2865	0.075	680573	keystroke_t	t	n/a
340.512	0.12	681024	keystroke_s	s	n/a
340.5865	0.1205	681173	keystroke_Key.space	Key.space	n/a
340.8265	0.105	681653	keystroke_p	p	n/a
340.9615	0.105	681923	keystroke_a	a	n/a
341.157	0.09	682314	keystroke_r	r	n/a
341.3365	0.0905	682673	keystroke_t	t	n/a
341.442	0.12	682884	keystroke_Key.space	Key.space	n/a
341.622	0.12	683244	keystroke_s	s	n/a
341.832	0.1055	683664	keystroke_t	t	n/a
342.072	0.12	684144	keystroke_a	a	n/a
342.147	0.09	684294	keystroke_m	m	n/a
342.3415	0.1055	684683	keystroke_p	p	n/a
342.507	0.135	685014	keystroke_Key.space	Key.space	n/a
342.8665	0.091	685733	keystroke_s	s	n/a
343.091	0.121	686182	keystroke_c	c	n/a
343.197	0.075	686394	keystroke_h	h	n/a
343.392	0.06	686784	keystroke_o	o	n/a
343.5125	0.0895	687025	keystroke_o	o	n/a
343.6925	0.09	687385	keystroke_l	l	n/a
343.827	0.119	687654	keystroke_Key.enter	Key.enter	n/a
343.9515	7.2715	687903	prompt	n/a	external post offer lucas\n
344.5765	0.105	689153	keystroke_e	e	n/a
344.862	0.075	689724	keystroke_x	x	n/a
345.2825	0.1045	690565	keystroke_t	t	n/a
345.4925	0.1795	690985	keystroke_e	e	n/a
345.627	0.09	691254	keystroke_r	r	n/a
345.762	0.09	691524	keystroke_n	n	n/a
345.957	0.075	691914	keystroke_a	a	n/a
346.017	0.12	692034	keystroke_l	l	n/a
346.1375	0.1345	692275	keystroke_Key.space	Key.space	n/a
346.377	0.105	692754	keystroke_o	o	n/a
346.782	0.06	693564	keystroke_i	i	n/a
347.052	0.044	694104	keystroke_Key.backspace	Key.backspace	n/a
347.172	0.075	694344	keystroke_Key.backspace	Key.backspace	n/a
347.322	0.09	694644	keystroke_p	p	n/a
347.517	0.075	695034	keystroke_o	o	n/a
347.637	0.105	695274	keystroke_s	s	n/a
347.8025	0.12	695605	keystroke_t	t	n/a
347.951	0.121	695902	keystroke_Key.space	Key.space	n/a
348.7015	0.12	697403	keystroke_o	o	n/a
348.9575	0.0595	697915	keystroke_f	f	n/a
349.0915	0.136	698183	keystroke_f	f	n/a
349.242	0.211	698484	keystroke_e	e	n/a
349.362	0.18	698724	keystroke_r	r	n/a
349.543	0.119	699086	keystroke_Key.space	Key.space	n/a
349.722	0.1205	699444	keystroke_l	l	n/a
349.857	0.09	699714	keystroke_a	a	n/a
350.157	0.075	700314	keystroke_Key.backspace	Key.backspace	n/a
350.397	0.09	700794	keystroke_u	u	n/a
350.562	0.1195	701124	keystroke_c	c	n/a
350.727	0.1195	701454	keystroke_a	a	n/a
350.9675	0.1045	701935	keystroke_s	s	n/a
351.1165	0.1045	702233	keystroke_Key.enter	Key.enter	n/a
351.2275	7.301	702455	prompt	n/a	auctions spin mountain creating\n
352.0025	0.1045	704005	keystroke_a	a	n/a
352.3615	0.1055	704723	keystroke_u	u	n/a
352.5125	0.0745	705025	keystroke_c	c	n/a
352.707	0.0895	705414	keystroke_t	t	n/a
352.7525	0.0895	705505	keystroke_i	i	n/a
352.9325	0.074	705865	keystroke_o	o	n/a
353.0965	0.1055	706193	keystroke_n	n	n/a
353.232	0.12	706464	keystroke_s	s	n/a
353.367	0.09	706734	keystroke_Key.space	Key.space	n/a
353.772	0.104	707544	keystroke_s	s	n/a
353.817	0.074	707634	keystroke_p	p	n/a
354.012	0.075	708024	keystroke_i	i	n/a
354.1465	0.1355	708293	keystroke_n	n	n/a
354.2665	0.12	708533	keystroke_Key.space	Key.space	n/a
354.8815	0.06	709763	keystroke_m	m	n/a
355.032	0.074	710064	keystroke_o	o	n/a
355.2415	0.06	710483	keystroke_u	u	n/a
355.3765	0.105	710753	keystroke_n	n	n/a
355.542	0.09	711084	keystroke_t	t	n/a
355.8265	0.105	711653	keystroke_a	a	n/a
356.097	0.0745	712194	keystroke_i	i	n/a
356.2465	0.105	712493	keystroke_n	n	n/a
356.3665	0.1055	712733	keystroke_Key.space	Key.space	n/a
356.576	0.09	713152	keystroke_c	c	n/a
356.741	0.181	713482	keystroke_r	r	n/a
356.9065	0.15	713813	keystroke_e	e	n/a
357.161	0.1055	714322	keystroke_a	a	n/a
357.342	0.12	714684	keystroke_t	t	n/a
357.521	0.09	715042	keystroke_i	i	n/a
357.7165	0.0905	715433	keystroke_n	n	n/a
357.792	0.105	715584	keystroke_g	g	n/a
358.422	0.105	716844	keystroke_Key.enter	Key.enter	n/a
358.5345	8.4255	717069	prompt	n/a	minimal representative june furthermore\n
359.127	0.09	718254	keystroke_m	m	n/a
359.412	0.075	718824	keystroke_i	i	n/a
359.637	0.09	719274	keystroke_n	n	n/a
359.787	0.1055	719574	keystroke_i	i	n/a
360.012	0.09	720024	keystroke_m	m	n/a
360.161	0.1205	720322	keystroke_a	a	n/a
360.267	0.12	720534	keystroke_l	l	n/a
360.432	0.105	720864	keystroke_Key.space	Key.space	n/a
360.792	0.195	721584	keystroke_r	r	n/a
360.942	0.15	721884	keystroke_e	e	n/a
361.0765	0.0595	722153	keystroke_p	p	n/a
361.332	0.1505	722664	keystroke_r	r	n/a
361.4215	0.166	722843	keystroke_e	e	n/a
361.8115	0.12	723623	keystroke_s	s	n/a
362.2465	0.105	724493	keystroke_e	e	n/a
362.3815	0.0905	724763	keystroke_n	n	n/a
362.7115	0.1355	725423	keystroke_t	t	n/a
363.0565	0.091	726113	keystroke_a	a	n/a
363.2825	0.134	726565	keystroke_t	t	n/a
363.4315	0.1055	726863	keystroke_i	i	n/a
363.5815	0.1355	727163	keystroke_v	v	n/a
363.7175	0.135	727435	keystroke_e	e	n/a
363.8215	0.12	727643	keystroke_Key.space	Key.space	n/a
363.9565	0.12	727913	keystroke_j	j	n/a
364.1525	0.089	728305	keystroke_u	u	n/a
364.4965	0.075	728993	keystroke_n	n	n/a
364.6015	0.1205	729203	keystroke_e	e	n/a
364.7515	0.076	729503	keystroke_Key.space	Key.space	n/a
364.9465	0.105	729893	keystroke_f	f	n/a
365.097	0.1045	730194	keystroke_u	u	n/a
365.2165	0.1205	730433	keystroke_r	r	n/a
365.4715	0.121	730943	keystroke_t	t	n/a
365.577	0.1045	731154	keystroke_h	h	n/a
365.727	0.15	731454	keystroke_e	e	n/a
365.832	0.135	731664	keystroke_r	r	n/a
366.2665	0.0755	732533	keystroke_m	m	n/a
366.4165	0.09	732833	keystroke_o	o	n/a
366.5225	0.164	733045	keystroke_r	r	n/a
366.6415	0.166	733283	keystroke_e	e	n/a
366.8215	0.135	733643	keystroke_Key.enter	Key.enter	n/a
366.977	7.7815	733954	prompt	n/a	developmental squad grace cove\n
367.6465	0.165	735293	keystroke_d	d	n/a
367.8265	0.12	735653	keystroke_e	e	n/a
368.202	0.1195	736404	keystroke_v	v	n/a
368.307	0.1495	736614	keystroke_e	e	n/a
368.4265	0.106	736853	keystroke_l	l	n/a
368.6375	0.105	737275	keystroke_o	o	n/a
368.8465	0.0905	737693	keystroke_p	p	n/a
369.057	0.09	738114	keystroke_m	m	n/a
369.1765	0.1355	738353	keystroke_e	e	n/a
369.297	0.105	738594	keystroke_n	n	n/a
369.4165	0.0905	738833	keystroke_t	t	n/a
369.6575	0.119	739315	keystroke_a	a	n/a
369.7325	0.134	739465	keystroke_l	l	n/a
369.8815	0.105	739763	keystroke_Key.space	Key.space	n/a
370.1365	0.121	740273	keystroke_s	s	n/a
370.5275	0.119	741055	keystroke_q	q	n/a
370.737	0.135	741474	keystroke_u	u	n/a
370.9915	0.076	741983	keystroke_a	a	n/a
371.442	0.135	742884	keystroke_d	d	n/a
371.5915	0.09	743183	keystroke_Key.space	Key.space	n/a
372.702	0.0905	745404	keystroke_g	g	n/a
372.807	0.0755	745614	keystroke_r	r	n/a
373.017	0.105	746034	keystroke_a	a	n/a
373.152	0.135	746304	keystroke_c	c	n/a
373.347	0.105	746694	keystroke_e	e	n/a
373.467	0.09	746934	keystroke_Key.space	Key.space	n/a
373.737	0.1045	747474	keystroke_c	c	n/a
373.8115	0.1205	747623	keystroke_o	o	n/a
373.9915	0.121	747983	keystroke_v	v	n/a
374.142	0.1945	748284	keystroke_e	e	n/a
374.6365	0.12	749273	keystroke_Key.enter	Key.enter	n/a
374.7665	6.264	749533	prompt	n/a	he chief lightbox experts\n
375.387	0.105	750774	keystroke_h	h	n/a
375.507	0.105	751014	keystroke_e	e	n/a
375.627	0.09	751254	keystroke_Key.space	Key.space	n/a
375.8215	0.1055	751643	keystroke_c	c	n/a
375.8815	0.105	751763	keystroke_h	h	n/a
376.0465	0.12	752093	keystroke_i	i	n/a
376.1675	0.119	752335	keystroke_e	e	n/a
376.332	0.15	752664	keystroke_f	f	n/a
376.467	0.1195	752934	keystroke_Key.space	Key.space	n/a
376.8265	0.076	753653	keystroke_l	l	n/a
377.022	0.075	754044	keystroke_i	i	n/a
377.2015	0.0745	754403	keystroke_g	g	n/a
377.367	0.09	754734	keystroke_h	h	n/a
377.442	0.12	754884	keystroke_t	t	n/a
377.546	0.12	755092	keystroke_Key.space	Key.space	n/a
377.937	0.075	755874	keystroke_Key.backspace	Key.backspace	n/a
378.0415	0.12	756083	keystroke_b	b	n/a
378.192	0.0895	756384	keystroke_o	o	n/a
378.6275	0.1645	757255	keystroke_x	x	n/a
378.792	0.119	757584	keystroke_Key.space	Key.space	n/a
379.302	0.105	758604	keystroke_e	e	n/a
379.541	0.1365	759082	keystroke_x	x	n/a
379.679	0.058	759358	keystroke_p	p	n/a
379.887	0.195	759774	keystroke_e	e	n/a
380.052	0.134	760104	keystroke_r	r	n/a
380.2915	0.09	760583	keystroke_t	t	n/a
380.5165	0.135	761033	keystroke_s	s	n/a
380.891	0.136	761782	keystroke_Key.enter	Key.enter	n/a
381.0395	6.6195	762079	prompt	n/a	women reads surprise booty\n
381.6115	0.106	763223	keystroke_w	w	n/a
381.6875	0.089	763375	keystroke_o	o	n/a
381.8965	0.106	763793	keystroke_m	m	n/a
382.0175	0.074	764035	keystroke_e	e	n/a
382.1215	0.12	764243	keystroke_n	n	n/a
382.2565	0.0905	764513	keystroke_Key.space	Key.space	n/a
382.377	0.1955	764754	keystroke_r	r	n/a
382.527	0.1345	765054	keystroke_e	e	n/a
382.811	0.136	765622	keystroke_a	a	n/a
382.962	0.12	765924	keystroke_d	d	n/a
383.1565	0.135	766313	keystroke_s	s	n/a
383.2765	0.105	766553	keystroke_Key.space	Key.space	n/a
383.4865	0.12	766973	keystroke_s	s	n/a
383.6065	0.09	767213	keystroke_u	u	n/a
383.7265	0.12	767453	keystroke_r	r	n/a
384.177	0.074	768354	keystroke_p	p	n/a
384.357	0.0745	768714	keystroke_r	r	n/a
384.5525	0.1195	769105	keystroke_i	i	n/a
385.932	0.164	771864	keystroke_s	s	n/a
386.0665	0.165	772133	keystroke_e	e	n/a
386.202	0.074	772404	keystroke_Key.space	Key.space	n/a
386.487	0.074	772974	keystroke_b	b	n/a
386.727	0.0595	773454	keystroke_o	o	n/a
386.862	0.0745	773724	keystroke_o	o	n/a
386.997	0.1195	773994	keystroke_t	t	n/a
387.2065	0.12	774413	keystroke_y	y	n/a
387.5665	0.09	775133	keystroke_Key.enter	Key.enter	n/a
387.667	7.4615	775334	prompt	n/a	removable headed habits abortion\n
388.362	0.1945	776724	keystroke_r	r	n/a
388.497	0.1655	776994	keystroke_e	e	n/a
389.0375	0.06	778075	keystroke_m	m	n/a
389.1575	0.0895	778315	keystroke_o	o	n/a
389.2615	0.105	778523	keystroke_v	v	n/a
389.5165	0.106	779033	keystroke_a	a	n/a
389.787	0.0595	779574	keystroke_b	b	n/a
389.9975	0.119	779995	keystroke_l	l	n/a
390.1465	0.121	780293	keystroke_e	e	n/a
390.253	0.089	780506	keystroke_Key.space	Key.space	n/a
390.5815	0.075	781163	keystroke_h	h	n/a
390.6715	0.106	781343	keystroke_e	e	n/a
390.8815	0.135	781763	keystroke_a	a	n/a
390.987	0.165	781974	keystroke_d	d	n/a
391.137	0.18	782274	keystroke_e	e	n/a
391.272	0.165	782544	keystroke_d	d	n/a
391.422	0.105	782844	keystroke_Key.space	Key.space	n/a
391.587	0.09	783174	keystroke_h	h	n/a
391.7075	0.1195	783415	keystroke_a	a	n/a
392.157	0.075	784314	keystroke_b	b	n/a
392.322	0.075	784644	keystroke_i	i	n/a
392.592	0.104	785184	keystroke_t	t	n/a
392.877	0.135	785754	keystroke_s	s	n/a
392.982	0.09	785964	keystroke_Key.space	Key.space	n/a
393.3125	0.1045	786625	keystroke_a	a	n/a
393.5065	0.0905	787013	keystroke_b	b	n/a
393.7025	0.1045	787405	keystroke_o	o	n/a
394.0165	0.0895	788033	keystroke_r	r	n/a
394.227	0.0895	788454	keystroke_t	t	n/a
394.482	0.1195	788964	keystroke_i	i	n/a
394.6315	0.09	789263	keystroke_o	o	n/a
394.8115	0.1055	789623	keystroke_n	n	n/a
394.992	0.1345	789984	keystroke_Key.enter	Key.enter	n/a
395.134	8.7245	790268	prompt	n/a	photography comments i chicago\n
396.357	0.06	792714	keystroke_p	p	n/a
396.792	0.06	793584	keystroke_h	h	n/a
396.972	0.075	793944	keystroke_o	o	n/a
397.122	0.0895	794244	keystroke_t	t	n/a
397.2725	0.104	794545	keystroke_o	o	n/a
397.557	0.09	795114	keystroke_g	g	n/a
397.7065	0.09	795413	keystroke_r	r	n/a
397.9015	0.121	795803	keystroke_a	a	n/a
398.0225	0.089	796045	keystroke_p	p	n/a
398.4425	0.0745	796885	keystroke_h	h	n/a
398.997	0.12	797994	keystroke_y	y	n/a
399.2065	0.12	798413	keystroke_Key.space	Key.space	n/a
399.822	0.075	799644	keystroke_a	a	n/a
400.092	0.0745	800184	keystroke_Key.backspace	Key.backspace	n/a
400.377	0.0895	800754	keystroke_c	c	n/a
400.497	0.075	800994	keystroke_o	o	n/a
400.676	0.076	801352	keystroke_m	m	n/a
400.812	0.06	801624	keystroke_m	m	n/a
400.992	0.105	801984	keystroke_e	e	n/a
401.112	0.09	802224	keystroke_n	n	n/a
401.203	0.1045	802406	keystroke_t	t	n/a
401.4425	0.135	802885	keystroke_s	s	n/a
401.547	0.09	803094	keystroke_Key.space	Key.space	n/a
401.847	0.09	803694	keystroke_i	i	n/a
402.1165	0.06	804233	keystroke_Key.space	Key.space	n/a
402.3265	0.106	804653	keystroke_c	c	n/a
402.4165	0.075	804833	keystroke_h	h	n/a
402.5515	0.1055	805103	keystroke_i	i	n/a
402.8075	0.134	805615	keystroke_c	c	n/a
402.9565	0.1205	805913	keystroke_a	a	n/a
403.3915	0.1345	806783	keystroke_g	g	n/a
403.512	0.105	807024	keystroke_o	o	n/a
403.7365	0.1195	807473	keystroke_Key.enter	Key.enter	n/a
403.866	7.4025	807732	prompt	n/a	pole notre clouds similar\n
404.412	0.09	808824	keystroke_p	p	n/a
404.817	0.06	809634	keystroke_o	o	n/a
404.997	0.0895	809994	keystroke_l	l	n/a
405.192	0.0755	810384	keystroke_e	e	n/a
405.311	0.076	810622	keystroke_Key.space	Key.space	n/a
405.5065	0.09	811013	keystroke_n	n	n/a
405.687	0.1195	811374	keystroke_o	o	n/a
405.8815	0.0605	811763	keystroke_r	r	n/a
406.257	0.0895	812514	keystroke_Key.backspace	Key.backspace	n/a
406.3615	0.1205	812723	keystroke_t	t	n/a
407.157	0.15	814314	keystroke_r	r	n/a
407.262	0.18	814524	keystroke_e	e	n/a
407.487	0.135	814974	keystroke_Key.space	Key.space	n/a
408.042	0.12	816084	keystroke_c	c	n/a
408.147	0.09	816294	keystroke_l	l	n/a
408.762	0.06	817524	keystroke_o	o	n/a
408.927	0.09	817854	keystroke_u	u	n/a
409.122	0.135	818244	keystroke_d	d	n/a
409.332	0.15	818664	keystroke_s	s	n/a
409.482	0.12	818964	keystroke_Key.space	Key.space	n/a
409.887	0.105	819774	keystroke_s	s	n/a
409.932	0.075	819864	keystroke_i	i	n/a
410.112	0.105	820224	keystroke_m	m	n/a
410.277	0.105	820554	keystroke_i	i	n/a
410.532	0.09	821064	keystroke_l	l	n/a
410.682	0.09	821364	keystroke_a	a	n/a
410.9375	0.149	821875	keystroke_r	r	n/a
411.1615	0.1055	822323	keystroke_Key.enter	Key.enter	n/a
411.2725	8.051	822545	prompt	n/a	installations ceremony romance albert\n
411.8815	0.075	823763	keystroke_i	i	n/a
412.0925	0.089	824185	keystroke_n	n	n/a
412.302	0.105	824604	keystroke_s	s	n/a
412.5125	0.089	825025	keystroke_t	t	n/a
412.736	0.106	825472	keystroke_a	a	n/a
412.812	0.075	825624	keystroke_l	l	n/a
412.962	0.0905	825924	keystroke_l	l	n/a
413.082	0.105	826164	keystroke_a	a	n/a
413.307	0.09	826614	keystroke_t	t	n/a
413.397	0.0745	826794	keystroke_i	i	n/a
413.5625	0.0745	827125	keystroke_o	o	n/a
413.7425	0.12	827485	keystroke_n	n	n/a
413.8775	0.105	827755	keystroke_s	s	n/a
413.9515	0.12	827903	keystroke_Key.space	Key.space	n/a
414.117	0.1205	828234	keystroke_c	c	n/a
414.3125	0.1945	828625	keystroke_e	e	n/a
414.462	0.18	828924	keystroke_r	r	n/a
414.626	0.151	829252	keystroke_e	e	n/a
414.807	0.09	829614	keystroke_m	m	n/a
414.987	0.0755	829974	keystroke_o	o	n/a
415.1515	0.105	830303	keystroke_n	n	n/a
415.3015	0.136	830603	keystroke_e	e	n/a
415.4225	0.119	830845	keystroke_y	y	n/a
415.9015	0.045	831803	keystroke_Key.backspace	Key.backspace	n/a
416.0065	0.0755	832013	keystroke_Key.backspace	Key.backspace	n/a
416.2765	0.09	832553	keystroke_y	y	n/a
416.4265	0.09	832853	keystroke_Key.space	Key.space	n/a
416.637	0.1645	833274	keystroke_r	r	n/a
416.982	0.09	833964	keystroke_o	o	n/a
417.2215	0.0755	834443	keystroke_m	m	n/a
417.432	0.1205	834864	keystroke_a	a	n/a
417.537	0.1055	835074	keystroke_n	n	n/a
417.657	0.105	835314	keystroke_c	c	n/a
417.807	0.12	835614	keystroke_e	e	n/a
417.912	0.09	835824	keystroke_Key.space	Key.space	n/a
418.2115	0.09	836423	keystroke_a	a	n/a
418.287	0.075	836574	keystroke_l	l	n/a
418.527	0.075	837054	keystroke_b	b	n/a
418.646	0.2255	837292	keystroke_e	e	n/a
418.842	0.1045	837684	keystroke_r	r	n/a
419.0225	0.149	838045	keystroke_t	t	n/a
419.1865	0.135	838373	keystroke_Key.enter	Key.enter	n/a
419.331	8.813	838662	prompt	n/a	interact mirror person recognized\n
420.0115	0.0905	840023	keystroke_i	i	n/a
420.177	0.1345	840354	keystroke_n	n	n/a
420.2965	0.1655	840593	keystroke_t	t	n/a
420.5215	0.18	841043	keystroke_e	e	n/a
420.627	0.15	841254	keystroke_r	r	n/a
420.9565	0.1355	841913	keystroke_a	a	n/a
421.1365	0.135	842273	keystroke_c	c	n/a
421.362	0.1195	842724	keystroke_t	t	n/a
421.542	0.135	843084	keystroke_Key.space	Key.space	n/a
421.992	0.075	843984	keystroke_m	m	n/a
422.1715	0.076	844343	keystroke_i	i	n/a
422.532	0.0745	845064	keystroke_r	r	n/a
422.6815	0.1055	845363	keystroke_r	r	n/a
422.831	0.061	845662	keystroke_o	o	n/a
423.042	0.09	846084	keystroke_r	r	n/a
423.117	0.105	846234	keystroke_Key.space	Key.space	n/a
423.327	0.09	846654	keystroke_p	p	n/a
423.447	0.15	846894	keystroke_e	e	n/a
423.5525	0.1345	847105	keystroke_r	r	n/a
423.942	0.1195	847884	keystroke_s	s	n/a
424.0465	0.0755	848093	keystroke_o	o	n/a
424.2575	0.119	848515	keystroke_n	n	n/a
424.3915	0.105	848783	keystroke_Key.space	Key.space	n/a
424.527	0.0745	849054	keystroke_e	e	n/a
424.812	0.0895	849624	keystroke_Key.backspace	Key.backspace	n/a
424.9035	0.179	849807	keystroke_r	r	n/a
425.037	0.15	850074	keystroke_e	e	n/a
425.3665	0.0905	850733	keystroke_c	c	n/a
425.487	0.03	850974	keystroke_o	o	n/a
425.546	0.09	851092	keystroke_o	o	n/a
426.0565	0.0595	852113	keystroke_Key.backspace	Key.backspace	n/a
426.492	0.074	852984	keystroke_g	g	n/a
426.761	0.0765	853522	keystroke_n	n	n/a
426.9115	0.106	853823	keystroke_i	i	n/a
427.0465	0.1355	854093	keystroke_z	z	n/a
427.2565	0.18	854513	keystroke_e	e	n/a
427.392	0.1495	854784	keystroke_d	d	n/a
428.0365	0.105	856073	keystroke_Key.enter	Key.enter	n/a
428.149	6.9695	856298	prompt	n/a	conspiracy others reject amino\n
428.712	0.105	857424	keystroke_c	c	n/a
428.802	0.075	857604	keystroke_o	o	n/a
428.982	0.105	857964	keystroke_n	n	n/a
429.102	0.09	858204	keystroke_s	s	n/a
429.342	0.09	858684	keystroke_p	p	n/a
429.567	0.075	859134	keystroke_i	i	n/a
429.687	0.089	859374	keystroke_r	r	n/a
429.927	0.105	859854	keystroke_a	a	n/a
430.152	0.0905	860304	keystroke_t	t	n/a
430.452	0.06	860904	keystroke_Key.backspace	Key.backspace	n/a
430.572	0.09	861144	keystroke_c	c	n/a
430.737	0.075	861474	keystroke_y	y	n/a
430.842	0.105	861684	keystroke_Key.space	Key.space	n/a
431.022	0.12	862044	keystroke_o	o	n/a
431.1575	0.1335	862315	keystroke_t	t	n/a
431.322	0.0905	862644	keystroke_h	h	n/a
431.427	0.1505	862854	keystroke_e	e	n/a
431.532	0.1355	863064	keystroke_r	r	n/a
431.817	0.134	863634	keystroke_s	s	n/a
431.9365	0.1045	863873	keystroke_Key.space	Key.space	n/a
432.2815	0.195	864563	keystroke_r	r	n/a
432.4925	0.149	864985	keystroke_e	e	n/a
432.686	0.1055	865372	keystroke_j	j	n/a
432.836	0.1205	865672	keystroke_e	e	n/a
433.0315	0.1205	866063	keystroke_c	c	n/a
433.2415	0.135	866483	keystroke_t	t	n/a
433.3615	0.09	866723	keystroke_Key.space	Key.space	n/a
433.9025	0.1185	867805	keystroke_a	a	n/a
433.962	0.089	867924	keystroke_m	m	n/a
434.141	0.075	868282	keystroke_i	i	n/a
434.3215	0.0755	868643	keystroke_n	n	n/a
434.6665	0.09	869333	keystroke_o	o	n/a
435.012	0.104	870024	keystroke_Key.enter	Key.enter	n/a
435.123	9.85	870246	prompt	n/a	inappropriate elected incl downloading\n
435.7465	0.075	871493	keystroke_i	i	n/a
435.942	0.09	871884	keystroke_n	n	n/a
436.092	0.135	872184	keystroke_a	a	n/a
436.242	0.045	872484	keystroke_p	p	n/a
436.362	0.09	872724	keystroke_p	p	n/a
436.482	0.0895	872964	keystroke_r	r	n/a
436.6315	0.0905	873263	keystroke_o	o	n/a
437.157	0.06	874314	keystroke_p	p	n/a
437.352	0.105	874704	keystroke_r	r	n/a
437.502	0.075	875004	keystroke_i	i	n/a
437.862	0.135	875724	keystroke_a	a	n/a
438.117	0.075	876234	keystroke_t	t	n/a
438.372	0.119	876744	keystroke_e	e	n/a
438.537	0.12	877074	keystroke_Key.space	Key.space	n/a
438.942	0.105	877884	keystroke_e	e	n/a
439.047	0.0895	878094	keystroke_l	l	n/a
439.2265	0.076	878453	keystroke_e	e	n/a
439.4365	0.121	878873	keystroke_c	c	n/a
439.6615	0.121	879323	keystroke_t	t	n/a
439.9015	0.136	879803	keystroke_e	e	n/a
440.0225	0.104	880045	keystroke_d	d	n/a
440.1715	0.075	880343	keystroke_Key.space	Key.space	n/a
440.3065	0.09	880613	keystroke_i	i	n/a
440.5025	0.09	881005	keystroke_n	n	n/a
440.6515	0.12	881303	keystroke_c	c	n/a
440.8315	0.12	881663	keystroke_l	l	n/a
440.997	0.119	881994	keystroke_Key.space	Key.space	n/a
441.266	0.135	882532	keystroke_d	d	n/a
441.3865	0.0745	882773	keystroke_o	o	n/a
441.642	0.1045	883284	keystroke_w	w	n/a
441.731	0.1055	883462	keystroke_n	n	n/a
442.242	0.12	884484	keystroke_l	l	n/a
443.1265	0.075	886253	keystroke_o	o	n/a
443.352	0.134	886704	keystroke_a	a	n/a
443.6965	0.0595	887393	keystroke_i	i	n/a
444.0865	0.06	888173	keystroke_Key.backspace	Key.backspace	n/a
444.1925	0.104	888385	keystroke_d	d	n/a
444.3265	0.09	888653	keystroke_i	i	n/a
444.4765	0.1055	888953	keystroke_n	n	n/a
444.5675	0.104	889135	keystroke_g	g	n/a
444.8365	0.135	889673	keystroke_Key.enter	Key.enter	n/a
444.976	9.4925	889952	prompt	n/a	margin maintain recorder samba\n
445.677	0.0895	891354	keystroke_m	m	n/a
445.7965	0.1055	891593	keystroke_a	a	n/a
445.9765	0.1355	891953	keystroke_r	r	n/a
446.097	0.09	892194	keystroke_k	k	n/a
446.636	0.091	893272	keystroke_Key.backspace	Key.backspace	n/a
446.757	0.105	893514	keystroke_g	g	n/a
446.922	0.075	893844	keystroke_i	i	n/a
447.1015	0.12	894203	keystroke_n	n	n/a
447.2065	0.135	894413	keystroke_Key.space	Key.space	n/a
447.5215	0.075	895043	keystroke_m	m	n/a
447.627	0.1345	895254	keystroke_a	a	n/a
447.7765	0.075	895553	keystroke_i	i	n/a
447.8965	0.1055	895793	keystroke_n	n	n/a
448.0615	0.075	896123	keystroke_t	t	n/a
448.3015	0.135	896603	keystroke_a	a	n/a
448.422	0.0895	896844	keystroke_i	i	n/a
448.5715	0.15	897143	keystroke_n	n	n/a
448.7365	0.12	897473	keystroke_Key.space	Key.space	n/a
449.1425	0.194	898285	keystroke_r	r	n/a
449.307	0.1345	898614	keystroke_e	e	n/a
449.517	0.15	899034	keystroke_c	c	n/a
449.6365	0.06	899273	keystroke_o	o	n/a
449.936	0.0905	899872	keystroke_r	r	n/a
450.1615	0.12	900323	keystroke_d	d	n/a
450.297	0.1045	900594	keystroke_e	e	n/a
450.4765	0.135	900953	keystroke_r	r	n/a
450.6265	0.09	901253	keystroke_Key.space	Key.space	n/a
451.1515	0.0755	902303	keystroke_s	s	n/a
451.3915	0.1055	902783	keystroke_a	a	n/a
451.4815	0.0905	902963	keystroke_m	m	n/a
451.887	0.0455	903774	keystroke_e	e	n/a
452.262	0.075	904524	keystroke_Key.backspace	Key.backspace	n/a
452.742	0.1205	905484	keystroke_a	a	n/a
453.116	0.076	906232	keystroke_Key.backspace	Key.backspace	n/a
453.237	0.029	906474	keystroke_v	v	n/a
453.642	0.045	907284	keystroke_Key.backspace	Key.backspace	n/a
453.9715	0.075	907943	keystroke_b	b	n/a
454.0615	0.1195	908123	keystroke_a	a	n/a
454.346	0.1205	908692	keystroke_Key.enter	Key.enter	n/a
454.4725	5.0525	908945	prompt	n/a	cuba lover heroes hollow\n
455.037	0.135	910074	keystroke_c	c	n/a
455.217	0.105	910434	keystroke_u	u	n/a
455.6515	0.09	911303	keystroke_b	b	n/a
455.7865	0.1205	911573	keystroke_a	a	n/a
455.8915	0.09	911783	keystroke_Key.space	Key.space	n/a
456.2065	0.0755	912413	keystroke_l	l	n/a
456.3865	0.09	912773	keystroke_o	o	n/a
456.462	0.2095	912924	keystroke_v	v	n/a
456.6265	0.1955	913253	keystroke_e	e	n/a
456.7465	0.165	913493	keystroke_r	r	n/a
456.897	0.1045	913794	keystroke_Key.space	Key.space	n/a
457.1065	0.091	914213	keystroke_h	h	n/a
457.2125	0.1635	914425	keystroke_e	e	n/a
457.362	0.135	914724	keystroke_r	r	n/a
457.467	0.1495	914934	keystroke_o	o	n/a
457.917	0.0745	915834	keystroke_e	e	n/a
458.0965	0.12	916193	keystroke_s	s	n/a
458.1565	0.12	916313	keystroke_Key.space	Key.space	n/a
458.367	0.089	916734	keystroke_h	h	n/a
458.562	0.074	917124	keystroke_o	o	n/a
458.727	0.045	917454	keystroke_l	l	n/a
458.846	0.076	917692	keystroke_l	l	n/a
459.071	0.075	918142	keystroke_o	o	n/a
459.177	0.12	918354	keystroke_w	w	n/a
459.386	0.136	918772	keystroke_Key.enter	Key.enter	n/a
459.5355	11.793	919071	prompt	n/a	intelligence webmasters transmission offensive\n
460.227	0.075	920454	keystroke_i	i	n/a
460.422	0.09	920844	keystroke_n	n	n/a
460.7365	0.1355	921473	keystroke_t	t	n/a
460.9465	0.12	921893	keystroke_e	e	n/a
461.0515	0.045	922103	keystroke_l	l	n/a
461.202	0.0745	922404	keystroke_l	l	n/a
461.412	0.0895	922824	keystroke_i	i	n/a
461.6065	0.105	923213	keystroke_g	g	n/a
461.8165	0.1205	923633	keystroke_e	e	n/a
461.982	0.1045	923964	keystroke_n	n	n/a
462.612	0.105	925224	keystroke_c	c	n/a
462.732	0.12	925464	keystroke_e	e	n/a
462.837	0.12	925674	keystroke_Key.space	Key.space	n/a
463.0465	0.18	926093	keystroke_w	w	n/a
463.197	0.1495	926394	keystroke_e	e	n/a
463.3315	0.1055	926663	keystroke_b	b	n/a
463.6315	0.0755	927263	keystroke_m	m	n/a
463.7215	0.0905	927443	keystroke_a	a	n/a
463.902	0.1055	927804	keystroke_s	s	n/a
464.127	0.15	928254	keystroke_t	t	n/a
464.352	0.195	928704	keystroke_e	e	n/a
464.486	0.121	928972	keystroke_r	r	n/a
464.727	0.164	929454	keystroke_s	s	n/a
464.846	0.091	929692	keystroke_Key.space	Key.space	n/a
465.4015	0.165	930803	keystroke_t	t	n/a
465.6565	0.105	931313	keystroke_r	r	n/a
466.0015	0.135	932003	keystroke_a	a	n/a
466.167	0.1045	932334	keystroke_n	n	n/a
466.3315	0.09	932663	keystroke_s	s	n/a
466.8415	0.0455	933683	keystroke_m	m	n/a
467.6975	0.075	935395	keystroke_i	i	n/a
467.892	0.09	935784	keystroke_s	s	n/a
468.0575	0.1195	936115	keystroke_s	s	n/a
468.147	0.075	936294	keystroke_i	i	n/a
468.327	0.135	936654	keystroke_o	o	n/a
468.687	0.06	937374	keystroke_n	n	n/a
468.822	0.135	937644	keystroke_Key.space	Key.space	n/a
469.167	0.06	938334	keystroke_e	e	n/a
469.511	0.0905	939022	keystroke_Key.backspace	Key.backspace	n/a
469.706	0.0765	939412	keystroke_o	o	n/a
469.8415	0.0905	939683	keystroke_f	f	n/a
469.9915	0.1045	939983	keystroke_f	f	n/a
470.141	0.1655	940282	keystroke_e	e	n/a
470.291	0.076	940582	keystroke_n	n	n/a
470.696	0.105	941392	keystroke_s	s	n/a
470.772	0.1045	941544	keystroke_i	i	n/a
470.891	0.181	941782	keystroke_v	v	n/a
471.057	0.15	942114	keystroke_e	e	n/a
471.192	0.134	942384	keystroke_Key.enter	Key.enter	n/a
471.347	7.5565	942694	prompt	n/a	margin needed miniature painted\n
472.062	0.12	944124	keystroke_m	m	n/a
472.437	0.12	944874	keystroke_a	a	n/a
472.632	0.12	945264	keystroke_r	r	n/a
472.887	0.105	945774	keystroke_g	g	n/a
473.0075	0.089	946015	keystroke_i	i	n/a
473.1565	0.12	946313	keystroke_n	n	n/a
473.2915	0.0895	946583	keystroke_Key.space	Key.space	n/a
473.411	0.09	946822	keystroke_n	n	n/a
473.546	0.0755	947092	keystroke_e	e	n/a
473.712	0.075	947424	keystroke_e	e	n/a
473.846	0.1805	947692	keystroke_d	d	n/a
474.0415	0.135	948083	keystroke_e	e	n/a
474.146	0.1355	948292	keystroke_d	d	n/a
474.3115	0.06	948623	keystroke_Key.space	Key.space	n/a
474.5215	0.09	949043	keystroke_m	m	n/a
474.747	0.09	949494	keystroke_i	i	n/a
474.912	0.1055	949824	keystroke_n	n	n/a
475.061	0.106	950122	keystroke_i	i	n/a
475.271	0.121	950542	keystroke_a	a	n/a
475.467	0.089	950934	keystroke_t	t	n/a
475.617	0.089	951234	keystroke_u	u	n/a
475.751	0.165	951502	keystroke_r	r	n/a
475.9025	0.1645	951805	keystroke_e	e	n/a
476.0515	0.105	952103	keystroke_Key.space	Key.space	n/a
476.472	0.074	952944	keystroke_a	a	n/a
476.786	0.091	953572	keystroke_Key.backspace	Key.backspace	n/a
477.0865	0.0755	954173	keystroke_p	p	n/a
477.416	0.105	954832	keystroke_a	a	n/a
477.5665	0.1055	955133	keystroke_i	i	n/a
477.762	0.119	955524	keystroke_n	n	n/a
477.8665	0.106	955733	keystroke_t	t	n/a
478.4075	0.149	956815	keystroke_e	e	n/a
478.5265	0.135	957053	keystroke_d	d	n/a
478.781	0.121	957562	keystroke_Key.enter	Key.enter	n/a
478.9085	9.6395	957817	prompt	n/a	wives hazard enquiries hotel\n
479.666	0.12	959332	keystroke_w	w	n/a
479.771	0.09	959542	keystroke_i	i	n/a
480.012	0.15	960024	keystroke_v	v	n/a
480.176	0.1055	960352	keystroke_e	e	n/a
480.4015	0.1805	960803	keystroke_s	s	n/a
480.5665	0.0905	961133	keystroke_Key.space	Key.space	n/a
480.881	0.091	961762	keystroke_h	h	n/a
480.986	0.091	961972	keystroke_a	a	n/a
481.376	0.136	962752	keystroke_z	z	n/a
481.707	0.09	963414	keystroke_Key.backspace	Key.backspace	n/a
482.007	0.06	964014	keystroke_r	r	n/a
482.277	0.104	964554	keystroke_Key.backspace	Key.backspace	n/a
482.397	0.135	964794	keystroke_z	z	n/a
482.937	0.119	965874	keystroke_a	a	n/a
483.1465	0.0455	966293	keystroke_r	r	n/a
483.4615	0.1345	966923	keystroke_d	d	n/a
483.626	0.075	967252	keystroke_Key.space	Key.space	n/a
484.196	0.106	968392	keystroke_e	e	n/a
484.2875	0.06	968575	keystroke_n	n	n/a
484.5265	0.105	969053	keystroke_q	q	n/a
484.6015	0.06	969203	keystroke_u	u	n/a
484.7815	0.1055	969563	keystroke_i	i	n/a
484.976	0.136	969952	keystroke_t	t	n/a
485.397	0.074	970794	keystroke_Key.backspace	Key.backspace	n/a
485.486	0.106	970972	keystroke_r	r	n/a
485.637	0.09	971274	keystroke_i	i	n/a
485.7865	0.0595	971573	keystroke_t	t	n/a
486.356	0.105	972712	keystroke_Key.backspace	Key.backspace	n/a
486.6115	0.1045	973223	keystroke_e	e	n/a
486.821	0.121	973642	keystroke_s	s	n/a
486.9265	0.1195	973853	keystroke_Key.space	Key.space	n/a
487.676	0.0905	975352	keystroke_h	h	n/a
487.8715	0.105	975743	keystroke_o	o	n/a
487.991	0.1205	975982	keystroke_t	t	n/a
488.187	0.135	976374	keystroke_e	e	n/a
488.262	0.09	976524	keystroke_l	l	n/a
488.427	0.119	976854	keystroke_Key.enter	Key.enter	n/a
488.5535	6.295	977107	prompt	n/a	pension duplicate dell society\n
489.102	0.09	978204	keystroke_p	p	n/a
489.267	0.119	978534	keystroke_e	e	n/a
489.402	0.075	978804	keystroke_n	n	n/a
489.537	0.12	979074	keystroke_s	s	n/a
489.642	0.075	979284	keystroke_i	i	n/a
489.822	0.075	979644	keystroke_o	o	n/a
490.001	0.106	980002	keystroke_n	n	n/a
490.122	0.09	980244	keystroke_Key.space	Key.space	n/a
490.302	0.15	980604	keystroke_d	d	n/a
490.407	0.105	980814	keystroke_u	u	n/a
490.677	0.09	981354	keystroke_p	p	n/a
490.842	0.09	981684	keystroke_l	l	n/a
491.0515	0.09	982103	keystroke_i	i	n/a
491.1715	0.075	982343	keystroke_c	c	n/a
491.307	0.134	982614	keystroke_a	a	n/a
491.547	0.12	983094	keystroke_t	t	n/a
491.802	0.1495	983604	keystroke_e	e	n/a
491.936	0.135	983872	keystroke_Key.space	Key.space	n/a
492.086	0.106	984172	keystroke_d	d	n/a
492.282	0.075	984564	keystroke_l	l	n/a
492.641	0.075	985282	keystroke_Key.backspace	Key.backspace	n/a
492.762	0.089	985524	keystroke_e	e	n/a
492.867	0.06	985734	keystroke_l	l	n/a
492.986	0.1065	985972	keystroke_l	l	n/a
493.137	0.15	986274	keystroke_Key.space	Key.space	n/a
493.512	0.1345	987024	keystroke_s	s	n/a
493.617	0.105	987234	keystroke_o	o	n/a
493.8265	0.09	987653	keystroke_c	c	n/a
493.932	0.0895	987864	keystroke_i	i	n/a
494.1425	0.104	988285	keystroke_e	e	n/a
494.3365	0.09	988673	keystroke_t	t	n/a
494.4865	0.135	988973	keystroke_y	y	n/a
494.7565	0.09	989513	keystroke_Key.enter	Key.enter	n/a
494.8535	10.3755	989707	prompt	n/a	knitting electron enhancing demographic\n
495.6425	0.089	991285	keystroke_k	k	n/a
496.272	0.075	992544	keystroke_n	n	n/a
496.436	0.091	992872	keystroke_i	i	n/a
496.541	0.09	993082	keystroke_t	t	n/a
496.691	0.121	993382	keystroke_t	t	n/a
496.977	0.074	993954	keystroke_i	i	n/a
497.126	0.106	994252	keystroke_n	n	n/a
497.247	0.09	994494	keystroke_g	g	n/a
497.337	0.089	994674	keystroke_Key.space	Key.space	n/a
497.487	0.105	994974	keystroke_e	e	n/a
497.577	0.12	995154	keystroke_l	l	n/a
498.011	0.196	996022	keystroke_e	e	n/a
498.177	0.1205	996354	keystroke_c	c	n/a
498.402	0.105	996804	keystroke_t	t	n/a
498.612	0.09	997224	keystroke_r	r	n/a
498.687	0.12	997374	keystroke_o	o	n/a
499.016	0.12	998032	keystroke_n	n	n/a
499.152	0.1045	998304	keystroke_Key.space	Key.space	n/a
499.3915	0.105	998783	keystroke_e	e	n/a
499.5115	0.09	999023	keystroke_n	n	n/a
499.7365	0.075	999473	keystroke_h	h	n/a
499.8565	0.105	999713	keystroke_a	a	n/a
499.9465	0.105	999893	keystroke_n	n	n/a
500.217	0.0895	1000434	keystroke_c	c	n/a
500.3365	0.105	1000673	keystroke_i	i	n/a
500.502	0.1345	1001004	keystroke_n	n	n/a
500.6675	0.089	1001335	keystroke_g	g	n/a
500.7865	0.0905	1001573	keystroke_Key.space	Key.space	n/a
501.1315	0.151	1002263	keystroke_d	d	n/a
501.2665	0.135	1002533	keystroke_e	e	n/a
501.4475	0.09	1002895	keystroke_m	m	n/a
501.6415	0.09	1003283	keystroke_o	o	n/a
501.8365	0.1205	1003673	keystroke_g	g	n/a
501.986	0.166	1003972	keystroke_r	r	n/a
502.106	0.091	1004212	keystroke_p	p	n/a
502.541	0.09	1005082	keystroke_Key.backspace	Key.backspace	n/a
502.6765	0.105	1005353	keystroke_a	a	n/a
502.7665	0.09	1005533	keystroke_o	o	n/a
503.0515	0.0605	1006103	keystroke_h	h	n/a
503.306	0.06	1006612	keystroke_Key.backspace	Key.backspace	n/a
503.441	0.0755	1006882	keystroke_Key.backspace	Key.backspace	n/a
503.696	0.09	1007392	keystroke_p	p	n/a
504.116	0.06	1008232	keystroke_h	h	n/a
504.251	0.105	1008502	keystroke_i	i	n/a
504.3865	0.105	1008773	keystroke_c	c	n/a
505.122	0.1045	1010244	keystroke_Key.enter	Key.enter	n/a
505.2345	11.994	1010469	prompt	n/a	teeth packets boulder girlfriend\n
505.8565	0.075	1011713	keystroke_t	t	n/a
506.0515	0.105	1012103	keystroke_e	e	n/a
506.2315	0.12	1012463	keystroke_e	e	n/a
506.442	0.1195	1012884	keystroke_c	c	n/a
506.532	0.105	1013064	keystroke_h	h	n/a
506.6965	0.09	1013393	keystroke_Key.space	Key.space	n/a
506.981	0.0455	1013962	keystroke_Key.backspace	Key.backspace	n/a
507.1165	0.075	1014233	keystroke_Key.backspace	Key.backspace	n/a
507.237	0.1045	1014474	keystroke_Key.backspace	Key.backspace	n/a
507.3565	0.075	1014713	keystroke_t	t	n/a
508.0625	0.075	1016125	keystroke_h	h	n/a
508.1815	0.12	1016363	keystroke_Key.space	Key.space	n/a
508.3915	0.09	1016783	keystroke_p	p	n/a
508.4665	0.105	1016933	keystroke_a	a	n/a
508.662	0.0895	1017324	keystroke_c	c	n/a
508.7515	0.105	1017503	keystroke_k	k	n/a
509.0815	0.12	1018163	keystroke_t	t	n/a
509.2915	0.165	1018583	keystroke_e	e	n/a
509.9515	0.06	1019903	keystroke_Key.backspace	Key.backspace	n/a
510.0865	0.075	1020173	keystroke_Key.backspace	Key.backspace	n/a
510.2515	0.18	1020503	keystroke_e	e	n/a
510.3715	0.121	1020743	keystroke_r	r	n/a
510.642	0.1205	1021284	keystroke_s	s	n/a
510.942	0.0445	1021884	keystroke_Key.backspace	Key.backspace	n/a
511.0765	0.09	1022153	keystroke_Key.backspace	Key.backspace	n/a
511.1965	0.09	1022393	keystroke_t	t	n/a
511.6765	0.135	1023353	keystroke_s	s	n/a
511.7815	0.105	1023563	keystroke_Key.space	Key.space	n/a
512.142	0.0595	1024284	keystroke_b	b	n/a
512.322	0.06	1024644	keystroke_o	o	n/a
512.5465	0.075	1025093	keystroke_u	u	n/a
512.9065	0.105	1025813	keystroke_l	l	n/a
513.0715	0.18	1026143	keystroke_d	d	n/a
513.2815	0.165	1026563	keystroke_e	e	n/a
513.5215	0.135	1027043	keystroke_r	r	n/a
513.6115	0.135	1027223	keystroke_Key.space	Key.space	n/a
513.7915	0.135	1027583	keystroke_f	f	n/a
513.912	0.1055	1027824	keystroke_i	i	n/a
514.3165	0.075	1028633	keystroke_Key.backspace	Key.backspace	n/a
514.451	0.076	1028902	keystroke_Key.backspace	Key.backspace	n/a
514.541	0.105	1029082	keystroke_g	g	n/a
514.721	0.091	1029442	keystroke_i	i	n/a
514.842	0.105	1029684	keystroke_r	r	n/a
515.1715	0.09	1030343	keystroke_k	k	n/a
515.651	0.061	1031302	keystroke_Key.backspace	Key.backspace	n/a
515.817	0.105	1031634	keystroke_l	l	n/a
516.0265	0.15	1032053	keystroke_f	f	n/a
516.2215	0.135	1032443	keystroke_r	r	n/a
516.372	0.1045	1032744	keystroke_i	i	n/a
516.5215	0.105	1033043	keystroke_e	e	n/a
516.627	0.09	1033254	keystroke_n	n	n/a
516.7315	0.135	1033463	keystroke_d	d	n/a
517.1065	0.12	1034213	keystroke_Key.enter	Key.enter	n/a
517.2365	7.087	1034473	prompt	n/a	pays rational evaluation authentic\n
517.9015	0.09	1035803	keystroke_p	p	n/a
518.0215	0.12	1036043	keystroke_a	a	n/a
518.2165	0.105	1036433	keystroke_y	y	n/a
518.3365	0.12	1036673	keystroke_s	s	n/a
518.442	0.1195	1036884	keystroke_Key.space	Key.space	n/a
518.8165	0.12	1037633	keystroke_r	r	n/a
519.0415	0.09	1038083	keystroke_a	a	n/a
519.2215	0.105	1038443	keystroke_t	t	n/a
519.2965	0.09	1038593	keystroke_i	i	n/a
519.4615	0.09	1038923	keystroke_o	o	n/a
519.642	0.089	1039284	keystroke_n	n	n/a
519.806	0.121	1039612	keystroke_a	a	n/a
519.9115	0.12	1039823	keystroke_l	l	n/a
520.0615	0.15	1040123	keystroke_Key.space	Key.space	n/a
520.2415	0.105	1040483	keystroke_e	e	n/a
520.7815	0.105	1041563	keystroke_v	v	n/a
521.1415	0.09	1042283	keystroke_a	a	n/a
521.4715	0.091	1042943	keystroke_l	l	n/a
521.6665	0.09	1043333	keystroke_u	u	n/a
521.7575	0.134	1043515	keystroke_a	a	n/a
522.0115	0.12	1044023	keystroke_t	t	n/a
522.1165	0.105	1044233	keystroke_i	i	n/a
522.2965	0.0755	1044593	keystroke_o	o	n/a
522.4765	0.1045	1044953	keystroke_n	n	n/a
522.626	0.1505	1045252	keystroke_Key.space	Key.space	n/a
522.9565	0.1045	1045913	keystroke_a	a	n/a
523.062	0.089	1046124	keystroke_u	u	n/a
523.227	0.134	1046454	keystroke_t	t	n/a
523.362	0.09	1046724	keystroke_h	h	n/a
523.497	0.12	1046994	keystroke_e	e	n/a
523.601	0.091	1047202	keystroke_n	n	n/a
523.7965	0.105	1047593	keystroke_t	t	n/a
523.8715	0.105	1047743	keystroke_i	i	n/a
524.0675	0.104	1048135	keystroke_c	c	n/a
524.2015	0.12	1048403	keystroke_Key.enter	Key.enter	n/a
524.328	7.4205	1048656	prompt	n/a	infinite still install promo\n
525.1765	0.075	1050353	keystroke_i	i	n/a
525.5525	0.0895	1051105	keystroke_n	n	n/a
525.7615	0.09	1051523	keystroke_f	f	n/a
525.8525	0.074	1051705	keystroke_i	i	n/a
526.0465	0.075	1052093	keystroke_n	n	n/a
526.1815	0.105	1052363	keystroke_i	i	n/a
526.302	0.105	1052604	keystroke_t	t	n/a
526.497	0.135	1052994	keystroke_e	e	n/a
526.616	0.09	1053232	keystroke_Key.space	Key.space	n/a
526.916	0.151	1053832	keystroke_s	s	n/a
527.112	0.12	1054224	keystroke_t	t	n/a
527.187	0.09	1054374	keystroke_i	i	n/a
527.412	0.075	1054824	keystroke_l	l	n/a
527.547	0.09	1055094	keystroke_l	l	n/a
527.667	0.1345	1055334	keystroke_Key.space	Key.space	n/a
527.8465	0.0905	1055693	keystroke_i	i	n/a
528.0565	0.075	1056113	keystroke_n	n	n/a
528.251	0.091	1056502	keystroke_s	s	n/a
528.446	0.091	1056892	keystroke_a	a	n/a
528.776	0.0905	1057552	keystroke_Key.backspace	Key.backspace	n/a
528.8515	0.075	1057703	keystroke_t	t	n/a
529.0765	0.1055	1058153	keystroke_a	a	n/a
529.3465	0.03	1058693	keystroke_k	k	n/a
529.5565	0.12	1059113	keystroke_k	k	n/a
529.947	0.0445	1059894	keystroke_Key.backspace	Key.backspace	n/a
530.067	0.075	1060134	keystroke_Key.backspace	Key.backspace	n/a
530.246	0.076	1060492	keystroke_l	l	n/a
530.397	0.0895	1060794	keystroke_l	l	n/a
530.5465	0.1205	1061093	keystroke_Key.space	Key.space	n/a
530.712	0.105	1061424	keystroke_p	p	n/a
530.9365	0.1055	1061873	keystroke_r	r	n/a
531.0725	0.09	1062145	keystroke_o	o	n/a
531.2965	0.075	1062593	keystroke_m	m	n/a
531.447	0.0745	1062894	keystroke_o	o	n/a
531.6265	0.12	1063253	keystroke_Key.enter	Key.enter	n/a
531.753	15.1755	1063506	prompt	n/a	medicine defines mitsubishi urls\n
532.392	0.09	1064784	keystroke_m	m	n/a
532.572	0.105	1065144	keystroke_a	a	n/a
532.737	0.15	1065474	keystroke_d	d	n/a
532.872	0.075	1065744	keystroke_i	i	n/a
533.756	0.045	1067512	keystroke_Key.backspace	Key.backspace	n/a
533.907	0.06	1067814	keystroke_Key.backspace	Key.backspace	n/a
534.072	0.045	1068144	keystroke_Key.backspace	Key.backspace	n/a
534.4175	0.0895	1068835	keystroke_e	e	n/a
534.8215	0.09	1069643	keystroke_d	d	n/a
534.912	0.074	1069824	keystroke_i	i	n/a
535.271	0.0915	1070542	keystroke_c	c	n/a
535.422	0.075	1070844	keystroke_i	i	n/a
535.706	0.091	1071412	keystroke_n	n	n/a
535.842	0.09	1071684	keystroke_e	e	n/a
535.961	0.09	1071922	keystroke_Key.space	Key.space	n/a
536.096	0.1205	1072192	keystroke_d	d	n/a
536.231	0.09	1072462	keystroke_e	e	n/a
536.471	0.1205	1072942	keystroke_f	f	n/a
536.5615	0.0755	1073123	keystroke_i	i	n/a
536.727	0.105	1073454	keystroke_n	n	n/a
536.847	0.1045	1073694	keystroke_e	e	n/a
537.207	0.119	1074414	keystroke_s	s	n/a
537.312	0.1045	1074624	keystroke_Key.space	Key.space	n/a
537.6415	0.09	1075283	keystroke_m	m	n/a
537.8965	0.0905	1075793	keystroke_u	u	n/a
538.3465	0.075	1076693	keystroke_t	t	n/a
538.632	0.105	1077264	keystroke_s	s	n/a
538.751	0.0755	1077502	keystroke_u	u	n/a
538.9615	0.075	1077923	keystroke_b	b	n/a
539.1565	0.09	1078313	keystroke_i	i	n/a
539.5615	0.105	1079123	keystroke_s	s	n/a
539.6815	0.045	1079363	keystroke_h	h	n/a
539.7715	0.1045	1079543	keystroke_i	i	n/a
539.907	0.119	1079814	keystroke_Key.space	Key.space	n/a
540.117	0.089	1080234	keystroke_u	u	n/a
540.417	0.12	1080834	keystroke_r	r	n/a
540.552	0.09	1081104	keystroke_l	l	n/a
540.777	0.105	1081554	keystroke_s	s	n/a
542.7565	0.075	1085513	keystroke_Key.left	Key.left	n/a
542.982	0.0445	1085964	keystroke_Key.left	Key.left	n/a
543.1465	0.06	1086293	keystroke_Key.left	Key.left	n/a
543.3265	0.06	1086653	keystroke_Key.left	Key.left	n/a
543.4765	0.0605	1086953	keystroke_Key.left	Key.left	n/a
543.6265	0.0605	1087253	keystroke_Key.left	Key.left	n/a
543.7765	0.0605	1087553	keystroke_Key.left	Key.left	n/a
543.9565	0.045	1087913	keystroke_Key.left	Key.left	n/a
544.1065	0.0605	1088213	keystroke_Key.left	Key.left	n/a
544.257	0.0595	1088514	keystroke_Key.left	Key.left	n/a
544.4215	0.06	1088843	keystroke_Key.left	Key.left	n/a
544.5865	0.06	1089173	keystroke_Key.left	Key.left	n/a
544.767	0.0895	1089534	keystroke_Key.left	Key.left	n/a
545.472	0.119	1090944	keystroke_Key.backspace	Key.backspace	n/a
545.862	0.045	1091724	keystroke_i	i	n/a
546.851	0.075	1093702	keystroke_Key.enter	Key.enter	n/a
546.933	7.8255	1093866	prompt	n/a	tennis anytime charitable roof\n
547.977	0.104	1095954	keystroke_t	t	n/a
548.1865	0.105	1096373	keystroke_e	e	n/a
548.3225	0.074	1096645	keystroke_n	n	n/a
548.4865	0.075	1096973	keystroke_n	n	n/a
548.6365	0.1055	1097273	keystroke_i	i	n/a
548.7715	0.1205	1097543	keystroke_s	s	n/a
548.9215	0.09	1097843	keystroke_Key.space	Key.space	n/a
549.0865	0.121	1098173	keystroke_a	a	n/a
549.1925	0.0745	1098385	keystroke_n	n	n/a
549.3715	0.0905	1098743	keystroke_y	y	n/a
549.4925	0.105	1098985	keystroke_t	t	n/a
549.6275	0.074	1099255	keystroke_i	i	n/a
549.8375	0.089	1099675	keystroke_m	m	n/a
549.9865	0.075	1099973	keystroke_e	e	n/a
550.1065	0.105	1100213	keystroke_Key.space	Key.space	n/a
550.3015	0.105	1100603	keystroke_c	c	n/a
550.4075	0.074	1100815	keystroke_h	h	n/a
550.5565	0.0905	1101113	keystroke_a	a	n/a
550.722	0.12	1101444	keystroke_r	r	n/a
550.857	0.074	1101714	keystroke_i	i	n/a
551.6215	0.06	1103243	keystroke_t	t	n/a
551.922	0.06	1103844	keystroke_b	b	n/a
552.2515	0.06	1104503	keystroke_Key.backspace	Key.backspace	n/a
552.342	0.12	1104684	keystroke_a	a	n/a
552.5215	0.075	1105043	keystroke_b	b	n/a
552.7015	0.1055	1105403	keystroke_l	l	n/a
552.837	0.1045	1105674	keystroke_e	e	n/a
553.0015	0.0905	1106003	keystroke_Key.space	Key.space	n/a
553.272	0.1045	1106544	keystroke_r	r	n/a
553.3915	0.06	1106783	keystroke_o	o	n/a
553.5265	0.105	1107053	keystroke_o	o	n/a
553.6465	0.12	1107293	keystroke_d	d	n/a
553.9765	0.0605	1107953	keystroke_Key.backspace	Key.backspace	n/a
554.0515	0.105	1108103	keystroke_f	f	n/a
554.6365	0.12	1109273	keystroke_Key.enter	Key.enter	n/a
554.764	10.5995	1109528	prompt	n/a	tested ruling fuzzy sean\n
555.282	0.12	1110564	keystroke_t	t	n/a
555.627	0.105	1111254	keystroke_e	e	n/a
555.8525	0.1195	1111705	keystroke_s	s	n/a
556.017	0.12	1112034	keystroke_t	t	n/a
556.2115	0.1655	1112423	keystroke_e	e	n/a
556.362	0.1205	1112724	keystroke_d	d	n/a
556.512	0.1195	1113024	keystroke_Key.space	Key.space	n/a
556.7215	0.09	1113443	keystroke_r	r	n/a
556.8415	0.09	1113683	keystroke_u	u	n/a
557.232	0.015	1114464	keystroke_l	l	n/a
557.307	0.06	1114614	keystroke_l	l	n/a
557.846	0.075	1115692	keystroke_i	i	n/a
557.997	0.1195	1115994	keystroke_n	n	n/a
558.1315	0.105	1116263	keystroke_g	g	n/a
558.2515	0.06	1116503	keystroke_Key.space	Key.space	n/a
558.4465	0.09	1116893	keystroke_f	f	n/a
558.597	0.0895	1117194	keystroke_u	u	n/a
558.7915	0.1055	1117583	keystroke_z	z	n/a
558.972	0.1045	1117944	keystroke_z	z	n/a
559.4075	0.09	1118815	keystroke_y	y	n/a
559.5115	0.1205	1119023	keystroke_Key.space	Key.space	n/a
559.6775	0.1785	1119355	keystroke_s	s	n/a
559.842	0.12	1119684	keystroke_e	e	n/a
560.0365	0.1345	1120073	keystroke_a	a	n/a
560.1265	0.0895	1120253	keystroke_n	n	n/a
561.6115	0.09	1123223	keystroke_Key.left	Key.left	n/a
561.8215	0.06	1123643	keystroke_Key.left	Key.left	n/a
561.972	0.075	1123944	keystroke_Key.left	Key.left	n/a
562.2115	0.0145	1124423	keystroke_Key.left	Key.left	n/a
562.3015	0.06	1124603	keystroke_Key.left	Key.left	n/a
562.466	0.0605	1124932	keystroke_Key.left	Key.left	n/a
562.6465	0.03	1125293	keystroke_Key.left	Key.left	n/a
562.782	0.059	1125564	keystroke_Key.left	Key.left	n/a
562.932	0.06	1125864	keystroke_Key.left	Key.left	n/a
563.097	0.06	1126194	keystroke_Key.left	Key.left	n/a
563.261	0.0455	1126522	keystroke_Key.left	Key.left	n/a
563.411	0.06	1126822	keystroke_Key.left	Key.left	n/a
563.607	0.06	1127214	keystroke_Key.left	Key.left	n/a
563.771	0.061	1127542	keystroke_Key.left	Key.left	n/a
564.192	0.044	1128384	keystroke_Key.backspace	Key.backspace	n/a
565.3015	0.06	1130603	keystroke_Key.enter	Key.enter	n/a
565.371	8.603	1130742	prompt	n/a	phillips babes dominant disable\n
566.652	0.075	1133304	keystroke_p	p	n/a
566.862	0.0745	1133724	keystroke_h	h	n/a
567.0115	0.061	1134023	keystroke_i	i	n/a
567.2065	0.0905	1134413	keystroke_l	l	n/a
567.4315	0.075	1134863	keystroke_i	i	n/a
567.6415	0.0905	1135283	keystroke_p	p	n/a
567.792	0.1345	1135584	keystroke_s	s	n/a
567.896	0.1205	1135792	keystroke_Key.space	Key.space	n/a
568.137	0.074	1136274	keystroke_b	b	n/a
568.901	0.1205	1137802	keystroke_a	a	n/a
569.0365	0.075	1138073	keystroke_b	b	n/a
569.1715	0.09	1138343	keystroke_e	e	n/a
569.3965	0.121	1138793	keystroke_s	s	n/a
569.5315	0.105	1139063	keystroke_Key.space	Key.space	n/a
570.177	0.119	1140354	keystroke_d	d	n/a
570.2515	0.0905	1140503	keystroke_o	o	n/a
570.477	0.0895	1140954	keystroke_m	m	n/a
570.6865	0.0755	1141373	keystroke_i	i	n/a
570.8515	0.0905	1141703	keystroke_n	n	n/a
570.9565	0.12	1141913	keystroke_a	a	n/a
571.1065	0.105	1142213	keystroke_n	n	n/a
571.272	0.12	1142544	keystroke_t	t	n/a
571.4215	0.105	1142843	keystroke_Key.space	Key.space	n/a
571.6915	0.135	1143383	keystroke_d	d	n/a
571.8115	0.09	1143623	keystroke_i	i	n/a
571.9315	0.0905	1143863	keystroke_s	s	n/a
572.172	0.0895	1144344	keystroke_a	a	n/a
572.5915	0.09	1145183	keystroke_b	b	n/a
572.832	0.104	1145664	keystroke_l	l	n/a
572.9525	0.0895	1145905	keystroke_e	e	n/a
573.897	0.075	1147794	keystroke_Key.enter	Key.enter	n/a
573.9775	6.836	1147955	prompt	n/a	perceived alter donald myth\n
574.632	0.09	1149264	keystroke_p	p	n/a
574.8565	0.09	1149713	keystroke_e	e	n/a
575.0515	0.075	1150103	keystroke_r	r	n/a
575.2765	0.105	1150553	keystroke_c	c	n/a
575.457	0.134	1150914	keystroke_e	e	n/a
575.606	0.1205	1151212	keystroke_i	i	n/a
576.1765	0.12	1152353	keystroke_v	v	n/a
576.3265	0.12	1152653	keystroke_e	e	n/a
576.536	0.135	1153072	keystroke_d	d	n/a
576.6565	0.12	1153313	keystroke_Key.space	Key.space	n/a
576.822	0.0895	1153644	keystroke_a	a	n/a
576.9275	0.104	1153855	keystroke_l	l	n/a
577.0765	0.1205	1154153	keystroke_t	t	n/a
577.2715	0.18	1154543	keystroke_e	e	n/a
577.392	0.1345	1154784	keystroke_r	r	n/a
577.5415	0.09	1155083	keystroke_Key.space	Key.space	n/a
577.6775	0.119	1155355	keystroke_d	d	n/a
577.8115	0.045	1155623	keystroke_o	o	n/a
578.247	0.075	1156494	keystroke_n	n	n/a
578.396	0.106	1156792	keystroke_a	a	n/a
578.547	0.0895	1157094	keystroke_l	l	n/a
578.951	0.1355	1157902	keystroke_d	d	n/a
579.1015	0.075	1158203	keystroke_Key.space	Key.space	n/a
579.3715	0.075	1158743	keystroke_m	m	n/a
579.6565	0.06	1159313	keystroke_y	y	n/a
579.7915	0.135	1159583	keystroke_t	t	n/a
579.942	0.0895	1159884	keystroke_h	h	n/a
580.706	0.106	1161412	keystroke_Key.enter	Key.enter	n/a
580.818	9.3865	1161636	prompt	n/a	aimed profession indiana infant\n
581.517	0.119	1163034	keystroke_a	a	n/a
581.711	0.0755	1163422	keystroke_i	i	n/a
582.0715	0.0455	1164143	keystroke_e	e	n/a
582.1765	0.0595	1164353	keystroke_m	m	n/a
582.4465	0.045	1164893	keystroke_Key.backspace	Key.backspace	n/a
582.5815	0.075	1165163	keystroke_Key.backspace	Key.backspace	n/a
582.8215	0.09	1165643	keystroke_m	m	n/a
