onset	duration	sample	value	key	prompt_text
4.8575	12.488	9715	prompt	n/a	the quick brown fox jumps over a lazy dog\n
6.095	0.027	12190	keystroke_t	t	n/a
6.122	0.09	12244	keystroke_h	h	n/a
6.182	0.121	12364	keystroke_e	e	n/a
6.242	0.167	12484	keystroke_Key.space	Key.space	n/a
6.424	0.075	12848	keystroke_q	q	n/a
6.499	0.09	12998	keystroke_u	u	n/a
6.948	0.12	13896	keystroke_i	i	n/a
7.218	0.15	14436	keystroke_c	c	n/a
7.398	0.12	14796	keystroke_k	k	n/a
7.548	0.135	15096	keystroke_Key.space	Key.space	n/a
7.789	0.12	15578	keystroke_b	b	n/a
7.924	0.075	15848	keystroke_r	r	n/a
8.014	0.0745	16028	keystroke_o	o	n/a
8.0735	0.105	16147	keystroke_w	w	n/a
8.1935	0.09	16387	keystroke_n	n	n/a
8.2685	0.105	16537	keystroke_Key.space	Key.space	n/a
8.4035	0.105	16807	keystroke_f	f	n/a
8.4935	0.09	16987	keystroke_o	o	n/a
8.6435	0.15	17287	keystroke_x	x	n/a
8.8085	0.09	17617	keystroke_Key.space	Key.space	n/a
8.914	0.12	17828	keystroke_j	j	n/a
9.094	0.09	18188	keystroke_u	u	n/a
9.304	0.09	18608	keystroke_m	m	n/a
9.499	0.075	18998	keystroke_p	p	n/a
9.6335	0.1355	19267	keystroke_s	s	n/a
9.7085	0.1205	19417	keystroke_Key.space	Key.space	n/a
9.874	0.09	19748	keystroke_o	o	n/a
9.979	0.105	19958	keystroke_v	v	n/a
10.219	0.1045	20438	keystroke_e	e	n/a
10.279	0.15	20558	keystroke_r	r	n/a
10.774	0.1195	21548	keystroke_Key.space	Key.space	n/a
11.2385	0.105	22477	keystroke_a	a	n/a
11.6135	0.105	23227	keystroke_Key.space	Key.space	n/a
11.8835	0.105	23767	keystroke_l	l	n/a
11.9895	0.104	23979	keystroke_a	a	n/a
12.214	0.104	24428	keystroke_z	z	n/a
12.468	0.106	24936	keystroke_t	t	n/a
12.484	0.09	24968	keystroke_y	y	n/a
12.558	0.105	25116	keystroke_Key.space	Key.space	n/a
13.1135	0.045	26227	keystroke_=	=	n/a
13.1285	0.015	26257	keystroke_Key.backspace	Key.backspace	n/a
13.2635	0.09	26527	keystroke_=	=	n/a
13.4585	0.09	26917	keystroke_=	=	n/a
13.6385	0.075	27277	keystroke_=	=	n/a
14.2385	0.06	28477	keystroke_Key.backspace	Key.backspace	n/a
14.3885	0.06	28777	keystroke_Key.backspace	Key.backspace	n/a
14.5235	0.075	29047	keystroke_Key.backspace	Key.backspace	n/a
14.6735	0.075	29347	keystroke_Key.backspace	Key.backspace	n/a
14.8235	0.1045	29647	keystroke_Key.backspace	Key.backspace	n/a
15.258	0.105	30516	keystroke_Key.backspace	Key.backspace	n/a
16.023	0.03	32046	keystroke_y	y	n/a
16.038	0.1205	32076	keystroke_Key.space	Key.space	n/a
16.2935	0.105	32587	keystroke_d	d	n/a
16.3985	0.09	32797	keystroke_o	o	n/a
16.518	0.075	33036	keystroke_g	g	n/a
17.2835	0.06	34567	keystroke_Key.enter	Key.enter	n/a
17.3495	6.446	34699	prompt	n/a	abilities professionals voted porcelain\n
18.0185	0.09	36037	keystroke_a	a	n/a
18.1085	0.075	36217	keystroke_b	b	n/a
18.2285	0.18	36457	keystroke_i	i	n/a
18.3035	0.12	36607	keystroke_l	l	n/a
18.5135	0.105	37027	keystroke_i	i	n/a
18.6335	0.09	37267	keystroke_t	t	n/a
18.7685	0.1195	37537	keystroke_i	i	n/a
18.873	0.1505	37746	keystroke_e	e	n/a
18.948	0.1655	37896	keystroke_s	s	n/a
19.0835	0.135	38167	keystroke_Key.space	Key.space	n/a
19.3835	0.105	38767	keystroke_p	p	n/a
19.5335	0.09	39067	keystroke_r	r	n/a
19.6085	0.09	39217	keystroke_o	o	n/a
19.7135	0.135	39427	keystroke_f	f	n/a
19.878	0.09	39756	keystroke_e	e	n/a
20.088	0.06	40176	keystroke_s	s	n/a
20.224	0.089	40448	keystroke_s	s	n/a
20.3435	0.21	40687	keystroke_i	i	n/a
20.4035	0.135	40807	keystroke_o	o	n/a
20.4935	0.135	40987	keystroke_n	n	n/a
20.6435	0.075	41287	keystroke_a	a	n/a
20.7335	0.12	41467	keystroke_l	l	n/a
20.869	0.104	41738	keystroke_s	s	n/a
21.3785	0.1495	42757	keystroke_Key.space	Key.space	n/a
21.678	0.1055	43356	keystroke_v	v	n/a
21.7985	0.105	43597	keystroke_o	o	n/a
21.9635	0.12	43927	keystroke_t	t	n/a
22.0835	0.105	44167	keystroke_e	e	n/a
22.279	0.105	44558	keystroke_d	d	n/a
22.354	0.12	44708	keystroke_Key.space	Key.space	n/a
22.534	0.075	45068	keystroke_p	p	n/a
22.654	0.104	45308	keystroke_r	r	n/a
22.713	0.1055	45426	keystroke_o	o	n/a
22.9085	0.135	45817	keystroke_c	c	n/a
22.9985	0.105	45997	keystroke_e	e	n/a
23.148	0.105	46296	keystroke_l	l	n/a
23.2385	0.1045	46477	keystroke_a	a	n/a
23.3585	0.12	46717	keystroke_i	i	n/a
23.4335	0.12	46867	keystroke_n	n	n/a
23.718	0.075	47436	keystroke_Key.enter	Key.enter	n/a
23.7995	7.8405	47599	prompt	n/a	historic consist divx separation\n
24.4085	0.1195	48817	keystroke_h	h	n/a
24.498	0.1355	48996	keystroke_i	i	n/a
24.6185	0.15	49237	keystroke_s	s	n/a
24.7535	0.09	49507	keystroke_t	t	n/a
24.8435	0.105	49687	keystroke_o	o	n/a
24.9335	0.0905	49867	keystroke_r	r	n/a
25.054	0.135	50108	keystroke_i	i	n/a
25.174	0.12	50348	keystroke_c	c	n/a
25.279	0.12	50558	keystroke_Key.space	Key.space	n/a
25.519	0.105	51038	keystroke_c	c	n/a
25.609	0.075	51218	keystroke_o	o	n/a
25.729	0.1045	51458	keystroke_n	n	n/a
25.8035	0.09	51607	keystroke_s	s	n/a
25.9385	0.09	51877	keystroke_i	i	n/a
25.9985	0.12	51997	keystroke_s	s	n/a
26.2085	0.09	52417	keystroke_t	t	n/a
26.3885	0.12	52777	keystroke_Key.space	Key.space	n/a
26.6735	0.09	53347	keystroke_v	v	n/a
27.0335	0.045	54067	keystroke_Key.backspace	Key.backspace	n/a
27.409	0.12	54818	keystroke_d	d	n/a
27.559	0.09	55118	keystroke_i	i	n/a
27.709	0.12	55418	keystroke_v	v	n/a
28.2935	0.12	56587	keystroke_x	x	n/a
28.5635	0.09	57127	keystroke_Key.space	Key.space	n/a
28.728	0.21	57456	keystroke_s	s	n/a
28.879	0.119	57758	keystroke_e	e	n/a
28.954	0.089	57908	keystroke_r	r	n/a
29.058	0.09	58116	keystroke_p	p	n/a
29.433	0.075	58866	keystroke_Key.backspace	Key.backspace	n/a
29.778	0.075	59556	keystroke_Key.backspace	Key.backspace	n/a
30.0335	0.09	60067	keystroke_p	p	n/a
30.4235	0.165	60847	keystroke_a	a	n/a
30.5585	0.1505	61117	keystroke_r	r	n/a
30.709	0.1795	61418	keystroke_a	a	n/a
30.8735	0.09	61747	keystroke_t	t	n/a
30.9935	0.225	61987	keystroke_i	i	n/a
31.0535	0.135	62107	keystroke_o	o	n/a
31.1435	0.1505	62287	keystroke_n	n	n/a
31.563	0.075	63126	keystroke_Key.enter	Key.enter	n/a
31.6435	6.237	63287	prompt	n/a	sunrise quantity trial you'd\n
32.433	0.135	64866	keystroke_s	s	n/a
32.553	0.15	65106	keystroke_u	u	n/a
32.658	0.15	65316	keystroke_n	n	n/a
32.793	0.106	65586	keystroke_r	r	n/a
32.929	0.105	65858	keystroke_i	i	n/a
33.019	0.165	66038	keystroke_s	s	n/a
33.109	0.15	66218	keystroke_e	e	n/a
33.199	0.135	66398	keystroke_Key.space	Key.space	n/a
33.379	0.12	66758	keystroke_q	q	n/a
33.529	0.105	67058	keystroke_u	u	n/a
33.888	0.12	67776	keystroke_a	a	n/a
34.038	0.105	68076	keystroke_n	n	n/a
34.383	0.09	68766	keystroke_t	t	n/a
34.4885	0.1045	68977	keystroke_i	i	n/a
34.579	0.119	69158	keystroke_t	t	n/a
34.683	0.105	69366	keystroke_i	i	n/a
34.818	0.136	69636	keystroke_y	y	n/a
35.4035	0.045	70807	keystroke_Key.backspace	Key.backspace	n/a
35.5235	0.09	71047	keystroke_Key.backspace	Key.backspace	n/a
35.6435	0.12	71287	keystroke_y	y	n/a
35.7785	0.15	71557	keystroke_Key.space	Key.space	n/a
36.2735	0.105	72547	keystroke_t	t	n/a
36.3335	0.105	72667	keystroke_r	r	n/a
36.4535	0.105	72907	keystroke_i	i	n/a
36.5435	0.105	73087	keystroke_a	a	n/a
36.6635	0.1055	73327	keystroke_l	l	n/a
36.799	0.1495	73598	keystroke_Key.space	Key.space	n/a
37.0235	0.09	74047	keystroke_y	y	n/a
37.1285	0.1495	74257	keystroke_o	o	n/a
37.219	0.104	74438	keystroke_u	u	n/a
37.354	0.105	74708	keystroke_'	'	n/a
37.504	0.12	75008	keystroke_d	d	n/a
37.788	0.09	75576	keystroke_Key.enter	Key.enter	n/a
37.884	7.1515	75768	prompt	n/a	weapons enters musicians poor\n
38.4935	0.21	76987	keystroke_w	w	n/a
38.6585	0.165	77317	keystroke_e	e	n/a
38.7785	0.135	77557	keystroke_a	a	n/a
38.8835	0.075	77767	keystroke_o	o	n/a
38.8985	0.045	77797	keystroke_p	p	n/a
40.233	0.06	80466	keystroke_Key.backspace	Key.backspace	n/a
40.3385	0.075	80677	keystroke_Key.backspace	Key.backspace	n/a
40.564	0.075	81128	keystroke_p	p	n/a
40.759	0.105	81518	keystroke_o	o	n/a
40.864	0.075	81728	keystroke_n	n	n/a
41.194	0.15	82388	keystroke_s	s	n/a
41.359	0.105	82718	keystroke_Key.space	Key.space	n/a
41.569	0.105	83138	keystroke_e	e	n/a
41.674	0.12	83348	keystroke_n	n	n/a
41.749	0.09	83498	keystroke_t	t	n/a
41.869	0.12	83738	keystroke_e	e	n/a
41.944	0.165	83888	keystroke_r	r	n/a
42.109	0.21	84218	keystroke_s	s	n/a
42.304	0.135	84608	keystroke_Key.space	Key.space	n/a
42.694	0.09	85388	keystroke_m	m	n/a
42.8735	0.12	85747	keystroke_u	u	n/a
42.9785	0.09	85957	keystroke_s	s	n/a
43.2485	0.09	86497	keystroke_i	i	n/a
43.3535	0.12	86707	keystroke_c	c	n/a
43.4735	0.09	86947	keystroke_i	i	n/a
43.5785	0.09	87157	keystroke_a	a	n/a
43.6695	0.104	87339	keystroke_n	n	n/a
43.8185	0.1195	87637	keystroke_s	s	n/a
44.148	0.12	88296	keystroke_Key.space	Key.space	n/a
44.373	0.075	88746	keystroke_p	p	n/a
44.583	0.06	89166	keystroke_o	o	n/a
44.718	0.105	89436	keystroke_o	o	n/a
44.838	0.09	89676	keystroke_r	r	n/a
44.943	0.09	89886	keystroke_Key.enter	Key.enter	n/a
45.0385	4.4825	90077	prompt	n/a	deeper special sharp presence\n
45.6635	0.09	91327	keystroke_d	d	n/a
45.8585	0.06	91717	keystroke_e	e	n/a
45.978	0.09	91956	keystroke_e	e	n/a
46.069	0.089	92138	keystroke_p	p	n/a
46.173	0.1055	92346	keystroke_e	e	n/a
46.2335	0.135	92467	keystroke_r	r	n/a
46.3385	0.105	92677	keystroke_Key.space	Key.space	n/a
46.5785	0.105	93157	keystroke_s	s	n/a
46.7285	0.075	93457	keystroke_p	p	n/a
46.8035	0.105	93607	keystroke_e	e	n/a
47.0135	0.105	94027	keystroke_c	c	n/a
47.1485	0.075	94297	keystroke_i	i	n/a
47.2235	0.09	94447	keystroke_a	a	n/a
47.3585	0.075	94717	keystroke_l	l	n/a
47.538	0.0905	95076	keystroke_Key.space	Key.space	n/a
47.7185	0.105	95437	keystroke_s	s	n/a
47.839	0.1045	95678	keystroke_h	h	n/a
47.9135	0.15	95827	keystroke_a	a	n/a
48.0335	0.105	96067	keystroke_r	r	n/a
48.1535	0.075	96307	keystroke_p	p	n/a
48.2735	0.12	96547	keystroke_Key.space	Key.space	n/a
48.4535	0.075	96907	keystroke_p	p	n/a
48.5135	0.135	97027	keystroke_r	r	n/a
48.5885	0.135	97177	keystroke_e	e	n/a
48.6785	0.12	97357	keystroke_s	s	n/a
48.8285	0.12	97657	keystroke_e	e	n/a
49.0085	0.105	98017	keystroke_n	n	n/a
49.1145	0.149	98229	keystroke_c	c	n/a
49.2035	0.135	98407	keystroke_e	e	n/a
49.5035	0.015	99007	keystroke_Key.enter	Key.enter	n/a
49.5245	6.071	99049	prompt	n/a	intake pushed forestry postings\n
50.2085	0.105	100417	keystroke_i	i	n/a
50.2535	0.135	100507	keystroke_n	n	n/a
50.373	0.1205	100746	keystroke_t	t	n/a
50.5685	0.09	101137	keystroke_a	a	n/a
50.6735	0.09	101347	keystroke_k	k	n/a
50.7645	0.1195	101529	keystroke_e	e	n/a
50.839	0.12	101678	keystroke_Key.space	Key.space	n/a
51.094	0.075	102188	keystroke_p	p	n/a
51.304	0.09	102608	keystroke_u	u	n/a
51.409	0.105	102818	keystroke_s	s	n/a
51.499	0.09	102998	keystroke_h	h	n/a
51.559	0.09	103118	keystroke_e	e	n/a
51.7535	0.105	103507	keystroke_d	d	n/a
51.8135	0.18	103627	keystroke_Key.space	Key.space	n/a
52.0085	0.15	104017	keystroke_r	r	n/a
52.0685	0.075	104137	keystroke_e	e	n/a
52.4885	0.06	104977	keystroke_Key.backspace	Key.backspace	n/a
52.6235	0.075	105247	keystroke_Key.backspace	Key.backspace	n/a
52.7435	0.105	105487	keystroke_f	f	n/a
52.8635	0.075	105727	keystroke_o	o	n/a
52.9535	0.1205	105907	keystroke_r	r	n/a
53.0285	0.1055	106057	keystroke_e	e	n/a
53.269	0.12	106538	keystroke_s	s	n/a
53.554	0.105	107108	keystroke_t	t	n/a
53.629	0.105	107258	keystroke_r	r	n/a
53.809	0.074	107618	keystroke_y	y	n/a
53.974	0.12	107948	keystroke_Key.space	Key.space	n/a
54.154	0.075	108308	keystroke_p	p	n/a
54.319	0.075	108638	keystroke_o	o	n/a
54.409	0.165	108818	keystroke_s	s	n/a
54.559	0.09	109118	keystroke_t	t	n/a
55.114	0.135	110228	keystroke_i	i	n/a
55.174	0.12	110348	keystroke_n	n	n/a
55.234	0.12	110468	keystroke_g	g	n/a
55.324	0.12	110648	keystroke_s	s	n/a
55.504	0.09	111008	keystroke_Key.enter	Key.enter	n/a
55.6005	5.3645	111201	prompt	n/a	serious stories wisdom ireland\n
56.193	0.196	112386	keystroke_s	s	n/a
56.298	0.121	112596	keystroke_e	e	n/a
56.374	0.135	112748	keystroke_r	r	n/a
56.479	0.09	112958	keystroke_i	i	n/a
56.659	0.1495	113318	keystroke_o	o	n/a
56.764	0.135	113528	keystroke_u	u	n/a
56.824	0.105	113648	keystroke_s	s	n/a
56.914	0.135	113828	keystroke_Key.space	Key.space	n/a
57.049	0.165	114098	keystroke_s	s	n/a
57.1985	0.12	114397	keystroke_t	t	n/a
57.3335	0.075	114667	keystroke_o	o	n/a
57.3935	0.105	114787	keystroke_r	r	n/a
57.5435	0.105	115087	keystroke_i	i	n/a
57.6335	0.135	115267	keystroke_e	e	n/a
57.7235	0.15	115447	keystroke_s	s	n/a
57.8285	0.12	115657	keystroke_Key.space	Key.space	n/a
58.0085	0.105	116017	keystroke_w	w	n/a
58.1435	0.12	116287	keystroke_i	i	n/a
58.4435	0.105	116887	keystroke_d	d	n/a
58.834	0.09	117668	keystroke_Key.backspace	Key.backspace	n/a
58.969	0.135	117938	keystroke_s	s	n/a
59.044	0.12	118088	keystroke_d	d	n/a
59.179	0.15	118358	keystroke_o	o	n/a
59.299	0.12	118598	keystroke_m	m	n/a
59.929	0.12	119858	keystroke_Key.space	Key.space	n/a
60.094	0.135	120188	keystroke_i	i	n/a
60.169	0.165	120338	keystroke_r	r	n/a
60.274	0.12	120548	keystroke_e	e	n/a
60.439	0.0595	120878	keystroke_l	l	n/a
60.4995	0.104	120999	keystroke_a	a	n/a
60.5885	0.135	121177	keystroke_n	n	n/a
60.7085	0.09	121417	keystroke_d	d	n/a
60.859	0.105	121718	keystroke_Key.enter	Key.enter	n/a
60.9685	4.932	121937	prompt	n/a	his driven pricing examination\n
61.6535	0.12	123307	keystroke_h	h	n/a
61.7585	0.12	123517	keystroke_i	i	n/a
61.8935	0.15	123787	keystroke_s	s	n/a
61.9835	0.15	123967	keystroke_Key.space	Key.space	n/a
62.1785	0.135	124357	keystroke_d	d	n/a
62.3285	0.135	124657	keystroke_r	r	n/a
62.5085	0.135	125017	keystroke_i	i	n/a
62.6585	0.105	125317	keystroke_v	v	n/a
62.8085	0.09	125617	keystroke_e	e	n/a
62.9435	0.12	125887	keystroke_n	n	n/a
63.0485	0.105	126097	keystroke_Key.space	Key.space	n/a
63.2585	0.075	126517	keystroke_p	p	n/a
63.3185	0.09	126637	keystroke_r	r	n/a
63.4685	0.09	126937	keystroke_i	i	n/a
63.5435	0.12	127087	keystroke_c	c	n/a
63.7085	0.105	127417	keystroke_i	i	n/a
63.7685	0.1055	127537	keystroke_n	n	n/a
63.8435	0.1205	127687	keystroke_g	g	n/a
63.919	0.135	127838	keystroke_Key.space	Key.space	n/a
64.144	0.135	128288	keystroke_e	e	n/a
64.429	0.075	128858	keystroke_x	x	n/a
64.594	0.09	129188	keystroke_a	a	n/a
64.729	0.075	129458	keystroke_m	m	n/a
64.879	0.12	129758	keystroke_i	i	n/a
64.954	0.12	129908	keystroke_n	n	n/a
65.074	0.09	130148	keystroke_a	a	n/a
65.2685	0.0605	130537	keystroke_t	t	n/a
65.344	0.2245	130688	keystroke_i	i	n/a
65.434	0.1045	130868	keystroke_o	o	n/a
65.479	0.1495	130958	keystroke_n	n	n/a
65.8085	0.09	131617	keystroke_Key.enter	Key.enter	n/a
65.9045	8.981	131809	prompt	n/a	strips advertisement phenomenon norfolk\n
66.5735	0.12	133147	keystroke_s	s	n/a
66.7385	0.1055	133477	keystroke_t	t	n/a
66.8135	0.0745	133627	keystroke_r	r	n/a
66.904	0.105	133808	keystroke_i	i	n/a
67.128	0.091	134256	keystroke_p	p	n/a
67.234	0.135	134468	keystroke_s	s	n/a
67.323	0.12	134646	keystroke_Key.space	Key.space	n/a
67.474	0.18	134948	keystroke_a	a	n/a
67.608	0.136	135216	keystroke_d	d	n/a
67.954	0.03	135908	keystroke_v	v	n/a
68.7035	0.1655	137407	keystroke_e	e	n/a
68.824	0.105	137648	keystroke_r	r	n/a
69.049	0.105	138098	keystroke_t	t	n/a
69.199	0.1045	138398	keystroke_i	i	n/a
69.2885	0.135	138577	keystroke_s	s	n/a
69.3785	0.12	138757	keystroke_e	e	n/a
69.5885	0.09	139177	keystroke_m	m	n/a
69.6795	0.104	139359	keystroke_e	e	n/a
69.7685	0.09	139537	keystroke_n	n	n/a
69.8435	0.105	139687	keystroke_t	t	n/a
70.0835	0.1205	140167	keystroke_Key.space	Key.space	n/a
70.2935	0.075	140587	keystroke_p	p	n/a
70.5035	0.105	141007	keystroke_h	h	n/a
70.6235	0.106	141247	keystroke_e	e	n/a
70.7585	0.1055	141517	keystroke_n	n	n/a
70.999	0.105	141998	keystroke_o	o	n/a
71.164	0.105	142328	keystroke_m	m	n/a
71.3735	0.075	142747	keystroke_e	e	n/a
71.4785	0.105	142957	keystroke_n	n	n/a
71.6735	0.09	143347	keystroke_o	o	n/a
71.8385	0.09	143677	keystroke_n	n	n/a
72.0035	0.135	144007	keystroke_Key.space	Key.space	n/a
72.1835	0.075	144367	keystroke_n	n	n/a
72.3035	0.105	144607	keystroke_o	o	n/a
72.4235	0.09	144847	keystroke_r	r	n/a
72.6935	0.09	145387	keystroke_f	f	n/a
72.8135	0.1205	145627	keystroke_o	o	n/a
73.339	0.06	146678	keystroke_k	k	n/a
74.0885	0.105	148177	keystroke_Key.backspace	Key.backspace	n/a
74.4935	0.15	148987	keystroke_l	l	n/a
74.5835	0.105	149167	keystroke_k	k	n/a
74.7935	0.09	149587	keystroke_Key.enter	Key.enter	n/a
74.889	6.7915	149778	prompt	n/a	techrepublic medium december settle\n
75.829	0.12	151658	keystroke_t	t	n/a
75.949	0.135	151898	keystroke_e	e	n/a
76.114	0.105	152228	keystroke_c	c	n/a
76.234	0.1195	152468	keystroke_h	h	n/a
76.3835	0.135	152767	keystroke_r	r	n/a
76.4735	0.105	152947	keystroke_e	e	n/a
76.5935	0.09	153187	keystroke_p	p	n/a
76.8635	0.09	153727	keystroke_u	u	n/a
77.0435	0.075	154087	keystroke_b	b	n/a
77.2085	0.06	154417	keystroke_l	l	n/a
77.3585	0.105	154717	keystroke_i	i	n/a
77.4485	0.105	154897	keystroke_c	c	n/a
77.5085	0.135	155017	keystroke_Key.space	Key.space	n/a
77.7345	0.12	155469	keystroke_m	m	n/a
77.7945	0.105	155589	keystroke_e	e	n/a
77.9445	0.134	155889	keystroke_d	d	n/a
78.0635	0.091	156127	keystroke_i	i	n/a
78.2585	0.075	156517	keystroke_u	u	n/a
78.5285	0.03	157057	keystroke_m	m	n/a
78.5435	0.12	157087	keystroke_Key.space	Key.space	n/a
79.0235	0.1055	158047	keystroke_d	d	n/a
79.204	0.09	158408	keystroke_e	e	n/a
79.324	0.135	158648	keystroke_c	c	n/a
79.489	0.09	158978	keystroke_e	e	n/a
79.594	0.09	159188	keystroke_m	m	n/a
79.804	0.09	159608	keystroke_b	b	n/a
79.939	0.09	159878	keystroke_e	e	n/a
79.969	0.135	159938	keystroke_r	r	n/a
80.059	0.165	160118	keystroke_Key.space	Key.space	n/a
80.209	0.1645	160418	keystroke_s	s	n/a
80.3285	0.135	160657	keystroke_e	e	n/a
80.614	0.0895	161228	keystroke_t	t	n/a
80.7635	0.105	161527	keystroke_t	t	n/a
80.9285	0.12	161857	keystroke_l	l	n/a
81.3485	0.075	162697	keystroke_e	e	n/a
81.6185	0.06	163237	keystroke_Key.enter	Key.enter	n/a
81.6835	5.1275	163367	prompt	n/a	criterion rolled distance lawyer\n
82.3535	0.135	164707	keystroke_c	c	n/a
82.6085	0.09	165217	keystroke_r	r	n/a
82.7135	0.105	165427	keystroke_i	i	n/a
82.804	0.0745	165608	keystroke_t	t	n/a
82.8935	0.12	165787	keystroke_e	e	n/a
82.9685	0.1355	165937	keystroke_r	r	n/a
83.089	0.24	166178	keystroke_i	i	n/a
83.149	0.15	166298	keystroke_o	o	n/a
83.314	0.105	166628	keystroke_n	n	n/a
83.434	0.135	166868	keystroke_Key.space	Key.space	n/a
83.629	0.15	167258	keystroke_r	r	n/a
83.809	0.09	167618	keystroke_o	o	n/a
83.974	0.075	167948	keystroke_l	l	n/a
84.094	0.09	168188	keystroke_l	l	n/a
84.199	0.09	168398	keystroke_e	e	n/a
84.379	0.135	168758	keystroke_d	d	n/a
84.499	0.12	168998	keystroke_Key.space	Key.space	n/a
84.694	0.12	169388	keystroke_d	d	n/a
84.829	0.12	169658	keystroke_i	i	n/a
84.904	0.18	169808	keystroke_s	s	n/a
85.069	0.09	170138	keystroke_t	t	n/a
85.219	0.15	170438	keystroke_a	a	n/a
85.354	0.12	170708	keystroke_n	n	n/a
85.414	0.12	170828	keystroke_c	c	n/a
85.489	0.1045	170978	keystroke_e	e	n/a
85.549	0.135	171098	keystroke_Key.space	Key.space	n/a
85.6985	0.1055	171397	keystroke_l	l	n/a
85.774	0.15	171548	keystroke_a	a	n/a
85.864	0.195	171728	keystroke_w	w	n/a
86.224	0.075	172448	keystroke_y	y	n/a
86.434	0.105	172868	keystroke_e	e	n/a
86.509	0.12	173018	keystroke_r	r	n/a
86.794	0.015	173588	keystroke_Key.enter	Key.enter	n/a
86.8145	6.926	173629	prompt	n/a	sustained deposit privileges pressing\n
87.394	0.105	174788	keystroke_s	s	n/a
87.514	0.09	175028	keystroke_u	u	n/a
87.574	0.135	175148	keystroke_s	s	n/a
87.724	0.105	175448	keystroke_t	t	n/a
87.874	0.105	175748	keystroke_a	a	n/a
87.949	0.1195	175898	keystroke_i	i	n/a
88.009	0.1345	176018	keystroke_n	n	n/a
88.0985	0.075	176197	keystroke_e	e	n/a
88.2635	0.135	176527	keystroke_d	d	n/a
88.3835	0.1055	176767	keystroke_Key.space	Key.space	n/a
88.519	0.105	177038	keystroke_d	d	n/a
88.714	0.09	177428	keystroke_e	e	n/a
88.8185	0.09	177637	keystroke_p	p	n/a
88.9835	0.1055	177967	keystroke_o	o	n/a
89.0735	0.12	178147	keystroke_s	s	n/a
89.209	0.105	178418	keystroke_i	i	n/a
89.3145	0.0745	178629	keystroke_t	t	n/a
89.4785	0.135	178957	keystroke_Key.space	Key.space	n/a
89.689	0.1045	179378	keystroke_p	p	n/a
89.779	0.0595	179558	keystroke_r	r	n/a
89.9435	0.105	179887	keystroke_i	i	n/a
90.0495	0.119	180099	keystroke_v	v	n/a
90.5585	0.0755	181117	keystroke_i	i	n/a
90.7385	0.1055	181477	keystroke_l	l	n/a
90.964	0.0755	181928	keystroke_e	e	n/a
91.1445	0.0745	182289	keystroke_g	g	n/a
91.279	0.12	182558	keystroke_e	e	n/a
91.354	0.18	182708	keystroke_s	s	n/a
91.519	0.09	183038	keystroke_Key.space	Key.space	n/a
92.1785	0.121	184357	keystroke_p	p	n/a
92.2535	0.15	184507	keystroke_r	r	n/a
92.3135	0.136	184627	keystroke_e	e	n/a
92.5385	0.075	185077	keystroke_s	s	n/a
92.7785	0.1655	185557	keystroke_s	s	n/a
93.214	0.15	186428	keystroke_i	i	n/a
93.289	0.12	186578	keystroke_n	n	n/a
93.424	0.09	186848	keystroke_g	g	n/a
93.679	0.06	187358	keystroke_Key.enter	Key.enter	n/a
93.7435	5.907	187487	prompt	n/a	meal administration bronze sustainability\n
94.369	0.12	188738	keystroke_m	m	n/a
94.429	0.12	188858	keystroke_e	e	n/a
94.504	0.105	189008	keystroke_a	a	n/a
94.594	0.12	189188	keystroke_l	l	n/a
94.699	0.12	189398	keystroke_Key.space	Key.space	n/a
94.9085	0.15	189817	keystroke_a	a	n/a
95.0285	0.12	190057	keystroke_d	d	n/a
95.1195	0.074	190239	keystroke_m	m	n/a
95.2245	0.105	190449	keystroke_i	i	n/a
95.3135	0.075	190627	keystroke_n	n	n/a
95.4335	0.105	190867	keystroke_i	i	n/a
95.4785	0.105	190957	keystroke_s	s	n/a
95.6285	0.09	191257	keystroke_t	t	n/a
95.6735	0.15	191347	keystroke_r	r	n/a
95.8085	0.15	191617	keystroke_a	a	n/a
95.9435	0.105	191887	keystroke_t	t	n/a
95.9735	0.195	191947	keystroke_i	i	n/a
96.0185	0.135	192037	keystroke_o	o	n/a
96.0935	0.135	192187	keystroke_n	n	n/a
96.1985	0.12	192397	keystroke_Key.space	Key.space	n/a
96.3335	0.075	192667	keystroke_b	b	n/a
96.4235	0.105	192847	keystroke_r	r	n/a
96.5135	0.09	193027	keystroke_o	o	n/a
96.679	0.105	193358	keystroke_n	n	n/a
96.844	0.15	193688	keystroke_z	z	n/a
96.949	0.135	193898	keystroke_e	e	n/a
97.054	0.135	194108	keystroke_Key.space	Key.space	n/a
97.759	0.105	195518	keystroke_s	s	n/a
97.849	0.12	195698	keystroke_u	u	n/a
97.954	0.105	195908	keystroke_s	s	n/a
98.089	0.105	196178	keystroke_t	t	n/a
98.239	0.12	196478	keystroke_a	a	n/a
98.314	0.135	196628	keystroke_i	i	n/a
98.389	0.135	196778	keystroke_n	n	n/a
98.599	0.1195	197198	keystroke_a	a	n/a
98.7485	0.1055	197497	keystroke_b	b	n/a
98.8235	0.1805	197647	keystroke_i	i	n/a
98.929	0.09	197858	keystroke_l	l	n/a
99.109	0.12	198218	keystroke_i	i	n/a
99.214	0.105	198428	keystroke_t	t	n/a
99.409	0.0755	198818	keystroke_y	y	n/a
99.5745	0.075	199149	keystroke_Key.enter	Key.enter	n/a
99.6535	7.977	199307	prompt	n/a	griffin tournaments nicholas developments\n
101.0745	0.06	202149	keystroke_g	g	n/a
101.2995	0.015	202599	keystroke_r	r	n/a
101.3295	0.1045	202659	keystroke_i	i	n/a
101.449	0.045	202898	keystroke_f	f	n/a
101.569	0.09	203138	keystroke_f	f	n/a
101.689	0.12	203378	keystroke_i	i	n/a
101.764	0.12	203528	keystroke_n	n	n/a
101.869	0.135	203738	keystroke_Key.space	Key.space	n/a
102.109	0.1045	204218	keystroke_t	t	n/a
102.1985	0.135	204397	keystroke_o	o	n/a
102.2885	0.12	204577	keystroke_u	u	n/a
102.3935	0.09	204787	keystroke_r	r	n/a
102.5285	0.12	205057	keystroke_n	n	n/a
102.7235	0.105	205447	keystroke_a	a	n/a
102.8435	0.105	205687	keystroke_m	m	n/a
103.0535	0.105	206107	keystroke_e	e	n/a
103.1735	0.105	206347	keystroke_n	n	n/a
103.2635	0.135	206527	keystroke_t	t	n/a
103.3685	0.135	206737	keystroke_s	s	n/a
103.4435	0.135	206887	keystroke_Key.space	Key.space	n/a
103.6235	0.12	207247	keystroke_n	n	n/a
103.7135	0.105	207427	keystroke_i	i	n/a
103.8335	0.09	207667	keystroke_c	c	n/a
103.9085	0.105	207817	keystroke_h	h	n/a
104.4485	0.105	208897	keystroke_o	o	n/a
104.6135	0.1055	209227	keystroke_l	l	n/a
104.7195	0.1505	209439	keystroke_a	a	n/a
104.8385	0.1355	209677	keystroke_s	s	n/a
104.959	0.105	209918	keystroke_Key.space	Key.space	n/a
105.154	0.075	210308	keystroke_d	d	n/a
105.304	0.09	210608	keystroke_e	e	n/a
106.039	0.09	212078	keystroke_v	v	n/a
106.249	0.06	212498	keystroke_e	e	n/a
106.399	0.09	212798	keystroke_l	l	n/a
106.609	0.165	213218	keystroke_o	o	n/a
106.684	0.105	213368	keystroke_p	p	n/a
107.044	0.09	214088	keystroke_m	m	n/a
107.164	0.09	214328	keystroke_e	e	n/a
107.255	0.089	214510	keystroke_n	n	n/a
107.314	0.12	214628	keystroke_t	t	n/a
107.419	0.09	214838	keystroke_s	s	n/a
107.554	0.075	215108	keystroke_Key.enter	Key.enter	n/a
107.634	6.2965	215268	prompt	n/a	revelation induction defeat obituaries\n
108.229	0.12	216458	keystroke_r	r	n/a
108.334	0.105	216668	keystroke_e	e	n/a
108.559	0.12	217118	keystroke_v	v	n/a
108.68	0.104	217360	keystroke_e	e	n/a
109.024	0.1055	218048	keystroke_l	l	n/a
109.159	0.105	218318	keystroke_a	a	n/a
109.369	0.075	218738	keystroke_t	t	n/a
109.429	0.21	218858	keystroke_i	i	n/a
109.504	0.105	219008	keystroke_o	o	n/a
109.579	0.18	219158	keystroke_n	n	n/a
109.819	0.12	219638	keystroke_Key.space	Key.space	n/a
110.104	0.135	220208	keystroke_i	i	n/a
110.194	0.15	220388	keystroke_n	n	n/a
110.329	0.09	220658	keystroke_d	d	n/a
110.464	0.105	220928	keystroke_u	u	n/a
110.524	0.09	221048	keystroke_c	c	n/a
110.7345	0.06	221469	keystroke_t	t	n/a
110.7635	0.2105	221527	keystroke_i	i	n/a
110.809	0.12	221618	keystroke_o	o	n/a
110.899	0.135	221798	keystroke_n	n	n/a
110.989	0.135	221978	keystroke_Key.space	Key.space	n/a
111.169	0.075	222338	keystroke_d	d	n/a
111.319	0.12	222638	keystroke_e	e	n/a
111.499	0.105	222998	keystroke_f	f	n/a
111.649	0.165	223298	keystroke_e	e	n/a
111.754	0.12	223508	keystroke_a	a	n/a
111.919	0.12	223838	keystroke_t	t	n/a
112.024	0.18	224048	keystroke_Key.space	Key.space	n/a
112.219	0.075	224438	keystroke_o	o	n/a
112.384	0.06	224768	keystroke_b	b	n/a
112.519	0.105	225038	keystroke_i	i	n/a
112.639	0.0745	225278	keystroke_t	t	n/a
112.909	0.09	225818	keystroke_u	u	n/a
113.059	0.195	226118	keystroke_a	a	n/a
113.209	0.105	226418	keystroke_r	r	n/a
113.434	0.09	226868	keystroke_i	i	n/a
113.539	0.12	227078	keystroke_e	e	n/a
113.599	0.12	227198	keystroke_s	s	n/a
113.854	0.075	227708	keystroke_Key.enter	Key.enter	n/a
113.9335	6.537	227867	prompt	n/a	search developed celebrate mounted\n
114.694	0.09	229388	keystroke_s	s	n/a
114.9045	0.119	229809	keystroke_e	e	n/a
115.0095	0.194	230019	keystroke_a	a	n/a
115.1735	0.091	230347	keystroke_r	r	n/a
115.3995	0.09	230799	keystroke_c	c	n/a
115.5495	0.104	231099	keystroke_h	h	n/a
115.6235	0.136	231247	keystroke_Key.space	Key.space	n/a
115.8045	0.09	231609	keystroke_d	d	n/a
115.9245	0.09	231849	keystroke_e	e	n/a
116.0895	0.075	232179	keystroke_v	v	n/a
116.1795	0.09	232359	keystroke_e	e	n/a
116.2845	0.09	232569	keystroke_l	l	n/a
116.4645	0.15	232929	keystroke_o	o	n/a
116.5245	0.105	233049	keystroke_p	p	n/a
117.0345	0.09	234069	keystroke_e	e	n/a
117.2295	0.1345	234459	keystroke_d	d	n/a
117.319	0.12	234638	keystroke_Key.space	Key.space	n/a
117.604	0.12	235208	keystroke_s	s	n/a
117.709	0.135	235418	keystroke_e	e	n/a
118.069	0.075	236138	keystroke_Key.backspace	Key.backspace	n/a
118.189	0.075	236378	keystroke_Key.backspace	Key.backspace	n/a
118.279	0.12	236558	keystroke_c	c	n/a
118.354	0.105	236708	keystroke_e	e	n/a
118.489	0.105	236978	keystroke_l	l	n/a
118.609	0.0905	237218	keystroke_e	e	n/a
118.8345	0.12	237669	keystroke_b	b	n/a
118.9395	0.12	237879	keystroke_r	r	n/a
119.0445	0.105	238089	keystroke_a	a	n/a
119.2095	0.105	238419	keystroke_t	t	n/a
119.2545	0.12	238509	keystroke_e	e	n/a
119.3445	0.165	238689	keystroke_Key.space	Key.space	n/a
119.5245	0.09	239049	keystroke_m	m	n/a
119.6445	0.165	239289	keystroke_o	o	n/a
119.7645	0.0895	239529	keystroke_u	u	n/a
119.929	0.12	239858	keystroke_n	n	n/a
119.989	0.135	239978	keystroke_t	t	n/a
120.079	0.09	240158	keystroke_e	e	n/a
120.244	0.105	240488	keystroke_d	d	n/a
120.394	0.075	240788	keystroke_Key.enter	Key.enter	n/a
120.4735	6.582	240947	prompt	n/a	backing salvador travesti text\n
121.0985	0.106	242197	keystroke_b	b	n/a
121.1585	0.181	242317	keystroke_a	a	n/a
121.2945	0.135	242589	keystroke_c	c	n/a
121.3845	0.09	242769	keystroke_k	k	n/a
121.5795	0.105	243159	keystroke_i	i	n/a
121.6395	0.15	243279	keystroke_n	n	n/a
121.7145	0.105	243429	keystroke_g	g	n/a
121.7745	0.1345	243549	keystroke_Key.space	Key.space	n/a
122.0445	0.1045	244089	keystroke_s	s	n/a
122.2245	0.105	244449	keystroke_l	l	n/a
122.6445	0.0745	245289	keystroke_Key.backspace	Key.backspace	n/a
122.824	0.105	245648	keystroke_a	a	n/a
122.899	0.12	245798	keystroke_l	l	n/a
123.2295	0.12	246459	keystroke_v	v	n/a
123.469	0.1355	246938	keystroke_a	a	n/a
123.7395	0.0895	247479	keystroke_d	d	n/a
123.874	0.0755	247748	keystroke_o	o	n/a
123.9645	0.12	247929	keystroke_r	r	n/a
124.0395	0.105	248079	keystroke_Key.space	Key.space	n/a
124.2795	0.075	248559	keystroke_t	t	n/a
124.2945	0.105	248589	keystroke_r	r	n/a
124.5045	0.0895	249009	keystroke_a	a	n/a
124.804	0.1345	249608	keystroke_v	v	n/a
124.9835	0.15	249967	keystroke_e	e	n/a
125.1345	0.1795	250269	keystroke_s	s	n/a
125.659	0.105	251318	keystroke_t	t	n/a
125.839	0.105	251678	keystroke_i	i	n/a
125.959	0.15	251918	keystroke_Key.space	Key.space	n/a
126.259	0.09	252518	keystroke_t	t	n/a
126.334	0.12	252668	keystroke_e	e	n/a
126.589	0.075	253178	keystroke_x	x	n/a
126.8145	0.074	253629	keystroke_t	t	n/a
126.9785	0.075	253957	keystroke_Key.enter	Key.enter	n/a
127.0615	6.984	254123	prompt	n/a	uruguay changed profile starts\n
127.774	0.09	255548	keystroke_u	u	n/a
127.834	0.105	255668	keystroke_r	r	n/a
127.954	0.12	255908	keystroke_u	u	n/a
128.089	0.105	256178	keystroke_g	g	n/a
128.479	0.12	256958	keystroke_u	u	n/a
128.614	0.12	257228	keystroke_a	a	n/a
129.049	0.12	258098	keystroke_y	y	n/a
129.184	0.135	258368	keystroke_Key.space	Key.space	n/a
130.969	0.12	261938	keystroke_c	c	n/a
131.074	0.12	262148	keystroke_h	h	n/a
131.134	0.105	262268	keystroke_a	a	n/a
131.284	0.12	262568	keystroke_n	n	n/a
131.344	0.105	262688	keystroke_g	g	n/a
131.389	0.12	262778	keystroke_e	e	n/a
131.6135	0.1355	263227	keystroke_d	d	n/a
131.689	0.135	263378	keystroke_Key.space	Key.space	n/a
131.914	0.09	263828	keystroke_p	p	n/a
131.9885	0.0755	263977	keystroke_r	r	n/a
132.1095	0.075	264219	keystroke_o	o	n/a
132.2145	0.105	264429	keystroke_f	f	n/a
132.4095	0.225	264819	keystroke_i	i	n/a
132.5295	0.135	265059	keystroke_l	l	n/a
132.6495	0.18	265299	keystroke_e	e	n/a
132.994	0.12	265988	keystroke_Key.space	Key.space	n/a
133.189	0.15	266378	keystroke_s	s	n/a
133.309	0.105	266618	keystroke_t	t	n/a
133.444	0.1345	266888	keystroke_a	a	n/a
133.5185	0.12	267037	keystroke_r	r	n/a
133.6985	0.12	267397	keystroke_t	t	n/a
133.7885	0.12	267577	keystroke_s	s	n/a
133.9535	0.09	267907	keystroke_Key.enter	Key.enter	n/a
134.049	5.8165	268098	prompt	n/a	webcam started leave shepherd\n
134.719	0.15	269438	keystroke_w	w	n/a
134.809	0.12	269618	keystroke_e	e	n/a
134.944	0.1055	269888	keystroke_b	b	n/a
135.1545	0.105	270309	keystroke_c	c	n/a
135.2295	0.105	270459	keystroke_a	a	n/a
135.3495	0.105	270699	keystroke_m	m	n/a
135.4845	0.12	270969	keystroke_Key.space	Key.space	n/a
135.5595	0.18	271119	keystroke_s	s	n/a
135.7095	0.12	271419	keystroke_t	t	n/a
135.8595	0.15	271719	keystroke_a	a	n/a
135.9345	0.12	271869	keystroke_r	r	n/a
136.1145	0.105	272229	keystroke_t	t	n/a
136.1895	0.105	272379	keystroke_e	e	n/a
136.3695	0.15	272739	keystroke_d	d	n/a
136.5195	0.135	273039	keystroke_Key.space	Key.space	n/a
136.7595	0.1045	273519	keystroke_l	l	n/a
136.834	0.135	273668	keystroke_e	e	n/a
136.939	0.15	273878	keystroke_a	a	n/a
137.134	0.135	274268	keystroke_v	v	n/a
137.224	0.135	274448	keystroke_e	e	n/a
137.344	0.105	274688	keystroke_Key.space	Key.space	n/a
137.509	0.135	275018	keystroke_s	s	n/a
137.614	0.135	275228	keystroke_h	h	n/a
137.764	0.12	275528	keystroke_e	e	n/a
138.079	0.015	276158	keystroke_p	p	n/a
139.114	0.105	278228	keystroke_h	h	n/a
139.189	0.18	278378	keystroke_e	e	n/a
139.309	0.15	278618	keystroke_r	r	n/a
139.5785	0.136	279157	keystroke_d	d	n/a
139.8035	0.06	279607	keystroke_Key.enter	Key.enter	n/a
139.869	6.297	279738	prompt	n/a	visitors maternity automatically comments\n
140.6735	0.12	281347	keystroke_v	v	n/a
140.8235	0.0905	281647	keystroke_i	i	n/a
140.884	0.105	281768	keystroke_s	s	n/a
141.004	0.105	282008	keystroke_i	i	n/a
141.064	0.09	282128	keystroke_t	t	n/a
141.499	0.09	282998	keystroke_o	o	n/a
141.634	0.1355	283268	keystroke_r	r	n/a
141.7245	0.179	283449	keystroke_s	s	n/a
141.8285	0.151	283657	keystroke_Key.space	Key.space	n/a
142.0695	0.1195	284139	keystroke_m	m	n/a
142.1445	0.1795	284289	keystroke_a	a	n/a
142.279	0.105	284558	keystroke_t	t	n/a
142.429	0.12	284858	keystroke_e	e	n/a
142.504	0.105	285008	keystroke_r	r	n/a
142.624	0.105	285248	keystroke_n	n	n/a
142.744	0.1055	285488	keystroke_i	i	n/a
142.8345	0.09	285669	keystroke_t	t	n/a
143.0445	0.09	286089	keystroke_y	y	n/a
143.1195	0.12	286239	keystroke_Key.space	Key.space	n/a
143.2545	0.15	286509	keystroke_a	a	n/a
143.3895	0.12	286779	keystroke_u	u	n/a
143.5245	0.075	287049	keystroke_t	t	n/a
143.6145	0.075	287229	keystroke_o	o	n/a
143.8095	0.075	287619	keystroke_m	m	n/a
143.9295	0.12	287859	keystroke_a	a	n/a
144.1245	0.075	288249	keystroke_t	t	n/a
144.2595	0.105	288519	keystroke_i	i	n/a
144.3495	0.1195	288699	keystroke_c	c	n/a
144.424	0.12	288848	keystroke_a	a	n/a
144.559	0.06	289118	keystroke_l	l	n/a
144.71	0.089	289420	keystroke_l	l	n/a
144.784	0.09	289568	keystroke_y	y	n/a
144.844	0.12	289688	keystroke_Key.space	Key.space	n/a
145.114	0.09	290228	keystroke_c	c	n/a
145.264	0.075	290528	keystroke_o	o	n/a
145.459	0.045	290918	keystroke_m	m	n/a
145.564	0.105	291128	keystroke_m	m	n/a
145.684	0.1195	291368	keystroke_e	e	n/a
145.7885	0.09	291577	keystroke_n	n	n/a
145.8335	0.12	291667	keystroke_t	t	n/a
145.9385	0.105	291877	keystroke_s	s	n/a
146.0895	0.074	292179	keystroke_Key.enter	Key.enter	n/a
146.17	5.3055	292340	prompt	n/a	renewable ribbon candle advised\n
146.7795	0.105	293559	keystroke_r	r	n/a
146.8545	0.075	293709	keystroke_e	e	n/a
146.9445	0.105	293889	keystroke_n	n	n/a
147.2295	0.15	294459	keystroke_e	e	n/a
147.3195	0.135	294639	keystroke_w	w	n/a
147.5145	0.135	295029	keystroke_a	a	n/a
147.6345	0.075	295269	keystroke_b	b	n/a
147.7845	0.105	295569	keystroke_l	l	n/a
147.8745	0.12	295749	keystroke_e	e	n/a
148.0395	0.12	296079	keystroke_Key.space	Key.space	n/a
148.2945	0.09	296589	keystroke_r	r	n/a
148.3695	0.1045	296739	keystroke_i	i	n/a
148.564	0.06	297128	keystroke_b	b	n/a
148.669	0.09	297338	keystroke_b	b	n/a
148.864	0.06	297728	keystroke_o	o	n/a
148.984	0.12	297968	keystroke_n	n	n/a
149.089	0.12	298178	keystroke_Key.space	Key.space	n/a
149.329	0.15	298658	keystroke_c	c	n/a
149.449	0.12	298898	keystroke_a	a	n/a
149.584	0.12	299168	keystroke_n	n	n/a
149.734	0.0905	299468	keystroke_d	d	n/a
149.8695	0.135	299739	keystroke_l	l	n/a
149.9895	0.09	299979	keystroke_e	e	n/a
150.0645	0.12	300129	keystroke_Key.space	Key.space	n/a
150.4095	0.18	300819	keystroke_a	a	n/a
150.5295	0.12	301059	keystroke_d	d	n/a
150.7545	0.104	301509	keystroke_v	v	n/a
150.8735	0.106	301747	keystroke_i	i	n/a
150.9795	0.149	301959	keystroke_s	s	n/a
151.0685	0.09	302137	keystroke_e	e	n/a
151.2495	0.089	302499	keystroke_d	d	n/a
151.3985	0.075	302797	keystroke_Key.enter	Key.enter	n/a
151.479	6.897	302958	prompt	n/a	vampire confusion fred occupied\n
152.2545	0.104	304509	keystroke_v	v	n/a
152.4635	0.091	304927	keystroke_a	a	n/a
152.599	0.075	305198	keystroke_m	m	n/a
152.779	0.0605	305558	keystroke_p	p	n/a
152.959	0.0905	305918	keystroke_i	i	n/a
153.004	0.12	306008	keystroke_r	r	n/a
153.079	0.105	306158	keystroke_e	e	n/a
153.154	0.12	306308	keystroke_Key.space	Key.space	n/a
153.544	0.135	307088	keystroke_c	c	n/a
153.664	0.075	307328	keystroke_o	o	n/a
153.8295	0.09	307659	keystroke_n	n	n/a
153.9045	0.1195	307809	keystroke_f	f	n/a
154.0395	0.09	308079	keystroke_u	u	n/a
154.1145	0.12	308229	keystroke_s	s	n/a
154.2495	0.18	308499	keystroke_i	i	n/a
154.2795	0.12	308559	keystroke_o	o	n/a
154.3995	0.09	308799	keystroke_n	n	n/a
154.4585	0.121	308917	keystroke_Key.space	Key.space	n/a
154.8045	0.0895	309609	keystroke_f	f	n/a
154.954	0.12	309908	keystroke_r	r	n/a
155.044	0.105	310088	keystroke_e	e	n/a
155.239	0.105	310478	keystroke_d	d	n/a
155.314	0.12	310628	keystroke_Key.space	Key.space	n/a
155.524	0.09	311048	keystroke_o	o	n/a
155.629	0.06	311258	keystroke_c	c	n/a
155.749	0.12	311498	keystroke_c	c	n/a
155.884	0.09	311768	keystroke_u	u	n/a
156.109	0.075	312218	keystroke_p	p	n/a
156.289	0.03	312578	keystroke_o	o	n/a
156.304	0.075	312608	keystroke_i	i	n/a
156.364	0.075	312728	keystroke_e	e	n/a
156.589	0.0895	313178	keystroke_d	d	n/a
156.844	0.06	313688	keystroke_Key.backspace	Key.backspace	n/a
157.054	0.015	314108	keystroke_Key.backspace	Key.backspace	n/a
157.129	0.075	314258	keystroke_Key.backspace	Key.backspace	n/a
157.264	0.075	314528	keystroke_Key.backspace	Key.backspace	n/a
157.924	0.09	315848	keystroke_i	i	n/a
157.999	0.075	315998	keystroke_e	e	n/a
158.164	0.12	316328	keystroke_d	d	n/a
158.314	0.06	316628	keystroke_Key.enter	Key.enter	n/a
158.3805	9.235	316761	prompt	n/a	macromedia delhi extraordinary teens\n
159.094	0.15	318188	keystroke_m	m	n/a
159.199	0.12	318398	keystroke_a	a	n/a
159.7395	0.06	319479	keystroke_r	r	n/a
159.9495	0.09	319899	keystroke_o	o	n/a
160.984	0.045	321968	keystroke_Key.backspace	Key.backspace	n/a
161.194	0.015	322388	keystroke_Key.backspace	Key.backspace	n/a
161.5695	0.03	323139	keystroke_Key.backspace	Key.backspace	n/a
162.0945	0.105	324189	keystroke_a	a	n/a
162.2595	0.09	324519	keystroke_c	c	n/a
162.4995	0.06	324999	keystroke_r	r	n/a
162.5745	0.09	325149	keystroke_o	o	n/a
162.7845	0.0895	325569	keystroke_m	m	n/a
162.829	0.075	325658	keystroke_e	e	n/a
162.994	0.105	325988	keystroke_d	d	n/a
163.084	0.105	326168	keystroke_i	i	n/a
163.174	0.09	326348	keystroke_a	a	n/a
163.414	0.12	326828	keystroke_Key.space	Key.space	n/a
163.624	0.075	327248	keystroke_d	d	n/a
163.774	0.105	327548	keystroke_e	e	n/a
163.909	0.09	327818	keystroke_l	l	n/a
164.119	0.075	328238	keystroke_h	h	n/a
164.239	0.09	328478	keystroke_i	i	n/a
164.419	0.135	328838	keystroke_Key.space	Key.space	n/a
164.7045	0.075	329409	keystroke_e	e	n/a
164.8995	0.075	329799	keystroke_x	x	n/a
165.1845	0.12	330369	keystroke_t	t	n/a
165.2595	0.075	330519	keystroke_r	r	n/a
165.4545	0.09	330909	keystroke_a	a	n/a
165.754	0.12	331508	keystroke_o	o	n/a
165.889	0.06	331778	keystroke_r	r	n/a
166.024	0.105	332048	keystroke_d	d	n/a
166.099	0.1495	332198	keystroke_i	i	n/a
166.174	0.1055	332348	keystroke_n	n	n/a
166.2495	0.119	332499	keystroke_a	a	n/a
166.4135	0.1205	332827	keystroke_r	r	n/a
166.639	0.09	333278	keystroke_y	y	n/a
166.699	0.105	333398	keystroke_Key.space	Key.space	n/a
166.8645	0.12	333729	keystroke_t	t	n/a
167.0595	0.0595	334119	keystroke_e	e	n/a
167.179	0.1055	334358	keystroke_e	e	n/a
167.3145	0.0895	334629	keystroke_n	n	n/a
167.419	0.09	334838	keystroke_s	s	n/a
167.539	0.0745	335078	keystroke_Key.enter	Key.enter	n/a
167.6185	7.6625	335237	prompt	n/a	artistic combine further sara\n
168.1685	0.18	336337	keystroke_a	a	n/a
168.3185	0.075	336637	keystroke_r	r	n/a
168.4985	0.075	336997	keystroke_t	t	n/a
168.5885	0.105	337177	keystroke_i	i	n/a
168.7245	0.104	337449	keystroke_s	s	n/a
168.9185	0.075	337837	keystroke_t	t	n/a
169.0835	0.09	338167	keystroke_i	i	n/a
169.1885	0.135	338377	keystroke_c	c	n/a
169.3385	0.09	338677	keystroke_Key.space	Key.space	n/a
169.5635	0.105	339127	keystroke_c	c	n/a
169.6545	0.119	339309	keystroke_o	o	n/a
169.7135	0.12	339427	keystroke_m	m	n/a
169.9835	0.076	339967	keystroke_b	b	n/a
170.1195	0.134	340239	keystroke_i	i	n/a
170.2235	0.121	340447	keystroke_n	n	n/a
170.3145	0.105	340629	keystroke_e	e	n/a
170.3895	0.12	340779	keystroke_Key.space	Key.space	n/a
170.854	0.1345	341708	keystroke_f	f	n/a
171.0045	0.149	342009	keystroke_u	u	n/a
171.1235	0.06	342247	keystroke_r	r	n/a
171.2585	0.09	342517	keystroke_t	t	n/a
171.4085	0.135	342817	keystroke_e	e	n/a
171.4845	0.134	342969	keystroke_r	r	n/a
171.6785	0.15	343357	keystroke_Key.space	Key.space	n/a
172.5335	0.045	345067	keystroke_Key.backspace	Key.backspace	n/a
172.6835	0.06	345367	keystroke_Key.backspace	Key.backspace	n/a
172.8195	0.075	345639	keystroke_Key.backspace	Key.backspace	n/a
172.999	0.075	345998	keystroke_Key.backspace	Key.backspace	n/a
174.019	0.09	348038	keystroke_t	t	n/a
174.079	0.12	348158	keystroke_h	h	n/a
174.154	0.135	348308	keystroke_e	e	n/a
174.214	0.135	348428	keystroke_r	r	n/a
174.304	0.135	348608	keystroke_Key.space	Key.space	n/a
174.5895	0.09	349179	keystroke_s	s	n/a
174.7695	0.1195	349539	keystroke_a	a	n/a
174.874	0.09	349748	keystroke_r	r	n/a
174.979	0.09	349958	keystroke_a	a	n/a
175.189	0.09	350378	keystroke_Key.enter	Key.enter	n/a
175.2835	5.9075	350567	prompt	n/a	architects achieving asia excerpt\n
175.8645	0.21	351729	keystroke_a	a	n/a
176.0445	0.09	352089	keystroke_r	r	n/a
176.3145	0.12	352629	keystroke_c	c	n/a
176.4495	0.105	352899	keystroke_h	h	n/a
176.5395	0.09	353079	keystroke_i	i	n/a
176.6745	0.105	353349	keystroke_t	t	n/a
176.7645	0.105	353529	keystroke_e	e	n/a
176.9445	0.105	353889	keystroke_c	c	n/a
177.1695	0.09	354339	keystroke_t	t	n/a
177.2895	0.135	354579	keystroke_s	s	n/a
177.4395	0.12	354879	keystroke_Key.space	Key.space	n/a
177.5745	0.12	355149	keystroke_a	a	n/a
177.6945	0.12	355389	keystroke_c	c	n/a
177.8295	0.105	355659	keystroke_h	h	n/a
177.9045	0.1045	355809	keystroke_i	i	n/a
178.024	0.09	356048	keystroke_e	e	n/a
178.234	0.12	356468	keystroke_v	v	n/a
178.549	0.105	357098	keystroke_i	i	n/a
178.579	0.15	357158	keystroke_n	n	n/a
178.699	0.12	357398	keystroke_g	g	n/a
178.789	0.135	357578	keystroke_Key.space	Key.space	n/a
179.074	0.165	358148	keystroke_a	a	n/a
179.194	0.135	358388	keystroke_s	s	n/a
179.359	0.105	358718	keystroke_i	i	n/a
179.419	0.12	358838	keystroke_a	a	n/a
179.599	0.135	359198	keystroke_Key.space	Key.space	n/a
179.749	0.09	359498	keystroke_e	e	n/a
179.9595	0.1045	359919	keystroke_x	x	n/a
180.229	0.09	360458	keystroke_c	c	n/a
180.424	0.12	360848	keystroke_e	e	n/a
180.499	0.135	360998	keystroke_r	r	n/a
180.71	0.089	361420	keystroke_p	p	n/a
180.8295	0.09	361659	keystroke_t	t	n/a
181.0995	0.0895	362199	keystroke_Key.enter	Key.enter	n/a
181.195	6.911	362390	prompt	n/a	outsourcing respect encouraging mixer\n
181.849	0.15	363698	keystroke_o	o	n/a
181.954	0.135	363908	keystroke_u	u	n/a
182.029	0.09	364058	keystroke_t	t	n/a
182.18	0.1945	364360	keystroke_s	s	n/a
182.3595	0.105	364719	keystroke_r	r	n/a
182.4795	0.12	364959	keystroke_o	o	n/a
182.7795	0.075	365559	keystroke_Key.backspace	Key.backspace	n/a
182.9145	0.09	365829	keystroke_Key.backspace	Key.backspace	n/a
183.4395	0.195	366879	keystroke_o	o	n/a
183.5595	0.165	367119	keystroke_u	u	n/a
183.6195	0.075	367239	keystroke_r	r	n/a
183.8145	0.119	367629	keystroke_c	c	n/a
183.9785	0.12	367957	keystroke_i	i	n/a
184.0545	0.134	368109	keystroke_n	n	n/a
184.1445	0.104	368289	keystroke_g	g	n/a
184.2185	0.1505	368437	keystroke_Key.space	Key.space	n/a
184.4285	0.165	368857	keystroke_r	r	n/a
184.5035	0.151	369007	keystroke_e	e	n/a
184.6235	0.1205	369247	keystroke_s	s	n/a
184.7585	0.1055	369517	keystroke_p	p	n/a
184.849	0.15	369698	keystroke_e	e	n/a
184.954	0.105	369908	keystroke_c	c	n/a
185.179	0.1055	370358	keystroke_t	t	n/a
185.254	0.1055	370508	keystroke_Key.space	Key.space	n/a
185.5695	0.105	371139	keystroke_e	e	n/a
185.7795	0.12	371559	keystroke_n	n	n/a
185.9595	0.135	371919	keystroke_c	c	n/a
186.0795	0.15	372159	keystroke_o	o	n/a
186.1695	0.12	372339	keystroke_u	u	n/a
186.2895	0.12	372579	keystroke_r	r	n/a
186.469	0.12	372938	keystroke_a	a	n/a
186.6495	0.105	373299	keystroke_g	g	n/a
186.8895	0.119	373779	keystroke_i	i	n/a
186.9645	0.134	373929	keystroke_n	n	n/a
187.0395	0.12	374079	keystroke_g	g	n/a
187.1135	0.12	374227	keystroke_Key.space	Key.space	n/a
187.2945	0.089	374589	keystroke_m	m	n/a
187.4435	0.121	374887	keystroke_i	i	n/a
187.5485	0.075	375097	keystroke_x	x	n/a
187.7445	0.09	375489	keystroke_e	e	n/a
187.8045	0.12	375609	keystroke_r	r	n/a
188.0135	0.09	376027	keystroke_Key.enter	Key.enter	n/a
188.1105	4.9905	376221	prompt	n/a	bloom nails sons imported\n
188.7195	0.105	377439	keystroke_b	b	n/a
188.8845	0.09	377769	keystroke_l	l	n/a
189.0795	0.06	378159	keystroke_o	o	n/a
189.1995	0.15	378399	keystroke_o	o	n/a
189.3345	0.12	378669	keystroke_m	m	n/a
189.4995	0.12	378999	keystroke_Key.space	Key.space	n/a
189.8295	0.105	379659	keystroke_n	n	n/a
189.9195	0.09	379839	keystroke_a	a	n/a
189.9945	0.21	379989	keystroke_i	i	n/a
190.0845	0.135	380169	keystroke_l	l	n/a
190.1595	0.135	380319	keystroke_s	s	n/a
190.2795	0.105	380559	keystroke_Key.space	Key.space	n/a
190.4295	0.075	380859	keystroke_n	n	n/a
190.8795	0.09	381759	keystroke_Key.backspace	Key.backspace	n/a
191.0745	0.105	382149	keystroke_s	s	n/a
191.1495	0.09	382299	keystroke_o	o	n/a
191.3145	0.09	382629	keystroke_n	n	n/a
191.4495	0.135	382899	keystroke_s	s	n/a
191.5395	0.12	383079	keystroke_Key.space	Key.space	n/a
191.7045	0.15	383409	keystroke_i	i	n/a
191.8245	0.1195	383649	keystroke_m	m	n/a
192.109	0.075	384218	keystroke_p	p	n/a
192.274	0.105	384548	keystroke_o	o	n/a
192.364	0.09	384728	keystroke_r	r	n/a
192.529	0.105	385058	keystroke_t	t	n/a
192.649	0.1055	385298	keystroke_e	e	n/a
192.8435	0.091	385687	keystroke_d	d	n/a
192.9795	0.12	385959	keystroke_Key.enter	Key.enter	n/a
193.105	4.286	386210	prompt	n/a	flags elect hints tiger\n
193.7295	0.1345	387459	keystroke_f	f	n/a
193.879	0.105	387758	keystroke_l	l	n/a
193.939	0.09	387878	keystroke_a	a	n/a
194.1345	0.09	388269	keystroke_g	g	n/a
194.2845	0.12	388569	keystroke_s	s	n/a
194.4045	0.105	388809	keystroke_Key.space	Key.space	n/a
194.6145	0.09	389229	keystroke_e	e	n/a
194.7645	0.1045	389529	keystroke_l	l	n/a
194.974	0.105	389948	keystroke_e	e	n/a
195.394	0.12	390788	keystroke_c	c	n/a
195.739	0.1055	391478	keystroke_t	t	n/a
195.8295	0.105	391659	keystroke_Key.space	Key.space	n/a
196.024	0.12	392048	keystroke_h	h	n/a
196.114	0.165	392228	keystroke_i	i	n/a
196.234	0.15	392468	keystroke_n	n	n/a
196.309	0.135	392618	keystroke_t	t	n/a
196.414	0.165	392828	keystroke_s	s	n/a
196.489	0.135	392978	keystroke_Key.space	Key.space	n/a
196.669	0.09	393338	keystroke_t	t	n/a
196.774	0.1205	393548	keystroke_i	i	n/a
196.864	0.105	393728	keystroke_g	g	n/a
197.044	0.1205	394088	keystroke_e	e	n/a
197.1045	0.1045	394209	keystroke_r	r	n/a
197.2845	0.105	394569	keystroke_Key.enter	Key.enter	n/a
197.396	8.2	394792	prompt	n/a	boys departments rejected genre\n
198.199	0.075	396398	keystroke_b	b	n/a
198.364	0.075	396728	keystroke_o	o	n/a
198.454	0.09	396908	keystroke_y	y	n/a
198.589	0.135	397178	keystroke_s	s	n/a
198.649	0.15	397298	keystroke_Key.space	Key.space	n/a
198.844	0.075	397688	keystroke_d	d	n/a
198.9935	0.12	397987	keystroke_e	e	n/a
199.13	0.089	398260	keystroke_p	p	n/a
199.3245	0.195	398649	keystroke_a	a	n/a
199.459	0.1055	398918	keystroke_r	r	n/a
199.6395	0.104	399279	keystroke_t	t	n/a
199.7745	0.09	399549	keystroke_m	m	n/a
199.8495	0.104	399699	keystroke_e	e	n/a
199.9695	0.09	399939	keystroke_n	n	n/a
199.9995	0.135	399999	keystroke_t	t	n/a
200.0895	0.15	400179	keystroke_s	s	n/a
200.1795	0.1195	400359	keystroke_Key.space	Key.space	n/a
200.314	0.135	400628	keystroke_r	r	n/a
200.389	0.1205	400778	keystroke_e	e	n/a
200.794	0.1505	401588	keystroke_j	j	n/a
201.2595	0.1795	402519	keystroke_e	e	n/a
201.409	0.105	402818	keystroke_c	c	n/a
201.604	0.106	403208	keystroke_t	t	n/a
201.694	0.105	403388	keystroke_e	e	n/a
201.889	0.135	403778	keystroke_d	d	n/a
202.009	0.12	404018	keystroke_Key.space	Key.space	n/a
202.174	0.12	404348	keystroke_e	e	n/a
202.309	0.1055	404618	keystroke_n	n	n/a
202.4445	0.165	404889	keystroke_r	r	n/a
202.5645	0.165	405129	keystroke_e	e	n/a
203.1345	0.0445	406269	keystroke_Key.backspace	Key.backspace	n/a
203.269	0.0605	406538	keystroke_Key.backspace	Key.backspace	n/a
203.4195	0.075	406839	keystroke_Key.backspace	Key.backspace	n/a
203.5845	0.12	407169	keystroke_g	g	n/a
203.6595	0.12	407319	keystroke_e	e	n/a
204.034	0.06	408068	keystroke_Key.backspace	Key.backspace	n/a
204.184	0.06	408368	keystroke_Key.backspace	Key.backspace	n/a
204.319	0.0905	408638	keystroke_Key.backspace	Key.backspace	n/a
204.4245	0.12	408849	keystroke_g	g	n/a
204.4995	0.105	408999	keystroke_e	e	n/a
204.7395	0.06	409479	keystroke_n	n	n/a
205.0545	0.15	410109	keystroke_r	r	n/a
205.1295	0.12	410259	keystroke_e	e	n/a
205.5045	0.09	411009	keystroke_Key.enter	Key.enter	n/a
205.5995	5.8015	411199	prompt	n/a	modification mistress musician native\n
206.3595	0.06	412719	keystroke_m	m	n/a
206.4645	0.075	412929	keystroke_o	o	n/a
206.5545	0.09	413109	keystroke_d	d	n/a
206.6595	0.09	413319	keystroke_i	i	n/a
206.7345	0.06	413469	keystroke_f	f	n/a
206.839	0.105	413678	keystroke_i	i	n/a
206.899	0.12	413798	keystroke_c	c	n/a
206.989	0.0905	413978	keystroke_a	a	n/a
207.154	0.09	414308	keystroke_t	t	n/a
207.229	0.1655	414458	keystroke_i	i	n/a
207.2895	0.105	414579	keystroke_o	o	n/a
207.334	0.135	414668	keystroke_n	n	n/a
207.409	0.1505	414818	keystroke_Key.space	Key.space	n/a
207.5745	0.0595	415149	keystroke_m	m	n/a
207.6945	0.1045	415389	keystroke_i	i	n/a
207.739	0.105	415478	keystroke_s	s	n/a
207.874	0.1055	415748	keystroke_t	t	n/a
207.9345	0.09	415869	keystroke_r	r	n/a
208.1445	0.09	416289	keystroke_e	e	n/a
208.3845	0.075	416769	keystroke_s	s	n/a
208.5345	0.09	417069	keystroke_s	s	n/a
208.6845	0.105	417369	keystroke_Key.space	Key.space	n/a
208.8635	0.091	417727	keystroke_m	m	n/a
209.2395	0.1195	418479	keystroke_u	u	n/a
209.449	0.135	418898	keystroke_s	s	n/a
209.764	0.105	419528	keystroke_i	i	n/a
209.899	0.1205	419798	keystroke_c	c	n/a
210.0345	0.105	420069	keystroke_i	i	n/a
210.1545	0.105	420309	keystroke_a	a	n/a
210.2445	0.105	420489	keystroke_n	n	n/a
210.3645	0.12	420729	keystroke_Key.space	Key.space	n/a
210.5895	0.105	421179	keystroke_n	n	n/a
210.6645	0.09	421329	keystroke_a	a	n/a
210.8145	0.12	421629	keystroke_t	t	n/a
210.9495	0.09	421899	keystroke_i	i	n/a
211.0245	0.12	422049	keystroke_v	v	n/a
211.1295	0.09	422259	keystroke_e	e	n/a
211.3095	0.09	422619	keystroke_Key.enter	Key.enter	n/a
211.4045	5.4415	422809	prompt	n/a	swift hired scientists bored\n
212.074	0.1055	424148	keystroke_s	s	n/a
212.2395	0.1045	424479	keystroke_w	w	n/a
212.359	0.09	424718	keystroke_i	i	n/a
212.479	0.15	424958	keystroke_f	f	n/a
212.734	0.0905	425468	keystroke_t	t	n/a
212.809	0.1205	425618	keystroke_Key.space	Key.space	n/a
212.9745	0.105	425949	keystroke_h	h	n/a
213.0495	0.09	426099	keystroke_i	i	n/a
213.1545	0.135	426309	keystroke_r	r	n/a
213.2295	0.09	426459	keystroke_e	e	n/a
213.4095	0.12	426819	keystroke_d	d	n/a
213.4845	0.135	426969	keystroke_Key.space	Key.space	n/a
213.7845	0.15	427569	keystroke_s	s	n/a
213.8895	0.15	427779	keystroke_c	c	n/a
214.0545	0.075	428109	keystroke_i	i	n/a
214.7595	0.1195	429519	keystroke_e	e	n/a
215.044	0.09	430088	keystroke_n	n	n/a
215.359	0.12	430718	keystroke_t	t	n/a
215.509	0.135	431018	keystroke_i	i	n/a
215.659	0.09	431318	keystroke_s	s	n/a
215.764	0.12	431528	keystroke_t	t	n/a
215.869	0.165	431738	keystroke_s	s	n/a
215.959	0.135	431918	keystroke_Key.space	Key.space	n/a
216.124	0.06	432248	keystroke_b	b	n/a
216.274	0.06	432548	keystroke_o	o	n/a
216.334	0.15	432668	keystroke_r	r	n/a
216.439	0.09	432878	keystroke_e	e	n/a
216.634	0.09	433268	keystroke_d	d	n/a
216.769	0.0755	433538	keystroke_Key.enter	Key.enter	n/a
216.8505	7.735	433701	prompt	n/a	marco embedded metal copy\n
217.504	0.1355	435008	keystroke_m	m	n/a
217.594	0.2405	435188	keystroke_a	a	n/a
217.8045	0.03	435609	keystroke_c	c	n/a
218.2395	0.03	436479	keystroke_Key.backspace	Key.backspace	n/a
218.5545	0.06	437109	keystroke_r	r	n/a
218.7495	0.105	437499	keystroke_c	c	n/a
218.8395	0.06	437679	keystroke_o	o	n/a
218.9745	0.1495	437949	keystroke_Key.space	Key.space	n/a
219.319	0.015	438638	keystroke_m	m	n/a
220.069	0.09	440138	keystroke_Key.backspace	Key.backspace	n/a
221.2245	0.121	442449	keystroke_e	e	n/a
221.6595	0.195	443319	keystroke_m	m	n/a
221.9295	0.135	443859	keystroke_b	b	n/a
222.0795	0.12	444159	keystroke_e	e	n/a
222.3495	0.045	444699	keystroke_d	d	n/a
222.4545	0.105	444909	keystroke_d	d	n/a
222.6495	0.06	445299	keystroke_e	e	n/a
222.7995	0.1195	445599	keystroke_d	d	n/a
222.904	0.09	445808	keystroke_Key.space	Key.space	n/a
223.039	0.12	446078	keystroke_m	m	n/a
223.204	0.135	446408	keystroke_e	e	n/a
223.354	0.12	446708	keystroke_t	t	n/a
223.504	0.12	447008	keystroke_a	a	n/a
223.594	0.105	447188	keystroke_l	l	n/a
223.6695	0.1045	447339	keystroke_Key.space	Key.space	n/a
223.819	0.195	447638	keystroke_c	c	n/a
224.0295	0.1495	448059	keystroke_o	o	n/a
224.044	0.15	448088	keystroke_p	p	n/a
224.284	0.09	448568	keystroke_y	y	n/a
224.494	0.09	448988	keystroke_Key.enter	Key.enter	n/a
224.5895	7.5415	449179	prompt	n/a	eclipse darkness terrorists breathing\n
225.425	0.089	450850	keystroke_e	e	n/a
225.9345	0.12	451869	keystroke_c	c	n/a
226.189	0.09	452378	keystroke_l	l	n/a
226.429	0.09	452858	keystroke_i	i	n/a
226.714	0.1055	453428	keystroke_p	p	n/a
227.0895	0.15	454179	keystroke_s	s	n/a
227.1795	0.135	454359	keystroke_e	e	n/a
227.2695	0.135	454539	keystroke_Key.space	Key.space	n/a
227.794	0.105	455588	keystroke_d	d	n/a
227.944	0.15	455888	keystroke_a	a	n/a
228.079	0.09	456158	keystroke_r	r	n/a
228.214	0.1505	456428	keystroke_k	k	n/a
228.4695	0.12	456939	keystroke_n	n	n/a
228.5445	0.09	457089	keystroke_e	e	n/a
228.7845	0.06	457569	keystroke_s	s	n/a
228.8895	0.1795	457779	keystroke_s	s	n/a
229.0395	0.1645	458079	keystroke_Key.space	Key.space	n/a
229.159	0.12	458318	keystroke_t	t	n/a
229.354	0.09	458708	keystroke_e	e	n/a
229.549	0.06	459098	keystroke_r	r	n/a
229.669	0.09	459338	keystroke_r	r	n/a
229.774	0.105	459548	keystroke_o	o	n/a
229.864	0.1055	459728	keystroke_r	r	n/a
230.0295	0.15	460059	keystroke_i	i	n/a
230.1645	0.1045	460329	keystroke_s	s	n/a
230.254	0.12	460508	keystroke_t	t	n/a
230.359	0.165	460718	keystroke_s	s	n/a
230.464	0.15	460928	keystroke_Key.space	Key.space	n/a
230.704	0.15	461408	keystroke_b	b	n/a
231.004	0.225	462008	keystroke_r	r	n/a
231.124	0.18	462248	keystroke_e	e	n/a
231.244	0.12	462488	keystroke_a	a	n/a
231.409	0.165	462818	keystroke_t	t	n/a
231.589	0.0905	463178	keystroke_h	h	n/a
231.6495	0.18	463299	keystroke_i	i	n/a
231.7695	0.15	463539	keystroke_n	n	n/a
231.8745	0.105	463749	keystroke_g	g	n/a
232.039	0.09	464078	keystroke_Key.enter	Key.enter	n/a
232.1345	9.6115	464269	prompt	n/a	convergence anatomy mightn't holds\n
232.8345	0.06	465669	keystroke_c	c	n/a
232.8495	0.075	465699	keystroke_o	o	n/a
232.9695	0.105	465939	keystroke_n	n	n/a
233.0445	0.09	466089	keystroke_v	v	n/a
233.1645	0.105	466329	keystroke_e	e	n/a
233.2245	0.09	466449	keystroke_r	r	n/a
233.4045	0.075	466809	keystroke_g	g	n/a
233.5245	0.09	467049	keystroke_e	e	n/a
233.6445	0.09	467289	keystroke_n	n	n/a
233.6895	0.12	467379	keystroke_c	c	n/a
233.7645	0.105	467529	keystroke_e	e	n/a
233.8545	0.12	467709	keystroke_Key.space	Key.space	n/a
234.0195	0.15	468039	keystroke_a	a	n/a
234.1395	0.12	468279	keystroke_n	n	n/a
234.2445	0.1045	468489	keystroke_a	a	n/a
234.439	0.075	468878	keystroke_t	t	n/a
234.739	0.1655	469478	keystroke_o	o	n/a
234.8595	0.15	469719	keystroke_m	m	n/a
235.3095	0.09	470619	keystroke_y	y	n/a
237.229	0.12	474458	keystroke_Key.space	Key.space	n/a
237.47	0.089	474940	keystroke_m	m	n/a
237.619	0.135	475238	keystroke_i	i	n/a
238.294	0.105	476588	keystroke_g	g	n/a
238.384	0.135	476768	keystroke_h	h	n/a
238.504	0.12	477008	keystroke_t	t	n/a
238.85	0.134	477700	keystroke_n	n	n/a
240.334	0.075	480668	keystroke_'	'	n/a
240.469	0.15	480938	keystroke_t	t	n/a
240.62	0.149	481240	keystroke_Key.space	Key.space	n/a
241.039	0.075	482078	keystroke_h	h	n/a
241.189	0.075	482378	keystroke_o	o	n/a
241.309	0.105	482618	keystroke_l	l	n/a
241.399	0.135	482798	keystroke_d	d	n/a
241.474	0.105	482948	keystroke_s	s	n/a
241.699	0.045	483398	keystroke_Key.enter	Key.enter	n/a
241.749	4.227	483498	prompt	n/a	booty experienced women table\n
242.374	0.075	484748	keystroke_b	b	n/a
242.585	0.029	485170	keystroke_o	o	n/a
242.675	0.119	485350	keystroke_o	o	n/a
242.764	0.105	485528	keystroke_t	t	n/a
242.959	0.076	485918	keystroke_y	y	n/a
243.019	0.105	486038	keystroke_Key.space	Key.space	n/a
243.184	0.075	486368	keystroke_e	e	n/a
243.379	0.09	486758	keystroke_x	x	n/a
243.529	0.09	487058	keystroke_p	p	n/a
243.605	0.089	487210	keystroke_e	e	n/a
243.65	0.119	487300	keystroke_r	r	n/a
243.784	0.075	487568	keystroke_i	i	n/a
243.875	0.104	487750	keystroke_e	e	n/a
243.964	0.12	487928	keystroke_n	n	n/a
244.069	0.105	488138	keystroke_c	c	n/a
244.114	0.105	488228	keystroke_e	e	n/a
244.324	0.105	488648	keystroke_d	d	n/a
244.444	0.06	488888	keystroke_Key.space	Key.space	n/a
244.669	0.105	489338	keystroke_w	w	n/a
244.759	0.105	489518	keystroke_o	o	n/a
244.879	0.09	489758	keystroke_m	m	n/a
244.984	0.09	489968	keystroke_e	e	n/a
245.089	0.105	490178	keystroke_n	n	n/a
245.179	0.105	490358	keystroke_Key.space	Key.space	n/a
245.329	0.09	490658	keystroke_t	t	n/a
245.449	0.12	490898	keystroke_a	a	n/a
245.554	0.075	491108	keystroke_b	b	n/a
245.689	0.105	491378	keystroke_l	l	n/a
245.779	0.075	491558	keystroke_e	e	n/a
245.899	0.075	491798	keystroke_Key.enter	Key.enter	n/a
245.979	11.2165	491958	prompt	n/a	uncle rabbit bulletin python\n
246.6195	0.12	493239	keystroke_u	u	n/a
246.7095	0.1045	493419	keystroke_n	n	n/a
246.7845	0.0895	493569	keystroke_c	c	n/a
246.919	0.09	493838	keystroke_l	l	n/a
246.979	0.12	493958	keystroke_e	e	n/a
247.114	0.075	494228	keystroke_Key.space	Key.space	n/a
247.234	0.12	494468	keystroke_r	r	n/a
247.369	0.165	494738	keystroke_a	a	n/a
247.549	0.045	495098	keystroke_b	b	n/a
247.654	0.09	495308	keystroke_b	b	n/a
247.819	0.09	495638	keystroke_i	i	n/a
247.91	0.104	495820	keystroke_t	t	n/a
247.984	0.12	495968	keystroke_Key.space	Key.space	n/a
248.194	0.075	496388	keystroke_b	b	n/a
248.299	0.105	496598	keystroke_u	u	n/a
248.539	0.06	497078	keystroke_l	l	n/a
248.659	0.18	497318	keystroke_l	l	n/a
248.854	0.09	497708	keystroke_e	e	n/a
248.914	0.105	497828	keystroke_t	t	n/a
249.004	0.105	498008	keystroke_i	i	n/a
249.064	0.15	498128	keystroke_n	n	n/a
249.199	0.135	498398	keystroke_Key.space	Key.space	n/a
249.439	0.06	498878	keystroke_o	o	n/a
249.529	0.09	499058	keystroke_y	y	n/a
249.739	0.12	499478	keystroke_t	t	n/a
249.874	0.075	499748	keystroke_h	h	n/a
250.2645	0.045	500529	keystroke_=	=	n/a
250.399	0.075	500798	keystroke_=	=	n/a
250.609	0.06	501218	keystroke_=	=	n/a
250.8195	0.0745	501639	keystroke_Key.backspace	Key.backspace	n/a
250.969	0.09	501938	keystroke_Key.backspace	Key.backspace	n/a
251.104	0.06	502208	keystroke_Key.backspace	Key.backspace	n/a
251.239	0.075	502478	keystroke_Key.backspace	Key.backspace	n/a
251.389	0.076	502778	keystroke_Key.backspace	Key.backspace	n/a
251.539	0.165	503078	keystroke_Key.backspace	Key.backspace	n/a
251.899	0.015	503798	keystroke_Key.backspace	Key.backspace	n/a
252.349	0.075	504698	keystroke_o	o	n/a
252.649	0.061	505298	keystroke_y	y	n/a
252.784	0.105	505568	keystroke_t	t	n/a
252.844	0.105	505688	keystroke_h	h	n/a
252.965	0.104	505930	keystroke_o	o	n/a
253.039	0.135	506078	keystroke_n	n	n/a
253.744	0.075	507488	keystroke_Key.backspace	Key.backspace	n/a
253.924	0.06	507848	keystroke_Key.backspace	Key.backspace	n/a
254.059	0.06	508118	keystroke_Key.backspace	Key.backspace	n/a
254.209	0.075	508418	keystroke_Key.backspace	Key.backspace	n/a
254.359	0.12	508718	keystroke_Key.backspace	Key.backspace	n/a
254.704	0.075	509408	keystroke_Key.backspace	Key.backspace	n/a
255.109	0.075	510218	keystroke_p	p	n/a
255.469	0.075	510938	keystroke_y	y	n/a
255.7395	0.075	511479	keystroke_t	t	n/a
255.8745	0.0745	511749	keystroke_h	h	n/a
256.0995	0.0445	512199	keystroke_o	o	n/a
256.2795	0.075	512559	keystroke_n	n	n/a
257.119	0.075	514238	keystroke_Key.enter	Key.enter	n/a
257.1985	7.4075	514397	prompt	n/a	dealing david she'd charms\n
257.8095	0.075	515619	keystroke_d	d	n/a
257.9745	0.12	515949	keystroke_e	e	n/a
258.0345	0.105	516069	keystroke_a	a	n/a
258.1245	0.09	516249	keystroke_l	l	n/a
258.2745	0.12	516549	keystroke_i	i	n/a
258.3495	0.15	516699	keystroke_n	n	n/a
258.4245	0.12	516849	keystroke_g	g	n/a
258.4995	0.12	516999	keystroke_Key.space	Key.space	n/a
258.7545	0.09	517509	keystroke_d	d	n/a
258.8745	0.12	517749	keystroke_a	a	n/a
259.0395	0.09	518079	keystroke_v	v	n/a
259.1445	0.1045	518289	keystroke_i	i	n/a
259.234	0.105	518468	keystroke_d	d	n/a
259.504	0.09	519008	keystroke_s	s	n/a
259.609	0.105	519218	keystroke_h	h	n/a
259.684	0.09	519368	keystroke_e	e	n/a
259.804	0.12	519608	keystroke_'	'	n/a
259.954	0.18	519908	keystroke_d	d	n/a
260.119	0.075	520238	keystroke_Key.space	Key.space	n/a
260.284	0.135	520568	keystroke_c	c	n/a
260.434	0.075	520868	keystroke_h	h	n/a
260.494	0.09	520988	keystroke_a	a	n/a
260.764	0.0605	521528	keystroke_Key.backspace	Key.backspace	n/a
260.8995	0.06	521799	keystroke_Key.backspace	Key.backspace	n/a
261.049	0.06	522098	keystroke_Key.backspace	Key.backspace	n/a
261.199	0.045	522398	keystroke_Key.backspace	Key.backspace	n/a
261.334	0.06	522668	keystroke_Key.backspace	Key.backspace	n/a
261.469	0.06	522938	keystroke_Key.backspace	Key.backspace	n/a
261.604	0.105	523208	keystroke_Key.backspace	Key.backspace	n/a
261.769	0.075	523538	keystroke_Key.backspace	Key.backspace	n/a
262.054	0.075	524108	keystroke_Key.backspace	Key.backspace	n/a
262.264	0.15	524528	keystroke_Key.space	Key.space	n/a
262.429	0.1055	524858	keystroke_s	s	n/a
262.5645	0.135	525129	keystroke_h	h	n/a
262.6545	0.105	525309	keystroke_e	e	n/a
262.7745	0.09	525549	keystroke_'	'	n/a
262.999	0.135	525998	keystroke_d	d	n/a
263.119	0.105	526238	keystroke_Key.space	Key.space	n/a
263.359	0.105	526718	keystroke_c	c	n/a
263.465	0.104	526930	keystroke_h	h	n/a
263.584	0.195	527168	keystroke_a	a	n/a
263.944	0.121	527888	keystroke_r	r	n/a
264.17	0.12	528340	keystroke_m	m	n/a
264.32	0.1045	528640	keystroke_s	s	n/a
264.5295	0.075	529059	keystroke_Key.enter	Key.enter	n/a
264.609	5.172	529218	prompt	n/a	essence radical allows technical\n
265.1895	0.075	530379	keystroke_e	e	n/a
265.3695	0.06	530739	keystroke_s	s	n/a
265.4895	0.135	530979	keystroke_s	s	n/a
265.6095	0.135	531219	keystroke_e	e	n/a
265.7745	0.12	531549	keystroke_n	n	n/a
265.8345	0.12	531669	keystroke_c	c	n/a
265.8945	0.1345	531789	keystroke_e	e	n/a
265.999	0.12	531998	keystroke_Key.space	Key.space	n/a
266.284	0.105	532568	keystroke_r	r	n/a
266.404	0.1505	532808	keystroke_a	a	n/a
266.509	0.105	533018	keystroke_d	d	n/a
266.629	0.1055	533258	keystroke_i	i	n/a
266.704	0.121	533408	keystroke_c	c	n/a
266.7795	0.1055	533559	keystroke_a	a	n/a
266.87	0.105	533740	keystroke_l	l	n/a
266.96	0.12	533920	keystroke_Key.space	Key.space	n/a
267.095	0.105	534190	keystroke_a	a	n/a
267.215	0.06	534430	keystroke_l	l	n/a
267.335	0.09	534670	keystroke_l	l	n/a
267.53	0.075	535060	keystroke_o	o	n/a
267.59	0.075	535180	keystroke_w	w	n/a
267.8	0.09	535600	keystroke_s	s	n/a
267.89	0.12	535780	keystroke_Key.space	Key.space	n/a
268.025	0.104	536050	keystroke_t	t	n/a
268.115	0.104	536230	keystroke_e	e	n/a
268.264	0.12	536528	keystroke_c	c	n/a
268.399	0.09	536798	keystroke_h	h	n/a
268.624	0.121	537248	keystroke_n	n	n/a
269.2095	0.105	538419	keystroke_i	i	n/a
269.2845	0.105	538569	keystroke_c	c	n/a
269.3445	0.105	538689	keystroke_a	a	n/a
269.4645	0.09	538929	keystroke_l	l	n/a
269.704	0.075	539408	keystroke_Key.enter	Key.enter	n/a
269.7855	5.4705	539571	prompt	n/a	diploma tomorrow squad bond\n
270.484	0.105	540968	keystroke_d	d	n/a
270.559	0.09	541118	keystroke_i	i	n/a
270.814	0.12	541628	keystroke_p	p	n/a
270.889	0.09	541778	keystroke_l	l	n/a
271.069	0.06	542138	keystroke_o	o	n/a
271.1895	0.12	542379	keystroke_m	m	n/a
271.4595	0.105	542919	keystroke_a	a	n/a
271.6695	0.12	543339	keystroke_Key.space	Key.space	n/a
271.9545	0.075	543909	keystroke_t	t	n/a
272.0145	0.1195	544029	keystroke_o	o	n/a
272.12	0.089	544240	keystroke_m	m	n/a
272.269	0.09	544538	keystroke_o	o	n/a
272.434	0.06	544868	keystroke_r	r	n/a
272.555	0.09	545110	keystroke_r	r	n/a
272.69	0.105	545380	keystroke_o	o	n/a
272.78	0.09	545560	keystroke_w	w	n/a
272.885	0.12	545770	keystroke_Key.space	Key.space	n/a
273.065	0.09	546130	keystroke_s	s	n/a
273.425	0.045	546850	keystroke_q	q	n/a
273.725	0.12	547450	keystroke_u	u	n/a
273.875	0.1645	547750	keystroke_a	a	n/a
274.0545	0.105	548109	keystroke_d	d	n/a
274.3995	0.135	548799	keystroke_Key.space	Key.space	n/a
274.5645	0.075	549129	keystroke_b	b	n/a
274.7445	0.075	549489	keystroke_o	o	n/a
274.9995	0.015	549999	keystroke_n	n	n/a
275.0295	0.09	550059	keystroke_d	d	n/a
275.1645	0.09	550329	keystroke_Key.enter	Key.enter	n/a
275.2595	5.5915	550519	prompt	n/a	conferencing mothers michael recovered\n
275.929	0.121	551858	keystroke_c	c	n/a
276.004	0.06	552008	keystroke_o	o	n/a
276.139	0.105	552278	keystroke_n	n	n/a
276.169	0.091	552338	keystroke_f	f	n/a
276.304	0.09	552608	keystroke_e	e	n/a
276.365	0.134	552730	keystroke_r	r	n/a
276.484	0.105	552968	keystroke_e	e	n/a
276.6345	0.105	553269	keystroke_n	n	n/a
276.7245	0.105	553449	keystroke_c	c	n/a
276.8595	0.105	553719	keystroke_i	i	n/a
276.9195	0.12	553839	keystroke_n	n	n/a
276.9945	0.09	553989	keystroke_g	g	n/a
277.0545	0.12	554109	keystroke_Key.space	Key.space	n/a
277.1745	0.09	554349	keystroke_m	m	n/a
277.2795	0.075	554559	keystroke_o	o	n/a
277.3695	0.105	554739	keystroke_t	t	n/a
277.4445	0.105	554889	keystroke_h	h	n/a
277.5045	0.105	555009	keystroke_e	e	n/a
277.5945	0.165	555189	keystroke_r	r	n/a
277.7445	0.15	555489	keystroke_s	s	n/a
277.9395	0.12	555879	keystroke_Key.space	Key.space	n/a
278.1945	0.075	556389	keystroke_m	m	n/a
278.3145	0.09	556629	keystroke_i	i	n/a
278.4345	0.09	556869	keystroke_c	c	n/a
278.5545	0.135	557109	keystroke_h	h	n/a
278.989	0.09	557978	keystroke_a	a	n/a
279.154	0.075	558308	keystroke_e	e	n/a
279.244	0.105	558488	keystroke_l	l	n/a
279.379	0.12	558758	keystroke_Key.space	Key.space	n/a
279.619	0.135	559238	keystroke_r	r	n/a
279.71	0.119	559420	keystroke_e	e	n/a
279.889	0.105	559778	keystroke_c	c	n/a
280.039	0.105	560078	keystroke_o	o	n/a
280.145	0.074	560290	keystroke_v	v	n/a
280.264	0.09	560528	keystroke_e	e	n/a
280.324	0.15	560648	keystroke_r	r	n/a
280.444	0.105	560888	keystroke_e	e	n/a
280.7445	0.0145	561489	keystroke_d	d	n/a
280.7745	0.0745	561549	keystroke_Key.enter	Key.enter	n/a
280.854	6.9875	561708	prompt	n/a	professional valid flip regardless\n
281.674	0.075	563348	keystroke_p	p	n/a
281.779	0.075	563558	keystroke_r	r	n/a
281.869	0.0905	563738	keystroke_o	o	n/a
281.9445	0.105	563889	keystroke_f	f	n/a
282.0345	0.105	564069	keystroke_e	e	n/a
282.2595	0.045	564519	keystroke_s	s	n/a
282.3795	0.09	564759	keystroke_s	s	n/a
282.4395	0.195	564879	keystroke_i	i	n/a
282.4995	0.12	564999	keystroke_o	o	n/a
282.5895	0.135	565179	keystroke_n	n	n/a
282.7095	0.09	565419	keystroke_a	a	n/a
282.8145	0.0895	565629	keystroke_l	l	n/a
282.934	0.105	565868	keystroke_Key.space	Key.space	n/a
283.159	0.09	566318	keystroke_v	v	n/a
283.324	0.1055	566648	keystroke_a	a	n/a
283.4445	0.09	566889	keystroke_l	l	n/a
283.5945	0.12	567189	keystroke_i	i	n/a
283.6845	0.12	567369	keystroke_d	d	n/a
283.7895	0.1045	567579	keystroke_Key.space	Key.space	n/a
283.984	0.135	567968	keystroke_f	f	n/a
284.074	0.09	568148	keystroke_l	l	n/a
284.239	0.0755	568478	keystroke_i	i	n/a
284.4495	0.0745	568899	keystroke_p	p	n/a
284.5695	0.1345	569139	keystroke_Key.space	Key.space	n/a
284.659	0.1205	569318	keystroke_r	r	n/a
284.719	0.105	569438	keystroke_e	e	n/a
284.899	0.09	569798	keystroke_g	g	n/a
285.064	0.18	570128	keystroke_a	a	n/a
285.154	0.12	570308	keystroke_r	r	n/a
285.3195	0.15	570639	keystroke_d	d	n/a
285.515	0.09	571030	keystroke_l	l	n/a
285.665	0.105	571330	keystroke_e	e	n/a
285.89	0.06	571780	keystroke_s	s	n/a
286.009	0.1355	572018	keystroke_s	s	n/a
286.1595	0.105	572319	keystroke_Key.space	Key.space	n/a
286.4145	0.045	572829	keystroke_=	=	n/a
287.2095	0.075	574419	keystroke_Key.backspace	Key.backspace	n/a
287.3595	0.06	574719	keystroke_Key.backspace	Key.backspace	n/a
287.7495	0.09	575499	keystroke_Key.enter	Key.enter	n/a
287.8455	5.8305	575691	prompt	n/a	behavior bored train applications\n
288.5145	0.09	577029	keystroke_b	b	n/a
288.8295	0.0745	577659	keystroke_e	e	n/a
288.979	0.106	577958	keystroke_h	h	n/a
289.099	0.09	578198	keystroke_a	a	n/a
289.279	0.09	578558	keystroke_v	v	n/a
289.384	0.06	578768	keystroke_i	i	n/a
289.5495	0.075	579099	keystroke_o	o	n/a
289.6545	0.09	579309	keystroke_r	r	n/a
289.7295	0.12	579459	keystroke_Key.space	Key.space	n/a
289.9395	0.06	579879	keystroke_b	b	n/a
290.0895	0.09	580179	keystroke_o	o	n/a
290.1495	0.12	580299	keystroke_r	r	n/a
290.2395	0.09	580479	keystroke_e	e	n/a
290.4195	0.105	580839	keystroke_d	d	n/a
290.5395	0.135	581079	keystroke_Key.space	Key.space	n/a
290.6445	0.12	581289	keystroke_t	t	n/a
290.7195	0.075	581439	keystroke_r	r	n/a
290.8695	0.12	581739	keystroke_a	a	n/a
290.9445	0.105	581889	keystroke_i	i	n/a
291.0045	0.12	582009	keystroke_n	n	n/a
291.0945	0.12	582189	keystroke_Key.space	Key.space	n/a
291.1995	0.12	582399	keystroke_a	a	n/a
291.3645	0.03	582729	keystroke_p	p	n/a
291.4845	0.1355	582969	keystroke_p	p	n/a
292.4445	0.075	584889	keystroke_l	l	n/a
292.6245	0.09	585249	keystroke_i	i	n/a
292.6995	0.105	585399	keystroke_c	c	n/a
292.7595	0.12	585519	keystroke_a	a	n/a
292.9695	0.09	585939	keystroke_t	t	n/a
293.0745	0.285	586149	keystroke_i	i	n/a
293.2095	0.12	586419	keystroke_o	o	n/a
293.2395	0.165	586479	keystroke_n	n	n/a
293.3895	0.105	586779	keystroke_s	s	n/a
293.5995	0.075	587199	keystroke_Key.enter	Key.enter	n/a
293.68	4.646	587360	prompt	n/a	logs parents increasing bone\n
294.2895	0.075	588579	keystroke_l	l	n/a
294.4545	0.105	588909	keystroke_o	o	n/a
294.5445	0.09	589089	keystroke_g	g	n/a
294.6495	0.1205	589299	keystroke_s	s	n/a
294.7095	0.15	589419	keystroke_Key.space	Key.space	n/a
294.9195	0.09	589839	keystroke_p	p	n/a
295.0695	0.135	590139	keystroke_a	a	n/a
295.1745	0.105	590349	keystroke_r	r	n/a
295.3545	0.105	590709	keystroke_e	e	n/a
295.5195	0.09	591039	keystroke_n	n	n/a
295.5795	0.12	591159	keystroke_t	t	n/a
295.6695	0.15	591339	keystroke_s	s	n/a
295.7745	0.135	591549	keystroke_Key.space	Key.space	n/a
295.9695	0.15	591939	keystroke_i	i	n/a
296.0595	0.135	592119	keystroke_n	n	n/a
296.1345	0.105	592269	keystroke_c	c	n/a
296.33	0.15	592660	keystroke_r	r	n/a
296.405	0.135	592810	keystroke_e	e	n/a
296.525	0.165	593050	keystroke_a	a	n/a
296.615	0.135	593230	keystroke_s	s	n/a
296.795	0.1195	593590	keystroke_i	i	n/a
296.8545	0.12	593709	keystroke_n	n	n/a
296.9445	0.09	593889	keystroke_g	g	n/a
297.0195	0.12	594039	keystroke_Key.space	Key.space	n/a
297.1545	0.075	594309	keystroke_b	b	n/a
297.3195	0.075	594639	keystroke_o	o	n/a
297.4695	0.09	594939	keystroke_n	n	n/a
297.5895	0.075	595179	keystroke_d	d	n/a
297.9495	0.075	595899	keystroke_Key.backspace	Key.backspace	n/a
298.0695	0.075	596139	keystroke_e	e	n/a
298.2345	0.0905	596469	keystroke_Key.enter	Key.enter	n/a
298.3295	5.3665	596659	prompt	n/a	supports austin pink gourmet\n
299.0295	0.12	598059	keystroke_s	s	n/a
299.1345	0.09	598269	keystroke_u	u	n/a
299.4045	0.06	598809	keystroke_p	p	n/a
299.5245	0.075	599049	keystroke_p	p	n/a
299.6895	0.075	599379	keystroke_o	o	n/a
299.7795	0.06	599559	keystroke_r	r	n/a
299.944	0.121	599888	keystroke_t	t	n/a
300.049	0.105	600098	keystroke_s	s	n/a
300.124	0.136	600248	keystroke_Key.space	Key.space	n/a
300.334	0.136	600668	keystroke_a	a	n/a
300.485	0.105	600970	keystroke_u	u	n/a
300.62	0.135	601240	keystroke_s	s	n/a
300.785	0.09	601570	keystroke_t	t	n/a
300.86	0.135	601720	keystroke_i	i	n/a
300.92	0.1345	601840	keystroke_n	n	n/a
301.025	0.1345	602050	keystroke_Key.space	Key.space	n/a
301.2045	0.105	602409	keystroke_p	p	n/a
301.3995	0.105	602799	keystroke_i	i	n/a
301.4895	0.15	602979	keystroke_n	n	n/a
301.6095	0.09	603219	keystroke_k	k	n/a
301.8495	0.12	603699	keystroke_Key.space	Key.space	n/a
302.3895	0.105	604779	keystroke_g	g	n/a
302.54	0.134	605080	keystroke_o	o	n/a
302.644	0.135	605288	keystroke_u	u	n/a
302.794	0.1055	605588	keystroke_r	r	n/a
303.0345	0.12	606069	keystroke_m	m	n/a
303.1395	0.165	606279	keystroke_e	e	n/a
303.2745	0.12	606549	keystroke_t	t	n/a
303.5745	0.12	607149	keystroke_Key.enter	Key.enter	n/a
303.6995	5.8615	607399	prompt	n/a	agreement frontpage deviation meets\n
304.3095	0.09	608619	keystroke_a	a	n/a
304.4745	0.09	608949	keystroke_g	g	n/a
304.6395	0.105	609279	keystroke_r	r	n/a
304.8795	0.0605	609759	keystroke_e	e	n/a
305	0.105	610000	keystroke_e	e	n/a
305.12	0.09	610240	keystroke_m	m	n/a
305.225	0.09	610450	keystroke_e	e	n/a
305.33	0.09	610660	keystroke_n	n	n/a
305.435	0.12	610870	keystroke_t	t	n/a
305.495	0.12	610990	keystroke_Key.space	Key.space	n/a
305.825	0.045	611650	keystroke_f	f	n/a
306.1545	0.105	612309	keystroke_r	r	n/a
306.3195	0.075	612639	keystroke_o	o	n/a
306.4845	0.1205	612969	keystroke_n	n	n/a
306.5895	0.0905	613179	keystroke_t	t	n/a
306.8	0.09	613600	keystroke_p	p	n/a
306.905	0.105	613810	keystroke_a	a	n/a
307.085	0.1045	614170	keystroke_g	g	n/a
307.13	0.1195	614260	keystroke_e	e	n/a
307.2345	0.12	614469	keystroke_Key.space	Key.space	n/a
307.5045	0.075	615009	keystroke_d	d	n/a
307.6395	0.09	615279	keystroke_e	e	n/a
307.8195	0.105	615639	keystroke_v	v	n/a
307.9545	0.12	615909	keystroke_i	i	n/a
308.0445	0.09	616089	keystroke_a	a	n/a
308.2245	0.1205	616449	keystroke_t	t	n/a
308.36	0.195	616720	keystroke_i	i	n/a
308.435	0.105	616870	keystroke_o	o	n/a
308.51	0.135	617020	keystroke_n	n	n/a
308.615	0.135	617230	keystroke_Key.space	Key.space	n/a
308.885	0.0895	617770	keystroke_m	m	n/a
308.945	0.0595	617890	keystroke_e	e	n/a
309.0795	0.165	618159	keystroke_e	e	n/a
309.2295	0.12	618459	keystroke_t	t	n/a
309.3345	0.105	618669	keystroke_s	s	n/a
309.4545	0.105	618909	keystroke_Key.enter	Key.enter	n/a
309.5645	4.932	619129	prompt	n/a	eliminate remember three romance\n
310.2195	0.09	620439	keystroke_e	e	n/a
310.3245	0.105	620649	keystroke_l	l	n/a
310.5045	0.15	621009	keystroke_i	i	n/a
310.5945	0.105	621189	keystroke_m	m	n/a
310.775	0.09	621550	keystroke_i	i	n/a
310.835	0.105	621670	keystroke_n	n	n/a
311	0.09	622000	keystroke_a	a	n/a
311.195	0.09	622390	keystroke_t	t	n/a
311.27	0.12	622540	keystroke_e	e	n/a
311.375	0.15	622750	keystroke_Key.space	Key.space	n/a
311.54	0.09	623080	keystroke_r	r	n/a
311.57	0.105	623140	keystroke_e	e	n/a
311.69	0.09	623380	keystroke_m	m	n/a
311.781	0.089	623562	keystroke_e	e	n/a
311.855	0.105	623710	keystroke_m	m	n/a
312.095	0.0745	624190	keystroke_b	b	n/a
312.2295	0.12	624459	keystroke_e	e	n/a
312.3045	0.135	624609	keystroke_r	r	n/a
312.5445	0.12	625089	keystroke_Key.space	Key.space	n/a
312.7995	0.0905	625599	keystroke_t	t	n/a
312.905	0.09	625810	keystroke_h	h	n/a
312.965	0.075	625930	keystroke_r	r	n/a
313.145	0.06	626290	keystroke_e	e	n/a
313.2495	0.12	626499	keystroke_e	e	n/a
313.4145	0.06	626829	keystroke_Key.space	Key.space	n/a
313.5645	0.105	627129	keystroke_r	r	n/a
313.729	0.1205	627458	keystroke_o	o	n/a
313.7895	0.135	627579	keystroke_m	m	n/a
313.9545	0.135	627909	keystroke_a	a	n/a
314.1045	0.12	628209	keystroke_n	n	n/a
314.2095	0.105	628419	keystroke_c	c	n/a
314.2545	0.105	628509	keystroke_e	e	n/a
314.4045	0.09	628809	keystroke_Key.enter	Key.enter	n/a
314.4995	8.6215	628999	prompt	n/a	originally department went better\n
315.1995	0.12	630399	keystroke_o	o	n/a
315.3345	0.09	630669	keystroke_r	r	n/a
315.4695	0.09	630939	keystroke_i	i	n/a
315.5745	0.09	631149	keystroke_f	f	n/a
315.6655	0.119	631331	keystroke_i	i	n/a
315.7095	0.135	631419	keystroke_n	n	n/a
315.8745	0.105	631749	keystroke_a	a	n/a
316.0095	0.075	632019	keystroke_l	l	n/a
316.1895	0.09	632379	keystroke_l	l	n/a
316.2645	0.09	632529	keystroke_y	y	n/a
316.3695	0.045	632739	keystroke_Key.space	Key.space	n/a
316.55	0.06	633100	keystroke_Key.backspace	Key.backspace	n/a
316.7	0.06	633400	keystroke_Key.backspace	Key.backspace	n/a
316.8495	0.06	633699	keystroke_Key.backspace	Key.backspace	n/a
316.9995	0.045	633999	keystroke_Key.backspace	Key.backspace	n/a
317.1195	0.075	634239	keystroke_Key.backspace	Key.backspace	n/a
317.2695	0.075	634539	keystroke_Key.backspace	Key.backspace	n/a
317.42	0.1045	634840	keystroke_Key.backspace	Key.backspace	n/a
317.6445	0.0755	635289	keystroke_Key.backspace	Key.backspace	n/a
318.3345	0.09	636669	keystroke_g	g	n/a
318.4255	0.119	636851	keystroke_i	i	n/a
318.4995	0.105	636999	keystroke_n	n	n/a
318.5745	0.105	637149	keystroke_a	a	n/a
318.6945	0.09	637389	keystroke_l	l	n/a
318.8595	0.12	637719	keystroke_l	l	n/a
319.2945	0.09	638589	keystroke_Key.backspace	Key.backspace	n/a
319.7445	0.18	639489	keystroke_l	l	n/a
319.9395	0.09	639879	keystroke_y	y	n/a
320.0745	0.135	640149	keystroke_Key.space	Key.space	n/a
320.3445	0.075	640689	keystroke_d	d	n/a
320.5245	0.06	641049	keystroke_e	e	n/a
320.6295	0.09	641259	keystroke_p	p	n/a
320.9145	0.18	641829	keystroke_a	a	n/a
321.0495	0.075	642099	keystroke_r	r	n/a
321.2145	0.075	642429	keystroke_t	t	n/a
321.3195	0.075	642639	keystroke_m	m	n/a
321.4245	0.075	642849	keystroke_e	e	n/a
321.4845	0.105	642969	keystroke_n	n	n/a
321.5745	0.09	643149	keystroke_t	t	n/a
321.6345	0.0905	643269	keystroke_Key.space	Key.space	n/a
321.77	0.15	643540	keystroke_w	w	n/a
321.845	0.105	643690	keystroke_e	e	n/a
321.9645	0.12	643929	keystroke_n	n	n/a
322.0695	0.105	644139	keystroke_t	t	n/a
322.1295	0.12	644259	keystroke_Key.space	Key.space	n/a
322.3095	0.09	644619	keystroke_b	b	n/a
322.3545	0.09	644709	keystroke_e	e	n/a
322.55	0.06	645100	keystroke_t	t	n/a
322.67	0.105	645340	keystroke_t	t	n/a
322.805	0.12	645610	keystroke_e	e	n/a
322.895	0.0895	645790	keystroke_r	r	n/a
323.0295	0.09	646059	keystroke_Key.enter	Key.enter	n/a
323.1245	6.6565	646249	prompt	n/a	corporate vessels diagram vienna\n
323.7655	0.104	647531	keystroke_c	c	n/a
323.8845	0.105	647769	keystroke_o	o	n/a
324.0045	0.075	648009	keystroke_r	r	n/a
324.0945	0.06	648189	keystroke_p	p	n/a
324.2145	0.1055	648429	keystroke_o	o	n/a
324.2905	0.0895	648581	keystroke_r	r	n/a
324.41	0.09	648820	keystroke_a	a	n/a
324.5605	0.09	649121	keystroke_t	t	n/a
324.6045	0.106	649209	keystroke_e	e	n/a
324.8145	0.105	649629	keystroke_Key.space	Key.space	n/a
325.4005	0.105	650801	keystroke_v	v	n/a
325.5655	0.104	651131	keystroke_e	e	n/a
325.79	0.075	651580	keystroke_s	s	n/a
325.94	0.075	651880	keystroke_s	s	n/a
326.075	0.12	652150	keystroke_e	e	n/a
326.24	0.0905	652480	keystroke_l	l	n/a
326.315	0.1205	652630	keystroke_s	s	n/a
326.45	0.1045	652900	keystroke_Key.space	Key.space	n/a
326.5855	0.12	653171	keystroke_d	d	n/a
326.6755	0.135	653351	keystroke_i	i	n/a
326.7805	0.09	653561	keystroke_a	a	n/a
327.0055	0.09	654011	keystroke_g	g	n/a
327.1995	0.09	654399	keystroke_r	r	n/a
327.3345	0.1055	654669	keystroke_a	a	n/a
327.455	0.105	654910	keystroke_m	m	n/a
327.575	0.105	655150	keystroke_Key.space	Key.space	n/a
328.37	0.105	656740	keystroke_v	v	n/a
328.565	0.12	657130	keystroke_i	i	n/a
328.67	0.075	657340	keystroke_e	e	n/a
328.8655	0.149	657731	keystroke_n	n	n/a
329.3145	0.106	658629	keystroke_n	n	n/a
329.4355	0.104	658871	keystroke_a	a	n/a
329.705	0.075	659410	keystroke_Key.enter	Key.enter	n/a
329.785	5.3365	659570	prompt	n/a	preliminary visiting many receivers\n
330.515	0.075	661030	keystroke_p	p	n/a
330.605	0.1045	661210	keystroke_r	r	n/a
330.89	0.09	661780	keystroke_e	e	n/a
331.115	0.0905	662230	keystroke_l	l	n/a
331.3095	0.15	662619	keystroke_i	i	n/a
331.4145	0.09	662829	keystroke_m	m	n/a
331.5645	0.105	663129	keystroke_i	i	n/a
331.6245	0.135	663249	keystroke_n	n	n/a
331.7295	0.18	663459	keystroke_a	a	n/a
331.8795	0.076	663759	keystroke_r	r	n/a
332.0595	0.0755	664119	keystroke_y	y	n/a
332.135	0.075	664270	keystroke_Key.space	Key.space	n/a
332.36	0.09	664720	keystroke_v	v	n/a
332.465	0.105	664930	keystroke_i	i	n/a
332.585	0.09	665170	keystroke_s	s	n/a
332.69	0.09	665380	keystroke_i	i	n/a
332.78	0.075	665560	keystroke_t	t	n/a
332.885	0.105	665770	keystroke_i	i	n/a
332.93	0.12	665860	keystroke_n	n	n/a
333.005	0.105	666010	keystroke_g	g	n/a
333.08	0.1345	666160	keystroke_Key.space	Key.space	n/a
333.2455	0.089	666491	keystroke_m	m	n/a
333.3945	0.105	666789	keystroke_a	a	n/a
333.4845	0.105	666969	keystroke_n	n	n/a
333.6355	0.09	667271	keystroke_y	y	n/a
333.7395	0.12	667479	keystroke_Key.space	Key.space	n/a
333.8895	0.121	667779	keystroke_r	r	n/a
333.9645	0.121	667929	keystroke_e	e	n/a
334.16	0.105	668320	keystroke_c	c	n/a
334.31	0.105	668620	keystroke_e	e	n/a
334.49	0.075	668980	keystroke_i	i	n/a
334.58	0.075	669160	keystroke_v	v	n/a
334.715	0.1195	669430	keystroke_e	e	n/a
334.775	0.1795	669550	keystroke_r	r	n/a
334.8945	0.135	669789	keystroke_s	s	n/a
335.0445	0.075	670089	keystroke_Key.enter	Key.enter	n/a
335.127	9.8495	670254	prompt	n/a	quotes biology virtually sorted\n
335.7795	0.09	671559	keystroke_q	q	n/a
335.9295	0.075	671859	keystroke_u	u	n/a
336.2595	0.12	672519	keystroke_o	o	n/a
336.635	0.15	673270	keystroke_t	t	n/a
336.725	0.1495	673450	keystroke_e	e	n/a
336.8	0.1795	673600	keystroke_s	s	n/a
336.9645	0.12	673929	keystroke_Key.space	Key.space	n/a
337.385	0.075	674770	keystroke_b	b	n/a
337.565	0.18	675130	keystroke_i	i	n/a
337.58	0.045	675160	keystroke_u	u	n/a
337.595	0.135	675190	keystroke_o	o	n/a
338.465	0.045	676930	keystroke_Key.backspace	Key.backspace	n/a
338.57	0.075	677140	keystroke_Key.backspace	Key.backspace	n/a
338.96	0.06	677920	keystroke_o	o	n/a
339.14	0.075	678280	keystroke_l	l	n/a
339.32	0.105	678640	keystroke_o	o	n/a
339.485	0.12	678970	keystroke_g	g	n/a
339.74	0.075	679480	keystroke_y	y	n/a
339.785	0.12	679570	keystroke_Key.space	Key.space	n/a
340.37	0.12	680740	keystroke_v	v	n/a
340.61	0.105	681220	keystroke_i	i	n/a
340.745	0.12	681490	keystroke_r	r	n/a
340.94	0.09	681880	keystroke_t	t	n/a
341.075	0.105	682150	keystroke_u	u	n/a
341.15	0.105	682300	keystroke_r	r	n/a
341.24	0.1195	682480	keystroke_a	a	n/a
341.3745	0.06	682749	keystroke_l	l	n/a
341.5095	0.105	683019	keystroke_l	l	n/a
341.6595	0.1055	683319	keystroke_y	y	n/a
341.78	0.165	683560	keystroke_Key.space	Key.space	n/a
342.41	0.045	684820	keystroke_Key.backspace	Key.backspace	n/a
342.545	0.06	685090	keystroke_Key.backspace	Key.backspace	n/a
342.695	0.06	685390	keystroke_Key.backspace	Key.backspace	n/a
342.83	0.075	685660	keystroke_Key.backspace	Key.backspace	n/a
342.98	0.09	685960	keystroke_Key.backspace	Key.backspace	n/a
343.22	0.06	686440	keystroke_Key.backspace	Key.backspace	n/a
343.43	0.105	686860	keystroke_a	a	n/a
343.565	0.09	687130	keystroke_l	l	n/a
343.715	0.135	687430	keystroke_l	l	n/a
343.865	0.06	687730	keystroke_y	y	n/a
343.895	0.1045	687790	keystroke_Key.space	Key.space	n/a
344.09	0.12	688180	keystroke_s	s	n/a
344.195	0.075	688390	keystroke_o	o	n/a
344.3	0.075	688600	keystroke_r	r	n/a
344.45	0.105	688900	keystroke_t	t	n/a
344.57	0.106	689140	keystroke_e	e	n/a
344.75	0.105	689500	keystroke_d	d	n/a
344.885	0.09	689770	keystroke_Key.enter	Key.enter	n/a
344.981	5.6955	689962	prompt	n/a	closure swing digital word\n
345.62	0.12	691240	keystroke_c	c	n/a
345.695	0.075	691390	keystroke_l	l	n/a
345.86	0.09	691720	keystroke_o	o	n/a
345.92	0.15	691840	keystroke_s	s	n/a
346.19	0.09	692380	keystroke_u	u	n/a
346.295	0.12	692590	keystroke_r	r	n/a
346.355	0.135	692710	keystroke_e	e	n/a
346.475	0.135	692950	keystroke_Key.space	Key.space	n/a
346.7295	0.0905	693459	keystroke_s	s	n/a
346.895	0.075	693790	keystroke_w	w	n/a
346.97	0.09	693940	keystroke_o	o	n/a
347.45	0.06	694900	keystroke_Key.backspace	Key.backspace	n/a
347.705	0.135	695410	keystroke_i	i	n/a
347.795	0.12	695590	keystroke_n	n	n/a
347.885	0.105	695770	keystroke_g	g	n/a
347.975	0.12	695950	keystroke_Key.space	Key.space	n/a
348.32	0.105	696640	keystroke_d	d	n/a
348.44	0.105	696880	keystroke_i	i	n/a
348.56	0.075	697120	keystroke_g	g	n/a
348.65	0.135	697300	keystroke_i	i	n/a
349.4445	0.091	698889	keystroke_t	t	n/a
349.7755	0.075	699551	keystroke_a	a	n/a
349.8505	0.09	699701	keystroke_l	l	n/a
349.9405	0.12	699881	keystroke_Key.space	Key.space	n/a
350.1505	0.09	700301	keystroke_w	w	n/a
350.2255	0.09	700451	keystroke_o	o	n/a
350.3005	0.075	700601	keystroke_r	r	n/a
350.4655	0.075	700931	keystroke_d	d	n/a
350.6005	0.075	701201	keystroke_Key.enter	Key.enter	n/a
350.6795	6.357	701359	prompt	n/a	baking erotica hospitals approaches\n
351.35	0.105	702700	keystroke_b	b	n/a
351.47	0.12	702940	keystroke_a	a	n/a
351.62	0.075	703240	keystroke_k	k	n/a
351.8	0.105	703600	keystroke_i	i	n/a
351.845	0.15	703690	keystroke_n	n	n/a
351.935	0.105	703870	keystroke_g	g	n/a
352.025	0.12	704050	keystroke_Key.space	Key.space	n/a
352.4895	0.165	704979	keystroke_e	e	n/a
352.5945	0.12	705189	keystroke_r	r	n/a
352.7295	0.121	705459	keystroke_o	o	n/a
352.8645	0.0755	705729	keystroke_t	t	n/a
353.03	0.105	706060	keystroke_i	i	n/a
353.105	0.15	706210	keystroke_c	c	n/a
353.735	0.105	707470	keystroke_a	a	n/a
353.945	0.105	707890	keystroke_Key.space	Key.space	n/a
354.29	0.09	708580	keystroke_h	h	n/a
354.485	0.105	708970	keystroke_o	o	n/a
354.635	0.105	709270	keystroke_s	s	n/a
354.77	0.075	709540	keystroke_p	p	n/a
354.965	0.105	709930	keystroke_i	i	n/a
355.055	0.075	710110	keystroke_t	t	n/a
355.175	0.075	710350	keystroke_a	a	n/a
355.28	0.12	710560	keystroke_l	l	n/a
355.385	0.135	710770	keystroke_s	s	n/a
355.535	0.075	711070	keystroke_Key.space	Key.space	n/a
355.6855	0.134	711371	keystroke_a	a	n/a
355.8345	0.061	711669	keystroke_p	p	n/a
355.9545	0.105	711909	keystroke_p	p	n/a
356.1355	0.089	712271	keystroke_r	r	n/a
356.2255	0.12	712451	keystroke_o	o	n/a
356.3295	0.135	712659	keystroke_a	a	n/a
356.4795	0.105	712959	keystroke_c	c	n/a
356.5995	0.09	713199	keystroke_h	h	n/a
356.6745	0.12	713349	keystroke_e	e	n/a
356.7495	0.12	713499	keystroke_s	s	n/a
356.9145	0.1205	713829	keystroke_Key.enter	Key.enter	n/a
357.0395	6.162	714079	prompt	n/a	national compile route fathers\n
357.635	0.1055	715270	keystroke_n	n	n/a
357.7105	0.18	715421	keystroke_a	a	n/a
357.8605	0.105	715721	keystroke_t	t	n/a
357.9205	0.15	715841	keystroke_i	i	n/a
357.9805	0.075	715961	keystroke_o	o	n/a
358.0255	0.12	716051	keystroke_n	n	n/a
358.1155	0.105	716231	keystroke_a	a	n/a
358.2055	0.105	716411	keystroke_l	l	n/a
358.355	0.09	716710	keystroke_Key.space	Key.space	n/a
358.64	0.09	717280	keystroke_c	c	n/a
358.655	0.135	717310	keystroke_o	o	n/a
358.745	0.0905	717490	keystroke_m	m	n/a
358.8955	0.12	717791	keystroke_p	p	n/a
358.9855	0.03	717971	keystroke_l	l	n/a
359.195	0.09	718390	keystroke_i	i	n/a
359.9	0.06	719800	keystroke_Key.backspace	Key.backspace	n/a
360.035	0.075	720070	keystroke_Key.backspace	Key.backspace	n/a
360.59	0.225	721180	keystroke_i	i	n/a
360.695	0.15	721390	keystroke_l	l	n/a
360.83	0.12	721660	keystroke_e	e	n/a
360.92	0.15	721840	keystroke_Key.space	Key.space	n/a
361.49	0.12	722980	keystroke_r	r	n/a
361.58	0.18	723160	keystroke_o	o	n/a
361.685	0.15	723370	keystroke_u	u	n/a
361.775	0.135	723550	keystroke_t	t	n/a
361.85	0.15	723700	keystroke_e	e	n/a
361.955	0.135	723910	keystroke_Key.space	Key.space	n/a
362.3155	0.15	724631	keystroke_f	f	n/a
362.4805	0.135	724961	keystroke_a	a	n/a
362.5705	0.105	725141	keystroke_t	t	n/a
362.72	0.135	725440	keystroke_h	h	n/a
362.75	0.12	725500	keystroke_e	e	n/a
362.81	0.165	725620	keystroke_r	r	n/a
362.96	0.105	725920	keystroke_s	s	n/a
363.11	0.09	726220	keystroke_Key.enter	Key.enter	n/a
363.2045	5.5775	726409	prompt	n/a	praise consumers part parallel\n
363.9805	0.134	727961	keystroke_p	p	n/a
364.0855	0.12	728171	keystroke_r	r	n/a
364.2495	0.09	728499	keystroke_a	a	n/a
364.3705	0.104	728741	keystroke_i	i	n/a
364.4895	0.135	728979	keystroke_s	s	n/a
364.5795	0.135	729159	keystroke_e	e	n/a
364.6845	0.1355	729369	keystroke_Key.space	Key.space	n/a
364.9555	0.044	729911	keystroke_c	c	n/a
364.9695	0.06	729939	keystroke_o	o	n/a
365.0895	0.105	730179	keystroke_n	n	n/a
365.1805	0.134	730361	keystroke_s	s	n/a
365.2845	0.075	730569	keystroke_u	u	n/a
365.4495	0.105	730899	keystroke_m	m	n/a
365.5245	0.1205	731049	keystroke_e	e	n/a
365.585	0.18	731170	keystroke_r	r	n/a
365.72	0.165	731440	keystroke_s	s	n/a
365.87	0.12	731740	keystroke_Key.space	Key.space	n/a
366.05	0.135	732100	keystroke_a	a	n/a
366.065	0.105	732130	keystroke_p	p	n/a
366.6045	0.045	733209	keystroke_Key.backspace	Key.backspace	n/a
366.7245	0.075	733449	keystroke_Key.backspace	Key.backspace	n/a
366.9355	0.09	733871	keystroke_p	p	n/a
367.0555	0.18	734111	keystroke_a	a	n/a
367.1455	0.12	734291	keystroke_r	r	n/a
367.37	0.09	734740	keystroke_t	t	n/a
367.415	0.12	734830	keystroke_Key.space	Key.space	n/a
367.67	0.09	735340	keystroke_p	p	n/a
367.775	0.135	735550	keystroke_a	a	n/a
367.865	0.105	735730	keystroke_r	r	n/a
367.985	0.09	735970	keystroke_a	a	n/a
368.12	0.06	736240	keystroke_l	l	n/a
368.255	0.105	736510	keystroke_l	l	n/a
368.375	0.075	736750	keystroke_e	e	n/a
368.48	0.0895	736960	keystroke_l	l	n/a
368.7195	0.06	737439	keystroke_Key.enter	Key.enter	n/a
368.785	6.897	737570	prompt	n/a	pieces violations sheffield joan\n
369.4555	0.044	738911	keystroke_p	p	n/a
369.5445	0.075	739089	keystroke_e	e	n/a
369.6495	0.09	739299	keystroke_i	i	n/a
370.0395	0.045	740079	keystroke_Key.backspace	Key.backspace	n/a
370.1595	0.06	740319	keystroke_Key.backspace	Key.backspace	n/a
370.3845	0.091	740769	keystroke_i	i	n/a
370.4895	0.09	740979	keystroke_e	e	n/a
370.67	0.135	741340	keystroke_c	c	n/a
370.79	0.15	741580	keystroke_e	e	n/a
370.88	0.195	741760	keystroke_s	s	n/a
371.06	0.12	742120	keystroke_Key.space	Key.space	n/a
371.75	0.12	743500	keystroke_v	v	n/a
371.81	0.135	743620	keystroke_i	i	n/a
371.885	0.09	743770	keystroke_o	o	n/a
372.08	0.09	744160	keystroke_l	l	n/a
372.185	0.18	744370	keystroke_a	a	n/a
372.35	0.105	744700	keystroke_t	t	n/a
372.44	0.18	744880	keystroke_i	i	n/a
372.485	0.105	744970	keystroke_o	o	n/a
372.56	0.135	745120	keystroke_n	n	n/a
372.665	0.15	745330	keystroke_s	s	n/a
372.755	0.15	745510	keystroke_Key.space	Key.space	n/a
373.01	0.09	746020	keystroke_s	s	n/a
373.07	0.12	746140	keystroke_h	h	n/a
373.235	0.09	746470	keystroke_e	e	n/a
373.4305	0.075	746861	keystroke_f	f	n/a
373.5655	0.075	747131	keystroke_f	f	n/a
373.6555	0.105	747311	keystroke_i	i	n/a
373.7755	0.075	747551	keystroke_e	e	n/a
373.8795	0.12	747759	keystroke_l	l	n/a
374.6905	0.104	749381	keystroke_d	d	n/a
374.855	0.12	749710	keystroke_Key.space	Key.space	n/a
375.0645	0.1055	750129	keystroke_j	j	n/a
375.2155	0.059	750431	keystroke_o	o	n/a
375.305	0.1045	750610	keystroke_a	a	n/a
375.3945	0.0755	750789	keystroke_n	n	n/a
375.605	0.075	751210	keystroke_Key.enter	Key.enter	n/a
375.685	7.962	751370	prompt	n/a	producers gras vienna dressed\n
376.31	0.09	752620	keystroke_p	p	n/a
376.445	0.075	752890	keystroke_r	r	n/a
376.505	0.09	753010	keystroke_o	o	n/a
376.64	0.105	753280	keystroke_d	d	n/a
376.82	0.0905	753640	keystroke_u	u	n/a
376.8955	0.12	753791	keystroke_c	c	n/a
377.1055	0.135	754211	keystroke_e	e	n/a
377.2105	0.165	754421	keystroke_r	r	n/a
377.3305	0.1495	754661	keystroke_s	s	n/a
377.4655	0.0895	754931	keystroke_Key.space	Key.space	n/a
377.63	0.045	755260	keystroke_g	g	n/a
377.645	0.015	755290	keystroke_f	f	n/a
377.795	0.0755	755590	keystroke_r	r	n/a
378.2005	0.045	756401	keystroke_Key.backspace	Key.backspace	n/a
378.4105	0.015	756821	keystroke_Key.backspace	Key.backspace	n/a
378.5605	0.0895	757121	keystroke_r	r	n/a
378.755	0.12	757510	keystroke_a	a	n/a
378.905	0.15	757810	keystroke_s	s	n/a
379.025	0.12	758050	keystroke_Key.space	Key.space	n/a
379.235	0.09	758470	keystroke_v	v	n/a
379.355	0.12	758710	keystroke_i	i	n/a
379.49	0.06	758980	keystroke_e	e	n/a
379.64	0.105	759280	keystroke_e	e	n/a
380.2555	0.06	760511	keystroke_Key.backspace	Key.backspace	n/a
380.2705	0.015	760541	keystroke_=	=	n/a
380.5705	0.09	761141	keystroke_n	n	n/a
381.0055	0.06	762011	keystroke_Key.backspace	Key.backspace	n/a
381.1405	0.09	762281	keystroke_Key.backspace	Key.backspace	n/a
381.8755	0.045	763751	keystroke_n	n	n/a
382.0105	0.075	764021	keystroke_n	n	n/a
382.1005	0.15	764201	keystroke_a	a	n/a
382.2205	0.135	764441	keystroke_Key.space	Key.space	n/a
382.4005	0.09	764801	keystroke_d	d	n/a
382.5805	0.135	765161	keystroke_r	r	n/a
382.6555	0.12	765311	keystroke_e	e	n/a
382.91	0.0605	765820	keystroke_s	s	n/a
383.0455	0.15	766091	keystroke_s	s	n/a
383.1655	0.12	766331	keystroke_e	e	n/a
383.3755	0.105	766751	keystroke_d	d	n/a
383.5255	0.12	767051	keystroke_Key.enter	Key.enter	n/a
383.6505	5.4415	767301	prompt	n/a	detection cream matching seeing\n
384.9655	0.06	769931	keystroke_d	d	n/a
385.1305	0.075	770261	keystroke_e	e	n/a
385.2355	0.105	770471	keystroke_t	t	n/a
385.3555	0.12	770711	keystroke_e	e	n/a
385.5355	0.09	771071	keystroke_c	c	n/a
385.73	0.06	771460	keystroke_t	t	n/a
385.775	0.21	771550	keystroke_i	i	n/a
385.835	0.12	771670	keystroke_o	o	n/a
385.91	0.166	771820	keystroke_n	n	n/a
386	0.12	772000	keystroke_Key.space	Key.space	n/a
386.18	0.09	772360	keystroke_c	c	n/a
386.3755	0.12	772751	keystroke_r	r	n/a
386.4655	0.105	772931	keystroke_e	e	n/a
386.5255	0.165	773051	keystroke_a	a	n/a
386.6305	0.12	773261	keystroke_m	m	n/a
386.7355	0.135	773471	keystroke_Key.space	Key.space	n/a
386.9155	0.12	773831	keystroke_m	m	n/a
386.9305	0.15	773861	keystroke_a	a	n/a
387.5305	0.09	775061	keystroke_t	t	n/a
387.77	0.1355	775540	keystroke_c	c	n/a
387.9055	0.06	775811	keystroke_h	h	n/a
387.9805	0.135	775961	keystroke_i	i	n/a
388.0705	0.135	776141	keystroke_n	n	n/a
388.1305	0.105	776261	keystroke_g	g	n/a
388.1905	0.165	776381	keystroke_Key.space	Key.space	n/a
388.3405	0.0895	776681	keystroke_s	s	n/a
388.52	0.06	777040	keystroke_e	e	n/a
388.625	0.12	777250	keystroke_e	e	n/a
388.745	0.105	777490	keystroke_i	i	n/a
388.805	0.09	777610	keystroke_n	n	n/a
388.88	0.075	777760	keystroke_g	g	n/a
389.015	0.075	778030	keystroke_Key.enter	Key.enter	n/a
389.095	6.057	778190	prompt	n/a	topic projection confirm rebound\n
389.93	0.075	779860	keystroke_t	t	n/a
389.99	0.12	779980	keystroke_o	o	n/a
390.05	0.075	780100	keystroke_p	p	n/a
390.23	0.09	780460	keystroke_i	i	n/a
390.335	0.09	780670	keystroke_c	c	n/a
390.395	0.12	780790	keystroke_Key.space	Key.space	n/a
390.59	0.075	781180	keystroke_p	p	n/a
390.68	0.09	781360	keystroke_r	r	n/a
390.785	0.075	781570	keystroke_o	o	n/a
391.1155	0.15	782231	keystroke_j	j	n/a
391.295	0.1805	782590	keystroke_e	e	n/a
391.3855	0.1195	782771	keystroke_c	c	n/a
391.5955	0.09	783191	keystroke_t	t	n/a
391.6555	0.195	783311	keystroke_i	i	n/a
391.7155	0.105	783431	keystroke_o	o	n/a
391.805	0.1505	783610	keystroke_n	n	n/a
391.8655	0.1195	783731	keystroke_Key.space	Key.space	n/a
392.045	0.105	784090	keystroke_c	c	n/a
392.1055	0.0895	784211	keystroke_o	o	n/a
392.24	0.1055	784480	keystroke_n	n	n/a
392.3305	0.09	784661	keystroke_f	f	n/a
392.4205	0.075	784841	keystroke_i	i	n/a
392.4955	0.09	784991	keystroke_r	r	n/a
392.6155	0.089	785231	keystroke_m	m	n/a
392.7495	0.135	785499	keystroke_Key.space	Key.space	n/a
393.065	0.12	786130	keystroke_r	r	n/a
393.125	0.09	786250	keystroke_e	e	n/a
393.245	0.075	786490	keystroke_b	b	n/a
393.395	0.135	786790	keystroke_o	o	n/a
393.485	0.076	786970	keystroke_u	u	n/a
393.7705	0.075	787541	keystroke_d	d	n/a
394.1605	0.09	788321	keystroke_Key.backspace	Key.backspace	n/a
394.4605	0.09	788921	keystroke_n	n	n/a
394.5955	0.09	789191	keystroke_d	d	n/a
395.0605	0.09	790121	keystroke_Key.enter	Key.enter	n/a
395.155	6.2365	790310	prompt	n/a	instantly lending jersey significantly\n
395.8555	0.0895	791711	keystroke_i	i	n/a
395.885	0.21	791770	keystroke_n	n	n/a
395.99	0.135	791980	keystroke_s	s	n/a
396.095	0.105	792190	keystroke_t	t	n/a
396.245	0.12	792490	keystroke_a	a	n/a
396.335	0.135	792670	keystroke_n	n	n/a
396.471	0.059	792942	keystroke_t	t	n/a
396.56	0.105	793120	keystroke_l	l	n/a
396.665	0.075	793330	keystroke_y	y	n/a
396.7255	0.09	793451	keystroke_Key.space	Key.space	n/a
396.8755	0.135	793751	keystroke_l	l	n/a
397.0255	0.075	794051	keystroke_e	e	n/a
397.1455	0.09	794291	keystroke_n	n	n/a
397.2505	0.09	794501	keystroke_d	d	n/a
397.3555	0.09	794711	keystroke_i	i	n/a
397.4005	0.12	794801	keystroke_n	n	n/a
397.4605	0.105	794921	keystroke_g	g	n/a
397.5355	0.119	795071	keystroke_Key.space	Key.space	n/a
397.7605	0.09	795521	keystroke_j	j	n/a
397.97	0.165	795940	keystroke_e	e	n/a
398.075	0.12	796150	keystroke_r	r	n/a
398.3	0.135	796600	keystroke_s	s	n/a
398.405	0.135	796810	keystroke_e	e	n/a
398.63	0.075	797260	keystroke_y	y	n/a
398.69	0.105	797380	keystroke_Key.space	Key.space	n/a
398.945	0.195	797890	keystroke_s	s	n/a
399.125	0.135	798250	keystroke_i	i	n/a
399.275	0.1055	798550	keystroke_f	f	n/a
399.71	0.075	799420	keystroke_Key.backspace	Key.backspace	n/a
399.875	0.09	799750	keystroke_g	g	n/a
400.1	0.075	800200	keystroke_n	n	n/a
400.37	0.015	800740	keystroke_i	i	n/a
400.4	0.075	800800	keystroke_f	f	n/a
400.49	0.105	800980	keystroke_i	i	n/a
400.58	0.1205	801160	keystroke_c	c	n/a
400.6705	0.105	801341	keystroke_a	a	n/a
400.8045	0.076	801609	keystroke_n	n	n/a
400.9405	0.09	801881	keystroke_t	t	n/a
401.0605	0.1045	802121	keystroke_l	l	n/a
401.15	0.06	802300	keystroke_y	y	n/a
401.315	0.0755	802630	keystroke_Key.enter	Key.enter	n/a
401.3965	5.695	802793	prompt	n/a	research simulation load penguin\n
401.99	0.1505	803980	keystroke_r	r	n/a
402.0805	0.135	804161	keystroke_e	e	n/a
402.1855	0.18	804371	keystroke_s	s	n/a
402.3355	0.165	804671	keystroke_e	e	n/a
402.4855	0.195	804971	keystroke_a	a	n/a
402.6205	0.09	805241	keystroke_r	r	n/a
402.8305	0.105	805661	keystroke_c	c	n/a
402.9505	0.135	805901	keystroke_h	h	n/a
403.0855	0.105	806171	keystroke_Key.space	Key.space	n/a
403.2655	0.1345	806531	keystroke_s	s	n/a
403.385	0.135	806770	keystroke_i	i	n/a
403.46	0.105	806920	keystroke_m	m	n/a
403.655	0.06	807310	keystroke_u	u	n/a
403.79	0.105	807580	keystroke_l	l	n/a
403.88	0.135	807760	keystroke_a	a	n/a
403.985	0.075	807970	keystroke_t	t	n/a
404.03	0.195	808060	keystroke_i	i	n/a
404.09	0.12	808180	keystroke_o	o	n/a
404.18	0.105	808360	keystroke_n	n	n/a
404.225	0.135	808450	keystroke_Key.space	Key.space	n/a
404.361	0.059	808722	keystroke_l	l	n/a
404.51	0.105	809020	keystroke_o	o	n/a
404.585	0.165	809170	keystroke_a	a	n/a
404.66	0.135	809320	keystroke_d	d	n/a
404.735	0.1205	809470	keystroke_Key.space	Key.space	n/a
404.8855	0.09	809771	keystroke_p	p	n/a
404.9005	0.06	809801	keystroke_o	o	n/a
405.0355	0.075	810071	keystroke_e	e	n/a
405.1255	0.1045	810251	keystroke_n	n	n/a
405.5	0.06	811000	keystroke_Key.backspace	Key.backspace	n/a
405.635	0.06	811270	keystroke_Key.backspace	Key.backspace	n/a
405.785	0.075	811570	keystroke_Key.backspace	Key.backspace	n/a
406.2205	0.09	812441	keystroke_e	e	n/a
406.2955	0.09	812591	keystroke_n	n	n/a
406.4155	0.09	812831	keystroke_g	g	n/a
406.4905	0.165	812981	keystroke_u	u	n/a
406.5655	0.135	813131	keystroke_i	i	n/a
406.76	0.09	813520	keystroke_n	n	n/a
407.0155	0.075	814031	keystroke_Key.enter	Key.enter	n/a
407.095	5.802	814190	prompt	n/a	alumni comparable undertake homepage\n
407.7655	0.1045	815531	keystroke_a	a	n/a
407.84	0.1205	815680	keystroke_l	l	n/a
408.0655	0.075	816131	keystroke_u	u	n/a
408.2455	0.075	816491	keystroke_m	m	n/a
408.4105	0.075	816821	keystroke_n	n	n/a
408.5305	0.075	817061	keystroke_i	i	n/a
408.6655	0.09	817331	keystroke_Key.space	Key.space	n/a
409.115	0.105	818230	keystroke_c	c	n/a
409.205	0.135	818410	keystroke_o	o	n/a
409.295	0.09	818590	keystroke_m	m	n/a
409.475	0.09	818950	keystroke_p	p	n/a
409.685	0.165	819370	keystroke_a	a	n/a
409.82	0.09	819640	keystroke_r	r	n/a
409.955	0.12	819910	keystroke_a	a	n/a
410.09	0.075	820180	keystroke_b	b	n/a
410.2105	0.135	820421	keystroke_l	l	n/a
410.3005	0.12	820601	keystroke_e	e	n/a
410.3755	0.135	820751	keystroke_Key.space	Key.space	n/a
410.5705	0.12	821141	keystroke_u	u	n/a
410.6455	0.225	821291	keystroke_n	n	n/a
410.7505	0.105	821501	keystroke_d	d	n/a
410.9005	0.135	821801	keystroke_e	e	n/a
410.9905	0.12	821981	keystroke_r	r	n/a
411.1855	0.09	822371	keystroke_t	t	n/a
411.3355	0.09	822671	keystroke_a	a	n/a
411.4405	0.075	822881	keystroke_k	k	n/a
411.5455	0.0895	823091	keystroke_e	e	n/a
411.605	0.105	823210	keystroke_Key.space	Key.space	n/a
411.83	0.09	823660	keystroke_h	h	n/a
411.98	0.135	823960	keystroke_o	o	n/a
412.085	0.105	824170	keystroke_m	m	n/a
412.175	0.075	824350	keystroke_e	e	n/a
412.295	0.105	824590	keystroke_p	p	n/a
412.37	0.09	824740	keystroke_a	a	n/a
412.535	0.09	825070	keystroke_g	g	n/a
412.595	0.12	825190	keystroke_e	e	n/a
412.8055	0.09	825611	keystroke_Key.enter	Key.enter	n/a
412.9005	5.2315	825801	prompt	n/a	johnson adsl unit rendered\n
413.6305	0.06	827261	keystroke_j	j	n/a
413.7355	0.09	827471	keystroke_o	o	n/a
413.9155	0.09	827831	keystroke_h	h	n/a
414.0955	0.09	828191	keystroke_n	n	n/a
414.2155	0.1055	828431	keystroke_s	s	n/a
414.335	0.06	828670	keystroke_o	o	n/a
414.44	0.105	828880	keystroke_n	n	n/a
414.56	0.09	829120	keystroke_Key.space	Key.space	n/a
414.785	0.1655	829570	keystroke_a	a	n/a
415.025	0.135	830050	keystroke_d	d	n/a
415.43	0.09	830860	keystroke_s	s	n/a
415.715	0.09	831430	keystroke_l	l	n/a
416.3155	0.105	832631	keystroke_Key.space	Key.space	n/a
416.4215	0.0885	832843	keystroke_u	u	n/a
416.495	0.09	832990	keystroke_n	n	n/a
416.615	0.12	833230	keystroke_i	i	n/a
416.705	0.105	833410	keystroke_t	t	n/a
416.795	0.135	833590	keystroke_Key.space	Key.space	n/a
416.99	0.1205	833980	keystroke_r	r	n/a
417.0655	0.105	834131	keystroke_e	e	n/a
417.1855	0.15	834371	keystroke_n	n	n/a
417.3055	0.075	834611	keystroke_d	d	n/a
417.4555	0.12	834911	keystroke_e	e	n/a
417.5455	0.15	835091	keystroke_r	r	n/a
417.6505	0.12	835301	keystroke_e	e	n/a
