onset	duration	sample	value	key	prompt_text
53.2815	0.1	106563	keystroke_s	s	n/a
58.7595	0.101	117519	keystroke_j	j	n/a
58.8045	0.0785	117609	keystroke_o	o	n/a
58.917	0.0895	117834	keystroke_s	s	n/a
58.939	0.0795	117878	keystroke_e	e	n/a
59.019	0.1	118038	keystroke_p	p	n/a
59.086	0.0785	118172	keystroke_h	h	n/a
59.1545	0.1	118309	keystroke_z	z	n/a
59.3555	0.0675	118711	keystroke_Key.tab	Key.tab	n/a
59.6595	0.067	119319	keystroke_Key.space	Key.space	n/a
60.088	0.0665	120176	keystroke_Key.down	Key.down	n/a
60.222	0.0675	120444	keystroke_Key.down	Key.down	n/a
60.402	0.0675	120804	keystroke_Key.space	Key.space	n/a
60.593	0.079	121186	keystroke_Key.tab	Key.tab	n/a
61.212	0.214	122424	keystroke_Key.cmd	Key.cmd	n/a
61.291	0.09	122582	keystroke_v	v	n/a
61.628	0.068	123256	keystroke_Key.tab	Key.tab	n/a
62.011	0.1685	124022	keystroke_Key.shift	Key.shift	n/a
62.101	0.0895	124202	keystroke_Key.tab	Key.tab	n/a
62.5185	0.0775	125037	keystroke_Key.cmd	Key.cmd	n/a
62.529	0.09	125058	keystroke_a	a	n/a
62.619	0.0555	125238	keystroke_Key.backspace	Key.backspace	n/a
63.9345	0.0785	127869	keystroke_]	]	n/a
64.3075	0.077	128615	keystroke_[	[	n/a
64.6095	0.09	129219	keystroke_[	[	n/a
65.039	0.077	130078	keystroke_]	]	n/a
65.442	0.0785	130884	keystroke_[	[	n/a
77.9635	0.225	155927	keystroke_Key.cmd	Key.cmd	n/a
78.0535	0.101	156107	keystroke_c	c	n/a
78.4925	0.2245	156985	keystroke_Key.ctrl	Key.ctrl	n/a
78.627	0.0675	157254	keystroke_Key.tab	Key.tab	n/a
79.381	0.079	158762	keystroke_Key.cmd	Key.cmd	n/a
79.9215	0.134	159843	keystroke_Key.cmd	Key.cmd	n/a
79.988	0.0785	159976	keystroke_v	v	n/a
80.393	0.0785	160786	keystroke_Key.tab	Key.tab	n/a
80.607	0.067	161214	keystroke_Key.tab	Key.tab	n/a
80.9445	0.056	161889	keystroke_Key.space	Key.space	n/a
104.294	7.0285	208588	prompt	n/a	the quick brown fox jumps over a lazy dog\n
106.0095	0.068	212019	keystroke_t	t	n/a
106.1895	0.068	212379	keystroke_h	h	n/a
106.2795	0.0795	212559	keystroke_e	e	n/a
106.381	0.1125	212762	keystroke_Key.space	Key.space	n/a
106.4715	0.0895	212943	keystroke_q	q	n/a
106.64	0.1235	213280	keystroke_u	u	n/a
106.73	0.067	213460	keystroke_i	i	n/a
106.8425	0.079	213685	keystroke_c	c	n/a
106.9435	0.0905	213887	keystroke_k	k	n/a
107.045	0.079	214090	keystroke_Key.space	Key.space	n/a
107.135	0.0675	214270	keystroke_b	b	n/a
107.3045	0.0775	214609	keystroke_r	r	n/a
107.4615	0.078	214923	keystroke_o	o	n/a
107.5845	0.0675	215169	keystroke_w	w	n/a
107.6755	0.1005	215351	keystroke_n	n	n/a
107.788	0.0895	215576	keystroke_Key.space	Key.space	n/a
107.9225	0.0895	215845	keystroke_f	f	n/a
108.0235	0.0905	216047	keystroke_o	o	n/a
108.1025	0.0895	216205	keystroke_x	x	n/a
108.238	0.0665	216476	keystroke_Key.space	Key.space	n/a
108.316	0.1015	216632	keystroke_j	j	n/a
108.4965	0.067	216993	keystroke_u	u	n/a
108.688	0.101	217376	keystroke_m	m	n/a
108.766	0.09	217532	keystroke_p	p	n/a
108.901	0.09	217802	keystroke_s	s	n/a
108.9795	0.092	217959	keystroke_Key.space	Key.space	n/a
109.138	0.0555	218276	keystroke_o	o	n/a
109.239	0.0895	218478	keystroke_v	v	n/a
109.4075	0.1135	218815	keystroke_e	e	n/a
109.4745	0.09	218949	keystroke_r	r	n/a
109.565	0.1125	219130	keystroke_Key.space	Key.space	n/a
109.655	0.1015	219310	keystroke_a	a	n/a
109.801	0.079	219602	keystroke_Key.space	Key.space	n/a
109.925	0.0795	219850	keystroke_l	l	n/a
110.026	0.0675	220052	keystroke_a	a	n/a
110.172	0.079	220344	keystroke_z	z	n/a
110.274	0.0785	220548	keystroke_y	y	n/a
110.4425	0.0565	220885	keystroke_Key.space	Key.space	n/a
110.589	0.078	221178	keystroke_d	d	n/a
110.712	0.0675	221424	keystroke_o	o	n/a
110.9045	0.055	221809	keystroke_g	g	n/a
111.2635	0.057	222527	keystroke_Key.enter	Key.enter	n/a
111.328	7.924	222656	prompt	n/a	expansion assessing cambodia magical\n
112.0735	0.0565	224147	keystroke_e	e	n/a
112.231	0.079	224462	keystroke_x	x	n/a
112.344	0.0785	224688	keystroke_p	p	n/a
112.434	0.067	224868	keystroke_a	a	n/a
112.546	0.079	225092	keystroke_n	n	n/a
112.6375	0.067	225275	keystroke_s	s	n/a
112.7935	0.124	225587	keystroke_i	i	n/a
112.85	0.112	225700	keystroke_o	o	n/a
112.94	0.09	225880	keystroke_n	n	n/a
113.0075	0.067	226015	keystroke_Key.space	Key.space	n/a
113.2325	0.067	226465	keystroke_s	s	n/a
113.502	0.0455	227004	keystroke_Key.backspace	Key.backspace	n/a
113.682	0.0565	227364	keystroke_a	a	n/a
113.851	0.0565	227702	keystroke_s	s	n/a
113.997	0.079	227994	keystroke_s	s	n/a
114.2	0.0445	228400	keystroke_e	e	n/a
114.504	0.078	229008	keystroke_s	s	n/a
114.706	0.0565	229412	keystroke_s	s	n/a
114.9205	0.1005	229841	keystroke_i	i	n/a
115.077	0.101	230154	keystroke_n	n	n/a
115.1895	0.1015	230379	keystroke_g	g	n/a
115.257	0.079	230514	keystroke_Key.space	Key.space	n/a
115.4375	0.09	230875	keystroke_c	c	n/a
115.527	0.068	231054	keystroke_a	a	n/a
115.6175	0.1015	231235	keystroke_m	m	n/a
115.7525	0.068	231505	keystroke_b	b	n/a
115.8985	0.0905	231797	keystroke_o	o	n/a
116.0335	0.0675	232067	keystroke_d	d	n/a
116.146	0.0675	232292	keystroke_i	i	n/a
116.236	0.09	232472	keystroke_a	a	n/a
116.382	0.079	232764	keystroke_Key.space	Key.space	n/a
116.562	0.092	233124	keystroke_m	m	n/a
116.6525	0.09	233305	keystroke_a	a	n/a
116.731	0.0905	233462	keystroke_g	g	n/a
117.1805	0.0675	234361	keystroke_i	i	n/a
117.3385	0.0675	234677	keystroke_c	c	n/a
117.4735	0.0785	234947	keystroke_a	a	n/a
117.6085	0.0565	235217	keystroke_l	l	n/a
117.7885	0.067	235577	keystroke_Key.space	Key.space	n/a
118.1595	0.056	236319	keystroke_Key.backspace	Key.backspace	n/a
119.161	0.09	238322	keystroke_Key.enter	Key.enter	n/a
119.2585	6.8335	238517	prompt	n/a	challenged press waterproof measurement\n
119.8925	0.056	239785	keystroke_c	c	n/a
120.039	0.0785	240078	keystroke_h	h	n/a
120.174	0.045	240348	keystroke_a	a	n/a
120.286	0.056	240572	keystroke_l	l	n/a
120.41	0.0675	240820	keystroke_l	l	n/a
120.534	0.067	241068	keystroke_e	e	n/a
120.6235	0.0675	241247	keystroke_n	n	n/a
120.7705	0.1345	241541	keystroke_g	g	n/a
120.9045	0.0675	241809	keystroke_e	e	n/a
121.073	0.079	242146	keystroke_d	d	n/a
121.197	0.0905	242394	keystroke_Key.space	Key.space	n/a
121.355	0.1015	242710	keystroke_p	p	n/a
121.4895	0.079	242979	keystroke_r	r	n/a
121.7935	0.0675	243587	keystroke_e	e	n/a
121.985	0.045	243970	keystroke_s	s	n/a
122.1085	0.079	244217	keystroke_s	s	n/a
122.356	0.079	244712	keystroke_Key.space	Key.space	n/a
122.5705	0.0775	245141	keystroke_w	w	n/a
122.7045	0.124	245409	keystroke_a	a	n/a
122.806	0.101	245612	keystroke_t	t	n/a
122.997	0.0905	245994	keystroke_e	e	n/a
123.031	0.1015	246062	keystroke_r	r	n/a
123.234	0.0665	246468	keystroke_p	p	n/a
123.4585	0.067	246917	keystroke_r	r	n/a
123.616	0.056	247232	keystroke_o	o	n/a
123.7515	0.045	247503	keystroke_o	o	n/a
123.886	0.0455	247772	keystroke_f	f	n/a
124.156	0.0785	248312	keystroke_Key.space	Key.space	n/a
124.3925	0.09	248785	keystroke_m	m	n/a
124.471	0.0675	248942	keystroke_e	e	n/a
124.6175	0.1235	249235	keystroke_a	a	n/a
124.73	0.112	249460	keystroke_s	s	n/a
124.955	0.0785	249910	keystroke_u	u	n/a
125.0895	0.1355	250179	keystroke_r	r	n/a
125.191	0.1015	250382	keystroke_e	e	n/a
125.3255	0.09	250651	keystroke_m	m	n/a
125.4495	0.09	250899	keystroke_e	e	n/a
125.54	0.09	251080	keystroke_n	n	n/a
125.6745	0.0795	251349	keystroke_t	t	n/a
126.0345	0.0565	252069	keystroke_Key.enter	Key.enter	n/a
126.0975	4.855	252195	prompt	n/a	immigration usage charging indicate\n
126.732	0.09	253464	keystroke_i	i	n/a
126.833	0.0565	253666	keystroke_m	m	n/a
127.0025	0.068	254005	keystroke_m	m	n/a
127.1595	0.0565	254319	keystroke_i	i	n/a
127.3065	0.078	254613	keystroke_g	g	n/a
127.5085	0.09	255017	keystroke_r	r	n/a
127.655	0.1015	255310	keystroke_a	a	n/a
127.7225	0.101	255445	keystroke_t	t	n/a
127.8575	0.157	255715	keystroke_i	i	n/a
127.937	0.1225	255874	keystroke_o	o	n/a
128.026	0.101	256052	keystroke_n	n	n/a
128.1045	0.0905	256209	keystroke_Key.space	Key.space	n/a
128.2625	0.056	256525	keystroke_u	u	n/a
128.33	0.101	256660	keystroke_s	s	n/a
128.454	0.101	256908	keystroke_a	a	n/a
128.566	0.146	257132	keystroke_g	g	n/a
128.701	0.1125	257402	keystroke_e	e	n/a
128.802	0.0685	257604	keystroke_Key.space	Key.space	n/a
128.9595	0.079	257919	keystroke_c	c	n/a
129.0835	0.079	258167	keystroke_h	h	n/a
129.185	0.0785	258370	keystroke_a	a	n/a
129.2415	0.079	258483	keystroke_r	r	n/a
129.421	0.079	258842	keystroke_g	g	n/a
129.556	0.1125	259112	keystroke_i	i	n/a
129.6235	0.1015	259247	keystroke_n	n	n/a
129.7375	0.077	259475	keystroke_g	g	n/a
129.7925	0.0785	259585	keystroke_Key.space	Key.space	n/a
129.9275	0.1005	259855	keystroke_i	i	n/a
130.006	0.09	260012	keystroke_n	n	n/a
130.1075	0.078	260215	keystroke_d	d	n/a
130.2305	0.0795	260461	keystroke_i	i	n/a
130.321	0.0675	260642	keystroke_c	c	n/a
130.445	0.123	260890	keystroke_a	a	n/a
130.557	0.147	261114	keystroke_t	t	n/a
130.6705	0.078	261341	keystroke_e	e	n/a
130.895	0.0565	261790	keystroke_Key.enter	Key.enter	n/a
130.9585	7.847	261917	prompt	n/a	campaign grant finals importance\n
131.6935	0.056	263387	keystroke_c	c	n/a
131.84	0.0785	263680	keystroke_a	a	n/a
131.987	0.123	263974	keystroke_m	m	n/a
132.178	0.089	264356	keystroke_p	p	n/a
132.3235	0.079	264647	keystroke_a	a	n/a
132.537	0.0675	265074	keystroke_g	g	n/a
132.6835	0.0895	265367	keystroke_i	i	n/a
133.1445	0.045	266289	keystroke_Key.backspace	Key.backspace	n/a
133.268	0.069	266536	keystroke_Key.backspace	Key.backspace	n/a
133.482	0.079	266964	keystroke_i	i	n/a
133.6175	0.0675	267235	keystroke_g	g	n/a
133.741	0.0795	267482	keystroke_n	n	n/a
133.8535	0.0675	267707	keystroke_Key.space	Key.space	n/a
134.135	0.056	268270	keystroke_c	c	n/a
134.405	0.0225	268810	keystroke_Key.backspace	Key.backspace	n/a
135.058	0.056	270116	keystroke_g	g	n/a
135.239	0.077	270478	keystroke_r	r	n/a
135.339	0.0785	270678	keystroke_a	a	n/a
135.766	0.09	271532	keystroke_n	n	n/a
135.912	0.057	271824	keystroke_t	t	n/a
136.216	0.0675	272432	keystroke_Key.space	Key.space	n/a
136.666	0.056	273332	keystroke_f	f	n/a
136.756	0.124	273512	keystroke_i	i	n/a
136.835	0.112	273670	keystroke_n	n	n/a
136.959	0.078	273918	keystroke_a	a	n/a
137.0595	0.0675	274119	keystroke_l	l	n/a
137.1615	0.0785	274323	keystroke_s	s	n/a
137.2625	0.0785	274525	keystroke_Key.space	Key.space	n/a
137.387	0.1455	274774	keystroke_i	i	n/a
137.476	0.1795	274952	keystroke_m	m	n/a
137.611	0.1345	275222	keystroke_p	p	n/a
137.701	0.1125	275402	keystroke_o	o	n/a
137.837	0.067	275674	keystroke_r	r	n/a
137.993	0.0795	275986	keystroke_t	t	n/a
138.0835	0.09	276167	keystroke_a	a	n/a
138.1515	0.1115	276303	keystroke_n	n	n/a
138.3205	0.0895	276641	keystroke_c	c	n/a
138.5335	0.0335	277067	keystroke_e	e	n/a
138.737	0.067	277474	keystroke_Key.enter	Key.enter	n/a
138.8115	6.035	277623	prompt	n/a	colorado tags legally transexual\n
139.4	0.1005	278800	keystroke_c	c	n/a
139.4895	0.0785	278979	keystroke_o	o	n/a
139.67	0.045	279340	keystroke_l	l	n/a
139.8045	0.068	279609	keystroke_o	o	n/a
139.9625	0.0675	279925	keystroke_r	r	n/a
140.0635	0.067	280127	keystroke_a	a	n/a
140.2095	0.0675	280419	keystroke_d	d	n/a
140.3115	0.078	280623	keystroke_o	o	n/a
140.412	0.079	280824	keystroke_Key.space	Key.space	n/a
140.559	0.0785	281118	keystroke_t	t	n/a
140.66	0.101	281320	keystroke_a	a	n/a
140.772	0.079	281544	keystroke_g	g	n/a
140.8955	0.079	281791	keystroke_s	s	n/a
140.997	0.079	281994	keystroke_Key.space	Key.space	n/a
141.2225	0.0555	282445	keystroke_l	l	n/a
141.3235	0.0675	282647	keystroke_e	e	n/a
141.7175	0.0675	283435	keystroke_g	g	n/a
141.92	0.09	283840	keystroke_a	a	n/a
142.055	0.067	284110	keystroke_l	l	n/a
142.201	0.113	284402	keystroke_l	l	n/a
142.304	0.077	284608	keystroke_y	y	n/a
142.3925	0.0895	284785	keystroke_Key.space	Key.space	n/a
142.8985	0.0675	285797	keystroke_t	t	n/a
143.056	0.079	286112	keystroke_r	r	n/a
143.101	0.09	286202	keystroke_a	a	n/a
143.225	0.09	286450	keystroke_n	n	n/a
143.326	0.056	286652	keystroke_s	s	n/a
143.5285	0.045	287057	keystroke_e	e	n/a
143.697	0.0565	287394	keystroke_x	x	n/a
143.7875	0.09	287575	keystroke_u	u	n/a
143.922	0.079	287844	keystroke_a	a	n/a
144.0345	0.09	288069	keystroke_l	l	n/a
144.7885	0.0565	289577	keystroke_Key.enter	Key.enter	n/a
144.8545	6.989	289709	prompt	n/a	bulgaria holes rough quit\n
145.5085	0.1015	291017	keystroke_b	b	n/a
145.655	0.0785	291310	keystroke_u	u	n/a
145.8235	0.08	291647	keystroke_l	l	n/a
145.9245	0.09	291849	keystroke_g	g	n/a
146.093	0.113	292186	keystroke_a	a	n/a
146.161	0.09	292322	keystroke_r	r	n/a
146.33	0.057	292660	keystroke_i	i	n/a
146.408	0.0905	292816	keystroke_a	a	n/a
146.5325	0.0895	293065	keystroke_Key.space	Key.space	n/a
146.7235	0.1135	293447	keystroke_h	h	n/a
146.8705	0.0785	293741	keystroke_o	o	n/a
147.1175	0.0785	294235	keystroke_e	e	n/a
147.2745	0.079	294549	keystroke_l	l	n/a
147.545	0.056	295090	keystroke_Key.backspace	Key.backspace	n/a
147.669	0.068	295338	keystroke_Key.backspace	Key.backspace	n/a
147.893	0.0675	295786	keystroke_l	l	n/a
147.9945	0.057	295989	keystroke_e	e	n/a
148.1535	0.0665	296307	keystroke_s	s	n/a
148.872	0.0685	297744	keystroke_Key.space	Key.space	n/a
149.3675	0.0675	298735	keystroke_t	t	n/a
149.4915	0.101	298983	keystroke_o	o	n/a
149.5705	0.0785	299141	keystroke_u	u	n/a
149.7045	0.0565	299409	keystroke_g	g	n/a
149.817	0.0795	299634	keystroke_h	h	n/a
150.616	0.0785	301232	keystroke_Key.space	Key.space	n/a
150.9875	0.067	301975	keystroke_q	q	n/a
151.122	0.1125	302244	keystroke_u	u	n/a
151.201	0.1025	302402	keystroke_i	i	n/a
151.325	0.079	302650	keystroke_t	t	n/a
151.7865	0.056	303573	keystroke_Key.enter	Key.enter	n/a
151.8495	3.9765	303699	prompt	n/a	supreme lemon much adware\n
152.5965	0.067	305193	keystroke_s	s	n/a
152.7425	0.112	305485	keystroke_u	u	n/a
152.8215	0.101	305643	keystroke_p	p	n/a
152.967	0.124	305934	keystroke_r	r	n/a
153.046	0.101	306092	keystroke_e	e	n/a
153.181	0.09	306362	keystroke_m	m	n/a
153.2825	0.067	306565	keystroke_e	e	n/a
153.406	0.0905	306812	keystroke_Key.space	Key.space	n/a
153.519	0.0895	307038	keystroke_l	l	n/a
153.6205	0.089	307241	keystroke_e	e	n/a
153.7435	0.1235	307487	keystroke_m	m	n/a
153.845	0.124	307690	keystroke_o	o	n/a
153.9575	0.113	307915	keystroke_n	n	n/a
154.059	0.09	308118	keystroke_Key.space	Key.space	n/a
154.261	0.079	308522	keystroke_m	m	n/a
154.43	0.067	308860	keystroke_u	u	n/a
154.531	0.068	309062	keystroke_c	c	n/a
154.632	0.0795	309264	keystroke_h	h	n/a
154.722	0.0675	309444	keystroke_Key.space	Key.space	n/a
154.8235	0.0785	309647	keystroke_a	a	n/a
154.9475	0.09	309895	keystroke_d	d	n/a
155.116	0.1015	310232	keystroke_w	w	n/a
155.229	0.1245	310458	keystroke_a	a	n/a
155.3415	0.135	310683	keystroke_r	r	n/a
155.4315	0.112	310863	keystroke_e	e	n/a
155.769	0.056	311538	keystroke_Key.enter	Key.enter	n/a
155.8315	4.843	311663	prompt	n/a	performance lead extension stake\n
156.4215	0.0675	312843	keystroke_p	p	n/a
156.534	0.1125	313068	keystroke_e	e	n/a
156.601	0.0785	313202	keystroke_r	r	n/a
156.7705	0.0555	313541	keystroke_f	f	n/a
156.8825	0.067	313765	keystroke_o	o	n/a
156.9615	0.09	313923	keystroke_r	r	n/a
157.1535	0.0785	314307	keystroke_m	m	n/a
157.2315	0.101	314463	keystroke_a	a	n/a
157.3885	0.0785	314777	keystroke_n	n	n/a
157.49	0.0785	314980	keystroke_c	c	n/a
157.67	0.079	315340	keystroke_e	e	n/a
157.8385	0.0905	315677	keystroke_Key.space	Key.space	n/a
157.9625	0.091	315925	keystroke_l	l	n/a
158.0415	0.1005	316083	keystroke_e	e	n/a
158.12	0.0895	316240	keystroke_a	a	n/a
158.244	0.101	316488	keystroke_d	d	n/a
158.4235	0.0905	316847	keystroke_Key.space	Key.space	n/a
158.6375	0.067	317275	keystroke_e	e	n/a
158.806	0.0565	317612	keystroke_x	x	n/a
158.997	0.1015	317994	keystroke_t	t	n/a
159.087	0.0905	318174	keystroke_e	e	n/a
159.2	0.101	318400	keystroke_n	n	n/a
159.3235	0.0785	318647	keystroke_s	s	n/a
159.4475	0.1795	318895	keystroke_i	i	n/a
159.5375	0.1345	319075	keystroke_o	o	n/a
159.6385	0.101	319277	keystroke_n	n	n/a
159.7285	0.09	319457	keystroke_Key.space	Key.space	n/a
159.9535	0.1465	319907	keystroke_s	s	n/a
160.089	0.09	320178	keystroke_t	t	n/a
160.1785	0.1015	320357	keystroke_a	a	n/a
160.3255	0.101	320651	keystroke_k	k	n/a
160.4375	0.0785	320875	keystroke_e	e	n/a
160.595	0.0785	321190	keystroke_Key.enter	Key.enter	n/a
160.68	5.26	321360	prompt	n/a	twice contributions enter solely\n
161.225	0.079	322450	keystroke_t	t	n/a
161.517	0.1365	323034	keystroke_w	w	n/a
161.6975	0.0675	323395	keystroke_i	i	n/a
161.799	0.101	323598	keystroke_c	c	n/a
161.9895	0.079	323979	keystroke_e	e	n/a
162.069	0.078	324138	keystroke_Key.space	Key.space	n/a
162.249	0.079	324498	keystroke_c	c	n/a
162.339	0.1125	324678	keystroke_o	o	n/a
162.4175	0.1125	324835	keystroke_n	n	n/a
162.5075	0.067	325015	keystroke_t	t	n/a
162.6425	0.079	325285	keystroke_r	r	n/a
162.7325	0.0795	325465	keystroke_i	i	n/a
162.8675	0.079	325735	keystroke_b	b	n/a
162.935	0.079	325870	keystroke_u	u	n/a
163.059	0.0785	326118	keystroke_t	t	n/a
163.149	0.157	326298	keystroke_i	i	n/a
163.2275	0.1125	326455	keystroke_o	o	n/a
163.295	0.1015	326590	keystroke_n	n	n/a
163.3845	0.079	326769	keystroke_s	s	n/a
163.5655	0.0785	327131	keystroke_Key.space	Key.space	n/a
164.0375	0.0785	328075	keystroke_e	e	n/a
164.1275	0.09	328255	keystroke_n	n	n/a
164.2515	0.09	328503	keystroke_t	t	n/a
164.4205	0.134	328841	keystroke_e	e	n/a
164.4875	0.1015	328975	keystroke_r	r	n/a
164.69	0.09	329380	keystroke_Key.space	Key.space	n/a
164.825	0.0785	329650	keystroke_s	s	n/a
164.915	0.0785	329830	keystroke_o	o	n/a
165.0615	0.09	330123	keystroke_l	l	n/a
165.151	0.0675	330302	keystroke_e	e	n/a
165.354	0.1465	330708	keystroke_l	l	n/a
165.478	0.1005	330956	keystroke_y	y	n/a
165.8715	0.067	331743	keystroke_Key.enter	Key.enter	n/a
165.9465	5.5745	331893	prompt	n/a	sleeping boxes physicians kingston\n
166.5805	0.057	333161	keystroke_s	s	n/a
166.671	0.067	333342	keystroke_l	l	n/a
166.7715	0.056	333543	keystroke_e	e	n/a
166.929	0.0565	333858	keystroke_e	e	n/a
167.021	0.1335	334042	keystroke_p	p	n/a
167.121	0.168	334242	keystroke_i	i	n/a
167.244	0.1125	334488	keystroke_n	n	n/a
167.323	0.067	334646	keystroke_g	g	n/a
167.3675	0.0785	334735	keystroke_Key.space	Key.space	n/a
167.5135	0.0905	335027	keystroke_b	b	n/a
167.638	0.067	335276	keystroke_o	o	n/a
167.705	0.0675	335410	keystroke_x	x	n/a
167.9075	0.079	335815	keystroke_e	e	n/a
167.9975	0.101	335995	keystroke_s	s	n/a
168.1215	0.101	336243	keystroke_Key.space	Key.space	n/a
168.312	0.147	336624	keystroke_p	p	n/a
168.751	0.0905	337502	keystroke_h	h	n/a
168.954	0.0785	337908	keystroke_y	y	n/a
169.0885	0.09	338177	keystroke_s	s	n/a
169.27	0.0775	338540	keystroke_i	i	n/a
169.3705	0.067	338741	keystroke_c	c	n/a
169.539	0.067	339078	keystroke_i	i	n/a
169.6625	0.091	339325	keystroke_a	a	n/a
169.7975	0.0905	339595	keystroke_n	n	n/a
169.9105	0.0785	339821	keystroke_s	s	n/a
170.067	0.0795	340134	keystroke_Key.space	Key.space	n/a
170.2255	0.078	340451	keystroke_k	k	n/a
170.4045	0.102	340809	keystroke_i	i	n/a
170.4725	0.09	340945	keystroke_n	n	n/a
170.574	0.0795	341148	keystroke_g	g	n/a
170.754	0.079	341508	keystroke_s	s	n/a
170.9	0.09	341800	keystroke_t	t	n/a
171.0235	0.1355	342047	keystroke_o	o	n/a
171.137	0.112	342274	keystroke_n	n	n/a
171.4515	0.0685	342903	keystroke_Key.enter	Key.enter	n/a
171.5265	5.6745	343053	prompt	n/a	molecular vietnam cisco emily\n
172.126	0.09	344252	keystroke_m	m	n/a
172.1935	0.09	344387	keystroke_o	o	n/a
172.4075	0.0795	344815	keystroke_l	l	n/a
172.5205	0.056	345041	keystroke_e	e	n/a
172.6785	0.1005	345357	keystroke_c	c	n/a
172.8355	0.112	345671	keystroke_u	u	n/a
172.914	0.101	345828	keystroke_l	l	n/a
173.027	0.1235	346054	keystroke_a	a	n/a
173.1275	0.102	346255	keystroke_r	r	n/a
173.2405	0.0565	346481	keystroke_Key.space	Key.space	n/a
173.3875	0.0775	346775	keystroke_v	v	n/a
173.6	0.079	347200	keystroke_i	i	n/a
173.747	0.057	347494	keystroke_t	t	n/a
174.0615	0.0785	348123	keystroke_Key.backspace	Key.backspace	n/a
174.1735	0.057	348347	keystroke_e	e	n/a
174.3315	0.0675	348663	keystroke_t	t	n/a
174.4775	0.09	348955	keystroke_n	n	n/a
174.6015	0.0785	349203	keystroke_a	a	n/a
174.6915	0.079	349383	keystroke_m	m	n/a
175.1075	0.0565	350215	keystroke_Key.space	Key.space	n/a
175.524	0.08	351048	keystroke_c	c	n/a
175.6255	0.0675	351251	keystroke_i	i	n/a
175.738	0.056	351476	keystroke_s	s	n/a
175.8955	0.056	351791	keystroke_c	c	n/a
176.0535	0.055	352107	keystroke_o	o	n/a
176.199	0.0675	352398	keystroke_Key.space	Key.space	n/a
176.3785	0.068	352757	keystroke_e	e	n/a
176.5135	0.124	353027	keystroke_m	m	n/a
176.6265	0.135	353253	keystroke_i	i	n/a
176.7055	0.2025	353411	keystroke_l	l	n/a
176.874	0.09	353748	keystroke_y	y	n/a
177.122	0.078	354244	keystroke_Key.enter	Key.enter	n/a
177.2065	5.6655	354413	prompt	n/a	statement wise threads numbers\n
177.7175	0.0785	355435	keystroke_s	s	n/a
177.875	0.09	355750	keystroke_t	t	n/a
177.954	0.09	355908	keystroke_a	a	n/a
178.0325	0.1235	356065	keystroke_t	t	n/a
178.123	0.0895	356246	keystroke_e	e	n/a
178.2355	0.102	356471	keystroke_m	m	n/a
178.348	0.09	356696	keystroke_e	e	n/a
178.4825	0.0785	356965	keystroke_n	n	n/a
178.5725	0.09	357145	keystroke_t	t	n/a
178.6285	0.092	357257	keystroke_Key.space	Key.space	n/a
179.09	0.068	358180	keystroke_w	w	n/a
179.192	0.078	358384	keystroke_i	i	n/a
179.3155	0.067	358631	keystroke_e	e	n/a
179.4845	0.0895	358969	keystroke_s	s	n/a
179.9335	0.045	359867	keystroke_Key.backspace	Key.backspace	n/a
180.069	0.0565	360138	keystroke_Key.backspace	Key.backspace	n/a
180.193	0.135	360386	keystroke_s	s	n/a
180.339	0.079	360678	keystroke_e	e	n/a
180.4745	0.112	360949	keystroke_Key.space	Key.space	n/a
180.5975	0.0785	361195	keystroke_t	t	n/a
180.8115	0.0785	361623	keystroke_h	h	n/a
180.9915	0.1125	361983	keystroke_r	r	n/a
181.059	0.1235	362118	keystroke_e	e	n/a
181.16	0.1015	362320	keystroke_a	a	n/a
181.295	0.1015	362590	keystroke_d	d	n/a
181.4305	0.1125	362861	keystroke_s	s	n/a
181.5315	0.0785	363063	keystroke_Key.space	Key.space	n/a
181.6895	0.078	363379	keystroke_n	n	n/a
181.8685	0.0565	363737	keystroke_u	u	n/a
182.027	0.078	364054	keystroke_m	m	n/a
182.1385	0.102	364277	keystroke_b	b	n/a
182.32	0.1	364640	keystroke_e	e	n/a
182.375	0.09	364750	keystroke_r	r	n/a
182.51	0.09	365020	keystroke_s	s	n/a
182.825	0.0455	365650	keystroke_Key.enter	Key.enter	n/a
182.8775	6.16	365755	prompt	n/a	congressional portugal bible schedules\n
183.5345	0.0555	367069	keystroke_s	s	n/a
183.85	0.056	367700	keystroke_Key.backspace	Key.backspace	n/a
184.053	0.083	368106	keystroke_c	c	n/a
184.1465	0.1135	368293	keystroke_o	o	n/a
184.247	0.1145	368494	keystroke_n	n	n/a
184.393	0.0665	368786	keystroke_g	g	n/a
184.5485	0.091	369097	keystroke_r	r	n/a
184.6065	0.0895	369213	keystroke_e	e	n/a
184.796	0.0475	369592	keystroke_s	s	n/a
184.923	0.074	369846	keystroke_s	s	n/a
185.026	0.164	370052	keystroke_i	i	n/a
185.1145	0.1255	370229	keystroke_o	o	n/a
185.206	0.1075	370412	keystroke_n	n	n/a
185.28	0.089	370560	keystroke_a	a	n/a
185.4245	0.0865	370849	keystroke_l	l	n/a
185.515	0.0785	371030	keystroke_Key.space	Key.space	n/a
185.661	0.1345	371322	keystroke_p	p	n/a
185.912	0.0635	371824	keystroke_o	o	n/a
186.034	0.066	372068	keystroke_r	r	n/a
186.19	0.0665	372380	keystroke_t	t	n/a
186.29	0.09	372580	keystroke_u	u	n/a
186.5265	0.0785	373053	keystroke_g	g	n/a
186.6275	0.0905	373255	keystroke_a	a	n/a
186.774	0.079	373548	keystroke_l	l	n/a
186.8975	0.0675	373795	keystroke_Key.space	Key.space	n/a
187.055	0.079	374110	keystroke_b	b	n/a
187.145	0.079	374290	keystroke_i	i	n/a
187.2575	0.0795	374515	keystroke_b	b	n/a
187.382	0.078	374764	keystroke_l	l	n/a
187.494	0.0785	374988	keystroke_e	e	n/a
187.5835	0.079	375167	keystroke_Key.space	Key.space	n/a
187.685	0.079	375370	keystroke_s	s	n/a
187.876	0.079	375752	keystroke_c	c	n/a
187.9775	0.0785	375955	keystroke_h	h	n/a
188.079	0.067	376158	keystroke_e	e	n/a
188.225	0.1015	376450	keystroke_d	d	n/a
188.338	0.112	376676	keystroke_u	u	n/a
188.4275	0.1015	376855	keystroke_l	l	n/a
188.5965	0.112	377193	keystroke_e	e	n/a
188.6975	0.0905	377395	keystroke_s	s	n/a
188.979	0.0575	377958	keystroke_Key.enter	Key.enter	n/a
189.0425	5.686	378085	prompt	n/a	zope organization camp renew\n
189.6785	0.088	379357	keystroke_z	z	n/a
189.845	0.135	379690	keystroke_o	o	n/a
189.935	0.1125	379870	keystroke_p	p	n/a
190.104	0.09	380208	keystroke_e	e	n/a
190.205	0.0905	380410	keystroke_Key.space	Key.space	n/a
190.352	0.0785	380704	keystroke_o	o	n/a
190.4755	0.068	380951	keystroke_r	r	n/a
190.7005	0.0335	381401	keystroke_g	g	n/a
190.712	0.112	381424	keystroke_a	a	n/a
190.869	0.1125	381738	keystroke_n	n	n/a
190.937	0.09	381874	keystroke_i	i	n/a
191.06	0.079	382120	keystroke_z	z	n/a
191.2405	0.1015	382481	keystroke_a	a	n/a
191.308	0.0785	382616	keystroke_t	t	n/a
191.3975	0.135	382795	keystroke_i	i	n/a
191.454	0.1465	382908	keystroke_o	o	n/a
191.5665	0.101	383133	keystroke_n	n	n/a
191.679	0.091	383358	keystroke_a	a	n/a
191.8705	0.079	383741	keystroke_l	l	n/a
192.0165	0.0675	384033	keystroke_Key.space	Key.space	n/a
192.332	0.067	384664	keystroke_c	c	n/a
192.5	0.045	385000	keystroke_a	a	n/a
192.5565	0.147	385113	keystroke_m	m	n/a
192.67	0.1005	385340	keystroke_p	p	n/a
192.7925	0.079	385585	keystroke_Key.space	Key.space	n/a
193.1975	0.124	386395	keystroke_r	r	n/a
193.299	0.09	386598	keystroke_e	e	n/a
193.4675	0.1025	386935	keystroke_n	n	n/a
193.592	0.146	387184	keystroke_e	e	n/a
193.7045	0.1005	387409	keystroke_w	w	n/a
194.02	0.055	388040	keystroke_s	s	n/a
194.3345	0.0555	388669	keystroke_Key.backspace	Key.backspace	n/a
194.6825	0.045	389365	keystroke_Key.enter	Key.enter	n/a
194.7335	5.3175	389467	prompt	n/a	painful traveling paper sauce\n
195.538	0.1465	391076	keystroke_p	p	n/a
195.797	0.0785	391594	keystroke_a	a	n/a
195.909	0.135	391818	keystroke_i	i	n/a
195.9995	0.1125	391999	keystroke_n	n	n/a
196.483	0.0785	392966	keystroke_f	f	n/a
196.629	0.125	393258	keystroke_u	u	n/a
196.7755	0.101	393551	keystroke_l	l	n/a
196.9105	0.1015	393821	keystroke_Key.space	Key.space	n/a
197.0345	0.0895	394069	keystroke_t	t	n/a
197.192	0.1125	394384	keystroke_r	r	n/a
197.282	0.0785	394564	keystroke_a	a	n/a
197.462	0.079	394924	keystroke_v	v	n/a
197.587	0.077	395174	keystroke_e	e	n/a
197.709	0.169	395418	keystroke_l	l	n/a
197.856	0.1805	395712	keystroke_i	i	n/a
197.979	0.135	395958	keystroke_n	n	n/a
198.1255	0.1235	396251	keystroke_g	g	n/a
198.2265	0.101	396453	keystroke_Key.space	Key.space	n/a
198.373	0.0785	396746	keystroke_p	p	n/a
198.429	0.101	396858	keystroke_a	a	n/a
198.5755	0.101	397151	keystroke_p	p	n/a
198.6875	0.1015	397375	keystroke_e	e	n/a
198.722	0.1005	397444	keystroke_r	r	n/a
198.8905	0.09	397781	keystroke_Key.space	Key.space	n/a
199.014	0.09	398028	keystroke_s	s	n/a
199.183	0.09	398366	keystroke_a	a	n/a
199.318	0.09	398636	keystroke_u	u	n/a
199.4205	0.0665	398841	keystroke_c	c	n/a
199.5885	0.067	399177	keystroke_e	e	n/a
199.9815	0.068	399963	keystroke_Key.enter	Key.enter	n/a
200.0575	8.7115	400115	prompt	n/a	present resume shirts designs\n
205.0895	0.0675	410179	keystroke_p	p	n/a
205.1905	0.1135	410381	keystroke_r	r	n/a
205.2585	0.101	410517	keystroke_e	e	n/a
205.3935	0.123	410787	keystroke_s	s	n/a
205.483	0.101	410966	keystroke_e	e	n/a
205.64	0.091	411280	keystroke_n	n	n/a
205.742	0.0795	411484	keystroke_t	t	n/a
205.809	0.0795	411618	keystroke_Key.space	Key.space	n/a
205.967	0.101	411934	keystroke_r	r	n/a
206.0235	0.0895	412047	keystroke_e	e	n/a
206.147	0.101	412294	keystroke_s	s	n/a
206.305	0.078	412610	keystroke_u	u	n/a
206.507	0.09	413014	keystroke_m	m	n/a
206.5745	0.0895	413149	keystroke_e	e	n/a
206.6535	0.0675	413307	keystroke_Key.space	Key.space	n/a
206.788	0.0785	413576	keystroke_s	s	n/a
206.9565	0.114	413913	keystroke_h	h	n/a
207.0365	0.1	414073	keystroke_i	i	n/a
207.182	0.0675	414364	keystroke_r	r	n/a
207.3395	0.0785	414679	keystroke_t	t	n/a
207.474	0.113	414948	keystroke_s	s	n/a
207.5755	0.0785	415151	keystroke_Key.space	Key.space	n/a
207.756	0.0675	415512	keystroke_d	d	n/a
207.913	0.091	415826	keystroke_e	e	n/a
207.992	0.101	415984	keystroke_s	s	n/a
208.15	0.0785	416300	keystroke_i	i	n/a
208.251	0.0675	416502	keystroke_g	g	n/a
208.3535	0.0665	416707	keystroke_n	n	n/a
208.4755	0.068	416951	keystroke_s	s	n/a
208.723	0.045	417446	keystroke_Key.enter	Key.enter	n/a
208.7745	4.6975	417549	prompt	n/a	henry average cord dimension\n
209.421	0.0785	418842	keystroke_h	h	n/a
209.5105	0.079	419021	keystroke_e	e	n/a
209.6235	0.0895	419247	keystroke_n	n	n/a
209.759	0.067	419518	keystroke_r	r	n/a
209.927	0.0785	419854	keystroke_y	y	n/a
210.028	0.0905	420056	keystroke_Key.space	Key.space	n/a
210.2085	0.0785	420417	keystroke_a	a	n/a
210.3885	0.09	420777	keystroke_v	v	n/a
210.568	0.136	421136	keystroke_e	e	n/a
210.647	0.091	421294	keystroke_r	r	n/a
210.782	0.1235	421564	keystroke_a	a	n/a
210.883	0.1125	421766	keystroke_g	g	n/a
211.0075	0.113	422015	keystroke_e	e	n/a
211.1205	0.0665	422241	keystroke_Key.space	Key.space	n/a
211.288	0.0785	422576	keystroke_c	c	n/a
211.39	0.0675	422780	keystroke_o	o	n/a
211.502	0.079	423004	keystroke_r	r	n/a
211.6935	0.0785	423387	keystroke_d	d	n/a
211.7605	0.079	423521	keystroke_Key.space	Key.space	n/a
211.9975	0.078	423995	keystroke_d	d	n/a
212.166	0.1575	424332	keystroke_i	i	n/a
212.278	0.1125	424556	keystroke_m	m	n/a
212.4475	0.067	424895	keystroke_e	e	n/a
212.548	0.101	425096	keystroke_n	n	n/a
212.672	0.079	425344	keystroke_s	s	n/a
212.7735	0.202	425547	keystroke_i	i	n/a
212.875	0.123	425750	keystroke_o	o	n/a
212.9545	0.134	425909	keystroke_n	n	n/a
213.404	0.067	426808	keystroke_Key.enter	Key.enter	n/a
213.48	5.1335	426960	prompt	n/a	nine sheriff label flashers\n
214.112	0.113	428224	keystroke_n	n	n/a
214.2135	0.1575	428427	keystroke_i	i	n/a
214.36	0.0895	428720	keystroke_n	n	n/a
214.4605	0.09	428921	keystroke_e	e	n/a
214.5395	0.09	429079	keystroke_Key.space	Key.space	n/a
214.855	0.0785	429710	keystroke_s	s	n/a
215.0685	0.1015	430137	keystroke_h	h	n/a
215.2255	0.068	430451	keystroke_e	e	n/a
215.372	0.079	430744	keystroke_r	r	n/a
215.53	0.0785	431060	keystroke_i	i	n/a
215.6645	0.0335	431329	keystroke_f	f	n/a
215.788	0.0675	431576	keystroke_f	f	n/a
215.9795	0.079	431959	keystroke_Key.space	Key.space	n/a
216.2605	0.09	432521	keystroke_l	l	n/a
216.362	0.0915	432724	keystroke_a	a	n/a
216.554	0.067	433108	keystroke_b	b	n/a
216.7	0.0785	433400	keystroke_e	e	n/a
216.8345	0.0675	433669	keystroke_l	l	n/a
216.9245	0.09	433849	keystroke_Key.space	Key.space	n/a
217.206	0.0565	434412	keystroke_f	f	n/a
217.3075	0.079	434615	keystroke_l	l	n/a
217.3975	0.078	434795	keystroke_a	a	n/a
217.544	0.078	435088	keystroke_s	s	n/a
217.656	0.067	435312	keystroke_h	h	n/a
217.768	0.113	435536	keystroke_e	e	n/a
217.837	0.078	435674	keystroke_r	r	n/a
218.0945	0.011	436189	keystroke_s	s	n/a
218.556	0.0565	437112	keystroke_Key.enter	Key.enter	n/a
218.618	11.189	437236	prompt	n/a	ruling penalty impressed star\n
219.2985	0.079	438597	keystroke_r	r	n/a
219.445	0.0895	438890	keystroke_u	u	n/a
219.591	0.113	439182	keystroke_l	l	n/a
219.782	0.146	439564	keystroke_i	i	n/a
219.872	0.113	439744	keystroke_n	n	n/a
219.9735	0.09	439947	keystroke_g	g	n/a
220.03	0.079	440060	keystroke_Key.space	Key.space	n/a
220.176	0.112	440352	keystroke_p	p	n/a
220.311	0.079	440622	keystroke_e	e	n/a
220.424	0.1005	440848	keystroke_n	n	n/a
220.5475	0.0675	441095	keystroke_t	t	n/a
220.6375	0.09	441275	keystroke_a	a	n/a
220.9535	0.055	441907	keystroke_Key.backspace	Key.backspace	n/a
221.076	0.056	442152	keystroke_Key.backspace	Key.backspace	n/a
221.1775	0.067	442355	keystroke_a	a	n/a
221.3015	0.067	442603	keystroke_l	l	n/a
221.402	0.0685	442804	keystroke_t	t	n/a
221.537	0.079	443074	keystroke_y	y	n/a
221.7515	0.0785	443503	keystroke_Key.space	Key.space	n/a
226.7015	0.0565	453403	keystroke_Key.backspace	Key.backspace	n/a
227.4215	0.056	454843	keystroke_Key.space	Key.space	n/a
227.6685	0.102	455337	keystroke_i	i	n/a
227.737	0.1675	455474	keystroke_m	m	n/a
227.8935	0.0675	455787	keystroke_p	p	n/a
228.074	0.1005	456148	keystroke_r	r	n/a
228.13	0.1015	456260	keystroke_e	e	n/a
228.344	0.056	456688	keystroke_s	s	n/a
228.479	0.1345	456958	keystroke_s	s	n/a
228.5685	0.1015	457137	keystroke_e	e	n/a
228.7485	0.0905	457497	keystroke_d	d	n/a
228.861	0.0905	457722	keystroke_Key.space	Key.space	n/a
229.008	0.1345	458016	keystroke_s	s	n/a
229.1425	0.0895	458285	keystroke_t	t	n/a
229.266	0.113	458532	keystroke_a	a	n/a
229.334	0.09	458668	keystroke_r	r	n/a
229.75	0.056	459500	keystroke_Key.enter	Key.enter	n/a
229.812	6.5095	459624	prompt	n/a	borough closure spyware affect\n
230.481	0.079	460962	keystroke_b	b	n/a
230.6505	0.0675	461301	keystroke_o	o	n/a
230.7855	0.0785	461571	keystroke_r	r	n/a
231.0105	0.0895	462021	keystroke_o	o	n/a
231.3815	0.0905	462763	keystroke_u	u	n/a
231.517	0.0555	463034	keystroke_g	g	n/a
231.651	0.079	463302	keystroke_h	h	n/a
232.0905	0.078	464181	keystroke_Key.space	Key.space	n/a
232.2485	0.0885	464497	keystroke_c	c	n/a
232.36	0.056	464720	keystroke_l	l	n/a
232.506	0.068	465012	keystroke_o	o	n/a
232.6305	0.09	465261	keystroke_s	s	n/a
232.9005	0.0895	465801	keystroke_u	u	n/a
233.046	0.079	466092	keystroke_r	r	n/a
233.2155	0.0785	466431	keystroke_e	e	n/a
233.316	0.079	466632	keystroke_Key.space	Key.space	n/a
233.4515	0.079	466903	keystroke_s	s	n/a
233.5415	0.135	467083	keystroke_p	p	n/a
233.71	0.09	467420	keystroke_y	y	n/a
233.8455	0.068	467691	keystroke_a	a	n/a
234.1265	0.045	468253	keystroke_Key.backspace	Key.backspace	n/a
234.228	0.078	468456	keystroke_w	w	n/a
234.351	0.136	468702	keystroke_a	a	n/a
234.498	0.1345	468996	keystroke_r	r	n/a
234.6435	0.0905	469287	keystroke_e	e	n/a
234.7455	0.1015	469491	keystroke_Key.space	Key.space	n/a
235.049	0.0785	470098	keystroke_a	a	n/a
235.195	0.079	470390	keystroke_f	f	n/a
235.3415	0.1345	470683	keystroke_f	f	n/a
235.4315	0.101	470863	keystroke_e	e	n/a
235.645	0.0565	471290	keystroke_c	c	n/a
235.837	0.0555	471674	keystroke_t	t	n/a
236.264	0.0565	472528	keystroke_Key.enter	Key.enter	n/a
236.3265	17.096	472653	prompt	n/a	personalized seating joins immigrants\n
248.6395	0.0895	497279	keystroke_p	p	n/a
248.83	0.057	497660	keystroke_e	e	n/a
249.01	0.068	498020	keystroke_r	r	n/a
249.2015	0.0785	498403	keystroke_s	s	n/a
249.314	0.1125	498628	keystroke_o	o	n/a
249.3925	0.0905	498785	keystroke_n	n	n/a
249.4715	0.09	498943	keystroke_a	a	n/a
249.584	0.1235	499168	keystroke_l	l	n/a
249.6625	0.079	499325	keystroke_i	i	n/a
249.742	0.0895	499484	keystroke_z	z	n/a
249.8765	0.0785	499753	keystroke_e	e	n/a
250.0675	0.079	500135	keystroke_d	d	n/a
250.1355	0.112	500271	keystroke_Key.space	Key.space	n/a
250.259	0.124	500518	keystroke_s	s	n/a
250.3605	0.112	500721	keystroke_e	e	n/a
250.495	0.124	500990	keystroke_a	a	n/a
250.5965	0.091	501193	keystroke_t	t	n/a
250.744	0.123	501488	keystroke_i	i	n/a
250.844	0.09	501688	keystroke_n	n	n/a
250.9115	0.101	501823	keystroke_g	g	n/a
250.979	0.09	501958	keystroke_Key.space	Key.space	n/a
251.182	0.101	502364	keystroke_j	j	n/a
251.3055	0.1465	502611	keystroke_o	o	n/a
251.407	0.147	502814	keystroke_i	i	n/a
251.5205	0.111	503041	keystroke_n	n	n/a
251.6545	0.067	503309	keystroke_s	s	n/a
251.7895	0.0895	503579	keystroke_Key.space	Key.space	n/a
251.925	0.112	503850	keystroke_i	i	n/a
252.004	0.078	504008	keystroke_m	m	n/a
252.1495	0.1455	504299	keystroke_m	m	n/a
252.284	0.0675	504568	keystroke_i	i	n/a
252.42	0.0775	504840	keystroke_g	g	n/a
252.5875	0.091	505175	keystroke_r	r	n/a
252.6895	0.112	505379	keystroke_a	a	n/a
252.847	0.09	505694	keystroke_n	n	n/a
252.9475	0.0675	505895	keystroke_t	t	n/a
253.0945	0.0675	506189	keystroke_s	s	n/a
253.3645	0.057	506729	keystroke_Key.enter	Key.enter	n/a
253.4275	7.9485	506855	prompt	n/a	surrounding barnes airports plug\n
256.3805	0.091	512761	keystroke_s	s	n/a
256.583	0.068	513166	keystroke_u	u	n/a
256.706	0.053	513412	keystroke_r	r	n/a
256.8445	0.058	513689	keystroke_r	r	n/a
256.9475	0.109	513895	keystroke_o	o	n/a
257.0225	0.0885	514045	keystroke_u	u	n/a
257.225	0.077	514450	keystroke_n	n	n/a
257.325	0.0805	514650	keystroke_d	d	n/a
257.449	0.0785	514898	keystroke_i	i	n/a
257.494	0.101	514988	keystroke_n	n	n/a
257.5635	0.088	515127	keystroke_g	g	n/a
257.629	0.0895	515258	keystroke_Key.space	Key.space	n/a
257.9775	0.0785	515955	keystroke_b	b	n/a
258.112	0.135	516224	keystroke_a	a	n/a
258.2045	0.087	516409	keystroke_r	r	n/a
258.3705	0.1015	516741	keystroke_n	n	n/a
258.4945	0.067	516989	keystroke_e	e	n/a
258.584	0.101	517168	keystroke_s	s	n/a
258.7535	0.0895	517507	keystroke_Key.space	Key.space	n/a
258.899	0.079	517798	keystroke_a	a	n/a
259.0455	0.09	518091	keystroke_i	i	n/a
259.1705	0.0775	518341	keystroke_r	r	n/a
259.3605	0.146	518721	keystroke_p	p	n/a
259.552	0.09	519104	keystroke_o	o	n/a
259.698	0.0785	519396	keystroke_r	r	n/a
259.8665	0.0675	519733	keystroke_t	t	n/a
260.025	0.0785	520050	keystroke_s	s	n/a
260.114	0.079	520228	keystroke_Key.space	Key.space	n/a
260.3955	0.169	520791	keystroke_p	p	n/a
260.5645	0.123	521129	keystroke_l	l	n/a
260.6765	0.0905	521353	keystroke_u	u	n/a
260.778	0.079	521556	keystroke_g	g	n/a
260.9245	0.0895	521849	keystroke_s	s	n/a
261.329	0.045	522658	keystroke_Key.enter	Key.enter	n/a
261.381	6.8005	522762	prompt	n/a	pdas announce failures glasses\n
262.7805	0.079	525561	keystroke_p	p	n/a
262.972	0.0565	525944	keystroke_d	d	n/a
263.084	0.09	526168	keystroke_a	a	n/a
263.2755	0.068	526551	keystroke_s	s	n/a
263.4445	0.079	526889	keystroke_Key.space	Key.space	n/a
263.602	0.0785	527204	keystroke_a	a	n/a
263.9285	0.078	527857	keystroke_n	n	n/a
264.108	0.1015	528216	keystroke_n	n	n/a
264.3215	0.135	528643	keystroke_o	o	n/a
264.423	0.103	528846	keystroke_u	u	n/a
264.6255	0.09	529251	keystroke_n	n	n/a
264.772	0.079	529544	keystroke_c	c	n/a
264.9405	0.0675	529881	keystroke_e	e	n/a
265.0645	0.079	530129	keystroke_Key.space	Key.space	n/a
265.188	0.079	530376	keystroke_f	f	n/a
265.3345	0.1025	530669	keystroke_a	a	n/a
265.5035	0.168	531007	keystroke_i	i	n/a
265.6155	0.135	531231	keystroke_l	l	n/a
265.8065	0.1155	531613	keystroke_u	u	n/a
266.0435	0.0785	532087	keystroke_r	r	n/a
266.2455	0.056	532491	keystroke_e	e	n/a
266.392	0.067	532784	keystroke_s	s	n/a
266.5265	0.0675	533053	keystroke_Key.space	Key.space	n/a
266.842	0.0455	533684	keystroke_g	g	n/a
267.0105	0.056	534021	keystroke_l	l	n/a
267.1115	0.079	534223	keystroke_a	a	n/a
267.337	0.0675	534674	keystroke_s	s	n/a
267.5175	0.0555	535035	keystroke_s	s	n/a
267.697	0.0675	535394	keystroke_e	e	n/a
267.81	0.078	535620	keystroke_s	s	n/a
268.1255	0.055	536251	keystroke_Key.enter	Key.enter	n/a
268.1865	3.7525	536373	prompt	n/a	contrary pasta seas anger\n
268.8665	0.079	537733	keystroke_c	c	n/a
268.957	0.102	537914	keystroke_o	o	n/a
269.1045	0.1	538209	keystroke_n	n	n/a
269.227	0.0675	538454	keystroke_t	t	n/a
269.384	0.0875	538768	keystroke_r	r	n/a
269.452	0.131	538904	keystroke_a	a	n/a
269.554	0.078	539108	keystroke_r	r	n/a
269.699	0.0905	539398	keystroke_y	y	n/a
269.801	0.0895	539602	keystroke_Key.space	Key.space	n/a
269.9805	0.068	539961	keystroke_p	p	n/a
270.0595	0.0785	540119	keystroke_a	a	n/a
270.2285	0.0895	540457	keystroke_s	s	n/a
270.2845	0.1025	540569	keystroke_t	t	n/a
270.397	0.0905	540794	keystroke_a	a	n/a
270.5325	0.0665	541065	keystroke_Key.space	Key.space	n/a
270.633	0.1125	541266	keystroke_s	s	n/a
270.7345	0.09	541469	keystroke_e	e	n/a
270.8465	0.1355	541693	keystroke_a	a	n/a
270.9255	0.113	541851	keystroke_s	s	n/a
271.0835	0.078	542167	keystroke_Key.space	Key.space	n/a
271.1955	0.092	542391	keystroke_a	a	n/a
271.297	0.101	542594	keystroke_n	n	n/a
271.4095	0.09	542819	keystroke_g	g	n/a
271.5675	0.1345	543135	keystroke_e	e	n/a
271.657	0.09	543314	keystroke_r	r	n/a
271.8715	0.067	543743	keystroke_Key.enter	Key.enter	n/a
271.944	6.0605	543888	prompt	n/a	curve amplifier afghanistan tension\n
272.5005	0.0905	545001	keystroke_c	c	n/a
272.658	0.079	545316	keystroke_u	u	n/a
272.7705	0.0675	545541	keystroke_r	r	n/a
272.962	0.1125	545924	keystroke_v	v	n/a
273.0635	0.124	546127	keystroke_e	e	n/a
273.165	0.123	546330	keystroke_Key.space	Key.space	n/a
273.256	0.077	546512	keystroke_a	a	n/a
273.412	0.1685	546824	keystroke_m	m	n/a
273.5705	0.1005	547141	keystroke_p	p	n/a
273.5915	0.1695	547183	keystroke_l	l	n/a
273.727	0.1015	547454	keystroke_i	i	n/a
273.8395	0.09	547679	keystroke_f	f	n/a
273.952	0.0785	547904	keystroke_i	i	n/a
274.087	0.146	548174	keystroke_e	e	n/a
274.222	0.1125	548444	keystroke_r	r	n/a
274.3685	0.09	548737	keystroke_Key.space	Key.space	n/a
274.5595	0.1465	549119	keystroke_a	a	n/a
274.717	0.101	549434	keystroke_f	f	n/a
274.942	0.079	549884	keystroke_g	g	n/a
275.1105	0.101	550221	keystroke_h	h	n/a
275.2455	0.0915	550491	keystroke_a	a	n/a
275.4145	0.1015	550829	keystroke_n	n	n/a
275.673	0.0905	551346	keystroke_i	i	n/a
275.8645	0.101	551729	keystroke_s	s	n/a
275.9555	0.0895	551911	keystroke_t	t	n/a
276.045	0.0785	552090	keystroke_a	a	n/a
276.191	0.113	552382	keystroke_n	n	n/a
276.473	0.066	552946	keystroke_Key.space	Key.space	n/a
276.663	0.0915	553326	keystroke_t	t	n/a
276.754	0.0895	553508	keystroke_e	e	n/a
276.877	0.0905	553754	keystroke_n	n	n/a
277.012	0.0675	554024	keystroke_s	s	n/a
277.1025	0.1795	554205	keystroke_i	i	n/a
277.2145	0.135	554429	keystroke_o	o	n/a
277.316	0.101	554632	keystroke_n	n	n/a
277.946	0.0565	555892	keystroke_Key.enter	Key.enter	n/a
278.0095	4.82	556019	prompt	n/a	induced upload jamaica stripes\n
278.6095	0.1125	557219	keystroke_i	i	n/a
278.677	0.1015	557354	keystroke_n	n	n/a
278.7905	0.067	557581	keystroke_d	d	n/a
278.925	0.067	557850	keystroke_u	u	n/a
279.037	0.09	558074	keystroke_c	c	n/a
279.24	0.0555	558480	keystroke_e	e	n/a
279.4085	0.1015	558817	keystroke_d	d	n/a
279.476	0.101	558952	keystroke_Key.space	Key.space	n/a
279.6675	0.157	559335	keystroke_u	u	n/a
279.7795	0.125	559559	keystroke_p	p	n/a
279.8705	0.101	559741	keystroke_l	l	n/a
280.061	0.056	560122	keystroke_o	o	n/a
280.1515	0.112	560303	keystroke_a	a	n/a
280.2525	0.112	560505	keystroke_d	d	n/a
280.3305	0.09	560661	keystroke_Key.space	Key.space	n/a
280.522	0.068	561044	keystroke_j	j	n/a
280.59	0.078	561180	keystroke_a	a	n/a
280.7475	0.09	561495	keystroke_m	m	n/a
280.86	0.09	561720	keystroke_a	a	n/a
281.017	0.0785	562034	keystroke_i	i	n/a
281.141	0.0565	562282	keystroke_c	c	n/a
281.2875	0.0675	562575	keystroke_a	a	n/a
281.4675	0.079	562935	keystroke_Key.space	Key.space	n/a
281.6245	0.124	563249	keystroke_s	s	n/a
281.7255	0.0905	563451	keystroke_t	t	n/a
281.9175	0.078	563835	keystroke_r	r	n/a
282.041	0.1465	564082	keystroke_i	i	n/a
282.176	0.0565	564352	keystroke_p	p	n/a
282.288	0.158	564576	keystroke_e	e	n/a
282.4235	0.0895	564847	keystroke_s	s	n/a
282.75	0.0785	565500	keystroke_Key.enter	Key.enter	n/a
282.835	6.126	565670	prompt	n/a	bikini harassment responded compute\n
283.537	0.068	567074	keystroke_b	b	n/a
283.6275	0.0785	567255	keystroke_i	i	n/a
283.841	0.057	567682	keystroke_k	k	n/a
283.976	0.146	567952	keystroke_i	i	n/a
284.0995	0.1575	568199	keystroke_n	n	n/a
284.268	0.0905	568536	keystroke_i	i	n/a
284.4145	0.09	568829	keystroke_Key.space	Key.space	n/a
284.6285	0.1015	569257	keystroke_b	b	n/a
284.876	0.067	569752	keystroke_Key.backspace	Key.backspace	n/a
285.067	0.0905	570134	keystroke_h	h	n/a
285.18	0.146	570360	keystroke_a	a	n/a
285.315	0.1015	570630	keystroke_r	r	n/a
285.4165	0.078	570833	keystroke_a	a	n/a
285.664	0.0785	571328	keystroke_s	s	n/a
285.8215	0.0895	571643	keystroke_s	s	n/a
285.9565	0.101	571913	keystroke_m	m	n/a
286.1025	0.0685	572205	keystroke_e	e	n/a
286.192	0.1015	572384	keystroke_n	n	n/a
286.327	0.079	572654	keystroke_t	t	n/a
286.44	0.056	572880	keystroke_Key.space	Key.space	n/a
286.5745	0.1015	573149	keystroke_r	r	n/a
286.811	0.045	573622	keystroke_e	e	n/a
286.9125	0.0785	573825	keystroke_s	s	n/a
287.059	0.1235	574118	keystroke_p	p	n/a
287.138	0.1235	574276	keystroke_o	o	n/a
287.2495	0.102	574499	keystroke_n	n	n/a
287.3405	0.067	574681	keystroke_d	d	n/a
287.4975	0.0565	574995	keystroke_e	e	n/a
287.655	0.0785	575310	keystroke_d	d	n/a
287.7225	0.0785	575445	keystroke_Key.space	Key.space	n/a
287.891	0.079	575782	keystroke_c	c	n/a
287.981	0.1235	575962	keystroke_o	o	n/a
288.0595	0.1355	576119	keystroke_m	m	n/a
288.229	0.135	576458	keystroke_p	p	n/a
288.3185	0.1015	576637	keystroke_u	u	n/a
288.454	0.123	576908	keystroke_t	t	n/a
288.555	0.112	577110	keystroke_e	e	n/a
288.892	0.068	577784	keystroke_Key.enter	Key.enter	n/a
288.9655	5.767	577931	prompt	n/a	myanmar symbol around carolina\n
289.5565	0.101	579113	keystroke_m	m	n/a
289.669	0.1015	579338	keystroke_a	a	n/a
289.9945	0.0675	579989	keystroke_Key.backspace	Key.backspace	n/a
290.2205	0.0785	580441	keystroke_y	y	n/a
290.321	0.1125	580642	keystroke_a	a	n/a
290.5125	0.067	581025	keystroke_n	n	n/a
290.9735	0.0905	581947	keystroke_m	m	n/a
291.199	0.112	582398	keystroke_a	a	n/a
291.4235	0.09	582847	keystroke_r	r	n/a
291.5475	0.0785	583095	keystroke_Key.space	Key.space	n/a
291.7165	0.0785	583433	keystroke_s	s	n/a
291.8285	0.0785	583657	keystroke_y	y	n/a
292.031	0.1015	584062	keystroke_m	m	n/a
292.155	0.0785	584310	keystroke_b	b	n/a
292.2445	0.068	584489	keystroke_o	o	n/a
292.4035	0.0775	584807	keystroke_l	l	n/a
292.5035	0.09	585007	keystroke_Key.space	Key.space	n/a
292.6385	0.124	585277	keystroke_a	a	n/a
292.7395	0.0905	585479	keystroke_r	r	n/a
292.887	0.1345	585774	keystroke_o	o	n/a
292.9765	0.1005	585953	keystroke_u	u	n/a
293.1895	0.0905	586379	keystroke_n	n	n/a
293.291	0.09	586582	keystroke_d	d	n/a
293.3475	0.0785	586695	keystroke_Key.space	Key.space	n/a
293.505	0.079	587010	keystroke_c	c	n/a
293.6175	0.136	587235	keystroke_a	a	n/a
293.7185	0.0785	587437	keystroke_r	r	n/a
293.842	0.068	587684	keystroke_o	o	n/a
294.0335	0.124	588067	keystroke_l	l	n/a
294.113	0.168	588226	keystroke_i	i	n/a
294.2375	0.1225	588475	keystroke_n	n	n/a
294.3715	0.0895	588743	keystroke_a	a	n/a
294.675	0.0565	589350	keystroke_Key.enter	Key.enter	n/a
294.7375	5.204	589475	prompt	n/a	mileage madness remaining sunset\n
295.3955	0.1005	590791	keystroke_m	m	n/a
295.4735	0.169	590947	keystroke_i	i	n/a
295.609	0.123	591218	keystroke_l	l	n/a
295.7775	0.067	591555	keystroke_e	e	n/a
295.9125	0.1345	591825	keystroke_a	a	n/a
296.059	0.101	592118	keystroke_g	g	n/a
296.239	0.1005	592478	keystroke_e	e	n/a
296.318	0.089	592636	keystroke_Key.space	Key.space	n/a
296.5085	0.079	593017	keystroke_m	m	n/a
296.61	0.067	593220	keystroke_a	a	n/a
296.734	0.101	593468	keystroke_d	d	n/a
296.937	0.0775	593874	keystroke_n	n	n/a
297.0485	0.056	594097	keystroke_e	e	n/a
297.207	0.0665	594414	keystroke_s	s	n/a
297.3535	0.089	594707	keystroke_s	s	n/a
297.4315	0.1125	594863	keystroke_Key.space	Key.space	n/a
297.6	0.1125	595200	keystroke_r	r	n/a
297.656	0.1015	595312	keystroke_e	e	n/a
297.804	0.1105	595608	keystroke_m	m	n/a
298.016	0.0785	596032	keystroke_a	a	n/a
298.2525	0.1575	596505	keystroke_i	i	n/a
298.421	0.1355	596842	keystroke_n	n	n/a
298.579	0.1125	597158	keystroke_i	i	n/a
298.669	0.1235	597338	keystroke_n	n	n/a
298.7815	0.1005	597563	keystroke_g	g	n/a
298.8715	0.078	597743	keystroke_Key.space	Key.space	n/a
298.9615	0.09	597923	keystroke_s	s	n/a
299.0735	0.068	598147	keystroke_u	u	n/a
299.243	0.1005	598486	keystroke_n	n	n/a
299.3885	0.158	598777	keystroke_s	s	n/a
299.546	0.1245	599092	keystroke_e	e	n/a
299.625	0.09	599250	keystroke_t	t	n/a
299.884	0.0565	599768	keystroke_Key.enter	Key.enter	n/a
299.9475	4.6175	599895	prompt	n/a	orange membership producers flow\n
300.48	0.079	600960	keystroke_o	o	n/a
300.6035	0.079	601207	keystroke_r	r	n/a
300.7055	0.0895	601411	keystroke_a	a	n/a
300.851	0.0785	601702	keystroke_n	n	n/a
300.941	0.1015	601882	keystroke_g	g	n/a
301.054	0.112	602108	keystroke_e	e	n/a
301.144	0.0785	602288	keystroke_Key.space	Key.space	n/a
301.245	0.079	602490	keystroke_m	m	n/a
301.3355	0.0785	602671	keystroke_e	e	n/a
301.4585	0.079	602917	keystroke_m	m	n/a
301.5375	0.112	603075	keystroke_b	b	n/a
301.7405	0.113	603481	keystroke_e	e	n/a
301.8185	0.0685	603637	keystroke_r	r	n/a
301.9425	0.079	603885	keystroke_s	s	n/a
302.1	0.135	604200	keystroke_h	h	n/a
302.1785	0.1355	604357	keystroke_i	i	n/a
302.27	0.134	604540	keystroke_p	p	n/a
302.4265	0.0785	604853	keystroke_Key.space	Key.space	n/a
302.5615	0.101	605123	keystroke_p	p	n/a
302.674	0.067	605348	keystroke_r	r	n/a
302.775	0.0785	605550	keystroke_o	o	n/a
302.8875	0.067	605775	keystroke_d	d	n/a
302.9775	0.0785	605955	keystroke_u	u	n/a
303.0785	0.09	606157	keystroke_c	c	n/a
303.2475	0.1235	606495	keystroke_e	e	n/a
303.3265	0.0785	606653	keystroke_r	r	n/a
303.4615	0.09	606923	keystroke_s	s	n/a
303.5625	0.079	607125	keystroke_Key.space	Key.space	n/a
303.698	0.0785	607396	keystroke_f	f	n/a
303.7875	0.0565	607575	keystroke_l	l	n/a
303.9225	0.0675	607845	keystroke_o	o	n/a
304.0235	0.0565	608047	keystroke_w	w	n/a
304.519	0.045	609038	keystroke_Key.enter	Key.enter	n/a
304.572	4.831	609144	prompt	n/a	chinese paint notifications prayer\n
305.3405	0.067	610681	keystroke_c	c	n/a
305.4535	0.1005	610907	keystroke_h	h	n/a
305.644	0.1125	611288	keystroke_i	i	n/a
305.7225	0.1125	611445	keystroke_n	n	n/a
305.8465	0.0785	611693	keystroke_e	e	n/a
305.9585	0.1125	611917	keystroke_s	s	n/a
306.015	0.1125	612030	keystroke_e	e	n/a
306.1275	0.1015	612255	keystroke_Key.space	Key.space	n/a
306.2735	0.124	612547	keystroke_p	p	n/a
306.387	0.0785	612774	keystroke_a	a	n/a
306.499	0.124	612998	keystroke_i	i	n/a
306.568	0.122	613136	keystroke_n	n	n/a
306.6675	0.104	613335	keystroke_t	t	n/a
306.747	0.078	613494	keystroke_Key.space	Key.space	n/a
307.028	0.124	614056	keystroke_n	n	n/a
307.13	0.112	614260	keystroke_o	o	n/a
307.289	0.0765	614578	keystroke_t	t	n/a
307.4105	0.056	614821	keystroke_i	i	n/a
307.49	0.098	614980	keystroke_f	f	n/a
307.6165	0.0925	615233	keystroke_i	i	n/a
307.7375	0.063	615475	keystroke_c	c	n/a
307.814	0.149	615628	keystroke_a	a	n/a
307.9435	0.0785	615887	keystroke_t	t	n/a
308.015	0.116	616030	keystroke_i	i	n/a
308.079	0.1455	616158	keystroke_o	o	n/a
308.174	0.092	616348	keystroke_n	n	n/a
308.232	0.1015	616464	keystroke_s	s	n/a
308.369	0.066	616738	keystroke_Key.space	Key.space	n/a
308.4685	0.112	616937	keystroke_p	p	n/a
308.558	0.0905	617116	keystroke_r	r	n/a
308.6595	0.09	617319	keystroke_a	a	n/a
308.806	0.09	617612	keystroke_y	y	n/a
308.9345	0.107	617869	keystroke_e	e	n/a
308.9965	0.091	617993	keystroke_r	r	n/a
309.3225	0.079	618645	keystroke_Key.enter	Key.enter	n/a
309.4085	4.168	618817	prompt	n/a	mold books supervision ralph\n
310.0205	0.101	620041	keystroke_m	m	n/a
310.088	0.078	620176	keystroke_o	o	n/a
310.2905	0.067	620581	keystroke_l	l	n/a
310.3805	0.1005	620761	keystroke_d	d	n/a
310.4475	0.079	620895	keystroke_Key.space	Key.space	n/a
310.639	0.079	621278	keystroke_b	b	n/a
310.8415	0.0455	621683	keystroke_o	o	n/a
310.988	0.124	621976	keystroke_o	o	n/a
311.0775	0.101	622155	keystroke_k	k	n/a
311.19	0.0805	622380	keystroke_s	s	n/a
311.2705	0.0885	622541	keystroke_Key.space	Key.space	n/a
311.4605	0.056	622921	keystroke_s	s	n/a
311.573	0.0895	623146	keystroke_u	u	n/a
311.618	0.1015	623236	keystroke_p	p	n/a
311.7195	0.101	623439	keystroke_e	e	n/a
311.787	0.067	623574	keystroke_r	r	n/a
311.966	0.0795	623932	keystroke_v	v	n/a
312.0565	0.079	624113	keystroke_i	i	n/a
312.158	0.0795	624316	keystroke_s	s	n/a
312.2475	0.135	624495	keystroke_i	i	n/a
312.304	0.124	624608	keystroke_o	o	n/a
312.3825	0.101	624765	keystroke_n	n	n/a
312.439	0.101	624878	keystroke_Key.space	Key.space	n/a
312.5735	0.091	625147	keystroke_r	r	n/a
312.664	0.101	625328	keystroke_a	a	n/a
312.788	0.0895	625576	keystroke_l	l	n/a
312.9455	0.135	625891	keystroke_p	p	n/a
313.091	0.09	626182	keystroke_h	h	n/a
313.519	0.0565	627038	keystroke_Key.enter	Key.enter	n/a
313.5815	12.73	627163	prompt	n/a	broadway spoken greeting madagascar\n
315.6565	0.09	631313	keystroke_b	b	n/a
315.859	0.101	631718	keystroke_r	r	n/a
315.972	0.0785	631944	keystroke_a	a	n/a
316.0845	0.089	632169	keystroke_o	o	n/a
316.4105	0.045	632821	keystroke_Key.backspace	Key.backspace	n/a
316.5235	0.078	633047	keystroke_Key.backspace	Key.backspace	n/a
316.7375	0.0665	633475	keystroke_o	o	n/a
316.8265	0.1125	633653	keystroke_a	a	n/a
316.906	0.078	633812	keystroke_d	d	n/a
317.119	0.0565	634238	keystroke_w	w	n/a
317.3105	0.0895	634621	keystroke_a	a	n/a
317.4565	0.079	634913	keystroke_y	y	n/a
317.5575	0.0795	635115	keystroke_Key.space	Key.space	n/a
317.794	0.09	635588	keystroke_s	s	n/a
317.952	0.157	635904	keystroke_p	p	n/a
318.1205	0.112	636241	keystroke_o	o	n/a
318.437	0.055	636874	keystroke_e	e	n/a
318.7385	0.0565	637477	keystroke_Key.backspace	Key.backspace	n/a
318.9305	0.0785	637861	keystroke_k	k	n/a
319.032	0.067	638064	keystroke_e	e	n/a
319.1775	0.0905	638355	keystroke_n	n	n/a
319.2905	0.0895	638581	keystroke_Key.space	Key.space	n/a
319.504	0.079	639008	keystroke_g	g	n/a
319.6845	0.1005	639369	keystroke_r	r	n/a
319.7405	0.078	639481	keystroke_e	e	n/a
319.9315	0.0785	639863	keystroke_e	e	n/a
320.258	0.09	640516	keystroke_t	t	n/a
320.4495	0.112	640899	keystroke_i	i	n/a
320.5165	0.1125	641033	keystroke_n	n	n/a
320.6065	0.056	641213	keystroke_g	g	n/a
320.809	0.056	641618	keystroke_Key.space	Key.space	n/a
320.9665	0.079	641933	keystroke_m	m	n/a
321.0565	0.079	642113	keystroke_a	a	n/a
321.237	0.078	642474	keystroke_d	d	n/a
324.0825	0.079	648165	keystroke_a	a	n/a
324.544	0.0785	649088	keystroke_g	g	n/a
324.9265	0.09	649853	keystroke_a	a	n/a
325.129	0.0785	650258	keystroke_s	s	n/a
325.3545	0.0785	650709	keystroke_c	c	n/a
325.4555	0.101	650911	keystroke_a	a	n/a
325.692	0.0675	651384	keystroke_r	r	n/a
326.243	0.0675	652486	keystroke_Key.enter	Key.enter	n/a
326.316	39.663	652632	prompt	n/a	speaking garbage organizing picture\n
355.234	0.09	710468	keystroke_s	s	n/a
355.337	0.1	710674	keystroke_p	p	n/a
355.471	0.0895	710942	keystroke_e	e	n/a
355.5265	0.09	711053	keystroke_a	a	n/a
355.662	0.0675	711324	keystroke_k	k	n/a
355.8305	0.146	711661	keystroke_i	i	n/a
355.9205	0.135	711841	keystroke_n	n	n/a
356.0105	0.101	712021	keystroke_g	g	n/a
356.078	0.1015	712156	keystroke_Key.space	Key.space	n/a
356.663	0.1125	713326	keystroke_g	g	n/a
356.8205	0.1575	713641	keystroke_a	a	n/a
356.9895	0.0785	713979	keystroke_r	r	n/a
357.1915	0.1015	714383	keystroke_b	b	n/a
357.3265	0.102	714653	keystroke_a	a	n/a
357.439	0.0905	714878	keystroke_g	g	n/a
357.5965	0.102	715193	keystroke_e	e	n/a
357.6645	0.079	715329	keystroke_Key.space	Key.space	n/a
357.8335	0.0895	715667	keystroke_o	o	n/a
357.934	0.0675	715868	keystroke_r	r	n/a
358.1255	0.09	716251	keystroke_g	g	n/a
358.204	0.102	716408	keystroke_a	a	n/a
358.521	0.043	717042	keystroke_Key.backspace	Key.backspace	n/a
359.183	0.0785	718366	keystroke_a	a	n/a
359.363	0.124	718726	keystroke_n	n	n/a
359.442	0.09	718884	keystroke_i	i	n/a
359.5435	0.078	719087	keystroke_z	z	n/a
359.689	0.09	719378	keystroke_e	e	n/a
359.8355	0.0905	719671	keystroke_Key.space	Key.space	n/a
360.151	0.1345	720302	keystroke_p	p	n/a
360.308	0.1015	720616	keystroke_i	i	n/a
360.466	0.0895	720932	keystroke_c	c	n/a
360.6575	0.0795	721315	keystroke_t	t	n/a
360.7925	0.0895	721585	keystroke_u	u	n/a
360.8815	0.135	721763	keystroke_r	r	n/a
360.9605	0.09	721921	keystroke_e	e	n/a
362.7715	0.057	725543	keystroke_Key.backspace	Key.backspace	n/a
362.9295	0.0445	725859	keystroke_Key.backspace	Key.backspace	n/a
363.0535	0.0675	726107	keystroke_Key.backspace	Key.backspace	n/a
363.211	0.0555	726422	keystroke_Key.backspace	Key.backspace	n/a
363.3455	0.079	726691	keystroke_Key.backspace	Key.backspace	n/a
363.5145	0.056	727029	keystroke_Key.backspace	Key.backspace	n/a
363.6715	0.057	727343	keystroke_Key.backspace	Key.backspace	n/a
363.852	0.056	727704	keystroke_Key.backspace	Key.backspace	n/a
364.0545	0.057	728109	keystroke_Key.backspace	Key.backspace	n/a
364.358	0.135	728716	keystroke_i	i	n/a
364.4705	0.1235	728941	keystroke_n	n	n/a
364.6625	0.1115	729325	keystroke_g	g	n/a
364.7855	0.09	729571	keystroke_Key.space	Key.space	n/a
364.9205	0.1355	729841	keystroke_p	p	n/a
365	0.1005	730000	keystroke_i	i	n/a
365.0895	0.056	730179	keystroke_c	c	n/a
365.2475	0.0895	730495	keystroke_t	t	n/a
365.3935	0.0785	730787	keystroke_u	u	n/a
365.461	0.1235	730922	keystroke_r	r	n/a
365.5395	0.0785	731079	keystroke_e	e	n/a
365.8655	0.1125	731731	keystroke_Key.enter	Key.enter	n/a
365.984	8.7685	731968	prompt	n/a	implications yahoo vids repairs\n
370.567	0.1475	741134	keystroke_i	i	n/a
370.6685	0.18	741337	keystroke_m	m	n/a
370.8375	0.112	741675	keystroke_p	p	n/a
370.916	0.135	741832	keystroke_l	l	n/a
371.0285	0.0895	742057	keystroke_i	i	n/a
371.1295	0.0575	742259	keystroke_c	c	n/a
371.2425	0.1235	742485	keystroke_a	a	n/a
371.3205	0.079	742641	keystroke_t	t	n/a
371.4225	0.168	742845	keystroke_i	i	n/a
371.4785	0.146	742957	keystroke_o	o	n/a
371.5795	0.113	743159	keystroke_n	n	n/a
371.6365	0.1365	743273	keystroke_s	s	n/a
371.7145	0.101	743429	keystroke_Key.space	Key.space	n/a
371.8945	0.079	743789	keystroke_y	y	n/a
371.9625	0.091	743925	keystroke_a	a	n/a
372.1535	0.102	744307	keystroke_h	h	n/a
372.2205	0.068	744441	keystroke_o	o	n/a
372.389	0.068	744778	keystroke_o	o	n/a
372.4795	0.0675	744959	keystroke_Key.space	Key.space	n/a
372.6145	0.1015	745229	keystroke_v	v	n/a
372.7495	0.1015	745499	keystroke_i	i	n/a
372.896	0.0785	745792	keystroke_d	d	n/a
373.143	0.069	746286	keystroke_s	s	n/a
373.3445	0.059	746689	keystroke_Key.space	Key.space	n/a
373.5035	0.124	747007	keystroke_r	r	n/a
373.6255	0.079	747251	keystroke_e	e	n/a
373.7655	0.085	747531	keystroke_p	p	n/a
373.8535	0.1235	747707	keystroke_a	a	n/a
374.017	0.0635	748034	keystroke_i	i	n/a
374.1145	0.0625	748229	keystroke_r	r	n/a
374.262	0.051	748524	keystroke_s	s	n/a
374.696	0.056	749392	keystroke_Key.enter	Key.enter	n/a
374.758	9.941	749516	prompt	n/a	suggested trinidad obvious compromise\n
375.551	0.067	751102	keystroke_s	s	n/a
375.697	0.0785	751394	keystroke_u	u	n/a
375.821	0.056	751642	keystroke_g	g	n/a
375.9555	0.079	751911	keystroke_g	g	n/a
376.1135	0.1345	752227	keystroke_e	e	n/a
376.1805	0.1355	752361	keystroke_s	s	n/a
376.282	0.101	752564	keystroke_t	t	n/a
376.6645	0.079	753329	keystroke_e	e	n/a
376.8335	0.0675	753667	keystroke_d	d	n/a
377.1485	0.079	754297	keystroke_Key.space	Key.space	n/a
377.351	0.056	754702	keystroke_t	t	n/a
377.508	0.09	755016	keystroke_r	r	n/a
377.6095	0.1465	755219	keystroke_i	i	n/a
377.745	0.123	755490	keystroke_n	n	n/a
377.835	0.089	755670	keystroke_i	i	n/a
378.015	0.078	756030	keystroke_d	d	n/a
378.1155	0.09	756231	keystroke_a	a	n/a
378.2625	0.0685	756525	keystroke_d	d	n/a
378.5345	0.067	757069	keystroke_Key.space	Key.space	n/a
378.9315	0.0655	757863	keystroke_c	c	n/a
379.1625	0.07	758325	keystroke_Key.backspace	Key.backspace	n/a
381.2095	0.09	762419	keystroke_o	o	n/a
381.3785	0.0785	762757	keystroke_b	b	n/a
381.559	0.0675	763118	keystroke_v	v	n/a
381.66	0.1575	763320	keystroke_i	i	n/a
381.7275	0.1575	763455	keystroke_o	o	n/a
381.829	0.101	763658	keystroke_u	u	n/a
381.9405	0.0805	763881	keystroke_s	s	n/a
382.11	0.0675	764220	keystroke_Key.space	Key.space	n/a
382.2455	0.0895	764491	keystroke_c	c	n/a
382.3375	0.121	764675	keystroke_o	o	n/a
382.4135	0.1575	764827	keystroke_m	m	n/a
382.5145	0.1235	765029	keystroke_p	p	n/a
382.6835	0.0675	765367	keystroke_r	r	n/a
382.7855	0.146	765571	keystroke_o	o	n/a
382.921	0.123	765842	keystroke_m	m	n/a
383.01	0.0895	766020	keystroke_i	i	n/a
383.1455	0.134	766291	keystroke_s	s	n/a
383.2905	0.09	766581	keystroke_e	e	n/a
384.585	0.1125	769170	keystroke_Key.enter	Key.enter	n/a
384.7055	9.904	769411	prompt	n/a	taxation rand lounge norway\n
385.541	0.09	771082	keystroke_t	t	n/a
385.654	0.101	771308	keystroke_a	a	n/a
385.878	0.079	771756	keystroke_x	x	n/a
386.1595	0.079	772319	keystroke_a	a	n/a
386.3055	0.115	772611	keystroke_n	n	n/a
386.6325	0.0675	773265	keystroke_Key.backspace	Key.backspace	n/a
387.1945	0.0675	774389	keystroke_t	t	n/a
387.3745	0.158	774749	keystroke_i	i	n/a
387.4425	0.1235	774885	keystroke_o	o	n/a
388.1395	0.1015	776279	keystroke_n	n	n/a
388.5785	0.0895	777157	keystroke_Key.space	Key.space	n/a
389.8945	0.1015	779789	keystroke_r	r	n/a
389.962	0.1015	779924	keystroke_a	a	n/a
390.221	0.0895	780442	keystroke_n	n	n/a
390.3895	0.101	780779	keystroke_d	d	n/a
390.5475	0.101	781095	keystroke_Key.space	Key.space	n/a
391.1775	0.0675	782355	keystroke_l	l	n/a
391.357	0.116	782714	keystroke_o	o	n/a
391.4245	0.0905	782849	keystroke_u	u	n/a
391.6155	0.09	783231	keystroke_n	n	n/a
391.751	0.1135	783502	keystroke_g	g	n/a
391.887	0.1	783774	keystroke_e	e	n/a
391.998	0.0905	783996	keystroke_Key.space	Key.space	n/a
392.1785	0.112	784357	keystroke_n	n	n/a
392.257	0.0895	784514	keystroke_o	o	n/a
392.4815	0.09	784963	keystroke_r	r	n/a
392.8085	0.0895	785617	keystroke_m	m	n/a
393.0445	0.068	786089	keystroke_Key.backspace	Key.backspace	n/a
393.146	0.1245	786292	keystroke_w	w	n/a
393.237	0.089	786474	keystroke_a	a	n/a
393.337	0.101	786674	keystroke_y	y	n/a
394.553	0.0555	789106	keystroke_Key.enter	Key.enter	n/a
394.6145	7.0595	789229	prompt	n/a	corp briefs against kathy\n
395.5645	0.034	791129	keystroke_c	c	n/a
395.654	0.068	791308	keystroke_o	o	n/a
395.7555	0.0795	791511	keystroke_r	r	n/a
395.937	0.1335	791874	keystroke_p	p	n/a
396.172	0.079	792344	keystroke_Key.space	Key.space	n/a
396.4755	0.0905	792951	keystroke_b	b	n/a
396.7005	0.0675	793401	keystroke_r	r	n/a
396.8475	0.056	793695	keystroke_i	i	n/a
396.915	0.0785	793830	keystroke_e	e	n/a
397.0605	0.079	794121	keystroke_f	f	n/a
397.207	0.09	794414	keystroke_s	s	n/a
397.2975	0.078	794595	keystroke_Key.space	Key.space	n/a
397.4995	0.068	794999	keystroke_a	a	n/a
397.77	0.089	795540	keystroke_g	g	n/a
398.501	0.078	797002	keystroke_a	a	n/a
398.6365	0.134	797273	keystroke_i	i	n/a
398.816	0.0785	797632	keystroke_s	s	n/a
399.4905	0.046	798981	keystroke_Key.backspace	Key.backspace	n/a
399.671	0.0785	799342	keystroke_n	n	n/a
399.794	0.113	799588	keystroke_s	s	n/a
399.907	0.135	799814	keystroke_t	t	n/a
400.076	0.1005	800152	keystroke_Key.space	Key.space	n/a
400.301	0.078	800602	keystroke_k	k	n/a
400.447	0.09	800894	keystroke_a	a	n/a
400.594	0.089	801188	keystroke_t	t	n/a
400.7175	0.1125	801435	keystroke_h	h	n/a
401.0885	0.067	802177	keystroke_y	y	n/a
401.617	0.056	803234	keystroke_Key.enter	Key.enter	n/a
401.679	13.09	803358	prompt	n/a	scanners footage accuracy malta\n
402.787	0.0565	805574	keystroke_s	s	n/a
402.911	0.078	805822	keystroke_c	c	n/a
403.0235	0.078	806047	keystroke_a	a	n/a
403.17	0.067	806340	keystroke_n	n	n/a
403.3045	0.0785	806609	keystroke_n	n	n/a
403.4055	0.079	806811	keystroke_e	e	n/a
403.4395	0.079	806879	keystroke_r	r	n/a
403.5975	0.067	807195	keystroke_s	s	n/a
403.968	0.045	807936	keystroke_Key.backspace	Key.backspace	n/a
404.194	0.0555	808388	keystroke_s	s	n/a
404.3845	0.0785	808769	keystroke_Key.space	Key.space	n/a
410.201	0.0895	820402	keystroke_f	f	n/a
410.527	0.0445	821054	keystroke_o	o	n/a
410.6395	0.09	821279	keystroke_o	o	n/a
410.887	0.056	821774	keystroke_t	t	n/a
411.371	0.067	822742	keystroke_a	a	n/a
411.573	0.08	823146	keystroke_g	g	n/a
411.7085	0.0785	823417	keystroke_e	e	n/a
411.8545	0.09	823709	keystroke_Key.space	Key.space	n/a
412.811	0.067	825622	keystroke_a	a	n/a
412.979	0.0455	825958	keystroke_c	c	n/a
413.1035	0.0675	826207	keystroke_c	c	n/a
413.2275	0.078	826455	keystroke_u	u	n/a
413.328	0.0675	826656	keystroke_r	r	n/a
413.3845	0.079	826769	keystroke_a	a	n/a
413.531	0.0785	827062	keystroke_c	c	n/a
413.655	0.0895	827310	keystroke_y	y	n/a
413.8005	0.056	827601	keystroke_Key.space	Key.space	n/a
413.9495	0.092	827899	keystroke_m	m	n/a
414.07	0.089	828140	keystroke_a	a	n/a
414.162	0.082	828324	keystroke_l	l	n/a
414.2755	0.0945	828551	keystroke_t	t	n/a
414.3865	0.078	828773	keystroke_a	a	n/a
414.702	0.066	829404	keystroke_Key.enter	Key.enter	n/a
414.7745	15.104	829549	prompt	n/a	vulnerable military nail joint\n
423.9375	0.09	847875	keystroke_v	v	n/a
424.32	0.0785	848640	keystroke_u	u	n/a
424.4775	0.101	848955	keystroke_l	l	n/a
424.8485	0.102	849697	keystroke_n	n	n/a
424.995	0.101	849990	keystroke_e	e	n/a
425.231	0.056	850462	keystroke_r	r	n/a
425.5465	0.101	851093	keystroke_a	a	n/a
425.715	0.09	851430	keystroke_b	b	n/a
425.839	0.1015	851678	keystroke_l	l	n/a
425.94	0.0675	851880	keystroke_e	e	n/a
426.075	0.079	852150	keystroke_Key.space	Key.space	n/a
426.3565	0.1235	852713	keystroke_m	m	n/a
426.4465	0.1015	852893	keystroke_i	i	n/a
426.649	0.0785	853298	keystroke_t	t	n/a
427.11	0.0785	854220	keystroke_Key.backspace	Key.backspace	n/a
427.695	0.158	855390	keystroke_l	l	n/a
427.808	0.101	855616	keystroke_i	i	n/a
427.9765	0.0785	855953	keystroke_t	t	n/a
428.0775	0.1245	856155	keystroke_a	a	n/a
428.168	0.0785	856336	keystroke_r	r	n/a
428.258	0.09	856516	keystroke_y	y	n/a
428.359	0.0905	856718	keystroke_Key.space	Key.space	n/a
428.518	0.1115	857036	keystroke_n	n	n/a
428.5955	0.0675	857191	keystroke_a	a	n/a
428.7305	0.1245	857461	keystroke_i	i	n/a
428.7985	0.1235	857597	keystroke_l	l	n/a
428.899	0.09	857798	keystroke_Key.space	Key.space	n/a
429.102	0.1005	858204	keystroke_j	j	n/a
429.2255	0.1575	858451	keystroke_o	o	n/a
429.3155	0.158	858631	keystroke_i	i	n/a
429.4175	0.1235	858835	keystroke_n	n	n/a
429.552	0.0575	859104	keystroke_t	t	n/a
429.807	0.0685	859614	keystroke_Key.enter	Key.enter	n/a
429.886	18.905	859772	prompt	n/a	quality recall webmasters respondents\n
436.8985	0.068	873797	keystroke_q	q	n/a
437.012	0.078	874024	keystroke_u	u	n/a
437.1025	0.0885	874205	keystroke_a	a	n/a
437.2365	0.1235	874473	keystroke_l	l	n/a
437.3265	0.101	874653	keystroke_i	i	n/a
437.4165	0.0685	874833	keystroke_t	t	n/a
437.54	0.0785	875080	keystroke_y	y	n/a
437.63	0.0785	875260	keystroke_Key.space	Key.space	n/a
438.1695	0.1125	876339	keystroke_r	r	n/a
438.226	0.09	876452	keystroke_e	e	n/a
438.4395	0.068	876879	keystroke_c	c	n/a
438.6315	0.0675	877263	keystroke_a	a	n/a
438.7545	0.0565	877509	keystroke_l	l	n/a
438.8685	0.0665	877737	keystroke_l	l	n/a
438.991	0.09	877982	keystroke_Key.space	Key.space	n/a
439.5535	0.079	879107	keystroke_w	w	n/a
439.621	0.068	879242	keystroke_e	e	n/a
439.7785	0.079	879557	keystroke_b	b	n/a
440.037	0.0115	880074	keystroke_s	s	n/a
440.4195	0.068	880839	keystroke_Key.backspace	Key.backspace	n/a
440.6015	0.088	881203	keystroke_m	m	n/a
440.7235	0.09	881447	keystroke_a	a	n/a
440.9485	0.1125	881897	keystroke_s	s	n/a
441.05	0.09	882100	keystroke_t	t	n/a
441.1625	0.1235	882325	keystroke_a	a	n/a
441.241	0.0785	882482	keystroke_t	t	n/a
441.365	0.067	882730	keystroke_i	i	n/a
441.4885	0.0675	882977	keystroke_c	c	n/a
441.8265	0.0555	883653	keystroke_Key.backspace	Key.backspace	n/a
441.961	0.057	883922	keystroke_Key.backspace	Key.backspace	n/a
442.085	0.067	884170	keystroke_Key.backspace	Key.backspace	n/a
442.2535	0.079	884507	keystroke_Key.backspace	Key.backspace	n/a
443.2885	0.0465	886577	keystroke_Key.backspace	Key.backspace	n/a
444.223	0.067	888446	keystroke_t	t	n/a
444.3805	0.078	888761	keystroke_e	e	n/a
444.414	0.101	888828	keystroke_r	r	n/a
444.774	0.056	889548	keystroke_s	s	n/a
444.909	0.079	889818	keystroke_Key.space	Key.space	n/a
445.6065	0.157	891213	keystroke_r	r	n/a
445.719	0.1125	891438	keystroke_e	e	n/a
445.9665	0.067	891933	keystroke_s	s	n/a
446.2365	0.135	892473	keystroke_p	p	n/a
446.2815	0.157	892563	keystroke_o	o	n/a
446.5625	0.1015	893125	keystroke_n	n	n/a
447.069	0.056	894138	keystroke_d	d	n/a
447.215	0.0675	894430	keystroke_e	e	n/a
447.3615	0.0905	894723	keystroke_n	n	n/a
447.5975	0.056	895195	keystroke_t	t	n/a
447.7435	0.0565	895487	keystroke_s	s	n/a
448.734	0.056	897468	keystroke_Key.enter	Key.enter	n/a
448.796	5.149	897592	prompt	n/a	influenced operators hospital justin\n
449.3865	0.124	898773	keystroke_i	i	n/a
449.4655	0.1125	898931	keystroke_n	n	n/a
449.5555	0.0795	899111	keystroke_f	f	n/a
449.6905	0.1125	899381	keystroke_l	l	n/a
449.7575	0.1015	899515	keystroke_u	u	n/a
449.8815	0.09	899763	keystroke_e	e	n/a
449.994	0.091	899988	keystroke_n	n	n/a
450.0955	0.0675	900191	keystroke_c	c	n/a
450.264	0.0725	900528	keystroke_e	e	n/a
450.388	0.1015	900776	keystroke_d	d	n/a
450.487	0.058	900974	keystroke_Key.space	Key.space	n/a
450.602	0.147	901204	keystroke_o	o	n/a
450.692	0.14	901384	keystroke_p	p	n/a
450.8375	0.1015	901675	keystroke_e	e	n/a
450.894	0.091	901788	keystroke_r	r	n/a
451.029	0.101	902058	keystroke_a	a	n/a
451.0965	0.0795	902193	keystroke_t	t	n/a
451.232	0.0675	902464	keystroke_o	o	n/a
451.3255	0.03	902651	keystroke_r	r	n/a
451.4455	0.0895	902891	keystroke_s	s	n/a
451.502	0.085	903004	keystroke_Key.space	Key.space	n/a
451.6485	0.128	903297	keystroke_h	h	n/a
451.738	0.1015	903476	keystroke_o	o	n/a
451.875	0.0655	903750	keystroke_s	s	n/a
452.1315	0.18	904263	keystroke_p	p	n/a
452.267	0.102	904534	keystroke_i	i	n/a
452.424	0.09	904848	keystroke_t	t	n/a
452.5365	0.101	905073	keystroke_a	a	n/a
452.6945	0.0905	905389	keystroke_l	l	n/a
452.829	0.079	905658	keystroke_Key.space	Key.space	n/a
453.0205	0.0565	906041	keystroke_j	j	n/a
453.1555	0.0895	906311	keystroke_u	u	n/a
453.279	0.1015	906558	keystroke_s	s	n/a
453.3355	0.09	906671	keystroke_t	t	n/a
453.459	0.146	906918	keystroke_i	i	n/a
453.5715	0.135	907143	keystroke_n	n	n/a
453.853	0.0905	907706	keystroke_Key.enter	Key.enter	n/a
453.953	4.0865	907906	prompt	n/a	client actively budget lots\n
454.4945	0.0905	908989	keystroke_c	c	n/a
454.596	0.0895	909192	keystroke_l	l	n/a
454.652	0.1005	909304	keystroke_i	i	n/a
454.764	0.056	909528	keystroke_e	e	n/a
454.854	0.1125	909708	keystroke_n	n	n/a
454.9555	0.09	909911	keystroke_t	t	n/a
455.023	0.079	910046	keystroke_Key.space	Key.space	n/a
455.1355	0.0675	910271	keystroke_a	a	n/a
455.259	0.09	910518	keystroke_c	c	n/a
455.439	0.0795	910878	keystroke_t	t	n/a
455.541	0.0785	911082	keystroke_i	i	n/a
455.6415	0.1015	911283	keystroke_v	v	n/a
455.7545	0.09	911509	keystroke_e	e	n/a
455.8895	0.124	911779	keystroke_l	l	n/a
455.979	0.0905	911958	keystroke_y	y	n/a
456.0465	0.09	912093	keystroke_Key.space	Key.space	n/a
456.238	0.0785	912476	keystroke_b	b	n/a
456.407	0.067	912814	keystroke_u	u	n/a
456.5305	0.0675	913061	keystroke_d	d	n/a
456.7215	0.1015	913443	keystroke_g	g	n/a
456.87	0.099	913740	keystroke_e	e	n/a
457.0825	0.1005	914165	keystroke_t	t	n/a
457.2055	0.0675	914411	keystroke_Key.space	Key.space	n/a
457.3405	0.079	914681	keystroke_l	l	n/a
457.487	0.0675	914974	keystroke_o	o	n/a
457.5885	0.0785	915177	keystroke_t	t	n/a
457.7455	0.0675	915491	keystroke_s	s	n/a
457.971	0.0675	915942	keystroke_Key.enter	Key.enter	n/a
458.044	5.733	916088	prompt	n/a	maintained breakdown screening applications\n
458.657	0.101	917314	keystroke_m	m	n/a
458.747	0.09	917494	keystroke_a	a	n/a
458.882	0.135	917764	keystroke_i	i	n/a
458.983	0.1025	917966	keystroke_n	n	n/a
459.073	0.09	918146	keystroke_t	t	n/a
459.1405	0.09	918281	keystroke_a	a	n/a
459.2755	0.1465	918551	keystroke_i	i	n/a
459.388	0.102	918776	keystroke_n	n	n/a
459.467	0.0785	918934	keystroke_e	e	n/a
459.647	0.079	919294	keystroke_d	d	n/a
459.692	0.09	919384	keystroke_Key.space	Key.space	n/a
459.827	0.0785	919654	keystroke_b	b	n/a
460.02	0.122	920040	keystroke_r	r	n/a
460.097	0.09	920194	keystroke_e	e	n/a
460.1755	0.0675	920351	keystroke_a	a	n/a
460.232	0.09	920464	keystroke_k	k	n/a
460.356	0.0675	920712	keystroke_d	d	n/a
460.491	0.0895	920982	keystroke_o	o	n/a
460.592	0.0905	921184	keystroke_w	w	n/a
460.7045	0.101	921409	keystroke_n	n	n/a
460.817	0.079	921634	keystroke_Key.space	Key.space	n/a
460.975	0.0895	921950	keystroke_s	s	n/a
461.1545	0.0675	922309	keystroke_c	c	n/a
461.3355	0.0895	922671	keystroke_r	r	n/a
461.3795	0.0905	922759	keystroke_e	e	n/a
461.537	0.079	923074	keystroke_e	e	n/a
461.6945	0.1125	923389	keystroke_n	n	n/a
461.8745	0.1355	923749	keystroke_i	i	n/a
461.9645	0.124	923929	keystroke_n	n	n/a
462.077	0.135	924154	keystroke_g	g	n/a
462.2025	0.0665	924405	keystroke_Key.space	Key.space	n/a
462.3245	0.09	924649	keystroke_a	a	n/a
462.4485	0.0785	924897	keystroke_p	p	n/a
462.628	0.113	925256	keystroke_p	p	n/a
462.6845	0.1575	925369	keystroke_l	l	n/a
462.797	0.1015	925594	keystroke_i	i	n/a
462.887	0.079	925774	keystroke_c	c	n/a
463.0115	0.134	926023	keystroke_a	a	n/a
463.1125	0.0785	926225	keystroke_t	t	n/a
463.2025	0.1795	926405	keystroke_i	i	n/a
463.2695	0.146	926539	keystroke_o	o	n/a
463.3595	0.124	926719	keystroke_n	n	n/a
463.4495	0.101	926899	keystroke_s	s	n/a
463.7085	0.0675	927417	keystroke_Key.enter	Key.enter	n/a
463.782	3.4155	927564	prompt	n/a	court latin heel motors\n
464.417	0.102	928834	keystroke_c	c	n/a
464.553	0.1005	929106	keystroke_o	o	n/a
464.6195	0.101	929239	keystroke_u	u	n/a
464.7325	0.056	929465	keystroke_r	r	n/a
464.879	0.078	929758	keystroke_t	t	n/a
464.969	0.0555	929938	keystroke_Key.space	Key.space	n/a
465.115	0.0675	930230	keystroke_l	l	n/a
465.194	0.0785	930388	keystroke_a	a	n/a
465.34	0.08	930680	keystroke_t	t	n/a
465.4415	0.146	930883	keystroke_i	i	n/a
465.5425	0.09	931085	keystroke_n	n	n/a
465.6095	0.0905	931219	keystroke_Key.space	Key.space	n/a
465.7675	0.0785	931535	keystroke_h	h	n/a
465.8575	0.0565	931715	keystroke_e	e	n/a
466.0155	0.067	932031	keystroke_e	e	n/a
466.1385	0.0905	932277	keystroke_l	l	n/a
466.2515	0.0895	932503	keystroke_Key.space	Key.space	n/a
466.3755	0.1235	932751	keystroke_m	m	n/a
466.454	0.0895	932908	keystroke_o	o	n/a
466.5775	0.079	933155	keystroke_t	t	n/a
466.69	0.09	933380	keystroke_o	o	n/a
466.8035	0.0665	933607	keystroke_r	r	n/a
466.972	0.0445	933944	keystroke_s	s	n/a
467.14	0.056	934280	keystroke_Key.enter	Key.enter	n/a
467.2035	4.764	934407	prompt	n/a	edmonton demographic auto experts\n
467.792	0.068	935584	keystroke_e	e	n/a
467.961	0.0675	935922	keystroke_d	d	n/a
468.153	0.1115	936306	keystroke_m	m	n/a
468.276	0.1015	936552	keystroke_o	o	n/a
468.355	0.1125	936710	keystroke_n	n	n/a
468.4785	0.0675	936957	keystroke_t	t	n/a
468.6025	0.1125	937205	keystroke_o	o	n/a
468.6815	0.112	937363	keystroke_n	n	n/a
468.7825	0.067	937565	keystroke_Key.space	Key.space	n/a
468.951	0.035	937902	keystroke_d	d	n/a
469.0745	0.0565	938149	keystroke_e	e	n/a
469.1645	0.113	938329	keystroke_m	m	n/a
469.2325	0.09	938465	keystroke_o	o	n/a
469.357	0.0555	938714	keystroke_g	g	n/a
469.5135	0.09	939027	keystroke_r	r	n/a
469.581	0.09	939162	keystroke_a	a	n/a
469.705	0.169	939410	keystroke_p	p	n/a
469.8175	0.1465	939635	keystroke_h	h	n/a
469.93	0.09	939860	keystroke_i	i	n/a
470.031	0.079	940062	keystroke_c	c	n/a
470.2785	0.091	940557	keystroke_Key.space	Key.space	n/a
470.4365	0.0795	940873	keystroke_a	a	n/a
470.5715	0.078	941143	keystroke_u	u	n/a
470.6725	0.0785	941345	keystroke_t	t	n/a
470.786	0.089	941572	keystroke_o	o	n/a
470.8755	0.067	941751	keystroke_Key.space	Key.space	n/a
471.01	0.079	942020	keystroke_e	e	n/a
471.1905	0.0555	942381	keystroke_x	x	n/a
471.291	0.1015	942582	keystroke_p	p	n/a
471.4035	0.102	942807	keystroke_e	e	n/a
471.46	0.09	942920	keystroke_r	r	n/a
471.629	0.0575	943258	keystroke_t	t	n/a
471.73	0.0905	943460	keystroke_s	s	n/a
471.9105	0.056	943821	keystroke_Key.enter	Key.enter	n/a
471.9735	39.529	943947	prompt	n/a	miles i spots hope\n
508.126	0.102	1016252	keystroke_m	m	n/a
508.216	0.146	1016432	keystroke_i	i	n/a
508.306	0.1345	1016612	keystroke_l	l	n/a
508.452	0.124	1016904	keystroke_e	e	n/a
508.5305	0.1125	1017061	keystroke_s	s	n/a
508.632	0.1015	1017264	keystroke_Key.space	Key.space	n/a
508.857	0.09	1017714	keystroke_i	i	n/a
509.072	0.0885	1018144	keystroke_Key.space	Key.space	n/a
509.2285	0.09	1018457	keystroke_s	s	n/a
509.3405	0.1015	1018681	keystroke_p	p	n/a
509.386	0.112	1018772	keystroke_o	o	n/a
509.5095	0.068	1019019	keystroke_t	t	n/a
509.6445	0.101	1019289	keystroke_s	s	n/a
509.7235	0.101	1019447	keystroke_Key.space	Key.space	n/a
509.926	0.135	1019852	keystroke_h	h	n/a
510.027	0.1575	1020054	keystroke_o	o	n/a
510.106	0.1465	1020212	keystroke_p	p	n/a
510.2525	0.0785	1020505	keystroke_e	e	n/a
511.4335	0.068	1022867	keystroke_Key.enter	Key.enter	n/a
511.509	5.1575	1023018	prompt	n/a	exempt partnerships floor foster\n
512.143	0.033	1024286	keystroke_e	e	n/a
512.289	0.079	1024578	keystroke_x	x	n/a
512.48	0.0785	1024960	keystroke_e	e	n/a
512.6725	0.1225	1025345	keystroke_m	m	n/a
512.739	0.1125	1025478	keystroke_p	p	n/a
512.874	0.09	1025748	keystroke_t	t	n/a
513.009	0.08	1026018	keystroke_Key.space	Key.space	n/a
513.1895	0.089	1026379	keystroke_p	p	n/a
513.29	0.112	1026580	keystroke_a	a	n/a
513.38	0.079	1026760	keystroke_r	r	n/a
513.5265	0.09	1027053	keystroke_t	t	n/a
513.695	0.1015	1027390	keystroke_n	n	n/a
513.796	0.1015	1027592	keystroke_e	e	n/a
513.8525	0.0785	1027705	keystroke_r	r	n/a
513.999	0.0785	1027998	keystroke_s	s	n/a
514.1335	0.124	1028267	keystroke_h	h	n/a
514.201	0.1235	1028402	keystroke_i	i	n/a
514.2685	0.1125	1028537	keystroke_p	p	n/a
514.3585	0.0675	1028717	keystroke_s	s	n/a
514.449	0.0785	1028898	keystroke_Key.space	Key.space	n/a
514.5725	0.0795	1029145	keystroke_f	f	n/a
514.652	0.078	1029304	keystroke_l	l	n/a
514.82	0.0685	1029640	keystroke_o	o	n/a
514.977	0.0675	1029954	keystroke_o	o	n/a
515.1125	0.067	1030225	keystroke_r	r	n/a
515.394	0.0785	1030788	keystroke_Key.space	Key.space	n/a
515.5175	0.09	1031035	keystroke_f	f	n/a
515.641	0.0905	1031282	keystroke_o	o	n/a
515.7655	0.1345	1031531	keystroke_s	s	n/a
515.9115	0.0785	1031823	keystroke_t	t	n/a
516.0685	0.1015	1032137	keystroke_e	e	n/a
516.125	0.079	1032250	keystroke_r	r	n/a
516.5975	0.0675	1033195	keystroke_Key.enter	Key.enter	n/a
516.672	18.905	1033344	prompt	n/a	lightning consumer thursday measurements\n
529.625	0.114	1059250	keystroke_l	l	n/a
529.715	0.135	1059430	keystroke_i	i	n/a
529.884	0.067	1059768	keystroke_g	g	n/a
529.996	0.1015	1059992	keystroke_h	h	n/a
530.109	0.067	1060218	keystroke_t	t	n/a
530.289	0.1235	1060578	keystroke_n	n	n/a
530.4235	0.1125	1060847	keystroke_i	i	n/a
530.5025	0.1125	1061005	keystroke_n	n	n/a
530.604	0.09	1061208	keystroke_g	g	n/a
530.672	0.0895	1061344	keystroke_Key.space	Key.space	n/a
530.84	0.1125	1061680	keystroke_c	c	n/a
531.1435	0.124	1062287	keystroke_o	o	n/a
531.2225	0.1125	1062445	keystroke_n	n	n/a
531.324	0.0785	1062648	keystroke_s	s	n/a
531.4585	0.068	1062917	keystroke_u	u	n/a
531.628	0.112	1063256	keystroke_m	m	n/a
531.7285	0.1125	1063457	keystroke_e	e	n/a
531.7735	0.1125	1063547	keystroke_r	r	n/a
531.875	0.0805	1063750	keystroke_Key.space	Key.space	n/a
532.0325	0.068	1064065	keystroke_t	t	n/a
532.123	0.067	1064246	keystroke_h	h	n/a
532.291	0.0675	1064582	keystroke_u	u	n/a
532.381	0.079	1064762	keystroke_r	r	n/a
532.5275	0.0785	1065055	keystroke_s	s	n/a
532.719	0.101	1065438	keystroke_d	d	n/a
532.798	0.078	1065596	keystroke_a	a	n/a
532.9325	0.0785	1065865	keystroke_y	y	n/a
533.0335	0.079	1066067	keystroke_Key.space	Key.space	n/a
533.2025	0.113	1066405	keystroke_m	m	n/a
533.304	0.068	1066608	keystroke_e	e	n/a
533.383	0.112	1066766	keystroke_a	a	n/a
533.484	0.112	1066968	keystroke_s	s	n/a
533.63	0.09	1067260	keystroke_u	u	n/a
533.765	0.124	1067530	keystroke_r	r	n/a
533.8325	0.102	1067665	keystroke_e	e	n/a
533.9565	0.0895	1067913	keystroke_m	m	n/a
534.058	0.0785	1068116	keystroke_e	e	n/a
534.17	0.09	1068340	keystroke_n	n	n/a
534.2385	0.067	1068477	keystroke_t	t	n/a
534.3725	0.079	1068745	keystroke_s	s	n/a
535.4975	0.0785	1070995	keystroke_Key.enter	Key.enter	n/a
535.582	14.778	1071164	prompt	n/a	detail emergency theorem corpus\n
543.8675	0.1235	1087735	keystroke_d	d	n/a
544.0025	0.045	1088005	keystroke_e	e	n/a
544.126	0.1015	1088252	keystroke_t	t	n/a
544.205	0.09	1088410	keystroke_a	a	n/a
544.3285	0.136	1088657	keystroke_i	i	n/a
544.3965	0.1235	1088793	keystroke_l	l	n/a
544.498	0.112	1088996	keystroke_Key.space	Key.space	n/a
544.622	0.1005	1089244	keystroke_e	e	n/a
544.7345	0.1115	1089469	keystroke_m	m	n/a
544.835	0.1235	1089670	keystroke_e	e	n/a
544.9135	0.09	1089827	keystroke_r	r	n/a
545.105	0.0795	1090210	keystroke_g	g	n/a
545.1725	0.056	1090345	keystroke_e	e	n/a
545.3525	0.101	1090705	keystroke_n	n	n/a
545.499	0.0785	1090998	keystroke_c	c	n/a
545.611	0.09	1091222	keystroke_y	y	n/a
545.791	0.079	1091582	keystroke_Key.space	Key.space	n/a
547.0285	0.0795	1094057	keystroke_t	t	n/a
547.468	0.09	1094936	keystroke_h	h	n/a
547.7485	0.0795	1095497	keystroke_e	e	n/a
548.154	0.0785	1096308	keystroke_o	o	n/a
548.391	0.0665	1096782	keystroke_r	r	n/a
548.559	0.0905	1097118	keystroke_e	e	n/a
548.795	0.18	1097590	keystroke_m	m	n/a
549.02	0.0685	1098040	keystroke_Key.space	Key.space	n/a
549.3355	0.078	1098671	keystroke_c	c	n/a
549.4595	0.0795	1098919	keystroke_o	o	n/a
549.572	0.0665	1099144	keystroke_r	r	n/a
549.706	0.1245	1099412	keystroke_p	p	n/a
549.7965	0.113	1099593	keystroke_u	u	n/a
549.9315	0.057	1099863	keystroke_s	s	n/a
550.28	0.0785	1100560	keystroke_Key.enter	Key.enter	n/a
550.365	7.5885	1100730	prompt	n/a	disco consciousness ultra believes\n
551.9905	0.056	1103981	keystroke_d	d	n/a
552.1135	0.079	1104227	keystroke_i	i	n/a
552.1815	0.0675	1104363	keystroke_s	s	n/a
552.362	0.078	1104724	keystroke_c	c	n/a
552.4635	0.089	1104927	keystroke_o	o	n/a
552.575	0.0905	1105150	keystroke_Key.space	Key.space	n/a
552.7905	0.105	1105581	keystroke_c	c	n/a
552.9145	0.102	1105829	keystroke_o	o	n/a
553.0165	0.0915	1106033	keystroke_n	n	n/a
553.0625	0.084	1106125	keystroke_s	s	n/a
553.278	0.066	1106556	keystroke_c	c	n/a
553.5025	0.1315	1107005	keystroke_i	i	n/a
553.8185	0.112	1107637	keystroke_o	o	n/a
554.0075	0.084	1108015	keystroke_u	u	n/a
554.13	0.098	1108260	keystroke_s	s	n/a
554.3165	0.1085	1108633	keystroke_n	n	n/a
554.491	0.079	1108982	keystroke_e	e	n/a
554.668	0.045	1109336	keystroke_s	s	n/a
554.7925	0.0815	1109585	keystroke_s	s	n/a
554.9415	0.087	1109883	keystroke_Key.space	Key.space	n/a
555.8055	0.0805	1111611	keystroke_u	u	n/a
556.0065	0.0785	1112013	keystroke_l	l	n/a
556.0965	0.068	1112193	keystroke_t	t	n/a
556.265	0.0905	1112530	keystroke_r	r	n/a
556.325	0.0865	1112650	keystroke_a	a	n/a
556.457	0.067	1112914	keystroke_Key.space	Key.space	n/a
556.58	0.09	1113160	keystroke_b	b	n/a
556.727	0.09	1113454	keystroke_e	e	n/a
556.8275	0.1015	1113655	keystroke_l	l	n/a
556.895	0.0905	1113790	keystroke_i	i	n/a
556.9745	0.101	1113949	keystroke_e	e	n/a
557.132	0.1345	1114264	keystroke_v	v	n/a
557.244	0.1235	1114488	keystroke_e	e	n/a
557.3905	0.112	1114781	keystroke_s	s	n/a
557.885	0.0675	1115770	keystroke_Key.enter	Key.enter	n/a
557.9585	4.9035	1115917	prompt	n/a	marshall deadline tribes rhode\n
558.589	0.0835	1117178	keystroke_m	m	n/a
558.672	0.118	1117344	keystroke_a	a	n/a
558.7275	0.101	1117455	keystroke_r	r	n/a
558.865	0.0675	1117730	keystroke_s	s	n/a
558.9565	0.0685	1117913	keystroke_h	h	n/a
559.0475	0.065	1118095	keystroke_a	a	n/a
559.15	0.0525	1118300	keystroke_l	l	n/a
559.2975	0.05	1118595	keystroke_l	l	n/a
559.34	0.0865	1118680	keystroke_Key.space	Key.space	n/a
559.5175	0.055	1119035	keystroke_d	d	n/a
559.6635	0.0945	1119327	keystroke_e	e	n/a
559.7235	0.085	1119447	keystroke_a	a	n/a
559.866	0.069	1119732	keystroke_d	d	n/a
559.989	0.127	1119978	keystroke_l	l	n/a
560.115	0.132	1120230	keystroke_i	i	n/a
560.2085	0.119	1120417	keystroke_n	n	n/a
560.286	0.106	1120572	keystroke_e	e	n/a
560.3385	0.1025	1120677	keystroke_Key.space	Key.space	n/a
560.495	0.096	1120990	keystroke_t	t	n/a
560.6485	0.0625	1121297	keystroke_r	r	n/a
560.7355	0.0665	1121471	keystroke_i	i	n/a
560.8255	0.101	1121651	keystroke_b	b	n/a
560.9825	0.146	1121965	keystroke_e	e	n/a
561.1175	0.113	1122235	keystroke_s	s	n/a
561.2635	0.102	1122527	keystroke_Key.space	Key.space	n/a
561.9055	0.078	1123811	keystroke_r	r	n/a
562.029	0.0895	1124058	keystroke_h	h	n/a
562.186	0.09	1124372	keystroke_o	o	n/a
562.3105	0.067	1124621	keystroke_d	d	n/a
562.446	0.0665	1124892	keystroke_e	e	n/a
562.7935	0.0675	1125587	keystroke_Key.enter	Key.enter	n/a
562.868	5.9235	1125736	prompt	n/a	optimum assignments hurricane according\n
563.4575	0.135	1126915	keystroke_o	o	n/a
563.5585	0.124	1127117	keystroke_p	p	n/a
563.75	0.056	1127500	keystroke_t	t	n/a
563.851	0.135	1127702	keystroke_i	i	n/a
563.941	0.1235	1127882	keystroke_m	m	n/a
564.1775	0.0675	1128355	keystroke_u	u	n/a
564.3575	0.101	1128715	keystroke_m	m	n/a
564.4815	0.101	1128963	keystroke_Key.space	Key.space	n/a
564.661	0.09	1129322	keystroke_a	a	n/a
564.8305	0.0555	1129661	keystroke_s	s	n/a
564.9555	0.077	1129911	keystroke_s	s	n/a
565.0435	0.0675	1130087	keystroke_i	i	n/a
565.1675	0.0675	1130335	keystroke_g	g	n/a
565.2235	0.079	1130447	keystroke_n	n	n/a
565.4385	0.089	1130877	keystroke_m	m	n/a
565.5615	0.0785	1131123	keystroke_e	e	n/a
565.6515	0.0785	1131303	keystroke_n	n	n/a
565.741	0.0675	1131482	keystroke_t	t	n/a
565.8985	0.1015	1131797	keystroke_s	s	n/a
565.9665	0.0895	1131933	keystroke_Key.space	Key.space	n/a
566.1125	0.056	1132225	keystroke_h	h	n/a
566.281	0.0675	1132562	keystroke_u	u	n/a
566.416	0.0675	1132832	keystroke_r	r	n/a
566.551	0.0785	1133102	keystroke_r	r	n/a
566.675	0.067	1133350	keystroke_i	i	n/a
566.765	0.101	1133530	keystroke_c	c	n/a
566.8555	0.0895	1133711	keystroke_a	a	n/a
566.956	0.1125	1133912	keystroke_n	n	n/a
567.08	0.101	1134160	keystroke_e	e	n/a
567.17	0.0785	1134340	keystroke_Key.space	Key.space	n/a
567.2825	0.079	1134565	keystroke_a	a	n/a
567.485	0.056	1134970	keystroke_c	c	n/a
567.6085	0.08	1135217	keystroke_c	c	n/a
567.6985	0.0785	1135397	keystroke_o	o	n/a
567.811	0.0675	1135622	keystroke_r	r	n/a
568.014	0.067	1136028	keystroke_d	d	n/a
568.0925	0.1575	1136185	keystroke_i	i	n/a
568.2055	0.123	1136411	keystroke_n	n	n/a
568.3065	0.067	1136613	keystroke_g	g	n/a
568.7225	0.068	1137445	keystroke_Key.enter	Key.enter	n/a
568.798	5.5505	1137596	prompt	n/a	tumor sherman track transcripts\n
569.42	0.0785	1138840	keystroke_t	t	n/a
569.6335	0.0565	1139267	keystroke_r	r	n/a
569.96	0.0785	1139920	keystroke_Key.backspace	Key.backspace	n/a
570.151	0.079	1140302	keystroke_u	u	n/a
570.3535	0.124	1140707	keystroke_m	m	n/a
570.4555	0.0895	1140911	keystroke_o	o	n/a
570.6125	0.1125	1141225	keystroke_r	r	n/a
570.7635	0.085	1141527	keystroke_Key.space	Key.space	n/a
570.961	0.079	1141922	keystroke_s	s	n/a
571.0735	0.09	1142147	keystroke_h	h	n/a
571.1975	0.1125	1142395	keystroke_e	e	n/a
571.322	0.0665	1142644	keystroke_r	r	n/a
571.445	0.09	1142890	keystroke_m	m	n/a
571.535	0.0895	1143070	keystroke_a	a	n/a
571.6475	0.091	1143295	keystroke_n	n	n/a
571.7385	0.089	1143477	keystroke_Key.space	Key.space	n/a
572.019	0.067	1144038	keystroke_t	t	n/a
572.189	0.1	1144378	keystroke_r	r	n/a
572.2435	0.0675	1144487	keystroke_a	a	n/a
572.413	0.0555	1144826	keystroke_c	c	n/a
572.4915	0.09	1144983	keystroke_k	k	n/a
572.5925	0.113	1145185	keystroke_Key.space	Key.space	n/a
572.739	0.0895	1145478	keystroke_t	t	n/a
572.8965	0.112	1145793	keystroke_r	r	n/a
572.9975	0.101	1145995	keystroke_a	a	n/a
573.155	0.09	1146310	keystroke_n	n	n/a
573.2335	0.079	1146467	keystroke_s	s	n/a
573.425	0.0675	1146850	keystroke_c	c	n/a
573.605	0.101	1147210	keystroke_r	r	n/a
573.7175	0.135	1147435	keystroke_i	i	n/a
573.7965	0.135	1147593	keystroke_p	p	n/a
573.886	0.079	1147772	keystroke_t	t	n/a
574.0555	0.067	1148111	keystroke_s	s	n/a
574.2685	0.079	1148537	keystroke_Key.enter	Key.enter	n/a
574.3535	5.7885	1148707	prompt	n/a	copyrighted african hardcover audience\n
575.011	0.0905	1150022	keystroke_c	c	n/a
575.1465	0.157	1150293	keystroke_o	o	n/a
575.236	0.1575	1150472	keystroke_p	p	n/a
575.3715	0.112	1150743	keystroke_y	y	n/a
575.551	0.0785	1151102	keystroke_r	r	n/a
575.686	0.09	1151372	keystroke_i	i	n/a
575.7535	0.1015	1151507	keystroke_g	g	n/a
575.9	0.0895	1151800	keystroke_h	h	n/a
576.001	0.1575	1152002	keystroke_t	t	n/a
576.1135	0.09	1152227	keystroke_e	e	n/a
576.2935	0.1125	1152587	keystroke_d	d	n/a
576.361	0.1015	1152722	keystroke_Key.space	Key.space	n/a
576.5075	0.1235	1153015	keystroke_a	a	n/a
576.609	0.0895	1153218	keystroke_f	f	n/a
576.8	0.0785	1153600	keystroke_r	r	n/a
576.9795	0.0565	1153959	keystroke_i	i	n/a
577.025	0.101	1154050	keystroke_c	c	n/a
577.115	0.09	1154230	keystroke_a	a	n/a
577.261	0.09	1154522	keystroke_n	n	n/a
577.3285	0.1125	1154657	keystroke_Key.space	Key.space	n/a
577.4975	0.1015	1154995	keystroke_h	h	n/a
577.588	0.1345	1155176	keystroke_a	a	n/a
577.6885	0.1015	1155377	keystroke_r	r	n/a
577.8685	0.0675	1155737	keystroke_d	d	n/a
578.06	0.0675	1156120	keystroke_c	c	n/a
578.161	0.0905	1156322	keystroke_o	o	n/a
578.42	0.09	1156840	keystroke_v	v	n/a
578.7125	0.045	1157425	keystroke_e	e	n/a
578.724	0.09	1157448	keystroke_r	r	n/a
578.7915	0.09	1157583	keystroke_Key.space	Key.space	n/a
578.9385	0.089	1157877	keystroke_a	a	n/a
579.0385	0.079	1158077	keystroke_u	u	n/a
579.1735	0.09	1158347	keystroke_d	d	n/a
579.275	0.101	1158550	keystroke_i	i	n/a
579.3985	0.079	1158797	keystroke_e	e	n/a
579.545	0.09	1159090	keystroke_n	n	n/a
579.635	0.09	1159270	keystroke_c	c	n/a
579.838	0.0555	1159676	keystroke_e	e	n/a
580.0855	0.0555	1160171	keystroke_Key.enter	Key.enter	n/a
580.147	6.2055	1160294	prompt	n/a	liberal translate pepper xbox\n
580.715	0.1125	1161430	keystroke_l	l	n/a
580.805	0.0785	1161610	keystroke_i	i	n/a
580.906	0.09	1161812	keystroke_b	b	n/a
581.1085	0.1015	1162217	keystroke_e	e	n/a
581.1535	0.1015	1162307	keystroke_r	r	n/a
581.2885	0.09	1162577	keystroke_a	a	n/a
581.446	0.0905	1162892	keystroke_l	l	n/a
581.581	0.1015	1163162	keystroke_Key.space	Key.space	n/a
581.75	0.0785	1163500	keystroke_t	t	n/a
581.9075	0.1015	1163815	keystroke_r	r	n/a
582.02	0.045	1164040	keystroke_a	a	n/a
582.1775	0.1125	1164355	keystroke_n	n	n/a
582.3685	0.079	1164737	keystroke_s	s	n/a
582.526	0.09	1165052	keystroke_l	l	n/a
582.6275	0.1125	1165255	keystroke_a	a	n/a
582.7625	0.135	1165525	keystroke_t	t	n/a
582.9085	0.09	1165817	keystroke_e	e	n/a
582.976	0.09	1165952	keystroke_Key.space	Key.space	n/a
583.1225	0.0785	1166245	keystroke_p	p	n/a
583.235	0.09	1166470	keystroke_e	e	n/a
583.3365	0.0895	1166673	keystroke_p	p	n/a
583.4825	0.1235	1166965	keystroke_e	e	n/a
583.5725	0.1575	1167145	keystroke_r	r	n/a
583.6855	0.0895	1167371	keystroke_Key.space	Key.space	n/a
584.101	0.068	1168202	keystroke_Key.backspace	Key.backspace	n/a
584.236	0.0565	1168472	keystroke_Key.backspace	Key.backspace	n/a
584.36	0.067	1168720	keystroke_Key.backspace	Key.backspace	n/a
584.5735	0.079	1169147	keystroke_p	p	n/a
584.675	0.1235	1169350	keystroke_e	e	n/a
584.765	0.101	1169530	keystroke_r	r	n/a
584.844	0.0785	1169688	keystroke_Key.space	Key.space	n/a
585.001	0.09	1170002	keystroke_x	x	n/a
585.1925	0.023	1170385	keystroke_o	o	n/a
585.339	0.0445	1170678	keystroke_b	b	n/a
585.5185	0.0565	1171037	keystroke_Key.backspace	Key.backspace	n/a
585.632	0.067	1171264	keystroke_Key.backspace	Key.backspace	n/a
585.7555	0.078	1171511	keystroke_b	b	n/a
585.8675	0.0905	1171735	keystroke_o	o	n/a
585.9915	0.0895	1171983	keystroke_x	x	n/a
586.295	0.056	1172590	keystroke_Key.enter	Key.enter	n/a
586.3585	5.326	1172717	prompt	n/a	qualifications released lovers bugs\n
587.015	0.0675	1174030	keystroke_q	q	n/a
587.1165	0.09	1174233	keystroke_u	u	n/a
587.218	0.0895	1174436	keystroke_a	a	n/a
587.3525	0.1125	1174705	keystroke_l	l	n/a
587.42	0.09	1174840	keystroke_i	i	n/a
587.544	0.0785	1175088	keystroke_f	f	n/a
587.6565	0.0895	1175313	keystroke_i	i	n/a
587.7575	0.0675	1175515	keystroke_c	c	n/a
587.8585	0.1465	1175717	keystroke_a	a	n/a
587.96	0.079	1175920	keystroke_t	t	n/a
588.05	0.1235	1176100	keystroke_i	i	n/a
588.1175	0.146	1176235	keystroke_o	o	n/a
588.2075	0.1125	1176415	keystroke_n	n	n/a
588.275	0.1135	1176550	keystroke_s	s	n/a
588.3555	0.0885	1176711	keystroke_Key.space	Key.space	n/a
588.669	0.0445	1177338	keystroke_e	e	n/a
588.9275	0.0675	1177855	keystroke_Key.backspace	Key.backspace	n/a
589.13	0.101	1178260	keystroke_r	r	n/a
589.2985	0.079	1178597	keystroke_e	e	n/a
589.4675	0.0675	1178935	keystroke_l	l	n/a
589.58	0.079	1179160	keystroke_e	e	n/a
589.6925	0.1465	1179385	keystroke_a	a	n/a
589.794	0.1125	1179588	keystroke_s	s	n/a
589.8615	0.09	1179723	keystroke_e	e	n/a
590.0525	0.101	1180105	keystroke_d	d	n/a
590.131	0.091	1180262	keystroke_Key.space	Key.space	n/a
590.255	0.0785	1180510	keystroke_l	l	n/a
590.4015	0.0675	1180803	keystroke_o	o	n/a
590.5025	0.0785	1181005	keystroke_v	v	n/a
590.6485	0.124	1181297	keystroke_e	e	n/a
590.7385	0.079	1181477	keystroke_r	r	n/a
590.885	0.079	1181770	keystroke_s	s	n/a
590.975	0.0565	1181950	keystroke_Key.space	Key.space	n/a
591.0885	0.089	1182177	keystroke_b	b	n/a
591.2	0.0785	1182400	keystroke_u	u	n/a
591.29	0.0675	1182580	keystroke_g	g	n/a
591.436	0.079	1182872	keystroke_s	s	n/a
591.6275	0.056	1183255	keystroke_Key.enter	Key.enter	n/a
591.6905	5.9225	1183381	prompt	n/a	unsubscribe motorola semi business\n
592.235	0.0675	1184470	keystroke_u	u	n/a
592.405	0.0885	1184810	keystroke_n	n	n/a
592.516	0.079	1185032	keystroke_s	s	n/a
592.6625	0.0785	1185325	keystroke_u	u	n/a
592.9325	0.0785	1185865	keystroke_b	b	n/a
593.169	0.0785	1186338	keystroke_s	s	n/a
593.338	0.0555	1186676	keystroke_c	c	n/a
593.484	0.0785	1186968	keystroke_r	r	n/a
593.5965	0.067	1187193	keystroke_i	i	n/a
593.6975	0.0905	1187395	keystroke_b	b	n/a
593.8215	0.1345	1187643	keystroke_e	e	n/a
593.9225	0.09	1187845	keystroke_Key.space	Key.space	n/a
594.0805	0.112	1188161	keystroke_m	m	n/a
594.1475	0.0905	1188295	keystroke_o	o	n/a
594.2825	0.0785	1188565	keystroke_t	t	n/a
594.3725	0.09	1188745	keystroke_o	o	n/a
594.564	0.0895	1189128	keystroke_r	r	n/a
594.8115	0.067	1189623	keystroke_o	o	n/a
594.981	0.0775	1189962	keystroke_l	l	n/a
595.093	0.0785	1190186	keystroke_a	a	n/a
595.306	0.0565	1190612	keystroke_Key.space	Key.space	n/a
595.43	0.1585	1190860	keystroke_s	s	n/a
595.5885	0.0775	1191177	keystroke_e	e	n/a
595.7225	0.1575	1191445	keystroke_m	m	n/a
595.835	0.124	1191670	keystroke_i	i	n/a
596.0715	0.0895	1192143	keystroke_Key.space	Key.space	n/a
596.4765	0.079	1192953	keystroke_b	b	n/a
596.577	0.09	1193154	keystroke_u	u	n/a
596.6785	0.09	1193357	keystroke_s	s	n/a
596.825	0.114	1193650	keystroke_i	i	n/a
596.893	0.123	1193786	keystroke_n	n	n/a
597.039	0.056	1194078	keystroke_e	e	n/a
597.1735	0.079	1194347	keystroke_s	s	n/a
597.3085	0.09	1194617	keystroke_s	s	n/a
597.556	0.0565	1195112	keystroke_Key.enter	Key.enter	n/a
597.618	5.7215	1195236	prompt	n/a	exhibition mechanics conducting makes\n
598.175	0.0675	1196350	keystroke_e	e	n/a
598.3555	0.0675	1196711	keystroke_x	x	n/a
598.5235	0.0565	1197047	keystroke_c	c	n/a
598.861	0.0675	1197722	keystroke_Key.backspace	Key.backspace	n/a
599.0975	0.101	1198195	keystroke_h	h	n/a
599.176	0.09	1198352	keystroke_i	i	n/a
599.311	0.09	1198622	keystroke_b	b	n/a
599.435	0.0785	1198870	keystroke_i	i	n/a
599.6045	0.0675	1199209	keystroke_t	t	n/a
599.6825	0.1685	1199365	keystroke_i	i	n/a
599.75	0.146	1199500	keystroke_o	o	n/a
599.8625	0.1125	1199725	keystroke_n	n	n/a
599.941	0.1025	1199882	keystroke_Key.space	Key.space	n/a
600.099	0.101	1200198	keystroke_m	m	n/a
600.1775	0.067	1200355	keystroke_e	e	n/a
600.346	0.079	1200692	keystroke_c	c	n/a
600.4475	0.0905	1200895	keystroke_h	h	n/a
600.5485	0.09	1201097	keystroke_a	a	n/a
600.6725	0.1125	1201345	keystroke_n	n	n/a
600.74	0.1015	1201480	keystroke_i	i	n/a
600.8525	0.0675	1201705	keystroke_c	c	n/a
600.9985	0.09	1201997	keystroke_s	s	n/a
601.1	0.079	1202200	keystroke_Key.space	Key.space	n/a
601.2685	0.079	1202537	keystroke_c	c	n/a
601.3585	0.1245	1202717	keystroke_o	o	n/a
601.449	0.0895	1202898	keystroke_n	n	n/a
601.5505	0.0445	1203101	keystroke_d	d	n/a
601.6625	0.0785	1203325	keystroke_u	u	n/a
601.7635	0.058	1203527	keystroke_c	c	n/a
601.9325	0.0675	1203865	keystroke_t	t	n/a
602.101	0.124	1204202	keystroke_i	i	n/a
602.191	0.1135	1204382	keystroke_n	n	n/a
602.27	0.1125	1204540	keystroke_g	g	n/a
602.326	0.09	1204652	keystroke_Key.space	Key.space	n/a
602.506	0.079	1205012	keystroke_m	m	n/a
602.5735	0.0785	1205147	keystroke_a	a	n/a
602.72	0.0785	1205440	keystroke_k	k	n/a
602.8215	0.1455	1205643	keystroke_e	e	n/a
602.9225	0.1125	1205845	keystroke_s	s	n/a
603.26	0.0785	1206520	keystroke_Key.enter	Key.enter	n/a
603.345	6.4295	1206690	prompt	n/a	switching dimensions controversy electronic\n
603.9015	0.079	1207803	keystroke_s	s	n/a
604.0715	0.0775	1208143	keystroke_w	w	n/a
604.205	0.0785	1208410	keystroke_i	i	n/a
604.284	0.067	1208568	keystroke_t	t	n/a
604.464	0.0905	1208928	keystroke_c	c	n/a
604.5545	0.134	1209109	keystroke_h	h	n/a
604.7335	0.135	1209467	keystroke_i	i	n/a
604.8235	0.1015	1209647	keystroke_n	n	n/a
604.914	0.078	1209828	keystroke_g	g	n/a
604.959	0.0785	1209918	keystroke_Key.space	Key.space	n/a
605.1045	0.079	1210209	keystroke_d	d	n/a
605.2395	0.09	1210479	keystroke_i	i	n/a
605.296	0.101	1210592	keystroke_m	m	n/a
605.4195	0.0565	1210839	keystroke_e	e	n/a
605.522	0.089	1211044	keystroke_n	n	n/a
605.622	0.079	1211244	keystroke_s	s	n/a
605.7465	0.202	1211493	keystroke_i	i	n/a
605.8245	0.135	1211649	keystroke_o	o	n/a
605.915	0.101	1211830	keystroke_n	n	n/a
605.9715	0.1005	1211943	keystroke_s	s	n/a
606.05	0.0785	1212100	keystroke_Key.space	Key.space	n/a
606.23	0.101	1212460	keystroke_c	c	n/a
606.3545	0.1115	1212709	keystroke_o	o	n/a
606.4335	0.1	1212867	keystroke_n	n	n/a
606.556	0.0675	1213112	keystroke_t	t	n/a
606.691	0.0785	1213382	keystroke_r	r	n/a
606.7925	0.079	1213585	keystroke_o	o	n/a
606.905	0.1125	1213810	keystroke_v	v	n/a
607.1075	0.1125	1214215	keystroke_e	e	n/a
607.1745	0.08	1214349	keystroke_r	r	n/a
607.3095	0.079	1214619	keystroke_s	s	n/a
607.456	0.09	1214912	keystroke_y	y	n/a
607.5915	0.0785	1215183	keystroke_Key.space	Key.space	n/a
607.861	0.0675	1215722	keystroke_d	d	n/a
608.142	0.079	1216284	keystroke_Key.backspace	Key.backspace	n/a
608.3335	0.0675	1216667	keystroke_e	e	n/a
608.4575	0.067	1216915	keystroke_l	l	n/a
608.5475	0.067	1217095	keystroke_e	e	n/a
608.7495	0.068	1217499	keystroke_c	c	n/a
608.93	0.056	1217860	keystroke_t	t	n/a
609.0655	0.078	1218131	keystroke_r	r	n/a
609.155	0.112	1218310	keystroke_o	o	n/a
609.2785	0.135	1218557	keystroke_n	n	n/a
609.3685	0.1025	1218737	keystroke_i	i	n/a
609.47	0.068	1218940	keystroke_c	c	n/a
609.706	0.0675	1219412	keystroke_Key.enter	Key.enter	n/a
609.7795	5.002	1219559	prompt	n/a	confident mild easter attachment\n
610.471	0.101	1220942	keystroke_c	c	n/a
610.6285	0.1235	1221257	keystroke_o	o	n/a
610.7185	0.1125	1221437	keystroke_n	n	n/a
610.7975	0.0785	1221595	keystroke_f	f	n/a
610.933	0.089	1221866	keystroke_i	i	n/a
611.056	0.0565	1222112	keystroke_d	d	n/a
611.191	0.0675	1222382	keystroke_e	e	n/a
611.3045	0.1	1222609	keystroke_n	n	n/a
611.416	0.101	1222832	keystroke_t	t	n/a
611.506	0.079	1223012	keystroke_Key.space	Key.space	n/a
611.6525	0.1575	1223305	keystroke_m	m	n/a
611.7875	0.1235	1223575	keystroke_i	i	n/a
611.866	0.1235	1223732	keystroke_l	l	n/a
612.0235	0.0675	1224047	keystroke_d	d	n/a
612.1695	0.09	1224339	keystroke_Key.space	Key.space	n/a
612.4065	0.0105	1224813	keystroke_e	e	n/a
612.4845	0.1015	1224969	keystroke_a	a	n/a
612.5525	0.146	1225105	keystroke_s	s	n/a
612.688	0.112	1225376	keystroke_t	t	n/a
612.8675	0.1235	1225735	keystroke_e	e	n/a
612.9235	0.1125	1225847	keystroke_r	r	n/a
613.0025	0.09	1226005	keystroke_Key.space	Key.space	n/a
613.171	0.0905	1226342	keystroke_a	a	n/a
613.3395	0.09	1226679	keystroke_t	t	n/a
613.497	0.1015	1226994	keystroke_t	t	n/a
613.621	0.056	1227242	keystroke_a	a	n/a
613.7335	0.09	1227467	keystroke_c	c	n/a
613.8345	0.0905	1227669	keystroke_h	h	n/a
614.06	0.101	1228120	keystroke_m	m	n/a
614.2285	0.1015	1228457	keystroke_e	e	n/a
614.3185	0.1125	1228637	keystroke_n	n	n/a
614.4885	0.0775	1228977	keystroke_t	t	n/a
614.7125	0.0675	1229425	keystroke_Key.enter	Key.enter	n/a
614.7865	6.1145	1229573	prompt	n/a	bags christine challenged iceland\n
616.445	0.09	1232890	keystroke_b	b	n/a
616.5805	0.1125	1233161	keystroke_a	a	n/a
616.6475	0.1125	1233295	keystroke_g	g	n/a
616.828	0.112	1233656	keystroke_s	s	n/a
616.9065	0.101	1233813	keystroke_Key.space	Key.space	n/a
617.3335	0.079	1234667	keystroke_c	c	n/a
617.4805	0.1005	1234961	keystroke_h	h	n/a
617.5925	0.0785	1235185	keystroke_r	r	n/a
617.705	0.0895	1235410	keystroke_i	i	n/a
617.8065	0.0895	1235613	keystroke_s	s	n/a
617.8625	0.0785	1235725	keystroke_t	t	n/a
617.986	0.1125	1235972	keystroke_i	i	n/a
618.054	0.123	1236108	keystroke_n	n	n/a
618.144	0.0895	1236288	keystroke_e	e	n/a
618.222	0.068	1236444	keystroke_Key.space	Key.space	n/a
618.471	0.0665	1236942	keystroke_c	c	n/a
618.5935	0.079	1237187	keystroke_h	h	n/a
618.6835	0.079	1237367	keystroke_a	a	n/a
618.796	0.0565	1237592	keystroke_l	l	n/a
618.9425	0.056	1237885	keystroke_l	l	n/a
619.0435	0.1015	1238087	keystroke_e	e	n/a
619.156	0.0785	1238312	keystroke_n	n	n/a
619.291	0.135	1238582	keystroke_g	g	n/a
619.438	0.089	1238876	keystroke_e	e	n/a
619.6285	0.079	1239257	keystroke_d	d	n/a
619.685	0.067	1239370	keystroke_Key.space	Key.space	n/a
619.8315	0.078	1239663	keystroke_i	i	n/a
619.9325	0.0785	1239865	keystroke_c	c	n/a
620.124	0.0555	1240248	keystroke_e	e	n/a
620.236	0.0905	1240472	keystroke_l	l	n/a
620.405	0.079	1240810	keystroke_a	a	n/a
620.4945	0.0905	1240989	keystroke_n	n	n/a
620.607	0.0675	1241214	keystroke_d	d	n/a
620.8325	0.0675	1241665	keystroke_Key.enter	Key.enter	n/a
620.9075	5.9295	1241815	prompt	n/a	unix accounts official minds\n
621.5075	0.0785	1243015	keystroke_u	u	n/a
621.6985	0.1235	1243397	keystroke_n	n	n/a
621.789	0.1005	1243578	keystroke_i	i	n/a
621.9015	0.0675	1243803	keystroke_x	x	n/a
621.9915	0.1005	1243983	keystroke_Key.space	Key.space	n/a
622.1375	0.0675	1244275	keystroke_a	a	n/a
622.34	0.0785	1244680	keystroke_c	c	n/a
622.4975	0.09	1244995	keystroke_c	c	n/a
622.61	0.135	1245220	keystroke_o	o	n/a
622.6995	0.09	1245399	keystroke_u	u	n/a
