onset	duration	sample	value	key	prompt_text
1.3265	13.4165	2653	prompt	n/a	the quick brown fox jumps over a lazy dog\n
6.4905	0.0455	12981	keystroke_t	t	n/a
6.5035	0.0775	13007	keystroke_h	h	n/a
6.7165	0.075	13433	keystroke_e	e	n/a
6.881	0.1345	13762	keystroke_Key.space	Key.space	n/a
6.986	0.0895	13972	keystroke_q	q	n/a
7.1205	0.12	14241	keystroke_u	u	n/a
7.2105	0.105	14421	keystroke_i	i	n/a
7.3305	0.075	14661	keystroke_c	c	n/a
7.4955	0.135	14991	keystroke_k	k	n/a
7.6455	0.074	15291	keystroke_Key.space	Key.space	n/a
7.6905	0.0895	15381	keystroke_b	b	n/a
7.9	0.075	15800	keystroke_r	r	n/a
8.035	0.09	16070	keystroke_o	o	n/a
8.2	0.075	16400	keystroke_w	w	n/a
8.3655	0.09	16731	keystroke_n	n	n/a
8.6045	0.061	17209	keystroke_Key.space	Key.space	n/a
8.8455	0.075	17691	keystroke_f	f	n/a
8.995	0.0755	17990	keystroke_o	o	n/a
9.145	0.09	18290	keystroke_x	x	n/a
9.2945	0.1355	18589	keystroke_Key.space	Key.space	n/a
9.4155	0.09	18831	keystroke_j	j	n/a
9.8655	0.0745	19731	keystroke_u	u	n/a
10.1355	0.075	20271	keystroke_m	m	n/a
10.3605	0.074	20721	keystroke_p	p	n/a
10.525	0.0905	21050	keystroke_s	s	n/a
10.675	0.1345	21350	keystroke_Key.space	Key.space	n/a
10.825	0.1205	21650	keystroke_o	o	n/a
10.9305	0.075	21861	keystroke_v	v	n/a
11.1255	0.135	22251	keystroke_e	e	n/a
11.2155	0.0895	22431	keystroke_r	r	n/a
11.3505	0.12	22701	keystroke_Key.space	Key.space	n/a
11.5295	0.0755	23059	keystroke_a	a	n/a
11.62	0.135	23240	keystroke_Key.space	Key.space	n/a
11.725	0.0905	23450	keystroke_l	l	n/a
11.83	0.06	23660	keystroke_a	a	n/a
12.04	0.0455	24080	keystroke_z	z	n/a
12.3255	0.119	24651	keystroke_t	t	n/a
13.0005	0.0895	26001	keystroke_Key.backspace	Key.backspace	n/a
13.211	0.0585	26422	keystroke_y	y	n/a
13.3905	0.1195	26781	keystroke_Key.space	Key.space	n/a
13.5555	0.0895	27111	keystroke_d	d	n/a
13.7205	0.045	27441	keystroke_o	o	n/a
13.945	0.0605	27890	keystroke_g	g	n/a
14.635	0.1055	29270	keystroke_Key.enter	Key.enter	n/a
14.747	8.5455	29494	prompt	n/a	trademarks cognitive corps conflicts\n
15.5195	0.106	31039	keystroke_t	t	n/a
15.6105	0.09	31221	keystroke_r	r	n/a
15.9095	0.0155	31819	keystroke_a	a	n/a
16.0905	0.075	32181	keystroke_d	d	n/a
16.2705	0.06	32541	keystroke_e	e	n/a
16.45	0.09	32900	keystroke_m	m	n/a
16.555	0.0605	33110	keystroke_a	a	n/a
16.735	0.0605	33470	keystroke_r	r	n/a
16.8555	0.075	33711	keystroke_k	k	n/a
16.9905	0.06	33981	keystroke_s	s	n/a
17.1405	0.09	34281	keystroke_Key.space	Key.space	n/a
17.29	0.0755	34580	keystroke_c	c	n/a
17.41	0.0905	34820	keystroke_o	o	n/a
17.605	0.075	35210	keystroke_g	g	n/a
18.1305	0.09	36261	keystroke_n	n	n/a
18.3695	0.076	36739	keystroke_i	i	n/a
18.625	0.076	37250	keystroke_t	t	n/a
18.7755	0.06	37551	keystroke_i	i	n/a
18.9095	0.076	37819	keystroke_v	v	n/a
19.1505	0.06	38301	keystroke_e	e	n/a
19.33	0.0755	38660	keystroke_Key.space	Key.space	n/a
19.4505	0.075	38901	keystroke_c	c	n/a
19.6005	0.105	39201	keystroke_o	o	n/a
19.7655	0.0595	39531	keystroke_r	r	n/a
19.9455	0.075	39891	keystroke_p	p	n/a
20.1105	0.0595	40221	keystroke_s	s	n/a
20.5295	0.076	41059	keystroke_Key.space	Key.space	n/a
20.7555	0.06	41511	keystroke_c	c	n/a
20.8305	0.06	41661	keystroke_o	o	n/a
21.01	0.0755	42020	keystroke_n	n	n/a
21.1005	0.075	42201	keystroke_f	f	n/a
21.2355	0.0895	42471	keystroke_l	l	n/a
21.4155	0.06	42831	keystroke_i	i	n/a
21.5055	0.0605	43011	keystroke_c	c	n/a
21.7455	0.045	43491	keystroke_t	t	n/a
22.045	0.0455	44090	keystroke_s	s	n/a
23.2005	0.09	46401	keystroke_Key.enter	Key.enter	n/a
23.2955	7.692	46591	prompt	n/a	should've perfect elephant but\n
23.936	0.0595	47872	keystroke_s	s	n/a
24.0105	0.075	48021	keystroke_h	h	n/a
24.1605	0.1195	48321	keystroke_o	o	n/a
24.2955	0.075	48591	keystroke_u	u	n/a
24.5055	0.0595	49011	keystroke_l	l	n/a
24.6405	0.075	49281	keystroke_d	d	n/a
24.7905	0.075	49581	keystroke_'	'	n/a
24.9405	0.06	49881	keystroke_v	v	n/a
25.21	0.045	50420	keystroke_e	e	n/a
25.3905	0.075	50781	keystroke_Key.space	Key.space	n/a
25.6005	0.075	51201	keystroke_p	p	n/a
25.6905	0.12	51381	keystroke_e	e	n/a
25.8105	0.075	51621	keystroke_r	r	n/a
26.0055	0.075	52011	keystroke_f	f	n/a
26.2005	0.045	52401	keystroke_e	e	n/a
26.38	0.0605	52760	keystroke_c	c	n/a
26.6505	0.015	53301	keystroke_t	t	n/a
27.1905	0.0895	54381	keystroke_Key.space	Key.space	n/a
27.31	0.0755	54620	keystroke_e	e	n/a
27.4305	0.105	54861	keystroke_l	l	n/a
27.5805	0.06	55161	keystroke_e	e	n/a
27.7	0.0755	55400	keystroke_p	p	n/a
27.9405	0.0745	55881	keystroke_h	h	n/a
28.03	0.0605	56060	keystroke_a	a	n/a
28.1655	0.09	56331	keystroke_n	n	n/a
28.316	0.075	56632	keystroke_d	d	n/a
28.4805	0.0745	56961	keystroke_Key.space	Key.space	n/a
28.7205	0.075	57441	keystroke_b	b	n/a
29.0355	0.0445	58071	keystroke_Key.backspace	Key.backspace	n/a
29.185	0.0455	58370	keystroke_Key.backspace	Key.backspace	n/a
29.3055	0.075	58611	keystroke_Key.backspace	Key.backspace	n/a
29.5605	0.045	59121	keystroke_t	t	n/a
29.6955	0.075	59391	keystroke_Key.space	Key.space	n/a
29.8155	0.06	59631	keystroke_b	b	n/a
29.92	0.0905	59840	keystroke_u	u	n/a
30.0555	0.0605	60111	keystroke_t	t	n/a
30.88	0.1055	61760	keystroke_Key.enter	Key.enter	n/a
30.992	8.4705	61984	prompt	n/a	vocational subjective statistical iceland\n
31.66	0.0905	63320	keystroke_v	v	n/a
31.7655	0.1055	63531	keystroke_o	o	n/a
31.93	0.075	63860	keystroke_c	c	n/a
32.126	0.075	64252	keystroke_a	a	n/a
32.3355	0.0445	64671	keystroke_t	t	n/a
32.4105	0.105	64821	keystroke_i	i	n/a
32.5005	0.0445	65001	keystroke_o	o	n/a
32.665	0.0905	65330	keystroke_n	n	n/a
32.8305	0.045	65661	keystroke_a	a	n/a
32.9355	0.0745	65871	keystroke_l	l	n/a
32.996	0.104	65992	keystroke_Key.space	Key.space	n/a
33.13	0.0455	66260	keystroke_s	s	n/a
33.2205	0.09	66441	keystroke_u	u	n/a
33.355	0.0755	66710	keystroke_b	b	n/a
33.4755	0.0905	66951	keystroke_j	j	n/a
33.6105	0.075	67221	keystroke_e	e	n/a
33.8055	0.0605	67611	keystroke_c	c	n/a
34.015	0.0755	68030	keystroke_t	t	n/a
34.1955	0.09	68391	keystroke_i	i	n/a
34.3455	0.075	68691	keystroke_v	v	n/a
34.5855	0.06	69171	keystroke_e	e	n/a
34.8105	0.06	69621	keystroke_Key.space	Key.space	n/a
34.9455	0.09	69891	keystroke_s	s	n/a
35.1405	0.06	70281	keystroke_u	u	n/a
35.5005	0.075	71001	keystroke_Key.backspace	Key.backspace	n/a
35.5905	0.06	71181	keystroke_t	t	n/a
35.8155	0.075	71631	keystroke_a	a	n/a
36.0555	0.045	72111	keystroke_t	t	n/a
36.2055	0.06	72411	keystroke_i	i	n/a
36.386	0.0595	72772	keystroke_s	s	n/a
36.7005	0.0605	73401	keystroke_t	t	n/a
36.8505	0.0605	73701	keystroke_i	i	n/a
36.9555	0.06	73911	keystroke_c	c	n/a
37.1805	0.045	74361	keystroke_a	a	n/a
37.2705	0.09	74541	keystroke_l	l	n/a
37.421	0.0895	74842	keystroke_Key.space	Key.space	n/a
37.691	0.0595	75382	keystroke_i	i	n/a
37.8255	0.06	75651	keystroke_c	c	n/a
38.1405	0.045	76281	keystroke_l	l	n/a
38.5005	0.045	77001	keystroke_Key.backspace	Key.backspace	n/a
38.5605	0.06	77121	keystroke_e	e	n/a
38.7105	0.09	77421	keystroke_l	l	n/a
38.8455	0.06	77691	keystroke_a	a	n/a
38.9805	0.075	77961	keystroke_n	n	n/a
39.1155	0.06	78231	keystroke_d	d	n/a
39.4005	0.06	78801	keystroke_Key.enter	Key.enter	n/a
39.4655	10.7525	78931	prompt	n/a	simulation scenes closure mortgage\n
40.0905	0.06	80181	keystroke_s	s	n/a
40.3755	0.075	80751	keystroke_i	i	n/a
40.6305	0.06	81261	keystroke_m	m	n/a
40.856	0.0745	81712	keystroke_u	u	n/a
41.246	0.0895	82492	keystroke_l	l	n/a
41.6355	0.03	83271	keystroke_a	a	n/a
41.8755	0.0455	83751	keystroke_t	t	n/a
41.9805	0.12	83961	keystroke_i	i	n/a
42.0705	0.09	84141	keystroke_o	o	n/a
42.3255	0.075	84651	keystroke_n	n	n/a
42.4155	0.105	84831	keystroke_Key.space	Key.space	n/a
42.506	0.0595	85012	keystroke_s	s	n/a
42.7005	0.0605	85401	keystroke_c	c	n/a
42.8655	0.06	85731	keystroke_e	e	n/a
42.971	0.0895	85942	keystroke_n	n	n/a
43.1655	0.075	86331	keystroke_e	e	n/a
43.421	0.0295	86842	keystroke_s	s	n/a
43.6455	0.075	87291	keystroke_Key.space	Key.space	n/a
43.931	0.0745	87862	keystroke_c	c	n/a
44.081	0.0595	88162	keystroke_o	o	n/a
44.3355	0.0455	88671	keystroke_l	l	n/a
44.5455	0.06	89091	keystroke_o	o	n/a
44.9355	0.045	89871	keystroke_Key.backspace	Key.backspace	n/a
45.0555	0.075	90111	keystroke_Key.backspace	Key.backspace	n/a
45.2655	0.075	90531	keystroke_l	l	n/a
45.5805	0.045	91161	keystroke_Key.backspace	Key.backspace	n/a
45.6855	0.06	91371	keystroke_Key.backspace	Key.backspace	n/a
45.8655	0.06	91731	keystroke_l	l	n/a
46.0465	0.059	92093	keystroke_o	o	n/a
46.166	0.0745	92332	keystroke_s	s	n/a
46.3005	0.075	92601	keystroke_u	u	n/a
46.4505	0.0605	92901	keystroke_r	r	n/a
46.6605	0.045	93321	keystroke_e	e	n/a
47.5005	0.1055	95001	keystroke_Key.space	Key.space	n/a
47.726	0.06	95452	keystroke_m	m	n/a
47.861	0.075	95722	keystroke_o	o	n/a
48.011	0.06	96022	keystroke_r	r	n/a
48.146	0.075	96292	keystroke_t	t	n/a
48.431	0.075	96862	keystroke_a	a	n/a
49.121	0.075	98242	keystroke_Key.backspace	Key.backspace	n/a
49.241	0.06	98482	keystroke_g	g	n/a
49.466	0.06	98932	keystroke_a	a	n/a
49.661	0.06	99322	keystroke_g	g	n/a
49.811	0.075	99622	keystroke_e	e	n/a
50.111	0.105	100222	keystroke_Key.enter	Key.enter	n/a
50.2205	8.877	100441	prompt	n/a	basename sticks thought simulation\n
50.921	0.09	101842	keystroke_b	b	n/a
51.281	0.045	102562	keystroke_a	a	n/a
51.521	0.06	103042	keystroke_s	s	n/a
51.716	0.06	103432	keystroke_e	e	n/a
52.106	0.105	104212	keystroke_n	n	n/a
52.7205	0.075	105441	keystroke_a	a	n/a
52.886	0.0745	105772	keystroke_m	m	n/a
53.021	0.0595	106042	keystroke_e	e	n/a
53.246	0.075	106492	keystroke_Key.space	Key.space	n/a
53.411	0.0745	106822	keystroke_s	s	n/a
53.5905	0.075	107181	keystroke_t	t	n/a
53.7405	0.075	107481	keystroke_i	i	n/a
53.936	0.03	107872	keystroke_c	c	n/a
54.1005	0.075	108201	keystroke_k	k	n/a
54.476	0.045	108952	keystroke_s	s	n/a
54.701	0.105	109402	keystroke_Key.space	Key.space	n/a
54.926	0.12	109852	keystroke_t	t	n/a
55.016	0.105	110032	keystroke_h	h	n/a
55.136	0.15	110272	keystroke_o	o	n/a
55.256	0.09	110512	keystroke_u	u	n/a
55.376	0.165	110752	keystroke_g	g	n/a
55.526	0.105	111052	keystroke_h	h	n/a
55.766	0.075	111532	keystroke_t	t	n/a
55.976	0.105	111952	keystroke_Key.space	Key.space	n/a
56.261	0.075	112522	keystroke_s	s	n/a
56.411	0.074	112822	keystroke_i	i	n/a
56.681	0.045	113362	keystroke_m	m	n/a
57.086	0.09	114172	keystroke_u	u	n/a
57.761	0.09	115522	keystroke_l	l	n/a
57.866	0.075	115732	keystroke_a	a	n/a
58.091	0.06	116182	keystroke_t	t	n/a
58.181	0.119	116362	keystroke_i	i	n/a
58.316	0.0445	116632	keystroke_o	o	n/a
58.511	0.074	117022	keystroke_n	n	n/a
59.005	0.091	118010	keystroke_Key.enter	Key.enter	n/a
59.103	10.915	118206	prompt	n/a	nowhere experiencing architects municipal\n
60.0105	0.0605	120021	keystroke_n	n	n/a
60.1605	0.075	120321	keystroke_o	o	n/a
60.2805	0.09	120561	keystroke_w	w	n/a
60.6705	0.09	121341	keystroke_h	h	n/a
60.8505	0.21	121701	keystroke_e	e	n/a
61.1805	0.1355	122361	keystroke_r	r	n/a
61.391	0.09	122782	keystroke_e	e	n/a
61.676	0.105	123352	keystroke_Key.space	Key.space	n/a
61.841	0.06	123682	keystroke_e	e	n/a
62.066	0.075	124132	keystroke_x	x	n/a
62.411	0.06	124822	keystroke_p	p	n/a
62.576	0.135	125152	keystroke_e	e	n/a
62.696	0.105	125392	keystroke_r	r	n/a
62.876	0.09	125752	keystroke_i	i	n/a
63.011	0.09	126022	keystroke_e	e	n/a
63.191	0.09	126382	keystroke_n	n	n/a
63.386	0.045	126772	keystroke_c	c	n/a
63.7155	0.06	127431	keystroke_i	i	n/a
63.911	0.0745	127822	keystroke_n	n	n/a
64.0455	0.06	128091	keystroke_g	g	n/a
64.2705	0.09	128541	keystroke_Key.space	Key.space	n/a
64.5855	0.045	129171	keystroke_a	a	n/a
64.7805	0.06	129561	keystroke_r	r	n/a
65.021	0.0745	130042	keystroke_c	c	n/a
65.171	0.0595	130342	keystroke_h	h	n/a
65.3805	0.0605	130761	keystroke_i	i	n/a
65.5305	0.075	131061	keystroke_t	t	n/a
65.7255	0.06	131451	keystroke_e	e	n/a
66.3405	0.0905	132681	keystroke_c	c	n/a
66.6405	0.0605	133281	keystroke_t	t	n/a
66.926	0.045	133852	keystroke_s	s	n/a
67.076	0.09	134152	keystroke_Key.space	Key.space	n/a
67.301	0.075	134602	keystroke_m	m	n/a
67.541	0.075	135082	keystroke_u	u	n/a
67.721	0.09	135442	keystroke_n	n	n/a
67.975	0.061	135950	keystroke_i	i	n/a
68.321	0.12	136642	keystroke_c	c	n/a
68.471	0.09	136942	keystroke_i	i	n/a
68.771	0.105	137542	keystroke_p	p	n/a
68.921	0.075	137842	keystroke_a	a	n/a
69.071	0.12	138142	keystroke_l	l	n/a
69.8505	0.165	139701	keystroke_Key.enter	Key.enter	n/a
70.0215	9.821	140043	prompt	n/a	benefits macro destroyed champions\n
70.811	0.0745	141622	keystroke_b	b	n/a
71.0505	0.075	142101	keystroke_e	e	n/a
71.2155	0.075	142431	keystroke_n	n	n/a
71.3505	0.0905	142701	keystroke_e	e	n/a
71.591	0.09	143182	keystroke_f	f	n/a
71.786	0.075	143572	keystroke_i	i	n/a
71.9505	0.075	143901	keystroke_t	t	n/a
72.28	0.076	144560	keystroke_s	s	n/a
72.416	0.119	144832	keystroke_Key.space	Key.space	n/a
72.596	0.089	145192	keystroke_m	m	n/a
72.701	0.0595	145402	keystroke_a	a	n/a
72.955	0.076	145910	keystroke_c	c	n/a
73.21	0.03	146420	keystroke_r	r	n/a
73.39	0.091	146780	keystroke_o	o	n/a
73.8405	0.09	147681	keystroke_Key.space	Key.space	n/a
73.991	0.0745	147982	keystroke_d	d	n/a
74.2155	0.06	148431	keystroke_e	e	n/a
74.411	0.0595	148822	keystroke_s	s	n/a
74.7105	0.075	149421	keystroke_t	t	n/a
74.891	0.075	149782	keystroke_r	r	n/a
75.056	0.09	150112	keystroke_o	o	n/a
75.641	0.075	151282	keystroke_y	y	n/a
75.806	0.06	151612	keystroke_g	g	n/a
76.046	0.06	152092	keystroke_e	e	n/a
76.346	0.03	152692	keystroke_Key.backspace	Key.backspace	n/a
76.466	0.075	152932	keystroke_Key.backspace	Key.backspace	n/a
76.526	0.075	153052	keystroke_e	e	n/a
76.721	0.075	153442	keystroke_d	d	n/a
76.901	0.09	153802	keystroke_Key.space	Key.space	n/a
77.366	0.075	154732	keystroke_c	c	n/a
77.501	0.09	155002	keystroke_h	h	n/a
77.651	0.075	155302	keystroke_a	a	n/a
77.771	0.075	155542	keystroke_m	m	n/a
77.966	0.075	155932	keystroke_p	p	n/a
78.206	0.12	156412	keystroke_i	i	n/a
78.296	0.09	156592	keystroke_o	o	n/a
78.566	0.03	157132	keystroke_n	n	n/a
78.746	0.03	157492	keystroke_s	s	n/a
79.7205	0.12	159441	keystroke_Key.enter	Key.enter	n/a
79.8455	9.0565	159691	prompt	n/a	reseller flyer survey transmit\n
80.636	0.06	161272	keystroke_r	r	n/a
80.771	0.075	161542	keystroke_e	e	n/a
80.996	0.06	161992	keystroke_s	s	n/a
81.206	0.045	162412	keystroke_e	e	n/a
81.311	0.075	162622	keystroke_l	l	n/a
81.461	0.105	162922	keystroke_l	l	n/a
81.641	0.1495	163282	keystroke_e	e	n/a
81.775	0.075	163550	keystroke_r	r	n/a
81.9555	0.1045	163911	keystroke_Key.space	Key.space	n/a
82.061	0.074	164122	keystroke_f	f	n/a
82.5105	0.0895	165021	keystroke_l	l	n/a
82.9	0.075	165800	keystroke_y	y	n/a
83.02	0.1355	166040	keystroke_e	e	n/a
83.14	0.1055	166280	keystroke_r	r	n/a
83.711	0.075	167422	keystroke_Key.space	Key.space	n/a
83.891	0.075	167782	keystroke_s	s	n/a
84.056	0.075	168112	keystroke_u	u	n/a
84.175	0.075	168350	keystroke_r	r	n/a
84.385	0.0455	168770	keystroke_v	v	n/a
84.745	0.06	169490	keystroke_e	e	n/a
84.925	0.106	169850	keystroke_y	y	n/a
85.435	0.12	170870	keystroke_Key.space	Key.space	n/a
85.811	0.135	171622	keystroke_t	t	n/a
85.9305	0.0755	171861	keystroke_r	r	n/a
86.216	0.044	172432	keystroke_a	a	n/a
86.335	0.106	172670	keystroke_n	n	n/a
86.5455	0.06	173091	keystroke_s	s	n/a
86.6805	0.1195	173361	keystroke_m	m	n/a
86.89	0.091	173780	keystroke_i	i	n/a
87.055	0.091	174110	keystroke_t	t	n/a
88.811	0.09	177622	keystroke_Key.enter	Key.enter	n/a
88.905	8.9375	177810	prompt	n/a	comparing microwave hear finishing\n
89.651	0.105	179302	keystroke_c	c	n/a
89.815	0.076	179630	keystroke_o	o	n/a
89.981	0.06	179962	keystroke_m	m	n/a
90.206	0.06	180412	keystroke_p	p	n/a
90.686	0.09	181372	keystroke_a	a	n/a
90.941	0.075	181882	keystroke_r	r	n/a
91.061	0.09	182122	keystroke_i	i	n/a
91.241	0.09	182482	keystroke_n	n	n/a
91.406	0.06	182812	keystroke_g	g	n/a
91.811	0.12	183622	keystroke_Key.space	Key.space	n/a
92.426	0.12	184852	keystroke_m	m	n/a
92.561	0.105	185122	keystroke_i	i	n/a
92.726	0.09	185452	keystroke_c	c	n/a
93.025	0.1355	186050	keystroke_o	o	n/a
93.536	0.0895	187072	keystroke_Key.backspace	Key.backspace	n/a
93.6405	0.06	187281	keystroke_r	r	n/a
93.7905	0.09	187581	keystroke_o	o	n/a
94.0305	0.0455	188061	keystroke_w	w	n/a
94.2555	0.045	188511	keystroke_a	a	n/a
94.5255	0.06	189051	keystroke_v	v	n/a
94.736	0.0745	189472	keystroke_e	e	n/a
94.916	0.0895	189832	keystroke_Key.space	Key.space	n/a
95.1255	0.075	190251	keystroke_h	h	n/a
95.231	0.0445	190462	keystroke_e	e	n/a
95.3955	0.0455	190791	keystroke_a	a	n/a
95.561	0.075	191122	keystroke_r	r	n/a
95.651	0.075	191302	keystroke_Key.space	Key.space	n/a
95.741	0.075	191482	keystroke_f	f	n/a
95.846	0.045	191692	keystroke_i	i	n/a
96.026	0.075	192052	keystroke_n	n	n/a
96.146	0.12	192292	keystroke_i	i	n/a
96.311	0.09	192622	keystroke_s	s	n/a
96.431	0.075	192862	keystroke_h	h	n/a
96.521	0.075	193042	keystroke_i	i	n/a
96.7905	0.045	193581	keystroke_g	g	n/a
97.181	0.0595	194362	keystroke_Key.backspace	Key.backspace	n/a
97.4055	0.0755	194811	keystroke_n	n	n/a
97.4955	0.06	194991	keystroke_g	g	n/a
97.781	0.06	195562	keystroke_Key.enter	Key.enter	n/a
97.8455	8.7865	195691	prompt	n/a	yugoslavia emphasis plane anymore\n
99.266	0.075	198532	keystroke_y	y	n/a
99.716	0.09	199432	keystroke_u	u	n/a
99.956	0.09	199912	keystroke_g	g	n/a
100.106	0.09	200212	keystroke_o	o	n/a
100.421	0.075	200842	keystroke_s	s	n/a
100.796	0.0895	201592	keystroke_l	l	n/a
100.9305	0.075	201861	keystroke_a	a	n/a
101.2005	0.075	202401	keystroke_v	v	n/a
101.3505	0.09	202701	keystroke_i	i	n/a
101.5455	0.075	203091	keystroke_a	a	n/a
101.7105	0.09	203421	keystroke_Key.space	Key.space	n/a
101.936	0.0595	203872	keystroke_e	e	n/a
102.0555	0.06	204111	keystroke_m	m	n/a
102.266	0.06	204532	keystroke_p	p	n/a
102.491	0.075	204982	keystroke_h	h	n/a
102.671	0.075	205342	keystroke_a	a	n/a
102.911	0.045	205822	keystroke_s	s	n/a
103.076	0.09	206152	keystroke_i	i	n/a
103.271	0.075	206542	keystroke_s	s	n/a
103.585	0.0755	207170	keystroke_Key.space	Key.space	n/a
103.916	0.075	207832	keystroke_p	p	n/a
104.065	0.0905	208130	keystroke_l	l	n/a
104.2	0.075	208400	keystroke_a	a	n/a
104.38	0.061	208760	keystroke_n	n	n/a
104.5	0.061	209000	keystroke_e	e	n/a
104.635	0.075	209270	keystroke_Key.space	Key.space	n/a
104.756	0.06	209512	keystroke_a	a	n/a
104.845	0.075	209690	keystroke_n	n	n/a
105.296	0.15	210592	keystroke_y	y	n/a
105.595	0.18	211190	keystroke_m	m	n/a
105.745	0.121	211490	keystroke_o	o	n/a
105.896	0.165	211792	keystroke_r	r	n/a
106.075	0.075	212150	keystroke_e	e	n/a
106.5405	0.09	213081	keystroke_Key.enter	Key.enter	n/a
106.6345	6.5975	213269	prompt	n/a	watt proteins cold oakland\n
107.2605	0.075	214521	keystroke_w	w	n/a
107.5305	0.06	215061	keystroke_a	a	n/a
107.8455	0.06	215691	keystroke_t	t	n/a
107.9805	0.075	215961	keystroke_t	t	n/a
108.1605	0.105	216321	keystroke_Key.space	Key.space	n/a
108.3555	0.09	216711	keystroke_p	p	n/a
108.4905	0.03	216981	keystroke_r	r	n/a
108.5955	0.06	217191	keystroke_o	o	n/a
108.7305	0.0755	217461	keystroke_t	t	n/a
108.91	0.075	217820	keystroke_e	e	n/a
109.105	0.075	218210	keystroke_i	i	n/a
109.3	0.075	218600	keystroke_n	n	n/a
109.495	0.075	218990	keystroke_s	s	n/a
109.735	0.06	219470	keystroke_Key.space	Key.space	n/a
109.855	0.061	219710	keystroke_c	c	n/a
110.05	0.09	220100	keystroke_o	o	n/a
110.23	0.03	220460	keystroke_u	u	n/a
110.62	0.061	221240	keystroke_Key.backspace	Key.backspace	n/a
110.83	0.09	221660	keystroke_l	l	n/a
110.9655	0.0745	221931	keystroke_d	d	n/a
111.175	0.0905	222350	keystroke_Key.space	Key.space	n/a
111.4005	0.0595	222801	keystroke_o	o	n/a
111.7905	0.075	223581	keystroke_a	a	n/a
111.91	0.06	223820	keystroke_k	k	n/a
112.1055	0.0745	224211	keystroke_l	l	n/a
112.225	0.075	224450	keystroke_a	a	n/a
112.39	0.076	224780	keystroke_n	n	n/a
112.5105	0.0755	225021	keystroke_d	d	n/a
113.1255	0.1055	226251	keystroke_Key.enter	Key.enter	n/a
113.235	10.9625	226470	prompt	n/a	send javascript proceed trivia\n
113.8	0.09	227600	keystroke_s	s	n/a
114.056	0.074	228112	keystroke_e	e	n/a
114.205	0.09	228410	keystroke_n	n	n/a
114.385	0.06	228770	keystroke_d	d	n/a
114.521	0.074	229042	keystroke_Key.space	Key.space	n/a
114.715	0.075	229430	keystroke_j	j	n/a
114.85	0.0605	229700	keystroke_a	a	n/a
115.12	0.06	230240	keystroke_v	v	n/a
115.3305	0.0605	230661	keystroke_a	a	n/a
115.796	0.0595	231592	keystroke_s	s	n/a
116.0055	0.075	232011	keystroke_c	c	n/a
116.2155	0.0605	232431	keystroke_r	r	n/a
116.4705	0.09	232941	keystroke_i	i	n/a
116.7255	0.09	233451	keystroke_p	p	n/a
116.9355	0.03	233871	keystroke_t	t	n/a
117.1605	0.0905	234321	keystroke_Key.space	Key.space	n/a
117.341	0.075	234682	keystroke_p	p	n/a
117.461	0.06	234922	keystroke_r	r	n/a
117.626	0.09	235252	keystroke_o	o	n/a
118.5555	0.075	237111	keystroke_c	c	n/a
118.8105	0.0595	237621	keystroke_e	e	n/a
118.99	0.0755	237980	keystroke_e	e	n/a
120.0105	0.06	240021	keystroke_d	d	n/a
121.8105	0.1045	243621	keystroke_Key.space	Key.space	n/a
122.981	0.045	245962	keystroke_t	t	n/a
123.1455	0.06	246291	keystroke_r	r	n/a
123.3855	0.075	246771	keystroke_i	i	n/a
123.5205	0.075	247041	keystroke_v	v	n/a
123.7155	0.045	247431	keystroke_i	i	n/a
123.8805	0.06	247761	keystroke_a	a	n/a
124.1505	0.045	248301	keystroke_Key.enter	Key.enter	n/a
124.2005	5.9665	248401	prompt	n/a	problems planning cash market\n
124.8855	0.075	249771	keystroke_p	p	n/a
125.0055	0.06	250011	keystroke_r	r	n/a
125.1405	0.12	250281	keystroke_l	l	n/a
125.276	0.0745	250552	keystroke_b	b	n/a
125.8005	0.045	251601	keystroke_Key.backspace	Key.backspace	n/a
125.9205	0.075	251841	keystroke_Key.backspace	Key.backspace	n/a
126.056	0.1045	252112	keystroke_o	o	n/a
126.2055	0.06	252411	keystroke_b	b	n/a
126.3555	0.045	252711	keystroke_l	l	n/a
126.4455	0.075	252891	keystroke_e	e	n/a
126.611	0.0595	253222	keystroke_m	m	n/a
126.76	0.075	253520	keystroke_s	s	n/a
127.136	0.075	254272	keystroke_Key.space	Key.space	n/a
127.391	0.074	254782	keystroke_p	p	n/a
127.495	0.0905	254990	keystroke_l	l	n/a
127.615	0.0755	255230	keystroke_a	a	n/a
127.78	0.0605	255560	keystroke_n	n	n/a
127.9	0.105	255800	keystroke_n	n	n/a
128.05	0.1655	256100	keystroke_i	i	n/a
128.2	0.09	256400	keystroke_n	n	n/a
128.335	0.06	256670	keystroke_g	g	n/a
128.575	0.015	257150	keystroke_Key.space	Key.space	n/a
128.62	0.0755	257240	keystroke_c	c	n/a
128.831	0.075	257662	keystroke_a	a	n/a
128.921	0.075	257842	keystroke_s	s	n/a
129.025	0.106	258050	keystroke_h	h	n/a
129.145	0.06	258290	keystroke_Key.space	Key.space	n/a
129.295	0.076	258590	keystroke_m	m	n/a
129.4	0.076	258800	keystroke_a	a	n/a
129.55	0.0755	259100	keystroke_r	r	n/a
129.67	0.076	259340	keystroke_k	k	n/a
129.76	0.091	259520	keystroke_e	e	n/a
129.896	0.074	259792	keystroke_t	t	n/a
130.106	0.059	260212	keystroke_Key.enter	Key.enter	n/a
130.1695	6.0725	260339	prompt	n/a	comedy built likely effect\n
130.72	0.105	261440	keystroke_c	c	n/a
130.87	0.09	261740	keystroke_o	o	n/a
131.2755	0.0595	262551	keystroke_m	m	n/a
131.38	0.0605	262760	keystroke_e	e	n/a
131.56	0.06	263120	keystroke_d	d	n/a
131.6805	0.1205	263361	keystroke_y	y	n/a
131.8905	0.09	263781	keystroke_Key.space	Key.space	n/a
132.0555	0.075	264111	keystroke_b	b	n/a
132.1755	0.06	264351	keystroke_u	u	n/a
132.4455	0.105	264891	keystroke_l	l	n/a
132.9105	0.06	265821	keystroke_Key.backspace	Key.backspace	n/a
133.0605	0.09	266121	keystroke_i	i	n/a
133.2855	0.075	266571	keystroke_l	l	n/a
133.436	0.0595	266872	keystroke_t	t	n/a
133.6605	0.075	267321	keystroke_Key.space	Key.space	n/a
134.006	0.074	268012	keystroke_l	l	n/a
134.155	0.075	268310	keystroke_i	i	n/a
134.3205	0.075	268641	keystroke_k	k	n/a
134.4105	0.075	268821	keystroke_e	e	n/a
134.5155	0.09	269031	keystroke_l	l	n/a
134.6955	0.06	269391	keystroke_y	y	n/a
134.8155	0.09	269631	keystroke_Key.space	Key.space	n/a
134.9955	0.06	269991	keystroke_e	e	n/a
135.1755	0.06	270351	keystroke_f	f	n/a
135.311	0.0595	270622	keystroke_f	f	n/a
135.4605	0.06	270921	keystroke_e	e	n/a
135.6255	0.075	271251	keystroke_c	c	n/a
135.8355	0.075	271671	keystroke_t	t	n/a
136.1655	0.075	272331	keystroke_Key.enter	Key.enter	n/a
136.245	8.532	272490	prompt	n/a	recycling selecting bryant stats\n
136.9455	0.06	273891	keystroke_r	r	n/a
137.126	0.0895	274252	keystroke_e	e	n/a
137.351	0.0595	274702	keystroke_c	c	n/a
137.6205	0.105	275241	keystroke_y	y	n/a
138.0255	0.06	276051	keystroke_c	c	n/a
138.1905	0.09	276381	keystroke_l	l	n/a
138.3705	0.06	276741	keystroke_i	i	n/a
138.5655	0.09	277131	keystroke_n	n	n/a
138.701	0.075	277402	keystroke_g	g	n/a
138.9105	0.0755	277821	keystroke_Key.space	Key.space	n/a
139.121	0.0595	278242	keystroke_s	s	n/a
139.301	0.0595	278602	keystroke_e	e	n/a
139.4205	0.1055	278841	keystroke_l	l	n/a
139.511	0.0595	279022	keystroke_e	e	n/a
139.6755	0.075	279351	keystroke_c	c	n/a
139.9155	0.06	279831	keystroke_t	t	n/a
140.036	0.1045	280072	keystroke_i	i	n/a
140.3205	0.0905	280641	keystroke_n	n	n/a
140.5155	0.075	281031	keystroke_g	g	n/a
140.7105	0.0905	281421	keystroke_Key.space	Key.space	n/a
140.936	0.0595	281872	keystroke_b	b	n/a
141.2655	0.045	282531	keystroke_r	r	n/a
141.4005	0.09	282801	keystroke_y	y	n/a
141.8505	0.06	283701	keystroke_a	a	n/a
142.0305	0.075	284061	keystroke_n	n	n/a
142.2105	0.075	284421	keystroke_t	t	n/a
142.4055	0.06	284811	keystroke_Key.space	Key.space	n/a
142.5405	0.09	285081	keystroke_s	s	n/a
142.7955	0.015	285591	keystroke_t	t	n/a
143.0055	0.09	286011	keystroke_a	a	n/a
143.261	0.045	286522	keystroke_t	t	n/a
143.47	0.061	286940	keystroke_s	s	n/a
144.701	0.0745	289402	keystroke_Key.enter	Key.enter	n/a
144.7795	4.573	289559	prompt	n/a	limits middle early please\n
145.42	0.06	290840	keystroke_l	l	n/a
145.585	0.06	291170	keystroke_i	i	n/a
145.78	0.136	291560	keystroke_m	m	n/a
145.9	0.12	291800	keystroke_i	i	n/a
146.035	0.06	292070	keystroke_t	t	n/a
146.26	0.076	292520	keystroke_s	s	n/a
146.38	0.105	292760	keystroke_Key.space	Key.space	n/a
146.5	0.136	293000	keystroke_m	m	n/a
146.636	0.119	293272	keystroke_i	i	n/a
146.74	0.061	293480	keystroke_d	d	n/a
146.8755	0.075	293751	keystroke_d	d	n/a
146.9655	0.09	293931	keystroke_l	l	n/a
147.1155	0.06	294231	keystroke_e	e	n/a
147.2055	0.075	294411	keystroke_Key.space	Key.space	n/a
147.2955	0.0755	294591	keystroke_e	e	n/a
147.4905	0.045	294981	keystroke_a	a	n/a
147.6255	0.0755	295251	keystroke_r	r	n/a
147.7455	0.075	295491	keystroke_l	l	n/a
147.881	0.0595	295762	keystroke_y	y	n/a
147.9855	0.0905	295971	keystroke_Key.space	Key.space	n/a
148.0905	0.105	296181	keystroke_p	p	n/a
148.166	0.1345	296332	keystroke_l	l	n/a
148.2855	0.06	296571	keystroke_e	e	n/a
148.4805	0.1055	296961	keystroke_a	a	n/a
148.5555	0.12	297111	keystroke_s	s	n/a
148.8105	0.045	297621	keystroke_e	e	n/a
149.2755	0.075	298551	keystroke_Key.enter	Key.enter	n/a
149.3565	9.2655	298713	prompt	n/a	compared proudly nuclear upset\n
149.89	0.0605	299780	keystroke_c	c	n/a
149.98	0.09	299960	keystroke_o	o	n/a
150.145	0.076	300290	keystroke_m	m	n/a
150.34	0.06	300680	keystroke_p	p	n/a
150.401	0.0745	300802	keystroke_a	a	n/a
150.625	0.061	301250	keystroke_r	r	n/a
150.7755	0.0445	301551	keystroke_e	e	n/a
151.211	0.059	302422	keystroke_d	d	n/a
151.42	0.075	302840	keystroke_Key.space	Key.space	n/a
151.72	0.0905	303440	keystroke_p	p	n/a
151.9	0.045	303800	keystroke_r	r	n/a
151.975	0.076	303950	keystroke_o	o	n/a
152.095	0.09	304190	keystroke_d	d	n/a
152.2305	0.0745	304461	keystroke_u	u	n/a
152.8005	0.105	305601	keystroke_Key.backspace	Key.backspace	n/a
153.46	0.0755	306920	keystroke_d	d	n/a
154.0155	0.06	308031	keystroke_Key.backspace	Key.backspace	n/a
154.526	0.03	309052	keystroke_u	u	n/a
154.7955	0.0445	309591	keystroke_Key.backspace	Key.backspace	n/a
154.915	0.075	309830	keystroke_Key.backspace	Key.backspace	n/a
155.14	0.09	310280	keystroke_u	u	n/a
155.275	0.075	310550	keystroke_d	d	n/a
155.4555	0.075	310911	keystroke_l	l	n/a
155.62	0.0605	311240	keystroke_y	y	n/a
155.845	0.09	311690	keystroke_Key.space	Key.space	n/a
156.1305	0.075	312261	keystroke_n	n	n/a
156.46	0.0455	312920	keystroke_u	u	n/a
156.715	0.075	313430	keystroke_c	c	n/a
156.895	0.075	313790	keystroke_l	l	n/a
156.971	0.0595	313942	keystroke_e	e	n/a
157.165	0.06	314330	keystroke_a	a	n/a
157.3455	0.0595	314691	keystroke_r	r	n/a
157.465	0.06	314930	keystroke_Key.space	Key.space	n/a
157.6005	0.0595	315201	keystroke_u	u	n/a
157.78	0.09	315560	keystroke_p	p	n/a
157.8855	0.0595	315771	keystroke_s	s	n/a
158.095	0.075	316190	keystroke_e	e	n/a
158.23	0.09	316460	keystroke_t	t	n/a
158.561	0.0595	317122	keystroke_Key.enter	Key.enter	n/a
158.624	8.5185	317248	prompt	n/a	fabulous terrorist skills pensions\n
159.2205	0.06	318441	keystroke_f	f	n/a
159.4755	0.06	318951	keystroke_a	a	n/a
159.956	0.09	319912	keystroke_c	c	n/a
160.5255	0.09	321051	keystroke_Key.backspace	Key.backspace	n/a
160.6455	0.06	321291	keystroke_b	b	n/a
160.796	0.075	321592	keystroke_u	u	n/a
161.081	0.075	322162	keystroke_l	l	n/a
161.3055	0.0905	322611	keystroke_o	o	n/a
161.485	0.06	322970	keystroke_u	u	n/a
161.621	0.06	323242	keystroke_s	s	n/a
161.785	0.075	323570	keystroke_Key.space	Key.space	n/a
161.935	0.09	323870	keystroke_t	t	n/a
162.145	0.075	324290	keystroke_e	e	n/a
162.37	0.075	324740	keystroke_r	r	n/a
162.52	0.09	325040	keystroke_r	r	n/a
163.045	0.1055	326090	keystroke_o	o	n/a
163.4805	0.0595	326961	keystroke_r	r	n/a
163.6005	0.0745	327201	keystroke_i	i	n/a
163.7355	0.0745	327471	keystroke_s	s	n/a
163.96	0.045	327920	keystroke_t	t	n/a
164.155	0.09	328310	keystroke_Key.space	Key.space	n/a
164.38	0.076	328760	keystroke_s	s	n/a
164.5	0.076	329000	keystroke_k	k	n/a
164.726	0.059	329452	keystroke_i	i	n/a
164.935	0.045	329870	keystroke_l	l	n/a
165.04	0.091	330080	keystroke_l	l	n/a
165.265	0.06	330530	keystroke_s	s	n/a
165.43	0.1205	330860	keystroke_Key.space	Key.space	n/a
165.6105	0.0595	331221	keystroke_p	p	n/a
165.76	0.0605	331520	keystroke_e	e	n/a
165.94	0.06	331880	keystroke_n	n	n/a
166.09	0.06	332180	keystroke_s	s	n/a
166.241	0.09	332482	keystroke_i	i	n/a
166.315	0.075	332630	keystroke_o	o	n/a
166.526	0.074	333052	keystroke_n	n	n/a
166.6605	0.0745	333321	keystroke_s	s	n/a
167.08	0.06	334160	keystroke_Key.enter	Key.enter	n/a
167.1455	5.352	334291	prompt	n/a	for organize cloth stevens\n
167.725	0.075	335450	keystroke_f	f	n/a
167.845	0.1055	335690	keystroke_o	o	n/a
167.9805	0.0745	335961	keystroke_r	r	n/a
168.0855	0.12	336171	keystroke_Key.space	Key.space	n/a
168.206	0.1045	336412	keystroke_o	o	n/a
168.49	0.091	336980	keystroke_r	r	n/a
168.7005	0.0745	337401	keystroke_g	g	n/a
169	0.0755	338000	keystroke_a	a	n/a
169.1355	0.1645	338271	keystroke_n	n	n/a
169.315	0.075	338630	keystroke_i	i	n/a
169.42	0.0605	338840	keystroke_z	z	n/a
169.675	0.06	339350	keystroke_e	e	n/a
169.7955	0.105	339591	keystroke_Key.space	Key.space	n/a
169.9305	0.105	339861	keystroke_c	c	n/a
170.095	0.09	340190	keystroke_l	l	n/a
170.305	0.09	340610	keystroke_o	o	n/a
170.38	0.135	340760	keystroke_t	t	n/a
170.4705	0.09	340941	keystroke_h	h	n/a
170.605	0.12	341210	keystroke_Key.space	Key.space	n/a
170.8005	0.0745	341601	keystroke_s	s	n/a
171.025	0.075	342050	keystroke_t	t	n/a
171.22	0.075	342440	keystroke_e	e	n/a
171.46	0.075	342920	keystroke_v	v	n/a
171.6855	0.0595	343371	keystroke_e	e	n/a
171.865	0.0905	343730	keystroke_n	n	n/a
172.03	0.075	344060	keystroke_s	s	n/a
172.436	0.059	344872	keystroke_Key.enter	Key.enter	n/a
172.5005	11.832	345001	prompt	n/a	electric diary targeted finish\n
173.126	0.0745	346252	keystroke_e	e	n/a
173.306	0.06	346612	keystroke_l	l	n/a
173.38	0.075	346760	keystroke_e	e	n/a
173.635	0.061	347270	keystroke_x	x	n/a
174.52	0.0905	349040	keystroke_Key.backspace	Key.backspace	n/a
174.715	0.075	349430	keystroke_c	c	n/a
174.9855	0.1045	349971	keystroke_t	t	n/a
175.135	0.09	350270	keystroke_r	r	n/a
175.405	0.0155	350810	keystroke_i	i	n/a
175.495	0.075	350990	keystroke_c	c	n/a
175.6605	0.0895	351321	keystroke_Key.space	Key.space	n/a
175.855	0.105	351710	keystroke_d	d	n/a
176.5	0.105	353000	keystroke_i	i	n/a
176.95	0.0755	353900	keystroke_a	a	n/a
177.1755	0.06	354351	keystroke_r	r	n/a
177.4305	0.0755	354861	keystroke_y	y	n/a
178.001	0.1045	356002	keystroke_Key.space	Key.space	n/a
179.0805	0.075	358161	keystroke_t	t	n/a
179.3505	0.09	358701	keystroke_a	a	n/a
179.5605	0.075	359121	keystroke_r	r	n/a
179.8305	0.075	359661	keystroke_g	g	n/a
180.0705	0.09	360141	keystroke_e	e	n/a
180.2955	0.09	360591	keystroke_t	t	n/a
180.6255	0.06	361251	keystroke_e	e	n/a
180.8805	0.09	361761	keystroke_s	s	n/a
181.2105	0.1505	362421	keystroke_Key.space	Key.space	n/a
181.676	0.0445	363352	keystroke_Key.backspace	Key.backspace	n/a
181.8095	0.091	363619	keystroke_Key.backspace	Key.backspace	n/a
181.901	0.0895	363802	keystroke_d	d	n/a
182.1105	0.105	364221	keystroke_Key.space	Key.space	n/a
182.231	0.0895	364462	keystroke_f	f	n/a
182.3805	0.0905	364761	keystroke_i	i	n/a
182.6055	0.135	365211	keystroke_n	n	n/a
182.7255	0.105	365451	keystroke_i	i	n/a
182.8905	0.06	365781	keystroke_s	s	n/a
183.0555	0.0755	366111	keystroke_h	h	n/a
184.24	0.09	368480	keystroke_Key.enter	Key.enter	n/a
184.3355	9.6415	368671	prompt	n/a	cooler options circulation apparently\n
185.17	0.06	370340	keystroke_c	c	n/a
185.29	0.09	370580	keystroke_o	o	n/a
185.47	0.09	370940	keystroke_o	o	n/a
185.74	0.0905	371480	keystroke_l	l	n/a
185.89	0.18	371780	keystroke_e	e	n/a
186.055	0.09	372110	keystroke_r	r	n/a
186.6555	0.075	373311	keystroke_Key.space	Key.space	n/a
186.9255	0.12	373851	keystroke_o	o	n/a
187.0155	0.09	374031	keystroke_p	p	n/a
187.2405	0.06	374481	keystroke_t	t	n/a
187.3455	0.105	374691	keystroke_i	i	n/a
187.4355	0.075	374871	keystroke_o	o	n/a
187.6755	0.075	375351	keystroke_n	n	n/a
187.8255	0.06	375651	keystroke_s	s	n/a
188.3505	0.105	376701	keystroke_Key.space	Key.space	n/a
188.6805	0.09	377361	keystroke_c	c	n/a
188.8755	0.0595	377751	keystroke_i	i	n/a
189.235	0.075	378470	keystroke_r	r	n/a
189.64	0.045	379280	keystroke_c	c	n/a
189.73	0.075	379460	keystroke_u	u	n/a
190.03	0.06	380060	keystroke_l	l	n/a
190.135	0.0605	380270	keystroke_a	a	n/a
190.405	0.06	380810	keystroke_t	t	n/a
190.54	0.1205	381080	keystroke_i	i	n/a
190.645	0.075	381290	keystroke_o	o	n/a
191.005	0.06	382010	keystroke_n	n	n/a
191.2455	0.0895	382491	keystroke_Key.space	Key.space	n/a
191.3955	0.1045	382791	keystroke_a	a	n/a
191.5455	0.0745	383091	keystroke_p	p	n/a
191.7255	0.0745	383451	keystroke_p	p	n/a
192.1905	0.075	384381	keystroke_a	a	n/a
192.4455	0.09	384891	keystroke_r	r	n/a
192.5955	0.075	385191	keystroke_e	e	n/a
192.7755	0.06	385551	keystroke_n	n	n/a
192.9255	0.045	385851	keystroke_t	t	n/a
193.1205	0.045	386241	keystroke_l	l	n/a
193.2555	0.06	386511	keystroke_y	y	n/a
193.9005	0.075	387801	keystroke_Key.enter	Key.enter	n/a
193.9795	8.8775	387959	prompt	n/a	paintings amateur tract remote\n
194.6805	0.0145	389361	keystroke_p	p	n/a
194.74	0.0605	389480	keystroke_a	a	n/a
195.026	0.0745	390052	keystroke_i	i	n/a
195.28	0.09	390560	keystroke_n	n	n/a
195.415	0.06	390830	keystroke_t	t	n/a
195.5505	0.0595	391101	keystroke_i	i	n/a
195.685	0.0905	391370	keystroke_n	n	n/a
195.9555	0.0755	391911	keystroke_g	g	n/a
196.4805	0.075	392961	keystroke_Key.space	Key.space	n/a
196.8855	0.09	393771	keystroke_Key.backspace	Key.backspace	n/a
197.0355	0.06	394071	keystroke_s	s	n/a
197.2455	0.03	394491	keystroke_Key.space	Key.space	n/a
197.5005	0.09	395001	keystroke_a	a	n/a
197.6805	0.075	395361	keystroke_m	m	n/a
197.9205	0.06	395841	keystroke_a	a	n/a
198.7455	0.09	397491	keystroke_t	t	n/a
198.9105	0.09	397821	keystroke_e	e	n/a
199.4355	0.105	398871	keystroke_u	u	n/a
199.6755	0.045	399351	keystroke_r	r	n/a
199.9005	0.075	399801	keystroke_Key.space	Key.space	n/a
200.1105	0.105	400221	keystroke_t	t	n/a
200.2305	0.075	400461	keystroke_r	r	n/a
200.5605	0.075	401121	keystroke_a	a	n/a
200.8145	0.076	401629	keystroke_c	c	n/a
201.1155	0.059	402231	keystroke_t	t	n/a
201.3545	0.1055	402709	keystroke_Key.space	Key.space	n/a
201.6855	0.105	403371	keystroke_r	r	n/a
201.8055	0.075	403611	keystroke_e	e	n/a
201.955	0.135	403910	keystroke_m	m	n/a
202.06	0.12	404120	keystroke_o	o	n/a
202.195	0.06	404390	keystroke_t	t	n/a
202.33	0.09	404660	keystroke_e	e	n/a
202.765	0.0905	405530	keystroke_Key.enter	Key.enter	n/a
202.86	8.2325	405720	prompt	n/a	happening domain happen transmission\n
203.68	0.105	407360	keystroke_h	h	n/a
203.83	0.09	407660	keystroke_a	a	n/a
204.0255	0.0745	408051	keystroke_p	p	n/a
204.2055	0.075	408411	keystroke_p	p	n/a
204.385	0.075	408770	keystroke_e	e	n/a
204.52	0.09	409040	keystroke_n	n	n/a
204.67	0.09	409340	keystroke_i	i	n/a
204.835	0.0905	409670	keystroke_n	n	n/a
205.1055	0.06	410211	keystroke_g	g	n/a
205.3455	0.105	410691	keystroke_Key.space	Key.space	n/a
205.8555	0.1045	411711	keystroke_d	d	n/a
206.035	0.075	412070	keystroke_o	o	n/a
206.26	0.075	412520	keystroke_m	m	n/a
206.44	0.075	412880	keystroke_a	a	n/a
206.5755	0.075	413151	keystroke_i	i	n/a
206.7705	0.0745	413541	keystroke_n	n	n/a
206.965	0.075	413930	keystroke_Key.space	Key.space	n/a
207.145	0.0605	414290	keystroke_h	h	n/a
207.325	0.06	414650	keystroke_a	a	n/a
207.46	0.0605	414920	keystroke_p	p	n/a
207.625	0.06	415250	keystroke_p	p	n/a
207.82	0.075	415640	keystroke_e	e	n/a
208.075	0.06	416150	keystroke_n	n	n/a
208.48	0.0605	416960	keystroke_Key.space	Key.space	n/a
208.8855	0.135	417771	keystroke_t	t	n/a
209.0055	0.045	418011	keystroke_r	r	n/a
209.2455	0.045	418491	keystroke_a	a	n/a
209.3955	0.06	418791	keystroke_n	n	n/a
209.5155	0.045	419031	keystroke_s	s	n/a
209.6205	0.15	419241	keystroke_m	m	n/a
209.7555	0.1045	419511	keystroke_i	i	n/a
209.935	0.06	419870	keystroke_s	s	n/a
210.085	0.06	420170	keystroke_s	s	n/a
210.1755	0.105	420351	keystroke_i	i	n/a
210.265	0.075	420530	keystroke_o	o	n/a
210.49	0.0605	420980	keystroke_n	n	n/a
211.045	0.045	422090	keystroke_Key.enter	Key.enter	n/a
211.095	9.237	422190	prompt	n/a	lewis turtle enemy protocol\n
211.7205	0.0895	423441	keystroke_l	l	n/a
211.8255	0.06	423651	keystroke_e	e	n/a
212.0205	0.06	424041	keystroke_w	w	n/a
212.1405	0.09	424281	keystroke_i	i	n/a
212.3055	0.075	424611	keystroke_s	s	n/a
212.4855	0.09	424971	keystroke_Key.space	Key.space	n/a
212.6805	0.075	425361	keystroke_t	t	n/a
213.385	0.0605	426770	keystroke_Key.backspace	Key.backspace	n/a
213.8805	0.0595	427761	keystroke_t	t	n/a
214.03	0.045	428060	keystroke_u	u	n/a
214.12	0.0755	428240	keystroke_r	r	n/a
214.33	0.0905	428660	keystroke_l	l	n/a
214.735	0.0745	429470	keystroke_Key.backspace	Key.backspace	n/a
214.825	0.06	429650	keystroke_t	t	n/a
215.2005	0.105	430401	keystroke_l	l	n/a
215.3655	0.105	430731	keystroke_e	e	n/a
215.5905	0.075	431181	keystroke_Key.space	Key.space	n/a
215.8905	0.075	431781	keystroke_e	e	n/a
216.1605	0.075	432321	keystroke_n	n	n/a
216.3405	0.06	432681	keystroke_e	e	n/a
216.4905	0.075	432981	keystroke_m	m	n/a
216.7305	0.045	433461	keystroke_y	y	n/a
216.9255	0.075	433851	keystroke_Key.space	Key.space	n/a
217.165	0.06	434330	keystroke_p	p	n/a
217.285	0.06	434570	keystroke_r	r	n/a
217.45	0.06	434900	keystroke_o	o	n/a
218.1555	0.09	436311	keystroke_t	t	n/a
218.3955	0.0895	436791	keystroke_o	o	n/a
218.665	0.06	437330	keystroke_c	c	n/a
218.8005	0.0895	437601	keystroke_o	o	n/a
219.0705	0.06	438141	keystroke_l	l	n/a
220.225	0.105	440450	keystroke_Key.enter	Key.enter	n/a
220.335	9.402	440670	prompt	n/a	iraq checkout caution situations\n
221.2595	0.046	442519	keystroke_i	i	n/a
221.5895	0.0905	443179	keystroke_r	r	n/a
221.9495	0.075	443899	keystroke_q	q	n/a
222.6555	0.09	445311	keystroke_Key.backspace	Key.backspace	n/a
222.7605	0.06	445521	keystroke_a	a	n/a
223.8395	0.0605	447679	keystroke_q	q	n/a
224.035	0.0605	448070	keystroke_Key.space	Key.space	n/a
224.26	0.075	448520	keystroke_c	c	n/a
224.38	0.0905	448760	keystroke_h	h	n/a
224.485	0.075	448970	keystroke_e	e	n/a
224.6955	0.06	449391	keystroke_c	c	n/a
224.8605	0.075	449721	keystroke_k	k	n/a
225.0855	0.075	450171	keystroke_o	o	n/a
225.2955	0.075	450591	keystroke_u	u	n/a
225.4155	0.075	450831	keystroke_t	t	n/a
225.6405	0.09	451281	keystroke_Key.space	Key.space	n/a
225.8805	0.06	451761	keystroke_c	c	n/a
226.1055	0.075	452211	keystroke_a	a	n/a
226.2555	0.075	452511	keystroke_u	u	n/a
226.4805	0.075	452961	keystroke_t	t	n/a
226.7205	0.06	453441	keystroke_i	i	n/a
226.8855	0.075	453771	keystroke_o	o	n/a
227.1405	0.075	454281	keystroke_n	n	n/a
227.3655	0.075	454731	keystroke_Key.space	Key.space	n/a
227.5455	0.075	455091	keystroke_s	s	n/a
227.7255	0.075	455451	keystroke_i	i	n/a
227.9655	0.075	455931	keystroke_t	t	n/a
228.1155	0.075	456231	keystroke_u	u	n/a
228.4005	0.03	456801	keystroke_a	a	n/a
228.6255	0.06	457251	keystroke_t	t	n/a
228.7455	0.12	457491	keystroke_i	i	n/a
228.8355	0.09	457671	keystroke_o	o	n/a
229.0605	0.075	458121	keystroke_n	n	n/a
229.2105	0.09	458421	keystroke_s	s	n/a
229.6605	0.075	459321	keystroke_Key.enter	Key.enter	n/a
229.7395	8.5325	459479	prompt	n/a	lines legend oklahoma purchase\n
230.35	0.0755	460700	keystroke_l	l	n/a
230.5455	0.045	461091	keystroke_i	i	n/a
230.7255	0.075	461451	keystroke_n	n	n/a
230.8155	0.06	461631	keystroke_e	e	n/a
231.0095	0.061	462019	keystroke_s	s	n/a
231.0855	0.09	462171	keystroke_Key.space	Key.space	n/a
231.1905	0.105	462381	keystroke_l	l	n/a
231.3105	0.06	462621	keystroke_e	e	n/a
231.491	0.0595	462982	keystroke_g	g	n/a
231.6405	0.09	463281	keystroke_e	e	n/a
231.8355	0.045	463671	keystroke_n	n	n/a
232.0305	0.06	464061	keystroke_d	d	n/a
232.2695	0.091	464539	keystroke_Key.space	Key.space	n/a
232.6455	0.075	465291	keystroke_o	o	n/a
233.1555	0.105	466311	keystroke_k	k	n/a
233.6355	0.075	467271	keystroke_l	l	n/a
233.8305	0.045	467661	keystroke_a	a	n/a
234.1305	0.045	468261	keystroke_h	h	n/a
234.2955	0.0745	468591	keystroke_o	o	n/a
234.565	0.06	469130	keystroke_m	m	n/a
234.73	0.075	469460	keystroke_e	e	n/a
235.3455	0.0895	470691	keystroke_Key.backspace	Key.backspace	n/a
235.48	0.06	470960	keystroke_a	a	n/a
235.735	0.075	471470	keystroke_Key.space	Key.space	n/a
235.9905	0.0295	471981	keystroke_p	p	n/a
236.215	0.075	472430	keystroke_u	u	n/a
236.335	0.075	472670	keystroke_r	r	n/a
236.56	0.0605	473120	keystroke_c	c	n/a
236.6805	0.06	473361	keystroke_h	h	n/a
236.815	0.06	473630	keystroke_a	a	n/a
237.01	0.0755	474020	keystroke_s	s	n/a
237.2505	0.06	474501	keystroke_e	e	n/a
238.1955	0.075	476391	keystroke_Key.enter	Key.enter	n/a
238.275	5.9825	476550	prompt	n/a	course explicit or shut\n
238.8695	0.091	477739	keystroke_c	c	n/a
238.9455	0.135	477891	keystroke_o	o	n/a
239.0655	0.09	478131	keystroke_u	u	n/a
239.1555	0.075	478311	keystroke_r	r	n/a
239.3495	0.061	478699	keystroke_s	s	n/a
239.5455	0.075	479091	keystroke_e	e	n/a
239.6645	0.12	479329	keystroke_Key.space	Key.space	n/a
239.845	0.0755	479690	keystroke_e	e	n/a
240.0845	0.09	480169	keystroke_x	x	n/a
240.5205	0.089	481041	keystroke_p	p	n/a
240.7605	0.074	481521	keystroke_l	l	n/a
241.1195	0.076	482239	keystroke_i	i	n/a
241.2845	0.076	482569	keystroke_c	c	n/a
241.451	0.0585	482902	keystroke_i	i	n/a
241.6155	0.0595	483231	keystroke_t	t	n/a
242.155	0.0895	484310	keystroke_Key.space	Key.space	n/a
242.2745	0.09	484549	keystroke_o	o	n/a
242.4095	0.061	484819	keystroke_r	r	n/a
242.5155	0.09	485031	keystroke_Key.space	Key.space	n/a
242.6355	0.075	485271	keystroke_s	s	n/a
242.7555	0.135	485511	keystroke_h	h	n/a
242.8455	0.15	485691	keystroke_u	u	n/a
243.0555	0.075	486111	keystroke_t	t	n/a
244.1505	0.105	488301	keystroke_Key.enter	Key.enter	n/a
244.262	6.67	488524	prompt	n/a	wagon ivory chicken trials\n
244.9155	0.06	489831	keystroke_w	w	n/a
245.2005	0.0445	490401	keystroke_a	a	n/a
245.425	0.06	490850	keystroke_g	g	n/a
245.605	0.045	491210	keystroke_o	o	n/a
245.815	0.0755	491630	keystroke_n	n	n/a
245.965	0.12	491930	keystroke_Key.space	Key.space	n/a
246.115	0.0755	492230	keystroke_i	i	n/a
246.25	0.075	492500	keystroke_v	v	n/a
246.4155	0.0745	492831	keystroke_o	o	n/a
246.55	0.075	493100	keystroke_r	r	n/a
246.73	0.075	493460	keystroke_y	y	n/a
247.015	0.12	494030	keystroke_Key.space	Key.space	n/a
247.27	0.09	494540	keystroke_c	c	n/a
247.435	0.12	494870	keystroke_h	h	n/a
247.525	0.105	495050	keystroke_i	i	n/a
247.66	0.075	495320	keystroke_c	c	n/a
247.78	0.105	495560	keystroke_k	k	n/a
247.96	0.0755	495920	keystroke_e	e	n/a
248.1555	0.075	496311	keystroke_n	n	n/a
248.4705	0.06	496941	keystroke_Key.space	Key.space	n/a
248.8	0.105	497600	keystroke_t	t	n/a
248.89	0.075	497780	keystroke_r	r	n/a
249.1305	0.06	498261	keystroke_a	a	n/a
249.7005	0.09	499401	keystroke_Key.backspace	Key.backspace	n/a
249.8955	0.075	499791	keystroke_i	i	n/a
250.0305	0.06	500061	keystroke_a	a	n/a
250.1805	0.075	500361	keystroke_l	l	n/a
250.3455	0.06	500691	keystroke_s	s	n/a
250.8255	0.105	501651	keystroke_Key.enter	Key.enter	n/a
250.9345	6.808	501869	prompt	n/a	text lobby ruth contract\n
251.7555	0.06	503511	keystroke_r	r	n/a
252.2345	0.076	504469	keystroke_Key.backspace	Key.backspace	n/a
252.3245	0.061	504649	keystroke_t	t	n/a
252.43	0.0755	504860	keystroke_e	e	n/a
252.6555	0.075	505311	keystroke_x	x	n/a
252.8805	0.06	505761	keystroke_t	t	n/a
253	0.1045	506000	keystroke_Key.space	Key.space	n/a
253.1505	0.075	506301	keystroke_l	l	n/a
253.3445	0.091	506689	keystroke_o	o	n/a
253.4505	0.045	506901	keystroke_b	b	n/a
253.5705	0.075	507141	keystroke_b	b	n/a
253.7205	0.09	507441	keystroke_i	i	n/a
254.3055	0.09	508611	keystroke_Key.backspace	Key.backspace	n/a
254.3805	0.09	508761	keystroke_y	y	n/a
254.6205	0.09	509241	keystroke_Key.space	Key.space	n/a
254.8455	0.075	509691	keystroke_r	r	n/a
254.9955	0.075	509991	keystroke_u	u	n/a
255.1305	0.165	510261	keystroke_t	t	n/a
255.2805	0.06	510561	keystroke_h	h	n/a
255.4905	0.075	510981	keystroke_Key.space	Key.space	n/a
255.7155	0.075	511431	keystroke_c	c	n/a
255.8055	0.075	511611	keystroke_o	o	n/a
255.9555	0.09	511911	keystroke_n	n	n/a
256.0305	0.12	512061	keystroke_t	t	n/a
256.1355	0.06	512271	keystroke_r	r	n/a
256.3755	0.06	512751	keystroke_a	a	n/a
256.6005	0.06	513201	keystroke_c	c	n/a
256.8405	0.075	513681	keystroke_t	t	n/a
257.6655	0.075	515331	keystroke_Key.enter	Key.enter	n/a
257.7445	8.2025	515489	prompt	n/a	dance muscle detective paso\n
258.4005	0.06	516801	keystroke_d	d	n/a
258.5805	0.075	517161	keystroke_a	a	n/a
258.6855	0.075	517371	keystroke_n	n	n/a
258.8055	0.09	517611	keystroke_c	c	n/a
258.9705	0.06	517941	keystroke_e	e	n/a
259.0305	0.12	518061	keystroke_Key.space	Key.space	n/a
259.1655	0.045	518331	keystroke_m	m	n/a
259.3755	0.09	518751	keystroke_u	u	n/a
259.5405	0.06	519081	keystroke_s	s	n/a
259.7805	0.06	519561	keystroke_c	c	n/a
260.0355	0.06	520071	keystroke_l	l	n/a
260.2455	0.06	520491	keystroke_e	e	n/a
260.4405	0.09	520881	keystroke_Key.space	Key.space	n/a
260.83	0.0295	521660	keystroke_d	d	n/a
261.0995	0.06	522199	keystroke_e	e	n/a
261.3695	0.061	522739	keystroke_t	t	n/a
262.1055	0.09	524211	keystroke_e	e	n/a
262.3905	0.06	524781	keystroke_c	c	n/a
262.6005	0.03	525201	keystroke_t	t	n/a
262.7355	0.06	525471	keystroke_i	i	n/a
263.6955	0.03	527391	keystroke_c	c	n/a
264.0555	0.09	528111	keystroke_Key.backspace	Key.backspace	n/a
264.1605	0.06	528321	keystroke_v	v	n/a
264.49	0.075	528980	keystroke_e	e	n/a
264.745	0.09	529490	keystroke_Key.space	Key.space	n/a
265	0.075	530000	keystroke_p	p	n/a
265.3005	0.0595	530601	keystroke_a	a	n/a
265.435	0.105	530870	keystroke_s	s	n/a
265.57	0.09	531140	keystroke_o	o	n/a
265.87	0.0755	531740	keystroke_Key.enter	Key.enter	n/a
265.95	9.6415	531900	prompt	n/a	promoting followed korean consumption\n
266.77	0.075	533540	keystroke_p	p	n/a
266.905	0.075	533810	keystroke_r	r	n/a
267.025	0.09	534050	keystroke_o	o	n/a
267.2505	0.1045	534501	keystroke_m	m	n/a
267.385	0.09	534770	keystroke_o	o	n/a
267.535	0.075	535070	keystroke_t	t	n/a
267.685	0.06	535370	keystroke_i	i	n/a
267.88	0.09	535760	keystroke_n	n	n/a
268.075	0.06	536150	keystroke_g	g	n/a
268.24	0.075	536480	keystroke_Key.space	Key.space	n/a
268.39	0.075	536780	keystroke_f	f	n/a
268.495	0.0755	536990	keystroke_o	o	n/a
268.7205	0.03	537441	keystroke_l	l	n/a
268.8255	0.06	537651	keystroke_l	l	n/a
269.0055	0.09	538011	keystroke_o	o	n/a
269.1105	0.075	538221	keystroke_w	w	n/a
269.3505	0.0595	538701	keystroke_e	e	n/a
269.53	0.075	539060	keystroke_d	d	n/a
269.635	0.1055	539270	keystroke_Key.space	Key.space	n/a
269.89	0.045	539780	keystroke_k	k	n/a
270.13	0.06	540260	keystroke_o	o	n/a
270.64	0.075	541280	keystroke_r	r	n/a
270.76	0.09	541520	keystroke_e	e	n/a
271.03	0.06	542060	keystroke_a	a	n/a
271.255	0.075	542510	keystroke_n	n	n/a
271.495	0.075	542990	keystroke_Key.space	Key.space	n/a
271.705	0.076	543410	keystroke_c	c	n/a
271.8255	0.075	543651	keystroke_o	o	n/a
272.0205	0.0595	544041	keystroke_m	m	n/a
272.3505	0.045	544701	keystroke_p	p	n/a
273.31	0.075	546620	keystroke_Key.backspace	Key.backspace	n/a
273.415	0.075	546830	keystroke_s	s	n/a
273.58	0.06	547160	keystroke_u	u	n/a
273.925	0.045	547850	keystroke_m	m	n/a
274.255	0.09	548510	keystroke_p	p	n/a
274.87	0.06	549740	keystroke_t	t	n/a
274.975	0.09	549950	keystroke_i	i	n/a
275.0505	0.075	550101	keystroke_o	o	n/a
275.245	0.06	550490	keystroke_n	n	n/a
275.53	0.06	551060	keystroke_Key.enter	Key.enter	n/a
275.5955	6.252	551191	prompt	n/a	cheers tradition voted bikes\n
276.2795	0.09	552559	keystroke_c	c	n/a
276.4005	0.075	552801	keystroke_h	h	n/a
276.5055	0.075	553011	keystroke_e	e	n/a
276.6405	0.06	553281	keystroke_e	e	n/a
276.8505	0.075	553701	keystroke_r	r	n/a
277.1205	0.045	554241	keystroke_s	s	n/a
277.2555	0.075	554511	keystroke_Key.space	Key.space	n/a
277.4355	0.105	554871	keystroke_t	t	n/a
277.5255	0.06	555051	keystroke_r	r	n/a
277.7355	0.06	555471	keystroke_a	a	n/a
277.9155	0.06	555831	keystroke_d	d	n/a
278.0055	0.075	556011	keystroke_i	i	n/a
278.1405	0.075	556281	keystroke_t	t	n/a
278.2305	0.075	556461	keystroke_i	i	n/a
278.3205	0.06	556641	keystroke_o	o	n/a
278.5155	0.06	557031	keystroke_n	n	n/a
278.6355	0.09	557271	keystroke_Key.space	Key.space	n/a
278.7855	0.075	557571	keystroke_v	v	n/a
279.2805	0.09	558561	keystroke_o	o	n/a
279.7605	0.09	559521	keystroke_t	t	n/a
279.9255	0.06	559851	keystroke_e	e	n/a
280.1055	0.045	560211	keystroke_d	d	n/a
280.2555	0.06	560511	keystroke_Key.space	Key.space	n/a
280.4355	0.045	560871	keystroke_b	b	n/a
280.5405	0.075	561081	keystroke_i	i	n/a
280.7355	0.075	561471	keystroke_k	k	n/a
280.8405	0.075	561681	keystroke_e	e	n/a
281.0805	0.06	562161	keystroke_s	s	n/a
281.785	0.06	563570	keystroke_Key.enter	Key.enter	n/a
281.851	7.586	563702	prompt	n/a	ebook replaced empirical annotation\n
282.505	0.075	565010	keystroke_e	e	n/a
282.8355	0.075	565671	keystroke_b	b	n/a
282.955	0.075	565910	keystroke_o	o	n/a
283.105	0.09	566210	keystroke_o	o	n/a
283.24	0.09	566480	keystroke_k	k	n/a
283.48	0.09	566960	keystroke_Key.space	Key.space	n/a
283.6755	0.1195	567351	keystroke_r	r	n/a
283.765	0.105	567530	keystroke_e	e	n/a
283.885	0.135	567770	keystroke_p	p	n/a
284.005	0.105	568010	keystroke_l	l	n/a
284.0955	0.0595	568191	keystroke_a	a	n/a
284.2755	0.0745	568551	keystroke_c	c	n/a
284.425	0.0755	568850	keystroke_e	e	n/a
284.605	0.06	569210	keystroke_d	d	n/a
284.74	0.105	569480	keystroke_Key.space	Key.space	n/a
284.8755	0.0745	569751	keystroke_e	e	n/a
285.025	0.09	570050	keystroke_m	m	n/a
285.28	0.06	570560	keystroke_p	p	n/a
285.5355	0.0895	571071	keystroke_i	i	n/a
285.7	0.0605	571400	keystroke_r	r	n/a
285.835	0.075	571670	keystroke_i	i	n/a
286.105	0.075	572210	keystroke_c	c	n/a
286.3155	0.0445	572631	keystroke_a	a	n/a
286.45	0.075	572900	keystroke_l	l	n/a
286.63	0.075	573260	keystroke_Key.space	Key.space	n/a
286.885	0.03	573770	keystroke_e	e	n/a
287.185	0.075	574370	keystroke_Key.backspace	Key.backspace	n/a
287.29	0.075	574580	keystroke_a	a	n/a
287.44	0.0605	574880	keystroke_n	n	n/a
287.59	0.045	575180	keystroke_n	n	n/a
287.755	0.09	575510	keystroke_o	o	n/a
288.1	0.06	576200	keystroke_t	t	n/a
288.445	0.06	576890	keystroke_a	a	n/a
288.655	0.06	577310	keystroke_t	t	n/a
288.775	0.105	577550	keystroke_i	i	n/a
288.8655	0.0895	577731	keystroke_o	o	n/a
289.06	0.0755	578120	keystroke_n	n	n/a
289.375	0.06	578750	keystroke_Key.enter	Key.enter	n/a
289.44	12.357	578880	prompt	n/a	delaware fastest establishing madness\n
290.2005	0.075	580401	keystroke_d	d	n/a
290.4545	0.061	580909	keystroke_e	e	n/a
291.115	0.0755	582230	keystroke_l	l	n/a
291.3695	0.075	582739	keystroke_a	a	n/a
291.76	0.09	583520	keystroke_w	w	n/a
291.97	0.045	583940	keystroke_a	a	n/a
292.15	0.075	584300	keystroke_r	r	n/a
292.315	0.06	584630	keystroke_e	e	n/a
292.585	0.09	585170	keystroke_Key.space	Key.space	n/a
292.795	0.06	585590	keystroke_f	f	n/a
293.2455	0.045	586491	keystroke_e	e	n/a
293.755	0.0755	587510	keystroke_Key.backspace	Key.backspace	n/a
293.8605	0.074	587721	keystroke_a	a	n/a
293.9355	0.09	587871	keystroke_s	s	n/a
294.2505	0.06	588501	keystroke_t	t	n/a
294.3855	0.059	588771	keystroke_e	e	n/a
294.6105	0.059	589221	keystroke_s	s	n/a
294.8355	0.059	589671	keystroke_t	t	n/a
295.0595	0.03	590119	keystroke_Key.space	Key.space	n/a
295.5845	0.06	591169	keystroke_e	e	n/a
296.17	0.06	592340	keystroke_s	s	n/a
296.3655	0.0595	592731	keystroke_t	t	n/a
296.6355	0.0745	593271	keystroke_a	a	n/a
297.025	0.075	594050	keystroke_b	b	n/a
297.265	0.045	594530	keystroke_l	l	n/a
297.475	0.075	594950	keystroke_i	i	n/a
297.6105	0.09	595221	keystroke_s	s	n/a
297.7455	0.075	595491	keystroke_h	h	n/a
297.9255	0.075	595851	keystroke_i	i	n/a
298.3305	0.1045	596661	keystroke_n	n	n/a
298.555	0.075	597110	keystroke_g	g	n/a
298.81	0.09	597620	keystroke_Key.space	Key.space	n/a
299.7855	0.0595	599571	keystroke_m	m	n/a
299.905	0.075	599810	keystroke_a	a	n/a
300.19	0.06	600380	keystroke_d	d	n/a
300.4605	0.1195	600921	keystroke_n	n	n/a
300.595	0.0905	601190	keystroke_e	e	n/a
300.82	0.06	601640	keystroke_s	s	n/a
301.015	0.045	602030	keystroke_s	s	n/a
301.7205	0.075	603441	keystroke_Key.enter	Key.enter	n/a
301.8005	8.651	603601	prompt	n/a	helped keyboard officers text\n
302.68	0.045	605360	keystroke_h	h	n/a
302.8	0.045	605600	keystroke_e	e	n/a
302.95	0.15	605900	keystroke_l	l	n/a
303.07	0.09	606140	keystroke_p	p	n/a
303.22	0.075	606440	keystroke_e	e	n/a
303.46	0.06	606920	keystroke_d	d	n/a
303.6545	0.09	607309	keystroke_Key.space	Key.space	n/a
303.865	0.0755	607730	keystroke_h	h	n/a
304.2245	0.0605	608449	keystroke_Key.backspace	Key.backspace	n/a
304.4195	0.09	608839	keystroke_k	k	n/a
304.5695	0.075	609139	keystroke_e	e	n/a
304.7345	0.075	609469	keystroke_y	y	n/a
304.975	0.075	609950	keystroke_b	b	n/a
305.1245	0.0905	610249	keystroke_o	o	n/a
305.26	0.09	610520	keystroke_a	a	n/a
305.47	0.075	610940	keystroke_r	r	n/a
305.725	0.06	611450	keystroke_d	d	n/a
305.98	0.075	611960	keystroke_Key.space	Key.space	n/a
306.265	0.105	612530	keystroke_o	o	n/a
306.415	0.075	612830	keystroke_f	f	n/a
306.625	0.06	613250	keystroke_f	f	n/a
306.76	0.06	613520	keystroke_f	f	n/a
307.3445	0.0755	614689	keystroke_Key.backspace	Key.backspace	n/a
307.615	0.075	615230	keystroke_i	i	n/a
307.75	0.06	615500	keystroke_c	c	n/a
308.0795	0.151	616159	keystroke_e	e	n/a
308.2145	0.061	616429	keystroke_r	r	n/a
308.4845	0.061	616969	keystroke_s	s	n/a
308.6345	0.105	617269	keystroke_Key.space	Key.space	n/a
308.8295	0.075	617659	keystroke_t	t	n/a
308.9645	0.075	617929	keystroke_e	e	n/a
309.2355	0.045	618471	keystroke_x	x	n/a
309.5045	0.046	619009	keystroke_t	t	n/a
310.3445	0.1055	620689	keystroke_Key.enter	Key.enter	n/a
310.454	8.2475	620908	prompt	n/a	boring transmitted node wonderful\n
311.3645	0.0755	622729	keystroke_b	b	n/a
311.545	0.105	623090	keystroke_o	o	n/a
311.695	0.075	623390	keystroke_r	r	n/a
311.875	0.06	623750	keystroke_i	i	n/a
312.07	0.0745	624140	keystroke_n	n	n/a
312.22	0.0445	624440	keystroke_g	g	n/a
312.385	0.1195	624770	keystroke_Key.space	Key.space	n/a
312.5205	0.089	625041	keystroke_t	t	n/a
312.6245	0.105	625249	keystroke_r	r	n/a
312.97	0.0595	625940	keystroke_a	a	n/a
313.135	0.0745	626270	keystroke_n	n	n/a
313.39	0.0595	626780	keystroke_s	s	n/a
313.5545	0.1055	627109	keystroke_m	m	n/a
313.7195	0.0905	627439	keystroke_i	i	n/a
313.9595	0.0755	627919	keystroke_t	t	n/a
314.1545	0.075	628309	keystroke_t	t	n/a
314.4095	0.06	628819	keystroke_e	e	n/a
314.665	0.0595	629330	keystroke_d	d	n/a
314.9645	0.09	629929	keystroke_Key.space	Key.space	n/a
315.64	0.075	631280	keystroke_n	n	n/a
315.79	0.105	631580	keystroke_o	o	n/a
315.9395	0.06	631879	keystroke_d	d	n/a
316.2095	0.075	632419	keystroke_e	e	n/a
316.4045	0.09	632809	keystroke_Key.space	Key.space	n/a
316.6145	0.0455	633229	keystroke_w	w	n/a
316.6895	0.075	633379	keystroke_o	o	n/a
316.8845	0.09	633769	keystroke_n	n	n/a
316.99	0.0595	633980	keystroke_d	d	n/a
317.1855	0.104	634371	keystroke_e	e	n/a
317.2595	0.0755	634519	keystroke_r	r	n/a
317.485	0.0595	634970	keystroke_f	f	n/a
317.6345	0.091	635269	keystroke_u	u	n/a
317.9955	0.104	635991	keystroke_l	l	n/a
318.6095	0.09	637219	keystroke_Key.enter	Key.enter	n/a
318.7045	11.8475	637409	prompt	n/a	situations relax chad supplied\n
319.315	0.075	638630	keystroke_s	s	n/a
319.51	0.09	639020	keystroke_i	i	n/a
319.78	0.045	639560	keystroke_t	t	n/a
319.96	0.06	639920	keystroke_u	u	n/a
320.2455	0.0895	640491	keystroke_a	a	n/a
321.6245	0.09	643249	keystroke_t	t	n/a
321.7595	0.135	643519	keystroke_u	u	n/a
321.9095	0.075	643819	keystroke_i	i	n/a
322.1645	0.0755	644329	keystroke_n	n	n/a
322.7495	0.075	645499	keystroke_Key.backspace	Key.backspace	n/a
322.9295	0.03	645859	keystroke_Key.backspace	Key.backspace	n/a
323.0495	0.075	646099	keystroke_Key.backspace	Key.backspace	n/a
323.3645	0.135	646729	keystroke_i	i	n/a
323.4695	0.105	646939	keystroke_o	o	n/a
323.7545	0.075	647509	keystroke_n	n	n/a
324.2205	0.0895	648441	keystroke_s	s	n/a
324.55	0.09	649100	keystroke_Key.space	Key.space	n/a
324.745	0.09	649490	keystroke_r	r	n/a
324.925	0.06	649850	keystroke_e	e	n/a
325.105	0.09	650210	keystroke_l	l	n/a
325.3305	0.0595	650661	keystroke_a	a	n/a
325.63	0.0595	651260	keystroke_x	x	n/a
326.1995	0.0905	652399	keystroke_Key.space	Key.space	n/a
326.4705	0.0745	652941	keystroke_c	c	n/a
326.665	0.0455	653330	keystroke_h	h	n/a
326.845	0.06	653690	keystroke_a	a	n/a
327.145	0.06	654290	keystroke_d	d	n/a
327.49	0.09	654980	keystroke_Key.space	Key.space	n/a
327.61	0.075	655220	keystroke_s	s	n/a
327.79	0.0595	655580	keystroke_u	u	n/a
328.0595	0.091	656119	keystroke_p	p	n/a
328.2395	0.106	656479	keystroke_p	p	n/a
328.4945	0.06	656989	keystroke_l	l	n/a
328.7205	0.089	657441	keystroke_i	i	n/a
328.8695	0.075	657739	keystroke_e	e	n/a
329.14	0.0595	658280	keystroke_d	d	n/a
330.4455	0.104	660891	keystroke_Key.enter	Key.enter	n/a
330.557	12.2195	661114	prompt	n/a	awareness bangladesh signed schemes\n
331.3605	0.0595	662721	keystroke_a	a	n/a
331.5845	0.06	663169	keystroke_w	w	n/a
332.1845	0.09	664369	keystroke_a	a	n/a
332.4245	0.075	664849	keystroke_r	r	n/a
332.605	0.0605	665210	keystroke_e	e	n/a
332.785	0.09	665570	keystroke_n	n	n/a
332.92	0.06	665840	keystroke_e	e	n/a
333.145	0.06	666290	keystroke_s	s	n/a
333.325	0.06	666650	keystroke_s	s	n/a
333.61	0.105	667220	keystroke_Key.space	Key.space	n/a
333.94	0.075	667880	keystroke_b	b	n/a
334.315	0.0755	668630	keystroke_a	a	n/a
334.51	0.06	669020	keystroke_n	n	n/a
334.975	0.09	669950	keystroke_g	g	n/a
335.2	0.105	670400	keystroke_l	l	n/a
335.485	0.075	670970	keystroke_a	a	n/a
335.8	0.075	671600	keystroke_d	d	n/a
336.025	0.045	672050	keystroke_e	e	n/a
336.205	0.075	672410	keystroke_s	s	n/a
336.355	0.075	672710	keystroke_h	h	n/a
336.745	0.09	673490	keystroke_Key.space	Key.space	n/a
337.8995	0.0605	675799	keystroke_s	s	n/a
338.0645	0.106	676129	keystroke_i	i	n/a
338.3505	0.059	676701	keystroke_g	g	n/a
338.6195	0.105	677239	keystroke_n	n	n/a
339.0695	0.075	678139	keystroke_e	e	n/a
339.895	0.0745	679790	keystroke_d	d	n/a
340.1645	0.09	680329	keystroke_Key.space	Key.space	n/a
340.3895	0.06	680779	keystroke_s	s	n/a
340.5995	0.09	681199	keystroke_c	c	n/a
340.7345	0.076	681469	keystroke_h	h	n/a
340.8995	0.091	681799	keystroke_e	e	n/a
341.0945	0.105	682189	keystroke_m	m	n/a
341.3045	0.06	682609	keystroke_e	e	n/a
341.6945	0.06	683389	keystroke_s	s	n/a
342.6245	0.15	685249	keystroke_Key.enter	Key.enter	n/a
342.779	13.0475	685558	prompt	n/a	tremendous jump psychology medicines\n
343.4645	0.105	686929	keystroke_t	t	n/a
343.5545	0.09	687109	keystroke_r	r	n/a
343.8245	0.075	687649	keystroke_a	a	n/a
344.6045	0.075	689209	keystroke_Key.backspace	Key.backspace	n/a
344.7705	0.074	689541	keystroke_e	e	n/a
345.0695	0.105	690139	keystroke_m	m	n/a
345.3395	0.06	690679	keystroke_e	e	n/a
345.6705	0.075	691341	keystroke_n	n	n/a
345.895	0.06	691790	keystroke_d	d	n/a
346.12	0.12	692240	keystroke_o	o	n/a
346.36	0.105	692720	keystroke_u	u	n/a
346.555	0.075	693110	keystroke_s	s	n/a
346.825	0.06	693650	keystroke_Key.space	Key.space	n/a
347.05	0.075	694100	keystroke_j	j	n/a
347.26	0.06	694520	keystroke_u	u	n/a
347.5305	0.075	695061	keystroke_m	m	n/a
347.7555	0.075	695511	keystroke_p	p	n/a
347.9655	0.135	695931	keystroke_Key.space	Key.space	n/a
348.13	0.06	696260	keystroke_p	p	n/a
348.385	0.09	696770	keystroke_h	h	n/a
349.285	0.105	698570	keystroke_Key.backspace	Key.backspace	n/a
349.69	0.075	699380	keystroke_s	s	n/a
349.9	0.075	699800	keystroke_y	y	n/a
350.605	0.09	701210	keystroke_c	c	n/a
350.7405	0.0745	701481	keystroke_h	h	n/a
350.95	0.075	701900	keystroke_o	o	n/a
351.16	0.075	702320	keystroke_l	l	n/a
351.355	0.09	702710	keystroke_o	o	n/a
351.49	0.075	702980	keystroke_g	g	n/a
351.6855	0.0895	703371	keystroke_y	y	n/a
352.5845	0.105	705169	keystroke_Key.space	Key.space	n/a
352.9445	0.06	705889	keystroke_m	m	n/a
353.095	0.06	706190	keystroke_e	e	n/a
353.305	0.075	706610	keystroke_d	d	n/a
353.5	0.09	707000	keystroke_i	i	n/a
353.755	0.075	707510	keystroke_c	c	n/a
353.89	0.06	707780	keystroke_i	i	n/a
354.13	0.09	708260	keystroke_n	n	n/a
354.295	0.06	708590	keystroke_e	e	n/a
354.535	0.06	709070	keystroke_s	s	n/a
355.69	0.1345	711380	keystroke_Key.enter	Key.enter	n/a
355.83	9.2215	711660	prompt	n/a	provided attachments purple hindu\n
356.6355	0.119	713271	keystroke_p	p	n/a
356.7705	0.075	713541	keystroke_r	r	n/a
356.9205	0.105	713841	keystroke_o	o	n/a
357.0405	0.09	714081	keystroke_v	v	n/a
357.2345	0.061	714469	keystroke_i	i	n/a
357.3545	0.076	714709	keystroke_d	d	n/a
357.5805	0.06	715161	keystroke_e	e	n/a
357.7755	0.059	715551	keystroke_d	d	n/a
357.9845	0.075	715969	keystroke_Key.space	Key.space	n/a
358.1805	0.06	716361	keystroke_a	a	n/a
358.5705	0.03	717141	keystroke_t	t	n/a
358.6755	0.0895	717351	keystroke_t	t	n/a
359.02	0.075	718040	keystroke_a	a	n/a
359.26	0.09	718520	keystroke_c	c	n/a
359.4555	0.0595	718911	keystroke_h	h	n/a
359.77	0.06	719540	keystroke_m	m	n/a
359.875	0.09	719750	keystroke_e	e	n/a
360.07	0.045	720140	keystroke_n	n	n/a
360.19	0.09	720380	keystroke_t	t	n/a
360.625	0.045	721250	keystroke_s	s	n/a
360.94	0.09	721880	keystroke_Key.space	Key.space	n/a
361.18	0.0455	722360	keystroke_p	p	n/a
361.3905	0.0895	722781	keystroke_u	u	n/a
361.51	0.075	723020	keystroke_r	r	n/a
361.705	0.12	723410	keystroke_p	p	n/a
361.81	0.12	723620	keystroke_l	l	n/a
362.005	0.075	724010	keystroke_e	e	n/a
362.185	0.12	724370	keystroke_Key.space	Key.space	n/a
362.425	0.075	724850	keystroke_h	h	n/a
362.65	0.045	725300	keystroke_i	i	n/a
363.34	0.0895	726680	keystroke_n	n	n/a
363.565	0.075	727130	keystroke_d	d	n/a
363.7905	0.075	727581	keystroke_u	u	n/a
364.9445	0.105	729889	keystroke_Key.enter	Key.enter	n/a
365.0545	7.902	730109	prompt	n/a	paste starts trails decline\n
365.785	0.1045	731570	keystroke_p	p	n/a
365.9495	0.12	731899	keystroke_a	a	n/a
366.0555	0.089	732111	keystroke_s	s	n/a
366.3705	0.059	732741	keystroke_t	t	n/a
366.5945	0.046	733189	keystroke_e	e	n/a
366.8345	0.075	733669	keystroke_Key.space	Key.space	n/a
366.9405	0.09	733881	keystroke_s	s	n/a
367.1495	0.046	734299	keystroke_t	t	n/a
367.3295	0.0755	734659	keystroke_a	a	n/a
367.4945	0.076	734989	keystroke_r	r	n/a
367.7055	0.059	735411	keystroke_t	t	n/a
367.915	0.09	735830	keystroke_s	s	n/a
368.185	0.09	736370	keystroke_Key.space	Key.space	n/a
368.395	0.135	736790	keystroke_t	t	n/a
368.545	0.0605	737090	keystroke_r	r	n/a
368.95	0.06	737900	keystroke_a	a	n/a
369.145	0.06	738290	keystroke_i	i	n/a
369.43	0.06	738860	keystroke_l	l	n/a
369.6555	0.0595	739311	keystroke_s	s	n/a
369.94	0.105	739880	keystroke_Key.space	Key.space	n/a
370.2405	0.09	740481	keystroke_d	d	n/a
370.465	0.06	740930	keystroke_e	e	n/a
370.675	0.06	741350	keystroke_c	c	n/a
370.78	0.105	741560	keystroke_l	l	n/a
370.99	0.06	741980	keystroke_i	i	n/a
371.215	0.09	742430	keystroke_n	n	n/a
371.38	0.075	742760	keystroke_e	e	n/a
372.865	0.09	745730	keystroke_Key.enter	Key.enter	n/a
372.9595	8.022	745919	prompt	n/a	slideshow berry buying paper\n
373.57	0.06	747140	keystroke_s	s	n/a
373.7655	0.0745	747531	keystroke_l	l	n/a
373.96	0.105	747920	keystroke_i	i	n/a
374.11	0.075	748220	keystroke_d	d	n/a
374.38	0.075	748760	keystroke_e	e	n/a
374.725	0.075	749450	keystroke_s	s	n/a
374.8455	0.104	749691	keystroke_h	h	n/a
375.0245	0.12	750049	keystroke_o	o	n/a
375.2195	0.06	750439	keystroke_w	w	n/a
375.46	0.0895	750920	keystroke_Key.space	Key.space	n/a
376.1345	0.075	752269	keystroke_b	b	n/a
376.3595	0.1205	752719	keystroke_e	e	n/a
376.495	0.0595	752990	keystroke_r	r	n/a
376.6595	0.09	753319	keystroke_r	r	n/a
376.9305	0.074	753861	keystroke_t	t	n/a
377.6945	0.09	755389	keystroke_Key.backspace	Key.backspace	n/a
377.9355	0.075	755871	keystroke_y	y	n/a
378.1745	0.105	756349	keystroke_Key.space	Key.space	n/a
378.3105	0.089	756621	keystroke_b	b	n/a
378.4445	0.106	756889	keystroke_u	u	n/a
378.6405	0.045	757281	keystroke_y	y	n/a
378.97	0.06	757940	keystroke_i	i	n/a
379.2105	0.0895	758421	keystroke_n	n	n/a
379.36	0.075	758720	keystroke_g	g	n/a
379.51	0.135	759020	keystroke_Key.space	Key.space	n/a
379.6905	0.1195	759381	keystroke_p	p	n/a
379.885	0.075	759770	keystroke_a	a	n/a
380.02	0.105	760040	keystroke_p	p	n/a
380.2155	0.134	760431	keystroke_e	e	n/a
380.3195	0.091	760639	keystroke_r	r	n/a
380.8745	0.105	761749	keystroke_Key.enter	Key.enter	n/a
380.984	9.3275	761968	prompt	n/a	robertson casual concord wall\n
381.6995	0.075	763399	keystroke_r	r	n/a
381.8645	0.075	763729	keystroke_o	o	n/a
381.9995	0.075	763999	keystroke_b	b	n/a
382.2105	0.135	764421	keystroke_e	e	n/a
382.3155	0.089	764631	keystroke_r	r	n/a
382.885	0.0745	765770	keystroke_t	t	n/a
383.1405	0.075	766281	keystroke_s	s	n/a
383.2905	0.059	766581	keystroke_o	o	n/a
383.5295	0.061	767059	keystroke_n	n	n/a
383.9945	0.076	767989	keystroke_Key.space	Key.space	n/a
384.61	0.045	769220	keystroke_c	c	n/a
384.835	0.0455	769670	keystroke_a	a	n/a
385.015	0.075	770030	keystroke_s	s	n/a
385.15	0.09	770300	keystroke_u	u	n/a
385.345	0.0455	770690	keystroke_a	a	n/a
385.555	0.06	771110	keystroke_l	l	n/a
385.915	0.09	771830	keystroke_Key.space	Key.space	n/a
386.38	0.075	772760	keystroke_c	c	n/a
386.53	0.0745	773060	keystroke_o	o	n/a
386.785	0.0895	773570	keystroke_n	n	n/a
387.04	0.06	774080	keystroke_c	c	n/a
387.2795	0.09	774559	keystroke_o	o	n/a
387.4445	0.045	774889	keystroke_r	r	n/a
387.73	0.06	775460	keystroke_d	d	n/a
387.9995	0.105	775999	keystroke_Key.space	Key.space	n/a
388.3745	0.0755	776749	keystroke_w	w	n/a
388.7355	0.0745	777471	keystroke_l	l	n/a
389.095	0.06	778190	keystroke_Key.backspace	Key.backspace	n/a
389.2	0.06	778400	keystroke_a	a	n/a
389.365	0.075	778730	keystroke_l	l	n/a
389.5305	0.06	779061	keystroke_l	l	n/a
390.205	0.105	780410	keystroke_Key.enter	Key.enter	n/a
390.3145	11.367	780629	prompt	n/a	unfortunately stations excluded pools\n
391.1945	0.075	782389	keystroke_u	u	n/a
391.4195	0.075	782839	keystroke_n	n	n/a
391.6745	0.075	783349	keystroke_f	f	n/a
392.065	0.1195	784130	keystroke_o	o	n/a
392.2745	0.075	784549	keystroke_r	r	n/a
392.485	0.0895	784970	keystroke_t	t	n/a
392.65	0.09	785300	keystroke_u	u	n/a
392.9805	0.0595	785961	keystroke_n	n	n/a
393.79	0.0905	787580	keystroke_a	a	n/a
394.0905	0.09	788181	keystroke_t	t	n/a
394.2545	0.091	788509	keystroke_e	e	n/a
394.6005	0.0895	789201	keystroke_l	l	n/a
394.7955	0.045	789591	keystroke_y	y	n/a
395.0945	0.106	790189	keystroke_Key.space	Key.space	n/a
395.365	0.06	790730	keystroke_s	s	n/a
395.545	0.06	791090	keystroke_t	t	n/a
395.755	0.09	791510	keystroke_a	a	n/a
396.01	0.075	792020	keystroke_t	t	n/a
396.235	0.135	792470	keystroke_i	i	n/a
396.3555	0.075	792711	keystroke_o	o	n/a
396.61	0.06	793220	keystroke_n	n	n/a
396.76	0.075	793520	keystroke_s	s	n/a
396.955	0.09	793910	keystroke_Key.space	Key.space	n/a
397.105	0.075	794210	keystroke_e	e	n/a
397.375	0.06	794750	keystroke_x	x	n/a
397.645	0.045	795290	keystroke_c	c	n/a
397.885	0.09	795770	keystroke_l	l	n/a
398.17	0.09	796340	keystroke_u	u	n/a
398.62	0.045	797240	keystroke_d	d	n/a
398.815	0.06	797630	keystroke_e	e	n/a
399.04	0.03	798080	keystroke_d	d	n/a
399.265	0.0905	798530	keystroke_Key.space	Key.space	n/a
399.5345	0.045	799069	keystroke_p	p	n/a
399.7595	0.06	799519	keystroke_o	o	n/a
399.9245	0.075	799849	keystroke_o	o	n/a
400.1945	0.075	800389	keystroke_l	l	n/a
400.5245	0.06	801049	keystroke_s	s	n/a
401.575	0.1045	803150	keystroke_Key.enter	Key.enter	n/a
401.684	8.7725	803368	prompt	n/a	japanese cream amendments naked\n
403.315	0.075	806630	keystroke_j	j	n/a
403.48	0.06	806960	keystroke_a	a	n/a
403.645	0.075	807290	keystroke_p	p	n/a
404.215	0.06	808430	keystroke_a	a	n/a
404.335	0.09	808670	keystroke_n	n	n/a
404.5	0.075	809000	keystroke_e	e	n/a
404.755	0.06	809510	keystroke_s	s	n/a
404.965	0.06	809930	keystroke_e	e	n/a
405.205	0.075	810410	keystroke_Key.space	Key.space	n/a
405.46	0.09	810920	keystroke_c	c	n/a
405.7	0.0895	811400	keystroke_r	r	n/a
405.8195	0.09	811639	keystroke_e	e	n/a
406.1045	0.0605	812209	keystroke_a	a	n/a
406.4195	0.075	812839	keystroke_m	m	n/a
406.7495	0.09	813499	keystroke_Key.space	Key.space	n/a
406.93	0.06	813860	keystroke_a	a	n/a
407.0495	0.09	814099	keystroke_m	m	n/a
407.2895	0.09	814579	keystroke_e	e	n/a
407.5445	0.09	815089	keystroke_n	n	n/a
407.74	0.0595	815480	keystroke_d	d	n/a
408.04	0.0745	816080	keystroke_m	m	n/a
408.1605	0.074	816321	keystroke_e	e	n/a
408.3405	0.059	816681	keystroke_n	n	n/a
408.5045	0.06	817009	keystroke_t	t	n/a
408.8045	0.045	817609	keystroke_s	s	n/a
409.0145	0.105	818029	keystroke_Key.space	Key.space	n/a
409.2245	0.091	818449	keystroke_n	n	n/a
409.36	0.0895	818720	keystroke_a	a	n/a
409.5545	0.105	819109	keystroke_k	k	n/a
409.6755	0.074	819351	keystroke_e	e	n/a
409.8705	0.074	819741	keystroke_d	d	n/a
410.38	0.0745	820760	keystroke_Key.enter	Key.enter	n/a
410.459	9.2975	820918	prompt	n/a	highways women williams northern\n
411.0855	0.089	822171	keystroke_h	h	n/a
411.25	0.0745	822500	keystroke_i	i	n/a
411.3995	0.18	822799	keystroke_g	g	n/a
411.5495	0.09	823099	keystroke_h	h	n/a
412.285	0.045	824570	keystroke_w	w	n/a
412.48	0.06	824960	keystroke_a	a	n/a
412.615	0.03	825230	keystroke_t	t	n/a
412.765	0.06	825530	keystroke_s	s	n/a
413.185	0.045	826370	keystroke_Key.backspace	Key.backspace	n/a
413.29	0.075	826580	keystroke_Key.backspace	Key.backspace	n/a
413.53	0.075	827060	keystroke_y	y	n/a
413.68	0.0755	827360	keystroke_s	s	n/a
413.9945	0.1055	827989	keystroke_Key.space	Key.space	n/a
414.205	0.0605	828410	keystroke_w	w	n/a
414.2955	0.074	828591	keystroke_o	o	n/a
414.5045	0.075	829009	keystroke_m	m	n/a
414.6695	0.075	829339	keystroke_e	e	n/a
414.8355	0.075	829671	keystroke_n	n	n/a
414.9995	0.09	829999	keystroke_Key.space	Key.space	n/a
415.1345	0.09	830269	keystroke_w	w	n/a
415.2695	0.06	830539	keystroke_i	i	n/a
415.5255	0.044	831051	keystroke_l	l	n/a
415.675	0.06	831350	keystroke_l	l	n/a
415.8705	0.0745	831741	keystroke_i	i	n/a
416.065	0.075	832130	keystroke_a	a	n/a
416.41	0.075	832820	keystroke_m	m	n/a
416.59	0.06	833180	keystroke_s	s	n/a
416.7555	0.0745	833511	keystroke_Key.space	Key.space	n/a
416.92	0.075	833840	keystroke_n	n	n/a
417.07	0.09	834140	keystroke_o	o	n/a
417.205	0.075	834410	keystroke_r	r	n/a
417.58	0.165	835160	keystroke_t	t	n/a
417.73	0.075	835460	keystroke_h	h	n/a
417.9855	0.2245	835971	keystroke_e	e	n/a
418.195	0.09	836390	keystroke_r	r	n/a
419.0495	0.075	838099	keystroke_n	n	n/a
419.6495	0.105	839299	keystroke_Key.enter	Key.enter	n/a
419.7595	12.912	839519	prompt	n/a	academics corporate arlington malta\n
420.4755	0.06	840951	keystroke_a	a	n/a
420.8355	0.045	841671	keystroke_c	c	n/a
421.285	0.09	842570	keystroke_a	a	n/a
421.66	0.06	843320	keystroke_d	d	n/a
422.5	0.075	845000	keystroke_e	e	n/a
422.65	0.15	845300	keystroke_m	m	n/a
422.815	0.105	845630	keystroke_i	i	n/a
422.995	0.06	845990	keystroke_c	c	n/a
423.235	0.06	846470	keystroke_s	s	n/a
423.4	0.09	846800	keystroke_Key.space	Key.space	n/a
423.775	0.0895	847550	keystroke_c	c	n/a
423.94	0.0895	847880	keystroke_o	o	n/a
424.4055	0.0745	848811	keystroke_r	r	n/a
425.4545	0.106	850909	keystroke_p	p	n/a
426.2805	0.105	852561	keystroke_o	o	n/a
426.5655	0.074	853131	keystroke_r	r	n/a
426.8805	0.074	853761	keystroke_a	a	n/a
427.1355	0.075	854271	keystroke_t	t	n/a
427.2995	0.061	854599	keystroke_e	e	n/a
427.5095	0.106	855019	keystroke_Key.space	Key.space	n/a
427.6605	0.09	855321	keystroke_a	a	n/a
427.9755	0.09	855951	keystroke_r	r	n/a
428.1395	0.091	856279	keystroke_l	l	n/a
428.3955	0.075	856791	keystroke_i	i	n/a
428.6205	0.09	857241	keystroke_n	n	n/a
428.7545	0.061	857509	keystroke_g	g	n/a
429.0255	0.075	858051	keystroke_t	t	n/a
429.2655	0.09	858531	keystroke_o	o	n/a
429.535	0.075	859070	keystroke_n	n	n/a
429.82	0.09	859640	keystroke_Key.space	Key.space	n/a
430.03	0.06	860060	keystroke_m	m	n/a
430.195	0.075	860390	keystroke_a	a	n/a
430.48	0.105	860960	keystroke_l	l	n/a
430.7355	0.0745	861471	keystroke_t	t	n/a
431.14	0.075	862280	keystroke_a	a	n/a
432.5195	0.15	865039	keystroke_Key.enter	Key.enter	n/a
432.6755	12.431	865351	prompt	n/a	continually urls proposal generation\n
433.5105	0.105	867021	keystroke_c	c	n/a
434.275	0.1045	868550	keystroke_o	o	n/a
434.56	0.0895	869120	keystroke_n	n	n/a
434.7695	0.075	869539	keystroke_t	t	n/a
434.9195	0.091	869839	keystroke_i	i	n/a
435.1745	0.075	870349	keystroke_n	n	n/a
435.4155	0.074	870831	keystroke_u	u	n/a
435.9995	0.076	871999	keystroke_a	a	n/a
436.2095	0.045	872419	keystroke_l	l	n/a
436.3445	0.091	872689	keystroke_l	l	n/a
436.825	0.075	873650	keystroke_y	y	n/a
437.455	0.105	874910	keystroke_Key.space	Key.space	n/a
437.98	0.075	875960	keystroke_u	u	n/a
438.1755	0.0445	876351	keystroke_r	r	n/a
438.43	0.105	876860	keystroke_l	l	n/a
438.64	0.075	877280	keystroke_s	s	n/a
438.9855	0.09	877971	keystroke_Key.space	Key.space	n/a
439.525	0.1205	879050	keystroke_p	p	n/a
439.7355	0.06	879471	keystroke_r	r	n/a
439.9305	0.09	879861	keystroke_o	o	n/a
440.2005	0.03	880401	keystroke_s	s	n/a
440.5755	0.09	881151	keystroke_Key.backspace	Key.backspace	n/a
440.8005	0.045	881601	keystroke_p	p	n/a
441.025	0.06	882050	keystroke_o	o	n/a
441.205	0.075	882410	keystroke_s	s	n/a
441.46	0.06	882920	keystroke_a	a	n/a
441.58	0.0895	883160	keystroke_l	l	n/a
442.0295	0.1055	884059	keystroke_Key.space	Key.space	n/a
442.3745	0.076	884749	keystroke_g	g	n/a
442.6145	0.046	885229	keystroke_e	e	n/a
442.75	0.0895	885500	keystroke_n	n	n/a
442.8855	0.134	885771	keystroke_e	e	n/a
443.0045	0.075	886009	keystroke_r	r	n/a
443.26	0.0595	886520	keystroke_a	a	n/a
443.4995	0.045	886999	keystroke_t	t	n/a
443.5895	0.18	887179	keystroke_i	i	n/a
443.7545	0.105	887509	keystroke_o	o	n/a
443.9645	0.105	887929	keystroke_n	n	n/a
445	0.105	890000	keystroke_Key.enter	Key.enter	n/a
445.109	10.347	890218	prompt	n/a	external belong strain consumers\n
445.9	0.075	891800	keystroke_e	e	n/a
446.155	0.075	892310	keystroke_x	x	n/a
446.5295	0.09	893059	keystroke_t	t	n/a
446.83	0.15	893660	keystroke_e	e	n/a
446.9645	0.09	893929	keystroke_r	r	n/a
447.1745	0.105	894349	keystroke_n	n	n/a
447.3545	0.075	894709	keystroke_a	a	n/a
447.505	0.0895	895010	keystroke_l	l	n/a
447.6845	0.105	895369	keystroke_Key.space	Key.space	n/a
447.8045	0.075	895609	keystroke_b	b	n/a
448.0295	0.06	896059	keystroke_e	e	n/a
448.135	0.075	896270	keystroke_l	l	n/a
448.36	0.0595	896720	keystroke_o	o	n/a
448.5995	0.0755	897199	keystroke_n	n	n/a
448.7795	0.076	897559	keystroke_g	g	n/a
449.0045	0.0755	898009	keystroke_Key.space	Key.space	n/a
449.2295	0.06	898459	keystroke_s	s	n/a
449.485	0.075	898970	keystroke_t	t	n/a
449.6195	0.075	899239	keystroke_r	r	n/a
450.0995	0.0605	900199	keystroke_a	a	n/a
450.2645	0.075	900529	keystroke_i	i	n/a
450.5045	0.075	901009	keystroke_n	n	n/a
450.8195	0.06	901639	keystroke_Key.space	Key.space	n/a
451.075	0.075	902150	keystroke_c	c	n/a
451.2095	0.075	902419	keystroke_o	o	n/a
451.4795	0.075	902959	keystroke_n	n	n/a
451.9305	0.104	903861	keystroke_s	s	n/a
452.1695	0.075	904339	keystroke_u	u	n/a
452.4845	0.0755	904969	keystroke_m	m	n/a
452.62	0.165	905240	keystroke_e	e	n/a
452.74	0.09	905480	keystroke_r	r	n/a
453.01	0.09	906020	keystroke_s	s	n/a
455.427	0.028	910854	keystroke_Key.enter	Key.enter	n/a
455.459	8.773	910918	prompt	n/a	provides drives scripts beauty\n
456.3255	0.0895	912651	keystroke_p	p	n/a
456.43	0.075	912860	keystroke_r	r	n/a
456.61	0.09	913220	keystroke_o	o	n/a
456.73	0.075	913460	keystroke_v	v	n/a
456.895	0.06	913790	keystroke_i	i	n/a
457.09	0.06	914180	keystroke_d	d	n/a
457.345	0.06	914690	keystroke_e	e	n/a
457.585	0.06	915170	keystroke_s	s	n/a
457.87	0.075	915740	keystroke_Key.space	Key.space	n/a
458.47	0.06	916940	keystroke_d	d	n/a
458.665	0.09	917330	keystroke_r	r	n/a
458.83	0.075	917660	keystroke_i	i	n/a
458.95	0.075	917900	keystroke_v	v	n/a
459.25	0.06	918500	keystroke_e	e	n/a
459.715	0.09	919430	keystroke_Key.space	Key.space	n/a
459.925	0.045	919850	keystroke_s	s	n/a
460.135	0.075	920270	keystroke_c	c	n/a
460.375	0.075	920750	keystroke_r	r	n/a
460.57	0.075	921140	keystroke_i	i	n/a
460.765	0.09	921530	keystroke_p	p	n/a
460.885	0.09	921770	keystroke_t	t	n/a
461.215	0.06	922430	keystroke_s	s	n/a
461.47	0.09	922940	keystroke_Key.space	Key.space	n/a
462.265	0.09	924530	keystroke_b	b	n/a
462.385	0.09	924770	keystroke_e	e	n/a
462.655	0.06	925310	keystroke_a	a	n/a
462.85	0.0755	925700	keystroke_u	u	n/a
463.045	0.075	926090	keystroke_t	t	n/a
463.3	0.0745	926600	keystroke_y	y	n/a
464.1245	0.105	928249	keystroke_Key.enter	Key.enter	n/a
464.2345	9.537	928469	prompt	n/a	interactions barriers easter full\n
465.0405	0.074	930081	keystroke_i	i	n/a
465.205	0.1055	930410	keystroke_n	n	n/a
465.3245	0.061	930649	keystroke_t	t	n/a
465.5045	0.135	931009	keystroke_e	e	n/a
465.6255	0.06	931251	keystroke_r	r	n/a
465.8645	0.0605	931729	keystroke_a	a	n/a
466.09	0.06	932180	keystroke_c	c	n/a
466.3595	0.075	932719	keystroke_t	t	n/a
466.5245	0.105	933049	keystroke_i	i	n/a
466.6145	0.09	933229	keystroke_o	o	n/a
466.8405	0.074	933681	keystroke_n	n	n/a
466.9895	0.045	933979	keystroke_s	s	n/a
467.1395	0.09	934279	keystroke_Key.space	Key.space	n/a
467.2895	0.09	934579	keystroke_b	b	n/a
467.4845	0.045	934969	keystroke_a	a	n/a
467.905	0.06	935810	keystroke_r	r	n/a
468.085	0.09	936170	keystroke_r	r	n/a
468.34	0.09	936680	keystroke_i	i	n/a
468.5955	0.165	937191	keystroke_e	e	n/a
468.7755	0.059	937551	keystroke_r	r	n/a
469.0745	0.061	938149	keystroke_s	s	n/a
469.375	0.105	938750	keystroke_Key.space	Key.space	n/a
469.66	0.06	939320	keystroke_e	e	n/a
469.9295	0.075	939859	keystroke_s	s	n/a
470.365	0.105	940730	keystroke_Key.backspace	Key.backspace	n/a
470.4555	0.1195	940911	keystroke_a	a	n/a
470.56	0.09	941120	keystroke_s	s	n/a
470.905	0.0155	941810	keystroke_t	t	n/a
471.04	0.165	942080	keystroke_e	e	n/a
471.1755	0.0895	942351	keystroke_r	r	n/a
471.34	0.1055	942680	keystroke_Key.space	Key.space	n/a
471.49	0.075	942980	keystroke_f	f	n/a
471.61	0.09	943220	keystroke_u	u	n/a
471.94	0.06	943880	keystroke_l	l	n/a
472.105	0.075	944210	keystroke_l	l	n/a
473.62	0.15	947240	keystroke_Key.enter	Key.enter	n/a
473.7745	11.322	947549	prompt	n/a	privilege john indicates erotica\n
474.655	0.12	949310	keystroke_p	p	n/a
474.835	0.09	949670	keystroke_r	r	n/a
475.435	0.105	950870	keystroke_i	i	n/a
475.645	0.09	951290	keystroke_v	v	n/a
475.84	0.09	951680	keystroke_i	i	n/a
476.23	0.075	952460	keystroke_l	l	n/a
476.62	0.06	953240	keystroke_e	e	n/a
476.98	0.06	953960	keystroke_g	g	n/a
477.235	0.06	954470	keystroke_e	e	n/a
477.49	0.075	954980	keystroke_Key.space	Key.space	n/a
477.73	0.0905	955460	keystroke_j	j	n/a
477.94	0.075	955880	keystroke_o	o	n/a
478.165	0.075	956330	keystroke_h	h	n/a
478.405	0.09	956810	keystroke_n	n	n/a
478.72	0.075	957440	keystroke_Key.space	Key.space	n/a
479.35	0.075	958700	keystroke_i	i	n/a
479.635	0.09	959270	keystroke_n	n	n/a
479.905	0.06	959810	keystroke_d	d	n/a
480.565	0.09	961130	keystroke_i	i	n/a
480.76	0.06	961520	keystroke_c	c	n/a
481.06	0.075	962120	keystroke_a	a	n/a
481.375	0.03	962750	keystroke_t	t	n/a
481.6	0.06	963200	keystroke_e	e	n/a
481.885	0.06	963770	keystroke_s	s	n/a
482.245	0.12	964490	keystroke_Key.space	Key.space	n/a
482.5	0.09	965000	keystroke_e	e	n/a
482.8	0.075	965600	keystroke_r	r	n/a
483.01	0.075	966020	keystroke_o	o	n/a
483.355	0.075	966710	keystroke_t	t	n/a
483.52	0.09	967040	keystroke_i	i	n/a
483.76	0.06	967520	keystroke_c	c	n/a
484.315	0.06	968630	keystroke_a	a	n/a
484.975	0.12	969950	keystroke_Key.enter	Key.enter	n/a
485.0995	8.082	970199	prompt	n/a	sorted prepare puzzle signing\n
485.7695	0.06	971539	keystroke_s	s	n/a
485.98	0.1195	971960	keystroke_o	o	n/a
486.1145	0.091	972229	keystroke_r	r	n/a
486.2495	0.09	972499	keystroke_t	t	n/a
486.4595	0.075	972919	keystroke_e	e	n/a
486.7145	0.06	973429	keystroke_d	d	n/a
486.8645	0.09	973729	keystroke_Key.space	Key.space	n/a
487.075	0.1045	974150	keystroke_p	p	n/a
487.2095	0.09	974419	keystroke_r	r	n/a
487.4045	0.06	974809	keystroke_e	e	n/a
487.57	0.0895	975140	keystroke_p	p	n/a
487.7055	0.059	975411	keystroke_a	a	n/a
487.9895	0.06	975979	keystroke_r	r	n/a
488.1245	0.09	976249	keystroke_e	e	n/a
489.0095	0.075	978019	keystroke_Key.space	Key.space	n/a
489.2645	0.075	978529	keystroke_p	p	n/a
489.52	0.075	979040	keystroke_u	u	n/a
489.955	0.0895	979910	keystroke_z	z	n/a
490.1795	0.105	980359	keystroke_z	z	n/a
490.66	0.075	981320	keystroke_l	l	n/a
490.84	0.045	981680	keystroke_e	e	n/a
491.0345	0.09	982069	keystroke_Key.space	Key.space	n/a
491.1845	0.075	982369	keystroke_s	s	n/a
491.3045	0.045	982609	keystroke_i	i	n/a
491.5145	0.105	983029	keystroke_n	n	n/a
491.6795	0.0905	983359	keystroke_g	g	n/a
491.8145	0.135	983629	keystroke_i	i	n/a
491.9645	0.105	983929	keystroke_n	n	n/a
492.1445	0.0605	984289	keystroke_g	g	n/a
493.075	0.1045	986150	keystroke_Key.enter	Key.enter	n/a
493.186	10.5255	986372	prompt	n/a	matrix treating mini magnitude\n
493.9	0.0895	987800	keystroke_m	m	n/a
494.0645	0.075	988129	keystroke_a	a	n/a
494.44	0.105	988880	keystroke_t	t	n/a
494.605	0.075	989210	keystroke_r	r	n/a
494.815	0.06	989630	keystroke_i	i	n/a
495.025	0.045	990050	keystroke_x	x	n/a
495.295	0.0745	990590	keystroke_Key.space	Key.space	n/a
495.6395	0.0605	991279	keystroke_t	t	n/a
495.8345	0.06	991669	keystroke_r	r	n/a
496.0745	0.06	992149	keystroke_e	e	n/a
496.375	0.06	992750	keystroke_a	a	n/a
496.825	0.0745	993650	keystroke_t	t	n/a
497.0345	0.09	994069	keystroke_m	m	n/a
497.23	0.0595	994460	keystroke_e	e	n/a
497.6945	0.09	995389	keystroke_Key.backspace	Key.backspace	n/a
497.8595	0.105	995719	keystroke_Key.backspace	Key.backspace	n/a
498.0995	0.06	996199	keystroke_i	i	n/a
498.3705	0.0745	996741	keystroke_n	n	n/a
498.5795	0.0455	997159	keystroke_g	g	n/a
498.8195	0.09	997639	keystroke_Key.space	Key.space	n/a
499.0895	0.105	998179	keystroke_m	m	n/a
499.3	0.09	998600	keystroke_i	i	n/a
499.5095	0.15	999019	keystroke_n	n	n/a
499.6745	0.0905	999349	keystroke_i	i	n/a
500.0345	0.09	1000069	keystroke_Key.space	Key.space	n/a
500.365	0.0745	1000730	keystroke_m	m	n/a
500.5745	0.09	1001149	keystroke_a	a	n/a
501.175	0.0745	1002350	keystroke_g	g	n/a
501.505	0.075	1003010	keystroke_n	n	n/a
501.7	0.09	1003400	keystroke_i	i	n/a
502.21	0.075	1004420	keystroke_t	t	n/a
502.555	0.105	1005110	keystroke_u	u	n/a
502.84	0.075	1005680	keystroke_d	d	n/a
503.11	0.075	1006220	keystroke_e	e	n/a
503.62	0.09	1007240	keystroke_Key.enter	Key.enter	n/a
503.714	13.6175	1007428	prompt	n/a	raises booty convergence counties\n
504.43	0.075	1008860	keystroke_r	r	n/a
504.7	0.045	1009400	keystroke_a	a	n/a
504.895	0.045	1009790	keystroke_s	s	n/a
505.03	0.075	1010060	keystroke_i	i	n/a
505.615	0.06	1011230	keystroke_e	e	n/a
505.825	0.06	1011650	keystroke_s	s	n/a
506.035	0.075	1012070	keystroke_Key.space	Key.space	n/a
506.335	0.075	1012670	keystroke_b	b	n/a
506.455	0.06	1012910	keystroke_o	o	n/a
507.205	0.075	1014410	keystroke_Key.backspace	Key.backspace	n/a
507.355	0.075	1014710	keystroke_Key.backspace	Key.backspace	n/a
507.535	0.06	1015070	keystroke_Key.backspace	Key.backspace	n/a
507.7	0.075	1015400	keystroke_Key.backspace	Key.backspace	n/a
507.865	0.09	1015730	keystroke_Key.backspace	Key.backspace	n/a
508.135	0.0895	1016270	keystroke_Key.backspace	Key.backspace	n/a
508.614	0.0905	1017228	keystroke_Key.backspace	Key.backspace	n/a
508.824	0.09	1017648	keystroke_i	i	n/a
508.96	0.074	1017920	keystroke_s	s	n/a
509.184	0.075	1018368	keystroke_e	e	n/a
509.364	0.075	1018728	keystroke_s	s	n/a
509.559	0.075	1019118	keystroke_Key.space	Key.space	n/a
509.694	0.0755	1019388	keystroke_b	b	n/a
509.83	0.074	1019660	keystroke_o	o	n/a
509.965	0.105	1019930	keystroke_o	o	n/a
510.114	0.166	1020228	keystroke_t	t	n/a
510.2495	0.0745	1020499	keystroke_y	y	n/a
510.474	0.06	1020948	keystroke_Key.space	Key.space	n/a
510.775	0.075	1021550	keystroke_c	c	n/a
510.985	0.09	1021970	keystroke_o	o	n/a
511.27	0.105	1022540	keystroke_n	n	n/a
511.54	0.06	1023080	keystroke_v	v	n/a
511.81	0.195	1023620	keystroke_e	e	n/a
511.96	0.09	1023920	keystroke_r	r	n/a
512.41	0.045	1024820	keystroke_g	g	n/a
512.59	0.075	1025180	keystroke_e	e	n/a
512.77	0.09	1025540	keystroke_n	n	n/a
512.95	0.06	1025900	keystroke_c	c	n/a
513.19	0.075	1026380	keystroke_e	e	n/a
513.385	0.105	1026770	keystroke_Key.space	Key.space	n/a
513.67	0.105	1027340	keystroke_c	c	n/a
513.895	0.075	1027790	keystroke_o	o	n/a
514.765	0.0445	1029530	keystroke_u	u	n/a
514.9745	0.09	1029949	keystroke_n	n	n/a
515.38	0.075	1030760	keystroke_t	t	n/a
515.545	0.105	1031090	keystroke_i	i	n/a
515.725	0.06	1031450	keystroke_e	e	n/a
515.92	0.075	1031840	keystroke_s	s	n/a
517.2245	0.105	1034449	keystroke_Key.enter	Key.enter	n/a
517.334	7.002	1034668	prompt	n/a	tire hoping brazil involve\n
518.3795	0.105	1036759	keystroke_t	t	n/a
518.56	0.075	1037120	keystroke_i	i	n/a
518.68	0.045	1037360	keystroke_r	r	n/a
518.875	0.06	1037750	keystroke_e	e	n/a
518.994	0.091	1037988	keystroke_Key.space	Key.space	n/a
519.19	0.075	1038380	keystroke_h	h	n/a
519.385	0.135	1038770	keystroke_o	o	n/a
519.535	0.0895	1039070	keystroke_p	p	n/a
519.745	0.075	1039490	keystroke_i	i	n/a
519.97	0.075	1039940	keystroke_n	n	n/a
520.12	0.06	1040240	keystroke_g	g	n/a
520.255	0.134	1040510	keystroke_Key.space	Key.space	n/a
520.405	0.06	1040810	keystroke_b	b	n/a
520.66	0.06	1041320	keystroke_r	r	n/a
521.05	0.045	1042100	keystroke_a	a	n/a
521.23	0.06	1042460	keystroke_z	z	n/a
521.35	0.075	1042700	keystroke_i	i	n/a
521.59	0.09	1043180	keystroke_l	l	n/a
521.845	0.0895	1043690	keystroke_Key.space	Key.space	n/a
522.0545	0.06	1044109	keystroke_i	i	n/a
522.2805	0.074	1044561	keystroke_n	n	n/a
522.6095	0.09	1045219	keystroke_v	v	n/a
522.7895	0.06	1045579	keystroke_o	o	n/a
522.9995	0.075	1045999	keystroke_l	l	n/a
523.1195	0.06	1046239	keystroke_v	v	n/a
523.3595	0.0755	1046719	keystroke_e	e	n/a
524.2445	0.09	1048489	keystroke_Key.enter	Key.enter	n/a
524.3385	13.618	1048677	prompt	n/a	deluxe compiled divisions contacted\n
525.34	0.09	1050680	keystroke_d	d	n/a
525.5645	0.0905	1051129	keystroke_e	e	n/a
525.7745	0.0905	1051549	keystroke_l	l	n/a
526.135	0.105	1052270	keystroke_u	u	n/a
526.9	0.0595	1053800	keystroke_x	x	n/a
527.1695	0.075	1054339	keystroke_e	e	n/a
527.47	0.09	1054940	keystroke_Key.space	Key.space	n/a
527.74	0.075	1055480	keystroke_c	c	n/a
527.845	0.09	1055690	keystroke_o	o	n/a
528.01	0.09	1056020	keystroke_m	m	n/a
528.25	0.12	1056500	keystroke_p	p	n/a
528.4	0.045	1056800	keystroke_l	l	n/a
528.64	0.075	1057280	keystroke_i	i	n/a
528.805	0.075	1057610	keystroke_e	e	n/a
529.09	0.045	1058180	keystroke_d	d	n/a
529.48	0.075	1058960	keystroke_Key.backspace	Key.backspace	n/a
529.66	0.06	1059320	keystroke_Key.backspace	Key.backspace	n/a
529.825	0.075	1059650	keystroke_Key.backspace	Key.backspace	n/a
530.2	0.105	1060400	keystroke_Key.backspace	Key.backspace	n/a
530.44	0.075	1060880	keystroke_i	i	n/a
530.695	0.06	1061390	keystroke_l	l	n/a
530.83	0.075	1061660	keystroke_e	e	n/a
531.04	0.06	1062080	keystroke_d	d	n/a
531.19	0.105	1062380	keystroke_Key.space	Key.space	n/a
531.415	0.06	1062830	keystroke_d	d	n/a
531.55	0.105	1063100	keystroke_i	i	n/a
531.79	0.06	1063580	keystroke_v	v	n/a
532	0.075	1064000	keystroke_i	i	n/a
532.555	0.09	1065110	keystroke_s	s	n/a
532.75	0.12	1065500	keystroke_i	i	n/a
532.84	0.09	1065680	keystroke_o	o	n/a
533.095	0.075	1066190	keystroke_n	n	n/a
533.275	0.06	1066550	keystroke_s	s	n/a
533.77	0.09	1067540	keystroke_Key.space	Key.space	n/a
534.19	0.0745	1068380	keystroke_c	c	n/a
534.3095	0.075	1068619	keystroke_o	o	n/a
534.55	0.09	1069100	keystroke_n	n	n/a
534.6995	0.135	1069399	keystroke_t	t	n/a
534.85	0.075	1069700	keystroke_r	r	n/a
535.645	0.12	1071290	keystroke_Key.backspace	Key.backspace	n/a
535.78	0.075	1071560	keystroke_a	a	n/a
536.065	0.06	1072130	keystroke_c	c	n/a
536.3645	0.06	1072729	keystroke_t	t	n/a
536.5595	0.06	1073119	keystroke_e	e	n/a
537.04	0.06	1074080	keystroke_d	d	n/a
537.82	0.135	1075640	keystroke_Key.enter	Key.enter	n/a
537.9615	14.3795	1075923	prompt	n/a	relief contest labels maximum\n
538.87	0.06	1077740	keystroke_r	r	n/a
539.11	0.045	1078220	keystroke_e	e	n/a
539.335	0.105	1078670	keystroke_l	l	n/a
539.815	0.09	1079630	keystroke_i	i	n/a
539.995	0.105	1079990	keystroke_e	e	n/a
540.235	0.09	1080470	keystroke_f	f	n/a
540.579	0.105	1081158	keystroke_Key.space	Key.space	n/a
541.5545	0.045	1083109	keystroke_c	c	n/a
541.6595	0.075	1083319	keystroke_o	o	n/a
541.8845	0.1055	1083769	keystroke_n	n	n/a
542.095	0.0745	1084190	keystroke_t	t	n/a
542.62	0.075	1085240	keystroke_e	e	n/a
542.89	0.06	1085780	keystroke_s	s	n/a
543.175	0.075	1086350	keystroke_t	t	n/a
543.43	0.075	1086860	keystroke_Key.space	Key.space	n/a
543.805	0.06	1087610	keystroke_l	l	n/a
543.94	0.0745	1087880	keystroke_a	a	n/a
544.2395	0.09	1088479	keystroke_b	b	n/a
544.5545	0.03	1089109	keystroke_e	e	n/a
544.7345	0.105	1089469	keystroke_l	l	n/a
544.9595	0.075	1089919	keystroke_s	s	n/a
545.1845	0.0905	1090369	keystroke_Key.space	Key.space	n/a
545.4095	0.075	1090819	keystroke_m	m	n/a
546.1295	0.09	1092259	keystroke_a	a	n/a
546.5795	0.0755	1093159	keystroke_x	x	n/a
546.835	0.09	1093670	keystroke_i	i	n/a
547.6	0.1045	1095200	keystroke_m	m	n/a
547.945	0.1045	1095890	keystroke_i	i	n/a
548.1845	0.075	1096369	keystroke_m	m	n/a
548.65	0.09	1097300	keystroke_Key.backspace	Key.backspace	n/a
548.8295	0.09	1097659	keystroke_Key.backspace	Key.backspace	n/a
549.625	0.0595	1099250	keystroke_u	u	n/a
550.045	0.0595	1100090	keystroke_m	m	n/a
552.2225	0.1175	1104445	keystroke_Key.enter	Key.enter	n/a
552.344	8.112	1104688	prompt	n/a	comfortable rain shoe register\n
553.255	0.12	1106510	keystroke_c	c	n/a
553.405	0.09	1106810	keystroke_o	o	n/a
553.9	0.075	1107800	keystroke_m	m	n/a
554.275	0.12	1108550	keystroke_f	f	n/a
554.425	0.09	1108850	keystroke_o	o	n/a
554.545	0.18	1109090	keystroke_r	r	n/a
554.695	0.075	1109390	keystroke_t	t	n/a
555.04	0.06	1110080	keystroke_a	a	n/a
555.31	0.06	1110620	keystroke_b	b	n/a
555.475	0.075	1110950	keystroke_l	l	n/a
555.625	0.09	1111250	keystroke_e	e	n/a
556.03	0.075	1112060	keystroke_Key.space	Key.space	n/a
556.165	0.06	1112330	keystroke_r	r	n/a
556.45	0.06	1112900	keystroke_a	a	n/a
556.645	0.06	1113290	keystroke_i	i	n/a
556.87	0.105	1113740	keystroke_n	n	n/a
557.05	0.089	1114100	keystroke_Key.space	Key.space	n/a
557.214	0.076	1114428	keystroke_s	s	n/a
557.395	0.09	1114790	keystroke_h	h	n/a
557.559	0.121	1115118	keystroke_o	o	n/a
557.785	0.045	1115570	keystroke_e	e	n/a
558.0245	0.0895	1116049	keystroke_Key.space	Key.space	n/a
558.25	0.06	1116500	keystroke_r	r	n/a
558.459	0.075	1116918	keystroke_e	e	n/a
558.67	0.075	1117340	keystroke_g	g	n/a
558.82	0.1045	1117640	keystroke_i	i	n/a
558.9545	0.075	1117909	keystroke_s	s	n/a
559.1795	0.075	1118359	keystroke_t	t	n/a
559.3745	0.1355	1118749	keystroke_e	e	n/a
559.4795	0.09	1118959	keystroke_r	r	n/a
560.3045	0.15	1120609	keystroke_Key.enter	Key.enter	n/a
560.4585	11.4135	1120917	prompt	n/a	documentation fans assuming israeli\n
561.2195	0.09	1122439	keystroke_d	d	n/a
561.3995	0.105	1122799	keystroke_o	o	n/a
561.5345	0.105	1123069	keystroke_c	c	n/a
561.6845	0.075	1123369	keystroke_u	u	n/a
561.925	0.075	1123850	keystroke_m	m	n/a
562.0595	0.075	1124119	keystroke_e	e	n/a
562.24	0.06	1124480	keystroke_n	n	n/a
562.4795	0.06	1124959	keystroke_t	t	n/a
562.96	0.06	1125920	keystroke_a	a	n/a
563.2145	0.0755	1126429	keystroke_t	t	n/a
563.3645	0.09	1126729	keystroke_i	i	n/a
563.44	0.1045	1126880	keystroke_o	o	n/a
563.6945	0.0755	1127389	keystroke_n	n	n/a
563.92	0.0895	1127840	keystroke_s	s	n/a
564.3395	0.09	1128679	keystroke_Key.backspace	Key.backspace	n/a
564.5195	0.105	1129039	keystroke_Key.space	Key.space	n/a
564.6695	0.0605	1129339	keystroke_f	f	n/a
564.925	0.06	1129850	keystroke_a	a	n/a
565.075	0.075	1130150	keystroke_n	n	n/a
565.27	0.045	1130540	keystroke_s	s	n/a
565.375	0.09	1130750	keystroke_Key.space	Key.space	n/a
565.555	0.045	1131110	keystroke_a	a	n/a
565.78	0.045	1131560	keystroke_s	s	n/a
565.99	0.06	1131980	keystroke_s	s	n/a
566.185	0.06	1132370	keystroke_u	u	n/a
566.575	0.0595	1133150	keystroke_m	m	n/a
566.7995	0.09	1133599	keystroke_i	i	n/a
566.9795	0.09	1133959	keystroke_n	n	n/a
567.1295	0.09	1134259	keystroke_g	g	n/a
567.3395	0.09	1134679	keystroke_Key.space	Key.space	n/a
567.5495	0.0905	1135099	keystroke_i	i	n/a
567.8795	0.075	1135759	keystroke_s	s	n/a
568.165	0.09	1136330	keystroke_r	r	n/a
568.6445	0.06	1137289	keystroke_a	a	n/a
569.0045	0.0605	1138009	keystroke_e	e	n/a
569.1395	0.1355	1138279	keystroke_l	l	n/a
569.395	0.105	1138790	keystroke_i	i	n/a
571.7525	0.117	1143505	keystroke_Key.enter	Key.enter	n/a
571.875	14.306	1143750	prompt	n/a	directory juice coupons incurred\n
572.74	0.09	1145480	keystroke_d	d	n/a
573.1	0.06	1146200	keystroke_i	i	n/a
573.28	0.075	1146560	keystroke_r	r	n/a
573.49	0.06	1146980	keystroke_e	e	n/a
573.7	0.075	1147400	keystroke_c	c	n/a
574.045	0.03	1148090	keystroke_t	t	n/a
574.495	0.105	1148990	keystroke_o	o	n/a
574.66	0.06	1149320	keystroke_r	r	n/a
574.915	0.09	1149830	keystroke_y	y	n/a
575.2295	0.09	1150459	keystroke_Key.space	Key.space	n/a
575.74	0.0895	1151480	keystroke_j	j	n/a
576.0395	0.09	1152079	keystroke_u	u	n/a
576.355	0.075	1152710	keystroke_i	i	n/a
576.505	0.075	1153010	keystroke_c	c	n/a
576.775	0.06	1153550	keystroke_e	e	n/a
577.045	0.105	1154090	keystroke_Key.space	Key.space	n/a
577.66	0.06	1155320	keystroke_c	c	n/a
578.7845	0.1055	1157569	keystroke_o	o	n/a
579.1145	0.0755	1158229	keystroke_u	u	n/a
579.3995	0.09	1158799	keystroke_p	p	n/a
579.6095	0.0755	1159219	keystroke_o	o	n/a
579.9245	0.075	1159849	keystroke_n	n	n/a
580.1495	0.0455	1160299	keystroke_s	s	n/a
581.229	0.09	1162458	keystroke_Key.space	Key.space	n/a
581.5	0.044	1163000	keystroke_i	i	n/a
581.754	0.075	1163508	keystroke_n	n	n/a
582.5795	0.075	1165159	keystroke_c	c	n/a
582.8195	0.075	1165639	keystroke_u	u	n/a
583.015	0.0445	1166030	keystroke_r	r	n/a
583.1345	0.06	1166269	keystroke_r	r	n/a
583.4045	0.075	1166809	keystroke_e	e	n/a
583.6595	0.045	1167319	keystroke_d	d	n/a
586.122	0.057	1172244	keystroke_Key.enter	Key.enter	n/a
586.1845	15.897	1172369	prompt	n/a	handed finest participated shanghai\n
587.215	0.0745	1174430	keystroke_h	h	n/a
587.379	0.075	1174758	keystroke_a	a	n/a
587.725	0.12	1175450	keystroke_n	n	n/a
587.89	0.074	1175780	keystroke_d	d	n/a
588.144	0.09	1176288	keystroke_e	e	n/a
588.4	0.075	1176800	keystroke_d	d	n/a
588.64	0.105	1177280	keystroke_Key.space	Key.space	n/a
588.82	0.09	1177640	keystroke_f	f	n/a
588.9845	0.045	1177969	keystroke_i	i	n/a
589.2545	0.105	1178509	keystroke_n	n	n/a
589.435	0.0595	1178870	keystroke_e	e	n/a
589.6445	0.06	1179289	keystroke_s	s	n/a
590.02	0.075	1180040	keystroke_t	t	n/a
590.3045	0.1055	1180609	keystroke_Key.space	Key.space	n/a
590.5895	0.09	1181179	keystroke_p	p	n/a
590.7395	0.09	1181479	keystroke_a	a	n/a
591.0995	0.075	1182199	keystroke_r	r	n/a
592.0745	0.075	1184149	keystroke_t	t	n/a
592.3005	0.089	1184601	keystroke_i	i	n/a
592.5095	0.075	1185019	keystroke_c	c	n/a
592.6445	0.075	1185289	keystroke_i	i	n/a
593.005	0.09	1186010	keystroke_p	p	n/a
593.155	0.06	1186310	keystroke_a	a	n/a
593.41	0.075	1186820	keystroke_t	t	n/a
593.62	0.06	1187240	keystroke_e	e	n/a
593.845	0.075	1187690	keystroke_d	d	n/a
594.13	0.12	1188260	keystroke_Key.space	Key.space	n/a
594.355	0.0755	1188710	keystroke_s	s	n/a
594.535	0.09	1189070	keystroke_h	h	n/a
594.745	0.06	1189490	keystroke_a	a	n/a
594.955	0.105	1189910	keystroke_n	n	n/a
595.21	0.075	1190420	keystroke_g	g	n/a
595.435	0.09	1190870	keystroke_h	h	n/a
595.705	0.06	1191410	keystroke_a	a	n/a
595.885	0.075	1191770	keystroke_i	i	n/a
601.9765	0.103	1203953	keystroke_Key.enter	Key.enter	n/a
602.084	7.3025	1204168	prompt	n/a	ready ethnic gonna jane\n
603.04	0.12	1206080	keystroke_r	r	n/a
603.1445	0.075	1206289	keystroke_e	e	n/a
603.3545	0.075	1206709	keystroke_a	a	n/a
603.5645	0.0755	1207129	keystroke_d	d	n/a
603.7745	0.075	1207549	keystroke_y	y	n/a
604.06	0.0745	1208120	keystroke_Key.space	Key.space	n/a
604.27	0.0895	1208540	keystroke_e	e	n/a
604.6145	0.15	1209229	keystroke_t	t	n/a
604.7195	0.09	1209439	keystroke_h	h	n/a
605.2595	0.1205	1210519	keystroke_n	n	n/a
605.4395	0.09	1210879	keystroke_i	i	n/a
605.6795	0.06	1211359	keystroke_c	c	n/a
606.0095	0.09	1212019	keystroke_Key.space	Key.space	n/a
606.3995	0.075	1212799	keystroke_g	g	n/a
606.5345	0.09	1213069	keystroke_o	o	n/a
606.8045	0.045	1213609	keystroke_n	n	n/a
606.9545	0.075	1213909	keystroke_n	n	n/a
607.1495	0.075	1214299	keystroke_a	a	n/a
607.3445	0.09	1214689	keystroke_Key.space	Key.space	n/a
607.8095	0.0755	1215619	keystroke_j	j	n/a
608.0195	0.06	1216039	keystroke_a	a	n/a
608.2145	0.075	1216429	keystroke_n	n	n/a
608.47	0.0595	1216940	keystroke_e	e	n/a
609.3095	0.0755	1218619	keystroke_Key.enter	Key.enter	n/a
609.389	7.9775	1218778	prompt	n/a	chrome assess agreed paths\n
610.045	0.1045	1220090	keystroke_c	c	n/a
610.2095	0.09	1220419	keystroke_h	h	n/a
610.4045	0.075	1220809	keystroke_r	r	n/a
610.5245	0.0905	1221049	keystroke_o	o	n/a
610.7795	0.075	1221559	keystroke_m	m	n/a
610.9745	0.045	1221949	keystroke_e	e	n/a
611.1845	0.105	1222369	keystroke_Key.space	Key.space	n/a
611.3945	0.075	1222789	keystroke_a	a	n/a
611.6495	0.045	1223299	keystroke_s	s	n/a
611.8145	0.045	1223629	keystroke_s	s	n/a
612.0695	0.0755	1224139	keystroke_e	e	n/a
612.3545	0.06	1224709	keystroke_s	s	n/a
612.5645	0.06	1225129	keystroke_s	s	n/a
612.835	0.1045	1225670	keystroke_Key.space	Key.space	n/a
613.0745	0.06	1226149	keystroke_a	a	n/a
613.3895	0.09	1226779	keystroke_g	g	n/a
613.5695	0.0755	1227139	keystroke_r	r	n/a
613.7945	0.075	1227589	keystroke_e	e	n/a
613.9745	0.06	1227949	keystroke_e	e	n/a
614.2295	0.06	1228459	keystroke_d	d	n/a
614.4095	0.121	1228819	keystroke_Key.space	Key.space	n/a
614.6195	0.09	1229239	keystroke_p	p	n/a
614.77	0.0595	1229540	keystroke_a	a	n/a
615.0845	0.135	1230169	keystroke_t	t	n/a
615.2045	0.106	1230409	keystroke_h	h	n/a
616.5095	0.09	1233019	keystroke_s	s	n/a
617.23	0.135	1234460	keystroke_Key.enter	Key.enter	n/a
617.37	10.3165	1234740	prompt	n/a	scheme insects flour stationery\n
618.085	0.06	1236170	keystroke_s	s	n/a
618.2805	0.0895	1236561	keystroke_c	c	n/a
618.445	0.075	1236890	keystroke_h	h	n/a
618.625	0.075	1237250	keystroke_e	e	n/a
618.895	0.09	1237790	keystroke_m	m	n/a
619.165	0.06	1238330	keystroke_e	e	n/a
619.4055	0.134	1238811	keystroke_Key.space	Key.space	n/a
619.5995	0.075	1239199	keystroke_i	i	n/a
619.8395	0.076	1239679	keystroke_n	n	n/a
620.0945	0.0755	1240189	keystroke_s	s	n/a
620.3345	0.075	1240669	keystroke_e	e	n/a
620.5295	0.106	1241059	keystroke_c	c	n/a
620.8295	0.06	1241659	keystroke_t	t	n/a
621.1895	0.045	1242379	keystroke_s	s	n/a
621.4745	0.105	1242949	keystroke_Key.space	Key.space	n/a
621.6995	0.06	1243399	keystroke_f	f	n/a
621.865	0.0745	1243730	keystroke_l	l	n/a
622.0745	0.09	1244149	keystroke_o	o	n/a
622.3445	0.03	1244689	keystroke_u	u	n/a
622.6895	0.09	1245379	keystroke_r	r	n/a
623.1245	0.105	1246249	keystroke_Key.space	Key.space	n/a
623.2595	0.09	1246519	keystroke_s	s	n/a
623.5	0.075	1247000	keystroke_t	t	n/a
623.77	0.075	1247540	keystroke_a	a	n/a
624.025	0.045	1248050	keystroke_t	t	n/a
624.37	0.075	1248740	keystroke_i	i	n/a
624.85	0.09	1249700	keystroke_o	o	n/a
625.12	0.075	1250240	keystroke_n	n	n/a
625.375	0.09	1250750	keystroke_a	a	n/a
626.0645	0.1055	1252129	keystroke_Key.backspace	Key.backspace	n/a
626.305	0.105	1252610	keystroke_e	e	n/a
626.38	0.09	1252760	keystroke_r	r	n/a
626.575	0.075	1253150	keystroke_y	y	n/a
627.55	0.135	1255100	keystroke_Key.enter	Key.enter	n/a
627.6895	9.3275	1255379	prompt	n/a	charged begin breast romance\n
628.435	0.075	1256870	keystroke_c	c	n/a
628.66	0.06	1257320	keystroke_h	h	n/a
628.78	0.075	1257560	keystroke_a	a	n/a
628.99	0.09	1257980	keystroke_r	r	n/a
629.245	0.06	1258490	keystroke_g	g	n/a
629.455	0.075	1258910	keystroke_e	e	n/a
629.68	0.06	1259360	keystroke_d	d	n/a
629.875	0.1055	1259750	keystroke_Key.space	Key.space	n/a
