onset	duration	sample	value	key	prompt_text
3.389	48.017	6778	prompt	n/a	the quick brown fox jumps over a lazy dog\n
35.0735	0.09	70147	keystroke	t	n/a
35.2985	0.075	70597	keystroke	j	n/a
35.539	0.1495	71078	keystroke	;	n/a
35.8385	0.12	71677	keystroke	;	n/a
36.0935	0.15	72187	keystroke	;	n/a
36.3935	0.09	72787	keystroke	t	n/a
36.5285	0.09	73057	keystroke	h	n/a
36.6035	0.105	73207	keystroke	e	n/a
36.9035	0.195	73807	keystroke	;	n/a
37.2185	0.15	74437	keystroke	l	n/a
37.398	0.165	74796	keystroke	k	n/a
37.578	0.12	75156	keystroke	j	n/a
39.1835	0.045	78367	keystroke	=	n/a
39.9935	0.06	79987	keystroke	Key.backspace	n/a
40.1585	0.075	80317	keystroke	Key.backspace	n/a
40.3235	0.09	80647	keystroke	Key.backspace	n/a
40.5035	0.09	81007	keystroke	Key.backspace	n/a
40.6835	0.09	81367	keystroke	Key.backspace	n/a
40.8635	0.075	81727	keystroke	Key.backspace	n/a
41.0285	0.09	82057	keystroke	Key.backspace	n/a
41.2085	0.075	82417	keystroke	Key.backspace	n/a
41.3885	0.09	82777	keystroke	Key.backspace	n/a
41.5685	0.09	83137	keystroke	Key.backspace	n/a
41.7635	0.09	83527	keystroke	Key.backspace	n/a
41.9285	0.09	83857	keystroke	Key.backspace	n/a
42.0785	0.105	84157	keystroke	Key.backspace	n/a
43.1435	0.075	86287	keystroke	t	n/a
43.2485	0.075	86497	keystroke	h	n/a
43.2935	0.105	86587	keystroke	e	n/a
43.4885	0.12	86977	keystroke	Key.space	n/a
43.8935	0.06	87787	keystroke	q	n/a
44.0285	0.105	88057	keystroke	u	n/a
44.2085	0.09	88417	keystroke	i	n/a
44.373	0.09	88746	keystroke	c	n/a
44.508	0.075	89016	keystroke	k	n/a
44.703	0.105	89406	keystroke	Key.space	n/a
45.048	0.06	90096	keystroke	b	n/a
45.153	0.09	90306	keystroke	r	n/a
45.289	0.074	90578	keystroke	o	n/a
45.408	0.075	90816	keystroke	w	n/a
45.529	0.105	91058	keystroke	n	n/a
45.678	0.12	91356	keystroke	Key.space	n/a
46.129	0.075	92258	keystroke	f	n/a
46.339	0.075	92678	keystroke	o	n/a
46.399	0.075	92798	keystroke	x	n/a
46.548	0.135	93096	keystroke	Key.space	n/a
46.939	0.015	93878	keystroke	j	n/a
47.134	0.014	94268	keystroke	u	n/a
47.359	0.12	94718	keystroke	m	n/a
47.614	0.104	95228	keystroke	p	n/a
47.823	0.075	95646	keystroke	s	n/a
47.988	0.105	95976	keystroke	Key.space	n/a
48.198	0.075	96396	keystroke	o	n/a
48.259	0.089	96518	keystroke	v	n/a
48.423	0.12	96846	keystroke	e	n/a
48.529	0.09	97058	keystroke	r	n/a
48.633	0.105	97266	keystroke	Key.space	n/a
48.859	0.119	97718	keystroke	a	n/a
48.993	0.12	97986	keystroke	Key.space	n/a
49.249	0.089	98498	keystroke	l	n/a
49.578	0.091	99156	keystroke	a	n/a
49.789	0.089	99578	keystroke	z	n/a
49.953	0.076	99906	keystroke	y	n/a
50.133	0.12	100266	keystroke	Key.space	n/a
50.343	0.091	100686	keystroke	d	n/a
50.464	0.074	100928	keystroke	o	n/a
50.584	0.089	101168	keystroke	g	n/a
51.303	0.09	102606	keystroke	Key.enter	n/a
51.418	8.318	102836	prompt	n/a	trace trans noon join\n
53.946	0.001	107892	keystroke	t	n/a
54.064	0.089	108128	keystroke	r	n/a
54.289	0.134	108578	keystroke	a	n/a
54.513	0.076	109026	keystroke	c	n/a
54.664	0.089	109328	keystroke	e	n/a
55.098	0.075	110196	keystroke	Key.space	n/a
55.669	0.075	111338	keystroke	t	n/a
55.864	0.09	111728	keystroke	r	n/a
56.059	0.105	112118	keystroke	a	n/a
56.209	0.075	112418	keystroke	n	n/a
56.344	0.09	112688	keystroke	s	n/a
56.539	0.12	113078	keystroke	Key.space	n/a
56.868	0.075	113736	keystroke	n	n/a
57.079	0.075	114158	keystroke	o	n/a
57.3935	0.075	114787	keystroke	o	n/a
57.6185	0.075	115237	keystroke	n	n/a
57.9335	0.12	115867	keystroke	Key.space	n/a
58.4735	0.06	116947	keystroke	j	n/a
58.6535	0.075	117307	keystroke	o	n/a
58.8035	0.105	117607	keystroke	i	n/a
58.9235	0.09	117847	keystroke	n	n/a
59.643	0.09	119286	keystroke	Key.enter	n/a
59.742	9.3685	119484	prompt	n/a	clan sustainable deaths decrease\n
60.4535	0.09	120907	keystroke	c	n/a
60.7085	0.075	121417	keystroke	l	n/a
60.8285	0.105	121657	keystroke	a	n/a
60.9485	0.075	121897	keystroke	n	n/a
61.1885	0.09	122377	keystroke	Key.space	n/a
61.6085	0.105	123217	keystroke	s	n/a
61.8635	0.015	123727	keystroke	u	n/a
61.9085	0.09	123817	keystroke	s	n/a
62.1635	0.06	124327	keystroke	t	n/a
62.3435	0.12	124687	keystroke	a	n/a
62.5085	0.105	125017	keystroke	i	n/a
63.9185	0.075	127837	keystroke	n	n/a
64.1285	0.105	128257	keystroke	a	n/a
64.3085	0.06	128617	keystroke	b	n/a
64.5185	0.06	129037	keystroke	l	n/a
64.5635	0.09	129127	keystroke	e	n/a
64.8185	0.105	129637	keystroke	Key.space	n/a
65.0135	0.075	130027	keystroke	d	n/a
65.2235	0.09	130447	keystroke	e	n/a
65.4035	0.18	130807	keystroke	a	n/a
65.5985	0.075	131197	keystroke	t	n/a
65.8235	0.06	131647	keystroke	h	n/a
65.9885	0.06	131977	keystroke	s	n/a
66.1685	0.09	132337	keystroke	Key.space	n/a
66.3335	0.075	132667	keystroke	d	n/a
66.5285	0.075	133057	keystroke	e	n/a
66.8135	0.075	133627	keystroke	c	n/a
67.0835	0.03	134167	keystroke	r	n/a
67.2335	0.12	134467	keystroke	e	n/a
68.0135	0.165	136027	keystroke	a	n/a
68.1335	0.12	136267	keystroke	s	n/a
68.2085	0.12	136417	keystroke	e	n/a
69.0185	0.09	138037	keystroke	Key.enter	n/a
69.1145	6.671	138229	prompt	n/a	holy agents retention reforms\n
69.7985	0.09	139597	keystroke	h	n/a
69.9485	0.075	139897	keystroke	o	n/a
70.1735	0.12	140347	keystroke	l	n/a
70.3685	0.105	140737	keystroke	y	n/a
70.5785	0.12	141157	keystroke	Key.space	n/a
70.9685	0.18	141937	keystroke	a	n/a
71.1635	0.09	142327	keystroke	g	n/a
71.3885	0.105	142777	keystroke	e	n/a
71.5535	0.075	143107	keystroke	n	n/a
71.6735	0.075	143347	keystroke	t	n/a
71.8685	0.105	143737	keystroke	s	n/a
72.0485	0.135	144097	keystroke	Key.space	n/a
72.3485	0.135	144697	keystroke	r	n/a
72.4685	0.09	144937	keystroke	e	n/a
72.6635	0.075	145327	keystroke	t	n/a
72.8285	0.105	145657	keystroke	e	n/a
72.9485	0.075	145897	keystroke	n	n/a
73.0685	0.075	146137	keystroke	t	n/a
73.1735	0.12	146347	keystroke	i	n/a
73.3235	0.075	146647	keystroke	o	n/a
73.3685	0.135	146737	keystroke	n	n/a
73.6835	0.105	147367	keystroke	Key.space	n/a
73.9835	0.135	147967	keystroke	r	n/a
74.0885	0.105	148177	keystroke	e	n/a
74.2985	0.09	148597	keystroke	f	n/a
74.4485	0.09	148897	keystroke	o	n/a
74.5835	0.075	149167	keystroke	r	n/a
74.7185	0.09	149437	keystroke	m	n/a
74.8535	0.09	149707	keystroke	s	n/a
75.679	0.104	151358	keystroke	Key.enter	n/a
75.791	7.974	151582	prompt	n/a	course aerospace closes proc\n
76.518	0.091	153036	keystroke	c	n/a
76.714	0.09	153428	keystroke	o	n/a
76.849	0.09	153698	keystroke	u	n/a
76.909	0.09	153818	keystroke	r	n/a
77.148	0.121	154296	keystroke	s	n/a
77.238	0.106	154476	keystroke	e	n/a
77.493	0.135	154986	keystroke	Key.space	n/a
78.364	0.09	156728	keystroke	a	n/a
78.574	0.09	157148	keystroke	e	n/a
78.769	0.09	157538	keystroke	r	n/a
78.934	0.075	157868	keystroke	o	n/a
79.354	0.09	158708	keystroke	s	n/a
79.488	0.091	158976	keystroke	p	n/a
79.609	0.15	159218	keystroke	a	n/a
79.714	0.15	159428	keystroke	c	n/a
79.834	0.12	159668	keystroke	e	n/a
80.254	0.135	160508	keystroke	Key.space	n/a
80.644	0.089	161288	keystroke	c	n/a
80.748	0.09	161496	keystroke	l	n/a
80.973	0.061	161946	keystroke	o	n/a
81.079	0.105	162158	keystroke	s	n/a
81.154	0.105	162308	keystroke	e	n/a
81.679	0.075	163358	keystroke	s	n/a
82.0985	0.119	164197	keystroke	Key.space	n/a
82.5485	0.1045	165097	keystroke	p	n/a
82.669	0.075	165338	keystroke	r	n/a
82.788	0.076	165576	keystroke	o	n/a
82.894	0.105	165788	keystroke	c	n/a
83.6585	0.105	167317	keystroke	Key.enter	n/a
83.769	57.007	167538	prompt	n/a	ringtone stroke updating publishers\n
84.3935	0.09	168787	keystroke	r	n/a
84.5285	0.075	169057	keystroke	i	n/a
84.7085	0.06	169417	keystroke	g	n/a
84.8285	0.06	169657	keystroke	h	n/a
85.159	0.089	170318	keystroke	t	n/a
85.324	0.059	170648	keystroke	o	n/a
85.548	0.075	171096	keystroke	n	n/a
85.893	0.076	171786	keystroke	e	n/a
87.693	0.015	175386	keystroke	Key.backspace	n/a
87.873	0.09	175746	keystroke	Key.backspace	n/a
88.053	0.09	176106	keystroke	Key.backspace	n/a
88.248	0.075	176496	keystroke	Key.backspace	n/a
88.413	0.09	176826	keystroke	Key.backspace	n/a
95.8365	0.115	191673	keystroke	Key.up	n/a
96.292	0.115	192584	keystroke	Key.up	n/a
101.3015	0.0115	202603	keystroke	Key.right	n/a
103.023	0.075	206046	keystroke	Key.backspace	n/a
104.328	0.075	208656	keystroke	Key.backspace	n/a
105.963	0.105	211926	keystroke	r	n/a
107.898	0.09	215796	keystroke	i	n/a
108.153	0.075	216306	keystroke	n	n/a
108.303	0.105	216606	keystroke	g	n/a
109.5635	0.1045	219127	keystroke	Key.space	n/a
111.951	0.042	223902	keystroke	t	n/a
112.053	0.09	224106	keystroke	o	n/a
112.278	0.045	224556	keystroke	n	n/a
112.324	0.089	224648	keystroke	e	n/a
113.253	0.15	226506	keystroke	Key.space	n/a
115.2035	0.075	230407	keystroke	Key.backspace	n/a
115.3985	0.09	230797	keystroke	Key.backspace	n/a
115.5935	0.075	231187	keystroke	Key.backspace	n/a
115.7885	0.045	231577	keystroke	Key.backspace	n/a
115.9685	0.06	231937	keystroke	Key.backspace	n/a
116.1485	0.075	232297	keystroke	Key.backspace	n/a
116.3285	0.075	232657	keystroke	Key.backspace	n/a
121.042	0.026	242084	keystroke	Key.backspace	n/a
121.248	0.075	242496	keystroke	Key.backspace	n/a
125.931	0.087	251862	keystroke	Key.space	n/a
127.608	0.105	255216	keystroke	Key.backspace	n/a
130.161	0.012	260322	keystroke	i	n/a
130.323	0.075	260646	keystroke	n	n/a
130.608	0.075	261216	keystroke	g	n/a
132.453	0.076	264906	keystroke	t	n/a
132.753	0.09	265506	keystroke	o	n/a
132.888	0.09	265776	keystroke	n	n/a
132.963	0.075	265926	keystroke	e	n/a
133.113	0.135	266226	keystroke	Key.space	n/a
133.443	0.105	266886	keystroke	s	n/a
133.773	0.09	267546	keystroke	t	n/a
133.983	0.075	267966	keystroke	r	n/a
134.118	0.09	268236	keystroke	o	n/a
134.313	0.0745	268626	keystroke	k	n/a
134.418	0.075	268836	keystroke	e	n/a
134.5825	0.135	269165	keystroke	Key.space	n/a
135.6635	0.104	271327	keystroke	u	n/a
135.8575	0.106	271715	keystroke	p	n/a
136.1585	0.194	272317	keystroke	d	n/a
136.3375	0.24	272675	keystroke	a	n/a
136.5185	0.089	273037	keystroke	t	n/a
136.6375	0.09	273275	keystroke	i	n/a
136.7725	0.076	273545	keystroke	n	n/a
136.8335	0.059	273667	keystroke	g	n/a
136.9975	0.105	273995	keystroke	Key.space	n/a
137.3875	0.18	274775	keystroke	p	n/a
137.5985	0.06	275197	keystroke	u	n/a
137.8835	0.059	275767	keystroke	b	n/a
138.1225	0.09	276245	keystroke	l	n/a
138.3625	0.075	276725	keystroke	i	n/a
138.4985	0.119	276997	keystroke	s	n/a
138.6635	0.06	277327	keystroke	h	n/a
138.8885	0.179	277777	keystroke	e	n/a
139.0535	0.104	278107	keystroke	r	n/a
139.593	0.09	279186	keystroke	s	n/a
140.673	0.09	281346	keystroke	Key.enter	n/a
140.7865	9.189	281573	prompt	n/a	adapter counts tales expected\n
141.6335	0.045	283267	keystroke	s	n/a
142.5475	0.105	285095	keystroke	Key.backspace	n/a
142.9535	0.15	285907	keystroke	a	n/a
143.1185	0.15	286237	keystroke	d	n/a
143.2535	0.135	286507	keystroke	a	n/a
143.5085	0.12	287017	keystroke	p	n/a
143.7035	0.09	287407	keystroke	t	n/a
143.8685	0.135	287737	keystroke	e	n/a
143.9735	0.09	287947	keystroke	r	n/a
144.6035	0.105	289207	keystroke	Key.space	n/a
145.0385	0.09	290077	keystroke	c	n/a
145.1435	0.135	290287	keystroke	o	n/a
145.2785	0.075	290557	keystroke	u	n/a
145.5185	0.045	291037	keystroke	n	n/a
145.5935	0.09	291187	keystroke	t	n/a
145.8335	0.09	291667	keystroke	s	n/a
146.1625	0.135	292325	keystroke	Key.space	n/a
146.5085	0.075	293017	keystroke	t	n/a
146.6735	0.105	293347	keystroke	a	n/a
146.8535	0.075	293707	keystroke	l	n/a
146.9435	0.075	293887	keystroke	e	n/a
147.1385	0.09	294277	keystroke	s	n/a
147.4835	0.105	294967	keystroke	Key.space	n/a
147.7235	0.09	295447	keystroke	e	n/a
147.9485	0.06	295897	keystroke	x	n/a
148.1435	0.105	296287	keystroke	p	n/a
148.2335	0.075	296467	keystroke	e	n/a
148.4435	0.09	296887	keystroke	c	n/a
148.6835	0.075	297367	keystroke	t	n/a
148.8335	0.09	297667	keystroke	e	n/a
149.0285	0.12	298057	keystroke	d	n/a
149.8825	0.09	299765	keystroke	Key.enter	n/a
149.984	7.6415	299968	prompt	n/a	glad longest uncle this\n
150.6935	0.06	301387	keystroke	g	n/a
151.1135	0.074	302227	keystroke	l	n/a
151.2635	0.134	302527	keystroke	a	n/a
151.4435	0.044	302887	keystroke	d	n/a
151.5475	0.105	303095	keystroke	Key.space	n/a
152.0575	0.075	304115	keystroke	o	n/a
153.1075	0.09	306215	keystroke	Key.backspace	n/a
153.4375	0.076	306875	keystroke	l	n/a
153.6625	0.075	307325	keystroke	o	n/a
153.8135	0.075	307627	keystroke	n	n/a
153.9335	0.105	307867	keystroke	g	n/a
154.1585	0.09	308317	keystroke	e	n/a
154.3685	0.15	308737	keystroke	s	n/a
154.4885	0.074	308977	keystroke	t	n/a
155.028	0.12	310056	keystroke	Key.space	n/a
155.313	0.075	310626	keystroke	u	n/a
155.553	0.075	311106	keystroke	n	n/a
155.748	0.075	311496	keystroke	c	n/a
155.973	0.09	311946	keystroke	l	n/a
156.048	0.0895	312096	keystroke	e	n/a
156.3185	0.089	312637	keystroke	Key.space	n/a
156.5285	0.075	313057	keystroke	t	n/a
156.6175	0.091	313235	keystroke	h	n/a
156.8285	0.06	313657	keystroke	i	n/a
156.9325	0.091	313865	keystroke	s	n/a
157.5175	0.105	315035	keystroke	Key.enter	n/a
157.632	5.919	315264	prompt	n/a	briefing sound slim idle\n
158.4025	0.045	316805	keystroke	b	n/a
158.5375	0.075	317075	keystroke	r	n/a
158.7325	0.075	317465	keystroke	i	n/a
158.7925	0.075	317585	keystroke	e	n/a
159.0035	0.089	318007	keystroke	f	n/a
159.1385	0.074	318277	keystroke	i	n/a
159.2575	0.076	318515	keystroke	n	n/a
159.3475	0.06	318695	keystroke	g	n/a
159.6475	0.075	319295	keystroke	Key.space	n/a
160.1575	0.105	320315	keystroke	s	n/a
160.3075	0.105	320615	keystroke	o	n/a
160.4425	0.09	320885	keystroke	u	n/a
160.6825	0.045	321365	keystroke	n	n/a
160.7585	0.089	321517	keystroke	d	n/a
160.9675	0.12	321935	keystroke	Key.space	n/a
161.3125	0.105	322625	keystroke	s	n/a
161.4325	0.045	322865	keystroke	l	n/a
161.5825	0.075	323165	keystroke	i	n/a
161.8225	0.075	323645	keystroke	m	n/a
162.1075	0.105	324215	keystroke	Key.space	n/a
162.4075	0.06	324815	keystroke	i	n/a
162.5125	0.09	325025	keystroke	d	n/a
162.7525	0.045	325505	keystroke	l	n/a
162.8425	0.06	325685	keystroke	e	n/a
163.4725	0.075	326945	keystroke	Key.enter	n/a
163.557	6.8935	327114	prompt	n/a	note anne phentermine values\n
164.268	0.09	328536	keystroke	n	n/a
164.373	0.09	328746	keystroke	o	n/a
164.508	0.105	329016	keystroke	t	n/a
164.643	0.105	329286	keystroke	e	n/a
164.868	0.075	329736	keystroke	Key.space	n/a
165.108	0.09	330216	keystroke	a	n/a
165.258	0.075	330516	keystroke	n	n/a
165.4225	0.09	330845	keystroke	n	n/a
165.6025	0.09	331205	keystroke	e	n/a
165.993	0.1195	331986	keystroke	Key.space	n/a
166.803	0.135	333606	keystroke	p	n/a
166.998	0.075	333996	keystroke	h	n/a
167.373	0.09	334746	keystroke	e	n/a
167.508	0.075	335016	keystroke	n	n/a
167.793	0.075	335586	keystroke	t	n/a
168.033	0.12	336066	keystroke	e	n/a
168.108	0.1055	336216	keystroke	r	n/a
168.3035	0.075	336607	keystroke	m	n/a
168.4835	0.075	336967	keystroke	i	n/a
168.618	0.0755	337236	keystroke	n	n/a
168.6935	0.075	337387	keystroke	e	n/a
168.8285	0.105	337657	keystroke	Key.space	n/a
168.9485	0.09	337897	keystroke	v	n/a
169.0985	0.105	338197	keystroke	a	n/a
169.2635	0.135	338527	keystroke	l	n/a
169.4585	0.075	338917	keystroke	u	n/a
169.6985	0.015	339397	keystroke	e	n/a
169.8185	0.09	339637	keystroke	s	n/a
170.3585	0.09	340717	keystroke	Key.enter	n/a
170.4575	8.8145	340915	prompt	n/a	estates press reno shakespeare\n
171.1085	0.075	342217	keystroke	e	n/a
171.393	0.0905	342786	keystroke	s	n/a
171.6035	0.0595	343207	keystroke	t	n/a
171.753	0.12	343506	keystroke	a	n/a
172.203	0.09	344406	keystroke	t	n/a
172.428	0.06	344856	keystroke	e	n/a
172.6085	0.0895	345217	keystroke	s	n/a
172.998	0.12	345996	keystroke	Key.space	n/a
173.5835	0.09	347167	keystroke	p	n/a
173.7935	0.105	347587	keystroke	r	n/a
174.3185	0.0595	348637	keystroke	e	n/a
174.528	0.075	349056	keystroke	s	n/a
174.708	0.1055	349416	keystroke	s	n/a
174.933	0.105	349866	keystroke	Key.space	n/a
175.203	0.12	350406	keystroke	r	n/a
175.293	0.09	350586	keystroke	e	n/a
175.713	0.075	351426	keystroke	n	n/a
175.848	0.075	351696	keystroke	o	n/a
176.118	0.12	352236	keystroke	Key.space	n/a
176.538	0.09	353076	keystroke	s	n/a
176.703	0.06	353406	keystroke	h	n/a
176.823	0.105	353646	keystroke	a	n/a
176.958	0.06	353916	keystroke	k	n/a
177.228	0.09	354456	keystroke	e	n/a
177.558	0.09	355116	keystroke	s	n/a
177.888	0.09	355776	keystroke	p	n/a
178.038	0.075	356076	keystroke	e	n/a
178.143	0.15	356286	keystroke	a	n/a
178.263	0.075	356526	keystroke	r	n/a
178.413	0.075	356826	keystroke	e	n/a
179.193	0.075	358386	keystroke	Key.enter	n/a
179.2785	8.468	358557	prompt	n/a	televisions receive nothing transmitted\n
180.0185	0.0745	360037	keystroke	t	n/a
180.138	0.075	360276	keystroke	e	n/a
180.423	0.06	360846	keystroke	l	n/a
180.498	0.105	360996	keystroke	e	n/a
180.738	0.09	361476	keystroke	v	n/a
180.948	0.06	361896	keystroke	i	n/a
181.098	0.09	362196	keystroke	s	n/a
181.173	0.09	362346	keystroke	i	n/a
181.278	0.12	362556	keystroke	o	n/a
181.368	0.09	362736	keystroke	n	n/a
181.443	0.075	362886	keystroke	s	n/a
181.593	0.12	363186	keystroke	Key.space	n/a
181.893	0.105	363786	keystroke	r	n/a
181.983	0.12	363966	keystroke	e	n/a
182.373	0.15	364746	keystroke	c	n/a
182.508	0.135	365016	keystroke	e	n/a
182.718	0.09	365436	keystroke	i	n/a
182.823	0.12	365646	keystroke	v	n/a
182.928	0.12	365856	keystroke	e	n/a
183.393	0.12	366786	keystroke	Key.space	n/a
183.798	0.06	367596	keystroke	n	n/a
183.903	0.105	367806	keystroke	o	n/a
184.068	0.06	368136	keystroke	t	n/a
184.143	0.09	368286	keystroke	h	n/a
184.338	0.06	368676	keystroke	i	n/a
184.413	0.0755	368826	keystroke	n	n/a
184.503	0.06	369006	keystroke	g	n/a
184.833	0.09	369666	keystroke	Key.space	n/a
185.133	0.075	370266	keystroke	t	n/a
185.328	0.06	370656	keystroke	r	n/a
185.478	0.09	370956	keystroke	a	n/a
185.598	0.075	371196	keystroke	n	n/a
185.718	0.09	371436	keystroke	s	n/a
185.943	0.045	371886	keystroke	m	n/a
186.093	0.075	372186	keystroke	i	n/a
186.258	0.03	372516	keystroke	t	n/a
186.828	0.06	373656	keystroke	t	n/a
187.038	0.075	374076	keystroke	e	n/a
187.233	0.075	374466	keystroke	d	n/a
187.653	0.09	375306	keystroke	Key.enter	n/a
187.753	22.357	375506	prompt	n/a	atlas defence strong stories\n
188.328	0.12	376656	keystroke	a	n/a
188.508	0.075	377016	keystroke	l	n/a
188.718	0.06	377436	keystroke	t	n/a
188.928	0.165	377856	keystroke	a	n/a
189.078	0.09	378156	keystroke	s	n/a
189.678	0.09	379356	keystroke	Key.space	n/a
190.368	0.075	380736	keystroke	d	n/a
190.533	0.09	381066	keystroke	e	n/a
190.744	0.089	381488	keystroke	f	n/a
190.938	0.09	381876	keystroke	e	n/a
191.073	0.076	382146	keystroke	n	n/a
191.163	0.136	382326	keystroke	c	n/a
191.283	0.09	382566	keystroke	e	n/a
192.438	0.12	384876	keystroke	Key.space	n/a
192.739	0.089	385478	keystroke	s	n/a
198.7415	0.057	397483	keystroke	Key.backspace	n/a
198.8885	0.105	397777	keystroke	Key.backspace	n/a
199.0685	0.105	398137	keystroke	Key.backspace	n/a
199.3535	0.015	398707	keystroke	Key.backspace	n/a
199.4585	0.09	398917	keystroke	Key.backspace	n/a
199.6385	0.105	399277	keystroke	Key.backspace	n/a
199.8485	0.09	399697	keystroke	Key.backspace	n/a
200.0435	0.09	400087	keystroke	Key.backspace	n/a
200.2235	0.075	400447	keystroke	Key.backspace	n/a
200.4335	0.045	400867	keystroke	Key.backspace	n/a
200.6135	0.06	401227	keystroke	Key.backspace	n/a
200.7935	0.06	401587	keystroke	Key.backspace	n/a
200.9735	0.075	401947	keystroke	Key.backspace	n/a
201.1535	0.075	402307	keystroke	Key.backspace	n/a
202.2185	0.075	404437	keystroke	t	n/a
202.4435	0.105	404887	keystroke	l	n/a
202.5785	0.15	405157	keystroke	a	n/a
202.6835	0.12	405367	keystroke	s	n/a
202.9535	0.135	405907	keystroke	Key.space	n/a
203.5535	0.075	407107	keystroke	d	n/a
203.7635	0.09	407527	keystroke	e	n/a
204.0035	0.075	408007	keystroke	f	n/a
204.1835	0.09	408367	keystroke	e	n/a
204.3485	0.075	408697	keystroke	n	n/a
204.4535	0.135	408907	keystroke	c	n/a
204.5585	0.12	409117	keystroke	e	n/a
204.8285	0.12	409657	keystroke	Key.space	n/a
206.643	0.12	413286	keystroke	s	n/a
206.838	0.075	413676	keystroke	t	n/a
207.049	0.0745	414098	keystroke	r	n/a
207.2435	0.09	414487	keystroke	o	n/a
207.498	0.076	414996	keystroke	n	n/a
207.633	0.061	415266	keystroke	g	n/a
207.888	0.12	415776	keystroke	Key.space	n/a
208.353	0.105	416706	keystroke	s	n/a
208.579	0.06	417158	keystroke	t	n/a
208.773	0.06	417546	keystroke	o	n/a
208.849	0.075	417698	keystroke	r	n/a
209.029	0.06	418058	keystroke	i	n/a
209.103	0.045	418206	keystroke	e	n/a
209.269	0.104	418538	keystroke	s	n/a
209.988	0.12	419976	keystroke	Key.enter	n/a
210.1145	7.886	420229	prompt	n/a	needed pointer graduates whether\n
210.814	0.06	421628	keystroke	n	n/a
210.934	0.09	421868	keystroke	e	n/a
211.129	0.074	422258	keystroke	e	n/a
211.324	0.075	422648	keystroke	d	n/a
211.518	0.061	423036	keystroke	e	n/a
211.683	0.09	423366	keystroke	d	n/a
211.938	0.12	423876	keystroke	Key.space	n/a
212.253	0.091	424506	keystroke	p	n/a
212.479	0.075	424958	keystroke	o	n/a
212.644	0.06	425288	keystroke	i	n/a
212.734	0.074	425468	keystroke	n	n/a
212.913	0.061	425826	keystroke	t	n/a
213.033	0.105	426066	keystroke	e	n/a
213.2585	0.09	426517	keystroke	d	n/a
213.5735	0.12	427147	keystroke	Key.space	n/a
213.9035	0.075	427807	keystroke	g	n/a
214.1285	0.06	428257	keystroke	r	n/a
214.2785	0.12	428557	keystroke	a	n/a
214.4285	0.09	428857	keystroke	d	n/a
214.6235	0.06	429247	keystroke	u	n/a
214.713	0.165	429426	keystroke	a	n/a
214.894	0.059	429788	keystroke	t	n/a
214.983	0.105	429966	keystroke	e	n/a
215.193	0.075	430386	keystroke	s	n/a
215.358	0.105	430716	keystroke	Key.space	n/a
215.509	0.105	431018	keystroke	w	n/a
215.899	0.075	431798	keystroke	h	n/a
216.034	0.075	432068	keystroke	e	n/a
216.243	0.06	432486	keystroke	t	n/a
216.769	0.045	433538	keystroke	h	n/a
216.978	0.12	433956	keystroke	e	n/a
217.113	0.061	434226	keystroke	r	n/a
217.878	0.12	435756	keystroke	Key.enter	n/a
218.005	8.965	436010	prompt	n/a	surgeons skirt participated shoe\n
218.6435	0.09	437287	keystroke	s	n/a
218.8085	0.09	437617	keystroke	u	n/a
218.9435	0.06	437887	keystroke	r	n/a
219.3935	0.06	438787	keystroke	g	n/a
219.5885	0.09	439177	keystroke	e	n/a
220.3235	0.075	440647	keystroke	o	n/a
220.5035	0.06	441007	keystroke	n	n/a
220.6835	0.09	441367	keystroke	s	n/a
220.9085	0.12	441817	keystroke	Key.space	n/a
221.1785	0.09	442357	keystroke	s	n/a
221.3735	0.09	442747	keystroke	k	n/a
221.7635	0.075	443527	keystroke	i	n/a
221.8835	0.06	443767	keystroke	r	n/a
222.0785	0.075	444157	keystroke	t	n/a
222.6035	0.135	445207	keystroke	Key.space	n/a
223.5485	0.09	447097	keystroke	p	n/a
223.6685	0.165	447337	keystroke	a	n/a
223.8185	0.06	447637	keystroke	r	n/a
224.0135	0.075	448027	keystroke	t	n/a
224.1185	0.06	448237	keystroke	i	n/a
224.2835	0.09	448567	keystroke	c	n/a
224.4035	0.09	448807	keystroke	i	n/a
224.568	0.105	449136	keystroke	p	n/a
224.688	0.135	449376	keystroke	a	n/a
224.868	0.09	449736	keystroke	t	n/a
225.003	0.09	450006	keystroke	e	n/a
225.228	0.06	450456	keystroke	d	n/a
225.468	0.105	450936	keystroke	Key.space	n/a
225.783	0.075	451566	keystroke	s	n/a
225.873	0.06	451746	keystroke	h	n/a
226.113	0.045	452226	keystroke	o	n/a
226.173	0.06	452346	keystroke	e	n/a
226.878	0.09	453756	keystroke	Key.enter	n/a
226.9755	11.7995	453951	prompt	n/a	elliott temperature blade samuel\n
227.778	0.09	455556	keystroke	e	n/a
228.408	0.075	456816	keystroke	l	n/a
228.588	0.075	457176	keystroke	l	n/a
229.053	0.06	458106	keystroke	i	n/a
229.383	0.06	458766	keystroke	o	n/a
229.503	0.075	459006	keystroke	t	n/a
229.683	0.09	459366	keystroke	t	n/a
230.058	0.135	460116	keystroke	Key.space	n/a
230.748	0.045	461496	keystroke	e	n/a
231.903	0.105	463806	keystroke	Key.backspace	n/a
232.233	0.09	464466	keystroke	t	n/a
232.398	0.105	464796	keystroke	e	n/a
232.668	0.09	465336	keystroke	m	n/a
233.283	0.075	466566	keystroke	p	n/a
233.494	0.149	466988	keystroke	e	n/a
233.628	0.09	467256	keystroke	r	n/a
233.853	0.12	467706	keystroke	a	n/a
234.048	0.045	468096	keystroke	t	n/a
234.153	0.075	468306	keystroke	u	n/a
234.243	0.105	468486	keystroke	r	n/a
234.318	0.105	468636	keystroke	e	n/a
234.768	0.135	469536	keystroke	Key.space	n/a
235.278	0.075	470556	keystroke	b	n/a
235.593	0.075	471186	keystroke	l	n/a
235.773	0.135	471546	keystroke	a	n/a
235.923	0.075	471846	keystroke	d	n/a
236.163	0.06	472326	keystroke	e	n/a
236.583	0.105	473166	keystroke	Key.space	n/a
236.958	0.075	473916	keystroke	s	n/a
237.138	0.1195	474276	keystroke	a	n/a
237.2725	0.105	474545	keystroke	m	n/a
237.513	0.075	475026	keystroke	u	n/a
237.768	0.0595	475536	keystroke	e	n/a
237.933	0.06	475866	keystroke	l	n/a
238.6525	0.12	477305	keystroke	Key.enter	n/a
238.78	12.6995	477560	prompt	n/a	arbitrary detect plaintiff revised\n
239.6275	0.121	479255	keystroke	a	n/a
239.8075	0.075	479615	keystroke	r	n/a
240.1675	0.06	480335	keystroke	b	n/a
240.3025	0.06	480605	keystroke	i	n/a
241.8775	0.06	483755	keystroke	t	n/a
242.0875	0.075	484175	keystroke	r	n/a
242.3575	0.15	484715	keystroke	a	n/a
242.4925	0.091	484985	keystroke	r	n/a
242.6725	0.075	485345	keystroke	y	n/a
243.2125	0.135	486425	keystroke	Key.space	n/a
243.4675	0.06	486935	keystroke	d	n/a
243.6325	0.09	487265	keystroke	e	n/a
244.0525	0.105	488105	keystroke	e	n/a
245.5525	0.09	491105	keystroke	Key.backspace	n/a
245.8075	0.12	491615	keystroke	t	n/a
245.9285	0.119	491857	keystroke	e	n/a
246.2125	0.09	492425	keystroke	c	n/a
246.4675	0.06	492935	keystroke	t	n/a
246.9775	0.09	493955	keystroke	Key.space	n/a
247.3375	0.09	494675	keystroke	p	n/a
247.6675	0.06	495335	keystroke	l	n/a
247.7425	0.12	495485	keystroke	a	n/a
247.9075	0.075	495815	keystroke	i	n/a
248.0275	0.06	496055	keystroke	n	n/a
248.3425	0.075	496685	keystroke	t	n/a
248.6275	0.06	497255	keystroke	i	n/a
248.7775	0.0455	497555	keystroke	f	n/a
248.913	0.09	497826	keystroke	f	n/a
249.258	0.135	498516	keystroke	Key.space	n/a
249.678	0.15	499356	keystroke	r	n/a
249.798	0.09	499596	keystroke	e	n/a
250.053	0.075	500106	keystroke	v	n/a
250.188	0.075	500376	keystroke	i	n/a
250.308	0.1195	500616	keystroke	s	n/a
250.4125	0.075	500825	keystroke	e	n/a
250.6075	0.09	501215	keystroke	d	n/a
251.373	0.105	502746	keystroke	Key.enter	n/a
251.484	9.9715	502968	prompt	n/a	alphabetical sales numeric prisoner\n
252.108	0.105	504216	keystroke	a	n/a
252.4985	0.104	504997	keystroke	l	n/a
252.888	0.03	505776	keystroke	p	n/a
253.038	0.075	506076	keystroke	h	n/a
253.143	0.09	506286	keystroke	a	n/a
254.493	0.06	508986	keystroke	b	n/a
254.583	0.105	509166	keystroke	e	n/a
254.808	0.09	509616	keystroke	t	n/a
254.928	0.075	509856	keystroke	i	n/a
255.138	0.09	510276	keystroke	c	n/a
255.243	0.105	510486	keystroke	a	n/a
255.468	0.075	510936	keystroke	l	n/a
255.783	0.1195	511566	keystroke	Key.space	n/a
256.5625	0.075	513125	keystroke	s	n/a
256.7575	0.12	513515	keystroke	a	n/a
256.9075	0.06	513815	keystroke	l	n/a
256.9975	0.045	513995	keystroke	e	n/a
257.1175	0.12	514235	keystroke	s	n/a
257.3125	0.105	514625	keystroke	Key.space	n/a
257.6875	0.03	515375	keystroke	n	n/a
257.8525	0.075	515705	keystroke	u	n/a
258.1225	0.075	516245	keystroke	m	n/a
258.2875	0.135	516575	keystroke	e	n/a
258.3925	0.09	516785	keystroke	r	n/a
258.5875	0.075	517175	keystroke	i	n/a
258.7975	0.075	517595	keystroke	c	n/a
259.1575	0.1205	518315	keystroke	Key.space	n/a
259.713	0.09	519426	keystroke	p	n/a
259.818	0.09	519636	keystroke	r	n/a
259.998	0.06	519996	keystroke	i	n/a
260.118	0.09	520236	keystroke	s	n/a
260.343	0.06	520686	keystroke	o	n/a
260.523	0.075	521046	keystroke	n	n/a
260.613	0.09	521226	keystroke	e	n/a
260.718	0.06	521436	keystroke	r	n/a
261.348	0.105	522696	keystroke	Key.enter	n/a
261.4635	15.5315	522927	prompt	n/a	lens cloth finally hospitals\n
262.188	0.075	524376	keystroke	l	n/a
262.293	0.075	524586	keystroke	e	n/a
262.4275	0.075	524855	keystroke	n	n/a
262.5475	0.09	525095	keystroke	s	n/a
262.8175	0.12	525635	keystroke	Key.space	n/a
263.1475	0.105	526295	keystroke	c	n/a
263.3575	0.045	526715	keystroke	l	n/a
263.5525	0.06	527105	keystroke	o	n/a
263.7325	0.06	527465	keystroke	t	n/a
263.8525	0.06	527705	keystroke	h	n/a
264.1525	0.105	528305	keystroke	Key.space	n/a
264.3625	0.09	528725	keystroke	f	n/a
264.4675	0.075	528935	keystroke	i	n/a
264.6635	0.075	529327	keystroke	n	n/a
264.8425	0.12	529685	keystroke	a	n/a
265.0075	0.075	530015	keystroke	l	n/a
265.2025	0.105	530405	keystroke	l	n/a
265.3825	0.045	530765	keystroke	h	n/a
265.6075	0.105	531215	keystroke	Key.space	n/a
268.3255	0	536651	keystroke	Key.backspace	n/a
268.4575	0.045	536915	keystroke	Key.backspace	n/a
268.6075	0.075	537215	keystroke	Key.backspace	n/a
268.7575	0.105	537515	keystroke	Key.backspace	n/a
268.9375	0.105	537875	keystroke	Key.backspace	n/a
270.1975	0.12	540395	keystroke	a	n/a
270.4375	0.09	540875	keystroke	l	n/a
270.6325	0.09	541265	keystroke	l	n/a
270.8425	0.06	541685	keystroke	y	n/a
271.3975	0.12	542795	keystroke	Key.space	n/a
271.7875	0.06	543575	keystroke	h	n/a
272.0425	0.075	544085	keystroke	o	n/a
272.1625	0.105	544325	keystroke	s	n/a
272.3575	0.091	544715	keystroke	p	n/a
272.6275	0.03	545255	keystroke	i	n/a
272.7775	0.06	545555	keystroke	t	n/a
272.9425	0.09	545885	keystroke	a	n/a
273.0925	0.075	546185	keystroke	l	n/a
273.2435	0.074	546487	keystroke	s	n/a
276.9365	0.056	553873	keystroke	Key.enter	n/a
277.001	9.5785	554002	prompt	n/a	deal actions woods enquiry\n
277.6385	0.075	555277	keystroke	d	n/a
277.9525	0.075	555905	keystroke	e	n/a
278.1635	0.12	556327	keystroke	a	n/a
278.2685	0.089	556537	keystroke	l	n/a
278.5525	0.105	557105	keystroke	Key.space	n/a
278.8085	0.164	557617	keystroke	a	n/a
278.9585	0.09	557917	keystroke	c	n/a
279.2125	0.076	558425	keystroke	t	n/a
279.4385	0.104	558877	keystroke	i	n/a
279.5435	0.119	559087	keystroke	o	n/a
279.6925	0.09	559385	keystroke	n	n/a
279.8875	0.076	559775	keystroke	s	n/a
280.5625	0.135	561125	keystroke	Key.space	n/a
280.7435	0.104	561487	keystroke	w	n/a
280.9225	0.06	561845	keystroke	o	n/a
281.0575	0.075	562115	keystroke	o	n/a
281.1785	0.074	562357	keystroke	d	n/a
281.3135	0.119	562627	keystroke	s	n/a
281.4925	0.105	562985	keystroke	Key.space	n/a
282.0475	0.091	564095	keystroke	e	n/a
282.1675	0.075	564335	keystroke	n	n/a
282.3635	0.105	564727	keystroke	q	n/a
282.5125	0.061	565025	keystroke	u	n/a
282.7685	0.06	565537	keystroke	i	n/a
283.3535	0.075	566707	keystroke	r	n/a
283.5925	0.031	567185	keystroke	h	n/a
284.5975	0.06	569195	keystroke	Key.backspace	n/a
285.0635	0.059	570127	keystroke	y	n/a
286.4725	0.105	572945	keystroke	Key.enter	n/a
286.5845	13.3455	573169	prompt	n/a	ignore essential employers virus\n
287.5235	0.059	575047	keystroke	i	n/a
287.6885	0.045	575377	keystroke	n	n/a
287.8825	0.061	575765	keystroke	g	n/a
288.138	0.09	576276	keystroke	o	n/a
288.2435	0.1045	576487	keystroke	r	n/a
288.333	0.074	576666	keystroke	e	n/a
288.633	0.1195	577266	keystroke	Key.space	n/a
289.488	0.0895	578976	keystroke	Key.backspace	n/a
289.682	0.075	579364	keystroke	Key.backspace	n/a
289.862	0.076	579724	keystroke	Key.backspace	n/a
290.0425	0.0745	580085	keystroke	Key.backspace	n/a
290.223	0.0445	580446	keystroke	Key.backspace	n/a
290.357	0.075	580714	keystroke	Key.backspace	n/a
290.598	0.075	581196	keystroke	g	n/a
290.8685	0.045	581737	keystroke	n	n/a
291.0925	0.06	582185	keystroke	o	n/a
291.1985	0.135	582397	keystroke	r	n/a
291.3025	0.091	582605	keystroke	e	n/a
291.8875	0.12	583775	keystroke	Key.space	n/a
292.1275	0.076	584255	keystroke	e	n/a
292.3685	0.059	584737	keystroke	s	n/a
292.5485	0.044	585097	keystroke	s	n/a
292.9985	0.074	585997	keystroke	e	n/a
293.1175	0.075	586235	keystroke	n	n/a
293.3435	0.059	586687	keystroke	t	n/a
293.4935	0.045	586987	keystroke	i	n/a
293.6275	0.121	587255	keystroke	a	n/a
293.7335	0.075	587467	keystroke	l	n/a
293.9875	0.12	587975	keystroke	Key.space	n/a
294.1985	0.074	588397	keystroke	e	n/a
294.2875	0.105	588575	keystroke	m	n/a
294.4985	0.104	588997	keystroke	p	n/a
294.6775	0.091	589355	keystroke	l	n/a
294.8735	0.074	589747	keystroke	o	n/a
295.0225	0.076	590045	keystroke	y	n/a
295.1725	0.075	590345	keystroke	e	n/a
295.3525	0.09	590705	keystroke	s	n/a
295.6385	0.09	591277	keystroke	s	n/a
296.7475	0.075	593495	keystroke	Key.backspace	n/a
296.9135	0.089	593827	keystroke	Key.backspace	n/a
297.4085	0.06	594817	keystroke	r	n/a
297.5885	0.075	595177	keystroke	s	n/a
297.7975	0.121	595595	keystroke	Key.space	n/a
298.4735	0.075	596947	keystroke	v	n/a
298.5935	0.06	597187	keystroke	i	n/a
298.7285	0.074	597457	keystroke	r	n/a
298.9535	0.045	597907	keystroke	u	n/a
299.0575	0.076	598115	keystroke	s	n/a
299.8385	0.089	599677	keystroke	Key.enter	n/a
299.935	7.6595	599870	prompt	n/a	condition strike estimates course\n
300.6325	0.091	601265	keystroke	c	n/a
300.7385	0.075	601477	keystroke	o	n/a
300.9185	0.075	601837	keystroke	n	n/a
301.0385	0.09	602077	keystroke	d	n/a
301.1735	0.06	602347	keystroke	i	n/a
301.3075	0.076	602615	keystroke	t	n/a
301.3685	0.075	602737	keystroke	i	n/a
301.4585	0.09	602917	keystroke	o	n/a
301.5185	0.104	603037	keystroke	n	n/a
302.0275	0.135	604055	keystroke	Key.space	n/a
302.4935	0.089	604987	keystroke	s	n/a
302.6285	0.074	605257	keystroke	t	n/a
302.8075	0.091	605615	keystroke	r	n/a
302.9285	0.06	605857	keystroke	i	n/a
303.1675	0.06	606335	keystroke	k	n/a
303.2425	0.046	606485	keystroke	e	n/a
303.528	0.135	607056	keystroke	Key.space	n/a
303.888	0.06	607776	keystroke	e	n/a
304.068	0.12	608136	keystroke	s	n/a
304.248	0.075	608496	keystroke	t	n/a
304.383	0.075	608766	keystroke	i	n/a
304.653	0.0595	609306	keystroke	m	n/a
304.7575	0.165	609515	keystroke	a	n/a
304.9075	0.105	609815	keystroke	t	n/a
304.9975	0.09	609995	keystroke	e	n/a
305.1925	0.09	610385	keystroke	s	n/a
305.5525	0.12	611105	keystroke	Key.space	n/a
306.0925	0.075	612185	keystroke	c	n/a
306.2425	0.09	612485	keystroke	o	n/a
306.3925	0.075	612785	keystroke	u	n/a
306.4525	0.075	612905	keystroke	r	n/a
306.6775	0.105	613355	keystroke	s	n/a
306.7525	0.105	613505	keystroke	e	n/a
307.4875	0.105	614975	keystroke	Key.enter	n/a
307.5985	8.306	615197	prompt	n/a	perth reseller acre nitrogen\n
308.4625	0.09	616925	keystroke	p	n/a
308.5975	0.12	617195	keystroke	e	n/a
308.6725	0.105	617345	keystroke	r	n/a
308.9125	0.09	617825	keystroke	t	n/a
309.0175	0.06	618035	keystroke	h	n/a
309.2725	0.09	618545	keystroke	Key.space	n/a
309.6775	0.15	619355	keystroke	r	n/a
309.7825	0.105	619565	keystroke	e	n/a
310.2475	0.091	620495	keystroke	s	n/a
310.5475	0.061	621095	keystroke	e	n/a
310.7735	0.045	621547	keystroke	l	n/a
310.9225	0.046	621845	keystroke	l	n/a
311.0275	0.105	622055	keystroke	e	n/a
311.1035	0.089	622207	keystroke	r	n/a
311.4475	0.075	622895	keystroke	Key.space	n/a
312.2435	0.134	624487	keystroke	a	n/a
312.4975	0.09	624995	keystroke	c	n/a
312.9775	0.105	625955	keystroke	r	n/a
313.0535	0.104	626107	keystroke	e	n/a
313.4725	0.12	626945	keystroke	Key.space	n/a
314.2225	0.076	628445	keystroke	n	n/a
314.3435	0.089	628687	keystroke	i	n/a
314.4635	0.044	628927	keystroke	t	n/a
314.6275	0.061	629255	keystroke	r	n/a
314.7635	0.06	629527	keystroke	o	n/a
314.9285	0.06	629857	keystroke	g	n/a
315.0625	0.091	630125	keystroke	e	n/a
315.1835	0.09	630367	keystroke	n	n/a
315.7975	0.105	631595	keystroke	Key.enter	n/a
315.9095	13.2555	631819	prompt	n/a	january taxation parental scales\n
316.6225	0.075	633245	keystroke	j	n/a
316.8325	0.09	633665	keystroke	a	n/a
316.938	0.06	633876	keystroke	n	n/a
317.148	0.045	634296	keystroke	u	n/a
317.283	0.12	634566	keystroke	a	n/a
317.373	0.075	634746	keystroke	r	n/a
317.463	0.075	634926	keystroke	y	n/a
318.033	0.09	636066	keystroke	Key.space	n/a
318.603	0.075	637206	keystroke	l	n/a
319.548	0.09	639096	keystroke	Key.backspace	n/a
319.818	0.075	639636	keystroke	t	n/a
319.968	0.105	639936	keystroke	a	n/a
320.433	0.06	640866	keystroke	x	n/a
320.928	0.09	641856	keystroke	a	n/a
321.3485	0.119	642697	keystroke	i	n/a
322.773	0.09	645546	keystroke	Key.backspace	n/a
323.058	0.09	646116	keystroke	t	n/a
323.268	0.12	646536	keystroke	i	n/a
323.403	0.135	646806	keystroke	o	n/a
323.493	0.105	646986	keystroke	n	n/a
325.068	0.12	650136	keystroke	Key.space	n/a
325.728	0.09	651456	keystroke	p	n/a
325.848	0.165	651696	keystroke	a	n/a
326.193	0.09	652386	keystroke	r	n/a
326.448	0.105	652896	keystroke	e	n/a
326.523	0.0755	653046	keystroke	n	n/a
326.6735	0.074	653347	keystroke	t	n/a
326.8235	0.09	653647	keystroke	a	n/a
326.9285	0.09	653857	keystroke	l	n/a
327.0475	0.105	654095	keystroke	Key.space	n/a
327.6025	0.105	655205	keystroke	s	n/a
327.8125	0.106	655625	keystroke	c	n/a
327.9325	0.106	655865	keystroke	a	n/a
328.1275	0.09	656255	keystroke	l	n/a
328.2325	0.075	656465	keystroke	e	n/a
328.3835	0.105	656767	keystroke	s	n/a
329.0575	0.105	658115	keystroke	Key.enter	n/a
329.1705	11.456	658341	prompt	n/a	remark motor clone indicates\n
329.9435	0.104	659887	keystroke	r	n/a
330.0185	0.104	660037	keystroke	e	n/a
330.1835	0.059	660367	keystroke	m	n/a
330.3175	0.09	660635	keystroke	a	n/a
330.4225	0.046	660845	keystroke	k	n/a
331.4425	0.075	662885	keystroke	Key.backspace	n/a
331.8025	0.075	663605	keystroke	r	n/a
331.9535	0.059	663907	keystroke	k	n/a
332.4925	0.12	664985	keystroke	Key.space	n/a
333.0175	0.076	666035	keystroke	m	n/a
333.1525	0.061	666305	keystroke	o	n/a
333.2885	0.075	666577	keystroke	t	n/a
333.3935	0.075	666787	keystroke	o	n/a
333.6475	0.046	667295	keystroke	r	n/a
333.9925	0.135	667985	keystroke	Key.space	n/a
334.5935	0.074	669187	keystroke	c	n/a
334.7435	0.09	669487	keystroke	l	n/a
334.9525	0.061	669905	keystroke	o	n/a
335.0585	0.075	670117	keystroke	n	n/a
335.1335	0.075	670267	keystroke	e	n/a
335.3575	0.135	670715	keystroke	Key.space	n/a
335.9275	0.076	671855	keystroke	i	n/a
336.0475	0.061	672095	keystroke	n	n/a
336.6185	0.104	673237	keystroke	d	n/a
336.7385	0.06	673477	keystroke	i	n/a
337.2925	0.076	674585	keystroke	a	n/a
338.3275	0.075	676655	keystroke	Key.backspace	n/a
338.4935	0.105	676987	keystroke	c	n/a
338.6285	0.195	677257	keystroke	a	n/a
338.8085	0.104	677617	keystroke	t	n/a
338.9435	0.09	677887	keystroke	e	n/a
339.1225	0.091	678245	keystroke	s	n/a
340.5335	0.089	681067	keystroke	Key.enter	n/a
340.632	17.078	681264	prompt	n/a	derek explicitly governor dubai\n
341.4335	0.06	682867	keystroke	d	n/a
341.6275	0.151	683255	keystroke	e	n/a
341.7635	0.089	683527	keystroke	r	n/a
342.0185	0.06	684037	keystroke	e	n/a
342.3635	0.06	684727	keystroke	k	n/a
342.7225	0.1205	685445	keystroke	Key.space	n/a
343.308	0.075	686616	keystroke	e	n/a
343.503	0.06	687006	keystroke	x	n/a
343.698	0.075	687396	keystroke	p	n/a
343.908	0.075	687816	keystroke	l	n/a
344.043	0.075	688086	keystroke	i	n/a
344.253	0.075	688506	keystroke	c	n/a
344.329	0.074	688658	keystroke	i	n/a
344.508	0.06	689016	keystroke	t	n/a
344.658	0.09	689316	keystroke	l	n/a
344.808	0.075	689616	keystroke	y	n/a
345.228	0.075	690456	keystroke	Key.space	n/a
346.1575	0.075	692315	keystroke	g	n/a
346.5325	0.06	693065	keystroke	o	n/a
346.6085	0.059	693217	keystroke	r	n/a
346.9085	0.089	693817	keystroke	v	n/a
347.1025	0.06	694205	keystroke	e	n/a
347.1475	0.09	694295	keystroke	r	n/a
347.4775	0.045	694955	keystroke	n	n/a
348.2575	0.075	696515	keystroke	o	n/a
348.3775	0.075	696755	keystroke	r	n/a
348.5875	0.105	697175	keystroke	Key.space	n/a
350.6275	0.09	701255	keystroke	Key.backspace	n/a
350.8225	0.075	701645	keystroke	Key.backspace	n/a
350.9875	0.105	701975	keystroke	Key.backspace	n/a
351.1835	0.089	702367	keystroke	Key.backspace	n/a
351.6625	0.06	703325	keystroke	Key.backspace	n/a
351.9325	0.0745	703865	keystroke	Key.backspace	n/a
352.188	0.074	704376	keystroke	Key.backspace	n/a
352.397	0.075	704794	keystroke	Key.backspace	n/a
352.848	0.105	705696	keystroke	v	n/a
353.103	0.12	706206	keystroke	e	n/a
353.192	0.105	706384	keystroke	r	n/a
353.433	0.075	706866	keystroke	n	n/a
353.612	0.06	707224	keystroke	o	n/a
353.688	0.09	707376	keystroke	r	n/a
354.047	0.091	708094	keystroke	Key.space	n/a
354.513	0.075	709026	keystroke	d	n/a
354.723	0.06	709446	keystroke	e	n/a
355.443	0.104	710886	keystroke	Key.backspace	n/a
355.938	0.105	711876	keystroke	u	n/a
356.238	0.045	712476	keystroke	b	n/a
356.403	0.105	712806	keystroke	a	n/a
356.493	0.06	712986	keystroke	i	n/a
357.603	0.105	715206	keystroke	Key.enter	n/a
357.715	10.509	715430	prompt	n/a	rico coal benefits unauthorized\n
358.563	0.06	717126	keystroke	r	n/a
358.668	0.06	717336	keystroke	i	n/a
358.878	0.06	717756	keystroke	c	n/a
358.998	0.06	717996	keystroke	o	n/a
359.208	0.105	718416	keystroke	Key.space	n/a
359.403	0.09	718806	keystroke	c	n/a
359.523	0.06	719046	keystroke	o	n/a
359.748	0.09	719496	keystroke	a	n/a
359.853	0.075	719706	keystroke	l	n/a
360.123	0.075	720246	keystroke	Key.space	n/a
360.963	0.06	721926	keystroke	b	n/a
361.053	0.09	722106	keystroke	e	n/a
361.233	0.06	722466	keystroke	n	n/a
361.278	0.09	722556	keystroke	e	n/a
361.488	0.075	722976	keystroke	f	n/a
361.698	0.06	723396	keystroke	i	n/a
361.788	0.06	723576	keystroke	t	n/a
361.983	0.09	723966	keystroke	s	n/a
362.298	0.105	724596	keystroke	Key.space	n/a
362.748	0.06	725496	keystroke	u	n/a
362.988	0.03	725976	keystroke	n	n/a
363.198	0.15	726396	keystroke	a	n/a
364.023	0.075	728046	keystroke	h	n/a
365.733	0.09	731466	keystroke	Key.backspace	n/a
366.228	0.075	732456	keystroke	u	n/a
366.393	0.075	732786	keystroke	t	n/a
366.528	0.06	733056	keystroke	h	n/a
366.678	0.03	733356	keystroke	o	n/a
366.738	0.075	733476	keystroke	r	n/a
366.873	0.06	733746	keystroke	i	n/a
367.038	0.105	734076	keystroke	z	n/a
367.218	0.075	734436	keystroke	e	n/a
367.398	0.06	734796	keystroke	d	n/a
368.133	0.09	736266	keystroke	Key.enter	n/a
368.2285	7.9165	736457	prompt	n/a	understood director drawings duck\n
369.078	0.075	738156	keystroke	u	n/a
369.363	0.045	738726	keystroke	n	n/a
369.5285	0.0445	739057	keystroke	d	n/a
369.708	0.105	739416	keystroke	e	n/a
369.798	0.09	739596	keystroke	r	n/a
370.008	0.09	740016	keystroke	s	n/a
370.128	0.09	740256	keystroke	t	n/a
370.338	0.06	740676	keystroke	o	n/a
370.503	0.06	741006	keystroke	o	n/a
370.608	0.06	741216	keystroke	d	n/a
370.863	0.105	741726	keystroke	Key.space	n/a
371.148	0.06	742296	keystroke	d	n/a
371.253	0.06	742506	keystroke	i	n/a
371.388	0.12	742776	keystroke	r	n/a
371.478	0.09	742956	keystroke	e	n/a
371.718	0.075	743436	keystroke	c	n/a
372.003	0.045	744006	keystroke	t	n/a
372.123	0.06	744246	keystroke	o	n/a
372.198	0.06	744396	keystroke	r	n/a
372.498	0.12	744996	keystroke	Key.space	n/a
372.933	0.045	745866	keystroke	d	n/a
373.053	0.09	746106	keystroke	r	n/a
373.278	0.15	746556	keystroke	a	n/a
373.413	0.075	746826	keystroke	w	n/a
373.668	0.075	747336	keystroke	i	n/a
373.803	0.06	747606	keystroke	n	n/a
373.908	0.045	747816	keystroke	g	n/a
374.208	0.06	748416	keystroke	Key.space	n/a
374.748	0.06	749496	keystroke	d	n/a
374.958	0.03	749916	keystroke	u	n/a
375.153	0.06	750306	keystroke	c	n/a
375.258	0.06	750516	keystroke	k	n/a
376.053	0.09	752106	keystroke	Key.enter	n/a
376.152	10.3425	752304	prompt	n/a	tions domestic sbjct designation\n
377.388	0.09	754776	keystroke	t	n/a
377.628	0.045	755256	keystroke	i	n/a
377.808	0.105	755616	keystroke	o	n/a
377.928	0.075	755856	keystroke	n	n/a
378.093	0.09	756186	keystroke	s	n/a
378.273	0.105	756546	keystroke	Key.space	n/a
379.623	0.105	759246	keystroke	d	n/a
379.758	0.075	759516	keystroke	o	n/a
380.043	0.06	760086	keystroke	m	n/a
380.118	0.075	760236	keystroke	e	n/a
380.313	0.09	760626	keystroke	s	n/a
380.493	0.075	760986	keystroke	t	n/a
380.643	0.06	761286	keystroke	i	n/a
380.793	0.06	761586	keystroke	c	n/a
381.018	0.09	762036	keystroke	Key.space	n/a
381.408	0.105	762816	keystroke	s	n/a
382.113	0.06	764226	keystroke	b	n/a
382.428	0.03	764856	keystroke	j	n/a
382.533	0.06	765066	keystroke	c	n/a
382.728	0.045	765456	keystroke	t	n/a
382.878	0.105	765756	keystroke	Key.space	n/a
383.523	0.075	767046	keystroke	d	n/a
383.763	0.045	767526	keystroke	e	n/a
383.898	0.105	767796	keystroke	s	n/a
384.783	0.09	769566	keystroke	i	n/a
384.903	0.09	769806	keystroke	g	n/a
385.173	0.045	770346	keystroke	n	n/a
385.263	0.135	770526	keystroke	a	n/a
385.443	0.06	770886	keystroke	t	n/a
385.488	0.12	770976	keystroke	i	n/a
385.593	0.12	771186	keystroke	o	n/a
385.683	0.12	771366	keystroke	n	n/a
386.403	0.09	772806	keystroke	Key.enter	n/a
386.5025	10.9425	773005	prompt	n/a	wendy suppliers archived disagree\n
387.3175	0.091	774635	keystroke	w	n/a
387.6475	0.075	775295	keystroke	e	n/a
387.7675	0.06	775535	keystroke	n	n/a
387.8875	0.075	775775	keystroke	d	n/a
388.0385	0.074	776077	keystroke	y	n/a
388.2625	0.105	776525	keystroke	Key.space	n/a
388.4435	0.089	776887	keystroke	s	n/a
388.5775	0.076	777155	keystroke	u	n/a
388.7735	0.105	777547	keystroke	p	n/a
388.9685	0.06	777937	keystroke	p	n/a
389.1175	0.106	778235	keystroke	l	n/a
389.2975	0.075	778595	keystroke	i	n/a
389.4625	0.135	778925	keystroke	e	n/a
389.5525	0.09	779105	keystroke	r	n/a
389.8085	0.089	779617	keystroke	s	n/a
390.0325	0.105	780065	keystroke	Key.space	n/a
390.2425	0.105	780485	keystroke	a	n/a
390.5125	0.075	781025	keystroke	r	n/a
390.7835	0.06	781567	keystroke	c	n/a
390.8725	0.075	781745	keystroke	h	n/a
391.1875	0.06	782375	keystroke	i	n/a
391.3225	0.1055	782645	keystroke	v	n/a
391.472	0.1055	782944	keystroke	e	n/a
391.772	0.045	783544	keystroke	d	n/a
392.027	0.0905	784054	keystroke	Key.space	n/a
392.1925	0.075	784385	keystroke	d	n/a
392.313	0.0605	784626	keystroke	i	n/a
392.5075	0.105	785015	keystroke	s	n/a
393.213	0.135	786426	keystroke	a	n/a
393.558	0.06	787116	keystroke	r	n/a
394.698	0.06	789396	keystroke	Key.backspace	n/a
396.0035	0.074	792007	keystroke	g	n/a
396.1975	0.076	792395	keystroke	r	n/a
396.3785	0.059	792757	keystroke	e	n/a
396.5285	0.089	793057	keystroke	e	n/a
397.3375	0.105	794675	keystroke	Key.enter	n/a
397.45	16.7195	794900	prompt	n/a	charm lightweight collaboration solar\n
398.223	0.074	796446	keystroke	c	n/a
398.388	0.059	796776	keystroke	l	n/a
398.552	0.136	797104	keystroke	a	n/a
398.807	0.076	797614	keystroke	r	n/a
399.093	0.045	798186	keystroke	m	n/a
399.7075	0.105	799415	keystroke	Key.space	n/a
400.1725	0.06	800345	keystroke	l	n/a
400.3525	0.061	800705	keystroke	i	n/a
400.4575	0.06	800915	keystroke	g	n/a
400.5635	0.0585	801127	keystroke	h	n/a
400.637	0.076	801274	keystroke	t	n/a
402.1975	0.09	804395	keystroke	Key.backspace	n/a
402.423	0.09	804846	keystroke	Key.backspace	n/a
402.603	0.09	805206	keystroke	Key.backspace	n/a
402.888	0.015	805776	keystroke	Key.backspace	n/a
403.008	0.06	806016	keystroke	Key.backspace	n/a
403.188	0.075	806376	keystroke	Key.backspace	n/a
403.383	0.06	806766	keystroke	Key.backspace	n/a
403.548	0.075	807096	keystroke	Key.backspace	n/a
403.713	0.06	807426	keystroke	Key.backspace	n/a
403.848	0.09	807696	keystroke	Key.backspace	n/a
404.598	0.075	809196	keystroke	h	n/a
404.763	0.15	809526	keystroke	a	n/a
404.868	0.09	809736	keystroke	r	n/a
405.078	0.06	810156	keystroke	m	n/a
405.423	0.105	810846	keystroke	Key.space	n/a
405.963	0.06	811926	keystroke	l	n/a
406.128	0.06	812256	keystroke	i	n/a
406.263	0.09	812526	keystroke	g	n/a
406.368	0.06	812736	keystroke	h	n/a
406.473	0.09	812946	keystroke	t	n/a
406.638	0.09	813276	keystroke	Key.space	n/a
406.908	0.105	813816	keystroke	w	n/a
407.703	0.0895	815406	keystroke	Key.backspace	n/a
408.1075	0.06	816215	keystroke	Key.backspace	n/a
408.5275	0.135	817055	keystroke	w	n/a
408.8125	0.09	817625	keystroke	e	n/a
408.9625	0.09	817925	keystroke	i	n/a
409.1725	0.075	818345	keystroke	g	n/a
409.4275	0.045	818855	keystroke	h	n/a
409.5025	0.075	819005	keystroke	t	n/a
409.8025	0.105	819605	keystroke	Key.space	n/a
410.2375	0.075	820475	keystroke	c	n/a
410.5375	0.06	821075	keystroke	o	n/a
410.7475	0.075	821495	keystroke	l	n/a
410.9125	0.075	821825	keystroke	l	n/a
411.1525	0.135	822305	keystroke	a	n/a
411.2725	0.06	822545	keystroke	b	n/a
411.5125	0.06	823025	keystroke	o	n/a
411.6625	0.06	823325	keystroke	r	n/a
411.7975	0.12	823595	keystroke	a	n/a
412.0375	0.06	824075	keystroke	t	n/a
412.1875	0.12	824375	keystroke	i	n/a
412.3225	0.105	824645	keystroke	o	n/a
412.4125	0.105	824825	keystroke	n	n/a
412.6375	0.105	825275	keystroke	Key.space	n/a
412.7875	0.135	825575	keystroke	s	n/a
412.9075	0.075	825815	keystroke	o	n/a
413.163	0.059	826326	keystroke	l	n/a
413.282	0.12	826564	keystroke	a	n/a
413.372	0.075	826744	keystroke	r	n/a
414.078	0.089	828156	keystroke	Key.enter	n/a
414.1745	11.995	828349	prompt	n/a	going chamber outdoor pharmaceutical\n
414.933	0.059	829866	keystroke	g	n/a
415.023	0.059	830046	keystroke	o	n/a
415.247	0.061	830494	keystroke	i	n/a
415.353	0.059	830706	keystroke	n	n/a
415.442	0.076	830884	keystroke	g	n/a
415.593	0.135	831186	keystroke	Key.space	n/a
415.862	0.076	831724	keystroke	c	n/a
415.953	0.059	831906	keystroke	h	n/a
416.103	0.12	832206	keystroke	a	n/a
416.208	0.075	832416	keystroke	m	n/a
416.627	0.045	833254	keystroke	b	n/a
416.822	0.106	833644	keystroke	e	n/a
416.912	0.076	833824	keystroke	r	n/a
417.197	0.06	834394	keystroke	Key.space	n/a
417.647	0.09	835294	keystroke	o	n/a
417.828	0.075	835656	keystroke	u	n/a
417.917	0.06	835834	keystroke	t	n/a
418.262	0.076	836524	keystroke	d	n/a
418.5325	0.045	837065	keystroke	o	n/a
418.6825	0.06	837365	keystroke	o	n/a
418.7725	0.075	837545	keystroke	r	n/a
418.9375	0.075	837875	keystroke	Key.space	n/a
419.5675	0.09	839135	keystroke	p	n/a
419.7925	0.045	839585	keystroke	h	n/a
419.9275	0.135	839855	keystroke	a	n/a
420.0325	0.075	840065	keystroke	r	n/a
420.4225	0.075	840845	keystroke	m	n/a
420.6625	0.12	841325	keystroke	a	n/a
421.217	0.075	842434	keystroke	c	n/a
421.397	0.09	842794	keystroke	e	n/a
423.8905	0.001	847781	keystroke	u	n/a
424.0975	0.075	848195	keystroke	t	n/a
424.2025	0.06	848405	keystroke	i	n/a
424.3825	0.135	848765	keystroke	c	n/a
424.5325	0.105	849065	keystroke	a	n/a
424.6225	0.075	849245	keystroke	l	n/a
426.0925	0.075	852185	keystroke	Key.enter	n/a
426.1745	6.5495	852349	prompt	n/a	knit else icon temporary\n
426.9625	0.09	853925	keystroke	k	n/a
427.2175	0.06	854435	keystroke	n	n/a
427.3375	0.06	854675	keystroke	i	n/a
427.9675	0.045	855935	keystroke	t	n/a
428.3875	0.12	856775	keystroke	Key.space	n/a
428.7325	0.075	857465	keystroke	e	n/a
428.8675	0.09	857735	keystroke	l	n/a
428.9725	0.12	857945	keystroke	s	n/a
429.0625	0.09	858125	keystroke	e	n/a
429.2275	0.105	858455	keystroke	Key.space	n/a
429.7825	0.06	859565	keystroke	i	n/a
429.9475	0.075	859895	keystroke	c	n/a
430.0675	0.075	860135	keystroke	o	n/a
430.1875	0.045	860375	keystroke	n	n/a
430.3675	0.075	860735	keystroke	Key.space	n/a
430.6525	0.075	861305	keystroke	t	n/a
430.9675	0.09	861935	keystroke	e	n/a
431.0725	0.09	862145	keystroke	m	n/a
431.2975	0.12	862595	keystroke	p	n/a
431.4775	0.075	862955	keystroke	o	n/a
431.643	0.075	863286	keystroke	r	n/a
431.793	0.135	863586	keystroke	a	n/a
431.898	0.09	863796	keystroke	r	n/a
432.018	0.075	864036	keystroke	y	n/a
432.618	0.104	865236	keystroke	Key.enter	n/a
432.7285	8.426	865457	prompt	n/a	farms especially disclaimer gone\n
433.473	0.09	866946	keystroke	f	n/a
433.728	0.18	867456	keystroke	a	n/a
433.863	0.075	867726	keystroke	r	n/a
434.073	0.075	868146	keystroke	m	n/a
434.193	0.075	868386	keystroke	s	n/a
434.388	0.06	868776	keystroke	Key.space	n/a
434.718	0.075	869436	keystroke	e	n/a
434.958	0.075	869916	keystroke	s	n/a
435.108	0.105	870216	keystroke	p	n/a
435.228	0.06	870456	keystroke	e	n/a
435.423	0.075	870846	keystroke	c	n/a
435.603	0.045	871206	keystroke	i	n/a
435.693	0.09	871386	keystroke	a	n/a
435.828	0.045	871656	keystroke	l	n/a
435.963	0.105	871926	keystroke	l	n/a
436.113	0.075	872226	keystroke	y	n/a
436.3525	0.09	872705	keystroke	Key.space	n/a
436.8625	0.075	873725	keystroke	d	n/a
436.9675	0.06	873935	keystroke	i	n/a
437.0725	0.105	874145	keystroke	s	n/a
437.2525	0.105	874505	keystroke	c	n/a
438.0325	0.03	876065	keystroke	l	n/a
438.1525	0.12	876305	keystroke	a	n/a
438.5125	0.06	877025	keystroke	i	n/a
438.7975	0.075	877595	keystroke	m	n/a
439.0675	0.105	878135	keystroke	e	n/a
439.1575	0.09	878315	keystroke	r	n/a
439.6225	0.075	879245	keystroke	Key.space	n/a
440.0125	0.045	880025	keystroke	g	n/a
440.1325	0.06	880265	keystroke	o	n/a
440.2975	0.075	880595	keystroke	n	n/a
440.3735	0.074	880747	keystroke	e	n/a
441.092	0.06	882184	keystroke	Key.enter	n/a
441.1595	16.57	882319	prompt	n/a	outlined bangkok convicted errors\n
442.188	0.059	884376	keystroke	o	n/a
442.322	0.0755	884644	keystroke	u	n/a
442.4125	0.06	884825	keystroke	t	n/a
443.3275	0.06	886655	keystroke	l	n/a
443.4475	0.09	886895	keystroke	i	n/a
443.6425	0.06	887285	keystroke	n	n/a
443.7475	0.075	887495	keystroke	e	n/a
443.9275	0.075	887855	keystroke	d	n/a
444.0925	0.09	888185	keystroke	Key.space	n/a
444.4975	0.045	888995	keystroke	b	n/a
444.7075	0.121	889415	keystroke	a	n/a
445.2925	0.075	890585	keystroke	g	n/a
446.4475	0.075	892895	keystroke	Key.backspace	n/a
447.0485	0.059	894097	keystroke	n	n/a
447.4975	0.06	894995	keystroke	g	n/a
447.8285	0.0435	895657	keystroke	k	n/a
448.082	0.045	896164	keystroke	o	n/a
448.202	0.09	896404	keystroke	k	n/a
448.727	0.09	897454	keystroke	Key.space	n/a
449.102	0.0905	898204	keystroke	c	n/a
449.2075	0.0745	898415	keystroke	o	n/a
449.3425	0.0745	898685	keystroke	n	n/a
451.1125	0.075	902225	keystroke	v	n/a
451.2625	0.045	902525	keystroke	i	n/a
451.3975	0.09	902795	keystroke	c	n/a
451.6375	0.06	903275	keystroke	e	n/a
451.893	0.0595	903786	keystroke	d	n/a
452.7475	0.03	905495	keystroke	Key.backspace	n/a
452.8825	0.03	905765	keystroke	Key.backspace	n/a
453.4975	0.075	906995	keystroke	t	n/a
453.6925	0.06	907385	keystroke	e	n/a
453.8725	0.06	907745	keystroke	d	n/a
454.3975	0.105	908795	keystroke	Key.space	n/a
455.2375	0.075	910475	keystroke	e	n/a
455.4325	0.06	910865	keystroke	r	n/a
455.6125	0.045	911225	keystroke	r	n/a
455.7625	0.06	911525	keystroke	o	n/a
455.8675	0.03	911735	keystroke	r	n/a
457.0975	0.075	914195	keystroke	s	n/a
457.6375	0.09	915275	keystroke	Key.enter	n/a
457.735	15.4295	915470	prompt	n/a	liabilities chamber christian lite\n
458.8075	0.075	917615	keystroke	l	n/a
458.9725	0.075	917945	keystroke	i	n/a
459.0775	0.1205	918155	keystroke	a	n/a
459.317	0.075	918634	keystroke	b	n/a
459.423	0.075	918846	keystroke	i	n/a
459.708	0.104	919416	keystroke	l	n/a
459.783	0.089	919566	keystroke	i	n/a
460.008	0.074	920016	keystroke	t	n/a
460.098	0.06	920196	keystroke	i	n/a
460.503	0.059	921006	keystroke	e	n/a
460.682	0.075	921364	keystroke	s	n/a
460.878	0.119	921756	keystroke	Key.space	n/a
461.703	0.06	923406	keystroke	c	n/a
461.823	0.06	923646	keystroke	h	n/a
461.942	0.15	923884	keystroke	a	n/a
462.168	0.075	924336	keystroke	r	n/a
463.038	0.09	926076	keystroke	Key.backspace	n/a
463.428	0.075	926856	keystroke	m	n/a
463.773	0.105	927546	keystroke	e	n/a
463.863	0.09	927726	keystroke	r	n/a
464.747	0.09	929494	keystroke	Key.backspace	n/a
465.662	0.06	931324	keystroke	Key.backspace	n/a
466.667	0.045	933334	keystroke	b	n/a
466.757	0.091	933514	keystroke	e	n/a
466.832	0.09	933664	keystroke	r	n/a
467.117	0.09	934234	keystroke	Key.space	n/a
467.612	0.091	935224	keystroke	c	n/a
467.778	0.045	935556	keystroke	h	n/a
467.882	0.091	935764	keystroke	r	n/a
468.017	0.06	936034	keystroke	i	n/a
468.107	0.105	936214	keystroke	s	n/a
468.303	0.074	936606	keystroke	t	n/a
468.452	0.076	936904	keystroke	i	n/a
468.662	0.105	937324	keystroke	a	n/a
468.752	0.075	937504	keystroke	n	n/a
468.887	0.135	937774	keystroke	Key.space	n/a
469.263	0.059	938526	keystroke	l	n/a
469.937	0.075	939874	keystroke	i	n/a
470.207	0.045	940414	keystroke	t	n/a
470.327	0.09	940654	keystroke	e	n/a
473.12	0.042	946240	keystroke	Key.enter	n/a
473.17	15.1155	946340	prompt	n/a	directions what harmony great\n
473.778	0.075	947556	keystroke	d	n/a
473.972	0.06	947944	keystroke	i	n/a
474.0475	0.1195	948095	keystroke	r	n/a
474.152	0.09	948304	keystroke	e	n/a
474.347	0.076	948694	keystroke	c	n/a
474.5875	0.061	949175	keystroke	t	n/a
475.0975	0.09	950195	keystroke	o	n/a
475.9225	0.075	951845	keystroke	Key.backspace	n/a
476.4475	0.105	952895	keystroke	i	n/a
476.583	0.09	953166	keystroke	o	n/a
476.643	0.105	953286	keystroke	n	n/a
476.733	0.09	953466	keystroke	s	n/a
477.003	0.1195	954006	keystroke	Key.space	n/a
478.0825	0.105	956165	keystroke	w	n/a
478.2775	0.06	956555	keystroke	h	n/a
478.3975	0.075	956795	keystroke	q	n/a
478.4575	0.09	956915	keystroke	t	n/a
479.402	0.105	958804	keystroke	Key.backspace	n/a
480.062	0.105	960124	keystroke	Key.backspace	n/a
480.392	0.18	960784	keystroke	a	n/a
480.573	0.074	961146	keystroke	t	n/a
480.797	0.09	961594	keystroke	Key.space	n/a
481.833	0.045	963666	keystroke	h	n/a
481.953	0.119	963906	keystroke	a	n/a
482.028	0.089	964056	keystroke	r	n/a
482.192	0.075	964384	keystroke	m	n/a
482.583	0.074	965166	keystroke	o	n/a
482.778	0.074	965556	keystroke	n	n/a
482.867	0.061	965734	keystroke	e	n/a
483.003	0.075	966006	keystroke	y	n/a
483.917	0.09	967834	keystroke	Key.backspace	n/a
484.067	0.105	968134	keystroke	Key.backspace	n/a
485.598	0.06	971196	keystroke	y	n/a
485.943	0.045	971886	keystroke	Key.space	n/a
486.663	0.075	973326	keystroke	g	n/a
486.918	0.105	973836	keystroke	r	n/a
487.083	0.15	974166	keystroke	e	n/a
487.248	0.135	974496	keystroke	a	n/a
487.383	0.075	974766	keystroke	t	n/a
488.178	0.105	976356	keystroke	Key.enter	n/a
488.2905	20.9645	976581	prompt	n/a	licensed agent veterinary temporary\n
489.093	0.03	978186	keystroke	l	n/a
489.243	0.045	978486	keystroke	i	n/a
489.348	0.09	978696	keystroke	c	n/a
489.498	0.105	978996	keystroke	e	n/a
489.6925	0.06	979385	keystroke	n	n/a
489.7825	0.1205	979565	keystroke	s	n/a
489.873	0.09	979746	keystroke	e	n/a
490.068	0.0445	980136	keystroke	d	n/a
491.0125	0.1055	982025	keystroke	Key.space	n/a
491.493	0.165	982986	keystroke	a	n/a
491.643	0.075	983286	keystroke	g	n/a
491.943	0.045	983886	keystroke	e	n/a
492.063	0.045	984126	keystroke	n	n/a
492.153	0.045	984306	keystroke	t	n/a
492.333	0.075	984666	keystroke	Key.space	n/a
492.588	0.09	985176	keystroke	v	n/a
492.768	0.09	985536	keystroke	e	n/a
493.023	0.075	986046	keystroke	t	n/a
493.173	0.105	986346	keystroke	e	n/a
493.263	0.075	986526	keystroke	r	n/a
493.428	0.075	986856	keystroke	i	n/a
493.818	0.075	987636	keystroke	n	n/a
494.163	0.15	988326	keystroke	a	n/a
494.373	0.075	988746	keystroke	r	n/a
494.538	0.075	989076	keystroke	y	n/a
494.958	0.0895	989916	keystroke	Key.space	n/a
495.722	0.076	991444	keystroke	t	n/a
495.857	0.09	991714	keystroke	e	n/a
495.992	0.09	991984	keystroke	m	n/a
496.187	0.105	992374	keystroke	p	n/a
496.367	0.075	992734	keystroke	l	n/a
497.327	0.06	994654	keystroke	Key.backspace	n/a
498.632	0.075	997264	keystroke	o	n/a
498.887	0.09	997774	keystroke	r	n/a
499.112	0.075	998224	keystroke	r	n/a
499.9975	0.075	999995	keystroke	Key.backspace	n/a
501.9925	0.105	1003985	keystroke	r	n/a
503.1175	0.105	1006235	keystroke	Key.backspace	n/a
504.4375	0.09	1008875	keystroke	r	n/a
504.5725	0.135	1009145	keystroke	a	n/a
504.6775	0.105	1009355	keystroke	r	n/a
504.8275	0.075	1009655	keystroke	y	n/a
505.9675	0.075	1011935	keystroke	Key.backspace	n/a
506.1475	0.075	1012295	keystroke	Key.backspace	n/a
506.3125	0.09	1012625	keystroke	Key.backspace	n/a
506.4775	0.09	1012955	keystroke	Key.backspace	n/a
506.6575	0.075	1013315	keystroke	Key.backspace	n/a
507.2875	0.06	1014575	keystroke	r	n/a
507.4075	0.165	1014815	keystroke	a	n/a
507.542	0.09	1015084	keystroke	r	n/a
507.678	0.0595	1015356	keystroke	y	n/a
509.1775	0.075	1018355	keystroke	Key.enter	n/a
509.26	17.574	1018520	prompt	n/a	tubes drives mountains revealed\n
510.092	0.09	1020184	keystroke	t	n/a
510.287	0.075	1020574	keystroke	u	n/a
510.5585	0.0435	1021117	keystroke	b	n/a
510.677	0.061	1021354	keystroke	e	n/a
510.857	0.076	1021714	keystroke	s	n/a
511.007	0.105	1022014	keystroke	Key.space	n/a
511.247	0.075	1022494	keystroke	d	n/a
511.682	0.076	1023364	keystroke	r	n/a
511.863	0.044	1023726	keystroke	i	n/a
511.968	0.09	1023936	keystroke	v	n/a
512.282	0.045	1024564	keystroke	e	n/a
512.523	0.059	1025046	keystroke	s	n/a
512.672	0.09	1025344	keystroke	Key.space	n/a
512.972	0.09	1025944	keystroke	m	n/a
513.182	0.091	1026364	keystroke	o	n/a
513.332	0.075	1026664	keystroke	u	n/a
513.392	0.075	1026784	keystroke	t	n/a
513.647	0.09	1027294	keystroke	a	n/a
513.752	0.06	1027504	keystroke	i	n/a
513.842	0.075	1027684	keystroke	n	n/a
514.023	0.075	1028046	keystroke	s	n/a
514.337	0.075	1028674	keystroke	Key.space	n/a
514.848	0.105	1029696	keystroke	r	n/a
514.968	0.105	1029936	keystroke	e	n/a
515.253	0.09	1030506	keystroke	v	n/a
515.493	0.06	1030986	keystroke	e	n/a
515.628	0.12	1031256	keystroke	a	n/a
515.749	0.074	1031498	keystroke	l	n/a
515.898	0.06	1031796	keystroke	e	n/a
516.048	0.075	1032096	keystroke	d	n/a
518.75	0.001	1037500	keystroke	Key.backspace	n/a
518.838	0.075	1037676	keystroke	Key.backspace	n/a
519.033	0.06	1038066	keystroke	Key.backspace	n/a
519.213	0.075	1038426	keystroke	Key.backspace	n/a
519.408	0.06	1038816	keystroke	Key.backspace	n/a
519.573	0.075	1039146	keystroke	Key.backspace	n/a
519.768	0.075	1039536	keystroke	Key.backspace	n/a
519.933	0.09	1039866	keystroke	Key.backspace	n/a
520.113	0.09	1040226	keystroke	Key.backspace	n/a
520.293	0.075	1040586	keystroke	Key.backspace	n/a
520.473	0.06	1040946	keystroke	Key.backspace	n/a
520.653	0.06	1041306	keystroke	Key.backspace	n/a
520.803	0.075	1041606	keystroke	Key.backspace	n/a
521.2225	0.06	1042445	keystroke	Key.backspace	n/a
521.7475	0.06	1043495	keystroke	n	n/a
521.9425	0.075	1043885	keystroke	t	n/a
522.0925	0.105	1044185	keystroke	a	n/a
522.2425	0.075	1044485	keystroke	i	n/a
522.4075	0.075	1044815	keystroke	n	n/a
522.5875	0.075	1045175	keystroke	s	n/a
522.8575	0.105	1045715	keystroke	Key.space	n/a
523.5175	0.09	1047035	keystroke	r	n/a
523.5925	0.12	1047185	keystroke	e	n/a
523.8925	0.06	1047785	keystroke	v	n/a
524.6875	0.09	1049375	keystroke	e	n/a
525.4075	0.12	1050815	keystroke	a	n/a
525.5725	0.075	1051145	keystroke	l	n/a
525.7375	0.06	1051475	keystroke	e	n/a
525.9025	0.06	1051805	keystroke	d	n/a
526.7275	0.105	1053455	keystroke	Key.enter	n/a
526.839	12.28	1053678	prompt	n/a	type she'll prairie go\n
527.4625	0.06	1054925	keystroke	t	n/a
527.6125	0.06	1055225	keystroke	y	n/a
527.8225	0.09	1055645	keystroke	p	n/a
527.8825	0.075	1055765	keystroke	e	n/a
528.2725	0.105	1056545	keystroke	Key.space	n/a
528.6325	0.09	1057265	keystroke	s	n/a
528.7375	0.06	1057475	keystroke	h	n/a
528.8425	0.075	1057685	keystroke	e	n/a
529.0825	0.09	1058165	keystroke	'	n/a
529.3975	0.045	1058795	keystroke	l	n/a
529.5475	0.06	1059095	keystroke	l	n/a
529.8775	0.075	1059755	keystroke	Key.space	n/a
530.4475	0.075	1060895	keystroke	p	n/a
530.7175	0.105	1061435	keystroke	r	n/a
531.3175	0.075	1062635	keystroke	a	n/a
531.4675	0.06	1062935	keystroke	i	n/a
531.5725	0.09	1063145	keystroke	r	n/a
531.7075	0.09	1063415	keystroke	e	n/a
532.0075	0.075	1064015	keystroke	Key.space	n/a
532.9525	0.105	1065905	keystroke	Key.backspace	n/a
533.1775	0.075	1066355	keystroke	Key.backspace	n/a
533.3575	0.075	1066715	keystroke	Key.backspace	n/a
533.5375	0.045	1067075	keystroke	Key.backspace	n/a
534.1975	0.045	1068395	keystroke	Key.backspace	n/a
536.3755	0.072	1072751	keystroke	a	n/a
536.4325	0.06	1072865	keystroke	i	n/a
536.5075	0.075	1073015	keystroke	r	n/a
536.8675	0.075	1073735	keystroke	i	n/a
536.9575	0.075	1073915	keystroke	e	n/a
537.2125	0.06	1074425	keystroke	Key.space	n/a
537.3925	0.075	1074785	keystroke	g	n/a
537.4975	0.06	1074995	keystroke	o	n/a
539.027	0.09	1078054	keystroke	Key.enter	n/a
539.126	8.393	1078252	prompt	n/a	interactive rides climb studied\n
539.852	0.06	1079704	keystroke	i	n/a
540.002	0.03	1080004	keystroke	n	n/a
540.122	0.076	1080244	keystroke	t	n/a
540.258	0.135	1080516	keystroke	e	n/a
540.407	0.075	1080814	keystroke	r	n/a
540.812	0.15	1081624	keystroke	a	n/a
540.948	0.074	1081896	keystroke	c	n/a
541.203	0.074	1082406	keystroke	t	n/a
541.398	0.06	1082796	keystroke	i	n/a
541.578	0.09	1083156	keystroke	v	n/a
541.698	0.12	1083396	keystroke	e	n/a
541.952	0.105	1083904	keystroke	Key.space	n/a
542.582	0.075	1085164	keystroke	r	n/a
542.687	0.075	1085374	keystroke	i	n/a
542.853	0.06	1085706	keystroke	d	n/a
543.033	0.074	1086066	keystroke	e	n/a
543.197	0.09	1086394	keystroke	s	n/a
543.407	0.105	1086814	keystroke	Key.space	n/a
543.618	0.074	1087236	keystroke	c	n/a
543.768	0.075	1087536	keystroke	l	n/a
544.293	0.06	1088586	keystroke	i	n/a
544.532	0.075	1089064	keystroke	m	n/a
544.712	0.06	1089424	keystroke	b	n/a
544.967	0.075	1089934	keystroke	Key.space	n/a
545.343	0.075	1090686	keystroke	s	n/a
545.522	0.06	1091044	keystroke	u	n/a
545.627	0.06	1091254	keystroke	t	n/a
545.852	0.091	1091704	keystroke	d	n/a
545.958	0.059	1091916	keystroke	i	n/a
546.212	0.061	1092424	keystroke	e	n/a
546.453	0.074	1092906	keystroke	d	n/a
547.442	0.075	1094884	keystroke	Key.enter	n/a
547.533	14.716	1095066	prompt	n/a	locations slightly necklace hungry\n
548.328	0.045	1096656	keystroke	l	n/a
548.463	0.075	1096926	keystroke	o	n/a
548.643	0.1495	1097286	keystroke	c	n/a
549.1675	0.06	1098335	keystroke	a	n/a
549.4375	0.0745	1098875	keystroke	t	n/a
549.647	0.151	1099294	keystroke	i	n/a
549.798	0.12	1099596	keystroke	o	n/a
549.888	0.105	1099776	keystroke	n	n/a
550.187	0.09	1100374	keystroke	s	n/a
550.457	0.105	1100914	keystroke	Key.space	n/a
551.118	0.12	1102236	keystroke	s	n/a
551.252	0.061	1102504	keystroke	l	n/a
551.432	0.061	1102864	keystroke	i	n/a
551.523	0.06	1103046	keystroke	g	n/a
551.643	0.06	1103286	keystroke	h	n/a
551.733	0.074	1103466	keystroke	t	n/a
551.988	0.09	1103976	keystroke	l	n/a
552.137	0.061	1104274	keystroke	y	n/a
552.557	0.12	1105114	keystroke	Key.space	n/a
553.022	0.076	1106044	keystroke	n	n/a
553.142	0.0745	1106284	keystroke	e	n/a
553.368	0.0595	1106736	keystroke	c	n/a
553.4565	0.061	1106913	keystroke	k	n/a
553.9825	0.06	1107965	keystroke	l	n/a
554.3115	0.166	1108623	keystroke	a	n/a
554.4325	0.104	1108865	keystroke	c	n/a
554.5675	0.09	1109135	keystroke	e	n/a
554.7915	0.09	1109583	keystroke	Key.space	n/a
555.0175	0.075	1110035	keystroke	h	n/a
555.3175	0.0595	1110635	keystroke	u	n/a
555.422	0.075	1110844	keystroke	r	n/a
557.102	0.09	1114204	keystroke	Key.backspace	n/a
557.462	0.03	1114924	keystroke	n	n/a
557.657	0.075	1115314	keystroke	g	n/a
557.927	0.06	1115854	keystroke	r	n/a
558.047	0.06	1116094	keystroke	y	n/a
561.86	0.387	1123720	keystroke	Key.enter	n/a
562.2535	11.7255	1124507	prompt	n/a	junior who's costa clarity\n
563.597	0.045	1127194	keystroke	j	n/a
563.762	0.075	1127524	keystroke	u	n/a
564.032	0.076	1128064	keystroke	m	n/a
564.347	0.06	1128694	keystroke	i	n/a
565.367	0.105	1130734	keystroke	Key.backspace	n/a
565.547	0.09	1131094	keystroke	Key.backspace	n/a
566.087	0.045	1132174	keystroke	n	n/a
566.342	0.075	1132684	keystroke	i	n/a
566.642	0.06	1133284	keystroke	r	n/a
567.437	0.06	1134874	keystroke	Key.backspace	n/a
567.828	0.059	1135656	keystroke	o	n/a
567.917	0.075	1135834	keystroke	r	n/a
568.262	0.09	1136524	keystroke	Key.space	n/a
568.637	0.09	1137274	keystroke	w	n/a
568.742	0.06	1137484	keystroke	h	n/a
568.967	0.045	1137934	keystroke	o	n/a
569.462	0.075	1138924	keystroke	'	n/a
569.522	0.09	1139044	keystroke	s	n/a
569.687	0.105	1139374	keystroke	Key.space	n/a
570.557	0.09	1141114	keystroke	c	n/a
570.662	0.045	1141324	keystroke	o	n/a
570.918	0.089	1141836	keystroke	s	n/a
571.127	0.075	1142254	keystroke	t	n/a
571.262	0.09	1142524	keystroke	a	n/a
571.487	0.09	1142974	keystroke	Key.space	n/a
572.222	0.06	1144444	keystroke	c	n/a
572.387	0.06	1144774	keystroke	l	n/a
572.522	0.21	1145044	keystroke	a	n/a
572.718	0.089	1145436	keystroke	r	n/a
572.867	0.045	1145734	keystroke	i	n/a
573.018	0.059	1146036	keystroke	t	n/a
573.152	0.0605	1146304	keystroke	y	n/a
573.8725	0.105	1147745	keystroke	Key.enter	n/a
573.9835	9.6405	1147967	prompt	n/a	innovations hugh break robin\n
574.7575	0.045	1149515	keystroke	i	n/a
574.8475	0.06	1149695	keystroke	n	n/a
575.0875	0.06	1150175	keystroke	n	n/a
575.1925	0.075	1150385	keystroke	o	n/a
575.4175	0.09	1150835	keystroke	v	n/a
575.5525	0.105	1151105	keystroke	a	n/a
575.8675	0.03	1151735	keystroke	t	n/a
576.0175	0.06	1152035	keystroke	i	n/a
576.2725	0.075	1152545	keystroke	o	n/a
576.4375	0.045	1152875	keystroke	n	n/a
576.5125	0.075	1153025	keystroke	s	n/a
576.8575	0.09	1153715	keystroke	Key.space	n/a
577.4125	0.03	1154825	keystroke	h	n/a
577.5775	0.045	1155155	keystroke	u	n/a
577.7575	0.045	1155515	keystroke	g	n/a
577.8475	0.06	1155695	keystroke	h	n/a
578.2525	0.075	1156505	keystroke	Key.space	n/a
578.7025	0.06	1157405	keystroke	b	n/a
578.8075	0.06	1157615	keystroke	r	n/a
579.0175	0.075	1158035	keystroke	e	n/a
579.2275	0.075	1158455	keystroke	a	n/a
579.3175	0.075	1158635	keystroke	k	n/a
579.5575	0.09	1159115	keystroke	Key.space	n/a
579.8425	0.06	1159685	keystroke	r	n/a
579.9325	0.075	1159865	keystroke	o	n/a
581.987	0.031	1163974	keystroke	b	n/a
582.228	0.06	1164456	keystroke	i	n/a
582.377	0.06	1164754	keystroke	n	n/a
583.547	0.075	1167094	keystroke	Key.enter	n/a
583.629	19.075	1167258	prompt	n/a	verification superintendent shadow excess\n
589.3255	0.027	1178651	keystroke	v	n/a
589.4575	0.135	1178915	keystroke	e	n/a
589.5475	0.105	1179095	keystroke	r	n/a
589.7425	0.06	1179485	keystroke	i	n/a
589.8625	0.075	1179725	keystroke	f	n/a
589.967	0.075	1179934	keystroke	i	n/a
590.103	0.134	1180206	keystroke	c	n/a
590.283	0.165	1180566	keystroke	a	n/a
590.432	0.075	1180864	keystroke	t	n/a
590.523	0.104	1181046	keystroke	i	n/a
590.612	0.121	1181224	keystroke	o	n/a
590.688	0.104	1181376	keystroke	n	n/a
591.287	0.12	1182574	keystroke	Key.space	n/a
591.512	0.09	1183024	keystroke	s	n/a
592.052	0.076	1184104	keystroke	u	n/a
592.262	0.09	1184524	keystroke	p	n/a
592.382	0.136	1184764	keystroke	e	n/a
592.5025	0.0605	1185005	keystroke	r	n/a
592.727	0.045	1185454	keystroke	i	n/a
592.818	0.074	1185636	keystroke	n	n/a
592.937	0.151	1185874	keystroke	t	n/a
593.102	0.075	1186204	keystroke	e	n/a
593.193	0.059	1186386	keystroke	n	n/a
593.282	0.075	1186564	keystroke	t	n/a
593.522	0.06	1187044	keystroke	d	n/a
594.752	0.09	1189504	keystroke	Key.backspace	n/a
594.962	0.0755	1189924	keystroke	Key.backspace	n/a
595.157	0.075	1190314	keystroke	Key.backspace	n/a
595.367	0.0905	1190734	keystroke	Key.backspace	n/a
595.802	0.09	1191604	keystroke	Key.backspace	n/a
596.4775	0.09	1192955	keystroke	t	n/a
596.7175	0.075	1193435	keystroke	e	n/a
597.0175	0.045	1194035	keystroke	n	n/a
597.1525	0.075	1194305	keystroke	d	n/a
597.3625	0.06	1194725	keystroke	e	n/a
597.4675	0.075	1194935	keystroke	n	n/a
597.5575	0.06	1195115	keystroke	t	n/a
597.7675	0.12	1195535	keystroke	Key.space	n/a
598.1575	0.09	1196315	keystroke	s	n/a
598.2175	0.06	1196435	keystroke	h	n/a
598.3975	0.105	1196795	keystroke	a	n/a
598.6525	0.06	1197305	keystroke	o	n/a
599.522	0.045	1199044	keystroke	Key.backspace	n/a
599.747	0.075	1199494	keystroke	d	n/a
599.942	0.06	1199884	keystroke	o	n/a
600.032	0.075	1200064	keystroke	w	n/a
600.332	0.12	1200664	keystroke	Key.space	n/a
600.902	0.045	1201804	keystroke	e	n/a
601.097	0.045	1202194	keystroke	x	n/a
601.352	0.075	1202704	keystroke	c	n/a
601.517	0.06	1203034	keystroke	e	n/a
601.757	0.06	1203514	keystroke	s	n/a
601.922	0.075	1203844	keystroke	s	n/a
602.612	0.09	1205224	keystroke	Key.enter	n/a
602.7085	6.627	1205417	prompt	n/a	scanner runner grip brandon\n
603.392	0.09	1206784	keystroke	s	n/a
603.587	0.105	1207174	keystroke	c	n/a
603.707	0.105	1207414	keystroke	a	n/a
604.052	0.045	1208104	keystroke	n	n/a
604.172	0.075	1208344	keystroke	n	n/a
604.352	0.105	1208704	keystroke	e	n/a
604.427	0.105	1208854	keystroke	r	n/a
604.667	0.075	1209334	keystroke	Key.space	n/a
604.952	0.06	1209904	keystroke	r	n/a
605.0575	0.06	1210115	keystroke	u	n/a
605.313	0.045	1210626	keystroke	n	n/a
605.433	0.075	1210866	keystroke	n	n/a
605.583	0.09	1211166	keystroke	e	n/a
605.658	0.075	1211316	keystroke	r	n/a
605.898	0.09	1211796	keystroke	Key.space	n/a
606.138	0.075	1212276	keystroke	g	n/a
606.318	0.045	1212636	keystroke	r	n/a
606.468	0.105	1212936	keystroke	i	n/a
606.588	0.105	1213176	keystroke	p	n/a
607.1575	0.105	1214315	keystroke	Key.space	n/a
607.8025	0.045	1215605	keystroke	b	n/a
607.8925	0.075	1215785	keystroke	r	n/a
608.1025	0.105	1216205	keystroke	a	n/a
608.1775	0.075	1216355	keystroke	n	n/a
608.3575	0.06	1216715	keystroke	d	n/a
608.4475	0.075	1216895	keystroke	o	n/a
608.5675	0.075	1217135	keystroke	n	n/a
609.2275	0.104	1218455	keystroke	Key.enter	n/a
609.341	10.494	1218682	prompt	n/a	crime perfume capitol corporate\n
610.3825	0.075	1220765	keystroke	c	n/a
610.5625	0.075	1221125	keystroke	r	n/a
610.7875	0.06	1221575	keystroke	i	n/a
611.0125	0.075	1222025	keystroke	m	n/a
611.0875	0.06	1222175	keystroke	e	n/a
611.238	0.075	1222476	keystroke	Key.space	n/a
611.477	0.091	1222954	keystroke	p	n/a
611.583	0.105	1223166	keystroke	e	n/a
611.673	0.105	1223346	keystroke	r	n/a
612.0015	0.076	1224003	keystroke	f	n/a
612.138	0.06	1224276	keystroke	u	n/a
613.4875	0.075	1226975	keystroke	m	n/a
613.5925	0.075	1227185	keystroke	e	n/a
613.9075	0.075	1227815	keystroke	Key.space	n/a
614.9875	0.06	1229975	keystroke	c	n/a
615.3625	0.105	1230725	keystroke	a	n/a
615.5575	0.09	1231115	keystroke	p	n/a
615.8425	0.06	1231685	keystroke	i	n/a
615.9625	0.06	1231925	keystroke	t	n/a
616.5325	0.075	1233065	keystroke	o	n/a
616.7425	0.075	1233485	keystroke	l	n/a
617.0125	0.06	1234025	keystroke	Key.space	n/a
617.8825	0.075	1235765	keystroke	c	n/a
618.0775	0.015	1236155	keystroke	o	n/a
618.1375	0.075	1236275	keystroke	r	n/a
618.3325	0.105	1236665	keystroke	p	n/a
618.5425	0.06	1237085	keystroke	o	n/a
618.6475	0.105	1237295	keystroke	r	n/a
618.7975	0.165	1237595	keystroke	a	n/a
618.9325	0.105	1237865	keystroke	t	n/a
619.0225	0.105	1238045	keystroke	e	n/a
619.7275	0.105	1239455	keystroke	Key.enter	n/a
619.84	6.864	1239680	prompt	n/a	impact bringing guam event\n
620.4925	0.045	1240985	keystroke	i	n/a
620.7175	0.075	1241435	keystroke	m	n/a
620.957	0.09	1241914	keystroke	p	n/a
621.107	0.18	1242214	keystroke	a	n/a
621.242	0.06	1242484	keystroke	c	n/a
621.422	0.075	1242844	keystroke	t	n/a
621.737	0.075	1243474	keystroke	Key.space	n/a
621.977	0.03	1243954	keystroke	b	n/a
622.052	0.09	1244104	keystroke	r	n/a
622.247	0.06	1244494	keystroke	i	n/a
622.352	0.06	1244704	keystroke	n	n/a
622.472	0.06	1244944	keystroke	g	n/a
622.712	0.03	1245424	keystroke	i	n/a
622.772	0.075	1245544	keystroke	n	n/a
622.862	0.06	1245724	keystroke	g	n/a
623.132	0.045	1246264	keystroke	Key.space	n/a
623.732	0.075	1247464	keystroke	g	n/a
623.912	0.045	1247824	keystroke	u	n/a
624.122	0.09	1248244	keystroke	a	n/a
624.242	0.075	1248484	keystroke	m	n/a
624.542	0.075	1249084	keystroke	Key.space	n/a
624.827	0.075	1249654	keystroke	e	n/a
625.097	0.09	1250194	keystroke	v	n/a
625.352	0.075	1250704	keystroke	e	n/a
625.607	0.06	1251214	keystroke	n	n/a
625.682	0.06	1251364	keystroke	t	n/a
626.6115	0.09	1253223	keystroke	Key.enter	n/a
626.71	7.134	1253420	prompt	n/a	reason hosted gadgets minor\n
627.3025	0.104	1254605	keystroke	r	n/a
627.3775	0.105	1254755	keystroke	e	n/a
627.6025	0.119	1255205	keystroke	a	n/a
627.9175	0.06	1255835	keystroke	s	n/a
628.0525	0.075	1256105	keystroke	o	n/a
628.1415	0.105	1256283	keystroke	n	n/a
628.4565	0.076	1256913	keystroke	Key.space	n/a
628.8475	0.075	1257695	keystroke	h	n/a
628.9525	0.074	1257905	keystroke	o	n/a
629.1025	0.12	1258205	keystroke	s	n/a
629.2375	0.074	1258475	keystroke	t	n/a
629.3875	0.059	1258775	keystroke	e	n/a
629.5675	0.075	1259135	keystroke	d	n/a
629.8065	0.091	1259613	keystroke	Key.space	n/a
630.4975	0.09	1260995	keystroke	g	n/a
630.7375	0.075	1261475	keystroke	a	n/a
630.8415	0.091	1261683	keystroke	d	n/a
631.0675	0.09	1262135	keystroke	g	n/a
631.2625	0.105	1262525	keystroke	e	n/a
631.3525	0.09	1262705	keystroke	t	n/a
631.6375	0.075	1263275	keystroke	s	n/a
631.9515	0.105	1263903	keystroke	Key.space	n/a
632.2975	0.06	1264595	keystroke	m	n/a
632.4925	0.06	1264985	keystroke	i	n/a
632.7175	0.045	1265435	keystroke	n	n/a
632.9275	0.045	1265855	keystroke	o	n/a
633.0175	0.075	1266035	keystroke	r	n/a
633.7525	0.089	1267505	keystroke	Key.enter	n/a
633.8505	9.8185	1267701	prompt	n/a	attach interested drag assess\n
634.4875	0.135	1268975	keystroke	a	n/a
634.6675	0.045	1269335	keystroke	t	n/a
634.8175	0.045	1269635	keystroke	t	n/a
634.9975	0.15	1269995	keystroke	a	n/a
635.1175	0.09	1270235	keystroke	c	n/a
635.2675	0.06	1270535	keystroke	h	n/a
635.6275	0.075	1271255	keystroke	Key.space	n/a
636.1525	0.075	1272305	keystroke	i	n/a
636.2875	0.06	1272575	keystroke	n	n/a
636.4675	0.06	1272935	keystroke	t	n/a
636.6025	0.105	1273205	keystroke	e	n/a
636.8425	0.12	1273685	keystroke	r	n/a
636.9775	0.105	1273955	keystroke	e	n/a
637.1575	0.1945	1274315	keystroke	s	n/a
637.307	0.15	1274614	keystroke	t	n/a
637.442	0.09	1274884	keystroke	e	n/a
637.622	0.09	1275244	keystroke	d	n/a
637.892	0.105	1275784	keystroke	Key.space	n/a
638.267	0.075	1276534	keystroke	d	n/a
638.417	0.09	1276834	keystroke	r	n/a
638.567	0.15	1277134	keystroke	a	n/a
638.702	0.045	1277404	keystroke	g	n/a
639.047	0.075	1278094	keystroke	Key.space	n/a
639.707	0.09	1279414	keystroke	a	n/a
639.9315	0.075	1279863	keystroke	s	n/a
640.3365	0.045	1280673	keystroke	e	n/a
641.3715	0.106	1282743	keystroke	Key.backspace	n/a
641.6575	0.089	1283315	keystroke	s	n/a
642.2725	0.059	1284545	keystroke	e	n/a
642.4975	0.059	1284995	keystroke	s	n/a
642.6475	0.09	1285295	keystroke	s	n/a
643.562	0.105	1287124	keystroke	Key.enter	n/a
643.674	13.4205	1287348	prompt	n/a	bacteria throat notifications comparative\n
644.747	0.075	1289494	keystroke	b	n/a
644.852	0.195	1289704	keystroke	a	n/a
645.032	0.075	1290064	keystroke	c	n/a
645.752	0.075	1291504	keystroke	t	n/a
646.052	0.12	1292104	keystroke	e	n/a
646.187	0.045	1292374	keystroke	r	n/a
646.382	0.09	1292764	keystroke	a	n/a
648.362	0.105	1296724	keystroke	Key.backspace	n/a
648.977	0.09	1297954	keystroke	i	n/a
649.052	0.12	1298104	keystroke	a	n/a
649.442	0.135	1298884	keystroke	Key.space	n/a
649.907	0.075	1299814	keystroke	t	n/a
649.997	0.06	1299994	keystroke	h	n/a
650.147	0.09	1300294	keystroke	r	n/a
650.267	0.075	1300534	keystroke	o	n/a
650.372	0.135	1300744	keystroke	a	n/a
650.477	0.075	1300954	keystroke	t	n/a
650.822	0.105	1301644	keystroke	Key.space	n/a
651.467	0.09	1302934	keystroke	n	n/a
651.662	0.075	1303324	keystroke	o	n/a
651.782	0.075	1303564	keystroke	t	n/a
651.932	0.06	1303864	keystroke	i	n/a
652.037	0.075	1304074	keystroke	f	n/a
652.142	0.06	1304284	keystroke	i	n/a
652.307	0.105	1304614	keystroke	c	n/a
652.427	0.09	1304854	keystroke	a	n/a
652.667	0.06	1305334	keystroke	t	n/a
652.817	0.135	1305634	keystroke	i	n/a
652.937	0.09	1305874	keystroke	o	n/a
652.997	0.1345	1305994	keystroke	n	n/a
653.5225	0.104	1307045	keystroke	Key.space	n/a
653.9275	0.074	1307855	keystroke	c	n/a
654.0325	0.12	1308065	keystroke	o	n/a
654.2725	0.075	1308545	keystroke	m	n/a
654.7225	0.075	1309445	keystroke	p	n/a
654.8425	0.15	1309685	keystroke	a	n/a
654.9625	0.09	1309925	keystroke	r	n/a
655.1275	0.135	1310255	keystroke	a	n/a
655.3075	0.06	1310615	keystroke	t	n/a
655.5625	0.06	1311125	keystroke	i	n/a
656.1475	0.09	1312295	keystroke	v	n/a
656.2675	0.09	1312535	keystroke	e	n/a
656.987	0.105	1313974	keystroke	Key.enter	n/a
657.1005	8.8885	1314201	prompt	n/a	ieee bidding wiley technical\n
657.903	0.059	1315806	keystroke	i	n/a
658.142	0.06	1316284	keystroke	e	n/a
658.352	0.0455	1316704	keystroke	e	n/a
658.517	0.06	1317034	keystroke	e	n/a
658.847	0.09	1317694	keystroke	Key.space	n/a
659.042	0.075	1318084	keystroke	b	n/a
659.342	0.045	1318684	keystroke	i	n/a
659.537	0.045	1319074	keystroke	d	n/a
659.687	0.06	1319374	keystroke	d	n/a
660.272	0.06	1320544	keystroke	i	n/a
660.422	0.06	1320844	keystroke	n	n/a
660.512	0.045	1321024	keystroke	g	n/a
660.782	0.12	1321564	keystroke	Key.space	n/a
661.277	0.075	1322554	keystroke	w	n/a
661.472	0.06	1322944	keystroke	i	n/a
661.6975	0.0745	1323395	keystroke	l	n/a
661.892	0.06	1323784	keystroke	e	n/a
662.027	0.075	1324054	keystroke	y	n/a
662.297	0.075	1324594	keystroke	Key.space	n/a
662.717	0.075	1325434	keystroke	t	n/a
662.837	0.105	1325674	keystroke	e	n/a
663.107	0.075	1326214	keystroke	c	n/a
663.227	0.06	1326454	keystroke	h	n/a
663.452	0.12	1326904	keystroke	n	n/a
663.587	0.075	1327174	keystroke	i	n/a
663.812	0.105	1327624	keystroke	c	n/a
664.367	0.06	1328734	keystroke	a	n/a
664.487	0.09	1328974	keystroke	l	n/a
665.867	0.12	1331734	keystroke	Key.enter	n/a
665.9955	8.7085	1331991	prompt	n/a	councils trademark puzzle address\n
666.587	0.075	1333174	keystroke	c	n/a
666.752	0.075	1333504	keystroke	o	n/a
666.887	0.075	1333774	keystroke	u	n/a
667.112	0.0755	1334224	keystroke	n	n/a
667.3225	0.03	1334645	keystroke	c	n/a
667.4125	0.06	1334825	keystroke	i	n/a
667.6225	0.075	1335245	keystroke	l	n/a
667.7125	0.075	1335425	keystroke	s	n/a
667.8775	0.105	1335755	keystroke	Key.space	n/a
668.1625	0.06	1336325	keystroke	t	n/a
668.3875	0.075	1336775	keystroke	r	n/a
668.5375	0.18	1337075	keystroke	a	n/a
668.6725	0.06	1337345	keystroke	d	n/a
668.8215	0.091	1337643	keystroke	e	n/a
670.5775	0.075	1341155	keystroke	m	n/a
670.6825	0.15	1341365	keystroke	a	n/a
670.7875	0.075	1341575	keystroke	r	n/a
670.9375	0.075	1341875	keystroke	k	n/a
671.237	0.06	1342474	keystroke	Key.space	n/a
671.477	0.135	1342954	keystroke	p	n/a
671.627	0.09	1343254	keystroke	u	n/a
671.867	0.075	1343734	keystroke	z	n/a
672.047	0.06	1344094	keystroke	z	n/a
672.272	0.06	1344544	keystroke	l	n/a
672.362	0.045	1344724	keystroke	e	n/a
672.632	0.045	1345264	keystroke	Key.space	n/a
672.917	0.09	1345834	keystroke	a	n/a
673.097	0.045	1346194	keystroke	d	n/a
673.232	0.105	1346464	keystroke	d	n/a
673.397	0.12	1346794	keystroke	r	n/a
673.502	0.09	1347004	keystroke	e	n/a
673.697	0.09	1347394	keystroke	s	n/a
673.847	0.075	1347694	keystroke	s	n/a
674.612	0.09	1349224	keystroke	Key.enter	n/a
674.709	16.0005	1349418	prompt	n/a	advisory strap fabrics apnic\n
675.437	0.1055	1350874	keystroke	a	n/a
675.5575	0.075	1351115	keystroke	d	n/a
675.7675	0.075	1351535	keystroke	v	n/a
675.8725	0.06	1351745	keystroke	i	n/a
676.0525	0.075	1352105	keystroke	s	n/a
676.1725	0.0745	1352345	keystroke	o	n/a
676.262	0.0605	1352524	keystroke	r	n/a
676.3825	0.06	1352765	keystroke	y	n/a
676.532	0.1055	1353064	keystroke	Key.space	n/a
676.9975	0.105	1353995	keystroke	s	n/a
677.3725	0.045	1354745	keystroke	t	n/a
677.5375	0.075	1355075	keystroke	r	n/a
678.5575	0.105	1357115	keystroke	a	n/a
678.7375	0.09	1357475	keystroke	p	n/a
679.3075	0.105	1358615	keystroke	Key.space	n/a
679.6375	0.075	1359275	keystroke	f	n/a
679.7575	0.135	1359515	keystroke	a	n/a
679.9975	0.06	1359995	keystroke	b	n/a
680.1025	0.075	1360205	keystroke	t	n/a
680.6725	0.045	1361345	keystroke	i	n/a
680.8375	0.045	1361675	keystroke	r	n/a
682.2475	0.09	1364495	keystroke	Key.backspace	n/a
682.4125	0.105	1364825	keystroke	Key.backspace	n/a
683.3875	0.075	1366775	keystroke	=	n/a
684.2425	0.09	1368485	keystroke	Key.backspace	n/a
684.3925	0.105	1368785	keystroke	Key.backspace	n/a
685.3375	0.09	1370675	keystroke	r	n/a
685.5025	0.075	1371005	keystroke	i	n/a
685.8175	0.075	1371635	keystroke	s	n/a
686.6575	0.06	1373315	keystroke	Key.backspace	n/a
686.8975	0.045	1373795	keystroke	c	n/a
686.9875	0.105	1373975	keystroke	s	n/a
687.3175	0.135	1374635	keystroke	Key.space	n/a
688.083	0.104	1376166	keystroke	a	n/a
688.547	0.09	1377094	keystroke	p	n/a
689.237	0.075	1378474	keystroke	n	n/a
689.477	0.06	1378954	keystroke	i	n/a
689.552	0.075	1379104	keystroke	c	n/a
690.617	0.09	1381234	keystroke	Key.enter	n/a
690.7145	13.3295	1381429	prompt	n/a	clip galleries shortcuts open\n
691.6825	0.09	1383365	keystroke	c	n/a
691.9075	0.075	1383815	keystroke	l	n/a
692.0875	0.135	1384175	keystroke	i	n/a
692.2525	0.075	1384505	keystroke	p	n/a
692.5975	0.075	1385195	keystroke	Key.space	n/a
692.9725	0.06	1385945	keystroke	g	n/a
693.0925	0.105	1386185	keystroke	a	n/a
693.2725	0.06	1386545	keystroke	l	n/a
693.4225	0.075	1386845	keystroke	l	n/a
693.7825	0.09	1387565	keystroke	e	n/a
693.9925	0.09	1387985	keystroke	r	n/a
694.2775	0.06	1388555	keystroke	i	n/a
694.3675	0.075	1388735	keystroke	e	n/a
694.5625	0.075	1389125	keystroke	s	n/a
694.937	0.075	1389874	keystroke	Key.space	n/a
695.477	0.106	1390954	keystroke	s	n/a
695.583	0.044	1391166	keystroke	h	n/a
695.882	0.075	1391764	keystroke	u	n/a
695.972	0.075	1391944	keystroke	r	n/a
696.842	0.075	1393684	keystroke	Key.backspace	n/a
696.992	0.105	1393984	keystroke	Key.backspace	n/a
697.337	0.075	1394674	keystroke	Key.backspace	n/a
698.027	0.03	1396054	keystroke	h	n/a
698.207	0.075	1396414	keystroke	o	n/a
698.297	0.075	1396594	keystroke	u	n/a
698.417	0.0755	1396834	keystroke	r	n/a
698.763	0.059	1397526	keystroke	c	n/a
698.972	0.06	1397944	keystroke	u	n/a
699.452	0.045	1398904	keystroke	Key.backspace	n/a
700.052	0.06	1400104	keystroke	Key.backspace	n/a
700.202	0.105	1400404	keystroke	Key.backspace	n/a
700.427	0.06	1400854	keystroke	Key.backspace	n/a
701.042	0.075	1402084	keystroke	r	n/a
701.222	0.09	1402444	keystroke	t	n/a
701.762	0.06	1403524	keystroke	c	n/a
701.9725	0.0595	1403945	keystroke	u	n/a
702.092	0.06	1404184	keystroke	t	n/a
702.287	0.075	1404574	keystroke	s	n/a
702.557	0.045	1405114	keystroke	Key.space	n/a
702.782	0.106	1405564	keystroke	o	n/a
702.917	0.12	1405834	keystroke	p	n/a
703.022	0.06	1406044	keystroke	e	n/a
703.157	0.09	1406314	keystroke	n	n/a
703.952	0.09	1407904	keystroke	Key.enter	n/a
704.05	18.294	1408100	prompt	n/a	motorola witness programmes showers\n
704.838	0.075	1409676	keystroke	n	n/a
705.7675	0.09	1411535	keystroke	Key.backspace	n/a
706.1575	0.09	1412315	keystroke	m	n/a
706.3075	0.075	1412615	keystroke	o	n/a
706.4575	0.075	1412915	keystroke	t	n/a
706.5625	0.075	1413125	keystroke	o	n/a
706.8025	0.075	1413605	keystroke	r	n/a
706.9975	0.075	1413995	keystroke	a	n/a
707.732	0.075	1415464	keystroke	Key.backspace	n/a
708.287	0.075	1416574	keystroke	o	n/a
708.617	0.075	1417234	keystroke	l	n/a
708.737	0.09	1417474	keystroke	a	n/a
709.037	0.09	1418074	keystroke	Key.space	n/a
712.1	0.057	1424200	keystroke	w	n/a
712.277	0.06	1424554	keystroke	i	n/a
712.367	0.06	1424734	keystroke	t	n/a
712.547	0.045	1425094	keystroke	h	n/a
712.907	0.045	1425814	keystroke	n	n/a
713.012	0.06	1426024	keystroke	e	n/a
713.192	0.09	1426384	keystroke	s	n/a
713.972	0.105	1427944	keystroke	Key.backspace	n/a
714.137	0.105	1428274	keystroke	Key.backspace	n/a
714.332	0.06	1428664	keystroke	Key.backspace	n/a
714.497	0.075	1428994	keystroke	Key.backspace	n/a
714.722	0.045	1429444	keystroke	Key.backspace	n/a
715.187	0.06	1430374	keystroke	t	n/a
715.472	0.06	1430944	keystroke	n	n/a
715.607	0.06	1431214	keystroke	e	n/a
715.802	0.06	1431604	keystroke	s	n/a
715.967	0.045	1431934	keystroke	s	n/a
716.927	0.105	1433854	keystroke	Key.space	n/a
717.227	0.105	1434454	keystroke	p	n/a
717.347	0.075	1434694	keystroke	r	n/a
717.542	0.06	1435084	keystroke	o	n/a
717.647	0.075	1435294	keystroke	g	n/a
717.917	0.06	1435834	keystroke	r	n/a
718.052	0.105	1436104	keystroke	a	n/a
718.217	0.06	1436434	keystroke	m	n/a
718.307	0.09	1436614	keystroke	m	n/a
718.637	0.075	1437274	keystroke	m	n/a
718.967	0.045	1437934	keystroke	e	n/a
719.132	0.06	1438264	keystroke	s	n/a
719.387	0.12	1438774	keystroke	Key.space	n/a
719.777	0.075	1439554	keystroke	s	n/a
719.882	0.03	1439764	keystroke	h	n/a
720.092	0.06	1440184	keystroke	o	n/a
720.167	0.075	1440334	keystroke	w	n/a
720.407	0.12	1440814	keystroke	e	n/a
720.5125	0.0895	1441025	keystroke	r	n/a
720.7225	0.0745	1441445	keystroke	s	n/a
722.252	0.09	1444504	keystroke	Key.enter	n/a
722.3485	10.166	1444697	prompt	n/a	purchasing fruit browsing duke\n
723.1375	0.135	1446275	keystroke	p	n/a
723.2875	0.075	1446575	keystroke	u	n/a
723.3475	0.06	1446695	keystroke	r	n/a
723.6475	0.075	1447295	keystroke	c	n/a
723.7675	0.045	1447535	keystroke	h	n/a
723.9475	0.15	1447895	keystroke	a	n/a
724.4875	0.075	1448975	keystroke	s	n/a
724.6975	0.075	1449395	keystroke	i	n/a
724.8025	0.06	1449605	keystroke	n	n/a
724.9225	0.03	1449845	keystroke	g	n/a
725.0875	0.075	1450175	keystroke	Key.space	n/a
725.3725	0.06	1450745	keystroke	f	n/a
725.5825	0.075	1451165	keystroke	r	n/a
725.7925	0.045	1451585	keystroke	u	n/a
726.0475	0.045	1452095	keystroke	i	n/a
726.1375	0.045	1452275	keystroke	t	n/a
726.3625	0.09	1452725	keystroke	Key.space	n/a
726.8875	0.06	1453775	keystroke	b	n/a
726.9925	0.03	1453985	keystroke	r	n/a
727.1725	0.03	1454345	keystroke	o	n/a
728.0725	0.105	1456145	keystroke	Key.backspace	n/a
729.0925	0.09	1458185	keystroke	o	n/a
729.1975	0.075	1458395	keystroke	w	n/a
729.6325	0.06	1459265	keystroke	s	n/a
729.9925	0.075	1459985	keystroke	i	n/a
730.1275	0.06	1460255	keystroke	n	n/a
730.2025	0.06	1460405	keystroke	g	n/a
730.5325	0.075	1461065	keystroke	Key.space	n/a
731.0425	0.06	1462085	keystroke	d	n/a
731.1475	0.075	1462295	keystroke	u	n/a
731.4775	0.045	1462955	keystroke	k	n/a
731.5375	0.075	1463075	keystroke	e	n/a
732.4225	0.09	1464845	keystroke	Key.enter	n/a
732.52	11.124	1465040	prompt	n/a	gnome facilities memories switching\n
733.3525	0.059	1466705	keystroke	g	n/a
734.0275	0.075	1468055	keystroke	n	n/a
734.1615	0.046	1468323	keystroke	o	n/a
734.4315	0.076	1468863	keystroke	m	n/a
734.5225	0.059	1469045	keystroke	e	n/a
734.8815	0.12	1469763	keystroke	Key.space	n/a
735.557	0.075	1471114	keystroke	f	n/a
735.692	0.12	1471384	keystroke	a	n/a
735.872	0.09	1471744	keystroke	c	n/a
736.172	0.06	1472344	keystroke	i	n/a
736.457	0.03	1472914	keystroke	l	n/a
736.547	0.09	1473094	keystroke	i	n/a
736.802	0.045	1473604	keystroke	t	n/a
736.892	0.075	1473784	keystroke	i	n/a
737.192	0.03	1474384	keystroke	s	n/a
738.047	0.075	1476094	keystroke	Key.backspace	n/a
738.258	0.059	1476516	keystroke	e	n/a
738.422	0.075	1476844	keystroke	s	n/a
738.572	0.135	1477144	keystroke	Key.space	n/a
739.652	0.045	1479304	keystroke	m	n/a
739.727	0.06	1479454	keystroke	e	n/a
739.922	0.06	1479844	keystroke	m	n/a
740.087	0.045	1480174	keystroke	o	n/a
740.163	0.074	1480326	keystroke	r	n/a
740.297	0.06	1480594	keystroke	i	n/a
740.372	0.06	1480744	keystroke	e	n/a
740.552	0.075	1481104	keystroke	s	n/a
740.837	0.075	1481674	keystroke	Key.space	n/a
741.362	0.045	1482724	keystroke	s	n/a
741.557	0.06	1483114	keystroke	w	n/a
741.707	0.06	1483414	keystroke	i	n/a
741.827	0.06	1483654	keystroke	t	n/a
742.067	0.06	1484134	keystroke	c	n/a
742.187	0.045	1484374	keystroke	h	n/a
742.457	0.045	1484914	keystroke	i	n/a
742.517	0.09	1485034	keystroke	n	n/a
742.652	0.06	1485304	keystroke	g	n/a
743.567	0.075	1487134	keystroke	Key.enter	n/a
743.649	13.001	1487298	prompt	n/a	investigators naples stay trademarks\n
744.3465	0.075	1488693	keystroke	i	n/a
744.6015	0.015	1489203	keystroke	n	n/a
744.6615	0.09	1489323	keystroke	v	n/a
744.9015	0.06	1489803	keystroke	e	n/a
745.0815	0.09	1490163	keystroke	s	n/a
745.3365	0.06	1490673	keystroke	t	n/a
745.6365	0.06	1491273	keystroke	i	n/a
745.7415	0.075	1491483	keystroke	g	n/a
745.9215	0.09	1491843	keystroke	a	n/a
746.1315	0.06	1492263	keystroke	t	n/a
747.2565	0.06	1494513	keystroke	o	n/a
747.3315	0.06	1494663	keystroke	r	n/a
747.4815	0.09	1494963	keystroke	s	n/a
747.9915	0.12	1495983	keystroke	Key.space	n/a
748.5465	0.075	1497093	keystroke	n	n/a
748.6965	0.075	1497393	keystroke	a	n/a
748.9215	0.12	1497843	keystroke	p	n/a
749.207	0.075	1498414	keystroke	l	n/a
749.327	0.075	1498654	keystroke	e	n/a
749.537	0.06	1499074	keystroke	s	n/a
749.702	0.09	1499404	keystroke	Key.space	n/a
749.957	0.09	1499914	keystroke	s	n/a
750.077	0.105	1500154	keystroke	t	n/a
750.332	0.09	1500664	keystroke	a	n/a
750.497	0.075	1500994	keystroke	y	n/a
751.832	0.15	1503664	keystroke	Key.space	n/a
752.627	0.06	1505254	keystroke	t	n/a
752.822	0.045	1505644	keystroke	r	n/a
753.977	0.12	1507954	keystroke	a	n/a
754.172	0.06	1508344	keystroke	d	n/a
754.352	0.06	1508704	keystroke	e	n/a
755.042	0.06	1510084	keystroke	m	n/a
755.147	0.165	1510294	keystroke	a	n/a
755.327	0.06	1510654	keystroke	r	n/a
755.552	0.06	1511104	keystroke	k	n/a
755.657	0.075	1511314	keystroke	s	n/a
756.557	0.09	1513114	keystroke	Key.enter	n/a
756.6555	8.845	1513311	prompt	n/a	assuming up griffin fires\n
757.367	0.105	1514734	keystroke	a	n/a
757.532	0.075	1515064	keystroke	s	n/a
757.697	0.09	1515394	keystroke	s	n/a
757.907	0.075	1515814	keystroke	u	n/a
758.207	0.09	1516414	keystroke	m	n/a
758.822	0.075	1517644	keystroke	i	n/a
759.032	0.045	1518064	keystroke	n	n/a
759.122	0.045	1518244	keystroke	g	n/a
759.437	0.09	1518874	keystroke	Key.space	n/a
760.247	0.09	1520494	keystroke	u	n/a
760.472	0.075	1520944	keystroke	p	n/a
760.727	0.075	1521454	keystroke	Key.space	n/a
760.982	0.075	1521964	keystroke	g	n/a
761.252	0.03	1522504	keystroke	r	n/a
761.417	0.06	1522834	keystroke	i	n/a
762.572	0.06	1525144	keystroke	f	n/a
762.722	0.09	1525444	keystroke	f	n/a
763.022	0.075	1526044	keystroke	i	n/a
763.157	0.06	1526314	keystroke	n	n/a
763.712	0.075	1527424	keystroke	Key.space	n/a
763.907	0.045	1527814	keystroke	f	n/a
764.057	0.06	1528114	keystroke	i	n/a
764.192	0.075	1528384	keystroke	r	n/a
764.327	0.06	1528654	keystroke	e	n/a
764.507	0.075	1529014	keystroke	s	n/a
765.422	0.075	1530844	keystroke	Key.enter	n/a
765.5055	16.5085	1531011	prompt	n/a	objectives exhibit airplane solution\n
766.532	0.045	1533064	keystroke	o	n/a
766.682	0.045	1533364	keystroke	b	n/a
766.967	0.06	1533934	keystroke	j	n/a
767.057	0.09	1534114	keystroke	e	n/a
767.267	0.075	1534534	keystroke	c	n/a
767.507	0.09	1535014	keystroke	t	n/a
767.717	0.06	1535434	keystroke	i	n/a
767.822	0.075	1535644	keystroke	v	n/a
768.017	0.075	1536034	keystroke	e	n/a
768.197	0.06	1536394	keystroke	w	n/a
769.307	0.12	1538614	keystroke	Key.backspace	n/a
769.8615	0.075	1539723	keystroke	s	n/a
770.0565	0.135	1540113	keystroke	Key.space	n/a
770.4615	0.06	1540923	keystroke	e	n/a
770.6565	0.061	1541313	keystroke	x	n/a
770.837	0.075	1541674	keystroke	h	n/a
770.942	0.075	1541884	keystroke	i	n/a
771.092	0.09	1542184	keystroke	b	n/a
771.212	0.06	1542424	keystroke	i	n/a
771.302	0.075	1542604	keystroke	t	n/a
771.512	0.09	1543024	keystroke	Key.space	n/a
772.007	0.06	1544014	keystroke	a	n/a
772.187	0.045	1544374	keystroke	i	n/a
772.277	0.06	1544554	keystroke	r	n/a
772.517	0.075	1545034	keystroke	p	n/a
772.712	0.105	1545424	keystroke	l	n/a
773.342	0.105	1546684	keystroke	a	n/a
773.477	0.075	1546954	keystroke	n	n/a
773.657	0.0755	1547314	keystroke	e	n/a
773.9275	0.09	1547855	keystroke	Key.space	n/a
774.1975	0.0895	1548395	keystroke	s	n/a
774.437	0.075	1548874	keystroke	o	n/a
774.752	0.06	1549504	keystroke	u	n/a
775.532	0.09	1551064	keystroke	Key.backspace	n/a
776.4175	0.134	1552835	keystroke	l	n/a
776.6265	0.06	1553253	keystroke	u	n/a
776.8215	0.045	1553643	keystroke	t	n/a
776.9115	0.105	1553823	keystroke	i	n/a
777.0315	0.09	1554063	keystroke	o	n/a
777.0915	0.105	1554183	keystroke	n	n/a
777.2715	0.075	1554543	keystroke	s	n/a
778.0665	0.105	1556133	keystroke	Key.backspace	n/a
779.0565	0.075	1558113	keystroke	Key.shift_r	n/a
781.97	0.042	1563940	keystroke	Key.enter	n/a
782.02	10.134	1564040	prompt	n/a	departmental relating norton spectrum\n
782.717	0.044	1565434	keystroke	d	n/a
782.882	0.06	1565764	keystroke	e	n/a
783.257	0.09	1566514	keystroke	p	n/a
783.887	0.15	1567774	keystroke	a	n/a
783.977	0.075	1567954	keystroke	r	n/a
784.157	0.105	1568314	keystroke	t	n/a
784.441	0.076	1568882	keystroke	m	n/a
784.502	0.075	1569004	keystroke	e	n/a
784.622	0.059	1569244	keystroke	n	n/a
784.712	0.074	1569424	keystroke	t	n/a
784.891	0.091	1569782	keystroke	a	n/a
784.996	0.106	1569992	keystroke	l	n/a
785.131	0.136	1570262	keystroke	Key.space	n/a
785.387	0.15	1570774	keystroke	r	n/a
785.507	0.09	1571014	keystroke	e	n/a
785.807	0.06	1571614	keystroke	l	n/a
785.897	0.165	1571794	keystroke	a	n/a
786.077	0.075	1572154	keystroke	t	n/a
786.212	0.074	1572424	keystroke	i	n/a
786.302	0.075	1572604	keystroke	n	n/a
786.392	0.045	1572784	keystroke	g	n/a
786.497	0.089	1572994	keystroke	Key.space	n/a
786.752	0.074	1573504	keystroke	n	n/a
786.857	0.06	1573714	keystroke	o	n/a
786.962	0.075	1573924	keystroke	r	n/a
787.172	0.089	1574344	keystroke	t	n/a
787.382	0.075	1574764	keystroke	o	n/a
787.562	0.06	1575124	keystroke	n	n/a
787.681	0.106	1575362	keystroke	Key.space	n/a
787.847	0.09	1575694	keystroke	s	n/a
788.027	0.105	1576054	keystroke	p	n/a
788.117	0.06	1576234	keystroke	e	n/a
788.327	0.075	1576654	keystroke	c	n/a
789.287	0.075	1578574	keystroke	t	n/a
789.497	0.06	1578994	keystroke	r	n/a
790.5475	0.06	1581095	keystroke	u	n/a
790.8475	0.06	1581695	keystroke	m	n/a
792.0625	0.09	1584125	keystroke	Key.enter	n/a
792.1585	11.0505	1584317	prompt	n/a	manuals wave smilies temple\n
793.0225	0.03	1586045	keystroke	n	n/a
793.952	0.09	1587904	keystroke	Key.backspace	n/a
794.327	0.06	1588654	keystroke	m	n/a
794.447	0.12	1588894	keystroke	a	n/a
794.612	0.03	1589224	keystroke	n	n/a
794.837	0.045	1589674	keystroke	u	n/a
795.182	0.09	1590364	keystroke	a	n/a
795.317	0.075	1590634	keystroke	l	n/a
795.437	0.075	1590874	keystroke	s	n/a
795.6475	0.075	1591295	keystroke	Key.space	n/a
795.9175	0.074	1591835	keystroke	w	n/a
796.5325	0.09	1593065	keystroke	a	n/a
796.7425	0.105	1593485	keystroke	v	n/a
796.8775	0.12	1593755	keystroke	e	n/a
797.2365	0.12	1594473	keystroke	Key.space	n/a
797.7325	0.09	1595465	keystroke	s	n/a
797.9425	0.06	1595885	keystroke	i	n/a
798.6615	0.046	1597323	keystroke	m	n/a
799.0965	0.045	1598193	keystroke	Key.backspace	n/a
799.2615	0.03	1598523	keystroke	Key.backspace	n/a
799.6065	0.09	1599213	keystroke	m	n/a
799.8915	0.061	1599783	keystroke	i	n/a
800.1315	0.076	1600263	keystroke	l	n/a
800.2965	0.076	1600593	keystroke	i	n/a
800.4475	0.059	1600895	keystroke	e	n/a
800.6275	0.074	1601255	keystroke	s	n/a
800.8065	0.12	1601613	keystroke	Key.space	n/a
801.557	0.075	1603114	keystroke	t	n/a
801.692	0.12	1603384	keystroke	e	n/a
801.842	0.075	1603684	keystroke	m	n/a
802.067	0.105	1604134	keystroke	p	n/a
802.307	0.09	1604614	keystroke	l	n/a
802.412	0.06	1604824	keystroke	e	n/a
803.102	0.105	1606204	keystroke	Key.enter	n/a
803.216	10.433	1606432	prompt	n/a	julia century mine miami\n
804.002	0.03	1608004	keystroke	j	n/a
804.182	0.075	1608364	keystroke	u	n/a
804.437	0.075	1608874	keystroke	l	n/a
804.587	0.075	1609174	keystroke	i	n/a
804.677	0.105	1609354	keystroke	a	n/a
805.007	0.105	1610014	keystroke	Key.space	n/a
805.457	0.09	1610914	keystroke	c	n/a
805.772	0.09	1611544	keystroke	e	n/a
805.907	0.045	1611814	keystroke	n	n/a
806.042	0.06	1612084	keystroke	t	n/a
806.237	0.0605	1612474	keystroke	u	n/a
806.3115	0.061	1612623	keystroke	r	n/a
806.4915	0.046	1612983	keystroke	y	n/a
806.8665	0.075	1613733	keystroke	Key.space	n/a
807.3325	0.059	1614665	keystroke	m	n/a
807.5115	0.061	1615023	keystroke	i	n/a
807.6475	0.059	1615295	keystroke	n	n/a
807.7975	0.075	1615595	keystroke	e	n/a
808.6365	0.09	1617273	keystroke	Key.space	n/a
808.9975	0.059	1617995	keystroke	m	n/a
809.1475	0.075	1618295	keystroke	i	n/a
809.4625	0.119	1618925	keystroke	a	n/a
809.6275	0.06	1619255	keystroke	i	n/a
809.8365	0.105	1619673	keystroke	m	n/a
810.7815	0.075	1621563	keystroke	Key.backspace	n/a
810.9465	0.076	1621893	keystroke	Key.backspace	n/a
811.9975	0.075	1623995	keystroke	m	n/a
812.2225	0.06	1624445	keystroke	i	n/a
813.5565	0.091	1627113	keystroke	Key.enter	n/a
813.6535	17.0355	1627307	prompt	n/a	distribute receiver lesson labels\n
814.3375	0.09	1628675	keystroke	d	n/a
814.4575	0.059	1628915	keystroke	i	n/a
814.5475	0.134	1629095	keystroke	s	n/a
814.7425	0.075	1629485	keystroke	t	n/a
814.9375	0.06	1629875	keystroke	r	n/a
815.0425	0.089	1630085	keystroke	i	n/a
815.2665	0.03	1630533	keystroke	Key.space	n/a
815.5225	0.075	1631045	keystroke	u	n/a
816.5265	0.075	1633053	keystroke	Key.backspace	n/a
817.9215	0.09	1635843	keystroke	Key.backspace	n/a
819.2725	0.075	1638545	keystroke	b	n/a
819.5275	0.06	1639055	keystroke	u	n/a
819.6475	0.12	1639295	keystroke	t	n/a
820.442	0.075	1640884	keystroke	e	n/a
820.757	0.15	1641514	keystroke	Key.space	n/a
821.237	0.12	1642474	keystroke	r	n/a
821.312	0.135	1642624	keystroke	e	n/a
822.047	0.105	1644094	keystroke	e	n/a
823.067	0.105	1646134	keystroke	Key.backspace	n/a
823.8025	0.12	1647605	keystroke	c	n/a
823.9065	0.105	1647813	keystroke	e	n/a
824.1775	0.059	1648355	keystroke	i	n/a
824.2975	0.09	1648595	keystroke	v	n/a
824.4765	0.091	1648953	keystroke	e	n/a
824.8675	0.045	1649735	keystroke	r	n/a
825.2415	0.12	1650483	keystroke	Key.space	n/a
826.0515	0.076	1652103	keystroke	l	n/a
826.1415	0.061	1652283	keystroke	e	n/a
826.3365	0.076	1652673	keystroke	s	n/a
826.4865	0.091	1652973	keystroke	s	n/a
826.6365	0.121	1653273	keystroke	o	n/a
826.7725	0.089	1653545	keystroke	n	n/a
826.9365	0.106	1653873	keystroke	Key.space	n/a
827.8675	0.09	1655735	keystroke	l	n/a
827.9585	0.134	1655917	keystroke	a	n/a
828.0775	0.06	1656155	keystroke	b	n/a
828.3625	0.045	1656725	keystroke	e	n/a
828.4975	0.075	1656995	keystroke	l	n/a
828.6165	0.075	1657233	keystroke	s	n/a
830.612	0.075	1661224	keystroke	Key.enter	n/a
830.6935	13.0905	1661387	prompt	n/a	installed through religion aging\n
831.392	0.075	1662784	keystroke	i	n/a
831.647	0.045	1663294	keystroke	n	n/a
831.812	0.12	1663624	keystroke	s	n/a
831.992	0.075	1663984	keystroke	t	n/a
832.157	0.09	1664314	keystroke	a	n/a
832.352	0.045	1664704	keystroke	l	n/a
832.472	0.09	1664944	keystroke	l	n/a
832.622	0.075	1665244	keystroke	e	n/a
833.1775	0.074	1666355	keystroke	d	n/a
833.7915	0.106	1667583	keystroke	Key.space	n/a
834.0475	0.06	1668095	keystroke	t	n/a
834.1975	0.075	1668395	keystroke	b	n/a
834.3175	0.105	1668635	keystroke	r	n/a
834.4825	0.09	1668965	keystroke	o	n/a
834.5875	0.075	1669175	keystroke	u	n/a
834.7825	0.075	1669565	keystroke	g	n/a
