onset	duration	sample	value	key	prompt_text
3.389	48.017	6778	prompt	n/a	the quick brown fox jumps over a lazy dog\n
35.0735	0.09	70147	keystroke_t	t	n/a
35.2985	0.075	70597	keystroke_j	j	n/a
35.539	0.1495	71078	keystroke_;	;	n/a
35.8385	0.12	71677	keystroke_;	;	n/a
36.0935	0.15	72187	keystroke_;	;	n/a
36.3935	0.09	72787	keystroke_t	t	n/a
36.5285	0.09	73057	keystroke_h	h	n/a
36.6035	0.105	73207	keystroke_e	e	n/a
36.9035	0.195	73807	keystroke_;	;	n/a
37.2185	0.15	74437	keystroke_l	l	n/a
37.398	0.165	74796	keystroke_k	k	n/a
37.578	0.12	75156	keystroke_j	j	n/a
39.1835	0.045	78367	keystroke_=	=	n/a
39.9935	0.06	79987	keystroke_Key.backspace	Key.backspace	n/a
40.1585	0.075	80317	keystroke_Key.backspace	Key.backspace	n/a
40.3235	0.09	80647	keystroke_Key.backspace	Key.backspace	n/a
40.5035	0.09	81007	keystroke_Key.backspace	Key.backspace	n/a
40.6835	0.09	81367	keystroke_Key.backspace	Key.backspace	n/a
40.8635	0.075	81727	keystroke_Key.backspace	Key.backspace	n/a
41.0285	0.09	82057	keystroke_Key.backspace	Key.backspace	n/a
41.2085	0.075	82417	keystroke_Key.backspace	Key.backspace	n/a
41.3885	0.09	82777	keystroke_Key.backspace	Key.backspace	n/a
41.5685	0.09	83137	keystroke_Key.backspace	Key.backspace	n/a
41.7635	0.09	83527	keystroke_Key.backspace	Key.backspace	n/a
41.9285	0.09	83857	keystroke_Key.backspace	Key.backspace	n/a
42.0785	0.105	84157	keystroke_Key.backspace	Key.backspace	n/a
43.1435	0.075	86287	keystroke_t	t	n/a
43.2485	0.075	86497	keystroke_h	h	n/a
43.2935	0.105	86587	keystroke_e	e	n/a
43.4885	0.12	86977	keystroke_Key.space	Key.space	n/a
43.8935	0.06	87787	keystroke_q	q	n/a
44.0285	0.105	88057	keystroke_u	u	n/a
44.2085	0.09	88417	keystroke_i	i	n/a
44.373	0.09	88746	keystroke_c	c	n/a
44.508	0.075	89016	keystroke_k	k	n/a
44.703	0.105	89406	keystroke_Key.space	Key.space	n/a
45.048	0.06	90096	keystroke_b	b	n/a
45.153	0.09	90306	keystroke_r	r	n/a
45.289	0.074	90578	keystroke_o	o	n/a
45.408	0.075	90816	keystroke_w	w	n/a
45.529	0.105	91058	keystroke_n	n	n/a
45.678	0.12	91356	keystroke_Key.space	Key.space	n/a
46.129	0.075	92258	keystroke_f	f	n/a
46.339	0.075	92678	keystroke_o	o	n/a
46.399	0.075	92798	keystroke_x	x	n/a
46.548	0.135	93096	keystroke_Key.space	Key.space	n/a
46.939	0.015	93878	keystroke_j	j	n/a
47.134	0.014	94268	keystroke_u	u	n/a
47.359	0.12	94718	keystroke_m	m	n/a
47.614	0.104	95228	keystroke_p	p	n/a
47.823	0.075	95646	keystroke_s	s	n/a
47.988	0.105	95976	keystroke_Key.space	Key.space	n/a
48.198	0.075	96396	keystroke_o	o	n/a
48.259	0.089	96518	keystroke_v	v	n/a
48.423	0.12	96846	keystroke_e	e	n/a
48.529	0.09	97058	keystroke_r	r	n/a
48.633	0.105	97266	keystroke_Key.space	Key.space	n/a
48.859	0.119	97718	keystroke_a	a	n/a
48.993	0.12	97986	keystroke_Key.space	Key.space	n/a
49.249	0.089	98498	keystroke_l	l	n/a
49.578	0.091	99156	keystroke_a	a	n/a
49.789	0.089	99578	keystroke_z	z	n/a
49.953	0.076	99906	keystroke_y	y	n/a
50.133	0.12	100266	keystroke_Key.space	Key.space	n/a
50.343	0.091	100686	keystroke_d	d	n/a
50.464	0.074	100928	keystroke_o	o	n/a
50.584	0.089	101168	keystroke_g	g	n/a
51.303	0.09	102606	keystroke_Key.enter	Key.enter	n/a
51.418	8.318	102836	prompt	n/a	trace trans noon join\n
53.946	0.001	107892	keystroke_t	t	n/a
54.064	0.089	108128	keystroke_r	r	n/a
54.289	0.134	108578	keystroke_a	a	n/a
54.513	0.076	109026	keystroke_c	c	n/a
54.664	0.089	109328	keystroke_e	e	n/a
55.098	0.075	110196	keystroke_Key.space	Key.space	n/a
55.669	0.075	111338	keystroke_t	t	n/a
55.864	0.09	111728	keystroke_r	r	n/a
56.059	0.105	112118	keystroke_a	a	n/a
56.209	0.075	112418	keystroke_n	n	n/a
56.344	0.09	112688	keystroke_s	s	n/a
56.539	0.12	113078	keystroke_Key.space	Key.space	n/a
56.868	0.075	113736	keystroke_n	n	n/a
57.079	0.075	114158	keystroke_o	o	n/a
57.3935	0.075	114787	keystroke_o	o	n/a
57.6185	0.075	115237	keystroke_n	n	n/a
57.9335	0.12	115867	keystroke_Key.space	Key.space	n/a
58.4735	0.06	116947	keystroke_j	j	n/a
58.6535	0.075	117307	keystroke_o	o	n/a
58.8035	0.105	117607	keystroke_i	i	n/a
58.9235	0.09	117847	keystroke_n	n	n/a
59.643	0.09	119286	keystroke_Key.enter	Key.enter	n/a
59.742	9.3685	119484	prompt	n/a	clan sustainable deaths decrease\n
60.4535	0.09	120907	keystroke_c	c	n/a
60.7085	0.075	121417	keystroke_l	l	n/a
60.8285	0.105	121657	keystroke_a	a	n/a
60.9485	0.075	121897	keystroke_n	n	n/a
61.1885	0.09	122377	keystroke_Key.space	Key.space	n/a
61.6085	0.105	123217	keystroke_s	s	n/a
61.8635	0.015	123727	keystroke_u	u	n/a
61.9085	0.09	123817	keystroke_s	s	n/a
62.1635	0.06	124327	keystroke_t	t	n/a
62.3435	0.12	124687	keystroke_a	a	n/a
62.5085	0.105	125017	keystroke_i	i	n/a
63.9185	0.075	127837	keystroke_n	n	n/a
64.1285	0.105	128257	keystroke_a	a	n/a
64.3085	0.06	128617	keystroke_b	b	n/a
64.5185	0.06	129037	keystroke_l	l	n/a
64.5635	0.09	129127	keystroke_e	e	n/a
64.8185	0.105	129637	keystroke_Key.space	Key.space	n/a
65.0135	0.075	130027	keystroke_d	d	n/a
65.2235	0.09	130447	keystroke_e	e	n/a
65.4035	0.18	130807	keystroke_a	a	n/a
65.5985	0.075	131197	keystroke_t	t	n/a
65.8235	0.06	131647	keystroke_h	h	n/a
65.9885	0.06	131977	keystroke_s	s	n/a
66.1685	0.09	132337	keystroke_Key.space	Key.space	n/a
66.3335	0.075	132667	keystroke_d	d	n/a
66.5285	0.075	133057	keystroke_e	e	n/a
66.8135	0.075	133627	keystroke_c	c	n/a
67.0835	0.03	134167	keystroke_r	r	n/a
67.2335	0.12	134467	keystroke_e	e	n/a
68.0135	0.165	136027	keystroke_a	a	n/a
68.1335	0.12	136267	keystroke_s	s	n/a
68.2085	0.12	136417	keystroke_e	e	n/a
69.0185	0.09	138037	keystroke_Key.enter	Key.enter	n/a
69.1145	6.671	138229	prompt	n/a	holy agents retention reforms\n
69.7985	0.09	139597	keystroke_h	h	n/a
69.9485	0.075	139897	keystroke_o	o	n/a
70.1735	0.12	140347	keystroke_l	l	n/a
70.3685	0.105	140737	keystroke_y	y	n/a
70.5785	0.12	141157	keystroke_Key.space	Key.space	n/a
70.9685	0.18	141937	keystroke_a	a	n/a
71.1635	0.09	142327	keystroke_g	g	n/a
71.3885	0.105	142777	keystroke_e	e	n/a
71.5535	0.075	143107	keystroke_n	n	n/a
71.6735	0.075	143347	keystroke_t	t	n/a
71.8685	0.105	143737	keystroke_s	s	n/a
72.0485	0.135	144097	keystroke_Key.space	Key.space	n/a
72.3485	0.135	144697	keystroke_r	r	n/a
72.4685	0.09	144937	keystroke_e	e	n/a
72.6635	0.075	145327	keystroke_t	t	n/a
72.8285	0.105	145657	keystroke_e	e	n/a
72.9485	0.075	145897	keystroke_n	n	n/a
73.0685	0.075	146137	keystroke_t	t	n/a
73.1735	0.12	146347	keystroke_i	i	n/a
73.3235	0.075	146647	keystroke_o	o	n/a
73.3685	0.135	146737	keystroke_n	n	n/a
73.6835	0.105	147367	keystroke_Key.space	Key.space	n/a
73.9835	0.135	147967	keystroke_r	r	n/a
74.0885	0.105	148177	keystroke_e	e	n/a
74.2985	0.09	148597	keystroke_f	f	n/a
74.4485	0.09	148897	keystroke_o	o	n/a
74.5835	0.075	149167	keystroke_r	r	n/a
74.7185	0.09	149437	keystroke_m	m	n/a
74.8535	0.09	149707	keystroke_s	s	n/a
75.679	0.104	151358	keystroke_Key.enter	Key.enter	n/a
75.791	7.974	151582	prompt	n/a	course aerospace closes proc\n
76.518	0.091	153036	keystroke_c	c	n/a
76.714	0.09	153428	keystroke_o	o	n/a
76.849	0.09	153698	keystroke_u	u	n/a
76.909	0.09	153818	keystroke_r	r	n/a
77.148	0.121	154296	keystroke_s	s	n/a
77.238	0.106	154476	keystroke_e	e	n/a
77.493	0.135	154986	keystroke_Key.space	Key.space	n/a
78.364	0.09	156728	keystroke_a	a	n/a
78.574	0.09	157148	keystroke_e	e	n/a
78.769	0.09	157538	keystroke_r	r	n/a
78.934	0.075	157868	keystroke_o	o	n/a
79.354	0.09	158708	keystroke_s	s	n/a
79.488	0.091	158976	keystroke_p	p	n/a
79.609	0.15	159218	keystroke_a	a	n/a
79.714	0.15	159428	keystroke_c	c	n/a
79.834	0.12	159668	keystroke_e	e	n/a
80.254	0.135	160508	keystroke_Key.space	Key.space	n/a
80.644	0.089	161288	keystroke_c	c	n/a
80.748	0.09	161496	keystroke_l	l	n/a
80.973	0.061	161946	keystroke_o	o	n/a
81.079	0.105	162158	keystroke_s	s	n/a
81.154	0.105	162308	keystroke_e	e	n/a
81.679	0.075	163358	keystroke_s	s	n/a
82.0985	0.119	164197	keystroke_Key.space	Key.space	n/a
82.5485	0.1045	165097	keystroke_p	p	n/a
82.669	0.075	165338	keystroke_r	r	n/a
82.788	0.076	165576	keystroke_o	o	n/a
82.894	0.105	165788	keystroke_c	c	n/a
83.6585	0.105	167317	keystroke_Key.enter	Key.enter	n/a
83.769	57.007	167538	prompt	n/a	ringtone stroke updating publishers\n
84.3935	0.09	168787	keystroke_r	r	n/a
84.5285	0.075	169057	keystroke_i	i	n/a
84.7085	0.06	169417	keystroke_g	g	n/a
84.8285	0.06	169657	keystroke_h	h	n/a
85.159	0.089	170318	keystroke_t	t	n/a
85.324	0.059	170648	keystroke_o	o	n/a
85.548	0.075	171096	keystroke_n	n	n/a
85.893	0.076	171786	keystroke_e	e	n/a
87.693	0.015	175386	keystroke_Key.backspace	Key.backspace	n/a
87.873	0.09	175746	keystroke_Key.backspace	Key.backspace	n/a
88.053	0.09	176106	keystroke_Key.backspace	Key.backspace	n/a
88.248	0.075	176496	keystroke_Key.backspace	Key.backspace	n/a
88.413	0.09	176826	keystroke_Key.backspace	Key.backspace	n/a
95.8365	0.115	191673	keystroke_Key.up	Key.up	n/a
96.292	0.115	192584	keystroke_Key.up	Key.up	n/a
101.3015	0.0115	202603	keystroke_Key.right	Key.right	n/a
103.023	0.075	206046	keystroke_Key.backspace	Key.backspace	n/a
104.328	0.075	208656	keystroke_Key.backspace	Key.backspace	n/a
105.963	0.105	211926	keystroke_r	r	n/a
107.898	0.09	215796	keystroke_i	i	n/a
108.153	0.075	216306	keystroke_n	n	n/a
108.303	0.105	216606	keystroke_g	g	n/a
109.5635	0.1045	219127	keystroke_Key.space	Key.space	n/a
111.951	0.042	223902	keystroke_t	t	n/a
112.053	0.09	224106	keystroke_o	o	n/a
112.278	0.045	224556	keystroke_n	n	n/a
112.324	0.089	224648	keystroke_e	e	n/a
113.253	0.15	226506	keystroke_Key.space	Key.space	n/a
115.2035	0.075	230407	keystroke_Key.backspace	Key.backspace	n/a
115.3985	0.09	230797	keystroke_Key.backspace	Key.backspace	n/a
115.5935	0.075	231187	keystroke_Key.backspace	Key.backspace	n/a
115.7885	0.045	231577	keystroke_Key.backspace	Key.backspace	n/a
115.9685	0.06	231937	keystroke_Key.backspace	Key.backspace	n/a
116.1485	0.075	232297	keystroke_Key.backspace	Key.backspace	n/a
116.3285	0.075	232657	keystroke_Key.backspace	Key.backspace	n/a
121.042	0.026	242084	keystroke_Key.backspace	Key.backspace	n/a
121.248	0.075	242496	keystroke_Key.backspace	Key.backspace	n/a
125.931	0.087	251862	keystroke_Key.space	Key.space	n/a
127.608	0.105	255216	keystroke_Key.backspace	Key.backspace	n/a
130.161	0.012	260322	keystroke_i	i	n/a
130.323	0.075	260646	keystroke_n	n	n/a
130.608	0.075	261216	keystroke_g	g	n/a
132.453	0.076	264906	keystroke_t	t	n/a
132.753	0.09	265506	keystroke_o	o	n/a
132.888	0.09	265776	keystroke_n	n	n/a
132.963	0.075	265926	keystroke_e	e	n/a
133.113	0.135	266226	keystroke_Key.space	Key.space	n/a
133.443	0.105	266886	keystroke_s	s	n/a
133.773	0.09	267546	keystroke_t	t	n/a
133.983	0.075	267966	keystroke_r	r	n/a
134.118	0.09	268236	keystroke_o	o	n/a
134.313	0.0745	268626	keystroke_k	k	n/a
134.418	0.075	268836	keystroke_e	e	n/a
134.5825	0.135	269165	keystroke_Key.space	Key.space	n/a
135.6635	0.104	271327	keystroke_u	u	n/a
135.8575	0.106	271715	keystroke_p	p	n/a
136.1585	0.194	272317	keystroke_d	d	n/a
136.3375	0.24	272675	keystroke_a	a	n/a
136.5185	0.089	273037	keystroke_t	t	n/a
136.6375	0.09	273275	keystroke_i	i	n/a
136.7725	0.076	273545	keystroke_n	n	n/a
136.8335	0.059	273667	keystroke_g	g	n/a
136.9975	0.105	273995	keystroke_Key.space	Key.space	n/a
137.3875	0.18	274775	keystroke_p	p	n/a
137.5985	0.06	275197	keystroke_u	u	n/a
137.8835	0.059	275767	keystroke_b	b	n/a
138.1225	0.09	276245	keystroke_l	l	n/a
138.3625	0.075	276725	keystroke_i	i	n/a
138.4985	0.119	276997	keystroke_s	s	n/a
138.6635	0.06	277327	keystroke_h	h	n/a
138.8885	0.179	277777	keystroke_e	e	n/a
139.0535	0.104	278107	keystroke_r	r	n/a
139.593	0.09	279186	keystroke_s	s	n/a
140.673	0.09	281346	keystroke_Key.enter	Key.enter	n/a
140.7865	9.189	281573	prompt	n/a	adapter counts tales expected\n
141.6335	0.045	283267	keystroke_s	s	n/a
142.5475	0.105	285095	keystroke_Key.backspace	Key.backspace	n/a
142.9535	0.15	285907	keystroke_a	a	n/a
143.1185	0.15	286237	keystroke_d	d	n/a
143.2535	0.135	286507	keystroke_a	a	n/a
143.5085	0.12	287017	keystroke_p	p	n/a
143.7035	0.09	287407	keystroke_t	t	n/a
143.8685	0.135	287737	keystroke_e	e	n/a
143.9735	0.09	287947	keystroke_r	r	n/a
144.6035	0.105	289207	keystroke_Key.space	Key.space	n/a
145.0385	0.09	290077	keystroke_c	c	n/a
145.1435	0.135	290287	keystroke_o	o	n/a
145.2785	0.075	290557	keystroke_u	u	n/a
145.5185	0.045	291037	keystroke_n	n	n/a
145.5935	0.09	291187	keystroke_t	t	n/a
145.8335	0.09	291667	keystroke_s	s	n/a
146.1625	0.135	292325	keystroke_Key.space	Key.space	n/a
146.5085	0.075	293017	keystroke_t	t	n/a
146.6735	0.105	293347	keystroke_a	a	n/a
146.8535	0.075	293707	keystroke_l	l	n/a
146.9435	0.075	293887	keystroke_e	e	n/a
147.1385	0.09	294277	keystroke_s	s	n/a
147.4835	0.105	294967	keystroke_Key.space	Key.space	n/a
147.7235	0.09	295447	keystroke_e	e	n/a
147.9485	0.06	295897	keystroke_x	x	n/a
148.1435	0.105	296287	keystroke_p	p	n/a
148.2335	0.075	296467	keystroke_e	e	n/a
148.4435	0.09	296887	keystroke_c	c	n/a
148.6835	0.075	297367	keystroke_t	t	n/a
148.8335	0.09	297667	keystroke_e	e	n/a
149.0285	0.12	298057	keystroke_d	d	n/a
149.8825	0.09	299765	keystroke_Key.enter	Key.enter	n/a
149.984	7.6415	299968	prompt	n/a	glad longest uncle this\n
150.6935	0.06	301387	keystroke_g	g	n/a
151.1135	0.074	302227	keystroke_l	l	n/a
151.2635	0.134	302527	keystroke_a	a	n/a
151.4435	0.044	302887	keystroke_d	d	n/a
151.5475	0.105	303095	keystroke_Key.space	Key.space	n/a
152.0575	0.075	304115	keystroke_o	o	n/a
153.1075	0.09	306215	keystroke_Key.backspace	Key.backspace	n/a
153.4375	0.076	306875	keystroke_l	l	n/a
153.6625	0.075	307325	keystroke_o	o	n/a
153.8135	0.075	307627	keystroke_n	n	n/a
153.9335	0.105	307867	keystroke_g	g	n/a
154.1585	0.09	308317	keystroke_e	e	n/a
154.3685	0.15	308737	keystroke_s	s	n/a
154.4885	0.074	308977	keystroke_t	t	n/a
155.028	0.12	310056	keystroke_Key.space	Key.space	n/a
155.313	0.075	310626	keystroke_u	u	n/a
155.553	0.075	311106	keystroke_n	n	n/a
155.748	0.075	311496	keystroke_c	c	n/a
155.973	0.09	311946	keystroke_l	l	n/a
156.048	0.0895	312096	keystroke_e	e	n/a
156.3185	0.089	312637	keystroke_Key.space	Key.space	n/a
156.5285	0.075	313057	keystroke_t	t	n/a
156.6175	0.091	313235	keystroke_h	h	n/a
156.8285	0.06	313657	keystroke_i	i	n/a
156.9325	0.091	313865	keystroke_s	s	n/a
157.5175	0.105	315035	keystroke_Key.enter	Key.enter	n/a
157.632	5.919	315264	prompt	n/a	briefing sound slim idle\n
158.4025	0.045	316805	keystroke_b	b	n/a
158.5375	0.075	317075	keystroke_r	r	n/a
158.7325	0.075	317465	keystroke_i	i	n/a
158.7925	0.075	317585	keystroke_e	e	n/a
159.0035	0.089	318007	keystroke_f	f	n/a
159.1385	0.074	318277	keystroke_i	i	n/a
159.2575	0.076	318515	keystroke_n	n	n/a
159.3475	0.06	318695	keystroke_g	g	n/a
159.6475	0.075	319295	keystroke_Key.space	Key.space	n/a
160.1575	0.105	320315	keystroke_s	s	n/a
160.3075	0.105	320615	keystroke_o	o	n/a
160.4425	0.09	320885	keystroke_u	u	n/a
160.6825	0.045	321365	keystroke_n	n	n/a
160.7585	0.089	321517	keystroke_d	d	n/a
160.9675	0.12	321935	keystroke_Key.space	Key.space	n/a
161.3125	0.105	322625	keystroke_s	s	n/a
161.4325	0.045	322865	keystroke_l	l	n/a
161.5825	0.075	323165	keystroke_i	i	n/a
161.8225	0.075	323645	keystroke_m	m	n/a
162.1075	0.105	324215	keystroke_Key.space	Key.space	n/a
162.4075	0.06	324815	keystroke_i	i	n/a
162.5125	0.09	325025	keystroke_d	d	n/a
162.7525	0.045	325505	keystroke_l	l	n/a
162.8425	0.06	325685	keystroke_e	e	n/a
163.4725	0.075	326945	keystroke_Key.enter	Key.enter	n/a
163.557	6.8935	327114	prompt	n/a	note anne phentermine values\n
164.268	0.09	328536	keystroke_n	n	n/a
164.373	0.09	328746	keystroke_o	o	n/a
164.508	0.105	329016	keystroke_t	t	n/a
164.643	0.105	329286	keystroke_e	e	n/a
164.868	0.075	329736	keystroke_Key.space	Key.space	n/a
165.108	0.09	330216	keystroke_a	a	n/a
165.258	0.075	330516	keystroke_n	n	n/a
165.4225	0.09	330845	keystroke_n	n	n/a
165.6025	0.09	331205	keystroke_e	e	n/a
165.993	0.1195	331986	keystroke_Key.space	Key.space	n/a
166.803	0.135	333606	keystroke_p	p	n/a
166.998	0.075	333996	keystroke_h	h	n/a
167.373	0.09	334746	keystroke_e	e	n/a
167.508	0.075	335016	keystroke_n	n	n/a
167.793	0.075	335586	keystroke_t	t	n/a
168.033	0.12	336066	keystroke_e	e	n/a
168.108	0.1055	336216	keystroke_r	r	n/a
168.3035	0.075	336607	keystroke_m	m	n/a
168.4835	0.075	336967	keystroke_i	i	n/a
168.618	0.0755	337236	keystroke_n	n	n/a
168.6935	0.075	337387	keystroke_e	e	n/a
168.8285	0.105	337657	keystroke_Key.space	Key.space	n/a
168.9485	0.09	337897	keystroke_v	v	n/a
169.0985	0.105	338197	keystroke_a	a	n/a
169.2635	0.135	338527	keystroke_l	l	n/a
169.4585	0.075	338917	keystroke_u	u	n/a
169.6985	0.015	339397	keystroke_e	e	n/a
169.8185	0.09	339637	keystroke_s	s	n/a
170.3585	0.09	340717	keystroke_Key.enter	Key.enter	n/a
170.4575	8.8145	340915	prompt	n/a	estates press reno shakespeare\n
171.1085	0.075	342217	keystroke_e	e	n/a
171.393	0.0905	342786	keystroke_s	s	n/a
171.6035	0.0595	343207	keystroke_t	t	n/a
171.753	0.12	343506	keystroke_a	a	n/a
172.203	0.09	344406	keystroke_t	t	n/a
172.428	0.06	344856	keystroke_e	e	n/a
172.6085	0.0895	345217	keystroke_s	s	n/a
172.998	0.12	345996	keystroke_Key.space	Key.space	n/a
173.5835	0.09	347167	keystroke_p	p	n/a
173.7935	0.105	347587	keystroke_r	r	n/a
174.3185	0.0595	348637	keystroke_e	e	n/a
174.528	0.075	349056	keystroke_s	s	n/a
174.708	0.1055	349416	keystroke_s	s	n/a
174.933	0.105	349866	keystroke_Key.space	Key.space	n/a
175.203	0.12	350406	keystroke_r	r	n/a
175.293	0.09	350586	keystroke_e	e	n/a
175.713	0.075	351426	keystroke_n	n	n/a
175.848	0.075	351696	keystroke_o	o	n/a
176.118	0.12	352236	keystroke_Key.space	Key.space	n/a
176.538	0.09	353076	keystroke_s	s	n/a
176.703	0.06	353406	keystroke_h	h	n/a
176.823	0.105	353646	keystroke_a	a	n/a
176.958	0.06	353916	keystroke_k	k	n/a
177.228	0.09	354456	keystroke_e	e	n/a
177.558	0.09	355116	keystroke_s	s	n/a
177.888	0.09	355776	keystroke_p	p	n/a
178.038	0.075	356076	keystroke_e	e	n/a
178.143	0.15	356286	keystroke_a	a	n/a
178.263	0.075	356526	keystroke_r	r	n/a
178.413	0.075	356826	keystroke_e	e	n/a
179.193	0.075	358386	keystroke_Key.enter	Key.enter	n/a
179.2785	8.468	358557	prompt	n/a	televisions receive nothing transmitted\n
180.0185	0.0745	360037	keystroke_t	t	n/a
180.138	0.075	360276	keystroke_e	e	n/a
180.423	0.06	360846	keystroke_l	l	n/a
180.498	0.105	360996	keystroke_e	e	n/a
180.738	0.09	361476	keystroke_v	v	n/a
180.948	0.06	361896	keystroke_i	i	n/a
181.098	0.09	362196	keystroke_s	s	n/a
181.173	0.09	362346	keystroke_i	i	n/a
181.278	0.12	362556	keystroke_o	o	n/a
181.368	0.09	362736	keystroke_n	n	n/a
181.443	0.075	362886	keystroke_s	s	n/a
181.593	0.12	363186	keystroke_Key.space	Key.space	n/a
181.893	0.105	363786	keystroke_r	r	n/a
181.983	0.12	363966	keystroke_e	e	n/a
182.373	0.15	364746	keystroke_c	c	n/a
182.508	0.135	365016	keystroke_e	e	n/a
182.718	0.09	365436	keystroke_i	i	n/a
182.823	0.12	365646	keystroke_v	v	n/a
182.928	0.12	365856	keystroke_e	e	n/a
183.393	0.12	366786	keystroke_Key.space	Key.space	n/a
183.798	0.06	367596	keystroke_n	n	n/a
183.903	0.105	367806	keystroke_o	o	n/a
184.068	0.06	368136	keystroke_t	t	n/a
184.143	0.09	368286	keystroke_h	h	n/a
184.338	0.06	368676	keystroke_i	i	n/a
184.413	0.0755	368826	keystroke_n	n	n/a
184.503	0.06	369006	keystroke_g	g	n/a
184.833	0.09	369666	keystroke_Key.space	Key.space	n/a
185.133	0.075	370266	keystroke_t	t	n/a
185.328	0.06	370656	keystroke_r	r	n/a
185.478	0.09	370956	keystroke_a	a	n/a
185.598	0.075	371196	keystroke_n	n	n/a
185.718	0.09	371436	keystroke_s	s	n/a
185.943	0.045	371886	keystroke_m	m	n/a
186.093	0.075	372186	keystroke_i	i	n/a
186.258	0.03	372516	keystroke_t	t	n/a
186.828	0.06	373656	keystroke_t	t	n/a
187.038	0.075	374076	keystroke_e	e	n/a
187.233	0.075	374466	keystroke_d	d	n/a
187.653	0.09	375306	keystroke_Key.enter	Key.enter	n/a
187.753	22.357	375506	prompt	n/a	atlas defence strong stories\n
188.328	0.12	376656	keystroke_a	a	n/a
188.508	0.075	377016	keystroke_l	l	n/a
188.718	0.06	377436	keystroke_t	t	n/a
188.928	0.165	377856	keystroke_a	a	n/a
189.078	0.09	378156	keystroke_s	s	n/a
189.678	0.09	379356	keystroke_Key.space	Key.space	n/a
190.368	0.075	380736	keystroke_d	d	n/a
190.533	0.09	381066	keystroke_e	e	n/a
190.744	0.089	381488	keystroke_f	f	n/a
190.938	0.09	381876	keystroke_e	e	n/a
191.073	0.076	382146	keystroke_n	n	n/a
191.163	0.136	382326	keystroke_c	c	n/a
191.283	0.09	382566	keystroke_e	e	n/a
192.438	0.12	384876	keystroke_Key.space	Key.space	n/a
192.739	0.089	385478	keystroke_s	s	n/a
198.7415	0.057	397483	keystroke_Key.backspace	Key.backspace	n/a
198.8885	0.105	397777	keystroke_Key.backspace	Key.backspace	n/a
199.0685	0.105	398137	keystroke_Key.backspace	Key.backspace	n/a
199.3535	0.015	398707	keystroke_Key.backspace	Key.backspace	n/a
199.4585	0.09	398917	keystroke_Key.backspace	Key.backspace	n/a
199.6385	0.105	399277	keystroke_Key.backspace	Key.backspace	n/a
199.8485	0.09	399697	keystroke_Key.backspace	Key.backspace	n/a
200.0435	0.09	400087	keystroke_Key.backspace	Key.backspace	n/a
200.2235	0.075	400447	keystroke_Key.backspace	Key.backspace	n/a
200.4335	0.045	400867	keystroke_Key.backspace	Key.backspace	n/a
200.6135	0.06	401227	keystroke_Key.backspace	Key.backspace	n/a
200.7935	0.06	401587	keystroke_Key.backspace	Key.backspace	n/a
200.9735	0.075	401947	keystroke_Key.backspace	Key.backspace	n/a
201.1535	0.075	402307	keystroke_Key.backspace	Key.backspace	n/a
202.2185	0.075	404437	keystroke_t	t	n/a
202.4435	0.105	404887	keystroke_l	l	n/a
202.5785	0.15	405157	keystroke_a	a	n/a
202.6835	0.12	405367	keystroke_s	s	n/a
202.9535	0.135	405907	keystroke_Key.space	Key.space	n/a
203.5535	0.075	407107	keystroke_d	d	n/a
203.7635	0.09	407527	keystroke_e	e	n/a
204.0035	0.075	408007	keystroke_f	f	n/a
204.1835	0.09	408367	keystroke_e	e	n/a
204.3485	0.075	408697	keystroke_n	n	n/a
204.4535	0.135	408907	keystroke_c	c	n/a
204.5585	0.12	409117	keystroke_e	e	n/a
204.8285	0.12	409657	keystroke_Key.space	Key.space	n/a
206.643	0.12	413286	keystroke_s	s	n/a
206.838	0.075	413676	keystroke_t	t	n/a
207.049	0.0745	414098	keystroke_r	r	n/a
207.2435	0.09	414487	keystroke_o	o	n/a
207.498	0.076	414996	keystroke_n	n	n/a
207.633	0.061	415266	keystroke_g	g	n/a
207.888	0.12	415776	keystroke_Key.space	Key.space	n/a
208.353	0.105	416706	keystroke_s	s	n/a
208.579	0.06	417158	keystroke_t	t	n/a
208.773	0.06	417546	keystroke_o	o	n/a
208.849	0.075	417698	keystroke_r	r	n/a
209.029	0.06	418058	keystroke_i	i	n/a
209.103	0.045	418206	keystroke_e	e	n/a
209.269	0.104	418538	keystroke_s	s	n/a
209.988	0.12	419976	keystroke_Key.enter	Key.enter	n/a
210.1145	7.886	420229	prompt	n/a	needed pointer graduates whether\n
210.814	0.06	421628	keystroke_n	n	n/a
210.934	0.09	421868	keystroke_e	e	n/a
211.129	0.074	422258	keystroke_e	e	n/a
211.324	0.075	422648	keystroke_d	d	n/a
211.518	0.061	423036	keystroke_e	e	n/a
211.683	0.09	423366	keystroke_d	d	n/a
211.938	0.12	423876	keystroke_Key.space	Key.space	n/a
212.253	0.091	424506	keystroke_p	p	n/a
212.479	0.075	424958	keystroke_o	o	n/a
212.644	0.06	425288	keystroke_i	i	n/a
212.734	0.074	425468	keystroke_n	n	n/a
212.913	0.061	425826	keystroke_t	t	n/a
213.033	0.105	426066	keystroke_e	e	n/a
213.2585	0.09	426517	keystroke_d	d	n/a
213.5735	0.12	427147	keystroke_Key.space	Key.space	n/a
213.9035	0.075	427807	keystroke_g	g	n/a
214.1285	0.06	428257	keystroke_r	r	n/a
214.2785	0.12	428557	keystroke_a	a	n/a
214.4285	0.09	428857	keystroke_d	d	n/a
214.6235	0.06	429247	keystroke_u	u	n/a
214.713	0.165	429426	keystroke_a	a	n/a
214.894	0.059	429788	keystroke_t	t	n/a
214.983	0.105	429966	keystroke_e	e	n/a
215.193	0.075	430386	keystroke_s	s	n/a
215.358	0.105	430716	keystroke_Key.space	Key.space	n/a
215.509	0.105	431018	keystroke_w	w	n/a
215.899	0.075	431798	keystroke_h	h	n/a
216.034	0.075	432068	keystroke_e	e	n/a
216.243	0.06	432486	keystroke_t	t	n/a
216.769	0.045	433538	keystroke_h	h	n/a
216.978	0.12	433956	keystroke_e	e	n/a
217.113	0.061	434226	keystroke_r	r	n/a
217.878	0.12	435756	keystroke_Key.enter	Key.enter	n/a
218.005	8.965	436010	prompt	n/a	surgeons skirt participated shoe\n
218.6435	0.09	437287	keystroke_s	s	n/a
218.8085	0.09	437617	keystroke_u	u	n/a
218.9435	0.06	437887	keystroke_r	r	n/a
219.3935	0.06	438787	keystroke_g	g	n/a
219.5885	0.09	439177	keystroke_e	e	n/a
220.3235	0.075	440647	keystroke_o	o	n/a
220.5035	0.06	441007	keystroke_n	n	n/a
220.6835	0.09	441367	keystroke_s	s	n/a
220.9085	0.12	441817	keystroke_Key.space	Key.space	n/a
221.1785	0.09	442357	keystroke_s	s	n/a
221.3735	0.09	442747	keystroke_k	k	n/a
221.7635	0.075	443527	keystroke_i	i	n/a
221.8835	0.06	443767	keystroke_r	r	n/a
222.0785	0.075	444157	keystroke_t	t	n/a
222.6035	0.135	445207	keystroke_Key.space	Key.space	n/a
223.5485	0.09	447097	keystroke_p	p	n/a
223.6685	0.165	447337	keystroke_a	a	n/a
223.8185	0.06	447637	keystroke_r	r	n/a
224.0135	0.075	448027	keystroke_t	t	n/a
224.1185	0.06	448237	keystroke_i	i	n/a
224.2835	0.09	448567	keystroke_c	c	n/a
224.4035	0.09	448807	keystroke_i	i	n/a
224.568	0.105	449136	keystroke_p	p	n/a
224.688	0.135	449376	keystroke_a	a	n/a
224.868	0.09	449736	keystroke_t	t	n/a
225.003	0.09	450006	keystroke_e	e	n/a
225.228	0.06	450456	keystroke_d	d	n/a
225.468	0.105	450936	keystroke_Key.space	Key.space	n/a
225.783	0.075	451566	keystroke_s	s	n/a
225.873	0.06	451746	keystroke_h	h	n/a
226.113	0.045	452226	keystroke_o	o	n/a
226.173	0.06	452346	keystroke_e	e	n/a
226.878	0.09	453756	keystroke_Key.enter	Key.enter	n/a
226.9755	11.7995	453951	prompt	n/a	elliott temperature blade samuel\n
227.778	0.09	455556	keystroke_e	e	n/a
228.408	0.075	456816	keystroke_l	l	n/a
228.588	0.075	457176	keystroke_l	l	n/a
229.053	0.06	458106	keystroke_i	i	n/a
229.383	0.06	458766	keystroke_o	o	n/a
229.503	0.075	459006	keystroke_t	t	n/a
229.683	0.09	459366	keystroke_t	t	n/a
230.058	0.135	460116	keystroke_Key.space	Key.space	n/a
230.748	0.045	461496	keystroke_e	e	n/a
231.903	0.105	463806	keystroke_Key.backspace	Key.backspace	n/a
232.233	0.09	464466	keystroke_t	t	n/a
232.398	0.105	464796	keystroke_e	e	n/a
232.668	0.09	465336	keystroke_m	m	n/a
233.283	0.075	466566	keystroke_p	p	n/a
233.494	0.149	466988	keystroke_e	e	n/a
233.628	0.09	467256	keystroke_r	r	n/a
233.853	0.12	467706	keystroke_a	a	n/a
234.048	0.045	468096	keystroke_t	t	n/a
234.153	0.075	468306	keystroke_u	u	n/a
234.243	0.105	468486	keystroke_r	r	n/a
234.318	0.105	468636	keystroke_e	e	n/a
234.768	0.135	469536	keystroke_Key.space	Key.space	n/a
235.278	0.075	470556	keystroke_b	b	n/a
235.593	0.075	471186	keystroke_l	l	n/a
235.773	0.135	471546	keystroke_a	a	n/a
235.923	0.075	471846	keystroke_d	d	n/a
236.163	0.06	472326	keystroke_e	e	n/a
236.583	0.105	473166	keystroke_Key.space	Key.space	n/a
236.958	0.075	473916	keystroke_s	s	n/a
237.138	0.1195	474276	keystroke_a	a	n/a
237.2725	0.105	474545	keystroke_m	m	n/a
237.513	0.075	475026	keystroke_u	u	n/a
237.768	0.0595	475536	keystroke_e	e	n/a
237.933	0.06	475866	keystroke_l	l	n/a
238.6525	0.12	477305	keystroke_Key.enter	Key.enter	n/a
238.78	12.6995	477560	prompt	n/a	arbitrary detect plaintiff revised\n
239.6275	0.121	479255	keystroke_a	a	n/a
239.8075	0.075	479615	keystroke_r	r	n/a
240.1675	0.06	480335	keystroke_b	b	n/a
240.3025	0.06	480605	keystroke_i	i	n/a
241.8775	0.06	483755	keystroke_t	t	n/a
242.0875	0.075	484175	keystroke_r	r	n/a
242.3575	0.15	484715	keystroke_a	a	n/a
242.4925	0.091	484985	keystroke_r	r	n/a
242.6725	0.075	485345	keystroke_y	y	n/a
243.2125	0.135	486425	keystroke_Key.space	Key.space	n/a
243.4675	0.06	486935	keystroke_d	d	n/a
243.6325	0.09	487265	keystroke_e	e	n/a
244.0525	0.105	488105	keystroke_e	e	n/a
245.5525	0.09	491105	keystroke_Key.backspace	Key.backspace	n/a
245.8075	0.12	491615	keystroke_t	t	n/a
245.9285	0.119	491857	keystroke_e	e	n/a
246.2125	0.09	492425	keystroke_c	c	n/a
246.4675	0.06	492935	keystroke_t	t	n/a
246.9775	0.09	493955	keystroke_Key.space	Key.space	n/a
247.3375	0.09	494675	keystroke_p	p	n/a
247.6675	0.06	495335	keystroke_l	l	n/a
247.7425	0.12	495485	keystroke_a	a	n/a
247.9075	0.075	495815	keystroke_i	i	n/a
248.0275	0.06	496055	keystroke_n	n	n/a
248.3425	0.075	496685	keystroke_t	t	n/a
248.6275	0.06	497255	keystroke_i	i	n/a
248.7775	0.0455	497555	keystroke_f	f	n/a
248.913	0.09	497826	keystroke_f	f	n/a
249.258	0.135	498516	keystroke_Key.space	Key.space	n/a
249.678	0.15	499356	keystroke_r	r	n/a
249.798	0.09	499596	keystroke_e	e	n/a
250.053	0.075	500106	keystroke_v	v	n/a
250.188	0.075	500376	keystroke_i	i	n/a
250.308	0.1195	500616	keystroke_s	s	n/a
250.4125	0.075	500825	keystroke_e	e	n/a
250.6075	0.09	501215	keystroke_d	d	n/a
251.373	0.105	502746	keystroke_Key.enter	Key.enter	n/a
251.484	9.9715	502968	prompt	n/a	alphabetical sales numeric prisoner\n
252.108	0.105	504216	keystroke_a	a	n/a
252.4985	0.104	504997	keystroke_l	l	n/a
252.888	0.03	505776	keystroke_p	p	n/a
253.038	0.075	506076	keystroke_h	h	n/a
253.143	0.09	506286	keystroke_a	a	n/a
254.493	0.06	508986	keystroke_b	b	n/a
254.583	0.105	509166	keystroke_e	e	n/a
254.808	0.09	509616	keystroke_t	t	n/a
254.928	0.075	509856	keystroke_i	i	n/a
255.138	0.09	510276	keystroke_c	c	n/a
255.243	0.105	510486	keystroke_a	a	n/a
255.468	0.075	510936	keystroke_l	l	n/a
255.783	0.1195	511566	keystroke_Key.space	Key.space	n/a
256.5625	0.075	513125	keystroke_s	s	n/a
256.7575	0.12	513515	keystroke_a	a	n/a
256.9075	0.06	513815	keystroke_l	l	n/a
256.9975	0.045	513995	keystroke_e	e	n/a
257.1175	0.12	514235	keystroke_s	s	n/a
257.3125	0.105	514625	keystroke_Key.space	Key.space	n/a
257.6875	0.03	515375	keystroke_n	n	n/a
257.8525	0.075	515705	keystroke_u	u	n/a
258.1225	0.075	516245	keystroke_m	m	n/a
258.2875	0.135	516575	keystroke_e	e	n/a
258.3925	0.09	516785	keystroke_r	r	n/a
258.5875	0.075	517175	keystroke_i	i	n/a
258.7975	0.075	517595	keystroke_c	c	n/a
259.1575	0.1205	518315	keystroke_Key.space	Key.space	n/a
259.713	0.09	519426	keystroke_p	p	n/a
259.818	0.09	519636	keystroke_r	r	n/a
259.998	0.06	519996	keystroke_i	i	n/a
260.118	0.09	520236	keystroke_s	s	n/a
260.343	0.06	520686	keystroke_o	o	n/a
260.523	0.075	521046	keystroke_n	n	n/a
260.613	0.09	521226	keystroke_e	e	n/a
260.718	0.06	521436	keystroke_r	r	n/a
261.348	0.105	522696	keystroke_Key.enter	Key.enter	n/a
261.4635	15.5315	522927	prompt	n/a	lens cloth finally hospitals\n
262.188	0.075	524376	keystroke_l	l	n/a
262.293	0.075	524586	keystroke_e	e	n/a
262.4275	0.075	524855	keystroke_n	n	n/a
262.5475	0.09	525095	keystroke_s	s	n/a
262.8175	0.12	525635	keystroke_Key.space	Key.space	n/a
263.1475	0.105	526295	keystroke_c	c	n/a
263.3575	0.045	526715	keystroke_l	l	n/a
263.5525	0.06	527105	keystroke_o	o	n/a
263.7325	0.06	527465	keystroke_t	t	n/a
263.8525	0.06	527705	keystroke_h	h	n/a
264.1525	0.105	528305	keystroke_Key.space	Key.space	n/a
264.3625	0.09	528725	keystroke_f	f	n/a
264.4675	0.075	528935	keystroke_i	i	n/a
264.6635	0.075	529327	keystroke_n	n	n/a
264.8425	0.12	529685	keystroke_a	a	n/a
265.0075	0.075	530015	keystroke_l	l	n/a
265.2025	0.105	530405	keystroke_l	l	n/a
265.3825	0.045	530765	keystroke_h	h	n/a
265.6075	0.105	531215	keystroke_Key.space	Key.space	n/a
268.3255	0	536651	keystroke_Key.backspace	Key.backspace	n/a
268.4575	0.045	536915	keystroke_Key.backspace	Key.backspace	n/a
268.6075	0.075	537215	keystroke_Key.backspace	Key.backspace	n/a
268.7575	0.105	537515	keystroke_Key.backspace	Key.backspace	n/a
268.9375	0.105	537875	keystroke_Key.backspace	Key.backspace	n/a
270.1975	0.12	540395	keystroke_a	a	n/a
270.4375	0.09	540875	keystroke_l	l	n/a
270.6325	0.09	541265	keystroke_l	l	n/a
270.8425	0.06	541685	keystroke_y	y	n/a
271.3975	0.12	542795	keystroke_Key.space	Key.space	n/a
271.7875	0.06	543575	keystroke_h	h	n/a
272.0425	0.075	544085	keystroke_o	o	n/a
272.1625	0.105	544325	keystroke_s	s	n/a
272.3575	0.091	544715	keystroke_p	p	n/a
272.6275	0.03	545255	keystroke_i	i	n/a
272.7775	0.06	545555	keystroke_t	t	n/a
272.9425	0.09	545885	keystroke_a	a	n/a
273.0925	0.075	546185	keystroke_l	l	n/a
273.2435	0.074	546487	keystroke_s	s	n/a
276.9365	0.056	553873	keystroke_Key.enter	Key.enter	n/a
277.001	9.5785	554002	prompt	n/a	deal actions woods enquiry\n
277.6385	0.075	555277	keystroke_d	d	n/a
277.9525	0.075	555905	keystroke_e	e	n/a
278.1635	0.12	556327	keystroke_a	a	n/a
278.2685	0.089	556537	keystroke_l	l	n/a
278.5525	0.105	557105	keystroke_Key.space	Key.space	n/a
278.8085	0.164	557617	keystroke_a	a	n/a
278.9585	0.09	557917	keystroke_c	c	n/a
279.2125	0.076	558425	keystroke_t	t	n/a
279.4385	0.104	558877	keystroke_i	i	n/a
279.5435	0.119	559087	keystroke_o	o	n/a
279.6925	0.09	559385	keystroke_n	n	n/a
279.8875	0.076	559775	keystroke_s	s	n/a
280.5625	0.135	561125	keystroke_Key.space	Key.space	n/a
280.7435	0.104	561487	keystroke_w	w	n/a
280.9225	0.06	561845	keystroke_o	o	n/a
281.0575	0.075	562115	keystroke_o	o	n/a
281.1785	0.074	562357	keystroke_d	d	n/a
281.3135	0.119	562627	keystroke_s	s	n/a
281.4925	0.105	562985	keystroke_Key.space	Key.space	n/a
282.0475	0.091	564095	keystroke_e	e	n/a
282.1675	0.075	564335	keystroke_n	n	n/a
282.3635	0.105	564727	keystroke_q	q	n/a
282.5125	0.061	565025	keystroke_u	u	n/a
282.7685	0.06	565537	keystroke_i	i	n/a
283.3535	0.075	566707	keystroke_r	r	n/a
283.5925	0.031	567185	keystroke_h	h	n/a
284.5975	0.06	569195	keystroke_Key.backspace	Key.backspace	n/a
285.0635	0.059	570127	keystroke_y	y	n/a
286.4725	0.105	572945	keystroke_Key.enter	Key.enter	n/a
286.5845	13.3455	573169	prompt	n/a	ignore essential employers virus\n
287.5235	0.059	575047	keystroke_i	i	n/a
287.6885	0.045	575377	keystroke_n	n	n/a
287.8825	0.061	575765	keystroke_g	g	n/a
288.138	0.09	576276	keystroke_o	o	n/a
288.2435	0.1045	576487	keystroke_r	r	n/a
288.333	0.074	576666	keystroke_e	e	n/a
288.633	0.1195	577266	keystroke_Key.space	Key.space	n/a
289.488	0.0895	578976	keystroke_Key.backspace	Key.backspace	n/a
289.682	0.075	579364	keystroke_Key.backspace	Key.backspace	n/a
289.862	0.076	579724	keystroke_Key.backspace	Key.backspace	n/a
290.0425	0.0745	580085	keystroke_Key.backspace	Key.backspace	n/a
290.223	0.0445	580446	keystroke_Key.backspace	Key.backspace	n/a
290.357	0.075	580714	keystroke_Key.backspace	Key.backspace	n/a
290.598	0.075	581196	keystroke_g	g	n/a
290.8685	0.045	581737	keystroke_n	n	n/a
291.0925	0.06	582185	keystroke_o	o	n/a
291.1985	0.135	582397	keystroke_r	r	n/a
291.3025	0.091	582605	keystroke_e	e	n/a
291.8875	0.12	583775	keystroke_Key.space	Key.space	n/a
292.1275	0.076	584255	keystroke_e	e	n/a
292.3685	0.059	584737	keystroke_s	s	n/a
292.5485	0.044	585097	keystroke_s	s	n/a
292.9985	0.074	585997	keystroke_e	e	n/a
293.1175	0.075	586235	keystroke_n	n	n/a
293.3435	0.059	586687	keystroke_t	t	n/a
293.4935	0.045	586987	keystroke_i	i	n/a
293.6275	0.121	587255	keystroke_a	a	n/a
293.7335	0.075	587467	keystroke_l	l	n/a
293.9875	0.12	587975	keystroke_Key.space	Key.space	n/a
294.1985	0.074	588397	keystroke_e	e	n/a
294.2875	0.105	588575	keystroke_m	m	n/a
294.4985	0.104	588997	keystroke_p	p	n/a
294.6775	0.091	589355	keystroke_l	l	n/a
294.8735	0.074	589747	keystroke_o	o	n/a
295.0225	0.076	590045	keystroke_y	y	n/a
295.1725	0.075	590345	keystroke_e	e	n/a
295.3525	0.09	590705	keystroke_s	s	n/a
295.6385	0.09	591277	keystroke_s	s	n/a
296.7475	0.075	593495	keystroke_Key.backspace	Key.backspace	n/a
296.9135	0.089	593827	keystroke_Key.backspace	Key.backspace	n/a
297.4085	0.06	594817	keystroke_r	r	n/a
297.5885	0.075	595177	keystroke_s	s	n/a
297.7975	0.121	595595	keystroke_Key.space	Key.space	n/a
298.4735	0.075	596947	keystroke_v	v	n/a
298.5935	0.06	597187	keystroke_i	i	n/a
298.7285	0.074	597457	keystroke_r	r	n/a
298.9535	0.045	597907	keystroke_u	u	n/a
299.0575	0.076	598115	keystroke_s	s	n/a
299.8385	0.089	599677	keystroke_Key.enter	Key.enter	n/a
299.935	7.6595	599870	prompt	n/a	condition strike estimates course\n
300.6325	0.091	601265	keystroke_c	c	n/a
300.7385	0.075	601477	keystroke_o	o	n/a
300.9185	0.075	601837	keystroke_n	n	n/a
301.0385	0.09	602077	keystroke_d	d	n/a
301.1735	0.06	602347	keystroke_i	i	n/a
301.3075	0.076	602615	keystroke_t	t	n/a
301.3685	0.075	602737	keystroke_i	i	n/a
301.4585	0.09	602917	keystroke_o	o	n/a
301.5185	0.104	603037	keystroke_n	n	n/a
302.0275	0.135	604055	keystroke_Key.space	Key.space	n/a
302.4935	0.089	604987	keystroke_s	s	n/a
302.6285	0.074	605257	keystroke_t	t	n/a
302.8075	0.091	605615	keystroke_r	r	n/a
302.9285	0.06	605857	keystroke_i	i	n/a
303.1675	0.06	606335	keystroke_k	k	n/a
303.2425	0.046	606485	keystroke_e	e	n/a
303.528	0.135	607056	keystroke_Key.space	Key.space	n/a
303.888	0.06	607776	keystroke_e	e	n/a
304.068	0.12	608136	keystroke_s	s	n/a
304.248	0.075	608496	keystroke_t	t	n/a
304.383	0.075	608766	keystroke_i	i	n/a
304.653	0.0595	609306	keystroke_m	m	n/a
304.7575	0.165	609515	keystroke_a	a	n/a
304.9075	0.105	609815	keystroke_t	t	n/a
304.9975	0.09	609995	keystroke_e	e	n/a
305.1925	0.09	610385	keystroke_s	s	n/a
305.5525	0.12	611105	keystroke_Key.space	Key.space	n/a
306.0925	0.075	612185	keystroke_c	c	n/a
306.2425	0.09	612485	keystroke_o	o	n/a
306.3925	0.075	612785	keystroke_u	u	n/a
306.4525	0.075	612905	keystroke_r	r	n/a
306.6775	0.105	613355	keystroke_s	s	n/a
306.7525	0.105	613505	keystroke_e	e	n/a
307.4875	0.105	614975	keystroke_Key.enter	Key.enter	n/a
307.5985	8.306	615197	prompt	n/a	perth reseller acre nitrogen\n
308.4625	0.09	616925	keystroke_p	p	n/a
308.5975	0.12	617195	keystroke_e	e	n/a
308.6725	0.105	617345	keystroke_r	r	n/a
308.9125	0.09	617825	keystroke_t	t	n/a
309.0175	0.06	618035	keystroke_h	h	n/a
309.2725	0.09	618545	keystroke_Key.space	Key.space	n/a
309.6775	0.15	619355	keystroke_r	r	n/a
309.7825	0.105	619565	keystroke_e	e	n/a
310.2475	0.091	620495	keystroke_s	s	n/a
310.5475	0.061	621095	keystroke_e	e	n/a
310.7735	0.045	621547	keystroke_l	l	n/a
310.9225	0.046	621845	keystroke_l	l	n/a
311.0275	0.105	622055	keystroke_e	e	n/a
311.1035	0.089	622207	keystroke_r	r	n/a
311.4475	0.075	622895	keystroke_Key.space	Key.space	n/a
312.2435	0.134	624487	keystroke_a	a	n/a
312.4975	0.09	624995	keystroke_c	c	n/a
312.9775	0.105	625955	keystroke_r	r	n/a
313.0535	0.104	626107	keystroke_e	e	n/a
313.4725	0.12	626945	keystroke_Key.space	Key.space	n/a
314.2225	0.076	628445	keystroke_n	n	n/a
314.3435	0.089	628687	keystroke_i	i	n/a
314.4635	0.044	628927	keystroke_t	t	n/a
314.6275	0.061	629255	keystroke_r	r	n/a
314.7635	0.06	629527	keystroke_o	o	n/a
314.9285	0.06	629857	keystroke_g	g	n/a
315.0625	0.091	630125	keystroke_e	e	n/a
315.1835	0.09	630367	keystroke_n	n	n/a
315.7975	0.105	631595	keystroke_Key.enter	Key.enter	n/a
315.9095	13.2555	631819	prompt	n/a	january taxation parental scales\n
316.6225	0.075	633245	keystroke_j	j	n/a
316.8325	0.09	633665	keystroke_a	a	n/a
316.938	0.06	633876	keystroke_n	n	n/a
317.148	0.045	634296	keystroke_u	u	n/a
317.283	0.12	634566	keystroke_a	a	n/a
317.373	0.075	634746	keystroke_r	r	n/a
317.463	0.075	634926	keystroke_y	y	n/a
318.033	0.09	636066	keystroke_Key.space	Key.space	n/a
318.603	0.075	637206	keystroke_l	l	n/a
319.548	0.09	639096	keystroke_Key.backspace	Key.backspace	n/a
319.818	0.075	639636	keystroke_t	t	n/a
319.968	0.105	639936	keystroke_a	a	n/a
320.433	0.06	640866	keystroke_x	x	n/a
320.928	0.09	641856	keystroke_a	a	n/a
321.3485	0.119	642697	keystroke_i	i	n/a
322.773	0.09	645546	keystroke_Key.backspace	Key.backspace	n/a
323.058	0.09	646116	keystroke_t	t	n/a
323.268	0.12	646536	keystroke_i	i	n/a
323.403	0.135	646806	keystroke_o	o	n/a
323.493	0.105	646986	keystroke_n	n	n/a
325.068	0.12	650136	keystroke_Key.space	Key.space	n/a
325.728	0.09	651456	keystroke_p	p	n/a
325.848	0.165	651696	keystroke_a	a	n/a
326.193	0.09	652386	keystroke_r	r	n/a
326.448	0.105	652896	keystroke_e	e	n/a
326.523	0.0755	653046	keystroke_n	n	n/a
326.6735	0.074	653347	keystroke_t	t	n/a
326.8235	0.09	653647	keystroke_a	a	n/a
326.9285	0.09	653857	keystroke_l	l	n/a
327.0475	0.105	654095	keystroke_Key.space	Key.space	n/a
327.6025	0.105	655205	keystroke_s	s	n/a
327.8125	0.106	655625	keystroke_c	c	n/a
327.9325	0.106	655865	keystroke_a	a	n/a
328.1275	0.09	656255	keystroke_l	l	n/a
328.2325	0.075	656465	keystroke_e	e	n/a
328.3835	0.105	656767	keystroke_s	s	n/a
329.0575	0.105	658115	keystroke_Key.enter	Key.enter	n/a
329.1705	11.456	658341	prompt	n/a	remark motor clone indicates\n
329.9435	0.104	659887	keystroke_r	r	n/a
330.0185	0.104	660037	keystroke_e	e	n/a
330.1835	0.059	660367	keystroke_m	m	n/a
330.3175	0.09	660635	keystroke_a	a	n/a
330.4225	0.046	660845	keystroke_k	k	n/a
331.4425	0.075	662885	keystroke_Key.backspace	Key.backspace	n/a
331.8025	0.075	663605	keystroke_r	r	n/a
331.9535	0.059	663907	keystroke_k	k	n/a
332.4925	0.12	664985	keystroke_Key.space	Key.space	n/a
333.0175	0.076	666035	keystroke_m	m	n/a
333.1525	0.061	666305	keystroke_o	o	n/a
333.2885	0.075	666577	keystroke_t	t	n/a
333.3935	0.075	666787	keystroke_o	o	n/a
333.6475	0.046	667295	keystroke_r	r	n/a
333.9925	0.135	667985	keystroke_Key.space	Key.space	n/a
334.5935	0.074	669187	keystroke_c	c	n/a
334.7435	0.09	669487	keystroke_l	l	n/a
334.9525	0.061	669905	keystroke_o	o	n/a
335.0585	0.075	670117	keystroke_n	n	n/a
335.1335	0.075	670267	keystroke_e	e	n/a
335.3575	0.135	670715	keystroke_Key.space	Key.space	n/a
335.9275	0.076	671855	keystroke_i	i	n/a
336.0475	0.061	672095	keystroke_n	n	n/a
336.6185	0.104	673237	keystroke_d	d	n/a
336.7385	0.06	673477	keystroke_i	i	n/a
337.2925	0.076	674585	keystroke_a	a	n/a
338.3275	0.075	676655	keystroke_Key.backspace	Key.backspace	n/a
338.4935	0.105	676987	keystroke_c	c	n/a
338.6285	0.195	677257	keystroke_a	a	n/a
338.8085	0.104	677617	keystroke_t	t	n/a
338.9435	0.09	677887	keystroke_e	e	n/a
339.1225	0.091	678245	keystroke_s	s	n/a
340.5335	0.089	681067	keystroke_Key.enter	Key.enter	n/a
340.632	17.078	681264	prompt	n/a	derek explicitly governor dubai\n
341.4335	0.06	682867	keystroke_d	d	n/a
341.6275	0.151	683255	keystroke_e	e	n/a
341.7635	0.089	683527	keystroke_r	r	n/a
342.0185	0.06	684037	keystroke_e	e	n/a
342.3635	0.06	684727	keystroke_k	k	n/a
342.7225	0.1205	685445	keystroke_Key.space	Key.space	n/a
343.308	0.075	686616	keystroke_e	e	n/a
343.503	0.06	687006	keystroke_x	x	n/a
343.698	0.075	687396	keystroke_p	p	n/a
343.908	0.075	687816	keystroke_l	l	n/a
344.043	0.075	688086	keystroke_i	i	n/a
344.253	0.075	688506	keystroke_c	c	n/a
344.329	0.074	688658	keystroke_i	i	n/a
344.508	0.06	689016	keystroke_t	t	n/a
344.658	0.09	689316	keystroke_l	l	n/a
344.808	0.075	689616	keystroke_y	y	n/a
345.228	0.075	690456	keystroke_Key.space	Key.space	n/a
346.1575	0.075	692315	keystroke_g	g	n/a
346.5325	0.06	693065	keystroke_o	o	n/a
346.6085	0.059	693217	keystroke_r	r	n/a
346.9085	0.089	693817	keystroke_v	v	n/a
347.1025	0.06	694205	keystroke_e	e	n/a
347.1475	0.09	694295	keystroke_r	r	n/a
347.4775	0.045	694955	keystroke_n	n	n/a
348.2575	0.075	696515	keystroke_o	o	n/a
348.3775	0.075	696755	keystroke_r	r	n/a
348.5875	0.105	697175	keystroke_Key.space	Key.space	n/a
350.6275	0.09	701255	keystroke_Key.backspace	Key.backspace	n/a
350.8225	0.075	701645	keystroke_Key.backspace	Key.backspace	n/a
350.9875	0.105	701975	keystroke_Key.backspace	Key.backspace	n/a
351.1835	0.089	702367	keystroke_Key.backspace	Key.backspace	n/a
351.6625	0.06	703325	keystroke_Key.backspace	Key.backspace	n/a
351.9325	0.0745	703865	keystroke_Key.backspace	Key.backspace	n/a
352.188	0.074	704376	keystroke_Key.backspace	Key.backspace	n/a
352.397	0.075	704794	keystroke_Key.backspace	Key.backspace	n/a
352.848	0.105	705696	keystroke_v	v	n/a
353.103	0.12	706206	keystroke_e	e	n/a
353.192	0.105	706384	keystroke_r	r	n/a
353.433	0.075	706866	keystroke_n	n	n/a
353.612	0.06	707224	keystroke_o	o	n/a
353.688	0.09	707376	keystroke_r	r	n/a
354.047	0.091	708094	keystroke_Key.space	Key.space	n/a
354.513	0.075	709026	keystroke_d	d	n/a
354.723	0.06	709446	keystroke_e	e	n/a
355.443	0.104	710886	keystroke_Key.backspace	Key.backspace	n/a
355.938	0.105	711876	keystroke_u	u	n/a
356.238	0.045	712476	keystroke_b	b	n/a
356.403	0.105	712806	keystroke_a	a	n/a
356.493	0.06	712986	keystroke_i	i	n/a
357.603	0.105	715206	keystroke_Key.enter	Key.enter	n/a
357.715	10.509	715430	prompt	n/a	rico coal benefits unauthorized\n
358.563	0.06	717126	keystroke_r	r	n/a
358.668	0.06	717336	keystroke_i	i	n/a
358.878	0.06	717756	keystroke_c	c	n/a
358.998	0.06	717996	keystroke_o	o	n/a
359.208	0.105	718416	keystroke_Key.space	Key.space	n/a
359.403	0.09	718806	keystroke_c	c	n/a
359.523	0.06	719046	keystroke_o	o	n/a
359.748	0.09	719496	keystroke_a	a	n/a
359.853	0.075	719706	keystroke_l	l	n/a
360.123	0.075	720246	keystroke_Key.space	Key.space	n/a
360.963	0.06	721926	keystroke_b	b	n/a
361.053	0.09	722106	keystroke_e	e	n/a
361.233	0.06	722466	keystroke_n	n	n/a
361.278	0.09	722556	keystroke_e	e	n/a
361.488	0.075	722976	keystroke_f	f	n/a
361.698	0.06	723396	keystroke_i	i	n/a
361.788	0.06	723576	keystroke_t	t	n/a
361.983	0.09	723966	keystroke_s	s	n/a
362.298	0.105	724596	keystroke_Key.space	Key.space	n/a
362.748	0.06	725496	keystroke_u	u	n/a
362.988	0.03	725976	keystroke_n	n	n/a
363.198	0.15	726396	keystroke_a	a	n/a
364.023	0.075	728046	keystroke_h	h	n/a
365.733	0.09	731466	keystroke_Key.backspace	Key.backspace	n/a
366.228	0.075	732456	keystroke_u	u	n/a
366.393	0.075	732786	keystroke_t	t	n/a
366.528	0.06	733056	keystroke_h	h	n/a
366.678	0.03	733356	keystroke_o	o	n/a
366.738	0.075	733476	keystroke_r	r	n/a
366.873	0.06	733746	keystroke_i	i	n/a
367.038	0.105	734076	keystroke_z	z	n/a
367.218	0.075	734436	keystroke_e	e	n/a
367.398	0.06	734796	keystroke_d	d	n/a
368.133	0.09	736266	keystroke_Key.enter	Key.enter	n/a
368.2285	7.9165	736457	prompt	n/a	understood director drawings duck\n
369.078	0.075	738156	keystroke_u	u	n/a
369.363	0.045	738726	keystroke_n	n	n/a
369.5285	0.0445	739057	keystroke_d	d	n/a
369.708	0.105	739416	keystroke_e	e	n/a
369.798	0.09	739596	keystroke_r	r	n/a
370.008	0.09	740016	keystroke_s	s	n/a
370.128	0.09	740256	keystroke_t	t	n/a
370.338	0.06	740676	keystroke_o	o	n/a
370.503	0.06	741006	keystroke_o	o	n/a
370.608	0.06	741216	keystroke_d	d	n/a
370.863	0.105	741726	keystroke_Key.space	Key.space	n/a
371.148	0.06	742296	keystroke_d	d	n/a
371.253	0.06	742506	keystroke_i	i	n/a
371.388	0.12	742776	keystroke_r	r	n/a
371.478	0.09	742956	keystroke_e	e	n/a
371.718	0.075	743436	keystroke_c	c	n/a
372.003	0.045	744006	keystroke_t	t	n/a
372.123	0.06	744246	keystroke_o	o	n/a
372.198	0.06	744396	keystroke_r	r	n/a
372.498	0.12	744996	keystroke_Key.space	Key.space	n/a
372.933	0.045	745866	keystroke_d	d	n/a
373.053	0.09	746106	keystroke_r	r	n/a
373.278	0.15	746556	keystroke_a	a	n/a
373.413	0.075	746826	keystroke_w	w	n/a
373.668	0.075	747336	keystroke_i	i	n/a
373.803	0.06	747606	keystroke_n	n	n/a
373.908	0.045	747816	keystroke_g	g	n/a
374.208	0.06	748416	keystroke_Key.space	Key.space	n/a
374.748	0.06	749496	keystroke_d	d	n/a
374.958	0.03	749916	keystroke_u	u	n/a
375.153	0.06	750306	keystroke_c	c	n/a
375.258	0.06	750516	keystroke_k	k	n/a
376.053	0.09	752106	keystroke_Key.enter	Key.enter	n/a
376.152	10.3425	752304	prompt	n/a	tions domestic sbjct designation\n
377.388	0.09	754776	keystroke_t	t	n/a
377.628	0.045	755256	keystroke_i	i	n/a
377.808	0.105	755616	keystroke_o	o	n/a
377.928	0.075	755856	keystroke_n	n	n/a
378.093	0.09	756186	keystroke_s	s	n/a
378.273	0.105	756546	keystroke_Key.space	Key.space	n/a
379.623	0.105	759246	keystroke_d	d	n/a
379.758	0.075	759516	keystroke_o	o	n/a
380.043	0.06	760086	keystroke_m	m	n/a
380.118	0.075	760236	keystroke_e	e	n/a
380.313	0.09	760626	keystroke_s	s	n/a
380.493	0.075	760986	keystroke_t	t	n/a
380.643	0.06	761286	keystroke_i	i	n/a
380.793	0.06	761586	keystroke_c	c	n/a
381.018	0.09	762036	keystroke_Key.space	Key.space	n/a
381.408	0.105	762816	keystroke_s	s	n/a
382.113	0.06	764226	keystroke_b	b	n/a
382.428	0.03	764856	keystroke_j	j	n/a
382.533	0.06	765066	keystroke_c	c	n/a
382.728	0.045	765456	keystroke_t	t	n/a
382.878	0.105	765756	keystroke_Key.space	Key.space	n/a
383.523	0.075	767046	keystroke_d	d	n/a
383.763	0.045	767526	keystroke_e	e	n/a
383.898	0.105	767796	keystroke_s	s	n/a
384.783	0.09	769566	keystroke_i	i	n/a
384.903	0.09	769806	keystroke_g	g	n/a
385.173	0.045	770346	keystroke_n	n	n/a
385.263	0.135	770526	keystroke_a	a	n/a
385.443	0.06	770886	keystroke_t	t	n/a
385.488	0.12	770976	keystroke_i	i	n/a
385.593	0.12	771186	keystroke_o	o	n/a
385.683	0.12	771366	keystroke_n	n	n/a
386.403	0.09	772806	keystroke_Key.enter	Key.enter	n/a
386.5025	10.9425	773005	prompt	n/a	wendy suppliers archived disagree\n
387.3175	0.091	774635	keystroke_w	w	n/a
387.6475	0.075	775295	keystroke_e	e	n/a
387.7675	0.06	775535	keystroke_n	n	n/a
387.8875	0.075	775775	keystroke_d	d	n/a
388.0385	0.074	776077	keystroke_y	y	n/a
388.2625	0.105	776525	keystroke_Key.space	Key.space	n/a
388.4435	0.089	776887	keystroke_s	s	n/a
388.5775	0.076	777155	keystroke_u	u	n/a
388.7735	0.105	777547	keystroke_p	p	n/a
388.9685	0.06	777937	keystroke_p	p	n/a
389.1175	0.106	778235	keystroke_l	l	n/a
389.2975	0.075	778595	keystroke_i	i	n/a
389.4625	0.135	778925	keystroke_e	e	n/a
389.5525	0.09	779105	keystroke_r	r	n/a
389.8085	0.089	779617	keystroke_s	s	n/a
390.0325	0.105	780065	keystroke_Key.space	Key.space	n/a
390.2425	0.105	780485	keystroke_a	a	n/a
390.5125	0.075	781025	keystroke_r	r	n/a
390.7835	0.06	781567	keystroke_c	c	n/a
390.8725	0.075	781745	keystroke_h	h	n/a
391.1875	0.06	782375	keystroke_i	i	n/a
391.3225	0.1055	782645	keystroke_v	v	n/a
391.472	0.1055	782944	keystroke_e	e	n/a
391.772	0.045	783544	keystroke_d	d	n/a
392.027	0.0905	784054	keystroke_Key.space	Key.space	n/a
392.1925	0.075	784385	keystroke_d	d	n/a
392.313	0.0605	784626	keystroke_i	i	n/a
392.5075	0.105	785015	keystroke_s	s	n/a
393.213	0.135	786426	keystroke_a	a	n/a
393.558	0.06	787116	keystroke_r	r	n/a
394.698	0.06	789396	keystroke_Key.backspace	Key.backspace	n/a
396.0035	0.074	792007	keystroke_g	g	n/a
396.1975	0.076	792395	keystroke_r	r	n/a
396.3785	0.059	792757	keystroke_e	e	n/a
396.5285	0.089	793057	keystroke_e	e	n/a
397.3375	0.105	794675	keystroke_Key.enter	Key.enter	n/a
397.45	16.7195	794900	prompt	n/a	charm lightweight collaboration solar\n
398.223	0.074	796446	keystroke_c	c	n/a
398.388	0.059	796776	keystroke_l	l	n/a
398.552	0.136	797104	keystroke_a	a	n/a
398.807	0.076	797614	keystroke_r	r	n/a
399.093	0.045	798186	keystroke_m	m	n/a
399.7075	0.105	799415	keystroke_Key.space	Key.space	n/a
400.1725	0.06	800345	keystroke_l	l	n/a
400.3525	0.061	800705	keystroke_i	i	n/a
400.4575	0.06	800915	keystroke_g	g	n/a
400.5635	0.0585	801127	keystroke_h	h	n/a
400.637	0.076	801274	keystroke_t	t	n/a
402.1975	0.09	804395	keystroke_Key.backspace	Key.backspace	n/a
402.423	0.09	804846	keystroke_Key.backspace	Key.backspace	n/a
402.603	0.09	805206	keystroke_Key.backspace	Key.backspace	n/a
402.888	0.015	805776	keystroke_Key.backspace	Key.backspace	n/a
403.008	0.06	806016	keystroke_Key.backspace	Key.backspace	n/a
403.188	0.075	806376	keystroke_Key.backspace	Key.backspace	n/a
403.383	0.06	806766	keystroke_Key.backspace	Key.backspace	n/a
403.548	0.075	807096	keystroke_Key.backspace	Key.backspace	n/a
403.713	0.06	807426	keystroke_Key.backspace	Key.backspace	n/a
403.848	0.09	807696	keystroke_Key.backspace	Key.backspace	n/a
404.598	0.075	809196	keystroke_h	h	n/a
404.763	0.15	809526	keystroke_a	a	n/a
404.868	0.09	809736	keystroke_r	r	n/a
405.078	0.06	810156	keystroke_m	m	n/a
405.423	0.105	810846	keystroke_Key.space	Key.space	n/a
405.963	0.06	811926	keystroke_l	l	n/a
406.128	0.06	812256	keystroke_i	i	n/a
406.263	0.09	812526	keystroke_g	g	n/a
406.368	0.06	812736	keystroke_h	h	n/a
406.473	0.09	812946	keystroke_t	t	n/a
406.638	0.09	813276	keystroke_Key.space	Key.space	n/a
406.908	0.105	813816	keystroke_w	w	n/a
407.703	0.0895	815406	keystroke_Key.backspace	Key.backspace	n/a
408.1075	0.06	816215	keystroke_Key.backspace	Key.backspace	n/a
408.5275	0.135	817055	keystroke_w	w	n/a
408.8125	0.09	817625	keystroke_e	e	n/a
408.9625	0.09	817925	keystroke_i	i	n/a
409.1725	0.075	818345	keystroke_g	g	n/a
409.4275	0.045	818855	keystroke_h	h	n/a
409.5025	0.075	819005	keystroke_t	t	n/a
409.8025	0.105	819605	keystroke_Key.space	Key.space	n/a
410.2375	0.075	820475	keystroke_c	c	n/a
410.5375	0.06	821075	keystroke_o	o	n/a
410.7475	0.075	821495	keystroke_l	l	n/a
410.9125	0.075	821825	keystroke_l	l	n/a
411.1525	0.135	822305	keystroke_a	a	n/a
411.2725	0.06	822545	keystroke_b	b	n/a
411.5125	0.06	823025	keystroke_o	o	n/a
411.6625	0.06	823325	keystroke_r	r	n/a
411.7975	0.12	823595	keystroke_a	a	n/a
412.0375	0.06	824075	keystroke_t	t	n/a
412.1875	0.12	824375	keystroke_i	i	n/a
412.3225	0.105	824645	keystroke_o	o	n/a
412.4125	0.105	824825	keystroke_n	n	n/a
412.6375	0.105	825275	keystroke_Key.space	Key.space	n/a
412.7875	0.135	825575	keystroke_s	s	n/a
412.9075	0.075	825815	keystroke_o	o	n/a
413.163	0.059	826326	keystroke_l	l	n/a
413.282	0.12	826564	keystroke_a	a	n/a
413.372	0.075	826744	keystroke_r	r	n/a
414.078	0.089	828156	keystroke_Key.enter	Key.enter	n/a
414.1745	11.995	828349	prompt	n/a	going chamber outdoor pharmaceutical\n
414.933	0.059	829866	keystroke_g	g	n/a
415.023	0.059	830046	keystroke_o	o	n/a
415.247	0.061	830494	keystroke_i	i	n/a
415.353	0.059	830706	keystroke_n	n	n/a
415.442	0.076	830884	keystroke_g	g	n/a
415.593	0.135	831186	keystroke_Key.space	Key.space	n/a
415.862	0.076	831724	keystroke_c	c	n/a
415.953	0.059	831906	keystroke_h	h	n/a
416.103	0.12	832206	keystroke_a	a	n/a
416.208	0.075	832416	keystroke_m	m	n/a
416.627	0.045	833254	keystroke_b	b	n/a
416.822	0.106	833644	keystroke_e	e	n/a
416.912	0.076	833824	keystroke_r	r	n/a
417.197	0.06	834394	keystroke_Key.space	Key.space	n/a
417.647	0.09	835294	keystroke_o	o	n/a
417.828	0.075	835656	keystroke_u	u	n/a
417.917	0.06	835834	keystroke_t	t	n/a
418.262	0.076	836524	keystroke_d	d	n/a
418.5325	0.045	837065	keystroke_o	o	n/a
418.6825	0.06	837365	keystroke_o	o	n/a
418.7725	0.075	837545	keystroke_r	r	n/a
418.9375	0.075	837875	keystroke_Key.space	Key.space	n/a
419.5675	0.09	839135	keystroke_p	p	n/a
419.7925	0.045	839585	keystroke_h	h	n/a
419.9275	0.135	839855	keystroke_a	a	n/a
420.0325	0.075	840065	keystroke_r	r	n/a
420.4225	0.075	840845	keystroke_m	m	n/a
420.6625	0.12	841325	keystroke_a	a	n/a
421.217	0.075	842434	keystroke_c	c	n/a
421.397	0.09	842794	keystroke_e	e	n/a
423.8905	0.001	847781	keystroke_u	u	n/a
424.0975	0.075	848195	keystroke_t	t	n/a
424.2025	0.06	848405	keystroke_i	i	n/a
424.3825	0.135	848765	keystroke_c	c	n/a
424.5325	0.105	849065	keystroke_a	a	n/a
424.6225	0.075	849245	keystroke_l	l	n/a
426.0925	0.075	852185	keystroke_Key.enter	Key.enter	n/a
426.1745	6.5495	852349	prompt	n/a	knit else icon temporary\n
426.9625	0.09	853925	keystroke_k	k	n/a
427.2175	0.06	854435	keystroke_n	n	n/a
427.3375	0.06	854675	keystroke_i	i	n/a
427.9675	0.045	855935	keystroke_t	t	n/a
428.3875	0.12	856775	keystroke_Key.space	Key.space	n/a
428.7325	0.075	857465	keystroke_e	e	n/a
428.8675	0.09	857735	keystroke_l	l	n/a
428.9725	0.12	857945	keystroke_s	s	n/a
429.0625	0.09	858125	keystroke_e	e	n/a
429.2275	0.105	858455	keystroke_Key.space	Key.space	n/a
429.7825	0.06	859565	keystroke_i	i	n/a
429.9475	0.075	859895	keystroke_c	c	n/a
430.0675	0.075	860135	keystroke_o	o	n/a
430.1875	0.045	860375	keystroke_n	n	n/a
430.3675	0.075	860735	keystroke_Key.space	Key.space	n/a
430.6525	0.075	861305	keystroke_t	t	n/a
430.9675	0.09	861935	keystroke_e	e	n/a
431.0725	0.09	862145	keystroke_m	m	n/a
431.2975	0.12	862595	keystroke_p	p	n/a
431.4775	0.075	862955	keystroke_o	o	n/a
431.643	0.075	863286	keystroke_r	r	n/a
431.793	0.135	863586	keystroke_a	a	n/a
431.898	0.09	863796	keystroke_r	r	n/a
432.018	0.075	864036	keystroke_y	y	n/a
432.618	0.104	865236	keystroke_Key.enter	Key.enter	n/a
432.7285	8.426	865457	prompt	n/a	farms especially disclaimer gone\n
433.473	0.09	866946	keystroke_f	f	n/a
433.728	0.18	867456	keystroke_a	a	n/a
433.863	0.075	867726	keystroke_r	r	n/a
434.073	0.075	868146	keystroke_m	m	n/a
434.193	0.075	868386	keystroke_s	s	n/a
434.388	0.06	868776	keystroke_Key.space	Key.space	n/a
434.718	0.075	869436	keystroke_e	e	n/a
434.958	0.075	869916	keystroke_s	s	n/a
435.108	0.105	870216	keystroke_p	p	n/a
435.228	0.06	870456	keystroke_e	e	n/a
435.423	0.075	870846	keystroke_c	c	n/a
435.603	0.045	871206	keystroke_i	i	n/a
435.693	0.09	871386	keystroke_a	a	n/a
435.828	0.045	871656	keystroke_l	l	n/a
435.963	0.105	871926	keystroke_l	l	n/a
436.113	0.075	872226	keystroke_y	y	n/a
436.3525	0.09	872705	keystroke_Key.space	Key.space	n/a
436.8625	0.075	873725	keystroke_d	d	n/a
436.9675	0.06	873935	keystroke_i	i	n/a
437.0725	0.105	874145	keystroke_s	s	n/a
437.2525	0.105	874505	keystroke_c	c	n/a
438.0325	0.03	876065	keystroke_l	l	n/a
438.1525	0.12	876305	keystroke_a	a	n/a
438.5125	0.06	877025	keystroke_i	i	n/a
438.7975	0.075	877595	keystroke_m	m	n/a
439.0675	0.105	878135	keystroke_e	e	n/a
439.1575	0.09	878315	keystroke_r	r	n/a
439.6225	0.075	879245	keystroke_Key.space	Key.space	n/a
440.0125	0.045	880025	keystroke_g	g	n/a
440.1325	0.06	880265	keystroke_o	o	n/a
440.2975	0.075	880595	keystroke_n	n	n/a
440.3735	0.074	880747	keystroke_e	e	n/a
441.092	0.06	882184	keystroke_Key.enter	Key.enter	n/a
441.1595	16.57	882319	prompt	n/a	outlined bangkok convicted errors\n
442.188	0.059	884376	keystroke_o	o	n/a
442.322	0.0755	884644	keystroke_u	u	n/a
442.4125	0.06	884825	keystroke_t	t	n/a
443.3275	0.06	886655	keystroke_l	l	n/a
443.4475	0.09	886895	keystroke_i	i	n/a
443.6425	0.06	887285	keystroke_n	n	n/a
443.7475	0.075	887495	keystroke_e	e	n/a
443.9275	0.075	887855	keystroke_d	d	n/a
444.0925	0.09	888185	keystroke_Key.space	Key.space	n/a
444.4975	0.045	888995	keystroke_b	b	n/a
444.7075	0.121	889415	keystroke_a	a	n/a
445.2925	0.075	890585	keystroke_g	g	n/a
446.4475	0.075	892895	keystroke_Key.backspace	Key.backspace	n/a
447.0485	0.059	894097	keystroke_n	n	n/a
447.4975	0.06	894995	keystroke_g	g	n/a
447.8285	0.0435	895657	keystroke_k	k	n/a
448.082	0.045	896164	keystroke_o	o	n/a
448.202	0.09	896404	keystroke_k	k	n/a
448.727	0.09	897454	keystroke_Key.space	Key.space	n/a
449.102	0.0905	898204	keystroke_c	c	n/a
449.2075	0.0745	898415	keystroke_o	o	n/a
449.3425	0.0745	898685	keystroke_n	n	n/a
451.1125	0.075	902225	keystroke_v	v	n/a
451.2625	0.045	902525	keystroke_i	i	n/a
451.3975	0.09	902795	keystroke_c	c	n/a
451.6375	0.06	903275	keystroke_e	e	n/a
451.893	0.0595	903786	keystroke_d	d	n/a
452.7475	0.03	905495	keystroke_Key.backspace	Key.backspace	n/a
452.8825	0.03	905765	keystroke_Key.backspace	Key.backspace	n/a
453.4975	0.075	906995	keystroke_t	t	n/a
453.6925	0.06	907385	keystroke_e	e	n/a
453.8725	0.06	907745	keystroke_d	d	n/a
454.3975	0.105	908795	keystroke_Key.space	Key.space	n/a
455.2375	0.075	910475	keystroke_e	e	n/a
455.4325	0.06	910865	keystroke_r	r	n/a
455.6125	0.045	911225	keystroke_r	r	n/a
455.7625	0.06	911525	keystroke_o	o	n/a
455.8675	0.03	911735	keystroke_r	r	n/a
457.0975	0.075	914195	keystroke_s	s	n/a
457.6375	0.09	915275	keystroke_Key.enter	Key.enter	n/a
457.735	15.4295	915470	prompt	n/a	liabilities chamber christian lite\n
458.8075	0.075	917615	keystroke_l	l	n/a
458.9725	0.075	917945	keystroke_i	i	n/a
459.0775	0.1205	918155	keystroke_a	a	n/a
459.317	0.075	918634	keystroke_b	b	n/a
459.423	0.075	918846	keystroke_i	i	n/a
459.708	0.104	919416	keystroke_l	l	n/a
459.783	0.089	919566	keystroke_i	i	n/a
460.008	0.074	920016	keystroke_t	t	n/a
460.098	0.06	920196	keystroke_i	i	n/a
460.503	0.059	921006	keystroke_e	e	n/a
460.682	0.075	921364	keystroke_s	s	n/a
460.878	0.119	921756	keystroke_Key.space	Key.space	n/a
461.703	0.06	923406	keystroke_c	c	n/a
461.823	0.06	923646	keystroke_h	h	n/a
461.942	0.15	923884	keystroke_a	a	n/a
462.168	0.075	924336	keystroke_r	r	n/a
463.038	0.09	926076	keystroke_Key.backspace	Key.backspace	n/a
463.428	0.075	926856	keystroke_m	m	n/a
463.773	0.105	927546	keystroke_e	e	n/a
463.863	0.09	927726	keystroke_r	r	n/a
464.747	0.09	929494	keystroke_Key.backspace	Key.backspace	n/a
465.662	0.06	931324	keystroke_Key.backspace	Key.backspace	n/a
466.667	0.045	933334	keystroke_b	b	n/a
466.757	0.091	933514	keystroke_e	e	n/a
466.832	0.09	933664	keystroke_r	r	n/a
467.117	0.09	934234	keystroke_Key.space	Key.space	n/a
467.612	0.091	935224	keystroke_c	c	n/a
467.778	0.045	935556	keystroke_h	h	n/a
467.882	0.091	935764	keystroke_r	r	n/a
468.017	0.06	936034	keystroke_i	i	n/a
468.107	0.105	936214	keystroke_s	s	n/a
468.303	0.074	936606	keystroke_t	t	n/a
468.452	0.076	936904	keystroke_i	i	n/a
468.662	0.105	937324	keystroke_a	a	n/a
468.752	0.075	937504	keystroke_n	n	n/a
468.887	0.135	937774	keystroke_Key.space	Key.space	n/a
469.263	0.059	938526	keystroke_l	l	n/a
469.937	0.075	939874	keystroke_i	i	n/a
470.207	0.045	940414	keystroke_t	t	n/a
470.327	0.09	940654	keystroke_e	e	n/a
473.12	0.042	946240	keystroke_Key.enter	Key.enter	n/a
473.17	15.1155	946340	prompt	n/a	directions what harmony great\n
473.778	0.075	947556	keystroke_d	d	n/a
473.972	0.06	947944	keystroke_i	i	n/a
474.0475	0.1195	948095	keystroke_r	r	n/a
474.152	0.09	948304	keystroke_e	e	n/a
474.347	0.076	948694	keystroke_c	c	n/a
474.5875	0.061	949175	keystroke_t	t	n/a
475.0975	0.09	950195	keystroke_o	o	n/a
475.9225	0.075	951845	keystroke_Key.backspace	Key.backspace	n/a
476.4475	0.105	952895	keystroke_i	i	n/a
476.583	0.09	953166	keystroke_o	o	n/a
476.643	0.105	953286	keystroke_n	n	n/a
476.733	0.09	953466	keystroke_s	s	n/a
477.003	0.1195	954006	keystroke_Key.space	Key.space	n/a
478.0825	0.105	956165	keystroke_w	w	n/a
478.2775	0.06	956555	keystroke_h	h	n/a
478.3975	0.075	956795	keystroke_q	q	n/a
478.4575	0.09	956915	keystroke_t	t	n/a
479.402	0.105	958804	keystroke_Key.backspace	Key.backspace	n/a
480.062	0.105	960124	keystroke_Key.backspace	Key.backspace	n/a
480.392	0.18	960784	keystroke_a	a	n/a
480.573	0.074	961146	keystroke_t	t	n/a
480.797	0.09	961594	keystroke_Key.space	Key.space	n/a
481.833	0.045	963666	keystroke_h	h	n/a
481.953	0.119	963906	keystroke_a	a	n/a
482.028	0.089	964056	keystroke_r	r	n/a
482.192	0.075	964384	keystroke_m	m	n/a
482.583	0.074	965166	keystroke_o	o	n/a
482.778	0.074	965556	keystroke_n	n	n/a
482.867	0.061	965734	keystroke_e	e	n/a
483.003	0.075	966006	keystroke_y	y	n/a
483.917	0.09	967834	keystroke_Key.backspace	Key.backspace	n/a
484.067	0.105	968134	keystroke_Key.backspace	Key.backspace	n/a
485.598	0.06	971196	keystroke_y	y	n/a
485.943	0.045	971886	keystroke_Key.space	Key.space	n/a
486.663	0.075	973326	keystroke_g	g	n/a
486.918	0.105	973836	keystroke_r	r	n/a
487.083	0.15	974166	keystroke_e	e	n/a
487.248	0.135	974496	keystroke_a	a	n/a
487.383	0.075	974766	keystroke_t	t	n/a
488.178	0.105	976356	keystroke_Key.enter	Key.enter	n/a
488.2905	20.9645	976581	prompt	n/a	licensed agent veterinary temporary\n
489.093	0.03	978186	keystroke_l	l	n/a
489.243	0.045	978486	keystroke_i	i	n/a
489.348	0.09	978696	keystroke_c	c	n/a
489.498	0.105	978996	keystroke_e	e	n/a
489.6925	0.06	979385	keystroke_n	n	n/a
489.7825	0.1205	979565	keystroke_s	s	n/a
489.873	0.09	979746	keystroke_e	e	n/a
490.068	0.0445	980136	keystroke_d	d	n/a
491.0125	0.1055	982025	keystroke_Key.space	Key.space	n/a
491.493	0.165	982986	keystroke_a	a	n/a
491.643	0.075	983286	keystroke_g	g	n/a
491.943	0.045	983886	keystroke_e	e	n/a
492.063	0.045	984126	keystroke_n	n	n/a
492.153	0.045	984306	keystroke_t	t	n/a
492.333	0.075	984666	keystroke_Key.space	Key.space	n/a
492.588	0.09	985176	keystroke_v	v	n/a
492.768	0.09	985536	keystroke_e	e	n/a
493.023	0.075	986046	keystroke_t	t	n/a
493.173	0.105	986346	keystroke_e	e	n/a
493.263	0.075	986526	keystroke_r	r	n/a
493.428	0.075	986856	keystroke_i	i	n/a
493.818	0.075	987636	keystroke_n	n	n/a
494.163	0.15	988326	keystroke_a	a	n/a
494.373	0.075	988746	keystroke_r	r	n/a
494.538	0.075	989076	keystroke_y	y	n/a
494.958	0.0895	989916	keystroke_Key.space	Key.space	n/a
495.722	0.076	991444	keystroke_t	t	n/a
495.857	0.09	991714	keystroke_e	e	n/a
495.992	0.09	991984	keystroke_m	m	n/a
496.187	0.105	992374	keystroke_p	p	n/a
496.367	0.075	992734	keystroke_l	l	n/a
497.327	0.06	994654	keystroke_Key.backspace	Key.backspace	n/a
498.632	0.075	997264	keystroke_o	o	n/a
498.887	0.09	997774	keystroke_r	r	n/a
499.112	0.075	998224	keystroke_r	r	n/a
499.9975	0.075	999995	keystroke_Key.backspace	Key.backspace	n/a
501.9925	0.105	1003985	keystroke_r	r	n/a
503.1175	0.105	1006235	keystroke_Key.backspace	Key.backspace	n/a
504.4375	0.09	1008875	keystroke_r	r	n/a
504.5725	0.135	1009145	keystroke_a	a	n/a
504.6775	0.105	1009355	keystroke_r	r	n/a
504.8275	0.075	1009655	keystroke_y	y	n/a
505.9675	0.075	1011935	keystroke_Key.backspace	Key.backspace	n/a
506.1475	0.075	1012295	keystroke_Key.backspace	Key.backspace	n/a
506.3125	0.09	1012625	keystroke_Key.backspace	Key.backspace	n/a
506.4775	0.09	1012955	keystroke_Key.backspace	Key.backspace	n/a
506.6575	0.075	1013315	keystroke_Key.backspace	Key.backspace	n/a
507.2875	0.06	1014575	keystroke_r	r	n/a
507.4075	0.165	1014815	keystroke_a	a	n/a
507.542	0.09	1015084	keystroke_r	r	n/a
507.678	0.0595	1015356	keystroke_y	y	n/a
509.1775	0.075	1018355	keystroke_Key.enter	Key.enter	n/a
509.26	17.574	1018520	prompt	n/a	tubes drives mountains revealed\n
510.092	0.09	1020184	keystroke_t	t	n/a
510.287	0.075	1020574	keystroke_u	u	n/a
510.5585	0.0435	1021117	keystroke_b	b	n/a
510.677	0.061	1021354	keystroke_e	e	n/a
510.857	0.076	1021714	keystroke_s	s	n/a
511.007	0.105	1022014	keystroke_Key.space	Key.space	n/a
511.247	0.075	1022494	keystroke_d	d	n/a
511.682	0.076	1023364	keystroke_r	r	n/a
511.863	0.044	1023726	keystroke_i	i	n/a
511.968	0.09	1023936	keystroke_v	v	n/a
512.282	0.045	1024564	keystroke_e	e	n/a
512.523	0.059	1025046	keystroke_s	s	n/a
512.672	0.09	1025344	keystroke_Key.space	Key.space	n/a
512.972	0.09	1025944	keystroke_m	m	n/a
513.182	0.091	1026364	keystroke_o	o	n/a
513.332	0.075	1026664	keystroke_u	u	n/a
513.392	0.075	1026784	keystroke_t	t	n/a
513.647	0.09	1027294	keystroke_a	a	n/a
513.752	0.06	1027504	keystroke_i	i	n/a
513.842	0.075	1027684	keystroke_n	n	n/a
514.023	0.075	1028046	keystroke_s	s	n/a
514.337	0.075	1028674	keystroke_Key.space	Key.space	n/a
514.848	0.105	1029696	keystroke_r	r	n/a
514.968	0.105	1029936	keystroke_e	e	n/a
515.253	0.09	1030506	keystroke_v	v	n/a
515.493	0.06	1030986	keystroke_e	e	n/a
515.628	0.12	1031256	keystroke_a	a	n/a
515.749	0.074	1031498	keystroke_l	l	n/a
515.898	0.06	1031796	keystroke_e	e	n/a
516.048	0.075	1032096	keystroke_d	d	n/a
518.75	0.001	1037500	keystroke_Key.backspace	Key.backspace	n/a
518.838	0.075	1037676	keystroke_Key.backspace	Key.backspace	n/a
519.033	0.06	1038066	keystroke_Key.backspace	Key.backspace	n/a
519.213	0.075	1038426	keystroke_Key.backspace	Key.backspace	n/a
519.408	0.06	1038816	keystroke_Key.backspace	Key.backspace	n/a
519.573	0.075	1039146	keystroke_Key.backspace	Key.backspace	n/a
519.768	0.075	1039536	keystroke_Key.backspace	Key.backspace	n/a
519.933	0.09	1039866	keystroke_Key.backspace	Key.backspace	n/a
520.113	0.09	1040226	keystroke_Key.backspace	Key.backspace	n/a
520.293	0.075	1040586	keystroke_Key.backspace	Key.backspace	n/a
520.473	0.06	1040946	keystroke_Key.backspace	Key.backspace	n/a
520.653	0.06	1041306	keystroke_Key.backspace	Key.backspace	n/a
520.803	0.075	1041606	keystroke_Key.backspace	Key.backspace	n/a
521.2225	0.06	1042445	keystroke_Key.backspace	Key.backspace	n/a
521.7475	0.06	1043495	keystroke_n	n	n/a
521.9425	0.075	1043885	keystroke_t	t	n/a
522.0925	0.105	1044185	keystroke_a	a	n/a
522.2425	0.075	1044485	keystroke_i	i	n/a
522.4075	0.075	1044815	keystroke_n	n	n/a
522.5875	0.075	1045175	keystroke_s	s	n/a
522.8575	0.105	1045715	keystroke_Key.space	Key.space	n/a
523.5175	0.09	1047035	keystroke_r	r	n/a
523.5925	0.12	1047185	keystroke_e	e	n/a
523.8925	0.06	1047785	keystroke_v	v	n/a
524.6875	0.09	1049375	keystroke_e	e	n/a
525.4075	0.12	1050815	keystroke_a	a	n/a
525.5725	0.075	1051145	keystroke_l	l	n/a
525.7375	0.06	1051475	keystroke_e	e	n/a
525.9025	0.06	1051805	keystroke_d	d	n/a
526.7275	0.105	1053455	keystroke_Key.enter	Key.enter	n/a
526.839	12.28	1053678	prompt	n/a	type she'll prairie go\n
527.4625	0.06	1054925	keystroke_t	t	n/a
527.6125	0.06	1055225	keystroke_y	y	n/a
527.8225	0.09	1055645	keystroke_p	p	n/a
527.8825	0.075	1055765	keystroke_e	e	n/a
528.2725	0.105	1056545	keystroke_Key.space	Key.space	n/a
528.6325	0.09	1057265	keystroke_s	s	n/a
528.7375	0.06	1057475	keystroke_h	h	n/a
528.8425	0.075	1057685	keystroke_e	e	n/a
529.0825	0.09	1058165	keystroke_'	'	n/a
529.3975	0.045	1058795	keystroke_l	l	n/a
529.5475	0.06	1059095	keystroke_l	l	n/a
529.8775	0.075	1059755	keystroke_Key.space	Key.space	n/a
530.4475	0.075	1060895	keystroke_p	p	n/a
530.7175	0.105	1061435	keystroke_r	r	n/a
531.3175	0.075	1062635	keystroke_a	a	n/a
531.4675	0.06	1062935	keystroke_i	i	n/a
531.5725	0.09	1063145	keystroke_r	r	n/a
531.7075	0.09	1063415	keystroke_e	e	n/a
532.0075	0.075	1064015	keystroke_Key.space	Key.space	n/a
532.9525	0.105	1065905	keystroke_Key.backspace	Key.backspace	n/a
533.1775	0.075	1066355	keystroke_Key.backspace	Key.backspace	n/a
533.3575	0.075	1066715	keystroke_Key.backspace	Key.backspace	n/a
533.5375	0.045	1067075	keystroke_Key.backspace	Key.backspace	n/a
534.1975	0.045	1068395	keystroke_Key.backspace	Key.backspace	n/a
536.3755	0.072	1072751	keystroke_a	a	n/a
536.4325	0.06	1072865	keystroke_i	i	n/a
536.5075	0.075	1073015	keystroke_r	r	n/a
536.8675	0.075	1073735	keystroke_i	i	n/a
536.9575	0.075	1073915	keystroke_e	e	n/a
537.2125	0.06	1074425	keystroke_Key.space	Key.space	n/a
537.3925	0.075	1074785	keystroke_g	g	n/a
537.4975	0.06	1074995	keystroke_o	o	n/a
539.027	0.09	1078054	keystroke_Key.enter	Key.enter	n/a
539.126	8.393	1078252	prompt	n/a	interactive rides climb studied\n
539.852	0.06	1079704	keystroke_i	i	n/a
540.002	0.03	1080004	keystroke_n	n	n/a
540.122	0.076	1080244	keystroke_t	t	n/a
540.258	0.135	1080516	keystroke_e	e	n/a
540.407	0.075	1080814	keystroke_r	r	n/a
540.812	0.15	1081624	keystroke_a	a	n/a
540.948	0.074	1081896	keystroke_c	c	n/a
541.203	0.074	1082406	keystroke_t	t	n/a
541.398	0.06	1082796	keystroke_i	i	n/a
541.578	0.09	1083156	keystroke_v	v	n/a
541.698	0.12	1083396	keystroke_e	e	n/a
541.952	0.105	1083904	keystroke_Key.space	Key.space	n/a
542.582	0.075	1085164	keystroke_r	r	n/a
542.687	0.075	1085374	keystroke_i	i	n/a
542.853	0.06	1085706	keystroke_d	d	n/a
543.033	0.074	1086066	keystroke_e	e	n/a
543.197	0.09	1086394	keystroke_s	s	n/a
543.407	0.105	1086814	keystroke_Key.space	Key.space	n/a
543.618	0.074	1087236	keystroke_c	c	n/a
543.768	0.075	1087536	keystroke_l	l	n/a
544.293	0.06	1088586	keystroke_i	i	n/a
544.532	0.075	1089064	keystroke_m	m	n/a
544.712	0.06	1089424	keystroke_b	b	n/a
544.967	0.075	1089934	keystroke_Key.space	Key.space	n/a
545.343	0.075	1090686	keystroke_s	s	n/a
545.522	0.06	1091044	keystroke_u	u	n/a
545.627	0.06	1091254	keystroke_t	t	n/a
545.852	0.091	1091704	keystroke_d	d	n/a
545.958	0.059	1091916	keystroke_i	i	n/a
546.212	0.061	1092424	keystroke_e	e	n/a
546.453	0.074	1092906	keystroke_d	d	n/a
547.442	0.075	1094884	keystroke_Key.enter	Key.enter	n/a
547.533	14.716	1095066	prompt	n/a	locations slightly necklace hungry\n
548.328	0.045	1096656	keystroke_l	l	n/a
548.463	0.075	1096926	keystroke_o	o	n/a
548.643	0.1495	1097286	keystroke_c	c	n/a
549.1675	0.06	1098335	keystroke_a	a	n/a
549.4375	0.0745	1098875	keystroke_t	t	n/a
549.647	0.151	1099294	keystroke_i	i	n/a
549.798	0.12	1099596	keystroke_o	o	n/a
549.888	0.105	1099776	keystroke_n	n	n/a
550.187	0.09	1100374	keystroke_s	s	n/a
550.457	0.105	1100914	keystroke_Key.space	Key.space	n/a
551.118	0.12	1102236	keystroke_s	s	n/a
551.252	0.061	1102504	keystroke_l	l	n/a
551.432	0.061	1102864	keystroke_i	i	n/a
551.523	0.06	1103046	keystroke_g	g	n/a
551.643	0.06	1103286	keystroke_h	h	n/a
551.733	0.074	1103466	keystroke_t	t	n/a
551.988	0.09	1103976	keystroke_l	l	n/a
552.137	0.061	1104274	keystroke_y	y	n/a
552.557	0.12	1105114	keystroke_Key.space	Key.space	n/a
553.022	0.076	1106044	keystroke_n	n	n/a
553.142	0.0745	1106284	keystroke_e	e	n/a
553.368	0.0595	1106736	keystroke_c	c	n/a
553.4565	0.061	1106913	keystroke_k	k	n/a
553.9825	0.06	1107965	keystroke_l	l	n/a
554.3115	0.166	1108623	keystroke_a	a	n/a
554.4325	0.104	1108865	keystroke_c	c	n/a
554.5675	0.09	1109135	keystroke_e	e	n/a
554.7915	0.09	1109583	keystroke_Key.space	Key.space	n/a
555.0175	0.075	1110035	keystroke_h	h	n/a
555.3175	0.0595	1110635	keystroke_u	u	n/a
555.422	0.075	1110844	keystroke_r	r	n/a
557.102	0.09	1114204	keystroke_Key.backspace	Key.backspace	n/a
557.462	0.03	1114924	keystroke_n	n	n/a
557.657	0.075	1115314	keystroke_g	g	n/a
557.927	0.06	1115854	keystroke_r	r	n/a
558.047	0.06	1116094	keystroke_y	y	n/a
561.86	0.387	1123720	keystroke_Key.enter	Key.enter	n/a
562.2535	11.7255	1124507	prompt	n/a	junior who's costa clarity\n
563.597	0.045	1127194	keystroke_j	j	n/a
563.762	0.075	1127524	keystroke_u	u	n/a
564.032	0.076	1128064	keystroke_m	m	n/a
564.347	0.06	1128694	keystroke_i	i	n/a
565.367	0.105	1130734	keystroke_Key.backspace	Key.backspace	n/a
565.547	0.09	1131094	keystroke_Key.backspace	Key.backspace	n/a
566.087	0.045	1132174	keystroke_n	n	n/a
566.342	0.075	1132684	keystroke_i	i	n/a
566.642	0.06	1133284	keystroke_r	r	n/a
567.437	0.06	1134874	keystroke_Key.backspace	Key.backspace	n/a
567.828	0.059	1135656	keystroke_o	o	n/a
567.917	0.075	1135834	keystroke_r	r	n/a
568.262	0.09	1136524	keystroke_Key.space	Key.space	n/a
568.637	0.09	1137274	keystroke_w	w	n/a
568.742	0.06	1137484	keystroke_h	h	n/a
568.967	0.045	1137934	keystroke_o	o	n/a
569.462	0.075	1138924	keystroke_'	'	n/a
569.522	0.09	1139044	keystroke_s	s	n/a
569.687	0.105	1139374	keystroke_Key.space	Key.space	n/a
570.557	0.09	1141114	keystroke_c	c	n/a
570.662	0.045	1141324	keystroke_o	o	n/a
570.918	0.089	1141836	keystroke_s	s	n/a
571.127	0.075	1142254	keystroke_t	t	n/a
571.262	0.09	1142524	keystroke_a	a	n/a
571.487	0.09	1142974	keystroke_Key.space	Key.space	n/a
572.222	0.06	1144444	keystroke_c	c	n/a
572.387	0.06	1144774	keystroke_l	l	n/a
572.522	0.21	1145044	keystroke_a	a	n/a
572.718	0.089	1145436	keystroke_r	r	n/a
572.867	0.045	1145734	keystroke_i	i	n/a
573.018	0.059	1146036	keystroke_t	t	n/a
573.152	0.0605	1146304	keystroke_y	y	n/a
573.8725	0.105	1147745	keystroke_Key.enter	Key.enter	n/a
573.9835	9.6405	1147967	prompt	n/a	innovations hugh break robin\n
574.7575	0.045	1149515	keystroke_i	i	n/a
574.8475	0.06	1149695	keystroke_n	n	n/a
575.0875	0.06	1150175	keystroke_n	n	n/a
575.1925	0.075	1150385	keystroke_o	o	n/a
575.4175	0.09	1150835	keystroke_v	v	n/a
575.5525	0.105	1151105	keystroke_a	a	n/a
575.8675	0.03	1151735	keystroke_t	t	n/a
576.0175	0.06	1152035	keystroke_i	i	n/a
576.2725	0.075	1152545	keystroke_o	o	n/a
576.4375	0.045	1152875	keystroke_n	n	n/a
576.5125	0.075	1153025	keystroke_s	s	n/a
576.8575	0.09	1153715	keystroke_Key.space	Key.space	n/a
577.4125	0.03	1154825	keystroke_h	h	n/a
577.5775	0.045	1155155	keystroke_u	u	n/a
577.7575	0.045	1155515	keystroke_g	g	n/a
577.8475	0.06	1155695	keystroke_h	h	n/a
578.2525	0.075	1156505	keystroke_Key.space	Key.space	n/a
578.7025	0.06	1157405	keystroke_b	b	n/a
578.8075	0.06	1157615	keystroke_r	r	n/a
579.0175	0.075	1158035	keystroke_e	e	n/a
579.2275	0.075	1158455	keystroke_a	a	n/a
579.3175	0.075	1158635	keystroke_k	k	n/a
579.5575	0.09	1159115	keystroke_Key.space	Key.space	n/a
579.8425	0.06	1159685	keystroke_r	r	n/a
579.9325	0.075	1159865	keystroke_o	o	n/a
581.987	0.031	1163974	keystroke_b	b	n/a
582.228	0.06	1164456	keystroke_i	i	n/a
582.377	0.06	1164754	keystroke_n	n	n/a
583.547	0.075	1167094	keystroke_Key.enter	Key.enter	n/a
583.629	19.075	1167258	prompt	n/a	verification superintendent shadow excess\n
589.3255	0.027	1178651	keystroke_v	v	n/a
589.4575	0.135	1178915	keystroke_e	e	n/a
589.5475	0.105	1179095	keystroke_r	r	n/a
589.7425	0.06	1179485	keystroke_i	i	n/a
589.8625	0.075	1179725	keystroke_f	f	n/a
589.967	0.075	1179934	keystroke_i	i	n/a
590.103	0.134	1180206	keystroke_c	c	n/a
590.283	0.165	1180566	keystroke_a	a	n/a
590.432	0.075	1180864	keystroke_t	t	n/a
590.523	0.104	1181046	keystroke_i	i	n/a
590.612	0.121	1181224	keystroke_o	o	n/a
590.688	0.104	1181376	keystroke_n	n	n/a
591.287	0.12	1182574	keystroke_Key.space	Key.space	n/a
591.512	0.09	1183024	keystroke_s	s	n/a
592.052	0.076	1184104	keystroke_u	u	n/a
592.262	0.09	1184524	keystroke_p	p	n/a
592.382	0.136	1184764	keystroke_e	e	n/a
592.5025	0.0605	1185005	keystroke_r	r	n/a
592.727	0.045	1185454	keystroke_i	i	n/a
592.818	0.074	1185636	keystroke_n	n	n/a
592.937	0.151	1185874	keystroke_t	t	n/a
593.102	0.075	1186204	keystroke_e	e	n/a
593.193	0.059	1186386	keystroke_n	n	n/a
593.282	0.075	1186564	keystroke_t	t	n/a
593.522	0.06	1187044	keystroke_d	d	n/a
594.752	0.09	1189504	keystroke_Key.backspace	Key.backspace	n/a
594.962	0.0755	1189924	keystroke_Key.backspace	Key.backspace	n/a
595.157	0.075	1190314	keystroke_Key.backspace	Key.backspace	n/a
595.367	0.0905	1190734	keystroke_Key.backspace	Key.backspace	n/a
595.802	0.09	1191604	keystroke_Key.backspace	Key.backspace	n/a
596.4775	0.09	1192955	keystroke_t	t	n/a
596.7175	0.075	1193435	keystroke_e	e	n/a
597.0175	0.045	1194035	keystroke_n	n	n/a
597.1525	0.075	1194305	keystroke_d	d	n/a
597.3625	0.06	1194725	keystroke_e	e	n/a
597.4675	0.075	1194935	keystroke_n	n	n/a
597.5575	0.06	1195115	keystroke_t	t	n/a
597.7675	0.12	1195535	keystroke_Key.space	Key.space	n/a
598.1575	0.09	1196315	keystroke_s	s	n/a
598.2175	0.06	1196435	keystroke_h	h	n/a
598.3975	0.105	1196795	keystroke_a	a	n/a
598.6525	0.06	1197305	keystroke_o	o	n/a
599.522	0.045	1199044	keystroke_Key.backspace	Key.backspace	n/a
599.747	0.075	1199494	keystroke_d	d	n/a
599.942	0.06	1199884	keystroke_o	o	n/a
600.032	0.075	1200064	keystroke_w	w	n/a
600.332	0.12	1200664	keystroke_Key.space	Key.space	n/a
600.902	0.045	1201804	keystroke_e	e	n/a
601.097	0.045	1202194	keystroke_x	x	n/a
601.352	0.075	1202704	keystroke_c	c	n/a
601.517	0.06	1203034	keystroke_e	e	n/a
601.757	0.06	1203514	keystroke_s	s	n/a
601.922	0.075	1203844	keystroke_s	s	n/a
602.612	0.09	1205224	keystroke_Key.enter	Key.enter	n/a
602.7085	6.627	1205417	prompt	n/a	scanner runner grip brandon\n
603.392	0.09	1206784	keystroke_s	s	n/a
603.587	0.105	1207174	keystroke_c	c	n/a
603.707	0.105	1207414	keystroke_a	a	n/a
604.052	0.045	1208104	keystroke_n	n	n/a
604.172	0.075	1208344	keystroke_n	n	n/a
604.352	0.105	1208704	keystroke_e	e	n/a
604.427	0.105	1208854	keystroke_r	r	n/a
604.667	0.075	1209334	keystroke_Key.space	Key.space	n/a
604.952	0.06	1209904	keystroke_r	r	n/a
605.0575	0.06	1210115	keystroke_u	u	n/a
605.313	0.045	1210626	keystroke_n	n	n/a
605.433	0.075	1210866	keystroke_n	n	n/a
605.583	0.09	1211166	keystroke_e	e	n/a
605.658	0.075	1211316	keystroke_r	r	n/a
605.898	0.09	1211796	keystroke_Key.space	Key.space	n/a
606.138	0.075	1212276	keystroke_g	g	n/a
606.318	0.045	1212636	keystroke_r	r	n/a
606.468	0.105	1212936	keystroke_i	i	n/a
606.588	0.105	1213176	keystroke_p	p	n/a
607.1575	0.105	1214315	keystroke_Key.space	Key.space	n/a
607.8025	0.045	1215605	keystroke_b	b	n/a
607.8925	0.075	1215785	keystroke_r	r	n/a
608.1025	0.105	1216205	keystroke_a	a	n/a
608.1775	0.075	1216355	keystroke_n	n	n/a
608.3575	0.06	1216715	keystroke_d	d	n/a
608.4475	0.075	1216895	keystroke_o	o	n/a
608.5675	0.075	1217135	keystroke_n	n	n/a
609.2275	0.104	1218455	keystroke_Key.enter	Key.enter	n/a
609.341	10.494	1218682	prompt	n/a	crime perfume capitol corporate\n
610.3825	0.075	1220765	keystroke_c	c	n/a
610.5625	0.075	1221125	keystroke_r	r	n/a
610.7875	0.06	1221575	keystroke_i	i	n/a
611.0125	0.075	1222025	keystroke_m	m	n/a
611.0875	0.06	1222175	keystroke_e	e	n/a
611.238	0.075	1222476	keystroke_Key.space	Key.space	n/a
611.477	0.091	1222954	keystroke_p	p	n/a
611.583	0.105	1223166	keystroke_e	e	n/a
611.673	0.105	1223346	keystroke_r	r	n/a
612.0015	0.076	1224003	keystroke_f	f	n/a
612.138	0.06	1224276	keystroke_u	u	n/a
613.4875	0.075	1226975	keystroke_m	m	n/a
613.5925	0.075	1227185	keystroke_e	e	n/a
613.9075	0.075	1227815	keystroke_Key.space	Key.space	n/a
614.9875	0.06	1229975	keystroke_c	c	n/a
615.3625	0.105	1230725	keystroke_a	a	n/a
615.5575	0.09	1231115	keystroke_p	p	n/a
615.8425	0.06	1231685	keystroke_i	i	n/a
615.9625	0.06	1231925	keystroke_t	t	n/a
616.5325	0.075	1233065	keystroke_o	o	n/a
616.7425	0.075	1233485	keystroke_l	l	n/a
617.0125	0.06	1234025	keystroke_Key.space	Key.space	n/a
617.8825	0.075	1235765	keystroke_c	c	n/a
618.0775	0.015	1236155	keystroke_o	o	n/a
618.1375	0.075	1236275	keystroke_r	r	n/a
618.3325	0.105	1236665	keystroke_p	p	n/a
618.5425	0.06	1237085	keystroke_o	o	n/a
618.6475	0.105	1237295	keystroke_r	r	n/a
618.7975	0.165	1237595	keystroke_a	a	n/a
618.9325	0.105	1237865	keystroke_t	t	n/a
619.0225	0.105	1238045	keystroke_e	e	n/a
619.7275	0.105	1239455	keystroke_Key.enter	Key.enter	n/a
619.84	6.864	1239680	prompt	n/a	impact bringing guam event\n
620.4925	0.045	1240985	keystroke_i	i	n/a
620.7175	0.075	1241435	keystroke_m	m	n/a
620.957	0.09	1241914	keystroke_p	p	n/a
621.107	0.18	1242214	keystroke_a	a	n/a
621.242	0.06	1242484	keystroke_c	c	n/a
621.422	0.075	1242844	keystroke_t	t	n/a
621.737	0.075	1243474	keystroke_Key.space	Key.space	n/a
621.977	0.03	1243954	keystroke_b	b	n/a
622.052	0.09	1244104	keystroke_r	r	n/a
622.247	0.06	1244494	keystroke_i	i	n/a
622.352	0.06	1244704	keystroke_n	n	n/a
622.472	0.06	1244944	keystroke_g	g	n/a
622.712	0.03	1245424	keystroke_i	i	n/a
622.772	0.075	1245544	keystroke_n	n	n/a
622.862	0.06	1245724	keystroke_g	g	n/a
623.132	0.045	1246264	keystroke_Key.space	Key.space	n/a
623.732	0.075	1247464	keystroke_g	g	n/a
623.912	0.045	1247824	keystroke_u	u	n/a
624.122	0.09	1248244	keystroke_a	a	n/a
624.242	0.075	1248484	keystroke_m	m	n/a
624.542	0.075	1249084	keystroke_Key.space	Key.space	n/a
624.827	0.075	1249654	keystroke_e	e	n/a
625.097	0.09	1250194	keystroke_v	v	n/a
625.352	0.075	1250704	keystroke_e	e	n/a
625.607	0.06	1251214	keystroke_n	n	n/a
625.682	0.06	1251364	keystroke_t	t	n/a
626.6115	0.09	1253223	keystroke_Key.enter	Key.enter	n/a
626.71	7.134	1253420	prompt	n/a	reason hosted gadgets minor\n
627.3025	0.104	1254605	keystroke_r	r	n/a
627.3775	0.105	1254755	keystroke_e	e	n/a
627.6025	0.119	1255205	keystroke_a	a	n/a
627.9175	0.06	1255835	keystroke_s	s	n/a
628.0525	0.075	1256105	keystroke_o	o	n/a
628.1415	0.105	1256283	keystroke_n	n	n/a
628.4565	0.076	1256913	keystroke_Key.space	Key.space	n/a
628.8475	0.075	1257695	keystroke_h	h	n/a
628.9525	0.074	1257905	keystroke_o	o	n/a
629.1025	0.12	1258205	keystroke_s	s	n/a
629.2375	0.074	1258475	keystroke_t	t	n/a
629.3875	0.059	1258775	keystroke_e	e	n/a
629.5675	0.075	1259135	keystroke_d	d	n/a
629.8065	0.091	1259613	keystroke_Key.space	Key.space	n/a
630.4975	0.09	1260995	keystroke_g	g	n/a
630.7375	0.075	1261475	keystroke_a	a	n/a
630.8415	0.091	1261683	keystroke_d	d	n/a
631.0675	0.09	1262135	keystroke_g	g	n/a
631.2625	0.105	1262525	keystroke_e	e	n/a
631.3525	0.09	1262705	keystroke_t	t	n/a
631.6375	0.075	1263275	keystroke_s	s	n/a
631.9515	0.105	1263903	keystroke_Key.space	Key.space	n/a
632.2975	0.06	1264595	keystroke_m	m	n/a
632.4925	0.06	1264985	keystroke_i	i	n/a
632.7175	0.045	1265435	keystroke_n	n	n/a
632.9275	0.045	1265855	keystroke_o	o	n/a
633.0175	0.075	1266035	keystroke_r	r	n/a
633.7525	0.089	1267505	keystroke_Key.enter	Key.enter	n/a
633.8505	9.8185	1267701	prompt	n/a	attach interested drag assess\n
634.4875	0.135	1268975	keystroke_a	a	n/a
634.6675	0.045	1269335	keystroke_t	t	n/a
634.8175	0.045	1269635	keystroke_t	t	n/a
634.9975	0.15	1269995	keystroke_a	a	n/a
635.1175	0.09	1270235	keystroke_c	c	n/a
635.2675	0.06	1270535	keystroke_h	h	n/a
635.6275	0.075	1271255	keystroke_Key.space	Key.space	n/a
636.1525	0.075	1272305	keystroke_i	i	n/a
636.2875	0.06	1272575	keystroke_n	n	n/a
636.4675	0.06	1272935	keystroke_t	t	n/a
636.6025	0.105	1273205	keystroke_e	e	n/a
636.8425	0.12	1273685	keystroke_r	r	n/a
636.9775	0.105	1273955	keystroke_e	e	n/a
637.1575	0.1945	1274315	keystroke_s	s	n/a
637.307	0.15	1274614	keystroke_t	t	n/a
637.442	0.09	1274884	keystroke_e	e	n/a
637.622	0.09	1275244	keystroke_d	d	n/a
637.892	0.105	1275784	keystroke_Key.space	Key.space	n/a
638.267	0.075	1276534	keystroke_d	d	n/a
638.417	0.09	1276834	keystroke_r	r	n/a
638.567	0.15	1277134	keystroke_a	a	n/a
638.702	0.045	1277404	keystroke_g	g	n/a
639.047	0.075	1278094	keystroke_Key.space	Key.space	n/a
639.707	0.09	1279414	keystroke_a	a	n/a
639.9315	0.075	1279863	keystroke_s	s	n/a
640.3365	0.045	1280673	keystroke_e	e	n/a
641.3715	0.106	1282743	keystroke_Key.backspace	Key.backspace	n/a
641.6575	0.089	1283315	keystroke_s	s	n/a
642.2725	0.059	1284545	keystroke_e	e	n/a
642.4975	0.059	1284995	keystroke_s	s	n/a
642.6475	0.09	1285295	keystroke_s	s	n/a
643.562	0.105	1287124	keystroke_Key.enter	Key.enter	n/a
643.674	13.4205	1287348	prompt	n/a	bacteria throat notifications comparative\n
644.747	0.075	1289494	keystroke_b	b	n/a
644.852	0.195	1289704	keystroke_a	a	n/a
645.032	0.075	1290064	keystroke_c	c	n/a
645.752	0.075	1291504	keystroke_t	t	n/a
646.052	0.12	1292104	keystroke_e	e	n/a
646.187	0.045	1292374	keystroke_r	r	n/a
646.382	0.09	1292764	keystroke_a	a	n/a
648.362	0.105	1296724	keystroke_Key.backspace	Key.backspace	n/a
648.977	0.09	1297954	keystroke_i	i	n/a
649.052	0.12	1298104	keystroke_a	a	n/a
649.442	0.135	1298884	keystroke_Key.space	Key.space	n/a
649.907	0.075	1299814	keystroke_t	t	n/a
649.997	0.06	1299994	keystroke_h	h	n/a
650.147	0.09	1300294	keystroke_r	r	n/a
650.267	0.075	1300534	keystroke_o	o	n/a
650.372	0.135	1300744	keystroke_a	a	n/a
650.477	0.075	1300954	keystroke_t	t	n/a
650.822	0.105	1301644	keystroke_Key.space	Key.space	n/a
651.467	0.09	1302934	keystroke_n	n	n/a
651.662	0.075	1303324	keystroke_o	o	n/a
651.782	0.075	1303564	keystroke_t	t	n/a
651.932	0.06	1303864	keystroke_i	i	n/a
652.037	0.075	1304074	keystroke_f	f	n/a
652.142	0.06	1304284	keystroke_i	i	n/a
652.307	0.105	1304614	keystroke_c	c	n/a
652.427	0.09	1304854	keystroke_a	a	n/a
652.667	0.06	1305334	keystroke_t	t	n/a
652.817	0.135	1305634	keystroke_i	i	n/a
652.937	0.09	1305874	keystroke_o	o	n/a
652.997	0.1345	1305994	keystroke_n	n	n/a
653.5225	0.104	1307045	keystroke_Key.space	Key.space	n/a
653.9275	0.074	1307855	keystroke_c	c	n/a
654.0325	0.12	1308065	keystroke_o	o	n/a
654.2725	0.075	1308545	keystroke_m	m	n/a
654.7225	0.075	1309445	keystroke_p	p	n/a
654.8425	0.15	1309685	keystroke_a	a	n/a
654.9625	0.09	1309925	keystroke_r	r	n/a
655.1275	0.135	1310255	keystroke_a	a	n/a
655.3075	0.06	1310615	keystroke_t	t	n/a
655.5625	0.06	1311125	keystroke_i	i	n/a
656.1475	0.09	1312295	keystroke_v	v	n/a
656.2675	0.09	1312535	keystroke_e	e	n/a
656.987	0.105	1313974	keystroke_Key.enter	Key.enter	n/a
657.1005	8.8885	1314201	prompt	n/a	ieee bidding wiley technical\n
657.903	0.059	1315806	keystroke_i	i	n/a
658.142	0.06	1316284	keystroke_e	e	n/a
658.352	0.0455	1316704	keystroke_e	e	n/a
658.517	0.06	1317034	keystroke_e	e	n/a
658.847	0.09	1317694	keystroke_Key.space	Key.space	n/a
659.042	0.075	1318084	keystroke_b	b	n/a
659.342	0.045	1318684	keystroke_i	i	n/a
659.537	0.045	1319074	keystroke_d	d	n/a
659.687	0.06	1319374	keystroke_d	d	n/a
660.272	0.06	1320544	keystroke_i	i	n/a
660.422	0.06	1320844	keystroke_n	n	n/a
660.512	0.045	1321024	keystroke_g	g	n/a
660.782	0.12	1321564	keystroke_Key.space	Key.space	n/a
661.277	0.075	1322554	keystroke_w	w	n/a
661.472	0.06	1322944	keystroke_i	i	n/a
661.6975	0.0745	1323395	keystroke_l	l	n/a
661.892	0.06	1323784	keystroke_e	e	n/a
662.027	0.075	1324054	keystroke_y	y	n/a
662.297	0.075	1324594	keystroke_Key.space	Key.space	n/a
662.717	0.075	1325434	keystroke_t	t	n/a
662.837	0.105	1325674	keystroke_e	e	n/a
663.107	0.075	1326214	keystroke_c	c	n/a
663.227	0.06	1326454	keystroke_h	h	n/a
663.452	0.12	1326904	keystroke_n	n	n/a
663.587	0.075	1327174	keystroke_i	i	n/a
663.812	0.105	1327624	keystroke_c	c	n/a
664.367	0.06	1328734	keystroke_a	a	n/a
664.487	0.09	1328974	keystroke_l	l	n/a
665.867	0.12	1331734	keystroke_Key.enter	Key.enter	n/a
665.9955	8.7085	1331991	prompt	n/a	councils trademark puzzle address\n
666.587	0.075	1333174	keystroke_c	c	n/a
666.752	0.075	1333504	keystroke_o	o	n/a
666.887	0.075	1333774	keystroke_u	u	n/a
667.112	0.0755	1334224	keystroke_n	n	n/a
667.3225	0.03	1334645	keystroke_c	c	n/a
667.4125	0.06	1334825	keystroke_i	i	n/a
667.6225	0.075	1335245	keystroke_l	l	n/a
667.7125	0.075	1335425	keystroke_s	s	n/a
667.8775	0.105	1335755	keystroke_Key.space	Key.space	n/a
668.1625	0.06	1336325	keystroke_t	t	n/a
668.3875	0.075	1336775	keystroke_r	r	n/a
668.5375	0.18	1337075	keystroke_a	a	n/a
668.6725	0.06	1337345	keystroke_d	d	n/a
668.8215	0.091	1337643	keystroke_e	e	n/a
670.5775	0.075	1341155	keystroke_m	m	n/a
670.6825	0.15	1341365	keystroke_a	a	n/a
670.7875	0.075	1341575	keystroke_r	r	n/a
670.9375	0.075	1341875	keystroke_k	k	n/a
671.237	0.06	1342474	keystroke_Key.space	Key.space	n/a
671.477	0.135	1342954	keystroke_p	p	n/a
671.627	0.09	1343254	keystroke_u	u	n/a
671.867	0.075	1343734	keystroke_z	z	n/a
672.047	0.06	1344094	keystroke_z	z	n/a
672.272	0.06	1344544	keystroke_l	l	n/a
672.362	0.045	1344724	keystroke_e	e	n/a
672.632	0.045	1345264	keystroke_Key.space	Key.space	n/a
672.917	0.09	1345834	keystroke_a	a	n/a
673.097	0.045	1346194	keystroke_d	d	n/a
673.232	0.105	1346464	keystroke_d	d	n/a
673.397	0.12	1346794	keystroke_r	r	n/a
673.502	0.09	1347004	keystroke_e	e	n/a
673.697	0.09	1347394	keystroke_s	s	n/a
673.847	0.075	1347694	keystroke_s	s	n/a
674.612	0.09	1349224	keystroke_Key.enter	Key.enter	n/a
674.709	16.0005	1349418	prompt	n/a	advisory strap fabrics apnic\n
675.437	0.1055	1350874	keystroke_a	a	n/a
675.5575	0.075	1351115	keystroke_d	d	n/a
675.7675	0.075	1351535	keystroke_v	v	n/a
675.8725	0.06	1351745	keystroke_i	i	n/a
676.0525	0.075	1352105	keystroke_s	s	n/a
676.1725	0.0745	1352345	keystroke_o	o	n/a
676.262	0.0605	1352524	keystroke_r	r	n/a
676.3825	0.06	1352765	keystroke_y	y	n/a
676.532	0.1055	1353064	keystroke_Key.space	Key.space	n/a
676.9975	0.105	1353995	keystroke_s	s	n/a
677.3725	0.045	1354745	keystroke_t	t	n/a
677.5375	0.075	1355075	keystroke_r	r	n/a
678.5575	0.105	1357115	keystroke_a	a	n/a
678.7375	0.09	1357475	keystroke_p	p	n/a
679.3075	0.105	1358615	keystroke_Key.space	Key.space	n/a
679.6375	0.075	1359275	keystroke_f	f	n/a
679.7575	0.135	1359515	keystroke_a	a	n/a
679.9975	0.06	1359995	keystroke_b	b	n/a
680.1025	0.075	1360205	keystroke_t	t	n/a
680.6725	0.045	1361345	keystroke_i	i	n/a
680.8375	0.045	1361675	keystroke_r	r	n/a
682.2475	0.09	1364495	keystroke_Key.backspace	Key.backspace	n/a
682.4125	0.105	1364825	keystroke_Key.backspace	Key.backspace	n/a
683.3875	0.075	1366775	keystroke_=	=	n/a
684.2425	0.09	1368485	keystroke_Key.backspace	Key.backspace	n/a
684.3925	0.105	1368785	keystroke_Key.backspace	Key.backspace	n/a
685.3375	0.09	1370675	keystroke_r	r	n/a
685.5025	0.075	1371005	keystroke_i	i	n/a
685.8175	0.075	1371635	keystroke_s	s	n/a
686.6575	0.06	1373315	keystroke_Key.backspace	Key.backspace	n/a
686.8975	0.045	1373795	keystroke_c	c	n/a
686.9875	0.105	1373975	keystroke_s	s	n/a
687.3175	0.135	1374635	keystroke_Key.space	Key.space	n/a
688.083	0.104	1376166	keystroke_a	a	n/a
688.547	0.09	1377094	keystroke_p	p	n/a
689.237	0.075	1378474	keystroke_n	n	n/a
689.477	0.06	1378954	keystroke_i	i	n/a
689.552	0.075	1379104	keystroke_c	c	n/a
690.617	0.09	1381234	keystroke_Key.enter	Key.enter	n/a
690.7145	13.3295	1381429	prompt	n/a	clip galleries shortcuts open\n
691.6825	0.09	1383365	keystroke_c	c	n/a
691.9075	0.075	1383815	keystroke_l	l	n/a
692.0875	0.135	1384175	keystroke_i	i	n/a
692.2525	0.075	1384505	keystroke_p	p	n/a
692.5975	0.075	1385195	keystroke_Key.space	Key.space	n/a
692.9725	0.06	1385945	keystroke_g	g	n/a
693.0925	0.105	1386185	keystroke_a	a	n/a
693.2725	0.06	1386545	keystroke_l	l	n/a
693.4225	0.075	1386845	keystroke_l	l	n/a
693.7825	0.09	1387565	keystroke_e	e	n/a
693.9925	0.09	1387985	keystroke_r	r	n/a
694.2775	0.06	1388555	keystroke_i	i	n/a
694.3675	0.075	1388735	keystroke_e	e	n/a
694.5625	0.075	1389125	keystroke_s	s	n/a
694.937	0.075	1389874	keystroke_Key.space	Key.space	n/a
695.477	0.106	1390954	keystroke_s	s	n/a
695.583	0.044	1391166	keystroke_h	h	n/a
695.882	0.075	1391764	keystroke_u	u	n/a
695.972	0.075	1391944	keystroke_r	r	n/a
696.842	0.075	1393684	keystroke_Key.backspace	Key.backspace	n/a
696.992	0.105	1393984	keystroke_Key.backspace	Key.backspace	n/a
697.337	0.075	1394674	keystroke_Key.backspace	Key.backspace	n/a
698.027	0.03	1396054	keystroke_h	h	n/a
698.207	0.075	1396414	keystroke_o	o	n/a
698.297	0.075	1396594	keystroke_u	u	n/a
698.417	0.0755	1396834	keystroke_r	r	n/a
698.763	0.059	1397526	keystroke_c	c	n/a
698.972	0.06	1397944	keystroke_u	u	n/a
699.452	0.045	1398904	keystroke_Key.backspace	Key.backspace	n/a
700.052	0.06	1400104	keystroke_Key.backspace	Key.backspace	n/a
700.202	0.105	1400404	keystroke_Key.backspace	Key.backspace	n/a
700.427	0.06	1400854	keystroke_Key.backspace	Key.backspace	n/a
701.042	0.075	1402084	keystroke_r	r	n/a
701.222	0.09	1402444	keystroke_t	t	n/a
701.762	0.06	1403524	keystroke_c	c	n/a
701.9725	0.0595	1403945	keystroke_u	u	n/a
702.092	0.06	1404184	keystroke_t	t	n/a
702.287	0.075	1404574	keystroke_s	s	n/a
702.557	0.045	1405114	keystroke_Key.space	Key.space	n/a
702.782	0.106	1405564	keystroke_o	o	n/a
702.917	0.12	1405834	keystroke_p	p	n/a
703.022	0.06	1406044	keystroke_e	e	n/a
703.157	0.09	1406314	keystroke_n	n	n/a
703.952	0.09	1407904	keystroke_Key.enter	Key.enter	n/a
704.05	18.294	1408100	prompt	n/a	motorola witness programmes showers\n
704.838	0.075	1409676	keystroke_n	n	n/a
705.7675	0.09	1411535	keystroke_Key.backspace	Key.backspace	n/a
706.1575	0.09	1412315	keystroke_m	m	n/a
706.3075	0.075	1412615	keystroke_o	o	n/a
706.4575	0.075	1412915	keystroke_t	t	n/a
706.5625	0.075	1413125	keystroke_o	o	n/a
706.8025	0.075	1413605	keystroke_r	r	n/a
706.9975	0.075	1413995	keystroke_a	a	n/a
707.732	0.075	1415464	keystroke_Key.backspace	Key.backspace	n/a
708.287	0.075	1416574	keystroke_o	o	n/a
708.617	0.075	1417234	keystroke_l	l	n/a
708.737	0.09	1417474	keystroke_a	a	n/a
709.037	0.09	1418074	keystroke_Key.space	Key.space	n/a
712.1	0.057	1424200	keystroke_w	w	n/a
712.277	0.06	1424554	keystroke_i	i	n/a
712.367	0.06	1424734	keystroke_t	t	n/a
712.547	0.045	1425094	keystroke_h	h	n/a
712.907	0.045	1425814	keystroke_n	n	n/a
713.012	0.06	1426024	keystroke_e	e	n/a
713.192	0.09	1426384	keystroke_s	s	n/a
713.972	0.105	1427944	keystroke_Key.backspace	Key.backspace	n/a
714.137	0.105	1428274	keystroke_Key.backspace	Key.backspace	n/a
714.332	0.06	1428664	keystroke_Key.backspace	Key.backspace	n/a
714.497	0.075	1428994	keystroke_Key.backspace	Key.backspace	n/a
714.722	0.045	1429444	keystroke_Key.backspace	Key.backspace	n/a
715.187	0.06	1430374	keystroke_t	t	n/a
715.472	0.06	1430944	keystroke_n	n	n/a
715.607	0.06	1431214	keystroke_e	e	n/a
715.802	0.06	1431604	keystroke_s	s	n/a
715.967	0.045	1431934	keystroke_s	s	n/a
716.927	0.105	1433854	keystroke_Key.space	Key.space	n/a
717.227	0.105	1434454	keystroke_p	p	n/a
717.347	0.075	1434694	keystroke_r	r	n/a
717.542	0.06	1435084	keystroke_o	o	n/a
717.647	0.075	1435294	keystroke_g	g	n/a
717.917	0.06	1435834	keystroke_r	r	n/a
718.052	0.105	1436104	keystroke_a	a	n/a
718.217	0.06	1436434	keystroke_m	m	n/a
718.307	0.09	1436614	keystroke_m	m	n/a
718.637	0.075	1437274	keystroke_m	m	n/a
718.967	0.045	1437934	keystroke_e	e	n/a
719.132	0.06	1438264	keystroke_s	s	n/a
719.387	0.12	1438774	keystroke_Key.space	Key.space	n/a
719.777	0.075	1439554	keystroke_s	s	n/a
719.882	0.03	1439764	keystroke_h	h	n/a
720.092	0.06	1440184	keystroke_o	o	n/a
720.167	0.075	1440334	keystroke_w	w	n/a
720.407	0.12	1440814	keystroke_e	e	n/a
720.5125	0.0895	1441025	keystroke_r	r	n/a
720.7225	0.0745	1441445	keystroke_s	s	n/a
722.252	0.09	1444504	keystroke_Key.enter	Key.enter	n/a
722.3485	10.166	1444697	prompt	n/a	purchasing fruit browsing duke\n
723.1375	0.135	1446275	keystroke_p	p	n/a
723.2875	0.075	1446575	keystroke_u	u	n/a
723.3475	0.06	1446695	keystroke_r	r	n/a
723.6475	0.075	1447295	keystroke_c	c	n/a
723.7675	0.045	1447535	keystroke_h	h	n/a
723.9475	0.15	1447895	keystroke_a	a	n/a
724.4875	0.075	1448975	keystroke_s	s	n/a
724.6975	0.075	1449395	keystroke_i	i	n/a
724.8025	0.06	1449605	keystroke_n	n	n/a
724.9225	0.03	1449845	keystroke_g	g	n/a
725.0875	0.075	1450175	keystroke_Key.space	Key.space	n/a
725.3725	0.06	1450745	keystroke_f	f	n/a
725.5825	0.075	1451165	keystroke_r	r	n/a
725.7925	0.045	1451585	keystroke_u	u	n/a
726.0475	0.045	1452095	keystroke_i	i	n/a
726.1375	0.045	1452275	keystroke_t	t	n/a
726.3625	0.09	1452725	keystroke_Key.space	Key.space	n/a
726.8875	0.06	1453775	keystroke_b	b	n/a
726.9925	0.03	1453985	keystroke_r	r	n/a
727.1725	0.03	1454345	keystroke_o	o	n/a
728.0725	0.105	1456145	keystroke_Key.backspace	Key.backspace	n/a
729.0925	0.09	1458185	keystroke_o	o	n/a
729.1975	0.075	1458395	keystroke_w	w	n/a
729.6325	0.06	1459265	keystroke_s	s	n/a
729.9925	0.075	1459985	keystroke_i	i	n/a
730.1275	0.06	1460255	keystroke_n	n	n/a
730.2025	0.06	1460405	keystroke_g	g	n/a
730.5325	0.075	1461065	keystroke_Key.space	Key.space	n/a
731.0425	0.06	1462085	keystroke_d	d	n/a
731.1475	0.075	1462295	keystroke_u	u	n/a
731.4775	0.045	1462955	keystroke_k	k	n/a
731.5375	0.075	1463075	keystroke_e	e	n/a
732.4225	0.09	1464845	keystroke_Key.enter	Key.enter	n/a
732.52	11.124	1465040	prompt	n/a	gnome facilities memories switching\n
733.3525	0.059	1466705	keystroke_g	g	n/a
734.0275	0.075	1468055	keystroke_n	n	n/a
734.1615	0.046	1468323	keystroke_o	o	n/a
734.4315	0.076	1468863	keystroke_m	m	n/a
734.5225	0.059	1469045	keystroke_e	e	n/a
734.8815	0.12	1469763	keystroke_Key.space	Key.space	n/a
735.557	0.075	1471114	keystroke_f	f	n/a
735.692	0.12	1471384	keystroke_a	a	n/a
735.872	0.09	1471744	keystroke_c	c	n/a
736.172	0.06	1472344	keystroke_i	i	n/a
736.457	0.03	1472914	keystroke_l	l	n/a
736.547	0.09	1473094	keystroke_i	i	n/a
736.802	0.045	1473604	keystroke_t	t	n/a
736.892	0.075	1473784	keystroke_i	i	n/a
737.192	0.03	1474384	keystroke_s	s	n/a
738.047	0.075	1476094	keystroke_Key.backspace	Key.backspace	n/a
738.258	0.059	1476516	keystroke_e	e	n/a
738.422	0.075	1476844	keystroke_s	s	n/a
738.572	0.135	1477144	keystroke_Key.space	Key.space	n/a
739.652	0.045	1479304	keystroke_m	m	n/a
739.727	0.06	1479454	keystroke_e	e	n/a
739.922	0.06	1479844	keystroke_m	m	n/a
740.087	0.045	1480174	keystroke_o	o	n/a
740.163	0.074	1480326	keystroke_r	r	n/a
740.297	0.06	1480594	keystroke_i	i	n/a
740.372	0.06	1480744	keystroke_e	e	n/a
740.552	0.075	1481104	keystroke_s	s	n/a
740.837	0.075	1481674	keystroke_Key.space	Key.space	n/a
741.362	0.045	1482724	keystroke_s	s	n/a
741.557	0.06	1483114	keystroke_w	w	n/a
741.707	0.06	1483414	keystroke_i	i	n/a
741.827	0.06	1483654	keystroke_t	t	n/a
742.067	0.06	1484134	keystroke_c	c	n/a
742.187	0.045	1484374	keystroke_h	h	n/a
742.457	0.045	1484914	keystroke_i	i	n/a
742.517	0.09	1485034	keystroke_n	n	n/a
742.652	0.06	1485304	keystroke_g	g	n/a
743.567	0.075	1487134	keystroke_Key.enter	Key.enter	n/a
743.649	13.001	1487298	prompt	n/a	investigators naples stay trademarks\n
744.3465	0.075	1488693	keystroke_i	i	n/a
744.6015	0.015	1489203	keystroke_n	n	n/a
744.6615	0.09	1489323	keystroke_v	v	n/a
744.9015	0.06	1489803	keystroke_e	e	n/a
745.0815	0.09	1490163	keystroke_s	s	n/a
745.3365	0.06	1490673	keystroke_t	t	n/a
745.6365	0.06	1491273	keystroke_i	i	n/a
745.7415	0.075	1491483	keystroke_g	g	n/a
745.9215	0.09	1491843	keystroke_a	a	n/a
746.1315	0.06	1492263	keystroke_t	t	n/a
747.2565	0.06	1494513	keystroke_o	o	n/a
747.3315	0.06	1494663	keystroke_r	r	n/a
747.4815	0.09	1494963	keystroke_s	s	n/a
747.9915	0.12	1495983	keystroke_Key.space	Key.space	n/a
748.5465	0.075	1497093	keystroke_n	n	n/a
748.6965	0.075	1497393	keystroke_a	a	n/a
748.9215	0.12	1497843	keystroke_p	p	n/a
749.207	0.075	1498414	keystroke_l	l	n/a
749.327	0.075	1498654	keystroke_e	e	n/a
749.537	0.06	1499074	keystroke_s	s	n/a
749.702	0.09	1499404	keystroke_Key.space	Key.space	n/a
749.957	0.09	1499914	keystroke_s	s	n/a
750.077	0.105	1500154	keystroke_t	t	n/a
750.332	0.09	1500664	keystroke_a	a	n/a
750.497	0.075	1500994	keystroke_y	y	n/a
751.832	0.15	1503664	keystroke_Key.space	Key.space	n/a
752.627	0.06	1505254	keystroke_t	t	n/a
752.822	0.045	1505644	keystroke_r	r	n/a
753.977	0.12	1507954	keystroke_a	a	n/a
754.172	0.06	1508344	keystroke_d	d	n/a
754.352	0.06	1508704	keystroke_e	e	n/a
755.042	0.06	1510084	keystroke_m	m	n/a
755.147	0.165	1510294	keystroke_a	a	n/a
755.327	0.06	1510654	keystroke_r	r	n/a
755.552	0.06	1511104	keystroke_k	k	n/a
755.657	0.075	1511314	keystroke_s	s	n/a
756.557	0.09	1513114	keystroke_Key.enter	Key.enter	n/a
756.6555	8.845	1513311	prompt	n/a	assuming up griffin fires\n
757.367	0.105	1514734	keystroke_a	a	n/a
757.532	0.075	1515064	keystroke_s	s	n/a
757.697	0.09	1515394	keystroke_s	s	n/a
757.907	0.075	1515814	keystroke_u	u	n/a
758.207	0.09	1516414	keystroke_m	m	n/a
758.822	0.075	1517644	keystroke_i	i	n/a
759.032	0.045	1518064	keystroke_n	n	n/a
759.122	0.045	1518244	keystroke_g	g	n/a
759.437	0.09	1518874	keystroke_Key.space	Key.space	n/a
760.247	0.09	1520494	keystroke_u	u	n/a
760.472	0.075	1520944	keystroke_p	p	n/a
760.727	0.075	1521454	keystroke_Key.space	Key.space	n/a
760.982	0.075	1521964	keystroke_g	g	n/a
761.252	0.03	1522504	keystroke_r	r	n/a
761.417	0.06	1522834	keystroke_i	i	n/a
762.572	0.06	1525144	keystroke_f	f	n/a
762.722	0.09	1525444	keystroke_f	f	n/a
763.022	0.075	1526044	keystroke_i	i	n/a
763.157	0.06	1526314	keystroke_n	n	n/a
763.712	0.075	1527424	keystroke_Key.space	Key.space	n/a
763.907	0.045	1527814	keystroke_f	f	n/a
764.057	0.06	1528114	keystroke_i	i	n/a
764.192	0.075	1528384	keystroke_r	r	n/a
764.327	0.06	1528654	keystroke_e	e	n/a
764.507	0.075	1529014	keystroke_s	s	n/a
