onset	duration	sample	value	key	prompt_text
4.147	13.873	8294	prompt	n/a	the quick brown fox jumps over a lazy dog\n
5.435	0.027	10870	keystroke	t	n/a
5.477	0.105	10954	keystroke	h	n/a
5.552	0.12	11104	keystroke	e	n/a
5.687	0.149	11374	keystroke	Key.space	n/a
6.061	0.166	12122	keystroke	q	n/a
6.151	0.1815	12302	keystroke	u	n/a
6.5725	0.135	13145	keystroke	i	n/a
6.6925	0.15	13385	keystroke	c	n/a
6.8125	0.15	13625	keystroke	k	n/a
7.2175	0.15	14435	keystroke	Key.space	n/a
7.6825	0.12	15365	keystroke	b	n/a
7.9525	0.06	15905	keystroke	w	n/a
8.3275	0.105	16655	keystroke	Key.backspace	n/a
8.4625	0.135	16925	keystroke	r	n/a
8.6275	0.15	17255	keystroke	o	n/a
8.7475	0.15	17495	keystroke	w	n/a
8.8525	0.12	17705	keystroke	n	n/a
9.3625	0.15	18725	keystroke	Key.space	n/a
9.6175	0.105	19235	keystroke	f	n/a
9.7225	0.12	19445	keystroke	o	n/a
10.0525	0.135	20105	keystroke	x	n/a
10.3675	0.15	20735	keystroke	Key.space	n/a
10.6375	0.09	21275	keystroke	j	n/a
10.8475	0.075	21695	keystroke	u	n/a
11.0725	0.12	22145	keystroke	m	n/a
11.3275	0.15	22655	keystroke	p	n/a
11.5675	0.15	23135	keystroke	s	n/a
12.0625	0.15	24125	keystroke	Key.space	n/a
12.633	0.12	25266	keystroke	o	n/a
12.797	0.121	25594	keystroke	v	n/a
12.992	0.1655	25984	keystroke	e	n/a
13.0975	0.1345	26195	keystroke	r	n/a
13.262	0.165	26524	keystroke	Key.space	n/a
13.8775	0.165	27755	keystroke	a	n/a
14.1175	0.15	28235	keystroke	Key.space	n/a
14.3725	0.15	28745	keystroke	l	n/a
14.6425	0.15	29285	keystroke	a	n/a
15.1225	0.15	30245	keystroke	z	n/a
15.3025	0.15	30605	keystroke	y	n/a
15.6325	0.135	31265	keystroke	Key.space	n/a
15.962	0.12	31924	keystroke	d	n/a
16.067	0.165	32134	keystroke	o	n/a
16.622	0.12	33244	keystroke	g	n/a
17.853	0.165	35706	keystroke	Key.enter	n/a
18.0245	14.785	36049	prompt	n/a	pump keyboard compare posts\n
26.345	0.088	52690	keystroke	p	n/a
26.553	0.12	53106	keystroke	u	n/a
26.808	0.0895	53616	keystroke	m	n/a
26.9875	0.135	53975	keystroke	p	n/a
27.8575	0.15	55715	keystroke	Key.space	n/a
28.0835	0.165	56167	keystroke	k	n/a
28.2185	0.164	56437	keystroke	e	n/a
28.3675	0.136	56735	keystroke	y	n/a
28.7585	0.089	57517	keystroke	b	n/a
28.9085	0.15	57817	keystroke	o	n/a
29.0135	0.135	58027	keystroke	a	n/a
29.0735	0.135	58147	keystroke	r	n/a
29.2825	0.135	58565	keystroke	d	n/a
29.778	0.165	59556	keystroke	Key.space	n/a
30.258	0.165	60516	keystroke	c	n/a
30.378	0.105	60756	keystroke	o	n/a
30.558	0.06	61116	keystroke	m	n/a
30.708	0.135	61416	keystroke	p	n/a
30.828	0.195	61656	keystroke	a	n/a
30.978	0.195	61956	keystroke	r	n/a
31.113	0.15	62226	keystroke	e	n/a
31.428	0.165	62856	keystroke	Key.space	n/a
31.683	0.12	63366	keystroke	p	n/a
31.893	0.15	63786	keystroke	o	n/a
31.998	0.225	63996	keystroke	s	n/a
32.118	0.165	64236	keystroke	t	n/a
32.328	0.1645	64656	keystroke	s	n/a
32.6575	0.151	65315	keystroke	Key.enter	n/a
32.8135	10.1065	65627	prompt	n/a	fiscal how'd ma'am virtue\n
33.6335	0.1195	67267	keystroke	f	n/a
33.738	0.15	67476	keystroke	i	n/a
33.903	0.135	67806	keystroke	s	n/a
34.098	0.15	68196	keystroke	c	n/a
34.233	0.165	68466	keystroke	a	n/a
34.383	0.135	68766	keystroke	l	n/a
34.698	0.15	69396	keystroke	Key.space	n/a
34.983	0.105	69966	keystroke	h	n/a
35.133	0.135	70266	keystroke	o	n/a
35.223	0.135	70446	keystroke	w	n/a
35.433	0.165	70866	keystroke	'	n/a
35.568	0.15	71136	keystroke	d	n/a
35.928	0.135	71856	keystroke	Key.space	n/a
36.183	0.105	72366	keystroke	m	n/a
36.318	0.135	72636	keystroke	a	n/a
36.843	0.135	73686	keystroke	'	n/a
37.278	0.15	74556	keystroke	a	n/a
37.458	0.1355	74916	keystroke	m	n/a
37.968	0.15	75936	keystroke	Key.space	n/a
38.2535	0.105	76507	keystroke	v	n/a
38.4485	0.18	76897	keystroke	a	n/a
39.6935	0.12	79387	keystroke	Key.backspace	n/a
40.0235	0.1345	80047	keystroke	i	n/a
40.128	0.12	80256	keystroke	r	n/a
40.383	0.09	80766	keystroke	t	n/a
40.458	0.135	80916	keystroke	u	n/a
40.578	0.15	81156	keystroke	e	n/a
42.83	0.088	85660	keystroke	Key.enter	n/a
42.9235	12.1765	85847	prompt	n/a	placing cables equality breakdown\n
43.8475	0.091	87695	keystroke	p	n/a
44.0575	0.135	88115	keystroke	l	n/a
44.1635	0.149	88327	keystroke	a	n/a
44.2375	0.151	88475	keystroke	c	n/a
44.4625	0.165	88925	keystroke	i	n/a
44.5525	0.15	89105	keystroke	n	n/a
44.6875	0.12	89375	keystroke	g	n/a
44.8975	0.135	89795	keystroke	Key.space	n/a
45.1825	0.135	90365	keystroke	c	n/a
45.3335	0.149	90667	keystroke	a	n/a
45.4985	0.1345	90997	keystroke	p	n/a
45.618	0.15	91236	keystroke	a	n/a
45.843	0.105	91686	keystroke	b	n/a
47.313	0.09	94626	keystroke	Key.backspace	n/a
48.1385	0.09	96277	keystroke	Key.backspace	n/a
48.3185	0.15	96637	keystroke	Key.backspace	n/a
48.8435	0.12	97687	keystroke	b	n/a
49.0085	0.15	98017	keystroke	l	n/a
49.1135	0.12	98227	keystroke	e	n/a
49.3235	0.15	98647	keystroke	s	n/a
49.4885	0.1495	98977	keystroke	Key.space	n/a
49.863	0.135	99726	keystroke	e	n/a
50.5235	0.135	101047	keystroke	u	n/a
51.4385	0.075	102877	keystroke	Key.backspace	n/a
51.5285	0.15	103057	keystroke	q	n/a
51.6485	0.12	103297	keystroke	u	n/a
51.9485	0.165	103897	keystroke	a	n/a
52.2635	0.12	104527	keystroke	l	n/a
52.5185	0.15	105037	keystroke	i	n/a
52.6985	0.1345	105397	keystroke	t	n/a
52.773	0.135	105546	keystroke	y	n/a
52.983	0.135	105966	keystroke	Key.space	n/a
53.238	0.105	106476	keystroke	b	n/a
53.358	0.15	106716	keystroke	r	n/a
53.448	0.135	106896	keystroke	e	n/a
53.6435	0.135	107287	keystroke	a	n/a
53.7635	0.165	107527	keystroke	k	n/a
54.0485	0.135	108097	keystroke	d	n/a
54.1685	0.135	108337	keystroke	o	n/a
54.2735	0.135	108547	keystroke	w	n/a
54.3785	0.135	108757	keystroke	n	n/a
54.9485	0.15	109897	keystroke	Key.enter	n/a
55.103	8.3515	110206	prompt	n/a	guru cool maintains corporate\n
55.923	0.075	111846	keystroke	g	n/a
56.058	0.12	112116	keystroke	u	n/a
56.388	0.135	112776	keystroke	r	n/a
56.508	0.12	113016	keystroke	u	n/a
56.883	0.15	113766	keystroke	Key.space	n/a
57.123	0.135	114246	keystroke	c	n/a
57.273	0.1205	114546	keystroke	o	n/a
57.678	0.1045	115356	keystroke	o	n/a
57.9775	0.12	115955	keystroke	l	n/a
58.263	0.135	116526	keystroke	Key.space	n/a
58.518	0.105	117036	keystroke	m	n/a
58.698	0.15	117396	keystroke	a	n/a
58.803	0.15	117606	keystroke	i	n/a
58.893	0.12	117786	keystroke	n	n/a
59.058	0.12	118116	keystroke	t	n/a
59.238	0.15	118476	keystroke	a	n/a
59.373	0.165	118746	keystroke	i	n/a
59.433	0.15	118866	keystroke	n	n/a
59.613	0.165	119226	keystroke	s	n/a
60.1385	0.165	120277	keystroke	Key.space	n/a
60.3635	0.165	120727	keystroke	c	n/a
60.4835	0.135	120967	keystroke	o	n/a
60.7535	0.135	121507	keystroke	m	n/a
61.263	0.075	122526	keystroke	Key.backspace	n/a
61.458	0.12	122916	keystroke	r	n/a
61.728	0.135	123456	keystroke	p	n/a
61.983	0.12	123966	keystroke	o	n/a
62.118	0.12	124236	keystroke	r	n/a
62.283	0.18	124566	keystroke	a	n/a
62.388	0.15	124776	keystroke	t	n/a
62.539	0.119	125078	keystroke	e	n/a
63.303	0.15	126606	keystroke	Key.enter	n/a
63.4575	7.272	126915	prompt	n/a	tablets racks pour suited\n
64.2935	0.09	128587	keystroke	t	n/a
64.4285	0.165	128857	keystroke	a	n/a
64.5785	0.09	129157	keystroke	b	n/a
64.7735	0.135	129547	keystroke	l	n/a
64.8475	0.151	129695	keystroke	e	n/a
65.0435	0.12	130087	keystroke	t	n/a
65.688	0.1655	131376	keystroke	s	n/a
66.0935	0.18	132187	keystroke	Key.space	n/a
66.3335	0.1195	132667	keystroke	r	n/a
66.513	0.18	133026	keystroke	a	n/a
66.618	0.165	133236	keystroke	c	n/a
66.753	0.165	133506	keystroke	k	n/a
66.903	0.15	133806	keystroke	s	n/a
67.188	0.135	134376	keystroke	Key.space	n/a
67.443	0.135	134886	keystroke	p	n/a
67.818	0.195	135636	keystroke	o	n/a
67.908	0.18	135816	keystroke	u	n/a
68.358	0.135	136716	keystroke	r	n/a
68.868	0.165	137736	keystroke	Key.space	n/a
69.378	0.18	138756	keystroke	s	n/a
69.528	0.135	139056	keystroke	u	n/a
69.618	0.165	139236	keystroke	i	n/a
69.753	0.09	139506	keystroke	t	n/a
69.8875	0.135	139775	keystroke	e	n/a
70.0975	0.1655	140195	keystroke	d	n/a
70.5775	0.1505	141155	keystroke	Key.enter	n/a
70.7325	9.193	141465	prompt	n/a	ntsc toolbar approved queens\n
71.5835	0.105	143167	keystroke	n	n/a
72.0035	0.105	144007	keystroke	t	n/a
72.3925	0.136	144785	keystroke	s	n/a
72.5885	0.15	145177	keystroke	c	n/a
72.9475	0.151	145895	keystroke	Key.space	n/a
73.1135	0.105	146227	keystroke	t	n/a
73.2335	0.075	146467	keystroke	o	n/a
73.4135	0.119	146827	keystroke	o	n/a
73.6085	0.165	147217	keystroke	l	n/a
73.9985	0.105	147997	keystroke	b	n/a
74.1335	0.165	148267	keystroke	a	n/a
74.1935	0.18	148387	keystroke	r	n/a
74.7175	0.151	149435	keystroke	Key.space	n/a
75.0935	0.09	150187	keystroke	a	n/a
75.2585	0.074	150517	keystroke	p	n/a
75.4375	0.12	150875	keystroke	p	n/a
75.5435	0.134	151087	keystroke	r	n/a
75.6625	0.15	151325	keystroke	o	n/a
75.8275	0.076	151655	keystroke	v	n/a
75.9935	0.15	151987	keystroke	e	n/a
76.2025	0.151	152405	keystroke	d	n/a
77.1325	0.1355	154265	keystroke	Key.space	n/a
77.373	0.12	154746	keystroke	q	n/a
77.523	0.12	155046	keystroke	u	n/a
77.598	0.105	155196	keystroke	e	n/a
77.808	0.18	155616	keystroke	s	n/a
78.4975	0.105	156995	keystroke	Key.backspace	n/a
78.6175	0.15	157235	keystroke	e	n/a
78.7975	0.12	157595	keystroke	n	n/a
78.9325	0.15	157865	keystroke	s	n/a
79.7725	0.15	159545	keystroke	Key.enter	n/a
79.9315	9.953	159863	prompt	n/a	reid which rings terms\n
80.673	0.135	161346	keystroke	r	n/a
81.588	0.0445	163176	keystroke	e	n/a
81.6475	0.09	163295	keystroke	i	n/a
81.8725	0.151	163745	keystroke	d	n/a
82.3225	0.165	164645	keystroke	Key.space	n/a
82.5935	0.1345	165187	keystroke	s	n/a
82.6675	0.1355	165335	keystroke	h	n/a
82.743	0.15	165486	keystroke	i	n/a
83.238	0.06	166476	keystroke	Key.backspace	n/a
83.403	0.105	166806	keystroke	Key.backspace	n/a
83.478	0.165	166956	keystroke	w	n/a
83.628	0.135	167256	keystroke	h	n/a
83.733	0.06	167466	keystroke	i	n/a
83.973	0.075	167946	keystroke	Key.backspace	n/a
84.1525	0.075	168305	keystroke	Key.backspace	n/a
84.3325	0.045	168665	keystroke	Key.backspace	n/a
84.4675	0.15	168935	keystroke	Key.backspace	n/a
84.6935	0.149	169387	keystroke	w	n/a
84.8585	0.164	169717	keystroke	h	n/a
85.1885	0.149	170377	keystroke	i	n/a
85.3675	0.165	170735	keystroke	c	n/a
85.4875	0.1355	170975	keystroke	h	n/a
86.133	0.135	172266	keystroke	Key.space	n/a
86.418	0.12	172836	keystroke	r	n/a
86.553	0.135	173106	keystroke	i	n/a
86.718	0.105	173436	keystroke	g	n/a
87.138	0.075	174276	keystroke	Key.backspace	n/a
87.363	0.12	174726	keystroke	n	n/a
87.438	0.105	174876	keystroke	g	n/a
87.663	0.165	175326	keystroke	s	n/a
88.2485	0.165	176497	keystroke	Key.space	n/a
88.5185	0.09	177037	keystroke	t	n/a
88.6985	0.135	177397	keystroke	e	n/a
88.7735	0.135	177547	keystroke	r	n/a
88.9835	0.164	177967	keystroke	m	n/a
89.0875	0.15	178175	keystroke	s	n/a
89.718	0.165	179436	keystroke	Key.enter	n/a
89.8875	8.187	179775	prompt	n/a	decade jpeg dock orders\n
90.678	0.09	181356	keystroke	d	n/a
90.858	0.105	181716	keystroke	e	n/a
91.0685	0.15	182137	keystroke	c	n/a
91.2035	0.135	182407	keystroke	a	n/a
91.878	0.135	183756	keystroke	d	n/a
92.223	0.1355	184446	keystroke	e	n/a
92.6425	0.135	185285	keystroke	Key.space	n/a
93.0175	0.106	186035	keystroke	j	n/a
93.1825	0.18	186365	keystroke	p	n/a
93.4975	0.1355	186995	keystroke	e	n/a
93.843	0.12	187686	keystroke	g	n/a
94.353	0.15	188706	keystroke	Key.space	n/a
94.638	0.15	189276	keystroke	d	n/a
94.773	0.15	189546	keystroke	o	n/a
94.878	0.1495	189756	keystroke	c	n/a
95.5225	0.15	191045	keystroke	k	n/a
95.8225	0.135	191645	keystroke	Key.space	n/a
96.0025	0.135	192005	keystroke	o	n/a
96.1075	0.12	192215	keystroke	r	n/a
96.3485	0.15	192697	keystroke	d	n/a
96.5885	0.135	193177	keystroke	e	n/a
96.6485	0.165	193297	keystroke	r	n/a
96.8735	0.165	193747	keystroke	s	n/a
97.923	0.15	195846	keystroke	Key.enter	n/a
98.078	14.3515	196156	prompt	n/a	toronto burton abraham mario\n
99.903	0.09	199806	keystroke	t	n/a
100.368	0.12	200736	keystroke	o	n/a
100.548	0.135	201096	keystroke	r	n/a
100.668	0.135	201336	keystroke	o	n/a
100.923	0.135	201846	keystroke	n	n/a
101.118	0.12	202236	keystroke	t	n/a
101.223	0.12	202446	keystroke	o	n/a
101.583	0.12	203166	keystroke	Key.space	n/a
101.808	0.09	203616	keystroke	b	n/a
102.033	0.12	204066	keystroke	u	n/a
102.138	0.12	204276	keystroke	r	n/a
102.498	0.105	204996	keystroke	t	n/a
102.633	0.21	205266	keystroke	o	n/a
102.753	0.12	205506	keystroke	n	n/a
103.9825	0.135	207965	keystroke	Key.space	n/a
104.2525	0.12	208505	keystroke	b	n/a
104.4025	0.181	208805	keystroke	a	n/a
105.0035	0.06	210007	keystroke	Key.backspace	n/a
105.1535	0.1045	210307	keystroke	Key.backspace	n/a
105.243	0.165	210486	keystroke	a	n/a
105.513	0.1495	211026	keystroke	b	n/a
106.443	0.12	212886	keystroke	r	n/a
106.653	0.1495	213306	keystroke	a	n/a
108.198	0.135	216396	keystroke	h	n/a
108.903	0.18	217806	keystroke	a	n/a
109.188	0.165	218376	keystroke	m	n/a
109.398	0.15	218796	keystroke	Key.space	n/a
109.6375	0.15	219275	keystroke	m	n/a
109.7275	0.15	219455	keystroke	a	n/a
110.178	0.15	220356	keystroke	r	n/a
110.373	0.15	220746	keystroke	i	n/a
110.823	0.15	221646	keystroke	o	n/a
112.293	0.135	224586	keystroke	Key.enter	n/a
112.4325	10.182	224865	prompt	n/a	seal antibody klein automobiles\n
113.1335	0.135	226267	keystroke	s	n/a
113.2835	0.12	226567	keystroke	e	n/a
113.4635	0.15	226927	keystroke	a	n/a
113.6435	0.165	227287	keystroke	l	n/a
113.7785	0.15	227557	keystroke	Key.space	n/a
114.0635	0.15	228127	keystroke	a	n/a
114.1535	0.165	228307	keystroke	n	n/a
114.6185	0.15	229237	keystroke	t	n/a
114.9785	0.135	229957	keystroke	i	n/a
115.293	0.075	230586	keystroke	b	n/a
115.458	0.12	230916	keystroke	o	n/a
115.533	0.1505	231066	keystroke	d	n/a
115.7285	0.135	231457	keystroke	y	n/a
115.9985	0.12	231997	keystroke	Key.space	n/a
116.2535	0.15	232507	keystroke	k	n/a
116.5835	0.135	233167	keystroke	l	n/a
116.8375	0.165	233675	keystroke	e	n/a
117.828	0.165	235656	keystroke	i	n/a
117.888	0.18	235776	keystroke	n	n/a
118.1725	0.1355	236345	keystroke	Key.space	n/a
118.4575	0.15	236915	keystroke	a	n/a
119.1775	0.135	238355	keystroke	u	n/a
119.6875	0.15	239375	keystroke	t	n/a
119.8525	0.165	239705	keystroke	o	n/a
120.1975	0.0905	240395	keystroke	b	n/a
120.708	0.09	241416	keystroke	Key.backspace	n/a
120.978	0.105	241956	keystroke	m	n/a
121.158	0.1205	242316	keystroke	o	n/a
121.308	0.12	242616	keystroke	b	n/a
121.473	0.12	242946	keystroke	i	n/a
121.698	0.12	243396	keystroke	l	n/a
121.908	0.12	243816	keystroke	e	n/a
122.148	0.15	244296	keystroke	s	n/a
122.463	0.15	244926	keystroke	Key.enter	n/a
122.6175	12.042	245235	prompt	n/a	regulatory turner classical italiano\n
123.5275	0.1505	247055	keystroke	r	n/a
123.603	0.135	247206	keystroke	e	n/a
123.858	0.105	247716	keystroke	g	n/a
124.443	0.09	248886	keystroke	u	n/a
124.668	0.135	249336	keystroke	l	n/a
124.788	0.15	249576	keystroke	a	n/a
125.2075	0.1205	250415	keystroke	t	n/a
126.003	0.105	252006	keystroke	o	n/a
126.123	0.045	252246	keystroke	r	n/a
126.153	0.135	252306	keystroke	y	n/a
126.363	0.15	252726	keystroke	Key.space	n/a
126.603	0.09	253206	keystroke	t	n/a
126.708	0.105	253416	keystroke	u	n/a
126.798	0.12	253596	keystroke	r	n/a
126.933	0.105	253866	keystroke	n	n/a
127.443	0.165	254886	keystroke	e	n/a
127.533	0.165	255066	keystroke	r	n/a
128.043	0.135	256086	keystroke	Key.space	n/a
128.223	0.15	256446	keystroke	c	n/a
128.388	0.15	256776	keystroke	l	n/a
128.493	0.15	256986	keystroke	a	n/a
128.688	0.12	257376	keystroke	s	n/a
128.928	0.15	257856	keystroke	s	n/a
129.123	0.15	258246	keystroke	i	n/a
129.183	0.165	258366	keystroke	c	n/a
129.318	0.165	258636	keystroke	a	n/a
129.513	0.2105	259026	keystroke	l	n/a
129.6335	0.15	259267	keystroke	Key.space	n/a
130.1285	0.15	260257	keystroke	i	n/a
130.3235	0.1045	260647	keystroke	t	n/a
130.953	0.165	261906	keystroke	a	n/a
131.418	0.105	262836	keystroke	l	n/a
131.658	0.105	263316	keystroke	i	n/a
132.333	0.105	264666	keystroke	n	n/a
132.723	0.12	265446	keystroke	Key.backspace	n/a
132.858	0.165	265716	keystroke	a	n/a
133.083	0.135	266166	keystroke	n	n/a
133.488	0.15	266976	keystroke	o	n/a
134.508	0.1505	269016	keystroke	Key.enter	n/a
134.663	9.1765	269326	prompt	n/a	idle appear dispatched once\n
135.363	0.12	270726	keystroke	i	n/a
135.484	0.149	270968	keystroke	d	n/a
135.663	0.15	271326	keystroke	l	n/a
135.768	0.1345	271536	keystroke	e	n/a
136.2775	0.09	272555	keystroke	Key.space	n/a
136.4725	0.135	272945	keystroke	a	n/a
136.6225	0.075	273245	keystroke	p	n/a
136.7875	0.12	273575	keystroke	p	n/a
136.8925	0.135	273785	keystroke	e	n/a
137.193	0.2255	274386	keystroke	a	n/a
137.3585	0.165	274717	keystroke	r	n/a
137.9135	0.18	275827	keystroke	Key.space	n/a
138.2435	0.12	276487	keystroke	d	n/a
138.3785	0.135	276757	keystroke	i	n/a
138.4685	0.105	276937	keystroke	s	n/a
138.708	0.15	277416	keystroke	p	n/a
138.873	0.195	277746	keystroke	a	n/a
139.053	0.12	278106	keystroke	t	n/a
139.188	0.165	278376	keystroke	e	n/a
139.503	0.12	279006	keystroke	c	n/a
139.638	0.12	279276	keystroke	h	n/a
139.728	0.12	279456	keystroke	e	n/a
139.953	0.135	279906	keystroke	d	n/a
140.4475	0.075	280895	keystroke	Key.backspace	n/a
140.6425	0.09	281285	keystroke	Key.backspace	n/a
140.8375	0.105	281675	keystroke	Key.backspace	n/a
141.0475	0.075	282095	keystroke	Key.backspace	n/a
141.1975	0.1505	282395	keystroke	Key.backspace	n/a
141.438	0.135	282876	keystroke	c	n/a
141.558	0.1345	283116	keystroke	h	n/a
141.663	0.1195	283326	keystroke	e	n/a
141.8575	0.15	283715	keystroke	d	n/a
142.2775	0.165	284555	keystroke	Key.space	n/a
142.683	0.1645	285366	keystroke	o	n/a
142.7425	0.165	285485	keystroke	n	n/a
142.8775	0.211	285755	keystroke	c	n/a
142.9975	0.165	285995	keystroke	e	n/a
143.703	0.135	287406	keystroke	Key.enter	n/a
143.843	7.9015	287686	prompt	n/a	text objective newbie passes\n
144.558	0.075	289116	keystroke	t	n/a
144.663	0.15	289326	keystroke	e	n/a
144.903	0.18	289806	keystroke	s	n/a
144.978	0.15	289956	keystroke	t	n/a
145.158	0.12	290316	keystroke	Key.space	n/a
145.353	0.12	290706	keystroke	o	n/a
145.518	0.15	291036	keystroke	b	n/a
145.9975	0.15	291995	keystroke	j	n/a
146.1025	0.121	292205	keystroke	e	n/a
146.8975	0.105	293795	keystroke	c	n/a
147.3325	0.075	294665	keystroke	t	n/a
147.4525	0.135	294905	keystroke	i	n/a
147.5425	0.09	295085	keystroke	v	n/a
147.7075	0.135	295415	keystroke	e	n/a
147.9925	0.135	295985	keystroke	Key.space	n/a
148.218	0.12	296436	keystroke	n	n/a
148.278	0.2545	296556	keystroke	e	n/a
148.413	0.1645	296826	keystroke	w	n/a
148.6525	0.09	297305	keystroke	b	n/a
148.8025	0.151	297605	keystroke	i	n/a
149.1485	0.135	298297	keystroke	e	n/a
149.583	0.135	299166	keystroke	Key.space	n/a
149.853	0.165	299706	keystroke	p	n/a
150.153	0.135	300306	keystroke	a	n/a
150.393	0.105	300786	keystroke	s	n/a
150.828	0.12	301656	keystroke	s	n/a
151.068	0.09	302136	keystroke	e	n/a
151.263	0.135	302526	keystroke	s	n/a
151.623	0.12	303246	keystroke	Key.enter	n/a
151.7475	12.207	303495	prompt	n/a	systems oklahoma fibre script\n
152.6725	0.1205	305345	keystroke	s	n/a
152.853	0.1205	305706	keystroke	y	n/a
152.9275	0.166	305855	keystroke	s	n/a
153.243	0.09	306486	keystroke	t	n/a
153.378	0.165	306756	keystroke	e	n/a
154.068	0.135	308136	keystroke	m	n/a
154.248	0.165	308496	keystroke	s	n/a
154.428	0.135	308856	keystroke	Key.space	n/a
154.683	0.135	309366	keystroke	o	n/a
154.923	0.1645	309846	keystroke	k	n/a
155.913	0.15	311826	keystroke	l	n/a
156.4085	0.15	312817	keystroke	a	n/a
156.933	0.135	313866	keystroke	h	n/a
157.1425	0.121	314285	keystroke	o	n/a
157.3825	0.121	314765	keystroke	m	n/a
157.5335	0.164	315067	keystroke	a	n/a
158.0125	0.15	316025	keystroke	Key.space	n/a
158.4925	0.135	316985	keystroke	f	n/a
158.9435	0.119	317887	keystroke	i	n/a
159.618	0.12	319236	keystroke	b	n/a
159.813	0.165	319626	keystroke	e	n/a
159.918	0.165	319836	keystroke	r	n/a
160.563	0.075	321126	keystroke	Key.backspace	n/a
160.728	0.135	321456	keystroke	Key.backspace	n/a
160.818	0.15	321636	keystroke	r	n/a
160.893	0.15	321786	keystroke	e	n/a
161.8525	0.15	323705	keystroke	Key.space	n/a
162.0775	0.135	324155	keystroke	s	n/a
162.2575	0.12	324515	keystroke	c	n/a
162.5425	0.195	325085	keystroke	r	n/a
162.7825	0.12	325565	keystroke	i	n/a
162.9475	0.165	325895	keystroke	p	n/a
163.0525	0.12	326105	keystroke	t	n/a
163.788	0.165	327576	keystroke	Key.enter	n/a
163.957	9.9125	327914	prompt	n/a	tickets cocktail bullet opponents\n
164.733	0.105	329466	keystroke	t	n/a
165.153	0.12	330306	keystroke	i	n/a
165.288	0.1195	330576	keystroke	c	n/a
165.3925	0.135	330785	keystroke	k	n/a
165.4975	0.1805	330995	keystroke	e	n/a
165.603	0.1055	331206	keystroke	r	n/a
166.143	0.09	332286	keystroke	Key.backspace	n/a
166.278	0.12	332556	keystroke	t	n/a
166.998	0.165	333996	keystroke	s	n/a
167.358	0.1205	334716	keystroke	Key.space	n/a
167.493	0.1345	334986	keystroke	c	n/a
167.568	0.12	335136	keystroke	o	n/a
167.7325	0.165	335465	keystroke	c	n/a
167.7775	0.18	335555	keystroke	k	n/a
168.243	0.105	336486	keystroke	t	n/a
168.4675	0.151	336935	keystroke	a	n/a
168.9935	0.105	337987	keystroke	i	n/a
169.1885	0.195	338377	keystroke	l	n/a
169.3385	0.15	338677	keystroke	Key.space	n/a
169.6385	0.075	339277	keystroke	b	n/a
169.8475	0.121	339695	keystroke	u	n/a
170.1025	0.06	340205	keystroke	l	n/a
170.2525	0.15	340505	keystroke	l	n/a
170.5075	0.105	341015	keystroke	e	n/a
170.6875	0.12	341375	keystroke	t	n/a
170.8525	0.15	341705	keystroke	Key.space	n/a
171.1225	0.12	342245	keystroke	o	n/a
171.3775	0.075	342755	keystroke	p	n/a
171.5275	0.091	343055	keystroke	p	n/a
171.7385	0.12	343477	keystroke	o	n/a
171.9785	0.09	343957	keystroke	n	n/a
172.3535	0.15	344707	keystroke	e	n/a
172.4885	0.135	344977	keystroke	n	n/a
172.938	0.12	345876	keystroke	t	n/a
173.2685	0.15	346537	keystroke	s	n/a
173.7335	0.135	347467	keystroke	Key.enter	n/a
173.8745	11.335	347749	prompt	n/a	insertion gamecube kathy harper\n
174.9925	0.121	349985	keystroke	i	n/a
175.2335	0.119	350467	keystroke	n	n/a
175.458	0.21	350916	keystroke	s	n/a
175.533	0.21	351066	keystroke	e	n/a
175.683	0.15	351366	keystroke	r	n/a
175.953	0.12	351906	keystroke	t	n/a
176.013	0.195	352026	keystroke	i	n/a
176.103	0.18	352206	keystroke	o	n/a
176.193	0.165	352386	keystroke	n	n/a
177.0475	0.165	354095	keystroke	Key.space	n/a
177.5725	0.105	355145	keystroke	g	n/a
177.9485	0.164	355897	keystroke	a	n/a
178.2325	0.18	356465	keystroke	m	n/a
178.3075	0.165	356615	keystroke	e	n/a
178.4135	0.149	356827	keystroke	r	n/a
179.178	0.135	358356	keystroke	Key.backspace	n/a
179.628	0.1495	359256	keystroke	c	n/a
180.3785	0.12	360757	keystroke	u	n/a
180.6185	0.09	361237	keystroke	b	n/a
180.7385	0.149	361477	keystroke	e	n/a
181.4125	0.12	362825	keystroke	Key.space	n/a
181.743	0.18	363486	keystroke	k	n/a
181.833	0.15	363666	keystroke	a	n/a
182.073	0.105	364146	keystroke	t	n/a
182.148	0.1045	364296	keystroke	h	n/a
182.3585	0.104	364717	keystroke	y	n/a
182.6875	0.135	365375	keystroke	Key.space	n/a
182.9725	0.105	365945	keystroke	h	n/a
183.5135	0.209	367027	keystroke	a	n/a
183.6035	0.18	367207	keystroke	r	n/a
183.9925	0.135	367985	keystroke	p	n/a
184.1425	0.135	368285	keystroke	e	n/a
184.1885	0.165	368377	keystroke	r	n/a
185.0575	0.15	370115	keystroke	Key.enter	n/a
185.2125	6.897	370425	prompt	n/a	cats ranges rocky dodge\n
185.9275	0.12	371855	keystroke	c	n/a
186.0335	0.224	372067	keystroke	a	n/a
186.1975	0.1355	372395	keystroke	t	n/a
186.423	0.135	372846	keystroke	s	n/a
186.693	0.15	373386	keystroke	Key.space	n/a
186.858	0.105	373716	keystroke	r	n/a
186.993	0.165	373986	keystroke	a	n/a
187.113	0.12	374226	keystroke	n	n/a
187.218	0.075	374436	keystroke	g	n/a
187.338	0.12	374676	keystroke	e	n/a
187.563	0.1345	375126	keystroke	s	n/a
188.1025	0.165	376205	keystroke	Key.space	n/a
188.4175	0.135	376835	keystroke	r	n/a
188.5375	0.12	377075	keystroke	o	n/a
188.6875	0.165	377375	keystroke	c	n/a
188.8075	0.15	377615	keystroke	k	n/a
189.168	0.12	378336	keystroke	y	n/a
189.438	0.15	378876	keystroke	Key.space	n/a
189.723	0.12	379446	keystroke	d	n/a
189.828	0.135	379656	keystroke	o	n/a
190.203	0.12	380406	keystroke	d	n/a
190.4735	0.075	380947	keystroke	g	n/a
190.6685	0.165	381337	keystroke	e	n/a
191.2085	0.12	382417	keystroke	s	n/a
191.6735	0.1045	383347	keystroke	Key.backspace	n/a
191.958	0.15	383916	keystroke	Key.enter	n/a
192.1145	9.46	384229	prompt	n/a	facing starting studio laboratory\n
192.9335	0.12	385867	keystroke	f	n/a
193.0685	0.165	386137	keystroke	a	n/a
193.1585	0.18	386317	keystroke	c	n/a
193.4435	0.15	386887	keystroke	i	n/a
193.5335	0.15	387067	keystroke	n	n/a
193.6535	0.1045	387307	keystroke	g	n/a
193.788	0.12	387576	keystroke	Key.space	n/a
193.968	0.15	387936	keystroke	s	n/a
194.148	0.105	388296	keystroke	t	n/a
194.283	0.195	388566	keystroke	a	n/a
194.373	0.1355	388746	keystroke	r	n/a
194.5985	0.12	389197	keystroke	t	n/a
194.8085	0.15	389617	keystroke	i	n/a
195.0335	0.09	390067	keystroke	g	n/a
195.408	0.15	390816	keystroke	Key.backspace	n/a
195.9625	0.135	391925	keystroke	n	n/a
196.0825	0.1055	392165	keystroke	g	n/a
196.503	0.165	393006	keystroke	Key.space	n/a
196.8785	0.1195	393757	keystroke	s	n/a
197.088	0.105	394176	keystroke	t	n/a
197.178	0.12	394356	keystroke	u	n/a
197.313	0.15	394626	keystroke	d	n/a
197.448	0.135	394896	keystroke	i	n/a
197.598	0.225	395196	keystroke	o	n/a
197.748	0.165	395496	keystroke	Key.space	n/a
198.213	0.15	396426	keystroke	l	n/a
198.303	0.135	396606	keystroke	a	n/a
198.483	0.075	396966	keystroke	b	n/a
198.663	0.15	397326	keystroke	o	n/a
199.113	0.135	398226	keystroke	r	n/a
199.293	0.135	398586	keystroke	a	n/a
199.548	0.135	399096	keystroke	t	n/a
199.7875	0.165	399575	keystroke	o	n/a
200.0575	0.105	400115	keystroke	t	n/a
200.2075	0.135	400415	keystroke	y	n/a
200.7175	0.075	401435	keystroke	Key.backspace	n/a
200.8825	0.105	401765	keystroke	Key.backspace	n/a
201.0175	0.135	402035	keystroke	r	n/a
201.1375	0.09	402275	keystroke	y	n/a
201.4225	0.15	402845	keystroke	Key.enter	n/a
201.577	9.8375	403154	prompt	n/a	bingo touched there's boutique\n
202.338	0.09	404676	keystroke	b	n/a
202.5025	0.1655	405005	keystroke	i	n/a
202.608	0.195	405216	keystroke	n	n/a
203.1785	0.165	406357	keystroke	g	n/a
203.4335	0.15	406867	keystroke	o	n/a
203.8385	0.165	407677	keystroke	Key.space	n/a
204.153	0.105	408306	keystroke	t	n/a
204.288	0.18	408576	keystroke	o	n/a
204.363	0.135	408726	keystroke	u	n/a
204.678	0.12	409356	keystroke	c	n/a
204.813	0.12	409626	keystroke	h	n/a
204.918	0.105	409836	keystroke	e	n/a
205.128	0.105	410256	keystroke	d	n/a
205.593	0.1655	411186	keystroke	Key.space	n/a
205.8785	0.0895	411757	keystroke	t	n/a
206.028	0.12	412056	keystroke	h	n/a
206.118	0.105	412236	keystroke	e	n/a
206.163	0.21	412326	keystroke	r	n/a
206.313	0.12	412626	keystroke	e	n/a
206.478	0.15	412956	keystroke	'	n/a
206.583	0.15	413166	keystroke	s	n/a
206.8675	0.1355	413735	keystroke	Key.space	n/a
207.768	0.09	415536	keystroke	b	n/a
207.948	0.18	415896	keystroke	o	n/a
208.023	0.165	416046	keystroke	u	n/a
208.173	0.12	416346	keystroke	t	n/a
208.428	0.165	416856	keystroke	i	n/a
208.683	0.15	417366	keystroke	q	n/a
208.788	0.135	417576	keystroke	u	n/a
208.878	0.12	417756	keystroke	e	n/a
211.31	0.103	422620	keystroke	Key.enter	n/a
211.4175	11.097	422835	prompt	n/a	collaborative games closest support\n
212.2225	0.15	424445	keystroke	c	n/a
212.6575	0.075	425315	keystroke	o	n/a
212.8825	0.075	425765	keystroke	l	n/a
213.0325	0.166	426065	keystroke	l	n/a
213.5285	0.1045	427057	keystroke	b	n/a
214.083	0.075	428166	keystroke	Key.backspace	n/a
214.233	0.165	428466	keystroke	a	n/a
214.443	0.15	428886	keystroke	b	n/a
214.9085	0.1495	429817	keystroke	o	n/a
215.073	0.135	430146	keystroke	r	n/a
215.268	0.255	430536	keystroke	a	n/a
215.403	0.135	430806	keystroke	t	n/a
215.598	0.15	431196	keystroke	i	n/a
215.688	0.09	431376	keystroke	v	n/a
215.838	0.135	431676	keystroke	e	n/a
216.258	0.165	432516	keystroke	Key.space	n/a
216.573	0.12	433146	keystroke	g	n/a
216.768	0.135	433536	keystroke	a	n/a
216.888	0.165	433776	keystroke	m	n/a
216.978	0.105	433956	keystroke	e	n/a
217.158	0.15	434316	keystroke	s	n/a
217.608	0.15	435216	keystroke	Key.space	n/a
218.043	0.15	436086	keystroke	c	n/a
218.223	0.105	436446	keystroke	l	n/a
218.433	0.1345	436866	keystroke	o	n/a
218.5825	0.18	437165	keystroke	s	n/a
219.1835	0.134	438367	keystroke	e	n/a
219.4525	0.15	438905	keystroke	s	n/a
219.7075	0.12	439415	keystroke	t	n/a
220.2775	0.165	440555	keystroke	Key.space	n/a
220.7135	0.1345	441427	keystroke	s	n/a
220.833	0.1055	441666	keystroke	u	n/a
221.1185	0.045	442237	keystroke	p	n/a
221.3125	0.015	442625	keystroke	p	n/a
221.403	0.1495	442806	keystroke	o	n/a
221.523	0.1195	443046	keystroke	r	n/a
221.7485	0.105	443497	keystroke	t	n/a
222.3635	0.15	444727	keystroke	Key.enter	n/a
222.519	8.8755	445038	prompt	n/a	claire dayton char truck\n
223.518	0.12	447036	keystroke	c	n/a
223.863	0.15	447726	keystroke	a	n/a
223.998	0.15	447996	keystroke	l	n/a
224.373	0.06	448746	keystroke	Key.backspace	n/a
224.523	0.105	449046	keystroke	Key.backspace	n/a
224.748	0.15	449496	keystroke	l	n/a
224.838	0.135	449676	keystroke	a	n/a
225.003	0.15	450006	keystroke	i	n/a
225.318	0.165	450636	keystroke	r	n/a
225.393	0.165	450786	keystroke	e	n/a
225.8735	0.18	451747	keystroke	Key.space	n/a
226.1585	0.15	452317	keystroke	d	n/a
226.4135	0.135	452827	keystroke	y	n/a
227.0585	0.09	454117	keystroke	Key.backspace	n/a
227.1335	0.15	454267	keystroke	a	n/a
227.2835	0.135	454567	keystroke	y	n/a
227.6135	0.135	455227	keystroke	t	n/a
227.7485	0.18	455497	keystroke	o	n/a
227.8235	0.165	455647	keystroke	n	n/a
228.0935	0.1495	456187	keystroke	Key.space	n/a
228.303	0.12	456606	keystroke	c	n/a
228.408	0.12	456816	keystroke	h	n/a
228.543	0.2405	457086	keystroke	a	n/a
228.6785	0.18	457357	keystroke	r	n/a
229.2785	0.15	458557	keystroke	Key.space	n/a
229.758	0.09	459516	keystroke	t	n/a
229.9685	0.105	459937	keystroke	r	n/a
230.1185	0.12	460237	keystroke	u	n/a
230.2235	0.135	460447	keystroke	c	n/a
230.3585	0.1495	460717	keystroke	k	n/a
231.2435	0.15	462487	keystroke	Key.enter	n/a
231.3975	8.652	462795	prompt	n/a	slot fake dude certification\n
232.7585	0.15	465517	keystroke	s	n/a
232.8785	0.105	465757	keystroke	l	n/a
233.1035	0.15	466207	keystroke	o	n/a
233.2535	0.12	466507	keystroke	t	n/a
233.703	0.15	467406	keystroke	Key.space	n/a
233.868	0.135	467736	keystroke	f	n/a
234.0935	0.119	468187	keystroke	a	n/a
234.1975	0.165	468395	keystroke	k	n/a
234.3185	0.12	468637	keystroke	e	n/a
234.5725	0.151	469145	keystroke	Key.space	n/a
234.7985	0.165	469597	keystroke	c	n/a
235.0385	0.165	470077	keystroke	u	n/a
235.3525	0.06	470705	keystroke	Key.backspace	n/a
235.4875	0.12	470975	keystroke	Key.backspace	n/a
235.5935	0.15	471187	keystroke	d	n/a
235.7285	0.134	471457	keystroke	u	n/a
235.8785	0.12	471757	keystroke	d	n/a
236.4335	0.15	472867	keystroke	e	n/a
236.7925	0.15	473585	keystroke	Key.space	n/a
236.9725	0.121	473945	keystroke	c	n/a
237.1075	0.075	474215	keystroke	o	n/a
237.5125	0.1055	475025	keystroke	Key.backspace	n/a
237.783	0.15	475566	keystroke	e	n/a
237.873	0.165	475746	keystroke	r	n/a
238.128	0.12	476256	keystroke	t	n/a
238.263	0.1505	476526	keystroke	i	n/a
238.5335	0.12	477067	keystroke	f	n/a
238.6235	0.165	477247	keystroke	i	n/a
238.9385	0.135	477877	keystroke	c	n/a
239.0885	0.15	478177	keystroke	a	n/a
239.3135	0.12	478627	keystroke	t	n/a
239.3735	0.15	478747	keystroke	i	n/a
239.4785	0.195	478957	keystroke	o	n/a
239.5685	0.195	479137	keystroke	n	n/a
239.8835	0.165	479767	keystroke	Key.enter	n/a
240.0535	9.236	480107	prompt	n/a	colonial fifteen paid played\n
240.8135	0.1345	481627	keystroke	c	n/a
240.963	0.09	481926	keystroke	o	n/a
241.143	0.105	482286	keystroke	l	n/a
241.338	0.135	482676	keystroke	o	n/a
241.563	0.1205	483126	keystroke	n	n/a
241.8185	0.165	483637	keystroke	i	n/a
242.2985	0.135	484597	keystroke	a	n/a
242.4485	0.21	484897	keystroke	l	n/a
242.5385	0.18	485077	keystroke	Key.space	n/a
242.9435	0.12	485887	keystroke	f	n/a
243.0485	0.1495	486097	keystroke	i	n/a
243.6775	0.091	487355	keystroke	f	n/a
243.9635	0.119	487927	keystroke	t	n/a
245.058	0.12	490116	keystroke	e	n/a
245.298	0.135	490596	keystroke	e	n/a
245.6425	0.135	491285	keystroke	n	n/a
245.8525	0.135	491705	keystroke	Key.space	n/a
246.0325	0.15	492065	keystroke	p	n/a
246.1675	0.1505	492335	keystroke	a	n/a
246.303	0.1345	492606	keystroke	i	n/a
246.423	0.1505	492846	keystroke	d	n/a
247.2035	0.15	494407	keystroke	Key.space	n/a
247.5335	0.1045	495067	keystroke	p	n/a
247.743	0.135	495486	keystroke	l	n/a
247.863	0.18	495726	keystroke	a	n/a
248.163	0.165	496326	keystroke	y	n/a
248.673	0.075	497346	keystroke	e	n/a
248.838	0.135	497676	keystroke	d	n/a
249.1535	0.135	498307	keystroke	Key.enter	n/a
249.293	7.7065	498586	prompt	n/a	housewares duck ages proportion\n
250.383	0.06	500766	keystroke	h	n/a
250.548	0.165	501096	keystroke	o	n/a
250.638	0.18	501276	keystroke	u	n/a
250.758	0.18	501516	keystroke	s	n/a
250.833	0.18	501666	keystroke	e	n/a
251.148	0.15	502296	keystroke	w	n/a
251.373	0.18	502746	keystroke	a	n/a
251.478	0.195	502956	keystroke	r	n/a
251.598	0.1655	503196	keystroke	e	n/a
252.0335	0.119	504067	keystroke	Key.space	n/a
252.2135	0.15	504427	keystroke	d	n/a
252.4535	0.12	504907	keystroke	u	n/a
252.5885	0.149	505177	keystroke	c	n/a
252.7225	0.151	505445	keystroke	k	n/a
252.9935	0.149	505987	keystroke	Key.space	n/a
253.2035	0.15	506407	keystroke	a	n/a
253.3835	0.089	506767	keystroke	g	n/a
253.6675	0.0155	507335	keystroke	e	n/a
253.7575	0.1505	507515	keystroke	s	n/a
254.313	0.135	508626	keystroke	Key.space	n/a
254.613	0.1205	509226	keystroke	p	n/a
254.748	0.135	509496	keystroke	r	n/a
254.8385	0.135	509677	keystroke	o	n/a
255.213	0.135	510426	keystroke	p	n/a
255.363	0.12	510726	keystroke	r	n/a
255.6035	0.12	511207	keystroke	t	n/a
255.6935	0.1345	511387	keystroke	i	n/a
255.7835	0.1945	511567	keystroke	o	n/a
255.873	0.18	511746	keystroke	n	n/a
256.833	0.165	513666	keystroke	Key.enter	n/a
257.0035	11.336	514007	prompt	n/a	wordpress testament bother parallel\n
257.778	0.12	515556	keystroke	w	n/a
257.913	0.15	515826	keystroke	o	n/a
257.973	0.12	515946	keystroke	r	n/a
258.5285	0.1495	517057	keystroke	d	n/a
259.068	0.1355	518136	keystroke	p	n/a
259.1585	0.18	518317	keystroke	r	n/a
259.2635	0.12	518527	keystroke	e	n/a
259.5185	0.1045	519037	keystroke	s	n/a
259.698	0.15	519396	keystroke	s	n/a
260.043	0.1655	520086	keystroke	Key.space	n/a
260.4185	0.09	520837	keystroke	t	n/a
260.5535	0.135	521107	keystroke	e	n/a
260.7185	0.21	521437	keystroke	s	n/a
260.8085	0.165	521617	keystroke	t	n/a
261.1085	0.165	522217	keystroke	a	n/a
261.933	0.135	523866	keystroke	m	n/a
262.008	0.135	524016	keystroke	e	n/a
262.128	0.15	524256	keystroke	n	n/a
262.323	0.18	524646	keystroke	t	n/a
263.148	0.135	526296	keystroke	Key.space	n/a
263.418	0.1195	526836	keystroke	b	n/a
264.183	0.135	528366	keystroke	o	n/a
264.318	0.06	528636	keystroke	t	n/a
264.438	0.12	528876	keystroke	h	n/a
264.483	0.165	528966	keystroke	e	n/a
264.573	0.165	529146	keystroke	r	n/a
264.798	0.135	529596	keystroke	Key.space	n/a
264.993	0.165	529986	keystroke	p	n/a
265.128	0.15	530256	keystroke	a	n/a
265.503	0.12	531006	keystroke	r	n/a
266.3125	0.166	532625	keystroke	a	n/a
267.1835	0.074	534367	keystroke	l	n/a
267.3335	0.149	534667	keystroke	l	n/a
267.4675	0.1205	534935	keystroke	e	n/a
267.588	0.1495	535176	keystroke	l	n/a
268.1885	0.1495	536377	keystroke	Key.enter	n/a
268.3425	14.472	536685	prompt	n/a	miracle he's budget axis\n
269.268	0.18	538536	keystroke	m	n/a
269.553	0.135	539106	keystroke	r	n/a
269.673	0.15	539346	keystroke	i	n/a
269.883	0.15	539766	keystroke	c	n/a
270.003	0.165	540006	keystroke	a	n/a
270.603	0.18	541206	keystroke	l	n/a
271.0985	0.15	542197	keystroke	e	n/a
272.898	0.09	545796	keystroke	Key.backspace	n/a
273.093	0.075	546186	keystroke	Key.backspace	n/a
273.258	0.15	546516	keystroke	Key.backspace	n/a
273.678	0.15	547356	keystroke	Key.backspace	n/a
274.278	0.12	548556	keystroke	Key.backspace	n/a
274.593	0.09	549186	keystroke	Key.backspace	n/a
274.938	0.15	549876	keystroke	i	n/a
275.223	0.12	550446	keystroke	r	n/a
275.703	0.135	551406	keystroke	a	n/a
275.928	0.165	551856	keystroke	c	n/a
276.3775	0.165	552755	keystroke	l	n/a
276.4975	0.165	552995	keystroke	e	n/a
277.2925	0.135	554585	keystroke	Key.space	n/a
277.5325	0.106	555065	keystroke	h	n/a
277.5625	0.121	555125	keystroke	e	n/a
277.7285	0.1795	555457	keystroke	'	n/a
277.848	0.15	555696	keystroke	s	n/a
278.193	0.135	556386	keystroke	Key.space	n/a
278.508	0.09	557016	keystroke	h	n/a
279.123	0.09	558246	keystroke	Key.backspace	n/a
279.348	0.105	558696	keystroke	b	n/a
279.558	0.12	559116	keystroke	u	n/a
279.648	0.195	559296	keystroke	d	n/a
280.053	0.09	560106	keystroke	g	n/a
280.233	0.1805	560466	keystroke	e	n/a
280.3835	0.15	560767	keystroke	t	n/a
280.773	0.1795	561546	keystroke	Key.space	n/a
281.0425	0.18	562085	keystroke	a	n/a
281.763	0.15	563526	keystroke	x	n/a
281.928	0.075	563856	keystroke	i	n/a
282.198	0.15	564396	keystroke	s	n/a
282.648	0.165	565296	keystroke	Key.enter	n/a
282.818	9.9715	565636	prompt	n/a	research accessory mongolia back\n
283.6225	0.15	567245	keystroke	r	n/a
283.6825	0.151	567365	keystroke	e	n/a
283.9675	0.166	567935	keystroke	s	n/a
284.1485	0.105	568297	keystroke	e	n/a
284.2985	0.179	568597	keystroke	a	n/a
284.3725	0.151	568745	keystroke	r	n/a
284.6585	0.134	569317	keystroke	c	n/a
284.8075	0.121	569615	keystroke	h	n/a
284.9725	0.15	569945	keystroke	Key.space	n/a
285.1975	0.136	570395	keystroke	a	n/a
285.3335	0.1045	570667	keystroke	c	n/a
285.5285	0.165	571057	keystroke	c	n/a
285.6935	0.105	571387	keystroke	e	n/a
285.9185	0.18	571837	keystroke	s	n/a
286.3985	0.105	572797	keystroke	s	n/a
286.6225	0.151	573245	keystroke	o	n/a
286.9975	0.135	573995	keystroke	r	n/a
287.1175	0.15	574235	keystroke	y	n/a
287.673	0.18	575346	keystroke	Key.space	n/a
288.093	0.12	576186	keystroke	m	n/a
288.318	0.15	576636	keystroke	o	n/a
288.363	0.1805	576726	keystroke	n	n/a
288.6785	0.12	577357	keystroke	g	n/a
288.7835	0.15	577567	keystroke	o	n/a
289.3535	0.105	578707	keystroke	l	n/a
289.5635	0.1195	579127	keystroke	i	n/a
289.653	0.15	579306	keystroke	a	n/a
290.028	0.135	580056	keystroke	Key.space	n/a
290.778	0.12	581556	keystroke	b	n/a
290.928	0.18	581856	keystroke	a	n/a
291.093	0.15	582186	keystroke	c	n/a
291.198	0.165	582396	keystroke	k	n/a
292.638	0.15	585276	keystroke	Key.enter	n/a
292.794	8.2005	585588	prompt	n/a	since newton planners spirit\n
293.703	0.1345	587406	keystroke	s	n/a
293.8385	0.134	587677	keystroke	i	n/a
293.8975	0.15	587795	keystroke	n	n/a
293.9425	0.195	587885	keystroke	c	n/a
294.063	0.1345	588126	keystroke	e	n/a
294.2125	0.1505	588425	keystroke	Key.space	n/a
294.543	0.135	589086	keystroke	n	n/a
294.603	0.21	589206	keystroke	e	n/a
294.708	0.18	589416	keystroke	w	n/a
295.1125	0.121	590225	keystroke	t	n/a
295.2475	0.1355	590495	keystroke	o	n/a
295.2935	0.1495	590587	keystroke	n	n/a
295.608	0.15	591216	keystroke	Key.space	n/a
295.893	0.105	591786	keystroke	p	n/a
296.133	0.165	592266	keystroke	l	n/a
296.523	0.135	593046	keystroke	a	n/a
296.733	0.075	593466	keystroke	n	n/a
296.913	0.12	593826	keystroke	n	n/a
297.034	0.164	594068	keystroke	e	n/a
297.108	0.15	594216	keystroke	r	n/a
297.408	0.15	594816	keystroke	s	n/a
297.6775	0.135	595355	keystroke	Key.space	n/a
297.8725	0.165	595745	keystroke	s	n/a
298.0225	0.18	596045	keystroke	p	n/a
298.3525	0.135	596705	keystroke	r	n/a
298.4725	0.18	596945	keystroke	i	n/a
298.9225	0.075	597845	keystroke	Key.backspace	n/a
299.0875	0.09	598175	keystroke	Key.backspace	n/a
299.3125	0.15	598625	keystroke	i	n/a
299.643	0.12	599286	keystroke	r	n/a
299.703	0.1655	599406	keystroke	i	n/a
299.9585	0.135	599917	keystroke	t	n/a
300.8435	0.15	601687	keystroke	Key.enter	n/a
300.998	8.6965	601996	prompt	n/a	bestsellers production middle careful\n
302.0585	0.105	604117	keystroke	b	n/a
302.1335	0.1045	604267	keystroke	e	n/a
302.313	0.195	604626	keystroke	s	n/a
302.418	0.105	604836	keystroke	t	n/a
302.853	0.135	605706	keystroke	s	n/a
302.898	0.165	605796	keystroke	e	n/a
303.333	0.075	606666	keystroke	l	n/a
303.4825	0.1655	606965	keystroke	l	n/a
303.5575	0.1805	607115	keystroke	e	n/a
303.663	0.135	607326	keystroke	r	n/a
303.903	0.15	607806	keystroke	s	n/a
304.278	0.135	608556	keystroke	Key.space	n/a
304.458	0.12	608916	keystroke	p	n/a
304.593	0.105	609186	keystroke	r	n/a
304.683	0.15	609366	keystroke	o	n/a
304.818	0.1345	609636	keystroke	d	n/a
305.3725	0.135	610745	keystroke	u	n/a
305.5085	0.119	611017	keystroke	c	n/a
305.793	0.12	611586	keystroke	t	n/a
305.898	0.135	611796	keystroke	i	n/a
305.958	0.225	611916	keystroke	o	n/a
306.078	0.2105	612156	keystroke	n	n/a
306.2735	0.135	612547	keystroke	Key.space	n/a
306.5135	0.06	613027	keystroke	m	n/a
306.6935	0.135	613387	keystroke	i	n/a
306.8435	0.12	613687	keystroke	d	n/a
307.0235	0.12	614047	keystroke	d	n/a
307.1435	0.135	614287	keystroke	l	n/a
307.2485	0.12	614497	keystroke	e	n/a
307.3985	0.135	614797	keystroke	Key.space	n/a
307.653	0.12	615306	keystroke	c	n/a
308.283	0.15	616566	keystroke	a	n/a
308.478	0.165	616956	keystroke	r	n/a
308.568	0.15	617136	keystroke	e	n/a
308.838	0.15	617676	keystroke	f	n/a
308.973	0.12	617946	keystroke	u	n/a
309.168	0.18	618336	keystroke	l	n/a
309.558	0.1345	619116	keystroke	Key.enter	n/a
309.6975	9.987	619395	prompt	n/a	cylinder liberia optimization barely\n
310.5925	0.15	621185	keystroke	c	n/a
310.8485	0.105	621697	keystroke	y	n/a
311.1175	0.121	622235	keystroke	l	n/a
311.3425	0.15	622685	keystroke	i	n/a
311.4185	0.134	622837	keystroke	n	n/a
311.5375	0.1205	623075	keystroke	d	n/a
311.733	0.15	623466	keystroke	e	n/a
311.823	0.18	623646	keystroke	r	n/a
312.018	0.15	624036	keystroke	Key.space	n/a
312.423	0.1195	624846	keystroke	l	n/a
312.6325	0.12	625265	keystroke	i	n/a
312.8725	0.12	625745	keystroke	b	n/a
313.2775	0.135	626555	keystroke	e	n/a
313.803	0.105	627606	keystroke	r	n/a
313.908	0.135	627816	keystroke	i	n/a
314.223	0.15	628446	keystroke	a	n/a
314.6275	0.1355	629255	keystroke	Key.space	n/a
314.838	0.12	629676	keystroke	o	n/a
315.033	0.1205	630066	keystroke	p	n/a
315.1835	0.12	630367	keystroke	t	n/a
315.2585	0.12	630517	keystroke	i	n/a
315.5135	0.119	631027	keystroke	m	n/a
315.8435	0.135	631687	keystroke	i	n/a
316.0235	0.135	632047	keystroke	z	n/a
316.2475	0.121	632495	keystroke	a	n/a
316.4575	0.12	632915	keystroke	t	n/a
316.5035	0.149	633007	keystroke	i	n/a
316.5925	0.21	633185	keystroke	o	n/a
316.6975	0.195	633395	keystroke	n	n/a
316.8625	0.135	633725	keystroke	Key.space	n/a
317.1025	0.1205	634205	keystroke	b	n/a
317.208	0.15	634416	keystroke	a	n/a
317.373	0.21	634746	keystroke	r	n/a
317.493	0.225	634986	keystroke	e	n/a
317.958	0.135	635916	keystroke	l	n/a
318.183	0.135	636366	keystroke	y	n/a
319.518	0.1655	639036	keystroke	Key.enter	n/a
319.687	8.7125	639374	prompt	n/a	cooper minor revenues oliver\n
321.468	0.151	642936	keystroke	c	n/a
321.888	0.045	643776	keystroke	o	n/a
322.053	0.105	644106	keystroke	o	n/a
322.293	0.15	644586	keystroke	p	n/a
322.428	0.15	644856	keystroke	e	n/a
322.518	0.165	645036	keystroke	r	n/a
322.923	0.135	645846	keystroke	Key.space	n/a
323.133	0.105	646266	keystroke	m	n/a
323.448	0.105	646896	keystroke	i	n/a
323.658	0.135	647316	keystroke	n	n/a
323.794	0.119	647588	keystroke	o	n/a
323.928	0.1205	647856	keystroke	r	n/a
324.1225	0.166	648245	keystroke	Key.space	n/a
324.4085	0.21	648817	keystroke	r	n/a
324.7085	0.135	649417	keystroke	e	n/a
324.9635	0.135	649927	keystroke	v	n/a
325.2635	0.12	650527	keystroke	e	n/a
325.5335	0.1045	651067	keystroke	n	n/a
325.7575	0.135	651515	keystroke	u	n/a
325.8775	0.15	651755	keystroke	e	n/a
326.418	0.135	652836	keystroke	s	n/a
326.613	0.1195	653226	keystroke	Key.space	n/a
326.7775	0.151	653555	keystroke	o	n/a
327.0625	0.106	654125	keystroke	l	n/a
327.2425	0.151	654485	keystroke	i	n/a
327.4685	0.12	654937	keystroke	v	n/a
327.6625	0.136	655325	keystroke	e	n/a
327.7525	0.151	655505	keystroke	r	n/a
328.233	0.165	656466	keystroke	Key.enter	n/a
328.403	11.6665	656806	prompt	n/a	happiness carefully throwing probably\n
329.268	0.09	658536	keystroke	b	n/a
329.7335	0.179	659467	keystroke	a	n/a
330.0775	0.061	660155	keystroke	Key.backspace	n/a
330.2135	0.135	660427	keystroke	Key.backspace	n/a
330.4225	0.121	660845	keystroke	h	n/a
330.5435	0.165	661087	keystroke	a	n/a
330.7235	0.075	661447	keystroke	p	n/a
330.873	0.12	661746	keystroke	p	n/a
331.128	0.135	662256	keystroke	i	n/a
331.338	0.135	662676	keystroke	n	n/a
331.443	0.105	662886	keystroke	e	n/a
331.653	0.105	663306	keystroke	s	n/a
331.833	0.165	663666	keystroke	s	n/a
332.343	0.195	664686	keystroke	Key.space	n/a
332.553	0.15	665106	keystroke	c	n/a
332.673	0.18	665346	keystroke	a	n/a
332.838	0.21	665676	keystroke	r	n/a
332.943	0.18	665886	keystroke	e	n/a
333.303	0.135	666606	keystroke	f	n/a
333.453	0.12	666906	keystroke	u	n/a
333.708	0.09	667416	keystroke	l	n/a
333.858	0.15	667716	keystroke	l	n/a
334.128	0.15	668256	keystroke	y	n/a
334.218	0.15	668436	keystroke	Key.space	n/a
334.818	0.09	669636	keystroke	t	n/a
334.878	0.106	669756	keystroke	h	n/a
335.418	0.12	670836	keystroke	r	n/a
335.568	0.15	671136	keystroke	o	n/a
335.643	0.15	671286	keystroke	w	n/a
336.2725	0.135	672545	keystroke	i	n/a
336.3475	0.15	672695	keystroke	n	n/a
336.5275	0.09	673055	keystroke	g	n/a
336.6025	0.15	673205	keystroke	Key.space	n/a
336.9925	0.12	673985	keystroke	p	n/a
337.1285	0.12	674257	keystroke	r	n/a
337.2175	0.135	674435	keystroke	o	n/a
337.908	0.09	675816	keystroke	b	n/a
338.043	0.15	676086	keystroke	a	n/a
338.298	0.105	676596	keystroke	b	n/a
338.838	0.15	677676	keystroke	l	n/a
339.108	0.135	678216	keystroke	y	n/a
339.933	0.1355	679866	keystroke	Key.enter	n/a
340.073	9.5365	680146	prompt	n/a	solutions monte certainly accurately\n
340.8335	0.1495	681667	keystroke	s	n/a
340.968	0.09	681936	keystroke	o	n/a
341.163	0.1055	682326	keystroke	l	n/a
341.3585	0.135	682717	keystroke	u	n/a
341.6135	0.1345	683227	keystroke	t	n/a
341.718	0.15	683436	keystroke	i	n/a
341.823	0.195	683646	keystroke	o	n/a
342.603	0.1345	685206	keystroke	n	n/a
342.8725	0.165	685745	keystroke	s	n/a
343.2925	0.165	686585	keystroke	Key.space	n/a
343.6235	0.075	687247	keystroke	m	n/a
343.7885	0.165	687577	keystroke	o	n/a
343.8625	0.15	687725	keystroke	n	n/a
344.0425	0.12	688085	keystroke	t	n/a
344.4025	0.1355	688805	keystroke	e	n/a
344.763	0.135	689526	keystroke	Key.space	n/a
345.063	0.12	690126	keystroke	c	n/a
345.243	0.15	690486	keystroke	e	n/a
345.333	0.15	690666	keystroke	r	n/a
345.603	0.105	691206	keystroke	t	n/a
345.8135	0.135	691627	keystroke	a	n/a
345.9785	0.165	691957	keystroke	i	n/a
346.0685	0.165	692137	keystroke	n	n/a
346.3235	0.135	692647	keystroke	l	n/a
346.5635	0.18	693127	keystroke	y	n/a
346.6535	0.135	693307	keystroke	Key.space	n/a
346.8485	0.135	693697	keystroke	a	n/a
347.0135	0.105	694027	keystroke	c	n/a
347.208	0.15	694416	keystroke	c	n/a
347.418	0.15	694836	keystroke	u	n/a
347.928	0.12	695856	keystroke	r	n/a
348.093	0.165	696186	keystroke	a	n/a
348.183	0.105	696366	keystroke	t	n/a
348.318	0.135	696636	keystroke	e	n/a
348.513	0.15	697026	keystroke	l	n/a
348.798	0.135	697596	keystroke	y	n/a
349.458	0.1495	698916	keystroke	Key.enter	n/a
349.6125	9.702	699225	prompt	n/a	closure doing bottle notebook\n
350.5535	0.15	701107	keystroke	s	n/a
351.2875	0.06	702575	keystroke	Key.backspace	n/a
351.3635	0.165	702727	keystroke	c	n/a
351.5425	0.106	703085	keystroke	l	n/a
351.7685	0.15	703537	keystroke	o	n/a
352.0075	0.135	704015	keystroke	s	n/a
352.1125	0.135	704225	keystroke	u	n/a
352.2325	0.18	704465	keystroke	r	n/a
352.3225	0.15	704645	keystroke	e	n/a
352.8175	0.15	705635	keystroke	Key.space	n/a
352.9835	0.149	705967	keystroke	d	n/a
353.0725	0.196	706145	keystroke	o	n/a
353.2085	0.194	706417	keystroke	i	n/a
353.4475	0.12	706895	keystroke	g	n/a
353.838	0.135	707676	keystroke	Key.backspace	n/a
354.543	0.135	709086	keystroke	n	n/a
354.663	0.12	709326	keystroke	g	n/a
355.0385	0.1345	710077	keystroke	Key.space	n/a
355.2335	0.1195	710467	keystroke	b	n/a
355.698	0.12	711396	keystroke	o	n/a
356.028	0.105	712056	keystroke	t	n/a
356.238	0.105	712476	keystroke	t	n/a
356.358	0.135	712716	keystroke	l	n/a
356.463	0.15	712926	keystroke	e	n/a
356.643	0.1355	713286	keystroke	Key.space	n/a
356.8685	0.1345	713737	keystroke	n	n/a
357.018	0.15	714036	keystroke	o	n/a
357.078	0.105	714156	keystroke	t	n/a
357.213	0.165	714426	keystroke	e	n/a
358.008	0.105	716016	keystroke	b	n/a
358.263	0.075	716526	keystroke	o	n/a
358.413	0.21	716826	keystroke	o	n/a
358.548	0.18	717096	keystroke	k	n/a
359.163	0.15	718326	keystroke	Key.enter	n/a
359.317	11.9975	718634	prompt	n/a	descending urgent sphere moral\n
360.1535	0.105	720307	keystroke	d	n/a
360.6035	0.135	721207	keystroke	e	n/a
361.008	0.165	722016	keystroke	s	n/a
361.503	0.12	723006	keystroke	c	n/a
361.7135	0.135	723427	keystroke	e	n/a
361.8635	0.1205	723727	keystroke	n	n/a
362.133	0.1645	724266	keystroke	d	n/a
362.3125	0.151	724625	keystroke	i	n/a
362.3725	0.166	724745	keystroke	n	n/a
362.5075	0.106	725015	keystroke	g	n/a
363.2725	0.15	726545	keystroke	Key.space	n/a
363.5585	0.1345	727117	keystroke	u	n/a
363.738	0.12	727476	keystroke	r	n/a
363.978	0.06	727956	keystroke	g	n/a
364.098	0.15	728196	keystroke	e	n/a
364.218	0.135	728436	keystroke	n	n/a
364.383	0.12	728766	keystroke	t	n/a
364.878	0.135	729756	keystroke	Key.space	n/a
365.3725	0.166	730745	keystroke	s	n/a
365.6575	0.105	731315	keystroke	h	n/a
366.1525	0.1505	732305	keystroke	p	n/a
366.648	0.06	733296	keystroke	Key.backspace	n/a
366.798	0.075	733596	keystroke	Key.backspace	n/a
367.0075	0.12	734015	keystroke	p	n/a
367.2175	0.12	734435	keystroke	h	n/a
367.4275	0.12	734855	keystroke	e	n/a
367.6835	0.165	735367	keystroke	r	n/a
367.818	0.1355	735636	keystroke	e	n/a
368.9285	0.1495	737857	keystroke	Key.space	n/a
369.153	0.09	738306	keystroke	m	n/a
369.333	0.135	738666	keystroke	o	n/a
369.408	0.105	738816	keystroke	r	n/a
369.543	0.15	739086	keystroke	a	n/a
369.663	0.15	739326	keystroke	l	n/a
371.1475	0.165	742295	keystroke	Key.enter	n/a
371.3175	11.877	742635	prompt	n/a	bill upgrades recommendations public\n
372.0625	0.09	744125	keystroke	b	n/a
372.213	0.1195	744426	keystroke	i	n/a
372.4375	0.075	744875	keystroke	l	n/a
372.5885	0.18	745177	keystroke	l	n/a
372.6635	0.18	745327	keystroke	Key.space	n/a
373.1585	0.134	746317	keystroke	g	n/a
373.2625	0.136	746525	keystroke	u	n/a
373.6675	0.061	747335	keystroke	Key.backspace	n/a
373.8035	0.09	747607	keystroke	Key.backspace	n/a
373.9685	0.134	747937	keystroke	u	n/a
374.1485	0.15	748297	keystroke	p	n/a
374.4785	0.09	748957	keystroke	g	n/a
374.8085	0.015	749617	keystroke	r	n/a
374.8385	0.225	749677	keystroke	a	n/a
375.0185	0.15	750037	keystroke	t	n/a
375.2125	0.151	750425	keystroke	e	n/a
375.5585	0.06	751117	keystroke	Key.backspace	n/a
375.7235	0.104	751447	keystroke	Key.backspace	n/a
375.8585	0.1045	751717	keystroke	d	n/a
376.068	0.105	752136	keystroke	e	n/a
376.923	0.15	753846	keystroke	s	n/a
377.1625	0.15	754325	keystroke	Key.space	n/a
377.3275	0.166	754655	keystroke	r	n/a
377.4185	0.134	754837	keystroke	e	n/a
377.6275	0.15	755255	keystroke	c	n/a
377.7625	0.135	755525	keystroke	o	n/a
378.0625	0.075	756125	keystroke	m	n/a
378.2125	0.15	756425	keystroke	m	n/a
378.633	0.135	757266	keystroke	e	n/a
378.888	0.09	757776	keystroke	n	n/a
379.053	0.15	758106	keystroke	d	n/a
379.248	0.18	758496	keystroke	a	n/a
379.368	0.135	758736	keystroke	t	n/a
379.488	0.12	758976	keystroke	i	n/a
379.578	0.21	759156	keystroke	o	n/a
379.683	0.18	759366	keystroke	n	n/a
380.043	0.15	760086	keystroke	Key.space	n/a
380.598	0.12	761196	keystroke	Key.backspace	n/a
380.823	0.135	761646	keystroke	s	n/a
381.033	0.165	762066	keystroke	Key.space	n/a
381.258	0.105	762516	keystroke	u	n/a
381.618	0.1205	763236	keystroke	Key.backspace	n/a
381.8435	0.1495	763687	keystroke	p	n/a
382.038	0.12	764076	keystroke	u	n/a
382.278	0.105	764556	keystroke	b	n/a
382.473	0.105	764946	keystroke	l	n/a
382.653	0.12	765306	keystroke	i	n/a
382.758	0.135	765516	keystroke	c	n/a
383.043	0.15	766086	keystroke	Key.enter	n/a
383.197	11.188	766394	prompt	n/a	referenced contractors terminal exact\n
384.003	0.15	768006	keystroke	r	n/a
384.108	0.1495	768216	keystroke	e	n/a
384.2875	0.12	768575	keystroke	f	n/a
384.5125	0.09	769025	keystroke	r	n/a
385.1125	0.09	770225	keystroke	Key.backspace	n/a
385.2175	0.136	770435	keystroke	e	n/a
385.5025	0.091	771005	keystroke	r	n/a
385.6685	0.135	771337	keystroke	e	n/a
385.8935	0.12	771787	keystroke	n	n/a
385.9985	0.165	771997	keystroke	c	n/a
386.1035	0.15	772207	keystroke	e	n/a
386.4485	0.15	772897	keystroke	Key.space	n/a
386.9135	0.1345	773827	keystroke	c	n/a
387.049	0.164	774098	keystroke	o	n/a
387.123	0.18	774246	keystroke	n	n/a
387.318	0.06	774636	keystroke	t	n/a
387.468	0.09	774936	keystroke	r	n/a
387.588	0.225	775176	keystroke	a	n/a
387.708	0.135	775416	keystroke	c	n/a
388.008	0.165	776016	keystroke	t	n/a
388.233	0.165	776466	keystroke	o	n/a
388.338	0.12	776676	keystroke	r	n/a
389.058	0.15	778116	keystroke	s	n/a
389.268	0.18	778536	keystroke	Key.space	n/a
389.418	0.09	778836	keystroke	t	n/a
389.568	0.1345	779136	keystroke	e	n/a
389.6275	0.165	779255	keystroke	r	n/a
389.9725	0.12	779945	keystroke	m	n/a
390.2275	0.09	780455	keystroke	i	n/a
390.4075	0.106	780815	keystroke	n	n/a
390.5435	0.1495	781087	keystroke	a	n/a
390.633	0.135	781266	keystroke	l	n/a
391.308	0.135	782616	keystroke	Key.space	n/a
391.653	0.105	783306	keystroke	e	n/a
391.908	0.1045	783816	keystroke	x	n/a
392.1175	0.181	784235	keystroke	a	n/a
392.8835	0.1345	785767	keystroke	c	n/a
393.228	0.105	786456	keystroke	t	n/a
394.2335	0.15	788467	keystroke	Key.enter	n/a
394.388	12.5065	788776	prompt	n/a	feedback males foundations turning\n
395.133	0.105	790266	keystroke	f	n/a
395.313	0.105	790626	keystroke	e	n/a
395.643	0.015	791286	keystroke	e	n/a
395.958	0.135	791916	keystroke	d	n/a
396.3635	0.12	792727	keystroke	b	n/a
396.4985	0.15	792997	keystroke	a	n/a
396.8135	0.135	793627	keystroke	c	n/a
396.9635	0.15	793927	keystroke	k	n/a
397.4135	0.15	794827	keystroke	Key.space	n/a
397.7435	0.15	795487	keystroke	m	n/a
397.9385	0.12	795877	keystroke	a	n/a
398.1185	0.15	796237	keystroke	l	n/a
398.928	0.0905	797856	keystroke	e	n/a
399.1675	0.151	798335	keystroke	s	n/a
399.438	0.165	798876	keystroke	Key.space	n/a
399.798	0.15	799596	keystroke	d	n/a
399.948	0.18	799896	keystroke	o	n/a
400.038	0.12	800076	keystroke	u	n/a
400.548	0.075	801096	keystroke	Key.backspace	n/a
400.713	0.0895	801426	keystroke	Key.backspace	n/a
401.148	0.09	802296	keystroke	Key.backspace	n/a
401.313	0.15	802626	keystroke	f	n/a
401.433	0.18	802866	keystroke	o	n/a
401.523	0.135	803046	keystroke	u	n/a
401.748	0.135	803496	keystroke	n	n/a
401.898	0.165	803796	keystroke	d	n/a
402.273	0.15	804546	keystroke	a	n/a
402.558	0.135	805116	keystroke	t	n/a
402.618	0.15	805236	keystroke	i	n/a
402.708	0.225	805416	keystroke	o	n/a
402.813	0.18	805626	keystroke	n	n/a
403.263	0.165	806526	keystroke	s	n/a
403.9675	0.18	807935	keystroke	Key.space	n/a
404.2075	0.121	808415	keystroke	t	n/a
404.3575	0.0905	808715	keystroke	u	n/a
404.433	0.135	808866	keystroke	r	n/a
404.553	0.12	809106	keystroke	n	n/a
404.748	0.18	809496	keystroke	i	n/a
404.838	0.18	809676	keystroke	n	n/a
405.003	0.12	810006	keystroke	g	n/a
406.758	0.135	813516	keystroke	Key.enter	n/a
406.899	14.8605	813798	prompt	n/a	separated places spaces organizations\n
407.718	0.12	815436	keystroke	s	n/a
407.9885	0.135	815977	keystroke	e	n/a
408.468	0.12	816936	keystroke	p	n/a
408.603	0.12	817206	keystroke	a	n/a
408.8435	0.12	817687	keystroke	r	n/a
409.0235	0.1945	818047	keystroke	a	n/a
409.1585	0.1195	818317	keystroke	t	n/a
409.308	0.1205	818616	keystroke	e	n/a
409.8335	0.12	819667	keystroke	d	n/a
410.2685	0.149	820537	keystroke	Key.space	n/a
410.4935	0.12	820987	keystroke	p	n/a
410.7035	0.12	821407	keystroke	l	n/a
410.8085	0.165	821617	keystroke	a	n/a
411.0785	0.014	822157	keystroke	c	n/a
411.2585	0.135	822517	keystroke	c	n/a
411.693	0.105	823386	keystroke	e	n/a
412.0675	0.06	824135	keystroke	Key.backspace	n/a
412.2325	0.105	824465	keystroke	Key.backspace	n/a
412.3225	0.121	824645	keystroke	e	n/a
412.8335	0.15	825667	keystroke	d	n/a
413.1775	0.12	826355	keystroke	Key.backspace	n/a
413.3425	0.166	826685	keystroke	s	n/a
413.9885	0.165	827977	keystroke	Key.space	n/a
415.188	0.12	830376	keystroke	s	n/a
415.263	0.1345	830526	keystroke	p	n/a
415.4875	0.1955	830975	keystroke	a	n/a
415.608	0.24	831216	keystroke	c	n/a
415.788	0.135	831576	keystroke	e	n/a
416.0285	0.135	832057	keystroke	s	n/a
417.2885	0.15	834577	keystroke	Key.space	n/a
417.5585	0.15	835117	keystroke	o	n/a
418.4585	0.105	836917	keystroke	r	n/a
418.7135	0.09	837427	keystroke	g	n/a
418.9235	0.165	837847	keystroke	a	n/a
419.6875	0.105	839375	keystroke	n	n/a
420.093	0.1355	840186	keystroke	i	n/a
420.2585	0.12	840517	keystroke	z	n/a
420.4835	0.135	840967	keystroke	a	n/a
420.7385	0.1345	841477	keystroke	t	n/a
420.798	0.12	841596	keystroke	i	n/a
420.888	0.1955	841776	keystroke	o	n/a
420.963	0.1655	841926	keystroke	n	n/a
421.1435	0.1495	842287	keystroke	s	n/a
421.6535	0.105	843307	keystroke	Key.enter	n/a
421.7625	11.007	843525	prompt	n/a	information furniture viewing harm\n
422.4935	0.15	844987	keystroke	i	n/a
422.5825	0.12	845165	keystroke	n	n/a
422.7175	0.091	845435	keystroke	f	n/a
422.8235	0.134	845647	keystroke	o	n/a
422.9135	0.135	845827	keystroke	r	n/a
423.0925	0.136	846185	keystroke	m	n/a
423.2125	0.151	846425	keystroke	a	n/a
423.3785	0.119	846757	keystroke	t	n/a
423.4525	0.136	846905	keystroke	i	n/a
423.5585	0.225	847117	keystroke	o	n/a
423.6475	0.181	847295	keystroke	n	n/a
424.6525	0.165	849305	keystroke	Key.space	n/a
424.8775	0.12	849755	keystroke	t	n/a
425.5675	0.09	851135	keystroke	Key.backspace	n/a
425.7025	0.1055	851405	keystroke	f	n/a
425.8225	0.12	851645	keystroke	u	n/a
425.913	0.1345	851826	keystroke	r	n/a
426.513	0.105	853026	keystroke	n	n/a
426.648	0.136	853296	keystroke	i	n/a
426.768	0.12	853536	keystroke	t	n/a
427.1135	0.03	854227	keystroke	u	n/a
427.1285	0.15	854257	keystroke	r	n/a
427.2185	0.1945	854437	keystroke	e	n/a
427.7435	0.15	855487	keystroke	Key.space	n/a
428.1185	0.09	856237	keystroke	v	n/a
428.223	0.135	856446	keystroke	i	n/a
428.343	0.21	856686	keystroke	e	n/a
428.448	0.2105	856896	keystroke	w	n/a
428.628	0.1505	857256	keystroke	i	n/a
428.7175	0.15	857435	keystroke	n	n/a
428.8535	0.134	857707	keystroke	g	n/a
429.0035	0.1495	858007	keystroke	Key.space	n/a
429.318	0.105	858636	keystroke	h	n/a
429.438	0.1955	858876	keystroke	a	n/a
429.528	0.1655	859056	keystroke	r	n/a
429.8585	0.165	859717	keystroke	m	n/a
432.6805	0.088	865361	keystroke	Key.enter	n/a
432.773	6.8515	865546	prompt	n/a	bernard nuke lobby driver\n
433.5335	0.12	867067	keystroke	b	n/a
433.983	0.15	867966	keystroke	e	n/a
434.073	0.1655	868146	keystroke	r	n/a
434.3135	0.135	868627	keystroke	n	n/a
434.4335	0.2095	868867	keystroke	a	n/a
434.538	0.135	869076	keystroke	r	n/a
434.748	0.165	869496	keystroke	d	n/a
434.973	0.12	869946	keystroke	Key.space	n/a
435.138	0.105	870276	keystroke	n	n/a
435.348	0.105	870696	keystroke	u	n/a
435.528	0.165	871056	keystroke	k	n/a
435.648	0.1505	871296	keystroke	e	n/a
436.4285	0.075	872857	keystroke	Key.space	n/a
436.6685	0.12	873337	keystroke	l	n/a
436.9085	0.1495	873817	keystroke	o	n/a
437.2685	0.09	874537	keystroke	b	n/a
437.4635	0.09	874927	keystroke	b	n/a
437.6885	0.135	875377	keystroke	y	n/a
438.1985	0.135	876397	keystroke	Key.space	n/a
438.4085	0.135	876817	keystroke	d	n/a
438.6485	0.09	877297	keystroke	r	n/a
438.7535	0.1495	877507	keystroke	i	n/a
438.873	0.105	877746	keystroke	v	n/a
439.038	0.135	878076	keystroke	e	n/a
439.113	0.15	878226	keystroke	r	n/a
439.458	0.165	878916	keystroke	Key.enter	n/a
439.6275	8.112	879255	prompt	n/a	examples titans multi perfectly\n
440.2985	0.105	880597	keystroke	e	n/a
440.5235	0.12	881047	keystroke	x	n/a
440.7035	0.165	881407	keystroke	a	n/a
440.7935	0.12	881587	keystroke	m	n/a
441.0035	0.105	882007	keystroke	p	n/a
441.213	0.135	882426	keystroke	l	n/a
441.288	0.12	882576	keystroke	e	n/a
441.468	0.15	882936	keystroke	s	n/a
441.783	0.165	883566	keystroke	Key.space	n/a
442.338	0.105	884676	keystroke	t	n/a
442.458	0.1505	884916	keystroke	i	n/a
442.5925	0.121	885185	keystroke	t	n/a
443.1485	0.15	886297	keystroke	a	n/a
443.5835	0.104	887167	keystroke	n	n/a
443.7485	0.18	887497	keystroke	s	n/a
444.2285	0.135	888457	keystroke	Key.space	n/a
444.4385	0.12	888877	keystroke	m	n/a
444.6485	0.09	889297	keystroke	u	n/a
444.828	0.12	889656	keystroke	l	n/a
444.948	0.135	889896	keystroke	t	n/a
445.068	0.135	890136	keystroke	i	n/a
445.3075	0.135	890615	keystroke	Key.space	n/a
445.4875	0.1355	890975	keystroke	p	n/a
445.608	0.135	891216	keystroke	e	n/a
445.698	0.15	891396	keystroke	r	n/a
446.148	0.12	892296	keystroke	f	n/a
446.328	0.12	892656	keystroke	e	n/a
446.508	0.12	893016	keystroke	c	n/a
446.7475	0.12	893495	keystroke	t	n/a
446.8835	0.164	893767	keystroke	l	n/a
447.153	0.15	894306	keystroke	y	n/a
447.573	0.1655	895146	keystroke	Key.enter	n/a
447.7425	13.197	895485	prompt	n/a	indicated trick formatting analyzed\n
448.5935	0.165	897187	keystroke	i	n/a
448.6985	0.135	897397	keystroke	n	n/a
448.8485	0.135	897697	keystroke	d	n/a
448.9385	0.15	897877	keystroke	i	n/a
449.2685	0.1495	898537	keystroke	c	n/a
449.419	0.164	898838	keystroke	a	n/a
449.613	0.135	899226	keystroke	t	n/a
449.749	0.164	899498	keystroke	i	n/a
449.898	0.06	899796	keystroke	n	n/a
450.5275	0.09	901055	keystroke	Key.backspace	n/a
450.6925	0.151	901385	keystroke	Key.backspace	n/a
450.963	0.15	901926	keystroke	d	n/a
451.593	0.285	903186	keystroke	Key.backspace	n/a
452.163	0.136	904326	keystroke	e	n/a
452.358	0.15	904716	keystroke	d	n/a
452.7325	0.1655	905465	keystroke	Key.space	n/a
452.989	0.074	905978	keystroke	t	n/a
453.169	0.119	906338	keystroke	r	n/a
453.318	0.18	906636	keystroke	a	n/a
453.4525	0.1655	906905	keystroke	c	n/a
453.633	0.15	907266	keystroke	k	n/a
454.023	0.165	908046	keystroke	Key.space	n/a
455.298	0.105	910596	keystroke	f	n/a
455.463	0.135	910926	keystroke	o	n/a
455.523	0.12	911046	keystroke	r	n/a
456.003	0.15	912006	keystroke	m	n/a
456.138	0.135	912276	keystroke	a	n/a
456.4525	0.091	912905	keystroke	t	n/a
456.6475	0.12	913295	keystroke	t	n/a
456.7525	0.165	913505	keystroke	i	n/a
456.8285	0.134	913657	keystroke	n	n/a
456.9785	0.09	913957	keystroke	g	n/a
457.0525	0.135	914105	keystroke	Key.space	n/a
457.2925	0.12	914585	keystroke	a	n/a
457.3975	0.135	914795	keystroke	n	n/a
457.5485	0.1195	915097	keystroke	a	n/a
457.8325	0.151	915665	keystroke	l	n/a
458.0885	0.134	916177	keystroke	y	n/a
458.2675	0.211	916535	keystroke	s	n/a
458.913	0.105	917826	keystroke	Key.backspace	n/a
459.048	0.195	918096	keystroke	z	n/a
459.138	0.18	918276	keystroke	e	n/a
459.6935	0.134	919387	keystroke	d	n/a
460.7725	0.165	921545	keystroke	Key.enter	n/a
460.9425	14.772	921885	prompt	n/a	request lingerie shopzilla warm\n
461.6125	0.1655	923225	keystroke	r	n/a
461.688	0.15	923376	keystroke	e	n/a
461.928	0.21	923856	keystroke	q	n/a
462.528	0.1355	925056	keystroke	u	n/a
462.603	0.1055	925206	keystroke	e	n/a
462.7535	0.225	925507	keystroke	s	n/a
462.8735	0.15	925747	keystroke	t	n/a
463.2335	0.15	926467	keystroke	Key.space	n/a
463.4285	0.135	926857	keystroke	l	n/a
463.7435	0.075	927487	keystroke	i	n/a
463.7585	0.105	927517	keystroke	n	n/a
464.5825	0.0905	929165	keystroke	g	n/a
464.778	0.15	929556	keystroke	e	n/a
465.063	0.12	930126	keystroke	r	n/a
465.7085	0.164	931417	keystroke	i	n/a
466.7135	0.15	933427	keystroke	e	n/a
467.2235	0.165	934447	keystroke	Key.space	n/a
467.838	0.18	935676	keystroke	s	n/a
468.258	0.15	936516	keystroke	p	n/a
469.608	0.12	939216	keystroke	o	n/a
469.9385	0.045	939877	keystroke	Key.backspace	n/a
470.088	0.105	940176	keystroke	Key.backspace	n/a
470.343	0.15	940686	keystroke	h	n/a
470.478	0.15	940956	keystroke	o	n/a
470.718	0.165	941436	keystroke	p	n/a
471.453	0.135	942906	keystroke	z	n/a
471.543	0.1205	943086	keystroke	i	n/a
471.7085	0.1345	943417	keystroke	a	n/a
472.503	0.1355	945006	keystroke	Key.backspace	n/a
473.103	0.045	946206	keystroke	l	n/a
473.178	0.1655	946356	keystroke	l	n/a
473.3135	0.18	946627	keystroke	a	n/a
474.3785	0.165	948757	keystroke	Key.space	n/a
474.6335	0.12	949267	keystroke	w	n/a
474.8135	0.165	949627	keystroke	a	n/a
474.8735	0.135	949747	keystroke	r	n/a
474.9935	0.15	949987	keystroke	m	n/a
475.578	0.135	951156	keystroke	Key.enter	n/a
475.718	9.7315	951436	prompt	n/a	usgs tobacco dense franklin\n
476.943	0.1205	953886	keystroke	u	n/a
477.0785	0.105	954157	keystroke	s	n/a
477.3335	0.105	954667	keystroke	g	n/a
477.6485	0.1645	955297	keystroke	s	n/a
478.278	0.12	956556	keystroke	Key.space	n/a
478.504	0.089	957008	keystroke	t	n/a
478.683	0.1205	957366	keystroke	a	n/a
479.0435	0.105	958087	keystroke	Key.backspace	n/a
479.3135	0.1195	958627	keystroke	o	n/a
479.553	0.1205	959106	keystroke	b	n/a
479.6885	0.12	959377	keystroke	a	n/a
479.9585	0.12	959917	keystroke	c	n/a
480.1535	0.15	960307	keystroke	c	n/a
480.2735	0.15	960547	keystroke	o	n/a
481.0985	0.18	962197	keystroke	Key.space	n/a
481.4285	0.105	962857	keystroke	d	n/a
481.7885	0.12	963577	keystroke	e	n/a
482.0435	0.1195	964087	keystroke	n	n/a
482.178	0.15	964356	keystroke	s	n/a
482.223	0.165	964446	keystroke	e	n/a
482.658	0.15	965316	keystroke	Key.space	n/a
482.8985	0.105	965797	keystroke	f	n/a
483.1085	0.135	966217	keystroke	r	n/a
483.2885	0.135	966577	keystroke	a	n/a
483.4085	0.1045	966817	keystroke	n	n/a
483.6775	0.121	967355	keystroke	k	n/a
483.9625	0.135	967925	keystroke	l	n/a
484.2785	0.195	968557	keystroke	i	n/a
484.3675	0.166	968735	keystroke	n	n/a
485.3135	0.134	970627	keystroke	Key.enter	n/a
485.4525	9.9125	970905	prompt	n/a	teens courts capable excel\n
486.123	0.06	972246	keystroke	t	n/a
486.273	0.12	972546	keystroke	e	n/a
486.528	0.12	973056	keystroke	e	n/a
486.8885	0.12	973777	keystroke	n	n/a
487.263	0.15	974526	keystroke	Key.space	n/a
487.3835	0.12	974767	keystroke	c	n/a
487.5185	0.135	975037	keystroke	o	n/a
487.5785	0.1495	975157	keystroke	u	n/a
487.6835	0.1345	975367	keystroke	r	n/a
488.088	0.09	976176	keystroke	t	n/a
488.313	0.135	976626	keystroke	s	n/a
488.643	0.165	977286	keystroke	Key.space	n/a
488.823	0.1505	977646	keystroke	c	n/a
488.9885	0.135	977977	keystroke	a	n/a
489.1085	0.15	978217	keystroke	p	n/a
489.2285	0.135	978457	keystroke	a	n/a
489.7235	0.09	979447	keystroke	b	n/a
489.9485	0.135	979897	keystroke	l	n/a
490.0685	0.135	980137	keystroke	e	n/a
492.3205	0.058	984641	keystroke	e	n/a
492.5285	0.06	985057	keystroke	x	n/a
492.7985	0.06	985597	keystroke	Key.backspace	n/a
492.9485	0.135	985897	keystroke	Key.backspace	n/a
493.2335	0.165	986467	keystroke	Key.space	n/a
493.5485	0.1345	987097	keystroke	e	n/a
494.013	0.12	988026	keystroke	x	n/a
494.283	0.12	988566	keystroke	c	n/a
494.478	0.12	988956	keystroke	e	n/a
494.628	0.18	989256	keystroke	l	n/a
495.198	0.165	990396	keystroke	Key.enter	n/a
495.368	12.072	990736	prompt	n/a	columbia troy bacteria bosnia\n
496.0985	0.12	992197	keystroke	c	n/a
496.1885	0.105	992377	keystroke	o	n/a
496.3685	0.135	992737	keystroke	m	n/a
497.2985	0.075	994597	keystroke	Key.backspace	n/a
497.598	0.12	995196	keystroke	o	n/a
498.018	0.075	996036	keystroke	Key.backspace	n/a
498.243	0.135	996486	keystroke	l	n/a
498.4985	0.12	996997	keystroke	u	n/a
498.7535	0.105	997507	keystroke	m	n/a
499.0085	0.105	998017	keystroke	b	n/a
499.2185	0.135	998437	keystroke	i	n/a
499.3835	0.15	998767	keystroke	a	n/a
499.6985	0.1795	999397	keystroke	Key.space	n/a
500.073	0.09	1000146	keystroke	t	n/a
500.238	0.135	1000476	keystroke	r	n/a
500.868	0.135	1001736	keystroke	o	n/a
501.078	0.1205	1002156	keystroke	y	n/a
501.2885	0.15	1002577	keystroke	Key.space	n/a
501.5735	0.1195	1003147	keystroke	b	n/a
502.143	0.165	1004286	keystroke	a	n/a
502.383	0.135	1004766	keystroke	c	n/a
502.7435	0.09	1005487	keystroke	t	n/a
502.9235	0.135	1005847	keystroke	e	n/a
503.1785	0.105	1006357	keystroke	r	n/a
503.2685	0.12	1006537	keystroke	i	n/a
503.4035	0.135	1006807	keystroke	a	n/a
504.1075	0.15	1008215	keystroke	Key.space	n/a
504.5125	0.0905	1009025	keystroke	b	n/a
505.218	0.1505	1010436	keystroke	o	n/a
505.3385	0.165	1010677	keystroke	s	n/a
505.5635	0.1495	1011127	keystroke	n	n/a
505.714	0.149	1011428	keystroke	i	n/a
505.878	0.165	1011756	keystroke	a	n/a
507.2885	0.15	1014577	keystroke	Key.enter	n/a
507.443	8.547	1014886	prompt	n/a	resource anthony realize circulation\n
508.293	0.18	1016586	keystroke	r	n/a
508.383	0.136	1016766	keystroke	e	n/a
508.638	0.18	1017276	keystroke	s	n/a
508.774	0.179	1017548	keystroke	o	n/a
508.863	0.165	1017726	keystroke	u	n/a
508.938	0.12	1017876	keystroke	r	n/a
509.178	0.165	1018356	keystroke	c	n/a
509.268	0.1505	1018536	keystroke	e	n/a
509.5835	0.165	1019167	keystroke	Key.space	n/a
509.7785	0.135	1019557	keystroke	a	n/a
509.8685	0.12	1019737	keystroke	n	n/a
510.0335	0.12	1020067	keystroke	t	n/a
510.1085	0.135	1020217	keystroke	h	n/a
510.2585	0.165	1020517	keystroke	o	n/a
510.4535	0.135	1020907	keystroke	n	n/a
510.7235	0.165	1021447	keystroke	y	n/a
510.9035	0.12	1021807	keystroke	Key.space	n/a
511.083	0.18	1022166	keystroke	r	n/a
511.173	0.135	1022346	keystroke	e	n/a
511.368	0.165	1022736	keystroke	a	n/a
511.518	0.165	1023036	keystroke	l	n/a
512.3585	0.135	1024717	keystroke	i	n/a
512.5235	0.195	1025047	keystroke	z	n/a
512.6285	0.1495	1025257	keystroke	e	n/a
512.8985	0.15	1025797	keystroke	Key.space	n/a
513.1385	0.135	1026277	keystroke	c	n/a
513.3185	0.135	1026637	keystroke	i	n/a
513.4385	0.12	1026877	keystroke	r	n/a
513.6935	0.135	1027387	keystroke	c	n/a
513.8135	0.12	1027627	keystroke	u	n/a
514.6535	0.179	1029307	keystroke	l	n/a
514.938	0.15	1029876	keystroke	a	n/a
515.223	0.135	1030446	keystroke	t	n/a
515.283	0.135	1030566	keystroke	i	n/a
515.343	0.21	1030686	keystroke	o	n/a
515.448	0.165	1030896	keystroke	n	n/a
515.838	0.15	1031676	keystroke	Key.enter	n/a
515.9945	10.4955	1031989	prompt	n/a	retailers wool phentermine very\n
516.7985	0.1495	1033597	keystroke	r	n/a
516.8735	0.1645	1033747	keystroke	e	n/a
517.113	0.105	1034226	keystroke	t	n/a
517.293	0.12	1034586	keystroke	a	n/a
517.398	0.09	1034796	keystroke	i	n/a
518.2835	0.12	1036567	keystroke	l	n/a
518.4485	0.194	1036897	keystroke	e	n/a
518.5685	0.15	1037137	keystroke	r	n/a
518.8675	0.15	1037735	keystroke	s	n/a
519.123	0.1495	1038246	keystroke	Key.space	n/a
519.3175	0.1355	1038635	keystroke	w	n/a
519.4675	0.0905	1038935	keystroke	o	n/a
519.6485	0.134	1039297	keystroke	o	n/a
519.8435	0.18	1039687	keystroke	l	n/a
520.0835	0.15	1040167	keystroke	Key.space	n/a
520.458	0.15	1040916	keystroke	p	n/a
520.728	0.12	1041456	keystroke	h	n/a
521.028	0.12	1042056	keystroke	e	n/a
522.363	0.075	1044726	keystroke	n	n/a
523.2785	0.12	1046557	keystroke	t	n/a
523.8185	0.18	1047637	keystroke	e	n/a
524.0135	0.165	1048027	keystroke	r	n/a
524.3585	0.0895	1048717	keystroke	m	n/a
524.583	0.165	1049166	keystroke	i	n/a
524.673	0.15	1049346	keystroke	n	n/a
524.808	0.15	1049616	keystroke	e	n/a
525.003	0.15	1050006	keystroke	Key.space	n/a
525.168	0.075	1050336	keystroke	v	n/a
525.333	0.15	1050666	keystroke	e	n/a
525.423	0.165	1050846	keystroke	r	n/a
525.603	0.165	1051206	keystroke	y	n/a
526.3235	0.165	1052647	keystroke	Key.enter	n/a
526.493	7.6015	1052986	prompt	n/a	who remained lighter traditions\n
527.2685	0.135	1054537	keystroke	w	n/a
527.3735	0.12	1054747	keystroke	h	n/a
527.4185	0.1795	1054837	keystroke	o	n/a
527.613	0.15	1055226	keystroke	Key.space	n/a
527.838	0.195	1055676	keystroke	r	n/a
527.928	0.18	1055856	keystroke	e	n/a
528.6335	0.1195	1057267	keystroke	m	n/a
528.828	0.135	1057656	keystroke	a	n/a
528.933	0.18	1057866	keystroke	i	n/a
529.038	0.18	1058076	keystroke	n	n/a
529.203	0.12	1058406	keystroke	e	n/a
529.398	0.165	1058796	keystroke	d	n/a
529.6985	0.1645	1059397	keystroke	Key.space	n/a
530.073	0.1055	1060146	keystroke	l	n/a
530.2835	0.12	1060567	keystroke	i	n/a
530.388	0.105	1060776	keystroke	g	n/a
530.5385	0.1345	1061077	keystroke	h	n/a
531.093	0.1055	1062186	keystroke	t	n/a
531.2885	0.15	1062577	keystroke	e	n/a
531.3635	0.165	1062727	keystroke	r	n/a
531.723	0.195	1063446	keystroke	Key.space	n/a
531.933	0.09	1063866	keystroke	t	n/a
532.113	0.12	1064226	keystroke	r	n/a
532.248	0.165	1064496	keystroke	a	n/a
532.923	0.15	1065846	keystroke	d	n/a
533.133	0.105	1066266	keystroke	i	n/a
533.253	0.135	1066506	keystroke	t	n/a
533.343	0.151	1066686	keystroke	i	n/a
533.433	0.225	1066866	keystroke	o	n/a
533.538	0.18	1067076	keystroke	n	n/a
533.703	0.165	1067406	keystroke	s	n/a
533.9435	0.15	1067887	keystroke	Key.enter	n/a
534.098	18.5065	1068196	prompt	n/a	restriction decision studied biblical\n
534.798	0.165	1069596	keystroke	r	n/a
534.888	0.105	1069776	keystroke	e	n/a
535.158	0.135	1070316	keystroke	s	n/a
535.428	0.12	1070856	keystroke	c	n/a
535.6985	0.075	1071397	keystroke	t	n/a
535.8635	0.12	1071727	keystroke	r	n/a
535.9985	0.15	1071997	keystroke	i	n/a
536.1185	0.135	1072237	keystroke	c	n/a
536.6585	0.09	1073317	keystroke	t	n/a
536.7185	0.15	1073437	keystroke	i	n/a
536.8235	0.225	1073647	keystroke	o	n/a
536.9135	0.18	1073827	keystroke	n	n/a
537.4385	0.105	1074877	keystroke	Key.space	n/a
537.603	0.075	1075206	keystroke	d	n/a
537.7985	0.12	1075597	keystroke	e	n/a
538.0385	0.15	1076077	keystroke	c	n/a
540.4835	0.165	1080967	keystroke	r	n/a
540.5585	0.105	1081117	keystroke	e	n/a
540.7385	0.18	1081477	keystroke	s	n/a
541.1135	0.09	1082227	keystroke	t	n/a
541.2935	0.12	1082587	keystroke	r	n/a
542.2085	0.135	1084417	keystroke	i	n/a
542.2835	0.135	1084567	keystroke	c	n/a
542.5685	0.135	1085137	keystroke	t	n/a
542.6285	0.1795	1085257	keystroke	i	n/a
542.7335	0.18	1085467	keystroke	o	n/a
542.8235	0.15	1085647	keystroke	n	n/a
543.213	0.165	1086426	keystroke	Key.space	n/a
543.453	0.12	1086906	keystroke	d	n/a
543.664	0.119	1087328	keystroke	e	n/a
543.903	0.135	1087806	keystroke	s	n/a
544.158	0.1655	1088316	keystroke	c	n/a
544.5335	0.045	1089067	keystroke	Key.backspace	n/a
544.6835	0.12	1089367	keystroke	Key.backspace	n/a
545.223	0.15	1090446	keystroke	c	n/a
545.463	0.12	1090926	keystroke	i	n/a
545.598	0.165	1091196	keystroke	s	n/a
545.703	0.165	1091406	keystroke	i	n/a
545.808	0.21	1091616	keystroke	o	n/a
545.883	0.195	1091766	keystroke	n	n/a
546.063	0.15	1092126	keystroke	Key.space	n/a
546.258	0.135	1092516	keystroke	s	n/a
546.378	0.165	1092756	keystroke	u	n/a
546.5135	0.135	1093027	keystroke	t	n/a
547.143	0.06	1094286	keystroke	Key.backspace	n/a
547.308	0.135	1094616	keystroke	Key.backspace	n/a
547.473	0.12	1094946	keystroke	t	n/a
547.578	0.135	1095156	keystroke	u	n/a
547.7285	0.1345	1095457	keystroke	d	n/a
547.864	0.134	1095728	keystroke	y	n/a
548.448	0.09	1096896	keystroke	Key.backspace	n/a
548.9435	0.135	1097887	keystroke	i	n/a
549.2135	0.1045	1098427	keystroke	e	n/a
549.408	0.135	1098816	keystroke	d	n/a
549.678	0.165	1099356	keystroke	Key.space	n/a
550.143	0.09	1100286	keystroke	b	n/a
551.0285	0.105	1102057	keystroke	i	n/a
551.3285	0.09	1102657	keystroke	b	n/a
551.5535	0.1045	1103107	keystroke	l	n/a
551.763	0.12	1103526	keystroke	i	n/a
551.853	0.165	1103706	keystroke	c	n/a
552.018	0.15	1104036	keystroke	a	n/a
552.153	0.135	1104306	keystroke	l	n/a
552.468	0.135	1104936	keystroke	Key.enter	n/a
552.6075	12.9275	1105215	prompt	n/a	librarian pursuit turned terrorists\n
553.3385	0.105	1106677	keystroke	l	n/a
553.6525	0.136	1107305	keystroke	i	n/a
553.968	0.12	1107936	keystroke	b	n/a
554.4485	0.135	1108897	keystroke	r	n/a
554.658	0.135	1109316	keystroke	a	n/a
555.228	0.135	1110456	keystroke	r	n/a
555.528	0.1355	1111056	keystroke	a	n/a
556.878	0.09	1113756	keystroke	Key.backspace	n/a
557.104	0.104	1114208	keystroke	i	n/a
557.223	0.15	1114446	keystroke	a	n/a
557.328	0.12	1114656	keystroke	n	n/a
557.928	0.135	1115856	keystroke	Key.space	n/a
558.1385	0.135	1116277	keystroke	p	n/a
558.3785	0.15	1116757	keystroke	u	n/a
558.5135	0.105	1117027	keystroke	r	n/a
558.8585	0.18	1117717	keystroke	s	n/a
559.0235	0.135	1118047	keystroke	u	n/a
559.1135	0.15	1118227	keystroke	i	n/a
559.2335	0.12	1118467	keystroke	t	n/a
559.4585	0.15	1118917	keystroke	Key.space	n/a
559.7285	0.1055	1119457	keystroke	t	n/a
559.819	0.105	1119638	keystroke	u	n/a
559.909	0.12	1119818	keystroke	r	n/a
560.014	0.12	1120028	keystroke	n	n/a
560.149	0.12	1120298	keystroke	e	n/a
560.329	0.134	1120658	keystroke	d	n/a
560.763	0.181	1121526	keystroke	Key.space	n/a
561.2885	0.075	1122577	keystroke	t	n/a
561.4535	0.165	1122907	keystroke	e	n/a
561.6485	0.12	1123297	keystroke	r	n/a
562.2185	0.135	1124437	keystroke	r	n/a
562.4735	0.15	1124947	keystroke	o	n/a
563.283	0.106	1126566	keystroke	r	n/a
564.1385	0.135	1128277	keystroke	i	n/a
564.2745	0.149	1128549	keystroke	s	n/a
564.5435	0.105	1129087	keystroke	t	n/a
564.7385	0.15	1129477	keystroke	s	n/a
565.3835	0.15	1130767	keystroke	Key.enter	n/a
565.5385	8.006	1131077	prompt	n/a	assisted thing leader influences\n
566.3735	0.12	1132747	keystroke	a	n/a
566.5685	0.09	1133137	keystroke	s	n/a
566.7485	0.15	1133497	keystroke	s	n/a
567.3635	0.135	1134727	keystroke	i	n/a
567.4985	0.135	1134997	keystroke	s	n/a
567.9335	0.105	1135867	keystroke	t	n/a
568.1735	0.165	1136347	keystroke	e	n/a
568.4435	0.135	1136887	keystroke	d	n/a
569.0735	0.15	1138147	keystroke	Key.space	n/a
569.2385	0.1195	1138477	keystroke	t	n/a
569.3435	0.1045	1138687	keystroke	h	n/a
569.418	0.1955	1138836	keystroke	i	n/a
569.538	0.1505	1139076	keystroke	n	n/a
569.6285	0.105	1139257	keystroke	g	n/a
569.7485	0.135	1139497	keystroke	Key.space	n/a
569.9285	0.165	1139857	keystroke	l	n/a
570.0035	0.12	1140007	keystroke	e	n/a
570.1835	0.165	1140367	keystroke	a	n/a
570.4085	0.12	1140817	keystroke	d	n/a
570.6485	0.15	1141297	keystroke	e	n/a
570.7385	0.15	1141477	keystroke	r	n/a
571.1285	0.12	1142257	keystroke	Key.space	n/a
571.3085	0.15	1142617	keystroke	i	n/a
571.3835	0.12	1142767	keystroke	n	n/a
571.7285	0.15	1143457	keystroke	f	n/a
571.9235	0.12	1143847	keystroke	l	n/a
572.1635	0.105	1144327	keystroke	u	n/a
572.2835	0.165	1144567	keystroke	e	n/a
572.4335	0.12	1144867	keystroke	n	n/a
572.6285	0.21	1145257	keystroke	c	n/a
572.7785	0.135	1145557	keystroke	e	n/a
573.0485	0.12	1146097	keystroke	s	n/a
573.3935	0.15	1146787	keystroke	Key.enter	n/a
573.5485	13.6315	1147097	prompt	n/a	equation transcripts infringement rider\n
574.503	0.105	1149006	keystroke	e	n/a
574.743	0.135	1149486	keystroke	q	n/a
574.893	0.12	1149786	keystroke	u	n/a
575.073	0.12	1150146	keystroke	a	n/a
575.313	0.12	1150626	keystroke	t	n/a
575.403	0.151	1150806	keystroke	i	n/a
575.493	0.1955	1150986	keystroke	o	n/a
575.5985	0.165	1151197	keystroke	n	n/a
576.1685	0.135	1152337	keystroke	Key.space	n/a
576.3785	0.105	1152757	keystroke	t	n/a
576.6035	0.09	1153207	keystroke	r	n/a
576.7385	0.15	1153477	keystroke	a	n/a
576.8735	0.09	1153747	keystroke	n	n/a
576.9785	0.135	1153957	keystroke	s	n/a
577.3535	0.12	1154707	keystroke	c	n/a
577.6235	0.135	1155247	keystroke	r	n/a
577.8335	0.12	1155667	keystroke	i	n/a
578.0435	0.1645	1156087	keystroke	p	n/a
578.193	0.105	1156386	keystroke	t	n/a
578.568	0.15	1157136	keystroke	s	n/a
578.9135	0.135	1157827	keystroke	Key.space	n/a
579.1535	0.195	1158307	keystroke	i	n/a
579.2135	0.18	1158427	keystroke	n	n/a
579.6785	0.105	1159357	keystroke	f	n/a
579.9485	0.135	1159897	keystroke	r	n/a
580.3835	0.15	1160767	keystroke	i	n/a
580.7885	0.135	1161577	keystroke	n	n/a
580.9985	0.105	1161997	keystroke	g	n/a
581.5235	0.1645	1163047	keystroke	e	n/a
583.188	0.09	1166376	keystroke	k	n/a
583.248	0.18	1166496	keystroke	e	n/a
583.398	0.135	1166796	keystroke	n	n/a
583.7585	0.075	1167517	keystroke	Key.backspace	n/a
583.9385	0.09	1167877	keystroke	Key.backspace	n/a
584.0885	0.135	1168177	keystroke	Key.backspace	n/a
584.748	0.12	1169496	keystroke	m	n/a
584.838	0.15	1169676	keystroke	e	n/a
584.943	0.135	1169886	keystroke	n	n/a
585.093	0.105	1170186	keystroke	t	n/a
585.558	0.1505	1171116	keystroke	Key.space	n/a
586.2185	0.12	1172437	keystroke	r	n/a
586.3535	0.135	1172707	keystroke	i	n/a
586.4435	0.12	1172887	keystroke	d	n/a
586.6535	0.165	1173307	keystroke	e	n/a
586.7285	0.18	1173457	keystroke	r	n/a
587.0285	0.1495	1174057	keystroke	Key.enter	n/a
587.1825	8.7875	1174365	prompt	n/a	browsers labor essay armor\n
587.973	0.09	1175946	keystroke	b	n/a
588.168	0.135	1176336	keystroke	r	n/a
588.288	0.1355	1176576	keystroke	o	n/a
589.1135	0.135	1178227	keystroke	w	n/a
589.5485	0.1645	1179097	keystroke	s	n/a
589.953	0.15	1179906	keystroke	e	n/a
590.043	0.165	1180086	keystroke	r	n/a
590.553	0.135	1181106	keystroke	s	n/a
590.853	0.105	1181706	keystroke	Key.space	n/a
591.048	0.135	1182096	keystroke	l	n/a
591.138	0.15	1182276	keystroke	a	n/a
591.273	0.075	1182546	keystroke	b	n/a
591.423	0.15	1182846	keystroke	o	n/a
591.558	0.1205	1183116	keystroke	r	n/a
592.0835	0.105	1184167	keystroke	Key.space	n/a
592.2335	0.12	1184467	keystroke	e	n/a
592.698	0.03	1185396	keystroke	s	n/a
592.833	0.12	1185666	keystroke	s	n/a
593.058	0.18	1186116	keystroke	a	n/a
593.343	0.165	1186686	keystroke	y	n/a
593.8235	0.135	1187647	keystroke	Key.space	n/a
593.9885	0.18	1187977	keystroke	a	n/a
594.0935	0.1645	1188187	keystroke	r	n/a
594.393	0.135	1188786	keystroke	m	n/a
595.083	0.135	1190166	keystroke	o	n/a
595.203	0.1355	1190406	keystroke	r	n/a
595.8185	0.15	1191637	keystroke	Key.enter	n/a
595.973	9.882	1191946	prompt	n/a	mineral hill yugoslavia items\n
596.6735	0.09	1193347	keystroke	m	n/a
596.8985	0.12	1193797	keystroke	i	n/a
597.1385	0.135	1194277	keystroke	n	n/a
597.784	0.135	1195568	keystroke	e	n/a
598.3235	0.12	1196647	keystroke	r	n/a
598.5635	0.165	1197127	keystroke	a	n/a
598.7885	0.18	1197577	keystroke	l	n/a
598.8935	0.165	1197787	keystroke	Key.space	n/a
599.2235	0.1195	1198447	keystroke	h	n/a
599.328	0.15	1198656	keystroke	i	n/a
599.5985	0.075	1199197	keystroke	l	n/a
599.7485	0.15	1199497	keystroke	l	n/a
599.8535	0.165	1199707	keystroke	Key.space	n/a
600.2885	0.135	1200577	keystroke	y	n/a
600.5885	0.1195	1201177	keystroke	u	n/a
601.143	0.135	1202286	keystroke	g	n/a
601.233	0.165	1202466	keystroke	o	n/a
601.7885	0.075	1203577	keystroke	s	n/a
601.9985	0.1195	1203997	keystroke	l	n/a
602.088	0.165	1204176	keystroke	a	n/a
602.403	0.12	1204806	keystroke	v	n/a
602.523	0.135	1205046	keystroke	i	n/a
602.613	0.165	1205226	keystroke	a	n/a
603.3635	0.15	1206727	keystroke	Key.space	n/a
603.6635	0.135	1207327	keystroke	i	n/a
603.7685	0.09	1207537	keystroke	t	n/a
603.9035	0.165	1207807	keystroke	e	n/a
604.5635	0.135	1209127	keystroke	m	n/a
604.6685	0.1505	1209337	keystroke	s	n/a
605.688	0.165	1211376	keystroke	Key.enter	n/a
605.858	9.2975	1211716	prompt	n/a	exterior heading reid binary\n
606.603	0.105	1213206	keystroke	e	n/a
606.843	0.135	1213686	keystroke	x	n/a
607.218	0.105	1214436	keystroke	t	n/a
608.0735	0.15	1216147	keystroke	e	n/a
609.078	0.15	1218156	keystroke	r	n/a
609.573	0.105	1219146	keystroke	i	n/a
609.813	0.15	1219626	keystroke	o	n/a
609.948	0.135	1219896	keystroke	r	n/a
610.503	0.15	1221006	keystroke	Key.space	n/a
610.788	0.135	1221576	keystroke	h	n/a
610.878	0.105	1221756	keystroke	e	n/a
611.043	0.15	1222086	keystroke	a	n/a
611.163	0.165	1222326	keystroke	d	n/a
611.298	0.15	1222596	keystroke	i	n/a
611.388	0.15	1222776	keystroke	n	n/a
611.493	0.1205	1222986	keystroke	g	n/a
611.7485	0.15	1223497	keystroke	Key.space	n/a
612.0035	0.18	1224007	keystroke	r	n/a
612.0935	0.165	1224187	keystroke	e	n/a
612.4235	0.15	1224847	keystroke	i	n/a
612.5435	0.135	1225087	keystroke	d	n/a
612.9335	0.1345	1225867	keystroke	Key.space	n/a
613.203	0.12	1226406	keystroke	b	n/a
613.563	0.12	1227126	keystroke	i	n/a
614.1035	0.12	1228207	keystroke	n	n/a
614.268	0.18	1228536	keystroke	a	n/a
614.463	0.165	1228926	keystroke	r	n/a
614.599	0.119	1229198	keystroke	y	n/a
614.988	0.165	1229976	keystroke	Key.enter	n/a
615.158	9.3715	1230316	prompt	n/a	seminars freely vocal currencies\n
616.0685	0.15	1232137	keystroke	s	n/a
616.1285	0.15	1232257	keystroke	e	n/a
616.3685	0.09	1232737	keystroke	m	n/a
616.5485	0.12	1233097	keystroke	i	n/a
617.4335	0.12	1234867	keystroke	n	n/a
617.5385	0.18	1235077	keystroke	a	n/a
617.6435	0.12	1235287	keystroke	r	n/a
617.8535	0.165	1235707	keystroke	s	n/a
618.2285	0.15	1236457	keystroke	Key.space	n/a
618.4085	0.12	1236817	keystroke	f	n/a
618.6485	0.15	1237297	keystroke	r	n/a
618.7685	0.135	1237537	keystroke	e	n/a
618.9935	0.135	1237987	keystroke	e	n/a
619.2035	0.15	1238407	keystroke	l	n/a
619.4585	0.1795	1238917	keystroke	y	n/a
619.5485	0.1495	1239097	keystroke	Key.space	n/a
619.8785	0.12	1239757	keystroke	v	n/a
619.9535	0.135	1239907	keystroke	o	n/a
620.1485	0.165	1240297	keystroke	a	n/a
620.8235	0.105	1241647	keystroke	Key.backspace	n/a
620.9135	0.135	1241827	keystroke	c	n/a
621.0335	0.1495	1242067	keystroke	a	n/a
621.153	0.15	1242306	keystroke	l	n/a
621.6185	0.15	1243237	keystroke	Key.space	n/a
622.0535	0.165	1244107	keystroke	c	n/a
622.3235	0.135	1244647	keystroke	u	n/a
622.5185	0.09	1245037	keystroke	r	n/a
622.7285	0.105	1245457	keystroke	r	n/a
622.8485	0.135	1245697	keystroke	e	n/a
622.9835	0.135	1245967	keystroke	n	n/a
623.2085	0.12	1246417	keystroke	c	n/a
623.3435	0.135	1246687	keystroke	i	n/a
623.4185	0.12	1246837	keystroke	e	n/a
623.6285	0.135	1247257	keystroke	s	n/a
624.378	0.1505	1248756	keystroke	Key.enter	n/a
624.5325	15.747	1249065	prompt	n/a	petroleum utilities bumper geneva\n
625.593	0.15	1251186	keystroke	p	n/a
625.773	0.15	1251546	keystroke	e	n/a
626.223	0.135	1252446	keystroke	t	n/a
626.913	0.091	1253826	keystroke	r	n/a
627.124	0.105	1254248	keystroke	o	n/a
627.6035	0.165	1255207	keystroke	l	n/a
628.009	0.165	1256018	keystroke	e	n/a
628.308	0.135	1256616	keystroke	u	n/a
628.804	0.149	1257608	keystroke	m	n/a
629.283	0.1355	1258566	keystroke	Key.space	n/a
629.6135	0.12	1259227	keystroke	u	n/a
629.8535	0.12	1259707	keystroke	t	n/a
629.9585	0.12	1259917	keystroke	i	n/a
630.2435	0.135	1260487	keystroke	l	n/a
630.8435	0.1345	1261687	keystroke	t	n/a
630.993	0.135	1261986	keystroke	i	n/a
633.033	0.09	1266066	keystroke	Key.backspace	n/a
633.228	0.06	1266456	keystroke	Key.backspace	n/a
633.378	0.1355	1266756	keystroke	Key.backspace	n/a
634.3835	0.165	1268767	keystroke	l	n/a
634.9535	0.15	1269907	keystroke	i	n/a
635.1635	0.105	1270327	keystroke	t	n/a
635.2535	0.12	1270507	keystroke	i	n/a
635.6735	0.12	1271347	keystroke	e	n/a
635.8985	0.15	1271797	keystroke	s	n/a
636.6785	0.15	1273357	keystroke	Key.space	n/a
636.933	0.075	1273866	keystroke	b	n/a
637.128	0.105	1274256	keystroke	u	n/a
637.368	0.105	1274736	keystroke	m	n/a
637.578	0.105	1275156	keystroke	p	n/a
637.818	0.15	1275636	keystroke	e	n/a
637.908	0.165	1275816	keystroke	r	n/a
638.298	0.15	1276596	keystroke	Key.space	n/a
638.553	0.075	1277106	keystroke	g	n/a
638.6885	0.1195	1277377	keystroke	e	n/a
638.778	0.1205	1277556	keystroke	n	n/a
638.9135	0.12	1277827	keystroke	e	n/a
639.1835	0.105	1278367	keystroke	v	n/a
639.379	0.149	1278758	keystroke	a	n/a
640.144	0.134	1280288	keystroke	Key.enter	n/a
640.2845	10.405	1280569	prompt	n/a	careers serum printed struggle\n
640.953	0.1205	1281906	keystroke	c	n/a
641.1185	0.135	1282237	keystroke	a	n/a
641.403	0.105	1282806	keystroke	r	n/a
641.763	0.0605	1283526	keystroke	e	n/a
641.928	0.15	1283856	keystroke	e	n/a
642.048	0.15	1284096	keystroke	r	n/a
642.3185	0.1345	1284637	keystroke	s	n/a
642.6335	0.135	1285267	keystroke	Key.space	n/a
642.8135	0.135	1285627	keystroke	s	n/a
642.8885	0.1795	1285777	keystroke	e	n/a
643.248	0.135	1286496	keystroke	u	n/a
643.6085	0.15	1287217	keystroke	m	n/a
644.1485	0.045	1288297	keystroke	Key.backspace	n/a
644.3285	0.045	1288657	keystroke	Key.backspace	n/a
644.7485	0.135	1289497	keystroke	r	n/a
644.8535	0.09	1289707	keystroke	u	n/a
645.0785	0.135	1290157	keystroke	m	n/a
645.5285	0.135	1291057	keystroke	Key.space	n/a
645.7385	0.15	1291477	keystroke	p	n/a
645.8735	0.105	1291747	keystroke	r	n/a
645.9935	0.135	1291987	keystroke	i	n/a
646.0685	0.15	1292137	keystroke	n	n/a
646.1585	0.105	1292317	keystroke	t	n/a
646.3385	0.12	1292677	keystroke	e	n/a
646.5485	0.12	1293097	keystroke	d	n/a
646.6385	0.135	1293277	keystroke	Key.space	n/a
646.8185	0.135	1293637	keystroke	s	n/a
647.283	0.135	1294566	keystroke	r	n/a
647.6135	0.105	1295227	keystroke	t	n/a
648.0035	0.06	1296007	keystroke	Key.backspace	n/a
648.1535	0.12	1296307	keystroke	Key.backspace	n/a
648.2585	0.09	1296517	keystroke	t	n/a
648.783	0.12	1297566	keystroke	r	n/a
648.978	0.12	1297956	keystroke	u	n/a
649.278	0.09	1298556	keystroke	g	n/a
649.443	0.1205	1298886	keystroke	g	n/a
649.5935	0.15	1299187	keystroke	l	n/a
649.713	0.121	1299426	keystroke	e	n/a
650.539	0.149	1301078	keystroke	Key.enter	n/a
650.6925	13.6325	1301385	prompt	n/a	playing kidney marine restriction\n
653.1055	0.043	1306211	keystroke	p	n/a
653.2385	0.135	1306477	keystroke	l	n/a
653.3285	0.165	1306657	keystroke	a	n/a
653.5085	0.09	1307017	keystroke	y	n/a
653.7035	0.165	1307407	keystroke	i	n/a
653.7785	0.18	1307557	keystroke	n	n/a
653.8985	0.105	1307797	keystroke	g	n/a
653.9885	0.135	1307977	keystroke	Key.space	n/a
654.2435	0.12	1308487	keystroke	k	n/a
654.5285	0.105	1309057	keystroke	d	n/a
654.7235	0.135	1309447	keystroke	e	n/a
655.1135	0.06	1310227	keystroke	Key.backspace	n/a
655.2635	0.09	1310527	keystroke	Key.backspace	n/a
655.4735	0.12	1310947	keystroke	i	n/a
655.5785	0.135	1311157	keystroke	d	n/a
656.0125	0.136	1312025	keystroke	n	n/a
656.1635	0.12	1312327	keystroke	e	n/a
656.4035	0.12	1312807	keystroke	y	n/a
657.828	0.105	1315656	keystroke	Key.space	n/a
657.993	0.1505	1315986	keystroke	m	n/a
658.0985	0.12	1316197	keystroke	a	n/a
658.2785	0.15	1316557	keystroke	r	n/a
658.4285	0.165	1316857	keystroke	i	n/a
658.5035	0.165	1317007	keystroke	n	n/a
658.6085	0.15	1317217	keystroke	e	n/a
659.163	0.12	1318326	keystroke	Key.space	n/a
659.6135	0.135	1319227	keystroke	r	n/a
659.6885	0.12	1319377	keystroke	e	n/a
659.9135	0.165	1319827	keystroke	s	n/a
661.2035	0.15	1322407	keystroke	p	n/a
661.8185	0.09	1323637	keystroke	Key.backspace	n/a
662.3435	0.105	1324687	keystroke	t	n/a
662.5835	0.12	1325167	keystroke	r	n/a
662.7185	0.135	1325437	keystroke	i	n/a
663.0035	0.1345	1326007	keystroke	c	n/a
663.274	0.134	1326548	keystroke	t	n/a
663.349	0.165	1326698	keystroke	i	n/a
663.439	0.2095	1326878	keystroke	o	n/a
663.529	0.1795	1327058	keystroke	n	n/a
664.1885	0.135	1328377	keystroke	Key.enter	n/a
664.328	8.652	1328656	prompt	n/a	conservative transit control sticks\n
665.208	0.135	1330416	keystroke	c	n/a
665.358	0.165	1330716	keystroke	o	n/a
665.418	0.15	1330836	keystroke	n	n/a
665.7335	0.21	1331467	keystroke	s	n/a
665.8385	0.1795	1331677	keystroke	e	n/a
665.9585	0.1505	1331917	keystroke	r	n/a
666.7835	0.09	1333567	keystroke	v	n/a
666.9335	0.15	1333867	keystroke	a	n/a
667.1285	0.105	1334257	keystroke	t	n/a
667.2485	0.12	1334497	keystroke	i	n/a
667.3535	0.09	1334707	keystroke	v	n/a
667.5035	0.135	1335007	keystroke	e	n/a
667.7885	0.15	1335577	keystroke	Key.space	n/a
668.0285	0.105	1336057	keystroke	t	n/a
668.2385	0.105	1336477	keystroke	r	n/a
668.3885	0.135	1336777	keystroke	a	n/a
668.5235	0.12	1337047	keystroke	n	n/a
668.6735	0.15	1337347	keystroke	s	n/a
668.8385	0.1195	1337677	keystroke	i	n/a
668.973	0.12	1337946	keystroke	t	n/a
669.333	0.165	1338666	keystroke	Key.space	n/a
669.573	0.135	1339146	keystroke	c	n/a
669.693	0.18	1339386	keystroke	o	n/a
669.768	0.165	1339536	keystroke	n	n/a
669.934	0.119	1339868	keystroke	t	n/a
670.128	0.15	1340256	keystroke	r	n/a
670.263	0.135	1340526	keystroke	o	n/a
670.473	0.165	1340946	keystroke	l	n/a
670.773	0.15	1341546	keystroke	Key.space	n/a
671.283	0.105	1342566	keystroke	s	n/a
671.4635	0.105	1342927	keystroke	t	n/a
671.5685	0.105	1343137	keystroke	i	n/a
671.7335	0.135	1343467	keystroke	c	n/a
671.8535	0.12	1343707	keystroke	k	n/a
671.9885	0.15	1343977	keystroke	s	n/a
672.8135	0.165	1345627	keystroke	Key.enter	n/a
672.9835	18.2215	1345967	prompt	n/a	suggestions numerous architectural excess\n
673.698	0.15	1347396	keystroke	s	n/a
673.938	0.12	1347876	keystroke	u	n/a
674.028	0.075	1348056	keystroke	g	n/a
674.208	0.075	1348416	keystroke	g	n/a
674.373	0.12	1348746	keystroke	e	n/a
674.583	0.225	1349166	keystroke	s	n/a
674.673	0.09	1349346	keystroke	t	n/a
675.678	0.195	1351356	keystroke	i	n/a
675.813	0.195	1351626	keystroke	o	n/a
675.918	0.165	1351836	keystroke	n	n/a
676.188	0.18	1352376	keystroke	s	n/a
676.383	0.12	1352766	keystroke	Key.space	n/a
676.594	0.089	1353188	keystroke	n	n/a
676.803	0.075	1353606	keystroke	u	n/a
677.013	0.12	1354026	keystroke	m	n/a
677.088	0.15	1354176	keystroke	e	n/a
677.163	0.165	1354326	keystroke	r	n/a
677.388	0.18	1354776	keystroke	o	n/a
677.479	0.149	1354958	keystroke	u	n/a
677.643	0.165	1355286	keystroke	s	n/a
677.958	0.1655	1355916	keystroke	Key.space	n/a
678.5135	0.06	1357027	keystroke	a	n/a
678.8135	0.105	1357627	keystroke	r	n/a
679.0535	0.12	1358107	keystroke	c	n/a
679.1435	0.12	1358287	keystroke	h	n/a
679.2785	0.1495	1358557	keystroke	i	n/a
679.488	0.1055	1358976	keystroke	t	n/a
679.6835	0.1045	1359367	keystroke	e	n/a
679.893	0.135	1359786	keystroke	c	n/a
680.253	0.12	1360506	keystroke	t	n/a
680.358	0.12	1360716	keystroke	u	n/a
680.493	0.165	1360986	keystroke	a	n/a
680.778	0.135	1361556	keystroke	l	n/a
681.2285	0.15	1362457	keystroke	Key.space	n/a
681.5435	0.105	1363087	keystroke	e	n/a
681.9935	0.135	1363987	keystroke	x	n/a
682.6985	0.15	1365397	keystroke	Key.backspace	n/a
682.9685	0.1495	1365937	keystroke	Key.backspace	n/a
683.208	0.105	1366416	keystroke	Key.backspace	n/a
683.388	0.135	1366776	keystroke	Key.backspace	n/a
683.568	0.135	1367136	keystroke	Key.backspace	n/a
686.4655	0.058	1372931	keystroke	r	n/a
686.5685	0.15	1373137	keystroke	a	n/a
686.6735	0.15	1373347	keystroke	l	n/a
687.0185	0.165	1374037	keystroke	Key.space	n/a
687.603	0.12	1375206	keystroke	e	n/a
687.9935	0.09	1375987	keystroke	x	n/a
688.323	0.135	1376646	keystroke	c	n/a
688.533	0.12	1377066	keystroke	e	n/a
688.773	0.1205	1377546	keystroke	s	n/a
688.9385	0.165	1377877	keystroke	s	n/a
691.0535	0.15	1382107	keystroke	Key.enter	n/a
691.2105	16.0145	1382421	prompt	n/a	anyone founder visitors products\n
694.266	0.102	1388532	keystroke	a	n/a
694.308	0.09	1388616	keystroke	n	n/a
694.533	0.09	1389066	keystroke	y	n/a
694.743	0.1805	1389486	keystroke	o	n/a
694.833	0.1355	1389666	keystroke	n	n/a
694.9385	0.135	1389877	keystroke	e	n/a
695.2985	0.15	1390597	keystroke	Key.space	n/a
695.4935	0.18	1390987	keystroke	f	n/a
695.6435	0.195	1391287	keystroke	o	n/a
695.7185	0.135	1391437	keystroke	u	n/a
695.9435	0.12	1391887	keystroke	n	n/a
696.0335	0.1045	1392067	keystroke	d	n/a
696.213	0.165	1392426	keystroke	e	n/a
696.288	0.195	1392576	keystroke	r	n/a
696.9785	0.135	1393957	keystroke	Key.space	n/a
697.3235	0.105	1394647	keystroke	v	n/a
697.4435	0.1345	1394887	keystroke	i	n/a
697.533	0.1505	1395066	keystroke	s	n/a
697.8185	0.105	1395637	keystroke	t	n/a
697.9685	0.15	1395937	keystroke	o	n/a
698.0435	0.18	1396087	keystroke	e	n/a
698.1635	0.165	1396327	keystroke	r	n/a
698.8535	0.12	1397707	keystroke	Key.backspace	n/a
699.0185	0.12	1398037	keystroke	Key.backspace	n/a
699.1835	0.105	1398367	keystroke	r	n/a
699.4235	0.135	1398847	keystroke	s	n/a
700.4585	0.12	1400917	keystroke	Key.space	n/a
700.6085	0.12	1401217	keystroke	p	n/a
700.7435	0.12	1401487	keystroke	r	n/a
700.8335	0.165	1401667	keystroke	o	n/a
701.0285	0.105	1402057	keystroke	d	n/a
701.5085	0.09	1403017	keystroke	Key.backspace	n/a
701.7035	0.0905	1403407	keystroke	Key.backspace	n/a
701.854	0.27	1403708	keystroke	Key.backspace	n/a
702.229	0.075	1404458	keystroke	Key.backspace	n/a
702.394	0.09	1404788	keystroke	Key.backspace	n/a
702.574	0.075	1405148	keystroke	Key.backspace	n/a
702.739	0.09	1405478	keystroke	Key.backspace	n/a
702.919	0.12	1405838	keystroke	Key.backspace	n/a
703.234	0.135	1406468	keystroke	Key.backspace	n/a
703.864	0.105	1407728	keystroke	i	n/a
704.118	0.09	1408236	keystroke	t	n/a
704.223	0.1355	1408446	keystroke	o	n/a
704.3435	0.12	1408687	keystroke	r	n/a
704.5385	0.165	1409077	keystroke	s	n/a
704.898	0.18	1409796	keystroke	Key.space	n/a
705.229	0.104	1410458	keystroke	p	n/a
705.318	0.135	1410636	keystroke	r	n/a
705.438	0.166	1410876	keystroke	o	n/a
705.604	0.15	1411208	keystroke	d	n/a
705.768	0.121	1411536	keystroke	u	n/a
705.843	0.121	1411686	keystroke	c	n/a
706.053	0.135	1412106	keystroke	t	n/a
706.533	0.135	1413066	keystroke	s	n/a
707.074	0.15	1414148	keystroke	Key.enter	n/a
707.228	7.497	1414456	prompt	n/a	depend cited pressing printers\n
707.9435	0.105	1415887	keystroke	d	n/a
708.1385	0.1355	1416277	keystroke	e	n/a
708.5435	0.135	1417087	keystroke	p	n/a
708.6935	0.12	1417387	keystroke	e	n/a
708.7835	0.135	1417567	keystroke	n	n/a
709.7735	0.165	1419547	keystroke	d	n/a
710.0585	0.15	1420117	keystroke	Key.space	n/a
710.2535	0.135	1420507	keystroke	c	n/a
710.3735	0.12	1420747	keystroke	i	n/a
710.5385	0.12	1421077	keystroke	t	n/a
710.6735	0.15	1421347	keystroke	e	n/a
710.9135	0.12	1421827	keystroke	d	n/a
711.0935	0.12	1422187	keystroke	Key.space	n/a
711.3035	0.15	1422607	keystroke	p	n/a
711.3785	0.18	1422757	keystroke	r	n/a
711.4835	0.135	1422967	keystroke	e	n/a
711.6935	0.12	1423387	keystroke	s	n/a
711.9035	0.135	1423807	keystroke	s	n/a
712.0235	0.135	1424047	keystroke	i	n/a
712.1135	0.12	1424227	keystroke	n	n/a
712.2185	0.105	1424437	keystroke	g	n/a
712.3985	0.1195	1424797	keystroke	Key.space	n/a
712.638	0.15	1425276	keystroke	p	n/a
712.759	0.134	1425518	keystroke	r	n/a
712.908	0.12	1425816	keystroke	i	n/a
712.968	0.15	1425936	keystroke	n	n/a
713.073	0.105	1426146	keystroke	t	n/a
713.238	0.135	1426476	keystroke	e	n/a
713.313	0.135	1426626	keystroke	r	n/a
713.568	0.151	1427136	keystroke	s	n/a
714.603	0.12	1429206	keystroke	Key.enter	n/a
714.728	7.812	1429456	prompt	n/a	counts dallas meant found\n
715.398	0.12	1430796	keystroke	c	n/a
715.488	0.1655	1430976	keystroke	o	n/a
715.563	0.1055	1431126	keystroke	u	n/a
715.7735	0.12	1431547	keystroke	n	n/a
715.8485	0.105	1431697	keystroke	t	n/a
716.0435	0.15	1432087	keystroke	s	n/a
716.2235	0.135	1432447	keystroke	Key.space	n/a
716.5535	0.1195	1433107	keystroke	d	n/a
716.718	0.135	1433436	keystroke	a	n/a
716.9285	0.075	1433857	keystroke	l	n/a
717.0935	0.15	1434187	keystroke	l	n/a
717.1685	0.15	1434337	keystroke	a	n/a
717.3935	0.165	1434787	keystroke	s	n/a
718.773	0.15	1437546	keystroke	Key.space	n/a
719.013	0.135	1438026	keystroke	m	n/a
719.088	0.12	1438176	keystroke	e	n/a
719.253	0.1655	1438506	keystroke	a	n/a
719.3585	0.12	1438717	keystroke	n	n/a
719.8985	0.135	1439797	keystroke	t	n/a
720.3185	0.15	1440637	keystroke	Key.space	n/a
720.4835	0.15	1440967	keystroke	f	n/a
720.6035	0.1505	1441207	keystroke	o	n/a
720.6635	0.12	1441327	keystroke	u	n/a
720.8735	0.1355	1441747	keystroke	n	n/a
720.994	0.15	1441988	keystroke	d	n/a
722.3885	0.1495	1444777	keystroke	Key.enter	n/a
722.543	8.817	1445086	prompt	n/a	change mysterious softball implications\n
723.318	0.151	1446636	keystroke	c	n/a
723.424	0.09	1446848	keystroke	h	n/a
723.514	0.135	1447028	keystroke	a	n/a
723.619	0.105	1447238	keystroke	n	n/a
723.709	0.075	1447418	keystroke	g	n/a
723.829	0.165	1447658	keystroke	e	n/a
723.979	0.135	1447958	keystroke	Key.space	n/a
724.234	0.12	1448468	keystroke	m	n/a
724.534	0.135	1449068	keystroke	y	n/a
724.713	0.1805	1449426	keystroke	s	n/a
725.148	0.09	1450296	keystroke	t	n/a
725.313	0.165	1450626	keystroke	e	n/a
725.493	0.1505	1450986	keystroke	r	n/a
725.8685	0.105	1451737	keystroke	i	n/a
726.0185	0.18	1452037	keystroke	o	n/a
726.1085	0.165	1452217	keystroke	u	n/a
726.2885	0.165	1452577	keystroke	s	n/a
726.4685	0.12	1452937	keystroke	Key.space	n/a
726.6335	0.15	1453267	keystroke	s	n/a
726.8135	0.1505	1453627	keystroke	o	n/a
726.979	0.105	1453958	keystroke	f	n/a
727.234	0.12	1454468	keystroke	t	n/a
727.7885	0.09	1455577	keystroke	b	n/a
727.9385	0.15	1455877	keystroke	a	n/a
728.1035	0.075	1456207	keystroke	l	n/a
728.2685	0.15	1456537	keystroke	l	n/a
728.6885	0.135	1457377	keystroke	Key.space	n/a
728.898	0.121	1457796	keystroke	i	n/a
729.124	0.09	1458248	keystroke	m	n/a
729.333	0.121	1458666	keystroke	p	n/a
729.589	0.1195	1459178	keystroke	l	n/a
729.7985	0.105	1459597	keystroke	i	n/a
729.9185	0.12	1459837	keystroke	c	n/a
730.0395	0.149	1460079	keystroke	a	n/a
730.203	0.15	1460406	keystroke	t	n/a
730.308	0.105	1460616	keystroke	i	n/a
730.368	0.195	1460736	keystroke	o	n/a
730.473	0.15	1460946	keystroke	n	n/a
730.608	0.18	1461216	keystroke	s	n/a
731.208	0.15	1462416	keystroke	Key.enter	n/a
731.363	10.512	1462726	prompt	n/a	cloth delicious greeting convergence\n
732.063	0.12	1464126	keystroke	c	n/a
732.303	0.075	1464606	keystroke	l	n/a
732.498	0.09	1464996	keystroke	o	n/a
732.618	0.12	1465236	keystroke	t	n/a
732.693	0.12	1465386	keystroke	h	n/a
732.918	0.12	1465836	keystroke	Key.space	n/a
733.1585	0.105	1466317	keystroke	d	n/a
733.3385	0.135	1466677	keystroke	e	n/a
733.5035	0.09	1467007	keystroke	l	n/a
733.6685	0.12	1467337	keystroke	i	n/a
733.8185	0.165	1467637	keystroke	c	n/a
734.719	0.12	1469438	keystroke	i	n/a
734.884	0.24	1469768	keystroke	o	n/a
734.974	0.18	1469948	keystroke	u	n/a
735.125	0.164	1470250	keystroke	s	n/a
735.409	0.165	1470818	keystroke	Key.space	n/a
735.874	0.0745	1471748	keystroke	g	n/a
736.0535	0.165	1472107	keystroke	r	n/a
736.1585	0.15	1472317	keystroke	e	n/a
736.3835	0.18	1472767	keystroke	e	n/a
736.6985	0.12	1473397	keystroke	t	n/a
736.8195	0.164	1473639	keystroke	i	n/a
736.8935	0.15	1473787	keystroke	n	n/a
