onset	duration	sample	value	key	prompt_text
17.24	0.1045	34480	keystroke_n	n	n/a
17.3295	0.075	34659	keystroke_a	a	n/a
17.4645	0.075	34929	keystroke_l	l	n/a
17.5395	0.075	35079	keystroke_a	a	n/a
17.7045	0.06	35409	keystroke_p	p	n/a
17.7345	0.09	35469	keystroke_a	a	n/a
17.9895	0.075	35979	keystroke_t	t	n/a
18.0795	0.06	36159	keystroke_i	i	n/a
22.2045	0.36	44409	keystroke_Key.cmd	Key.cmd	n/a
22.445	0.0895	44890	keystroke_v	v	n/a
24.1395	0.09	48279	keystroke_z	z	n/a
29.2995	0.435	58599	keystroke_Key.cmd	Key.cmd	n/a
29.5695	0.12	59139	keystroke_c	c	n/a
31.475	0.4645	62950	keystroke_Key.cmd	Key.cmd	n/a
31.8195	0.09	63639	keystroke_v	v	n/a
39.297	13.2845	78594	prompt	n/a	the quick brown fox jumps over a lazy dog\n
42.56	0.104	85120	keystroke_t	t	n/a
42.6945	0.09	85389	keystroke_h	h	n/a
42.7845	0.09	85569	keystroke_e	e	n/a
42.949	0.12	85898	keystroke_Key.space	Key.space	n/a
43.1145	0.12	86229	keystroke_q	q	n/a
43.2945	0.15	86589	keystroke_u	u	n/a
43.4145	0.075	86829	keystroke_i	i	n/a
43.4595	0.105	86919	keystroke_c	c	n/a
43.6395	0.135	87279	keystroke_k	k	n/a
43.7595	0.12	87519	keystroke_Key.space	Key.space	n/a
44.3745	0.12	88749	keystroke_b	b	n/a
44.7795	0.0895	89559	keystroke_r	r	n/a
44.9295	0.105	89859	keystroke_o	o	n/a
45.0195	0.075	90039	keystroke_w	w	n/a
45.2895	0.15	90579	keystroke_n	n	n/a
45.4545	0.1345	90909	keystroke_Key.space	Key.space	n/a
45.8895	0.06	91779	keystroke_f	f	n/a
45.9795	0.06	91959	keystroke_o	o	n/a
46.4295	0.105	92859	keystroke_x	x	n/a
46.8045	0.1345	93609	keystroke_Key.space	Key.space	n/a
47.1645	0.105	94329	keystroke_j	j	n/a
47.4045	0.06	94809	keystroke_u	u	n/a
47.6445	0.12	95289	keystroke_m	m	n/a
47.8845	0.06	95769	keystroke_p	p	n/a
47.9745	0.0905	95949	keystroke_s	s	n/a
48.1095	0.12	96219	keystroke_Key.space	Key.space	n/a
48.3345	0.075	96669	keystroke_o	o	n/a
48.5745	0.015	97149	keystroke_v	v	n/a
49.1745	0.1645	98349	keystroke_e	e	n/a
49.28	0.1045	98560	keystroke_r	r	n/a
49.4445	0.1195	98889	keystroke_Key.space	Key.space	n/a
49.5195	0.1045	99039	keystroke_a	a	n/a
49.6545	0.105	99309	keystroke_Key.space	Key.space	n/a
49.8345	0.09	99669	keystroke_l	l	n/a
49.924	0.1065	99848	keystroke_a	a	n/a
50.2245	0.105	100449	keystroke_z	z	n/a
50.9145	0.0895	101829	keystroke_y	y	n/a
51.47	0.134	102940	keystroke_Key.space	Key.space	n/a
51.7545	0.1045	103509	keystroke_d	d	n/a
51.9495	0.075	103899	keystroke_o	o	n/a
52.1745	0.09	104349	keystroke_g	g	n/a
52.4745	0.105	104949	keystroke_Key.enter	Key.enter	n/a
52.5845	6.551	105169	prompt	n/a	accommodate moss worm across\n
53.5995	0.1045	107199	keystroke_a	a	n/a
53.8995	0.0895	107799	keystroke_c	c	n/a
54.0645	0.09	108129	keystroke_c	c	n/a
54.2295	0.09	108459	keystroke_o	o	n/a
54.6345	0.0745	109269	keystroke_m	m	n/a
54.7845	0.0895	109569	keystroke_m	m	n/a
55.0095	0.075	110019	keystroke_o	o	n/a
55.264	0.1205	110528	keystroke_d	d	n/a
55.3395	0.12	110679	keystroke_a	a	n/a
55.6845	0.1045	111369	keystroke_t	t	n/a
55.7445	0.1045	111489	keystroke_e	e	n/a
55.9095	0.12	111819	keystroke_Key.space	Key.space	n/a
56.2245	0.0895	112449	keystroke_m	m	n/a
56.3895	0.09	112779	keystroke_o	o	n/a
56.4945	0.0895	112989	keystroke_s	s	n/a
56.6745	0.0895	113349	keystroke_s	s	n/a
56.7795	0.12	113559	keystroke_Key.space	Key.space	n/a
56.9745	0.0895	113949	keystroke_w	w	n/a
57.0795	0.0895	114159	keystroke_o	o	n/a
57.214	0.09	114428	keystroke_r	r	n/a
57.4395	0.1345	114879	keystroke_m	m	n/a
57.7245	0.1045	115449	keystroke_Key.space	Key.space	n/a
57.964	0.1355	115928	keystroke_a	a	n/a
58.1745	0.15	116349	keystroke_c	c	n/a
58.4595	0.1045	116919	keystroke_r	r	n/a
58.609	0.0755	117218	keystroke_o	o	n/a
58.6995	0.105	117399	keystroke_s	s	n/a
58.9095	0.0745	117819	keystroke_s	s	n/a
59.014	0.12	118028	keystroke_Key.enter	Key.enter	n/a
59.1385	6.852	118277	prompt	n/a	distribution chase once commander\n
60.4995	0.0745	120999	keystroke_d	d	n/a
60.7845	0.0745	121569	keystroke_i	i	n/a
60.8445	0.12	121689	keystroke_s	s	n/a
61.1595	0.1045	122319	keystroke_t	t	n/a
61.2495	0.09	122499	keystroke_r	r	n/a
61.4145	0.0745	122829	keystroke_i	i	n/a
61.6995	0.09	123399	keystroke_b	b	n/a
61.9695	0.1045	123939	keystroke_u	u	n/a
62.1345	0.0895	124269	keystroke_t	t	n/a
62.2395	0.12	124479	keystroke_i	i	n/a
62.3295	0.165	124659	keystroke_o	o	n/a
62.4195	0.1495	124839	keystroke_n	n	n/a
62.5545	0.09	125109	keystroke_Key.space	Key.space	n/a
62.6595	0.1195	125319	keystroke_c	c	n/a
62.7945	0.09	125589	keystroke_h	h	n/a
62.8995	0.075	125799	keystroke_a	a	n/a
63.2445	0.1045	126489	keystroke_s	s	n/a
63.4845	0.0895	126969	keystroke_e	e	n/a
63.5895	0.0895	127179	keystroke_Key.space	Key.space	n/a
63.7245	0.18	127449	keystroke_o	o	n/a
63.8295	0.1495	127659	keystroke_n	n	n/a
64.0545	0.1805	128109	keystroke_c	c	n/a
64.1745	0.12	128349	keystroke_e	e	n/a
64.3095	0.1045	128619	keystroke_Key.space	Key.space	n/a
64.5045	0.1195	129009	keystroke_c	c	n/a
64.6095	0.09	129219	keystroke_o	o	n/a
64.8495	0.06	129699	keystroke_m	m	n/a
64.9845	0.0895	129969	keystroke_m	m	n/a
65.0895	0.105	130179	keystroke_a	a	n/a
65.2245	0.075	130449	keystroke_n	n	n/a
65.3445	0.105	130689	keystroke_d	d	n/a
65.6145	0.1195	131229	keystroke_e	e	n/a
65.7045	0.075	131409	keystroke_r	r	n/a
65.8845	0.1045	131769	keystroke_Key.enter	Key.enter	n/a
65.9935	7.767	131987	prompt	n/a	collection donated promoting discretion\n
66.8595	0.1495	133719	keystroke_c	c	n/a
67.0245	0.075	134049	keystroke_o	o	n/a
67.2795	0.0295	134559	keystroke_l	l	n/a
67.4295	0.075	134859	keystroke_l	l	n/a
67.4745	0.1645	134949	keystroke_e	e	n/a
67.939	0.1205	135878	keystroke_c	c	n/a
68.2245	0.1045	136449	keystroke_t	t	n/a
68.3445	0.1645	136689	keystroke_i	i	n/a
68.4045	0.165	136809	keystroke_o	o	n/a
68.4945	0.15	136989	keystroke_n	n	n/a
68.6295	0.12	137259	keystroke_Key.space	Key.space	n/a
68.8695	0.105	137739	keystroke_d	d	n/a
69.0045	0.0745	138009	keystroke_o	o	n/a
69.2145	0.09	138429	keystroke_n	n	n/a
69.3045	0.105	138609	keystroke_a	a	n/a
69.531	0.1035	139062	keystroke_t	t	n/a
69.6045	0.09	139209	keystroke_e	e	n/a
69.8295	0.075	139659	keystroke_d	d	n/a
69.9495	0.1045	139899	keystroke_Key.space	Key.space	n/a
70.2795	0.06	140559	keystroke_p	p	n/a
70.3995	0.0895	140799	keystroke_r	r	n/a
70.5195	0.09	141039	keystroke_o	o	n/a
70.7745	0.075	141549	keystroke_m	m	n/a
70.9845	0.075	141969	keystroke_o	o	n/a
71.1045	0.075	142209	keystroke_t	t	n/a
71.2245	0.165	142449	keystroke_i	i	n/a
71.3145	0.15	142629	keystroke_n	n	n/a
71.4795	0.075	142959	keystroke_g	g	n/a
71.5845	0.12	143169	keystroke_Key.space	Key.space	n/a
71.8395	0.09	143679	keystroke_d	d	n/a
71.9895	0.075	143979	keystroke_i	i	n/a
72.1845	0.12	144369	keystroke_s	s	n/a
72.4095	0.12	144819	keystroke_c	c	n/a
72.7095	0.12	145419	keystroke_r	r	n/a
72.7695	0.12	145539	keystroke_e	e	n/a
73.0095	0.09	146019	keystroke_t	t	n/a
73.1595	0.18	146319	keystroke_i	i	n/a
73.2345	0.15	146469	keystroke_o	o	n/a
73.354	0.1205	146708	keystroke_n	n	n/a
73.669	0.0905	147338	keystroke_Key.enter	Key.enter	n/a
73.7635	7.183	147527	prompt	n/a	everyone learn absence indians\n
74.5395	0.135	149079	keystroke_e	e	n/a
74.8095	0.135	149619	keystroke_v	v	n/a
75.0195	0.165	150039	keystroke_e	e	n/a
75.1395	0.105	150279	keystroke_r	r	n/a
75.4995	0.09	150999	keystroke_y	y	n/a
75.8745	0.12	151749	keystroke_o	o	n/a
75.9495	0.135	151899	keystroke_n	n	n/a
76.0845	0.105	152169	keystroke_e	e	n/a
76.2195	0.12	152439	keystroke_Key.space	Key.space	n/a
76.3995	0.09	152799	keystroke_l	l	n/a
76.4595	0.15	152919	keystroke_e	e	n/a
76.5495	0.105	153099	keystroke_a	a	n/a
76.7595	0.09	153519	keystroke_r	r	n/a
76.8645	0.135	153729	keystroke_n	n	n/a
77.0895	0.09	154179	keystroke_Key.space	Key.space	n/a
77.2095	0.12	154419	keystroke_a	a	n/a
77.4945	0.09	154989	keystroke_b	b	n/a
77.7345	0.09	155469	keystroke_s	s	n/a
78.7695	0.075	157539	keystroke_e	e	n/a
78.9345	0.12	157869	keystroke_n	n	n/a
79.0695	0.12	158139	keystroke_c	c	n/a
79.1445	0.09	158289	keystroke_e	e	n/a
79.2945	0.12	158589	keystroke_Key.space	Key.space	n/a
79.8345	0.135	159669	keystroke_i	i	n/a
79.9245	0.165	159849	keystroke_n	n	n/a
80.1195	0.12	160239	keystroke_d	d	n/a
80.2545	0.06	160509	keystroke_i	i	n/a
80.3445	0.105	160689	keystroke_a	a	n/a
80.4645	0.075	160929	keystroke_n	n	n/a
80.7195	0.09	161439	keystroke_s	s	n/a
80.8695	0.075	161739	keystroke_Key.enter	Key.enter	n/a
80.9495	8.381	161899	prompt	n/a	enables entertainment warm starring\n
81.8145	0.09	163629	keystroke_e	e	n/a
81.9195	0.09	163839	keystroke_n	n	n/a
82.0845	0.09	164169	keystroke_a	a	n/a
82.3245	0.0755	164649	keystroke_b	b	n/a
82.5045	0.06	165009	keystroke_l	l	n/a
82.5795	0.09	165159	keystroke_e	e	n/a
82.7445	0.105	165489	keystroke_s	s	n/a
82.8945	0.09	165789	keystroke_Key.space	Key.space	n/a
83.0895	0.09	166179	keystroke_e	e	n/a
83.1945	0.09	166389	keystroke_n	n	n/a
83.3745	0.105	166749	keystroke_t	t	n/a
83.4945	0.135	166989	keystroke_e	e	n/a
83.5995	0.09	167199	keystroke_r	r	n/a
84.5445	0.09	169089	keystroke_t	t	n/a
84.7545	0.105	169509	keystroke_a	a	n/a
84.9045	0.15	169809	keystroke_i	i	n/a
85.0095	0.12	170019	keystroke_n	n	n/a
85.3095	0.105	170619	keystroke_m	m	n/a
85.4295	0.09	170859	keystroke_e	e	n/a
85.5495	0.105	171099	keystroke_n	n	n/a
85.6845	0.075	171369	keystroke_t	t	n/a
85.8495	0.09	171699	keystroke_Key.space	Key.space	n/a
85.97	0.1195	171940	keystroke_w	w	n/a
86.1345	0.105	172269	keystroke_a	a	n/a
86.3295	0.105	172659	keystroke_r	r	n/a
86.4495	0.105	172899	keystroke_m	m	n/a
86.7195	0.06	173439	keystroke_Key.space	Key.space	n/a
86.8545	0.105	173709	keystroke_s	s	n/a
87.0645	0.09	174129	keystroke_t	t	n/a
87.1245	0.165	174249	keystroke_a	a	n/a
87.3045	0.06	174609	keystroke_r	r	n/a
87.4845	0.09	174969	keystroke_t	t	n/a
87.7995	0.12	175599	keystroke_t	t	n/a
88.2495	0.06	176499	keystroke_Key.backspace	Key.backspace	n/a
88.4145	0.075	176829	keystroke_Key.backspace	Key.backspace	n/a
88.5045	0.09	177009	keystroke_r	r	n/a
88.8345	0.135	177669	keystroke_i	i	n/a
88.9395	0.12	177879	keystroke_n	n	n/a
89.0445	0.075	178089	keystroke_g	g	n/a
89.2395	0.09	178479	keystroke_Key.enter	Key.enter	n/a
89.3365	7.06	178673	prompt	n/a	matt genres franchise editions\n
90.0795	0.105	180159	keystroke_m	m	n/a
90.1545	0.105	180309	keystroke_a	a	n/a
90.4095	0.045	180819	keystroke_t	t	n/a
90.5295	0.105	181059	keystroke_t	t	n/a
90.7245	0.12	181449	keystroke_Key.space	Key.space	n/a
90.9795	0.12	181959	keystroke_g	g	n/a
91.1145	0.075	182229	keystroke_e	e	n/a
91.3095	0.105	182619	keystroke_n	n	n/a
91.6395	0.09	183279	keystroke_r	r	n/a
91.6995	0.12	183399	keystroke_e	e	n/a
91.9395	0.075	183879	keystroke_s	s	n/a
92.0895	0.12	184179	keystroke_Key.space	Key.space	n/a
92.4045	0.105	184809	keystroke_f	f	n/a
92.6455	0.134	185291	keystroke_r	r	n/a
92.7195	0.135	185439	keystroke_a	a	n/a
92.9595	0.12	185919	keystroke_n	n	n/a
93.2145	0.105	186429	keystroke_c	c	n/a
93.6795	0.12	187359	keystroke_h	h	n/a
93.9195	0.09	187839	keystroke_i	i	n/a
94.0095	0.135	188019	keystroke_s	s	n/a
94.3095	0.09	188619	keystroke_e	e	n/a
94.6995	0.09	189399	keystroke_Key.space	Key.space	n/a
95.0895	0.075	190179	keystroke_e	e	n/a
95.2995	0.12	190599	keystroke_d	d	n/a
95.4495	0.075	190899	keystroke_i	i	n/a
95.5695	0.105	191139	keystroke_t	t	n/a
95.7495	0.195	191499	keystroke_i	i	n/a
95.8695	0.18	191739	keystroke_o	o	n/a
95.9745	0.135	191949	keystroke_n	n	n/a
96.0345	0.135	192069	keystroke_s	s	n/a
96.3345	0.06	192669	keystroke_Key.enter	Key.enter	n/a
96.3995	5.831	192799	prompt	n/a	passport front associate scenic\n
97.1595	0.075	194319	keystroke_p	p	n/a
97.2495	0.135	194499	keystroke_a	a	n/a
97.3545	0.075	194709	keystroke_s	s	n/a
97.52	0.1045	195040	keystroke_s	s	n/a
97.8795	0.18	195759	keystroke_p	p	n/a
97.9845	0.12	195969	keystroke_o	o	n/a
98.0745	0.105	196149	keystroke_r	r	n/a
98.2995	0.06	196599	keystroke_t	t	n/a
98.4045	0.12	196809	keystroke_Key.space	Key.space	n/a
98.5995	0.15	197199	keystroke_f	f	n/a
98.6895	0.135	197379	keystroke_r	r	n/a
98.8095	0.1365	197619	keystroke_o	o	n/a
98.885	0.1345	197770	keystroke_n	n	n/a
99.0195	0.09	198039	keystroke_t	t	n/a
99.1845	0.12	198369	keystroke_Key.space	Key.space	n/a
99.4695	0.12	198939	keystroke_a	a	n/a
99.6045	0.09	199209	keystroke_s	s	n/a
99.7845	0.075	199569	keystroke_s	s	n/a
99.8895	0.09	199779	keystroke_o	o	n/a
100.0245	0.105	200049	keystroke_c	c	n/a
100.1595	0.075	200319	keystroke_i	i	n/a
100.2495	0.105	200499	keystroke_a	a	n/a
100.4895	0.12	200979	keystroke_t	t	n/a
100.5645	0.105	201129	keystroke_e	e	n/a
100.7455	0.119	201491	keystroke_Key.space	Key.space	n/a
100.9995	0.12	201999	keystroke_s	s	n/a
101.2095	0.075	202419	keystroke_c	c	n/a
101.4045	0.105	202809	keystroke_e	e	n/a
101.5695	0.105	203139	keystroke_n	n	n/a
101.8095	0.075	203619	keystroke_i	i	n/a
101.8995	0.12	203799	keystroke_c	c	n/a
102.1395	0.09	204279	keystroke_Key.enter	Key.enter	n/a
102.2335	8.847	204467	prompt	n/a	powder invitation traveler plasma\n
102.9045	0.18	205809	keystroke_p	p	n/a
103.0395	0.1065	206079	keystroke_o	o	n/a
103.1595	0.165	206319	keystroke_w	w	n/a
104.1645	0.105	208329	keystroke_d	d	n/a
104.4195	0.15	208839	keystroke_e	e	n/a
104.5095	0.135	209019	keystroke_r	r	n/a
104.7345	0.12	209469	keystroke_Key.space	Key.space	n/a
105.1845	0.165	210369	keystroke_i	i	n/a
105.3045	0.12	210609	keystroke_n	n	n/a
105.4395	0.15	210879	keystroke_c	c	n/a
106.0845	0.06	212169	keystroke_Key.backspace	Key.backspace	n/a
106.1895	0.09	212379	keystroke_v	v	n/a
106.3995	0.075	212799	keystroke_i	i	n/a
107.1345	0.12	214269	keystroke_t	t	n/a
107.2095	0.105	214419	keystroke_a	a	n/a
107.3895	0.106	214779	keystroke_t	t	n/a
107.4645	0.15	214929	keystroke_i	i	n/a
107.5095	0.165	215019	keystroke_o	o	n/a
107.5995	0.15	215199	keystroke_n	n	n/a
107.9295	0.165	215859	keystroke_Key.space	Key.space	n/a
108.2145	0.15	216429	keystroke_t	t	n/a
108.3195	0.15	216639	keystroke_r	r	n/a
108.3955	0.134	216791	keystroke_a	a	n/a
108.7245	0.1055	217449	keystroke_v	v	n/a
108.8745	0.105	217749	keystroke_e	e	n/a
109.0545	0.075	218109	keystroke_l	l	n/a
109.1745	0.135	218349	keystroke_e	e	n/a
109.2795	0.12	218559	keystroke_r	r	n/a
109.6545	0.12	219309	keystroke_Key.space	Key.space	n/a
109.865	0.1195	219730	keystroke_p	p	n/a
109.9545	0.12	219909	keystroke_l	l	n/a
109.9995	0.135	219999	keystroke_a	a	n/a
110.2545	0.075	220509	keystroke_s	s	n/a
110.6745	0.12	221349	keystroke_m	m	n/a
110.7795	0.09	221559	keystroke_a	a	n/a
110.9745	0.105	221949	keystroke_Key.enter	Key.enter	n/a
111.084	7.4815	222168	prompt	n/a	elevation tales cadillac smooth\n
111.8895	0.105	223779	keystroke_e	e	n/a
112.1455	0.074	224291	keystroke_l	l	n/a
112.2045	0.12	224409	keystroke_e	e	n/a
112.5645	0.12	225129	keystroke_v	v	n/a
113.0745	0.105	226149	keystroke_a	a	n/a
113.4195	0.076	226839	keystroke_t	t	n/a
113.4795	0.166	226959	keystroke_i	i	n/a
113.5095	0.18	227019	keystroke_o	o	n/a
113.6745	0.105	227349	keystroke_n	n	n/a
113.7495	0.105	227499	keystroke_Key.space	Key.space	n/a
113.8995	0.135	227799	keystroke_t	t	n/a
114.0195	0.105	228039	keystroke_a	a	n/a
114.1095	0.12	228219	keystroke_l	l	n/a
114.2745	0.15	228549	keystroke_e	e	n/a
114.4695	0.105	228939	keystroke_s	s	n/a
114.635	0.1045	229270	keystroke_Key.space	Key.space	n/a
114.83	0.1795	229660	keystroke_c	c	n/a
114.9345	0.12	229869	keystroke_a	a	n/a
115.2195	0.105	230439	keystroke_d	d	n/a
115.3695	0.09	230739	keystroke_i	i	n/a
115.5345	0.105	231069	keystroke_a	a	n/a
115.9545	0.06	231909	keystroke_Key.backspace	Key.backspace	n/a
116.2395	0.06	232479	keystroke_l	l	n/a
116.4195	0.06	232839	keystroke_l	l	n/a
116.5845	0.105	233169	keystroke_a	a	n/a
116.946	0.1185	233892	keystroke_c	c	n/a
117.1545	0.105	234309	keystroke_Key.space	Key.space	n/a
117.3195	0.135	234639	keystroke_s	s	n/a
117.4395	0.09	234879	keystroke_m	m	n/a
117.6645	0.06	235329	keystroke_o	o	n/a
117.8145	0.09	235629	keystroke_o	o	n/a
117.9495	0.075	235899	keystroke_t	t	n/a
118.0995	0.075	236199	keystroke_h	h	n/a
118.4595	0.105	236919	keystroke_Key.enter	Key.enter	n/a
118.5685	8.2625	237137	prompt	n/a	outreach after scheduled destinations\n
119.3895	0.15	238779	keystroke_o	o	n/a
119.4795	0.135	238959	keystroke_u	u	n/a
119.6595	0.075	239319	keystroke_t	t	n/a
120.0045	0.15	240009	keystroke_r	r	n/a
120.0795	0.18	240159	keystroke_e	e	n/a
120.185	0.1645	240370	keystroke_a	a	n/a
120.547	0.0875	241094	keystroke_c	c	n/a
120.696	0.0885	241392	keystroke_h	h	n/a
121.0845	0.12	242169	keystroke_Key.space	Key.space	n/a
121.5645	0.12	243129	keystroke_a	a	n/a
121.8195	0.105	243639	keystroke_f	f	n/a
122.0745	0.121	244149	keystroke_t	t	n/a
122.18	0.1495	244360	keystroke_e	e	n/a
122.2995	0.075	244599	keystroke_r	r	n/a
122.4195	0.15	244839	keystroke_Key.space	Key.space	n/a
122.8995	0.12	245799	keystroke_s	s	n/a
123.1845	0.12	246369	keystroke_c	c	n/a
123.3955	0.089	246791	keystroke_h	h	n/a
123.4995	0.09	246999	keystroke_e	e	n/a
123.7245	0.105	247449	keystroke_d	d	n/a
123.846	0.0885	247692	keystroke_u	u	n/a
124.0395	0.09	248079	keystroke_l	l	n/a
124.1145	0.09	248229	keystroke_e	e	n/a
124.3395	0.135	248679	keystroke_d	d	n/a
124.5195	0.105	249039	keystroke_Key.space	Key.space	n/a
124.8795	0.075	249759	keystroke_d	d	n/a
125.075	0.0745	250150	keystroke_e	e	n/a
125.2845	0.12	250569	keystroke_s	s	n/a
125.5695	0.09	251139	keystroke_t	t	n/a
125.7045	0.075	251409	keystroke_i	i	n/a
125.9145	0.075	251829	keystroke_n	n	n/a
126.0045	0.075	252009	keystroke_a	a	n/a
126.185	0.1195	252370	keystroke_t	t	n/a
126.2895	0.106	252579	keystroke_i	i	n/a
126.3195	0.15	252639	keystroke_o	o	n/a
126.4245	0.1055	252849	keystroke_n	n	n/a
126.5145	0.12	253029	keystroke_s	s	n/a
126.7395	0.09	253479	keystroke_Key.enter	Key.enter	n/a
126.834	5.8465	253668	prompt	n/a	hearts magnet tire founder\n
127.6545	0.0755	255309	keystroke_h	h	n/a
127.7595	0.136	255519	keystroke_e	e	n/a
127.8195	0.12	255639	keystroke_a	a	n/a
128.1045	0.075	256209	keystroke_r	r	n/a
128.5845	0.09	257169	keystroke_t	t	n/a
128.7955	0.104	257591	keystroke_s	s	n/a
128.9595	0.12	257919	keystroke_Key.space	Key.space	n/a
129.23	0.0895	258460	keystroke_m	m	n/a
129.3045	0.105	258609	keystroke_a	a	n/a
129.5595	0.09	259119	keystroke_g	g	n/a
129.8455	0.089	259691	keystroke_n	n	n/a
129.9495	0.105	259899	keystroke_e	e	n/a
130.1895	0.06	260379	keystroke_t	t	n/a
130.3545	0.105	260709	keystroke_Key.space	Key.space	n/a
130.6995	0.06	261399	keystroke_t	t	n/a
130.8345	0.09	261669	keystroke_i	i	n/a
130.97	0.0895	261940	keystroke_r	r	n/a
131.03	0.135	262060	keystroke_e	e	n/a
131.1795	0.12	262359	keystroke_Key.space	Key.space	n/a
131.5245	0.09	263049	keystroke_f	f	n/a
131.7495	0.12	263499	keystroke_o	o	n/a
131.81	0.1045	263620	keystroke_u	u	n/a
132.0645	0.09	264129	keystroke_n	n	n/a
132.1245	0.105	264249	keystroke_d	d	n/a
132.3645	0.15	264729	keystroke_e	e	n/a
132.4545	0.105	264909	keystroke_r	r	n/a
132.59	0.0895	265180	keystroke_Key.enter	Key.enter	n/a
132.6835	6.882	265367	prompt	n/a	sites pending cluster huntington\n
133.3845	0.12	266769	keystroke_s	s	n/a
133.6395	0.06	267279	keystroke_i	i	n/a
133.7595	0.136	267519	keystroke_t	t	n/a
133.8645	0.09	267729	keystroke_e	e	n/a
134.0595	0.075	268119	keystroke_s	s	n/a
134.2095	0.12	268419	keystroke_Key.space	Key.space	n/a
134.5095	0.075	269019	keystroke_p	p	n/a
134.5695	0.09	269139	keystroke_e	e	n/a
134.7195	0.076	269439	keystroke_n	n	n/a
134.8545	0.12	269709	keystroke_d	d	n/a
134.9895	0.135	269979	keystroke_i	i	n/a
135.0795	0.12	270159	keystroke_n	n	n/a
135.2145	0.075	270429	keystroke_g	g	n/a
135.3195	0.12	270639	keystroke_Key.space	Key.space	n/a
135.6795	0.09	271359	keystroke_c	c	n/a
135.8595	0.15	271719	keystroke_l	l	n/a
135.9955	0.104	271991	keystroke_u	u	n/a
136.16	0.1045	272320	keystroke_s	s	n/a
136.4145	0.09	272829	keystroke_t	t	n/a
136.4745	0.2105	272949	keystroke_e	e	n/a
136.6695	0.09	273339	keystroke_r	r	n/a
136.8645	0.12	273729	keystroke_Key.space	Key.space	n/a
137.18	0.1045	274360	keystroke_h	h	n/a
137.5695	0.12	275139	keystroke_u	u	n/a
137.8845	0.105	275769	keystroke_n	n	n/a
138.1095	0.09	276219	keystroke_t	t	n/a
138.2145	0.06	276429	keystroke_i	i	n/a
138.4095	0.105	276819	keystroke_n	n	n/a
138.5745	0.105	277149	keystroke_g	g	n/a
138.9795	0.09	277959	keystroke_t	t	n/a
139.0845	0.135	278169	keystroke_o	o	n/a
139.1895	0.1065	278379	keystroke_n	n	n/a
139.475	0.0895	278950	keystroke_Key.enter	Key.enter	n/a
139.5685	10.257	279137	prompt	n/a	rolled coordinates whereas phentermine\n
140.975	0.0895	281950	keystroke_r	r	n/a
141.1245	0.06	282249	keystroke_o	o	n/a
141.3795	0.03	282759	keystroke_l	l	n/a
141.5295	0.075	283059	keystroke_l	l	n/a
141.6195	0.076	283239	keystroke_e	e	n/a
141.8145	0.105	283629	keystroke_d	d	n/a
141.9645	0.105	283929	keystroke_Key.space	Key.space	n/a
142.3545	0.045	284709	keystroke_o	o	n/a
142.8795	0.06	285759	keystroke_Key.backspace	Key.backspace	n/a
142.9695	0.105	285939	keystroke_c	c	n/a
143.1495	0.075	286299	keystroke_o	o	n/a
143.3295	0.075	286659	keystroke_o	o	n/a
143.7645	0.09	287529	keystroke_r	r	n/a
144.3955	0.104	288791	keystroke_d	d	n/a
144.5145	0.075	289029	keystroke_i	i	n/a
144.7395	0.06	289479	keystroke_n	n	n/a
144.83	0.105	289660	keystroke_a	a	n/a
145.0245	0.15	290049	keystroke_t	t	n/a
145.0995	0.12	290199	keystroke_e	e	n/a
145.2955	0.119	290591	keystroke_s	s	n/a
145.4295	0.105	290859	keystroke_Key.space	Key.space	n/a
145.58	0.1045	291160	keystroke_w	w	n/a
145.7895	0.075	291579	keystroke_h	h	n/a
145.8495	0.135	291699	keystroke_e	e	n/a
145.9545	0.135	291909	keystroke_r	r	n/a
146.0745	0.075	292149	keystroke_e	e	n/a
146.2695	0.12	292539	keystroke_a	a	n/a
146.4795	0.12	292959	keystroke_s	s	n/a
146.6595	0.136	293319	keystroke_Key.space	Key.space	n/a
147.26	0.1045	294520	keystroke_p	p	n/a
147.546	0.0735	295092	keystroke_h	h	n/a
148.1745	0.1055	296349	keystroke_e	e	n/a
148.475	0.1205	296950	keystroke_n	n	n/a
148.7455	0.119	297491	keystroke_t	t	n/a
148.9095	0.18	297819	keystroke_e	e	n/a
149.0595	0.075	298119	keystroke_r	r	n/a
149.1645	0.135	298329	keystroke_m	m	n/a
149.3595	0.165	298719	keystroke_i	i	n/a
149.4195	0.165	298839	keystroke_n	n	n/a
149.5395	0.09	299079	keystroke_e	e	n/a
149.7495	0.075	299499	keystroke_Key.enter	Key.enter	n/a
149.8295	10.422	299659	prompt	n/a	performances guyana ebony it\n
150.9195	0.076	301839	keystroke_p	p	n/a
150.995	0.12	301990	keystroke_e	e	n/a
151.0995	0.09	302199	keystroke_r	r	n/a
151.3995	0.12	302799	keystroke_f	f	n/a
151.7	0.0895	303400	keystroke_r	r	n/a
151.8045	0.0755	303609	keystroke_o	o	n/a
151.97	0.1195	303940	keystroke_a	a	n/a
152.0145	0.12	304029	keystroke_m	m	n/a
152.5695	0.045	305139	keystroke_Key.backspace	Key.backspace	n/a
152.7345	0.045	305469	keystroke_Key.backspace	Key.backspace	n/a
152.8845	0.045	305769	keystroke_Key.backspace	Key.backspace	n/a
153.0345	0.061	306069	keystroke_Key.backspace	Key.backspace	n/a
153.4695	0.09	306939	keystroke_o	o	n/a
153.635	0.1045	307270	keystroke_r	r	n/a
153.9195	0.0905	307839	keystroke_m	m	n/a
154.0095	0.105	308019	keystroke_a	a	n/a
154.1595	0.09	308319	keystroke_n	n	n/a
154.28	0.135	308560	keystroke_c	c	n/a
154.3695	0.09	308739	keystroke_e	e	n/a
154.5195	0.105	309039	keystroke_s	s	n/a
154.6545	0.12	309309	keystroke_Key.space	Key.space	n/a
155.0895	0.1055	310179	keystroke_g	g	n/a
155.5845	0.061	311169	keystroke_u	u	n/a
156.5895	0.075	313179	keystroke_y	y	n/a
156.8745	0.105	313749	keystroke_a	a	n/a
157.235	0.0745	314470	keystroke_n	n	n/a
157.3695	0.09	314739	keystroke_a	a	n/a
157.76	0.1495	315520	keystroke_Key.space	Key.space	n/a
158.0895	0.09	316179	keystroke_e	e	n/a
158.7645	0.09	317529	keystroke_b	b	n/a
158.9145	0.075	317829	keystroke_o	o	n/a
159.11	0.0895	318220	keystroke_n	n	n/a
159.4395	0.075	318879	keystroke_y	y	n/a
159.6345	0.105	319269	keystroke_Key.space	Key.space	n/a
159.9045	0.075	319809	keystroke_i	i	n/a
160.0095	0.075	320019	keystroke_t	t	n/a
160.16	0.09	320320	keystroke_Key.enter	Key.enter	n/a
160.254	7.9925	320508	prompt	n/a	feedback latina gratis how're\n
161.1345	0.135	322269	keystroke_f	f	n/a
161.2845	0.0755	322569	keystroke_e	e	n/a
161.4645	0.09	322929	keystroke_e	e	n/a
161.8245	0.105	323649	keystroke_d	d	n/a
162.2895	0.1055	324579	keystroke_b	b	n/a
162.515	0.1645	325030	keystroke_a	a	n/a
162.695	0.1195	325390	keystroke_c	c	n/a
162.8295	0.1205	325659	keystroke_k	k	n/a
162.9355	0.134	325871	keystroke_Key.space	Key.space	n/a
163.265	0.0895	326530	keystroke_l	l	n/a
163.3395	0.1505	326679	keystroke_a	a	n/a
163.715	0.1045	327430	keystroke_t	t	n/a
163.9245	0.1215	327849	keystroke_n	n	n/a
164.375	0.06	328750	keystroke_Key.backspace	Key.backspace	n/a
164.6455	0.074	329291	keystroke_i	i	n/a
164.8245	0.1205	329649	keystroke_n	n	n/a
164.93	0.1195	329860	keystroke_a	a	n/a
165.08	0.0895	330160	keystroke_Key.space	Key.space	n/a
165.425	0.1345	330850	keystroke_g	g	n/a
165.5295	0.12	331059	keystroke_r	r	n/a
165.5895	0.135	331179	keystroke_a	a	n/a
165.83	0.1045	331660	keystroke_t	t	n/a
165.9645	0.0755	331929	keystroke_i	i	n/a
166.28	0.1045	332560	keystroke_s	s	n/a
166.4455	0.089	332891	keystroke_Key.space	Key.space	n/a
166.7145	0.105	333429	keystroke_h	h	n/a
166.8805	0.089	333761	keystroke_o	o	n/a
166.985	0.0895	333970	keystroke_w	w	n/a
167.315	0.0595	334630	keystroke_'	'	n/a
167.7645	0.1205	335529	keystroke_r	r	n/a
167.8395	0.106	335679	keystroke_e	e	n/a
168.1395	0.106	336279	keystroke_Key.enter	Key.enter	n/a
168.249	9.057	336498	prompt	n/a	wide mechanical precipitation trained\n
169.085	0.0895	338170	keystroke_w	w	n/a
169.3395	0.0605	338679	keystroke_i	i	n/a
169.4295	0.09	338859	keystroke_d	d	n/a
169.655	0.0905	339310	keystroke_e	e	n/a
169.85	0.1195	339700	keystroke_Key.space	Key.space	n/a
170.285	0.1345	340570	keystroke_m	m	n/a
170.615	0.0895	341230	keystroke_e	e	n/a
171.2	0.1045	342400	keystroke_c	c	n/a
171.4545	0.0755	342909	keystroke_h	h	n/a
171.9495	0.09	343899	keystroke_a	a	n/a
172.0545	0.075	344109	keystroke_n	n	n/a
172.28	0.0595	344560	keystroke_i	i	n/a
172.4595	0.12	344919	keystroke_c	c	n/a
172.5345	0.135	345069	keystroke_a	a	n/a
172.655	0.091	345310	keystroke_l	l	n/a
172.8795	0.105	345759	keystroke_Key.space	Key.space	n/a
173.135	0.075	346270	keystroke_p	p	n/a
173.3305	0.104	346661	keystroke_r	r	n/a
173.39	0.1195	346780	keystroke_e	e	n/a
173.735	0.09	347470	keystroke_c	c	n/a
173.8995	0.046	347799	keystroke_i	i	n/a
174.35	0.1045	348700	keystroke_p	p	n/a
174.5595	0.09	349119	keystroke_i	i	n/a
175.19	0.1195	350380	keystroke_t	t	n/a
175.295	0.151	350590	keystroke_a	a	n/a
175.43	0.1045	350860	keystroke_t	t	n/a
175.5495	0.0905	351099	keystroke_i	i	n/a
175.5645	0.165	351129	keystroke_o	o	n/a
175.685	0.1195	351370	keystroke_n	n	n/a
175.9545	0.0915	351909	keystroke_Key.space	Key.space	n/a
176.2245	0.135	352449	keystroke_t	t	n/a
176.33	0.12	352660	keystroke_r	r	n/a
176.3895	0.15	352779	keystroke_a	a	n/a
176.5245	0.105	353049	keystroke_i	i	n/a
176.615	0.1045	353230	keystroke_n	n	n/a
176.735	0.0445	353470	keystroke_e	e	n/a
176.975	0.1495	353950	keystroke_d	d	n/a
177.2	0.105	354400	keystroke_Key.enter	Key.enter	n/a
177.309	6.162	354618	prompt	n/a	border fear slow desktops\n
178.4145	0.105	356829	keystroke_b	b	n/a
178.775	0.0595	357550	keystroke_o	o	n/a
178.925	0.0895	357850	keystroke_r	r	n/a
179.21	0.135	358420	keystroke_d	d	n/a
179.5095	0.15	359019	keystroke_e	e	n/a
179.6145	0.105	359229	keystroke_r	r	n/a
179.7345	0.105	359469	keystroke_Key.space	Key.space	n/a
179.93	0.1495	359860	keystroke_f	f	n/a
180.0195	0.15	360039	keystroke_e	e	n/a
180.215	0.1195	360430	keystroke_a	a	n/a
180.425	0.135	360850	keystroke_r	r	n/a
180.6645	0.105	361329	keystroke_Key.space	Key.space	n/a
180.8	0.1345	361600	keystroke_s	s	n/a
180.92	0.075	361840	keystroke_l	l	n/a
181.1145	0.075	362229	keystroke_o	o	n/a
181.2045	0.1055	362409	keystroke_w	w	n/a
181.385	0.1195	362770	keystroke_Key.space	Key.space	n/a
181.6245	0.135	363249	keystroke_d	d	n/a
181.91	0.1045	363820	keystroke_e	e	n/a
182.135	0.12	364270	keystroke_s	s	n/a
182.435	0.1345	364870	keystroke_k	k	n/a
182.84	0.0895	365680	keystroke_t	t	n/a
182.96	0.15	365920	keystroke_o	o	n/a
183.035	0.1345	366070	keystroke_p	p	n/a
183.155	0.105	366310	keystroke_s	s	n/a
183.3645	0.105	366729	keystroke_Key.enter	Key.enter	n/a
183.475	8.6955	366950	prompt	n/a	joyce rush thereof leaders\n
184.9995	0.135	369999	keystroke_j	j	n/a
185.4195	0.09	370839	keystroke_o	o	n/a
186.035	0.1195	372070	keystroke_y	y	n/a
186.86	0.12	373720	keystroke_c	c	n/a
186.935	0.1045	373870	keystroke_e	e	n/a
187.205	0.1345	374410	keystroke_Key.space	Key.space	n/a
187.865	0.0895	375730	keystroke_r	r	n/a
188.3455	0.1195	376691	keystroke_u	u	n/a
188.6145	0.09	377229	keystroke_s	s	n/a
188.7645	0.09	377529	keystroke_h	h	n/a
189.05	0.1045	378100	keystroke_Key.space	Key.space	n/a
189.425	0.0745	378850	keystroke_t	t	n/a
189.545	0.0745	379090	keystroke_h	h	n/a
189.605	0.12	379210	keystroke_e	e	n/a
189.71	0.12	379420	keystroke_r	r	n/a
189.8145	0.075	379629	keystroke_e	e	n/a
189.9645	0.0755	379929	keystroke_o	o	n/a
190.1595	0.105	380319	keystroke_f	f	n/a
190.3395	0.12	380679	keystroke_Key.space	Key.space	n/a
190.8045	0.0905	381609	keystroke_l	l	n/a
190.895	0.1795	381790	keystroke_e	e	n/a
191	0.1345	382000	keystroke_a	a	n/a
191.3895	0.09	382779	keystroke_d	d	n/a
191.645	0.15	383290	keystroke_e	e	n/a
191.735	0.1045	383470	keystroke_r	r	n/a
191.9145	0.135	383829	keystroke_s	s	n/a
192.0645	0.105	384129	keystroke_Key.enter	Key.enter	n/a
192.1735	9.328	384347	prompt	n/a	satisfaction http personnel disclaimer\n
193.01	0.1495	386020	keystroke_s	s	n/a
193.13	0.1195	386260	keystroke_a	a	n/a
193.3695	0.0755	386739	keystroke_t	t	n/a
193.5345	0.0605	387069	keystroke_i	i	n/a
193.61	0.135	387220	keystroke_s	s	n/a
194.165	0.1345	388330	keystroke_f	f	n/a
194.2695	0.135	388539	keystroke_a	a	n/a
194.5695	0.076	389139	keystroke_c	c	n/a
194.825	0.0895	389650	keystroke_t	t	n/a
195.05	0.1195	390100	keystroke_i	i	n/a
195.1245	0.21	390249	keystroke_o	o	n/a
195.3195	0.105	390639	keystroke_n	n	n/a
195.53	0.1345	391060	keystroke_Key.space	Key.space	n/a
195.995	0.0745	391990	keystroke_h	h	n/a
196.505	0.09	393010	keystroke_t	t	n/a
196.6995	0.075	393399	keystroke_t	t	n/a
196.8195	0.105	393639	keystroke_p	p	n/a
197.33	0.075	394660	keystroke_Key.space	Key.space	n/a
197.6895	0.0605	395379	keystroke_p	p	n/a
197.7645	0.135	395529	keystroke_e	e	n/a
197.855	0.0745	395710	keystroke_r	r	n/a
198.0645	0.1355	396129	keystroke_s	s	n/a
198.1995	0.09	396399	keystroke_o	o	n/a
198.44	0.045	396880	keystroke_n	n	n/a
198.59	0.0895	397180	keystroke_n	n	n/a
198.665	0.0895	397330	keystroke_e	e	n/a
198.83	0.0745	397660	keystroke_l	l	n/a
198.98	0.1195	397960	keystroke_Key.space	Key.space	n/a
199.37	0.09	398740	keystroke_d	d	n/a
199.535	0.0445	399070	keystroke_i	i	n/a
199.595	0.1195	399190	keystroke_s	s	n/a
199.88	0.166	399760	keystroke_c	c	n/a
200.105	0.1045	400210	keystroke_l	l	n/a
200.3145	0.1205	400629	keystroke_a	a	n/a
200.6005	0.074	401201	keystroke_i	i	n/a
200.945	0.1045	401890	keystroke_m	m	n/a
201.065	0.1805	402130	keystroke_e	e	n/a
201.14	0.1345	402280	keystroke_r	r	n/a
201.395	0.105	402790	keystroke_Key.enter	Key.enter	n/a
201.5045	7.931	403009	prompt	n/a	camera cocktail machines australia\n
202.43	0.165	404860	keystroke_c	c	n/a
202.835	0.1345	405670	keystroke_e	e	n/a
203.27	0.0895	406540	keystroke_Key.backspace	Key.backspace	n/a
203.345	0.1195	406690	keystroke_a	a	n/a
203.57	0.1045	407140	keystroke_m	m	n/a
203.6595	0.18	407319	keystroke_e	e	n/a
203.765	0.1045	407530	keystroke_r	r	n/a
203.9475	0.133	407895	keystroke_a	a	n/a
204.14	0.1195	408280	keystroke_Key.space	Key.space	n/a
204.5	0.135	409000	keystroke_c	c	n/a
204.65	0.09	409300	keystroke_o	o	n/a
204.755	0.1195	409510	keystroke_c	c	n/a
204.9345	0.1055	409869	keystroke_k	k	n/a
205.2645	0.1205	410529	keystroke_t	t	n/a
205.355	0.105	410710	keystroke_a	a	n/a
205.4745	0.0905	410949	keystroke_i	i	n/a
205.8195	0.0755	411639	keystroke_l	l	n/a
206.03	0.075	412060	keystroke_Key.space	Key.space	n/a
206.36	0.09	412720	keystroke_m	m	n/a
206.465	0.12	412930	keystroke_a	a	n/a
206.66	0.1355	413320	keystroke_c	c	n/a
206.765	0.105	413530	keystroke_h	h	n/a
206.84	0.12	413680	keystroke_i	i	n/a
207.065	0.075	414130	keystroke_n	n	n/a
207.1695	0.105	414339	keystroke_e	e	n/a
207.3205	0.119	414641	keystroke_s	s	n/a
207.425	0.1045	414850	keystroke_Key.space	Key.space	n/a
207.59	0.1345	415180	keystroke_a	a	n/a
207.74	0.03	415480	keystroke_u	u	n/a
207.875	0.12	415750	keystroke_s	s	n/a
208.1145	0.165	416229	keystroke_t	t	n/a
208.2495	0.1505	416499	keystroke_r	r	n/a
208.355	0.1345	416710	keystroke_a	a	n/a
208.7	0.1645	417400	keystroke_l	l	n/a
208.805	0.09	417610	keystroke_i	i	n/a
209.015	0.1195	418030	keystroke_a	a	n/a
209.315	0.1195	418630	keystroke_Key.enter	Key.enter	n/a
209.4385	8.6085	418877	prompt	n/a	ampland alabama collection well\n
210.335	0.0895	420670	keystroke_a	a	n/a
210.455	0.15	420910	keystroke_m	m	n/a
210.71	0.0745	421420	keystroke_p	p	n/a
211.04	0.09	422080	keystroke_l	l	n/a
211.145	0.1345	422290	keystroke_a	a	n/a
211.355	0.0905	422710	keystroke_n	n	n/a
211.505	0.1195	423010	keystroke_d	d	n/a
211.745	0.1195	423490	keystroke_Key.space	Key.space	n/a
212.015	0.1045	424030	keystroke_a	a	n/a
212.15	0.06	424300	keystroke_l	l	n/a
212.255	0.0905	424510	keystroke_a	a	n/a
213.245	0.1195	426490	keystroke_b	b	n/a
213.71	0.0895	427420	keystroke_a	a	n/a
214.01	0.1045	428020	keystroke_m	m	n/a
214.1	0.1045	428200	keystroke_a	a	n/a
214.385	0.1045	428770	keystroke_Key.space	Key.space	n/a
214.6395	0.135	429279	keystroke_c	c	n/a
214.76	0.075	429520	keystroke_o	o	n/a
215	0.0455	430000	keystroke_l	l	n/a
215.15	0.075	430300	keystroke_l	l	n/a
215.24	0.09	430480	keystroke_e	e	n/a
215.51	0.1195	431020	keystroke_c	c	n/a
215.84	0.0745	431680	keystroke_t	t	n/a
215.885	0.1045	431770	keystroke_i	i	n/a
215.96	0.1495	431920	keystroke_o	o	n/a
216.0345	0.18	432069	keystroke_n	n	n/a
216.275	0.1495	432550	keystroke_w	w	n/a
216.4545	0.091	432909	keystroke_Key.space	Key.space	n/a
216.875	0.0445	433750	keystroke_Key.backspace	Key.backspace	n/a
217.01	0.0595	434020	keystroke_Key.backspace	Key.backspace	n/a
217.1895	0.106	434379	keystroke_Key.space	Key.space	n/a
217.265	0.1495	434530	keystroke_w	w	n/a
217.355	0.1195	434710	keystroke_e	e	n/a
217.505	0.105	435010	keystroke_l	l	n/a
217.685	0.1045	435370	keystroke_l	l	n/a
217.9245	0.121	435849	keystroke_Key.enter	Key.enter	n/a
218.0495	12.4915	436099	prompt	n/a	journalists burton winning march\n
218.81	0.105	437620	keystroke_j	j	n/a
219.23	0.15	438460	keystroke_o	o	n/a
219.335	0.1045	438670	keystroke_i	i	n/a
219.575	0.105	439150	keystroke_r	r	n/a
219.785	0.0745	439570	keystroke_n	n	n/a
219.89	0.0895	439780	keystroke_a	a	n/a
220.265	0.045	440530	keystroke_Key.backspace	Key.backspace	n/a
220.415	0.06	440830	keystroke_Key.backspace	Key.backspace	n/a
220.565	0.0745	441130	keystroke_Key.backspace	Key.backspace	n/a
220.715	0.075	441430	keystroke_Key.backspace	Key.backspace	n/a
221.135	0.06	442270	keystroke_y	y	n/a
221.69	0.0745	443380	keystroke_Key.backspace	Key.backspace	n/a
221.96	0.135	443920	keystroke_u	u	n/a
222.335	0.09	444670	keystroke_r	r	n/a
222.6195	0.09	445239	keystroke_n	n	n/a
222.755	0.105	445510	keystroke_a	a	n/a
222.92	0.1795	445840	keystroke_l	l	n/a
223.115	0.0445	446230	keystroke_i	i	n/a
223.13	0.18	446260	keystroke_s	s	n/a
223.535	0.0895	447070	keystroke_t	t	n/a
223.685	0.1195	447370	keystroke_s	s	n/a
224.0605	0.1195	448121	keystroke_Key.space	Key.space	n/a
224.435	0.1195	448870	keystroke_b	b	n/a
225.065	0.1045	450130	keystroke_u	u	n/a
225.395	0.0895	450790	keystroke_r	r	n/a
225.8	0.09	451600	keystroke_t	t	n/a
226.07	0.12	452140	keystroke_o	o	n/a
226.16	0.1045	452320	keystroke_n	n	n/a
226.595	0.105	453190	keystroke_Key.space	Key.space	n/a
226.745	0.0895	453490	keystroke_w	w	n/a
226.8955	0.15	453791	keystroke_i	i	n/a
227.285	0.09	454570	keystroke_n	n	n/a
227.465	0.09	454930	keystroke_n	n	n/a
227.75	0.15	455500	keystroke_o	o	n/a
228.23	0.06	456460	keystroke_Key.backspace	Key.backspace	n/a
228.53	0.135	457060	keystroke_i	i	n/a
228.62	0.12	457240	keystroke_n	n	n/a
228.92	0.09	457840	keystroke_g	g	n/a
229.115	0.105	458230	keystroke_Key.space	Key.space	n/a
229.34	0.12	458680	keystroke_m	m	n/a
229.4	0.135	458800	keystroke_a	a	n/a
229.7455	0.1045	459491	keystroke_r	r	n/a
230	0.105	460000	keystroke_c	c	n/a
230.12	0.105	460240	keystroke_h	h	n/a
230.4505	0.0895	460901	keystroke_Key.enter	Key.enter	n/a
230.5435	9.4325	461087	prompt	n/a	characterization analyze posing installed\n
231.395	0.105	462790	keystroke_c	c	n/a
231.5465	0.0585	463093	keystroke_h	h	n/a
231.635	0.075	463270	keystroke_a	a	n/a
231.815	0.135	463630	keystroke_r	r	n/a
231.935	0.135	463870	keystroke_a	a	n/a
232.13	0.105	464260	keystroke_c	c	n/a
232.4	0.135	464800	keystroke_t	t	n/a
232.5205	0.1795	465041	keystroke_e	e	n/a
232.64	0.105	465280	keystroke_r	r	n/a
232.97	0.0755	465940	keystroke_i	i	n/a
233.225	0.09	466450	keystroke_z	z	n/a
233.495	0.09	466990	keystroke_a	a	n/a
233.69	0.12	467380	keystroke_t	t	n/a
233.795	0.09	467590	keystroke_i	i	n/a
233.825	0.165	467650	keystroke_o	o	n/a
233.9455	0.1195	467891	keystroke_n	n	n/a
234.035	0.105	468070	keystroke_Key.space	Key.space	n/a
234.305	0.09	468610	keystroke_a	a	n/a
234.5	0.075	469000	keystroke_n	n	n/a
234.59	0.0755	469180	keystroke_a	a	n/a
234.755	0.075	469510	keystroke_l	l	n/a
235.775	0.105	471550	keystroke_y	y	n/a
236.315	0.12	472630	keystroke_z	z	n/a
236.63	0.09	473260	keystroke_e	e	n/a
237.11	0.12	474220	keystroke_Key.space	Key.space	n/a
237.5455	0.1045	475091	keystroke_p	p	n/a
237.62	0.105	475240	keystroke_o	o	n/a
237.68	0.105	475360	keystroke_s	s	n/a
238.1	0.15	476200	keystroke_i	i	n/a
238.175	0.165	476350	keystroke_n	n	n/a
238.31	0.12	476620	keystroke_g	g	n/a
238.505	0.105	477010	keystroke_Key.space	Key.space	n/a
238.7755	0.1345	477551	keystroke_i	i	n/a
238.88	0.105	477760	keystroke_n	n	n/a
238.925	0.09	477850	keystroke_s	s	n/a
239.105	0.105	478210	keystroke_t	t	n/a
239.195	0.135	478390	keystroke_a	a	n/a
239.3	0.06	478600	keystroke_l	l	n/a
239.435	0.105	478870	keystroke_l	l	n/a
239.555	0.105	479110	keystroke_e	e	n/a
239.78	0.075	479560	keystroke_d	d	n/a
239.885	0.09	479770	keystroke_Key.enter	Key.enter	n/a
239.979	6.642	479958	prompt	n/a	nearby my welding correct\n
240.755	0.0905	481510	keystroke_n	n	n/a
240.86	0.135	481720	keystroke_e	e	n/a
240.935	0.12	481870	keystroke_a	a	n/a
241.115	0.075	482230	keystroke_r	r	n/a
241.475	0.09	482950	keystroke_b	b	n/a
242.105	0.075	484210	keystroke_y	y	n/a
242.405	0.075	484810	keystroke_Key.space	Key.space	n/a
242.66	0.105	485320	keystroke_m	m	n/a
242.96	0.15	485920	keystroke_y	y	n/a
243.095	0.1355	486190	keystroke_Key.space	Key.space	n/a
243.44	0.165	486880	keystroke_w	w	n/a
243.56	0.075	487120	keystroke_e	e	n/a
243.71	0.09	487420	keystroke_l	l	n/a
244.145	0.105	488290	keystroke_d	d	n/a
244.28	0.165	488560	keystroke_i	i	n/a
244.37	0.135	488740	keystroke_n	n	n/a
244.52	0.075	489040	keystroke_g	g	n/a
244.655	0.105	489310	keystroke_Key.space	Key.space	n/a
245.15	0.135	490300	keystroke_c	c	n/a
245.33	0.09	490660	keystroke_o	o	n/a
245.48	0.135	490960	keystroke_r	r	n/a
245.69	0.165	491380	keystroke_r	r	n/a
245.81	0.12	491620	keystroke_e	e	n/a
246.05	0.135	492100	keystroke_c	c	n/a
246.3055	0.1045	492611	keystroke_t	t	n/a
246.515	0.105	493030	keystroke_Key.enter	Key.enter	n/a
246.624	6.342	493248	prompt	n/a	beings roger steve rangers\n
247.49	0.105	494980	keystroke_b	b	n/a
247.775	0.09	495550	keystroke_e	e	n/a
248.06	0.075	496120	keystroke_i	i	n/a
248.27	0.09	496540	keystroke_n	n	n/a
248.39	0.105	496780	keystroke_g	g	n/a
248.555	0.12	497110	keystroke_s	s	n/a
248.69	0.12	497380	keystroke_Key.space	Key.space	n/a
248.93	0.105	497860	keystroke_r	r	n/a
249.155	0.075	498310	keystroke_o	o	n/a
249.41	0.105	498820	keystroke_g	g	n/a
249.62	0.165	499240	keystroke_e	e	n/a
249.74	0.135	499480	keystroke_r	r	n/a
249.95	0.135	499900	keystroke_Key.space	Key.space	n/a
250.235	0.075	500470	keystroke_s	s	n/a
250.43	0.09	500860	keystroke_t	t	n/a
250.61	0.105	501220	keystroke_e	e	n/a
250.895	0.12	501790	keystroke_v	v	n/a
251.0465	0.1035	502093	keystroke_e	e	n/a
251.6155	0.1045	503231	keystroke_Key.space	Key.space	n/a
251.81	0.12	503620	keystroke_r	r	n/a
251.915	0.09	503830	keystroke_a	a	n/a
252.065	0.105	504130	keystroke_n	n	n/a
252.185	0.12	504370	keystroke_g	g	n/a
252.305	0.105	504610	keystroke_e	e	n/a
252.545	0.09	505090	keystroke_r	r	n/a
252.71	0.1355	505420	keystroke_s	s	n/a
252.875	0.09	505750	keystroke_Key.enter	Key.enter	n/a
252.9685	8.3075	505937	prompt	n/a	prizes conditioning elect expanded\n
253.835	0.09	507670	keystroke_p	p	n/a
253.985	0.105	507970	keystroke_r	r	n/a
254.165	0.075	508330	keystroke_i	i	n/a
254.45	0.12	508900	keystroke_z	z	n/a
254.705	0.09	509410	keystroke_e	e	n/a
255.005	0.105	510010	keystroke_s	s	n/a
255.23	0.12	510460	keystroke_Key.space	Key.space	n/a
255.65	0.105	511300	keystroke_c	c	n/a
255.74	0.165	511480	keystroke_o	o	n/a
255.86	0.09	511720	keystroke_n	n	n/a
256.175	0.09	512350	keystroke_d	d	n/a
256.28	0.075	512560	keystroke_i	i	n/a
256.43	0.105	512860	keystroke_t	t	n/a
256.505	0.165	513010	keystroke_i	i	n/a
256.58	0.15	513160	keystroke_o	o	n/a
256.6555	0.1495	513311	keystroke_n	n	n/a
256.97	0.135	513940	keystroke_i	i	n/a
257.06	0.1355	514120	keystroke_n	n	n/a
257.255	0.06	514510	keystroke_g	g	n/a
257.435	0.12	514870	keystroke_Key.space	Key.space	n/a
257.915	0.105	515830	keystroke_e	e	n/a
258.05	0.09	516100	keystroke_l	l	n/a
258.155	0.12	516310	keystroke_e	e	n/a
258.395	0.105	516790	keystroke_c	c	n/a
258.755	0.12	517510	keystroke_t	t	n/a
258.965	0.09	517930	keystroke_Key.space	Key.space	n/a
259.085	0.09	518170	keystroke_e	e	n/a
259.37	0.12	518740	keystroke_x	x	n/a
259.505	0.09	519010	keystroke_p	p	n/a
259.61	0.09	519220	keystroke_a	a	n/a
259.79	0.15	519580	keystroke_n	n	n/a
259.955	0.105	519910	keystroke_d	d	n/a
260.12	0.06	520240	keystroke_i	i	n/a
260.57	0.045	521140	keystroke_Key.backspace	Key.backspace	n/a
260.72	0.09	521440	keystroke_e	e	n/a
260.96	0.105	521920	keystroke_d	d	n/a
261.185	0.09	522370	keystroke_Key.enter	Key.enter	n/a
261.28	8.6515	522560	prompt	n/a	elements optics frontpage owen\n
262.235	0.075	524470	keystroke_e	e	n/a
262.34	0.09	524680	keystroke_l	l	n/a
262.445	0.105	524890	keystroke_e	e	n/a
262.61	0.105	525220	keystroke_m	m	n/a
262.775	0.105	525550	keystroke_e	e	n/a
262.91	0.075	525820	keystroke_n	n	n/a
263.0455	0.1195	526091	keystroke_t	t	n/a
263.225	0.135	526450	keystroke_s	s	n/a
263.375	0.12	526750	keystroke_Key.space	Key.space	n/a
263.645	0.135	527290	keystroke_o	o	n/a
263.735	0.105	527470	keystroke_p	p	n/a
263.87	0.105	527740	keystroke_t	t	n/a
263.96	0.09	527920	keystroke_i	i	n/a
264.77	0.09	529540	keystroke_c	c	n/a
264.98	0.12	529960	keystroke_s	s	n/a
265.265	0.105	530530	keystroke_Key.space	Key.space	n/a
265.745	0.105	531490	keystroke_f	f	n/a
265.97	0.076	531940	keystroke_r	r	n/a
266.06	0.1205	532120	keystroke_o	o	n/a
266.105	0.15	532210	keystroke_n	n	n/a
266.315	0.09	532630	keystroke_t	t	n/a
266.765	0.075	533530	keystroke_p	p	n/a
266.825	0.12	533650	keystroke_a	a	n/a
267.1555	0.1045	534311	keystroke_g	g	n/a
267.23	0.105	534460	keystroke_e	e	n/a
267.395	0.135	534790	keystroke_Key.space	Key.space	n/a
267.62	0.075	535240	keystroke_e	e	n/a
267.9955	0.0595	535991	keystroke_Key.backspace	Key.backspace	n/a
268.31	0.12	536620	keystroke_o	o	n/a
268.745	0.09	537490	keystroke_w	w	n/a
269.225	0.105	538450	keystroke_e	e	n/a
269.51	0.135	539020	keystroke_n	n	n/a
269.84	0.0905	539680	keystroke_Key.enter	Key.enter	n/a
269.935	7.691	539870	prompt	n/a	commonwealth surprised bush angels\n
270.68	0.135	541360	keystroke_c	c	n/a
270.8305	0.0745	541661	keystroke_o	o	n/a
271.04	0.045	542080	keystroke_m	m	n/a
271.175	0.09	542350	keystroke_m	m	n/a
271.355	0.135	542710	keystroke_o	o	n/a
271.4155	0.1195	542831	keystroke_n	n	n/a
271.58	0.18	543160	keystroke_w	w	n/a
271.715	0.105	543430	keystroke_e	e	n/a
271.925	0.135	543850	keystroke_a	a	n/a
272.24	0.045	544480	keystroke_l	l	n/a
272.345	0.105	544690	keystroke_t	t	n/a
272.51	0.045	545020	keystroke_h	h	n/a
272.705	0.105	545410	keystroke_Key.space	Key.space	n/a
272.945	0.105	545890	keystroke_s	s	n/a
273.11	0.075	546220	keystroke_u	u	n/a
273.29	0.09	546580	keystroke_r	r	n/a
273.455	0.075	546910	keystroke_p	p	n/a
273.755	0.105	547510	keystroke_r	r	n/a
273.905	0.06	547810	keystroke_i	i	n/a
274.07	0.09	548140	keystroke_s	s	n/a
274.31	0.075	548620	keystroke_e	e	n/a
274.535	0.105	549070	keystroke_d	d	n/a
274.685	0.15	549370	keystroke_Key.space	Key.space	n/a
275.03	0.09	550060	keystroke_b	b	n/a
275.255	0.075	550510	keystroke_u	u	n/a
275.54	0.075	551080	keystroke_d	d	n/a
276.0805	0.0595	552161	keystroke_Key.backspace	Key.backspace	n/a
276.155	0.12	552310	keystroke_s	s	n/a
276.38	0.075	552760	keystroke_h	h	n/a
276.575	0.12	553150	keystroke_Key.space	Key.space	n/a
276.74	0.105	553480	keystroke_a	a	n/a
276.875	0.075	553750	keystroke_n	n	n/a
277.055	0.135	554110	keystroke_g	g	n/a
277.145	0.09	554290	keystroke_e	e	n/a
277.25	0.09	554500	keystroke_l	l	n/a
277.385	0.12	554770	keystroke_s	s	n/a
277.535	0.09	555070	keystroke_Key.enter	Key.enter	n/a
277.629	9.552	555258	prompt	n/a	antiques essentials flour treat\n
278.375	0.09	556750	keystroke_a	a	n/a
278.51	0.09	557020	keystroke_n	n	n/a
278.78	0.09	557560	keystroke_t	t	n/a
279.38	0.06	558760	keystroke_i	i	n/a
280.175	0.105	560350	keystroke_q	q	n/a
280.385	0.0605	560770	keystroke_u	u	n/a
280.4455	0.1045	560891	keystroke_e	e	n/a
280.655	0.09	561310	keystroke_s	s	n/a
280.835	0.09	561670	keystroke_Key.space	Key.space	n/a
281.255	0.09	562510	keystroke_e	e	n/a
281.435	0.0605	562870	keystroke_s	s	n/a
281.6	0.105	563200	keystroke_s	s	n/a
281.72	0.105	563440	keystroke_e	e	n/a
281.93	0.045	563860	keystroke_m	m	n/a
282.02	0.105	564040	keystroke_t	t	n/a
282.515	0.045	565030	keystroke_Key.backspace	Key.backspace	n/a
282.905	0.06	565810	keystroke_Key.backspace	Key.backspace	n/a
283.2355	0.0895	566471	keystroke_n	n	n/a
283.475	0.09	566950	keystroke_t	t	n/a
283.595	0.06	567190	keystroke_i	i	n/a
283.73	0.09	567460	keystroke_a	a	n/a
283.835	0.075	567670	keystroke_l	l	n/a
283.97	0.105	567940	keystroke_s	s	n/a
284.105	0.09	568210	keystroke_Key.space	Key.space	n/a
284.45	0.12	568900	keystroke_f	f	n/a
284.72	0.075	569440	keystroke_l	l	n/a
284.945	0.12	569890	keystroke_o	o	n/a
285.02	0.105	570040	keystroke_u	u	n/a
285.32	0.09	570640	keystroke_r	r	n/a
285.47	0.12	570940	keystroke_Key.space	Key.space	n/a
285.755	0.15	571510	keystroke_t	t	n/a
285.83	0.165	571660	keystroke_r	r	n/a
285.965	0.06	571930	keystroke_a	a	n/a
286.385	0.045	572770	keystroke_Key.backspace	Key.backspace	n/a
286.445	0.18	572890	keystroke_e	e	n/a
286.55	0.135	573100	keystroke_a	a	n/a
286.8505	0.0895	573701	keystroke_t	t	n/a
287.075	0.105	574150	keystroke_Key.enter	Key.enter	n/a
287.1845	10.2115	574369	prompt	n/a	intend equilibrium content strength\n
288.035	0.165	576070	keystroke_i	i	n/a
288.155	0.135	576310	keystroke_n	n	n/a
288.305	0.09	576610	keystroke_t	t	n/a
288.38	0.09	576760	keystroke_e	e	n/a
288.605	0.12	577210	keystroke_n	n	n/a
289.13	0.12	578260	keystroke_d	d	n/a
289.4	0.105	578800	keystroke_Key.space	Key.space	n/a
289.79	0.135	579580	keystroke_e	e	n/a
289.91	0.105	579820	keystroke_q	q	n/a
290.15	0.15	580300	keystroke_u	u	n/a
290.27	0.09	580540	keystroke_i	i	n/a
290.585	0.165	581170	keystroke_l	l	n/a
290.66	0.135	581320	keystroke_i	i	n/a
291.005	0.12	582010	keystroke_b	b	n/a
292.4605	0.1045	584921	keystroke_r	r	n/a
293.12	0.135	586240	keystroke_i	i	n/a
293.225	0.12	586450	keystroke_u	u	n/a
293.735	0.12	587470	keystroke_m	m	n/a
294.05	0.12	588100	keystroke_Key.space	Key.space	n/a
294.26	0.165	588520	keystroke_c	c	n/a
294.365	0.135	588730	keystroke_o	o	n/a
294.47	0.12	588940	keystroke_n	n	n/a
294.665	0.12	589330	keystroke_t	t	n/a
294.74	0.12	589480	keystroke_e	e	n/a
294.8755	0.1495	589751	keystroke_n	n	n/a
295.01	0.09	590020	keystroke_t	t	n/a
295.16	0.105	590320	keystroke_Key.space	Key.space	n/a
295.3705	0.0895	590741	keystroke_s	s	n/a
295.595	0.135	591190	keystroke_t	t	n/a
296.0455	0.0895	592091	keystroke_r	r	n/a
296.105	0.135	592210	keystroke_e	e	n/a
296.315	0.12	592630	keystroke_n	n	n/a
296.675	0.105	593350	keystroke_g	g	n/a
296.945	0.09	593890	keystroke_t	t	n/a
297.0505	0.1345	594101	keystroke_h	h	n/a
297.29	0.105	594580	keystroke_Key.enter	Key.enter	n/a
297.4005	6.0855	594801	prompt	n/a	composition exposed blue lemon\n
298.22	0.135	596440	keystroke_c	c	n/a
298.34	0.165	596680	keystroke_o	o	n/a
298.46	0.105	596920	keystroke_m	m	n/a
298.67	0.12	597340	keystroke_p	p	n/a
298.775	0.135	597550	keystroke_o	o	n/a
298.895	0.12	597790	keystroke_s	s	n/a
299.06	0.09	598120	keystroke_i	i	n/a
299.21	0.09	598420	keystroke_t	t	n/a
299.285	0.18	598570	keystroke_i	i	n/a
299.36	0.165	598720	keystroke_o	o	n/a
299.45	0.135	598900	keystroke_n	n	n/a
299.84	0.12	599680	keystroke_Key.space	Key.space	n/a
300.2	0.075	600400	keystroke_e	e	n/a
300.485	0.135	600970	keystroke_x	x	n/a
300.635	0.12	601270	keystroke_p	p	n/a
300.725	0.09	601450	keystroke_o	o	n/a
300.8605	0.0595	601721	keystroke_s	s	n/a
301.07	0.09	602140	keystroke_e	e	n/a
301.265	0.09	602530	keystroke_d	d	n/a
301.385	0.075	602770	keystroke_Key.space	Key.space	n/a
301.58	0.06	603160	keystroke_b	b	n/a
301.685	0.09	603370	keystroke_l	l	n/a
302.0455	0.1045	604091	keystroke_u	u	n/a
302.225	0.09	604450	keystroke_e	e	n/a
302.39	0.105	604780	keystroke_Key.space	Key.space	n/a
302.615	0.075	605230	keystroke_l	l	n/a
302.6755	0.1045	605351	keystroke_e	e	n/a
302.84	0.106	605680	keystroke_m	m	n/a
303.05	0.15	606100	keystroke_o	o	n/a
303.155	0.135	606310	keystroke_n	n	n/a
303.41	0.075	606820	keystroke_Key.enter	Key.enter	n/a
303.4885	9.1325	606977	prompt	n/a	automation reducing portion hospitals\n
304.235	0.135	608470	keystroke_a	a	n/a
304.625	0.105	609250	keystroke_u	u	n/a
304.91	0.09	609820	keystroke_t	t	n/a
305.09	0.075	610180	keystroke_o	o	n/a
305.525	0.1205	611050	keystroke_m	m	n/a
305.63	0.09	611260	keystroke_a	a	n/a
305.825	0.0905	611650	keystroke_t	t	n/a
305.915	0.165	611830	keystroke_i	i	n/a
305.975	0.15	611950	keystroke_o	o	n/a
306.065	0.165	612130	keystroke_n	n	n/a
306.245	0.105	612490	keystroke_Key.space	Key.space	n/a
306.59	0.105	613180	keystroke_r	r	n/a
306.65	0.1055	613300	keystroke_e	e	n/a
306.875	0.105	613750	keystroke_d	d	n/a
306.995	0.06	613990	keystroke_u	u	n/a
307.115	0.105	614230	keystroke_c	c	n/a
307.295	0.135	614590	keystroke_i	i	n/a
307.4	0.1355	614800	keystroke_n	n	n/a
307.5355	0.0745	615071	keystroke_g	g	n/a
307.64	0.12	615280	keystroke_Key.space	Key.space	n/a
307.925	0.1205	615850	keystroke_p	p	n/a
308.0005	0.1195	616001	keystroke_o	o	n/a
308.09	0.075	616180	keystroke_r	r	n/a
308.3	0.105	616600	keystroke_t	t	n/a
308.42	0.195	616840	keystroke_i	i	n/a
308.51	0.165	617020	keystroke_o	o	n/a
308.6155	0.1195	617231	keystroke_n	n	n/a
308.855	0.09	617710	keystroke_Key.space	Key.space	n/a
309.185	0.06	618370	keystroke_h	h	n/a
309.365	0.09	618730	keystroke_o	o	n/a
309.53	0.12	619060	keystroke_s	s	n/a
309.785	0.12	619570	keystroke_p	p	n/a
309.875	0.1205	619750	keystroke_o	o	n/a
310.67	0.075	621340	keystroke_Key.backspace	Key.backspace	n/a
311.075	0.075	622150	keystroke_i	i	n/a
311.645	0.12	623290	keystroke_t	t	n/a
311.75	0.12	623500	keystroke_a	a	n/a
312.02	0.105	624040	keystroke_l	l	n/a
312.155	0.12	624310	keystroke_s	s	n/a
312.5	0.12	625000	keystroke_Key.enter	Key.enter	n/a
312.624	6.552	625248	prompt	n/a	oval cookbook high screens\n
313.475	0.105	626950	keystroke_o	o	n/a
313.67	0.105	627340	keystroke_v	v	n/a
314	0.12	628000	keystroke_a	a	n/a
314.165	0.09	628330	keystroke_l	l	n/a
314.27	0.135	628540	keystroke_Key.space	Key.space	n/a
314.525	0.12	629050	keystroke_c	c	n/a
314.66	0.06	629320	keystroke_o	o	n/a
314.795	0.09	629590	keystroke_o	o	n/a
315.02	0.075	630040	keystroke_k	k	n/a
315.545	0.12	631090	keystroke_b	b	n/a
315.8455	0.0745	631691	keystroke_o	o	n/a
316.01	0.075	632020	keystroke_o	o	n/a
316.205	0.075	632410	keystroke_k	k	n/a
316.4	0.09	632800	keystroke_Key.space	Key.space	n/a
316.745	0.135	633490	keystroke_h	h	n/a
316.85	0.09	633700	keystroke_i	i	n/a
317.09	0.0605	634180	keystroke_g	g	n/a
317.1805	0.1045	634361	keystroke_h	h	n/a
317.3	0.12	634600	keystroke_Key.space	Key.space	n/a
317.915	0.195	635830	keystroke_s	s	n/a
318.08	0.12	636160	keystroke_c	c	n/a
318.395	0.12	636790	keystroke_r	r	n/a
318.485	0.12	636970	keystroke_e	e	n/a
318.695	0.105	637390	keystroke_e	e	n/a
318.815	0.12	637630	keystroke_n	n	n/a
318.95	0.0905	637900	keystroke_s	s	n/a
319.07	0.105	638140	keystroke_Key.enter	Key.enter	n/a
319.1785	12.4925	638357	prompt	n/a	advanced twelve authorized methodology\n
320.0005	0.1045	640001	keystroke_a	a	n/a
320.21	0.12	640420	keystroke_d	d	n/a
320.57	0.165	641140	keystroke_v	v	n/a
320.75	0.105	641500	keystroke_a	a	n/a
320.975	0.075	641950	keystroke_n	n	n/a
321.11	0.12	642220	keystroke_c	c	n/a
321.32	0.09	642640	keystroke_e	e	n/a
321.53	0.0905	643060	keystroke_d	d	n/a
321.665	0.12	643330	keystroke_Key.space	Key.space	n/a
321.965	0.12	643930	keystroke_t	t	n/a
322.205	0.075	644410	keystroke_w	w	n/a
322.925	0.09	645850	keystroke_r	r	n/a
323.12	0.06	646240	keystroke_l	l	n/a
323.405	0.075	646810	keystroke_v	v	n/a
323.765	0.0465	647530	keystroke_Key.backspace	Key.backspace	n/a
323.9	0.09	647800	keystroke_Key.backspace	Key.backspace	n/a
324.2905	0.0595	648581	keystroke_Key.backspace	Key.backspace	n/a
324.395	0.09	648790	keystroke_e	e	n/a
324.665	0.075	649330	keystroke_l	l	n/a
324.89	0.15	649780	keystroke_v	v	n/a
325.025	0.09	650050	keystroke_e	e	n/a
325.3555	0.1045	650711	keystroke_Key.space	Key.space	n/a
325.955	0.09	651910	keystroke_a	a	n/a
326.165	0.045	652330	keystroke_u	u	n/a
326.3905	0.0745	652781	keystroke_t	t	n/a
326.51	0.06	653020	keystroke_h	h	n/a
326.6905	0.0745	653381	keystroke_o	o	n/a
326.8555	0.0895	653711	keystroke_r	r	n/a
326.99	0.0605	653980	keystroke_i	i	n/a
327.53	0.135	655060	keystroke_z	z	n/a
327.8	0.075	655600	keystroke_e	e	n/a
328.0105	0.1195	656021	keystroke_d	d	n/a
328.205	0.12	656410	keystroke_Key.space	Key.space	n/a
328.52	0.09	657040	keystroke_m	m	n/a
328.596	0.089	657192	keystroke_e	e	n/a
328.775	0.12	657550	keystroke_t	t	n/a
328.925	0.075	657850	keystroke_h	h	n/a
329.135	0.09	658270	keystroke_o	o	n/a
329.3	0.105	658600	keystroke_d	d	n/a
329.615	0.075	659230	keystroke_o	o	n/a
329.99	0.075	659980	keystroke_l	l	n/a
330.6505	0.0895	661301	keystroke_o	o	n/a
330.965	0.09	661930	keystroke_g	g	n/a
331.2355	0.06	662471	keystroke_y	y	n/a
331.5955	0.0745	663191	keystroke_Key.enter	Key.enter	n/a
331.6735	7.378	663347	prompt	n/a	reflections kansas dawn austin\n
332.4055	0.0895	664811	keystroke_r	r	n/a
332.4505	0.1195	664901	keystroke_e	e	n/a
332.855	0.1055	665710	keystroke_f	f	n/a
333.14	0.075	666280	keystroke_l	l	n/a
333.365	0.075	666730	keystroke_e	e	n/a
333.635	0.075	667270	keystroke_c	c	n/a
333.92	0.045	667840	keystroke_t	t	n/a
333.95	0.15	667900	keystroke_i	i	n/a
334.0105	0.1345	668021	keystroke_o	o	n/a
334.1305	0.1045	668261	keystroke_n	n	n/a
334.2505	0.0895	668501	keystroke_s	s	n/a
334.355	0.105	668710	keystroke_Key.space	Key.space	n/a
334.565	0.0905	669130	keystroke_k	k	n/a
334.655	0.12	669310	keystroke_a	a	n/a
334.88	0.0755	669760	keystroke_n	n	n/a
335.0605	0.1045	670121	keystroke_s	s	n/a
335.285	0.105	670570	keystroke_a	a	n/a
335.4955	0.0445	670991	keystroke_n	n	n/a
335.84	0.06	671680	keystroke_Key.backspace	Key.backspace	n/a
335.915	0.105	671830	keystroke_s	s	n/a
336.125	0.12	672250	keystroke_Key.space	Key.space	n/a
336.5455	0.1045	673091	keystroke_d	d	n/a
336.8	0.12	673600	keystroke_a	a	n/a
337.07	0.105	674140	keystroke_w	w	n/a
337.4	0.09	674800	keystroke_n	n	n/a
337.61	0.1355	675220	keystroke_Key.space	Key.space	n/a
337.865	0.135	675730	keystroke_a	a	n/a
338.062	0.058	676124	keystroke_u	u	n/a
338.15	0.09	676300	keystroke_s	s	n/a
338.405	0.09	676810	keystroke_t	t	n/a
338.6	0.15	677200	keystroke_i	i	n/a
338.66	0.195	677320	keystroke_n	n	n/a
338.99	0.06	677980	keystroke_Key.enter	Key.enter	n/a
339.0545	5.9515	678109	prompt	n/a	walking rubber camera instances\n
339.905	0.135	679810	keystroke_w	w	n/a
340.01	0.135	680020	keystroke_a	a	n/a
340.115	0.1505	680230	keystroke_l	l	n/a
340.205	0.15	680410	keystroke_k	k	n/a
340.4905	0.1195	680981	keystroke_i	i	n/a
340.58	0.12	681160	keystroke_n	n	n/a
340.67	0.1205	681340	keystroke_g	g	n/a
340.805	0.12	681610	keystroke_Key.space	Key.space	n/a
340.9705	0.1045	681941	keystroke_r	r	n/a
341.21	0.06	682420	keystroke_u	u	n/a
341.585	0.09	683170	keystroke_b	b	n/a
341.7505	0.1045	683501	keystroke_b	b	n/a
341.975	0.15	683950	keystroke_e	e	n/a
342.095	0.075	684190	keystroke_r	r	n/a
342.215	0.105	684430	keystroke_Key.space	Key.space	n/a
342.425	0.15	684850	keystroke_c	c	n/a
342.53	0.136	685060	keystroke_a	a	n/a
342.71	0.135	685420	keystroke_m	m	n/a
342.8605	0.1645	685721	keystroke_e	e	n/a
343.1155	0.1195	686231	keystroke_r	r	n/a
343.205	0.12	686410	keystroke_a	a	n/a
343.52	0.105	687040	keystroke_Key.space	Key.space	n/a
343.7605	0.1345	687521	keystroke_i	i	n/a
343.85	0.135	687700	keystroke_n	n	n/a
343.97	0.09	687940	keystroke_s	s	n/a
344.135	0.12	688270	keystroke_t	t	n/a
344.2255	0.1345	688451	keystroke_a	a	n/a
344.315	0.12	688630	keystroke_n	n	n/a
344.465	0.15	688930	keystroke_c	c	n/a
344.5555	0.1195	689111	keystroke_e	e	n/a
344.765	0.09	689530	keystroke_s	s	n/a
344.885	0.12	689770	keystroke_Key.enter	Key.enter	n/a
345.009	10.872	690018	prompt	n/a	trip ontario surprised tokyo\n
345.8455	0.1045	691691	keystroke_t	t	n/a
345.92	0.12	691840	keystroke_r	r	n/a
346.115	0.15	692230	keystroke_i	i	n/a
346.2355	0.1195	692471	keystroke_p	p	n/a
346.46	0.12	692920	keystroke_Key.space	Key.space	n/a
346.7	0.1805	693400	keystroke_o	o	n/a
346.805	0.135	693610	keystroke_n	n	n/a
346.955	0.135	693910	keystroke_t	t	n/a
347.12	0.12	694240	keystroke_a	a	n/a
347.9155	0.0745	695831	keystroke_r	r	n/a
348.065	0.15	696130	keystroke_i	i	n/a
348.185	0.105	696370	keystroke_o	o	n/a
348.605	0.075	697210	keystroke_Key.space	Key.space	n/a
348.965	0.12	697930	keystroke_s	s	n/a
349.1	0.045	698200	keystroke_u	u	n/a
349.19	0.105	698380	keystroke_s	s	n/a
350.015	0.06	700030	keystroke_Key.backspace	Key.backspace	n/a
350.12	0.105	700240	keystroke_r	r	n/a
350.42	0.09	700840	keystroke_p	p	n/a
350.555	0.105	701110	keystroke_r	r	n/a
350.735	0.09	701470	keystroke_i	i	n/a
350.87	0.105	701740	keystroke_s	s	n/a
351.0955	0.0745	702191	keystroke_e	e	n/a
351.3055	0.106	702611	keystroke_d	d	n/a
351.4705	0.1195	702941	keystroke_Key.space	Key.space	n/a
351.635	0.09	703270	keystroke_t	t	n/a
351.74	0.12	703480	keystroke_o	o	n/a
352.0405	0.1195	704081	keystroke_k	k	n/a
352.73	0.09	705460	keystroke_y	y	n/a
353.105	0.015	706210	keystroke_p	p	n/a
353.81	0.09	707620	keystroke_Key.backspace	Key.backspace	n/a
354.185	0.135	708370	keystroke_i	i	n/a
354.785	0.045	709570	keystroke_Key.backspace	Key.backspace	n/a
355.535	0.06	711070	keystroke_o	o	n/a
355.805	0.075	711610	keystroke_Key.enter	Key.enter	n/a
355.885	6.1165	711770	prompt	n/a	signup because steven alloy\n
356.63	0.09	713260	keystroke_s	s	n/a
356.7505	0.045	713501	keystroke_i	i	n/a
356.9	0.075	713800	keystroke_g	g	n/a
357.02	0.09	714040	keystroke_n	n	n/a
357.3355	0.0745	714671	keystroke_u	u	n/a
357.56	0.105	715120	keystroke_p	p	n/a
357.695	0.12	715390	keystroke_Key.space	Key.space	n/a
358.325	0.0905	716650	keystroke_b	b	n/a
358.595	0.09	717190	keystroke_e	e	n/a
358.805	0.15	717610	keystroke_c	c	n/a
358.895	0.135	717790	keystroke_a	a	n/a
359.075	0.03	718150	keystroke_u	u	n/a
359.12	0.18	718240	keystroke_s	s	n/a
359.21	0.12	718420	keystroke_e	e	n/a
359.361	0.104	718722	keystroke_Key.space	Key.space	n/a
359.4955	0.1195	718991	keystroke_s	s	n/a
359.705	0.12	719410	keystroke_t	t	n/a
359.81	0.1055	719620	keystroke_e	e	n/a
360.1115	0.119	720223	keystroke_v	v	n/a
360.2005	0.1045	720401	keystroke_e	e	n/a
360.4255	0.1345	720851	keystroke_n	n	n/a
360.5455	0.0895	721091	keystroke_Key.space	Key.space	n/a
360.7555	0.0895	721511	keystroke_a	a	n/a
360.9205	0.0595	721841	keystroke_l	l	n/a
361.085	0.0765	722170	keystroke_l	l	n/a
361.2805	0.0895	722561	keystroke_o	o	n/a
361.5355	0.0895	723071	keystroke_y	y	n/a
361.895	0.105	723790	keystroke_Key.enter	Key.enter	n/a
362.0045	7.8865	724009	prompt	n/a	honey halo broadcasting topic\n
362.8255	0.0745	725651	keystroke_h	h	n/a
363.411	0.044	726822	keystroke_o	o	n/a
363.62	0.105	727240	keystroke_n	n	n/a
363.9955	0.0895	727991	keystroke_e	e	n/a
364.1455	0.0895	728291	keystroke_y	y	n/a
364.505	0.09	729010	keystroke_Key.space	Key.space	n/a
364.911	0.074	729822	keystroke_h	h	n/a
365	0.09	730000	keystroke_a	a	n/a
365.1805	0.0745	730361	keystroke_l	l	n/a
365.4805	0.0595	730961	keystroke_o	o	n/a
365.7205	0.1195	731441	keystroke_Key.space	Key.space	n/a
366.1555	0.1195	732311	keystroke_b	b	n/a
366.5155	0.0895	733031	keystroke_r	r	n/a
366.695	0.075	733390	keystroke_o	o	n/a
366.83	0.09	733660	keystroke_a	a	n/a
367.0255	0.1045	734051	keystroke_d	d	n/a
367.295	0.165	734590	keystroke_c	c	n/a
367.385	0.135	734770	keystroke_a	a	n/a
367.5655	0.1195	735131	keystroke_s	s	n/a
367.8505	0.0895	735701	keystroke_t	t	n/a
368.0005	0.1495	736001	keystroke_i	i	n/a
368.105	0.1205	736210	keystroke_n	n	n/a
368.18	0.09	736360	keystroke_g	g	n/a
368.3905	0.1205	736781	keystroke_Key.space	Key.space	n/a
368.811	0.104	737622	keystroke_t	t	n/a
369.0955	0.1195	738191	keystroke_o	o	n/a
369.1855	0.0895	738371	keystroke_p	p	n/a
369.3355	0.1045	738671	keystroke_i	i	n/a
369.5005	0.1045	739001	keystroke_c	c	n/a
369.7855	0.1045	739571	keystroke_Key.enter	Key.enter	n/a
369.894	7.4375	739788	prompt	n/a	percentage bookstore unique dating\n
370.6255	0.1045	741251	keystroke_p	p	n/a
370.7	0.1655	741400	keystroke_e	e	n/a
370.79	0.12	741580	keystroke_r	r	n/a
371.211	0.134	742422	keystroke_c	c	n/a
371.27	0.135	742540	keystroke_e	e	n/a
371.4505	0.1195	742901	keystroke_n	n	n/a
371.585	0.12	743170	keystroke_t	t	n/a
371.75	0.135	743500	keystroke_a	a	n/a
371.99	0.12	743980	keystroke_g	g	n/a
372.08	0.105	744160	keystroke_e	e	n/a
372.261	0.134	744522	keystroke_Key.space	Key.space	n/a
372.575	0.105	745150	keystroke_b	b	n/a
372.77	0.0605	745540	keystroke_o	o	n/a
372.935	0.075	745870	keystroke_o	o	n/a
373.055	0.12	746110	keystroke_k	k	n/a
373.265	0.075	746530	keystroke_s	s	n/a
373.4615	0.074	746923	keystroke_t	t	n/a
373.6555	0.0595	747311	keystroke_o	o	n/a
373.8805	0.1195	747761	keystroke_r	r	n/a
373.97	0.1205	747940	keystroke_e	e	n/a
374.211	0.119	748422	keystroke_Key.space	Key.space	n/a
374.54	0.06	749080	keystroke_u	u	n/a
374.765	0.09	749530	keystroke_n	n	n/a
374.99	0.075	749980	keystroke_i	i	n/a
375.335	0.105	750670	keystroke_q	q	n/a
375.4705	0.0595	750941	keystroke_u	u	n/a
375.5755	0.0895	751151	keystroke_e	e	n/a
375.89	0.1055	751780	keystroke_Key.space	Key.space	n/a
376.28	0.1665	752560	keystroke_d	d	n/a
376.461	0.104	752922	keystroke_a	a	n/a
376.6705	0.091	753341	keystroke_t	t	n/a
376.8655	0.1345	753731	keystroke_i	i	n/a
376.97	0.12	753940	keystroke_n	n	n/a
377.0455	0.075	754091	keystroke_g	g	n/a
377.2405	0.0895	754481	keystroke_Key.enter	Key.enter	n/a
377.3345	6.0865	754669	prompt	n/a	labor attorneys flood teams\n
378.0205	0.0905	756041	keystroke_l	l	n/a
378.1255	0.1045	756251	keystroke_a	a	n/a
378.3955	0.075	756791	keystroke_b	b	n/a
378.5305	0.075	757061	keystroke_o	o	n/a
378.711	0.0895	757422	keystroke_r	r	n/a
379.07	0.091	758140	keystroke_Key.space	Key.space	n/a
379.5205	0.0905	759041	keystroke_a	a	n/a
379.73	0.06	759460	keystroke_t	t	n/a
379.8655	0.1045	759731	keystroke_t	t	n/a
380.0615	0.0735	760123	keystroke_o	o	n/a
380.1655	0.105	760331	keystroke_r	r	n/a
380.3455	0.1045	760691	keystroke_n	n	n/a
380.4955	0.0895	760991	keystroke_e	e	n/a
380.7655	0.0895	761531	keystroke_y	y	n/a
380.9905	0.0895	761981	keystroke_s	s	n/a
381.095	0.1055	762190	keystroke_Key.space	Key.space	n/a
381.4855	0.1345	762971	keystroke_f	f	n/a
381.665	0.0755	763330	keystroke_l	l	n/a
381.905	0.06	763810	keystroke_o	o	n/a
382.0405	0.0895	764081	keystroke_o	o	n/a
382.1905	0.09	764381	keystroke_d	d	n/a
382.415	0.09	764830	keystroke_Key.space	Key.space	n/a
382.7005	0.135	765401	keystroke_t	t	n/a
382.7905	0.18	765581	keystroke_e	e	n/a
382.925	0.1205	765850	keystroke_a	a	n/a
383.0755	0.12	766151	keystroke_m	m	n/a
383.18	0.105	766360	keystroke_s	s	n/a
383.3305	0.0895	766661	keystroke_Key.enter	Key.enter	n/a
383.424	8.1725	766848	prompt	n/a	dodge nearly maintenance cleared\n
384.261	0.1195	768522	keystroke_d	d	n/a
384.5305	0.075	769061	keystroke_o	o	n/a
384.6205	0.1045	769241	keystroke_d	d	n/a
385.1905	0.1795	770381	keystroke_g	g	n/a
385.3555	0.0895	770711	keystroke_e	e	n/a
385.67	0.12	771340	keystroke_Key.space	Key.space	n/a
386.0155	0.075	772031	keystroke_e	e	n/a
386.4205	0.0595	772841	keystroke_Key.backspace	Key.backspace	n/a
386.7055	0.09	773411	keystroke_n	n	n/a
386.811	0.1645	773622	keystroke_e	e	n/a
386.9155	0.1045	773831	keystroke_a	a	n/a
387.096	0.0895	774192	keystroke_r	r	n/a
387.2155	0.0895	774431	keystroke_l	l	n/a
387.485	0.0765	774970	keystroke_y	y	n/a
387.6805	0.0595	775361	keystroke_Key.space	Key.space	n/a
387.9355	0.0755	775871	keystroke_m	m	n/a
388.0705	0.12	776141	keystroke_a	a	n/a
388.2055	0.165	776411	keystroke_i	i	n/a
388.3405	0.09	776681	keystroke_n	n	n/a
388.5055	0.1195	777011	keystroke_t	t	n/a
388.5955	0.1045	777191	keystroke_e	e	n/a
388.7455	0.105	777491	keystroke_n	n	n/a
388.8355	0.1045	777671	keystroke_a	a	n/a
388.9705	0.1045	777941	keystroke_n	n	n/a
389.0905	0.1205	778181	keystroke_c	c	n/a
389.1505	0.1195	778301	keystroke_e	e	n/a
389.3905	0.105	778781	keystroke_Key.space	Key.space	n/a
389.8855	0.135	779771	keystroke_c	c	n/a
390.1405	0.075	780281	keystroke_l	l	n/a
390.2305	0.195	780461	keystroke_e	e	n/a
390.3505	0.12	780701	keystroke_a	a	n/a
390.5755	0.1355	781151	keystroke_r	r	n/a
390.9955	0.105	781991	keystroke_e	e	n/a
391.2805	0.135	782561	keystroke_d	d	n/a
391.5055	0.09	783011	keystroke_Key.enter	Key.enter	n/a
391.599	5.9075	783198	prompt	n/a	twin coin hawaii either\n
392.5705	0.135	785141	keystroke_w	w	n/a
393.0355	0.06	786071	keystroke_Key.backspace	Key.backspace	n/a
393.1705	0.15	786341	keystroke_t	t	n/a
393.2905	0.135	786581	keystroke_w	w	n/a
393.4705	0.0905	786941	keystroke_i	i	n/a
393.711	0.1505	787422	keystroke_n	n	n/a
393.8305	0.1045	787661	keystroke_Key.space	Key.space	n/a
394.0255	0.09	788051	keystroke_c	c	n/a
394.1305	0.165	788261	keystroke_o	o	n/a
394.2205	0.1795	788441	keystroke_i	i	n/a
394.311	0.179	788622	keystroke_n	n	n/a
394.5355	0.12	789071	keystroke_Key.space	Key.space	n/a
395.0005	0.075	790001	keystroke_h	h	n/a
395.1055	0.09	790211	keystroke_a	a	n/a
395.5405	0.0895	791081	keystroke_w	w	n/a
395.7055	0.075	791411	keystroke_a	a	n/a
396.0355	0.0445	792071	keystroke_i	i	n/a
396.1705	0.0905	792341	keystroke_i	i	n/a
396.5005	0.09	793001	keystroke_Key.space	Key.space	n/a
396.7405	0.09	793481	keystroke_e	e	n/a
396.8455	0.06	793691	keystroke_i	i	n/a
396.9655	0.09	793931	keystroke_t	t	n/a
397.085	0.0765	794170	keystroke_h	h	n/a
397.1615	0.134	794323	keystroke_e	e	n/a
397.2505	0.09	794501	keystroke_r	r	n/a
397.4005	0.105	794801	keystroke_Key.enter	Key.enter	n/a
397.51	9.191	795020	prompt	n/a	retreat architectural jennifer bear\n
398.285	0.1205	796570	keystroke_r	r	n/a
398.3455	0.1195	796691	keystroke_e	e	n/a
398.6305	0.105	797261	keystroke_t	t	n/a
398.6755	0.12	797351	keystroke_r	r	n/a
399.0505	0.18	798101	keystroke_e	e	n/a
399.1555	0.1055	798311	keystroke_a	a	n/a
399.3505	0.105	798701	keystroke_t	t	n/a
399.6055	0.1055	799211	keystroke_Key.space	Key.space	n/a
400.0255	0.1355	800051	keystroke_a	a	n/a
400.3705	0.105	800741	keystroke_r	r	n/a
400.6405	0.1205	801281	keystroke_c	c	n/a
400.8055	0.075	801611	keystroke_h	h	n/a
401.0005	0.075	802001	keystroke_i	i	n/a
401.1505	0.15	802301	keystroke_t	t	n/a
401.2405	0.1205	802481	keystroke_e	e	n/a
401.5405	0.121	803081	keystroke_c	c	n/a
401.8555	0.0905	803711	keystroke_t	t	n/a
402.0355	0.06	804071	keystroke_u	u	n/a
402.1405	0.105	804281	keystroke_r	r	n/a
402.2005	0.1195	804401	keystroke_e	e	n/a
402.5755	0.0895	805151	keystroke_a	a	n/a
402.9055	0.06	805811	keystroke_Key.backspace	Key.backspace	n/a
403.0405	0.075	806081	keystroke_Key.backspace	Key.backspace	n/a
403.1455	0.09	806291	keystroke_a	a	n/a
403.311	0.1045	806622	keystroke_l	l	n/a
403.4305	0.09	806861	keystroke_Key.space	Key.space	n/a
403.685	0.076	807370	keystroke_j	j	n/a
403.8355	0.0895	807671	keystroke_e	e	n/a
404.3005	0.0455	808601	keystroke_n	n	n/a
404.4355	0.09	808871	keystroke_n	n	n/a
404.6755	0.0445	809351	keystroke_i	i	n/a
404.8255	0.075	809651	keystroke_f	f	n/a
405.02	0.1505	810040	keystroke_e	e	n/a
405.111	0.119	810222	keystroke_r	r	n/a
405.3355	0.1345	810671	keystroke_Key.space	Key.space	n/a
405.7705	0.1045	811541	keystroke_b	b	n/a
406.1005	0.2245	812201	keystroke_e	e	n/a
406.2655	0.1345	812531	keystroke_a	a	n/a
406.3705	0.15	812741	keystroke_r	r	n/a
406.611	0.0895	813222	keystroke_Key.enter	Key.enter	n/a
406.704	8.1125	813408	prompt	n/a	develop clarity throat producer\n
407.7655	0.0745	815531	keystroke_d	d	n/a
407.975	0.0755	815950	keystroke_e	e	n/a
408.4405	0.1495	816881	keystroke_v	v	n/a
408.5755	0.1045	817151	keystroke_e	e	n/a
409.1155	0.1045	818231	keystroke_l	l	n/a
409.4155	0.06	818831	keystroke_o	o	n/a
409.6405	0.06	819281	keystroke_p	p	n/a
410.061	0.089	820122	keystroke_Key.space	Key.space	n/a
410.3755	0.0445	820751	keystroke_c	c	n/a
410.4805	0.09	820961	keystroke_l	l	n/a
410.6905	0.105	821381	keystroke_a	a	n/a
410.9615	0.074	821923	keystroke_r	r	n/a
411.0955	0.0445	822191	keystroke_i	i	n/a
411.275	0.0605	822550	keystroke_t	t	n/a
411.4405	0.045	822881	keystroke_y	y	n/a
411.5905	0.09	823181	keystroke_Key.space	Key.space	n/a
411.9055	0.09	823811	keystroke_t	t	n/a
412.0255	0.06	824051	keystroke_h	h	n/a
412.2205	0.091	824441	keystroke_r	r	n/a
412.3405	0.075	824681	keystroke_o	o	n/a
412.4455	0.105	824891	keystroke_a	a	n/a
412.7755	0.09	825551	keystroke_t	t	n/a
412.9705	0.135	825941	keystroke_Key.space	Key.space	n/a
413.3755	0.09	826751	keystroke_p	p	n/a
413.5255	0.09	827051	keystroke_r	r	n/a
413.6155	0.075	827231	keystroke_o	o	n/a
413.8705	0.105	827741	keystroke_d	d	n/a
414.0355	0.06	828071	keystroke_u	u	n/a
414.1705	0.105	828341	keystroke_c	c	n/a
414.4705	0.105	828941	keystroke_e	e	n/a
414.5455	0.105	829091	keystroke_r	r	n/a
414.6955	0.12	829391	keystroke_Key.enter	Key.enter	n/a
414.8195	8.547	829639	prompt	n/a	prepare thereafter asia identified\n
415.5055	0.075	831011	keystroke_p	p	n/a
415.6555	0.15	831311	keystroke_r	r	n/a
415.761	0.1345	831522	keystroke_e	e	n/a
416.1505	0.0605	832301	keystroke_p	p	n/a
416.2405	0.1205	832481	keystroke_a	a	n/a
416.5555	0.1055	833111	keystroke_r	r	n/a
416.6305	0.105	833261	keystroke_e	e	n/a
416.8405	0.09	833681	keystroke_Key.space	Key.space	n/a
416.9755	0.09	833951	keystroke_t	t	n/a
417.111	0.0445	834222	keystroke_h	h	n/a
417.1855	0.135	834371	keystroke_e	e	n/a
417.3055	0.12	834611	keystroke_r	r	n/a
418.0705	0.075	836141	keystroke_e	e	n/a
418.2955	0.105	836591	keystroke_a	a	n/a
418.5955	0.12	837191	keystroke_f	f	n/a
418.8955	0.135	837791	keystroke_t	t	n/a
419.046	0.165	838092	keystroke_e	e	n/a
419.1805	0.105	838361	keystroke_r	r	n/a
419.5855	0.12	839171	keystroke_Key.space	Key.space	n/a
419.7805	0.0895	839561	keystroke_a	a	n/a
420.0055	0.1055	840011	keystroke_s	s	n/a
420.1405	0.075	840281	keystroke_i	i	n/a
420.2455	0.12	840491	keystroke_a	a	n/a
420.4405	0.1205	840881	keystroke_Key.space	Key.space	n/a
420.9655	0.075	841931	keystroke_i	i	n/a
421.2355	0.015	842471	keystroke_d	d	n/a
421.3555	0.075	842711	keystroke_e	e	n/a
421.4455	0.105	842891	keystroke_n	n	n/a
421.6405	0.075	843281	keystroke_t	t	n/a
422.0615	0.074	844123	keystroke_i	i	n/a
422.1955	0.09	844391	keystroke_f	f	n/a
422.3305	0.09	844661	keystroke_i	i	n/a
422.901	0.0895	845802	keystroke_e	e	n/a
423.1255	0.1355	846251	keystroke_d	d	n/a
423.261	0.1045	846522	keystroke_Key.enter	Key.enter	n/a
423.369	7.587	846738	prompt	n/a	procedure rare bundle owen\n
424.0705	0.075	848141	keystroke_p	p	n/a
424.161	0.1045	848322	keystroke_r	r	n/a
424.3255	0.0745	848651	keystroke_o	o	n/a
424.611	0.1345	849222	keystroke_c	c	n/a
424.7005	0.12	849401	keystroke_e	e	n/a
425.211	0.0895	850422	keystroke_d	d	n/a
425.4055	0.06	850811	keystroke_u	u	n/a
425.5855	0.135	851171	keystroke_r	r	n/a
425.661	0.1345	851322	keystroke_e	e	n/a
425.8405	0.105	851681	keystroke_Key.space	Key.space	n/a
426.0505	0.15	852101	keystroke_r	r	n/a
426.1705	0.12	852341	keystroke_a	a	n/a
426.3655	0.12	852731	keystroke_t	t	n/a
426.4405	0.105	852881	keystroke_e	e	n/a
427.1755	0.06	854351	keystroke_Key.backspace	Key.backspace	n/a
427.325	0.075	854650	keystroke_Key.backspace	Key.backspace	n/a
427.4155	0.09	854831	keystroke_r	r	n/a
427.461	0.1195	854922	keystroke_e	e	n/a
427.6255	0.105	855251	keystroke_Key.space	Key.space	n/a
428.0155	0.075	856031	keystroke_b	b	n/a
428.4505	0.045	856901	keystroke_Key.backspace	Key.backspace	n/a
428.6005	0.105	857201	keystroke_b	b	n/a
428.8855	0.045	857771	keystroke_u	u	n/a
429.111	0.089	858222	keystroke_n	n	n/a
429.2455	0.105	858491	keystroke_d	d	n/a
429.3805	0.0745	858761	keystroke_l	l	n/a
429.5455	0.075	859091	keystroke_e	e	n/a
429.6805	0.09	859361	keystroke_Key.space	Key.space	n/a
429.9355	0.09	859871	keystroke_o	o	n/a
430.3255	0.1495	860651	keystroke_w	w	n/a
430.4455	0.1045	860891	keystroke_e	e	n/a
430.5955	0.12	861191	keystroke_n	n	n/a
430.8805	0.0745	861761	keystroke_Key.enter	Key.enter	n/a
430.959	8.127	861918	prompt	n/a	thirty incoming breaking offerings\n
431.7055	0.09	863411	keystroke_t	t	n/a
431.811	0.074	863622	keystroke_h	h	n/a
432.0355	0.0595	864071	keystroke_i	i	n/a
432.1255	0.0895	864251	keystroke_r	r	n/a
432.3505	0.09	864701	keystroke_t	t	n/a
432.606	0.0745	865212	keystroke_y	y	n/a
432.9055	0.0905	865811	keystroke_Key.space	Key.space	n/a
433.3405	0.1495	866681	keystroke_i	i	n/a
433.4155	0.15	866831	keystroke_n	n	n/a
433.5805	0.1045	867161	keystroke_c	c	n/a
433.7005	0.15	867401	keystroke_o	o	n/a
433.7905	0.135	867581	keystroke_m	m	n/a
434.0755	0.15	868151	keystroke_i	i	n/a
434.181	0.1195	868362	keystroke_n	n	n/a
434.3155	0.06	868631	keystroke_g	g	n/a
434.4505	0.105	868901	keystroke_Key.space	Key.space	n/a
434.811	0.1045	869622	keystroke_c	c	n/a
435.2905	0.075	870581	keystroke_Key.backspace	Key.backspace	n/a
435.3805	0.12	870761	keystroke_v	v	n/a
436.0255	0.06	872051	keystroke_Key.backspace	Key.backspace	n/a
436.1155	0.105	872231	keystroke_b	b	n/a
436.4905	0.195	872981	keystroke_r	r	n/a
436.6255	0.195	873251	keystroke_e	e	n/a
436.7455	0.135	873491	keystroke_a	a	n/a
436.9705	0.075	873941	keystroke_k	k	n/a
437.1655	0.165	874331	keystroke_i	i	n/a
437.2855	0.105	874571	keystroke_n	n	n/a
437.4055	0.09	874811	keystroke_g	g	n/a
437.5255	0.12	875051	keystroke_Key.space	Key.space	n/a
437.6905	0.075	875381	keystroke_o	o	n/a
437.7805	0.135	875561	keystroke_f	f	n/a
437.9755	0.1355	875951	keystroke_f	f	n/a
438.1705	0.15	876341	keystroke_e	e	n/a
438.2755	0.12	876551	keystroke_r	r	n/a
438.4705	0.15	876941	keystroke_i	i	n/a
438.561	0.1345	877122	keystroke_n	n	n/a
438.711	0.135	877422	keystroke_g	g	n/a
438.861	0.1345	877722	keystroke_s	s	n/a
438.9955	0.0895	877991	keystroke_Key.enter	Key.enter	n/a
439.0905	12.806	878181	prompt	n/a	prime longitude deutschland header\n
439.8955	0.0895	879791	keystroke_p	p	n/a
439.9705	0.15	879941	keystroke_r	r	n/a
440.1055	0.0745	880211	keystroke_e	e	n/a
440.4355	0.06	880871	keystroke_Key.backspace	Key.backspace	n/a
440.7055	0.15	881411	keystroke_i	i	n/a
440.811	0.1045	881622	keystroke_m	m	n/a
440.8855	0.1045	881771	keystroke_e	e	n/a
441.111	0.074	882222	keystroke_Key.space	Key.space	n/a
441.3205	0.06	882641	keystroke_l	l	n/a
441.5005	0.12	883001	keystroke_o	o	n/a
441.5905	0.1205	883181	keystroke_n	n	n/a
441.7405	0.075	883481	keystroke_g	g	n/a
441.9355	0.0755	883871	keystroke_i	i	n/a
442.2505	0.09	884501	keystroke_t	t	n/a
442.4455	0.075	884891	keystroke_u	u	n/a
442.9405	0.105	885881	keystroke_d	d	n/a
443.1805	0.09	886361	keystroke_e	e	n/a
443.3905	0.121	886781	keystroke_Key.space	Key.space	n/a
443.8105	0.075	887621	keystroke_d	d	n/a
444.0355	0.09	888071	keystroke_e	e	n/a
444.351	0.0605	888702	keystroke_u	u	n/a
444.7255	0.105	889451	keystroke_t	t	n/a
445.1005	0.075	890201	keystroke_c	c	n/a
445.3255	0.105	890651	keystroke_h	h	n/a
446.211	0.0895	892422	keystroke_Key.backspace	Key.backspace	n/a
447.8455	0.09	895691	keystroke_Key.backspace	Key.backspace	n/a
448.296	0.2245	896592	keystroke_s	s	n/a
448.761	0.1345	897522	keystroke_c	c	n/a
449.3305	0.105	898661	keystroke_h	h	n/a
449.7655	0.075	899531	keystroke_l	l	n/a
449.8255	0.09	899651	keystroke_a	a	n/a
449.9755	0.09	899951	keystroke_n	n	n/a
450.0805	0.105	900161	keystroke_d	d	n/a
450.261	0.1045	900522	keystroke_Key.space	Key.space	n/a
450.7705	0.075	901541	keystroke_h	h	n/a
450.861	0.15	901722	keystroke_e	e	n/a
450.9655	0.09	901931	keystroke_a	a	n/a
451.3255	0.105	902651	keystroke_d	d	n/a
451.5655	0.12	903131	keystroke_e	e	n/a
451.6405	0.09	903281	keystroke_r	r	n/a
451.7755	0.12	903551	keystroke_Key.enter	Key.enter	n/a
451.8995	8.3675	903799	prompt	n/a	licensing wisdom enclosed xhtml\n
452.6455	0.135	905291	keystroke_l	l	n/a
452.8555	0.1055	905711	keystroke_i	i	n/a
452.9905	0.1345	905981	keystroke_c	c	n/a
453.0805	0.09	906161	keystroke_e	e	n/a
453.1855	0.105	906371	keystroke_n	n	n/a
453.3205	0.12	906641	keystroke_s	s	n/a
453.4705	0.1805	906941	keystroke_i	i	n/a
453.561	0.1505	907122	keystroke_n	n	n/a
453.6955	0.09	907391	keystroke_g	g	n/a
453.846	0.1195	907692	keystroke_Key.space	Key.space	n/a
454.1755	0.06	908351	keystroke_w	w	n/a
454.2655	0.06	908531	keystroke_i	i	n/a
454.3855	0.12	908771	keystroke_s	s	n/a
454.8505	0.12	909701	keystroke_d	d	n/a
455.0005	0.165	910001	keystroke_o	o	n/a
455.511	0.1195	911022	keystroke_m	m	n/a
455.9455	0.09	911891	keystroke_Key.space	Key.space	n/a
456.5155	0.09	913031	keystroke_e	e	n/a
456.6355	0.105	913271	keystroke_n	n	n/a
456.9205	0.105	913841	keystroke_c	c	n/a
457.0405	0.06	914081	keystroke_l	l	n/a
457.2505	0.0605	914501	keystroke_o	o	n/a
457.3255	0.09	914651	keystroke_s	s	n/a
457.5505	0.075	915101	keystroke_e	e	n/a
457.761	0.0745	915522	keystroke_d	d	n/a
457.9255	0.09	915851	keystroke_Key.space	Key.space	n/a
458.4955	0.075	916991	keystroke_x	x	n/a
459.2905	0.06	918581	keystroke_h	h	n/a
459.5155	0.06	919031	keystroke_t	t	n/a
459.7255	0.18	919451	keystroke_m	m	n/a
459.8905	0.0605	919781	keystroke_l	l	n/a
460.1755	0.09	920351	keystroke_Key.enter	Key.enter	n/a
460.2705	8.066	920541	prompt	n/a	headphones need newsletter mesa\n
461.1055	0.075	922211	keystroke_h	h	n/a
461.1955	0.15	922391	keystroke_e	e	n/a
461.3005	0.075	922601	keystroke_a	a	n/a
461.511	0.1195	923022	keystroke_d	d	n/a
461.7355	0.06	923471	keystroke_p	p	n/a
462.0355	0.06	924071	keystroke_h	h	n/a
462.2155	0.135	924431	keystroke_o	o	n/a
462.3055	0.135	924611	keystroke_n	n	n/a
462.411	0.1345	924822	keystroke_e	e	n/a
462.6655	0.075	925331	keystroke_Key.space	Key.space	n/a
463.0555	0.06	926111	keystroke_Key.backspace	Key.backspace	n/a
463.1455	0.105	926291	keystroke_s	s	n/a
463.2955	0.075	926591	keystroke_Key.space	Key.space	n/a
463.5205	0.076	927041	keystroke_n	n	n/a
463.596	0.0745	927192	keystroke_e	e	n/a
463.7455	0.09	927491	keystroke_e	e	n/a
464.001	0.0895	928002	keystroke_d	d	n/a
464.1205	0.0905	928241	keystroke_Key.space	Key.space	n/a
464.2705	0.105	928541	keystroke_n	n	n/a
464.3455	0.1055	928691	keystroke_e	e	n/a
464.5555	0.075	929111	keystroke_w	w	n/a
465.0655	0.075	930131	keystroke_l	l	n/a
465.1855	0.09	930371	keystroke_e	e	n/a
465.6955	0.135	931391	keystroke_t	t	n/a
465.9355	0.15	931871	keystroke_t	t	n/a
466.0705	0.18	932141	keystroke_e	e	n/a
466.2205	0.0905	932441	keystroke_r	r	n/a
466.3555	0.075	932711	keystroke_Key.space	Key.space	n/a
466.5205	0.12	933041	keystroke_m	m	n/a
466.5955	0.105	933191	keystroke_e	e	n/a
466.8205	0.18	933641	keystroke_s	s	n/a
467.0005	0.105	934001	keystroke_a	a	n/a
468.2305	0.105	936461	keystroke_Key.enter	Key.enter	n/a
468.3395	11.292	936679	prompt	n/a	other doom yugoslavia retired\n
469.1615	0.0745	938323	keystroke_o	o	n/a
469.311	0.0895	938622	keystroke_t	t	n/a
469.4755	0.06	938951	keystroke_h	h	n/a
469.5055	0.18	939011	keystroke_e	e	n/a
469.6555	0.09	939311	keystroke_r	r	n/a
469.761	0.1045	939522	keystroke_Key.space	Key.space	n/a
469.9555	0.09	939911	keystroke_s	s	n/a
470.061	0.0445	940122	keystroke_o	o	n/a
470.406	0.0445	940812	keystroke_Key.backspace	Key.backspace	n/a
470.5555	0.06	941111	keystroke_Key.backspace	Key.backspace	n/a
470.6155	0.09	941231	keystroke_d	d	n/a
470.811	0.0745	941622	keystroke_o	o	n/a
471.0055	0.075	942011	keystroke_o	o	n/a
471.261	0.0745	942522	keystroke_m	m	n/a
471.5005	0.09	943001	keystroke_Key.space	Key.space	n/a
471.8155	0.105	943631	keystroke_y	y	n/a
472.1615	0.089	944323	keystroke_o	o	n/a
472.5055	0.09	945011	keystroke_g	g	n/a
472.6255	0.06	945251	keystroke_o	o	n/a
472.941	0.0895	945882	keystroke_s	s	n/a
473.0755	0.06	946151	keystroke_l	l	n/a
473.4505	0.045	946901	keystroke_Key.backspace	Key.backspace	n/a
473.6005	0.0605	947201	keystroke_Key.backspace	Key.backspace	n/a
473.7505	0.075	947501	keystroke_Key.backspace	Key.backspace	n/a
473.9005	0.075	947801	keystroke_Key.backspace	Key.backspace	n/a
474.0505	0.09	948101	keystroke_Key.backspace	Key.backspace	n/a
474.5905	0.105	949181	keystroke_u	u	n/a
475.3855	0.076	950771	keystroke_g	g	n/a
475.5055	0.06	951011	keystroke_o	o	n/a
475.8055	0.09	951611	keystroke_s	s	n/a
475.9405	0.075	951881	keystroke_l	l	n/a
476.031	0.1045	952062	keystroke_a	a	n/a
476.3755	0.105	952751	keystroke_v	v	n/a
476.5855	0.0755	953171	keystroke_i	i	n/a
476.6905	0.09	953381	keystroke_a	a	n/a
477.141	0.0895	954282	keystroke_Key.space	Key.space	n/a
477.5455	0.135	955091	keystroke_r	r	n/a
477.6355	0.105	955271	keystroke_e	e	n/a
477.8305	0.09	955661	keystroke_t	t	n/a
478.0555	0.165	956111	keystroke_r	r	n/a
478.4455	0.06	956891	keystroke_Key.backspace	Key.backspace	n/a
478.7305	0.105	957461	keystroke_i	i	n/a
478.8805	0.105	957761	keystroke_r	r	n/a
478.9405	0.121	957881	keystroke_e	e	n/a
479.1355	0.15	958271	keystroke_s	s	n/a
479.5555	0.075	959111	keystroke_Key.enter	Key.enter	n/a
479.6345	5.382	959269	prompt	n/a	entire sheffield ladder thus\n
480.501	0.0745	961002	keystroke_e	e	n/a
480.6055	0.12	961211	keystroke_n	n	n/a
480.7705	0.091	961541	keystroke_t	t	n/a
480.9055	0.06	961811	keystroke_i	i	n/a
480.9805	0.135	961961	keystroke_r	r	n/a
481.0555	0.12	962111	keystroke_e	e	n/a
481.1905	0.135	962381	keystroke_Key.space	Key.space	n/a
481.3405	0.121	962681	keystroke_s	s	n/a
481.4755	0.075	962951	keystroke_h	h	n/a
481.6405	0.09	963281	keystroke_e	e	n/a
481.8805	0.06	963761	keystroke_f	f	n/a
482.0155	0.105	964031	keystroke_f	f	n/a
482.1655	0.105	964331	keystroke_i	i	n/a
482.3155	0.09	964631	keystroke_e	e	n/a
482.4655	0.09	964931	keystroke_l	l	n/a
482.6005	0.105	965201	keystroke_d	d	n/a
482.7505	0.09	965501	keystroke_Key.space	Key.space	n/a
482.9455	0.075	965891	keystroke_l	l	n/a
483.0355	0.105	966071	keystroke_a	a	n/a
483.3355	0.076	966671	keystroke_d	d	n/a
483.501	0.0745	967002	keystroke_d	d	n/a
483.711	0.1345	967422	keystroke_e	e	n/a
483.816	0.1195	967632	keystroke_r	r	n/a
483.9505	0.105	967901	keystroke_Key.space	Key.space	n/a
484.1005	0.09	968201	keystroke_t	t	n/a
484.1905	0.1205	968381	keystroke_h	h	n/a
484.3705	0.0905	968741	keystroke_u	u	n/a
484.4455	0.12	968891	keystroke_s	s	n/a
484.8955	0.12	969791	keystroke_Key.enter	Key.enter	n/a
485.02	9.7015	970040	prompt	n/a	alexander normal earnings tuning\n
485.7655	0.09	971531	keystroke_a	a	n/a
485.8705	0.075	971741	keystroke_l	l	n/a
486.006	0.105	972012	keystroke_e	e	n/a
486.3355	0.165	972671	keystroke_x	x	n/a
486.5155	0.105	973031	keystroke_a	a	n/a
486.9205	0.06	973841	keystroke_n	n	n/a
487.041	0.1045	974082	keystroke_d	d	n/a
487.2805	0.15	974561	keystroke_e	e	n/a
487.3855	0.09	974771	keystroke_r	r	n/a
487.5355	0.135	975071	keystroke_Key.space	Key.space	n/a
487.7305	0.105	975461	keystroke_n	n	n/a
487.8955	0.09	975791	keystroke_o	o	n/a
488.0005	0.075	976001	keystroke_r	r	n/a
488.1515	0.104	976303	keystroke_m	m	n/a
488.2705	0.12	976541	keystroke_a	a	n/a
488.4055	0.075	976811	keystroke_l	l	n/a
488.6005	0.09	977201	keystroke_Key.space	Key.space	n/a
489.0805	0.1805	978161	keystroke_e	e	n/a
489.246	0.1795	978492	keystroke_a	a	n/a
489.411	0.1045	978822	keystroke_r	r	n/a
489.5755	0.09	979151	keystroke_n	n	n/a
489.8455	0.075	979691	keystroke_i	i	n/a
489.9805	0.135	979961	keystroke_n	n	n/a
490.1305	0.105	980261	keystroke_g	g	n/a
490.2955	0.09	980591	keystroke_Key.space	Key.space	n/a
490.6555	0.09	981311	keystroke_r	r	n/a
490.8055	0.06	981611	keystroke_u	u	n/a
491.3005	0.045	982601	keystroke_Key.backspace	Key.backspace	n/a
491.4505	0.075	982901	keystroke_Key.backspace	Key.backspace	n/a
491.6155	0.06	983231	keystroke_Key.backspace	Key.backspace	n/a
491.6905	0.075	983381	keystroke_d	d	n/a
492.0205	0.12	984041	keystroke_Key.space	Key.space	n/a
492.411	0.0595	984822	keystroke_Key.backspace	Key.backspace	n/a
492.562	0.1035	985124	keystroke_Key.backspace	Key.backspace	n/a
492.7115	0.089	985423	keystroke_s	s	n/a
492.8905	0.1055	985781	keystroke_Key.space	Key.space	n/a
493.1905	0.09	986381	keystroke_t	t	n/a
493.4455	0.12	986891	keystroke_u	u	n/a
493.8655	0.09	987731	keystroke_n	n	n/a
494.1205	0.135	988241	keystroke_i	i	n/a
494.211	0.1195	988422	keystroke_n	n	n/a
494.3455	0.06	988691	keystroke_g	g	n/a
494.6455	0.075	989291	keystroke_Key.enter	Key.enter	n/a
494.725	5.0815	989450	prompt	n/a	channel diana came spots\n
495.5905	0.105	991181	keystroke_c	c	n/a
495.7255	0.075	991451	keystroke_h	h	n/a
495.8155	0.09	991631	keystroke_a	a	n/a
495.9655	0.06	991931	keystroke_n	n	n/a
496.101	0.1045	992202	keystroke_n	n	n/a
496.2205	0.075	992441	keystroke_e	e	n/a
496.311	0.1045	992622	keystroke_l	l	n/a
496.4305	0.105	992861	keystroke_Key.space	Key.space	n/a
496.6255	0.06	993251	keystroke_d	d	n/a
496.7305	0.045	993461	keystroke_i	i	n/a
496.7905	0.105	993581	keystroke_a	a	n/a
496.9255	0.09	993851	keystroke_n	n	n/a
497.0455	0.105	994091	keystroke_a	a	n/a
497.4355	0.105	994871	keystroke_Key.space	Key.space	n/a
497.8405	0.09	995681	keystroke_c	c	n/a
497.9605	0.165	995921	keystroke_a	a	n/a
498.0955	0.12	996191	keystroke_m	m	n/a
498.711	0.0745	997422	keystroke_e	e	n/a
498.8755	0.105	997751	keystroke_Key.space	Key.space	n/a
499.0405	0.105	998081	keystroke_s	s	n/a
499.161	0.1345	998322	keystroke_p	p	n/a
499.2655	0.105	998531	keystroke_o	o	n/a
499.3855	0.12	998771	keystroke_t	t	n/a
499.5505	0.12	999101	keystroke_s	s	n/a
499.7005	0.105	999401	keystroke_Key.enter	Key.enter	n/a
499.8095	6.867	999619	prompt	n/a	storage childrens without dividend\n
500.4805	0.075	1000961	keystroke_s	s	n/a
500.6455	0.09	1001291	keystroke_t	t	n/a
500.7955	0.075	1001591	keystroke_o	o	n/a
500.9005	0.15	1001801	keystroke_r	r	n/a
501.0355	0.09	1002071	keystroke_a	a	n/a
501.2305	0.105	1002461	keystroke_g	g	n/a
501.3055	0.1055	1002611	keystroke_e	e	n/a
501.4555	0.12	1002911	keystroke_Key.space	Key.space	n/a
501.9055	0.12	1003811	keystroke_c	c	n/a
502.0705	0.0905	1004141	keystroke_h	h	n/a
502.2955	0.075	1004591	keystroke_i	i	n/a
502.4905	0.075	1004981	keystroke_l	l	n/a
502.6555	0.09	1005311	keystroke_d	d	n/a
503.0305	0.135	1006061	keystroke_r	r	n/a
503.1205	0.105	1006241	keystroke_e	e	n/a
503.4205	0.09	1006841	keystroke_n	n	n/a
503.5255	0.12	1007051	keystroke_s	s	n/a
503.7205	0.0905	1007441	keystroke_Key.space	Key.space	n/a
503.9615	0.074	1007923	keystroke_w	w	n/a
504.0505	0.0605	1008101	keystroke_i	i	n/a
504.1705	0.105	1008341	keystroke_t	t	n/a
504.261	0.0745	1008522	keystroke_h	h	n/a
504.4405	0.1215	1008881	keystroke_o	o	n/a
504.5305	0.09	1009061	keystroke_u	u	n/a
504.6355	0.105	1009271	keystroke_t	t	n/a
504.7555	0.1055	1009511	keystroke_Key.space	Key.space	n/a
505.0705	0.015	1010141	keystroke_d	d	n/a
505.1305	0.09	1010261	keystroke_i	i	n/a
505.3255	0.105	1010651	keystroke_v	v	n/a
505.4905	0.06	1010981	keystroke_i	i	n/a
505.8205	0.075	1011641	keystroke_d	d	n/a
506.061	0.0895	1012122	keystroke_e	e	n/a
506.1805	0.105	1012361	keystroke_n	n	n/a
506.4205	0.105	1012841	keystroke_d	d	n/a
506.6005	0.075	1013201	keystroke_Key.enter	Key.enter	n/a
506.6805	6.221	1013361	prompt	n/a	invited pressed defects papers\n
507.3955	0.15	1014791	keystroke_i	i	n/a
507.5005	0.135	1015001	keystroke_n	n	n/a
507.8455	0.105	1015691	keystroke_v	v	n/a
508.1005	0.015	1016201	keystroke_i	i	n/a
508.2505	0.12	1016501	keystroke_t	t	n/a
508.3555	0.09	1016711	keystroke_e	e	n/a
508.5655	0.09	1017131	keystroke_d	d	n/a
508.7005	0.105	1017401	keystroke_Key.space	Key.space	n/a
508.9255	0.075	1017851	keystroke_p	p	n/a
508.9855	0.12	1017971	keystroke_r	r	n/a
509.061	0.1045	1018122	keystroke_e	e	n/a
509.3305	0.075	1018661	keystroke_s	s	n/a
509.4955	0.075	1018991	keystroke_s	s	n/a
509.7205	0.0905	1019441	keystroke_e	e	n/a
509.9155	0.105	1019831	keystroke_d	d	n/a
510.0505	0.09	1020101	keystroke_Key.space	Key.space	n/a
510.1555	0.075	1020311	keystroke_d	d	n/a
510.3805	0.09	1020761	keystroke_e	e	n/a
510.6955	0.15	1021391	keystroke_f	f	n/a
510.8155	0.09	1021631	keystroke_e	e	n/a
511.161	0.1195	1022322	keystroke_c	c	n/a
511.4305	0.105	1022861	keystroke_t	t	n/a
511.611	0.1195	1023222	keystroke_s	s	n/a
511.8655	0.105	1023731	keystroke_Key.space	Key.space	n/a
512.0905	0.075	1024181	keystroke_p	p	n/a
512.1505	0.09	1024301	keystroke_a	a	n/a
512.3005	0.075	1024601	keystroke_p	p	n/a
512.4355	0.15	1024871	keystroke_e	e	n/a
512.5405	0.105	1025081	keystroke_r	r	n/a
512.7055	0.12	1025411	keystroke_s	s	n/a
512.7955	0.105	1025591	keystroke_Key.enter	Key.enter	n/a
512.9045	7.1225	1025809	prompt	n/a	creating name subcommittee angel\n
513.7555	0.12	1027511	keystroke_c	c	n/a
514.1005	0.15	1028201	keystroke_r	r	n/a
514.161	0.1795	1028322	keystroke_e	e	n/a
514.2355	0.12	1028471	keystroke_a	a	n/a
514.4455	0.105	1028891	keystroke_t	t	n/a
514.5805	0.135	1029161	keystroke_i	i	n/a
514.6705	0.105	1029341	keystroke_n	n	n/a
514.761	0.0895	1029522	keystroke_g	g	n/a
514.8805	0.105	1029761	keystroke_Key.space	Key.space	n/a
515.0005	0.135	1030001	keystroke_n	n	n/a
515.0905	0.09	1030181	keystroke_a	a	n/a
515.2405	0.105	1030481	keystroke_m	m	n/a
515.3305	0.075	1030661	keystroke_e	e	n/a
515.4505	0.12	1030901	keystroke_Key.space	Key.space	n/a
515.6905	0.105	1031381	keystroke_s	s	n/a
515.8855	0.09	1031771	keystroke_u	u	n/a
516.1405	0.075	1032281	keystroke_b	b	n/a
516.6505	0.105	1033301	keystroke_c	c	n/a
516.756	0.0895	1033512	keystroke_o	o	n/a
516.9655	0.06	1033931	keystroke_m	m	n/a
517.1005	0.105	1034201	keystroke_m	m	n/a
517.3855	0.045	1034771	keystroke_i	i	n/a
518.2705	0.075	1036541	keystroke_t	t	n/a
518.4205	0.0905	1036841	keystroke_t	t	n/a
518.6005	0.105	1037201	keystroke_e	e	n/a
518.8255	0.09	1037651	keystroke_e	e	n/a
519.0505	0.105	1038101	keystroke_Key.space	Key.space	n/a
519.2455	0.1055	1038491	keystroke_a	a	n/a
519.351	0.06	1038702	keystroke_n	n	n/a
519.486	0.1195	1038972	keystroke_g	g	n/a
519.5905	0.09	1039181	keystroke_e	e	n/a
519.6955	0.09	1039391	keystroke_l	l	n/a
519.9355	0.09	1039871	keystroke_Key.enter	Key.enter	n/a
520.03	5.9665	1040060	prompt	n/a	ordering revenue binary strand\n
520.7755	0.075	1041551	keystroke_o	o	n/a
520.8655	0.105	1041731	keystroke_r	r	n/a
521.1655	0.09	1042331	keystroke_d	d	n/a
521.3755	0.1355	1042751	keystroke_e	e	n/a
521.4505	0.12	1042901	keystroke_r	r	n/a
521.5855	0.1205	1043171	keystroke_i	i	n/a
521.6305	0.1505	1043261	keystroke_n	n	n/a
521.766	0.0745	1043532	keystroke_g	g	n/a
521.9155	0.06	1043831	keystroke_Key.space	Key.space	n/a
522.0205	0.12	1044041	keystroke_r	r	n/a
522.0955	0.135	1044191	keystroke_e	e	n/a
522.3655	0.12	1044731	keystroke_v	v	n/a
522.4555	0.105	1044911	keystroke_e	e	n/a
522.5755	0.1355	1045151	keystroke_n	n	n/a
522.8455	0.06	1045691	keystroke_u	u	n/a
522.9515	0.089	1045903	keystroke_e	e	n/a
523.0705	0.09	1046141	keystroke_Key.space	Key.space	n/a
523.5205	0.075	1047041	keystroke_b	b	n/a
523.7155	0.0455	1047431	keystroke_i	i	n/a
523.9405	0.075	1047881	keystroke_n	n	n/a
524.121	0.1045	1048242	keystroke_a	a	n/a
524.2555	0.105	1048511	keystroke_r	r	n/a
524.421	0.0445	1048842	keystroke_y	y	n/a
524.6155	0.075	1049231	keystroke_Key.space	Key.space	n/a
524.961	0.0745	1049922	keystroke_s	s	n/a
525.1555	0.165	1050311	keystroke_t	t	n/a
525.2905	0.075	1050581	keystroke_r	r	n/a
525.3355	0.15	1050671	keystroke_a	a	n/a
525.6655	0.09	1051331	keystroke_n	n	n/a
525.7705	0.0905	1051541	keystroke_d	d	n/a
525.9205	0.075	1051841	keystroke_Key.enter	Key.enter	n/a
526	6.3265	1052000	prompt	n/a	ncaa represent native greatly\n
526.8055	0.06	1053611	keystroke_n	n	n/a
526.9705	0.0905	1053941	keystroke_c	c	n/a
527.2405	0.105	1054481	keystroke_a	a	n/a
527.4355	0.09	1054871	keystroke_a	a	n/a
527.7055	0.075	1055411	keystroke_Key.space	Key.space	n/a
527.9305	0.135	1055861	keystroke_r	r	n/a
528.0205	0.105	1056041	keystroke_e	e	n/a
528.2005	0.0605	1056401	keystroke_p	p	n/a
528.2905	0.09	1056581	keystroke_r	r	n/a
528.3505	0.12	1056701	keystroke_e	e	n/a
528.6355	0.105	1057271	keystroke_s	s	n/a
528.8605	0.075	1057721	keystroke_e	e	n/a
528.9505	0.075	1057901	keystroke_n	n	n/a
529.0405	0.09	1058081	keystroke_t	t	n/a
529.1755	0.075	1058351	keystroke_Key.space	Key.space	n/a
529.3405	0.12	1058681	keystroke_n	n	n/a
529.4455	0.105	1058891	keystroke_a	a	n/a
529.6405	0.09	1059281	keystroke_t	t	n/a
529.7905	0.06	1059581	keystroke_i	i	n/a
529.9105	0.12	1059821	keystroke_v	v	n/a
530.0005	0.105	1060001	keystroke_e	e	n/a
530.1505	0.105	1060301	keystroke_Key.space	Key.space	n/a
530.7955	0.105	1061591	keystroke_g	g	n/a
531.0805	0.165	1062161	keystroke_r	r	n/a
531.1855	0.165	1062371	keystroke_e	e	n/a
531.2755	0.12	1062551	keystroke_a	a	n/a
531.4705	0.1055	1062941	keystroke_t	t	n/a
531.7405	0.06	1063481	keystroke_l	l	n/a
531.9805	0.06	1063961	keystroke_y	y	n/a
532.2355	0.09	1064471	keystroke_Key.enter	Key.enter	n/a
532.3295	5.667	1064659	prompt	n/a	paypal airline legacy ciao\n
533.0755	0.0755	1066151	keystroke_p	p	n/a
533.1505	0.09	1066301	keystroke_a	a	n/a
533.4355	0.075	1066871	keystroke_y	y	n/a
533.856	0.0745	1067712	keystroke_p	p	n/a
533.9605	0.105	1067921	keystroke_a	a	n/a
534.2005	0.045	1068401	keystroke_l	l	n/a
534.3505	0.105	1068701	keystroke_Key.space	Key.space	n/a
534.6055	0.09	1069211	keystroke_a	a	n/a
534.7555	0.045	1069511	keystroke_i	i	n/a
534.8305	0.09	1069661	keystroke_r	r	n/a
535.0105	0.165	1070021	keystroke_l	l	n/a
535.1005	0.195	1070201	keystroke_i	i	n/a
535.2505	0.105	1070501	keystroke_n	n	n/a
535.311	0.0745	1070622	keystroke_e	e	n/a
535.5055	0.09	1071011	keystroke_Key.space	Key.space	n/a
535.6705	0.0905	1071341	keystroke_l	l	n/a
535.7305	0.09	1071461	keystroke_e	e	n/a
535.9855	0.105	1071971	keystroke_g	g	n/a
536.061	0.1195	1072122	keystroke_a	a	n/a
536.3755	0.105	1072751	keystroke_c	c	n/a
536.511	0.0745	1073022	keystroke_y	y	n/a
536.811	0.0895	1073622	keystroke_Key.space	Key.space	n/a
537.0055	0.105	1074011	keystroke_c	c	n/a
537.1405	0.075	1074281	keystroke_i	i	n/a
537.2455	0.105	1074491	keystroke_a	a	n/a
537.6205	0.06	1075241	keystroke_l	l	n/a
537.9205	0.075	1075841	keystroke_Key.enter	Key.enter	n/a
538.002	8.3945	1076004	prompt	n/a	subsequent disc flashing findings\n
538.8355	0.09	1077671	keystroke_s	s	n/a
539.0455	0.06	1078091	keystroke_u	u	n/a
539.3905	0.075	1078781	keystroke_b	b	n/a
539.9455	0.075	1079891	keystroke_s	s	n/a
540.1855	0.12	1080371	keystroke_e	e	n/a
540.8755	0.12	1081751	keystroke_q	q	n/a
541.1455	0.045	1082291	keystroke_u	u	n/a
541.2355	0.105	1082471	keystroke_e	e	n/a
541.4305	0.075	1082861	keystroke_n	n	n/a
541.611	0.0895	1083222	keystroke_t	t	n/a
541.7905	0.135	1083581	keystroke_Key.space	Key.space	n/a
542.1205	0.09	1084241	keystroke_d	d	n/a
542.2705	0.045	1084541	keystroke_i	i	n/a
542.3755	0.105	1084751	keystroke_s	s	n/a
542.6005	0.105	1085201	keystroke_c	c	n/a
542.8705	0.09	1085741	keystroke_Key.space	Key.space	n/a
543.1855	0.135	1086371	keystroke_f	f	n/a
543.4105	0.06	1086821	keystroke_l	l	n/a
543.5305	0.12	1087061	keystroke_a	a	n/a
543.7705	0.09	1087541	keystroke_s	s	n/a
544.0255	0.075	1088051	keystroke_h	h	n/a
544.2505	0.135	1088501	keystroke_i	i	n/a
544.3555	0.1055	1088711	keystroke_n	n	n/a
544.461	0.0895	1088922	keystroke_g	g	n/a
544.5955	0.135	1089191	keystroke_Key.space	Key.space	n/a
544.8205	0.09	1089641	keystroke_f	f	n/a
544.9405	0.1205	1089881	keystroke_i	i	n/a
545.0305	0.105	1090061	keystroke_n	n	n/a
545.1955	0.12	1090391	keystroke_d	d	n/a
545.3305	0.15	1090661	keystroke_i	i	n/a
545.4355	0.12	1090871	keystroke_n	n	n/a
545.5405	0.06	1091081	keystroke_g	g	n/a
546.1555	0.09	1092311	keystroke_s	s	n/a
546.3055	0.09	1092611	keystroke_Key.enter	Key.enter	n/a
546.3995	5.937	1092799	prompt	n/a	locator intl asked announced\n
547.0705	0.09	1094141	keystroke_l	l	n/a
547.311	0.0445	1094622	keystroke_o	o	n/a
547.4455	0.105	1094891	keystroke_c	c	n/a
547.4905	0.12	1094981	keystroke_a	a	n/a
547.8655	0.09	1095731	keystroke_t	t	n/a
548.166	0.0595	1096332	keystroke_o	o	n/a
548.2705	0.105	1096541	keystroke_r	r	n/a
548.4205	0.09	1096841	keystroke_Key.space	Key.space	n/a
548.6005	0.135	1097201	keystroke_i	i	n/a
548.6905	0.135	1097381	keystroke_n	n	n/a
548.811	0.0595	1097622	keystroke_t	t	n/a
548.9455	0.09	1097891	keystroke_l	l	n/a
549.5755	0.105	1099151	keystroke_Key.space	Key.space	n/a
549.8005	0.135	1099601	keystroke_a	a	n/a
549.9505	0.12	1099901	keystroke_s	s	n/a
550.146	0.1045	1100292	keystroke_k	k	n/a
550.2655	0.075	1100531	keystroke_e	e	n/a
550.4755	0.075	1100951	keystroke_d	d	n/a
550.5955	0.09	1101191	keystroke_Key.space	Key.space	n/a
550.7155	0.105	1101431	keystroke_a	a	n/a
550.911	0.0595	1101822	keystroke_n	n	n/a
551.061	0.0895	1102122	keystroke_n	n	n/a
551.2405	0.105	1102481	keystroke_o	o	n/a
551.301	0.1045	1102602	keystroke_u	u	n/a
551.4955	0.12	1102991	keystroke_n	n	n/a
551.6305	0.1055	1103261	keystroke_c	c	n/a
551.8855	0.09	1103771	keystroke_e	e	n/a
552.1105	0.135	1104221	keystroke_d	d	n/a
552.2605	0.075	1104521	keystroke_Key.enter	Key.enter	n/a
552.3395	7.362	1104679	prompt	n/a	forests false professional consisting\n
553.0855	0.105	1106171	keystroke_f	f	n/a
553.2355	0.06	1106471	keystroke_o	o	n/a
553.3255	0.12	1106651	keystroke_r	r	n/a
553.416	0.1045	1106832	keystroke_e	e	n/a
553.626	0.0895	1107252	keystroke_s	s	n/a
553.8055	0.105	1107611	keystroke_t	t	n/a
553.9855	0.09	1107971	keystroke_s	s	n/a
554.1355	0.12	1108271	keystroke_Key.space	Key.space	n/a
554.4055	0.105	1108811	keystroke_f	f	n/a
554.4955	0.105	1108991	keystroke_a	a	n/a
554.6305	0.06	1109261	keystroke_l	l	n/a
554.7655	0.105	1109531	keystroke_s	s	n/a
554.9755	0.09	1109951	keystroke_e	e	n/a
555.1255	0.09	1110251	keystroke_Key.space	Key.space	n/a
555.3655	0.06	1110731	keystroke_p	p	n/a
555.4555	0.075	1110911	keystroke_r	r	n/a
555.5755	0.09	1111151	keystroke_o	o	n/a
555.7855	0.105	1111571	keystroke_f	f	n/a
555.8755	0.12	1111751	keystroke_e	e	n/a
556.536	0.1045	1113072	keystroke_s	s	n/a
556.7455	0.075	1113491	keystroke_s	s	n/a
556.8505	0.165	1113701	keystroke_i	i	n/a
556.9255	0.136	1113851	keystroke_o	o	n/a
557.0005	0.135	1114001	keystroke_n	n	n/a
557.151	0.09	1114302	keystroke_a	a	n/a
557.226	0.1045	1114452	keystroke_l	l	n/a
557.361	0.1045	1114722	keystroke_Key.space	Key.space	n/a
557.6305	0.09	1115261	keystroke_c	c	n/a
557.7055	0.135	1115411	keystroke_o	o	n/a
557.7955	0.105	1115591	keystroke_n	n	n/a
557.8705	0.09	1115741	keystroke_s	s	n/a
558.0805	0.075	1116161	keystroke_i	i	n/a
558.1405	0.15	1116281	keystroke_s	s	n/a
558.4555	0.12	1116911	keystroke_t	t	n/a
558.5905	0.015	1117181	keystroke_e	e	n/a
558.9505	0.075	1117901	keystroke_Key.backspace	Key.backspace	n/a
559.2205	0.15	1118441	keystroke_i	i	n/a
559.326	0.1045	1118652	keystroke_n	n	n/a
559.401	0.0895	1118802	keystroke_g	g	n/a
559.6105	0.09	1119221	keystroke_Key.enter	Key.enter	n/a
559.7045	8.052	1119409	prompt	n/a	duke teaches reproductive imported\n
560.631	0.0895	1121262	keystroke_d	d	n/a
560.7805	0.06	1121561	keystroke_u	u	n/a
561.0805	0.075	1122161	keystroke_k	k	n/a
561.1855	0.0755	1122371	keystroke_e	e	n/a
561.3205	0.09	1122641	keystroke_Key.space	Key.space	n/a
561.6205	0.165	1123241	keystroke_t	t	n/a
561.7555	0.075	1123511	keystroke_r	r	n/a
561.8005	0.135	1123601	keystroke_a	a	n/a
562.4905	0.045	1124981	keystroke_Key.backspace	Key.backspace	n/a
562.6255	0.075	1125251	keystroke_Key.backspace	Key.backspace	n/a
562.731	0.135	1125462	keystroke_e	e	n/a
562.8205	0.105	1125641	keystroke_a	a	n/a
563.091	0.1045	1126182	keystroke_c	c	n/a
563.2105	0.06	1126421	keystroke_h	h	n/a
563.3305	0.105	1126661	keystroke_e	e	n/a
563.5105	0.09	1127021	keystroke_s	s	n/a
563.646	0.1195	1127292	keystroke_Key.space	Key.space	n/a
563.9005	0.15	1127801	keystroke_r	r	n/a
563.9905	0.121	1127981	keystroke_e	e	n/a
564.1555	0.045	1128311	keystroke_p	p	n/a
564.2605	0.105	1128521	keystroke_r	r	n/a
564.5305	0.09	1129061	keystroke_o	o	n/a
564.6655	0.105	1129331	keystroke_d	d	n/a
564.8905	0.045	1129781	keystroke_u	u	n/a
564.9955	0.075	1129991	keystroke_c	c	n/a
565.6405	0.075	1131281	keystroke_t	t	n/a
565.8655	0.06	1131731	keystroke_i	i	n/a
565.9855	0.12	1131971	keystroke_v	v	n/a
566.0905	0.09	1132181	keystroke_e	e	n/a
566.2555	0.09	1132511	keystroke_Key.space	Key.space	n/a
566.571	0.1495	1133142	keystroke_i	i	n/a
566.6605	0.12	1133321	keystroke_m	m	n/a
566.8705	0.12	1133741	keystroke_p	p	n/a
566.9305	0.105	1133861	keystroke_o	o	n/a
567.0205	0.105	1134041	keystroke_r	r	n/a
567.231	0.1195	1134462	keystroke_t	t	n/a
567.3355	0.09	1134671	keystroke_e	e	n/a
567.5455	0.075	1135091	keystroke_d	d	n/a
