onset	duration	sample	value	key	prompt_text
3.0635	11.6005	6127	prompt	n/a	the quick brown fox jumps over a lazy dog\n
6.803	0.0575	13606	keystroke	t	n/a
6.8905	0.105	13781	keystroke	h	n/a
6.966	0.1495	13932	keystroke	e	n/a
7.1005	0.1805	14201	keystroke	Key.space	n/a
7.251	0.135	14502	keystroke	q	n/a
7.4015	0.1045	14803	keystroke	u	n/a
7.5805	0.0745	15161	keystroke	i	n/a
7.8045	0.1055	15609	keystroke	c	n/a
7.925	0.09	15850	keystroke	k	n/a
8.12	0.1195	16240	keystroke	Key.space	n/a
8.45	0.09	16900	keystroke	b	n/a
9.096	0.1055	18192	keystroke	r	n/a
9.246	0.1045	18492	keystroke	o	n/a
9.3655	0.12	18731	keystroke	w	n/a
9.4705	0.12	18941	keystroke	n	n/a
9.561	0.165	19122	keystroke	Key.space	n/a
9.7115	0.1195	19423	keystroke	f	n/a
9.936	0.089	19872	keystroke	o	n/a
10.056	0.135	20112	keystroke	x	n/a
10.2055	0.15	20411	keystroke	Key.space	n/a
10.3855	0.045	20771	keystroke	j	n/a
10.5505	0.0605	21101	keystroke	u	n/a
10.7155	0.0905	21431	keystroke	m	n/a
10.8955	0.106	21791	keystroke	p	n/a
11.286	0.15	22572	keystroke	s	n/a
11.5405	0.0905	23081	keystroke	Key.space	n/a
11.6905	0.105	23381	keystroke	o	n/a
11.781	0.09	23562	keystroke	v	n/a
11.9765	0.074	23953	keystroke	e	n/a
12.0205	0.1055	24041	keystroke	r	n/a
12.0955	0.2105	24191	keystroke	Key.space	n/a
12.486	0.1645	24972	keystroke	a	n/a
12.635	0.136	25270	keystroke	Key.space	n/a
12.771	0.1195	25542	keystroke	l	n/a
12.906	0.105	25812	keystroke	a	n/a
13.1005	0.09	26201	keystroke	a	n/a
13.596	0.045	27192	keystroke	Key.backspace	n/a
13.656	0.1195	27312	keystroke	z	n/a
13.805	0.076	27610	keystroke	y	n/a
13.9405	0.1645	27881	keystroke	Key.space	n/a
14.121	0.1195	28242	keystroke	d	n/a
14.256	0.1195	28512	keystroke	o	n/a
14.3905	0.0605	28781	keystroke	g	n/a
14.5555	0.105	29111	keystroke	Key.enter	n/a
14.6705	5.7225	29341	prompt	n/a	incidence profiles invest screens\n
15.261	0.135	30522	keystroke	i	n/a
15.351	0.105	30702	keystroke	n	n/a
15.4705	0.1355	30941	keystroke	c	n/a
15.6505	0.12	31301	keystroke	i	n/a
15.8155	0.0905	31631	keystroke	d	n/a
15.996	0.0895	31992	keystroke	e	n/a
16.1155	0.15	32231	keystroke	n	n/a
16.2505	0.0905	32501	keystroke	c	n/a
16.431	0.1495	32862	keystroke	e	n/a
16.536	0.165	33072	keystroke	Key.space	n/a
16.73	0.135	33460	keystroke	p	n/a
16.88	0.091	33760	keystroke	r	n/a
17.001	0.12	34002	keystroke	o	n/a
17.196	0.105	34392	keystroke	f	n/a
17.3305	0.165	34661	keystroke	i	n/a
17.465	0.106	34930	keystroke	l	n/a
17.5855	0.12	35171	keystroke	e	n/a
17.7815	0.1345	35563	keystroke	s	n/a
17.886	0.12	35772	keystroke	Key.space	n/a
17.976	0.12	35952	keystroke	i	n/a
18.0805	0.1205	36161	keystroke	n	n/a
18.2015	0.1045	36403	keystroke	v	n/a
18.4105	0.0755	36821	keystroke	e	n/a
18.59	0.1505	37180	keystroke	s	n/a
18.726	0.1345	37452	keystroke	t	n/a
18.846	0.2395	37692	keystroke	Key.space	n/a
18.995	0.166	37990	keystroke	s	n/a
19.25	0.076	38500	keystroke	c	n/a
19.476	0.09	38952	keystroke	r	n/a
19.5805	0.105	39161	keystroke	e	n/a
19.7465	0.1185	39493	keystroke	e	n/a
19.9255	0.12	39851	keystroke	n	n/a
20.0465	0.1195	40093	keystroke	s	n/a
20.2705	0.1205	40541	keystroke	Key.enter	n/a
20.397	6.5575	40794	prompt	n/a	conf mission margaret periods\n
20.931	0.1195	41862	keystroke	c	n/a
21.0655	0.1195	42131	keystroke	o	n/a
21.2455	0.135	42491	keystroke	n	n/a
21.4405	0.105	42881	keystroke	f	n/a
21.6205	0.12	43241	keystroke	Key.space	n/a
21.756	0.1355	43512	keystroke	m	n/a
21.921	0.0895	43842	keystroke	i	n/a
22.041	0.075	44082	keystroke	s	n/a
22.1755	0.135	44351	keystroke	s	n/a
22.2955	0.1655	44591	keystroke	i	n/a
22.446	0.1645	44892	keystroke	o	n/a
22.58	0.09	45160	keystroke	n	n/a
22.731	0.1495	45462	keystroke	s	n/a
23.361	0.179	46722	keystroke	Key.backspace	n/a
23.705	0.1055	47410	keystroke	Key.space	n/a
23.8705	0.1355	47741	keystroke	m	n/a
24.141	0.165	48282	keystroke	a	n/a
24.336	0.0895	48672	keystroke	r	n/a
24.756	0.074	49512	keystroke	g	n/a
24.9505	0.151	49901	keystroke	a	n/a
25.116	0.1205	50232	keystroke	r	n/a
25.326	0.12	50652	keystroke	e	n/a
25.491	0.134	50982	keystroke	t	n/a
25.611	0.1345	51222	keystroke	Key.space	n/a
25.8205	0.1045	51641	keystroke	p	n/a
25.94	0.106	51880	keystroke	e	n/a
25.986	0.1345	51972	keystroke	r	n/a
26.151	0.1795	52302	keystroke	i	n/a
26.2855	0.12	52571	keystroke	o	n/a
26.4205	0.0905	52841	keystroke	d	n/a
26.5855	0.1055	53171	keystroke	s	n/a
26.811	0.1345	53622	keystroke	Key.enter	n/a
26.958	7.2645	53916	prompt	n/a	regions fabulous controversy annex\n
28.0265	0.149	56053	keystroke	r	n/a
28.1905	0.075	56381	keystroke	e	n/a
28.3705	0.09	56741	keystroke	g	n/a
28.5055	0.1655	57011	keystroke	i	n/a
28.6405	0.135	57281	keystroke	o	n/a
28.8215	0.1045	57643	keystroke	n	n/a
28.956	0.135	57912	keystroke	s	n/a
29.0455	0.165	58091	keystroke	Key.space	n/a
29.241	0.1055	58482	keystroke	f	n/a
29.406	0.12	58812	keystroke	a	n/a
29.601	0.09	59202	keystroke	b	n/a
29.886	0.09	59772	keystroke	u	n/a
30.096	0.1055	60192	keystroke	l	n/a
30.6955	0.165	61391	keystroke	o	n/a
30.8315	0.104	61663	keystroke	u	n/a
31.0265	0.1345	62053	keystroke	s	n/a
31.131	0.12	62262	keystroke	Key.space	n/a
31.4165	0.119	62833	keystroke	c	n/a
31.551	0.1795	63102	keystroke	o	n/a
31.6865	0.1495	63373	keystroke	n	n/a
31.8505	0.075	63701	keystroke	t	n/a
32.0155	0.09	64031	keystroke	r	n/a
32.136	0.1195	64272	keystroke	o	n/a
32.2865	0.1045	64573	keystroke	v	n/a
32.4965	0.1045	64993	keystroke	e	n/a
32.5705	0.1205	65141	keystroke	r	n/a
32.796	0.1195	65592	keystroke	s	n/a
32.991	0.075	65982	keystroke	y	n/a
33.1255	0.1355	66251	keystroke	Key.space	n/a
33.3655	0.1355	66731	keystroke	a	n/a
33.456	0.0895	66912	keystroke	n	n/a
33.606	0.12	67212	keystroke	n	n/a
33.711	0.0895	67422	keystroke	e	n/a
33.9505	0.0905	67901	keystroke	x	n/a
34.1155	0.105	68231	keystroke	Key.enter	n/a
34.2265	4.916	68453	prompt	n/a	pulse dying videos standings\n
34.941	0.15	69882	keystroke	p	n/a
35.076	0.09	70152	keystroke	u	n/a
35.211	0.105	70422	keystroke	l	n/a
35.3615	0.1795	70723	keystroke	s	n/a
35.5265	0.134	71053	keystroke	e	n/a
35.646	0.1795	71292	keystroke	Key.space	n/a
35.7805	0.12	71561	keystroke	d	n/a
35.916	0.09	71832	keystroke	y	n/a
36.111	0.1655	72222	keystroke	i	n/a
36.246	0.12	72492	keystroke	n	n/a
36.336	0.1205	72672	keystroke	g	n/a
36.411	0.21	72822	keystroke	Key.space	n/a
36.606	0.1195	73212	keystroke	v	n/a
36.7855	0.105	73571	keystroke	i	n/a
36.9055	0.09	73811	keystroke	d	n/a
37.086	0.0755	74172	keystroke	e	n/a
37.2505	0.105	74501	keystroke	o	n/a
37.446	0.12	74892	keystroke	s	n/a
37.551	0.165	75102	keystroke	Key.space	n/a
37.701	0.1045	75402	keystroke	s	n/a
37.866	0.0895	75732	keystroke	t	n/a
38.0305	0.12	76061	keystroke	a	n/a
38.1365	0.1195	76273	keystroke	n	n/a
38.286	0.075	76572	keystroke	d	n/a
38.436	0.1655	76872	keystroke	i	n/a
38.571	0.1195	77142	keystroke	n	n/a
38.6765	0.074	77353	keystroke	g	n/a
38.8855	0.076	77771	keystroke	s	n/a
39.0355	0.1055	78071	keystroke	Key.enter	n/a
39.1465	8.066	78293	prompt	n/a	who'll forecast motion jeffrey\n
39.906	0.1355	79812	keystroke	w	n/a
40.011	0.1805	80022	keystroke	h	n/a
40.176	0.0905	80352	keystroke	o	n/a
40.3715	0.1045	80743	keystroke	'	n/a
40.506	0.0895	81012	keystroke	l	n/a
40.686	0.09	81372	keystroke	l	n/a
40.791	0.1495	81582	keystroke	Key.space	n/a
41.016	0.1345	82032	keystroke	f	n/a
41.181	0.0895	82362	keystroke	o	n/a
41.301	0.105	82602	keystroke	r	n/a
41.4655	0.0905	82931	keystroke	e	n/a
41.601	0.06	83202	keystroke	Key.space	n/a
41.751	0.0905	83502	keystroke	c	n/a
42.051	0.06	84102	keystroke	Key.backspace	n/a
42.201	0.09	84402	keystroke	Key.backspace	n/a
42.6065	0.1045	85213	keystroke	c	n/a
42.831	0.135	85662	keystroke	a	n/a
43.026	0.1195	86052	keystroke	s	n/a
43.2665	0.135	86533	keystroke	t	n/a
43.3705	0.135	86741	keystroke	Key.space	n/a
43.521	0.12	87042	keystroke	m	n/a
43.641	0.1205	87282	keystroke	o	n/a
43.791	0.0895	87582	keystroke	t	n/a
43.9415	0.1495	87883	keystroke	i	n/a
44.061	0.1805	88122	keystroke	o	n/a
44.196	0.135	88392	keystroke	n	n/a
44.7205	0.12	89441	keystroke	Key.space	n/a
45.2305	0.12	90461	keystroke	j	n/a
45.336	0.225	90672	keystroke	e	n/a
45.5155	0.105	91031	keystroke	r	n/a
46.116	0.09	92232	keystroke	Key.backspace	n/a
46.251	0.0605	92502	keystroke	f	n/a
46.4015	0.0895	92803	keystroke	f	n/a
46.6105	0.12	93221	keystroke	r	n/a
46.746	0.105	93492	keystroke	e	n/a
46.911	0.0905	93822	keystroke	y	n/a
47.121	0.09	94242	keystroke	Key.enter	n/a
47.2165	4.916	94433	prompt	n/a	cruises prefer screw mate\n
47.916	0.12	95832	keystroke	c	n/a
48.1565	0.0595	96313	keystroke	r	n/a
48.2915	0.12	96583	keystroke	u	n/a
48.4255	0.106	96851	keystroke	i	n/a
48.546	0.105	97092	keystroke	s	n/a
48.756	0.075	97512	keystroke	e	n/a
48.936	0.105	97872	keystroke	s	n/a
49.071	0.135	98142	keystroke	Key.space	n/a
49.281	0.12	98562	keystroke	p	n/a
49.416	0.12	98832	keystroke	r	n/a
49.551	0.105	99102	keystroke	e	n/a
49.7615	0.1045	99523	keystroke	f	n/a
49.956	0.1645	99912	keystroke	e	n/a
50.0615	0.149	100123	keystroke	r	n/a
50.196	0.225	100392	keystroke	Key.space	n/a
50.3915	0.15	100783	keystroke	s	n/a
50.5715	0.089	101143	keystroke	c	n/a
50.7805	0.09	101561	keystroke	r	n/a
50.9305	0.1055	101861	keystroke	e	n/a
51.0805	0.12	102161	keystroke	w	n/a
51.216	0.149	102432	keystroke	Key.space	n/a
51.351	0.15	102702	keystroke	m	n/a
51.5165	0.1195	103033	keystroke	a	n/a
51.6505	0.076	103301	keystroke	t	n/a
51.8165	0.074	103633	keystroke	e	n/a
52.0255	0.105	104051	keystroke	Key.enter	n/a
52.14	6.4125	104280	prompt	n/a	celebrity cuba flesh painting\n
52.8215	0.0895	105643	keystroke	c	n/a
53.001	0.09	106002	keystroke	e	n/a
53.211	0.0755	106422	keystroke	l	n/a
53.481	0.12	106962	keystroke	e	n/a
53.9615	0.0445	107923	keystroke	b	n/a
54.126	0.06	108252	keystroke	r	n/a
54.2605	0.135	108521	keystroke	i	n/a
54.411	0.0895	108822	keystroke	t	n/a
54.561	0.09	109122	keystroke	y	n/a
54.6805	0.15	109361	keystroke	Key.space	n/a
54.9365	0.12	109873	keystroke	c	n/a
55.1005	0.0755	110201	keystroke	u	n/a
55.2955	0.09	110591	keystroke	b	n/a
55.6405	0.1355	111281	keystroke	a	n/a
55.9105	0.1505	111821	keystroke	Key.space	n/a
56.0615	0.12	112123	keystroke	f	n/a
56.1965	0.1645	112393	keystroke	l	n/a
56.391	0.09	112782	keystroke	e	n/a
56.856	0.165	113712	keystroke	s	n/a
57.0355	0.0455	114071	keystroke	h	n/a
57.111	0.165	114222	keystroke	Key.space	n/a
57.306	0.1045	114612	keystroke	p	n/a
57.456	0.0895	114912	keystroke	a	n/a
57.561	0.1645	115122	keystroke	i	n/a
57.6955	0.106	115391	keystroke	n	n/a
57.8165	0.074	115633	keystroke	t	n/a
57.9515	0.134	115903	keystroke	i	n/a
58.0415	0.149	116083	keystroke	n	n/a
58.1765	0.0735	116353	keystroke	g	n/a
58.461	0.0895	116922	keystroke	Key.enter	n/a
58.5555	9.927	117111	prompt	n/a	item congressional yourself conventions\n
59.2115	0.18	118423	keystroke	i	n/a
59.3465	0.1045	118693	keystroke	n	n/a
59.466	0.0895	118932	keystroke	t	n/a
59.706	0.12	119412	keystroke	e	n/a
60.051	0.119	120102	keystroke	m	n/a
60.516	0.06	121032	keystroke	Key.backspace	n/a
60.681	0.075	121362	keystroke	Key.backspace	n/a
60.831	0.06	121662	keystroke	Key.backspace	n/a
60.981	0.075	121962	keystroke	Key.backspace	n/a
61.2365	0.09	122473	keystroke	t	n/a
61.401	0.105	122802	keystroke	e	n/a
61.536	0.135	123072	keystroke	m	n/a
61.686	0.1355	123372	keystroke	Key.space	n/a
61.971	0.12	123942	keystroke	c	n/a
62.1515	0.1195	124303	keystroke	o	n/a
62.226	0.1345	124452	keystroke	n	n/a
62.6755	0.09	125351	keystroke	g	n/a
62.8865	0.0895	125773	keystroke	r	n/a
63.066	0.1055	126132	keystroke	e	n/a
63.3065	0.0895	126613	keystroke	s	n/a
63.4865	0.105	126973	keystroke	s	n/a
63.666	0.0905	127332	keystroke	i	n/a
63.7565	0.1645	127513	keystroke	o	n/a
63.906	0.1055	127812	keystroke	n	n/a
64.0565	0.105	128113	keystroke	a	n/a
64.1755	0.09	128351	keystroke	l	n/a
64.2955	0.15	128591	keystroke	Key.space	n/a
64.521	0.1505	129042	keystroke	y	n/a
64.6555	0.165	129311	keystroke	o	n/a
64.776	0.1055	129552	keystroke	u	n/a
64.911	0.12	129822	keystroke	r	n/a
65.151	0.1505	130302	keystroke	s	n/a
65.256	0.1345	130512	keystroke	e	n/a
65.436	0.105	130872	keystroke	l	n/a
65.6005	0.136	131201	keystroke	f	n/a
65.7205	0.135	131441	keystroke	Key.space	n/a
65.976	0.105	131952	keystroke	c	n/a
66.0955	0.15	132191	keystroke	o	n/a
66.201	0.12	132402	keystroke	n	n/a
66.381	0.06	132762	keystroke	f	n/a
66.726	0.075	133452	keystroke	Key.backspace	n/a
67.1305	0.1055	134261	keystroke	v	n/a
67.4155	0.076	134831	keystroke	e	n/a
67.5515	0.1045	135103	keystroke	n	n/a
67.6865	0.0745	135373	keystroke	t	n/a
67.806	0.135	135612	keystroke	i	n/a
67.9265	0.195	135853	keystroke	o	n/a
68.076	0.09	136152	keystroke	n	n/a
68.151	0.105	136302	keystroke	s	n/a
68.376	0.105	136752	keystroke	Key.enter	n/a
68.488	7.029	136976	prompt	n/a	portions provider wages surprise\n
69.1255	0.1205	138251	keystroke	p	n/a
69.366	0.0895	138732	keystroke	o	n/a
69.846	0.0155	139692	keystroke	r	n/a
69.906	0.09	139812	keystroke	t	n/a
70.056	0.165	140112	keystroke	i	n/a
70.1915	0.165	140383	keystroke	o	n/a
70.3405	0.105	140681	keystroke	n	n/a
70.461	0.15	140922	keystroke	s	n/a
70.566	0.1495	141132	keystroke	Key.space	n/a
70.7155	0.0905	141431	keystroke	p	n/a
70.836	0.1055	141672	keystroke	r	n/a
70.956	0.105	141912	keystroke	o	n/a
71.436	0.0905	142872	keystroke	v	n/a
71.751	0.105	143502	keystroke	i	n/a
71.871	0.0755	143742	keystroke	d	n/a
72.066	0.1045	144132	keystroke	e	n/a
72.2765	0.105	144553	keystroke	r	n/a
72.3955	0.15	144791	keystroke	Key.space	n/a
72.5605	0.1355	145121	keystroke	w	n/a
72.741	0.15	145482	keystroke	a	n/a
72.9955	0.106	145991	keystroke	g	n/a
73.506	0.12	147012	keystroke	e	n/a
73.761	0.12	147522	keystroke	s	n/a
73.896	0.12	147792	keystroke	Key.space	n/a
74.1205	0.136	148241	keystroke	s	n/a
74.286	0.12	148572	keystroke	u	n/a
74.4205	0.1055	148841	keystroke	r	n/a
74.6015	0.1195	149203	keystroke	p	n/a
74.7515	0.0895	149503	keystroke	r	n/a
74.931	0.1055	149862	keystroke	i	n/a
75.096	0.12	150192	keystroke	s	n/a
75.2455	0.075	150491	keystroke	e	n/a
75.396	0.12	150792	keystroke	Key.enter	n/a
75.52	8.9235	151040	prompt	n/a	wherever optimization uruguay searched\n
76.161	0.135	152322	keystroke	w	n/a
76.2815	0.1345	152563	keystroke	h	n/a
76.416	0.1945	152832	keystroke	e	n/a
76.626	0.0905	153252	keystroke	r	n/a
76.8805	0.0755	153761	keystroke	e	n/a
77.091	0.075	154182	keystroke	v	n/a
77.256	0.1195	154512	keystroke	e	n/a
77.346	0.135	154692	keystroke	r	n/a
77.4505	0.1655	154901	keystroke	Key.space	n/a
77.691	0.195	155382	keystroke	o	n/a
77.886	0.12	155772	keystroke	p	n/a
78.036	0.09	156072	keystroke	t	n/a
78.1565	0.12	156313	keystroke	i	n/a
78.381	0.0755	156762	keystroke	m	n/a
78.606	0.06	157212	keystroke	i	n/a
78.771	0.1195	157542	keystroke	z	n/a
79.0105	0.09	158021	keystroke	a	n/a
79.2055	0.076	158411	keystroke	t	n/a
79.356	0.1645	158712	keystroke	i	n/a
79.5055	0.165	159011	keystroke	o	n/a
79.6405	0.12	159281	keystroke	n	n/a
79.806	0.1495	159612	keystroke	Key.space	n/a
79.9705	0.136	159941	keystroke	u	n/a
80.196	0.1045	160392	keystroke	r	n/a
80.451	0.09	160902	keystroke	u	n/a
81.0955	0.09	162191	keystroke	g	n/a
81.2905	0.0755	162581	keystroke	r	n/a
81.4415	0.1045	162883	keystroke	u	n/a
81.591	0.0905	163182	keystroke	a	n/a
81.996	0.0755	163992	keystroke	y	n/a
82.611	0.12	165222	keystroke	Key.space	n/a
82.9255	0.105	165851	keystroke	s	n/a
83.1355	0.105	166271	keystroke	e	n/a
83.3015	0.1795	166603	keystroke	a	n/a
83.4365	0.0895	166873	keystroke	r	n/a
83.676	0.075	167352	keystroke	c	n/a
83.811	0.1355	167622	keystroke	h	n/a
83.916	0.075	167832	keystroke	e	n/a
84.126	0.075	168252	keystroke	d	n/a
84.336	0.105	168672	keystroke	Key.enter	n/a
84.448	6.6545	168896	prompt	n/a	slots kyle range british\n
85.4905	0.1505	170981	keystroke	s	n/a
85.61	0.091	171220	keystroke	l	n/a
85.821	0.09	171642	keystroke	o	n/a
85.971	0.09	171942	keystroke	t	n/a
86.181	0.1355	172362	keystroke	s	n/a
86.2855	0.15	172571	keystroke	Key.space	n/a
86.451	0.075	172902	keystroke	k	n/a
86.6155	0.106	173231	keystroke	y	n/a
86.751	0.0895	173502	keystroke	o	n/a
86.9005	0.0755	173801	keystroke	e	n/a
87.2905	0.0605	174581	keystroke	Key.backspace	n/a
87.576	0.0595	175152	keystroke	Key.backspace	n/a
87.8455	0.076	175691	keystroke	l	n/a
87.996	0.1505	175992	keystroke	e	n/a
88.1755	0.1205	176351	keystroke	Key.space	n/a
88.386	0.105	176772	keystroke	r	n/a
88.5815	0.12	177163	keystroke	a	n/a
88.656	0.151	177312	keystroke	n	n/a
88.791	0.075	177582	keystroke	g	n/a
88.971	0.105	177942	keystroke	e	n/a
89.046	0.18	178092	keystroke	Key.space	n/a
89.2115	0.0745	178423	keystroke	b	n/a
89.376	0.0745	178752	keystroke	r	n/a
89.5105	0.106	179021	keystroke	i	n/a
89.6615	0.045	179323	keystroke	g	n/a
90.2155	0.09	180431	keystroke	Key.backspace	n/a
90.3355	0.09	180671	keystroke	t	n/a
90.471	0.0745	180942	keystroke	i	n/a
90.621	0.09	181242	keystroke	s	n/a
90.7555	0.09	181511	keystroke	h	n/a
90.9955	0.105	181991	keystroke	Key.enter	n/a
91.114	5.8985	182228	prompt	n/a	stanford publisher msie loose\n
91.6715	0.1195	183343	keystroke	s	n/a
91.821	0.0905	183642	keystroke	t	n/a
91.9865	0.165	183973	keystroke	a	n/a
92.0915	0.105	184183	keystroke	n	n/a
92.2865	0.1195	184573	keystroke	f	n/a
92.481	0.1205	184962	keystroke	o	n/a
92.6015	0.089	185203	keystroke	r	n/a
92.901	0.1045	185802	keystroke	d	n/a
93.0505	0.15	186101	keystroke	Key.space	n/a
93.3655	0.165	186731	keystroke	p	n/a
93.516	0.1055	187032	keystroke	u	n/a
93.786	0.09	187572	keystroke	b	n/a
93.9515	0.1795	187903	keystroke	l	n/a
94.086	0.12	188172	keystroke	i	n/a
94.236	0.12	188472	keystroke	s	n/a
94.371	0.135	188742	keystroke	h	n/a
94.491	0.195	188982	keystroke	e	n/a
94.671	0.1355	189342	keystroke	r	n/a
94.791	0.135	189582	keystroke	Key.space	n/a
95.241	0.165	190482	keystroke	m	n/a
95.421	0.135	190842	keystroke	s	n/a
95.5855	0.12	191171	keystroke	i	n/a
95.7505	0.1055	191501	keystroke	e	n/a
95.946	0.1345	191892	keystroke	Key.space	n/a
96.0955	0.09	192191	keystroke	l	n/a
96.2905	0.061	192581	keystroke	o	n/a
96.4255	0.1205	192851	keystroke	o	n/a
96.5755	0.1205	193151	keystroke	s	n/a
96.7105	0.0905	193421	keystroke	e	n/a
96.891	0.12	193782	keystroke	Key.enter	n/a
97.017	6.6565	194034	prompt	n/a	flowers network faced believe\n
97.746	0.12	195492	keystroke	f	n/a
97.851	0.074	195702	keystroke	l	n/a
98.031	0.0905	196062	keystroke	o	n/a
98.346	0.12	196692	keystroke	w	n/a
98.4515	0.1635	196903	keystroke	e	n/a
98.5705	0.1205	197141	keystroke	r	n/a
98.8255	0.1055	197651	keystroke	s	n/a
98.976	0.135	197952	keystroke	Key.space	n/a
99.231	0.135	198462	keystroke	n	n/a
99.351	0.15	198702	keystroke	e	n/a
99.5465	0.0745	199093	keystroke	t	n/a
99.7705	0.075	199541	keystroke	s	n/a
100.116	0.0895	200232	keystroke	Key.backspace	n/a
100.2505	0.12	200501	keystroke	w	n/a
100.4005	0.1055	200801	keystroke	o	n/a
100.521	0.105	201042	keystroke	r	n/a
100.701	0.09	201402	keystroke	k	n/a
101.106	0.1655	202212	keystroke	Key.space	n/a
101.241	0.135	202482	keystroke	f	n/a
101.421	0.165	202842	keystroke	a	n/a
101.5565	0.0895	203113	keystroke	c	n/a
101.751	0.075	203502	keystroke	e	n/a
101.976	0.1055	203952	keystroke	d	n/a
102.0655	0.135	204131	keystroke	Key.space	n/a
102.351	0.0745	204702	keystroke	b	n/a
102.531	0.09	205062	keystroke	e	n/a
102.651	0.1645	205302	keystroke	l	n/a
102.756	0.165	205512	keystroke	i	n/a
102.8455	0.106	205691	keystroke	e	n/a
103.116	0.06	206232	keystroke	v	n/a
103.326	0.0155	206652	keystroke	w	n/a
103.566	0.1045	207132	keystroke	Key.enter	n/a
103.678	7.0445	207356	prompt	n/a	medication options conf flight\n
104.466	0.135	208932	keystroke	m	n/a
104.586	0.1045	209172	keystroke	e	n/a
104.7805	0.0905	209561	keystroke	d	n/a
104.8865	0.104	209773	keystroke	i	n/a
105.0055	0.0905	210011	keystroke	c	n/a
105.1415	0.119	210283	keystroke	a	n/a
105.3055	0.075	210611	keystroke	t	n/a
105.456	0.1645	210912	keystroke	i	n/a
105.5905	0.1805	211181	keystroke	o	n/a
105.756	0.1045	211512	keystroke	n	n/a
105.8905	0.1205	211781	keystroke	Key.space	n/a
106.041	0.15	212082	keystroke	o	n/a
106.2215	0.1195	212443	keystroke	p	n/a
106.371	0.09	212742	keystroke	t	n/a
106.701	0.06	213402	keystroke	i	n/a
107.181	0.15	214362	keystroke	o	n/a
107.4665	0.0745	214933	keystroke	n	n/a
107.7665	0.1195	215533	keystroke	s	n/a
107.8865	0.1495	215773	keystroke	Key.space	n/a
108.1865	0.135	216373	keystroke	c	n/a
108.336	0.15	216672	keystroke	o	n/a
108.741	0.1195	217482	keystroke	n	n/a
109.146	0.135	218292	keystroke	f	n/a
109.521	0.1345	219042	keystroke	Key.space	n/a
109.6865	0.134	219373	keystroke	f	n/a
109.8365	0.1495	219673	keystroke	l	n/a
109.941	0.135	219882	keystroke	i	n/a
110.091	0.105	220182	keystroke	g	n/a
110.226	0.12	220452	keystroke	h	n/a
110.391	0.0455	220782	keystroke	t	n/a
110.5855	0.1355	221171	keystroke	Key.enter	n/a
110.727	6.2205	221454	prompt	n/a	korea complaints artistic players\n
111.471	0.105	222942	keystroke	k	n/a
111.6505	0.1205	223301	keystroke	o	n/a
111.786	0.1055	223572	keystroke	r	n/a
111.921	0.135	223842	keystroke	e	n/a
112.116	0.1505	224232	keystroke	a	n/a
112.2505	0.135	224501	keystroke	Key.space	n/a
112.4465	0.134	224893	keystroke	c	n/a
112.5955	0.1655	225191	keystroke	o	n/a
112.731	0.1045	225462	keystroke	m	n/a
112.926	0.1045	225852	keystroke	p	n/a
113.151	0.0905	226302	keystroke	l	n/a
113.2865	0.135	226573	keystroke	a	n/a
113.4065	0.179	226813	keystroke	i	n/a
113.5405	0.1205	227081	keystroke	n	n/a
113.6755	0.09	227351	keystroke	t	n/a
113.901	0.1195	227802	keystroke	s	n/a
113.991	0.1345	227982	keystroke	Key.space	n/a
114.1565	0.165	228313	keystroke	a	n/a
114.3065	0.089	228613	keystroke	r	n/a
114.5015	0.0745	229003	keystroke	t	n/a
114.6655	0.0755	229331	keystroke	i	n/a
114.786	0.105	229572	keystroke	s	n/a
114.9955	0.0755	229991	keystroke	t	n/a
115.2065	0.06	230413	keystroke	i	n/a
115.2815	0.1045	230563	keystroke	c	n/a
115.4455	0.1495	230891	keystroke	Key.space	n/a
115.6265	0.1045	231253	keystroke	p	n/a
115.8215	0.105	231643	keystroke	l	n/a
115.9415	0.1645	231883	keystroke	a	n/a
116.061	0.1055	232122	keystroke	y	n/a
116.241	0.1505	232482	keystroke	e	n/a
116.3765	0.0745	232753	keystroke	r	n/a
116.631	0.09	233262	keystroke	s	n/a
116.841	0.1045	233682	keystroke	Key.enter	n/a
116.9505	5.652	233901	prompt	n/a	fancy modem shoe screensaver\n
117.5305	0.1205	235061	keystroke	f	n/a
117.681	0.165	235362	keystroke	a	n/a
117.816	0.12	235632	keystroke	n	n/a
117.966	0.105	235932	keystroke	c	n/a
118.1465	0.0595	236293	keystroke	y	n/a
118.251	0.135	236502	keystroke	Key.space	n/a
118.431	0.105	236862	keystroke	m	n/a
118.596	0.12	237192	keystroke	o	n/a
118.701	0.09	237402	keystroke	d	n/a
118.881	0.09	237762	keystroke	e	n/a
119.016	0.09	238032	keystroke	m	n/a
119.121	0.12	238242	keystroke	Key.space	n/a
119.301	0.15	238602	keystroke	s	n/a
119.4365	0.134	238873	keystroke	h	n/a
119.5855	0.12	239171	keystroke	o	n/a
119.7205	0.136	239441	keystroke	w	n/a
119.8255	0.165	239651	keystroke	Key.space	n/a
120.1705	0.1205	240341	keystroke	s	n/a
120.381	0.09	240762	keystroke	c	n/a
120.831	0.09	241662	keystroke	r	n/a
120.981	0.105	241962	keystroke	e	n/a
121.161	0.1205	242322	keystroke	e	n/a
121.3115	0.12	242623	keystroke	n	n/a
121.5355	0.121	243071	keystroke	s	n/a
121.7465	0.1345	243493	keystroke	a	n/a
121.8965	0.09	243793	keystroke	v	n/a
122.0905	0.135	244181	keystroke	e	n/a
122.196	0.1045	244392	keystroke	r	n/a
122.4655	0.135	244931	keystroke	Key.enter	n/a
122.6065	6.731	245213	prompt	n/a	oklahoma movement compaq pleasant\n
123.3365	0.1195	246673	keystroke	o	n/a
123.561	0.09	247122	keystroke	k	n/a
123.7255	0.1055	247451	keystroke	l	n/a
123.846	0.15	247692	keystroke	a	n/a
124.0105	0.135	248021	keystroke	h	n/a
124.131	0.1045	248262	keystroke	o	n/a
124.3255	0.09	248651	keystroke	m	n/a
124.506	0.12	249012	keystroke	a	n/a
124.5955	0.1505	249191	keystroke	Key.space	n/a
124.731	0.1195	249462	keystroke	m	n/a
124.866	0.105	249732	keystroke	o	n/a
124.986	0.09	249972	keystroke	v	n/a
125.1815	0.09	250363	keystroke	e	n/a
125.3155	0.105	250631	keystroke	m	n/a
125.4055	0.12	250811	keystroke	e	n/a
125.5405	0.1055	251081	keystroke	n	n/a
125.691	0.0895	251382	keystroke	t	n/a
125.8105	0.1355	251621	keystroke	Key.space	n/a
126.081	0.105	252162	keystroke	c	n/a
126.2305	0.165	252461	keystroke	o	n/a
126.3515	0.12	252703	keystroke	m	n/a
126.531	0.12	253062	keystroke	p	n/a
126.666	0.105	253332	keystroke	a	n/a
127.1155	0.1205	254231	keystroke	q	n/a
127.611	0.1055	255222	keystroke	Key.space	n/a
127.7915	0.105	255583	keystroke	p	n/a
127.9715	0.135	255943	keystroke	l	n/a
128.091	0.135	256182	keystroke	e	n/a
128.256	0.1805	256512	keystroke	a	n/a
128.4055	0.1505	256811	keystroke	s	n/a
128.6615	0.1495	257323	keystroke	a	n/a
128.856	0.12	257712	keystroke	n	n/a
128.991	0.075	257982	keystroke	t	n/a
129.231	0.1045	258462	keystroke	Key.enter	n/a
129.3445	7.148	258689	prompt	n/a	depression hart companies enjoying\n
129.9515	0.0895	259903	keystroke	d	n/a
130.116	0.075	260232	keystroke	e	n/a
130.3115	0.1195	260623	keystroke	p	n/a
130.5205	0.1205	261041	keystroke	r	n/a
130.626	0.1195	261252	keystroke	e	n/a
130.821	0.0905	261642	keystroke	s	n/a
130.986	0.1045	261972	keystroke	s	n/a
131.0915	0.1345	262183	keystroke	i	n/a
131.196	0.1945	262392	keystroke	o	n/a
131.3455	0.106	262691	keystroke	n	n/a
131.4805	0.1505	262961	keystroke	Key.space	n/a
131.661	0.135	263322	keystroke	h	n/a
131.886	0.165	263772	keystroke	a	n/a
132.036	0.105	264072	keystroke	r	n/a
132.246	0.105	264492	keystroke	t	n/a
132.366	0.1495	264732	keystroke	Key.space	n/a
132.726	0.195	265452	keystroke	o	n/a
132.876	0.075	265752	keystroke	m	n/a
133.206	0.045	266412	keystroke	Key.backspace	n/a
133.341	0.075	266682	keystroke	Key.backspace	n/a
133.476	0.105	266952	keystroke	c	n/a
133.626	0.1945	267252	keystroke	o	n/a
133.7605	0.105	267521	keystroke	m	n/a
133.9415	0.12	267883	keystroke	p	n/a
134.1055	0.1515	268211	keystroke	a	n/a
134.2115	0.089	268423	keystroke	n	n/a
134.5265	0.014	269053	keystroke	i	n/a
134.5565	0.045	269113	keystroke	e	n/a
134.721	0.12	269442	keystroke	s	n/a
134.811	0.165	269622	keystroke	Key.space	n/a
134.961	0.105	269922	keystroke	e	n/a
135.141	0.105	270282	keystroke	n	n/a
135.367	0.1045	270734	keystroke	j	n/a
135.501	0.1195	271002	keystroke	o	n/a
135.6825	0.074	271365	keystroke	y	n/a
135.8615	0.1045	271723	keystroke	i	n/a
136.0265	0.0895	272053	keystroke	n	n/a
136.161	0.09	272322	keystroke	g	n/a
136.371	0.12	272742	keystroke	Key.enter	n/a
136.496	6.1165	272992	prompt	n/a	modelling helping brokers colorado\n
137.256	0.135	274512	keystroke	m	n/a
137.406	0.105	274812	keystroke	o	n/a
137.511	0.09	275022	keystroke	d	n/a
137.691	0.075	275382	keystroke	e	n/a
137.796	0.0745	275592	keystroke	l	n/a
137.961	0.1955	275922	keystroke	l	n/a
138.126	0.135	276252	keystroke	i	n/a
138.2315	0.09	276463	keystroke	n	n/a
138.336	0.135	276672	keystroke	g	n/a
138.425	0.1505	276850	keystroke	Key.space	n/a
138.5905	0.1205	277181	keystroke	h	n/a
138.756	0.12	277512	keystroke	e	n/a
138.861	0.1355	277722	keystroke	l	n/a
139.026	0.12	278052	keystroke	p	n/a
139.221	0.135	278442	keystroke	i	n/a
139.371	0.09	278742	keystroke	n	n/a
139.4765	0.105	278953	keystroke	g	n/a
139.5665	0.15	279133	keystroke	Key.space	n/a
139.7015	0.09	279403	keystroke	b	n/a
139.9115	0.06	279823	keystroke	r	n/a
140.0315	0.105	280063	keystroke	o	n/a
140.2555	0.091	280511	keystroke	k	n/a
140.3605	0.2105	280721	keystroke	e	n/a
140.5115	0.09	281023	keystroke	r	n/a
140.7205	0.136	281441	keystroke	s	n/a
140.8405	0.1505	281681	keystroke	Key.space	n/a
140.9615	0.1345	281923	keystroke	c	n/a
141.111	0.09	282222	keystroke	o	n/a
141.306	0.0755	282612	keystroke	l	n/a
141.4565	0.09	282913	keystroke	o	n/a
141.5915	0.105	283183	keystroke	r	n/a
141.8315	0.15	283663	keystroke	a	n/a
142.071	0.0745	284142	keystroke	d	n/a
142.266	0.075	284532	keystroke	o	n/a
142.491	0.1195	284982	keystroke	Key.enter	n/a
142.616	6.717	285232	prompt	n/a	drinking nationwide optical evening\n
143.196	0.12	286392	keystroke	d	n/a
143.3605	0.076	286721	keystroke	r	n/a
143.466	0.1345	286932	keystroke	i	n/a
143.616	0.135	287232	keystroke	n	n/a
143.7665	0.089	287533	keystroke	k	n/a
143.9615	0.1195	287923	keystroke	i	n/a
144.051	0.1495	288102	keystroke	n	n/a
144.171	0.12	288342	keystroke	g	n/a
144.261	0.21	288522	keystroke	Key.space	n/a
144.426	0.1355	288852	keystroke	n	n/a
144.576	0.15	289152	keystroke	a	n/a
144.741	0.09	289482	keystroke	t	n/a
144.876	0.195	289752	keystroke	i	n/a
145.056	0.18	290112	keystroke	o	n/a
145.221	0.105	290442	keystroke	n	n/a
145.4165	0.15	290833	keystroke	w	n/a
145.6105	0.1055	291221	keystroke	i	n/a
145.8205	0.106	291641	keystroke	d	n/a
146.0165	0.104	292033	keystroke	e	n/a
146.1055	0.135	292211	keystroke	Key.space	n/a
146.2555	0.195	292511	keystroke	o	n/a
146.4355	0.1205	292871	keystroke	p	n/a
146.601	0.0895	293202	keystroke	t	n/a
146.721	0.1345	293442	keystroke	i	n/a
146.9915	0.06	293983	keystroke	a	n/a
147.366	0.09	294732	keystroke	Key.backspace	n/a
147.4565	0.12	294913	keystroke	c	n/a
147.6355	0.1355	295271	keystroke	a	n/a
147.786	0.0895	295572	keystroke	l	n/a
147.921	0.1495	295842	keystroke	Key.space	n/a
148.0865	0.0745	296173	keystroke	e	n/a
148.266	0.075	296532	keystroke	v	n/a
148.4165	0.1345	296833	keystroke	e	n/a
148.566	0.075	297132	keystroke	n	n/a
148.701	0.165	297402	keystroke	i	n/a
148.821	0.1205	297642	keystroke	n	n/a
148.986	0.0905	297972	keystroke	g	n/a
149.211	0.12	298422	keystroke	Key.enter	n/a
149.3365	6.566	298673	prompt	n/a	disco limited reverse mentioned\n
149.871	0.1205	299742	keystroke	d	n/a
150.0515	0.105	300103	keystroke	i	n/a
150.171	0.12	300342	keystroke	s	n/a
150.381	0.105	300762	keystroke	c	n/a
150.576	0.105	301152	keystroke	o	n/a
150.726	0.12	301452	keystroke	Key.space	n/a
150.876	0.15	301752	keystroke	l	n/a
151.0115	0.0895	302023	keystroke	i	n/a
151.206	0.1055	302412	keystroke	m	n/a
151.3415	0.1195	302683	keystroke	i	n/a
151.476	0.09	302952	keystroke	t	n/a
151.656	0.075	303312	keystroke	e	n/a
151.851	0.06	303702	keystroke	d	n/a
151.866	0.27	303732	keystroke	Key.space	n/a
152.076	0.12	304152	keystroke	r	n/a
152.2265	0.119	304453	keystroke	e	n/a
152.4655	0.1355	304931	keystroke	c	n/a
153.0205	0.105	306041	keystroke	Key.backspace	n/a
153.1105	0.105	306221	keystroke	v	n/a
153.3205	0.1505	306641	keystroke	e	n/a
153.426	0.1055	306852	keystroke	r	n/a
153.666	0.1045	307332	keystroke	s	n/a
153.8005	0.1355	307601	keystroke	e	n/a
153.9365	0.134	307873	keystroke	Key.space	n/a
154.1165	0.135	308233	keystroke	m	n/a
154.2665	0.104	308533	keystroke	e	n/a
154.701	0.1195	309402	keystroke	n	n/a
154.911	0.075	309822	keystroke	t	n/a
155.0305	0.135	310061	keystroke	i	n/a
155.1505	0.195	310301	keystroke	o	n/a
155.2855	0.105	310571	keystroke	n	n/a
155.436	0.0905	310872	keystroke	e	n/a
155.6305	0.0905	311261	keystroke	d	n/a
155.7955	0.1055	311591	keystroke	Key.enter	n/a
155.907	6.5655	311814	prompt	n/a	impacts decisions palm assessments\n
156.6805	0.09	313361	keystroke	i	n/a
156.8465	0.12	313693	keystroke	m	n/a
157.0265	0.104	314053	keystroke	p	n/a
157.1615	0.15	314323	keystroke	a	n/a
157.326	0.0745	314652	keystroke	c	n/a
157.5365	0.06	315073	keystroke	t	n/a
157.7605	0.1505	315521	keystroke	s	n/a
157.866	0.195	315732	keystroke	Key.space	n/a
158.0305	0.105	316061	keystroke	d	n/a
158.2555	0.0755	316511	keystroke	e	n/a
158.4515	0.104	316903	keystroke	c	n/a
158.571	0.1195	317142	keystroke	i	n/a
158.721	0.1355	317442	keystroke	s	n/a
158.841	0.1655	317682	keystroke	i	n/a
158.991	0.18	317982	keystroke	o	n/a
159.1255	0.136	318251	keystroke	n	n/a
159.2765	0.135	318553	keystroke	s	n/a
159.3505	0.135	318701	keystroke	Key.space	n/a
159.636	0.105	319272	keystroke	p	n/a
159.7565	0.149	319513	keystroke	a	n/a
159.8765	0.105	319753	keystroke	l	n/a
160.2365	0.12	320473	keystroke	m	n/a
160.401	0.15	320802	keystroke	Key.space	n/a
160.581	0.1645	321162	keystroke	a	n/a
160.7165	0.105	321433	keystroke	s	n/a
160.9255	0.0905	321851	keystroke	s	n/a
161.091	0.06	322182	keystroke	e	n/a
161.2255	0.135	322451	keystroke	s	n/a
161.436	0.105	322872	keystroke	s	n/a
161.556	0.1195	323112	keystroke	m	n/a
161.6905	0.09	323381	keystroke	e	n/a
161.8105	0.105	323621	keystroke	n	n/a
161.9465	0.074	323893	keystroke	t	n/a
162.1555	0.1055	324311	keystroke	s	n/a
162.381	0.09	324762	keystroke	Key.enter	n/a
162.4765	5.6965	324953	prompt	n/a	words bottle worker tears\n
163.191	0.1495	326382	keystroke	w	n/a
163.325	0.1355	326650	keystroke	o	n/a
163.446	0.1045	326892	keystroke	r	n/a
163.6105	0.106	327221	keystroke	l	n/a
164.0905	0.09	328181	keystroke	Key.backspace	n/a
164.226	0.09	328452	keystroke	d	n/a
164.4965	0.1945	328993	keystroke	s	n/a
164.706	0.12	329412	keystroke	Key.space	n/a
165.05	0.091	330100	keystroke	b	n/a
165.2155	0.166	330431	keystroke	o	n/a
165.336	0.0755	330672	keystroke	t	n/a
165.486	0.1055	330972	keystroke	t	n/a
165.6515	0.105	331303	keystroke	l	n/a
165.7715	0.09	331543	keystroke	e	n/a
166.0265	0.164	332053	keystroke	Key.space	n/a
166.2365	0.135	332473	keystroke	w	n/a
166.3565	0.105	332713	keystroke	o	n/a
166.4765	0.105	332953	keystroke	r	n/a
166.6115	0.135	333223	keystroke	k	n/a
166.7465	0.1495	333493	keystroke	e	n/a
166.896	0.105	333792	keystroke	r	n/a
166.971	0.21	333942	keystroke	Key.space	n/a
167.105	0.121	334210	keystroke	t	n/a
167.256	0.1205	334512	keystroke	e	n/a
167.4215	0.225	334843	keystroke	a	n/a
167.631	0.0905	335262	keystroke	r	n/a
167.841	0.105	335682	keystroke	s	n/a
168.036	0.135	336072	keystroke	Key.enter	n/a
168.1775	7.18	336355	prompt	n/a	aggressive medications xhtml pictures\n
168.8615	0.119	337723	keystroke	a	n/a
169.0405	0.075	338081	keystroke	g	n/a
169.191	0.09	338382	keystroke	g	n/a
169.3715	0.0895	338743	keystroke	r	n/a
169.4915	0.1795	338983	keystroke	e	n/a
169.686	0.075	339372	keystroke	s	n/a
169.8505	0.105	339701	keystroke	s	n/a
169.9715	0.1495	339943	keystroke	i	n/a
170.0905	0.091	340181	keystroke	v	n/a
170.2555	0.15	340511	keystroke	e	n/a
170.3605	0.15	340721	keystroke	Key.space	n/a
170.5255	0.1505	341051	keystroke	m	n/a
170.6605	0.09	341321	keystroke	e	n/a
170.8405	0.1205	341681	keystroke	d	n/a
170.9765	0.1345	341953	keystroke	i	n/a
171.0955	0.106	342191	keystroke	c	n/a
171.2465	0.1345	342493	keystroke	a	n/a
171.441	0.06	342882	keystroke	t	n/a
171.5765	0.1795	343153	keystroke	i	n/a
171.7415	0.135	343483	keystroke	o	n/a
171.906	0.12	343812	keystroke	n	n/a
172.041	0.18	344082	keystroke	s	n/a
172.161	0.15	344322	keystroke	Key.space	n/a
172.431	0.136	344862	keystroke	x	n/a
172.7155	0.121	345431	keystroke	h	n/a
173.121	0.0905	346242	keystroke	t	n/a
173.4215	0.089	346843	keystroke	m	n/a
173.631	0.0905	347262	keystroke	l	n/a
173.766	0.12	347532	keystroke	Key.space	n/a
173.9165	0.105	347833	keystroke	p	n/a
174.0815	0.105	348163	keystroke	i	n/a
174.201	0.0905	348402	keystroke	c	n/a
174.4415	0.0595	348883	keystroke	t	n/a
174.561	0.1205	349122	keystroke	u	n/a
174.652	0.1045	349304	keystroke	r	n/a
174.786	0.15	349572	keystroke	e	n/a
174.9805	0.105	349961	keystroke	s	n/a
175.251	0.1045	350502	keystroke	Key.enter	n/a
175.3615	6.281	350723	prompt	n/a	teaches release rear trademarks\n
175.9555	0.1055	351911	keystroke	t	n/a
176.1065	0.119	352213	keystroke	e	n/a
176.241	0.135	352482	keystroke	a	n/a
176.421	0.09	352842	keystroke	c	n/a
176.601	0.1045	353202	keystroke	h	n/a
176.7065	0.1345	353413	keystroke	e	n/a
176.901	0.1355	353802	keystroke	s	n/a
176.991	0.1645	353982	keystroke	Key.space	n/a
177.1415	0.1195	354283	keystroke	r	n/a
177.2765	0.1345	354553	keystroke	e	n/a
177.426	0.1355	354852	keystroke	l	n/a
177.5465	0.1195	355093	keystroke	e	n/a
177.756	0.1655	355512	keystroke	a	n/a
177.906	0.165	355812	keystroke	s	n/a
178.0715	0.135	356143	keystroke	e	n/a
178.326	0.1355	356652	keystroke	Key.space	n/a
178.4615	0.1345	356923	keystroke	r	n/a
178.611	0.135	357222	keystroke	e	n/a
179.061	0.15	358122	keystroke	a	n/a
179.272	0.119	358544	keystroke	r	n/a
179.376	0.135	358752	keystroke	Key.space	n/a
179.661	0.0755	359322	keystroke	t	n/a
179.8255	0.105	359651	keystroke	r	n/a
180.007	0.1635	360014	keystroke	a	n/a
180.2005	0.061	360401	keystroke	d	n/a
180.366	0.06	360732	keystroke	e	n/a
180.531	0.135	361062	keystroke	m	n/a
180.666	0.165	361332	keystroke	a	n/a
180.801	0.105	361602	keystroke	r	n/a
181.0565	0.0895	362113	keystroke	k	n/a
181.326	0.1205	362652	keystroke	s	n/a
181.5365	0.1045	363073	keystroke	Key.enter	n/a
181.6475	7.435	363295	prompt	n/a	downloads specially integer fighter\n
182.271	0.1205	364542	keystroke	d	n/a
182.436	0.09	364872	keystroke	o	n/a
182.541	0.135	365082	keystroke	w	n/a
182.661	0.105	365322	keystroke	n	n/a
182.8265	0.09	365653	keystroke	l	n/a
183.0065	0.0755	366013	keystroke	o	n/a
183.142	0.1645	366284	keystroke	a	n/a
183.4705	0.121	366941	keystroke	d	n/a
183.7715	0.12	367543	keystroke	s	n/a
184.1315	0.135	368263	keystroke	Key.space	n/a
184.3115	0.15	368623	keystroke	s	n/a
184.4465	0.135	368893	keystroke	p	n/a
184.6415	0.135	369283	keystroke	e	n/a
184.911	0.12	369822	keystroke	c	n/a
185.046	0.12	370092	keystroke	i	n/a
185.1805	0.165	370361	keystroke	a	n/a
185.3165	0.0905	370633	keystroke	l	n/a
185.4815	0.12	370963	keystroke	l	n/a
185.616	0.075	371232	keystroke	y	n/a
185.706	0.1205	371412	keystroke	Key.space	n/a
185.841	0.18	371682	keystroke	i	n/a
185.961	0.135	371922	keystroke	n	n/a
186.081	0.09	372162	keystroke	t	n/a
186.246	0.15	372492	keystroke	e	n/a
186.3355	0.136	372671	keystroke	r	n/a
186.726	0.0905	373452	keystroke	Key.backspace	n/a
186.8305	0.0755	373661	keystroke	g	n/a
186.9955	0.121	373991	keystroke	e	n/a
187.0855	0.09	374171	keystroke	r	n/a
187.521	0.105	375042	keystroke	Key.space	n/a
187.8215	0.1345	375643	keystroke	f	n/a
188.0165	0.1195	376033	keystroke	i	n/a
188.1815	0.0595	376363	keystroke	g	n/a
188.2865	0.12	376573	keystroke	h	n/a
188.436	0.09	376872	keystroke	t	n/a
188.631	0.12	377262	keystroke	e	n/a
188.721	0.105	377442	keystroke	r	n/a
188.961	0.1205	377922	keystroke	Key.enter	n/a
189.086	8.082	378172	prompt	n/a	cycling heights characteristics inner\n
189.771	0.105	379542	keystroke	c	n/a
189.9065	0.0895	379813	keystroke	y	n/a
190.026	0.09	380052	keystroke	c	n/a
190.161	0.18	380322	keystroke	l	n/a
190.311	0.1655	380622	keystroke	i	n/a
190.431	0.12	380862	keystroke	n	n/a
190.536	0.12	381072	keystroke	g	n/a
190.626	0.165	381252	keystroke	Key.space	n/a
190.7915	0.105	381583	keystroke	h	n/a
191.121	0.0905	382242	keystroke	e	n/a
191.2415	0.12	382483	keystroke	i	n/a
191.452	0.0895	382904	keystroke	g	n/a
191.5265	0.12	383053	keystroke	h	n/a
191.7065	0.09	383413	keystroke	t	n/a
191.9615	0.1195	383923	keystroke	s	n/a
192.0815	0.15	384163	keystroke	Key.space	n/a
192.381	0.1055	384762	keystroke	c	n/a
192.5165	0.0895	385033	keystroke	h	n/a
192.666	0.165	385332	keystroke	a	n/a
192.846	0.09	385692	keystroke	r	n/a
193.041	0.1205	386082	keystroke	a	n/a
193.222	0.0745	386444	keystroke	c	n/a
193.4165	0.0595	386833	keystroke	t	n/a
193.581	0.105	387162	keystroke	e	n/a
193.656	0.105	387312	keystroke	r	n/a
193.821	0.12	387642	keystroke	i	n/a
193.9565	0.105	387913	keystroke	s	n/a
194.151	0.09	388302	keystroke	t	n/a
194.316	0.12	388632	keystroke	s	n/a
194.781	0.09	389562	keystroke	Key.backspace	n/a
195.0215	0.0745	390043	keystroke	i	n/a
195.126	0.075	390252	keystroke	c	n/a
195.3215	0.1045	390643	keystroke	s	n/a
195.7855	0.09	391571	keystroke	Key.space	n/a
196.311	0.18	392622	keystroke	i	n/a
196.4455	0.0605	392891	keystroke	n	n/a
196.5965	0.09	393193	keystroke	n	n/a
196.7015	0.1345	393403	keystroke	e	n/a
196.806	0.0905	393612	keystroke	r	n/a
197.0605	0.1055	394121	keystroke	Key.enter	n/a
197.1725	7.2255	394345	prompt	n/a	plugin marsh puppy subscribers\n
197.856	0.1195	395712	keystroke	p	n/a
198.0365	0.12	396073	keystroke	l	n/a
198.2155	0.106	396431	keystroke	u	n/a
198.351	0.1055	396702	keystroke	g	n/a
198.576	0.105	397152	keystroke	m	n/a
199.056	0.075	398112	keystroke	Key.backspace	n/a
199.3265	0.0445	398653	keystroke	i	n/a
199.521	0.0605	399042	keystroke	n	n/a
199.8815	0.134	399763	keystroke	Key.space	n/a
200.0165	0.12	400033	keystroke	m	n/a
200.1515	0.15	400303	keystroke	a	n/a
200.2565	0.12	400513	keystroke	r	n/a
200.4815	0.105	400963	keystroke	s	n/a
200.6015	0.09	401203	keystroke	h	n/a
200.7365	0.12	401473	keystroke	Key.space	n/a
200.9015	0.135	401803	keystroke	p	n/a
201.0215	0.105	402043	keystroke	u	n/a
201.1865	0.06	402373	keystroke	p	n/a
201.3065	0.1195	402613	keystroke	p	n/a
201.4715	0.09	402943	keystroke	y	n/a
202.2055	0.1355	404411	keystroke	Key.space	n/a
202.326	0.1505	404652	keystroke	s	n/a
202.4915	0.09	404983	keystroke	u	n/a
202.6115	0.09	405223	keystroke	b	n/a
202.836	0.1205	405672	keystroke	s	n/a
203.0615	0.0895	406123	keystroke	c	n/a
203.2865	0.09	406573	keystroke	r	n/a
203.4065	0.1495	406813	keystroke	i	n/a
203.5715	0.075	407143	keystroke	b	n/a
203.766	0.1355	407532	keystroke	e	n/a
203.841	0.105	407682	keystroke	r	n/a
204.081	0.0755	408162	keystroke	s	n/a
204.2915	0.105	408583	keystroke	Key.enter	n/a
204.405	8.2725	408810	prompt	n/a	seattle insertion mens how'd\n
204.9665	0.135	409933	keystroke	s	n/a
205.1165	0.12	410233	keystroke	e	n/a
205.2965	0.15	410593	keystroke	a	n/a
205.476	0.075	410952	keystroke	t	n/a
205.6255	0.12	411251	keystroke	t	n/a
205.7915	0.1195	411583	keystroke	l	n/a
205.9265	0.15	411853	keystroke	e	n/a
206.0305	0.1205	412061	keystroke	Key.space	n/a
206.1215	0.165	412243	keystroke	i	n/a
206.2415	0.135	412483	keystroke	n	n/a
206.436	0.18	412872	keystroke	s	n/a
206.586	0.1805	413172	keystroke	e	n/a
206.7215	0.1195	413443	keystroke	r	n/a
207.051	0.0905	414102	keystroke	t	n/a
207.3365	0.15	414673	keystroke	i	n/a
207.4565	0.1945	414913	keystroke	o	n/a
207.6065	0.0895	415213	keystroke	n	n/a
207.7255	0.12	415451	keystroke	Key.space	n/a
207.861	0.1045	415722	keystroke	m	n/a
207.9805	0.1055	415961	keystroke	e	n/a
208.1015	0.105	416203	keystroke	n	n/a
208.3415	0.1795	416683	keystroke	s	n/a
208.491	0.12	416982	keystroke	Key.space	n/a
208.686	0.151	417372	keystroke	h	n/a
208.8215	0.1495	417643	keystroke	o	n/a
208.9565	0.1195	417913	keystroke	d	n/a
209.121	0.15	418242	keystroke	'	n/a
209.301	0.0905	418602	keystroke	s	n/a
209.7665	0.105	419533	keystroke	Key.backspace	n/a
209.9315	0.0745	419863	keystroke	Key.backspace	n/a
210.066	0.09	420132	keystroke	Key.backspace	n/a
210.186	0.1055	420372	keystroke	w	n/a
210.5465	0.0605	421093	keystroke	d	n/a
211.5655	0.045	423131	keystroke	Key.backspace	n/a
212.1655	0.09	424331	keystroke	'	n/a
212.286	0.0755	424572	keystroke	d	n/a
212.5705	0.1055	425141	keystroke	Key.enter	n/a
212.682	6.896	425364	prompt	n/a	independence dining cove garbage\n
213.456	0.15	426912	keystroke	i	n/a
213.576	0.1355	427152	keystroke	n	n/a
213.7265	0.09	427453	keystroke	d	n/a
213.877	0.1185	427754	keystroke	e	n/a
214.0115	0.0905	428023	keystroke	p	n/a
214.3705	0.1205	428741	keystroke	e	n/a
214.5955	0.0905	429191	keystroke	n	n/a
214.7165	0.089	429433	keystroke	d	n/a
214.882	0.089	429764	keystroke	e	n/a
215.0165	0.105	430033	keystroke	n	n/a
215.2865	0.074	430573	keystroke	c	n/a
215.4505	0.1205	430901	keystroke	e	n/a
215.526	0.165	431052	keystroke	Key.space	n/a
215.736	0.135	431472	keystroke	d	n/a
215.902	0.1185	431804	keystroke	i	n/a
216.006	0.1205	432012	keystroke	n	n/a
216.1565	0.105	432313	keystroke	i	n/a
216.3065	0.105	432613	keystroke	n	n/a
216.426	0.1205	432852	keystroke	g	n/a
216.516	0.15	433032	keystroke	Key.space	n/a
216.726	0.12	433452	keystroke	c	n/a
216.8915	0.105	433783	keystroke	o	n/a
217.0415	0.0895	434083	keystroke	v	n/a
217.341	0.06	434682	keystroke	e	n/a
217.5665	0.1195	435133	keystroke	Key.space	n/a
217.911	0.0905	435822	keystroke	g	n/a
218.0915	0.1795	436183	keystroke	a	n/a
218.241	0.075	436482	keystroke	r	n/a
218.436	0.075	436872	keystroke	b	n/a
218.706	0.1205	437412	keystroke	a	n/a
219.0205	0.075	438041	keystroke	g	n/a
219.2165	0.074	438433	keystroke	e	n/a
219.4555	0.121	438911	keystroke	Key.enter	n/a
219.582	6.791	439164	prompt	n/a	loves davis recently causing\n
220.1765	0.089	440353	keystroke	l	n/a
220.3705	0.076	440741	keystroke	o	n/a
220.461	0.09	440922	keystroke	v	n/a
220.641	0.105	441282	keystroke	e	n/a
220.806	0.135	441612	keystroke	s	n/a
220.911	0.1955	441822	keystroke	Key.space	n/a
221.046	0.09	442092	keystroke	d	n/a
221.196	0.12	442392	keystroke	a	n/a
221.6155	0.1055	443231	keystroke	i	n/a
221.976	0.09	443952	keystroke	Key.backspace	n/a
222.4415	0.12	444883	keystroke	v	n/a
222.7265	0.09	445453	keystroke	i	n/a
223.0865	0.1345	446173	keystroke	s	n/a
223.206	0.1655	446412	keystroke	Key.space	n/a
223.537	0.119	447074	keystroke	r	n/a
223.6715	0.105	447343	keystroke	e	n/a
223.881	0.075	447762	keystroke	c	n/a
224.046	0.0755	448092	keystroke	e	n/a
224.1365	0.15	448273	keystroke	n	n/a
224.271	0.075	448542	keystroke	t	n/a
224.4065	0.09	448813	keystroke	l	n/a
224.601	0.06	449202	keystroke	y	n/a
224.7215	0.1495	449443	keystroke	Key.space	n/a
224.886	0.1355	449772	keystroke	c	n/a
225.036	0.105	450072	keystroke	u	n/a
225.186	0.1505	450372	keystroke	a	n/a
225.396	0.12	450792	keystroke	s	n/a
225.531	0.135	451062	keystroke	i	n/a
225.621	0.105	451242	keystroke	n	n/a
225.756	0.0605	451512	keystroke	g	n/a
226.2515	0.12	452503	keystroke	Key.enter	n/a
226.3775	4.42	452755	prompt	n/a	arch mention assets cult\n
226.9865	0.1645	453973	keystroke	a	n/a
227.1215	0.0895	454243	keystroke	r	n/a
227.406	0.1355	454812	keystroke	c	n/a
227.571	0.1055	455142	keystroke	h	n/a
227.6915	0.105	455383	keystroke	Key.space	n/a
227.8265	0.105	455653	keystroke	m	n/a
227.9465	0.105	455893	keystroke	e	n/a
228.0665	0.104	456133	keystroke	n	n/a
228.2015	0.074	456403	keystroke	t	n/a
228.3365	0.135	456673	keystroke	i	n/a
228.4565	0.1495	456913	keystroke	o	n/a
228.5915	0.104	457183	keystroke	n	n/a
228.6665	0.164	457333	keystroke	Key.space	n/a
228.8155	0.166	457631	keystroke	a	n/a
228.9355	0.076	457871	keystroke	s	n/a
229.147	0.0745	458294	keystroke	s	n/a
229.2355	0.1055	458471	keystroke	e	n/a
229.4765	0.0605	458953	keystroke	t	n/a
229.6555	0.135	459311	keystroke	s	n/a
229.7605	0.136	459521	keystroke	Key.space	n/a
230.031	0.1055	460062	keystroke	c	n/a
230.151	0.105	460302	keystroke	u	n/a
230.3165	0.15	460633	keystroke	l	n/a
230.451	0.075	460902	keystroke	t	n/a
230.676	0.12	461352	keystroke	Key.enter	n/a
230.8005	6.6725	461601	prompt	n/a	considerations rights electro newport\n
231.5155	0.12	463031	keystroke	c	n/a
231.6215	0.165	463243	keystroke	o	n/a
231.741	0.1205	463482	keystroke	n	n/a
231.921	0.1195	463842	keystroke	s	n/a
232.0555	0.09	464111	keystroke	i	n/a
232.656	0.0905	465312	keystroke	d	n/a
232.8815	0.105	465763	keystroke	e	n/a
232.9715	0.09	465943	keystroke	r	n/a
233.2265	0.105	466453	keystroke	a	n/a
233.3465	0.0745	466693	keystroke	t	n/a
233.4815	0.119	466963	keystroke	i	n/a
233.5855	0.1655	467171	keystroke	o	n/a
233.721	0.12	467442	keystroke	n	n/a
233.8265	0.09	467653	keystroke	s	n/a
233.871	0.1955	467742	keystroke	Key.space	n/a
234.0215	0.105	468043	keystroke	r	n/a
234.142	0.119	468284	keystroke	i	n/a
234.276	0.0755	468552	keystroke	g	n/a
234.3815	0.1195	468763	keystroke	h	n/a
234.4865	0.0595	468973	keystroke	t	n/a
234.712	0.074	469424	keystroke	s	n/a
234.756	0.1955	469512	keystroke	Key.space	n/a
234.921	0.105	469842	keystroke	e	n/a
235.041	0.106	470082	keystroke	l	n/a
235.147	0.0745	470294	keystroke	e	n/a
235.3555	0.076	470711	keystroke	c	n/a
235.5665	0.0595	471133	keystroke	t	n/a
235.7165	0.059	471433	keystroke	r	n/a
235.8965	0.09	471793	keystroke	o	n/a
236.0155	0.105	472031	keystroke	Key.space	n/a
236.2565	0.12	472513	keystroke	n	n/a
236.3615	0.12	472723	keystroke	e	n/a
236.5265	0.12	473053	keystroke	w	n/a
236.6765	0.135	473353	keystroke	p	n/a
236.841	0.12	473682	keystroke	o	n/a
236.976	0.09	473952	keystroke	r	n/a
237.1715	0.06	474343	keystroke	t	n/a
237.351	0.12	474702	keystroke	Key.enter	n/a
237.4775	5.8305	474955	prompt	n/a	chemical fibre charleston focal\n
238.041	0.12	476082	keystroke	c	n/a
238.206	0.121	476412	keystroke	h	n/a
238.371	0.105	476742	keystroke	e	n/a
238.506	0.09	477012	keystroke	m	n/a
238.6715	0.1045	477343	keystroke	i	n/a
238.791	0.1055	477582	keystroke	c	n/a
238.9715	0.15	477943	keystroke	a	n/a
239.0915	0.12	478183	keystroke	l	n/a
239.1965	0.165	478393	keystroke	Key.space	n/a
239.3765	0.105	478753	keystroke	f	n/a
239.511	0.135	479022	keystroke	i	n/a
239.631	0.09	479262	keystroke	b	n/a
239.856	0.075	479712	keystroke	r	n/a
240.036	0.12	480072	keystroke	e	n/a
240.2765	0.1345	480553	keystroke	Key.space	n/a
240.4715	0.119	480943	keystroke	c	n/a
240.606	0.1195	481212	keystroke	h	n/a
240.771	0.135	481542	keystroke	a	n/a
240.936	0.09	481872	keystroke	r	n/a
241.1015	0.134	482203	keystroke	l	n/a
241.356	0.1195	482712	keystroke	s	n/a
241.551	0.075	483102	keystroke	t	n/a
241.7165	0.1795	483433	keystroke	o	n/a
241.866	0.0905	483732	keystroke	n	n/a
242.0305	0.1355	484061	keystroke	Key.space	n/a
242.1805	0.106	484361	keystroke	f	n/a
242.3315	0.105	484663	keystroke	o	n/a
242.4655	0.076	484931	keystroke	c	n/a
242.7055	0.121	485411	keystroke	a	n/a
242.9165	0.09	485833	keystroke	l	n/a
243.1715	0.134	486343	keystroke	Key.enter	n/a
243.3125	7.9905	486625	prompt	n/a	couples activation projects baltimore\n
243.8915	0.1345	487783	keystroke	c	n/a
244.0265	0.1945	488053	keystroke	o	n/a
244.176	0.1055	488352	keystroke	u	n/a
244.4465	0.0895	488893	keystroke	p	n/a
244.6715	0.0755	489343	keystroke	l	n/a
245.2415	0.075	490483	keystroke	e	n/a
245.946	0.135	491892	keystroke	s	n/a
246.0505	0.136	492101	keystroke	Key.space	n/a
246.291	0.1495	492582	keystroke	a	n/a
246.4565	0.075	492913	keystroke	c	n/a
246.6665	0.06	493333	keystroke	t	n/a
246.7865	0.09	493573	keystroke	i	n/a
246.9065	0.105	493813	keystroke	v	n/a
247.161	0.1355	494322	keystroke	a	n/a
247.3405	0.075	494681	keystroke	t	n/a
247.4765	0.1345	494953	keystroke	i	n/a
247.5815	0.1795	495163	keystroke	o	n/a
247.7315	0.1195	495463	keystroke	n	n/a
247.836	0.1495	495672	keystroke	Key.space	n/a
248.2555	0.076	496511	keystroke	p	n/a
248.3455	0.105	496691	keystroke	r	n/a
248.4665	0.09	496933	keystroke	o	n/a
248.691	0.12	497382	keystroke	j	n/a
248.7955	0.106	497591	keystroke	e	n/a
248.9915	0.075	497983	keystroke	c	n/a
249.2015	0.045	498403	keystroke	t	n/a
249.3665	0.165	498733	keystroke	s	n/a
249.5015	0.1355	499003	keystroke	Key.space	n/a
249.667	0.089	499334	keystroke	b	n/a
249.8615	0.15	499723	keystroke	a	n/a
250.026	0.1655	500052	keystroke	l	n/a
250.266	0.09	500532	keystroke	t	n/a
250.371	0.1055	500742	keystroke	i	n/a
250.552	0.1045	501104	keystroke	m	n/a
250.7165	0.105	501433	keystroke	o	n/a
250.8505	0.1055	501701	keystroke	r	n/a
251.001	0.1205	502002	keystroke	e	n/a
251.196	0.105	502392	keystroke	Key.enter	n/a
251.3075	7.0455	502615	prompt	n/a	emperor buffalo instrument retired\n
251.991	0.12	503982	keystroke	e	n/a
252.1265	0.1195	504253	keystroke	m	n/a
252.381	0.12	504762	keystroke	p	n/a
252.5315	0.1345	505063	keystroke	e	n/a
252.6215	0.135	505243	keystroke	r	n/a
252.8015	0.1045	505603	keystroke	o	n/a
252.936	0.1055	505872	keystroke	r	n/a
253.2365	0.1345	506473	keystroke	Key.space	n/a
253.416	0.0905	506832	keystroke	b	n/a
253.5355	0.121	507071	keystroke	u	n/a
253.8065	0.075	507613	keystroke	f	n/a
253.956	0.09	507912	keystroke	f	n/a
254.1815	0.135	508363	keystroke	a	n/a
254.3165	0.09	508633	keystroke	l	n/a
254.5115	0.09	509023	keystroke	o	n/a
254.721	0.1205	509442	keystroke	Key.space	n/a
254.8715	0.18	509743	keystroke	i	n/a
255.0215	0.12	510043	keystroke	n	n/a
255.2165	0.135	510433	keystroke	s	n/a
255.4865	0.09	510973	keystroke	t	n/a
255.6665	0.074	511333	keystroke	r	n/a
255.7865	0.09	511573	keystroke	u	n/a
256.0105	0.09	512021	keystroke	m	n/a
256.1305	0.136	512261	keystroke	e	n/a
256.251	0.09	512502	keystroke	n	n/a
256.3855	0.136	512771	keystroke	t	n/a
256.5065	0.15	513013	keystroke	Key.space	n/a
256.821	0.1355	513642	keystroke	r	n/a
256.9705	0.136	513941	keystroke	e	n/a
257.451	0.1055	514902	keystroke	t	n/a
257.616	0.15	515232	keystroke	i	n/a
257.7215	0.1195	515443	keystroke	r	n/a
257.856	0.12	515712	keystroke	e	n/a
258.081	0.1055	516162	keystroke	d	n/a
258.201	0.15	516402	keystroke	Key.enter	n/a
258.357	8.9055	516714	prompt	n/a	innovation legend compared pharmaceutical\n
259.041	0.195	518082	keystroke	i	n/a
259.2065	0.09	518413	keystroke	n	n/a
259.371	0.105	518742	keystroke	n	n/a
259.5065	0.119	519013	keystroke	o	n/a
259.641	0.105	519282	keystroke	v	n/a
259.8365	0.12	519673	keystroke	a	n/a
260.0015	0.0745	520003	keystroke	t	n/a
260.1515	0.135	520303	keystroke	i	n/a
260.271	0.165	520542	keystroke	o	n/a
260.406	0.1205	520812	keystroke	n	n/a
260.541	0.105	521082	keystroke	Key.space	n/a
260.6615	0.1495	521323	keystroke	l	n/a
260.766	0.105	521532	keystroke	e	n/a
261.006	0.0905	522012	keystroke	g	n/a
261.2015	0.105	522403	keystroke	e	n/a
261.351	0.105	522702	keystroke	n	n/a
261.4865	0.105	522973	keystroke	d	n/a
261.6055	0.135	523211	keystroke	Key.space	n/a
261.8615	0.134	523723	keystroke	c	n/a
262.011	0.1805	524022	keystroke	o	n/a
262.1305	0.1355	524261	keystroke	m	n/a
262.296	0.135	524592	keystroke	p	n/a
262.491	0.226	524982	keystroke	a	n/a
262.7015	0.1055	525403	keystroke	r	n/a
262.9565	0.105	525913	keystroke	e	n/a
263.1815	0.105	526363	keystroke	d	n/a
263.2715	0.1195	526543	keystroke	Key.space	n/a
263.4215	0.12	526843	keystroke	p	n/a
263.616	0.0905	527232	keystroke	h	n/a
263.766	0.165	527532	keystroke	a	n/a
263.9465	0.12	527893	keystroke	r	n/a
264.2765	0.105	528553	keystroke	m	n/a
264.6365	0.15	529273	keystroke	a	n/a
265.611	0.12	531222	keystroke	c	n/a
265.8665	0.12	531733	keystroke	e	n/a
266.061	0.105	532122	keystroke	u	n/a
266.211	0.1055	532422	keystroke	t	n/a
266.362	0.104	532724	keystroke	i	n/a
266.541	0.12	533082	keystroke	c	n/a
266.6915	0.135	533383	keystroke	a	n/a
266.8415	0.1045	533683	keystroke	l	n/a
267.1555	0.1055	534311	keystroke	Key.enter	n/a
267.2655	7.3325	534531	prompt	n/a	boring schema saved collectables\n
267.9805	0.0905	535961	keystroke	b	n/a
268.116	0.1055	536232	keystroke	o	n/a
268.2365	0.0745	536473	keystroke	r	n/a
268.356	0.18	536712	keystroke	i	n/a
268.4765	0.1195	536953	keystroke	n	n/a
268.551	0.1205	537102	keystroke	g	n/a
268.641	0.24	537282	keystroke	Key.space	n/a
268.8365	0.135	537673	keystroke	s	n/a
269.0465	0.105	538093	keystroke	c	n/a
269.1955	0.1655	538391	keystroke	h	n/a
269.4965	0.105	538993	keystroke	e	n/a
269.6915	0.1195	539383	keystroke	m	n/a
270.0215	0.1505	540043	keystroke	a	n/a
270.1865	0.1345	540373	keystroke	Key.space	n/a
270.5165	0.1045	541033	keystroke	s	n/a
270.726	0.1205	541452	keystroke	a	n/a
270.8765	0.09	541753	keystroke	v	n/a
271.0865	0.12	542173	keystroke	e	n/a
271.2365	0.165	542473	keystroke	Key.space	n/a
271.3565	0.12	542713	keystroke	d	n/a
271.7905	0.0605	543581	keystroke	Key.backspace	n/a
272.0455	0.0155	544091	keystroke	Key.backspace	n/a
272.0755	0.075	544151	keystroke	d	n/a
272.211	0.12	544422	keystroke	Key.space	n/a
272.4665	0.15	544933	keystroke	c	n/a
272.6015	0.0895	545203	keystroke	o	n/a
272.811	0.045	545622	keystroke	l	n/a
272.931	0.106	545862	keystroke	l	n/a
273.052	0.0745	546104	keystroke	e	n/a
273.262	0.059	546524	keystroke	c	n/a
273.4715	0.045	546943	keystroke	t	n/a
273.651	0.121	547302	keystroke	a	n/a
273.801	0.076	547602	keystroke	b	n/a
273.9815	0.12	547963	keystroke	l	n/a
274.086	0.09	548172	keystroke	e	n/a
274.401	0.0155	548802	keystroke	s	n/a
274.461	0.135	548922	keystroke	Key.enter	n/a
274.6045	5.8585	549209	prompt	n/a	stable enters liable attract\n
275.2415	0.0755	550483	keystroke	s	n/a
275.331	0.06	550662	keystroke	t	n/a
275.466	0.1205	550932	keystroke	a	n/a
275.6465	0.06	551293	keystroke	b	n/a
275.8265	0.106	551653	keystroke	l	n/a
275.9165	0.15	551833	keystroke	e	n/a
276.0215	0.1345	552043	keystroke	Key.space	n/a
276.321	0.1205	552642	keystroke	e	n/a
276.486	0.12	552972	keystroke	n	n/a
276.621	0.0905	553242	keystroke	t	n/a
276.816	0.121	553632	keystroke	e	n/a
276.891	0.12	553782	keystroke	r	n/a
277.116	0.12	554232	keystroke	s	n/a
277.191	0.135	554382	keystroke	Key.space	n/a
277.3565	0.1645	554713	keystroke	l	n/a
277.476	0.1205	554952	keystroke	i	n/a
277.626	0.15	555252	keystroke	a	n/a
277.8665	0.0745	555733	keystroke	b	n/a
278.061	0.0895	556122	keystroke	l	n/a
278.181	0.1205	556362	keystroke	e	n/a
278.271	0.1355	556542	keystroke	Key.space	n/a
278.527	0.134	557054	keystroke	a	n/a
278.706	0.0755	557412	keystroke	t	n/a
278.8565	0.06	557713	keystroke	t	n/a
279.0065	0.0895	558013	keystroke	r	n/a
279.157	0.1495	558314	keystroke	a	n/a
279.711	0.1055	559422	keystroke	c	n/a
280.0255	0.0455	560051	keystroke	t	n/a
280.3415	0.1195	560683	keystroke	Key.enter	n/a
280.467	6.2055	560934	prompt	n/a	excellence coding correlation menus\n
281.092	0.089	562184	keystroke	e	n/a
281.316	0.09	562632	keystroke	x	n/a
281.4965	0.075	562993	keystroke	c	n/a
281.6465	0.12	563293	keystroke	e	n/a
281.7815	0.06	563563	keystroke	l	n/a
281.9315	0.1195	563863	keystroke	l	n/a
282.0365	0.12	564073	keystroke	e	n/a
282.1865	0.1205	564373	keystroke	n	n/a
282.2905	0.076	564581	keystroke	c	n/a
282.4715	0.104	564943	keystroke	e	n/a
282.561	0.15	565122	keystroke	Key.space	n/a
282.861	0.1205	565722	keystroke	c	n/a
283.0265	0.12	566053	keystroke	o	n/a
283.1615	0.105	566323	keystroke	d	n/a
283.3115	0.195	566623	keystroke	i	n/a
283.4615	0.1345	566923	keystroke	n	n/a
283.5365	0.135	567073	keystroke	g	n/a
283.641	0.24	567282	keystroke	Key.space	n/a
283.821	0.106	567642	keystroke	c	n/a
284.001	0.121	568002	keystroke	o	n/a
284.122	0.0745	568244	keystroke	r	n/a
284.271	0.09	568542	keystroke	r	n/a
284.4215	0.105	568843	keystroke	e	n/a
284.5715	0.09	569143	keystroke	l	n/a
284.7065	0.1355	569413	keystroke	a	n/a
284.872	0.0895	569744	keystroke	t	n/a
285.021	0.1505	570042	keystroke	i	n/a
285.157	0.179	570314	keystroke	o	n/a
285.3515	0.09	570703	keystroke	n	n/a
285.531	0.1205	571062	keystroke	Key.space	n/a
285.6965	0.105	571393	keystroke	m	n/a
285.8025	0.1185	571605	keystroke	e	n/a
285.951	0.091	571902	keystroke	n	n/a
286.176	0.075	572352	keystroke	u	n/a
286.3715	0.0895	572743	keystroke	s	n/a
286.5665	0.105	573133	keystroke	Key.enter	n/a
286.6755	6.2225	573351	prompt	n/a	orientation surgery rarely hearts\n
287.301	0.1055	574602	keystroke	o	n/a
287.3915	0.1195	574783	keystroke	r	n/a
287.586	0.1055	575172	keystroke	i	n/a
287.7515	0.1195	575503	keystroke	e	n/a
287.857	0.149	575714	keystroke	n	n/a
288.0515	0.075	576103	keystroke	t	n/a
288.2165	0.165	576433	keystroke	a	n/a
288.3665	0.1055	576733	keystroke	t	n/a
288.5015	0.15	577003	keystroke	i	n/a
288.6665	0.1355	577333	keystroke	o	n/a
288.7715	0.1055	577543	keystroke	n	n/a
288.8915	0.1495	577783	keystroke	Key.space	n/a
289.042	0.135	578084	keystroke	s	n/a
289.191	0.12	578382	keystroke	u	n/a
289.3265	0.075	578653	keystroke	r	n/a
289.5215	0.0745	579043	keystroke	g	n/a
289.701	0.0755	579402	keystroke	e	n/a
289.746	0.1355	579492	keystroke	r	n/a
289.986	0.061	579972	keystroke	y	n/a
290.1065	0.1345	580213	keystroke	Key.space	n/a
290.256	0.121	580512	keystroke	r	n/a
290.451	0.165	580902	keystroke	a	n/a
290.601	0.12	581202	keystroke	r	n/a
291.021	0.09	582042	keystroke	e	n/a
291.187	0.0895	582374	keystroke	l	n/a
291.3665	0.0745	582733	keystroke	y	n/a
291.6515	0.12	583303	keystroke	Key.space	n/a
291.8615	0.105	583723	keystroke	h	n/a
291.967	0.1495	583934	keystroke	e	n/a
292.1315	0.1495	584263	keystroke	a	n/a
292.2505	0.091	584501	keystroke	r	n/a
292.4165	0.0905	584833	keystroke	t	n/a
292.581	0.136	585162	keystroke	s	n/a
292.776	0.12	585552	keystroke	Key.enter	n/a
292.902	6.311	585804	prompt	n/a	filters quotations batch screen\n
293.571	0.106	587142	keystroke	f	n/a
293.7065	0.1645	587413	keystroke	i	n/a
293.811	0.165	587622	keystroke	l	n/a
293.961	0.105	587922	keystroke	t	n/a
294.1415	0.135	588283	keystroke	e	n/a
294.2315	0.12	588463	keystroke	r	n/a
294.4565	0.12	588913	keystroke	s	n/a
294.5315	0.135	589063	keystroke	Key.space	n/a
294.7715	0.12	589543	keystroke	q	n/a
294.921	0.1055	589842	keystroke	u	n/a
295.1465	0.09	590293	keystroke	o	n/a
295.2965	0.1055	590593	keystroke	t	n/a
295.536	0.1355	591072	keystroke	a	n/a
295.6415	0.1195	591283	keystroke	t	n/a
295.822	0.15	591644	keystroke	i	n/a
295.956	0.1805	591912	keystroke	o	n/a
296.106	0.121	592212	keystroke	n	n/a
296.242	0.1345	592484	keystroke	s	n/a
296.3315	0.225	592663	keystroke	Key.space	n/a
296.5415	0.1055	593083	keystroke	b	n/a
296.752	0.1495	593504	keystroke	a	n/a
296.916	0.09	593832	keystroke	t	n/a
297.3065	0.105	594613	keystroke	c	n/a
297.4715	0.0905	594943	keystroke	h	n/a
297.6515	0.165	595303	keystroke	Key.space	n/a
297.847	0.1495	595694	keystroke	s	n/a
298.0115	0.09	596023	keystroke	c	n/a
298.2815	0.09	596563	keystroke	r	n/a
298.492	0.0895	596984	keystroke	e	n/a
298.6715	0.075	597343	keystroke	e	n/a
298.8065	0.1055	597613	keystroke	n	n/a
299.0915	0.12	598183	keystroke	Key.enter	n/a
299.217	6.454	598434	prompt	n/a	anonymous slip diabetes airlines\n
299.916	0.1655	599832	keystroke	a	n/a
300.0365	0.1205	600073	keystroke	n	n/a
300.2315	0.15	600463	keystroke	o	n/a
300.4115	0.105	600823	keystroke	n	n/a
300.772	0.0895	601544	keystroke	y	n/a
301.057	0.0745	602114	keystroke	m	n/a
301.2215	0.1655	602443	keystroke	o	n/a
301.387	0.104	602774	keystroke	u	n/a
301.5665	0.135	603133	keystroke	s	n/a
301.7765	0.105	603553	keystroke	Key.space	n/a
301.987	0.1195	603974	keystroke	s	n/a
302.0915	0.15	604183	keystroke	l	n/a
302.2265	0.1045	604453	keystroke	i	n/a
302.376	0.105	604752	keystroke	p	n/a
302.5415	0.18	605083	keystroke	Key.space	n/a
302.6765	0.135	605353	keystroke	d	n/a
302.781	0.1205	605562	keystroke	i	n/a
302.946	0.136	605892	keystroke	a	n/a
303.111	0.09	606222	keystroke	b	n/a
303.321	0.09	606642	keystroke	e	n/a
303.5615	0.0755	607123	keystroke	t	n/a
303.741	0.106	607482	keystroke	e	n/a
303.981	0.135	607962	keystroke	s	n/a
304.1315	0.135	608263	keystroke	Key.space	n/a
304.296	0.181	608592	keystroke	a	n/a
304.446	0.135	608892	keystroke	i	n/a
304.5665	0.105	609133	keystroke	r	n/a
304.7465	0.1505	609493	keystroke	l	n/a
304.8215	0.1955	609643	keystroke	i	n/a
305.0315	0.09	610063	keystroke	n	n/a
305.1665	0.075	610333	keystroke	e	n/a
305.3315	0.135	610663	keystroke	s	n/a
305.5415	0.1195	611083	keystroke	Key.enter	n/a
305.6745	6.3785	611349	prompt	n/a	anytime domestic projectors roots\n
306.247	0.1795	612494	keystroke	a	n/a
306.3665	0.06	612733	keystroke	n	n/a
306.547	0.0445	613094	keystroke	y	n/a
306.7715	0.075	613543	keystroke	t	n/a
306.8765	0.105	613753	keystroke	i	n/a
307.0715	0.12	614143	keystroke	m	n/a
307.2215	0.1055	614443	keystroke	e	n/a
307.4315	0.105	614863	keystroke	s	n/a
307.5215	0.135	615043	keystroke	Key.space	n/a
307.6715	0.135	615343	keystroke	d	n/a
307.7915	0.105	615583	keystroke	o	n/a
307.9715	0.135	615943	keystroke	m	n/a
308.122	0.0895	616244	keystroke	e	n/a
308.332	0.1345	616664	keystroke	s	n/a
308.4965	0.09	616993	keystroke	t	n/a
308.662	0.1195	617324	keystroke	i	n/a
308.931	0.105	617862	keystroke	c	n/a
309.202	0.1195	618404	keystroke	Key.space	n/a
309.442	0.09	618884	keystroke	p	n/a
309.591	0.09	619182	keystroke	r	n/a
309.7125	0.089	619425	keystroke	o	n/a
309.951	0.091	619902	keystroke	j	n/a
310.057	0.089	620114	keystroke	e	n/a
310.2515	0.0895	620503	keystroke	c	n/a
310.4615	0.0595	620923	keystroke	t	n/a
310.5965	0.0905	621193	keystroke	o	n/a
310.701	0.1205	621402	keystroke	r	n/a
310.9415	0.135	621883	keystroke	s	n/a
311.0615	0.165	622123	keystroke	Key.space	n/a
311.182	0.1195	622364	keystroke	r	n/a
311.317	0.0445	622634	keystroke	o	n/a
311.4365	0.15	622873	keystroke	o	n/a
311.5715	0.0895	623143	keystroke	t	n/a
311.7515	0.1205	623503	keystroke	s	n/a
311.931	0.12	623862	keystroke	Key.enter	n/a
312.057	8.5765	624114	prompt	n/a	conventional consistent dont conferencing\n
312.831	0.106	625662	keystroke	c	n/a
312.966	0.196	625932	keystroke	o	n/a
313.117	0.135	626234	keystroke	n	n/a
313.372	0.074	626744	keystroke	v	n/a
313.552	0.0745	627104	keystroke	e	n/a
313.6715	0.09	627343	keystroke	n	n/a
313.8065	0.075	627613	keystroke	t	n/a
313.957	0.15	627914	keystroke	i	n/a
314.091	0.1805	628182	keystroke	o	n/a
314.2415	0.1055	628483	keystroke	n	n/a
314.4215	0.1505	628843	keystroke	a	n/a
314.5865	0.1045	629173	keystroke	l	n/a
314.751	0.12	629502	keystroke	Key.space	n/a
314.9165	0.105	629833	keystroke	c	n/a
315.037	0.1495	630074	keystroke	o	n/a
315.142	0.1045	630284	keystroke	n	n/a
315.3065	0.1205	630613	keystroke	s	n/a
315.4715	0.1045	630943	keystroke	i	n/a
315.6065	0.105	631213	keystroke	s	n/a
315.9365	0.09	631873	keystroke	t	n/a
316.1315	0.09	632263	keystroke	e	n/a
316.2965	0.1195	632593	keystroke	n	n/a
316.477	0.089	632954	keystroke	t	n/a
316.611	0.166	633222	keystroke	Key.space	n/a
316.747	0.119	633494	keystroke	d	n/a
316.8965	0.195	633793	keystroke	o	n/a
317.047	0.12	634094	keystroke	n	n/a
317.211	0.106	634422	keystroke	t	n/a
317.301	0.15	634602	keystroke	Key.space	n/a
317.5115	0.1205	635023	keystroke	c	n/a
317.676	0.1955	635352	keystroke	o	n/a
317.811	0.105	635622	keystroke	n	n/a
317.931	0.105	635862	keystroke	v	n/a
318.172	0.194	636344	keystroke	e	n/a
318.7565	0.06	637513	keystroke	Key.backspace	n/a
318.9205	0.0455	637841	keystroke	Key.backspace	n/a
319.0115	0.105	638023	keystroke	f	n/a
319.2515	0.15	638503	keystroke	e	n/a
319.3565	0.15	638713	keystroke	r	n/a
319.566	0.121	639132	keystroke	e	n/a
319.732	0.1045	639464	keystroke	n	n/a
319.851	0.09	639702	keystroke	c	n/a
320.0765	0.1505	640153	keystroke	i	n/a
320.1965	0.105	640393	keystroke	n	n/a
320.317	0.0745	640634	keystroke	g	n/a
320.5265	0.105	641053	keystroke	Key.enter	n/a
320.6375	4.616	641275	prompt	n/a	sierra we directors write\n
321.3215	0.09	642643	keystroke	s	n/a
321.4415	0.165	642883	keystroke	i	n/a
321.5765	0.165	643153	keystroke	e	n/a
321.7115	0.105	643423	keystroke	r	n/a
321.9365	0.075	643873	keystroke	r	n/a
322.117	0.1195	644234	keystroke	a	n/a
322.2515	0.15	644503	keystroke	Key.space	n/a
322.432	0.1495	644864	keystroke	w	n/a
322.5665	0.12	645133	keystroke	e	n/a
322.6715	0.1795	645343	keystroke	Key.space	n/a
322.821	0.106	645642	keystroke	d	n/a
322.956	0.121	645912	keystroke	i	n/a
323.092	0.089	646184	keystroke	r	n/a
323.2265	0.0905	646453	keystroke	e	n/a
323.421	0.076	646842	keystroke	c	n/a
323.617	0.0595	647234	keystroke	t	n/a
323.7965	0.1055	647593	keystroke	o	n/a
323.9315	0.1055	647863	keystroke	r	n/a
324.1715	0.1195	648343	keystroke	s	n/a
324.276	0.135	648552	keystroke	Key.space	n/a
324.442	0.105	648884	keystroke	w	n/a
324.562	0.09	649124	keystroke	r	n/a
324.666	0.151	649332	keystroke	i	n/a
324.787	0.105	649574	keystroke	t	n/a
324.9365	0.0905	649873	keystroke	e	n/a
325.146	0.105	650292	keystroke	Key.enter	n/a
325.257	6.0865	650514	prompt	n/a	isolation based fact blackberry\n
325.867	0.1045	651734	keystroke	i	n/a
325.9865	0.165	651973	keystroke	s	n/a
326.332	0.105	652664	keystroke	o	n/a
326.587	0.105	653174	keystroke	l	n/a
326.737	0.119	653474	keystroke	a	n/a
326.886	0.09	653772	keystroke	t	n/a
327.036	0.121	654072	keystroke	i	n/a
327.127	0.2095	654254	keystroke	o	n/a
327.3065	0.105	654613	keystroke	n	n/a
327.741	0.15	655482	keystroke	Key.space	n/a
327.8765	0.1195	655753	keystroke	b	n/a
328.0715	0.1795	656143	keystroke	a	n/a
328.2665	0.0905	656533	keystroke	s	n/a
328.447	0.0745	656894	keystroke	e	n/a
328.6415	0.09	657283	keystroke	d	n/a
328.746	0.12	657492	keystroke	Key.space	n/a
328.806	0.1205	657612	keystroke	f	n/a
328.9865	0.1495	657973	keystroke	a	n/a
329.121	0.1055	658242	keystroke	c	n/a
329.3465	0.09	658693	keystroke	t	n/a
329.4665	0.18	658933	keystroke	Key.space	n/a
329.6015	0.1505	659203	keystroke	b	n/a
329.7815	0.09	659563	keystroke	l	n/a
329.917	0.1495	659834	keystroke	a	n/a
330.0815	0.12	660163	keystroke	c	n/a
330.2165	0.0895	660433	keystroke	k	n/a
330.442	0.074	660884	keystroke	b	n/a
330.637	0.12	661274	keystroke	e	n/a
330.726	0.091	661452	keystroke	r	n/a
330.8915	0.0905	661783	keystroke	r	n/a
331.012	0.09	662024	keystroke	y	n/a
331.2375	0.104	662475	keystroke	Key.enter	n/a
331.348	5.575	662696	prompt	n/a	misc incentive surgeon sent\n
331.957	0.1045	663914	keystroke	m	n/a
332.1965	0.0745	664393	keystroke	i	n/a
332.3615	0.105	664723	keystroke	s	n/a
332.6165	0.0905	665233	keystroke	c	n/a
332.8565	0.09	665713	keystroke	Key.space	n/a
333.0065	0.165	666013	keystroke	i	n/a
333.127	0.12	666254	keystroke	n	n/a
333.367	0.105	666734	keystroke	c	n/a
333.6215	0.075	667243	keystroke	e	n/a
333.7265	0.1045	667453	keystroke	n	n/a
333.9215	0.075	667843	keystroke	t	n/a
334.057	0.1045	668114	keystroke	i	n/a
334.2215	0.075	668443	keystroke	v	n/a
334.4015	0.09	668803	keystroke	e	n/a
334.5065	0.195	669013	keystroke	Key.space	n/a
334.6565	0.15	669313	keystroke	s	n/a
334.837	0.104	669674	keystroke	u	n/a
334.9565	0.0755	669913	keystroke	r	n/a
335.1515	0.075	670303	keystroke	g	n/a
335.3315	0.075	670663	keystroke	e	n/a
335.5115	0.1045	671023	keystroke	o	n/a
335.766	0.0755	671532	keystroke	n	n/a
336.081	0.1355	672162	keystroke	Key.space	n/a
336.2015	0.135	672403	keystroke	s	n/a
336.3215	0.1055	672643	keystroke	e	n/a
336.457	0.0895	672914	keystroke	n	n/a
336.6065	0.06	673213	keystroke	t	n/a
336.8165	0.105	673633	keystroke	Key.enter	n/a
336.9295	10.15	673859	prompt	n/a	cemetery realtor classroom enlarge\n
337.5515	0.09	675103	keystroke	c	n/a
337.7465	0.09	675493	keystroke	e	n/a
337.8815	0.105	675763	keystroke	m	n/a
338.017	0.0895	676034	keystroke	e	n/a
338.1965	0.075	676393	keystroke	t	n/a
338.707	0.015	677414	keystroke	e	n/a
338.737	0.1045	677474	keystroke	r	n/a
339.0065	0.06	678013	keystroke	y	n/a
339.1415	0.105	678283	keystroke	Key.space	n/a
339.3365	0.1205	678673	keystroke	r	n/a
339.577	0.1345	679154	keystroke	a	n/a
339.7415	0.1055	679483	keystroke	l	n/a
340.0115	0.06	680023	keystroke	t	n/a
340.1465	0.09	680293	keystroke	o	n/a
340.7315	0.09	681463	keystroke	r	n/a
340.9415	0.195	681883	keystroke	Key.space	n/a
341.2715	0.135	682543	keystroke	l	n/a
341.7665	0.06	683533	keystroke	Key.backspace	n/a
341.9305	0.0605	683861	keystroke	Key.backspace	n/a
342.0665	0.06	684133	keystroke	Key.backspace	n/a
342.2015	0.06	684403	keystroke	Key.backspace	n/a
342.396	0.0305	684792	keystroke	Key.backspace	n/a
342.5315	0.045	685063	keystroke	Key.backspace	n/a
342.6965	0.045	685393	keystroke	Key.backspace	n/a
343.1465	0.12	686293	keystroke	e	n/a
343.3565	0.15	686713	keystroke	a	n/a
343.4465	0.12	686893	keystroke	l	n/a
343.6265	0.075	687253	keystroke	t	n/a
343.7315	0.12	687463	keystroke	o	n/a
343.9115	0.1355	687823	keystroke	r	n/a
344.0315	0.24	688063	keystroke	Key.space	n/a
344.2415	0.12	688483	keystroke	c	n/a
344.3915	0.105	688783	keystroke	l	n/a
344.527	0.209	689054	keystroke	a	n/a
344.692	0.1195	689384	keystroke	s	n/a
344.8865	0.0895	689773	keystroke	s	n/a
345.021	0.09	690042	keystroke	r	n/a
345.141	0.0755	690282	keystroke	o	n/a
345.306	0.1355	690612	keystroke	o	n/a
345.457	0.119	690914	keystroke	m	n/a
345.6065	0.1345	691213	keystroke	Key.space	n/a
345.726	0.1655	691452	keystroke	e	n/a
345.9065	0.1055	691813	keystroke	n	n/a
346.1315	0.105	692263	keystroke	l	n/a
346.2515	0.195	692503	keystroke	a	n/a
346.432	0.0745	692864	keystroke	r	n/a
346.6115	0.06	693223	keystroke	g	n/a
346.7915	0.0455	693583	keystroke	e	n/a
346.9565	0.12	693913	keystroke	Key.enter	n/a
347.083	8.4555	694166	prompt	n/a	disabilities delicious response blond\n
347.662	0.105	695324	keystroke	d	n/a
347.782	0.15	695564	keystroke	i	n/a
347.947	0.105	695894	keystroke	s	n/a
348.127	0.1345	696254	keystroke	a	n/a
348.337	0.105	696674	keystroke	b	n/a
348.457	0.15	696914	keystroke	i	n/a
348.621	0.166	697242	keystroke	l	n/a
348.741	0.136	697482	keystroke	i	n/a
348.907	0.1045	697814	keystroke	t	n/a
349.1165	0.105	698233	keystroke	i	n/a
349.2365	0.105	698473	keystroke	e	n/a
349.4315	0.12	698863	keystroke	s	n/a
349.5365	0.21	699073	keystroke	Key.space	n/a
349.6865	0.0895	699373	keystroke	d	n/a
349.896	0.0905	699792	keystroke	e	n/a
350.1815	0.1505	700363	keystroke	l	n/a
350.317	0.1195	700634	keystroke	i	n/a
350.452	0.1345	700904	keystroke	c	n/a
351.6365	0.1045	703273	keystroke	i	n/a
351.787	0.164	703574	keystroke	o	n/a
351.936	0.106	703872	keystroke	u	n/a
352.0865	0.135	704173	keystroke	s	n/a
352.2365	0.1345	704473	keystroke	Key.space	n/a
352.417	0.1195	704834	keystroke	r	n/a
352.567	0.0895	705134	keystroke	e	n/a
352.7465	0.15	705493	keystroke	s	n/a
352.882	0.1195	705764	keystroke	p	n/a
352.9715	0.225	705943	keystroke	o	n/a
353.1665	0.105	706333	keystroke	n	n/a
353.406	0.181	706812	keystroke	s	n/a
353.602	0.1195	707204	keystroke	e	n/a
353.7665	0.15	707533	keystroke	Key.space	n/a
353.9915	0.0895	707983	keystroke	f	n/a
354.4565	0.09	708913	keystroke	Key.backspace	n/a
354.5615	0.135	709123	keystroke	b	n/a
354.7265	0.075	709453	keystroke	l	n/a
354.8765	0.09	709753	keystroke	o	n/a
355.0565	0.105	710113	keystroke	n	n/a
355.222	0.0895	710444	keystroke	d	n/a
355.432	0.104	710864	keystroke	Key.enter	n/a
355.5435	6.3545	711087	prompt	n/a	linear email photograph illegal\n
356.4365	0.165	712873	keystroke	l	n/a
356.557	0.09	713114	keystroke	i	n/a
356.7365	0.105	713473	keystroke	n	n/a
356.872	0.119	713744	keystroke	e	n/a
357.0665	0.1805	714133	keystroke	a	n/a
357.232	0.149	714464	keystroke	r	n/a
357.351	0.1505	714702	keystroke	Key.space	n/a
357.622	0.1195	715244	keystroke	e	n/a
357.756	0.09	715512	keystroke	m	n/a
357.936	0.106	715872	keystroke	a	n/a
358.056	0.1805	716112	keystroke	i	n/a
358.1915	0.135	716383	keystroke	l	n/a
358.3565	0.135	716713	keystroke	Key.space	n/a
358.537	0.1045	717074	keystroke	p	n/a
358.7165	0.1055	717433	keystroke	h	n/a
358.882	0.1195	717764	keystroke	o	n/a
359.0765	0.1355	718153	keystroke	t	n/a
359.316	0.12	718632	keystroke	o	n/a
359.7065	0.0895	719413	keystroke	g	n/a
359.8865	0.06	719773	keystroke	r	n/a
360.0665	0.15	720133	keystroke	a	n/a
360.2465	0.12	720493	keystroke	p	n/a
360.427	0.0895	720854	keystroke	h	n/a
360.561	0.12	721122	keystroke	Key.space	n/a
360.7115	0.135	721423	keystroke	i	n/a
360.8015	0.0905	721603	keystroke	l	n/a
360.9665	0.12	721933	keystroke	l	n/a
361.057	0.119	722114	keystroke	e	n/a
361.251	0.09	722502	keystroke	g	n/a
361.387	0.149	722774	keystroke	a	n/a
361.567	0.1045	723134	keystroke	l	n/a
361.7765	0.12	723553	keystroke	Key.enter	n/a
361.9025	4.347	723805	prompt	n/a	sense event jerry scotland\n
362.4215	0.1355	724843	keystroke	s	n/a
362.5415	0.1055	725083	keystroke	e	n/a
362.6765	0.1205	725353	keystroke	n	n/a
362.827	0.1645	725654	keystroke	s	n/a
362.9765	0.1205	725953	keystroke	e	n/a
363.097	0.1495	726194	keystroke	Key.space	n/a
363.2615	0.0905	726523	keystroke	e	n/a
363.4415	0.06	726883	keystroke	v	n/a
363.592	0.12	727184	keystroke	e	n/a
363.757	0.075	727514	keystroke	n	n/a
363.877	0.15	727754	keystroke	Key.space	n/a
364.117	0.105	728234	keystroke	j	n/a
364.237	0.165	728474	keystroke	e	n/a
364.357	0.105	728714	keystroke	r	n/a
364.522	0.1345	729044	keystroke	r	n/a
364.6715	0.09	729343	keystroke	y	n/a
364.8215	0.12	729643	keystroke	Key.space	n/a
364.9565	0.12	729913	keystroke	s	n/a
365.091	0.106	730182	keystroke	c	n/a
365.241	0.106	730482	keystroke	o	n/a
365.391	0.076	730782	keystroke	t	n/a
365.5415	0.1055	731083	keystroke	l	n/a
365.691	0.151	731382	keystroke	a	n/a
365.827	0.09	731654	keystroke	n	n/a
365.9765	0.09	731953	keystroke	d	n/a
366.1265	0.1195	732253	keystroke	Key.enter	n/a
366.2535	6.8195	732507	prompt	n/a	crawford british musical budget\n
366.997	0.09	733994	keystroke	c	n/a
367.207	0.0745	734414	keystroke	r	n/a
367.4465	0.12	734893	keystroke	a	n/a
367.717	0.1195	735434	keystroke	w	n/a
367.9565	0.0895	735913	keystroke	f	n/a
368.1665	0.135	736333	keystroke	o	n/a
368.437	0.1345	736874	keystroke	r	n/a
368.6615	0.1195	737323	keystroke	d	n/a
368.736	0.195	737472	keystroke	Key.space	n/a
369.2015	0.1055	738403	keystroke	b	n/a
369.4865	0.09	738973	keystroke	r	n/a
369.637	0.1045	739274	keystroke	i	n/a
369.8915	0.09	739783	keystroke	t	n/a
370.0115	0.105	740023	keystroke	i	n/a
370.1765	0.1355	740353	keystroke	s	n/a
370.3265	0.0905	740653	keystroke	h	n/a
370.386	0.135	740772	keystroke	Key.space	n/a
370.612	0.06	741224	keystroke	m	n/a
370.8065	0.0595	741613	keystroke	u	n/a
370.911	0.121	741822	keystroke	s	n/a
371.032	0.075	742064	keystroke	i	n/a
371.1515	0.1055	742303	keystroke	c	n/a
371.3615	0.1195	742723	keystroke	a	n/a
371.497	0.1045	742994	keystroke	l	n/a
371.616	0.151	743232	keystroke	Key.space	n/a
371.917	0.0895	743834	keystroke	b	n/a
372.067	0.0895	744134	keystroke	u	n/a
372.1865	0.0755	744373	keystroke	d	n/a
372.4265	0.0605	744853	keystroke	g	n/a
372.576	0.1055	745152	keystroke	e	n/a
372.696	0.09	745392	keystroke	t	n/a
372.9515	0.12	745903	keystroke	Key.enter	n/a
373.0775	9.371	746155	prompt	n/a	holmes agreement hormone involved\n
373.7625	0.104	747525	keystroke	h	n/a
373.8965	0.105	747793	keystroke	o	n/a
375.5765	0.1805	751153	keystroke	l	n/a
375.877	0.105	751754	keystroke	m	n/a
376.0415	0.1055	752083	keystroke	e	n/a
376.192	0.135	752384	keystroke	s	n/a
376.282	0.164	752564	keystroke	Key.space	n/a
376.477	0.12	752954	keystroke	a	n/a
376.641	0.105	753282	keystroke	g	n/a
376.896	0.136	753792	keystroke	r	n/a
377.076	0.0905	754152	keystroke	e	n/a
377.257	0.075	754514	keystroke	e	n/a
377.451	0.106	754902	keystroke	m	n/a
377.572	0.104	755144	keystroke	e	n/a
377.6915	0.0905	755383	keystroke	n	n/a
377.8265	0.105	755653	keystroke	t	n/a
377.9165	0.1645	755833	keystroke	Key.space	n/a
378.111	0.135	756222	keystroke	h	n/a
378.2765	0.1195	756553	keystroke	o	n/a
378.381	0.121	756762	keystroke	r	n/a
378.517	0.12	757034	keystroke	m	n/a
378.651	0.1215	757302	keystroke	o	n/a
378.802	0.105	757604	keystroke	n	n/a
378.967	0.15	757934	keystroke	e	n/a
379.072	0.165	758144	keystroke	Key.space	n/a
379.252	0.12	758504	keystroke	i	n/a
379.357	0.105	758714	keystroke	n	n/a
379.507	0.135	759014	keystroke	v	n/a
379.656	0.09	759312	keystroke	o	n/a
379.867	0.09	759734	keystroke	l	n/a
380.961	0.121	761922	keystroke	v	n/a
381.201	0.076	762402	keystroke	e	n/a
381.4115	0.045	762823	keystroke	e	n/a
382.087	0.09	764174	keystroke	Key.backspace	n/a
382.1615	0.09	764323	keystroke	d	n/a
382.342	0.105	764684	keystroke	Key.enter	n/a
382.4525	7.811	764905	prompt	n/a	dramatically ross provide grad\n
383.3775	0.119	766755	keystroke	d	n/a
383.662	0.104	767324	keystroke	r	n/a
383.871	0.15	767742	keystroke	a	n/a
383.991	0.135	767982	keystroke	m	n/a
384.156	0.105	768312	keystroke	a	n/a
384.3215	0.0595	768643	keystroke	t	n/a
384.4415	0.1205	768883	keystroke	i	n/a
384.547	0.105	769094	keystroke	f	n/a
384.712	0.165	769424	keystroke	a	n/a
384.892	0.014	769784	keystroke	l	n/a
385.026	0.0905	770052	keystroke	l	n/a
385.281	0.045	770562	keystroke	Key.backspace	n/a
385.417	0.0745	770834	keystroke	Key.backspace	n/a
385.5515	0.09	771103	keystroke	Key.backspace	n/a
385.7015	0.0905	771403	keystroke	Key.backspace	n/a
385.866	0.0905	771732	keystroke	c	n/a
386.001	0.15	772002	keystroke	a	n/a
386.137	0.045	772274	keystroke	l	n/a
386.272	0.0895	772544	keystroke	l	n/a
386.4365	0.0905	772873	keystroke	y	n/a
386.677	0.1195	773354	keystroke	Key.space	n/a
387.1865	0.09	774373	keystroke	r	n/a
387.3365	0.105	774673	keystroke	o	n/a
387.5165	0.09	775033	keystroke	s	n/a
387.682	0.1345	775364	keystroke	s	n/a
387.7865	0.135	775573	keystroke	Key.space	n/a
387.9215	0.1205	775843	keystroke	p	n/a
388.057	0.09	776114	keystroke	r	n/a
388.1625	0.1195	776325	keystroke	o	n/a
388.327	0.104	776654	keystroke	v	n/a
388.597	0.104	777194	keystroke	i	n/a
388.687	0.074	777374	keystroke	d	n/a
388.882	0.09	777764	keystroke	e	n/a
389.016	0.18	778032	keystroke	Key.space	n/a
389.392	0.075	778784	keystroke	g	n/a
389.5425	0.089	779085	keystroke	r	n/a
389.7065	0.1205	779413	keystroke	a	n/a
389.9325	0.0745	779865	keystroke	d	n/a
390.1265	0.135	780253	keystroke	Key.enter	n/a
390.268	7.8855	780536	prompt	n/a	subsidiaries chinese was victims\n
390.907	0.105	781814	keystroke	s	n/a
391.027	0.105	782054	keystroke	u	n/a
391.477	0.105	782954	keystroke	b	n/a
391.761	0.1355	783522	keystroke	s	n/a
391.942	0.135	783884	keystroke	i	n/a
392.152	0.135	784304	keystroke	d	n/a
392.467	0.1205	784934	keystroke	i	n/a
392.7375	0.1345	785475	keystroke	a	n/a
392.886	0.076	785772	keystroke	r	n/a
392.991	0.136	785982	keystroke	i	n/a
393.1565	0.0905	786313	keystroke	e	n/a
393.3665	0.1205	786733	keystroke	s	n/a
393.457	0.135	786914	keystroke	Key.space	n/a
393.667	0.09	787334	keystroke	c	n/a
393.772	0.075	787544	keystroke	h	n/a
393.967	0.12	787934	keystroke	i	n/a
394.102	0.09	788204	keystroke	n	n/a
394.222	0.105	788444	keystroke	e	n/a
394.432	0.135	788864	keystroke	s	n/a
394.552	0.1505	789104	keystroke	e	n/a
394.672	0.15	789344	keystroke	Key.space	n/a
394.882	0.12	789764	keystroke	w	n/a
395.1065	0.1655	790213	keystroke	a	n/a
395.2575	0.1195	790515	keystroke	s	n/a
395.3615	0.1355	790723	keystroke	Key.space	n/a
395.527	0.1495	791054	keystroke	v	n/a
395.721	0.106	791442	keystroke	i	n/a
395.872	0.12	791744	keystroke	s	n/a
396.277	0.09	792554	keystroke	Key.backspace	n/a
396.382	0.105	792764	keystroke	c	n/a
396.667	0.06	793334	keystroke	t	n/a
396.7565	0.0905	793513	keystroke	i	n/a
396.9215	0.105	793843	keystroke	m	n/a
397.0865	0.0755	794173	keystroke	e	n/a
397.716	0.076	795432	keystroke	Key.backspace	n/a
397.8365	0.105	795673	keystroke	s	n/a
398.047	0.105	796094	keystroke	Key.enter	n/a
398.1575	6.161	796315	prompt	n/a	acrobat miller hazardous dependent\n
398.887	0.1645	797774	keystroke	a	n/a
399.067	0.0745	798134	keystroke	c	n/a
399.247	0.075	798494	keystroke	r	n/a
399.367	0.12	798734	keystroke	o	n/a
399.517	0.0895	799034	keystroke	b	n/a
399.7565	0.135	799513	keystroke	a	n/a
399.922	0.1345	799844	keystroke	t	n/a
400.042	0.1345	800084	keystroke	Key.space	n/a
400.1915	0.1955	800383	keystroke	m	n/a
400.3565	0.18	800713	keystroke	i	n/a
400.4915	0.0755	800983	keystroke	l	n/a
400.6565	0.165	801313	keystroke	l	n/a
400.7915	0.1655	801583	keystroke	e	n/a
400.9265	0.136	801853	keystroke	r	n/a
401.047	0.12	802094	keystroke	Key.space	n/a
401.1515	0.1505	802303	keystroke	h	n/a
401.317	0.15	802634	keystroke	a	n/a
401.572	0.105	803144	keystroke	z	n/a
401.827	0.105	803654	keystroke	a	n/a
401.962	0.09	803924	keystroke	r	n/a
402.187	0.105	804374	keystroke	d	n/a
402.3215	0.1805	804643	keystroke	o	n/a
402.472	0.1045	804944	keystroke	u	n/a
402.6065	0.105	805213	keystroke	s	n/a
402.682	0.1795	805364	keystroke	Key.space	n/a
402.8465	0.075	805693	keystroke	d	n/a
403.012	0.09	806024	keystroke	e	n/a
403.147	0.1045	806294	keystroke	p	n/a
403.2515	0.0905	806503	keystroke	e	n/a
403.4015	0.06	806803	keystroke	n	n/a
403.4765	0.09	806953	keystroke	d	n/a
403.6415	0.1055	807283	keystroke	e	n/a
403.777	0.12	807554	keystroke	n	n/a
403.9115	0.0755	807823	keystroke	t	n/a
404.226	0.09	808452	keystroke	Key.enter	n/a
404.324	4.7495	808648	prompt	n/a	mime worried generic poor\n
405.007	0.119	810014	keystroke	m	n/a
405.156	0.136	810312	keystroke	i	n/a
405.337	0.12	810674	keystroke	m	n/a
405.5165	0.1505	811033	keystroke	e	n/a
405.651	0.15	811302	keystroke	Key.space	n/a
405.847	0.1345	811694	keystroke	w	n/a
405.997	0.105	811994	keystroke	o	n/a
406.1165	0.0905	812233	keystroke	r	n/a
406.387	0.0145	812774	keystroke	r	n/a
406.417	0.0895	812834	keystroke	i	n/a
406.4915	0.106	812983	keystroke	e	n/a
406.7015	0.1205	813403	keystroke	d	n/a
406.792	0.179	813584	keystroke	Key.space	n/a
406.942	0.09	813884	keystroke	g	n/a
407.107	0.105	814214	keystroke	e	n/a
407.257	0.1345	814514	keystroke	n	n/a
407.3765	0.1655	814753	keystroke	e	n/a
407.497	0.1345	814994	keystroke	r	n/a
407.677	0.135	815354	keystroke	i	n/a
407.8875	0.105	815775	keystroke	c	n/a
408.022	0.164	816044	keystroke	Key.space	n/a
408.232	0.1195	816464	keystroke	p	n/a
408.337	0.09	816674	keystroke	o	n/a
408.517	0.0895	817034	keystroke	o	n/a
408.697	0.06	817394	keystroke	r	n/a
408.982	0.09	817964	keystroke	Key.enter	n/a
409.078	6.5955	818156	prompt	n/a	joseph intended animal described\n
409.897	0.12	819794	keystroke	j	n/a
410.047	0.12	820094	keystroke	o	n/a
410.152	0.12	820304	keystroke	s	n/a
410.377	0.12	820754	keystroke	e	n/a
410.572	0.105	821144	keystroke	p	n/a
410.722	0.09	821444	keystroke	h	n/a
411.0815	0.1195	822163	keystroke	Key.space	n/a
411.262	0.15	822524	keystroke	i	n/a
411.3815	0.105	822763	keystroke	n	n/a
411.592	0.09	823184	keystroke	t	n/a
411.772	0.0895	823544	keystroke	e	n/a
411.892	0.1645	823784	keystroke	n	n/a
412.0415	0.075	824083	keystroke	d	n/a
412.2215	0.0605	824443	keystroke	e	n/a
412.402	0.1345	824804	keystroke	d	n/a
412.5965	0.15	825193	keystroke	Key.space	n/a
412.7915	0.1505	825583	keystroke	a	n/a
412.897	0.09	825794	keystroke	n	n/a
413.077	0.09	826154	keystroke	i	n/a
413.272	0.0895	826544	keystroke	m	n/a
413.3915	0.15	826783	keystroke	a	n/a
413.5265	0.09	827053	keystroke	l	n/a
413.6765	0.195	827353	keystroke	Key.space	n/a
413.8115	0.105	827623	keystroke	d	n/a
414.037	0.09	828074	keystroke	e	n/a
414.2315	0.1355	828463	keystroke	s	n/a
414.487	0.09	828974	keystroke	c	n/a
414.697	0.074	829394	keystroke	r	n/a
414.817	0.1345	829634	keystroke	i	n/a
414.9665	0.0755	829933	keystroke	b	n/a
415.177	0.0745	830354	keystroke	e	n/a
415.387	0.0905	830774	keystroke	d	n/a
415.552	0.119	831104	keystroke	Key.enter	n/a
415.681	5.951	831362	prompt	n/a	fallen seconds recordings neon\n
416.3175	0.105	832635	keystroke	f	n/a
416.467	0.18	832934	keystroke	a	n/a
416.602	0.06	833204	keystroke	l	n/a
416.7365	0.135	833473	keystroke	l	n/a
416.8575	0.1045	833715	keystroke	e	n/a
417.0065	0.121	834013	keystroke	n	n/a
417.1725	0.089	834345	keystroke	Key.space	n/a
417.3525	0.119	834705	keystroke	s	n/a
417.487	0.135	834974	keystroke	e	n/a
417.7115	0.1055	835423	keystroke	c	n/a
417.8775	0.18	835755	keystroke	o	n/a
418.0265	0.1205	836053	keystroke	n	n/a
418.162	0.105	836324	keystroke	d	n/a
418.342	0.1645	836684	keystroke	s	n/a
418.4765	0.1655	836953	keystroke	Key.space	n/a
418.6115	0.1205	837223	keystroke	r	n/a
418.747	0.105	837494	keystroke	e	n/a
418.957	0.09	837914	keystroke	c	n/a
419.1065	0.091	838213	keystroke	o	n/a
419.2265	0.0755	838453	keystroke	r	n/a
419.4075	0.119	838815	keystroke	d	n/a
419.572	0.1205	839144	keystroke	i	n/a
419.707	0.1355	839414	keystroke	n	n/a
419.872	0.09	839744	keystroke	g	n/a
420.067	0.135	840134	keystroke	s	n/a
420.187	0.165	840374	keystroke	Key.space	n/a
420.3225	0.075	840645	keystroke	g	n/a
420.6815	0.06	841363	keystroke	Key.backspace	n/a
420.907	0.0755	841814	keystroke	n	n/a
420.9975	0.119	841995	keystroke	e	n/a
421.132	0.0895	842264	keystroke	o	n/a
421.3265	0.06	842653	keystroke	n	n/a
421.5515	0.075	843103	keystroke	Key.enter	n/a
421.635	7.1185	843270	prompt	n/a	calcium clusters fascinating earl\n
422.347	0.1505	844694	keystroke	c	n/a
422.6325	0.164	845265	keystroke	a	n/a
422.8565	0.1205	845713	keystroke	l	n/a
423.4565	0.1195	846913	keystroke	c	n/a
423.7415	0.195	847483	keystroke	i	n/a
423.9075	0.09	847815	keystroke	u	n/a
424.1325	0.0895	848265	keystroke	m	n/a
424.312	0.12	848624	keystroke	Key.space	n/a
424.4475	0.1195	848895	keystroke	c	n/a
424.612	0.1505	849224	keystroke	l	n/a
424.7925	0.09	849585	keystroke	u	n/a
424.972	0.1055	849944	keystroke	s	n/a
425.137	0.09	850274	keystroke	t	n/a
425.287	0.15	850574	keystroke	e	n/a
425.3925	0.1045	850785	keystroke	r	n/a
425.6015	0.1205	851203	keystroke	s	n/a
425.692	0.165	851384	keystroke	Key.space	n/a
425.842	0.1045	851684	keystroke	f	n/a
426.0075	0.164	852015	keystroke	a	n/a
426.247	0.12	852494	keystroke	s	n/a
426.547	0.1195	853094	keystroke	c	n/a
426.7265	0.1055	853453	keystroke	i	n/a
426.9215	0.1055	853843	keystroke	n	n/a
427.1025	0.1045	854205	keystroke	a	n/a
427.237	0.1055	854474	keystroke	t	n/a
427.387	0.15	854774	keystroke	i	n/a
427.507	0.1205	855014	keystroke	n	n/a
427.6275	0.1045	855255	keystroke	g	n/a
427.717	0.2245	855434	keystroke	Key.space	n/a
427.8675	0.105	855735	keystroke	e	n/a
428.047	0.1505	856094	keystroke	a	n/a
428.1665	0.105	856333	keystroke	r	n/a
428.3625	0.0745	856725	keystroke	l	n/a
428.647	0.105	857294	keystroke	Key.enter	n/a
428.7585	7.78	857517	prompt	n/a	baghdad internationally supervisors expo\n
429.6515	0.105	859303	keystroke	b	n/a
429.862	0.1655	859724	keystroke	a	n/a
430.207	0.104	860414	keystroke	g	n/a
430.447	0.135	860894	keystroke	h	n/a
430.6715	0.1055	861343	keystroke	d	n/a
430.8525	0.179	861705	keystroke	a	n/a
431.0165	0.12	862033	keystroke	d	n/a
431.1065	0.1505	862213	keystroke	Key.space	n/a
431.2715	0.1505	862543	keystroke	i	n/a
431.392	0.135	862784	keystroke	n	n/a
431.542	0.105	863084	keystroke	t	n/a
431.7525	0.104	863505	keystroke	e	n/a
431.7965	0.151	863593	keystroke	r	n/a
431.977	0.1195	863954	keystroke	n	n/a
432.1415	0.136	864283	keystroke	a	n/a
432.2915	0.105	864583	keystroke	t	n/a
432.472	0.1645	864944	keystroke	i	n/a
432.5925	0.195	865185	keystroke	o	n/a
432.742	0.1045	865484	keystroke	n	n/a
432.907	0.165	865814	keystroke	a	n/a
433.0115	0.075	866023	keystroke	l	n/a
433.1625	0.105	866325	keystroke	l	n/a
433.342	0.075	866684	keystroke	y	n/a
433.4765	0.2105	866953	keystroke	Key.space	n/a
433.6415	0.1205	867283	keystroke	s	n/a
433.7775	0.09	867555	keystroke	u	n/a
433.957	0.105	867914	keystroke	p	n/a
434.137	0.18	868274	keystroke	e	n/a
434.287	0.09	868574	keystroke	r	n/a
434.4965	0.121	868993	keystroke	v	n/a
434.6325	0.1035	869265	keystroke	i	n/a
434.7815	0.1655	869563	keystroke	s	n/a
434.947	0.104	869894	keystroke	o	n/a
435.0815	0.09	870163	keystroke	r	n/a
435.2625	0.1035	870525	keystroke	s	n/a
435.3365	0.1655	870673	keystroke	Key.space	n/a
435.4725	0.105	870945	keystroke	e	n/a
435.6665	0.12	871333	keystroke	x	n/a
435.8315	0.1205	871663	keystroke	p	n/a
435.967	0.1655	871934	keystroke	o	n/a
436.4015	0.135	872803	keystroke	Key.enter	n/a
436.543	10.406	873086	prompt	n/a	nominations environments study accent\n
437.302	0.165	874604	keystroke	m	n/a
437.452	0.15	874904	keystroke	o	n/a
437.6175	0.089	875235	keystroke	n	n/a
437.797	0.12	875594	keystroke	i	n/a
437.932	0.09	875864	keystroke	n	n/a
438.1265	0.1205	876253	keystroke	a	n/a
438.3215	0.0755	876643	keystroke	t	n/a
438.4575	0.1635	876915	keystroke	i	n/a
438.607	0.194	877214	keystroke	o	n/a
438.7875	0.0895	877575	keystroke	n	n/a
438.9225	0.1045	877845	keystroke	s	n/a
438.982	0.225	877964	keystroke	Key.space	n/a
439.1925	0.1045	878385	keystroke	e	n/a
439.402	0.105	878804	keystroke	v	n/a
439.821	0.076	879642	keystroke	Key.backspace	n/a
440.497	0.075	880994	keystroke	n	n/a
440.902	0.12	881804	keystroke	v	n/a
441.0975	0.1195	882195	keystroke	i	n/a
441.232	0.0895	882464	keystroke	r	n/a
441.3665	0.1505	882733	keystroke	o	n/a
441.502	0.0755	883004	keystroke	n	n/a
441.712	0.0745	883424	keystroke	m	n/a
441.8025	0.134	883605	keystroke	e	n/a
441.952	0.0905	883904	keystroke	n	n/a
442.0565	0.105	884113	keystroke	t	n/a
442.2665	0.12	884533	keystroke	s	n/a
442.357	0.179	884714	keystroke	Key.space	n/a
442.5215	0.1805	885043	keystroke	s	n/a
442.6575	0.1045	885315	keystroke	t	n/a
442.822	0.12	885644	keystroke	u	n/a
442.9575	0.0595	885915	keystroke	d	n/a
443.107	0.06	886214	keystroke	e	n/a
443.182	0.1055	886364	keystroke	y	n/a
443.332	0.18	886664	keystroke	Key.space	n/a
443.4965	0.1355	886993	keystroke	a	n/a
443.6925	0.0895	887385	keystroke	c	n/a
443.857	0.09	887714	keystroke	c	n/a
444.1115	0.075	888223	keystroke	Key.backspace	n/a
444.2615	0.09	888523	keystroke	Key.backspace	n/a
444.4265	0.06	888853	keystroke	Key.backspace	n/a
444.5915	0.045	889183	keystroke	Key.backspace	n/a
444.7265	0.06	889453	keystroke	Key.backspace	n/a
445.236	0.076	890472	keystroke	Key.backspace	n/a
445.4775	0.0595	890955	keystroke	y	n/a
445.792	0.15	891584	keystroke	Key.space	n/a
445.957	0.12	891914	keystroke	a	n/a
446.077	0.0595	892154	keystroke	c	n/a
446.227	0.0755	892454	keystroke	c	n/a
446.377	0.09	892754	keystroke	e	n/a
446.5125	0.089	893025	keystroke	n	n/a
446.647	0.075	893294	keystroke	t	n/a
446.8265	0.12	893653	keystroke	Key.enter	n/a
446.9525	5.711	893905	prompt	n/a	orchestra spell laws warned\n
447.5915	0.09	895183	keystroke	o	n/a
447.6665	0.105	895333	keystroke	r	n/a
447.9365	0.091	895873	keystroke	c	n/a
448.072	0.0905	896144	keystroke	h	n/a
448.222	0.1045	896444	keystroke	e	n/a
448.4025	0.1795	896805	keystroke	s	n/a
448.5365	0.121	897073	keystroke	t	n/a
448.7775	0.0895	897555	keystroke	r	n/a
448.957	0.1195	897914	keystroke	a	n/a
449.197	0.135	898394	keystroke	Key.space	n/a
449.377	0.12	898754	keystroke	s	n/a
449.542	0.12	899084	keystroke	p	n/a
449.677	0.12	899354	keystroke	e	n/a
449.857	0.075	899714	keystroke	l	n/a
450.022	0.09	900044	keystroke	l	n/a
450.127	0.1355	900254	keystroke	Key.space	n/a
450.3075	0.0885	900615	keystroke	l	n/a
450.412	0.12	900824	keystroke	a	n/a
450.6375	0.1045	901275	keystroke	w	n/a
450.862	0.1055	901724	keystroke	s	n/a
450.9675	0.135	901935	keystroke	Key.space	n/a
451.2215	0.106	902443	keystroke	w	n/a
451.6125	0.119	903225	keystroke	a	n/a
451.7475	0.119	903495	keystroke	r	n/a
451.9875	0.1045	903975	keystroke	n	n/a
452.1065	0.09	904213	keystroke	e	n/a
452.332	0.0755	904664	keystroke	d	n/a
452.5115	0.1505	905023	keystroke	Key.enter	n/a
452.6675	4.7815	905335	prompt	n/a	courts crash trek woman\n
453.3375	0.119	906675	keystroke	c	n/a
453.4865	0.1805	906973	keystroke	o	n/a
453.607	0.135	907214	keystroke	u	n/a
453.757	0.0905	907514	keystroke	r	n/a
453.9365	0.0755	907873	keystroke	t	n/a
454.1165	0.121	908233	keystroke	s	n/a
454.2065	0.1505	908413	keystroke	Key.space	n/a
454.387	0.1045	908774	keystroke	c	n/a
454.657	0.075	909314	keystroke	r	n/a
454.8375	0.1495	909675	keystroke	a	n/a
455.002	0.12	910004	keystroke	s	n/a
455.3765	0.106	910753	keystroke	h	n/a
455.632	0.105	911264	keystroke	Key.space	n/a
455.857	0.09	911714	keystroke	t	n/a
456.037	0.0895	912074	keystroke	r	n/a
456.1725	0.105	912345	keystroke	e	n/a
456.352	0.105	912704	keystroke	k	n/a
456.487	0.12	912974	keystroke	Key.space	n/a
456.622	0.135	913244	keystroke	w	n/a
456.712	0.165	913424	keystroke	o	n/a
456.862	0.12	913724	keystroke	m	n/a
457.012	0.135	914024	keystroke	a	n/a
457.132	0.075	914264	keystroke	n	n/a
457.342	0.105	914684	keystroke	Key.enter	n/a
457.454	5.77	914908	prompt	n/a	breath mobility knew brokers\n
458.092	0.1205	916184	keystroke	b	n/a
458.302	0.12	916604	keystroke	r	n/a
458.4375	0.135	916875	keystroke	e	n/a
458.5725	0.1495	917145	keystroke	a	n/a
458.7525	0.1045	917505	keystroke	t	n/a
458.9015	0.1205	917803	keystroke	h	n/a
459.007	0.135	918014	keystroke	Key.space	n/a
459.2475	0.1195	918495	keystroke	m	n/a
459.3965	0.106	918793	keystroke	o	n/a
459.8315	0.031	919663	keystroke	b	n/a
459.9525	0.149	919905	keystroke	i	n/a
460.1025	0.21	920205	keystroke	l	n/a
460.2675	0.135	920535	keystroke	i	n/a
460.4315	0.0905	920863	keystroke	t	n/a
460.597	0.09	921194	keystroke	y	n/a
460.7315	0.091	921463	keystroke	Key.space	n/a
460.927	0.135	921854	keystroke	k	n/a
461.0775	0.0895	922155	keystroke	n	n/a
461.2875	0.1195	922575	keystroke	e	n/a
461.482	0.1205	922964	keystroke	w	n/a
461.572	0.1795	923144	keystroke	Key.space	n/a
461.7375	0.09	923475	keystroke	b	n/a
461.962	0.045	923924	keystroke	r	n/a
462.1125	0.089	924225	keystroke	o	n/a
462.3065	0.106	924613	keystroke	k	n/a
462.4415	0.135	924883	keystroke	e	n/a
462.562	0.1045	925124	keystroke	r	n/a
462.802	0.1045	925604	keystroke	s	n/a
463.117	0.1045	926234	keystroke	Key.enter	n/a
463.228	8.2155	926456	prompt	n/a	biol toolkit fake realm\n
464.0015	0.0605	928003	keystroke	b	n/a
464.077	0.225	928154	keystroke	i	n/a
464.2715	0.1055	928543	keystroke	o	n/a
464.482	0.0905	928964	keystroke	l	n/a
464.722	0.15	929444	keystroke	Key.space	n/a
464.842	0.1195	929684	keystroke	t	n/a
464.9625	0.075	929925	keystroke	o	n/a
465.1125	0.1195	930225	keystroke	o	n/a
465.3515	0.09	930703	keystroke	k	n/a
465.742	0.0905	931484	keystroke	k	n/a
465.937	0.06	931874	keystroke	i	n/a
466.3125	0.0595	932625	keystroke	Key.backspace	n/a
466.447	0.075	932894	keystroke	Key.backspace	n/a
466.612	0.075	933224	keystroke	Key.backspace	n/a
466.867	0.075	933734	keystroke	l	n/a
467.092	0.0595	934184	keystroke	k	n/a
467.2875	0.0595	934575	keystroke	i	n/a
467.4525	0.0745	934905	keystroke	l	n/a
467.902	0.06	935804	keystroke	Key.backspace	n/a
468.0075	0.09	936015	keystroke	t	n/a
468.247	0.105	936494	keystroke	Key.space	n/a
468.652	0.045	937304	keystroke	t	n/a
468.982	0.06	937964	keystroke	Key.backspace	n/a
469.087	0.105	938174	keystroke	f	n/a
469.267	0.15	938534	keystroke	a	n/a
469.4025	0.0895	938805	keystroke	k	n/a
469.522	0.15	939044	keystroke	e	n/a
469.702	0.135	939404	keystroke	Key.space	n/a
469.867	0.165	939734	keystroke	r	n/a
470.017	0.1355	940034	keystroke	e	n/a
470.137	0.165	940274	keystroke	a	n/a
470.287	0.105	940574	keystroke	l	n/a
470.497	0.09	940994	keystroke	m	n/a
471.337	0.105	942674	keystroke	Key.enter	n/a
471.4485	6.49	942897	prompt	n/a	memphis credits rosa vice\n
472.1925	0.1205	944385	keystroke	m	n/a
472.2975	0.12	944595	keystroke	e	n/a
472.432	0.09	944864	keystroke	m	n/a
472.657	0.1055	945314	keystroke	p	n/a
472.807	0.09	945614	keystroke	h	n/a
473.032	0.1055	946064	keystroke	i	n/a
473.1965	0.136	946393	keystroke	s	n/a
473.302	0.1495	946604	keystroke	Key.space	n/a
473.4665	0.09	946933	keystroke	c	n/a
473.677	0.075	947354	keystroke	r	n/a
473.8275	0.1045	947655	keystroke	e	n/a
474.0525	0.105	948105	keystroke	d	n/a
474.1875	0.15	948375	keystroke	i	n/a
474.3225	0.0895	948645	keystroke	t	n/a
474.502	0.105	949004	keystroke	s	n/a
474.5775	0.1795	949155	keystroke	Key.space	n/a
474.728	0.104	949456	keystroke	r	n/a
474.862	0.135	949724	keystroke	o	n/a
475.042	0.165	950084	keystroke	s	n/a
475.2675	0.06	950535	keystroke	e	n/a
475.792	0.0895	951584	keystroke	Key.backspace	n/a
475.8975	0.105	951795	keystroke	a	n/a
476.4665	0.1205	952933	keystroke	Key.space	n/a
476.6025	0.09	953205	keystroke	r	n/a
476.9315	0.09	953863	keystroke	Key.backspace	n/a
477.0225	0.119	954045	keystroke	v	n/a
477.202	0.0745	954404	keystroke	i	n/a
477.3825	0.074	954765	keystroke	c	n/a
477.577	0.0605	955154	keystroke	e	n/a
477.8475	0.0895	955695	keystroke	Key.enter	n/a
477.9425	6.791	955885	prompt	n/a	presents howdy assistance tires\n
478.717	0.12	957434	keystroke	p	n/a
478.852	0.1205	957704	keystroke	r	n/a
478.957	0.1205	957914	keystroke	e	n/a
479.167	0.1505	958334	keystroke	s	n/a
479.272	0.15	958544	keystroke	e	n/a
479.452	0.105	958904	keystroke	n	n/a
479.572	0.0905	959144	keystroke	t	n/a
479.7675	0.12	959535	keystroke	s	n/a
479.8425	0.15	959685	keystroke	Key.space	n/a
480.0215	0.106	960043	keystroke	h	n/a
480.1425	0.12	960285	keystroke	o	n/a
480.2775	0.105	960555	keystroke	w	n/a
480.5175	0.09	961035	keystroke	d	n/a
480.877	0.075	961754	keystroke	Key.space	n/a
481.2525	0.0595	962505	keystroke	Key.backspace	n/a
481.4925	0.0445	962985	keystroke	y	n/a
481.717	0.1195	963434	keystroke	Key.space	n/a
481.8675	0.164	963735	keystroke	a	n/a
481.9865	0.1055	963973	keystroke	s	n/a
482.1815	0.1055	964363	keystroke	s	n/a
482.302	0.15	964604	keystroke	i	n/a
482.437	0.1055	964874	keystroke	s	n/a
482.647	0.09	965294	keystroke	t	n/a
482.8275	0.1495	965655	keystroke	a	n/a
482.947	0.12	965894	keystroke	n	n/a
483.112	0.09	966224	keystroke	c	n/a
483.307	0.09	966614	keystroke	e	n/a
483.4125	0.1345	966825	keystroke	Key.space	n/a
483.892	0.045	967784	keystroke	t	n/a
483.952	0.12	967904	keystroke	i	n/a
484.027	0.105	968054	keystroke	r	n/a
484.1925	0.1195	968385	keystroke	e	n/a
484.342	0.165	968684	keystroke	s	n/a
484.597	0.135	969194	keystroke	Key.enter	n/a
484.738	7.7805	969476	prompt	n/a	mercury norm 'tis stud\n
485.5425	0.15	971085	keystroke	m	n/a
485.6475	0.21	971295	keystroke	e	n/a
485.7975	0.09	971595	keystroke	r	n/a
486.0525	0.134	972105	keystroke	c	n/a
486.3065	0.106	972613	keystroke	u	n/a
486.457	0.1205	972914	keystroke	r	n/a
486.607	0.09	973214	keystroke	y	n/a
486.8165	0.075	973633	keystroke	Key.space	n/a
487.0265	0.09	974053	keystroke	m	n/a
487.4015	0.075	974803	keystroke	Key.backspace	n/a
487.6275	0.09	975255	keystroke	n	n/a
487.762	0.12	975524	keystroke	o	n/a
487.9115	0.0905	975823	keystroke	r	n/a
488.032	0.1055	976064	keystroke	m	n/a
488.6625	0.12	977325	keystroke	'	n/a
489.292	0.075	978584	keystroke	Key.backspace	n/a
489.5175	0.1045	979035	keystroke	Key.space	n/a
489.742	0.1055	979484	keystroke	'	n/a
490.237	0.105	980474	keystroke	t	n/a
490.4615	0.0905	980923	keystroke	i	n/a
491.392	0.105	982784	keystroke	s	n/a
491.6015	0.15	983203	keystroke	Key.space	n/a
491.7665	0.1655	983533	keystroke	s	n/a
491.902	0.09	983804	keystroke	t	n/a
492.037	0.15	984074	keystroke	u	n/a
492.142	0.12	984284	keystroke	d	n/a
492.412	0.105	984824	keystroke	Key.enter	n/a
492.521	6.373	985042	prompt	n/a	herald manual figured patent\n
493.312	0.1505	986624	keystroke	h	n/a
493.447	0.135	986894	keystroke	e	n/a
493.5375	0.134	987075	keystroke	r	n/a
493.7175	0.149	987435	keystroke	a	n/a
493.8515	0.136	987703	keystroke	l	n/a
494.0465	0.135	988093	keystroke	d	n/a
494.1965	0.1355	988393	keystroke	Key.space	n/a
494.347	0.1205	988694	keystroke	m	n/a
494.5125	0.1495	989025	keystroke	a	n/a
494.617	0.105	989234	keystroke	n	n/a
494.932	0.1055	989864	keystroke	u	n/a
495.0975	0.135	990195	keystroke	a	n/a
495.2475	0.12	990495	keystroke	l	n/a
495.5765	0.076	991153	keystroke	f	n/a
495.6375	0.15	991275	keystroke	Key.space	n/a
495.997	0.075	991994	keystroke	Key.backspace	n/a
496.177	0.06	992354	keystroke	Key.backspace	n/a
496.447	0.12	992894	keystroke	Key.space	n/a
496.642	0.09	993284	keystroke	f	n/a
496.8375	0.135	993675	keystroke	i	n/a
496.9875	0.105	993975	keystroke	g	n/a
497.1525	0.134	994305	keystroke	u	n/a
497.2725	0.105	994545	keystroke	r	n/a
497.4375	0.1055	994875	keystroke	e	n/a
497.6625	0.075	995325	keystroke	d	n/a
497.6925	0.165	995385	keystroke	Key.space	n/a
497.8575	0.1045	995715	keystroke	p	n/a
497.977	0.165	995954	keystroke	a	n/a
498.127	0.0905	996254	keystroke	t	n/a
498.277	0.075	996554	keystroke	e	n/a
498.3675	0.12	996735	keystroke	n	n/a
498.5775	0.06	997155	keystroke	t	n/a
