onset	duration	sample	value	key	prompt_text
12.124	15.5735	24248	prompt	n/a	the quick brown fox jumps over a lazy dog\n
16.5965	0.027	33193	keystroke	t	n/a
16.7135	0.075	33427	keystroke	h	n/a
17.1785	0.09	34357	keystroke	e	n/a
17.3885	0.075	34777	keystroke	Key.space	n/a
17.6135	0.09	35227	keystroke	q	n/a
17.7935	0.06	35587	keystroke	u	n/a
17.9885	0.03	35977	keystroke	i	n/a
18.1685	0.12	36337	keystroke	c	n/a
18.3635	0.165	36727	keystroke	k	n/a
18.5435	0.0905	37087	keystroke	Key.space	n/a
18.904	0.06	37808	keystroke	b	n/a
18.994	0.0895	37988	keystroke	r	n/a
19.1285	0.09	38257	keystroke	o	n/a
19.2335	0.09	38467	keystroke	a	n/a
19.3685	0.1505	38737	keystroke	n	n/a
19.504	0.105	39008	keystroke	Key.space	n/a
20.7035	0.045	41407	keystroke	Key.backspace	n/a
20.884	0.075	41768	keystroke	Key.backspace	n/a
21.094	0.075	42188	keystroke	Key.backspace	n/a
21.664	0.09	43328	keystroke	w	n/a
21.934	0.15	43868	keystroke	n	n/a
22.054	0.105	44108	keystroke	Key.space	n/a
22.264	0.09	44528	keystroke	f	n/a
22.369	0.06	44738	keystroke	o	n/a
22.684	0.09	45368	keystroke	x	n/a
22.819	0.075	45638	keystroke	Key.space	n/a
22.984	0.09	45968	keystroke	j	n/a
23.149	0.09	46298	keystroke	u	n/a
23.314	0.105	46628	keystroke	m	n/a
23.464	0.0895	46928	keystroke	p	n/a
23.5835	0.105	47167	keystroke	s	n/a
23.7185	0.075	47437	keystroke	Key.space	n/a
23.8535	0.09	47707	keystroke	o	n/a
23.9735	0.1055	47947	keystroke	v	n/a
24.1835	0.1205	48367	keystroke	e	n/a
24.274	0.12	48548	keystroke	r	n/a
24.4235	0.075	48847	keystroke	Key.space	n/a
24.7535	0.09	49507	keystroke	a	n/a
24.9035	0.105	49807	keystroke	Key.space	n/a
25.1735	0.09	50347	keystroke	l	n/a
25.2785	0.09	50557	keystroke	a	n/a
26.2245	0.105	52449	keystroke	z	n/a
26.4645	0.15	52929	keystroke	y	n/a
26.5385	0.151	53077	keystroke	Key.space	n/a
26.9585	0.091	53917	keystroke	d	n/a
27.0795	0.0895	54159	keystroke	o	n/a
27.2285	0.09	54457	keystroke	g	n/a
27.604	0.09	55208	keystroke	Key.enter	n/a
27.7045	10.071	55409	prompt	n/a	summary lindsay lodge gnome\n
28.7285	0.09	57457	keystroke	s	n/a
28.8935	0.06	57787	keystroke	u	n/a
29.0885	0.06	58177	keystroke	m	n/a
29.2235	0.09	58447	keystroke	m	n/a
29.2835	0.105	58567	keystroke	a	n/a
29.4635	0.12	58927	keystroke	r	n/a
29.6735	0.18	59347	keystroke	y	n/a
29.7785	0.165	59557	keystroke	Key.space	n/a
30.5445	0.074	61089	keystroke	l	n/a
30.7545	0.06	61509	keystroke	i	n/a
30.9195	0.09	61839	keystroke	n	n/a
31.2045	0.09	62409	keystroke	d	n/a
31.5495	0.09	63099	keystroke	s	n/a
31.7745	0.075	63549	keystroke	a	n/a
31.9245	0.135	63849	keystroke	y	n/a
32.0295	0.135	64059	keystroke	Key.space	n/a
34.506	0.001	69012	keystroke	l	n/a
34.684	0.06	69368	keystroke	o	n/a
34.909	0.105	69818	keystroke	d	n/a
35.149	0.075	70298	keystroke	g	n/a
35.314	0.075	70628	keystroke	e	n/a
35.704	0.075	71408	keystroke	Key.space	n/a
36.6495	0.105	73299	keystroke	g	n/a
36.8145	0.06	73629	keystroke	n	n/a
36.9795	0.075	73959	keystroke	o	n/a
37.1295	0.105	74259	keystroke	m	n/a
37.2795	0.105	74559	keystroke	e	n/a
37.6995	0.075	75399	keystroke	Key.enter	n/a
37.779	13.0395	75558	prompt	n/a	undertake clause courses regional\n
38.854	0.075	77708	keystroke	u	n/a
38.944	0.09	77888	keystroke	n	n/a
39.214	0.135	78428	keystroke	d	n/a
39.334	0.165	78668	keystroke	e	n/a
39.484	0.06	78968	keystroke	r	n/a
39.664	0.06	79328	keystroke	t	n/a
39.829	0.075	79658	keystroke	a	n/a
39.949	0.09	79898	keystroke	k	n/a
40.084	0.1045	80168	keystroke	e	n/a
40.2485	0.105	80497	keystroke	Key.space	n/a
41.0735	0.061	82147	keystroke	s	n/a
42.289	0.075	84578	keystroke	Key.backspace	n/a
42.694	0.09	85388	keystroke	c	n/a
42.844	0.075	85688	keystroke	l	n/a
43.324	0.06	86648	keystroke	u	n/a
44.6445	0.09	89289	keystroke	Key.backspace	n/a
44.9145	0.089	89829	keystroke	a	n/a
45.1685	0.06	90337	keystroke	u	n/a
45.3035	0.1055	90607	keystroke	s	n/a
45.514	0.09	91028	keystroke	e	n/a
45.664	0.105	91328	keystroke	Key.space	n/a
46.6685	0.12	93337	keystroke	c	n/a
46.8185	0.136	93637	keystroke	o	n/a
46.9235	0.121	93847	keystroke	u	n/a
47.1045	0.09	94209	keystroke	r	n/a
47.2695	0.15	94539	keystroke	s	n/a
47.4045	0.225	94809	keystroke	e	n/a
47.5995	0.09	95199	keystroke	s	n/a
47.8545	0.09	95709	keystroke	Key.space	n/a
48.5295	0.12	97059	keystroke	r	n/a
48.6045	0.12	97209	keystroke	e	n/a
48.8895	0.09	97779	keystroke	g	n/a
49.0835	0.075	98167	keystroke	i	n/a
49.264	0.06	98528	keystroke	o	n/a
49.429	0.09	98858	keystroke	n	n/a
49.549	0.03	99098	keystroke	a	n/a
49.8495	0.06	99699	keystroke	l	n/a
50.734	0.075	101468	keystroke	Key.enter	n/a
50.823	10.482	101646	prompt	n/a	macedonia cause todd autos\n
51.8145	0.075	103629	keystroke	m	n/a
51.9045	0.09	103809	keystroke	a	n/a
52.339	0.1045	104678	keystroke	c	n/a
52.4885	0.09	104977	keystroke	e	n/a
52.9085	0.045	105817	keystroke	o	n/a
53.0295	0.12	106059	keystroke	d	n/a
53.509	0.06	107018	keystroke	Key.backspace	n/a
53.824	0.09	107648	keystroke	d	n/a
54.1245	0.06	108249	keystroke	Key.backspace	n/a
54.3045	0.075	108609	keystroke	Key.backspace	n/a
54.5295	0.09	109059	keystroke	d	n/a
54.7395	0.075	109479	keystroke	o	n/a
55.0835	0.075	110167	keystroke	n	n/a
55.2785	0.075	110557	keystroke	i	n/a
55.4135	0.09	110827	keystroke	a	n/a
55.6235	0.09	111247	keystroke	Key.space	n/a
56.269	0.06	112538	keystroke	c	n/a
56.479	0.09	112958	keystroke	a	n/a
56.629	0.075	113258	keystroke	u	n/a
56.719	0.09	113438	keystroke	s	n/a
57.124	0.075	114248	keystroke	e	n/a
57.319	0.09	114638	keystroke	Key.space	n/a
57.514	0.075	115028	keystroke	t	n/a
57.694	0.06	115388	keystroke	o	n/a
57.904	0.075	115808	keystroke	l	n/a
58.3545	0.075	116709	keystroke	Key.backspace	n/a
58.8495	0.06	117699	keystroke	d	n/a
59.0135	0.09	118027	keystroke	d	n/a
59.2395	0.074	118479	keystroke	Key.space	n/a
59.5685	0.076	119137	keystroke	a	n/a
60.2745	0.105	120549	keystroke	u	n/a
60.4245	0.104	120849	keystroke	t	n/a
60.5885	0.075	121177	keystroke	o	n/a
60.7835	0.075	121567	keystroke	s	n/a
61.2035	0.09	122407	keystroke	Key.enter	n/a
61.311	9.8935	122622	prompt	n/a	metres browser they'd lamb\n
62.344	0.0755	124688	keystroke	m	n/a
62.4795	0.06	124959	keystroke	e	n/a
62.7045	0.075	125409	keystroke	t	n/a
62.8395	0.1495	125679	keystroke	e	n/a
62.944	0.135	125888	keystroke	r	n/a
63.739	0.09	127478	keystroke	Key.backspace	n/a
64.054	0.0905	128108	keystroke	Key.backspace	n/a
64.2945	0.1195	128589	keystroke	r	n/a
64.3545	0.1645	128709	keystroke	e	n/a
64.789	0.105	129578	keystroke	s	n/a
65.224	0.09	130448	keystroke	Key.space	n/a
65.8685	0.06	131737	keystroke	b	n/a
65.9735	0.075	131947	keystroke	r	n/a
66.1235	0.09	132247	keystroke	o	n/a
66.2735	0.09	132547	keystroke	w	n/a
66.6335	0.09	133267	keystroke	s	n/a
66.844	0.075	133688	keystroke	e	n/a
67.054	0.075	134108	keystroke	r	n/a
67.549	0.075	135098	keystroke	Key.space	n/a
67.894	0.06	135788	keystroke	t	n/a
67.984	0.09	135968	keystroke	h	n/a
68.1035	0.105	136207	keystroke	e	n/a
68.2385	0.09	136477	keystroke	y	n/a
68.854	0.06	137708	keystroke	'	n/a
68.959	0.105	137918	keystroke	d	n/a
69.244	0.12	138488	keystroke	Key.space	n/a
69.964	0.09	139928	keystroke	l	n/a
70.114	0.075	140228	keystroke	a	n/a
70.234	0.1045	140468	keystroke	m	n/a
70.6985	0.06	141397	keystroke	b	n/a
71.119	0.0745	142238	keystroke	Key.enter	n/a
71.21	13.0285	142420	prompt	n/a	recipients cleared specifically saddam\n
72.2735	0.12	144547	keystroke	r	n/a
72.3185	0.135	144637	keystroke	e	n/a
72.6335	0.105	145267	keystroke	c	n/a
72.8885	0.06	145777	keystroke	i	n/a
73.114	0.075	146228	keystroke	p	n/a
73.354	0.075	146708	keystroke	i	n/a
73.489	0.09	146978	keystroke	e	n/a
73.7285	0.09	147457	keystroke	n	n/a
73.9385	0.075	147877	keystroke	t	n/a
74.1035	0.06	148207	keystroke	e	n/a
74.5835	0.09	149167	keystroke	Key.backspace	n/a
74.7335	0.075	149467	keystroke	s	n/a
74.989	0.075	149978	keystroke	Key.space	n/a
75.6035	0.09	151207	keystroke	c	n/a
75.8295	0.09	151659	keystroke	l	n/a
75.9495	0.059	151899	keystroke	e	n/a
76.144	0.105	152288	keystroke	a	n/a
76.249	0.105	152498	keystroke	r	n/a
76.489	0.1645	152978	keystroke	e	n/a
76.639	0.1495	153278	keystroke	d	n/a
77.0585	0.105	154117	keystroke	Key.space	n/a
77.2385	0.105	154477	keystroke	s	n/a
77.3885	0.09	154777	keystroke	p	n/a
77.5235	0.09	155047	keystroke	e	n/a
77.8535	0.105	155707	keystroke	c	n/a
78.019	0.09	156038	keystroke	i	n/a
78.199	0.105	156398	keystroke	f	n/a
78.349	0.075	156698	keystroke	i	n/a
78.589	0.075	157178	keystroke	c	n/a
78.874	0.06	157748	keystroke	a	n/a
78.994	0.075	157988	keystroke	l	n/a
79.159	0.075	158318	keystroke	l	n/a
79.534	0.195	159068	keystroke	y	n/a
79.639	0.195	159278	keystroke	Key.space	n/a
80.149	0.015	160298	keystroke	r	n/a
80.494	0.09	160988	keystroke	Key.backspace	n/a
80.659	0.165	161318	keystroke	s	n/a
80.839	0.12	161678	keystroke	a	n/a
81.589	0.06	163178	keystroke	f	n/a
82.7595	0.075	165519	keystroke	Key.backspace	n/a
83.0295	0.075	166059	keystroke	d	n/a
83.224	0.06	166448	keystroke	d	n/a
83.389	0.09	166778	keystroke	a	n/a
83.659	0.075	167318	keystroke	m	n/a
84.1835	0.045	168367	keystroke	Key.enter	n/a
84.244	9.0845	168488	prompt	n/a	yarn hurricane tions imagine\n
85.534	0.075	171068	keystroke	y	n/a
85.624	0.075	171248	keystroke	a	n/a
85.819	0.09	171638	keystroke	r	n/a
85.954	0.18	171908	keystroke	m	n/a
86.089	0.105	172178	keystroke	Key.space	n/a
86.524	0.045	173048	keystroke	Key.backspace	n/a
86.9585	0.075	173917	keystroke	Key.backspace	n/a
87.544	0.1645	175088	keystroke	n	n/a
87.6785	0.105	175357	keystroke	Key.space	n/a
87.8735	0.06	175747	keystroke	h	n/a
88.0685	0.0755	176137	keystroke	u	n/a
88.369	0.045	176738	keystroke	r	n/a
88.504	0.075	177008	keystroke	r	n/a
88.654	0.075	177308	keystroke	i	n/a
88.774	0.135	177548	keystroke	c	n/a
88.9385	0.09	177877	keystroke	a	n/a
89.089	0.075	178178	keystroke	n	n/a
89.179	0.105	178358	keystroke	e	n/a
89.344	0.105	178688	keystroke	Key.space	n/a
90.1085	0.075	180217	keystroke	t	n/a
90.2435	0.061	180487	keystroke	i	n/a
90.424	0.075	180848	keystroke	o	n/a
90.619	0.105	181238	keystroke	n	n/a
90.754	0.105	181508	keystroke	s	n/a
90.904	0.09	181808	keystroke	Key.space	n/a
91.459	0.06	182918	keystroke	i	n/a
91.669	0.075	183338	keystroke	m	n/a
91.819	0.0745	183638	keystroke	a	n/a
92.1045	0.075	184209	keystroke	g	n/a
92.3895	0.089	184779	keystroke	a	n/a
92.5535	0.061	185107	keystroke	i	n/a
92.7045	0.09	185409	keystroke	n	n/a
92.8245	0.09	185649	keystroke	e	n/a
93.2285	0.09	186457	keystroke	Key.enter	n/a
93.3375	11.3525	186675	prompt	n/a	view bidder organizing webmasters\n
94.6845	0.089	189369	keystroke	v	n/a
95.419	0.06	190838	keystroke	i	n/a
95.539	0.195	191078	keystroke	e	n/a
95.674	0.0745	191348	keystroke	w	n/a
95.8835	0.0755	191767	keystroke	Key.space	n/a
96.664	0.075	193328	keystroke	b	n/a
96.844	0.09	193688	keystroke	i	n/a
96.964	0.075	193928	keystroke	d	n/a
97.144	0.09	194288	keystroke	d	n/a
97.189	0.165	194378	keystroke	e	n/a
97.369	0.09	194738	keystroke	r	n/a
97.489	0.075	194978	keystroke	Key.space	n/a
97.684	0.06	195368	keystroke	o	n/a
97.804	0.075	195608	keystroke	r	n/a
98.029	0.0755	196058	keystroke	d	n/a
98.4195	0.074	196839	keystroke	Key.backspace	n/a
98.5385	0.09	197077	keystroke	g	n/a
98.7645	0.074	197529	keystroke	a	n/a
98.9885	0.076	197977	keystroke	n	n/a
99.3635	0.06	198727	keystroke	i	n/a
100.3535	0.075	200707	keystroke	z	n/a
100.4885	0.075	200977	keystroke	i	n/a
100.6685	0.09	201337	keystroke	n	n/a
100.8035	0.105	201607	keystroke	g	n/a
100.9385	0.075	201877	keystroke	Key.space	n/a
101.3285	0.15	202657	keystroke	w	n/a
101.4635	0.12	202927	keystroke	e	n/a
101.7035	0.075	203407	keystroke	b	n/a
101.9735	0.075	203947	keystroke	m	n/a
102.0785	0.1355	204157	keystroke	a	n/a
102.154	0.135	204308	keystroke	s	n/a
102.469	0.045	204938	keystroke	t	n/a
102.6935	0.12	205387	keystroke	e	n/a
102.7985	0.12	205597	keystroke	r	n/a
103.1285	0.105	206257	keystroke	s	n/a
104.5985	0.09	209197	keystroke	Key.enter	n/a
104.693	10.446	209386	prompt	n/a	took artist barriers beads\n
105.6785	0.075	211357	keystroke	t	n/a
106.0085	0.06	212017	keystroke	o	n/a
106.174	0.165	212348	keystroke	k	n/a
106.354	0.105	212708	keystroke	Key.space	n/a
107.1635	0.075	214327	keystroke	Key.backspace	n/a
107.3435	0.09	214687	keystroke	Key.backspace	n/a
107.974	0.074	215948	keystroke	o	n/a
108.169	0.165	216338	keystroke	k	n/a
108.319	0.12	216638	keystroke	Key.space	n/a
108.604	0.105	217208	keystroke	a	n/a
109.204	0.075	218408	keystroke	r	n/a
109.3985	0.075	218797	keystroke	t	n/a
109.5945	0.09	219189	keystroke	i	n/a
109.8045	0.089	219609	keystroke	s	n/a
110.059	0.075	220118	keystroke	t	n/a
111.0185	0.105	222037	keystroke	Key.space	n/a
111.3035	0.075	222607	keystroke	a	n/a
111.6185	0.09	223237	keystroke	Key.backspace	n/a
111.9485	0.075	223897	keystroke	b	n/a
112.0385	0.0605	224077	keystroke	a	n/a
112.219	0.09	224438	keystroke	r	n/a
112.399	0.0745	224798	keystroke	r	n/a
112.5035	0.0755	225007	keystroke	i	n/a
112.609	0.09	225218	keystroke	e	n/a
112.8035	0.12	225607	keystroke	r	n/a
113.2995	0.104	226599	keystroke	s	n/a
113.509	0.075	227018	keystroke	Key.space	n/a
113.794	0.09	227588	keystroke	b	n/a
113.885	0.074	227770	keystroke	e	n/a
114.064	0.0895	228128	keystroke	a	n/a
114.5885	0.105	229177	keystroke	d	n/a
114.7685	0.0905	229537	keystroke	s	n/a
115.069	0.06	230138	keystroke	Key.enter	n/a
115.1435	11.3645	230287	prompt	n/a	input deputy mozambique bases\n
116.029	0.09	232058	keystroke	i	n/a
116.224	0.075	232448	keystroke	n	n/a
116.419	0.075	232838	keystroke	p	n/a
116.584	0.075	233168	keystroke	u	n/a
116.718	0.091	233436	keystroke	t	n/a
116.854	0.075	233708	keystroke	Key.space	n/a
117.079	0.0745	234158	keystroke	b	n/a
117.1385	0.09	234277	keystroke	e	n/a
117.2885	0.165	234577	keystroke	a	n/a
117.4385	0.135	234877	keystroke	d	n/a
118.2635	0.09	236527	keystroke	Key.backspace	n/a
118.5635	0.075	237127	keystroke	Key.backspace	n/a
118.7885	0.06	237577	keystroke	Key.backspace	n/a
119.014	0.06	238028	keystroke	Key.backspace	n/a
119.479	0.09	238958	keystroke	d	n/a
119.809	0.09	239618	keystroke	e	n/a
120.064	0.09	240128	keystroke	p	n/a
120.319	0.075	240638	keystroke	u	n/a
120.454	0.1195	240908	keystroke	t	n/a
120.6185	0.18	241237	keystroke	y	n/a
120.7535	0.15	241507	keystroke	Key.space	n/a
121.4135	0.075	242827	keystroke	m	n/a
121.639	0.075	243278	keystroke	o	n/a
122.1485	0.06	244297	keystroke	z	n/a
122.3435	0.075	244687	keystroke	a	n/a
122.5235	0.075	245047	keystroke	m	n/a
123.1535	0.06	246307	keystroke	b	n/a
123.3335	0.09	246667	keystroke	i	n/a
123.7085	0.075	247417	keystroke	q	n/a
123.8735	0.09	247747	keystroke	u	n/a
124.0385	0.075	248077	keystroke	e	n/a
124.2635	0.075	248527	keystroke	Key.space	n/a
124.968	0.076	249936	keystroke	b	n/a
125.088	0.151	250176	keystroke	a	n/a
125.208	0.135	250416	keystroke	s	n/a
125.463	0.09	250926	keystroke	e	n/a
125.704	0.0595	251408	keystroke	s	n/a
126.4235	0.075	252847	keystroke	Key.enter	n/a
126.512	5.8535	253024	prompt	n/a	false arms mineral assure\n
127.6385	0.075	255277	keystroke	f	n/a
127.8035	0.105	255607	keystroke	a	n/a
127.9385	0.09	255877	keystroke	l	n/a
128.1035	0.0605	256207	keystroke	s	n/a
128.299	0.06	256598	keystroke	e	n/a
128.464	0.075	256928	keystroke	Key.space	n/a
128.614	0.105	257228	keystroke	a	n/a
128.809	0.105	257618	keystroke	r	n/a
128.974	0.075	257948	keystroke	m	n/a
129.184	0.09	258368	keystroke	s	n/a
129.574	0.06	259148	keystroke	Key.space	n/a
129.739	0.0895	259478	keystroke	m	n/a
129.9035	0.075	259807	keystroke	i	n/a
130.0385	0.0895	260077	keystroke	n	n/a
130.263	0.105	260526	keystroke	e	n/a
130.443	0.091	260886	keystroke	r	n/a
130.6695	0.074	261339	keystroke	a	n/a
130.7885	0.1805	261577	keystroke	l	n/a
130.954	0.12	261908	keystroke	Key.space	n/a
131.209	0.075	262418	keystroke	a	n/a
131.404	0.09	262808	keystroke	s	n/a
131.584	0.09	263168	keystroke	s	n/a
131.719	0.075	263438	keystroke	u	n/a
131.854	0.12	263708	keystroke	r	n/a
131.914	0.12	263828	keystroke	e	n/a
132.274	0.09	264548	keystroke	Key.enter	n/a
132.369	11.8105	264738	prompt	n/a	uncle reservoir porter window\n
137.3465	0.012	274693	keystroke	u	n/a
137.4635	0.075	274927	keystroke	n	n/a
137.6435	0.09	275287	keystroke	c	n/a
137.7945	0.074	275589	keystroke	l	n/a
138.1385	0.09	276277	keystroke	e	n/a
138.3335	0.075	276667	keystroke	Key.space	n/a
138.6935	0.105	277387	keystroke	r	n/a
138.7685	0.12	277537	keystroke	e	n/a
139.0235	0.075	278047	keystroke	s	n/a
139.234	0.075	278468	keystroke	e	n/a
139.384	0.09	278768	keystroke	r	n/a
140.1785	0.076	280357	keystroke	v	n/a
140.3745	0.1045	280749	keystroke	o	n/a
140.434	0.135	280868	keystroke	i	n/a
140.689	0.09	281378	keystroke	r	n/a
140.884	0.105	281768	keystroke	Key.space	n/a
141.319	0.105	282638	keystroke	p	n/a
141.574	0.09	283148	keystroke	o	n/a
141.874	0.06	283748	keystroke	r	n/a
142.069	0.0745	284138	keystroke	t	n/a
142.2035	0.165	284407	keystroke	e	n/a
142.3235	0.135	284647	keystroke	r	n/a
142.5785	0.075	285157	keystroke	Key.space	n/a
142.8335	0.075	285667	keystroke	w	n/a
142.9235	0.075	285847	keystroke	i	n/a
143.1635	0.0905	286327	keystroke	n	n/a
143.374	0.105	286748	keystroke	d	n/a
143.554	0.075	287108	keystroke	o	n/a
143.659	0.0895	287318	keystroke	w	n/a
144.0785	0.0905	288157	keystroke	Key.enter	n/a
144.1855	11.873	288371	prompt	n/a	shadows breeding nervous exec\n
145.0395	0.09	290079	keystroke	s	n/a
145.2195	0.075	290439	keystroke	h	n/a
145.3245	0.105	290649	keystroke	a	n/a
145.6245	0.0745	291249	keystroke	d	n/a
145.759	0.105	291518	keystroke	o	n/a
145.879	0.075	291758	keystroke	w	n/a
146.089	0.075	292178	keystroke	s	n/a
146.254	0.105	292508	keystroke	Key.space	n/a
146.734	0.045	293468	keystroke	b	n/a
146.794	0.09	293588	keystroke	r	n/a
146.854	0.105	293708	keystroke	e	n/a
147.064	0.075	294128	keystroke	e	n/a
147.394	0.105	294788	keystroke	d	n/a
147.604	0.06	295208	keystroke	i	n/a
147.754	0.09	295508	keystroke	n	n/a
147.814	0.12	295628	keystroke	g	n/a
148.009	0.09	296018	keystroke	Key.space	n/a
148.384	0.09	296768	keystroke	n	n/a
148.534	0.12	297068	keystroke	e	n/a
148.609	0.105	297218	keystroke	r	n/a
148.954	0.09	297908	keystroke	v	n/a
149.104	0.135	298208	keystroke	o	n/a
149.194	0.12	298388	keystroke	u	n/a
149.404	0.105	298808	keystroke	s	n/a
149.599	0.0895	299198	keystroke	Key.space	n/a
149.7785	0.075	299557	keystroke	e	n/a
150.349	0.09	300698	keystroke	c	n/a
150.634	0.075	301268	keystroke	e	n/a
152.029	0.075	304058	keystroke	Key.backspace	n/a
152.404	0.059	304808	keystroke	Key.backspace	n/a
153.064	0.075	306128	keystroke	v	n/a
153.514	0.075	307028	keystroke	Key.backspace	n/a
153.814	0.09	307628	keystroke	x	n/a
154.114	0.075	308228	keystroke	e	n/a
154.9085	0.045	309817	keystroke	c	n/a
155.9885	0.06	311977	keystroke	Key.enter	n/a
156.0635	13.074	312127	prompt	n/a	invited philippines ringtones sudden\n
157.144	0.075	314288	keystroke	i	n/a
157.324	0.09	314648	keystroke	n	n/a
157.654	0.06	315308	keystroke	v	n/a
157.819	0.075	315638	keystroke	i	n/a
158.494	0.09	316988	keystroke	t	n/a
158.629	0.12	317258	keystroke	e	n/a
159.004	0.105	318008	keystroke	d	n/a
159.184	0.12	318368	keystroke	Key.space	n/a
159.694	0.075	319388	keystroke	p	n/a
159.979	0.06	319958	keystroke	h	n/a
160.564	0.06	321128	keystroke	i	n/a
160.8335	0.075	321667	keystroke	l	n/a
160.9985	0.075	321997	keystroke	l	n/a
161.254	0.06	322508	keystroke	i	n/a
161.629	0.075	323258	keystroke	p	n/a
163.549	0.075	327098	keystroke	p	n/a
163.849	0.075	327698	keystroke	i	n/a
164.029	0.1055	328058	keystroke	n	n/a
164.1785	0.075	328357	keystroke	e	n/a
164.4185	0.075	328837	keystroke	s	n/a
164.6285	0.105	329257	keystroke	Key.space	n/a
165.2285	0.09	330457	keystroke	r	n/a
165.3635	0.06	330727	keystroke	i	n/a
165.5285	0.075	331057	keystroke	n	n/a
165.6185	0.075	331237	keystroke	g	n/a
165.9185	0.105	331837	keystroke	t	n/a
166.0385	0.0905	332077	keystroke	o	n/a
166.249	0.09	332498	keystroke	n	n/a
166.353	0.076	332706	keystroke	e	n/a
166.594	0.075	333188	keystroke	s	n/a
166.788	0.076	333576	keystroke	Key.space	n/a
167.1185	0.09	334237	keystroke	s	n/a
167.3135	0.06	334627	keystroke	u	n/a
167.6285	0.105	335257	keystroke	d	n/a
167.8235	0.09	335647	keystroke	d	n/a
167.899	0.1195	335798	keystroke	e	n/a
168.439	0.06	336878	keystroke	n	n/a
168.9785	0.15	337957	keystroke	Key.enter	n/a
169.142	10.9915	338284	prompt	n/a	gibraltar carpet passwords mining\n
171.351	0.027	342702	keystroke	g	n/a
171.528	0.09	343056	keystroke	i	n/a
171.873	0.06	343746	keystroke	b	n/a
171.978	0.091	343956	keystroke	r	n/a
172.144	0.105	344288	keystroke	a	n/a
172.429	0.09	344858	keystroke	l	n/a
172.6085	0.0755	345217	keystroke	t	n/a
173.164	0.09	346328	keystroke	a	n/a
173.4485	0.09	346897	keystroke	r	n/a
174.213	0.12	348426	keystroke	Key.space	n/a
175.0235	0.1055	350047	keystroke	c	n/a
175.564	0.09	351128	keystroke	a	n/a
175.759	0.09	351518	keystroke	r	n/a
176.014	0.06	352028	keystroke	p	n/a
176.1785	0.075	352357	keystroke	e	n/a
176.3885	0.075	352777	keystroke	t	n/a
176.5085	0.105	353017	keystroke	Key.space	n/a
176.9585	0.06	353917	keystroke	p	n/a
177.0335	0.09	354067	keystroke	a	n/a
177.2435	0.075	354487	keystroke	s	n/a
177.4085	0.0755	354817	keystroke	s	n/a
177.589	0.06	355178	keystroke	w	n/a
177.724	0.075	355448	keystroke	o	n/a
177.8735	0.075	355747	keystroke	r	n/a
178.0835	0.105	356167	keystroke	d	n/a
178.2485	0.12	356497	keystroke	s	n/a
178.5035	0.0895	357007	keystroke	Key.space	n/a
179.1335	0.12	358267	keystroke	m	n/a
179.2685	0.015	358537	keystroke	i	n/a
179.3585	0.075	358717	keystroke	n	n/a
179.5085	0.06	359017	keystroke	i	n/a
179.6585	0.075	359317	keystroke	n	n/a
179.7785	0.105	359557	keystroke	g	n/a
180.1085	0.015	360217	keystroke	Key.enter	n/a
180.1385	8.6565	360277	prompt	n/a	lady poison partition mother\n
181.4585	0.075	362917	keystroke	l	n/a
181.609	0.09	363218	keystroke	a	n/a
181.804	0.09	363608	keystroke	d	n/a
182.193	0.136	364386	keystroke	y	n/a
182.298	0.12	364596	keystroke	Key.space	n/a
182.583	0.12	365166	keystroke	p	n/a
182.658	0.136	365316	keystroke	o	n/a
182.899	0.0745	365798	keystroke	i	n/a
183.0785	0.09	366157	keystroke	s	n/a
183.2285	0.075	366457	keystroke	i	n/a
183.8285	0.09	367657	keystroke	Key.backspace	n/a
184.1435	0.09	368287	keystroke	o	n/a
184.414	0.105	368828	keystroke	n	n/a
184.669	0.09	369338	keystroke	Key.space	n/a
185.149	0.09	370298	keystroke	p	n/a
185.284	0.075	370568	keystroke	a	n/a
185.539	0.03	371078	keystroke	r	n/a
186.1985	0.045	372397	keystroke	t	n/a
186.3935	0.075	372787	keystroke	i	n/a
186.7085	0.075	373417	keystroke	t	n/a
186.8585	0.06	373717	keystroke	i	n/a
187.0235	0.06	374047	keystroke	o	n/a
187.2185	0.15	374437	keystroke	n	n/a
187.3535	0.105	374707	keystroke	Key.space	n/a
187.6985	0.075	375397	keystroke	m	n/a
187.8635	0.09	375727	keystroke	o	n/a
188.0885	0.0755	376177	keystroke	t	n/a
188.209	0.06	376418	keystroke	h	n/a
188.284	0.1495	376568	keystroke	e	n/a
188.404	0.15	376808	keystroke	r	n/a
188.719	0.075	377438	keystroke	Key.enter	n/a
188.798	8.8025	377596	prompt	n/a	screw plate logistics christian\n
189.754	0.0595	379508	keystroke	s	n/a
190.0235	0.105	380047	keystroke	c	n/a
190.2635	0.1205	380527	keystroke	r	n/a
190.369	0.105	380738	keystroke	e	n/a
190.654	0.105	381308	keystroke	w	n/a
191.119	0.075	382238	keystroke	Key.space	n/a
191.329	0.09	382658	keystroke	p	n/a
191.479	0.075	382958	keystroke	a	n/a
191.809	0.06	383618	keystroke	Key.backspace	n/a
192.0335	0.1045	384067	keystroke	l	n/a
192.198	0.09	384396	keystroke	a	n/a
192.453	0.075	384906	keystroke	t	n/a
192.678	0.12	385356	keystroke	e	n/a
192.9635	0.1195	385927	keystroke	Key.space	n/a
193.293	0.075	386586	keystroke	l	n/a
193.488	0.075	386976	keystroke	o	n/a
193.8785	0.09	387757	keystroke	g	n/a
194.0435	0.075	388087	keystroke	i	n/a
194.2235	0.075	388447	keystroke	s	n/a
194.4485	0.075	388897	keystroke	t	n/a
194.5835	0.0755	389167	keystroke	i	n/a
194.779	0.075	389558	keystroke	c	n/a
195.0185	0.09	390037	keystroke	s	n/a
195.244	0.089	390488	keystroke	Key.space	n/a
195.814	0.015	391628	keystroke	c	n/a
195.858	0.061	391716	keystroke	h	n/a
195.978	0.105	391956	keystroke	r	n/a
196.143	0.09	392286	keystroke	i	n/a
196.323	0.06	392646	keystroke	s	n/a
196.518	0.06	393036	keystroke	t	n/a
196.6235	0.09	393247	keystroke	i	n/a
196.8035	0.075	393607	keystroke	a	n/a
196.9385	0.15	393877	keystroke	n	n/a
197.0735	0.135	394147	keystroke	Key.space	n/a
197.4935	0.105	394987	keystroke	Key.enter	n/a
197.6035	11.3595	395207	prompt	n/a	induction died declared growing\n
198.483	0.075	396966	keystroke	i	n/a
198.648	0.105	397296	keystroke	n	n/a
198.889	0.0895	397778	keystroke	d	n/a
199.024	0.09	398048	keystroke	u	n/a
199.159	0.09	398318	keystroke	c	n/a
199.384	0.089	398768	keystroke	t	n/a
199.504	0.075	399008	keystroke	i	n/a
199.684	0.06	399368	keystroke	o	n/a
199.864	0.164	399728	keystroke	n	n/a
200.0135	0.1195	400027	keystroke	Key.space	n/a
200.209	0.104	400418	keystroke	d	n/a
200.358	0.0905	400716	keystroke	i	n/a
200.5685	0.12	401137	keystroke	e	n/a
200.7185	0.15	401437	keystroke	d	n/a
200.8985	0.15	401797	keystroke	Key.space	n/a
201.8135	0.135	403627	keystroke	d	n/a
201.9035	0.12	403807	keystroke	e	n/a
202.2185	0.105	404437	keystroke	c	n/a
202.4885	0.09	404977	keystroke	l	n/a
202.6685	0.09	405337	keystroke	a	n/a
202.9385	0.135	405877	keystroke	r	n/a
203.0285	0.105	406057	keystroke	e	n/a
203.2535	0.105	406507	keystroke	d	n/a
203.4635	0.105	406927	keystroke	Key.space	n/a
204.274	0.09	408548	keystroke	g	n/a
204.334	0.105	408668	keystroke	r	n/a
204.604	0.06	409208	keystroke	w	n/a
204.784	0.105	409568	keystroke	o	n/a
205.413	0.075	410826	keystroke	Key.backspace	n/a
205.728	0.075	411456	keystroke	Key.backspace	n/a
206.1185	0.045	412237	keystroke	i	n/a
206.7035	0.105	413407	keystroke	Key.backspace	n/a
207.0485	0.075	414097	keystroke	o	n/a
207.2285	0.09	414457	keystroke	w	n/a
207.4685	0.015	414937	keystroke	i	n/a
207.6935	0.105	415387	keystroke	g	n/a
208.1585	0.09	416317	keystroke	Key.backspace	n/a
208.3985	0.105	416797	keystroke	n	n/a
208.5335	0.09	417067	keystroke	g	n/a
208.8635	0.0905	417727	keystroke	Key.enter	n/a
208.969	9.669	417938	prompt	n/a	runtime richmond accomplished articles\n
210.169	0.075	420338	keystroke	r	n/a
210.3035	0.075	420607	keystroke	u	n/a
210.4985	0.06	420997	keystroke	n	n/a
210.5885	0.075	421177	keystroke	t	n/a
210.6785	0.06	421357	keystroke	i	n/a
210.8435	0.09	421687	keystroke	m	n/a
210.9635	0.09	421927	keystroke	e	n/a
211.1135	0.12	422227	keystroke	Key.space	n/a
211.894	0.089	423788	keystroke	e	n/a
212.343	0.075	424686	keystroke	Key.backspace	n/a
212.494	0.089	424988	keystroke	r	n/a
212.628	0.09	425256	keystroke	i	n/a
212.793	0.12	425586	keystroke	c	n/a
212.898	0.0905	425796	keystroke	h	n/a
213.1235	0.06	426247	keystroke	m	n/a
213.2585	0.06	426517	keystroke	o	n/a
213.4235	0.09	426847	keystroke	n	n/a
213.6485	0.105	427297	keystroke	d	n/a
213.8135	0.075	427627	keystroke	Key.space	n/a
214.4285	0.075	428857	keystroke	a	n/a
214.6535	0.0745	429307	keystroke	c	n/a
214.8335	0.09	429667	keystroke	c	n/a
214.9385	0.09	429877	keystroke	o	n/a
215.1185	0.0745	430237	keystroke	m	n/a
215.2985	0.06	430597	keystroke	p	n/a
215.4935	0.06	430987	keystroke	l	n/a
215.6735	0.075	431347	keystroke	i	n/a
215.8235	0.105	431647	keystroke	s	n/a
215.9585	0.09	431917	keystroke	h	n/a
216.0785	0.1205	432157	keystroke	e	n/a
216.244	0.15	432488	keystroke	d	n/a
216.454	0.105	432908	keystroke	Key.space	n/a
216.784	0.075	433568	keystroke	a	n/a
217.204	0.09	434408	keystroke	r	n/a
217.414	0.075	434828	keystroke	t	n/a
217.579	0.075	435158	keystroke	i	n/a
217.759	0.06	435518	keystroke	c	n/a
217.894	0.0745	435788	keystroke	l	n/a
217.9985	0.0745	435997	keystroke	e	n/a
218.238	0.06	436476	keystroke	s	n/a
218.5385	0.0905	437077	keystroke	Key.enter	n/a
218.6425	9.762	437285	prompt	n/a	starring attention apparently designers\n
219.634	0.075	439268	keystroke	a	n/a
220.1135	0.075	440227	keystroke	Key.backspace	n/a
220.2635	0.075	440527	keystroke	s	n/a
220.4735	0.075	440947	keystroke	t	n/a
220.6535	0.075	441307	keystroke	a	n/a
220.8485	0.075	441697	keystroke	r	n/a
221.0435	0.06	442087	keystroke	r	n/a
221.209	0.0745	442418	keystroke	i	n/a
221.3735	0.09	442747	keystroke	n	n/a
221.4785	0.09	442957	keystroke	g	n/a
221.6735	0.0595	443347	keystroke	Key.space	n/a
221.944	0.09	443888	keystroke	a	n/a
222.2135	0.075	444427	keystroke	t	n/a
222.3785	0.105	444757	keystroke	t	n/a
222.4685	0.09	444937	keystroke	e	n/a
222.6335	0.075	445267	keystroke	n	n/a
222.7385	0.12	445477	keystroke	t	n/a
222.8435	0.0595	445687	keystroke	i	n/a
222.994	0.06	445988	keystroke	o	n/a
223.2035	0.135	446407	keystroke	n	n/a
223.3535	0.075	446707	keystroke	Key.space	n/a
223.5185	0.09	447037	keystroke	a	n/a
223.6535	0.06	447307	keystroke	p	n/a
223.8185	0.075	447637	keystroke	p	n/a
223.9235	0.075	447847	keystroke	a	n/a
224.1185	0.075	448237	keystroke	r	n/a
224.2835	0.075	448567	keystroke	a	n/a
224.6435	0.075	449287	keystroke	Key.backspace	n/a
224.8085	0.09	449617	keystroke	e	n/a
225.034	0.06	450068	keystroke	n	n/a
225.184	0.059	450368	keystroke	t	n/a
225.423	0.075	450846	keystroke	l	n/a
225.738	0.121	451476	keystroke	y	n/a
225.843	0.135	451686	keystroke	Key.space	n/a
226.669	0.0895	453338	keystroke	d	n/a
226.8785	0.0755	453757	keystroke	e	n/a
227.074	0.09	454148	keystroke	s	n/a
227.254	0.1045	454508	keystroke	i	n/a
227.4335	0.12	454867	keystroke	g	n/a
227.5385	0.09	455077	keystroke	n	n/a
227.7035	0.165	455407	keystroke	e	n/a
227.7935	0.15	455587	keystroke	r	n/a
228.0635	0.09	456127	keystroke	s	n/a
228.2885	0.105	456577	keystroke	Key.enter	n/a
228.411	10.1615	456822	prompt	n/a	partners courts railway major\n
229.3685	0.075	458737	keystroke	p	n/a
229.4585	0.03	458917	keystroke	a	n/a
229.5935	0.075	459187	keystroke	r	n/a
229.7885	0.06	459577	keystroke	t	n/a
229.8935	0.1055	459787	keystroke	n	n/a
230.0135	0.195	460027	keystroke	e	n/a
230.1485	0.15	460297	keystroke	r	n/a
230.7485	0.12	461497	keystroke	Key.space	n/a
230.988	0.075	461976	keystroke	s	n/a
231.378	0.06	462756	keystroke	Key.backspace	n/a
231.648	0.075	463296	keystroke	Key.backspace	n/a
231.918	0.075	463836	keystroke	s	n/a
232.234	0.09	464468	keystroke	Key.space	n/a
232.684	0.165	465368	keystroke	o	n/a
232.744	0.12	465488	keystroke	c	n/a
233.2685	0.075	466537	keystroke	Key.backspace	n/a
233.5385	0.09	467077	keystroke	Key.backspace	n/a
234.0485	0.09	468097	keystroke	c	n/a
234.1835	0.15	468367	keystroke	o	n/a
234.3035	0.12	468607	keystroke	u	n/a
234.4835	0.09	468967	keystroke	r	n/a
234.7085	0.09	469417	keystroke	t	n/a
234.9785	0.105	469957	keystroke	s	n/a
235.1285	0.12	470257	keystroke	Key.space	n/a
235.639	0.09	471278	keystroke	r	n/a
235.788	0.091	471576	keystroke	a	n/a
235.909	0.074	471818	keystroke	i	n/a
236.119	0.075	472238	keystroke	l	n/a
236.464	0.149	472928	keystroke	w	n/a
236.538	0.151	473076	keystroke	a	n/a
236.749	0.179	473498	keystroke	y	n/a
236.853	0.195	473706	keystroke	Key.space	n/a
237.469	0.0745	474938	keystroke	m	n/a
237.6035	0.09	475207	keystroke	a	n/a
237.9485	0.06	475897	keystroke	j	n/a
238.0985	0.09	476197	keystroke	o	n/a
238.2485	0.09	476497	keystroke	r	n/a
238.4885	0.075	476977	keystroke	Key.enter	n/a
238.5775	10.6155	477155	prompt	n/a	loved bedroom glasses nelson\n
239.659	0.015	479318	keystroke	l	n/a
239.749	0.075	479498	keystroke	o	n/a
239.959	0.09	479918	keystroke	v	n/a
240.168	0.1055	480336	keystroke	e	n/a
240.5135	0.015	481027	keystroke	d	n/a
240.5435	0.09	481087	keystroke	Key.space	n/a
240.8135	0.075	481627	keystroke	b	n/a
240.9335	0.06	481867	keystroke	e	n/a
241.1735	0.075	482347	keystroke	d	n/a
241.3685	0.075	482737	keystroke	r	n/a
241.5785	0.045	483157	keystroke	o	n/a
241.789	0.0145	483578	keystroke	o	n/a
241.9085	0.18	483817	keystroke	m	n/a
242.059	0.134	484118	keystroke	Key.space	n/a
242.688	0.075	485376	keystroke	g	n/a
242.823	0.09	485646	keystroke	l	n/a
242.9735	0.045	485947	keystroke	a	n/a
243.1535	0.09	486307	keystroke	s	n/a
243.3335	0.075	486667	keystroke	s	n/a
243.5135	0.06	487027	keystroke	e	n/a
243.7235	0.06	487447	keystroke	s	n/a
243.9485	0.09	487897	keystroke	Key.space	n/a
244.398	0.075	488796	keystroke	n	n/a
244.698	0.09	489396	keystroke	e	n/a
245.133	0.075	490266	keystroke	l	n/a
245.5835	0.075	491167	keystroke	s	n/a
245.7035	0.075	491407	keystroke	o	n/a
245.9285	0.09	491857	keystroke	n	n/a
249.171	0.012	498342	keystroke	Key.enter	n/a
249.199	16.826	498398	prompt	n/a	possession tyler these're announcement\n
251.2855	0	502571	keystroke	p	n/a
251.3885	0.075	502777	keystroke	o	n/a
251.554	0.06	503108	keystroke	s	n/a
251.704	0.09	503408	keystroke	s	n/a
252.004	0.075	504008	keystroke	e	n/a
252.214	0.075	504428	keystroke	s	n/a
252.379	0.075	504758	keystroke	s	n/a
252.5585	0.06	505117	keystroke	i	n/a
252.7235	0.06	505447	keystroke	o	n/a
252.9035	0.1795	505807	keystroke	n	n/a
253.038	0.12	506076	keystroke	Key.space	n/a
253.609	0.075	507218	keystroke	t	n/a
253.834	0.0595	507668	keystroke	y	n/a
254.0585	0.0905	508117	keystroke	l	n/a
254.193	0.061	508386	keystroke	e	n/a
254.388	0.076	508776	keystroke	r	n/a
254.583	0.075	509166	keystroke	Key.space	n/a
254.898	0.106	509796	keystroke	t	n/a
255.079	0.075	510158	keystroke	h	n/a
255.289	0.09	510578	keystroke	e	n/a
255.514	0.075	511028	keystroke	s	n/a
255.709	0.06	511418	keystroke	e	n/a
257.3135	0.06	514627	keystroke	'	n/a
257.4935	0.105	514987	keystroke	r	n/a
257.5535	0.135	515107	keystroke	e	n/a
257.8385	0.09	515677	keystroke	Key.space	n/a
257.9585	0.105	515917	keystroke	a	n/a
258.5735	0.06	517147	keystroke	n	n/a
258.7385	0.06	517477	keystroke	n	n/a
258.9035	0.1355	517807	keystroke	o	n/a
258.993	0.12	517986	keystroke	u	n/a
259.249	0.1045	518498	keystroke	n	n/a
259.3235	0.18	518647	keystroke	c	n/a
259.4585	0.12	518917	keystroke	e	n/a
259.6685	0.09	519337	keystroke	m	n/a
259.8035	0.075	519607	keystroke	e	n/a
259.9085	0.09	519817	keystroke	n	n/a
260.058	0.12	520116	keystroke	t	n/a
260.208	0.121	520416	keystroke	s	n/a
260.433	0.075	520866	keystroke	Key.space	n/a
263.3155	0	526631	keystroke	Key.backspace	n/a
263.674	0.06	527348	keystroke	Key.backspace	n/a
266.001	0.012	532002	keystroke	Key.enter	n/a
266.0315	14.1675	532063	prompt	n/a	compile changes fourth manitoba\n
267.1385	0.0905	534277	keystroke	c	n/a
267.289	0.075	534578	keystroke	o	n/a
267.424	0.075	534848	keystroke	m	n/a
267.589	0.06	535178	keystroke	p	n/a
268.054	0.0595	536108	keystroke	i	n/a
268.3835	0.045	536767	keystroke	e	n/a
268.7885	0.09	537577	keystroke	Key.backspace	n/a
269.0135	0.105	538027	keystroke	l	n/a
269.1935	0.09	538387	keystroke	e	n/a
270.1535	0.09	540307	keystroke	Key.space	n/a
270.3635	0.075	540727	keystroke	c	n/a
270.4235	0.09	540847	keystroke	h	n/a
270.6185	0.075	541237	keystroke	a	n/a
270.6335	0.075	541267	keystroke	n	n/a
270.8735	0.06	541747	keystroke	g	n/a
270.9935	0.06	541987	keystroke	e	n/a
271.2035	0.075	542407	keystroke	s	n/a
271.3985	0.09	542797	keystroke	Key.space	n/a
271.713	0.075	543426	keystroke	f	n/a
271.923	0.075	543846	keystroke	u	n/a
272.643	0.1055	545286	keystroke	Key.backspace	n/a
273.1835	0.0905	546367	keystroke	o	n/a
273.364	0.105	546728	keystroke	u	n/a
273.499	0.105	546998	keystroke	f	n/a
274.114	0.09	548228	keystroke	Key.backspace	n/a
274.3085	0.06	548617	keystroke	r	n/a
274.5035	0.06	549007	keystroke	t	n/a
274.5935	0.135	549187	keystroke	h	n/a
274.7735	0.15	549547	keystroke	Key.space	n/a
275.5385	0.06	551077	keystroke	m	n/a
276.2135	0.075	552427	keystroke	n	n/a
276.6485	0.09	553297	keystroke	Key.backspace	n/a
276.8435	0.075	553687	keystroke	a	n/a
276.9785	0.075	553957	keystroke	n	n/a
277.1885	0.09	554377	keystroke	i	n/a
277.759	0.09	555518	keystroke	t	n/a
277.924	0.09	555848	keystroke	o	n/a
278.1635	0.09	556327	keystroke	d	n/a
278.5385	0.075	557077	keystroke	Key.backspace	n/a
278.7335	0.06	557467	keystroke	b	n/a
278.9585	0.075	557917	keystroke	a	n/a
280.0985	0.09	560197	keystroke	Key.enter	n/a
280.204	16.899	560408	prompt	n/a	weather cheque bishop armed\n
281.794	0.105	563588	keystroke	w	n/a
281.854	0.135	563708	keystroke	e	n/a
282.019	0.09	564038	keystroke	a	n/a
282.244	0.06	564488	keystroke	t	n/a
282.349	0.075	564698	keystroke	h	n/a
282.454	0.12	564908	keystroke	e	n/a
282.529	0.12	565058	keystroke	r	n/a
282.784	0.075	565568	keystroke	Key.space	n/a
289.956	0.028	579912	keystroke	c	n/a
290.104	0.06	580208	keystroke	h	n/a
290.284	0.09	580568	keystroke	e	n/a
291.9495	0.0895	583899	keystroke	q	n/a
292.204	0.075	584408	keystroke	u	n/a
292.324	0.105	584648	keystroke	e	n/a
292.474	0.1045	584948	keystroke	Key.space	n/a
293.599	0.075	587198	keystroke	b	n/a
293.779	0.105	587558	keystroke	i	n/a
293.974	0.03	587948	keystroke	s	n/a
294.049	0.09	588098	keystroke	h	n/a
294.274	0.075	588548	keystroke	o	n/a
294.454	0.075	588908	keystroke	p	n/a
294.693	0.091	589386	keystroke	Key.space	n/a
295.744	0.075	591488	keystroke	a	n/a
295.984	0.075	591968	keystroke	r	n/a
296.1045	0.089	592209	keystroke	m	n/a
296.2245	0.134	592449	keystroke	e	n/a
296.3735	0.1505	592747	keystroke	d	n/a
297.004	0.09	594008	keystroke	Key.enter	n/a
297.107	9.416	594214	prompt	n/a	boxed affiliated themes employers\n
298.1585	0.06	596317	keystroke	b	n/a
298.3985	0.075	596797	keystroke	o	n/a
298.8035	0.0755	597607	keystroke	x	n/a
299.044	0.105	598088	keystroke	e	n/a
299.164	0.15	598328	keystroke	d	n/a
299.359	0.105	598718	keystroke	Key.space	n/a
299.794	0.06	599588	keystroke	a	n/a
300.289	0.09	600578	keystroke	f	n/a
300.469	0.09	600938	keystroke	f	n/a
300.589	0.09	601178	keystroke	i	n/a
300.784	0.075	601568	keystroke	l	n/a
300.964	0.075	601928	keystroke	i	n/a
301.174	0.045	602348	keystroke	a	n/a
301.3835	0.075	602767	keystroke	t	n/a
301.5335	0.09	603067	keystroke	e	n/a
301.7435	0.12	603487	keystroke	d	n/a
301.9235	0.09	603847	keystroke	Key.space	n/a
302.764	0.06	605528	keystroke	t	n/a
302.869	0.09	605738	keystroke	h	n/a
302.959	0.075	605918	keystroke	e	n/a
303.139	0.09	606278	keystroke	m	n/a
303.259	0.0895	606518	keystroke	e	n/a
303.4985	0.06	606997	keystroke	s	n/a
303.6935	0.075	607387	keystroke	Key.space	n/a
303.8285	0.09	607657	keystroke	e	n/a
303.9635	0.075	607927	keystroke	m	n/a
304.6985	0.075	609397	keystroke	p	n/a
304.9235	0.075	609847	keystroke	l	n/a
305.1185	0.075	610237	keystroke	o	n/a
305.689	0.075	611378	keystroke	y	n/a
305.839	0.09	611678	keystroke	e	n/a
305.959	0.105	611918	keystroke	r	n/a
306.2285	0.06	612457	keystroke	s	n/a
306.4235	0.09	612847	keystroke	Key.enter	n/a
306.5275	7.9075	613055	prompt	n/a	twins solving reasonable tigers\n
308.781	0.028	617562	keystroke	t	n/a
308.899	0.09	617798	keystroke	w	n/a
309.049	0.06	618098	keystroke	i	n/a
309.199	0.09	618398	keystroke	n	n/a
309.319	0.075	618638	keystroke	s	n/a
309.439	0.0895	618878	keystroke	Key.space	n/a
309.5435	0.075	619087	keystroke	s	n/a
309.6485	0.075	619297	keystroke	o	n/a
309.844	0.075	619688	keystroke	l	n/a
309.994	0.105	619988	keystroke	v	n/a
310.2185	0.0605	620437	keystroke	i	n/a
310.369	0.075	620738	keystroke	n	n/a
310.489	0.105	620978	keystroke	g	n/a
310.594	0.09	621188	keystroke	Key.space	n/a
311.209	0.12	622418	keystroke	r	n/a
311.299	0.105	622598	keystroke	e	n/a
311.509	0.15	623018	keystroke	a	n/a
311.659	0.135	623318	keystroke	s	n/a
311.914	0.075	623828	keystroke	o	n/a
312.1235	0.105	624247	keystroke	n	n/a
312.2885	0.1055	624577	keystroke	a	n/a
312.544	0.075	625088	keystroke	b	n/a
312.769	0.075	625538	keystroke	l	n/a
312.903	0.0755	625806	keystroke	e	n/a
313.0085	0.09	626017	keystroke	Key.space	n/a
313.2035	0.09	626407	keystroke	t	n/a
313.3085	0.075	626617	keystroke	i	n/a
313.6835	0.06	627367	keystroke	g	n/a
313.849	0.1195	627698	keystroke	e	n/a
313.909	0.1345	627818	keystroke	r	n/a
314.1635	0.105	628327	keystroke	s	n/a
314.3435	0.09	628687	keystroke	Key.enter	n/a
314.438	8.2705	628876	prompt	n/a	states valium alternate highest\n
315.5735	0.075	631147	keystroke	s	n/a
315.8135	0.045	631627	keystroke	t	n/a
315.9335	0.075	631867	keystroke	a	n/a
316.1435	0.0755	632287	keystroke	t	n/a
316.204	0.075	632408	keystroke	e	n/a
316.4135	0.105	632827	keystroke	s	n/a
316.6835	0.06	633367	keystroke	Key.space	n/a
317.3135	0.09	634627	keystroke	v	n/a
317.5235	0.075	635047	keystroke	a	n/a
317.6435	0.075	635287	keystroke	l	n/a
317.8385	0.0755	635677	keystroke	i	n/a
318.048	0.0755	636096	keystroke	u	n/a
318.2585	0.1945	636517	keystroke	m	n/a
318.4235	0.1045	636847	keystroke	Key.space	n/a
318.693	0.075	637386	keystroke	a	n/a
318.918	0.0755	637836	keystroke	l	n/a
319.3235	0.075	638647	keystroke	t	n/a
319.4735	0.15	638947	keystroke	e	n/a
319.5935	0.105	639187	keystroke	r	n/a
319.8035	0.075	639607	keystroke	n	n/a
319.8485	0.105	639697	keystroke	a	n/a
320.0885	0.105	640177	keystroke	t	n/a
320.2085	0.09	640417	keystroke	e	n/a
320.449	0.075	640898	keystroke	Key.space	n/a
321.3485	0.015	642697	keystroke	h	n/a
321.3935	0.105	642787	keystroke	i	n/a
321.6185	0.075	643237	keystroke	g	n/a
321.7835	0.09	643567	keystroke	h	n/a
321.9035	0.09	643807	keystroke	e	n/a
322.1435	0.076	644287	keystroke	s	n/a
322.3535	0.075	644707	keystroke	t	n/a
322.5935	0.1055	645187	keystroke	Key.enter	n/a
322.715	8.85	645430	prompt	n/a	manager founded meanwhile antiques\n
323.658	0.0755	647316	keystroke	m	n/a
323.7635	0.09	647527	keystroke	a	n/a
323.8835	0.075	647767	keystroke	n	n/a
323.9735	0.075	647947	keystroke	a	n/a
324.3035	0.06	648607	keystroke	g	n/a
324.4685	0.1055	648937	keystroke	e	n/a
324.5885	0.135	649177	keystroke	r	n/a
324.8135	0.105	649627	keystroke	Key.space	n/a
325.6685	0.105	651337	keystroke	f	n/a
325.8335	0.105	651667	keystroke	o	n/a
325.9235	0.075	651847	keystroke	u	n/a
326.1185	0.105	652237	keystroke	n	n/a
326.2085	0.18	652417	keystroke	d	n/a
326.3285	0.15	652657	keystroke	e	n/a
326.4485	0.135	652897	keystroke	d	n/a
327.214	0.09	654428	keystroke	Key.space	n/a
327.559	0.09	655118	keystroke	m	n/a
327.709	0.06	655418	keystroke	e	n/a
327.874	0.075	655748	keystroke	a	n/a
328.0085	0.075	656017	keystroke	n	n/a
328.369	0.0745	656738	keystroke	w	n/a
328.5185	0.06	657037	keystroke	h	n/a
328.6535	0.09	657307	keystroke	i	n/a
328.8635	0.075	657727	keystroke	l	n/a
328.9685	0.12	657937	keystroke	e	n/a
329.1185	0.105	658237	keystroke	Key.space	n/a
329.6135	0.075	659227	keystroke	a	n/a
329.9585	0.06	659917	keystroke	n	n/a
330.109	0.045	660218	keystroke	t	n/a
330.184	0.09	660368	keystroke	i	n/a
330.724	0.09	661448	keystroke	q	n/a
330.844	0.105	661688	keystroke	u	n/a
331.009	0.075	662018	keystroke	e	n/a
331.249	0.06	662498	keystroke	s	n/a
331.474	0.09	662948	keystroke	Key.enter	n/a
331.568	9.935	663136	prompt	n/a	operation perfume expires movements\n
332.6585	0.06	665317	keystroke	o	n/a
332.8385	0.075	665677	keystroke	p	n/a
332.9285	0.135	665857	keystroke	e	n/a
333.0335	0.105	666067	keystroke	r	n/a
333.2285	0.09	666457	keystroke	a	n/a
333.439	0.09	666878	keystroke	t	n/a
333.544	0.075	667088	keystroke	i	n/a
333.709	0.06	667418	keystroke	o	n/a
333.904	0.15	667808	keystroke	n	n/a
334.069	0.1045	668138	keystroke	Key.space	n/a
334.413	0.076	668826	keystroke	p	n/a
334.534	0.12	669068	keystroke	e	n/a
334.594	0.12	669188	keystroke	r	n/a
334.879	0.075	669758	keystroke	f	n/a
335.0435	0.0905	670087	keystroke	u	n/a
335.254	0.09	670508	keystroke	m	n/a
335.419	0.09	670838	keystroke	e	n/a
335.5535	0.09	671107	keystroke	Key.space	n/a
336.093	0.091	672186	keystroke	e	n/a
336.364	0.105	672728	keystroke	x	n/a
336.634	0.075	673268	keystroke	p	n/a
337.0085	0.0905	674017	keystroke	i	n/a
337.279	0.09	674558	keystroke	r	n/a
337.444	0.075	674888	keystroke	e	n/a
337.8935	0.105	675787	keystroke	s	n/a
338.0885	0.0895	676177	keystroke	Key.space	n/a
338.269	0.104	676538	keystroke	m	n/a
338.448	0.075	676896	keystroke	o	n/a
339.049	0.045	678098	keystroke	e	n/a
339.513	0.045	679026	keystroke	Key.backspace	n/a
339.589	0.105	679178	keystroke	v	n/a
339.7985	0.0905	679597	keystroke	e	n/a
339.9785	0.075	679957	keystroke	m	n/a
340.1585	0.075	680317	keystroke	e	n/a
340.2485	0.09	680497	keystroke	n	n/a
340.3985	0.075	680797	keystroke	t	n/a
340.6235	0.075	681247	keystroke	s	n/a
340.7885	0.06	681577	keystroke	Key.space	n/a
341.4185	0.075	682837	keystroke	Key.enter	n/a
341.508	10.5105	683016	prompt	n/a	postcard comparison slovakia judy\n
342.6935	0.135	685387	keystroke	p	n/a
342.7685	0.165	685537	keystroke	o	n/a
342.9345	0.059	685869	keystroke	s	n/a
343.144	0.06	686288	keystroke	t	n/a
343.4735	0.045	686947	keystroke	c	n/a
343.6835	0.075	687367	keystroke	a	n/a
343.864	0.0895	687728	keystroke	r	n/a
344.0735	0.105	688147	keystroke	d	n/a
344.2835	0.105	688567	keystroke	Key.space	n/a
344.5235	0.105	689047	keystroke	c	n/a
344.5985	0.075	689197	keystroke	o	n/a
344.7485	0.09	689497	keystroke	m	n/a
344.9285	0.075	689857	keystroke	p	n/a
345.0485	0.09	690097	keystroke	a	n/a
345.2135	0.09	690427	keystroke	r	n/a
345.3785	0.06	690757	keystroke	i	n/a
345.4985	0.12	690997	keystroke	s	n/a
345.6785	0.075	691357	keystroke	o	n/a
345.9185	0.165	691837	keystroke	n	n/a
346.0385	0.1345	692077	keystroke	Key.space	n/a
347.584	0.105	695168	keystroke	s	n/a
347.808	0.076	695616	keystroke	l	n/a
348.018	0.076	696036	keystroke	o	n/a
348.5585	0.105	697117	keystroke	v	n/a
348.7985	0.075	697597	keystroke	a	n/a
349.0385	0.045	698077	keystroke	k	n/a
349.2185	0.06	698437	keystroke	i	n/a
349.3385	0.105	698677	keystroke	a	n/a
349.5185	0.075	699037	keystroke	Key.space	n/a
350.3435	0.06	700687	keystroke	j	n/a
350.4935	0.09	700987	keystroke	u	n/a
350.6135	0.0755	701227	keystroke	s	n/a
351.049	0.105	702098	keystroke	Key.backspace	n/a
351.214	0.09	702428	keystroke	d	n/a
351.409	0.075	702818	keystroke	y	n/a
351.919	0.09	703838	keystroke	Key.enter	n/a
352.023	8.08	704046	prompt	n/a	lawyer arab main pulling\n
353.104	0.059	706208	keystroke	l	n/a
353.208	0.075	706416	keystroke	a	n/a
353.7185	0.075	707437	keystroke	w	n/a
353.9285	0.06	707857	keystroke	y	n/a
354.0635	0.15	708127	keystroke	e	n/a
354.169	0.1345	708338	keystroke	r	n/a
354.3635	0.12	708727	keystroke	Key.space	n/a
355.114	0.045	710228	keystroke	a	n/a
355.234	0.105	710468	keystroke	r	n/a
355.324	0.12	710648	keystroke	a	n/a
356.224	0.195	712448	keystroke	b	n/a
356.434	0.09	712868	keystroke	Key.space	n/a
357.2135	0.0905	714427	keystroke	m	n/a
357.3485	0.0905	714697	keystroke	a	n/a
357.4235	0.075	714847	keystroke	i	n/a
357.5885	0.1505	715177	keystroke	n	n/a
357.723	0.09	715446	keystroke	Key.space	n/a
357.9635	0.03	715927	keystroke	p	n/a
358.1735	0.09	716347	keystroke	u	n/a
358.4285	0.0745	716857	keystroke	l	n/a
358.578	0.075	717156	keystroke	l	n/a
358.773	0.0755	717546	keystroke	i	n/a
358.9685	0.075	717937	keystroke	n	n/a
359.7485	0.015	719497	keystroke	g	n/a
360.0035	0.0895	720007	keystroke	Key.enter	n/a
360.108	23.245	720216	prompt	n/a	cyprus reviewing eligible jacket\n
361.5035	0.0905	723007	keystroke	c	n/a
362.1185	0.075	724237	keystroke	y	n/a
362.4635	0.0905	724927	keystroke	p	n/a
362.658	0.061	725316	keystroke	r	n/a
362.808	0.076	725616	keystroke	u	n/a
363.0035	0.1055	726007	keystroke	s	n/a
363.154	0.1045	726308	keystroke	Key.space	n/a
363.6785	0.075	727357	keystroke	e	n/a
366.3815	0	732763	keystroke	Key.backspace	n/a
367.324	0.135	734648	keystroke	r	n/a
367.414	0.12	734828	keystroke	e	n/a
367.864	0.09	735728	keystroke	v	n/a
368.134	0.06	736268	keystroke	i	n/a
368.314	0.075	736628	keystroke	e	n/a
368.523	0.075	737046	keystroke	w	n/a
368.779	0.059	737558	keystroke	i	n/a
368.928	0.075	737856	keystroke	n	n/a
369.033	0.106	738066	keystroke	g	n/a
369.153	0.09	738306	keystroke	Key.space	n/a
370.2185	0.075	740437	keystroke	e	n/a
370.3385	0.075	740677	keystroke	l	n/a
371.5085	0.06	743017	keystroke	i	n/a
371.9585	0.075	743917	keystroke	d	n/a
372.3935	0.105	744787	keystroke	g	n/a
372.7385	0.075	745477	keystroke	i	n/a
372.964	0.075	745928	keystroke	b	n/a
373.204	0.09	746408	keystroke	l	n/a
373.384	0.06	746768	keystroke	e	n/a
373.504	0.074	747008	keystroke	Key.space	n/a
375.0485	0.015	750097	keystroke	Key.backspace	n/a
375.3485	0.06	750697	keystroke	Key.backspace	n/a
375.6185	0.06	751237	keystroke	Key.backspace	n/a
375.9485	0.075	751897	keystroke	Key.backspace	n/a
376.2485	0.09	752497	keystroke	Key.backspace	n/a
376.5185	0.0745	753037	keystroke	Key.backspace	n/a
376.878	0.0605	753756	keystroke	Key.backspace	n/a
378.5135	0.0445	757027	keystroke	g	n/a
378.648	0.09	757296	keystroke	i	n/a
378.888	0.076	757776	keystroke	b	n/a
379.084	0.075	758168	keystroke	l	n/a
379.368	0.075	758736	keystroke	Key.space	n/a
379.429	0.09	758858	keystroke	e	n/a
379.758	0.06	759516	keystroke	Key.backspace	n/a
379.938	0.06	759876	keystroke	Key.backspace	n/a
380.164	0.089	760328	keystroke	e	n/a
380.4335	0.105	760867	keystroke	Key.space	n/a
382.1735	0.06	764347	keystroke	j	n/a
382.2785	0.075	764557	keystroke	a	n/a
382.5485	0.09	765097	keystroke	c	n/a
382.6535	0.09	765307	keystroke	k	n/a
382.8035	0.075	765607	keystroke	e	n/a
382.984	0.075	765968	keystroke	t	n/a
383.269	0.074	766538	keystroke	Key.enter	n/a
383.3575	11.6655	766715	prompt	n/a	entered fare authentication interracial\n
384.4085	0.075	768817	keystroke	e	n/a
384.5585	0.09	769117	keystroke	n	n/a
384.6785	0.1195	769357	keystroke	t	n/a
384.799	0.164	769598	keystroke	e	n/a
384.919	0.134	769838	keystroke	r	n/a
384.979	0.164	769958	keystroke	e	n/a
385.788	0.12	771576	keystroke	d	n/a
386.163	0.06	772326	keystroke	Key.space	n/a
387.0035	0.09	774007	keystroke	f	n/a
387.1835	0.075	774367	keystroke	a	n/a
387.3335	0.1055	774667	keystroke	r	n/a
387.3935	0.12	774787	keystroke	e	n/a
387.5735	0.09	775147	keystroke	Key.space	n/a
387.7085	0.075	775417	keystroke	a	n/a
387.9335	0.075	775867	keystroke	u	n/a
388.3385	0.06	776677	keystroke	t	n/a
388.4735	0.06	776947	keystroke	h	n/a
388.6085	0.09	777217	keystroke	e	n/a
388.8185	0.075	777637	keystroke	n	n/a
389.0135	0.075	778027	keystroke	i	n/a
390.033	0.0905	780066	keystroke	Key.backspace	n/a
391.308	0.09	782616	keystroke	t	n/a
391.459	0.0745	782918	keystroke	i	n/a
391.668	0.06	783336	keystroke	c	n/a
391.788	0.09	783576	keystroke	a	n/a
392.013	0.0755	784026	keystroke	t	n/a
392.059	0.0745	784118	keystroke	i	n/a
392.2085	0.075	784417	keystroke	o	n/a
392.4035	0.165	784807	keystroke	n	n/a
392.5535	0.105	785107	keystroke	Key.space	n/a
392.8385	0.045	785677	keystroke	i	n/a
393.094	0.09	786188	keystroke	n	n/a
393.259	0.045	786518	keystroke	t	n/a
393.409	0.1645	786818	keystroke	e	n/a
393.499	0.1495	786998	keystroke	r	n/a
393.7535	0.09	787507	keystroke	r	n/a
393.9635	0.09	787927	keystroke	a	n/a
394.2635	0.09	788527	keystroke	c	n/a
394.3985	0.09	788797	keystroke	i	n/a
394.5335	0.09	789067	keystroke	a	n/a
394.6685	0.075	789337	keystroke	l	n/a
394.9535	0.06	789907	keystroke	Key.enter	n/a
395.027	6.453	790054	prompt	n/a	snap prix farmers harrison\n
395.869	0.0595	791738	keystroke	s	n/a
396.0785	0.075	792157	keystroke	n	n/a
396.2135	0.075	792427	keystroke	a	n/a
396.3785	0.12	792757	keystroke	p	n/a
396.6485	0.105	793297	keystroke	Key.space	n/a
397.0985	0.105	794197	keystroke	p	n/a
397.2635	0.075	794527	keystroke	r	n/a
397.4435	0.075	794887	keystroke	i	n/a
397.7735	0.09	795547	keystroke	x	n/a
397.9685	0.09	795937	keystroke	Key.space	n/a
398.164	0.075	796328	keystroke	f	n/a
398.3735	0.09	796747	keystroke	a	n/a
398.5835	0.0905	797167	keystroke	r	n/a
398.749	0.075	797498	keystroke	m	n/a
398.869	0.135	797738	keystroke	e	n/a
398.944	0.12	797888	keystroke	r	n/a
399.169	0.12	798338	keystroke	s	n/a
399.393	0.076	798786	keystroke	Key.space	n/a
399.9035	0.105	799807	keystroke	h	n/a
400.0235	0.09	800047	keystroke	a	n/a
400.2185	0.06	800437	keystroke	r	n/a
400.399	0.0745	800798	keystroke	r	n/a
400.519	0.075	801038	keystroke	i	n/a
400.714	0.09	801428	keystroke	s	n/a
400.864	0.06	801728	keystroke	o	n/a
401.0735	0.105	802147	keystroke	n	n/a
401.3885	0.09	802777	keystroke	Key.enter	n/a
401.4835	10.8045	802967	prompt	n/a	seniors freeze signatures miller\n
402.4385	0.0745	804877	keystroke	s	n/a
402.633	0.09	805266	keystroke	e	n/a
403.143	0.09	806286	keystroke	n	n/a
403.338	0.06	806676	keystroke	r	n/a
403.428	0.075	806856	keystroke	i	n/a
403.984	0.09	807968	keystroke	Key.backspace	n/a
404.2835	0.0905	808567	keystroke	Key.backspace	n/a
404.959	0.015	809918	keystroke	i	n/a
405.019	0.075	810038	keystroke	o	n/a
405.124	0.0895	810248	keystroke	r	n/a
405.6035	0.06	811207	keystroke	s	n/a
405.7985	0.09	811597	keystroke	Key.space	n/a
406.5785	0.09	813157	keystroke	f	n/a
406.7285	0.09	813457	keystroke	r	n/a
406.9835	0.06	813967	keystroke	e	n/a
407.1335	0.09	814267	keystroke	e	n/a
407.8535	0.06	815707	keystroke	z	n/a
408.0935	0.0905	816187	keystroke	e	n/a
408.319	0.075	816638	keystroke	Key.space	n/a
408.9785	0.09	817957	keystroke	s	n/a
409.2035	0.09	818407	keystroke	i	n/a
409.4435	0.105	818887	keystroke	g	n/a
409.5935	0.09	819187	keystroke	n	n/a
409.8185	0.09	819637	keystroke	a	n/a
410.088	0.075	820176	keystroke	t	n/a
410.238	0.09	820476	keystroke	u	n/a
410.388	0.105	820776	keystroke	r	n/a
410.448	0.105	820896	keystroke	e	n/a
410.718	0.105	821436	keystroke	s	n/a
410.928	0.061	821856	keystroke	Key.space	n/a
411.1235	0.075	822247	keystroke	m	n/a
411.3035	0.075	822607	keystroke	i	n/a
411.5135	0.046	823027	keystroke	l	n/a
411.6335	0.075	823267	keystroke	l	n/a
411.7235	0.15	823447	keystroke	e	n/a
411.8285	0.1355	823657	keystroke	r	n/a
412.203	0.075	824406	keystroke	Key.enter	n/a
412.292	8.643	824584	prompt	n/a	dept shopping stone oecd\n
413.404	0.1195	826808	keystroke	d	n/a
413.4785	0.1205	826957	keystroke	e	n/a
414.0185	0.09	828037	keystroke	p	n/a
414.1985	0.075	828397	keystroke	t	n/a
414.3635	0.09	828727	keystroke	Key.space	n/a
415.0385	0.075	830077	keystroke	s	n/a
415.2335	0.06	830467	keystroke	h	n/a
415.4135	0.075	830827	keystroke	o	n/a
415.6535	0.075	831307	keystroke	p	n/a
415.834	0.0595	831668	keystroke	p	n/a
416.0135	0.0755	832027	keystroke	i	n/a
416.209	0.075	832418	keystroke	n	n/a
416.314	0.075	832628	keystroke	g	n/a
416.4485	0.0755	832897	keystroke	Key.space	n/a
417.0035	0.075	834007	keystroke	s	n/a
417.244	0.075	834488	keystroke	t	n/a
417.3035	0.09	834607	keystroke	o	n/a
417.5285	0.09	835057	keystroke	n	n/a
417.6935	0.075	835387	keystroke	e	n/a
418.0985	0.075	836197	keystroke	Key.space	n/a
418.6235	0.12	837247	keystroke	o	n/a
419.0885	0.09	838177	keystroke	e	n/a
419.5085	0.09	839017	keystroke	c	n/a
419.8085	0.105	839617	keystroke	d	n/a
420.813	0.12	841626	keystroke	Key.enter	n/a
420.9375	9.005	841875	prompt	n/a	ciao badly authors salmon\n
422.2685	0.075	844537	keystroke	c	n/a
422.4485	0.06	844897	keystroke	i	n/a
422.674	0.06	845348	keystroke	o	n/a
423.0335	0.09	846067	keystroke	Key.backspace	n/a
423.1835	0.075	846367	keystroke	a	n/a
423.3185	0.075	846637	keystroke	o	n/a
423.5585	0.105	847117	keystroke	Key.space	n/a
424.4285	0.075	848857	keystroke	b	n/a
424.5185	0.06	849037	keystroke	a	n/a
424.6685	0.12	849337	keystroke	d	n/a
424.8185	0.09	849637	keystroke	l	n/a
425.0735	0.165	850147	keystroke	y	n/a
425.1635	0.135	850327	keystroke	Key.space	n/a
425.3285	0.09	850657	keystroke	a	n/a
425.4785	0.03	850957	keystroke	u	n/a
425.6585	0.075	851317	keystroke	t	n/a
425.7485	0.09	851497	keystroke	h	n/a
425.8685	0.105	851737	keystroke	e	n/a
426.484	0.09	852968	keystroke	Key.backspace	n/a
426.7085	0.105	853417	keystroke	o	n/a
426.844	0.09	853688	keystroke	r	n/a
427.054	0.105	854108	keystroke	s	n/a
427.234	0.12	854468	keystroke	Key.space	n/a
427.789	0.18	855578	keystroke	s	n/a
427.909	0.12	855818	keystroke	a	n/a
428.089	0.09	856178	keystroke	l	n/a
428.478	0.075	856956	keystroke	m	n/a
428.643	0.06	857286	keystroke	o	n/a
428.793	0.091	857586	keystroke	n	n/a
429.874	0.06	859748	keystroke	Key.enter	n/a
429.9485	9.864	859897	prompt	n/a	marcus restricted notified telephony\n
431.163	0.06	862326	keystroke	m	n/a
431.268	0.06	862536	keystroke	a	n/a
431.463	0.0755	862926	keystroke	r	n/a
431.7335	0.075	863467	keystroke	c	n/a
431.838	0.075	863676	keystroke	u	n/a
431.988	0.105	863976	keystroke	s	n/a
432.184	0.105	864368	keystroke	Key.space	n/a
432.814	0.0895	865628	keystroke	r	n/a
432.8885	0.0605	865777	keystroke	e	n/a
433.099	0.09	866198	keystroke	s	n/a
433.324	0.06	866648	keystroke	t	n/a
433.549	0.09	867098	keystroke	r	n/a
433.7735	0.075	867547	keystroke	i	n/a
433.938	0.09	867876	keystroke	c	n/a
434.1935	0.06	868387	keystroke	t	n/a
434.329	0.12	868658	keystroke	e	n/a
434.569	0.09	869138	keystroke	d	n/a
434.7485	0.075	869497	keystroke	Key.space	n/a
435.0185	0.09	870037	keystroke	n	n/a
435.198	0.09	870396	keystroke	o	n/a
435.318	0.09	870636	keystroke	t	n/a
435.453	0.09	870906	keystroke	i	n/a
436.068	0.09	872136	keystroke	f	n/a
436.188	0.09	872376	keystroke	i	n/a
436.293	0.09	872586	keystroke	e	n/a
436.5485	0.075	873097	keystroke	d	n/a
436.8035	0.075	873607	keystroke	Key.space	n/a
437.3285	0.09	874657	keystroke	t	n/a
437.4335	0.09	874867	keystroke	e	n/a
437.6735	0.09	875347	keystroke	l	n/a
437.8535	0.09	875707	keystroke	e	n/a
438.3335	0.09	876667	keystroke	p	n/a
438.6185	0.075	877237	keystroke	h	n/a
438.8135	0.045	877627	keystroke	o	n/a
438.994	0.089	877988	keystroke	n	n/a
439.233	0.076	878466	keystroke	y	n/a
439.729	0.074	879458	keystroke	Key.enter	n/a
439.817	7.383	879634	prompt	n/a	filed space licensed added\n
441.0185	0.1655	882037	keystroke	t	n/a
441.438	0.061	882876	keystroke	i	n/a
441.618	0.091	883236	keystroke	l	n/a
441.694	0.09	883388	keystroke	e	n/a
441.9485	0.09	883897	keystroke	d	n/a
442.1435	0.06	884287	keystroke	Key.space	n/a
442.2935	0.09	884587	keystroke	s	n/a
442.4135	0.09	884827	keystroke	p	n/a
442.5485	0.075	885097	keystroke	a	n/a
442.7885	0.195	885577	keystroke	c	n/a
442.9535	0.1345	885907	keystroke	e	n/a
443.1485	0.105	886297	keystroke	Key.space	n/a
443.404	0.075	886808	keystroke	l	n/a
443.599	0.075	887198	keystroke	i	n/a
444.064	0.105	888128	keystroke	c	n/a
444.289	0.075	888578	keystroke	e	n/a
444.4385	0.075	888877	keystroke	n	n/a
444.8735	0.075	889747	keystroke	s	n/a
445.0685	0.09	890137	keystroke	e	n/a
445.2185	0.21	890437	keystroke	d	n/a
445.5485	0.06	891097	keystroke	Key.space	n/a
446.0885	0.075	892177	keystroke	a	n/a
446.3135	0.105	892627	keystroke	d	n/a
446.5385	0.075	893077	keystroke	d	n/a
446.5985	0.15	893197	keystroke	e	n/a
446.7485	0.105	893497	keystroke	d	n/a
447.1235	0.075	894247	keystroke	Key.enter	n/a
447.2035	9.665	894407	prompt	n/a	zope expenditure buying three\n
448.2635	0.075	896527	keystroke	z	n/a
448.4435	0.075	896887	keystroke	o	n/a
448.6385	0.06	897277	keystroke	p	n/a
448.788	0.09	897576	keystroke	e	n/a
448.998	0.09	897996	keystroke	Key.space	n/a
449.6885	0.045	899377	keystroke	e	n/a
449.9435	0.105	899887	keystroke	x	n/a
450.1385	0.09	900277	keystroke	p	n/a
450.2585	0.105	900517	keystroke	e	n/a
450.4985	0.12	900997	keystroke	d	n/a
451.2035	0.045	902407	keystroke	Key.backspace	n/a
451.4735	0.075	902947	keystroke	n	n/a
451.5785	0.135	903157	keystroke	d	n/a
452.088	0.0755	904176	keystroke	i	n/a
452.2985	0.075	904597	keystroke	t	n/a
452.5085	0.06	905017	keystroke	u	n/a
452.6585	0.135	905317	keystroke	r	n/a
452.7335	0.135	905467	keystroke	e	n/a
452.958	0.076	905916	keystroke	Key.space	n/a
453.769	0.06	907538	keystroke	b	n/a
453.934	0.075	907868	keystroke	u	n/a
454.129	0.074	908258	keystroke	y	n/a
454.338	0.031	908676	keystroke	i	n/a
454.624	0.09	909248	keystroke	n	n/a
454.804	0.075	909608	keystroke	g	n/a
454.999	0.06	909998	keystroke	Key.space	n/a
455.209	0.075	910418	keystroke	t	n/a
455.929	0.075	911858	keystroke	h	n/a
456.138	0.09	912276	keystroke	r	n/a
456.288	0.075	912576	keystroke	e	n/a
456.468	0.091	912936	keystroke	e	n/a
456.783	0.075	913566	keystroke	Key.enter	n/a
456.873	17.0065	913746	prompt	n/a	stereo regime shopzilla fleece\n
458.1185	0.075	916237	keystroke	s	n/a
458.3735	0.06	916747	keystroke	t	n/a
458.6435	0.06	917287	keystroke	e	n/a
458.8385	0.075	917677	keystroke	r	n/a
458.9735	0.1045	917947	keystroke	e	n/a
459.543	0.06	919086	keystroke	o	n/a
459.9935	0.1055	919987	keystroke	Key.space	n/a
467.886	0.043	935772	keystroke	r	n/a
467.887	0.117	935774	keystroke	e	n/a
468.1685	0.075	936337	keystroke	g	n/a
468.2885	0.075	936577	keystroke	i	n/a
468.4535	0.105	936907	keystroke	m	n/a
468.5885	0.09	937177	keystroke	e	n/a
468.7235	0.09	937447	keystroke	Key.space	n/a
469.009	0.09	938018	keystroke	s	n/a
469.339	0.06	938678	keystroke	h	n/a
469.534	0.06	939068	keystroke	o	n/a
469.729	0.075	939458	keystroke	p	n/a
470.494	0.09	940988	keystroke	z	n/a
470.628	0.046	941256	keystroke	i	n/a
470.823	0.06	941646	keystroke	l	n/a
470.959	0.0895	941918	keystroke	l	n/a
471.1085	0.09	942217	keystroke	a	n/a
471.2885	0.075	942577	keystroke	Key.space	n/a
471.8735	0.075	943747	keystroke	f	n/a
471.994	0.09	943988	keystroke	l	n/a
472.114	0.075	944228	keystroke	e	n/a
472.294	0.075	944588	keystroke	e	n/a
472.774	0.105	945548	keystroke	c	n/a
472.9835	0.09	945967	keystroke	e	n/a
473.7635	0.105	947527	keystroke	Key.enter	n/a
473.885	9.3825	947770	prompt	n/a	directive customers development hoping\n
474.8285	0.09	949657	keystroke	d	n/a
475.0385	0.075	950077	keystroke	i	n/a
475.2035	0.06	950407	keystroke	r	n/a
475.4135	0.075	950827	keystroke	e	n/a
475.6835	0.105	951367	keystroke	c	n/a
475.9235	0.075	951847	keystroke	t	n/a
476.0135	0.0745	952027	keystroke	i	n/a
476.223	0.075	952446	keystroke	v	n/a
476.328	0.12	952656	keystroke	e	n/a
476.553	0.09	953106	keystroke	Key.space	n/a
477.243	0.09	954486	keystroke	c	n/a
477.439	0.06	954878	keystroke	u	n/a
477.664	0.06	955328	keystroke	s	n/a
477.889	0.06	955778	keystroke	t	n/a
477.964	0.06	955928	keystroke	o	n/a
478.1585	0.075	956317	keystroke	m	n/a
478.2485	0.1345	956497	keystroke	e	n/a
478.2935	0.165	956587	keystroke	r	n/a
478.488	0.12	956976	keystroke	s	n/a
478.698	0.091	957396	keystroke	Key.space	n/a
479.194	0.09	958388	keystroke	d	n/a
479.239	0.12	958478	keystroke	e	n/a
479.614	0.075	959228	keystroke	v	n/a
479.764	0.09	959528	keystroke	e	n/a
479.959	0.09	959918	keystroke	l	n/a
480.1685	0.06	960337	keystroke	o	n/a
480.3185	0.075	960637	keystroke	p	n/a
480.5435	0.06	961087	keystroke	m	n/a
480.6485	0.105	961297	keystroke	e	n/a
480.7985	0.075	961597	keystroke	n	n/a
480.9035	0.075	961807	keystroke	t	n/a
481.5485	0.105	963097	keystroke	Key.space	n/a
481.9385	0.075	963877	keystroke	h	n/a
482.118	0.0755	964236	keystroke	o	n/a
482.3135	0.075	964627	keystroke	p	n/a
482.5085	0.075	965017	keystroke	i	n/a
482.7185	0.06	965437	keystroke	n	n/a
482.823	0.076	965646	keystroke	g	n/a
483.169	0.09	966338	keystroke	Key.enter	n/a
483.2715	11.561	966543	prompt	n/a	spatial describe patrol indonesian\n
484.1885	0.0905	968377	keystroke	s	n/a
484.339	0.075	968678	keystroke	o	n/a
484.459	0.075	968918	keystroke	a	n/a
485.3285	0.105	970657	keystroke	Key.backspace	n/a
485.6285	0.075	971257	keystroke	Key.backspace	n/a
486.094	0.075	972188	keystroke	p	n/a
486.229	0.105	972458	keystroke	a	n/a
486.529	0.075	973058	keystroke	t	n/a
486.694	0.075	973388	keystroke	i	n/a
486.829	0.105	973658	keystroke	a	n/a
486.979	0.135	973958	keystroke	l	n/a
487.188	0.135	974376	keystroke	Key.space	n/a
487.654	0.15	975308	keystroke	d	n/a
487.743	0.121	975486	keystroke	e	n/a
487.938	0.121	975876	keystroke	s	n/a
488.2085	0.075	976417	keystroke	c	n/a
488.4035	0.09	976807	keystroke	r	n/a
488.5535	0.09	977107	keystroke	i	n/a
488.7935	0.075	977587	keystroke	b	n/a
488.8985	0.075	977797	keystroke	e	n/a
489.0185	0.105	978037	keystroke	Key.space	n/a
489.4985	0.06	978997	keystroke	p	n/a
489.6485	0.09	979297	keystroke	a	n/a
489.9185	0.06	979837	keystroke	t	n/a
490.0985	0.075	980197	keystroke	r	n/a
490.2185	0.0895	980437	keystroke	o	n/a
490.4585	0.2095	980917	keystroke	l	n/a
490.623	0.135	981246	keystroke	Key.space	n/a
491.2085	0.075	982417	keystroke	i	n/a
491.4035	0.075	982807	keystroke	n	n/a
491.4935	0.1195	982987	keystroke	d	n/a
491.6435	0.09	983287	keystroke	o	n/a
493.2185	0.075	986437	keystroke	n	n/a
493.4435	0.09	986887	keystroke	e	n/a
493.6835	0.0905	987367	keystroke	s	n/a
494.028	0.091	988056	keystroke	i	n/a
494.194	0.09	988388	keystroke	a	n/a
494.299	0.105	988598	keystroke	n	n/a
494.734	0.09	989468	keystroke	Key.enter	n/a
494.837	9.478	989674	prompt	n/a	evident educated welsh acknowledge\n
495.739	0.09	991478	keystroke	e	n/a
496.1435	0.09	992287	keystroke	v	n/a
496.3085	0.075	992617	keystroke	i	n/a
496.4285	0.1655	992857	keystroke	d	n/a
496.5485	0.12	993097	keystroke	e	n/a
496.744	0.075	993488	keystroke	n	n/a
496.864	0.09	993728	keystroke	t	n/a
497.029	0.105	994058	keystroke	Key.space	n/a
497.314	0.09	994628	keystroke	e	n/a
497.4635	0.15	994927	keystroke	d	n/a
497.7635	0.06	995527	keystroke	u	n/a
497.868	0.0755	995736	keystroke	c	n/a
497.988	0.0905	995976	keystroke	a	n/a
498.214	0.075	996428	keystroke	t	n/a
498.409	0.075	996818	keystroke	e	n/a
498.619	0.075	997238	keystroke	d	n/a
498.799	0.105	997598	keystroke	Key.space	n/a
499.204	0.165	998408	keystroke	w	n/a
499.294	0.165	998588	keystroke	e	n/a
499.519	0.075	999038	keystroke	l	n/a
499.804	0.075	999608	keystroke	s	n/a
500.1185	0.195	1000237	keystroke	h	n/a
500.2385	0.165	1000477	keystroke	Key.space	n/a
500.959	0.0895	1001918	keystroke	a	n/a
501.4685	0.135	1002937	keystroke	c	n/a
501.709	0.09	1003418	keystroke	k	n/a
502.188	0.075	1004376	keystroke	n	n/a
502.4285	0.09	1004857	keystroke	o	n/a
502.8635	0.075	1005727	keystroke	w	n/a
503.0735	0.09	1006147	keystroke	l	n/a
503.1785	0.18	1006357	keystroke	e	n/a
503.3435	0.12	1006687	keystroke	d	n/a
503.5985	0.075	1007197	keystroke	g	n/a
503.7785	0.075	1007557	keystroke	e	n/a
504.2285	0.075	1008457	keystroke	Key.enter	n/a
504.32	7.028	1008640	prompt	n/a	dead funding jokes electronic\n
505.294	0.12	1010588	keystroke	d	n/a
505.369	0.135	1010738	keystroke	e	n/a
505.519	0.12	1011038	keystroke	a	n/a
505.669	0.134	1011338	keystroke	d	n/a
505.909	0.104	1011818	keystroke	Key.space	n/a
506.133	0.105	1012266	keystroke	f	n/a
506.253	0.091	1012506	keystroke	u	n/a
506.434	0.089	1012868	keystroke	n	n/a
506.929	0.12	1013858	keystroke	d	n/a
507.093	0.091	1014186	keystroke	i	n/a
507.289	0.089	1014578	keystroke	n	n/a
507.3935	0.12	1014787	keystroke	g	n/a
507.5585	0.0905	1015117	keystroke	Key.space	n/a
508.3235	0.075	1016647	keystroke	j	n/a
508.4585	0.105	1016917	keystroke	o	n/a
508.7135	0.09	1017427	keystroke	k	n/a
508.8485	0.075	1017697	keystroke	e	n/a
509.0735	0.09	1018147	keystroke	s	n/a
509.2685	0.06	1018537	keystroke	Key.space	n/a
509.3435	0.075	1018687	keystroke	e	n/a
509.5235	0.075	1019047	keystroke	l	n/a
509.5835	0.09	1019167	keystroke	e	n/a
509.8535	0.09	1019707	keystroke	c	n/a
510.0635	0.075	1020127	keystroke	t	n/a
510.2585	0.075	1020517	keystroke	r	n/a
510.3935	0.06	1020787	keystroke	o	n/a
510.5885	0.09	1021177	keystroke	n	n/a
510.7535	0.105	1021507	keystroke	i	n/a
510.9035	0.09	1021807	keystroke	s	n/a
511.2635	0.075	1022527	keystroke	Key.enter	n/a
511.352	14.651	1022704	prompt	n/a	adapters services henderson economic\n
512.6435	0.075	1025287	keystroke	a	n/a
512.9435	0.09	1025887	keystroke	d	n/a
513.1385	0.09	1026277	keystroke	a	n/a
513.3635	0.015	1026727	keystroke	p	n/a
513.6935	0.09	1027387	keystroke	t	n/a
513.8585	0.135	1027717	keystroke	e	n/a
513.9335	0.1805	1027867	keystroke	r	n/a
514.338	0.09	1028676	keystroke	s	n/a
514.563	0.075	1029126	keystroke	Key.space	n/a
515.283	0.076	1030566	keystroke	s	n/a
515.479	0.104	1030958	keystroke	e	n/a
515.554	0.12	1031108	keystroke	r	n/a
515.8385	0.09	1031677	keystroke	v	n/a
516.0035	0.09	1032007	keystroke	i	n/a
516.1385	0.135	1032277	keystroke	c	n/a
516.1835	0.165	1032367	keystroke	e	n/a
516.4835	0.075	1032967	keystroke	s	n/a
516.6935	0.075	1033387	keystroke	Key.space	n/a
517.0385	0.075	1034077	keystroke	h	n/a
517.1735	0.06	1034347	keystroke	e	n/a
517.2635	0.075	1034527	keystroke	n	n/a
517.6835	0.075	1035367	keystroke	Key.backspace	n/a
517.8785	0.105	1035757	keystroke	d	n/a
518.1485	0.105	1036297	keystroke	e	n/a
518.5985	0.045	1037197	keystroke	Key.backspace	n/a
518.8085	0.06	1037617	keystroke	Key.backspace	n/a
519.3635	0.06	1038727	keystroke	n	n/a
519.5135	0.105	1039027	keystroke	d	n/a
519.7535	0.105	1039507	keystroke	e	n/a
519.9035	0.1205	1039807	keystroke	r	n/a
520.354	0.075	1040708	keystroke	s	n/a
520.519	0.075	1041038	keystroke	o	n/a
520.758	0.151	1041516	keystroke	n	n/a
520.894	0.12	1041788	keystroke	Key.space	n/a
522.994	0.06	1045988	keystroke	e	n/a
523.248	0.121	1046496	keystroke	c	n/a
523.473	0.061	1046946	keystroke	o	n/a
523.759	0.0895	1047518	keystroke	n	n/a
524.7335	0.015	1049467	keystroke	o	n/a
524.8835	0.0905	1049767	keystroke	m	n/a
525.048	0.09	1050096	keystroke	i	n/a
525.303	0.09	1050606	keystroke	c	n/a
525.903	0.09	1051806	keystroke	Key.enter	n/a
526.0075	9.055	1052015	prompt	n/a	holdem tree classes mailto\n
527.7935	0.045	1055587	keystroke	h	n/a
527.9585	0.09	1055917	keystroke	o	n/a
528.1685	0.075	1056337	keystroke	l	n/a
528.2885	0.09	1056577	keystroke	d	n/a
528.514	0.09	1057028	keystroke	e	n/a
528.694	0.1045	1057388	keystroke	n	n/a
529.113	0.075	1058226	keystroke	Key.backspace	n/a
529.368	0.1805	1058736	keystroke	m	n/a
529.533	0.0905	1059066	keystroke	Key.space	n/a
529.8935	0.045	1059787	keystroke	t	n/a
530.0435	0.0745	1060087	keystroke	r	n/a
530.223	0.075	1060446	keystroke	e	n/a
530.418	0.09	1060836	keystroke	e	n/a
530.6135	0.09	1061227	keystroke	Key.space	n/a
530.8385	0.105	1061677	keystroke	c	n/a
531.003	0.075	1062006	keystroke	l	n/a
531.3935	0.015	1062787	keystroke	a	n/a
531.8285	0.075	1063657	keystroke	s	n/a
531.9935	0.0905	1063987	keystroke	s	n/a
532.2335	0.0305	1064467	keystroke	e	n/a
532.879	0.1045	1065758	keystroke	s	n/a
533.1785	0.09	1066357	keystroke	Key.space	n/a
533.823	0.061	1067646	keystroke	m	n/a
533.944	0.089	1067888	keystroke	a	n/a
534.0935	0.075	1068187	keystroke	l	n/a
534.2885	0.075	1068577	keystroke	i	n/a
534.4235	0.075	1068847	keystroke	t	n/a
534.5585	0.1055	1069117	keystroke	o	n/a
534.9785	0.075	1069957	keystroke	Key.enter	n/a
535.069	11.35	1070138	prompt	n/a	everybody reviewed polyester colombia\n
536.2535	0.06	1072507	keystroke	e	n/a
536.5235	0.075	1073047	keystroke	v	n/a
536.7185	0.135	1073437	keystroke	e	n/a
536.7785	0.165	1073557	keystroke	r	n/a
537.1085	0.0595	1074217	keystroke	y	n/a
537.3185	0.06	1074637	keystroke	b	n/a
537.4985	0.09	1074997	keystroke	o	n/a
537.6035	0.12	1075207	keystroke	d	n/a
537.7835	0.165	1075567	keystroke	y	n/a
537.9035	0.135	1075807	keystroke	Key.space	n/a
538.174	0.09	1076348	keystroke	p	n/a
538.654	0.045	1077308	keystroke	Key.backspace	n/a
538.9385	0.135	1077877	keystroke	r	n/a
539.0435	0.105	1078087	keystroke	e	n/a
539.6885	0.06	1079377	keystroke	v	n/a
539.8685	0.075	1079737	keystroke	i	n/a
540.0185	0.06	1080037	keystroke	e	n/a
540.2885	0.09	1080577	keystroke	w	n/a
540.5135	0.09	1081027	keystroke	e	n/a
541.0085	0.12	1082017	keystroke	d	n/a
541.2785	0.09	1082557	keystroke	Key.space	n/a
541.6235	0.075	1083247	keystroke	p	n/a
541.9835	0.06	1083967	keystroke	o	n/a
542.1785	0.06	1084357	keystroke	l	n/a
542.4935	0.075	1084987	keystroke	y	n/a
542.7335	0.06	1085467	keystroke	e	n/a
542.9585	0.0905	1085917	keystroke	s	n/a
543.1235	0.0755	1086247	keystroke	t	n/a
543.274	0.15	1086548	keystroke	e	n/a
543.3635	0.135	1086727	keystroke	r	n/a
543.574	0.09	1087148	keystroke	Key.space	n/a
544.174	0.09	1088348	keystroke	c	n/a
544.279	0.09	1088558	keystroke	o	n/a
544.489	0.06	1088978	keystroke	l	n/a
544.654	0.06	1089308	keystroke	o	n/a
545.058	0.075	1090116	keystroke	m	n/a
545.344	0.06	1090688	keystroke	b	n/a
545.554	0.0745	1091108	keystroke	i	n/a
545.8235	0.09	1091647	keystroke	a	n/a
546.3035	0.105	1092607	keystroke	Key.enter	n/a
546.4235	11.622	1092847	prompt	n/a	childrens newsletters examine straight\n
547.6085	0.06	1095217	keystroke	c	n/a
547.7585	0.0595	1095517	keystroke	h	n/a
547.924	0.059	1095848	keystroke	i	n/a
548.1035	0.09	1096207	keystroke	l	n/a
548.2085	0.09	1096417	keystroke	d	n/a
548.419	0.1195	1096838	keystroke	r	n/a
548.494	0.1045	1096988	keystroke	e	n/a
548.7185	0.0905	1097437	keystroke	n	n/a
548.944	0.105	1097888	keystroke	s	n/a
549.154	0.075	1098308	keystroke	Key.space	n/a
549.409	0.105	1098818	keystroke	n	n/a
549.529	0.075	1099058	keystroke	e	n/a
549.7685	0.09	1099537	keystroke	w	n/a
550.413	0.106	1100826	keystroke	s	n/a
550.698	0.075	1101396	keystroke	l	n/a
550.803	0.0755	1101606	keystroke	e	n/a
551.688	0.075	1103376	keystroke	t	n/a
551.898	0.045	1103796	keystroke	t	n/a
552.018	0.15	1104036	keystroke	e	n/a
552.108	0.135	1104216	keystroke	r	n/a
552.393	0.075	1104786	keystroke	s	n/a
552.648	0.105	1105296	keystroke	Key.space	n/a
552.934	0.075	1105868	keystroke	e	n/a
553.294	0.075	1106588	keystroke	x	n/a
553.504	0.075	1107008	keystroke	a	n/a
553.624	0.075	1107248	keystroke	m	n/a
553.758	0.09	1107516	keystroke	i	n/a
553.953	0.075	1107906	keystroke	n	n/a
554.088	0.0755	1108176	keystroke	s	n/a
554.433	0.09	1108866	keystroke	Key.space	n/a
554.748	0.09	1109496	keystroke	s	n/a
555.0035	0.075	1110007	keystroke	t	n/a
555.1985	0.045	1110397	keystroke	r	n/a
555.3485	0.075	1110697	keystroke	a	n/a
555.5135	0.06	1111027	keystroke	i	n/a
555.6335	0.09	1111267	keystroke	g	n/a
555.7685	0.06	1111537	keystroke	h	n/a
555.8435	0.0895	1111687	keystroke	t	n/a
558.021	0.012	1116042	keystroke	Key.enter	n/a
558.0505	9.277	1116101	prompt	n/a	department profession gained deals\n
559.0535	0.12	1118107	keystroke	d	n/a
559.129	0.1195	1118258	keystroke	e	n/a
559.3685	0.075	1118737	keystroke	p	n/a
559.4885	0.075	1118977	keystroke	a	n/a
559.7135	0.075	1119427	keystroke	t	n/a
560.058	0.075	1120116	keystroke	Key.backspace	n/a
560.208	0.075	1120416	keystroke	r	n/a
560.403	0.075	1120806	keystroke	t	n/a
560.5985	0.075	1121197	keystroke	m	n/a
560.7335	0.075	1121467	keystroke	e	n/a
560.8535	0.075	1121707	keystroke	n	n/a
560.9735	0.09	1121947	keystroke	t	n/a
561.1235	0.105	1122247	keystroke	Key.space	n/a
561.6335	0.06	1123267	keystroke	p	n/a
561.7685	0.1055	1123537	keystroke	r	n/a
561.9185	0.0755	1123837	keystroke	o	n/a
562.1585	0.0755	1124317	keystroke	f	n/a
562.2185	0.1055	1124437	keystroke	e	n/a
562.4735	0.075	1124947	keystroke	s	n/a
562.624	0.0895	1125248	keystroke	s	n/a
562.8335	0.06	1125667	keystroke	i	n/a
562.9985	0.06	1125997	keystroke	o	n/a
563.2085	0.18	1126417	keystroke	n	n/a
563.3585	0.135	1126717	keystroke	Key.space	n/a
564.378	0.06	1128756	keystroke	g	n/a
564.573	0.075	1129146	keystroke	a	n/a
564.693	0.09	1129386	keystroke	i	n/a
564.888	0.075	1129776	keystroke	n	n/a
564.978	0.06	1129956	keystroke	e	n/a
565.204	0.1045	1130408	keystroke	d	n/a
565.503	0.075	1131006	keystroke	Key.space	n/a
566.2685	0.15	1132537	keystroke	d	n/a
566.3735	0.1195	1132747	keystroke	e	n/a
566.568	0.09	1133136	keystroke	a	n/a
566.703	0.09	1133406	keystroke	l	n/a
566.823	0.12	1133646	keystroke	s	n/a
567.228	0.09	1134456	keystroke	Key.enter	n/a
567.3315	8.4705	1134663	prompt	n/a	prefix exposed estimation but\n
568.383	0.09	1136766	keystroke	p	n/a
568.518	0.12	1137036	keystroke	r	n/a
568.608	0.105	1137216	keystroke	e	n/a
568.8785	0.075	1137757	keystroke	f	n/a
569.043	0.06	1138086	keystroke	i	n/a
569.3735	0.105	1138747	keystroke	x	n/a
569.5535	0.09	1139107	keystroke	Key.space	n/a
569.9735	0.06	1139947	keystroke	e	n/a
570.258	0.105	1140516	keystroke	c	n/a
570.978	0.09	1141956	keystroke	Key.backspace	n/a
571.248	0.075	1142496	keystroke	x	n/a
571.413	0.09	1142826	keystroke	p	n/a
571.5785	0.09	1143157	keystroke	o	n/a
571.773	0.06	1143546	keystroke	s	n/a
571.954	0.135	1143908	keystroke	e	n/a
572.1035	0.18	1144207	keystroke	d	n/a
572.3285	0.105	1144657	keystroke	Key.space	n/a
572.7785	0.06	1145557	keystroke	e	n/a
573.0185	0.09	1146037	keystroke	s	n/a
573.3035	0.075	1146607	keystroke	t	n/a
573.4685	0.075	1146937	keystroke	i	n/a
573.6335	0.105	1147267	keystroke	m	n/a
573.7835	0.075	1147567	keystroke	a	n/a
574.0085	0.0895	1148017	keystroke	t	n/a
574.099	0.074	1148198	keystroke	i	n/a
574.263	0.075	1148526	keystroke	o	n/a
574.443	0.1805	1148886	keystroke	n	n/a
574.5935	0.105	1149187	keystroke	Key.space	n/a
574.9385	0.09	1149877	keystroke	b	n/a
575.1185	0.105	1150237	keystroke	u	n/a
575.3135	0.09	1150627	keystroke	t	n/a
575.6885	0.105	1151377	keystroke	Key.enter	n/a
575.806	14.2325	1151612	prompt	n/a	detection governor failures routing\n
576.9785	0.105	1153957	keystroke	d	n/a
577.0685	0.09	1154137	keystroke	e	n/a
577.2785	0.12	1154557	keystroke	t	n/a
577.4135	0.105	1154827	keystroke	e	n/a
577.7285	0.09	1155457	keystroke	c	n/a
577.9985	0.075	1155997	keystroke	t	n/a
578.1335	0.075	1156267	keystroke	i	n/a
578.3285	0.045	1156657	keystroke	o	n/a
578.5375	0.1505	1157075	keystroke	n	n/a
578.673	0.105	1157346	keystroke	Key.space	n/a
579.423	0.09	1158846	keystroke	g	n/a
579.558	0.0905	1159116	keystroke	o	n/a
579.723	0.075	1159446	keystroke	v	n/a
581.148	0.12	1162296	keystroke	e	n/a
581.5535	0.09	1163107	keystroke	r	n/a
582.228	0.075	1164456	keystroke	n	n/a
582.438	0.09	1164876	keystroke	o	n/a
582.723	0.075	1165446	keystroke	r	n/a
582.918	0.12	1165836	keystroke	Key.space	n/a
583.908	0.075	1167816	keystroke	f	n/a
584.088	0.0905	1168176	keystroke	a	n/a
584.2235	0.06	1168447	keystroke	i	n/a
584.4185	0.075	1168837	keystroke	l	n/a
584.6435	0.075	1169287	keystroke	u	n/a
584.7335	0.15	1169467	keystroke	r	n/a
584.8535	0.1045	1169707	keystroke	e	n/a
585.108	0.105	1170216	keystroke	s	n/a
585.333	0.075	1170666	keystroke	Key.space	n/a
586.068	0.1055	1172136	keystroke	r	n/a
586.2185	0.12	1172437	keystroke	o	n/a
586.3835	0.135	1172767	keystroke	u	n/a
587.4185	0.075	1174837	keystroke	t	n/a
587.6135	0.06	1175227	keystroke	i	n/a
587.8235	0.09	1175647	keystroke	n	n/a
587.9585	0.06	1175917	keystroke	g	n/a
589.9535	0.0755	1179907	keystroke	Key.enter	n/a
590.043	7.929	1180086	prompt	n/a	keith know shown discretion\n
591.1535	0.075	1182307	keystroke	k	n/a
591.2435	0.105	1182487	keystroke	e	n/a
591.3935	0.075	1182787	keystroke	i	n/a
591.5135	0.105	1183027	keystroke	t	n/a
591.6035	0.18	1183207	keystroke	h	n/a
591.7385	0.15	1183477	keystroke	Key.space	n/a
592.6835	0.12	1185367	keystroke	k	n/a
592.7585	0.105	1185517	keystroke	n	n/a
592.9385	0.0745	1185877	keystroke	o	n/a
593.058	0.075	1186116	keystroke	w	n/a
593.223	0.075	1186446	keystroke	Key.space	n/a
593.418	0.105	1186836	keystroke	s	n/a
593.508	0.075	1187016	keystroke	h	n/a
593.688	0.105	1187376	keystroke	o	n/a
593.808	0.09	1187616	keystroke	w	n/a
593.973	0.166	1187946	keystroke	n	n/a
594.094	0.119	1188188	keystroke	Key.space	n/a
594.664	0.075	1189328	keystroke	s	n/a
595.2935	0.045	1190587	keystroke	Key.backspace	n/a
595.4585	0.075	1190917	keystroke	d	n/a
595.5785	0.09	1191157	keystroke	i	n/a
595.7585	0.09	1191517	keystroke	s	n/a
596.223	0.105	1192446	keystroke	c	n/a
596.463	0.1055	1192926	keystroke	r	n/a
596.5535	0.135	1193107	keystroke	e	n/a
596.8835	0.075	1193767	keystroke	t	n/a
597.0035	0.075	1194007	keystroke	i	n/a
597.1835	0.06	1194367	keystroke	o	n/a
597.3935	0.12	1194787	keystroke	n	n/a
597.8735	0.09	1195747	keystroke	Key.enter	n/a
597.976	8.3515	1195952	prompt	n/a	duty conversation rolls infant\n
599.0585	0.075	1198117	keystroke	d	n/a
599.1935	0.09	1198387	keystroke	u	n/a
599.3735	0.09	1198747	keystroke	t	n/a
599.5085	0.165	1199017	keystroke	y	n/a
599.6285	0.165	1199257	keystroke	Key.space	n/a
599.8985	0.0745	1199797	keystroke	c	n/a
599.9285	0.0745	1199857	keystroke	o	n/a
600.108	0.135	1200216	keystroke	n	n/a
600.288	0.075	1200576	keystroke	v	n/a
600.468	0.12	1200936	keystroke	e	n/a
600.558	0.105	1201116	keystroke	r	n/a
600.903	0.09	1201806	keystroke	s	n/a
601.023	0.12	1202046	keystroke	a	n/a
601.308	0.09	1202616	keystroke	t	n/a
601.428	0.0755	1202856	keystroke	i	n/a
601.6385	0.015	1203277	keystroke	o	n/a
601.8035	0.1805	1203607	keystroke	n	n/a
601.954	0.1195	1203908	keystroke	Key.space	n/a
602.2685	0.09	1204537	keystroke	r	n/a
602.3735	0.09	1204747	keystroke	o	n/a
602.5685	0.06	1205137	keystroke	l	n/a
602.704	0.0895	1205408	keystroke	l	n/a
602.8985	0.09	1205797	keystroke	s	n/a
603.094	0.075	1206188	keystroke	Key.space	n/a
603.259	0.075	1206518	keystroke	i	n/a
603.409	0.1195	1206818	keystroke	n	n/a
603.559	0.0445	1207118	keystroke	f	n/a
603.709	0.0745	1207418	keystroke	a	n/a
603.859	0.0745	1207718	keystroke	n	n/a
604.5335	0.09	1209067	keystroke	t	n/a
604.7135	0.09	1209427	keystroke	Key.space	n/a
606.198	0.12	1212396	keystroke	Key.enter	n/a
606.3315	8.622	1212663	prompt	n/a	savage hiking entity witnesses\n
607.3535	0.12	1214707	keystroke	s	n/a
607.4435	0.105	1214887	keystroke	a	n/a
607.7285	0.06	1215457	keystroke	v	n/a
607.894	0.075	1215788	keystroke	a	n/a
608.209	0.06	1216418	keystroke	g	n/a
608.329	0.075	1216658	keystroke	e	n/a
608.449	0.074	1216898	keystroke	Key.space	n/a
608.629	0.075	1217258	keystroke	h	n/a
608.794	0.03	1217588	keystroke	i	n/a
609.004	0.104	1218008	keystroke	k	n/a
609.213	0.075	1218426	keystroke	i	n/a
609.378	0.091	1218756	keystroke	n	n/a
609.543	0.105	1219086	keystroke	g	n/a
609.768	0.09	1219536	keystroke	Key.space	n/a
610.144	0.074	1220288	keystroke	e	n/a
610.458	0.09	1220916	keystroke	n	n/a
610.653	0.06	1221306	keystroke	t	n/a
610.758	0.09	1221516	keystroke	i	n/a
610.893	0.1055	1221786	keystroke	t	n/a
611.118	0.18	1222236	keystroke	y	n/a
611.223	0.18	1222446	keystroke	Key.space	n/a
611.568	0.1205	1223136	keystroke	w	n/a
611.7335	0.09	1223467	keystroke	i	n/a
611.8985	0.09	1223797	keystroke	t	n/a
612.2135	0.09	1224427	keystroke	n	n/a
612.2885	0.09	1224577	keystroke	e	n/a
612.5135	0.075	1225027	keystroke	s	n/a
612.6785	0.09	1225357	keystroke	s	n/a
613.0235	0.06	1226047	keystroke	e	n/a
613.219	0.09	1226438	keystroke	s	n/a
613.534	0.09	1227068	keystroke	'	n/a
614.523	0.06	1229046	keystroke	Key.backspace	n/a
614.868	0.0755	1229736	keystroke	Key.enter	n/a
614.9585	9.925	1229917	prompt	n/a	comprehensive mysterious terrain thee\n
616.0985	0.045	1232197	keystroke	c	n/a
616.2035	0.06	1232407	keystroke	o	n/a
616.3685	0.075	1232737	keystroke	m	n/a
616.5485	0.0745	1233097	keystroke	p	n/a
616.804	0.1345	1233608	keystroke	r	n/a
616.908	0.1205	1233816	keystroke	e	n/a
617.2235	0.06	1234447	keystroke	h	n/a
617.4785	0.09	1234957	keystroke	e	n/a
617.6435	0.09	1235287	keystroke	n	n/a
617.8385	0.09	1235677	keystroke	s	n/a
617.9735	0.0755	1235947	keystroke	i	n/a
618.214	0.06	1236428	keystroke	v	n/a
618.3635	0.0905	1236727	keystroke	e	n/a
618.5285	0.105	1237057	keystroke	Key.space	n/a
619.1735	0.0895	1238347	keystroke	m	n/a
619.474	0.06	1238948	keystroke	y	n/a
619.5935	0.105	1239187	keystroke	s	n/a
619.8335	0.075	1239667	keystroke	t	n/a
619.9085	0.18	1239817	keystroke	e	n/a
620.0435	0.1345	1240087	keystroke	r	n/a
620.298	0.091	1240596	keystroke	i	n/a
620.509	0.06	1241018	keystroke	o	n/a
620.659	0.074	1241318	keystroke	u	n/a
620.808	0.091	1241616	keystroke	s	n/a
620.973	0.09	1241946	keystroke	Key.space	n/a
621.993	0.09	1243986	keystroke	t	n/a
622.128	0.105	1244256	keystroke	e	n/a
622.368	0.06	1244736	keystroke	r	n/a
622.548	0.045	1245096	keystroke	r	n/a
622.668	0.075	1245336	keystroke	a	n/a
622.773	0.075	1245546	keystroke	i	n/a
622.953	0.1805	1245906	keystroke	n	n/a
623.1035	0.12	1246207	keystroke	Key.space	n/a
623.9735	0.0745	1247947	keystroke	t	n/a
624.108	0.09	1248216	keystroke	h	n/a
624.228	0.075	1248456	keystroke	e	n/a
624.423	0.075	1248846	keystroke	e	n/a
624.828	0.045	1249656	keystroke	Key.enter	n/a
624.889	9.894	1249778	prompt	n/a	lauren forests threats consistency\n
626.1035	0.0905	1252207	keystroke	l	n/a
626.479	0.089	1252958	keystroke	a	n/a
626.628	0.09	1253256	keystroke	u	n/a
627.483	0.09	1254966	keystroke	r	n/a
627.708	0.075	1255416	keystroke	e	n/a
627.933	0.2105	1255866	keystroke	n	n/a
628.083	0.1355	1256166	keystroke	Key.space	n/a
628.6535	0.075	1257307	keystroke	f	n/a
628.7585	0.09	1257517	keystroke	o	n/a
628.8635	0.105	1257727	keystroke	r	n/a
629.0135	0.09	1258027	keystroke	e	n/a
629.2385	0.075	1258477	keystroke	s	n/a
629.4335	0.075	1258867	keystroke	t	n/a
629.658	0.105	1259316	keystroke	s	n/a
629.928	0.075	1259856	keystroke	Key.space	n/a
630.498	0.075	1260996	keystroke	t	n/a
630.663	0.09	1261326	keystroke	h	n/a
630.978	0.135	1261956	keystroke	r	n/a
631.053	0.135	1262106	keystroke	e	n/a
631.323	0.09	1262646	keystroke	a	n/a
631.593	0.09	1263186	keystroke	t	n/a
631.773	0.09	1263546	keystroke	s	n/a
632.013	0.075	1264026	keystroke	Key.space	n/a
632.268	0.12	1264536	keystroke	c	n/a
632.403	0.075	1264806	keystroke	o	n/a
632.613	0.105	1265226	keystroke	n	n/a
632.763	0.09	1265526	keystroke	s	n/a
632.898	0.075	1265796	keystroke	i	n/a
633.003	0.06	1266006	keystroke	s	n/a
633.243	0.09	1266486	keystroke	t	n/a
633.438	0.09	1266876	keystroke	e	n/a
633.603	0.09	1267206	keystroke	n	n/a
633.783	0.12	1267566	keystroke	c	n/a
634.023	0.0905	1268046	keystroke	y	n/a
634.683	0.09	1269366	keystroke	Key.enter	n/a
634.789	12.744	1269578	prompt	n/a	indonesian shades victory intervention\n
635.6435	0.06	1271287	keystroke	i	n/a
635.8085	0.075	1271617	keystroke	n	n/a
635.928	0.105	1271856	keystroke	d	n/a
636.063	0.075	1272126	keystroke	o	n/a
636.258	0.09	1272516	keystroke	n	n/a
637.038	0.015	1274076	keystroke	Key.backspace	n/a
637.743	0.075	1275486	keystroke	n	n/a
637.893	0.09	1275786	keystroke	e	n/a
638.1035	0.105	1276207	keystroke	s	n/a
638.3435	0.075	1276687	keystroke	i	n/a
638.553	0.075	1277106	keystroke	a	n/a
638.7185	0.21	1277437	keystroke	n	n/a
638.8535	0.135	1277707	keystroke	Key.space	n/a
639.4235	0.105	1278847	keystroke	s	n/a
639.5885	0.075	1279177	keystroke	h	n/a
639.6935	0.09	1279387	keystroke	a	n/a
639.8135	0.09	1279627	keystroke	i	n/a
640.3375	0.09	1280675	keystroke	Key.backspace	n/a
640.4735	0.195	1280947	keystroke	d	n/a
640.5935	0.135	1281187	keystroke	e	n/a
640.8935	0.09	1281787	keystroke	Key.space	n/a
641.733	0.09	1283466	keystroke	c	n/a
642.1235	0.075	1284247	keystroke	Key.backspace	n/a
642.3335	0.06	1284667	keystroke	v	n/a
642.4235	0.075	1284847	keystroke	i	n/a
642.5885	0.09	1285177	keystroke	c	n/a
642.8285	0.105	1285657	keystroke	t	n/a
642.9935	0.09	1285987	keystroke	o	n/a
643.2485	0.15	1286497	keystroke	y	n/a
643.7435	0.06	1287487	keystroke	Key.backspace	n/a
643.8785	0.09	1287757	keystroke	r	n/a
644.0435	0.15	1288087	keystroke	y	n/a
644.1635	0.15	1288327	keystroke	Key.space	n/a
644.973	0.105	1289946	keystroke	i	n/a
645.093	0.12	1290186	keystroke	n	n/a
645.228	0.09	1290456	keystroke	t	n/a
645.378	0.12	1290756	keystroke	e	n/a
645.453	0.135	1290906	keystroke	r	n/a
645.828	0.075	1291656	keystroke	v	n/a
645.993	0.09	1291986	keystroke	e	n/a
646.128	0.075	1292256	keystroke	n	n/a
646.248	0.075	1292496	keystroke	t	n/a
646.4135	0.06	1292827	keystroke	i	n/a
646.5935	0.045	1293187	keystroke	o	n/a
646.7885	0.105	1293577	keystroke	n	n/a
647.4035	0.1195	1294807	keystroke	Key.enter	n/a
647.537	9.0705	1295074	prompt	n/a	maintain brunei bias spreading\n
648.483	0.075	1296966	keystroke	m	n/a
648.573	0.09	1297146	keystroke	a	n/a
648.678	0.09	1297356	keystroke	i	n/a
648.858	0.075	1297716	keystroke	n	n/a
649.0535	0.045	1298107	keystroke	t	n/a
649.2335	0.06	1298467	keystroke	a	n/a
649.3235	0.075	1298647	keystroke	i	n/a
649.5035	0.224	1299007	keystroke	n	n/a
649.7125	0.181	1299425	keystroke	Key.space	n/a
650.238	0.0895	1300476	keystroke	b	n/a
650.4935	0.0745	1300987	keystroke	r	n/a
651.4535	0.105	1302907	keystroke	u	n/a
652.4135	0.09	1304827	keystroke	n	n/a
652.6685	0.105	1305337	keystroke	e	n/a
652.8785	0.0895	1305757	keystroke	i	n/a
653.223	0.075	1306446	keystroke	Key.space	n/a
654.003	0.06	1308006	keystroke	b	n/a
654.168	0.09	1308336	keystroke	i	n/a
654.258	0.09	1308516	keystroke	a	n/a
654.438	0.12	1308876	keystroke	s	n/a
654.6335	0.06	1309267	keystroke	Key.space	n/a
654.7835	0.09	1309567	keystroke	s	n/a
654.9485	0.075	1309897	keystroke	p	n/a
655.113	0.12	1310226	keystroke	r	n/a
655.158	0.135	1310316	keystroke	e	n/a
655.413	0.18	1310826	keystroke	a	n/a
655.608	0.105	1311216	keystroke	d	n/a
655.728	0.09	1311456	keystroke	i	n/a
655.923	0.105	1311846	keystroke	n	n/a
656.058	0.105	1312116	keystroke	g	n/a
656.493	0.105	1312986	keystroke	Key.enter	n/a
656.612	12.868	1313224	prompt	n/a	tramadol checklist priorities deviation\n
658.1135	0.1195	1316227	keystroke	t	n/a
658.174	0.119	1316348	keystroke	r	n/a
658.443	0.075	1316886	keystroke	a	n/a
658.608	0.075	1317216	keystroke	m	n/a
658.7285	0.09	1317457	keystroke	a	n/a
659.2085	0.105	1318417	keystroke	d	n/a
659.2985	0.075	1318597	keystroke	o	n/a
659.5235	0.165	1319047	keystroke	l	n/a
659.7035	0.105	1319407	keystroke	Key.space	n/a
661.143	0.09	1322286	keystroke	c	n/a
661.293	0.045	1322586	keystroke	h	n/a
661.938	0.045	1323876	keystroke	e	n/a
662.1335	0.135	1324267	keystroke	c	n/a
662.2985	0.075	1324597	keystroke	k	n/a
662.4935	0.06	1324987	keystroke	l	n/a
662.6435	0.09	1325287	keystroke	i	n/a
662.7635	0.09	1325527	keystroke	s	n/a
663.0485	0.06	1326097	keystroke	t	n/a
663.1985	0.105	1326397	keystroke	Key.space	n/a
663.7385	0.045	1327477	keystroke	p	n/a
664.0385	0.045	1328077	keystroke	r	n/a
664.1735	0.075	1328347	keystroke	i	n/a
664.5485	0.09	1329097	keystroke	o	n/a
664.8935	0.089	1329787	keystroke	r	n/a
665.0725	0.076	1330145	keystroke	i	n/a
665.2525	0.076	1330505	keystroke	t	n/a
665.3435	0.119	1330687	keystroke	i	n/a
665.553	0.0895	1331106	keystroke	e	n/a
665.7925	0.091	1331585	keystroke	s	n/a
666.0175	0.076	1332035	keystroke	Key.space	n/a
666.8135	0.135	1333627	keystroke	d	n/a
666.9035	0.105	1333807	keystroke	e	n/a
667.2335	0.075	1334467	keystroke	v	n/a
667.3985	0.075	1334797	keystroke	i	n/a
667.5635	0.075	1335127	keystroke	a	n/a
667.8185	0.06	1335637	keystroke	t	n/a
667.8935	0.075	1335787	keystroke	i	n/a
668.0735	0.06	1336147	keystroke	o	n/a
668.2385	0.09	1336477	keystroke	n	n/a
669.3485	0.12	1338697	keystroke	Key.enter	n/a
669.4855	10.567	1338971	prompt	n/a	approval crop described motherboard\n
670.488	0.075	1340976	keystroke	a	n/a
670.9685	0.06	1341937	keystroke	p	n/a
671.1485	0.06	1342297	keystroke	p	n/a
671.2685	0.09	1342537	keystroke	r	n/a
671.4485	0.06	1342897	keystroke	o	n/a
671.7185	0.075	1343437	keystroke	v	n/a
671.9285	0.075	1343857	keystroke	a	n/a
672.0485	0.225	1344097	keystroke	l	n/a
672.1975	0.135	1344395	keystroke	Key.space	n/a
673.113	0.06	1346226	keystroke	c	n/a
673.308	0.09	1346616	keystroke	r	n/a
673.818	0.075	1347636	keystroke	o	n/a
674.0435	0.225	1348087	keystroke	p	n/a
674.2235	0.165	1348447	keystroke	Key.space	n/a
675.033	0.0755	1350066	keystroke	d	n/a
675.2135	0.09	1350427	keystroke	e	n/a
675.5585	0.06	1351117	keystroke	s	n/a
675.7535	0.105	1351507	keystroke	c	n/a
676.0085	0.06	1352017	keystroke	r	n/a
676.1585	0.075	1352317	keystroke	i	n/a
676.3385	0.09	1352677	keystroke	b	n/a
676.4585	0.06	1352917	keystroke	e	n/a
676.6685	0.09	1353337	keystroke	d	n/a
677.043	0.105	1354086	keystroke	Key.space	n/a
677.283	0.075	1354566	keystroke	m	n/a
677.433	0.075	1354866	keystroke	o	n/a
677.568	0.09	1355136	keystroke	t	n/a
677.673	0.075	1355346	keystroke	h	n/a
677.778	0.135	1355556	keystroke	e	n/a
677.853	0.165	1355706	keystroke	r	n/a
678.213	0.075	1356426	keystroke	b	n/a
678.423	0.09	1356846	keystroke	o	n/a
678.528	0.105	1357056	keystroke	a	n/a
678.783	0.075	1357566	keystroke	r	n/a
679.0085	0.09	1358017	keystroke	d	n/a
679.9985	0.045	1359997	keystroke	Key.enter	n/a
680.0565	6.506	1360113	prompt	n/a	korean play pencil duty\n
681.5885	0.135	1363177	keystroke	k	n/a
681.7685	0.1045	1363537	keystroke	o	n/a
681.978	0.12	1363956	keystroke	r	n/a
682.053	0.105	1364106	keystroke	e	n/a
682.278	0.09	1364556	keystroke	a	n/a
682.383	0.18	1364766	keystroke	n	n/a
682.518	0.135	1365036	keystroke	Key.space	n/a
682.773	0.135	1365546	keystroke	p	n/a
682.863	0.1805	1365726	keystroke	l	n/a
683.0585	0.0895	1366117	keystroke	a	n/a
683.403	0.135	1366806	keystroke	y	n/a
683.493	0.135	1366986	keystroke	Key.space	n/a
683.748	0.091	1367496	keystroke	p	n/a
683.868	0.09	1367736	keystroke	e	n/a
684.003	0.105	1368006	keystroke	n	n/a
684.228	0.09	1368456	keystroke	c	n/a
684.319	0.104	1368638	keystroke	i	n/a
684.588	0.255	1369176	keystroke	l	n/a
684.738	0.15	1369476	keystroke	Key.space	n/a
685.548	0.06	1371096	keystroke	d	n/a
685.638	0.09	1371276	keystroke	u	n/a
685.833	0.06	1371666	keystroke	t	n/a
685.938	0.12	1371876	keystroke	y	n/a
686.418	0.135	1372836	keystroke	Key.enter	n/a
686.5665	10.1815	1373133	prompt	n/a	karaoke ebooks surrounding candy\n
687.723	0.0755	1375446	keystroke	k	n/a
687.828	0.0755	1375656	keystroke	a	n/a
688.0535	0.105	1376107	keystroke	r	n/a
688.1735	0.09	1376347	keystroke	a	n/a
688.938	0.09	1377876	keystroke	o	n/a
689.298	0.09	1378596	keystroke	k	n/a
689.538	0.09	1379076	keystroke	e	n/a
690.1385	0.135	1380277	keystroke	Key.space	n/a
690.2885	0.075	1380577	keystroke	e	n/a
691.158	0.06	1382316	keystroke	b	n/a
691.383	0.0605	1382766	keystroke	o	n/a
691.5175	0.121	1383035	keystroke	o	n/a
691.5785	0.165	1383157	keystroke	k	n/a
691.8775	0.09	1383755	keystroke	s	n/a
692.0725	0.1055	1384145	keystroke	Key.space	n/a
692.5825	0.121	1385165	keystroke	s	n/a
692.7925	0.06	1385585	keystroke	u	n/a
692.9725	0.03	1385945	keystroke	r	n/a
693.1075	0.09	1386215	keystroke	r	n/a
693.2125	0.135	1386425	keystroke	o	n/a
693.3025	0.105	1386605	keystroke	u	n/a
693.5275	0.106	1387055	keystroke	n	n/a
694.1135	0.09	1388227	keystroke	d	n/a
694.2785	0.075	1388557	keystroke	i	n/a
694.4885	0.075	1388977	keystroke	n	n/a
694.6085	0.09	1389217	keystroke	g	n/a
694.7435	0.105	1389487	keystroke	Key.space	n/a
695.2085	0.105	1390417	keystroke	c	n/a
695.4335	0.075	1390867	keystroke	a	n/a
695.5235	0.105	1391047	keystroke	n	n/a
695.8985	0.135	1391797	keystroke	d	n/a
696.153	0.09	1392306	keystroke	y	n/a
696.603	0.135	1393206	keystroke	Key.enter	n/a
696.7525	13.1945	1393505	prompt	n/a	respective comparable handbook confusion\n
697.953	0.09	1395906	keystroke	r	n/a
697.983	0.135	1395966	keystroke	e	n/a
698.238	0.09	1396476	keystroke	s	n/a
698.388	0.075	1396776	keystroke	p	n/a
698.493	0.09	1396986	keystroke	e	n/a
698.7335	0.09	1397467	keystroke	c	n/a
699.0485	0.09	1398097	keystroke	i	n/a
699.2435	0.045	1398487	keystroke	v	n/a
699.588	0.09	1399176	keystroke	Key.backspace	n/a
699.7835	0.09	1399567	keystroke	t	n/a
699.933	0.09	1399866	keystroke	i	n/a
700.8635	0.06	1401727	keystroke	Key.backspace	n/a
701.148	0.075	1402296	keystroke	Key.backspace	n/a
701.403	0.06	1402806	keystroke	Key.backspace	n/a
702.1685	0.09	1404337	keystroke	t	n/a
702.3185	0.075	1404637	keystroke	i	n/a
702.5135	0.06	1405027	keystroke	v	n/a
702.7675	0.015	1405535	keystroke	e	n/a
702.8425	0.106	1405685	keystroke	Key.space	n/a
703.0535	0.105	1406107	keystroke	c	n/a
703.1435	0.09	1406287	keystroke	o	n/a
703.8185	0.075	1407637	keystroke	m	n/a
704.028	0.0895	1408056	keystroke	p	n/a
704.2225	0.0755	1408445	keystroke	a	n/a
704.4035	0.15	1408807	keystroke	r	n/a
704.5085	0.105	1409017	keystroke	a	n/a
704.8385	0.06	1409677	keystroke	b	n/a
705.0485	0.0895	1410097	keystroke	l	n/a
705.168	0.06	1410336	keystroke	e	n/a
705.333	0.09	1410666	keystroke	Key.space	n/a
706.2775	0.075	1412555	keystroke	h	n/a
706.3675	0.075	1412735	keystroke	a	n/a
706.5025	0.09	1413005	keystroke	n	n/a
706.6225	0.105	1413245	keystroke	d	n/a
706.8475	0.075	1413695	keystroke	b	n/a
707.0425	0.075	1414085	keystroke	o	n/a
707.1935	0.15	1414387	keystroke	o	n/a
707.2825	0.211	1414565	keystroke	k	n/a
707.4635	0.09	1414927	keystroke	Key.space	n/a
707.9735	0.165	1415947	keystroke	c	n/a
708.1835	0.075	1416367	keystroke	o	n/a
708.4085	0.075	1416817	keystroke	n	n/a
708.7085	0.12	1417417	keystroke	f	n/a
708.8735	0.09	1417747	keystroke	u	n/a
708.979	0.089	1417958	keystroke	s	n/a
709.113	0.075	1418226	keystroke	i	n/a
709.308	0.06	1418616	keystroke	o	n/a
709.533	0.075	1419066	keystroke	n	n/a
709.818	0.12	1419636	keystroke	Key.enter	n/a
709.951	9.357	1419902	prompt	n/a	organizations nashville wheat having\n
710.898	0.09	1421796	keystroke	o	n/a
711.033	0.09	1422066	keystroke	r	n/a
711.258	0.06	1422516	keystroke	g	n/a
711.423	0.09	1422846	keystroke	a	n/a
711.528	0.075	1423056	keystroke	n	n/a
711.663	0.09	1423326	keystroke	i	n/a
711.813	0.0745	1423626	keystroke	z	n/a
712.0225	0.06	1424045	keystroke	a	n/a
712.263	0.105	1424526	keystroke	t	n/a
712.383	0.045	1424766	keystroke	i	n/a
712.5175	0.06	1425035	keystroke	o	n/a
712.7125	0.06	1425425	keystroke	n	n/a
712.8025	0.075	1425605	keystroke	s	n/a
712.9225	0.091	1425845	keystroke	Key.space	n/a
713.0885	0.09	1426177	keystroke	n	n/a
713.1635	0.15	1426327	keystroke	a	n/a
713.3285	0.135	1426657	keystroke	s	n/a
713.5235	0.075	1427047	keystroke	j	n/a
713.8985	0.09	1427797	keystroke	Key.backspace	n/a
714.153	0.075	1428306	keystroke	h	n/a
714.393	0.075	1428786	keystroke	v	n/a
714.618	0.075	1429236	keystroke	i	n/a
714.813	0.06	1429626	keystroke	l	n/a
714.948	0.075	1429896	keystroke	l	n/a
715.053	0.075	1430106	keystroke	e	n/a
715.248	0.09	1430496	keystroke	Key.space	n/a
715.788	0.105	1431576	keystroke	w	n/a
716.103	0.06	1432206	keystroke	h	n/a
716.208	0.105	1432416	keystroke	e	n/a
716.478	0.075	1432956	keystroke	a	n/a
716.703	0.105	1433406	keystroke	t	n/a
716.838	0.09	1433676	keystroke	Key.space	n/a
717.078	0.075	1434156	keystroke	h	n/a
717.618	0.0905	1435236	keystroke	a	n/a
718.1435	0.075	1436287	keystroke	v	n/a
718.3385	0.075	1436677	keystroke	i	n/a
718.4885	0.09	1436977	keystroke	n	n/a
718.5935	0.105	1437187	keystroke	g	n/a
719.1635	0.135	1438327	keystroke	Key.enter	n/a
719.313	12.264	1438626	prompt	n/a	created developers approach presented\n
720.4835	0.074	1440967	keystroke	v	n/a
720.6025	0.12	1441205	keystroke	r	n/a
720.6775	0.105	1441355	keystroke	e	n/a
721.1575	0.075	1442315	keystroke	Key.backspace	n/a
721.413	0.09	1442826	keystroke	Key.backspace	n/a
721.668	0.075	1443336	keystroke	Key.backspace	n/a
721.953	0.105	1443906	keystroke	c	n/a
722.238	0.09	1444476	keystroke	r	n/a
722.313	0.12	1444626	keystroke	e	n/a
722.523	0.075	1445046	keystroke	a	n/a
722.733	0.075	1445466	keystroke	t	n/a
722.778	0.09	1445556	keystroke	e	n/a
722.988	0.105	1445976	keystroke	d	n/a
723.153	0.09	1446306	keystroke	Key.space	n/a
723.258	0.09	1446516	keystroke	d	n/a
723.468	0.075	1446936	keystroke	e	n/a
723.738	0.045	1447476	keystroke	v	n/a
723.858	0.075	1447716	keystroke	e	n/a
724.0825	0.061	1448165	keystroke	l	n/a
724.2635	0.059	1448527	keystroke	o	n/a
724.4125	0.06	1448825	keystroke	p	n/a
724.5175	0.09	1449035	keystroke	e	n/a
724.6835	0.119	1449367	keystroke	r	n/a
724.9375	0.045	1449875	keystroke	Key.space	n/a
725.0125	0.06	1450025	keystroke	s	n/a
725.2825	0.075	1450565	keystroke	Key.backspace	n/a
725.4625	0.06	1450925	keystroke	Key.backspace	n/a
725.6125	0.09	1451225	keystroke	s	n/a
725.8375	0.09	1451675	keystroke	Key.space	n/a
726.3775	0.091	1452755	keystroke	a	n/a
726.7375	0.075	1453475	keystroke	p	n/a
726.918	0.075	1453836	keystroke	p	n/a
727.038	0.12	1454076	keystroke	r	n/a
727.308	0.075	1454616	keystroke	o	n/a
727.503	0.09	1455006	keystroke	a	n/a
727.743	0.105	1455486	keystroke	c	n/a
727.878	0.18	1455756	keystroke	h	n/a
728.013	0.165	1456026	keystroke	Key.space	n/a
728.448	0.06	1456896	keystroke	a	n/a
728.763	0.06	1457526	keystroke	Key.backspace	n/a
728.9885	0.09	1457977	keystroke	p	n/a
729.1535	0.12	1458307	keystroke	r	n/a
729.2135	0.119	1458427	keystroke	e	n/a
729.4675	0.075	1458935	keystroke	s	n/a
729.6325	0.075	1459265	keystroke	e	n/a
729.8435	0.0745	1459687	keystroke	n	n/a
729.963	0.075	1459926	keystroke	t	n/a
730.278	0.09	1460556	keystroke	e	n/a
730.563	0.09	1461126	keystroke	d	n/a
731.433	0.135	1462866	keystroke	Key.enter	n/a
731.5815	11.189	1463163	prompt	n/a	defined arkansas andorra jurisdiction\n
732.5885	0.135	1465177	keystroke	d	n/a
732.6925	0.105	1465385	keystroke	e	n/a
732.888	0.09	1465776	keystroke	f	n/a
733.128	0.09	1466256	keystroke	i	n/a
733.308	0.0905	1466616	keystroke	n	n/a
733.4285	0.075	1466857	keystroke	e	n/a
733.6985	0.09	1467397	keystroke	d	n/a
733.8485	0.075	1467697	keystroke	Key.space	n/a
734.103	0.045	1468206	keystroke	a	n/a
734.313	0.075	1468626	keystroke	r	n/a
734.508	0.09	1469016	keystroke	k	n/a
734.883	0.09	1469766	keystroke	a	n/a
735.288	0.0595	1470576	keystroke	n	n/a
735.843	0.09	1471686	keystroke	s	n/a
735.993	0.1205	1471986	keystroke	a	n/a
736.1435	0.15	1472287	keystroke	s	n/a
736.3985	0.0895	1472797	keystroke	Key.space	n/a
736.818	0.075	1473636	keystroke	a	n/a
736.998	0.075	1473996	keystroke	n	n/a
737.478	0.1045	1474956	keystroke	d	n/a
737.6275	0.075	1475255	keystroke	o	n/a
737.8535	0.0445	1475707	keystroke	r	n/a
738.0035	0.09	1476007	keystroke	r	n/a
738.1385	0.09	1476277	keystroke	a	n/a
738.3035	0.105	1476607	keystroke	Key.space	n/a
739.1285	0.06	1478257	keystroke	j	n/a
739.2935	0.075	1478587	keystroke	u	n/a
739.4135	0.09	1478827	keystroke	r	n/a
739.563	0.09	1479126	keystroke	i	n/a
739.728	0.105	1479456	keystroke	s	n/a
740.5075	0.061	1481015	keystroke	s	n/a
740.8975	0.106	1481795	keystroke	Key.backspace	n/a
741.1235	0.09	1482247	keystroke	d	n/a
741.2435	0.075	1482487	keystroke	i	n/a
741.4085	0.09	1482817	keystroke	c	n/a
741.6335	0.09	1483267	keystroke	t	n/a
741.7385	0.075	1483477	keystroke	i	n/a
741.888	0.075	1483776	keystroke	o	n/a
742.113	0.075	1484226	keystroke	n	n/a
742.608	0.15	1485216	keystroke	Key.enter	n/a
742.779	7.4655	1485558	prompt	n/a	based chaos diane agreement\n
744.0635	0.0745	1488127	keystroke	b	n/a
744.153	0.135	1488306	keystroke	a	n/a
744.243	0.12	1488486	keystroke	s	n/a
744.468	0.15	1488936	keystroke	e	n/a
744.588	0.15	1489176	keystroke	d	n/a
744.753	0.09	1489506	keystroke	Key.space	n/a
744.918	0.09	1489836	keystroke	c	n/a
745.038	0.075	1490076	keystroke	h	n/a
745.158	0.075	1490316	keystroke	a	n/a
746.238	0.075	1492476	keystroke	o	n/a
746.568	0.12	1493136	keystroke	s	n/a
746.733	0.12	1493466	keystroke	Key.space	n/a
747.5575	0.076	1495115	keystroke	d	n/a
747.6785	0.09	1495357	keystroke	i	n/a
747.7975	0.106	1495595	keystroke	a	n/a
748.0385	0.09	1496077	keystroke	n	n/a
748.2035	0.06	1496407	keystroke	e	n/a
748.3535	0.06	1496707	keystroke	Key.space	n/a
748.4735	0.089	1496947	keystroke	a	n/a
748.7735	0.06	1497547	keystroke	g	n/a
748.9385	0.074	1497877	keystroke	r	n/a
749.1325	0.091	1498265	keystroke	e	n/a
