onset	duration	sample	value	key	prompt_text
15.5585	22.0135	31117	prompt	n/a	the quick brown fox jumps over a lazy dog\n
17.694	0.088	35388	keystroke	Key.right	n/a
18.7115	0.09	37423	keystroke	t	n/a
18.7715	0.1205	37543	keystroke	h	n/a
18.9065	0.151	37813	keystroke	e	n/a
19.0115	0.135	38023	keystroke	Key.space	n/a
19.897	0.1505	39794	keystroke	q	n/a
20.062	0.195	40124	keystroke	u	n/a
20.182	0.15	40364	keystroke	i	n/a
20.437	0.15	40874	keystroke	c	n/a
20.5575	0.2545	41115	keystroke	k	n/a
20.722	0.12	41444	keystroke	Key.space	n/a
20.9625	0.135	41925	keystroke	b	n/a
21.1125	0.165	42225	keystroke	r	n/a
21.9525	0.1055	43905	keystroke	i	n/a
22.072	0.1805	44144	keystroke	w	n/a
22.2225	0.1495	44445	keystroke	b	n/a
23.242	0.06	46484	keystroke	Key.backspace	n/a
23.632	0.09	47264	keystroke	Key.backspace	n/a
24.0675	0.075	48135	keystroke	Key.backspace	n/a
24.832	0.135	49664	keystroke	o	n/a
25.057	0.121	50114	keystroke	w	n/a
25.162	0.18	50324	keystroke	n	n/a
25.267	0.1505	50534	keystroke	Key.space	n/a
25.6575	0.12	51315	keystroke	f	n/a
25.7925	0.0905	51585	keystroke	o	n/a
27.188	0.1495	54376	keystroke	x	n/a
27.7125	0.1195	55425	keystroke	Key.space	n/a
27.982	0.0605	55964	keystroke	j	n/a
28.1475	0.0895	56295	keystroke	u	n/a
28.3575	0.12	56715	keystroke	m	n/a
28.598	0.0745	57196	keystroke	o	n/a
28.7475	0.135	57495	keystroke	s	n/a
28.9575	0.12	57915	keystroke	Key.space	n/a
29.6625	0.12	59325	keystroke	Key.backspace	n/a
30.067	0.075	60134	keystroke	Key.backspace	n/a
30.5025	0.0895	61005	keystroke	Key.backspace	n/a
31.1475	0.09	62295	keystroke	p	n/a
31.5365	0.106	63073	keystroke	s	n/a
31.7475	0.12	63495	keystroke	Key.space	n/a
31.9575	0.12	63915	keystroke	o	n/a
32.123	0.1045	64246	keystroke	v	n/a
32.408	0.1795	64816	keystroke	e	n/a
32.4975	0.12	64995	keystroke	r	n/a
32.5875	0.12	65175	keystroke	Key.space	n/a
32.7215	0.106	65443	keystroke	t	n/a
32.8125	0.0905	65625	keystroke	h	n/a
32.8875	0.135	65775	keystroke	e	n/a
32.9925	0.09	65985	keystroke	Key.space	n/a
33.1875	0.105	66375	keystroke	l	n/a
33.3225	0.074	66645	keystroke	a	n/a
34.147	0.1355	68294	keystroke	z	n/a
34.297	0.135	68594	keystroke	y	n/a
34.372	0.135	68744	keystroke	Key.space	n/a
34.673	0.0745	69346	keystroke	d	n/a
35.0475	0.105	70095	keystroke	o	n/a
35.3175	0.09	70635	keystroke	g	n/a
37.5685	0.001	75137	keystroke	Key.enter	n/a
37.5765	11.874	75153	prompt	n/a	noise billy careers shadows\n
38.8585	0.089	77717	keystroke	n	n/a
39.1875	0.2555	78375	keystroke	o	n/a
39.3675	0.135	78735	keystroke	i	n/a
39.472	0.2405	78944	keystroke	s	n/a
39.6375	0.1655	79275	keystroke	e	n/a
39.817	0.135	79634	keystroke	Key.space	n/a
40.0125	0.105	80025	keystroke	b	n/a
40.238	0.09	80476	keystroke	u	n/a
40.4925	0.09	80985	keystroke	k	n/a
41.3335	0.074	82667	keystroke	=	n/a
41.662	0.091	83324	keystroke	Key.backspace	n/a
41.962	0.09	83924	keystroke	Key.backspace	n/a
42.367	0.09	84734	keystroke	Key.backspace	n/a
42.908	0.0895	85816	keystroke	i	n/a
43.162	0.06	86324	keystroke	l	n/a
43.402	0.0155	86804	keystroke	l	n/a
43.5975	0.09	87195	keystroke	y	n/a
44.0625	0.105	88125	keystroke	Key.space	n/a
44.543	0.074	89086	keystroke	c	n/a
45.323	0.179	90646	keystroke	a	n/a
45.758	0.105	91516	keystroke	r	n/a
45.9975	0.0905	91995	keystroke	e	n/a
46.163	0.2545	92326	keystroke	e	n/a
46.2675	0.165	92535	keystroke	r	n/a
46.5375	0.165	93075	keystroke	s	n/a
46.6875	0.15	93375	keystroke	Key.space	n/a
46.9125	0.1345	93825	keystroke	s	n/a
47.032	0.1205	94064	keystroke	h	n/a
47.137	0.166	94274	keystroke	a	n/a
47.378	0.164	94756	keystroke	d	n/a
47.482	0.166	94964	keystroke	o	n/a
47.752	0.061	95504	keystroke	w	n/a
47.872	0.105	95744	keystroke	w	n/a
48.9075	0.09	97815	keystroke	Key.backspace	n/a
49.028	0.1345	98056	keystroke	s	n/a
49.3575	0.0895	98715	keystroke	Key.enter	n/a
49.4555	16.8535	98911	prompt	n/a	standings disabled pope refer\n
50.677	0.12	101354	keystroke	s	n/a
50.767	0.0905	101534	keystroke	t	n/a
50.8875	0.0745	101775	keystroke	a	n/a
51.0225	0.15	102045	keystroke	n	n/a
51.143	0.15	102286	keystroke	d	n/a
51.278	0.12	102556	keystroke	i	n/a
51.473	0.134	102946	keystroke	n	n/a
51.593	0.165	103186	keystroke	g	n/a
51.7425	0.105	103485	keystroke	Key.space	n/a
52.3875	0.12	104775	keystroke	Key.backspace	n/a
53.107	0.12	106214	keystroke	s	n/a
53.347	0.12	106694	keystroke	Key.space	n/a
55.462	0.18	110924	keystroke	d	n/a
55.6125	0.15	111225	keystroke	i	n/a
55.912	0.1055	111824	keystroke	s	n/a
56.122	0.1655	112244	keystroke	a	n/a
56.3025	0.1205	112605	keystroke	v	n/a
56.5715	0.121	113143	keystroke	k	n/a
56.708	0.1495	113416	keystroke	e	n/a
57.3375	0.135	114675	keystroke	Key.backspace	n/a
57.6825	0.12	115365	keystroke	Key.backspace	n/a
58.1025	0.09	116205	keystroke	Key.backspace	n/a
58.7175	0.09	117435	keystroke	b	n/a
59.0175	0.1055	118035	keystroke	l	n/a
59.2125	0.1355	118425	keystroke	e	n/a
59.512	0.135	119024	keystroke	d	n/a
59.692	0.15	119384	keystroke	Key.space	n/a
60.037	0.0755	120074	keystroke	o	n/a
61.582	0.18	123164	keystroke	o	n/a
62.542	0.09	125084	keystroke	Key.backspace	n/a
62.797	0.0905	125594	keystroke	Key.backspace	n/a
63.412	0.18	126824	keystroke	p	n/a
63.532	0.21	127064	keystroke	o	n/a
63.727	0.15	127454	keystroke	p	n/a
63.997	0.1655	127994	keystroke	e	n/a
64.4625	0.135	128925	keystroke	Key.space	n/a
64.8075	0.1805	129615	keystroke	r	n/a
64.9275	0.134	129855	keystroke	e	n/a
65.1825	0.105	130365	keystroke	f	n/a
65.3315	0.1965	130663	keystroke	e	n/a
65.4525	0.135	130905	keystroke	r	n/a
66.2325	0.0745	132465	keystroke	Key.enter	n/a
66.3155	9.4905	132631	prompt	n/a	purpose fireplace danish century\n
67.373	0.134	134746	keystroke	p	n/a
67.612	0.105	135224	keystroke	u	n/a
67.702	0.1655	135404	keystroke	r	n/a
67.8975	0.2245	135795	keystroke	p	n/a
68.033	0.165	136066	keystroke	o	n/a
68.2125	0.2395	136425	keystroke	s	n/a
68.362	0.195	136724	keystroke	e	n/a
68.587	0.1355	137174	keystroke	Key.space	n/a
68.932	0.1505	137864	keystroke	f	n/a
69.0375	0.1495	138075	keystroke	i	n/a
69.2475	0.1645	138495	keystroke	r	n/a
69.352	0.15	138704	keystroke	e	n/a
69.908	0.1045	139816	keystroke	o	n/a
70.7175	0.12	141435	keystroke	Key.backspace	n/a
70.9875	0.0745	141975	keystroke	p	n/a
71.1975	0.075	142395	keystroke	l	n/a
71.2875	0.105	142575	keystroke	a	n/a
71.5725	0.2395	143145	keystroke	c	n/a
71.7675	0.1645	143535	keystroke	e	n/a
71.962	0.15	143924	keystroke	Key.space	n/a
72.9075	0.15	145815	keystroke	d	n/a
72.9975	0.18	145995	keystroke	a	n/a
73.1175	0.135	146235	keystroke	n	n/a
73.372	0.105	146744	keystroke	i	n/a
73.492	0.135	146984	keystroke	s	n/a
73.642	0.2105	147284	keystroke	h	n/a
73.762	0.1355	147524	keystroke	Key.space	n/a
74.467	0.1355	148934	keystroke	c	n/a
74.722	0.151	149444	keystroke	e	n/a
74.8125	0.1505	149625	keystroke	n	n/a
74.9775	0.09	149955	keystroke	t	n/a
75.0975	0.135	150195	keystroke	u	n/a
75.2175	0.15	150435	keystroke	r	n/a
75.3525	0.09	150705	keystroke	y	n/a
75.7125	0.09	151425	keystroke	Key.enter	n/a
75.8155	14.704	151631	prompt	n/a	addresses twins surface algorithms\n
76.8525	0.18	153705	keystroke	a	n/a
77.1375	0.09	154275	keystroke	d	n/a
77.2875	0.12	154575	keystroke	d	n/a
77.5575	0.225	155115	keystroke	r	n/a
77.7225	0.15	155445	keystroke	e	n/a
78.0225	0.06	156045	keystroke	s	n/a
78.173	0.149	156346	keystroke	s	n/a
78.3975	0.165	156795	keystroke	e	n/a
78.683	0.1795	157366	keystroke	s	n/a
79.1475	0.1195	158295	keystroke	Key.space	n/a
79.657	0.0905	159314	keystroke	t	n/a
79.942	0.181	159884	keystroke	w	n/a
80.242	0.121	160484	keystroke	i	n/a
80.633	0.1195	161266	keystroke	n	n/a
80.843	0.165	161686	keystroke	s	n/a
81.053	0.104	162106	keystroke	Key.space	n/a
81.2185	0.179	162437	keystroke	s	n/a
81.3825	0.165	162765	keystroke	u	n/a
81.6675	0.15	163335	keystroke	r	n/a
82.298	0.135	164596	keystroke	f	n/a
82.448	0.18	164896	keystroke	a	n/a
82.687	0.2555	165374	keystroke	c	n/a
82.8825	0.195	165765	keystroke	e	n/a
83.0785	0.104	166157	keystroke	Key.space	n/a
83.528	0.18	167056	keystroke	a	n/a
84.038	0.1195	168076	keystroke	l	n/a
84.938	0.149	169876	keystroke	g	n/a
85.043	0.119	170086	keystroke	o	n/a
85.267	0.15	170534	keystroke	r	n/a
85.402	0.1355	170804	keystroke	i	n/a
85.5225	0.165	171045	keystroke	g	n/a
87.352	0.0905	174704	keystroke	Key.backspace	n/a
88.8525	0.135	177705	keystroke	t	n/a
89.0175	0.105	178035	keystroke	h	n/a
89.8425	0.075	179685	keystroke	m	n/a
89.9925	0.1505	179985	keystroke	s	n/a
90.412	0.1055	180824	keystroke	Key.enter	n/a
90.5245	13.6755	181049	prompt	n/a	rates hostel jewellery breeds\n
91.7625	0.1195	183525	keystroke	r	n/a
91.927	0.165	183854	keystroke	a	n/a
92.288	0.135	184576	keystroke	t	n/a
92.5425	0.195	185085	keystroke	e	n/a
92.6475	0.105	185295	keystroke	r	n/a
93.4875	0.1355	186975	keystroke	Key.backspace	n/a
93.7725	0.105	187545	keystroke	s	n/a
93.9525	0.18	187905	keystroke	Key.space	n/a
94.5825	0.0905	189165	keystroke	h	n/a
94.7625	0.1345	189525	keystroke	o	n/a
94.882	0.1505	189764	keystroke	s	n/a
95.227	0.121	190454	keystroke	t	n/a
95.452	0.15	190904	keystroke	e	n/a
95.588	0.224	191176	keystroke	l	n/a
95.737	0.135	191474	keystroke	Key.space	n/a
96.397	0.105	192794	keystroke	j	n/a
96.907	0.12	193814	keystroke	e	n/a
97.238	0.1945	194476	keystroke	w	n/a
97.4175	0.165	194835	keystroke	e	n/a
98.332	0.0455	196664	keystroke	l	n/a
98.4825	0.09	196965	keystroke	l	n/a
98.6025	0.18	197205	keystroke	e	n/a
98.7375	0.105	197475	keystroke	r	n/a
98.9025	0.195	197805	keystroke	y	n/a
99.0525	0.12	198105	keystroke	Key.space	n/a
102.58	0.0425	205160	keystroke	b	n/a
102.623	0.195	205246	keystroke	r	n/a
102.713	0.1645	205426	keystroke	e	n/a
102.9685	0.149	205937	keystroke	e	n/a
103.298	0.1195	206596	keystroke	d	n/a
103.4925	0.135	206985	keystroke	s	n/a
104.122	0.075	208244	keystroke	Key.enter	n/a
104.2055	12.3835	208411	prompt	n/a	reliance targets crown neck\n
105.5475	0.15	211095	keystroke	r	n/a
105.638	0.1645	211276	keystroke	e	n/a
105.7875	0.12	211575	keystroke	l	n/a
106.0135	0.12	212027	keystroke	i	n/a
106.1185	0.164	212237	keystroke	a	n/a
106.2985	0.119	212597	keystroke	n	n/a
106.478	0.209	212956	keystroke	c	n/a
106.613	0.164	213226	keystroke	e	n/a
106.793	0.149	213586	keystroke	Key.space	n/a
107.198	0.105	214396	keystroke	t	n/a
107.393	0.149	214786	keystroke	a	n/a
107.528	0.18	215056	keystroke	r	n/a
107.9775	0.15	215955	keystroke	f	n/a
108.2775	0.195	216555	keystroke	e	n/a
108.787	0.1205	217574	keystroke	Key.backspace	n/a
108.982	0.106	217964	keystroke	Key.backspace	n/a
109.763	0.074	219526	keystroke	g	n/a
109.943	0.194	219886	keystroke	e	n/a
110.033	0.165	220066	keystroke	t	n/a
110.302	0.181	220604	keystroke	s	n/a
110.422	0.15	220844	keystroke	Key.space	n/a
110.6625	0.1345	221325	keystroke	c	n/a
110.9325	0.09	221865	keystroke	r	n/a
111.1725	0.135	222345	keystroke	w	n/a
111.6225	0.12	223245	keystroke	Key.backspace	n/a
111.9075	0.1195	223815	keystroke	o	n/a
112.2525	0.12	224505	keystroke	w	n/a
112.3575	0.15	224715	keystroke	n	n/a
112.4925	0.045	224985	keystroke	Key.space	n/a
112.598	0.135	225196	keystroke	Key.space	n/a
114.397	0.075	228794	keystroke	Key.backspace	n/a
115.478	0.1045	230956	keystroke	n	n/a
115.5675	0.12	231135	keystroke	e	n/a
115.958	0.15	231916	keystroke	c	n/a
116.137	0.151	232274	keystroke	k	n/a
116.4975	0.09	232995	keystroke	Key.enter	n/a
116.597	11.8875	233194	prompt	n/a	month strain putting infinite\n
117.473	0.12	234946	keystroke	m	n/a
117.6825	0.075	235365	keystroke	o	n/a
117.8475	0.12	235695	keystroke	n	n/a
117.9525	0.12	235905	keystroke	t	n/a
118.0875	0.135	236175	keystroke	h	n/a
118.1625	0.165	236325	keystroke	Key.space	n/a
118.5075	0.12	237015	keystroke	s	n/a
118.6425	0.12	237285	keystroke	t	n/a
118.8075	0.225	237615	keystroke	r	n/a
119.1825	0.1955	238365	keystroke	a	n/a
119.3625	0.135	238725	keystroke	i	n/a
119.6025	0.1205	239205	keystroke	n	n/a
119.7075	0.105	239415	keystroke	Key.space	n/a
120.0075	0.1045	240015	keystroke	o	n/a
120.263	0.165	240526	keystroke	u	n/a
120.742	0.105	241484	keystroke	Key.backspace	n/a
120.967	0.106	241934	keystroke	Key.backspace	n/a
121.688	0.149	243376	keystroke	p	n/a
122.017	0.105	244034	keystroke	u	n/a
122.2275	0.105	244455	keystroke	t	n/a
122.4225	0.15	244845	keystroke	t	n/a
122.5275	0.105	245055	keystroke	i	n/a
122.7225	0.135	245445	keystroke	n	n/a
122.8425	0.15	245685	keystroke	g	n/a
122.9775	0.105	245955	keystroke	Key.space	n/a
125.38	0.027	250760	keystroke	i	n/a
125.4975	0.105	250995	keystroke	n	n/a
125.633	0.1495	251266	keystroke	f	n/a
125.7525	0.105	251505	keystroke	i	n/a
125.932	0.1505	251864	keystroke	n	n/a
126.1275	0.135	252255	keystroke	t	n/a
127.0425	0.105	254085	keystroke	Key.backspace	n/a
127.3425	0.166	254685	keystroke	i	n/a
128.0625	0.135	256125	keystroke	t	n/a
128.1825	0.135	256365	keystroke	e	n/a
128.348	0.135	256696	keystroke	Key.enter	n/a
128.4895	10.629	256979	prompt	n/a	statewide trivia mambo dance\n
131.1845	0.073	262369	keystroke	s	n/a
131.243	0.0895	262486	keystroke	t	n/a
131.3625	0.18	262725	keystroke	a	n/a
131.4825	0.106	262965	keystroke	t	n/a
131.6485	0.134	263297	keystroke	e	n/a
132.3375	0.165	264675	keystroke	w	n/a
132.4725	0.1205	264945	keystroke	i	n/a
132.6835	0.21	265367	keystroke	d	n/a
132.8035	0.18	265607	keystroke	e	n/a
132.9525	0.1205	265905	keystroke	Key.space	n/a
133.9275	0.15	267855	keystroke	t	n/a
134.0625	0.165	268125	keystroke	r	n/a
134.2725	0.15	268545	keystroke	i	n/a
134.4525	0.135	268905	keystroke	v	n/a
134.6025	0.12	269205	keystroke	i	n/a
134.9625	0.165	269925	keystroke	a	n/a
135.2325	0.15	270465	keystroke	Key.space	n/a
135.817	0.1355	271634	keystroke	m	n/a
135.9375	0.1655	271875	keystroke	a	n/a
136.058	0.135	272116	keystroke	m	n/a
136.688	0.06	273376	keystroke	b	n/a
137.558	0.045	275116	keystroke	o	n/a
137.918	0.1195	275836	keystroke	Key.space	n/a
138.278	0.134	276556	keystroke	d	n/a
138.398	0.15	276796	keystroke	a	n/a
138.488	0.134	276976	keystroke	n	n/a
138.6675	0.1505	277335	keystroke	c	n/a
138.787	0.151	277574	keystroke	e	n/a
139.043	0.074	278086	keystroke	Key.enter	n/a
139.1225	11.427	278245	prompt	n/a	suggests incentives extra outlet\n
139.927	0.1505	279854	keystroke	s	n/a
140.0625	0.105	280125	keystroke	u	n/a
140.2575	0.075	280515	keystroke	g	n/a
140.3775	0.12	280755	keystroke	g	n/a
140.4825	0.135	280965	keystroke	e	n/a
140.6925	0.135	281385	keystroke	s	n/a
140.7825	0.0895	281565	keystroke	t	n/a
140.917	0.165	281834	keystroke	s	n/a
141.112	0.135	282224	keystroke	Key.space	n/a
141.9525	0.0755	283905	keystroke	u	n/a
142.418	0.1055	284836	keystroke	Key.backspace	n/a
142.7475	0.105	285495	keystroke	i	n/a
142.9575	0.1045	285915	keystroke	n	n/a
143.1975	0.0905	286395	keystroke	c	n/a
143.363	0.1495	286726	keystroke	e	n/a
143.4675	0.135	286935	keystroke	n	n/a
143.6175	0.105	287235	keystroke	t	n/a
143.738	0.1505	287476	keystroke	i	n/a
144.0675	0.151	288135	keystroke	v	n/a
144.233	0.15	288466	keystroke	e	n/a
144.533	0.15	289066	keystroke	s	n/a
144.668	0.135	289336	keystroke	Key.space	n/a
145.268	0.1045	290536	keystroke	e	n/a
145.958	0.1195	291916	keystroke	x	n/a
146.1225	0.075	292245	keystroke	t	n/a
146.303	0.1195	292606	keystroke	r	n/a
146.4675	0.165	292935	keystroke	a	n/a
146.6025	0.105	293205	keystroke	Key.space	n/a
146.813	0.2545	293626	keystroke	i	n/a
146.9625	0.12	293925	keystroke	y	n/a
147.0975	0.12	294195	keystroke	t	n/a
147.848	0.1195	295696	keystroke	Key.backspace	n/a
148.1325	0.1495	296265	keystroke	Key.backspace	n/a
148.477	0.135	296954	keystroke	Key.backspace	n/a
149.137	0.151	298274	keystroke	o	n/a
149.332	0.151	298664	keystroke	u	n/a
149.587	0.121	299174	keystroke	t	n/a
149.872	0.135	299744	keystroke	l	n/a
150.008	0.1945	300016	keystroke	e	n/a
150.308	0.105	300616	keystroke	t	n/a
150.4275	0.12	300855	keystroke	Key.enter	n/a
150.5555	16.434	301111	prompt	n/a	activity successful unusual strengthening\n
151.4475	0.12	302895	keystroke	a	n/a
151.8085	0.1045	303617	keystroke	c	n/a
152.4075	0.12	304815	keystroke	t	n/a
152.8135	0.1795	305627	keystroke	i	n/a
153.1425	0.105	306285	keystroke	v	n/a
153.2485	0.134	306497	keystroke	i	n/a
154.058	0.1645	308116	keystroke	t	n/a
154.2525	0.15	308505	keystroke	i	n/a
155.8875	0.09	311775	keystroke	Key.backspace	n/a
156.293	0.0745	312586	keystroke	y	n/a
156.893	0.15	313786	keystroke	Key.space	n/a
157.5075	0.15	315015	keystroke	s	n/a
157.613	0.1195	315226	keystroke	u	n/a
157.778	0.1345	315556	keystroke	c	n/a
157.9575	0.1645	315915	keystroke	c	n/a
158.302	0.165	316604	keystroke	e	n/a
158.588	0.104	317176	keystroke	s	n/a
158.767	0.136	317534	keystroke	s	n/a
159.323	0.12	318646	keystroke	f	n/a
159.593	0.09	319186	keystroke	u	n/a
160.1325	0.1805	320265	keystroke	l	n/a
160.252	0.09	320504	keystroke	Key.space	n/a
160.553	0.119	321106	keystroke	u	n/a
160.7775	0.12	321555	keystroke	n	n/a
161.0625	0.105	322125	keystroke	u	n/a
161.5575	0.195	323115	keystroke	s	n/a
161.7675	0.135	323535	keystroke	u	n/a
161.9325	0.1645	323865	keystroke	a	n/a
162.397	0.2555	324794	keystroke	l	n/a
162.877	0.1655	325754	keystroke	Key.space	n/a
163.298	0.12	326596	keystroke	s	n/a
163.493	0.12	326986	keystroke	t	n/a
163.717	0.166	327434	keystroke	r	n/a
163.868	0.15	327736	keystroke	e	n/a
164.0335	0.119	328067	keystroke	n	n/a
164.3175	0.105	328635	keystroke	g	n/a
164.5875	0.165	329175	keystroke	t	n/a
164.7975	0.12	329595	keystroke	h	n/a
165.7125	0.18	331425	keystroke	e	n/a
165.8475	0.135	331695	keystroke	n	n/a
166.1475	0.09	332295	keystroke	i	n/a
166.328	0.134	332656	keystroke	n	n/a
166.478	0.1505	332956	keystroke	g	n/a
166.8825	0.1045	333765	keystroke	Key.enter	n/a
166.9945	19.03	333989	prompt	n/a	nuclear server check cancel\n
167.993	0.09	335986	keystroke	n	n/a
168.187	0.105	336374	keystroke	u	n/a
168.3225	0.1355	336645	keystroke	c	n/a
168.712	0.1805	337424	keystroke	l	n/a
168.878	0.15	337756	keystroke	e	n/a
169.087	0.135	338174	keystroke	a	n/a
169.372	0.1815	338744	keystroke	r	n/a
169.538	0.1345	339076	keystroke	Key.space	n/a
169.7925	0.18	339585	keystroke	s	n/a
170.752	0.1955	341504	keystroke	e	n/a
170.857	0.12	341714	keystroke	r	n/a
171.187	0.12	342374	keystroke	v	n/a
171.4875	0.2095	342975	keystroke	e	n/a
171.578	0.1345	343156	keystroke	r	n/a
172.822	0.121	345644	keystroke	c	n/a
172.927	0.105	345854	keystroke	h	n/a
173.033	0.1495	346066	keystroke	e	n/a
173.2725	0.1205	346545	keystroke	c	n/a
173.3625	0.2245	346725	keystroke	k	n/a
173.467	0.135	346934	keystroke	Key.space	n/a
176.574	0.001	353148	keystroke	Key.left	n/a
177.083	0.06	354166	keystroke	Key.left	n/a
179.1225	0.1195	358245	keystroke	Key.right	n/a
179.917	0.106	359834	keystroke	Key.backspace	n/a
180.3975	0.075	360795	keystroke	Key.backspace	n/a
180.7875	0.0755	361575	keystroke	Key.backspace	n/a
181.2375	0.075	362475	keystroke	Key.backspace	n/a
181.7025	0.06	363405	keystroke	Key.backspace	n/a
182.2275	0.18	364455	keystroke	Key.space	n/a
182.6035	0.119	365207	keystroke	c	n/a
182.8425	0.105	365685	keystroke	h	n/a
182.9925	0.12	365985	keystroke	e	n/a
183.278	0.135	366556	keystroke	c	n/a
183.923	0.195	367846	keystroke	k	n/a
184.0425	0.166	368085	keystroke	Key.space	n/a
184.2525	0.181	368505	keystroke	c	n/a
184.3875	0.1655	368775	keystroke	a	n/a
184.538	0.15	369076	keystroke	n	n/a
185.078	0.135	370156	keystroke	c	n/a
185.333	0.1795	370666	keystroke	e	n/a
185.4825	0.1355	370965	keystroke	l	n/a
185.9475	0.0755	371895	keystroke	Key.enter	n/a
186.03	11.5445	372060	prompt	n/a	maria watson calculation detection\n
187.372	0.12	374744	keystroke	m	n/a
187.523	0.12	375046	keystroke	a	n/a
187.778	0.1055	375556	keystroke	r	n/a
187.853	0.12	375706	keystroke	i	n/a
188.003	0.165	376006	keystroke	a	n/a
188.138	0.1055	376276	keystroke	Key.space	n/a
188.3935	0.1345	376787	keystroke	w	n/a
188.6485	0.104	377297	keystroke	a	n/a
189.008	0.1345	378016	keystroke	t	n/a
189.5475	0.15	379095	keystroke	s	n/a
189.773	0.105	379546	keystroke	o	n/a
190.028	0.195	380056	keystroke	n	n/a
190.1325	0.135	380265	keystroke	Key.space	n/a
190.3575	0.166	380715	keystroke	c	n/a
190.4785	0.225	380957	keystroke	a	n/a
190.7175	0.1355	381435	keystroke	k	n/a
191.843	0.075	383686	keystroke	Key.backspace	n/a
192.113	0.0905	384226	keystroke	l	n/a
192.5175	0.1355	385035	keystroke	c	n/a
192.7425	0.091	385485	keystroke	u	n/a
192.9985	0.105	385997	keystroke	l	n/a
193.0885	0.12	386177	keystroke	a	n/a
193.478	0.15	386956	keystroke	t	n/a
193.643	0.2105	387286	keystroke	i	n/a
193.703	0.2255	387406	keystroke	o	n/a
194.318	0.2095	388636	keystroke	n	n/a
194.4675	0.15	388935	keystroke	Key.space	n/a
195.2925	0.166	390585	keystroke	d	n/a
195.3975	0.1355	390795	keystroke	e	n/a
195.743	0.105	391486	keystroke	t	n/a
195.878	0.18	391756	keystroke	e	n/a
196.268	0.1355	392536	keystroke	c	n/a
196.6285	0.1345	393257	keystroke	t	n/a
196.7935	0.1795	393587	keystroke	i	n/a
196.9435	0.104	393887	keystroke	o	n/a
197.1225	0.18	394245	keystroke	n	n/a
197.258	0.1045	394516	keystroke	Key.space	n/a
197.4675	0.1055	394935	keystroke	Key.enter	n/a
197.5795	11.815	395159	prompt	n/a	expensive except admit cork\n
198.383	0.12	396766	keystroke	e	n/a
198.7435	0.1345	397487	keystroke	x	n/a
199.4775	0.106	398955	keystroke	p	n/a
199.6125	0.15	399225	keystroke	e	n/a
199.943	0.105	399886	keystroke	n	n/a
200.213	0.15	400426	keystroke	s	n/a
200.348	0.119	400696	keystroke	i	n/a
200.573	0.18	401146	keystroke	c	n/a
200.7225	0.18	401445	keystroke	e	n/a
200.8725	0.135	401745	keystroke	Key.space	n/a
201.173	0.0605	402346	keystroke	s	n/a
201.2785	0.18	402557	keystroke	e	n/a
202.028	0.1045	404056	keystroke	Key.backspace	n/a
202.432	0.121	404864	keystroke	Key.backspace	n/a
202.732	0.0905	405464	keystroke	Key.backspace	n/a
203.197	0.105	406394	keystroke	Key.backspace	n/a
203.6475	0.12	407295	keystroke	Key.backspace	n/a
204.188	0.105	408376	keystroke	v	n/a
204.353	0.135	408706	keystroke	e	n/a
204.473	0.12	408946	keystroke	Key.space	n/a
204.608	0.1205	409216	keystroke	e	n/a
204.9835	0.15	409967	keystroke	x	n/a
205.7785	0.179	411557	keystroke	c	n/a
205.988	0.1505	411976	keystroke	e	n/a
206.2575	0.1505	412515	keystroke	p	n/a
206.5585	0.149	413117	keystroke	t	n/a
206.693	0.1355	413386	keystroke	Key.space	n/a
207.2335	0.134	414467	keystroke	a	n/a
207.534	0.134	415068	keystroke	d	n/a
207.683	0.1205	415366	keystroke	m	n/a
207.9085	0.104	415817	keystroke	i	n/a
208.073	0.1055	416146	keystroke	t	n/a
208.193	0.12	416386	keystroke	Key.space	n/a
208.4625	0.166	416925	keystroke	c	n/a
208.6125	0.1205	417225	keystroke	o	n/a
208.7925	0.196	417585	keystroke	r	n/a
208.9585	0.134	417917	keystroke	k	n/a
209.333	0.06	418666	keystroke	Key.enter	n/a
209.408	11.0885	418816	prompt	n/a	administrators array complicated blvd\n
210.203	0.1495	420406	keystroke	a	n/a
210.4575	0.1205	420915	keystroke	d	n/a
210.5475	0.106	421095	keystroke	m	n/a
210.7575	0.075	421515	keystroke	i	n/a
210.893	0.09	421786	keystroke	n	n/a
211.073	0.12	422146	keystroke	i	n/a
211.343	0.1505	422686	keystroke	s	n/a
211.823	0.1495	423646	keystroke	t	n/a
211.9575	0.1355	423915	keystroke	r	n/a
212.213	0.09	424426	keystroke	a	n/a
212.438	0.105	424876	keystroke	t	n/a
212.5285	0.1645	425057	keystroke	o	n/a
212.7385	0.134	425477	keystroke	r	n/a
212.9335	0.1495	425867	keystroke	s	n/a
213.0675	0.09	426135	keystroke	Key.space	n/a
213.1735	0.179	426347	keystroke	a	n/a
213.4125	0.0605	426825	keystroke	r	n/a
213.6375	0.105	427275	keystroke	r	n/a
213.9675	0.1955	427935	keystroke	a	n/a
214.2525	0.1505	428505	keystroke	y	n/a
214.358	0.1945	428716	keystroke	Key.space	n/a
215.1675	0.1355	430335	keystroke	c	n/a
215.2435	0.1045	430487	keystroke	o	n/a
215.468	0.06	430936	keystroke	m	n/a
215.6625	0.03	431325	keystroke	p	n/a
215.8135	0.135	431627	keystroke	l	n/a
216.098	0.135	432196	keystroke	i	n/a
216.218	0.195	432436	keystroke	c	n/a
216.368	0.15	432736	keystroke	a	n/a
216.743	0.15	433486	keystroke	t	n/a
217.013	0.21	434026	keystroke	e	n/a
217.163	0.15	434326	keystroke	d	n/a
217.283	0.1195	434566	keystroke	Key.space	n/a
217.5685	0.105	435137	keystroke	b	n/a
217.868	0.06	435736	keystroke	l	n/a
219.0985	0.1495	438197	keystroke	v	n/a
219.368	0.1205	438736	keystroke	d	n/a
220.388	0.105	440776	keystroke	Key.enter	n/a
220.5045	8.572	441009	prompt	n/a	carol should provide implement\n
221.4235	0.1645	442847	keystroke	c	n/a
221.542	0.1515	443084	keystroke	a	n/a
221.8735	0.1355	443747	keystroke	r	n/a
222.0235	0.1045	444047	keystroke	o	n/a
222.218	0.1655	444436	keystroke	l	n/a
222.3385	0.135	444677	keystroke	Key.space	n/a
222.623	0.12	445246	keystroke	h	n/a
222.683	0.151	445366	keystroke	s	n/a
223.118	0.12	446236	keystroke	Key.backspace	n/a
223.358	0.12	446716	keystroke	Key.backspace	n/a
223.568	0.165	447136	keystroke	s	n/a
223.718	0.12	447436	keystroke	h	n/a
223.944	0.194	447888	keystroke	o	n/a
224.0485	0.1345	448097	keystroke	u	n/a
224.303	0.105	448606	keystroke	l	n/a
224.423	0.1805	448846	keystroke	d	n/a
224.588	0.12	449176	keystroke	Key.space	n/a
225.128	0.12	450256	keystroke	p	n/a
225.233	0.1505	450466	keystroke	r	n/a
225.488	0.1195	450976	keystroke	o	n/a
225.954	0.1185	451908	keystroke	v	n/a
226.0735	0.119	452147	keystroke	i	n/a
226.298	0.18	452596	keystroke	d	n/a
226.4025	0.1345	452805	keystroke	e	n/a
226.4925	0.0895	452985	keystroke	Key.space	n/a
226.7625	0.106	453525	keystroke	i	n/a
227.048	0.104	454096	keystroke	m	n/a
227.288	0.135	454576	keystroke	p	n/a
227.648	0.15	455296	keystroke	l	n/a
227.828	0.1355	455656	keystroke	e	n/a
228.1585	0.119	456317	keystroke	m	n/a
228.2925	0.136	456585	keystroke	e	n/a
228.3985	0.134	456797	keystroke	n	n/a
228.5775	0.151	457155	keystroke	t	n/a
228.9225	0.15	457845	keystroke	Key.enter	n/a
229.089	11.0105	458178	prompt	n/a	architecture wanted aggressive fast\n
229.898	0.1205	459796	keystroke	a	n/a
230.244	0.089	460488	keystroke	r	n/a
230.543	0.135	461086	keystroke	c	n/a
230.618	0.135	461236	keystroke	h	n/a
230.7225	0.1655	461445	keystroke	i	n/a
231.008	0.135	462016	keystroke	t	n/a
231.158	0.135	462316	keystroke	e	n/a
231.413	0.135	462826	keystroke	c	n/a
231.728	0.15	463456	keystroke	t	n/a
231.893	0.15	463786	keystroke	u	n/a
232.058	0.165	464116	keystroke	r	n/a
232.163	0.1495	464326	keystroke	e	n/a
232.268	0.12	464536	keystroke	Key.space	n/a
232.4175	0.135	464835	keystroke	w	n/a
232.568	0.1795	465136	keystroke	a	n/a
232.7485	0.134	465497	keystroke	n	n/a
232.8975	0.135	465795	keystroke	t	n/a
233.1075	0.226	466215	keystroke	e	n/a
233.2875	0.1505	466575	keystroke	d	n/a
233.408	0.105	466816	keystroke	Key.space	n/a
233.7085	0.1655	467417	keystroke	a	n/a
234.488	0.0745	468976	keystroke	g	n/a
234.638	0.1205	469276	keystroke	g	n/a
234.908	0.195	469816	keystroke	r	n/a
235.0885	0.134	470177	keystroke	e	n/a
235.5085	0.135	471017	keystroke	s	n/a
235.7335	0.18	471467	keystroke	s	n/a
235.9285	0.165	471857	keystroke	i	n/a
236.0785	0.2545	472157	keystroke	v	n/a
236.273	0.1945	472546	keystroke	r	n/a
236.6025	0.0905	473205	keystroke	Key.space	n/a
237.023	0.1205	474046	keystroke	Key.backspace	n/a
237.3375	0.1205	474675	keystroke	Key.backspace	n/a
237.5185	0.165	475037	keystroke	e	n/a
237.6835	0.089	475367	keystroke	Key.space	n/a
238.7935	0.1495	477587	keystroke	f	n/a
238.973	0.2555	477946	keystroke	a	n/a
239.2135	0.1495	478427	keystroke	s	n/a
239.6175	0.1655	479235	keystroke	t	n/a
239.903	0.1945	479806	keystroke	Key.enter	n/a
240.1055	12.2945	480211	prompt	n/a	smile pmid essence structured\n
241.179	0.179	482358	keystroke	s	n/a
241.3285	0.1045	482657	keystroke	m	n/a
241.5385	0.0295	483077	keystroke	i	n/a
241.7185	0.075	483437	keystroke	l	n/a
241.808	0.165	483616	keystroke	e	n/a
242.2275	0.15	484455	keystroke	Key.space	n/a
242.6335	0.135	485267	keystroke	p	n/a
242.889	0.1045	485778	keystroke	m	n/a
243.0975	0.136	486195	keystroke	i	n/a
243.9235	0.1195	487847	keystroke	d	n/a
244.1475	0.165	488295	keystroke	Key.space	n/a
244.749	0.1335	489498	keystroke	e	n/a
245.019	0.089	490038	keystroke	s	n/a
245.213	0.1655	490426	keystroke	s	n/a
245.3325	0.166	490665	keystroke	e	n/a
245.4835	0.1505	490967	keystroke	n	n/a
245.7075	0.241	491415	keystroke	s	n/a
245.888	0.12	491776	keystroke	e	n/a
246.848	0.105	493696	keystroke	Key.backspace	n/a
247.0875	0.105	494175	keystroke	Key.backspace	n/a
247.7935	0.105	495587	keystroke	c	n/a
248.0935	0.15	496187	keystroke	e	n/a
248.393	0.1195	496786	keystroke	Key.space	n/a
248.678	0.135	497356	keystroke	s	n/a
248.859	0.0895	497718	keystroke	t	n/a
249.0835	0.1195	498167	keystroke	r	n/a
249.293	0.15	498586	keystroke	a	n/a
250.283	0.15	500566	keystroke	Key.backspace	n/a
250.8385	0.12	501677	keystroke	u	n/a
250.9435	0.104	501887	keystroke	c	n/a
251.1075	0.0755	502215	keystroke	t	n/a
251.333	0.09	502666	keystroke	u	n/a
251.498	0.12	502996	keystroke	r	n/a
251.588	0.1355	503176	keystroke	e	n/a
251.963	0.1205	503926	keystroke	d	n/a
252.3075	0.09	504615	keystroke	Key.enter	n/a
252.407	9.083	504814	prompt	n/a	serving replacement picnic belkin\n
253.4335	0.1795	506867	keystroke	s	n/a
253.913	0.2105	507826	keystroke	e	n/a
254.079	0.089	508158	keystroke	r	n/a
254.423	0.136	508846	keystroke	v	n/a
254.528	0.105	509056	keystroke	i	n/a
254.738	0.09	509476	keystroke	n	n/a
254.933	0.165	509866	keystroke	g	n/a
255.113	0.105	510226	keystroke	Key.space	n/a
255.8485	0.1195	511697	keystroke	r	n/a
255.923	0.15	511846	keystroke	e	n/a
256.089	0.089	512178	keystroke	p	n/a
256.3285	0.1355	512657	keystroke	l	n/a
256.449	0.18	512898	keystroke	a	n/a
256.748	0.195	513496	keystroke	c	n/a
256.883	0.18	513766	keystroke	e	n/a
257.0185	0.1195	514037	keystroke	m	n/a
257.123	0.1805	514246	keystroke	e	n/a
257.2285	0.12	514457	keystroke	n	n/a
257.5735	0.1645	515147	keystroke	t	n/a
257.7075	0.15	515415	keystroke	Key.space	n/a
258.278	0.18	516556	keystroke	o	n/a
258.488	0.15	516976	keystroke	i	n/a
258.668	0.135	517336	keystroke	c	n/a
258.969	0.104	517938	keystroke	n	n/a
259.149	0.15	518298	keystroke	i	n/a
259.283	0.15	518566	keystroke	c	n/a
259.448	0.1045	518896	keystroke	Key.space	n/a
260.3035	0.075	520607	keystroke	b	n/a
260.4685	0.18	520937	keystroke	e	n/a
260.5735	0.135	521147	keystroke	l	n/a
260.813	0.075	521626	keystroke	k	n/a
260.993	0.09	521986	keystroke	i	n/a
261.1585	0.09	522317	keystroke	n	n/a
261.398	0.0895	522796	keystroke	Key.enter	n/a
261.4945	9.4615	522989	prompt	n/a	complications unit twiki alone\n
262.9285	0.1345	525857	keystroke	c	n/a
263.003	0.12	526006	keystroke	o	n/a
263.213	0.075	526426	keystroke	m	n/a
263.378	0.09	526756	keystroke	p	n/a
263.543	0.09	527086	keystroke	l	n/a
263.754	0.104	527508	keystroke	i	n/a
263.873	0.1355	527746	keystroke	c	n/a
263.9635	0.15	527927	keystroke	a	n/a
264.3535	0.1805	528707	keystroke	t	n/a
264.593	0.165	529186	keystroke	u	n/a
264.743	0.18	529486	keystroke	o	n/a
265.253	0.12	530506	keystroke	Key.backspace	n/a
265.508	0.135	531016	keystroke	Key.backspace	n/a
266.018	0.1355	532036	keystroke	i	n/a
266.0775	0.121	532155	keystroke	o	n/a
266.333	0.1045	532666	keystroke	n	n/a
266.4525	0.1505	532905	keystroke	s	n/a
266.5425	0.121	533085	keystroke	Key.space	n/a
266.858	0.12	533716	keystroke	u	n/a
267.068	0.12	534136	keystroke	n	n/a
267.2485	0.1345	534497	keystroke	i	n/a
267.473	0.151	534946	keystroke	t	n/a
267.578	0.1355	535156	keystroke	Key.space	n/a
267.833	0.1355	535666	keystroke	t	n/a
268.778	0.165	537556	keystroke	w	n/a
268.8825	0.091	537765	keystroke	i	n/a
269.093	0.0905	538186	keystroke	k	n/a
269.3035	0.2095	538607	keystroke	i	n/a
269.438	0.135	538876	keystroke	Key.space	n/a
269.8885	0.2095	539777	keystroke	a	n/a
269.9635	0.0895	539927	keystroke	l	n/a
270.2025	0.015	540405	keystroke	o	n/a
270.3235	0.1195	540647	keystroke	n	n/a
270.4435	0.1495	540887	keystroke	e	n/a
270.878	0.075	541756	keystroke	Key.enter	n/a
270.9605	12.729	541921	prompt	n/a	disposition magazines secretariat recycling\n
272.543	0.12	545086	keystroke	d	n/a
272.618	0.1505	545236	keystroke	i	n/a
272.813	0.1355	545626	keystroke	s	n/a
272.9635	0.2545	545927	keystroke	p	n/a
273.1285	0.1495	546257	keystroke	o	n/a
273.398	0.12	546796	keystroke	s	n/a
273.5035	0.1345	547007	keystroke	i	n/a
273.788	0.15	547576	keystroke	t	n/a
273.894	0.15	547788	keystroke	i	n/a
273.9685	0.1495	547937	keystroke	o	n/a
274.208	0.165	548416	keystroke	n	n/a
274.298	0.12	548596	keystroke	Key.space	n/a
274.5385	0.12	549077	keystroke	m	n/a
274.6285	0.074	549257	keystroke	a	n/a
275.453	0.0455	550906	keystroke	g	n/a
275.543	0.135	551086	keystroke	a	n/a
276.0235	0.21	552047	keystroke	z	n/a
276.2035	0.12	552407	keystroke	i	n/a
276.3835	0.15	552767	keystroke	n	n/a
276.5185	0.12	553037	keystroke	e	n/a
276.7135	0.15	553427	keystroke	s	n/a
276.8175	0.121	553635	keystroke	Key.space	n/a
277.253	0.135	554506	keystroke	s	n/a
277.523	0.09	555046	keystroke	e	n/a
277.763	0.135	555526	keystroke	c	n/a
278.318	0.196	556636	keystroke	r	n/a
278.453	0.151	556906	keystroke	e	n/a
278.678	0.1055	557356	keystroke	t	n/a
278.8885	0.104	557777	keystroke	a	n/a
279.083	0.1645	558166	keystroke	r	n/a
279.2625	0.135	558525	keystroke	i	n/a
279.4125	0.166	558825	keystroke	a	n/a
279.6225	0.121	559245	keystroke	n	n/a
279.7275	0.18	559455	keystroke	t	n/a
280.328	0.06	560656	keystroke	Key.backspace	n/a
280.508	0.1355	561016	keystroke	Key.backspace	n/a
280.673	0.135	561346	keystroke	t	n/a
280.8685	0.12	561737	keystroke	Key.space	n/a
281.3175	0.1655	562635	keystroke	r	n/a
281.423	0.1645	562846	keystroke	e	n/a
282.4275	0.1655	564855	keystroke	c	n/a
282.5785	0.105	565157	keystroke	y	n/a
282.7435	0.149	565487	keystroke	c	n/a
282.9525	0.076	565905	keystroke	l	n/a
283.149	0.0735	566298	keystroke	i	n/a
283.3125	0.1355	566625	keystroke	n	n/a
283.4185	0.1495	566837	keystroke	g	n/a
283.6135	0.075	567227	keystroke	Key.enter	n/a
283.6975	9.58	567395	prompt	n/a	prix bias morris broadcasting\n
284.7385	0.045	569477	keystroke	o	n/a
284.7985	0.1345	569597	keystroke	r	n/a
285.4275	0.1055	570855	keystroke	Key.backspace	n/a
285.623	0.105	571246	keystroke	Key.backspace	n/a
285.9985	0.1645	571997	keystroke	p	n/a
286.1475	0.105	572295	keystroke	r	n/a
286.3275	0.106	572655	keystroke	i	n/a
286.9275	0.121	573855	keystroke	x	n/a
287.1975	0.0755	574395	keystroke	Key.space	n/a
287.708	0.09	575416	keystroke	b	n/a
287.9025	0.136	575805	keystroke	i	n/a
287.9935	0.1495	575987	keystroke	a	n/a
288.398	0.12	576796	keystroke	Key.space	n/a
288.953	0.15	577906	keystroke	Key.backspace	n/a
289.1185	0.1195	578237	keystroke	s	n/a
289.253	0.12	578506	keystroke	Key.space	n/a
289.553	0.1355	579106	keystroke	m	n/a
289.8235	0.12	579647	keystroke	o	n/a
289.9285	0.075	579857	keystroke	r	n/a
290.0935	0.119	580187	keystroke	r	n/a
290.1975	0.1355	580395	keystroke	i	n/a
290.378	0.1805	580756	keystroke	s	n/a
290.5425	0.09	581085	keystroke	Key.space	n/a
290.903	0.165	581806	keystroke	b	n/a
291.0985	0.1195	582197	keystroke	r	n/a
291.2785	0.1645	582557	keystroke	a	n/a
291.413	0.135	582826	keystroke	o	n/a
291.563	0.15	583126	keystroke	d	n/a
291.8485	0.1495	583697	keystroke	c	n/a
291.968	0.2845	583936	keystroke	a	n/a
292.1775	0.15	584355	keystroke	s	n/a
292.5225	0.1355	585045	keystroke	t	n/a
292.6275	0.1205	585255	keystroke	i	n/a
292.8385	0.1055	585677	keystroke	n	n/a
292.898	0.15	585796	keystroke	g	n/a
293.1385	0.135	586277	keystroke	Key.enter	n/a
293.289	12.1505	586578	prompt	n/a	me form exclusively directions\n
294.204	0.0295	588408	keystroke	m	n/a
294.3075	0.1655	588615	keystroke	e	n/a
294.443	0.1195	588886	keystroke	Key.space	n/a
294.5925	0.18	589185	keystroke	f	n/a
294.6975	0.151	589395	keystroke	r	n/a
294.7885	0.09	589577	keystroke	o	n/a
294.9835	0.165	589967	keystroke	m	n/a
295.0885	0.15	590177	keystroke	Key.space	n/a
295.7035	0.135	591407	keystroke	e	n/a
298.286	0.073	596572	keystroke	x	n/a
298.8985	0.104	597797	keystroke	l	n/a
299.1835	0.09	598367	keystroke	u	n/a
299.3035	0.15	598607	keystroke	s	n/a
299.409	0.0895	598818	keystroke	i	n/a
299.7535	0.165	599507	keystroke	v	n/a
299.8585	0.1805	599717	keystroke	e	n/a
299.9335	0.12	599867	keystroke	l	n/a
300.234	0.2095	600468	keystroke	y	n/a
300.3385	0.1495	600677	keystroke	Key.space	n/a
301.493	0.1205	602986	keystroke	s	n/a
303.5635	0.12	607127	keystroke	i	n/a
303.6985	0.105	607397	keystroke	r	n/a
303.7585	0.15	607517	keystroke	e	n/a
304.058	0.12	608116	keystroke	c	n/a
304.4185	0.1505	608837	keystroke	t	n/a
304.5235	0.135	609047	keystroke	i	n/a
304.5835	0.135	609167	keystroke	o	n/a
304.8085	0.119	609617	keystroke	n	n/a
304.9725	0.1205	609945	keystroke	s	n/a
305.303	0.135	610606	keystroke	Key.enter	n/a
305.445	8.5455	610890	prompt	n/a	passion page compilation beast\n
306.5785	0.15	613157	keystroke	p	n/a
306.6385	0.2405	613277	keystroke	a	n/a
306.8335	0.105	613667	keystroke	s	n/a
307.1185	0.0745	614237	keystroke	s	n/a
307.1335	0.1055	614267	keystroke	i	n/a
307.1635	0.1355	614327	keystroke	o	n/a
307.388	0.1355	614776	keystroke	n	n/a
307.493	0.09	614986	keystroke	Key.space	n/a
307.6435	0.1055	615287	keystroke	p	n/a
307.7335	0.1495	615467	keystroke	a	n/a
307.944	0.0895	615888	keystroke	g	n/a
308.0635	0.15	616127	keystroke	e	n/a
308.1685	0.12	616337	keystroke	Key.space	n/a
309.143	0.166	618286	keystroke	c	n/a
309.563	0.136	619126	keystroke	o	n/a
309.9385	0.2105	619877	keystroke	m	n/a
310.6435	0.12	621287	keystroke	p	n/a
310.8985	0.09	621797	keystroke	i	n/a
311.1385	0.09	622277	keystroke	l	n/a
311.2435	0.1505	622487	keystroke	a	n/a
311.6635	0.166	623327	keystroke	t	n/a
311.7985	0.15	623597	keystroke	i	n/a
311.8735	0.135	623747	keystroke	o	n/a
312.128	0.1655	624256	keystroke	n	n/a
312.218	0.12	624436	keystroke	Key.space	n/a
312.443	0.135	624886	keystroke	b	n/a
312.6535	0.1355	625307	keystroke	e	n/a
312.8635	0.285	625727	keystroke	a	n/a
313.043	0.165	626086	keystroke	s	n/a
313.673	0.12	627346	keystroke	t	n/a
313.853	0.135	627706	keystroke	Key.enter	n/a
314.013	10.8985	628026	prompt	n/a	harley provincial organizational addresses\n
315.0235	0.12	630047	keystroke	h	n/a
315.0975	0.121	630195	keystroke	a	n/a
315.4135	0.015	630827	keystroke	r	n/a
315.548	0.0905	631096	keystroke	l	n/a
315.668	0.1805	631336	keystroke	e	n/a
315.863	0.1655	631726	keystroke	y	n/a
315.9535	0.12	631907	keystroke	Key.space	n/a
316.2385	0.1505	632477	keystroke	p	n/a
316.824	0.1195	633648	keystroke	r	n/a
317.4985	0.075	634997	keystroke	o	n/a
317.9335	0.1195	635867	keystroke	v	n/a
317.9925	0.1055	635985	keystroke	i	n/a
318.188	0.1055	636376	keystroke	n	n/a
318.323	0.135	636646	keystroke	c	n/a
318.413	0.105	636826	keystroke	i	n/a
318.608	0.1955	637216	keystroke	a	n/a
318.7435	0.2095	637487	keystroke	l	n/a
318.863	0.135	637726	keystroke	Key.space	n/a
319.148	0.15	638296	keystroke	a	n/a
319.8085	0.12	639617	keystroke	Key.backspace	n/a
320.0635	0.105	640127	keystroke	o	n/a
320.1525	0.121	640305	keystroke	r	n/a
320.588	0.105	641176	keystroke	g	n/a
320.708	0.135	641416	keystroke	a	n/a
320.828	0.12	641656	keystroke	n	n/a
321.0685	0.1345	642137	keystroke	i	n/a
321.413	0.1355	642826	keystroke	z	n/a
321.503	0.105	643006	keystroke	a	n/a
321.8635	0.105	643727	keystroke	t	n/a
321.9235	0.165	643847	keystroke	i	n/a
322.0585	0.075	644117	keystroke	o	n/a
322.2385	0.105	644477	keystroke	n	n/a
322.3735	0.195	644747	keystroke	a	n/a
322.5085	0.18	645017	keystroke	l	n/a
322.6135	0.135	645227	keystroke	Key.space	n/a
322.7335	0.15	645467	keystroke	a	n/a
323.0485	0.075	646097	keystroke	d	n/a
323.1975	0.105	646395	keystroke	d	n/a
323.4985	0.1495	646997	keystroke	r	n/a
323.633	0.1805	647266	keystroke	e	n/a
323.873	0.1205	647746	keystroke	s	n/a
324.0835	0.225	648167	keystroke	s	n/a
324.2185	0.18	648437	keystroke	e	n/a
324.4575	0.15	648915	keystroke	s	n/a
324.818	0.0905	649636	keystroke	Key.enter	n/a
324.921	14.284	649842	prompt	n/a	covers sufficiently column publication\n
325.7635	0.1495	651527	keystroke	c	n/a
325.8835	0.1355	651767	keystroke	o	n/a
326.124	0.0895	652248	keystroke	v	n/a
326.408	0.18	652816	keystroke	e	n/a
326.483	0.1355	652966	keystroke	r	n/a
326.7375	0.166	653475	keystroke	s	n/a
326.828	0.151	653656	keystroke	Key.space	n/a
327.4135	0.1355	654827	keystroke	s	n/a
327.5185	0.15	655037	keystroke	u	n/a
327.849	0.0295	655698	keystroke	f	n/a
327.9535	0.0895	655907	keystroke	f	n/a
328.1635	0.15	656327	keystroke	i	n/a
328.3285	0.18	656657	keystroke	c	n/a
328.4635	0.1355	656927	keystroke	i	n/a
329.0935	0.1655	658187	keystroke	e	n/a
329.4835	0.1205	658967	keystroke	n	n/a
329.7535	0.165	659507	keystroke	l	n/a
329.9345	0.179	659869	keystroke	t	n/a
330.1275	0.18	660255	keystroke	Key.space	n/a
330.6235	0.09	661247	keystroke	Key.backspace	n/a
330.8035	0.134	661607	keystroke	Key.backspace	n/a
331.0285	0.1495	662057	keystroke	t	n/a
331.4325	0.106	662865	keystroke	Key.backspace	n/a
331.583	0.1195	663166	keystroke	Key.backspace	n/a
332.1245	0.149	664249	keystroke	t	n/a
332.3485	0.15	664697	keystroke	l	n/a
332.679	0.1795	665358	keystroke	y	n/a
332.8735	0.105	665747	keystroke	Key.space	n/a
333.773	0.1205	667546	keystroke	c	n/a
333.8785	0.1055	667757	keystroke	o	n/a
334.089	0.075	668178	keystroke	l	n/a
334.299	0.075	668598	keystroke	u	n/a
334.5835	0.1355	669167	keystroke	m	n/a
334.658	0.1205	669316	keystroke	Key.space	n/a
335.4835	0.1345	670967	keystroke	Key.backspace	n/a
335.873	0.165	671746	keystroke	n	n/a
336.008	0.1195	672016	keystroke	Key.space	n/a
336.3545	0.134	672709	keystroke	p	n/a
336.6535	0.09	673307	keystroke	u	n/a
337.1485	0.1205	674297	keystroke	b	n/a
337.208	0.106	674416	keystroke	l	n/a
337.433	0.0905	674866	keystroke	i	n/a
337.5385	0.1655	675077	keystroke	c	n/a
337.6435	0.1495	675287	keystroke	a	n/a
338.093	0.1655	676186	keystroke	t	n/a
338.2735	0.165	676547	keystroke	i	n/a
338.3635	0.1805	676727	keystroke	o	n/a
338.6485	0.165	677297	keystroke	n	n/a
338.7985	0.18	677597	keystroke	s	n/a
339.143	0.06	678286	keystroke	Key.enter	n/a
339.2085	15.3745	678417	prompt	n/a	oughtn't resistance evaluated easier\n
340.899	0.2245	681798	keystroke	o	n/a
341.0185	0.1655	682037	keystroke	u	n/a
341.528	0.0465	683056	keystroke	g	n/a
341.6335	0.1505	683267	keystroke	h	n/a
341.798	0.121	683596	keystroke	t	n/a
344.0495	0.074	688099	keystroke	n	n/a
344.664	0.119	689328	keystroke	'	n/a
345.069	0.149	690138	keystroke	t	n/a
345.833	0.09	691666	keystroke	Key.space	n/a
346.794	0.12	693588	keystroke	r	n/a
346.884	0.134	693768	keystroke	e	n/a
347.168	0.166	694336	keystroke	s	n/a
347.6035	0.15	695207	keystroke	i	n/a
347.7085	0.164	695417	keystroke	s	n/a
347.9035	0.135	695807	keystroke	t	n/a
348.084	0.1795	696168	keystroke	a	n/a
348.294	0.1345	696588	keystroke	n	n/a
348.4435	0.165	696887	keystroke	c	n/a
348.5635	0.21	697127	keystroke	e	n/a
348.7435	0.12	697487	keystroke	Key.space	n/a
349.1035	0.1355	698207	keystroke	e	n/a
349.809	0.105	699618	keystroke	v	n/a
350.0035	0.21	700007	keystroke	a	n/a
350.1685	0.105	700337	keystroke	l	n/a
350.4235	0.105	700847	keystroke	u	n/a
350.514	0.1045	701028	keystroke	a	n/a
351.2785	0.1655	702557	keystroke	t	n/a
351.594	0.1645	703188	keystroke	e	n/a
352.0735	0.24	704147	keystroke	d	n/a
352.5385	0.12	705077	keystroke	Key.space	n/a
353.229	0.134	706458	keystroke	e	n/a
353.423	0.1355	706846	keystroke	a	n/a
353.7385	0.12	707477	keystroke	s	n/a
353.8435	0.15	707687	keystroke	i	n/a
354.024	0.194	708048	keystroke	e	n/a
354.1285	0.1345	708257	keystroke	r	n/a
354.4435	0.1355	708887	keystroke	Key.enter	n/a
354.5995	12.7605	709199	prompt	n/a	bible massage interactions solving\n
356.469	0.135	712938	keystroke	b	n/a
356.7385	0.1495	713477	keystroke	i	n/a
356.9635	0.1055	713927	keystroke	b	n/a
357.233	0.15	714466	keystroke	l	n/a
357.3985	0.135	714797	keystroke	e	n/a
357.503	0.1055	715006	keystroke	Key.space	n/a
357.6985	0.1505	715397	keystroke	m	n/a
358.0285	0.165	716057	keystroke	e	n/a
358.448	0.1805	716896	keystroke	Key.backspace	n/a
358.629	0.149	717258	keystroke	a	n/a
358.898	0.075	717796	keystroke	s	n/a
359.079	0.149	718158	keystroke	s	n/a
359.244	0.165	718488	keystroke	a	n/a
359.484	0.15	718968	keystroke	f	n/a
359.694	0.1795	719388	keystroke	e	n/a
360.0835	0.2405	720167	keystroke	Key.backspace	n/a
360.264	0.1645	720528	keystroke	g	n/a
360.3695	0.194	720739	keystroke	e	n/a
360.8785	0.075	721757	keystroke	Key.backspace	n/a
361.0585	0.06	722117	keystroke	Key.backspace	n/a
361.4485	0.075	722897	keystroke	Key.backspace	n/a
361.779	0.1195	723558	keystroke	g	n/a
362.064	0.149	724128	keystroke	e	n/a
362.273	0.135	724546	keystroke	Key.space	n/a
362.889	0.0895	725778	keystroke	i	n/a
363.3695	0.134	726739	keystroke	n	n/a
363.6235	0.06	727247	keystroke	t	n/a
363.8035	0.195	727607	keystroke	e	n/a
363.8935	0.135	727787	keystroke	r	n/a
364.208	0.136	728416	keystroke	a	n/a
364.464	0.135	728928	keystroke	c	n/a
364.7785	0.1505	729557	keystroke	t	n/a
364.899	0.18	729798	keystroke	i	n/a
365.034	0.149	730068	keystroke	o	n/a
365.319	0.135	730638	keystroke	n	n/a
365.439	0.1645	730878	keystroke	s	n/a
365.5735	0.119	731147	keystroke	Key.space	n/a
366.0835	0.195	732167	keystroke	s	n/a
366.1885	0.105	732377	keystroke	o	n/a
366.4135	0.0905	732827	keystroke	l	n/a
366.6085	0.1055	733217	keystroke	v	n/a
366.729	0.0745	733458	keystroke	i	n/a
366.9085	0.135	733817	keystroke	n	n/a
367.0135	0.151	734027	keystroke	g	n/a
367.2685	0.09	734537	keystroke	Key.enter	n/a
367.371	8.959	734742	prompt	n/a	tony automatic meets enjoy\n
368.4245	0.1335	736849	keystroke	o	n/a
368.4385	0.1505	736877	keystroke	t	n/a
369.413	0.075	738826	keystroke	Key.backspace	n/a
369.5485	0.0895	739097	keystroke	Key.backspace	n/a
369.729	0.1345	739458	keystroke	t	n/a
369.878	0.1205	739756	keystroke	o	n/a
370.1035	0.075	740207	keystroke	n	n/a
370.3435	0.1645	740687	keystroke	y	n/a
370.448	0.105	740896	keystroke	Key.space	n/a
370.613	0.1805	741226	keystroke	a	n/a
370.7185	0.15	741437	keystroke	u	n/a
371.1235	0.1505	742247	keystroke	t	n/a
371.2285	0.1355	742457	keystroke	o	n/a
371.5745	0.1345	743149	keystroke	m	n/a
371.6785	0.1355	743357	keystroke	a	n/a
372.024	0.1045	744048	keystroke	t	n/a
372.1135	0.1495	744227	keystroke	i	n/a
372.339	0.179	744678	keystroke	c	n/a
372.488	0.09	744976	keystroke	Key.space	n/a
372.744	0.15	745488	keystroke	m	n/a
372.895	0.104	745790	keystroke	e	n/a
373.074	0.165	746148	keystroke	e	n/a
373.314	0.119	746628	keystroke	t	n/a
373.5545	0.1485	747109	keystroke	s	n/a
373.673	0.1055	747346	keystroke	Key.space	n/a
373.8235	0.195	747647	keystroke	e	n/a
373.9435	0.12	747887	keystroke	n	n/a
374.213	0.1055	748426	keystroke	h	n/a
374.394	0.24	748788	keystroke	o	n/a
374.918	0.091	749836	keystroke	Key.backspace	n/a
375.113	0.106	750226	keystroke	Key.backspace	n/a
375.5635	0.09	751127	keystroke	j	n/a
375.7585	0.15	751517	keystroke	o	n/a
375.9385	0.105	751877	keystroke	y	n/a
376.238	0.0905	752476	keystroke	Key.enter	n/a
376.337	11.348	752674	prompt	n/a	coupon finished domain atmospheric\n
380.246	0.0875	760492	keystroke	c	n/a
380.259	0.165	760518	keystroke	o	n/a
380.349	0.1045	760698	keystroke	u	n/a
380.5585	0.195	761117	keystroke	p	n/a
380.724	0.12	761448	keystroke	o	n/a
380.993	0.18	761986	keystroke	n	n/a
381.143	0.15	762286	keystroke	Key.space	n/a
381.999	0.134	763998	keystroke	f	n/a
382.0745	0.1045	764149	keystroke	i	n/a
382.254	0.09	764508	keystroke	n	n/a
382.404	0.135	764808	keystroke	i	n/a
382.494	0.134	764988	keystroke	s	n/a
382.643	0.105	765286	keystroke	h	n/a
382.718	0.2105	765436	keystroke	e	n/a
382.868	0.1365	765736	keystroke	d	n/a
382.9585	0.105	765917	keystroke	Key.space	n/a
383.2135	0.165	766427	keystroke	s	n/a
383.3185	0.135	766637	keystroke	o	n/a
383.6935	0.0745	767387	keystroke	Key.backspace	n/a
383.844	0.105	767688	keystroke	Key.backspace	n/a
384.203	0.1805	768406	keystroke	d	n/a
384.2935	0.135	768587	keystroke	o	n/a
384.4885	0.12	768977	keystroke	m	n/a
384.579	0.1795	769158	keystroke	a	n/a
384.7135	0.1055	769427	keystroke	i	n/a
384.879	0.1945	769758	keystroke	n	n/a
384.998	0.1205	769996	keystroke	Key.space	n/a
385.4785	0.135	770957	keystroke	a	n/a
385.9135	0.151	771827	keystroke	t	n/a
386.1085	0.0755	772217	keystroke	m	n/a
386.289	0.09	772578	keystroke	o	n/a
386.3645	0.1495	772729	keystroke	s	n/a
386.589	0.09	773178	keystroke	p	n/a
386.8135	0.105	773627	keystroke	h	n/a
386.919	0.195	773838	keystroke	e	n/a
387.024	0.135	774048	keystroke	r	n/a
387.174	0.1045	774348	keystroke	i	n/a
387.3535	0.15	774707	keystroke	c	n/a
387.6085	0.075	775217	keystroke	Key.enter	n/a
387.69	11.742	775380	prompt	n/a	cambridge wendy travesti spokesman\n
388.8395	0.1785	777679	keystroke	c	n/a
388.9745	0.1795	777949	keystroke	a	n/a
389.198	0.136	778396	keystroke	m	n/a
389.694	0.119	779388	keystroke	b	n/a
389.9645	0.1195	779929	keystroke	r	n/a
390.098	0.121	780196	keystroke	i	n/a
390.5495	0.135	781099	keystroke	d	n/a
390.7885	0.09	781577	keystroke	g	n/a
390.8935	0.1505	781787	keystroke	e	n/a
390.9985	0.1205	781997	keystroke	Key.space	n/a
391.299	0.2245	782598	keystroke	w	n/a
391.4335	0.1655	782867	keystroke	e	n/a
392.229	0.045	784458	keystroke	n	n/a
393.084	0.135	786168	keystroke	d	n/a
393.204	0.18	786408	keystroke	y	n/a
393.264	0.179	786528	keystroke	Key.space	n/a
394.0585	0.1655	788117	keystroke	t	n/a
394.194	0.1345	788388	keystroke	r	n/a
394.433	0.1355	788866	keystroke	a	n/a
394.8385	0.1055	789677	keystroke	v	n/a
395.1545	0.1345	790309	keystroke	e	n/a
395.379	0.1505	790758	keystroke	s	n/a
395.5145	0.09	791029	keystroke	t	n/a
395.7685	0.2405	791537	keystroke	i	n/a
395.903	0.136	791806	keystroke	Key.space	n/a
396.174	0.194	792348	keystroke	s	n/a
396.323	0.121	792646	keystroke	p	n/a
397.1935	0.1645	794387	keystroke	o	n/a
398.109	0.0595	796218	keystroke	k	n/a
398.2285	0.135	796457	keystroke	e	n/a
398.4835	0.1655	796967	keystroke	s	n/a
398.769	0.149	797538	keystroke	m	n/a
398.873	0.21	797746	keystroke	a	n/a
398.994	0.135	797988	keystroke	n	n/a
399.308	0.121	798616	keystroke	Key.enter	n/a
399.4465	9.208	798893	prompt	n/a	somebody volleyball democrat astrology\n
400.328	0.135	800656	keystroke	s	n/a
400.4335	0.0895	800867	keystroke	o	n/a
400.643	0.1215	801286	keystroke	m	n/a
401.169	0.1645	802338	keystroke	e	n/a
401.3635	0.1205	802727	keystroke	b	n/a
401.6345	0.059	803269	keystroke	o	n/a
401.7835	0.15	803567	keystroke	d	n/a
401.949	0.15	803898	keystroke	y	n/a
402.054	0.149	804108	keystroke	Key.space	n/a
402.923	0.106	805846	keystroke	v	n/a
402.9995	0.0895	805999	keystroke	o	n/a
403.224	0.044	806448	keystroke	l	n/a
403.389	0.045	806778	keystroke	l	n/a
403.493	0.136	806986	keystroke	e	n/a
403.6735	0.0905	807347	keystroke	y	n/a
403.8535	0.135	807707	keystroke	b	n/a
403.9445	0.165	807889	keystroke	a	n/a
404.169	0.06	808338	keystroke	l	n/a
404.334	0.195	808668	keystroke	l	n/a
404.438	0.151	808876	keystroke	Key.space	n/a
405.159	0.1495	810318	keystroke	d	n/a
405.248	0.15	810496	keystroke	e	n/a
405.369	0.12	810738	keystroke	m	n/a
405.563	0.121	811126	keystroke	o	n/a
405.879	0.105	811758	keystroke	c	n/a
406.1335	0.076	812267	keystroke	r	n/a
406.314	0.1795	812628	keystroke	a	n/a
406.434	0.195	812868	keystroke	t	n/a
406.5535	0.1345	813107	keystroke	Key.space	n/a
406.749	0.15	813498	keystroke	a	n/a
407.049	0.1355	814098	keystroke	s	n/a
407.3045	0.1045	814609	keystroke	t	n/a
407.469	0.135	814938	keystroke	r	n/a
407.619	0.12	815238	keystroke	o	n/a
407.844	0.0905	815688	keystroke	l	n/a
408.024	0.075	816048	keystroke	o	n/a
408.1145	0.1345	816229	keystroke	g	n/a
408.2785	0.0895	816557	keystroke	y	n/a
408.5785	0.0745	817157	keystroke	Key.enter	n/a
408.659	7.906	817318	prompt	n/a	oriental france providence bargain\n
409.628	0.151	819256	keystroke	o	n/a
409.853	0.121	819706	keystroke	r	n/a
409.974	0.1045	819948	keystroke	i	n/a
410.094	0.1345	820188	keystroke	e	n/a
410.1835	0.135	820367	keystroke	n	n/a
410.4235	0.105	820847	keystroke	t	n/a
410.649	0.1645	821298	keystroke	a	n/a
410.7685	0.195	821537	keystroke	l	n/a
410.8585	0.165	821717	keystroke	Key.space	n/a
411.4895	0.15	822979	keystroke	f	n/a
411.5945	0.1335	823189	keystroke	r	n/a
411.818	0.165	823636	keystroke	a	n/a
411.9385	0.12	823877	keystroke	n	n/a
412.059	0.1655	824118	keystroke	c	n/a
412.1795	0.18	824359	keystroke	e	n/a
412.328	0.105	824656	keystroke	Key.space	n/a
412.613	0.0755	825226	keystroke	p	n/a
413.259	0.1195	826518	keystroke	r	n/a
413.5885	0.135	827177	keystroke	o	n/a
413.753	0.121	827506	keystroke	v	n/a
413.889	0.105	827778	keystroke	i	n/a
414.084	0.18	828168	keystroke	d	n/a
414.204	0.1645	828408	keystroke	e	n/a
414.339	0.1345	828678	keystroke	n	n/a
414.489	0.1955	828978	keystroke	c	n/a
414.6085	0.181	829217	keystroke	e	n/a
414.759	0.1045	829518	keystroke	Key.space	n/a
415.2235	0.12	830447	keystroke	b	n/a
415.3285	0.135	830657	keystroke	a	n/a
415.5245	0.119	831049	keystroke	r	n/a
415.6585	0.09	831317	keystroke	g	n/a
415.7795	0.149	831559	keystroke	a	n/a
415.9735	0.075	831947	keystroke	i	n/a
416.169	0.1045	832338	keystroke	n	n/a
416.2435	0.075	832487	keystroke	Key.space	n/a
416.4535	0.105	832907	keystroke	Key.enter	n/a
416.5765	12.434	833153	prompt	n/a	deer vacations socks instrumentation\n
418.1635	0.09	836327	keystroke	d	n/a
418.3595	0.12	836719	keystroke	e	n/a
418.7345	0.015	837469	keystroke	e	n/a
418.7645	0.1195	837529	keystroke	r	n/a
418.8985	0.165	837797	keystroke	Key.space	n/a
419.5735	0.0605	839147	keystroke	v	n/a
419.6945	0.179	839389	keystroke	a	n/a
419.8885	0.1805	839777	keystroke	c	n/a
420.009	0.135	840018	keystroke	a	n/a
420.444	0.165	840888	keystroke	t	n/a
420.549	0.165	841098	keystroke	i	n/a
420.639	0.165	841278	keystroke	o	n/a
420.939	0.15	841878	keystroke	n	n/a
422.709	0.1205	845418	keystroke	s	n/a
422.9935	0.1195	845987	keystroke	Key.space	n/a
423.174	0.15	846348	keystroke	s	n/a
423.279	0.15	846558	keystroke	o	n/a
423.489	0.165	846978	keystroke	c	n/a
423.624	0.1345	847248	keystroke	k	n/a
423.7435	0.18	847487	keystroke	s	n/a
424.2385	0.105	848477	keystroke	Key.space	n/a
424.4495	0.1185	848899	keystroke	i	n/a
424.644	0.1355	849288	keystroke	n	n/a
425.544	0.165	851088	keystroke	s	n/a
425.9345	0.014	851869	keystroke	t	n/a
426.279	0.15	852558	keystroke	r	n/a
426.4135	0.1205	852827	keystroke	u	n/a
426.729	0.09	853458	keystroke	m	n/a
426.834	0.165	853668	keystroke	e	n/a
426.954	0.0895	853908	keystroke	n	n/a
427.104	0.1055	854208	keystroke	t	n/a
427.329	0.18	854658	keystroke	a	n/a
427.689	0.18	855378	keystroke	t	n/a
427.809	0.18	855618	keystroke	i	n/a
427.914	0.1645	855828	keystroke	o	n/a
428.5135	0.121	857027	keystroke	n	n/a
428.8585	0.15	857717	keystroke	Key.enter	n/a
429.0165	11.8745	858033	prompt	n/a	recommend adipex main borough\n
429.9985	0.12	859997	keystroke	r	n/a
430.0445	0.165	860089	keystroke	e	n/a
430.359	0.1795	860718	keystroke	c	n/a
430.449	0.105	860898	keystroke	o	n/a
430.659	0.06	861318	keystroke	m	n/a
430.824	0.0595	861648	keystroke	m	n/a
430.9135	0.165	861827	keystroke	e	n/a
431.0185	0.09	862037	keystroke	n	n/a
431.169	0.1345	862338	keystroke	t	n/a
431.8435	0.135	863687	keystroke	Key.backspace	n/a
432.0245	0.1495	864049	keystroke	d	n/a
432.188	0.121	864376	keystroke	Key.space	n/a
433.419	0.165	866838	keystroke	a	n/a
434.229	0.1195	868458	keystroke	d	n/a
434.6495	0.135	869299	keystroke	i	n/a
435.0995	0.165	870199	keystroke	p	n/a
435.2045	0.209	870409	keystroke	e	n/a
435.3835	0.1955	870767	keystroke	d	n/a
436.059	0.1195	872118	keystroke	Key.backspace	n/a
436.5395	0.164	873079	keystroke	x	n/a
436.9135	0.1205	873827	keystroke	Key.space	n/a
437.679	0.1495	875358	keystroke	m	n/a
437.7845	0.1795	875569	keystroke	a	n/a
437.994	0.0755	875988	keystroke	i	n/a
438.174	0.21	876348	keystroke	n	n/a
438.294	0.194	876588	keystroke	Key.space	n/a
439.0735	0.105	878147	keystroke	b	n/a
439.269	0.1195	878538	keystroke	o	n/a
439.4935	0.1355	878987	keystroke	r	n/a
439.5695	0.2095	879139	keystroke	o	n/a
439.764	0.12	879528	keystroke	u	n/a
439.989	0.135	879978	keystroke	g	n/a
440.079	0.12	880158	keystroke	h	n/a
440.8285	0.0595	881657	keystroke	Key.enter	n/a
440.8965	12.354	881793	prompt	n/a	packet replica nicaragua both\n
442.749	0.1645	885498	keystroke	o	n/a
442.9445	0.1195	885889	keystroke	a	n/a
443.1685	0.1355	886337	keystroke	c	n/a
443.679	0.0595	887358	keystroke	Key.backspace	n/a
443.874	0.105	887748	keystroke	Key.backspace	n/a
444.159	0.12	888318	keystroke	Key.backspace	n/a
444.669	0.104	889338	keystroke	p	n/a
444.774	0.135	889548	keystroke	a	n/a
445.059	0.105	890118	keystroke	c	n/a
445.194	0.09	890388	keystroke	k	n/a
445.404	0.165	890808	keystroke	e	n/a
445.914	0.1355	891828	keystroke	t	n/a
446.034	0.135	892068	keystroke	Key.space	n/a
446.2135	0.1945	892427	keystroke	r	n/a
446.3345	0.2095	892669	keystroke	e	n/a
446.529	0.18	893058	keystroke	p	n/a
446.7985	0.136	893597	keystroke	l	n/a
447.459	0.105	894918	keystroke	i	n/a
447.61	0.164	895220	keystroke	c	n/a
447.729	0.15	895458	keystroke	a	n/a
448.359	0.09	896718	keystroke	Key.space	n/a
448.644	0.135	897288	keystroke	n	n/a
448.914	0.0905	897828	keystroke	i	n/a
449.4385	0.165	898877	keystroke	c	n/a
449.5585	0.1655	899117	keystroke	a	n/a
449.8885	0.1355	899777	keystroke	r	n/a
450.069	0.15	900138	keystroke	a	n/a
450.5495	0.1345	901099	keystroke	g	n/a
450.714	0.135	901428	keystroke	u	n/a
450.954	0.1055	901908	keystroke	e	n/a
451.6135	0.12	903227	keystroke	Key.backspace	n/a
451.7635	0.1355	903527	keystroke	a	n/a
451.9735	0.135	903947	keystroke	Key.space	n/a
452.3485	0.09	904697	keystroke	b	n/a
452.5445	0.12	905089	keystroke	o	n/a
452.7235	0.1655	905447	keystroke	t	n/a
452.844	0.135	905688	keystroke	h	n/a
452.919	0.1195	905838	keystroke	Key.space	n/a
453.1585	0.0905	906317	keystroke	Key.enter	n/a
453.26	9.425	906520	prompt	n/a	thrown paragraph coding machine\n
455.063	0.1055	910126	keystroke	t	n/a
455.1385	0.106	910277	keystroke	h	n/a
455.3195	0.12	910639	keystroke	r	n/a
455.41	0.1195	910820	keystroke	o	n/a
455.5595	0.18	911119	keystroke	w	n/a
455.7095	0.1945	911419	keystroke	n	n/a
455.829	0.135	911658	keystroke	Key.space	n/a
456.4885	0.0755	912977	keystroke	o	n/a
456.5485	0.136	913097	keystroke	a	n/a
457.3735	0.075	914747	keystroke	Key.backspace	n/a
457.6885	0.105	915377	keystroke	Key.backspace	n/a
457.9595	0.105	915919	keystroke	p	n/a
458.094	0.12	916188	keystroke	a	n/a
458.454	0.075	916908	keystroke	r	n/a
458.604	0.164	917208	keystroke	a	n/a
458.919	0.075	917838	keystroke	g	n/a
459.024	0.0905	918048	keystroke	r	n/a
459.218	0.105	918436	keystroke	a	n/a
459.398	0.151	918796	keystroke	p	n/a
459.878	0.076	919756	keystroke	h	n/a
460.179	0.135	920358	keystroke	Key.space	n/a
460.389	0.1505	920778	keystroke	c	n/a
460.5095	0.119	921019	keystroke	o	n/a
460.7335	0.196	921467	keystroke	d	n/a
460.884	0.1045	921768	keystroke	i	n/a
461.139	0.09	922278	keystroke	n	n/a
461.244	0.15	922488	keystroke	g	n/a
461.409	0.09	922818	keystroke	Key.space	n/a
461.619	0.15	923238	keystroke	m	n/a
461.754	0.105	923508	keystroke	a	n/a
461.979	0.1205	923958	keystroke	c	n/a
462.054	0.15	924108	keystroke	h	n/a
462.159	0.105	924318	keystroke	i	n/a
462.3245	0.1195	924649	keystroke	n	n/a
462.399	0.134	924798	keystroke	e	n/a
462.608	0.076	925216	keystroke	Key.enter	n/a
462.6885	15.1625	925377	prompt	n/a	apparently elephant optimization deferred\n
463.629	0.1355	927258	keystroke	a	n/a
463.914	0.045	927828	keystroke	p	n/a
464.0485	0.1355	928097	keystroke	p	n/a
464.169	0.1655	928338	keystroke	a	n/a
464.4995	0.0895	928999	keystroke	r	n/a
464.634	0.1495	929268	keystroke	a	n/a
466.2685	0.1205	932537	keystroke	Key.backspace	n/a
466.4635	0.135	932927	keystroke	e	n/a
466.644	0.1505	933288	keystroke	n	n/a
466.7795	0.1345	933559	keystroke	t	n/a
466.944	0.135	933888	keystroke	l	n/a
467.3185	0.181	934637	keystroke	y	n/a
467.4535	0.135	934907	keystroke	Key.space	n/a
467.9035	0.1505	935807	keystroke	e	n/a
468.07	0.059	936140	keystroke	l	n/a
468.174	0.1205	936348	keystroke	l	n/a
468.2955	0.179	936591	keystroke	e	n/a
468.7885	0.12	937577	keystroke	p	n/a
469.0595	0.09	938119	keystroke	h	n/a
469.1645	0.105	938329	keystroke	a	n/a
469.2545	0.12	938509	keystroke	n	n/a
469.569	0.1655	939138	keystroke	t	n/a
469.629	0.18	939258	keystroke	Key.space	n/a
471.594	0.1205	943188	keystroke	o	n/a
471.849	0.12	943698	keystroke	p	n/a
472.644	0.12	945288	keystroke	t	n/a
472.7495	0.09	945499	keystroke	i	n/a
472.959	0.105	945918	keystroke	m	n/a
473.139	0.105	946278	keystroke	i	n/a
474.0385	0.151	948077	keystroke	z	n/a
474.1745	0.165	948349	keystroke	a	n/a
474.5795	0.119	949159	keystroke	t	n/a
474.7445	0.2095	949489	keystroke	i	n/a
474.8945	0.134	949789	keystroke	o	n/a
475.1645	0.2395	950329	keystroke	n	n/a
475.329	0.165	950658	keystroke	Key.space	n/a
476.4545	0.1345	952909	keystroke	d	n/a
476.5435	0.135	953087	keystroke	e	n/a
476.7385	0.106	953477	keystroke	f	n/a
476.9035	0.181	953807	keystroke	e	n/a
477.0695	0.075	954139	keystroke	r	n/a
477.2485	0.106	954497	keystroke	r	n/a
477.384	0.18	954768	keystroke	e	n/a
477.5195	0.1345	955039	keystroke	d	n/a
477.789	0.06	955578	keystroke	Key.enter	n/a
477.864	12.3765	955728	prompt	n/a	devices yours characteristic arrangement\n
479.244	0.1355	958488	keystroke	d	n/a
479.3195	0.135	958639	keystroke	e	n/a
479.5585	0.1505	959117	keystroke	v	n/a
479.6935	0.121	959387	keystroke	i	n/a
479.9785	0.1655	959957	keystroke	c	n/a
480.114	0.165	960228	keystroke	e	n/a
480.384	0.1645	960768	keystroke	s	n/a
480.5185	0.12	961037	keystroke	Key.space	n/a
480.8185	0.09	961637	keystroke	y	n/a
480.9985	0.2105	961997	keystroke	o	n/a
481.0885	0.165	962177	keystroke	u	n/a
481.1945	0.134	962389	keystroke	r	n/a
481.4785	0.181	962957	keystroke	s	n/a
481.614	0.1045	963228	keystroke	Key.space	n/a
482.0045	0.119	964009	keystroke	c	n/a
482.1085	0.136	964217	keystroke	h	n/a
482.2295	0.15	964459	keystroke	a	n/a
482.514	0.09	965028	keystroke	r	n/a
482.664	0.2095	965328	keystroke	a	n/a
482.9795	0.0745	965959	keystroke	c	n/a
483.294	0.105	966588	keystroke	t	n/a
483.4895	0.2095	966979	keystroke	e	n/a
483.5795	0.135	967159	keystroke	r	n/a
483.789	0.1805	967578	keystroke	i	n/a
483.954	0.135	967908	keystroke	s	n/a
484.299	0.12	968598	keystroke	t	n/a
484.4335	0.1505	968867	keystroke	i	n/a
484.6895	0.165	969379	keystroke	c	n/a
484.8095	0.1635	969619	keystroke	s	n/a
484.988	0.121	969976	keystroke	Key.space	n/a
485.3485	0.181	970697	keystroke	a	n/a
485.6635	0.136	971327	keystroke	r	n/a
485.8585	0.166	971717	keystroke	r	n/a
486.0995	0.18	972199	keystroke	a	n/a
486.3995	0.165	972799	keystroke	n	n/a
486.8495	0.15	973699	keystroke	f	n/a
487.0295	0.164	974059	keystroke	e	n/a
487.569	0.075	975138	keystroke	Key.backspace	n/a
487.719	0.105	975438	keystroke	Key.backspace	n/a
488.3795	0.09	976759	keystroke	g	n/a
488.619	0.0745	977238	keystroke	m	n/a
488.634	0.18	977268	keystroke	e	n/a
488.784	0.105	977568	keystroke	n	n/a
489.7435	0.1655	979487	keystroke	t	n/a
490.179	0.06	980358	keystroke	Key.enter	n/a
490.2465	13.404	980493	prompt	n/a	cameroon installed hosted mainstream\n
491.3035	0.151	982607	keystroke	c	n/a
491.4385	0.1655	982877	keystroke	a	n/a
491.649	0.21	983298	keystroke	c	n/a
491.874	0.165	983748	keystroke	a	n/a
492.639	0.105	985278	keystroke	Key.backspace	n/a
492.954	0.105	985908	keystroke	Key.backspace	n/a
493.314	0.15	986628	keystroke	m	n/a
493.539	0.18	987078	keystroke	e	n/a
493.974	0.1805	987948	keystroke	r	n/a
494.109	0.105	988218	keystroke	o	n/a
494.29	0.1195	988580	keystroke	o	n/a
494.694	0.2105	989388	keystroke	m	n/a
494.8285	0.165	989657	keystroke	Key.space	n/a
495.279	0.1055	990558	keystroke	Key.backspace	n/a
495.474	0.1195	990948	keystroke	Key.backspace	n/a
495.85	0.1935	991700	keystroke	n	n/a
495.984	0.1195	991968	keystroke	Key.space	n/a
496.6295	0.09	993259	keystroke	i	n/a
496.7935	0.105	993587	keystroke	n	n/a
496.914	0.15	993828	keystroke	s	n/a
497.094	0.1055	994188	keystroke	t	n/a
497.2295	0.165	994459	keystroke	a	n/a
497.4085	0.0605	994817	keystroke	l	n/a
497.544	0.105	995088	keystroke	l	n/a
497.634	0.21	995268	keystroke	e	n/a
497.739	0.18	995478	keystroke	d	n/a
497.859	0.12	995718	keystroke	Key.space	n/a
498.129	0.0905	996258	keystroke	h	n/a
498.309	0.12	996618	keystroke	o	n/a
498.415	0.0895	996830	keystroke	s	n/a
498.6995	0.1495	997399	keystroke	t	n/a
498.9245	0.1645	997849	keystroke	e	n/a
499.059	0.1055	998118	keystroke	d	n/a
499.209	0.105	998418	keystroke	Key.space	n/a
499.6435	0.075	999287	keystroke	m	n/a
499.734	0.135	999468	keystroke	a	n/a
499.854	0.06	999708	keystroke	i	n/a
499.989	0.1055	999978	keystroke	n	n/a
501.1145	0.1495	1002229	keystroke	s	n/a
501.309	0.136	1002618	keystroke	t	n/a
501.8035	0.165	1003607	keystroke	e	n/a
502.4485	0.15	1004897	keystroke	Key.backspace	n/a
502.5695	0.1495	1005139	keystroke	r	n/a
502.659	0.1355	1005318	keystroke	e	n/a
502.8845	0.134	1005769	keystroke	a	n/a
503.2445	0.1195	1006489	keystroke	m	n/a
503.5595	0.089	1007119	keystroke	Key.enter	n/a
503.658	6.4125	1007316	prompt	n/a	marsh ultram black morris\n
504.5035	0.18	1009007	keystroke	m	n/a
504.669	0.151	1009338	keystroke	a	n/a
505.1195	0.135	1010239	keystroke	r	n/a
505.659	0.15	1011318	keystroke	s	n/a
505.7795	0.1495	1011559	keystroke	h	n/a
505.854	0.135	1011708	keystroke	Key.space	n/a
506.139	0.1355	1012278	keystroke	u	n/a
506.4395	0.119	1012879	keystroke	l	n/a
506.7095	0.105	1013419	keystroke	t	n/a
506.9485	0.135	1013897	keystroke	r	n/a
507.2485	0.165	1014497	keystroke	a	n/a
507.5195	0.18	1015039	keystroke	m	n/a
507.639	0.12	1015278	keystroke	Key.space	n/a
508.255	0.105	1016510	keystroke	b	n/a
508.4945	0.1205	1016989	keystroke	l	n/a
508.5845	0.105	1017169	keystroke	a	n/a
508.7795	0.1795	1017559	keystroke	c	n/a
508.9	0.149	1017800	keystroke	k	n/a
508.9895	0.0895	1017979	keystroke	Key.space	n/a
509.1985	0.0765	1018397	keystroke	m	n/a
509.3795	0.09	1018759	keystroke	o	n/a
509.4835	0.061	1018967	keystroke	r	n/a
509.6485	0.105	1019297	keystroke	r	n/a
509.739	0.0895	1019478	keystroke	i	n/a
509.8445	0.134	1019689	keystroke	s	n/a
510.0085	0.0605	1020017	keystroke	Key.enter	n/a
510.079	9.218	1020158	prompt	n/a	if prediction deaths guardian\n
510.9545	0.12	1021909	keystroke	i	n/a
511.1045	0.15	1022209	keystroke	f	n/a
511.2085	0.091	1022417	keystroke	Key.space	n/a
511.404	0.1505	1022808	keystroke	p	n/a
511.5395	0.12	1023079	keystroke	r	n/a
512.124	0.105	1024248	keystroke	e	n/a
512.438	0.1365	1024876	keystroke	d	n/a
512.5595	0.1045	1025119	keystroke	i	n/a
512.694	0.09	1025388	keystroke	c	n/a
512.9645	0.15	1025929	keystroke	t	n/a
513.069	0.15	1026138	keystroke	i	n/a
513.1595	0.12	1026319	keystroke	o	n/a
513.384	0.166	1026768	keystroke	n	n/a
513.474	0.1195	1026948	keystroke	Key.space	n/a
513.85	0.119	1027700	keystroke	d	n/a
514.4045	0.18	1028809	keystroke	r	n/a
514.5095	0.165	1029019	keystroke	e	n/a
514.7935	0.135	1029587	keystroke	a	n/a
515.184	0.105	1030368	keystroke	Key.backspace	n/a
515.349	0.12	1030698	keystroke	Key.backspace	n/a
515.484	0.135	1030968	keystroke	Key.backspace	n/a
516.174	0.12	1032348	keystroke	e	n/a
516.384	0.1045	1032768	keystroke	a	n/a
516.6695	0.1655	1033339	keystroke	t	n/a
516.94	0.0885	1033880	keystroke	h	n/a
517.074	0.1355	1034148	keystroke	s	n/a
517.1635	0.105	1034327	keystroke	Key.space	n/a
517.944	0.1045	1035888	keystroke	g	n/a
518.034	0.1055	1036068	keystroke	u	n/a
518.199	0.135	1036398	keystroke	a	n/a
518.424	0.105	1036848	keystroke	r	n/a
518.6495	0.135	1037299	keystroke	d	n/a
518.7245	0.12	1037449	keystroke	i	n/a
518.8595	0.15	1037719	keystroke	a	n/a
518.9645	0.09	1037929	keystroke	n	n/a
519.2345	0.059	1038469	keystroke	Key.enter	n/a
519.309	8.701	1038618	prompt	n/a	gerald scoring mexico downloading\n
520.2845	0.0895	1040569	keystroke	g	n/a
520.4935	0.1655	1040987	keystroke	e	n/a
520.5835	0.1055	1041167	keystroke	r	n/a
520.7635	0.211	1041527	keystroke	a	n/a
520.915	0.1485	1041830	keystroke	l	n/a
521.1385	0.15	1042277	keystroke	d	n/a
521.3485	0.09	1042697	keystroke	Key.space	n/a
522.01	0.1045	1044020	keystroke	s	n/a
522.219	0.12	1044438	keystroke	c	n/a
522.354	0.1205	1044708	keystroke	o	n/a
522.4895	0.165	1044979	keystroke	r	n/a
522.6395	0.105	1045279	keystroke	i	n/a
522.8045	0.105	1045609	keystroke	n	n/a
522.8785	0.12	1045757	keystroke	g	n/a
523.0285	0.1055	1046057	keystroke	Key.space	n/a
523.2845	0.12	1046569	keystroke	m	n/a
523.3745	0.1195	1046749	keystroke	e	n/a
523.959	0.15	1047918	keystroke	x	n/a
524.11	0.074	1048220	keystroke	i	n/a
524.214	0.165	1048428	keystroke	c	n/a
524.35	0.1945	1048700	keystroke	o	n/a
524.454	0.135	1048908	keystroke	Key.space	n/a
525.5335	0.105	1051067	keystroke	d	n/a
525.6095	0.104	1051219	keystroke	o	n/a
526.1195	0.135	1052239	keystroke	w	n/a
526.2395	0.09	1052479	keystroke	n	n/a
526.4795	0.09	1052959	keystroke	l	n/a
526.6735	0.121	1053347	keystroke	o	n/a
526.7485	0.136	1053497	keystroke	a	n/a
526.9445	0.165	1053889	keystroke	d	n/a
527.0795	0.075	1054159	keystroke	i	n/a
527.2295	0.15	1054459	keystroke	n	n/a
527.3645	0.15	1054729	keystroke	g	n/a
527.9345	0.0745	1055869	keystroke	Key.enter	n/a
528.0135	13.857	1056027	prompt	n/a	lambda douglas halo divided\n
529.7955	0.089	1059591	keystroke	l	n/a
529.8995	0.1795	1059799	keystroke	a	n/a
530.124	0.1055	1060248	keystroke	b	n/a
530.514	0.18	1061028	keystroke	d	n/a
530.6195	0.1795	1061239	keystroke	a	n/a
530.724	0.12	1061448	keystroke	Key.space	n/a
532.4035	0.075	1064807	keystroke	Key.backspace	n/a
532.5985	0.076	1065197	keystroke	Key.backspace	n/a
532.7945	0.075	1065589	keystroke	Key.backspace	n/a
533.0635	0.076	1066127	keystroke	Key.backspace	n/a
533.634	0.09	1067268	keystroke	m	n/a
534.2495	0.0895	1068499	keystroke	b	n/a
534.534	0.1055	1069068	keystroke	d	n/a
534.5645	0.2995	1069129	keystroke	a	n/a
534.669	0.21	1069338	keystroke	Key.space	n/a
536.2435	0.165	1072487	keystroke	d	n/a
536.3185	0.285	1072637	keystroke	o	n/a
536.4985	0.135	1072997	keystroke	u	n/a
536.7235	0.1205	1073447	keystroke	g	n/a
536.919	0.135	1073838	keystroke	l	n/a
537.069	0.21	1074138	keystroke	a	n/a
537.249	0.15	1074498	keystroke	s	n/a
537.369	0.1195	1074738	keystroke	Key.space	n/a
537.624	0.105	1075248	keystroke	h	n/a
537.744	0.165	1075488	keystroke	a	n/a
537.939	0.09	1075878	keystroke	l	n/a
538.1635	0.1955	1076327	keystroke	o	n/a
538.269	0.15	1076538	keystroke	Key.space	n/a
539.1995	0.15	1078399	keystroke	d	n/a
539.59	0.1945	1079180	keystroke	i	n/a
540.624	0.1205	1081248	keystroke	v	n/a
540.7585	0.135	1081517	keystroke	i	n/a
541.014	0.1945	1082028	keystroke	d	n/a
541.0895	0.269	1082179	keystroke	e	n/a
541.3145	0.179	1082629	keystroke	d	n/a
541.749	0.1195	1083498	keystroke	Key.enter	n/a
541.8835	7.6525	1083767	prompt	n/a	what's isolated days specify\n
542.6645	0.1495	1085329	keystroke	w	n/a
542.7835	0.1205	1085567	keystroke	h	n/a
542.889	0.165	1085778	keystroke	a	n/a
543.219	0.15	1086438	keystroke	t	n/a
543.504	0.1045	1087008	keystroke	'	n/a
543.6235	0.1805	1087247	keystroke	s	n/a
543.744	0.09	1087488	keystroke	Key.space	n/a
544.014	0.0455	1088028	keystroke	n	n/a
544.419	0.12	1088838	keystroke	Key.backspace	n/a
544.749	0.1505	1089498	keystroke	i	n/a
545.1095	0.135	1090219	keystroke	s	n/a
545.1995	0.075	1090399	keystroke	o	n/a
545.3795	0.12	1090759	keystroke	l	n/a
545.4845	0.075	1090969	keystroke	a	n/a
545.7245	0.0905	1091449	keystroke	t	n/a
545.875	0.209	1091750	keystroke	e	n/a
546.0245	0.1345	1092049	keystroke	d	n/a
546.144	0.1205	1092288	keystroke	Key.space	n/a
546.3245	0.2095	1092649	keystroke	d	n/a
546.444	0.165	1092888	keystroke	a	n/a
546.5945	0.1505	1093189	keystroke	y	n/a
546.76	0.12	1093520	keystroke	s	n/a
546.849	0.12	1093698	keystroke	Key.space	n/a
547.8245	0.135	1095649	keystroke	s	n/a
547.9745	0.12	1095949	keystroke	p	n/a
548.0795	0.1195	1096159	keystroke	e	n/a
548.365	0.134	1096730	keystroke	c	n/a
548.4695	0.1205	1096939	keystroke	i	n/a
548.679	0.15	1097358	keystroke	f	n/a
548.934	0.12	1097868	keystroke	y	n/a
549.4435	0.09	1098887	keystroke	Key.enter	n/a
549.5415	15.385	1099083	prompt	n/a	engineering characteristics accredited hispanic\n
551.4835	0.135	1102967	keystroke	e	n/a
551.5595	0.1045	1103119	keystroke	n	n/a
551.7535	0.136	1103507	keystroke	g	n/a
551.875	0.0735	1103750	keystroke	i	n/a
552.0535	0.076	1104107	keystroke	n	n/a
552.2335	0.09	1104467	keystroke	e	n/a
552.3995	0.209	1104799	keystroke	e	n/a
552.5045	0.135	1105009	keystroke	r	n/a
552.624	0.1055	1105248	keystroke	i	n/a
552.8035	0.1055	1105607	keystroke	n	n/a
552.8485	0.136	1105697	keystroke	g	n/a
552.9985	0.1055	1105997	keystroke	Key.space	n/a
553.2695	0.15	1106539	keystroke	c	n/a
553.4045	0.09	1106809	keystroke	h	n/a
553.5095	0.15	1107019	keystroke	a	n/a
554.1545	0.15	1108309	keystroke	t	n/a
554.3795	0.18	1108759	keystroke	a	n/a
554.7985	0.076	1109597	keystroke	Key.backspace	n/a
554.9795	0.0595	1109959	keystroke	Key.backspace	n/a
555.6845	0.12	1111369	keystroke	r	n/a
555.8645	0.12	1111729	keystroke	a	n/a
556.074	0.1655	1112148	keystroke	c	n/a
556.7045	0.06	1113409	keystroke	t	n/a
556.8095	0.195	1113619	keystroke	e	n/a
556.9135	0.106	1113827	keystroke	r	n/a
557.0495	0.135	1114099	keystroke	i	n/a
557.1545	0.18	1114309	keystroke	s	n/a
558.159	0.136	1116318	keystroke	t	n/a
558.28	0.089	1116560	keystroke	i	n/a
558.8495	0.1345	1117699	keystroke	c	n/a
559.48	0.1645	1118960	keystroke	s	n/a
559.944	0.135	1119888	keystroke	Key.space	n/a
560.409	0.1205	1120818	keystroke	a	n/a
560.6495	0.105	1121299	keystroke	c	n/a
560.83	0.1045	1121660	keystroke	c	n/a
561.1145	0.15	1122229	keystroke	r	n/a
561.1745	0.15	1122349	keystroke	e	n/a
561.5045	0.165	1123009	keystroke	d	n/a
561.6245	0.135	1123249	keystroke	i	n/a
562.089	0.135	1124178	keystroke	t	n/a
562.314	0.15	1124628	keystroke	e	n/a
562.4045	0.149	1124809	keystroke	d	n/a
562.569	0.105	1125138	keystroke	Key.space	n/a
563.1095	0.15	1126219	keystroke	h	n/a
563.2445	0.135	1126489	keystroke	i	n/a
563.3635	0.1815	1126727	keystroke	s	n/a
563.53	0.255	1127060	keystroke	p	n/a
563.829	0.18	1127658	keystroke	a	n/a
564.009	0.076	1128018	keystroke	n	n/a
564.174	0.135	1128348	keystroke	i	n/a
564.52	0.165	1129040	keystroke	c	n/a
564.7895	0.1345	1129579	keystroke	Key.enter	n/a
564.9305	18.0105	1129861	prompt	n/a	journal plastic flexibility territories\n
565.974	0.0905	1131948	keystroke	j	n/a
566.1245	0.21	1132249	keystroke	o	n/a
566.229	0.12	1132458	keystroke	u	n/a
566.3645	0.075	1132729	keystroke	s	n/a
566.484	0.105	1132968	keystroke	n	n/a
566.8885	0.12	1133777	keystroke	Key.backspace	n/a
567.084	0.1345	1134168	keystroke	Key.backspace	n/a
567.3985	0.15	1134797	keystroke	r	n/a
567.519	0.1205	1135038	keystroke	n	n/a
567.6845	0.1495	1135369	keystroke	a	n/a
567.8035	0.2115	1135607	keystroke	l	n/a
567.909	0.1355	1135818	keystroke	Key.space	n/a
568.3595	0.105	1136719	keystroke	p	n/a
568.57	0.1195	1137140	keystroke	l	n/a
568.7195	0.165	1137439	keystroke	a	n/a
569.0045	0.1495	1138009	keystroke	s	n/a
569.139	0.0755	1138278	keystroke	t	n/a
569.41	0.0295	1138820	keystroke	o	n/a
569.4845	0.1495	1138969	keystroke	c	n/a
569.649	0.135	1139298	keystroke	Key.space	n/a
570.2495	0.105	1140499	keystroke	Key.backspace	n/a
570.4445	0.075	1140889	keystroke	Key.backspace	n/a
570.6235	0.105	1141247	keystroke	Key.backspace	n/a
570.8645	0.1195	1141729	keystroke	i	n/a
570.9995	0.135	1141999	keystroke	c	n/a
571.2395	0.075	1142479	keystroke	Key.space	n/a
572.6045	0.134	1145209	keystroke	f	n/a
572.7845	0.09	1145569	keystroke	l	n/a
572.949	0.12	1145898	keystroke	e	n/a
573.415	0.165	1146830	keystroke	x	n/a
573.564	0.075	1147128	keystroke	i	n/a
573.774	0.076	1147548	keystroke	b	n/a
573.955	0.0895	1147910	keystroke	i	n/a
574.1945	0.03	1148389	keystroke	k	n/a
574.5395	0.075	1149079	keystroke	l	n/a
574.9445	0.089	1149889	keystroke	Key.backspace	n/a
575.1545	0.104	1150309	keystroke	Key.backspace	n/a
575.4095	0.1195	1150819	keystroke	l	n/a
575.649	0.1205	1151298	keystroke	i	n/a
575.784	0.165	1151568	keystroke	t	n/a
575.9345	0.18	1151869	keystroke	y	n/a
576.0395	0.15	1152079	keystroke	Key.space	n/a
576.3395	0.135	1152679	keystroke	t	n/a
576.5495	0.239	1153099	keystroke	e	n/a
576.7435	0.075	1153487	keystroke	r	n/a
576.9085	0.135	1153817	keystroke	r	n/a
577.0285	0.136	1154057	keystroke	o	n/a
577.1795	0.12	1154359	keystroke	r	n/a
579.822	0.087	1159644	keystroke	=	n/a
580.2235	0.15	1160447	keystroke	Key.backspace	n/a
580.4935	0.105	1160987	keystroke	Key.backspace	n/a
580.8535	0.1655	1161707	keystroke	Key.backspace	n/a
581.2595	0.149	1162519	keystroke	i	n/a
581.9345	0.15	1163869	keystroke	t	n/a
582.0685	0.1205	1164137	keystroke	o	n/a
582.2195	0.135	1164439	keystroke	r	n/a
582.324	0.1195	1164648	keystroke	i	n/a
582.4585	0.15	1164917	keystroke	e	n/a
582.6985	0.121	1165397	keystroke	s	n/a
582.834	0.1045	1165668	keystroke	Key.enter	n/a
582.946	9.2045	1165892	prompt	n/a	katrina trends receive amateur\n
584.3045	0.1195	1168609	keystroke	k	n/a
584.394	0.1195	1168788	keystroke	a	n/a
584.6945	0.15	1169389	keystroke	t	n/a
584.8135	0.166	1169627	keystroke	r	n/a
584.964	0.0895	1169928	keystroke	i	n/a
585.1435	0.1055	1170287	keystroke	n	n/a
585.234	0.165	1170468	keystroke	a	n/a
585.369	0.1055	1170738	keystroke	Key.space	n/a
585.6545	0.1345	1171309	keystroke	t	n/a
585.79	0.195	1171580	keystroke	r	n/a
586.105	0.1795	1172210	keystroke	e	n/a
586.5245	0.135	1173049	keystroke	n	n/a
586.705	0.1945	1173410	keystroke	d	n/a
586.8395	0.15	1173679	keystroke	s	n/a
587.0345	0.135	1174069	keystroke	Key.space	n/a
587.4245	0.195	1174849	keystroke	r	n/a
587.5745	0.195	1175149	keystroke	e	n/a
588.0095	0.2095	1176019	keystroke	c	n/a
588.2045	0.2095	1176409	keystroke	e	n/a
588.399	0.166	1176798	keystroke	i	n/a
588.625	0.179	1177250	keystroke	v	n/a
589.03	0.164	1178060	keystroke	e	n/a
589.179	0.105	1178358	keystroke	Key.space	n/a
589.54	0.135	1179080	keystroke	a	n/a
589.629	0.091	1179258	keystroke	m	n/a
589.706	0.163	1179412	keystroke	a	n/a
590.0495	0.1345	1180099	keystroke	t	n/a
590.229	0.27	1180458	keystroke	e	n/a
590.3495	0.195	1180699	keystroke	r	n/a
590.665	0.1345	1181330	keystroke	u	n/a
591.1445	0.0895	1182289	keystroke	Key.backspace	n/a
591.3105	0.0745	1182621	keystroke	Key.backspace	n/a
591.5345	0.105	1183069	keystroke	u	n/a
591.5945	0.135	1183189	keystroke	r	n/a
592.1345	0.014	1184269	keystroke	Key.enter	n/a
592.1535	5.3075	1184307	prompt	n/a	nest warming cake glory\n
593.3795	0.12	1186759	keystroke	n	n/a
593.4845	0.12	1186969	keystroke	e	n/a
593.7845	0.18	1187569	keystroke	s	n/a
593.9495	0.12	1187899	keystroke	t	n/a
594.0545	0.1495	1188109	keystroke	Key.space	n/a
594.19	0.149	1188380	keystroke	w	n/a
594.414	0.135	1188828	keystroke	a	n/a
594.624	0.195	1189248	keystroke	r	n/a
594.775	0.089	1189550	keystroke	m	n/a
594.9695	0.105	1189939	keystroke	i	n/a
595.12	0.1045	1190240	keystroke	n	n/a
595.1945	0.12	1190389	keystroke	g	n/a
595.2845	0.12	1190569	keystroke	Key.space	n/a
595.5255	0.164	1191051	keystroke	c	n/a
595.5995	0.195	1191199	keystroke	a	n/a
595.8095	0.09	1191619	keystroke	k	n/a
595.915	0.149	1191830	keystroke	e	n/a
596.049	0.09	1192098	keystroke	Key.space	n/a
596.3635	0.166	1192727	keystroke	g	n/a
596.4695	0.0745	1192939	keystroke	l	n/a
596.6645	0.1055	1193329	keystroke	o	n/a
596.845	0.165	1193690	keystroke	r	n/a
597.024	0.1505	1194048	keystroke	y	n/a
597.114	0.1055	1194228	keystroke	Key.space	n/a
597.3545	0.105	1194709	keystroke	Key.enter	n/a
597.469	6.7415	1194938	prompt	n/a	false wild garmin neighborhood\n
598.5395	0.165	1197079	keystroke	f	n/a
598.6895	0.181	1197379	keystroke	a	n/a
598.825	0.1345	1197650	keystroke	l	n/a
598.9595	0.1355	1197919	keystroke	s	n/a
599.184	0.136	1198368	keystroke	e	n/a
599.244	0.1205	1198488	keystroke	Key.space	n/a
599.4095	0.165	1198819	keystroke	w	n/a
599.4845	0.105	1198969	keystroke	i	n/a
599.6945	0.105	1199389	keystroke	l	n/a
599.7845	0.15	1199569	keystroke	d	n/a
599.9195	0.09	1199839	keystroke	Key.space	n/a
600.1745	0.119	1200349	keystroke	g	n/a
600.25	0.1795	1200500	keystroke	a	n/a
600.4895	0.15	1200979	keystroke	r	n/a
600.8195	0.105	1201639	keystroke	m	n/a
601.0295	0.075	1202059	keystroke	i	n/a
601.1795	0.18	1202359	keystroke	n	n/a
601.2995	0.119	1202599	keystroke	Key.space	n/a
601.5245	0.1355	1203049	keystroke	n	n/a
601.6295	0.165	1203259	keystroke	e	n/a
601.7645	0.1355	1203529	keystroke	i	n/a
601.9295	0.1355	1203859	keystroke	g	n/a
602.0195	0.1505	1204039	keystroke	h	n/a
602.979	0.0905	1205958	keystroke	b	n/a
603.19	0.104	1206380	keystroke	o	n/a
603.3095	0.1045	1206619	keystroke	r	n/a
603.5195	0.0745	1207039	keystroke	h	n/a
603.744	0.046	1207488	keystroke	o	n/a
603.8795	0.0905	1207759	keystroke	o	n/a
603.924	0.166	1207848	keystroke	d	n/a
604.1495	0.0595	1208299	keystroke	Key.enter	n/a
604.217	14.829	1208434	prompt	n/a	strategies searched acceptable participated\n
605.11	0.12	1210220	keystroke	s	n/a
605.4695	0.1045	1210939	keystroke	t	n/a
605.6345	0.135	1211269	keystroke	r	n/a
605.7845	0.1495	1211569	keystroke	a	n/a
606.1145	0.135	1212229	keystroke	t	n/a
606.3545	0.18	1212709	keystroke	e	n/a
606.639	0.1355	1213278	keystroke	g	n/a
606.939	0.1205	1213878	keystroke	i	n/a
607.074	0.165	1214148	keystroke	s	n/a
607.224	0.0905	1214448	keystroke	Key.space	n/a
607.614	0.1205	1215228	keystroke	s	n/a
608.2735	0.091	1216547	keystroke	Key.backspace	n/a
608.4695	0.09	1216939	keystroke	Key.backspace	n/a
608.6195	0.0895	1217239	keystroke	Key.backspace	n/a
608.95	0.18	1217900	keystroke	e	n/a
609.354	0.1505	1218708	keystroke	s	n/a
609.444	0.1355	1218888	keystroke	Key.space	n/a
609.7	0.1645	1219400	keystroke	s	n/a
609.9695	0.1045	1219939	keystroke	e	n/a
610.165	0.1795	1220330	keystroke	a	n/a
610.479	0.105	1220958	keystroke	r	n/a
610.779	0.136	1221558	keystroke	c	n/a
610.8995	0.12	1221799	keystroke	h	n/a
611.185	0.2095	1222370	keystroke	e	n/a
611.38	0.1345	1222760	keystroke	d	n/a
611.4845	0.12	1222969	keystroke	Key.space	n/a
611.815	0.164	1223630	keystroke	a	n/a
612.025	0.105	1224050	keystroke	c	n/a
612.144	0.21	1224288	keystroke	c	n/a
612.8485	0.1515	1225697	keystroke	e	n/a
612.939	0.1205	1225878	keystroke	p	n/a
613.1345	0.06	1226269	keystroke	t	n/a
613.4795	0.18	1226959	keystroke	a	n/a
613.4945	0.105	1226989	keystroke	b	n/a
613.765	0.1195	1227530	keystroke	l	n/a
613.825	0.1935	1227650	keystroke	e	n/a
614.0495	0.0745	1228099	keystroke	Key.space	n/a
615.2945	0.0905	1230589	keystroke	p	n/a
615.4	0.135	1230800	keystroke	a	n/a
615.64	0.119	1231280	keystroke	r	n/a
615.865	0.12	1231730	keystroke	t	n/a
616	0.119	1232000	keystroke	i	n/a
616.194	0.18	1232388	keystroke	c	n/a
616.3	0.1195	1232600	keystroke	i	n/a
616.57	0.104	1233140	keystroke	p	n/a
616.6595	0.1795	1233319	keystroke	a	n/a
616.824	0.1355	1233648	keystroke	l	n/a
617.019	0.106	1234038	keystroke	t	n/a
617.2	0.164	1234400	keystroke	e	n/a
617.3195	0.1055	1234639	keystroke	d	n/a
617.874	0.105	1235748	keystroke	Key.backspace	n/a
618.069	0.0905	1236138	keystroke	Key.backspace	n/a
618.234	0.075	1236468	keystroke	Key.backspace	n/a
618.384	0.1055	1236768	keystroke	Key.backspace	n/a
618.504	0.0905	1237008	keystroke	t	n/a
618.624	0.211	1237248	keystroke	e	n/a
618.819	0.06	1237638	keystroke	d	n/a
618.984	0.0605	1237968	keystroke	Key.enter	n/a
619.06	14.986	1238120	prompt	n/a	intermediate highest theatre mexico\n
620.455	0.104	1240910	keystroke	i	n/a
620.6495	0.105	1241299	keystroke	n	n/a
620.7695	0.075	1241539	keystroke	t	n/a
620.8895	0.181	1241779	keystroke	e	n/a
620.9795	0.15	1241959	keystroke	r	n/a
621.2345	0.09	1242469	keystroke	m	n/a
621.3095	0.1945	1242619	keystroke	e	n/a
621.564	0.135	1243128	keystroke	d	n/a
622.224	0.12	1244448	keystroke	i	n/a
622.674	0.151	1245348	keystroke	a	n/a
622.945	0.09	1245890	keystroke	t	n/a
623.094	0.18	1246188	keystroke	e	n/a
623.304	0.105	1246608	keystroke	Key.space	n/a
623.754	0.15	1247508	keystroke	h	n/a
624.1595	0.0155	1248319	keystroke	i	n/a
624.19	0.06	1248380	keystroke	g	n/a
624.385	0.135	1248770	keystroke	h	n/a
625.03	0.044	1250060	keystroke	t	n/a
625.539	0.135	1251078	keystroke	Key.backspace	n/a
625.676	0.119	1251352	keystroke	e	n/a
625.915	0.135	1251830	keystroke	s	n/a
626.1545	0.12	1252309	keystroke	t	n/a
626.245	0.1345	1252490	keystroke	Key.space	n/a
626.95	0.12	1253900	keystroke	t	n/a
627.039	0.121	1254078	keystroke	h	n/a
627.175	0.1195	1254350	keystroke	e	n/a
627.4445	0.1495	1254889	keystroke	a	n/a
627.79	0.1795	1255580	keystroke	t	n/a
629.1545	0.165	1258309	keystroke	r	n/a
629.245	0.1795	1258490	keystroke	e	n/a
629.3045	0.105	1258609	keystroke	Key.space	n/a
629.5445	0.135	1259089	keystroke	m	n/a
629.6195	0.09	1259239	keystroke	e	n/a
629.8595	0.165	1259719	keystroke	c	n/a
629.9345	0.12	1259869	keystroke	i	n/a
630.1745	0.165	1260349	keystroke	s	n/a
630.2645	0.09	1260529	keystroke	o	n/a
630.5795	0.0745	1261159	keystroke	Key.backspace	n/a
630.744	0.061	1261488	keystroke	Key.backspace	n/a
630.8945	0.09	1261789	keystroke	Key.backspace	n/a
632.3345	0.1195	1264669	keystroke	Key.backspace	n/a
632.9495	0.15	1265899	keystroke	x	n/a
633.145	0.074	1266290	keystroke	i	n/a
633.3845	0.135	1266769	keystroke	c	n/a
633.5495	0.135	1267099	keystroke	o	n/a
633.9995	0.044	1267999	keystroke	Key.enter	n/a
634.0495	7.7515	1268099	prompt	n/a	seeing lancaster deemed maps\n
634.885	0.119	1269770	keystroke	s	n/a
635.124	0.06	1270248	keystroke	e	n/a
635.259	0.151	1270518	keystroke	e	n/a
635.394	0.076	1270788	keystroke	i	n/a
635.56	0.089	1271120	keystroke	n	n/a
635.5895	0.135	1271179	keystroke	g	n/a
635.7395	0.09	1271479	keystroke	Key.space	n/a
636.0245	0.0595	1272049	keystroke	l	n/a
636.069	0.1505	1272138	keystroke	a	n/a
637.1795	0.06	1274359	keystroke	n	n/a
637.39	0.1345	1274780	keystroke	c	n/a
637.509	0.181	1275018	keystroke	a	n/a
637.705	0.15	1275410	keystroke	s	n/a
638.035	0.149	1276070	keystroke	t	n/a
638.245	0.195	1276490	keystroke	e	n/a
638.334	0.166	1276668	keystroke	r	n/a
638.4845	0.1205	1276969	keystroke	Key.space	n/a
638.799	0.211	1277598	keystroke	d	n/a
639.19	0.12	1278380	keystroke	e	n/a
639.384	0.18	1278768	keystroke	e	n/a
639.504	0.106	1279008	keystroke	m	n/a
639.8345	0.2105	1279669	keystroke	e	n/a
639.9995	0.135	1279999	keystroke	d	n/a
640.2095	0.12	1280419	keystroke	Key.space	n/a
640.9595	0.135	1281919	keystroke	m	n/a
641.049	0.1655	1282098	keystroke	a	n/a
641.364	0.1205	1282728	keystroke	p	n/a
641.5145	0.0895	1283029	keystroke	s	n/a
641.724	0.075	1283448	keystroke	Key.enter	n/a
641.8065	7.5695	1283613	prompt	n/a	republican enjoyed owner meant\n
642.805	0.134	1285610	keystroke	r	n/a
642.895	0.1645	1285790	keystroke	e	n/a
643.045	0.12	1286090	keystroke	p	n/a
643.36	0.104	1286720	keystroke	u	n/a
643.749	0.1205	1287498	keystroke	b	n/a
643.84	0.06	1287680	keystroke	l	n/a
644.0355	0.0745	1288071	keystroke	i	n/a
644.3045	0.135	1288609	keystroke	c	n/a
644.4245	0.18	1288849	keystroke	a	n/a
644.5895	0.225	1289179	keystroke	n	n/a
644.7395	0.105	1289479	keystroke	Key.space	n/a
644.9795	0.165	1289959	keystroke	e	n/a
645.0995	0.1355	1290199	keystroke	n	n/a
645.4905	0.089	1290981	keystroke	j	n/a
646.24	0.1345	1292480	keystroke	o	n/a
646.5545	0.06	1293109	keystroke	y	n/a
646.78	0.18	1293560	keystroke	e	n/a
646.9	0.135	1293800	keystroke	d	n/a
647.004	0.091	1294008	keystroke	Key.space	n/a
647.38	0.134	1294760	keystroke	o	n/a
647.65	0.1795	1295300	keystroke	w	n/a
647.77	0.105	1295540	keystroke	n	n/a
648.069	0.225	1296138	keystroke	e	n/a
648.22	0.134	1296440	keystroke	r	n/a
648.324	0.0905	1296648	keystroke	Key.space	n/a
648.52	0.12	1297040	keystroke	m	n/a
648.595	0.164	1297190	keystroke	e	n/a
648.82	0.1495	1297640	keystroke	a	n/a
648.925	0.0895	1297850	keystroke	n	n/a
649.089	0.151	1298178	keystroke	t	n/a
649.269	0.1055	1298538	keystroke	Key.enter	n/a
649.381	7.645	1298762	prompt	n/a	secret wales duplicate steam\n
650.124	0.121	1300248	keystroke	s	n/a
650.335	0.119	1300670	keystroke	e	n/a
650.6355	0.1195	1301271	keystroke	c	n/a
650.9645	0.165	1301929	keystroke	r	n/a
651.0545	0.165	1302109	keystroke	e	n/a
651.3245	0.18	1302649	keystroke	t	n/a
651.4895	0.1205	1302979	keystroke	Key.space	n/a
651.6405	0.1645	1303281	keystroke	w	n/a
651.865	0.149	1303730	keystroke	a	n/a
652.089	0.151	1304178	keystroke	l	n/a
652.255	0.194	1304510	keystroke	e	n/a
652.615	0.1805	1305230	keystroke	s	n/a
652.765	0.119	1305530	keystroke	Key.space	n/a
653.5745	0.1655	1307149	keystroke	d	n/a
653.6945	0.12	1307389	keystroke	u	n/a
653.9645	0.0895	1307929	keystroke	p	n/a
654.159	0.076	1308318	keystroke	l	n/a
654.369	0.0905	1308738	keystroke	i	n/a
654.4745	0.1195	1308949	keystroke	c	n/a
654.564	0.12	1309128	keystroke	a	n/a
654.88	0.135	1309760	keystroke	t	n/a
655.045	0.195	1310090	keystroke	e	n/a
655.2535	0.0905	1310507	keystroke	Key.space	n/a
655.63	0.165	1311260	keystroke	s	n/a
656.0345	0.12	1312069	keystroke	t	n/a
656.3495	0.165	1312699	keystroke	e	n/a
656.5745	0.165	1313149	keystroke	a	n/a
656.6795	0.1355	1313359	keystroke	m	n/a
656.9645	0.0595	1313929	keystroke	Key.enter	n/a
657.03	9.4045	1314060	prompt	n/a	mayor chronic application amplifier\n
658.119	0.105	1316238	keystroke	m	n/a
658.254	0.151	1316508	keystroke	a	n/a
658.629	0.106	1317258	keystroke	y	n/a
658.8695	0.12	1317739	keystroke	o	n/a
659.0045	0.0905	1318009	keystroke	r	n/a
659.109	0.1205	1318218	keystroke	Key.space	n/a
659.2745	0.12	1318549	keystroke	c	n/a
659.3795	0.075	1318759	keystroke	h	n/a
659.4995	0.18	1318999	keystroke	r	n/a
659.6195	0.1055	1319239	keystroke	o	n/a
660.0695	0.1045	1320139	keystroke	n	n/a
660.3845	0.181	1320769	keystroke	c	n/a
660.5955	0.06	1321191	keystroke	i	n/a
660.8505	0.059	1321701	keystroke	Key.backspace	n/a
661.0145	0.09	1322029	keystroke	Key.backspace	n/a
661.2555	0.104	1322511	keystroke	i	n/a
661.3895	0.12	1322779	keystroke	c	n/a
661.5245	0.0895	1323049	keystroke	Key.space	n/a
661.84	0.1945	1323680	keystroke	a	n/a
661.975	0.074	1323950	keystroke	p	n/a
662.1245	0.1055	1324249	keystroke	p	n/a
662.335	0.12	1324670	keystroke	l	n/a
662.574	0.105	1325148	keystroke	i	n/a
662.6645	0.1655	1325329	keystroke	c	n/a
662.785	0.18	1325570	keystroke	a	n/a
663.114	0.1665	1326228	keystroke	t	n/a
663.19	0.135	1326380	keystroke	i	n/a
663.264	0.12	1326528	keystroke	o	n/a
663.4905	0.119	1326981	keystroke	n	n/a
663.564	0.0905	1327128	keystroke	Key.space	n/a
663.685	0.135	1327370	keystroke	a	n/a
663.76	0.104	1327520	keystroke	p	n/a
664.4195	0.1205	1328839	keystroke	Key.backspace	n/a
664.689	0.121	1329378	keystroke	m	n/a
664.8995	0.075	1329799	keystroke	p	n/a
665.0645	0.075	1330129	keystroke	l	n/a
665.2595	0.075	1330519	keystroke	i	n/a
665.4695	0.105	1330939	keystroke	f	n/a
665.5295	0.091	1331059	keystroke	i	n/a
665.6495	0.1505	1331299	keystroke	e	n/a
666.1895	0.105	1332379	keystroke	r	n/a
666.3995	0.03	1332799	keystroke	Key.enter	n/a
666.4385	8.7675	1332877	prompt	n/a	kenny bulgarian permission abraham\n
667.39	0.105	1334780	keystroke	k	n/a
667.48	0.1655	1334960	keystroke	e	n/a
667.6895	0.06	1335379	keystroke	n	n/a
667.8245	0.0905	1335649	keystroke	n	n/a
668.0195	0.15	1336039	keystroke	y	n/a
668.11	0.1045	1336220	keystroke	Key.space	n/a
668.2895	0.09	1336579	keystroke	b	n/a
668.499	0.046	1336998	keystroke	u	n/a
669.2045	0.0595	1338409	keystroke	l	n/a
669.49	0.1055	1338980	keystroke	g	n/a
669.58	0.135	1339160	keystroke	a	n/a
669.82	0.09	1339640	keystroke	r	n/a
669.88	0.1045	1339760	keystroke	i	n/a
669.9995	0.151	1339999	keystroke	a	n/a
670.1045	0.1945	1340209	keystroke	n	n/a
670.2245	0.1205	1340449	keystroke	Key.space	n/a
670.5555	0.134	1341111	keystroke	p	n/a
670.7045	0.196	1341409	keystroke	e	n/a
670.8095	0.1355	1341619	keystroke	r	n/a
671.08	0.149	1342160	keystroke	s	n/a
671.8895	0.075	1343779	keystroke	Key.backspace	n/a
672.1595	0.0905	1344319	keystroke	m	n/a
672.3245	0.135	1344649	keystroke	i	n/a
672.505	0.045	1345010	keystroke	s	n/a
672.639	0.136	1345278	keystroke	s	n/a
672.714	0.09	1345428	keystroke	i	n/a
672.91	0.045	1345820	keystroke	o	n/a
673.0755	0.134	1346151	keystroke	n	n/a
673.1645	0.105	1346329	keystroke	Key.space	n/a
673.3295	0.136	1346659	keystroke	a	n/a
673.6745	0.0905	1347349	keystroke	b	n/a
673.945	0.105	1347890	keystroke	r	n/a
674.095	0.1495	1348190	keystroke	a	n/a
674.2295	0.09	1348459	keystroke	h	n/a
674.3345	0.165	1348669	keystroke	a	n/a
674.545	0.105	1349090	keystroke	m	n/a
675.0695	0.135	1350139	keystroke	Key.enter	n/a
675.211	9.132	1350422	prompt	n/a	freeware arab jeans democratic\n
676.1205	0.0895	1352241	keystroke	f	n/a
676.36	0.1355	1352720	keystroke	r	n/a
676.5245	0.091	1353049	keystroke	e	n/a
676.7055	0.1495	1353411	keystroke	e	n/a
676.9605	0.134	1353921	keystroke	w	n/a
677.139	0.1505	1354278	keystroke	a	n/a
677.3655	0.1195	1354731	keystroke	r	n/a
677.5	0.165	1355000	keystroke	e	n/a
677.65	0.149	1355300	keystroke	Key.space	n/a
677.8145	0.1655	1355629	keystroke	a	n/a
677.995	0.1355	1355990	keystroke	r	n/a
678.1455	0.1795	1356291	keystroke	a	n/a
678.5805	0.195	1357161	keystroke	b	n/a
678.684	0.15	1357368	keystroke	Key.space	n/a
679.4495	0.165	1358899	keystroke	j	n/a
679.6295	0.09	1359259	keystroke	e	n/a
679.7945	0.15	1359589	keystroke	a	n/a
679.915	0.1195	1359830	keystroke	n	n/a
680.0795	0.15	1360159	keystroke	s	n/a
680.1995	0.12	1360399	keystroke	Key.space	n/a
681.685	0.18	1363370	keystroke	d	n/a
681.7755	0.1945	1363551	keystroke	e	n/a
681.9995	0.09	1363999	keystroke	m	n/a
682.1955	0.09	1364391	keystroke	o	n/a
682.3455	0.09	1364691	keystroke	c	n/a
682.57	0.0745	1365140	keystroke	r	n/a
682.7345	0.135	1365469	keystroke	a	n/a
682.9755	0.1645	1365951	keystroke	t	n/a
683.2755	0.1795	1366551	keystroke	i	n/a
684.1	0.149	1368200	keystroke	c	n/a
684.234	0.106	1368468	keystroke	Key.enter	n/a
684.3535	9.2145	1368707	prompt	n/a	cheapest twiki oral treatments\n
685.0905	0.134	1370181	keystroke	c	n/a
685.2095	0.105	1370419	keystroke	h	n/a
685.359	0.091	1370718	keystroke	e	n/a
685.51	0.15	1371020	keystroke	a	n/a
685.615	0.09	1371230	keystroke	p	n/a
685.81	0.165	1371620	keystroke	e	n/a
686.02	0.1505	1372040	keystroke	s	n/a
686.1995	0.1665	1372399	keystroke	t	n/a
686.335	0.12	1372670	keystroke	Key.space	n/a
686.47	0.135	1372940	keystroke	t	n/a
686.7255	0.18	1373451	keystroke	w	n/a
686.8605	0.135	1373721	keystroke	i	n/a
687.4745	0.121	1374949	keystroke	k	n/a
687.7745	0.075	1375549	keystroke	i	n/a
688.405	0.105	1376810	keystroke	Key.space	n/a
688.9295	0.105	1377859	keystroke	o	n/a
689.065	0.09	1378130	keystroke	r	n/a
689.2445	0.1655	1378489	keystroke	a	n/a
689.62	0.2095	1379240	keystroke	l	n/a
689.7545	0.15	1379509	keystroke	Key.space	n/a
690.565	0.165	1381130	keystroke	t	n/a
690.715	0.135	1381430	keystroke	r	n/a
690.9845	0.12	1381969	keystroke	e	n/a
691.2245	0.0755	1382449	keystroke	a	n/a
691.435	0.12	1382870	keystroke	t	n/a
691.6305	0.194	1383261	keystroke	e	n/a
691.7495	0.135	1383499	keystroke	n	n/a
692.1695	0.075	1384339	keystroke	Key.backspace	n/a
692.3495	0.09	1384699	keystroke	Key.backspace	n/a
692.605	0.105	1385210	keystroke	m	n/a
692.68	0.15	1385360	keystroke	e	n/a
692.786	0.134	1385572	keystroke	n	n/a
692.86	0.1495	1385720	keystroke	t	n/a
693.25	0.1495	1386500	keystroke	s	n/a
693.385	0.18	1386770	keystroke	Key.enter	n/a
693.578	8.703	1387156	prompt	n/a	clicks we'd hospitality cons\n
694.5845	0.1805	1389169	keystroke	c	n/a
695.515	0.135	1391030	keystroke	l	n/a
695.755	0.12	1391510	keystroke	i	n/a
695.89	0.12	1391780	keystroke	c	n/a
695.995	0.119	1391990	keystroke	k	n/a
696.144	0.181	1392288	keystroke	s	n/a
696.264	0.12	1392528	keystroke	Key.space	n/a
696.565	0.24	1393130	keystroke	w	n/a
696.715	0.15	1393430	keystroke	e	n/a
697	0.1655	1394000	keystroke	'	n/a
697.4795	0.135	1394959	keystroke	d	n/a
697.7795	0.12	1395559	keystroke	Key.space	n/a
698.245	0.09	1396490	keystroke	h	n/a
698.6495	0.1655	1397299	keystroke	o	n/a
698.9645	0.135	1397929	keystroke	s	n/a
699.0845	0.15	1398169	keystroke	p	n/a
699.3855	0.1045	1398771	keystroke	i	n/a
700.1805	0.1345	1400361	keystroke	t	n/a
700.33	0.18	1400660	keystroke	a	n/a
700.4355	0.076	1400871	keystroke	l	n/a
700.6305	0.1345	1401261	keystroke	i	n/a
700.855	0.149	1401710	keystroke	t	n/a
701.0195	0.18	1402039	keystroke	y	n/a
701.124	0.136	1402248	keystroke	Key.space	n/a
701.59	0.1795	1403180	keystroke	c	n/a
701.68	0.1045	1403360	keystroke	o	n/a
701.845	0.135	1403690	keystroke	n	n/a
701.994	0.121	1403988	keystroke	s	n/a
702.205	0.074	1404410	keystroke	Key.enter	n/a
702.2875	18.039	1404575	prompt	n/a	spot hang would've evening\n
707.233	0.072	1414466	keystroke	c	n/a
707.83	0.2405	1415660	keystroke	p	n/a
708.0105	0.149	1416021	keystroke	o	n/a
708.19	0.1055	1416380	keystroke	t	n/a
708.3545	0.1205	1416709	keystroke	Key.space	n/a
708.6395	0.1205	1417279	keystroke	h	n/a
708.9555	0.12	1417911	keystroke	a	n/a
709.27	0.09	1418540	keystroke	Key.backspace	n/a
709.4645	0.09	1418929	keystroke	Key.backspace	n/a
709.675	0.06	1419350	keystroke	Key.backspace	n/a
709.854	0.076	1419708	keystroke	Key.backspace	n/a
710.049	0.121	1420098	keystroke	Key.backspace	n/a
710.245	0.119	1420490	keystroke	Key.backspace	n/a
710.7695	0.1205	1421539	keystroke	Key.backspace	n/a
711.145	0.104	1422290	keystroke	s	n/a
711.22	0.225	1422440	keystroke	p	n/a
711.37	0.165	1422740	keystroke	o	n/a
711.639	0.121	1423278	keystroke	t	n/a
711.7745	0.1055	1423549	keystroke	Key.space	n/a
712.045	0.09	1424090	keystroke	h	n/a
712.136	0.149	1424272	keystroke	a	n/a
712.255	0.1195	1424510	keystroke	n	n/a
712.3595	0.1805	1424719	keystroke	d	n/a
712.525	0.09	1425050	keystroke	Key.space	n/a
712.7955	0.1645	1425591	keystroke	w	n/a
712.8705	0.2245	1425741	keystroke	o	n/a
713.155	0.135	1426310	keystroke	u	n/a
714.115	0.1355	1428230	keystroke	d	n/a
714.236	0.134	1428472	keystroke	l	n/a
714.8205	0.104	1429641	keystroke	Key.backspace	n/a
714.9995	0.09	1429999	keystroke	Key.backspace	n/a
715.2255	0.1335	1430451	keystroke	l	n/a
715.2845	0.166	1430569	keystroke	d	n/a
715.585	0.1655	1431170	keystroke	;	n/a
716.1395	0.15	1432279	keystroke	Key.backspace	n/a
716.62	0.075	1433240	keystroke	'	n/a
717.0705	0.165	1434141	keystroke	v	n/a
717.1905	0.179	1434381	keystroke	e	n/a
717.355	0.1195	1434710	keystroke	Key.space	n/a
717.9555	0.105	1435911	keystroke	e	n/a
718.18	0.151	1436360	keystroke	a	n/a
718.72	0.165	1437440	keystroke	Key.backspace	n/a
718.9	0.18	1437800	keystroke	v	n/a
719.1405	0.194	1438281	keystroke	e	n/a
719.515	0.1055	1439030	keystroke	n	n/a
719.7245	0.0755	1439449	keystroke	i	n/a
719.8745	0.105	1439749	keystroke	n	n/a
719.9495	0.151	1439899	keystroke	g	n/a
720.22	0.104	1440440	keystroke	Key.enter	n/a
720.3315	6.9995	1440663	prompt	n/a	floor mating surround periods\n
721.8405	0.12	1443681	keystroke	f	n/a
721.9155	0.09	1443831	keystroke	l	n/a
722.1255	0.045	1444251	keystroke	o	n/a
722.2445	0.106	1444489	keystroke	o	n/a
722.3645	0.105	1444729	keystroke	r	n/a
722.4845	0.061	1444969	keystroke	Key.space	n/a
722.695	0.1205	1445390	keystroke	m	n/a
722.8005	0.1945	1445601	keystroke	a	n/a
723.175	0.15	1446350	keystroke	t	n/a
723.28	0.105	1446560	keystroke	i	n/a
723.46	0.09	1446920	keystroke	n	n/a
723.535	0.121	1447070	keystroke	g	n/a
723.64	0.105	1447280	keystroke	Key.space	n/a
724.2555	0.105	1448511	keystroke	s	n/a
724.3305	0.1195	1448661	keystroke	u	n/a
724.54	0.09	1449080	keystroke	r	n/a
724.705	0.12	1449410	keystroke	r	n/a
724.795	0.2095	1449590	keystroke	o	n/a
724.945	0.0745	1449890	keystroke	u	n/a
725.155	0.0895	1450310	keystroke	n	n/a
725.304	0.15	1450608	keystroke	d	n/a
725.89	0.12	1451780	keystroke	Key.space	n/a
726.16	0.105	1452320	keystroke	p	n/a
726.28	0.15	1452560	keystroke	e	n/a
726.37	0.15	1452740	keystroke	r	n/a
726.505	0.1505	1453010	keystroke	i	n/a
726.625	0.1505	1453250	keystroke	o	n/a
726.82	0.2695	1453640	keystroke	d	n/a
727	0.1505	1454000	keystroke	s	n/a
727.2395	0.09	1454479	keystroke	Key.enter	n/a
727.3405	10.041	1454681	prompt	n/a	rapid members celebs relates\n
728.185	0.1205	1456370	keystroke	r	n/a
728.35	0.1645	1456700	keystroke	a	n/a
728.5455	0.135	1457091	keystroke	p	n/a
728.7695	0.1355	1457539	keystroke	i	n/a
728.9505	0.1495	1457901	keystroke	c	n/a
729.4895	0.1195	1458979	keystroke	Key.backspace	n/a
729.6255	0.1195	1459251	keystroke	d	n/a
729.76	0.09	1459520	keystroke	Key.space	n/a
730.015	0.1195	1460030	keystroke	m	n/a
730.12	0.1655	1460240	keystroke	e	n/a
730.2405	0.09	1460481	keystroke	m	n/a
730.4955	0.104	1460991	keystroke	b	n/a
730.585	0.2095	1461170	keystroke	e	n/a
730.6755	0.18	1461351	keystroke	r	n/a
730.9305	0.15	1461861	keystroke	s	n/a
731.05	0.105	1462100	keystroke	Key.space	n/a
731.3505	0.134	1462701	keystroke	c	n/a
731.5895	0.135	1463179	keystroke	e	n/a
731.71	0.1055	1463420	keystroke	l	n/a
731.83	0.165	1463660	keystroke	e	n/a
734.338	0.027	1468676	keystroke	b	n/a
734.3945	0.1205	1468789	keystroke	s	n/a
734.5	0.09	1469000	keystroke	Key.space	n/a
734.6655	0.1645	1469331	keystroke	r	n/a
734.74	0.165	1469480	keystroke	e	n/a
734.89	0.135	1469780	keystroke	l	n/a
735.04	0.075	1470080	keystroke	a	n/a
735.2355	0.1195	1470471	keystroke	t	n/a
735.415	0.18	1470830	keystroke	e	n/a
735.9105	0.15	1471821	keystroke	d	n/a
736.705	0.195	1473410	keystroke	Key.backspace	n/a
737.035	0.1205	1474070	keystroke	s	n/a
737.2895	0.09	1474579	keystroke	Key.enter	n/a
737.386	18.746	1474772	prompt	n/a	councils nextel please jewellery\n
740.8325	0.0885	1481665	keystroke	c	n/a
740.8595	0.0765	1481719	keystroke	o	n/a
741.0405	0.105	1482081	keystroke	n	n/a
741.1	0.151	1482200	keystroke	c	n/a
741.3255	0.09	1482651	keystroke	i	n/a
741.535	0.0895	1483070	keystroke	l	n/a
741.6255	0.1655	1483251	keystroke	s	n/a
741.7445	0.135	1483489	keystroke	Key.space	n/a
742.2105	0.075	1484421	keystroke	b	n/a
744.2495	0.1355	1488499	keystroke	Key.backspace	n/a
745.6	0.09	1491200	keystroke	n	n/a
745.75	0.105	1491500	keystroke	e	n/a
746.2755	0.135	1492551	keystroke	x	n/a
746.4555	0.09	1492911	keystroke	t	n/a
746.83	0.18	1493660	keystroke	e	n/a
746.9645	0.1205	1493929	keystroke	l	n/a
747.146	0.195	1494292	keystroke	s	n/a
747.775	0.12	1495550	keystroke	Key.backspace	n/a
748.1205	0.1045	1496241	keystroke	Key.space	n/a
748.405	0.106	1496810	keystroke	p	n/a
748.6005	0.12	1497201	keystroke	l	n/a
748.6755	0.1495	1497351	keystroke	e	n/a
748.916	0.18	1497832	keystroke	a	n/a
748.9905	0.1345	1497981	keystroke	s	n/a
749.245	0.1805	1498490	keystroke	e	n/a
749.3195	0.1205	1498639	keystroke	Key.space	n/a
749.545	0.075	1499090	keystroke	j	n/a
