onset	duration	sample	value	key	prompt_text
4.9965	7.6365	9993	prompt	n/a	the quick brown fox jumps over a lazy dog\n
6.148	0.012	12296	keystroke_t	t	n/a
6.161	0.104	12322	keystroke_h	h	n/a
6.311	0.1385	12622	keystroke_e	e	n/a
6.4645	0.105	12929	keystroke_Key.space	Key.space	n/a
6.7195	0.045	13439	keystroke_q	q	n/a
6.8545	0.075	13709	keystroke_u	u	n/a
7.05	0.09	14100	keystroke_i	i	n/a
7.17	0.12	14340	keystroke_c	c	n/a
7.305	0.06	14610	keystroke_k	k	n/a
7.455	0.075	14910	keystroke_Key.space	Key.space	n/a
7.695	0.12	15390	keystroke_b	b	n/a
7.8445	0.105	15689	keystroke_r	r	n/a
7.9645	0.15	15929	keystroke_o	o	n/a
8.2945	0.09	16589	keystroke_w	w	n/a
8.4145	0.09	16829	keystroke_n	n	n/a
8.6245	0.075	17249	keystroke_Key.space	Key.space	n/a
8.7145	0.075	17429	keystroke_f	f	n/a
8.8045	0.0905	17609	keystroke_o	o	n/a
8.955	0.119	17910	keystroke_x	x	n/a
9.089	0.09	18178	keystroke_Key.space	Key.space	n/a
9.224	0.09	18448	keystroke_j	j	n/a
9.495	0.015	18990	keystroke_u	u	n/a
9.629	0.06	19258	keystroke_m	m	n/a
9.824	0.106	19648	keystroke_p	p	n/a
9.975	0.134	19950	keystroke_s	s	n/a
10.094	0.076	20188	keystroke_Key.space	Key.space	n/a
10.214	0.105	20428	keystroke_o	o	n/a
10.334	0.0755	20668	keystroke_v	v	n/a
10.5145	0.0595	21029	keystroke_e	e	n/a
10.679	0.075	21358	keystroke_r	r	n/a
10.829	0.076	21658	keystroke_Key.space	Key.space	n/a
10.964	0.075	21928	keystroke_a	a	n/a
11.024	0.075	22048	keystroke_Key.space	Key.space	n/a
11.159	0.09	22318	keystroke_l	l	n/a
11.174	0.105	22348	keystroke_a	a	n/a
11.399	0.09	22798	keystroke_z	z	n/a
11.534	0.12	23068	keystroke_y	y	n/a
12	0.104	24000	keystroke_Key.space	Key.space	n/a
12.134	0.121	24268	keystroke_d	d	n/a
12.224	0.135	24448	keystroke_o	o	n/a
12.374	0.076	24748	keystroke_g	g	n/a
12.554	0.075	25108	keystroke_Key.enter	Key.enter	n/a
12.64	4.956	25280	prompt	n/a	moscow burns maintains collapse\n
13.38	0.074	26760	keystroke_m	m	n/a
13.514	0.105	27028	keystroke_o	o	n/a
13.635	0.06	27270	keystroke_s	s	n/a
13.769	0.09	27538	keystroke_c	c	n/a
13.875	0.089	27750	keystroke_o	o	n/a
14.069	0.076	28138	keystroke_w	w	n/a
14.159	0.09	28318	keystroke_Key.space	Key.space	n/a
14.339	0.06	28678	keystroke_b	b	n/a
14.429	0.091	28858	keystroke_u	u	n/a
14.565	0.075	29130	keystroke_r	r	n/a
14.684	0.09	29368	keystroke_n	n	n/a
14.819	0.09	29638	keystroke_s	s	n/a
15.014	0.075	30028	keystroke_Key.space	Key.space	n/a
15.21	0.089	30420	keystroke_m	m	n/a
15.314	0.106	30628	keystroke_a	a	n/a
15.42	0.12	30840	keystroke_i	i	n/a
15.465	0.164	30930	keystroke_n	n	n/a
15.645	0.059	31290	keystroke_t	t	n/a
15.87	0.074	31740	keystroke_a	a	n/a
15.93	0.089	31860	keystroke_i	i	n/a
15.959	0.136	31918	keystroke_n	n	n/a
16.124	0.106	32248	keystroke_s	s	n/a
16.244	0.09	32488	keystroke_Key.space	Key.space	n/a
16.394	0.0905	32788	keystroke_c	c	n/a
16.5145	0.0905	33029	keystroke_o	o	n/a
16.7245	0.045	33449	keystroke_l	l	n/a
16.8445	0.075	33689	keystroke_l	l	n/a
16.9795	0.0605	33959	keystroke_a	a	n/a
17.054	0.09	34108	keystroke_p	p	n/a
17.174	0.075	34348	keystroke_s	s	n/a
17.354	0.1055	34708	keystroke_e	e	n/a
17.519	0.075	35038	keystroke_Key.enter	Key.enter	n/a
17.6005	7.3315	35201	prompt	n/a	canon chelsea visibility brother\n
18.2395	0.06	36479	keystroke_c	c	n/a
18.4345	0.075	36869	keystroke_a	a	n/a
18.5395	0.09	37079	keystroke_n	n	n/a
18.6745	0.1505	37349	keystroke_o	o	n/a
18.7645	0.075	37529	keystroke_n	n	n/a
18.9595	0.075	37919	keystroke_Key.space	Key.space	n/a
19.0495	0.09	38099	keystroke_c	c	n/a
19.1235	0.091	38247	keystroke_h	h	n/a
19.2445	0.09	38489	keystroke_e	e	n/a
19.3495	0.09	38699	keystroke_l	l	n/a
19.4545	0.075	38909	keystroke_s	s	n/a
19.649	0.076	39298	keystroke_e	e	n/a
19.89	0.045	39780	keystroke_a	a	n/a
19.979	0.09	39958	keystroke_Key.space	Key.space	n/a
20.16	0.104	40320	keystroke_v	v	n/a
20.324	0.075	40648	keystroke_i	i	n/a
20.444	0.061	40888	keystroke_s	s	n/a
21.24	0.089	42480	keystroke_i	i	n/a
21.45	0.075	42900	keystroke_b	b	n/a
21.585	0.075	43170	keystroke_i	i	n/a
21.87	0.089	43740	keystroke_l	l	n/a
22.094	0.09	44188	keystroke_i	i	n/a
23.069	0.06	46138	keystroke_t	t	n/a
23.219	0.075	46438	keystroke_y	y	n/a
23.714	0.105	47428	keystroke_Key.space	Key.space	n/a
23.985	0.059	47970	keystroke_b	b	n/a
24.029	0.09	48058	keystroke_r	r	n/a
24.164	0.075	48328	keystroke_o	o	n/a
24.209	0.06	48418	keystroke_t	t	n/a
24.36	0.089	48720	keystroke_h	h	n/a
24.419	0.09	48838	keystroke_e	e	n/a
24.584	0.075	49168	keystroke_r	r	n/a
24.854	0.075	49708	keystroke_Key.enter	Key.enter	n/a
24.937	4.7045	49874	prompt	n/a	wage karen russian coins\n
25.559	0.075	51118	keystroke_w	w	n/a
25.724	0.105	51448	keystroke_a	a	n/a
25.934	0.12	51868	keystroke_g	g	n/a
26.04	0.089	52080	keystroke_e	e	n/a
26.174	0.075	52348	keystroke_Key.space	Key.space	n/a
26.325	0.09	52650	keystroke_k	k	n/a
26.415	0.09	52830	keystroke_a	a	n/a
26.5935	0.136	53187	keystroke_r	r	n/a
26.685	0.12	53370	keystroke_e	e	n/a
26.76	0.075	53520	keystroke_n	n	n/a
26.955	0.09	53910	keystroke_Key.space	Key.space	n/a
27.06	0.105	54120	keystroke_r	r	n/a
27.18	0.075	54360	keystroke_u	u	n/a
27.3	0.06	54600	keystroke_s	s	n/a
27.464	0.045	54928	keystroke_s	s	n/a
27.525	0.135	55050	keystroke_i	i	n/a
27.645	0.074	55290	keystroke_a	a	n/a
27.72	0.09	55440	keystroke_n	n	n/a
27.929	0.076	55858	keystroke_Key.space	Key.space	n/a
28.124	0.09	56248	keystroke_o	o	n/a
28.469	0.06	56938	keystroke_Key.backspace	Key.backspace	n/a
28.605	0.104	57210	keystroke_c	c	n/a
28.724	0.15	57448	keystroke_o	o	n/a
29.039	0.15	58078	keystroke_i	i	n/a
29.204	0.106	58408	keystroke_n	n	n/a
29.34	0.089	58680	keystroke_s	s	n/a
29.564	0.075	59128	keystroke_Key.enter	Key.enter	n/a
29.646	7.6315	59292	prompt	n/a	specifically yoga tournaments peeing\n
30.615	0.074	61230	keystroke_s	s	n/a
30.7195	0.0895	61439	keystroke_p	p	n/a
30.794	0.1055	61588	keystroke_e	e	n/a
30.989	0.1355	61978	keystroke_c	c	n/a
31.109	0.0605	62218	keystroke_i	i	n/a
31.17	0.089	62340	keystroke_f	f	n/a
31.244	0.1055	62488	keystroke_i	i	n/a
31.3945	0.105	62789	keystroke_c	c	n/a
31.5145	0.09	63029	keystroke_a	a	n/a
31.7545	0.06	63509	keystroke_l	l	n/a
31.8895	0.075	63779	keystroke_l	l	n/a
31.9945	0.09	63989	keystroke_y	y	n/a
32.0995	0.09	64199	keystroke_Key.space	Key.space	n/a
32.1595	0.075	64319	keystroke_y	y	n/a
32.2945	0.075	64589	keystroke_o	o	n/a
32.4895	0.09	64979	keystroke_g	g	n/a
32.9095	0.105	65819	keystroke_a	a	n/a
33.0895	0.09	66179	keystroke_Key.space	Key.space	n/a
33.4945	0.06	66989	keystroke_t	t	n/a
33.5695	0.105	67139	keystroke_o	o	n/a
33.7645	0.105	67529	keystroke_u	u	n/a
33.8845	0.09	67769	keystroke_r	r	n/a
33.9895	0.09	67979	keystroke_n	n	n/a
34.6495	0.09	69299	keystroke_a	a	n/a
34.7695	0.12	69539	keystroke_m	m	n/a
34.9645	0.105	69929	keystroke_e	e	n/a
35.0395	0.105	70079	keystroke_n	n	n/a
35.1895	0.105	70379	keystroke_t	t	n/a
35.4145	0.075	70829	keystroke_s	s	n/a
35.5945	0.09	71189	keystroke_Key.space	Key.space	n/a
35.8045	0.06	71609	keystroke_p	p	n/a
35.8945	0.075	71789	keystroke_e	e	n/a
36.0895	0.15	72179	keystroke_i	i	n/a
36.5545	0.06	73109	keystroke_Key.backspace	Key.backspace	n/a
36.6745	0.105	73349	keystroke_e	e	n/a
36.7945	0.18	73589	keystroke_i	i	n/a
36.9295	0.12	73859	keystroke_n	n	n/a
37.0195	0.105	74039	keystroke_g	g	n/a
37.1845	0.09	74369	keystroke_Key.enter	Key.enter	n/a
37.2835	5.454	74567	prompt	n/a	chairman assault right cards\n
37.935	0.075	75870	keystroke_c	c	n/a
38.024	0.091	76048	keystroke_h	h	n/a
38.099	0.136	76198	keystroke_a	a	n/a
38.31	0.105	76620	keystroke_r	r	n/a
38.399	0.106	76798	keystroke_i	i	n/a
38.685	0.06	77370	keystroke_m	m	n/a
38.955	0.075	77910	keystroke_a	a	n/a
39.045	0.089	78090	keystroke_n	n	n/a
39.224	0.12	78448	keystroke_Key.space	Key.space	n/a
39.33	0.074	78660	keystroke_a	a	n/a
39.525	0.075	79050	keystroke_s	s	n/a
39.689	0.06	79378	keystroke_s	s	n/a
39.869	0.106	79738	keystroke_a	a	n/a
39.96	0.074	79920	keystroke_u	u	n/a
40.169	0.106	80338	keystroke_l	l	n/a
40.319	0.106	80638	keystroke_t	t	n/a
40.454	0.105	80908	keystroke_Key.space	Key.space	n/a
40.65	0.089	81300	keystroke_r	r	n/a
40.74	0.09	81480	keystroke_i	i	n/a
40.905	0.12	81810	keystroke_g	g	n/a
41.235	0.104	82470	keystroke_h	h	n/a
41.384	0.106	82768	keystroke_t	t	n/a
41.504	0.09	83008	keystroke_Key.space	Key.space	n/a
41.715	0.119	83430	keystroke_c	c	n/a
41.924	0.12	83848	keystroke_a	a	n/a
42.18	0.09	84360	keystroke_r	r	n/a
42.405	0.09	84810	keystroke_d	d	n/a
42.48	0.104	84960	keystroke_s	s	n/a
42.629	0.106	85258	keystroke_Key.enter	Key.enter	n/a
42.745	8.406	85490	prompt	n/a	minutes vertical attend brought\n
43.365	0.104	86730	keystroke_m	m	n/a
43.56	0.089	87120	keystroke_i	i	n/a
43.65	0.119	87300	keystroke_n	n	n/a
43.799	0.09	87598	keystroke_u	u	n/a
43.92	0.12	87840	keystroke_t	t	n/a
44.04	0.135	88080	keystroke_e	e	n/a
44.28	0.105	88560	keystroke_s	s	n/a
44.43	0.104	88860	keystroke_Key.space	Key.space	n/a
44.58	0.09	89160	keystroke_c	c	n/a
44.744	0.091	89488	keystroke_e	e	n/a
45.255	0.105	90510	keystroke_r	r	n/a
45.419	0.106	90838	keystroke_t	t	n/a
45.555	0.075	91110	keystroke_i	i	n/a
45.825	0.134	91650	keystroke_v	v	n/a
46.424	0.075	92848	keystroke_Key.backspace	Key.backspace	n/a
46.575	0.059	93150	keystroke_Key.backspace	Key.backspace	n/a
46.725	0.044	93450	keystroke_Key.backspace	Key.backspace	n/a
46.874	0.045	93748	keystroke_Key.backspace	Key.backspace	n/a
47.009	0.06	94018	keystroke_Key.backspace	Key.backspace	n/a
47.174	0.075	94348	keystroke_Key.backspace	Key.backspace	n/a
47.549	0.136	95098	keystroke_v	v	n/a
47.82	0.089	95640	keystroke_e	e	n/a
47.985	0.075	95970	keystroke_r	r	n/a
48.15	0.074	96300	keystroke_t	t	n/a
48.24	0.09	96480	keystroke_i	i	n/a
48.435	0.105	96870	keystroke_c	c	n/a
48.585	0.105	97170	keystroke_a	a	n/a
48.675	0.089	97350	keystroke_l	l	n/a
48.914	0.091	97828	keystroke_Key.space	Key.space	n/a
49.049	0.075	98098	keystroke_a	a	n/a
49.289	0.061	98578	keystroke_t	t	n/a
49.439	0.061	98878	keystroke_t	t	n/a
49.62	0.06	99240	keystroke_e	e	n/a
49.71	0.06	99420	keystroke_n	n	n/a
49.8	0.06	99600	keystroke_d	d	n/a
49.874	0.076	99748	keystroke_Key.space	Key.space	n/a
50.07	0.075	100140	keystroke_b	b	n/a
50.205	0.075	100410	keystroke_r	r	n/a
50.31	0.105	100620	keystroke_o	o	n/a
50.535	0.104	101070	keystroke_u	u	n/a
50.624	0.076	101248	keystroke_g	g	n/a
50.715	0.075	101430	keystroke_h	h	n/a
50.849	0.12	101698	keystroke_t	t	n/a
51.06	0.089	102120	keystroke_Key.enter	Key.enter	n/a
51.159	4.9435	102318	prompt	n/a	dying mono oman kits\n
51.945	0.075	103890	keystroke_d	d	n/a
52.049	0.091	104098	keystroke_y	y	n/a
52.304	0.076	104608	keystroke_i	i	n/a
52.395	0.105	104790	keystroke_n	n	n/a
52.545	0.074	105090	keystroke_g	g	n/a
52.649	0.075	105298	keystroke_Key.space	Key.space	n/a
52.845	0.09	105690	keystroke_m	m	n/a
52.98	0.15	105960	keystroke_o	o	n/a
53.069	0.136	106138	keystroke_n	n	n/a
53.234	0.106	106468	keystroke_o	o	n/a
53.609	0.09	107218	keystroke_Key.space	Key.space	n/a
53.864	0.181	107728	keystroke_o	o	n/a
54.014	0.09	108028	keystroke_m	m	n/a
54.299	0.091	108598	keystroke_a	a	n/a
55.155	0.075	110310	keystroke_n	n	n/a
55.319	0.09	110638	keystroke_Key.space	Key.space	n/a
55.454	0.076	110908	keystroke_k	k	n/a
55.605	0.075	111210	keystroke_i	i	n/a
55.724	0.091	111448	keystroke_t	t	n/a
56.039	0.06	112078	keystroke_Key.enter	Key.enter	n/a
56.1075	6.939	112215	prompt	n/a	asset neutral lang italy\n
56.999	0.076	113998	keystroke_a	a	n/a
57.21	0.059	114420	keystroke_s	s	n/a
57.329	0.091	114658	keystroke_s	s	n/a
57.509	0.061	115018	keystroke_e	e	n/a
57.689	0.076	115378	keystroke_s	s	n/a
58.964	0.06	117928	keystroke_Key.backspace	Key.backspace	n/a
59.13	0.089	118260	keystroke_t	t	n/a
59.549	0.075	119098	keystroke_Key.space	Key.space	n/a
59.73	0.074	119460	keystroke_n	n	n/a
59.88	0.105	119760	keystroke_e	e	n/a
60.12	0.104	120240	keystroke_u	u	n/a
60.314	0.06	120628	keystroke_t	t	n/a
60.48	0.059	120960	keystroke_r	r	n/a
60.689	0.09	121378	keystroke_a	a	n/a
60.794	0.045	121588	keystroke_l	l	n/a
60.959	0.06	121918	keystroke_Key.space	Key.space	n/a
61.095	0.089	122190	keystroke_l	l	n/a
61.17	0.104	122340	keystroke_a	a	n/a
61.26	0.104	122520	keystroke_n	n	n/a
61.619	0.075	123238	keystroke_g	g	n/a
61.709	0.105	123418	keystroke_Key.space	Key.space	n/a
61.965	0.09	123930	keystroke_i	i	n/a
62.099	0.091	124198	keystroke_t	t	n/a
62.325	0.104	124650	keystroke_a	a	n/a
62.444	0.09	124888	keystroke_l	l	n/a
62.714	0.091	125428	keystroke_y	y	n/a
62.969	0.075	125938	keystroke_Key.enter	Key.enter	n/a
63.052	7.374	126104	prompt	n/a	luxembourg sounds kind pollution\n
63.824	0.091	127648	keystroke_l	l	n/a
64.094	0.075	128188	keystroke_u	u	n/a
64.245	0.105	128490	keystroke_x	x	n/a
64.485	0.119	128970	keystroke_e	e	n/a
64.619	0.075	129238	keystroke_m	m	n/a
65.58	0.075	131160	keystroke_b	b	n/a
65.7	0.105	131400	keystroke_o	o	n/a
65.925	0.06	131850	keystroke_u	u	n/a
66.06	0.089	132120	keystroke_r	r	n/a
66.315	0.09	132630	keystroke_g	g	n/a
66.479	0.06	132958	keystroke_Key.space	Key.space	n/a
66.599	0.061	133198	keystroke_s	s	n/a
66.735	0.045	133470	keystroke_o	o	n/a
67.095	0.135	134190	keystroke_u	u	n/a
67.304	0.106	134608	keystroke_n	n	n/a
67.484	0.136	134968	keystroke_d	d	n/a
67.605	0.089	135210	keystroke_s	s	n/a
67.829	0.075	135658	keystroke_Key.space	Key.space	n/a
68.265	0.075	136530	keystroke_k	k	n/a
68.43	0.119	136860	keystroke_i	i	n/a
68.519	0.121	137038	keystroke_n	n	n/a
68.7	0.089	137400	keystroke_d	d	n/a
68.744	0.09	137488	keystroke_Key.space	Key.space	n/a
68.969	0.091	137938	keystroke_p	p	n/a
69.165	0.075	138330	keystroke_o	o	n/a
69.36	0.06	138720	keystroke_l	l	n/a
69.51	0.06	139020	keystroke_l	l	n/a
69.69	0.06	139380	keystroke_u	u	n/a
69.78	0.09	139560	keystroke_t	t	n/a
69.855	0.105	139710	keystroke_i	i	n/a
70.02	0.164	140040	keystroke_o	o	n/a
70.139	0.105	140278	keystroke_n	n	n/a
70.35	0.074	140700	keystroke_Key.enter	Key.enter	n/a
70.4305	5.6965	140861	prompt	n/a	headlines might offering norwegian\n
71.085	0.075	142170	keystroke_h	h	n/a
71.205	0.075	142410	keystroke_e	e	n/a
71.385	0.09	142770	keystroke_a	a	n/a
71.505	0.075	143010	keystroke_d	d	n/a
71.565	0.105	143130	keystroke_l	l	n/a
71.76	0.164	143520	keystroke_i	i	n/a
71.895	0.135	143790	keystroke_n	n	n/a
71.985	0.105	143970	keystroke_e	e	n/a
72.18	0.06	144360	keystroke_s	s	n/a
72.255	0.075	144510	keystroke_Key.space	Key.space	n/a
72.419	0.091	144838	keystroke_m	m	n/a
72.555	0.105	145110	keystroke_i	i	n/a
72.705	0.074	145410	keystroke_g	g	n/a
72.75	0.104	145500	keystroke_h	h	n/a
72.87	0.059	145740	keystroke_t	t	n/a
72.989	0.091	145978	keystroke_Key.space	Key.space	n/a
73.155	0.09	146310	keystroke_o	o	n/a
73.335	0.06	146670	keystroke_f	f	n/a
73.484	0.076	146968	keystroke_f	f	n/a
73.635	0.09	147270	keystroke_e	e	n/a
73.845	0.09	147690	keystroke_r	r	n/a
74.055	0.105	148110	keystroke_i	i	n/a
74.13	0.12	148260	keystroke_n	n	n/a
74.264	0.075	148528	keystroke_g	g	n/a
74.384	0.075	148768	keystroke_Key.space	Key.space	n/a
74.58	0.09	149160	keystroke_n	n	n/a
74.73	0.09	149460	keystroke_o	o	n/a
74.88	0.075	149760	keystroke_r	r	n/a
75.105	0.074	150210	keystroke_w	w	n/a
75.255	0.075	150510	keystroke_e	e	n/a
75.45	0.074	150900	keystroke_g	g	n/a
75.525	0.119	151050	keystroke_i	i	n/a
75.675	0.089	151350	keystroke_a	a	n/a
75.75	0.089	151500	keystroke_n	n	n/a
76.049	0.075	152098	keystroke_Key.enter	Key.enter	n/a
76.132	4.5095	152264	prompt	n/a	johns guides newman sarah\n
76.799	0.09	153598	keystroke_j	j	n/a
76.98	0.105	153960	keystroke_o	o	n/a
77.099	0.06	154198	keystroke_h	h	n/a
77.205	0.089	154410	keystroke_n	n	n/a
77.369	0.075	154738	keystroke_s	s	n/a
77.504	0.075	155008	keystroke_Key.space	Key.space	n/a
77.76	0.09	155520	keystroke_g	g	n/a
77.865	0.045	155730	keystroke_u	u	n/a
78	0.06	156000	keystroke_i	i	n/a
78.06	0.12	156120	keystroke_d	d	n/a
78.225	0.074	156450	keystroke_e	e	n/a
78.419	0.061	156838	keystroke_s	s	n/a
78.494	0.075	156988	keystroke_Key.space	Key.space	n/a
78.63	0.09	157260	keystroke_n	n	n/a
78.765	0.075	157530	keystroke_e	e	n/a
78.93	0.075	157860	keystroke_w	w	n/a
79.26	0.075	158520	keystroke_m	m	n/a
79.35	0.075	158700	keystroke_a	a	n/a
79.455	0.09	158910	keystroke_n	n	n/a
79.634	0.105	159268	keystroke_Key.space	Key.space	n/a
79.695	0.09	159390	keystroke_s	s	n/a
79.89	0.075	159780	keystroke_a	a	n/a
80.069	0.075	160138	keystroke_r	r	n/a
80.219	0.075	160438	keystroke_a	a	n/a
80.309	0.075	160618	keystroke_h	h	n/a
80.564	0.075	161128	keystroke_Key.enter	Key.enter	n/a
80.646	6.716	161292	prompt	n/a	powered venice appears conservative\n
81.315	0.074	162630	keystroke_p	p	n/a
81.5395	0.09	163079	keystroke_o	o	n/a
81.6745	0.075	163349	keystroke_w	w	n/a
81.8395	0.09	163679	keystroke_e	e	n/a
81.9745	0.12	163949	keystroke_r	r	n/a
82.0495	0.09	164099	keystroke_e	e	n/a
82.2595	0.09	164519	keystroke_d	d	n/a
82.4695	0.0895	164939	keystroke_Key.space	Key.space	n/a
82.874	0.06	165748	keystroke_v	v	n/a
82.979	0.09	165958	keystroke_e	e	n/a
83.129	0.06	166258	keystroke_n	n	n/a
83.219	0.09	166438	keystroke_i	i	n/a
83.28	0.089	166560	keystroke_c	c	n/a
83.385	0.134	166770	keystroke_e	e	n/a
83.834	0.09	167668	keystroke_Key.space	Key.space	n/a
83.984	0.075	167968	keystroke_a	a	n/a
84.12	0.045	168240	keystroke_p	p	n/a
84.225	0.089	168450	keystroke_p	p	n/a
84.329	0.075	168658	keystroke_e	e	n/a
84.524	0.09	169048	keystroke_a	a	n/a
84.749	0.075	169498	keystroke_r	r	n/a
84.914	0.09	169828	keystroke_s	s	n/a
85.139	0.09	170278	keystroke_Key.space	Key.space	n/a
85.409	0.075	170818	keystroke_c	c	n/a
85.469	0.135	170938	keystroke_o	o	n/a
85.559	0.105	171118	keystroke_n	n	n/a
85.694	0.075	171388	keystroke_s	s	n/a
85.859	0.09	171718	keystroke_e	e	n/a
86.039	0.075	172078	keystroke_r	r	n/a
86.234	0.091	172468	keystroke_v	v	n/a
86.399	0.105	172798	keystroke_a	a	n/a
86.594	0.075	173188	keystroke_t	t	n/a
86.699	0.09	173398	keystroke_i	i	n/a
86.895	0.104	173790	keystroke_v	v	n/a
87.029	0.12	174058	keystroke_e	e	n/a
87.299	0.06	174598	keystroke_Key.enter	Key.enter	n/a
87.372	6.214	174744	prompt	n/a	technique regional dutch elite\n
88.034	0.091	176068	keystroke_t	t	n/a
88.229	0.09	176458	keystroke_e	e	n/a
88.424	0.105	176848	keystroke_c	c	n/a
88.574	0.09	177148	keystroke_h	h	n/a
88.754	0.075	177508	keystroke_n	n	n/a
88.874	0.09	177748	keystroke_i	i	n/a
88.994	0.09	177988	keystroke_q	q	n/a
89.099	0.09	178198	keystroke_u	u	n/a
89.234	0.105	178468	keystroke_e	e	n/a
89.369	0.105	178738	keystroke_Key.space	Key.space	n/a
89.49	0.074	178980	keystroke_r	r	n/a
89.684	0.09	179368	keystroke_e	e	n/a
89.819	0.09	179638	keystroke_g	g	n/a
89.924	0.06	179848	keystroke_i	i	n/a
90.059	0.151	180118	keystroke_o	o	n/a
90.165	0.134	180330	keystroke_n	n	n/a
90.284	0.105	180568	keystroke_a	a	n/a
90.419	0.166	180838	keystroke_l	l	n/a
90.569	0.12	181138	keystroke_Key.space	Key.space	n/a
90.734	0.09	181468	keystroke_d	d	n/a
90.9745	0.075	181949	keystroke_t	t	n/a
91.3195	0.09	182639	keystroke_Key.backspace	Key.backspace	n/a
91.9645	0.06	183929	keystroke_u	u	n/a
92.0695	0.09	184139	keystroke_t	t	n/a
92.3545	0.09	184709	keystroke_c	c	n/a
92.4745	0.105	184949	keystroke_h	h	n/a
92.6245	0.09	185249	keystroke_Key.space	Key.space	n/a
92.7445	0.105	185489	keystroke_e	e	n/a
92.8645	0.075	185729	keystroke_l	l	n/a
93.0745	0.06	186149	keystroke_i	i	n/a
93.1495	0.12	186299	keystroke_t	t	n/a
93.2845	0.105	186569	keystroke_e	e	n/a
93.5095	0.075	187019	keystroke_Key.enter	Key.enter	n/a
93.591	7.5555	187182	prompt	n/a	creation powerful practitioners ohio\n
94.2895	0.075	188579	keystroke_c	c	n/a
94.5445	0.12	189089	keystroke_r	r	n/a
94.6345	0.075	189269	keystroke_e	e	n/a
94.8145	0.105	189629	keystroke_a	a	n/a
95.0395	0.09	190079	keystroke_t	t	n/a
95.2495	0.075	190499	keystroke_i	i	n/a
95.4295	0.15	190859	keystroke_o	o	n/a
95.5345	0.105	191069	keystroke_n	n	n/a
95.7145	0.09	191429	keystroke_Key.space	Key.space	n/a
95.9395	0.06	191879	keystroke_p	p	n/a
96.0895	0.075	192179	keystroke_o	o	n/a
96.1945	0.075	192389	keystroke_w	w	n/a
96.3745	0.09	192749	keystroke_e	e	n/a
96.5695	0.105	193139	keystroke_r	r	n/a
97.1395	0.075	194279	keystroke_f	f	n/a
97.2445	0.09	194489	keystroke_u	u	n/a
97.4845	0.09	194969	keystroke_l	l	n/a
97.6495	0.09	195299	keystroke_Key.space	Key.space	n/a
97.8445	0.06	195689	keystroke_p	p	n/a
97.9495	0.075	195899	keystroke_r	r	n/a
98.1745	0.09	196349	keystroke_a	a	n/a
98.3845	0.09	196769	keystroke_c	c	n/a
98.6095	0.105	197219	keystroke_t	t	n/a
99.2095	0.06	198419	keystroke_i	i	n/a
99.3445	0.075	198689	keystroke_t	t	n/a
99.4495	0.09	198899	keystroke_i	i	n/a
99.6145	0.15	199229	keystroke_o	o	n/a
99.7195	0.12	199439	keystroke_n	n	n/a
99.8545	0.09	199709	keystroke_e	e	n/a
100.0195	0.09	200039	keystroke_r	r	n/a
100.2145	0.075	200429	keystroke_s	s	n/a
100.3045	0.06	200609	keystroke_Key.space	Key.space	n/a
100.4395	0.09	200879	keystroke_o	o	n/a
100.5595	0.09	201119	keystroke_h	h	n/a
100.6345	0.075	201269	keystroke_i	i	n/a
100.7995	0.09	201599	keystroke_o	o	n/a
101.0845	0.06	202169	keystroke_Key.enter	Key.enter	n/a
101.1515	5.5595	202303	prompt	n/a	skin employee fraser minutes\n
101.7445	0.075	203489	keystroke_s	s	n/a
101.8045	0.105	203609	keystroke_k	k	n/a
102.0295	0.135	204059	keystroke_i	i	n/a
102.1495	0.09	204299	keystroke_n	n	n/a
102.3445	0.075	204689	keystroke_Key.space	Key.space	n/a
102.4345	0.075	204869	keystroke_e	e	n/a
102.5545	0.1045	205109	keystroke_m	m	n/a
102.764	0.12	205528	keystroke_p	p	n/a
102.869	0.09	205738	keystroke_l	l	n/a
103.004	0.075	206008	keystroke_o	o	n/a
103.094	0.09	206188	keystroke_y	y	n/a
103.349	0.06	206698	keystroke_e	e	n/a
103.484	0.075	206968	keystroke_e	e	n/a
103.724	0.09	207448	keystroke_Key.space	Key.space	n/a
103.994	0.075	207988	keystroke_f	f	n/a
104.174	0.09	208348	keystroke_r	r	n/a
104.744	0.075	209488	keystroke_a	a	n/a
104.909	0.06	209818	keystroke_s	s	n/a
105.074	0.09	210148	keystroke_e	e	n/a
105.239	0.06	210478	keystroke_r	r	n/a
105.314	0.06	210628	keystroke_Key.space	Key.space	n/a
105.509	0.06	211018	keystroke_m	m	n/a
105.629	0.195	211258	keystroke_i	i	n/a
105.779	0.105	211558	keystroke_n	n	n/a
105.914	0.09	211828	keystroke_u	u	n/a
106.019	0.09	212038	keystroke_t	t	n/a
106.139	0.105	212278	keystroke_e	e	n/a
106.409	0.075	212818	keystroke_s	s	n/a
106.619	0.09	213238	keystroke_Key.enter	Key.enter	n/a
106.716	7.8845	213432	prompt	n/a	ladder dinner target presidential\n
107.324	0.09	214648	keystroke_k	k	n/a
107.849	0.046	215698	keystroke_=	=	n/a
108.194	0.06	216388	keystroke_Key.backspace	Key.backspace	n/a
108.329	0.09	216658	keystroke_Key.backspace	Key.backspace	n/a
108.629	0.06	217258	keystroke_Key.backspace	Key.backspace	n/a
108.749	0.045	217498	keystroke_Key.backspace	Key.backspace	n/a
108.959	0.09	217918	keystroke_l	l	n/a
109.094	0.09	218188	keystroke_a	a	n/a
109.319	0.06	218638	keystroke_d	d	n/a
109.439	0.09	218878	keystroke_d	d	n/a
109.574	0.09	219148	keystroke_e	e	n/a
109.754	0.075	219508	keystroke_r	r	n/a
109.844	0.105	219688	keystroke_Key.space	Key.space	n/a
109.994	0.09	219988	keystroke_d	d	n/a
110.099	0.105	220198	keystroke_i	i	n/a
110.309	0.075	220618	keystroke_n	n	n/a
110.444	0.105	220888	keystroke_n	n	n/a
110.564	0.03	221128	keystroke_e	e	n/a
110.804	0.045	221608	keystroke_Key.space	Key.space	n/a
111.149	0.075	222298	keystroke_Key.backspace	Key.backspace	n/a
111.269	0.075	222538	keystroke_r	r	n/a
111.464	0.105	222928	keystroke_Key.space	Key.space	n/a
111.599	0.06	223198	keystroke_t	t	n/a
111.839	0.09	223678	keystroke_a	a	n/a
112.019	0.075	224038	keystroke_r	r	n/a
112.245	0.089	224490	keystroke_g	g	n/a
112.349	0.105	224698	keystroke_e	e	n/a
112.514	0.09	225028	keystroke_t	t	n/a
112.619	0.105	225238	keystroke_Key.space	Key.space	n/a
112.859	0.075	225718	keystroke_p	p	n/a
112.979	0.135	225958	keystroke_r	r	n/a
113.069	0.075	226138	keystroke_e	e	n/a
113.249	0.09	226498	keystroke_s	s	n/a
113.309	0.105	226618	keystroke_i	i	n/a
113.489	0.09	226978	keystroke_d	d	n/a
113.609	0.09	227218	keystroke_e	e	n/a
113.684	0.09	227368	keystroke_n	n	n/a
113.834	0.075	227668	keystroke_t	t	n/a
113.894	0.105	227788	keystroke_i	i	n/a
114.044	0.09	228088	keystroke_a	a	n/a
114.179	0.045	228358	keystroke_l	l	n/a
114.539	0.06	229078	keystroke_Key.enter	Key.enter	n/a
114.605	9.7015	229210	prompt	n/a	centuries especially harvest moderators\n
115.244	0.09	230488	keystroke_c	c	n/a
115.379	0.105	230758	keystroke_e	e	n/a
115.499	0.09	230998	keystroke_n	n	n/a
115.619	0.09	231238	keystroke_t	t	n/a
115.724	0.105	231448	keystroke_u	u	n/a
115.814	0.075	231628	keystroke_r	r	n/a
115.934	0.075	231868	keystroke_i	i	n/a
116.024	0.075	232048	keystroke_e	e	n/a
116.249	0.075	232498	keystroke_s	s	n/a
116.369	0.075	232738	keystroke_Key.space	Key.space	n/a
116.594	0.045	233188	keystroke_e	e	n/a
116.789	0.075	233578	keystroke_s	s	n/a
116.879	0.06	233758	keystroke_p	p	n/a
116.969	0.09	233938	keystroke_e	e	n/a
117.164	0.075	234328	keystroke_c	c	n/a
117.254	0.105	234508	keystroke_i	i	n/a
117.329	0.09	234658	keystroke_a	a	n/a
117.539	0.03	235078	keystroke_l	l	n/a
117.674	0.03	235348	keystroke_l	l	n/a
117.734	0.075	235468	keystroke_y	y	n/a
117.869	0.12	235738	keystroke_Key.space	Key.space	n/a
118.064	0.09	236128	keystroke_h	h	n/a
118.109	0.09	236218	keystroke_a	a	n/a
118.259	0.075	236518	keystroke_r	r	n/a
118.484	0.075	236968	keystroke_v	v	n/a
118.619	0.09	237238	keystroke_e	e	n/a
118.799	0.09	237598	keystroke_s	s	n/a
118.979	0.075	237958	keystroke_t	t	n/a
119.069	0.09	238138	keystroke_Key.space	Key.space	n/a
119.264	0.09	238528	keystroke_m	m	n/a
119.504	0.09	239008	keystroke_d	d	n/a
119.879	0.075	239758	keystroke_Key.backspace	Key.backspace	n/a
121.019	0.09	242038	keystroke_o	o	n/a
121.11	0.074	242220	keystroke_d	d	n/a
121.214	0.12	242428	keystroke_e	e	n/a
121.379	0.09	242758	keystroke_r	r	n/a
121.559	0.105	243118	keystroke_a	a	n/a
122.624	0.06	245248	keystroke_t	t	n/a
122.699	0.105	245398	keystroke_o	o	n/a
122.834	0.09	245668	keystroke_r	r	n/a
123.329	0.045	246658	keystroke_Key.backspace	Key.backspace	n/a
123.869	0.06	247738	keystroke_r	r	n/a
124.064	0.075	248128	keystroke_s	s	n/a
124.244	0.06	248488	keystroke_Key.enter	Key.enter	n/a
124.3135	6.5775	248627	prompt	n/a	worlds andale addiction parameter\n
125.789	0.105	251578	keystroke_w	w	n/a
125.879	0.105	251758	keystroke_o	o	n/a
125.999	0.105	251998	keystroke_r	r	n/a
126.089	0.09	252178	keystroke_l	l	n/a
126.239	0.135	252478	keystroke_d	d	n/a
126.359	0.09	252718	keystroke_s	s	n/a
126.479	0.135	252958	keystroke_Key.space	Key.space	n/a
126.719	0.105	253438	keystroke_a	a	n/a
126.839	0.105	253678	keystroke_n	n	n/a
127.079	0.09	254158	keystroke_d	d	n/a
127.244	0.06	254488	keystroke_a	a	n/a
127.319	0.075	254638	keystroke_l	l	n/a
127.514	0.091	255028	keystroke_e	e	n/a
127.619	0.105	255238	keystroke_Key.space	Key.space	n/a
127.754	0.105	255508	keystroke_a	a	n/a
127.979	0.06	255958	keystroke_d	d	n/a
128.099	0.075	256198	keystroke_d	d	n/a
128.189	0.09	256378	keystroke_i	i	n/a
128.309	0.075	256618	keystroke_c	c	n/a
128.489	0.105	256978	keystroke_t	t	n/a
128.579	0.075	257158	keystroke_i	i	n/a
128.759	0.15	257518	keystroke_o	o	n/a
128.864	0.12	257728	keystroke_n	n	n/a
129.044	0.105	258088	keystroke_Key.space	Key.space	n/a
129.284	0.09	258568	keystroke_p	p	n/a
129.389	0.09	258778	keystroke_a	a	n/a
129.585	0.09	259170	keystroke_r	r	n/a
129.735	0.089	259470	keystroke_a	a	n/a
129.974	0.09	259948	keystroke_m	m	n/a
130.169	0.09	260338	keystroke_e	e	n/a
130.424	0.12	260848	keystroke_t	t	n/a
130.56	0.09	261120	keystroke_e	e	n/a
130.679	0.09	261358	keystroke_r	r	n/a
130.799	0.09	261598	keystroke_Key.enter	Key.enter	n/a
130.896	7.1255	261792	prompt	n/a	hiking protect gained presentations\n
131.744	0.075	263488	keystroke_h	h	n/a
131.954	0.075	263908	keystroke_i	i	n/a
132.134	0.075	264268	keystroke_k	k	n/a
132.299	0.15	264598	keystroke_i	i	n/a
132.434	0.105	264868	keystroke_n	n	n/a
132.524	0.075	265048	keystroke_g	g	n/a
132.629	0.09	265258	keystroke_Key.space	Key.space	n/a
132.839	0.075	265678	keystroke_p	p	n/a
133.019	0.09	266038	keystroke_o	o	n/a
133.124	0.12	266248	keystroke_r	r	n/a
133.529	0.06	267058	keystroke_Key.backspace	Key.backspace	n/a
133.664	0.06	267328	keystroke_Key.backspace	Key.backspace	n/a
133.799	0.075	267598	keystroke_r	r	n/a
133.889	0.09	267778	keystroke_o	o	n/a
134.009	0.09	268018	keystroke_t	t	n/a
134.204	0.06	268408	keystroke_e	e	n/a
134.519	0.105	269038	keystroke_c	c	n/a
134.849	0.105	269698	keystroke_t	t	n/a
134.969	0.105	269938	keystroke_Key.space	Key.space	n/a
135.089	0.105	270178	keystroke_g	g	n/a
135.314	0.105	270628	keystroke_a	a	n/a
135.359	0.15	270718	keystroke_i	i	n/a
135.449	0.15	270898	keystroke_n	n	n/a
135.569	0.06	271138	keystroke_e	e	n/a
135.719	0.105	271438	keystroke_d	d	n/a
135.809	0.09	271618	keystroke_Key.space	Key.space	n/a
136.034	0.09	272068	keystroke_p	p	n/a
136.154	0.09	272308	keystroke_r	r	n/a
136.334	0.09	272668	keystroke_e	e	n/a
136.514	0.09	273028	keystroke_s	s	n/a
136.679	0.105	273358	keystroke_e	e	n/a
136.754	0.12	273508	keystroke_n	n	n/a
136.889	0.09	273778	keystroke_t	t	n/a
137.084	0.135	274168	keystroke_a	a	n/a
137.324	0.09	274648	keystroke_t	t	n/a
137.399	0.075	274798	keystroke_i	i	n/a
137.549	0.135	275098	keystroke_o	o	n/a
137.609	0.165	275218	keystroke_n	n	n/a
137.759	0.075	275518	keystroke_s	s	n/a
137.924	0.09	275848	keystroke_Key.enter	Key.enter	n/a
138.0215	5.755	276043	prompt	n/a	comm abandoned damages county\n
138.659	0.105	277318	keystroke_c	c	n/a
138.749	0.12	277498	keystroke_o	o	n/a
139.019	0.045	278038	keystroke_m	m	n/a
139.139	0.09	278278	keystroke_m	m	n/a
139.304	0.135	278608	keystroke_Key.space	Key.space	n/a
139.559	0.075	279118	keystroke_a	a	n/a
139.739	0.12	279478	keystroke_b	b	n/a
139.889	0.09	279778	keystroke_a	a	n/a
139.994	0.09	279988	keystroke_n	n	n/a
140.114	0.09	280228	keystroke_d	d	n/a
140.264	0.15	280528	keystroke_o	o	n/a
140.369	0.12	280738	keystroke_n	n	n/a
140.504	0.075	281008	keystroke_e	e	n/a
140.684	0.09	281368	keystroke_d	d	n/a
140.804	0.105	281608	keystroke_Key.space	Key.space	n/a
140.984	0.075	281968	keystroke_d	d	n/a
141.119	0.075	282238	keystroke_a	a	n/a
141.164	0.105	282328	keystroke_m	m	n/a
141.254	0.105	282508	keystroke_a	a	n/a
141.764	0.09	283528	keystroke_g	g	n/a
141.869	0.12	283738	keystroke_e	e	n/a
142.079	0.105	284158	keystroke_s	s	n/a
142.169	0.105	284338	keystroke_Key.space	Key.space	n/a
142.334	0.075	284668	keystroke_c	c	n/a
142.394	0.09	284788	keystroke_o	o	n/a
142.649	0.09	285298	keystroke_u	u	n/a
142.814	0.135	285628	keystroke_n	n	n/a
142.979	0.12	285958	keystroke_t	t	n/a
143.429	0.105	286858	keystroke_y	y	n/a
143.699	0.075	287398	keystroke_Key.enter	Key.enter	n/a
143.783	6.053	287566	prompt	n/a	advertisements coal heather constant\n
144.45	0.104	288900	keystroke_a	a	n/a
144.599	0.075	289198	keystroke_d	d	n/a
144.794	0.045	289588	keystroke_v	v	n/a
144.914	0.12	289828	keystroke_e	e	n/a
145.124	0.075	290248	keystroke_r	r	n/a
145.289	0.06	290578	keystroke_t	t	n/a
145.379	0.09	290758	keystroke_i	i	n/a
145.499	0.09	290998	keystroke_s	s	n/a
145.679	0.06	291358	keystroke_e	e	n/a
145.769	0.075	291538	keystroke_m	m	n/a
145.829	0.075	291658	keystroke_e	e	n/a
145.964	0.15	291928	keystroke_n	n	n/a
146.115	0.059	292230	keystroke_t	t	n/a
146.294	0.105	292588	keystroke_s	s	n/a
146.414	0.09	292828	keystroke_Key.space	Key.space	n/a
146.594	0.06	293188	keystroke_c	c	n/a
146.669	0.09	293338	keystroke_o	o	n/a
146.774	0.06	293548	keystroke_a	a	n/a
146.864	0.075	293728	keystroke_l	l	n/a
147.029	0.105	294058	keystroke_Key.space	Key.space	n/a
147.239	0.135	294478	keystroke_h	h	n/a
147.389	0.075	294778	keystroke_e	e	n/a
147.629	0.105	295258	keystroke_a	a	n/a
147.854	0.105	295708	keystroke_t	t	n/a
148.004	0.105	296008	keystroke_h	h	n/a
148.094	0.09	296188	keystroke_e	e	n/a
148.244	0.09	296488	keystroke_r	r	n/a
148.349	0.135	296698	keystroke_Key.space	Key.space	n/a
148.574	0.09	297148	keystroke_c	c	n/a
148.649	0.165	297298	keystroke_o	o	n/a
148.739	0.15	297478	keystroke_n	n	n/a
148.799	0.075	297598	keystroke_s	s	n/a
148.979	0.075	297958	keystroke_t	t	n/a
149.174	0.09	298348	keystroke_a	a	n/a
149.444	0.105	298888	keystroke_n	n	n/a
149.579	0.09	299158	keystroke_t	t	n/a
149.744	0.09	299488	keystroke_Key.enter	Key.enter	n/a
149.842	3.9845	299684	prompt	n/a	whale shower indie short\n
150.539	0.075	301078	keystroke_w	w	n/a
150.629	0.09	301258	keystroke_h	h	n/a
150.749	0.075	301498	keystroke_a	a	n/a
150.914	0.06	301828	keystroke_l	l	n/a
151.094	0.075	302188	keystroke_e	e	n/a
151.139	0.09	302278	keystroke_Key.space	Key.space	n/a
151.334	0.075	302668	keystroke_s	s	n/a
151.424	0.075	302848	keystroke_h	h	n/a
151.634	0.075	303268	keystroke_o	o	n/a
151.724	0.075	303448	keystroke_w	w	n/a
151.889	0.09	303778	keystroke_e	e	n/a
152.054	0.09	304108	keystroke_r	r	n/a
152.174	0.09	304348	keystroke_Key.space	Key.space	n/a
152.369	0.15	304738	keystroke_i	i	n/a
152.429	0.135	304858	keystroke_n	n	n/a
152.565	0.104	305130	keystroke_d	d	n/a
152.654	0.12	305308	keystroke_i	i	n/a
152.759	0.105	305518	keystroke_e	e	n/a
152.879	0.105	305758	keystroke_Key.space	Key.space	n/a
153.029	0.075	306058	keystroke_s	s	n/a
153.089	0.075	306178	keystroke_h	h	n/a
153.299	0.105	306598	keystroke_o	o	n/a
153.419	0.105	306838	keystroke_r	r	n/a
153.569	0.12	307138	keystroke_t	t	n/a
153.719	0.105	307438	keystroke_Key.enter	Key.enter	n/a
153.8305	6.2505	307661	prompt	n/a	barry thinks cornell greensboro\n
154.529	0.09	309058	keystroke_b	b	n/a
154.649	0.09	309298	keystroke_a	a	n/a
154.904	0.015	309808	keystroke_r	r	n/a
154.979	0.075	309958	keystroke_r	r	n/a
155.084	0.09	310168	keystroke_y	y	n/a
155.309	0.09	310618	keystroke_Key.space	Key.space	n/a
155.444	0.045	310888	keystroke_t	t	n/a
155.504	0.075	311008	keystroke_h	h	n/a
155.729	0.18	311458	keystroke_i	i	n/a
155.864	0.105	311728	keystroke_n	n	n/a
156.029	0.105	312058	keystroke_k	k	n/a
156.479	0.091	312958	keystroke_s	s	n/a
156.554	0.135	313108	keystroke_Key.space	Key.space	n/a
156.914	0.18	313828	keystroke_c	c	n/a
157.139	0.09	314278	keystroke_o	o	n/a
157.244	0.105	314488	keystroke_r	r	n/a
157.409	0.105	314818	keystroke_n	n	n/a
157.619	0.09	315238	keystroke_e	e	n/a
157.769	0.06	315538	keystroke_l	l	n/a
157.919	0.06	315838	keystroke_l	l	n/a
158.099	0.105	316198	keystroke_Key.space	Key.space	n/a
158.234	0.075	316468	keystroke_g	g	n/a
158.519	0.15	317038	keystroke_r	r	n/a
158.699	0.09	317398	keystroke_e	e	n/a
158.879	0.09	317758	keystroke_e	e	n/a
159.059	0.075	318118	keystroke_n	n	n/a
159.149	0.075	318298	keystroke_s	s	n/a
159.344	0.06	318688	keystroke_b	b	n/a
159.509	0.075	319018	keystroke_o	o	n/a
159.629	0.09	319258	keystroke_r	r	n/a
159.734	0.09	319468	keystroke_o	o	n/a
160.019	0.06	320038	keystroke_Key.enter	Key.enter	n/a
160.0855	7.0005	320171	prompt	n/a	pixels ride departmental webmasters\n
160.7845	0.09	321569	keystroke_p	p	n/a
160.9945	0.09	321989	keystroke_i	i	n/a
161.1595	0.104	322319	keystroke_x	x	n/a
161.3545	0.089	322709	keystroke_e	e	n/a
161.4595	0.075	322919	keystroke_l	l	n/a
161.6385	0.091	323277	keystroke_s	s	n/a
161.7585	0.121	323517	keystroke_Key.space	Key.space	n/a
161.9695	0.074	323939	keystroke_r	r	n/a
162.0585	0.091	324117	keystroke_i	i	n/a
162.1945	0.09	324389	keystroke_d	d	n/a
162.3145	0.09	324629	keystroke_e	e	n/a
162.4185	0.09	324837	keystroke_Key.space	Key.space	n/a
162.5105	0.073	325021	keystroke_d	d	n/a
162.6285	0.091	325257	keystroke_e	e	n/a
162.7345	0.09	325469	keystroke_p	p	n/a
162.8995	0.105	325799	keystroke_a	a	n/a
163.0945	0.075	326189	keystroke_r	r	n/a
163.2745	0.075	326549	keystroke_t	t	n/a
163.3645	0.12	326729	keystroke_m	m	n/a
163.4695	0.075	326939	keystroke_e	e	n/a
163.5745	0.119	327149	keystroke_n	n	n/a
163.6795	0.09	327359	keystroke_t	t	n/a
163.8745	0.105	327749	keystroke_a	a	n/a
163.9945	0.06	327989	keystroke_l	l	n/a
164.1745	0.119	328349	keystroke_Key.space	Key.space	n/a
164.4595	0.12	328919	keystroke_w	w	n/a
164.6395	0.09	329279	keystroke_e	e	n/a
164.7445	0.09	329489	keystroke_b	b	n/a
165.0145	0.09	330029	keystroke_a	a	n/a
165.6145	0.135	331229	keystroke_Key.backspace	Key.backspace	n/a
165.8695	0.105	331739	keystroke_m	m	n/a
165.9445	0.09	331889	keystroke_a	a	n/a
166.1245	0.105	332249	keystroke_s	s	n/a
166.3645	0.09	332729	keystroke_t	t	n/a
166.4695	0.105	332939	keystroke_e	e	n/a
166.6345	0.09	333269	keystroke_r	r	n/a
166.7995	0.105	333599	keystroke_s	s	n/a
166.9945	0.09	333989	keystroke_Key.enter	Key.enter	n/a
167.091	5.006	334182	prompt	n/a	number warming funk rack\n
168.0145	0.045	336029	keystroke_n	n	n/a
168.1345	0.075	336269	keystroke_u	u	n/a
168.3145	0.12	336629	keystroke_m	m	n/a
168.4045	0.06	336809	keystroke_b	b	n/a
168.5695	0.105	337139	keystroke_e	e	n/a
168.7495	0.075	337499	keystroke_r	r	n/a
168.8845	0.09	337769	keystroke_Key.space	Key.space	n/a
169.0495	0.09	338099	keystroke_w	w	n/a
169.2595	0.09	338519	keystroke_a	a	n/a
169.4845	0.09	338969	keystroke_r	r	n/a
169.5895	0.06	339179	keystroke_m	m	n/a
169.7545	0.135	339509	keystroke_i	i	n/a
169.8445	0.15	339689	keystroke_n	n	n/a
170.0395	0.105	340079	keystroke_g	g	n/a
170.2935	0.135	340587	keystroke_Key.space	Key.space	n/a
170.5645	0.105	341129	keystroke_f	f	n/a
170.6845	0.12	341369	keystroke_u	u	n/a
170.8495	0.105	341699	keystroke_n	n	n/a
171.0145	0.105	342029	keystroke_k	k	n/a
171.1795	0.12	342359	keystroke_Key.space	Key.space	n/a
171.3145	0.075	342629	keystroke_r	r	n/a
171.5245	0.09	343049	keystroke_a	a	n/a
171.7045	0.105	343409	keystroke_c	c	n/a
171.7945	0.09	343589	keystroke_k	k	n/a
172.0345	0.06	344069	keystroke_Key.enter	Key.enter	n/a
172.1005	5.696	344201	prompt	n/a	ceramic residential laugh indicates\n
172.7545	0.195	345509	keystroke_c	c	n/a
172.994	0.105	345988	keystroke_e	e	n/a
173.174	0.075	346348	keystroke_r	r	n/a
173.384	0.105	346768	keystroke_a	a	n/a
173.444	0.105	346888	keystroke_m	m	n/a
173.6095	0.1045	347219	keystroke_i	i	n/a
173.729	0.075	347458	keystroke_c	c	n/a
173.864	0.149	347728	keystroke_Key.space	Key.space	n/a
174.044	0.135	348088	keystroke_r	r	n/a
174.149	0.075	348298	keystroke_e	e	n/a
174.329	0.09	348658	keystroke_s	s	n/a
174.404	0.105	348808	keystroke_i	i	n/a
174.494	0.06	348988	keystroke_d	d	n/a
174.584	0.105	349168	keystroke_e	e	n/a
174.674	0.105	349348	keystroke_n	n	n/a
174.794	0.075	349588	keystroke_t	t	n/a
174.899	0.105	349798	keystroke_i	i	n/a
175.019	0.075	350038	keystroke_a	a	n/a
175.154	0.09	350308	keystroke_l	l	n/a
175.364	0.09	350728	keystroke_Key.space	Key.space	n/a
175.529	0.09	351058	keystroke_l	l	n/a
175.634	0.105	351268	keystroke_a	a	n/a
175.784	0.105	351568	keystroke_u	u	n/a
175.919	0.075	351838	keystroke_g	g	n/a
176.024	0.09	352048	keystroke_h	h	n/a
176.204	0.09	352408	keystroke_Key.space	Key.space	n/a
176.399	0.15	352798	keystroke_i	i	n/a
176.519	0.09	353038	keystroke_n	n	n/a
176.594	0.075	353188	keystroke_d	d	n/a
176.714	0.075	353428	keystroke_i	i	n/a
176.804	0.0755	353608	keystroke_c	c	n/a
176.9545	0.089	353909	keystroke_a	a	n/a
177.1785	0.121	354357	keystroke_t	t	n/a
177.2835	0.105	354567	keystroke_e	e	n/a
177.5095	0.074	355019	keystroke_d	d	n/a
177.7035	0.09	355407	keystroke_Key.enter	Key.enter	n/a
177.8	4.031	355600	prompt	n/a	boxing cape boats stem\n
178.3945	0.104	356789	keystroke_b	b	n/a
178.5885	0.105	357177	keystroke_o	o	n/a
178.7385	0.106	357477	keystroke_x	x	n/a
178.8585	0.15	357717	keystroke_i	i	n/a
178.9795	0.134	357959	keystroke_n	n	n/a
179.1585	0.076	358317	keystroke_g	g	n/a
179.2935	0.12	358587	keystroke_Key.space	Key.space	n/a
179.4445	0.09	358889	keystroke_c	c	n/a
179.5935	0.12	359187	keystroke_a	a	n/a
179.6545	0.12	359309	keystroke_p	p	n/a
179.9385	0.016	359877	keystroke_e	e	n/a
179.9685	0.075	359937	keystroke_Key.space	Key.space	n/a
180.1635	0.091	360327	keystroke_b	b	n/a
180.3295	0.09	360659	keystroke_o	o	n/a
180.4335	0.105	360867	keystroke_a	a	n/a
180.6885	0.075	361377	keystroke_t	t	n/a
180.8995	0.074	361799	keystroke_s	s	n/a
181.0035	0.105	362007	keystroke_Key.space	Key.space	n/a
181.0785	0.09	362157	keystroke_s	s	n/a
181.2885	0.12	362577	keystroke_t	t	n/a
181.3795	0.135	362759	keystroke_e	e	n/a
181.4995	0.119	362999	keystroke_m	m	n/a
181.7245	0.104	363449	keystroke_Key.enter	Key.enter	n/a
181.8355	5.65	363671	prompt	n/a	accompanying doctor kirk ivory\n
182.4285	0.091	364857	keystroke_a	a	n/a
182.7435	0.061	365487	keystroke_c	c	n/a
182.8645	0.074	365729	keystroke_c	c	n/a
182.9235	0.135	365847	keystroke_o	o	n/a
183.0735	0.106	366147	keystroke_m	m	n/a
183.2535	0.061	366507	keystroke_p	p	n/a
183.3595	0.104	366719	keystroke_a	a	n/a
183.4335	0.105	366867	keystroke_n	n	n/a
183.5845	0.089	367169	keystroke_y	y	n/a
183.6895	0.12	367379	keystroke_i	i	n/a
183.7795	0.089	367559	keystroke_n	n	n/a
183.8995	0.044	367799	keystroke_g	g	n/a
184.1685	0.0895	368337	keystroke_Key.space	Key.space	n/a
184.409	0.0895	368818	keystroke_d	d	n/a
184.5135	0.0905	369027	keystroke_o	o	n/a
184.634	0.09	369268	keystroke_c	c	n/a
184.814	0.105	369628	keystroke_t	t	n/a
184.9045	0.0885	369809	keystroke_o	o	n/a
185.129	0.06	370258	keystroke_r	r	n/a
185.233	0.0905	370466	keystroke_Key.space	Key.space	n/a
185.398	0.091	370796	keystroke_k	k	n/a
185.564	0.075	371128	keystroke_i	i	n/a
185.6685	0.0755	371337	keystroke_r	r	n/a
185.773	0.12	371546	keystroke_k	k	n/a
186.028	0.091	372056	keystroke_Key.space	Key.space	n/a
186.238	0.091	372476	keystroke_i	i	n/a
186.569	0.06	373138	keystroke_v	v	n/a
186.644	0.075	373288	keystroke_o	o	n/a
186.824	0.105	373648	keystroke_r	r	n/a
187.063	0.105	374126	keystroke_y	y	n/a
187.408	0.075	374816	keystroke_Key.enter	Key.enter	n/a
187.49	8.006	374980	prompt	n/a	boats religious scholarship arrested\n
188.459	0.075	376918	keystroke_b	b	n/a
188.579	0.075	377158	keystroke_o	o	n/a
188.758	0.105	377516	keystroke_a	a	n/a
188.984	0.075	377968	keystroke_t	t	n/a
189.163	0.091	378326	keystroke_s	s	n/a
189.403	0.105	378806	keystroke_Key.space	Key.space	n/a
189.613	0.105	379226	keystroke_r	r	n/a
189.673	0.12	379346	keystroke_e	e	n/a
189.778	0.076	379556	keystroke_l	l	n/a
189.974	0.105	379948	keystroke_i	i	n/a
190.093	0.061	380186	keystroke_g	g	n/a
190.274	0.075	380548	keystroke_o	o	n/a
190.498	0.06	380996	keystroke_u	u	n/a
191.114	0.074	382228	keystroke_s	s	n/a
191.218	0.106	382436	keystroke_Key.space	Key.space	n/a
191.293	0.075	382586	keystroke_s	s	n/a
191.459	0.075	382918	keystroke_c	c	n/a
191.549	0.074	383098	keystroke_h	h	n/a
191.893	0.076	383786	keystroke_o	o	n/a
192.073	0.076	384146	keystroke_l	l	n/a
192.193	0.09	384386	keystroke_a	a	n/a
192.389	0.089	384778	keystroke_r	r	n/a
192.524	0.119	385048	keystroke_s	s	n/a
192.629	0.059	385258	keystroke_h	h	n/a
192.944	0.089	385888	keystroke_i	i	n/a
193.258	0.121	386516	keystroke_p	p	n/a
193.663	0.09	387326	keystroke_Key.space	Key.space	n/a
193.903	0.106	387806	keystroke_a	a	n/a
194.129	0.074	388258	keystroke_r	r	n/a
194.264	0.089	388528	keystroke_r	r	n/a
194.368	0.061	388736	keystroke_e	e	n/a
194.519	0.089	389038	keystroke_s	s	n/a
194.849	0.12	389698	keystroke_t	t	n/a
194.938	0.091	389876	keystroke_e	e	n/a
195.163	0.076	390326	keystroke_d	d	n/a
195.404	0.089	390808	keystroke_Key.enter	Key.enter	n/a
195.503	6.428	391006	prompt	n/a	rarely principle hazard premium\n
196.213	0.09	392426	keystroke_r	r	n/a
196.394	0.089	392788	keystroke_a	a	n/a
196.559	0.104	393118	keystroke_r	r	n/a
196.633	0.09	393266	keystroke_e	e	n/a
196.708	0.106	393416	keystroke_l	l	n/a
196.873	0.091	393746	keystroke_y	y	n/a
197.038	0.105	394076	keystroke_Key.space	Key.space	n/a
197.264	0.074	394528	keystroke_p	p	n/a
197.398	0.09	394796	keystroke_r	r	n/a
197.503	0.211	395006	keystroke_i	i	n/a
197.698	0.106	395396	keystroke_n	n	n/a
197.938	0.075	395876	keystroke_c	c	n/a
198.058	0.091	396116	keystroke_i	i	n/a
198.313	0.15	396626	keystroke_p	p	n/a
198.434	0.105	396868	keystroke_l	l	n/a
198.658	0.12	397316	keystroke_e	e	n/a
198.793	0.075	397586	keystroke_Key.space	Key.space	n/a
198.928	0.151	397856	keystroke_h	h	n/a
199.063	0.09	398126	keystroke_a	a	n/a
199.303	0.12	398606	keystroke_z	z	n/a
199.438	0.15	398876	keystroke_a	a	n/a
199.648	0.09	399296	keystroke_r	r	n/a
199.918	0.091	399836	keystroke_d	d	n/a
200.053	0.09	400106	keystroke_Key.space	Key.space	n/a
200.264	0.089	400528	keystroke_p	p	n/a
200.413	0.135	400826	keystroke_r	r	n/a
200.519	0.089	401038	keystroke_e	e	n/a
200.624	0.119	401248	keystroke_m	m	n/a
201.223	0.075	402446	keystroke_i	i	n/a
201.404	0.074	402808	keystroke_u	u	n/a
201.598	0.106	403196	keystroke_m	m	n/a
201.838	0.09	403676	keystroke_Key.enter	Key.enter	n/a
201.936	5.56	403872	prompt	n/a	billion infringement rather vision\n
202.544	0.104	405088	keystroke_b	b	n/a
202.753	0.075	405506	keystroke_i	i	n/a
203.008	0.046	406016	keystroke_l	l	n/a
203.113	0.06	406226	keystroke_l	l	n/a
203.309	0.104	406618	keystroke_i	i	n/a
203.504	0.149	407008	keystroke_o	o	n/a
203.623	0.091	407246	keystroke_n	n	n/a
203.833	0.075	407666	keystroke_Key.space	Key.space	n/a
204.028	0.151	408056	keystroke_i	i	n/a
204.134	0.15	408268	keystroke_n	n	n/a
204.269	0.09	408538	keystroke_f	f	n/a
204.403	0.12	408806	keystroke_r	r	n/a
204.493	0.12	408986	keystroke_i	i	n/a
204.554	0.134	409108	keystroke_n	n	n/a
204.629	0.075	409258	keystroke_g	g	n/a
204.763	0.091	409526	keystroke_e	e	n/a
204.868	0.076	409736	keystroke_m	m	n/a
204.944	0.089	409888	keystroke_e	e	n/a
205.049	0.075	410098	keystroke_n	n	n/a
205.228	0.076	410456	keystroke_t	t	n/a
205.363	0.09	410726	keystroke_Key.space	Key.space	n/a
205.528	0.075	411056	keystroke_r	r	n/a
205.724	0.105	411448	keystroke_a	a	n/a
205.904	0.09	411808	keystroke_t	t	n/a
206.009	0.09	412018	keystroke_h	h	n/a
206.039	0.12	412078	keystroke_e	e	n/a
206.204	0.09	412408	keystroke_r	r	n/a
206.353	0.09	412706	keystroke_Key.space	Key.space	n/a
206.608	0.075	413216	keystroke_v	v	n/a
206.699	0.105	413398	keystroke_i	i	n/a
206.849	0.089	413698	keystroke_s	s	n/a
206.953	0.061	413906	keystroke_i	i	n/a
207.088	0.15	414176	keystroke_o	o	n/a
207.208	0.105	414416	keystroke_n	n	n/a
207.418	0.075	414836	keystroke_Key.enter	Key.enter	n/a
207.5	5.5155	415000	prompt	n/a	fears resource created packs\n
208.243	0.091	416486	keystroke_f	f	n/a
208.423	0.076	416846	keystroke_e	e	n/a
208.634	0.104	417268	keystroke_a	a	n/a
208.888	0.076	417776	keystroke_r	r	n/a
209.114	0.105	418228	keystroke_s	s	n/a
209.278	0.12	418556	keystroke_Key.space	Key.space	n/a
209.414	0.134	418828	keystroke_r	r	n/a
209.503	0.076	419006	keystroke_e	e	n/a
209.684	0.075	419368	keystroke_s	s	n/a
209.804	0.09	419608	keystroke_o	o	n/a
210.013	0.09	420026	keystroke_u	u	n/a
210.134	0.074	420268	keystroke_r	r	n/a
210.328	0.106	420656	keystroke_c	c	n/a
210.449	0.119	420898	keystroke_e	e	n/a
210.583	0.105	421166	keystroke_Key.space	Key.space	n/a
210.943	0.09	421886	keystroke_c	c	n/a
211.214	0.135	422428	keystroke_r	r	n/a
211.334	0.074	422668	keystroke_e	e	n/a
211.544	0.06	423088	keystroke_a	a	n/a
211.724	0.12	423448	keystroke_t	t	n/a
211.799	0.075	423598	keystroke_e	e	n/a
211.964	0.09	423928	keystroke_d	d	n/a
212.069	0.074	424138	keystroke_Key.space	Key.space	n/a
212.264	0.074	424528	keystroke_p	p	n/a
212.368	0.076	424736	keystroke_a	a	n/a
212.549	0.075	425098	keystroke_c	c	n/a
212.624	0.09	425248	keystroke_k	k	n/a
212.729	0.105	425458	keystroke_s	s	n/a
212.908	0.105	425816	keystroke_Key.enter	Key.enter	n/a
213.0205	5.23	426041	prompt	n/a	reduction cable marc installing\n
213.763	0.106	427526	keystroke_r	r	n/a
213.884	0.075	427768	keystroke_e	e	n/a
214.049	0.09	428098	keystroke_d	d	n/a
214.153	0.091	428306	keystroke_u	u	n/a
214.259	0.089	428518	keystroke_c	c	n/a
214.454	0.09	428908	keystroke_t	t	n/a
214.529	0.06	429058	keystroke_i	i	n/a
214.694	0.119	429388	keystroke_o	o	n/a
214.799	0.089	429598	keystroke_n	n	n/a
214.963	0.136	429926	keystroke_Key.space	Key.space	n/a
215.113	0.076	430226	keystroke_c	c	n/a
215.263	0.106	430526	keystroke_a	a	n/a
215.354	0.089	430708	keystroke_b	b	n/a
215.578	0.076	431156	keystroke_l	l	n/a
215.699	0.089	431398	keystroke_e	e	n/a
215.804	0.09	431608	keystroke_Key.space	Key.space	n/a
215.999	0.089	431998	keystroke_m	m	n/a
216.029	0.074	432058	keystroke_a	a	n/a
216.194	0.0895	432388	keystroke_r	r	n/a
216.4635	0.09	432927	keystroke_c	c	n/a
216.5985	0.09	433197	keystroke_Key.space	Key.space	n/a
216.8235	0.15	433647	keystroke_i	i	n/a
216.9285	0.12	433857	keystroke_n	n	n/a
216.9885	0.075	433977	keystroke_s	s	n/a
217.1235	0.105	434247	keystroke_t	t	n/a
217.3185	0.09	434637	keystroke_a	a	n/a
217.4235	0.06	434847	keystroke_l	l	n/a
217.5735	0.06	435147	keystroke_l	l	n/a
217.7535	0.15	435507	keystroke_i	i	n/a
217.8885	0.105	435777	keystroke_n	n	n/a
217.9485	0.105	435897	keystroke_g	g	n/a
218.1585	0.09	436317	keystroke_Key.enter	Key.enter	n/a
218.256	6.1145	436512	prompt	n/a	openings simple seed participating\n
218.9985	0.09	437997	keystroke_o	o	n/a
219.1785	0.09	438357	keystroke_p	p	n/a
219.2835	0.105	438567	keystroke_e	e	n/a
219.3735	0.09	438747	keystroke_n	n	n/a
219.5235	0.15	439047	keystroke_i	i	n/a
219.5985	0.15	439197	keystroke_n	n	n/a
219.7035	0.075	439407	keystroke_g	g	n/a
219.8835	0.09	439767	keystroke_s	s	n/a
219.9885	0.075	439977	keystroke_Key.space	Key.space	n/a
220.0785	0.09	440157	keystroke_s	s	n/a
220.1835	0.105	440367	keystroke_i	i	n/a
220.3785	0.09	440757	keystroke_m	m	n/a
220.5435	0.165	441087	keystroke_p	p	n/a
220.6485	0.105	441297	keystroke_l	l	n/a
220.7985	0.09	441597	keystroke_e	e	n/a
220.9485	0.12	441897	keystroke_Key.space	Key.space	n/a
221.2485	0.06	442497	keystroke_s	s	n/a
221.4435	0.045	442887	keystroke_e	e	n/a
221.5785	0.06	443157	keystroke_e	e	n/a
221.6535	0.09	443307	keystroke_Key.space	Key.space	n/a
222.0885	0.075	444177	keystroke_Key.backspace	Key.backspace	n/a
222.2235	0.09	444447	keystroke_d	d	n/a
222.3435	0.12	444687	keystroke_Key.space	Key.space	n/a
222.5385	0.09	445077	keystroke_p	p	n/a
222.6585	0.105	445317	keystroke_a	a	n/a
222.8535	0.06	445707	keystroke_r	r	n/a
223.0035	0.075	446007	keystroke_t	t	n/a
223.1535	0.075	446307	keystroke_i	i	n/a
223.2735	0.075	446547	keystroke_c	c	n/a
223.3635	0.06	446727	keystroke_i	i	n/a
223.5135	0.09	447027	keystroke_p	p	n/a
223.6185	0.09	447237	keystroke_a	a	n/a
223.7985	0.12	447597	keystroke_t	t	n/a
223.8585	0.165	447717	keystroke_i	i	n/a
223.9785	0.12	447957	keystroke_n	n	n/a
224.0685	0.12	448137	keystroke_g	g	n/a
224.2785	0.09	448557	keystroke_Key.enter	Key.enter	n/a
224.374	6.222	448748	prompt	n/a	resumes hybrid awful legally\n
225.0435	0.12	450087	keystroke_r	r	n/a
225.1185	0.06	450237	keystroke_e	e	n/a
225.2835	0.075	450567	keystroke_s	s	n/a
225.3735	0.06	450747	keystroke_u	u	n/a
225.5835	0.105	451167	keystroke_m	m	n/a
225.6585	0.06	451317	keystroke_e	e	n/a
225.8385	0.075	451677	keystroke_s	s	n/a
225.9285	0.09	451857	keystroke_Key.space	Key.space	n/a
226.1235	0.06	452247	keystroke_h	h	n/a
226.2885	0.06	452577	keystroke_y	y	n/a
226.4385	0.09	452877	keystroke_b	b	n/a
226.5735	0.12	453147	keystroke_r	r	n/a
226.6785	0.135	453357	keystroke_i	i	n/a
226.9485	0.105	453897	keystroke_d	d	n/a
227.1435	0.09	454287	keystroke_Key.space	Key.space	n/a
227.2785	0.09	454557	keystroke_a	a	n/a
227.4435	0.105	454887	keystroke_w	w	n/a
227.6685	0.06	455337	keystroke_f	f	n/a
227.7435	0.075	455487	keystroke_u	u	n/a
228.4335	0.015	456867	keystroke_l	l	n/a
228.5535	0.075	457107	keystroke_Key.space	Key.space	n/a
228.7035	0.075	457407	keystroke_l	l	n/a
228.7935	0.09	457587	keystroke_e	e	n/a
229.4835	0.075	458967	keystroke_g	g	n/a
229.6635	0.09	459327	keystroke_a	a	n/a
229.7835	0.06	459567	keystroke_l	l	n/a
230.0985	0.12	460197	keystroke_l	l	n/a
230.3085	0.09	460617	keystroke_y	y	n/a
230.4885	0.1055	460977	keystroke_Key.enter	Key.enter	n/a
230.6	6.806	461200	prompt	n/a	sequences differ historic introduce\n
231.2085	0.105	462417	keystroke_s	s	n/a
231.4335	0.075	462867	keystroke_e	e	n/a
231.6285	0.045	463257	keystroke_q	q	n/a
231.6435	0.09	463287	keystroke_u	u	n/a
231.7635	0.09	463527	keystroke_e	e	n/a
231.8685	0.12	463737	keystroke_n	n	n/a
231.9435	0.12	463887	keystroke_c	c	n/a
232.1085	0.105	464217	keystroke_e	e	n/a
232.3035	0.09	464607	keystroke_s	s	n/a
232.4835	0.09	464967	keystroke_Key.space	Key.space	n/a
232.6185	0.075	465237	keystroke_d	d	n/a
232.7085	0.09	465417	keystroke_i	i	n/a
232.8135	0.06	465627	keystroke_f	f	n/a
232.9485	0.06	465897	keystroke_f	f	n/a
233.1135	0.09	466227	keystroke_e	e	n/a
233.2785	0.09	466557	keystroke_r	r	n/a
233.8335	0.105	467667	keystroke_Key.space	Key.space	n/a
234.0285	0.09	468057	keystroke_h	h	n/a
234.2385	0.09	468477	keystroke_i	i	n/a
234.3435	0.075	468687	keystroke_s	s	n/a
234.5235	0.09	469047	keystroke_t	t	n/a
234.5835	0.09	469167	keystroke_o	o	n/a
234.6585	0.12	469317	keystroke_r	r	n/a
234.794	0.09	469588	keystroke_i	i	n/a
235.0185	0.1055	470037	keystroke_c	c	n/a
235.589	0.12	471178	keystroke_Key.space	Key.space	n/a
235.814	0.135	471628	keystroke_i	i	n/a
235.9035	0.135	471807	keystroke_n	n	n/a
236.054	0.12	472108	keystroke_t	t	n/a
236.159	0.09	472318	keystroke_r	r	n/a
236.339	0.12	472678	keystroke_o	o	n/a
236.579	0.09	473158	keystroke_d	d	n/a
236.699	0.09	473398	keystroke_u	u	n/a
236.834	0.105	473668	keystroke_c	c	n/a
236.984	0.12	473968	keystroke_e	e	n/a
237.2985	0.105	474597	keystroke_Key.enter	Key.enter	n/a
237.4115	6.0995	474823	prompt	n/a	quick penalty heart canyon\n
238.3335	0.0305	476667	keystroke_a	a	n/a
238.5885	0.06	477177	keystroke_Key.backspace	Key.backspace	n/a
239.1735	0.06	478347	keystroke_q	q	n/a
239.2935	0.0755	478587	keystroke_u	u	n/a
239.4585	0.0755	478917	keystroke_i	i	n/a
239.5635	0.09	479127	keystroke_c	c	n/a
239.669	0.0595	479338	keystroke_k	k	n/a
239.9535	0.105	479907	keystroke_Key.space	Key.space	n/a
240.239	0.09	480478	keystroke_p	p	n/a
240.4335	0.0755	480867	keystroke_e	e	n/a
240.539	0.0895	481078	keystroke_n	n	n/a
240.689	0.0895	481378	keystroke_a	a	n/a
240.8085	0.09	481617	keystroke_l	l	n/a
240.9735	0.075	481947	keystroke_t	t	n/a
241.139	0.075	482278	keystroke_y	y	n/a
241.334	0.0895	482668	keystroke_Key.space	Key.space	n/a
241.514	0.105	483028	keystroke_h	h	n/a
241.6335	0.0755	483267	keystroke_e	e	n/a
241.8285	0.075	483657	keystroke_a	a	n/a
241.9785	0.075	483957	keystroke_r	r	n/a
242.144	0.09	484288	keystroke_t	t	n/a
242.369	0.135	484738	keystroke_Key.space	Key.space	n/a
242.5635	0.0605	485127	keystroke_c	c	n/a
242.6835	0.1055	485367	keystroke_a	a	n/a
242.744	0.12	485488	keystroke_n	n	n/a
242.9235	0.1205	485847	keystroke_y	y	n/a
243.0585	0.18	486117	keystroke_o	o	n/a
243.1635	0.12	486327	keystroke_n	n	n/a
243.434	0.075	486868	keystroke_Key.enter	Key.enter	n/a
243.516	9.31	487032	prompt	n/a	backed driver adding organizations\n
244.1835	0.1055	488367	keystroke_b	b	n/a
244.3035	0.105	488607	keystroke_a	a	n/a
244.4835	0.12	488967	keystroke_c	c	n/a
244.5885	0.09	489177	keystroke_k	k	n/a
244.7235	0.105	489447	keystroke_e	e	n/a
244.8885	0.09	489777	keystroke_d	d	n/a
244.9935	0.105	489987	keystroke_Key.space	Key.space	n/a
245.1285	0.105	490257	keystroke_d	d	n/a
245.4285	0.075	490857	keystroke_r	r	n/a
245.5335	0.105	491067	keystroke_i	i	n/a
245.6535	0.075	491307	keystroke_v	v	n/a
245.7735	0.105	491547	keystroke_e	e	n/a
245.9535	0.075	491907	keystroke_r	r	n/a
246.0585	0.105	492117	keystroke_Key.space	Key.space	n/a
246.2235	0.09	492447	keystroke_a	a	n/a
246.3885	0.09	492777	keystroke_d	d	n/a
246.4935	0.105	492987	keystroke_d	d	n/a
247.2735	0.165	494547	keystroke_i	i	n/a
247.394	0.1195	494788	keystroke_n	n	n/a
247.5285	0.075	495057	keystroke_g	g	n/a
247.6785	0.12	495357	keystroke_Key.space	Key.space	n/a
247.9335	0.09	495867	keystroke_o	o	n/a
248.0535	0.09	496107	keystroke_r	r	n/a
248.1735	0.09	496347	keystroke_g	g	n/a
248.3835	0.09	496767	keystroke_a	a	n/a
248.5035	0.09	497007	keystroke_n	n	n/a
248.6235	0.12	497247	keystroke_i	i	n/a
248.8485	0.135	497697	keystroke_a	a	n/a
249.1485	0.105	498297	keystroke_z	z	n/a
249.7935	0.105	499587	keystroke_a	a	n/a
250.3035	0.06	500607	keystroke_Key.backspace	Key.backspace	n/a
250.4385	0.06	500877	keystroke_Key.backspace	Key.backspace	n/a
250.7685	0.045	501537	keystroke_Key.backspace	Key.backspace	n/a
251.2335	0.105	502467	keystroke_z	z	n/a
251.4285	0.09	502857	keystroke_a	a	n/a
251.6985	0.075	503397	keystroke_t	t	n/a
251.8045	0.059	503609	keystroke_i	i	n/a
251.9685	0.12	503937	keystroke_o	o	n/a
252.0735	0.12	504147	keystroke_n	n	n/a
252.3585	0.06	504717	keystroke_s	s	n/a
252.7485	0.075	505497	keystroke_Key.enter	Key.enter	n/a
252.8305	11.185	505661	prompt	n/a	advertisers exclusively consecutive field\n
253.3785	0.09	506757	keystroke_a	a	n/a
253.5285	0.075	507057	keystroke_d	d	n/a
253.7385	0.075	507477	keystroke_v	v	n/a
253.8735	0.09	507747	keystroke_e	e	n/a
254.0535	0.075	508107	keystroke_r	r	n/a
254.2335	0.06	508467	keystroke_t	t	n/a
254.3085	0.105	508617	keystroke_i	i	n/a
254.4735	0.09	508947	keystroke_s	s	n/a
254.6835	0.09	509367	keystroke_e	e	n/a
254.8485	0.09	509697	keystroke_r	r	n/a
255.0885	0.075	510177	keystroke_s	s	n/a
255.2085	0.105	510417	keystroke_Key.space	Key.space	n/a
255.3145	0.089	510629	keystroke_e	e	n/a
255.5685	0.12	511137	keystroke_x	x	n/a
255.8535	0.075	511707	keystroke_c	c	n/a
255.9585	0.09	511917	keystroke_l	l	n/a
256.1985	0.105	512397	keystroke_u	u	n/a
256.3185	0.09	512637	keystroke_s	s	n/a
256.4235	0.09	512847	keystroke_i	i	n/a
256.5435	0.09	513087	keystroke_v	v	n/a
256.6935	0.12	513387	keystroke_e	e	n/a
256.7835	0.09	513567	keystroke_l	l	n/a
256.9485	0.105	513897	keystroke_y	y	n/a
257.1435	0.135	514287	keystroke_Key.space	Key.space	n/a
257.3685	0.075	514737	keystroke_c	c	n/a
257.4585	0.165	514917	keystroke_o	o	n/a
257.5635	0.135	515127	keystroke_n	n	n/a
257.6385	0.075	515277	keystroke_s	s	n/a
257.8185	0.09	515637	keystroke_e	e	n/a
257.9835	0.12	515967	keystroke_c	c	n/a
258.2085	0.105	516417	keystroke_t	t	n/a
258.2985	0.105	516597	keystroke_u	u	n/a
259.4085	0.06	518817	keystroke_Key.backspace	Key.backspace	n/a
259.5435	0.06	519087	keystroke_Key.backspace	Key.backspace	n/a
260.9085	0.03	521817	keystroke_Key.backspace	Key.backspace	n/a
261.1035	0.12	522207	keystroke_Key.backspace	Key.backspace	n/a
262.0035	0.075	524007	keystroke_e	e	n/a
262.1685	0.12	524337	keystroke_c	c	n/a
262.4535	0.09	524907	keystroke_u	u	n/a
262.5735	0.09	525147	keystroke_t	t	n/a
262.7085	0.09	525417	keystroke_i	i	n/a
262.8135	0.105	525627	keystroke_v	v	n/a
262.9635	0.105	525927	keystroke_e	e	n/a
263.1135	0.105	526227	keystroke_Key.space	Key.space	n/a
263.2785	0.09	526557	keystroke_f	f	n/a
263.3835	0.09	526767	keystroke_i	i	n/a
263.4285	0.105	526857	keystroke_e	e	n/a
263.5785	0.105	527157	keystroke_l	l	n/a
263.6985	0.12	527397	keystroke_d	d	n/a
263.9235	0.09	527847	keystroke_Key.enter	Key.enter	n/a
264.02	8.006	528040	prompt	n/a	plots electricity forms aims\n
265.0645	0.134	530129	keystroke_p	p	n/a
265.1835	0.09	530367	keystroke_l	l	n/a
265.3335	0.105	530667	keystroke_o	o	n/a
265.4235	0.076	530847	keystroke_t	t	n/a
265.6485	0.075	531297	keystroke_s	s	n/a
265.7535	0.12	531507	keystroke_Key.space	Key.space	n/a
265.9485	0.06	531897	keystroke_e	e	n/a
265.9785	0.09	531957	keystroke_l	l	n/a
266.0985	0.045	532197	keystroke_e	e	n/a
266.2485	0.135	532497	keystroke_c	c	n/a
266.7285	0.12	533457	keystroke_t	t	n/a
266.8635	0.09	533727	keystroke_r	r	n/a
266.9835	0.09	533967	keystroke_i	i	n/a
267.2085	0.09	534417	keystroke_i	i	n/a
267.4635	0.105	534927	keystroke_t	t	n/a
267.6735	0.09	535347	keystroke_y	y	n/a
267.7935	0.09	535587	keystroke_Key.space	Key.space	n/a
268.0785	0.091	536157	keystroke_f	f	n/a
268.3335	0.045	536667	keystroke_Key.backspace	Key.backspace	n/a
268.4985	0.045	536997	keystroke_Key.backspace	Key.backspace	n/a
268.6335	0.045	537267	keystroke_Key.backspace	Key.backspace	n/a
268.7835	0.03	537567	keystroke_Key.backspace	Key.backspace	n/a
268.9185	0.06	537837	keystroke_Key.backspace	Key.backspace	n/a
269.0835	0.06	538167	keystroke_Key.backspace	Key.backspace	n/a
269.8485	0.06	539697	keystroke_i	i	n/a
269.9535	0.06	539907	keystroke_c	c	n/a
270.0145	0.089	540029	keystroke_i	i	n/a
270.1935	0.09	540387	keystroke_t	t	n/a
270.3735	0.075	540747	keystroke_y	y	n/a
270.4635	0.105	540927	keystroke_Key.space	Key.space	n/a
270.7635	0.09	541527	keystroke_f	f	n/a
270.8385	0.135	541677	keystroke_o	o	n/a
270.9285	0.09	541857	keystroke_r	r	n/a
271.0335	0.12	542067	keystroke_m	m	n/a
271.1835	0.075	542367	keystroke_s	s	n/a
271.2735	0.12	542547	keystroke_Key.space	Key.space	n/a
271.4085	0.09	542817	keystroke_a	a	n/a
271.5135	0.12	543027	keystroke_i	i	n/a
271.6635	0.12	543327	keystroke_m	m	n/a
271.7845	0.104	543569	keystroke_s	s	n/a
271.9185	0.105	543837	keystroke_Key.enter	Key.enter	n/a
272.0345	4.6565	544069	prompt	n/a	carlo amenities spin subaru\n
272.6685	0.06	545337	keystroke_c	c	n/a
272.7885	0.12	545577	keystroke_a	a	n/a
272.9685	0.075	545937	keystroke_r	r	n/a
273.0585	0.075	546117	keystroke_l	l	n/a
273.2235	0.105	546447	keystroke_o	o	n/a
273.4635	0.09	546927	keystroke_Key.space	Key.space	n/a
273.5685	0.105	547137	keystroke_a	a	n/a
273.6585	0.12	547317	keystroke_m	m	n/a
273.7935	0.105	547587	keystroke_e	e	n/a
273.9285	0.075	547857	keystroke_n	n	n/a
274.0335	0.12	548067	keystroke_i	i	n/a
274.1685	0.076	548337	keystroke_t	t	n/a
274.2585	0.105	548517	keystroke_i	i	n/a
274.3795	0.089	548759	keystroke_e	e	n/a
274.5735	0.075	549147	keystroke_s	s	n/a
274.6635	0.105	549327	keystroke_Key.space	Key.space	n/a
274.7835	0.09	549567	keystroke_s	s	n/a
274.9485	0.09	549897	keystroke_p	p	n/a
275.1885	0.15	550377	keystroke_i	i	n/a
275.3235	0.105	550647	keystroke_n	n	n/a
275.5185	0.09	551037	keystroke_Key.space	Key.space	n/a
275.6385	0.09	551277	keystroke_s	s	n/a
275.7735	0.15	551547	keystroke_u	u	n/a
275.9095	0.119	551819	keystroke_b	b	n/a
276.0135	0.075	552027	keystroke_a	a	n/a
276.1485	0.09	552297	keystroke_r	r	n/a
276.2535	0.105	552507	keystroke_u	u	n/a
276.5985	0.09	553197	keystroke_Key.enter	Key.enter	n/a
276.6945	5.4715	553389	prompt	n/a	dude horrible installation myspace\n
277.3495	0.074	554699	keystroke_d	d	n/a
277.4535	0.09	554907	keystroke_u	u	n/a
277.5585	0.06	555117	keystroke_d	d	n/a
277.6645	0.104	555329	keystroke_e	e	n/a
277.8285	0.09	555657	keystroke_Key.space	Key.space	n/a
277.9785	0.09	555957	keystroke_h	h	n/a
278.1885	0.075	556377	keystroke_o	o	n/a
278.3235	0.045	556647	keystroke_r	r	n/a
278.4435	0.105	556887	keystroke_r	r	n/a
278.5785	0.105	557157	keystroke_i	i	n/a
278.6985	0.075	557397	keystroke_b	b	n/a
278.8035	0.075	557607	keystroke_l	l	n/a
278.9385	0.09	557877	keystroke_e	e	n/a
279.0735	0.09	558147	keystroke_Key.space	Key.space	n/a
279.3135	0.135	558627	keystroke_i	i	n/a
279.3885	0.165	558777	keystroke_n	n	n/a
279.4635	0.105	558927	keystroke_s	s	n/a
279.6585	0.075	559317	keystroke_t	t	n/a
279.8235	0.09	559647	keystroke_a	a	n/a
279.9435	0.06	559887	keystroke_l	l	n/a
280.0935	0.06	560187	keystroke_l	l	n/a
280.1385	0.12	560277	keystroke_a	a	n/a
280.3335	0.09	560667	keystroke_t	t	n/a
280.4245	0.105	560849	keystroke_i	i	n/a
280.6035	0.18	561207	keystroke_o	o	n/a
280.7235	0.12	561447	keystroke_n	n	n/a
280.9485	0.09	561897	keystroke_Key.space	Key.space	n/a
281.1135	0.12	562227	keystroke_m	m	n/a
281.2345	0.059	562469	keystroke_y	y	n/a
281.5185	0.075	563037	keystroke_s	s	n/a
281.6235	0.105	563247	keystroke_p	p	n/a
281.6995	0.059	563399	keystroke_a	a	n/a
281.8485	0.12	563697	keystroke_c	c	n/a
282.0135	0.091	564027	keystroke_e	e	n/a
282.0735	0.09	564147	keystroke_Key.enter	Key.enter	n/a
282.1715	7.4945	564343	prompt	n/a	stan practical smithsonian counting\n
282.8995	0.075	565799	keystroke_s	s	n/a
283.0785	0.09	566157	keystroke_t	t	n/a
283.2735	0.09	566547	keystroke_a	a	n/a
283.3645	0.074	566729	keystroke_n	n	n/a
283.5285	0.09	567057	keystroke_Key.space	Key.space	n/a
283.7235	0.09	567447	keystroke_p	p	n/a
283.8595	0.074	567719	keystroke_r	r	n/a
284.0995	0.089	568199	keystroke_a	a	n/a
284.2935	0.09	568587	keystroke_c	c	n/a
284.5035	0.09	569007	keystroke_t	t	n/a
284.6085	0.105	569217	keystroke_i	i	n/a
284.8035	0.075	569607	keystroke_c	c	n/a
284.9835	0.075	569967	keystroke_a	a	n/a
285.0435	0.076	570087	keystroke_l	l	n/a
285.2385	0.09	570477	keystroke_Key.space	Key.space	n/a
285.3895	0.074	570779	keystroke_s	s	n/a
285.4935	0.12	570987	keystroke_m	m	n/a
285.7935	0.09	571587	keystroke_i	i	n/a
286.0635	0.09	572127	keystroke_t	t	n/a
286.4385	0.106	572877	keystroke_h	h	n/a
286.7085	0.075	573417	keystroke_s	s	n/a
286.8435	0.121	573687	keystroke_o	o	n/a
286.9935	0.076	573987	keystroke_n	n	n/a
287.1145	0.134	574229	keystroke_i	i	n/a
287.2335	0.09	574467	keystroke_a	a	n/a
287.3085	0.09	574617	keystroke_n	n	n/a
287.5035	0.105	575007	keystroke_Key.space	Key.space	n/a
287.6695	0.074	575339	keystroke_c	c	n/a
287.7735	0.165	575547	keystroke_o	o	n/a
287.9085	0.105	575817	keystroke_n	n	n/a
288.4185	0.045	576837	keystroke_Key.backspace	Key.backspace	n/a
288.7335	0.105	577467	keystroke_u	u	n/a
288.9435	0.12	577887	keystroke_n	n	n/a
289.0785	0.106	578157	keystroke_t	t	n/a
289.1685	0.136	578337	keystroke_i	i	n/a
289.2585	0.12	578517	keystroke_n	n	n/a
289.3485	0.135	578697	keystroke_g	g	n/a
289.5585	0.105	579117	keystroke_Key.enter	Key.enter	n/a
289.67	7.586	579340	prompt	n/a	contamination treo sources confirmation\n
290.5035	0.091	581007	keystroke_c	c	n/a
290.5945	0.12	581189	keystroke_o	o	n/a
290.6845	0.119	581369	keystroke_n	n	n/a
291.839	0.075	583678	keystroke_t	t	n/a
292.109	0.09	584218	keystroke_a	a	n/a
292.244	0.09	584488	keystroke_m	m	n/a
292.424	0.15	584848	keystroke_i	i	n/a
292.529	0.12	585058	keystroke_n	n	n/a
292.604	0.105	585208	keystroke_a	a	n/a
292.829	0.075	585658	keystroke_t	t	n/a
292.934	0.075	585868	keystroke_i	i	n/a
293.099	0.15	586198	keystroke_o	o	n/a
293.204	0.105	586408	keystroke_n	n	n/a
293.369	0.165	586738	keystroke_Key.space	Key.space	n/a
293.549	0.09	587098	keystroke_t	t	n/a
293.759	0.165	587518	keystroke_r	r	n/a
293.909	0.09	587818	keystroke_e	e	n/a
293.984	0.105	587968	keystroke_o	o	n/a
294.209	0.09	588418	keystroke_Key.space	Key.space	n/a
294.314	0.09	588628	keystroke_s	s	n/a
294.389	0.09	588778	keystroke_o	o	n/a
294.599	0.09	589198	keystroke_u	u	n/a
294.674	0.09	589348	keystroke_r	r	n/a
294.854	0.18	589708	keystroke_c	c	n/a
295.094	0.075	590188	keystroke_e	e	n/a
295.274	0.075	590548	keystroke_s	s	n/a
295.379	0.105	590758	keystroke_Key.space	Key.space	n/a
295.559	0.09	591118	keystroke_c	c	n/a
295.664	0.15	591328	keystroke_o	o	n/a
295.739	0.15	591478	keystroke_n	n	n/a
295.904	0.105	591808	keystroke_f	f	n/a
295.994	0.105	591988	keystroke_i	i	n/a
296.069	0.09	592138	keystroke_r	r	n/a
296.234	0.09	592468	keystroke_m	m	n/a
296.369	0.075	592738	keystroke_a	a	n/a
296.594	0.09	593188	keystroke_t	t	n/a
296.669	0.075	593338	keystroke_i	i	n/a
296.804	0.165	593608	keystroke_o	o	n/a
296.924	0.135	593848	keystroke_n	n	n/a
297.164	0.09	594328	keystroke_Key.enter	Key.enter	n/a
297.2615	7.4345	594523	prompt	n/a	attachment compiler corp chains\n
298.2735	0.105	596547	keystroke_a	a	n/a
298.5285	0.06	597057	keystroke_t	t	n/a
298.6485	0.06	597297	keystroke_t	t	n/a
298.8285	0.09	597657	keystroke_a	a	n/a
299.0235	0.06	598047	keystroke_c	c	n/a
299.0985	0.105	598197	keystroke_h	h	n/a
299.3835	0.09	598767	keystroke_m	m	n/a
299.4585	0.09	598917	keystroke_e	e	n/a
299.6835	0.105	599367	keystroke_n	n	n/a
299.8035	0.105	599607	keystroke_t	t	n/a
299.9535	0.09	599907	keystroke_Key.space	Key.space	n/a
300.1635	0.09	600327	keystroke_c	c	n/a
300.2385	0.195	600477	keystroke_o	o	n/a
300.4185	0.12	600837	keystroke_m	m	n/a
300.7185	0.12	601437	keystroke_p	p	n/a
300.8235	0.09	601647	keystroke_l	l	n/a
301.4235	0.075	602847	keystroke_Key.backspace	Key.backspace	n/a
301.8585	0.075	603717	keystroke_i	i	n/a
302.0695	0.0745	604139	keystroke_l	l	n/a
302.2335	0.06	604467	keystroke_e	e	n/a
302.3985	0.075	604797	keystroke_r	r	n/a
302.5035	0.075	605007	keystroke_Key.space	Key.space	n/a
302.6535	0.09	605307	keystroke_c	c	n/a
302.7735	0.12	605547	keystroke_o	o	n/a
302.9835	0.075	605967	keystroke_r	r	n/a
303.1195	0.074	606239	keystroke_p	p	n/a
303.6285	0.105	607257	keystroke_Key.space	Key.space	n/a
303.7485	0.075	607497	keystroke_c	c	n/a
303.8385	0.075	607677	keystroke_h	h	n/a
303.9435	0.09	607887	keystroke_a	a	n/a
304.0635	0.15	608127	keystroke_i	i	n/a
304.1695	0.104	608339	keystroke_n	n	n/a
304.3635	0.09	608727	keystroke_s	s	n/a
304.6035	0.09	609207	keystroke_Key.enter	Key.enter	n/a
304.7005	9.415	609401	prompt	n/a	workout seat albany harder\n
305.3085	0.075	610617	keystroke_w	w	n/a
305.4135	0.12	610827	keystroke_o	o	n/a
305.5635	0.09	611127	keystroke_r	r	n/a
305.6685	0.075	611337	keystroke_k	k	n/a
305.7735	0.12	611547	keystroke_o	o	n/a
306.0135	0.105	612027	keystroke_u	u	n/a
306.1785	0.09	612357	keystroke_t	t	n/a
306.4485	0.09	612897	keystroke_Key.space	Key.space	n/a
306.5535	0.105	613107	keystroke_s	s	n/a
306.7635	0.09	613527	keystroke_e	e	n/a
306.9885	0.105	613977	keystroke_a	a	n/a
307.2735	0.076	614547	keystroke_t	t	n/a
307.4535	0.105	614907	keystroke_Key.space	Key.space	n/a
310.6815	0.028	621363	keystroke_a	a	n/a
310.6825	0.131	621365	keystroke_l	l	n/a
310.8885	0.09	621777	keystroke_b	b	n/a
310.9795	0.089	621959	keystroke_a	a	n/a
311.4285	0.135	622857	keystroke_y	y	n/a
312.1035	0.09	624207	keystroke_Key.backspace	Key.backspace	n/a
312.2835	0.09	624567	keystroke_n	n	n/a
312.4335	0.09	624867	keystroke_y	y	n/a
312.5835	0.09	625167	keystroke_Key.space	Key.space	n/a
312.7785	0.105	625557	keystroke_h	h	n/a
312.8685	0.09	625737	keystroke_a	a	n/a
313.0635	0.09	626127	keystroke_r	r	n/a
313.2885	0.135	626577	keystroke_d	d	n/a
313.4685	0.12	626937	keystroke_e	e	n/a
313.6635	0.076	627327	keystroke_r	r	n/a
314.0385	0.075	628077	keystroke_Key.enter	Key.enter	n/a
314.1195	5.906	628239	prompt	n/a	musician development totals followed\n
314.8185	0.09	629637	keystroke_m	m	n/a
315.0135	0.075	630027	keystroke_u	u	n/a
315.1035	0.075	630207	keystroke_s	s	n/a
315.1935	0.06	630387	keystroke_i	i	n/a
315.2835	0.075	630567	keystroke_c	c	n/a
315.3435	0.09	630687	keystroke_i	i	n/a
315.4635	0.1045	630927	keystroke_a	a	n/a
315.583	0.09	631166	keystroke_n	n	n/a
315.778	0.09	631556	keystroke_Key.space	Key.space	n/a
315.883	0.09	631766	keystroke_d	d	n/a
316.018	0.12	632036	keystroke_e	e	n/a
316.213	0.091	632426	keystroke_v	v	n/a
316.318	0.06	632636	keystroke_e	e	n/a
316.363	0.06	632726	keystroke_l	l	n/a
316.543	0.075	633086	keystroke_o	o	n/a
316.724	0.104	633448	keystroke_p	p	n/a
316.858	0.12	633716	keystroke_m	m	n/a
316.993	0.076	633986	keystroke_e	e	n/a
317.053	0.105	634106	keystroke_n	n	n/a
317.203	0.09	634406	keystroke_t	t	n/a
317.323	0.105	634646	keystroke_Key.space	Key.space	n/a
317.593	0.075	635186	keystroke_t	t	n/a
317.653	0.105	635306	keystroke_o	o	n/a
317.728	0.075	635456	keystroke_t	t	n/a
317.938	0.09	635876	keystroke_a	a	n/a
318.043	0.06	636086	keystroke_l	l	n/a
318.133	0.105	636266	keystroke_s	s	n/a
318.253	0.09	636506	keystroke_Key.space	Key.space	n/a
318.448	0.091	636896	keystroke_f	f	n/a
318.553	0.076	637106	keystroke_o	o	n/a
318.763	0.03	637526	keystroke_l	l	n/a
318.868	0.075	637736	keystroke_l	l	n/a
319.018	0.105	638036	keystroke_o	o	n/a
319.153	0.091	638306	keystroke_w	w	n/a
319.408	0.135	638816	keystroke_e	e	n/a
319.663	0.135	639326	keystroke_d	d	n/a
319.948	0.075	639896	keystroke_Key.enter	Key.enter	n/a
320.0305	5.4245	640061	prompt	n/a	our throat forth roommates\n
320.668	0.09	641336	keystroke_o	o	n/a
320.863	0.105	641726	keystroke_u	u	n/a
320.983	0.105	641966	keystroke_r	r	n/a
321.118	0.105	642236	keystroke_Key.space	Key.space	n/a
321.298	0.075	642596	keystroke_t	t	n/a
321.584	0.089	643168	keystroke_r	r	n/a
321.674	0.044	643348	keystroke_h	h	n/a
322.048	0.06	644096	keystroke_Key.backspace	Key.backspace	n/a
322.168	0.06	644336	keystroke_Key.backspace	Key.backspace	n/a
322.438	0.105	644876	keystroke_h	h	n/a
322.514	0.119	645028	keystroke_r	r	n/a
322.678	0.106	645356	keystroke_o	o	n/a
322.843	0.105	645686	keystroke_a	a	n/a
323.083	0.076	646166	keystroke_t	t	n/a
323.248	0.105	646496	keystroke_Key.space	Key.space	n/a
323.398	0.105	646796	keystroke_f	f	n/a
323.458	0.106	646916	keystroke_o	o	n/a
323.564	0.105	647128	keystroke_r	r	n/a
323.729	0.104	647458	keystroke_t	t	n/a
323.818	0.135	647636	keystroke_h	h	n/a
323.998	0.105	647996	keystroke_Key.space	Key.space	n/a
324.178	0.09	648356	keystroke_r	r	n/a
324.298	0.075	648596	keystroke_o	o	n/a
324.433	0.12	648866	keystroke_o	o	n/a
324.598	0.135	649196	keystroke_m	m	n/a
324.718	0.105	649436	keystroke_a	a	n/a
324.958	0.136	649916	keystroke_t	t	n/a
325.018	0.106	650036	keystroke_e	e	n/a
325.213	0.106	650426	keystroke_s	s	n/a
325.348	0.105	650696	keystroke_Key.enter	Key.enter	n/a
325.46	6.46	650920	prompt	n/a	floors sherman additional radical\n
326.204	0.089	652408	keystroke_f	f	n/a
326.324	0.074	652648	keystroke_l	l	n/a
326.518	0.06	653036	keystroke_o	o	n/a
326.653	0.09	653306	keystroke_o	o	n/a
326.728	0.075	653456	keystroke_r	r	n/a
327.149	0.104	654298	keystroke_s	s	n/a
327.343	0.09	654686	keystroke_Key.space	Key.space	n/a
327.418	0.091	654836	keystroke_s	s	n/a
327.524	0.104	655048	keystroke_h	h	n/a
327.643	0.09	655286	keystroke_e	e	n/a
327.808	0.076	655616	keystroke_r	r	n/a
327.914	0.089	655828	keystroke_m	m	n/a
328.063	0.075	656126	keystroke_a	a	n/a
328.139	0.06	656278	keystroke_n	n	n/a
328.303	0.09	656606	keystroke_Key.space	Key.space	n/a
328.378	0.091	656756	keystroke_a	a	n/a
328.558	0.061	657116	keystroke_d	d	n/a
328.693	0.09	657386	keystroke_d	d	n/a
328.814	0.135	657628	keystroke_i	i	n/a
328.978	0.105	657956	keystroke_t	t	n/a
329.068	0.076	658136	keystroke_i	i	n/a
329.203	0.15	658406	keystroke_o	o	n/a
329.324	0.119	658648	keystroke_n	n	n/a
329.488	0.091	658976	keystroke_a	a	n/a
329.594	0.075	659188	keystroke_l	l	n/a
329.773	0.105	659546	keystroke_Key.space	Key.space	n/a
330.043	0.061	660086	keystroke_r	r	n/a
330.194	0.089	660388	keystroke_a	a	n/a
330.328	0.091	660656	keystroke_d	d	n/a
330.433	0.12	660866	keystroke_i	i	n/a
330.538	0.075	661076	keystroke_c	c	n/a
330.629	0.134	661258	keystroke_a	a	n/a
330.733	0.09	661466	keystroke_l	l	n/a
330.959	0.06	661918	keystroke_'	'	n/a
331.588	0.09	663176	keystroke_Key.backspace	Key.backspace	n/a
331.828	0.09	663656	keystroke_Key.enter	Key.enter	n/a
331.924	5.096	663848	prompt	n/a	sudan drivers edited douglas\n
332.548	0.075	665096	keystroke_s	s	n/a
332.639	0.104	665278	keystroke_u	u	n/a
332.758	0.06	665516	keystroke_d	d	n/a
332.863	0.091	665726	keystroke_a	a	n/a
333.013	0.075	666026	keystroke_n	n	n/a
333.253	0.045	666506	keystroke_Key.space	Key.space	n/a
333.403	0.18	666806	keystroke_d	d	n/a
334.078	0.12	668156	keystroke_r	r	n/a
334.184	0.089	668368	keystroke_i	i	n/a
334.258	0.105	668516	keystroke_v	v	n/a
334.424	0.089	668848	keystroke_e	e	n/a
334.604	0.089	669208	keystroke_r	r	n/a
334.798	0.076	669596	keystroke_s	s	n/a
334.903	0.09	669806	keystroke_Key.space	Key.space	n/a
335.008	0.06	670016	keystroke_e	e	n/a
335.188	0.075	670376	keystroke_d	d	n/a
335.248	0.091	670496	keystroke_i	i	n/a
335.399	0.074	670798	keystroke_t	t	n/a
335.608	0.061	671216	keystroke_e	e	n/a
335.773	0.06	671546	keystroke_d	d	n/a
335.878	0.075	671756	keystroke_Key.space	Key.space	n/a
335.984	0.09	671968	keystroke_d	d	n/a
336.058	0.12	672116	keystroke_o	o	n/a
336.283	0.091	672566	keystroke_u	u	n/a
336.389	0.06	672778	keystroke_g	g	n/a
336.553	0.046	673106	keystroke_l	l	n/a
336.614	0.089	673228	keystroke_a	a	n/a
336.808	0.075	673616	keystroke_s	s	n/a
336.943	0.075	673886	keystroke_Key.enter	Key.enter	n/a
337.0245	7.121	674049	prompt	n/a	fastest consensus tracking bold\n
338.039	0.089	676078	keystroke_f	f	n/a
338.279	0.075	676558	keystroke_a	a	n/a
338.443	0.09	676886	keystroke_s	s	n/a
338.714	0.119	677428	keystroke_t	t	n/a
338.789	0.09	677578	keystroke_e	e	n/a
338.953	0.105	677906	keystroke_s	s	n/a
339.133	0.106	678266	keystroke_t	t	n/a
339.298	0.12	678596	keystroke_Key.space	Key.space	n/a
339.523	0.091	679046	keystroke_c	c	n/a
339.628	0.15	679256	keystroke_o	o	n/a
339.733	0.135	679466	keystroke_n	n	n/a
339.853	0.09	679706	keystroke_s	s	n/a
340.049	0.074	680098	keystroke_e	e	n/a
340.199	0.089	680398	keystroke_n	n	n/a
340.363	0.105	680726	keystroke_s	s	n/a
340.499	0.104	680998	keystroke_u	u	n/a
340.588	0.075	681176	keystroke_s	s	n/a
340.738	0.135	681476	keystroke_Key.space	Key.space	n/a
340.978	0.136	681956	keystroke_t	t	n/a
341.068	0.09	682136	keystroke_r	r	n/a
341.279	0.104	682558	keystroke_a	a	n/a
341.474	0.089	682948	keystroke_c	c	n/a
341.578	0.06	683156	keystroke_k	k	n/a
341.758	0.12	683516	keystroke_i	i	n/a
341.848	0.12	683696	keystroke_n	n	n/a
341.999	0.104	683998	keystroke_g	g	n/a
342.148	0.105	684296	keystroke_Key.space	Key.space	n/a
343.289	0.089	686578	keystroke_b	b	n/a
343.679	0.074	687358	keystroke_o	o	n/a
343.829	0.09	687658	keystroke_l	l	n/a
343.934	0.09	687868	keystroke_d	d	n/a
344.053	0.09	688106	keystroke_Key.enter	Key.enter	n/a
344.151	8.499	688302	prompt	n/a	performs adsl smallest yorkshire\n
344.939	0.075	689878	keystroke_p	p	n/a
345.043	0.09	690086	keystroke_e	e	n/a
345.223	0.076	690446	keystroke_r	r	n/a
345.389	0.09	690778	keystroke_f	f	n/a
345.463	0.106	690926	keystroke_o	o	n/a
345.553	0.075	691106	keystroke_r	r	n/a
345.659	0.105	691318	keystroke_m	m	n/a
345.808	0.091	691616	keystroke_s	s	n/a
345.958	0.105	691916	keystroke_Key.space	Key.space	n/a
346.213	0.106	692426	keystroke_a	a	n/a
346.393	0.106	692786	keystroke_d	d	n/a
346.603	0.091	693206	keystroke_s	s	n/a
346.753	0.075	693506	keystroke_l	l	n/a
346.963	0.09	693926	keystroke_Key.space	Key.space	n/a
347.069	0.075	694138	keystroke_s	s	n/a
347.249	0.074	694498	keystroke_a	a	n/a
347.699	0.074	695398	keystroke_Key.backspace	Key.backspace	n/a
348.133	0.106	696266	keystroke_m	m	n/a
348.5085	0.074	697017	keystroke_a	a	n/a
348.6285	0.075	697257	keystroke_l	l	n/a
348.779	0.075	697558	keystroke_l	l	n/a
348.914	0.06	697828	keystroke_e	e	n/a
349.064	0.104	698128	keystroke_s	s	n/a
350.338	0.061	700676	keystroke_t	t	n/a
350.668	0.105	701336	keystroke_Key.space	Key.space	n/a
351.149	0.06	702298	keystroke_y	y	n/a
351.253	0.136	702506	keystroke_o	o	n/a
351.433	0.09	702866	keystroke_r	r	n/a
351.539	0.104	703078	keystroke_k	k	n/a
351.749	0.075	703498	keystroke_s	s	n/a
351.989	0.09	703978	keystroke_h	h	n/a
352.168	0.121	704336	keystroke_i	i	n/a
352.274	0.135	704548	keystroke_r	r	n/a
352.334	0.105	704668	keystroke_e	e	n/a
352.573	0.075	705146	keystroke_Key.enter	Key.enter	n/a
352.6585	6.0965	705317	prompt	n/a	stop sticks carefully festivals\n
353.489	0.105	706978	keystroke_s	s	n/a
353.729	0.09	707458	keystroke_t	t	n/a
353.803	0.061	707606	keystroke_o	o	n/a
353.953	0.061	707906	keystroke_p	p	n/a
354.148	0.135	708296	keystroke_Key.space	Key.space	n/a
354.269	0.06	708538	keystroke_s	s	n/a
354.433	0.061	708866	keystroke_t	t	n/a
354.524	0.105	709048	keystroke_i	i	n/a
354.689	0.075	709378	keystroke_c	c	n/a
354.794	0.089	709588	keystroke_k	k	n/a
354.928	0.09	709856	keystroke_s	s	n/a
355.078	0.105	710156	keystroke_Key.space	Key.space	n/a
355.258	0.061	710516	keystroke_c	c	n/a
355.364	0.15	710728	keystroke_a	a	n/a
355.634	0.12	711268	keystroke_r	r	n/a
355.724	0.09	711448	keystroke_e	e	n/a
355.904	0.09	711808	keystroke_f	f	n/a
356.024	0.09	712048	keystroke_u	u	n/a
356.264	0.06	712528	keystroke_l	l	n/a
356.428	0.031	712856	keystroke_l	l	n/a
356.489	0.089	712978	keystroke_y	y	n/a
356.683	0.091	713366	keystroke_Key.space	Key.space	n/a
357.373	0.091	714746	keystroke_f	f	n/a
357.494	0.09	714988	keystroke_e	e	n/a
357.674	0.12	715348	keystroke_s	s	n/a
357.853	0.076	715706	keystroke_t	t	n/a
357.944	0.135	715888	keystroke_i	i	n/a
358.109	0.06	716218	keystroke_v	v	n/a
358.244	0.105	716488	keystroke_a	a	n/a
358.333	0.105	716666	keystroke_l	l	n/a
358.484	0.089	716968	keystroke_s	s	n/a
358.663	0.09	717326	keystroke_Key.enter	Key.enter	n/a
358.76	4.9455	717520	prompt	n/a	record offered specs templates\n
359.429	0.075	718858	keystroke_r	r	n/a
359.489	0.104	718978	keystroke_e	e	n/a
359.729	0.09	719458	keystroke_c	c	n/a
359.864	0.089	719728	keystroke_o	o	n/a
359.969	0.059	719938	keystroke_r	r	n/a
360.134	0.06	720268	keystroke_d	d	n/a
360.239	0.089	720478	keystroke_Key.space	Key.space	n/a
360.464	0.105	720928	keystroke_o	o	n/a
360.584	0.06	721168	keystroke_f	f	n/a
360.734	0.044	721468	keystroke_f	f	n/a
360.808	0.105	721616	keystroke_e	e	n/a
360.974	0.12	721948	keystroke_r	r	n/a
361.049	0.075	722098	keystroke_e	e	n/a
361.229	0.075	722458	keystroke_d	d	n/a
361.363	0.09	722726	keystroke_Key.space	Key.space	n/a
361.483	0.105	722966	keystroke_s	s	n/a
361.573	0.106	723146	keystroke_p	p	n/a
361.679	0.074	723358	keystroke_e	e	n/a
361.874	0.12	723748	keystroke_c	c	n/a
362.009	0.105	724018	keystroke_s	s	n/a
362.263	0.09	724526	keystroke_Key.space	Key.space	n/a
362.489	0.135	724978	keystroke_t	t	n/a
362.594	0.089	725188	keystroke_e	e	n/a
362.654	0.09	725308	keystroke_m	m	n/a
362.819	0.18	725638	keystroke_p	p	n/a
362.939	0.119	725878	keystroke_l	l	n/a
363.014	0.089	726028	keystroke_a	a	n/a
363.194	0.15	726388	keystroke_t	t	n/a
363.254	0.12	726508	keystroke_e	e	n/a
363.464	0.075	726928	keystroke_s	s	n/a
363.613	0.09	727226	keystroke_Key.enter	Key.enter	n/a
363.71	7.015	727420	prompt	n/a	toyota horrible cleaners director\n
364.544	0.075	729088	keystroke_t	t	n/a
365.099	0.12	730198	keystroke_o	o	n/a
365.294	0.09	730588	keystroke_y	y	n/a
365.414	0.075	730828	keystroke_o	o	n/a
365.564	0.105	731128	keystroke_t	t	n/a
365.954	0.075	731908	keystroke_a	a	n/a
366.223	0.091	732446	keystroke_Key.space	Key.space	n/a
366.539	0.075	733078	keystroke_h	h	n/a
366.778	0.076	733556	keystroke_o	o	n/a
366.928	0.046	733856	keystroke_r	r	n/a
367.049	0.09	734098	keystroke_r	r	n/a
367.184	0.09	734368	keystroke_i	i	n/a
367.275	0.089	734550	keystroke_b	b	n/a
367.394	0.105	734788	keystroke_l	l	n/a
367.529	0.075	735058	keystroke_e	e	n/a
367.649	0.104	735298	keystroke_Key.space	Key.space	n/a
367.829	0.105	735658	keystroke_c	c	n/a
367.994	0.075	735988	keystroke_l	l	n/a
368.099	0.075	736198	keystroke_e	e	n/a
368.309	0.075	736618	keystroke_a	a	n/a
368.414	0.09	736828	keystroke_n	n	n/a
368.519	0.12	737038	keystroke_e	e	n/a
368.684	0.075	737368	keystroke_r	r	n/a
368.819	0.105	737638	keystroke_s	s	n/a
369.208	0.091	738416	keystroke_Key.space	Key.space	n/a
369.554	0.075	739108	keystroke_d	d	n/a
369.644	0.105	739288	keystroke_i	i	n/a
369.764	0.12	739528	keystroke_r	r	n/a
369.854	0.105	739708	keystroke_e	e	n/a
370.078	0.091	740156	keystroke_c	c	n/a
370.289	0.09	740578	keystroke_t	t	n/a
370.349	0.09	740698	keystroke_o	o	n/a
370.469	0.09	740938	keystroke_r	r	n/a
370.619	0.104	741238	keystroke_Key.enter	Key.enter	n/a
370.729	6.012	741458	prompt	n/a	lovers november convicted missions\n
371.384	0.074	742768	keystroke_l	l	n/a
371.564	0.09	743128	keystroke_o	o	n/a
371.654	0.09	743308	keystroke_v	v	n/a
371.789	0.105	743578	keystroke_e	e	n/a
371.984	0.075	743968	keystroke_r	r	n/a
372.179	0.075	744358	keystroke_s	s	n/a
372.238	0.091	744476	keystroke_Key.space	Key.space	n/a
372.449	0.03	744898	keystroke_n	n	n/a
372.524	0.12	745048	keystroke_o	o	n/a
372.629	0.075	745258	keystroke_v	v	n/a
372.733	0.09	745466	keystroke_e	e	n/a
372.794	0.105	745588	keystroke_m	m	n/a
372.929	0.06	745858	keystroke_b	b	n/a
373.064	0.075	746128	keystroke_e	e	n/a
373.199	0.09	746398	keystroke_r	r	n/a
373.334	0.104	746668	keystroke_Key.space	Key.space	n/a
373.799	0.09	747598	keystroke_c	c	n/a
373.873	0.166	747746	keystroke_o	o	n/a
373.994	0.135	747988	keystroke_n	n	n/a
374.114	0.075	748228	keystroke_v	v	n/a
374.264	0.089	748528	keystroke_i	i	n/a
374.339	0.105	748678	keystroke_c	c	n/a
374.564	0.12	749128	keystroke_t	t	n/a
374.819	0.06	749638	keystroke_e	e	n/a
374.999	0.075	749998	keystroke_d	d	n/a
375.358	0.075	750716	keystroke_Key.space	Key.space	n/a
375.539	0.09	751078	keystroke_m	m	n/a
375.689	0.09	751378	keystroke_i	i	n/a
375.823	0.06	751646	keystroke_s	s	n/a
375.974	0.045	751948	keystroke_s	s	n/a
376.124	0.09	752248	keystroke_i	i	n/a
376.303	0.151	752606	keystroke_o	o	n/a
376.379	0.15	752758	keystroke_n	n	n/a
376.544	0.075	753088	keystroke_s	s	n/a
376.649	0.089	753298	keystroke_Key.enter	Key.enter	n/a
376.7465	7.164	753493	prompt	n/a	clone priorities colonial drew\n
377.324	0.09	754648	keystroke_c	c	n/a
377.444	0.105	754888	keystroke_l	l	n/a
377.654	0.18	755308	keystroke_o	o	n/a
377.789	0.12	755578	keystroke_n	n	n/a
377.999	0.045	755998	keystroke_e	e	n/a
378.103	0.106	756206	keystroke_Key.space	Key.space	n/a
378.404	0.09	756808	keystroke_p	p	n/a
378.569	0.09	757138	keystroke_r	r	n/a
378.719	0.12	757438	keystroke_i	i	n/a
378.959	0.075	757918	keystroke_o	o	n/a
379.049	0.075	758098	keystroke_r	r	n/a
379.139	0.12	758278	keystroke_i	i	n/a
379.274	0.09	758548	keystroke_t	t	n/a
379.379	0.105	758758	keystroke_i	i	n/a
379.544	0.045	759088	keystroke_e	e	n/a
379.964	0.09	759928	keystroke_s	s	n/a
380.099	0.075	760198	keystroke_Key.space	Key.space	n/a
380.189	0.09	760378	keystroke_c	c	n/a
380.309	0.075	760618	keystroke_o	o	n/a
380.474	0.09	760948	keystroke_l	l	n/a
380.669	0.15	761338	keystroke_o	o	n/a
380.864	0.075	761728	keystroke_n	n	n/a
380.984	0.09	761968	keystroke_i	i	n/a
381.089	0.09	762178	keystroke_a	a	n/a
381.224	0.075	762448	keystroke_l	l	n/a
381.404	0.09	762808	keystroke_Key.space	Key.space	n/a
382.064	0.09	764128	keystroke_Key.backspace	Key.backspace	n/a
382.844	0.104	765688	keystroke_Key.space	Key.space	n/a
383.084	0.06	766168	keystroke_d	d	n/a
383.294	0.075	766588	keystroke_r	r	n/a
383.534	0.165	767068	keystroke_e	e	n/a
383.639	0.12	767278	keystroke_w	w	n/a
383.804	0.104	767608	keystroke_Key.enter	Key.enter	n/a
383.915	6.2505	767830	prompt	n/a	mexico licking designed corporation\n
384.719	0.135	769438	keystroke_m	m	n/a
384.839	0.09	769678	keystroke_e	e	n/a
385.0485	0.105	770097	keystroke_x	x	n/a
385.1685	0.09	770337	keystroke_i	i	n/a
385.2735	0.09	770547	keystroke_c	c	n/a
385.3935	0.1205	770787	keystroke_o	o	n/a
385.649	0.0745	771298	keystroke_Key.space	Key.space	n/a
385.8585	0.0905	771717	keystroke_l	l	n/a
386.054	0.0895	772108	keystroke_i	i	n/a
386.174	0.075	772348	keystroke_c	c	n/a
386.3835	0.1505	772767	keystroke_k	k	n/a
386.654	0.135	773308	keystroke_i	i	n/a
386.744	0.135	773488	keystroke_n	n	n/a
386.849	0.075	773698	keystroke_g	g	n/a
386.969	0.135	773938	keystroke_Key.space	Key.space	n/a
387.164	0.075	774328	keystroke_d	d	n/a
387.284	0.075	774568	keystroke_e	e	n/a
387.464	0.1045	774928	keystroke_s	s	n/a
387.554	0.0895	775108	keystroke_i	i	n/a
387.659	0.0745	775318	keystroke_g	g	n/a
387.764	0.0895	775528	keystroke_n	n	n/a
387.8085	0.09	775617	keystroke_e	e	n/a
388.0035	0.105	776007	keystroke_d	d	n/a
388.139	0.12	776278	keystroke_Key.space	Key.space	n/a
388.349	0.075	776698	keystroke_c	c	n/a
388.499	0.09	776998	keystroke_o	o	n/a
388.6785	0.06	777357	keystroke_r	r	n/a
388.784	0.075	777568	keystroke_p	p	n/a
388.964	0.0745	777928	keystroke_o	o	n/a
389.054	0.0595	778108	keystroke_r	r	n/a
389.2485	0.12	778497	keystroke_a	a	n/a
389.4735	0.1055	778947	keystroke_t	t	n/a
389.594	0.06	779188	keystroke_i	i	n/a
389.729	0.135	779458	keystroke_o	o	n/a
389.834	0.12	779668	keystroke_n	n	n/a
390.074	0.09	780148	keystroke_Key.enter	Key.enter	n/a
390.1715	11.514	780343	prompt	n/a	deliver flat who'd've jaguar\n
390.8985	0.075	781797	keystroke_d	d	n/a
391.049	0.0895	782098	keystroke_e	e	n/a
391.1535	0.0905	782307	keystroke_l	l	n/a
391.349	0.075	782698	keystroke_i	i	n/a
391.4385	0.0605	782877	keystroke_v	v	n/a
391.544	0.0895	783088	keystroke_e	e	n/a
391.709	0.0895	783418	keystroke_r	r	n/a
391.8435	0.105	783687	keystroke_Key.space	Key.space	n/a
391.9935	0.09	783987	keystroke_f	f	n/a
392.129	0.09	784258	keystroke_l	l	n/a
392.204	0.12	784408	keystroke_a	a	n/a
392.4435	0.0755	784887	keystroke_t	t	n/a
392.594	0.1045	785188	keystroke_Key.space	Key.space	n/a
392.7135	0.075	785427	keystroke_w	w	n/a
392.8335	0.09	785667	keystroke_h	h	n/a
393.0885	0.09	786177	keystroke_o	o	n/a
393.5535	0.09	787107	keystroke_'	'	n/a
393.7185	0.15	787437	keystroke_v	v	n/a
393.9435	0.135	787887	keystroke_e	e	n/a
394.934	0.0895	789868	keystroke_Key.backspace	Key.backspace	n/a
395.1285	0.06	790257	keystroke_Key.backspace	Key.backspace	n/a
395.7735	0.105	791547	keystroke_d	d	n/a
398.5215	0.027	797043	keystroke_'	'	n/a
398.7135	0.075	797427	keystroke_v	v	n/a
398.9085	0.09	797817	keystroke_e	e	n/a
399.3285	0.09	798657	keystroke_Key.space	Key.space	n/a
399.6885	0.12	799377	keystroke_j	j	n/a
399.8685	0.105	799737	keystroke_a	a	n/a
400.2585	0.105	800517	keystroke_g	g	n/a
400.3785	0.105	800757	keystroke_u	u	n/a
400.5585	0.075	801117	keystroke_a	a	n/a
401.3985	0.075	802797	keystroke_r	r	n/a
401.5785	0.105	803157	keystroke_Key.enter	Key.enter	n/a
401.691	6.0395	803382	prompt	n/a	mouse israel experiment arabic\n
402.4485	0.12	804897	keystroke_m	m	n/a
402.6135	0.105	805227	keystroke_o	o	n/a
402.8235	0.09	805647	keystroke_u	u	n/a
402.9135	0.09	805827	keystroke_s	s	n/a
403.1235	0.075	806247	keystroke_e	e	n/a
403.4385	0.12	806877	keystroke_Key.space	Key.space	n/a
403.6335	0.105	807267	keystroke_i	i	n/a
403.7235	0.075	807447	keystroke_s	s	n/a
404.0385	0.075	808077	keystroke_r	r	n/a
404.4735	0.075	808947	keystroke_a	a	n/a
404.6685	0.105	809337	keystroke_e	e	n/a
404.8035	0.075	809607	keystroke_l	l	n/a
405.0585	0.075	810117	keystroke_Key.space	Key.space	n/a
405.1035	0.075	810207	keystroke_e	e	n/a
405.2985	0.12	810597	keystroke_x	x	n/a
405.4335	0.09	810867	keystroke_p	p	n/a
405.6285	0.06	811257	keystroke_e	e	n/a
405.7635	0.075	811527	keystroke_r	r	n/a
405.8085	0.09	811617	keystroke_i	i	n/a
405.9735	0.105	811947	keystroke_m	m	n/a
406.0935	0.075	812187	keystroke_e	e	n/a
406.1535	0.12	812307	keystroke_n	n	n/a
406.3485	0.075	812697	keystroke_t	t	n/a
406.4985	0.09	812997	keystroke_Key.space	Key.space	n/a
406.6335	0.105	813267	keystroke_a	a	n/a
406.8285	0.075	813657	keystroke_r	r	n/a
407.0085	0.09	814017	keystroke_a	a	n/a
407.2935	0.075	814587	keystroke_b	b	n/a
407.3985	0.135	814797	keystroke_i	i	n/a
407.5185	0.09	815037	keystroke_c	c	n/a
407.6535	0.075	815307	keystroke_Key.enter	Key.enter	n/a
407.7345	5.8465	815469	prompt	n/a	diet completion holocaust everyone\n
408.3885	0.12	816777	keystroke_d	d	n/a
408.5235	0.06	817047	keystroke_i	i	n/a
408.5685	0.075	817137	keystroke_e	e	n/a
408.7485	0.09	817497	keystroke_t	t	n/a
408.8685	0.09	817737	keystroke_Key.space	Key.space	n/a
409.0935	0.105	818187	keystroke_c	c	n/a
409.1835	0.18	818367	keystroke_o	o	n/a
409.3035	0.105	818607	keystroke_m	m	n/a
409.4835	0.135	818967	keystroke_p	p	n/a
409.5585	0.135	819117	keystroke_l	l	n/a
409.6485	0.105	819297	keystroke_e	e	n/a
409.8135	0.09	819627	keystroke_t	t	n/a
409.8885	0.12	819777	keystroke_i	i	n/a
410.0985	0.135	820197	keystroke_o	o	n/a
410.1735	0.12	820347	keystroke_n	n	n/a
410.3685	0.12	820737	keystroke_Key.space	Key.space	n/a
410.5335	0.09	821067	keystroke_h	h	n/a
410.6385	0.105	821277	keystroke_o	o	n/a
410.8485	0.09	821697	keystroke_l	l	n/a
411.0135	0.105	822027	keystroke_o	o	n/a
411.3735	0.06	822747	keystroke_c	c	n/a
411.5235	0.09	823047	keystroke_a	a	n/a
411.6135	0.105	823227	keystroke_u	u	n/a
411.7335	0.09	823467	keystroke_s	s	n/a
411.9885	0.09	823977	keystroke_t	t	n/a
412.1085	0.09	824217	keystroke_Key.space	Key.space	n/a
412.1835	0.105	824367	keystroke_e	e	n/a
412.3485	0.12	824697	keystroke_v	v	n/a
412.4985	0.12	824997	keystroke_e	e	n/a
412.6635	0.09	825327	keystroke_r	r	n/a
412.8585	0.09	825717	keystroke_y	y	n/a
413.0835	0.18	826167	keystroke_o	o	n/a
413.2035	0.12	826407	keystroke_n	n	n/a
413.2935	0.105	826587	keystroke_e	e	n/a
413.4885	0.09	826977	keystroke_Key.enter	Key.enter	n/a
413.5855	5.1545	827171	prompt	n/a	uncle bubble girl shouldn't\n
414.2835	0.075	828567	keystroke_u	u	n/a
414.4335	0.075	828867	keystroke_n	n	n/a
414.5235	0.075	829047	keystroke_c	c	n/a
414.6285	0.075	829257	keystroke_l	l	n/a
414.7785	0.075	829557	keystroke_e	e	n/a
414.8685	0.09	829737	keystroke_Key.space	Key.space	n/a
415.0785	0.075	830157	keystroke_b	b	n/a
415.1985	0.12	830397	keystroke_u	u	n/a
415.4235	0.045	830847	keystroke_b	b	n/a
415.5435	0.075	831087	keystroke_b	b	n/a
415.7535	0.075	831507	keystroke_l	l	n/a
415.8735	0.09	831747	keystroke_e	e	n/a
415.9935	0.105	831987	keystroke_Key.space	Key.space	n/a
416.1435	0.09	832287	keystroke_g	g	n/a
416.2345	0.089	832469	keystroke_i	i	n/a
416.3385	0.105	832677	keystroke_r	r	n/a
416.4735	0.075	832947	keystroke_l	l	n/a
416.6385	0.09	833277	keystroke_Key.space	Key.space	n/a
416.8185	0.09	833637	keystroke_s	s	n/a
416.8935	0.06	833787	keystroke_h	h	n/a
417.1035	0.075	834207	keystroke_o	o	n/a
417.3435	0.09	834687	keystroke_u	u	n/a
417.5535	0.075	835107	keystroke_l	l	n/a
417.6735	0.09	835347	keystroke_d	d	n/a
417.8085	0.165	835617	keystroke_n	n	n/a
418.1685	0.045	836337	keystroke_'	'	n/a
418.2285	0.09	836457	keystroke_t	t	n/a
418.6485	0.09	837297	keystroke_Key.enter	Key.enter	n/a
418.745	6.9555	837490	prompt	n/a	johnny collectible bookings cartoons\n
419.5485	0.075	839097	keystroke_j	j	n/a
419.6835	0.12	839367	keystroke_o	o	n/a
419.8335	0.09	839667	keystroke_h	h	n/a
420.0135	0.03	840027	keystroke_n	n	n/a
420.1185	0.09	840237	keystroke_n	n	n/a
420.2235	0.09	840447	keystroke_y	y	n/a
420.3885	0.105	840777	keystroke_Key.space	Key.space	n/a
420.5685	0.105	841137	keystroke_c	c	n/a
420.6585	0.09	841317	keystroke_o	o	n/a
420.8685	0.045	841737	keystroke_l	l	n/a
421.0035	0.06	842007	keystroke_l	l	n/a
421.0785	0.09	842157	keystroke_e	e	n/a
421.289	0.09	842578	keystroke_c	c	n/a
421.529	0.09	843058	keystroke_t	t	n/a
421.604	0.09	843208	keystroke_i	i	n/a
421.784	0.105	843568	keystroke_b	b	n/a
422.009	0.075	844018	keystroke_l	l	n/a
422.204	0.09	844408	keystroke_e	e	n/a
422.309	0.075	844618	keystroke_Key.space	Key.space	n/a
422.504	0.09	845008	keystroke_b	b	n/a
422.729	0.045	845458	keystroke_o	o	n/a
422.849	0.135	845698	keystroke_o	o	n/a
422.969	0.09	845938	keystroke_k	k	n/a
423.119	0.165	846238	keystroke_i	i	n/a
423.209	0.165	846418	keystroke_n	n	n/a
423.344	0.03	846688	keystroke_g	g	n/a
423.584	0.12	847168	keystroke_s	s	n/a
423.719	0.12	847438	keystroke_Key.space	Key.space	n/a
423.809	0.075	847618	keystroke_c	c	n/a
423.944	0.12	847888	keystroke_a	a	n/a
424.154	0.06	848308	keystroke_r	r	n/a
424.304	0.075	848608	keystroke_t	t	n/a
424.424	0.33	848848	keystroke_o	o	n/a
425.159	0.15	850318	keystroke_o	o	n/a
425.279	0.105	850558	keystroke_n	n	n/a
425.414	0.075	850828	keystroke_s	s	n/a
425.639	0.06	851278	keystroke_Key.enter	Key.enter	n/a
425.705	8.711	851410	prompt	n/a	limitations electron attempting reduce\n
426.344	0.09	852688	keystroke_l	l	n/a
426.539	0.075	853078	keystroke_i	i	n/a
426.734	0.075	853468	keystroke_m	m	n/a
426.869	0.105	853738	keystroke_i	i	n/a
426.944	0.075	853888	keystroke_t	t	n/a
427.169	0.09	854338	keystroke_a	a	n/a
427.364	0.075	854728	keystroke_t	t	n/a
427.409	0.09	854818	keystroke_i	i	n/a
427.589	0.135	855178	keystroke_o	o	n/a
427.694	0.09	855388	keystroke_n	n	n/a
427.754	0.09	855508	keystroke_s	s	n/a
427.874	0.09	855748	keystroke_Key.space	Key.space	n/a
427.949	0.075	855898	keystroke_e	e	n/a
428.039	0.06	856078	keystroke_l	l	n/a
428.114	0.075	856228	keystroke_e	e	n/a
428.384	0.06	856768	keystroke_c	c	n/a
428.729	0.09	857458	keystroke_t	t	n/a
428.789	0.105	857578	keystroke_r	r	n/a
428.849	0.15	857698	keystroke_o	o	n/a
428.939	0.12	857878	keystroke_n	n	n/a
429.119	0.105	858238	keystroke_Key.space	Key.space	n/a
429.209	0.09	858418	keystroke_a	a	n/a
429.404	0.075	858808	keystroke_t	t	n/a
429.494	0.105	858988	keystroke_t	t	n/a
429.614	0.12	859228	keystroke_e	e	n/a
430.499	0.105	860998	keystroke_n	n	n/a
431.024	0.075	862048	keystroke_p	p	n/a
431.294	0.105	862588	keystroke_i	i	n/a
431.699	0.075	863398	keystroke_Key.backspace	Key.backspace	n/a
431.864	0.06	863728	keystroke_Key.backspace	Key.backspace	n/a
432.044	0.06	864088	keystroke_Key.backspace	Key.backspace	n/a
432.449	0.105	864898	keystroke_m	m	n/a
432.614	0.09	865228	keystroke_p	p	n/a
432.824	0.075	865648	keystroke_i	i	n/a
432.929	0.09	865858	keystroke_t	t	n/a
433.004	0.135	866008	keystroke_i	i	n/a
433.094	0.105	866188	keystroke_n	n	n/a
433.214	0.045	866428	keystroke_g	g	n/a
433.304	0.12	866608	keystroke_Key.space	Key.space	n/a
433.484	0.09	866968	keystroke_r	r	n/a
433.544	0.075	867088	keystroke_e	e	n/a
433.739	0.075	867478	keystroke_d	d	n/a
433.829	0.075	867658	keystroke_u	u	n/a
433.964	0.09	867928	keystroke_c	c	n/a
434.129	0.105	868258	keystroke_e	e	n/a
434.324	0.09	868648	keystroke_Key.enter	Key.enter	n/a
434.4245	10.7815	868849	prompt	n/a	construction careers much policies\n
436.049	0.06	872098	keystroke_c	c	n/a
436.109	0.15	872218	keystroke_i	i	n/a
436.229	0.15	872458	keystroke_n	n	n/a
436.274	0.09	872548	keystroke_s	s	n/a
436.469	0.12	872938	keystroke_t	t	n/a
436.544	0.12	873088	keystroke_r	r	n/a
436.604	0.09	873208	keystroke_u	u	n/a
436.784	0.135	873568	keystroke_c	c	n/a
437.084	0.06	874168	keystroke_t	t	n/a
437.129	0.06	874258	keystroke_i	i	n/a
437.609	0.045	875218	keystroke_Key.backspace	Key.backspace	n/a
437.744	0.045	875488	keystroke_Key.backspace	Key.backspace	n/a
437.894	0.045	875788	keystroke_Key.backspace	Key.backspace	n/a
438.029	0.045	876058	keystroke_Key.backspace	Key.backspace	n/a
438.164	0.045	876328	keystroke_Key.backspace	Key.backspace	n/a
438.284	0.075	876568	keystroke_Key.backspace	Key.backspace	n/a
438.449	0.045	876898	keystroke_Key.backspace	Key.backspace	n/a
438.569	0.06	877138	keystroke_Key.backspace	Key.backspace	n/a
438.704	0.06	877408	keystroke_Key.backspace	Key.backspace	n/a
439.155	0.164	878310	keystroke_o	o	n/a
439.304	0.12	878608	keystroke_n	n	n/a
439.394	0.075	878788	keystroke_s	s	n/a
439.559	0.12	879118	keystroke_t	t	n/a
439.664	0.09	879328	keystroke_r	r	n/a
439.709	0.09	879418	keystroke_u	u	n/a
439.934	0.09	879868	keystroke_c	c	n/a
440.144	0.075	880288	keystroke_t	t	n/a
440.174	0.09	880348	keystroke_i	i	n/a
440.339	0.135	880678	keystroke_o	o	n/a
440.459	0.075	880918	keystroke_n	n	n/a
440.624	0.135	881248	keystroke_Key.space	Key.space	n/a
440.744	0.06	881488	keystroke_c	c	n/a
440.849	0.12	881698	keystroke_a	a	n/a
441.134	0.075	882268	keystroke_r	r	n/a
441.344	0.06	882688	keystroke_e	e	n/a
441.494	0.045	882988	keystroke_e	e	n/a
441.644	0.075	883288	keystroke_r	r	n/a
441.839	0.075	883678	keystroke_s	s	n/a
441.929	0.06	883858	keystroke_Key.space	Key.space	n/a
442.094	0.09	884188	keystroke_m	m	n/a
442.304	0.075	884608	keystroke_u	u	n/a
442.394	0.075	884788	keystroke_c	c	n/a
442.634	0.03	885268	keystroke_Key.space	Key.space	n/a
443.024	0.075	886048	keystroke_Key.backspace	Key.backspace	n/a
443.279	0.12	886558	keystroke_h	h	n/a
443.489	0.105	886978	keystroke_Key.space	Key.space	n/a
443.849	0.075	887698	keystroke_p	p	n/a
444.044	0.03	888088	keystroke_o	o	n/a
444.179	0.075	888358	keystroke_l	l	n/a
444.359	0.06	888718	keystroke_i	i	n/a
444.464	0.09	888928	keystroke_c	c	n/a
444.539	0.09	889078	keystroke_i	i	n/a
444.794	0.075	889588	keystroke_e	e	n/a
444.974	0.09	889948	keystroke_s	s	n/a
445.124	0.075	890248	keystroke_Key.enter	Key.enter	n/a
445.209	5.8715	890418	prompt	n/a	bridges vertex lodging watts\n
445.844	0.105	891688	keystroke_b	b	n/a
445.964	0.075	891928	keystroke_r	r	n/a
446.069	0.105	892138	keystroke_i	i	n/a
446.189	0.03	892378	keystroke_d	d	n/a
447.149	0.075	894298	keystroke_g	g	n/a
447.269	0.075	894538	keystroke_e	e	n/a
447.449	0.105	894898	keystroke_s	s	n/a
447.569	0.09	895138	keystroke_Key.space	Key.space	n/a
447.704	0.075	895408	keystroke_v	v	n/a
447.824	0.105	895648	keystroke_e	e	n/a
448.034	0.06	896068	keystroke_r	r	n/a
448.199	0.06	896398	keystroke_t	t	n/a
448.379	0.06	896758	keystroke_e	e	n/a
448.589	0.12	897178	keystroke_x	x	n/a
448.724	0.075	897448	keystroke_Key.space	Key.space	n/a
448.919	0.15	897838	keystroke_l	l	n/a
449.219	0.15	898438	keystroke_o	o	n/a
449.354	0.075	898708	keystroke_d	d	n/a
449.534	0.105	899068	keystroke_g	g	n/a
449.609	0.18	899218	keystroke_i	i	n/a
449.744	0.09	899488	keystroke_n	n	n/a
449.774	0.09	899548	keystroke_g	g	n/a
449.969	0.075	899938	keystroke_Key.space	Key.space	n/a
450.029	0.075	900058	keystroke_w	w	n/a
450.194	0.105	900388	keystroke_a	a	n/a
450.449	0.06	900898	keystroke_t	t	n/a
450.569	0.075	901138	keystroke_t	t	n/a
450.824	0.075	901648	keystroke_s	s	n/a
451.004	0.075	902008	keystroke_Key.enter	Key.enter	n/a
451.0855	5.59	902171	prompt	n/a	republican cleared woman crafts\n
451.769	0.105	903538	keystroke_r	r	n/a
451.829	0.12	903658	keystroke_e	e	n/a
451.919	0.09	903838	keystroke_p	p	n/a
452.129	0.105	904258	keystroke_u	u	n/a
452.249	0.06	904498	keystroke_b	b	n/a
452.369	0.12	904738	keystroke_l	l	n/a
452.594	0.105	905188	keystroke_i	i	n/a
452.714	0.06	905428	keystroke_c	c	n/a
452.864	0.12	905728	keystroke_a	a	n/a
453.029	0.075	906058	keystroke_n	n	n/a
453.344	0.15	906688	keystroke_Key.space	Key.space	n/a
453.674	0.09	907348	keystroke_c	c	n/a
453.749	0.105	907498	keystroke_l	l	n/a
453.884	0.09	907768	keystroke_e	e	n/a
454.079	0.105	908158	keystroke_a	a	n/a
454.259	0.15	908518	keystroke_r	r	n/a
454.349	0.09	908698	keystroke_e	e	n/a
454.529	0.09	909058	keystroke_d	d	n/a
454.634	0.105	909268	keystroke_Key.space	Key.space	n/a
454.769	0.105	909538	keystroke_w	w	n/a
454.859	0.21	909718	keystroke_o	o	n/a
454.994	0.15	909988	keystroke_m	m	n/a
455.159	0.075	910318	keystroke_a	a	n/a
455.249	0.06	910498	keystroke_n	n	n/a
455.399	0.135	910798	keystroke_Key.space	Key.space	n/a
455.459	0.09	910918	keystroke_c	c	n/a
455.639	0.075	911278	keystroke_r	r	n/a
455.849	0.075	911698	keystroke_a	a	n/a
455.984	0.105	911968	keystroke_f	f	n/a
456.239	0.09	912478	keystroke_t	t	n/a
456.404	0.105	912808	keystroke_s	s	n/a
456.584	0.09	913168	keystroke_Key.enter	Key.enter	n/a
456.681	5.8895	913362	prompt	n/a	alexander delays price creator\n
457.214	0.075	914428	keystroke_a	a	n/a
