onset	duration	sample	value	key	prompt_text
15.4545	0.1435	30909	keystroke_v	v	n/a
15.558	0.116	31116	keystroke_i	i	n/a
15.662	0.136	31324	keystroke_s	s	n/a
15.7305	0.084	31461	keystroke_h	h	n/a
17.865	0.268	35730	keystroke_Key.cmd	Key.cmd	n/a
18.005	0.148	36010	keystroke_v	v	n/a
24.1775	10.7735	48355	prompt	n/a	the quick brown fox jumps over a lazy dog\n
25.2695	0.09	50539	keystroke_t	t	n/a
25.345	0.09	50690	keystroke_h	h	n/a
25.4345	0.135	50869	keystroke_e	e	n/a
25.57	0.1495	51140	keystroke_Key.space	Key.space	n/a
25.6595	0.1045	51319	keystroke_q	q	n/a
25.779	0.1205	51558	keystroke_u	u	n/a
25.8545	0.09	51709	keystroke_i	i	n/a
25.9595	0.1655	51919	keystroke_c	c	n/a
26.0975	0.087	52195	keystroke_k	k	n/a
26.1695	0.09	52339	keystroke_Key.space	Key.space	n/a
26.2295	0.105	52459	keystroke_b	b	n/a
26.4395	0.12	52879	keystroke_r	r	n/a
26.5145	0.12	53029	keystroke_o	o	n/a
26.65	0.1345	53300	keystroke_w	w	n/a
27.0095	0.075	54019	keystroke_Key.backspace	Key.backspace	n/a
27.7895	0.105	55579	keystroke_Key.backspace	Key.backspace	n/a
28.179	0.0605	56358	keystroke_Key.backspace	Key.backspace	n/a
28.345	0.0745	56690	keystroke_Key.backspace	Key.backspace	n/a
28.5245	0.075	57049	keystroke_Key.backspace	Key.backspace	n/a
28.6895	0.075	57379	keystroke_Key.backspace	Key.backspace	n/a
29.0645	0.075	58129	keystroke_Key.backspace	Key.backspace	n/a
29.8595	0.09	59719	keystroke_i	i	n/a
30.0095	0.18	60019	keystroke_c	c	n/a
30.1145	0.1205	60229	keystroke_k	k	n/a
30.22	0.135	60440	keystroke_Key.space	Key.space	n/a
30.37	0.1045	60740	keystroke_b	b	n/a
30.565	0.1345	61130	keystroke_r	r	n/a
30.67	0.105	61340	keystroke_o	o	n/a
30.7595	0.135	61519	keystroke_w	w	n/a
30.8645	0.1055	61729	keystroke_n	n	n/a
30.925	0.1495	61850	keystroke_Key.space	Key.space	n/a
31.045	0.1345	62090	keystroke_f	f	n/a
31.165	0.105	62330	keystroke_o	o	n/a
31.285	0.12	62570	keystroke_x	x	n/a
31.3745	0.105	62749	keystroke_Key.space	Key.space	n/a
31.4645	0.09	62929	keystroke_j	j	n/a
31.6745	0.0455	63349	keystroke_u	u	n/a
31.855	0.15	63710	keystroke_m	m	n/a
31.9595	0.1505	63919	keystroke_p	p	n/a
32.0645	0.166	64129	keystroke_s	s	n/a
32.215	0.1045	64430	keystroke_Key.space	Key.space	n/a
32.3345	0.105	64669	keystroke_o	o	n/a
32.455	0.1345	64910	keystroke_v	v	n/a
32.605	0.18	65210	keystroke_e	e	n/a
32.74	0.105	65480	keystroke_r	r	n/a
32.8895	0.1355	65779	keystroke_Key.space	Key.space	n/a
33.295	0.12	66590	keystroke_a	a	n/a
33.415	0.105	66830	keystroke_Key.space	Key.space	n/a
33.595	0.105	67190	keystroke_l	l	n/a
33.715	0.075	67430	keystroke_a	a	n/a
33.9545	0.1055	67909	keystroke_z	z	n/a
34.105	0.1045	68210	keystroke_y	y	n/a
34.225	0.135	68450	keystroke_Key.space	Key.space	n/a
34.375	0.1645	68750	keystroke_d	d	n/a
34.48	0.105	68960	keystroke_o	o	n/a
34.66	0.1045	69320	keystroke_g	g	n/a
34.8395	0.105	69679	keystroke_Key.enter	Key.enter	n/a
34.9545	6.832	69909	prompt	n/a	stood punk decrease cups\n
36.3395	0.1355	72679	keystroke_s	s	n/a
36.625	0.105	73250	keystroke_t	t	n/a
36.8345	0.0455	73669	keystroke_o	o	n/a
36.985	0.09	73970	keystroke_o	o	n/a
37.06	0.135	74120	keystroke_d	d	n/a
37.1795	0.0605	74359	keystroke_Key.space	Key.space	n/a
37.255	0.1945	74510	keystroke_p	p	n/a
37.4645	0.0455	74929	keystroke_u	u	n/a
37.975	0.165	75950	keystroke_n	n	n/a
38.155	0.12	76310	keystroke_k	k	n/a
38.29	0.1345	76580	keystroke_Key.space	Key.space	n/a
38.47	0.075	76940	keystroke_d	d	n/a
38.6195	0.076	77239	keystroke_e	e	n/a
38.83	0.075	77660	keystroke_c	c	n/a
38.9975	0.1325	77995	keystroke_r	r	n/a
39.07	0.12	78140	keystroke_e	e	n/a
39.2195	0.166	78439	keystroke_a	a	n/a
39.4	0.1055	78800	keystroke_s	s	n/a
39.46	0.09	78920	keystroke_e	e	n/a
39.565	0.0595	79130	keystroke_Key.space	Key.space	n/a
39.9995	0.0755	79999	keystroke_c	c	n/a
40.135	0.0605	80270	keystroke_u	u	n/a
40.18	0.165	80360	keystroke_p	p	n/a
40.3595	0.1055	80719	keystroke_s	s	n/a
41.6645	0.1205	83329	keystroke_Key.enter	Key.enter	n/a
41.7895	5.9525	83579	prompt	n/a	grid egypt rosa dogs\n
42.565	0.045	85130	keystroke_g	g	n/a
42.715	0.1045	85430	keystroke_r	r	n/a
42.8345	0.1505	85669	keystroke_i	i	n/a
42.94	0.105	85880	keystroke_d	d	n/a
43.03	0.1195	86060	keystroke_Key.space	Key.space	n/a
43.361	0.0885	86722	keystroke_g	g	n/a
44.065	0.165	88130	keystroke_Key.backspace	Key.backspace	n/a
44.395	0.12	88790	keystroke_e	e	n/a
44.6495	0.1205	89299	keystroke_g	g	n/a
44.755	0.12	89510	keystroke_y	y	n/a
45.04	0.1055	90080	keystroke_p	p	n/a
45.22	0.1045	90440	keystroke_t	t	n/a
45.3395	0.1055	90679	keystroke_Key.space	Key.space	n/a
45.5195	0.1205	91039	keystroke_r	r	n/a
45.625	0.09	91250	keystroke_o	o	n/a
45.7745	0.06	91549	keystroke_a	a	n/a
46.1795	0.0755	92359	keystroke_Key.backspace	Key.backspace	n/a
46.4505	0.106	92901	keystroke_s	s	n/a
46.525	0.1345	93050	keystroke_a	a	n/a
46.6745	0.0755	93349	keystroke_Key.space	Key.space	n/a
46.8545	0.12	93709	keystroke_d	d	n/a
46.96	0.091	93920	keystroke_o	o	n/a
47.065	0.1645	94130	keystroke_g	g	n/a
47.2465	0.104	94493	keystroke_s	s	n/a
47.635	0.105	95270	keystroke_Key.enter	Key.enter	n/a
47.745	6.4615	95490	prompt	n/a	moderator baltimore borough fiji\n
48.61	0.1495	97220	keystroke_m	m	n/a
48.7745	0.091	97549	keystroke_o	o	n/a
48.895	0.105	97790	keystroke_d	d	n/a
49.0745	0.1505	98149	keystroke_e	e	n/a
49.24	0.1655	98480	keystroke_r	r	n/a
49.405	0.1195	98810	keystroke_a	a	n/a
49.54	0.06	99080	keystroke_t	t	n/a
49.5855	0.1045	99171	keystroke_o	o	n/a
49.675	0.1205	99350	keystroke_r	r	n/a
49.78	0.0905	99560	keystroke_Key.space	Key.space	n/a
49.93	0.1655	99860	keystroke_b	b	n/a
50.2005	0.0895	100401	keystroke_a	a	n/a
50.275	0.1205	100550	keystroke_l	l	n/a
50.411	0.179	100822	keystroke_t	t	n/a
50.605	0.015	101210	keystroke_i	i	n/a
50.7405	0.1195	101481	keystroke_m	m	n/a
50.815	0.165	101630	keystroke_o	o	n/a
51.012	0.178	102024	keystroke_r	r	n/a
51.1155	0.135	102231	keystroke_e	e	n/a
51.205	0.106	102410	keystroke_Key.space	Key.space	n/a
51.3855	0.135	102771	keystroke_b	b	n/a
51.49	0.0905	102980	keystroke_o	o	n/a
52.1355	0.1045	104271	keystroke_r	r	n/a
52.255	0.105	104510	keystroke_o	o	n/a
52.7655	0.075	105531	keystroke_u	u	n/a
52.8855	0.1195	105771	keystroke_g	g	n/a
52.99	0.1055	105980	keystroke_h	h	n/a
53.111	0.1045	106222	keystroke_Key.space	Key.space	n/a
53.2905	0.105	106581	keystroke_f	f	n/a
53.53	0.1055	107060	keystroke_i	i	n/a
53.71	0.135	107420	keystroke_j	j	n/a
53.86	0.1055	107720	keystroke_i	i	n/a
54.13	0.0755	108260	keystroke_Key.enter	Key.enter	n/a
54.21	5.457	108420	prompt	n/a	bridge rangers extensions museums\n
54.925	0.105	109850	keystroke_b	b	n/a
55.1355	0.09	110271	keystroke_r	r	n/a
55.21	0.0755	110420	keystroke_i	i	n/a
55.33	0.1055	110660	keystroke_d	d	n/a
55.4805	0.1805	110961	keystroke_g	g	n/a
55.5555	0.1195	111111	keystroke_e	e	n/a
55.675	0.1055	111350	keystroke_Key.space	Key.space	n/a
55.8255	0.165	111651	keystroke_r	r	n/a
55.975	0.136	111950	keystroke_a	a	n/a
56.0955	0.12	112191	keystroke_n	n	n/a
56.23	0.1055	112460	keystroke_g	g	n/a
56.3805	0.165	112761	keystroke_e	e	n/a
56.561	0.164	113122	keystroke_r	r	n/a
56.71	0.12	113420	keystroke_s	s	n/a
56.8155	0.12	113631	keystroke_Key.space	Key.space	n/a
56.951	0.1045	113902	keystroke_e	e	n/a
57.16	0.1055	114320	keystroke_x	x	n/a
57.311	0.15	114622	keystroke_t	t	n/a
57.415	0.0905	114830	keystroke_e	e	n/a
57.5055	0.075	115011	keystroke_n	n	n/a
57.611	0.119	115222	keystroke_s	s	n/a
57.7615	0.119	115523	keystroke_i	i	n/a
57.8955	0.1345	115791	keystroke_o	o	n/a
58.105	0.106	116210	keystroke_n	n	n/a
58.2255	0.12	116451	keystroke_s	s	n/a
58.3155	0.1195	116631	keystroke_Key.space	Key.space	n/a
58.45	0.0755	116900	keystroke_m	m	n/a
58.63	0.0755	117260	keystroke_u	u	n/a
58.7655	0.136	117531	keystroke_s	s	n/a
58.8705	0.12	117741	keystroke_e	e	n/a
59.006	0.045	118012	keystroke_u	u	n/a
59.215	0.075	118430	keystroke_m	m	n/a
59.396	0.1195	118792	keystroke_s	s	n/a
59.5905	0.075	119181	keystroke_Key.enter	Key.enter	n/a
59.6705	6.3115	119341	prompt	n/a	biblical exploring deployment performed\n
60.4005	0.105	120801	keystroke_b	b	n/a
60.5205	0.075	121041	keystroke_i	i	n/a
60.9555	0.09	121911	keystroke_b	b	n/a
61.1505	0.135	122301	keystroke_l	l	n/a
61.2705	0.0905	122541	keystroke_i	i	n/a
61.4355	0.105	122871	keystroke_c	c	n/a
61.7505	0.1795	123501	keystroke_a	a	n/a
61.945	0.0605	123890	keystroke_l	l	n/a
61.961	0.1195	123922	keystroke_Key.space	Key.space	n/a
62.1855	0.076	124371	keystroke_e	e	n/a
62.35	0.1355	124700	keystroke_x	x	n/a
62.4255	0.1495	124851	keystroke_p	p	n/a
62.5605	0.075	125121	keystroke_l	l	n/a
62.7405	0.105	125481	keystroke_o	o	n/a
62.8615	0.119	125723	keystroke_r	r	n/a
62.935	0.165	125870	keystroke_i	i	n/a
63.0405	0.0895	126081	keystroke_n	n	n/a
63.115	0.1055	126230	keystroke_g	g	n/a
63.2205	0.105	126441	keystroke_Key.space	Key.space	n/a
63.3405	0.1045	126681	keystroke_d	d	n/a
63.5205	0.105	127041	keystroke_e	e	n/a
63.611	0.2245	127222	keystroke_p	p	n/a
63.761	0.1195	127522	keystroke_l	l	n/a
63.9855	0.15	127971	keystroke_o	o	n/a
64.0905	0.0895	128181	keystroke_y	y	n/a
64.3005	0.105	128601	keystroke_m	m	n/a
64.4055	0.12	128811	keystroke_e	e	n/a
64.511	0.074	129022	keystroke_n	n	n/a
64.6	0.0905	129200	keystroke_t	t	n/a
64.661	0.1045	129322	keystroke_Key.space	Key.space	n/a
64.7355	0.135	129471	keystroke_p	p	n/a
64.825	0.1805	129650	keystroke_e	e	n/a
64.945	0.1055	129890	keystroke_r	r	n/a
65.1555	0.1055	130311	keystroke_f	f	n/a
65.2755	0.045	130551	keystroke_o	o	n/a
65.3355	0.1495	130671	keystroke_r	r	n/a
65.47	0.1055	130940	keystroke_m	m	n/a
65.5605	0.075	131121	keystroke_e	e	n/a
65.7405	0.1045	131481	keystroke_d	d	n/a
65.9055	0.0745	131811	keystroke_Key.enter	Key.enter	n/a
65.9875	5.4995	131975	prompt	n/a	amend sarah controls driver\n
66.79	0.105	133580	keystroke_a	a	n/a
66.8805	0.09	133761	keystroke_m	m	n/a
66.9855	0.105	133971	keystroke_e	e	n/a
67.105	0.106	134210	keystroke_n	n	n/a
67.2105	0.1045	134421	keystroke_d	d	n/a
67.33	0.0755	134660	keystroke_Key.space	Key.space	n/a
67.495	0.166	134990	keystroke_c	c	n/a
67.961	0.1495	135922	keystroke_Key.backspace	Key.backspace	n/a
68.2755	0.135	136551	keystroke_s	s	n/a
68.3955	0.1195	136791	keystroke_a	a	n/a
68.545	0.1505	137090	keystroke_r	r	n/a
68.6805	0.1195	137361	keystroke_a	a	n/a
68.815	0.12	137630	keystroke_h	h	n/a
68.9205	0.12	137841	keystroke_Key.space	Key.space	n/a
69.085	0.1505	138170	keystroke_c	c	n/a
69.1905	0.0895	138381	keystroke_o	o	n/a
69.3855	0.135	138771	keystroke_n	n	n/a
69.566	0.104	139132	keystroke_t	t	n/a
69.8055	0.0905	139611	keystroke_r	r	n/a
69.8505	0.0605	139701	keystroke_o	o	n/a
70.015	0.1205	140030	keystroke_l	l	n/a
70.0905	0.1345	140181	keystroke_s	s	n/a
70.211	0.0895	140422	keystroke_Key.space	Key.space	n/a
70.3005	0.09	140601	keystroke_d	d	n/a
70.63	0.15	141260	keystroke_r	r	n/a
70.7655	0.09	141531	keystroke_i	i	n/a
70.8705	0.0745	141741	keystroke_v	v	n/a
70.961	0.1645	141922	keystroke_e	e	n/a
71.1105	0.1955	142221	keystroke_r	r	n/a
71.411	0.074	142822	keystroke_Key.enter	Key.enter	n/a
71.49	5.382	142980	prompt	n/a	gospel excluding adidas lounge\n
72.1605	0.12	144321	keystroke_g	g	n/a
72.251	0.105	144502	keystroke_o	o	n/a
72.3405	0.135	144681	keystroke_s	s	n/a
72.49	0.1065	144980	keystroke_p	p	n/a
72.6405	0.0895	145281	keystroke_e	e	n/a
72.761	0.1195	145522	keystroke_l	l	n/a
72.8965	0.104	145793	keystroke_Key.space	Key.space	n/a
73.1655	0.075	146331	keystroke_e	e	n/a
73.347	0.1335	146694	keystroke_x	x	n/a
73.721	0.1045	147442	keystroke_c	c	n/a
73.8405	0.075	147681	keystroke_l	l	n/a
74.111	0.0295	148222	keystroke_u	u	n/a
74.1255	0.1355	148251	keystroke_d	d	n/a
74.2455	0.12	148491	keystroke_i	i	n/a
74.3805	0.165	148761	keystroke_n	n	n/a
74.5605	0.0905	149121	keystroke_g	g	n/a
74.6205	0.09	149241	keystroke_Key.space	Key.space	n/a
74.785	0.0905	149570	keystroke_a	a	n/a
74.92	0.12	149840	keystroke_d	d	n/a
75.0555	0.09	150111	keystroke_i	i	n/a
75.1305	0.121	150261	keystroke_d	d	n/a
75.2655	0.1645	150531	keystroke_a	a	n/a
75.415	0.1355	150830	keystroke_s	s	n/a
75.5355	0.12	151071	keystroke_Key.space	Key.space	n/a
75.7005	0.075	151401	keystroke_l	l	n/a
75.9105	0.1045	151821	keystroke_o	o	n/a
76.0905	0.075	152181	keystroke_u	u	n/a
76.2705	0.105	152541	keystroke_n	n	n/a
76.42	0.1205	152840	keystroke_g	g	n/a
76.556	0.1195	153112	keystroke_e	e	n/a
76.7655	0.105	153531	keystroke_Key.enter	Key.enter	n/a
76.8755	5.637	153751	prompt	n/a	allows internal glory greene\n
77.5755	0.1805	155151	keystroke_a	a	n/a
77.6965	0.104	155393	keystroke_l	l	n/a
77.8465	0.089	155693	keystroke_l	l	n/a
78.0255	0.09	156051	keystroke_o	o	n/a
78.13	0.0755	156260	keystroke_w	w	n/a
78.3405	0.105	156681	keystroke_s	s	n/a
78.4605	0.075	156921	keystroke_Key.space	Key.space	n/a
78.6405	0.1355	157281	keystroke_i	i	n/a
78.8355	0.1205	157671	keystroke_n	n	n/a
78.956	0.1195	157912	keystroke_t	t	n/a
79.0905	0.1355	158181	keystroke_e	e	n/a
79.166	0.0745	158332	keystroke_r	r	n/a
79.211	0.1045	158422	keystroke_n	n	n/a
79.3605	0.15	158721	keystroke_a	a	n/a
79.496	0.105	158992	keystroke_l	l	n/a
79.5705	0.12	159141	keystroke_Key.space	Key.space	n/a
79.735	0.0755	159470	keystroke_g	g	n/a
79.885	0.121	159770	keystroke_r	r	n/a
79.9905	0.075	159981	keystroke_l	l	n/a
80.411	0.119	160822	keystroke_Key.backspace	Key.backspace	n/a
80.606	0.1195	161212	keystroke_Key.backspace	Key.backspace	n/a
80.8905	0.015	161781	keystroke_l	l	n/a
81.0105	0.0745	162021	keystroke_o	o	n/a
81.1755	0.15	162351	keystroke_r	r	n/a
81.311	0.1045	162622	keystroke_y	y	n/a
81.4005	0.12	162801	keystroke_Key.space	Key.space	n/a
81.5805	0.075	163161	keystroke_g	g	n/a
81.761	0.12	163522	keystroke_r	r	n/a
81.8505	0.1345	163701	keystroke_e	e	n/a
82.0605	0.106	164121	keystroke_e	e	n/a
82.151	0.1345	164302	keystroke_n	n	n/a
82.271	0.075	164542	keystroke_e	e	n/a
82.391	0.1195	164782	keystroke_Key.enter	Key.enter	n/a
82.5155	5.517	165031	prompt	n/a	throws coupled periods discussions\n
83.276	0.1215	166552	keystroke_t	t	n/a
83.3805	0.076	166761	keystroke_h	h	n/a
83.561	0.0895	167122	keystroke_r	r	n/a
83.636	0.1045	167272	keystroke_o	o	n/a
83.756	0.0745	167512	keystroke_w	w	n/a
83.936	0.09	167872	keystroke_s	s	n/a
84.0115	0.119	168023	keystroke_Key.space	Key.space	n/a
84.1755	0.121	168351	keystroke_c	c	n/a
84.251	0.1645	168502	keystroke_o	o	n/a
84.401	0.12	168802	keystroke_u	u	n/a
84.5355	0.165	169071	keystroke_p	p	n/a
84.656	0.1195	169312	keystroke_l	l	n/a
84.7905	0.15	169581	keystroke_e	e	n/a
85.061	0.105	170122	keystroke_d	d	n/a
85.181	0.0895	170362	keystroke_Key.space	Key.space	n/a
85.451	0.1045	170902	keystroke_p	p	n/a
85.511	0.1355	171022	keystroke_e	e	n/a
85.6305	0.135	171261	keystroke_r	r	n/a
85.751	0.1345	171502	keystroke_i	i	n/a
85.841	0.1495	171682	keystroke_o	o	n/a
85.9755	0.15	171951	keystroke_d	d	n/a
86.1705	0.135	172341	keystroke_s	s	n/a
86.351	0.1045	172702	keystroke_Key.space	Key.space	n/a
86.4705	0.12	172941	keystroke_d	d	n/a
86.606	0.12	173212	keystroke_i	i	n/a
86.7105	0.1205	173421	keystroke_s	s	n/a
86.876	0.1355	173752	keystroke_c	c	n/a
87.026	0.0445	174052	keystroke_u	u	n/a
87.0705	0.075	174141	keystroke_s	s	n/a
87.266	0.075	174532	keystroke_s	s	n/a
87.3555	0.0605	174711	keystroke_i	i	n/a
87.4605	0.165	174921	keystroke_o	o	n/a
87.6705	0.0905	175341	keystroke_n	n	n/a
87.7755	0.1055	175551	keystroke_s	s	n/a
87.911	0.12	175822	keystroke_Key.enter	Key.enter	n/a
88.036	6.986	176072	prompt	n/a	tariff mauritius pass smile\n
88.7505	0.105	177501	keystroke_t	t	n/a
88.8405	0.1355	177681	keystroke_a	a	n/a
88.991	0.12	177982	keystroke_r	r	n/a
89.126	0.105	178252	keystroke_i	i	n/a
89.246	0.045	178492	keystroke_f	f	n/a
89.381	0.15	178762	keystroke_f	f	n/a
89.516	0.06	179032	keystroke_Key.space	Key.space	n/a
89.651	0.1045	179302	keystroke_m	m	n/a
89.936	0.15	179872	keystroke_a	a	n/a
90.101	0.06	180202	keystroke_u	u	n/a
90.2205	0.12	180441	keystroke_r	r	n/a
90.3555	0.0905	180711	keystroke_i	i	n/a
90.521	0.1195	181042	keystroke_t	t	n/a
90.701	0.09	181402	keystroke_u	u	n/a
91.211	0.195	182422	keystroke_Key.backspace	Key.backspace	n/a
91.5255	0.105	183051	keystroke_i	i	n/a
91.916	0.09	183832	keystroke_u	u	n/a
92.021	0.1045	184042	keystroke_s	s	n/a
92.1555	0.1355	184311	keystroke_Key.space	Key.space	n/a
92.396	0.1345	184792	keystroke_p	p	n/a
92.501	0.1345	185002	keystroke_a	a	n/a
92.786	0.0745	185572	keystroke_s	s	n/a
92.936	0.1045	185872	keystroke_s	s	n/a
93.0855	0.0755	186171	keystroke_Key.space	Key.space	n/a
93.266	0.1345	186532	keystroke_s	s	n/a
93.5205	0.12	187041	keystroke_m	m	n/a
93.596	0.15	187192	keystroke_i	i	n/a
93.761	0.1795	187522	keystroke_l	l	n/a
93.8655	0.1355	187731	keystroke_e	e	n/a
94.9005	0.1205	189801	keystroke_Key.enter	Key.enter	n/a
95.025	6.1025	190050	prompt	n/a	who'll albany logitech count\n
95.7405	0.1355	191481	keystroke_w	w	n/a
95.8005	0.135	191601	keystroke_h	h	n/a
95.891	0.105	191782	keystroke_o	o	n/a
96.131	0.105	192262	keystroke_'	'	n/a
96.3405	0.045	192681	keystroke_l	l	n/a
96.491	0.06	192982	keystroke_l	l	n/a
96.536	0.0895	193072	keystroke_Key.space	Key.space	n/a
96.6705	0.1805	193341	keystroke_a	a	n/a
96.836	0.0895	193672	keystroke_l	l	n/a
97.001	0.1645	194002	keystroke_b	b	n/a
97.406	0.1195	194812	keystroke_a	a	n/a
97.841	0.075	195682	keystroke_n	n	n/a
98.021	0.0745	196042	keystroke_y	y	n/a
98.1405	0.1055	196281	keystroke_Key.space	Key.space	n/a
98.321	0.0745	196642	keystroke_l	l	n/a
98.501	0.076	197002	keystroke_o	o	n/a
98.591	0.1345	197182	keystroke_g	g	n/a
98.7255	0.0755	197451	keystroke_i	i	n/a
98.877	0.1335	197754	keystroke_t	t	n/a
98.981	0.12	197962	keystroke_e	e	n/a
99.431	0.12	198862	keystroke_c	c	n/a
99.506	0.1045	199012	keystroke_h	h	n/a
99.566	0.12	199132	keystroke_Key.space	Key.space	n/a
99.791	0.1345	199582	keystroke_c	c	n/a
99.8955	0.1355	199791	keystroke_o	o	n/a
99.9705	0.075	199941	keystroke_u	u	n/a
100.151	0.1045	200302	keystroke_n	n	n/a
100.286	0.12	200572	keystroke_t	t	n/a
101.036	0.0895	202072	keystroke_Key.enter	Key.enter	n/a
101.1305	5.7265	202261	prompt	n/a	bracket counseling warrior focal\n
101.936	0.1045	203872	keystroke_b	b	n/a
102.1765	0.1045	204353	keystroke_r	r	n/a
102.236	0.0895	204472	keystroke_a	a	n/a
102.401	0.09	204802	keystroke_c	c	n/a
102.491	0.1045	204982	keystroke_k	k	n/a
102.5955	0.2405	205191	keystroke_e	e	n/a
102.821	0.135	205642	keystroke_t	t	n/a
102.986	0.135	205972	keystroke_Key.space	Key.space	n/a
103.256	0.15	206512	keystroke_c	c	n/a
103.346	0.1495	206692	keystroke_o	o	n/a
103.451	0.0595	206902	keystroke_u	u	n/a
103.631	0.1195	207262	keystroke_n	n	n/a
103.7655	0.1205	207531	keystroke_s	s	n/a
103.841	0.12	207682	keystroke_e	e	n/a
104.051	0.135	208102	keystroke_l	l	n/a
104.231	0.1495	208462	keystroke_i	i	n/a
104.306	0.135	208612	keystroke_n	n	n/a
104.3955	0.1355	208791	keystroke_g	g	n/a
104.516	0.12	209032	keystroke_Key.space	Key.space	n/a
104.6505	0.18	209301	keystroke_w	w	n/a
104.816	0.12	209632	keystroke_a	a	n/a
104.9805	0.075	209961	keystroke_r	r	n/a
105.146	0.075	210292	keystroke_r	r	n/a
105.236	0.12	210472	keystroke_i	i	n/a
105.3105	0.1505	210621	keystroke_o	o	n/a
105.5515	0.1495	211103	keystroke_r	r	n/a
105.686	0.0905	211372	keystroke_Key.space	Key.space	n/a
105.9255	0.151	211851	keystroke_f	f	n/a
106.2105	0.121	212421	keystroke_o	o	n/a
106.331	0.1345	212662	keystroke_c	c	n/a
106.451	0.135	212902	keystroke_a	a	n/a
106.5105	0.1205	213021	keystroke_l	l	n/a
106.736	0.1195	213472	keystroke_Key.enter	Key.enter	n/a
106.86	7.3325	213720	prompt	n/a	source edmonton professionals mail\n
107.561	0.045	215122	keystroke_a	a	n/a
107.9655	0.195	215931	keystroke_Key.backspace	Key.backspace	n/a
108.2805	0.1505	216561	keystroke_s	s	n/a
108.401	0.1355	216802	keystroke_o	o	n/a
108.521	0.09	217042	keystroke_u	u	n/a
108.656	0.1205	217312	keystroke_r	r	n/a
109.016	0.105	218032	keystroke_c	c	n/a
109.227	0.074	218454	keystroke_e	e	n/a
109.316	0.105	218632	keystroke_Key.space	Key.space	n/a
109.4355	0.075	218871	keystroke_e	e	n/a
109.631	0.105	219262	keystroke_d	d	n/a
109.7655	0.1355	219531	keystroke_m	m	n/a
109.916	0.09	219832	keystroke_o	o	n/a
109.991	0.1195	219982	keystroke_n	n	n/a
110.1265	0.1195	220253	keystroke_t	t	n/a
110.231	0.06	220462	keystroke_o	o	n/a
110.606	0.105	221212	keystroke_n	n	n/a
110.711	0.105	221422	keystroke_Key.space	Key.space	n/a
110.846	0.1195	221692	keystroke_p	p	n/a
110.9805	0.121	221961	keystroke_r	r	n/a
111.086	0.0905	222172	keystroke_o	o	n/a
111.191	0.1355	222382	keystroke_f	f	n/a
111.2805	0.1355	222561	keystroke_e	e	n/a
111.491	0.1195	222982	keystroke_s	s	n/a
111.686	0.105	223372	keystroke_s	s	n/a
111.7905	0.105	223581	keystroke_i	i	n/a
111.9105	0.1505	223821	keystroke_o	o	n/a
112.046	0.165	224092	keystroke_n	n	n/a
112.991	0.0895	225982	keystroke_a	a	n/a
113.036	0.165	226072	keystroke_l	l	n/a
113.1855	0.1205	226371	keystroke_s	s	n/a
113.2905	0.105	226581	keystroke_Key.space	Key.space	n/a
113.456	0.1205	226912	keystroke_m	m	n/a
113.6365	0.09	227273	keystroke_a	a	n/a
113.741	0.12	227482	keystroke_i	i	n/a
113.8155	0.1355	227631	keystroke_l	l	n/a
114.116	0.075	228232	keystroke_Key.enter	Key.enter	n/a
114.195	6.192	228390	prompt	n/a	recognition tests glad quickly\n
114.986	0.12	229972	keystroke_r	r	n/a
115.061	0.0895	230122	keystroke_e	e	n/a
115.271	0.12	230542	keystroke_c	c	n/a
115.346	0.1195	230692	keystroke_o	o	n/a
115.5105	0.091	231021	keystroke_g	g	n/a
115.586	0.12	231172	keystroke_n	n	n/a
115.721	0.075	231442	keystroke_i	i	n/a
115.8715	0.134	231743	keystroke_t	t	n/a
116.277	0.1185	232554	keystroke_i	i	n/a
116.441	0.12	232882	keystroke_o	o	n/a
116.5455	0.1505	233091	keystroke_n	n	n/a
116.711	0.12	233422	keystroke_Key.space	Key.space	n/a
116.786	0.1645	233572	keystroke_t	t	n/a
116.906	0.165	233812	keystroke_e	e	n/a
116.9965	0.1945	233993	keystroke_s	s	n/a
117.161	0.18	234322	keystroke_t	t	n/a
117.2805	0.121	234561	keystroke_s	s	n/a
117.3865	0.1345	234773	keystroke_Key.space	Key.space	n/a
117.536	0.1045	235072	keystroke_g	g	n/a
117.7165	0.149	235433	keystroke_r	r	n/a
118.3905	0.1365	236781	keystroke_Key.backspace	Key.backspace	n/a
118.662	0.149	237324	keystroke_l	l	n/a
118.781	0.09	237562	keystroke_a	a	n/a
118.916	0.12	237832	keystroke_d	d	n/a
119.021	0.1055	238042	keystroke_Key.space	Key.space	n/a
119.231	0.12	238462	keystroke_q	q	n/a
119.366	0.12	238732	keystroke_u	u	n/a
119.396	0.135	238792	keystroke_i	i	n/a
119.5465	0.149	239093	keystroke_c	c	n/a
119.681	0.06	239362	keystroke_k	k	n/a
119.831	0.195	239662	keystroke_l	l	n/a
120.0415	0.1195	240083	keystroke_y	y	n/a
120.296	0.09	240592	keystroke_Key.enter	Key.enter	n/a
120.39	7.423	240780	prompt	n/a	junction wondering philippines widespread\n
121.106	0.075	242212	keystroke_j	j	n/a
121.286	0.06	242572	keystroke_u	u	n/a
121.571	0.0455	243142	keystroke_n	n	n/a
121.661	0.1505	243322	keystroke_c	c	n/a
121.901	0.1205	243802	keystroke_t	t	n/a
121.9765	0.0895	243953	keystroke_i	i	n/a
122.0965	0.1345	244193	keystroke_o	o	n/a
122.2465	0.1055	244493	keystroke_n	n	n/a
122.366	0.1055	244732	keystroke_Key.space	Key.space	n/a
122.5765	0.1195	245153	keystroke_w	w	n/a
122.621	0.196	245242	keystroke_o	o	n/a
122.8015	0.1195	245603	keystroke_n	n	n/a
122.906	0.0905	245812	keystroke_d	d	n/a
123.0415	0.15	246083	keystroke_e	e	n/a
123.1465	0.12	246293	keystroke_r	r	n/a
123.206	0.1655	246412	keystroke_i	i	n/a
123.2815	0.12	246563	keystroke_n	n	n/a
123.4165	0.104	246833	keystroke_g	g	n/a
123.506	0.0755	247012	keystroke_Key.space	Key.space	n/a
123.6265	0.135	247253	keystroke_p	p	n/a
123.9265	0.12	247853	keystroke_h	h	n/a
124.0165	0.1345	248033	keystroke_i	i	n/a
124.3165	0.1045	248633	keystroke_l	l	n/a
124.586	0.105	249172	keystroke_i	i	n/a
124.736	0.1055	249472	keystroke_p	p	n/a
124.961	0.075	249922	keystroke_p	p	n/a
125.0965	0.12	250193	keystroke_i	i	n/a
125.1865	0.1495	250373	keystroke_n	n	n/a
125.351	0.0905	250702	keystroke_e	e	n/a
125.4715	0.1495	250943	keystroke_s	s	n/a
125.5765	0.12	251153	keystroke_Key.space	Key.space	n/a
125.7415	0.135	251483	keystroke_w	w	n/a
125.8615	0.0595	251723	keystroke_i	i	n/a
125.997	0.059	251994	keystroke_d	d	n/a
126.1315	0.0745	252263	keystroke_e	e	n/a
126.7315	0.0745	253463	keystroke_s	s	n/a
126.8515	0.1045	253703	keystroke_p	p	n/a
126.9715	0.1495	253943	keystroke_r	r	n/a
127.0465	0.1805	254093	keystroke_e	e	n/a
127.1665	0.1345	254333	keystroke_a	a	n/a
127.331	0.1805	254662	keystroke_d	d	n/a
127.736	0.0755	255472	keystroke_Key.enter	Key.enter	n/a
127.8155	5.0975	255631	prompt	n/a	encryption sister applicant half\n
128.456	0.105	256912	keystroke_e	e	n/a
128.591	0.0755	257182	keystroke_n	n	n/a
128.6815	0.105	257363	keystroke_c	c	n/a
128.8315	0.12	257663	keystroke_r	r	n/a
128.921	0.0755	257842	keystroke_y	y	n/a
129.0415	0.135	258083	keystroke_p	p	n/a
129.3115	0.09	258623	keystroke_t	t	n/a
129.3865	0.1045	258773	keystroke_i	i	n/a
129.506	0.1505	259012	keystroke_o	o	n/a
129.672	0.1045	259344	keystroke_n	n	n/a
129.836	0.1055	259672	keystroke_Key.space	Key.space	n/a
130.0465	0.105	260093	keystroke_s	s	n/a
130.106	0.1655	260212	keystroke_i	i	n/a
130.286	0.0605	260572	keystroke_s	s	n/a
130.3315	0.1645	260663	keystroke_t	t	n/a
130.4515	0.15	260903	keystroke_e	e	n/a
130.8565	0.1055	261713	keystroke_r	r	n/a
130.9625	0.0735	261925	keystroke_Key.space	Key.space	n/a
131.0815	0.135	262163	keystroke_a	a	n/a
131.1715	0.075	262343	keystroke_p	p	n/a
131.3215	0.12	262643	keystroke_p	p	n/a
131.487	0.21	262974	keystroke_l	l	n/a
131.6815	0.0895	263363	keystroke_i	i	n/a
131.7865	0.15	263573	keystroke_c	c	n/a
131.8915	0.15	263783	keystroke_a	a	n/a
131.9965	0.12	263993	keystroke_n	n	n/a
132.1315	0.12	264263	keystroke_t	t	n/a
132.2365	0.105	264473	keystroke_Key.space	Key.space	n/a
132.3275	0.104	264655	keystroke_h	h	n/a
132.3565	0.12	264713	keystroke_a	a	n/a
132.5215	0.1345	265043	keystroke_l	l	n/a
132.6415	0.1495	265283	keystroke_f	f	n/a
132.806	0.1055	265612	keystroke_Key.enter	Key.enter	n/a
132.918	5.455	265836	prompt	n/a	positive strategic title financial\n
133.6165	0.165	267233	keystroke_p	p	n/a
133.7665	0.105	267533	keystroke_o	o	n/a
133.8865	0.1205	267773	keystroke_s	s	n/a
133.9945	0.087	267989	keystroke_i	i	n/a
134.096	0.1205	268192	keystroke_t	t	n/a
134.2015	0.0895	268403	keystroke_i	i	n/a
134.336	0.0905	268672	keystroke_v	v	n/a
134.4115	0.105	268823	keystroke_e	e	n/a
134.502	0.1195	269004	keystroke_Key.space	Key.space	n/a
134.666	0.1055	269332	keystroke_s	s	n/a
134.772	0.1345	269544	keystroke_t	t	n/a
135.011	0.1505	270022	keystroke_r	r	n/a
135.0865	0.15	270173	keystroke_a	a	n/a
135.401	0.151	270802	keystroke_t	t	n/a
135.506	0.121	271012	keystroke_e	e	n/a
135.672	0.165	271344	keystroke_g	g	n/a
135.8515	0.0755	271703	keystroke_i	i	n/a
136.2115	0.09	272423	keystroke_c	c	n/a
136.257	0.089	272514	keystroke_Key.space	Key.space	n/a
136.4515	0.0905	272903	keystroke_t	t	n/a
136.527	0.09	273054	keystroke_i	i	n/a
136.6615	0.0905	273323	keystroke_t	t	n/a
136.7365	0.1055	273473	keystroke_l	l	n/a
136.827	0.1345	273654	keystroke_e	e	n/a
136.9465	0.0905	273893	keystroke_Key.space	Key.space	n/a
137.0615	0.125	274123	keystroke_f	f	n/a
137.2015	0.105	274403	keystroke_i	i	n/a
137.4565	0.075	274913	keystroke_n	n	n/a
137.5615	0.1355	275123	keystroke_a	a	n/a
137.6815	0.06	275363	keystroke_n	n	n/a
137.787	0.1195	275574	keystroke_c	c	n/a
137.877	0.075	275754	keystroke_i	i	n/a
137.967	0.135	275934	keystroke_a	a	n/a
138.057	0.1045	276114	keystroke_l	l	n/a
138.267	0.1045	276534	keystroke_Key.enter	Key.enter	n/a
138.376	6.4625	276752	prompt	n/a	eligible marco cartridges cube\n
139.1065	0.135	278213	keystroke_e	e	n/a
139.227	0.1195	278454	keystroke_l	l	n/a
139.3315	0.12	278663	keystroke_i	i	n/a
139.4665	0.1505	278933	keystroke_g	g	n/a
139.6015	0.12	279203	keystroke_i	i	n/a
139.797	0.1345	279594	keystroke_b	b	n/a
139.917	0.1045	279834	keystroke_l	l	n/a
140.007	0.1495	280014	keystroke_e	e	n/a
140.172	0.0745	280344	keystroke_Key.space	Key.space	n/a
140.292	0.12	280584	keystroke_m	m	n/a
140.397	0.1195	280794	keystroke_a	a	n/a
140.7265	0.12	281453	keystroke_r	r	n/a
140.922	0.12	281844	keystroke_c	c	n/a
140.997	0.105	281994	keystroke_o	o	n/a
141.0715	0.15	282143	keystroke_Key.space	Key.space	n/a
141.297	0.12	282594	keystroke_c	c	n/a
141.493	0.104	282986	keystroke_a	a	n/a
141.7315	0.09	283463	keystroke_r	r	n/a
142.5115	0.0755	285023	keystroke_t	t	n/a
142.887	0.09	285774	keystroke_r	r	n/a
142.992	0.135	285984	keystroke_i	i	n/a
143.142	0.1645	286284	keystroke_d	d	n/a
143.3525	0.179	286705	keystroke_g	g	n/a
143.487	0.105	286974	keystroke_e	e	n/a
143.5765	0.1505	287153	keystroke_s	s	n/a
143.727	0.1045	287454	keystroke_Key.space	Key.space	n/a
143.8465	0.15	287693	keystroke_c	c	n/a
143.982	0.06	287964	keystroke_u	u	n/a
144.297	0.1055	288594	keystroke_b	b	n/a
144.4465	0.1355	288893	keystroke_e	e	n/a
144.747	0.09	289494	keystroke_Key.enter	Key.enter	n/a
144.8415	5.877	289683	prompt	n/a	returned garbage julie screenshots\n
145.5715	0.105	291143	keystroke_r	r	n/a
145.6315	0.1055	291263	keystroke_e	e	n/a
145.782	0.135	291564	keystroke_t	t	n/a
145.9015	0.0605	291803	keystroke_u	u	n/a
146.007	0.15	292014	keystroke_r	r	n/a
146.142	0.0895	292284	keystroke_n	n	n/a
146.2165	0.0905	292433	keystroke_e	e	n/a
146.4415	0.12	292883	keystroke_d	d	n/a
146.5465	0.1205	293093	keystroke_Key.space	Key.space	n/a
146.772	0.165	293544	keystroke_g	g	n/a
147.1615	0.1205	294323	keystroke_a	a	n/a
147.327	0.1045	294654	keystroke_r	r	n/a
147.537	0.1495	295074	keystroke_b	b	n/a
147.672	0.1205	295344	keystroke_a	a	n/a
147.957	0.165	295914	keystroke_g	g	n/a
148.0315	0.1205	296063	keystroke_e	e	n/a
148.137	0.09	296274	keystroke_Key.space	Key.space	n/a
148.272	0.0595	296544	keystroke_j	j	n/a
148.467	0.076	296934	keystroke_u	u	n/a
148.587	0.1495	297174	keystroke_l	l	n/a
148.677	0.15	297354	keystroke_i	i	n/a
148.812	0.15	297624	keystroke_e	e	n/a
148.917	0.09	297834	keystroke_Key.space	Key.space	n/a
149.052	0.1195	298104	keystroke_s	s	n/a
149.3065	0.1355	298613	keystroke_c	c	n/a
149.4865	0.1205	298973	keystroke_r	r	n/a
149.5925	0.089	299185	keystroke_e	e	n/a
149.7425	0.149	299485	keystroke_e	e	n/a
149.8465	0.0905	299693	keystroke_n	n	n/a
149.952	0.1345	299904	keystroke_s	s	n/a
150.147	0.1195	300294	keystroke_h	h	n/a
150.222	0.1795	300444	keystroke_o	o	n/a
150.4015	0.1205	300803	keystroke_t	t	n/a
150.477	0.135	300954	keystroke_s	s	n/a
150.627	0.09	301254	keystroke_Key.enter	Key.enter	n/a
150.722	4.016	301444	prompt	n/a	enough plug interaction rows\n
151.407	0.106	302814	keystroke_e	e	n/a
151.4965	0.075	302993	keystroke_n	n	n/a
151.6475	0.1195	303295	keystroke_o	o	n/a
151.722	0.09	303444	keystroke_u	u	n/a
151.8565	0.1205	303713	keystroke_g	g	n/a
151.932	0.09	303864	keystroke_h	h	n/a
152.007	0.1365	304014	keystroke_Key.space	Key.space	n/a
152.157	0.123	304314	keystroke_p	p	n/a
152.352	0.186	304704	keystroke_l	l	n/a
152.538	0.04	305076	keystroke_u	u	n/a
152.5775	0.1195	305155	keystroke_g	g	n/a
152.652	0.1045	305304	keystroke_Key.space	Key.space	n/a
152.8015	0.165	305603	keystroke_i	i	n/a
152.922	0.121	305844	keystroke_n	n	n/a
152.982	0.1045	305964	keystroke_t	t	n/a
153.1015	0.1205	306203	keystroke_e	e	n/a
153.1925	0.1045	306385	keystroke_r	r	n/a
153.282	0.1195	306564	keystroke_a	a	n/a
153.4465	0.1655	306893	keystroke_c	c	n/a
153.6865	0.1205	307373	keystroke_t	t	n/a
153.762	0.15	307524	keystroke_i	i	n/a
153.822	0.1495	307644	keystroke_o	o	n/a
153.897	0.0895	307794	keystroke_n	n	n/a
153.9565	0.135	307913	keystroke_Key.space	Key.space	n/a
154.137	0.1195	308274	keystroke_r	r	n/a
154.2415	0.1355	308483	keystroke_o	o	n/a
154.362	0.0595	308724	keystroke_w	w	n/a
154.527	0.105	309054	keystroke_s	s	n/a
154.647	0.0895	309294	keystroke_Key.enter	Key.enter	n/a
154.741	5.8325	309482	prompt	n/a	pontiac arising regional beam\n
155.5615	0.032	311123	keystroke_p	p	n/a
155.622	0.075	311244	keystroke_o	o	n/a
155.772	0.105	311544	keystroke_n	n	n/a
155.8775	0.119	311755	keystroke_t	t	n/a
156.0115	0.09	312023	keystroke_i	i	n/a
156.0865	0.1205	312173	keystroke_a	a	n/a
156.282	0.1495	312564	keystroke_c	c	n/a
156.4165	0.1205	312833	keystroke_Key.space	Key.space	n/a
156.582	0.135	313164	keystroke_a	a	n/a
156.762	0.1055	313524	keystroke_r	r	n/a
156.867	0.105	313734	keystroke_i	i	n/a
157.047	0.15	314094	keystroke_s	s	n/a
157.182	0.0605	314364	keystroke_i	i	n/a
157.3165	0.1355	314633	keystroke_n	n	n/a
157.467	0.1345	314934	keystroke_g	g	n/a
157.6165	0.105	315233	keystroke_Key.space	Key.space	n/a
157.917	0.121	315834	keystroke_r	r	n/a
158.023	0.0905	316046	keystroke_e	e	n/a
158.1865	0.1505	316373	keystroke_g	g	n/a
158.262	0.1355	316524	keystroke_i	i	n/a
158.382	0.15	316764	keystroke_o	o	n/a
158.4865	0.135	316973	keystroke_n	n	n/a
158.6365	0.18	317273	keystroke_a	a	n/a
158.7575	0.1195	317515	keystroke_l	l	n/a
158.847	0.12	317694	keystroke_Key.space	Key.space	n/a
159.1165	0.1505	318233	keystroke_e	e	n/a
159.777	0.1345	319554	keystroke_Key.backspace	Key.backspace	n/a
159.9425	0.0895	319885	keystroke_b	b	n/a
160.093	0.134	320186	keystroke_e	e	n/a
160.182	0.1195	320364	keystroke_a	a	n/a
160.287	0.1055	320574	keystroke_m	m	n/a
160.497	0.0745	320994	keystroke_Key.enter	Key.enter	n/a
160.577	6.2075	321154	prompt	n/a	bailey sustainability handle valley\n
161.4865	0.1205	322973	keystroke_b	b	n/a
161.547	0.165	323094	keystroke_a	a	n/a
161.682	0.0745	323364	keystroke_i	i	n/a
161.8325	0.1195	323665	keystroke_l	l	n/a
161.937	0.15	323874	keystroke_e	e	n/a
162.102	0.135	324204	keystroke_y	y	n/a
162.252	0.0905	324504	keystroke_Key.space	Key.space	n/a
162.3865	0.166	324773	keystroke_s	s	n/a
162.537	0.09	325074	keystroke_u	u	n/a
162.702	0.165	325404	keystroke_s	s	n/a
162.912	0.1345	325824	keystroke_t	t	n/a
163.002	0.1505	326004	keystroke_a	a	n/a
163.167	0.1045	326334	keystroke_i	i	n/a
163.3925	0.0895	326785	keystroke_n	n	n/a
163.497	0.1045	326994	keystroke_a	a	n/a
163.662	0.12	327324	keystroke_b	b	n/a
163.857	0.075	327714	keystroke_i	i	n/a
164.037	0.15	328074	keystroke_l	l	n/a
164.1425	0.0895	328285	keystroke_i	i	n/a
164.277	0.15	328554	keystroke_t	t	n/a
164.3525	0.09	328705	keystroke_y	y	n/a
164.457	0.1055	328914	keystroke_Key.space	Key.space	n/a
164.577	0.0905	329154	keystroke_h	h	n/a
164.6675	0.1345	329335	keystroke_a	a	n/a
164.787	0.09	329574	keystroke_n	n	n/a
164.922	0.09	329844	keystroke_d	d	n/a
164.997	0.1355	329994	keystroke_l	l	n/a
165.1325	0.089	330265	keystroke_e	e	n/a
165.207	0.0895	330414	keystroke_Key.space	Key.space	n/a
165.3425	0.1195	330685	keystroke_v	v	n/a
165.4175	0.1495	330835	keystroke_a	a	n/a
165.627	0.0455	331254	keystroke_l	l	n/a
165.7475	0.0895	331495	keystroke_l	l	n/a
165.8525	0.1495	331705	keystroke_e	e	n/a
165.957	0.0905	331914	keystroke_y	y	n/a
166.6925	0.09	333385	keystroke_Key.enter	Key.enter	n/a
166.7875	5.141	333575	prompt	n/a	campus inquiry consent deviation\n
167.6225	0.1045	335245	keystroke_c	c	n/a
167.697	0.1355	335394	keystroke_a	a	n/a
167.772	0.1205	335544	keystroke_m	m	n/a
167.967	0.195	335934	keystroke_p	p	n/a
168.1475	0.06	336295	keystroke_u	u	n/a
168.2075	0.135	336415	keystroke_s	s	n/a
168.312	0.0905	336624	keystroke_Key.space	Key.space	n/a
168.4175	0.12	336835	keystroke_i	i	n/a
168.4925	0.1195	336985	keystroke_n	n	n/a
168.6425	0.1345	337285	keystroke_q	q	n/a
168.7775	0.1345	337555	keystroke_u	u	n/a
168.8225	0.135	337645	keystroke_i	i	n/a
169.227	0.135	338454	keystroke_r	r	n/a
169.3475	0.06	338695	keystroke_y	y	n/a
169.4075	0.1045	338815	keystroke_Key.space	Key.space	n/a
169.693	0.119	339386	keystroke_c	c	n/a
169.7675	0.135	339535	keystroke_o	o	n/a
169.827	0.1205	339654	keystroke_n	n	n/a
169.9175	0.135	339835	keystroke_s	s	n/a
170.218	0.134	340436	keystroke_e	e	n/a
170.3675	0.105	340735	keystroke_n	n	n/a
170.4725	0.12	340945	keystroke_t	t	n/a
170.5775	0.09	341155	keystroke_Key.space	Key.space	n/a
170.712	0.075	341424	keystroke_d	d	n/a
170.8325	0.09	341665	keystroke_e	e	n/a
170.997	0.1205	341994	keystroke_v	v	n/a
171.1025	0.0905	342205	keystroke_i	i	n/a
171.177	0.105	342354	keystroke_a	a	n/a
171.297	0.1655	342594	keystroke_t	t	n/a
171.4475	0.075	342895	keystroke_i	i	n/a
171.5075	0.135	343015	keystroke_o	o	n/a
171.627	0.09	343254	keystroke_n	n	n/a
171.8525	0.0745	343705	keystroke_Key.enter	Key.enter	n/a
171.9315	4.7075	343863	prompt	n/a	printable clouds india girl\n
172.572	0.1355	345144	keystroke_p	p	n/a
172.6925	0.1505	345385	keystroke_r	r	n/a
172.812	0.1205	345624	keystroke_i	i	n/a
172.8725	0.122	345745	keystroke_n	n	n/a
172.9775	0.1195	345955	keystroke_t	t	n/a
173.082	0.12	346164	keystroke_a	a	n/a
173.232	0.106	346464	keystroke_b	b	n/a
173.3225	0.1495	346645	keystroke_l	l	n/a
173.427	0.1055	346854	keystroke_e	e	n/a
173.5475	0.1045	347095	keystroke_Key.space	Key.space	n/a
173.667	0.1055	347334	keystroke_c	c	n/a
173.7425	0.075	347485	keystroke_l	l	n/a
173.9375	0.15	347875	keystroke_o	o	n/a
174.027	0.1055	348054	keystroke_u	u	n/a
174.2375	0.165	348475	keystroke_d	d	n/a
174.4175	0.1945	348835	keystroke_s	s	n/a
175.0775	0.09	350155	keystroke_Key.space	Key.space	n/a
175.212	0.0905	350424	keystroke_i	i	n/a
175.2575	0.12	350515	keystroke_n	n	n/a
175.4075	0.1355	350815	keystroke_d	d	n/a
175.527	0.0905	351054	keystroke_i	i	n/a
175.6325	0.15	351265	keystroke_a	a	n/a
175.767	0.091	351534	keystroke_Key.space	Key.space	n/a
175.9325	0.12	351865	keystroke_g	g	n/a
176.037	0.06	352074	keystroke_i	i	n/a
176.127	0.1205	352254	keystroke_r	r	n/a
176.202	0.1205	352404	keystroke_l	l	n/a
176.5625	0.075	353125	keystroke_Key.enter	Key.enter	n/a
176.642	5.2475	353284	prompt	n/a	dawn analog monster connectors\n
177.462	0.135	354924	keystroke_d	d	n/a
177.5825	0.1195	355165	keystroke_a	a	n/a
177.793	0.134	355586	keystroke_w	w	n/a
177.912	0.0905	355824	keystroke_n	n	n/a
177.9875	0.1355	355975	keystroke_Key.space	Key.space	n/a
178.1225	0.105	356245	keystroke_a	a	n/a
178.197	0.1355	356394	keystroke_n	n	n/a
178.3475	0.1795	356695	keystroke_a	a	n/a
178.5425	0.045	357085	keystroke_l	l	n/a
178.6925	0.135	357385	keystroke_o	o	n/a
178.782	0.15	357564	keystroke_g	g	n/a
178.8575	0.0895	357715	keystroke_Key.space	Key.space	n/a
179.097	0.1205	358194	keystroke_m	m	n/a
179.2025	0.1195	358405	keystroke_o	o	n/a
179.2925	0.1205	358585	keystroke_n	n	n/a
179.4275	0.135	358855	keystroke_s	s	n/a
179.577	0.0905	359154	keystroke_t	t	n/a
179.6825	0.18	359365	keystroke_e	e	n/a
180.0425	0.1345	360085	keystroke_r	r	n/a
180.1625	0.1495	360325	keystroke_Key.space	Key.space	n/a
180.5075	0.1195	361015	keystroke_c	c	n/a
180.582	0.0905	361164	keystroke_o	o	n/a
180.778	0.0445	361556	keystroke_n	n	n/a
180.927	0.0905	361854	keystroke_n	n	n/a
181.0025	0.09	362005	keystroke_e	e	n/a
181.227	0.12	362454	keystroke_c	c	n/a
181.3925	0.075	362785	keystroke_t	t	n/a
181.482	0.0905	362964	keystroke_o	o	n/a
181.557	0.136	363114	keystroke_r	r	n/a
181.6475	0.1645	363295	keystroke_s	s	n/a
181.797	0.0905	363594	keystroke_Key.enter	Key.enter	n/a
181.8925	6.1025	363785	prompt	n/a	roses ebook topics booking\n
182.5775	0.1195	365155	keystroke_r	r	n/a
182.712	0.105	365424	keystroke_o	o	n/a
182.8475	0.1195	365695	keystroke_s	s	n/a
182.9525	0.12	365905	keystroke_e	e	n/a
183.0875	0.135	366175	keystroke_s	s	n/a
183.2375	0.0745	366475	keystroke_Key.space	Key.space	n/a
183.3575	0.135	366715	keystroke_e	e	n/a
183.612	0.1505	367224	keystroke_b	b	n/a
183.8075	0.045	367615	keystroke_o	o	n/a
183.9425	0.15	367885	keystroke_o	o	n/a
184.0775	0.135	368155	keystroke_k	k	n/a
184.197	0.0605	368394	keystroke_Key.space	Key.space	n/a
184.3325	0.105	368665	keystroke_e	e	n/a
184.4375	0.0905	368875	keystroke_o	o	n/a
184.5125	0.1645	369025	keystroke_p	p	n/a
184.6925	0.18	369385	keystroke_i	i	n/a
185.203	0.1045	370406	keystroke_Key.backspace	Key.backspace	n/a
185.382	0.0905	370764	keystroke_Key.backspace	Key.backspace	n/a
185.578	0.045	371156	keystroke_Key.backspace	Key.backspace	n/a
185.7125	0.0605	371425	keystroke_Key.backspace	Key.backspace	n/a
186.0275	0.12	372055	keystroke_t	t	n/a
186.133	0.0745	372266	keystroke_o	o	n/a
186.2225	0.12	372445	keystroke_p	p	n/a
186.4175	0.0755	372835	keystroke_i	i	n/a
186.508	0.1195	373016	keystroke_c	c	n/a
186.5825	0.135	373165	keystroke_s	s	n/a
186.718	0.0895	373436	keystroke_Key.space	Key.space	n/a
187.0625	0.105	374125	keystroke_b	b	n/a
187.138	0.044	374276	keystroke_o	o	n/a
187.257	0.151	374514	keystroke_o	o	n/a
187.3925	0.0895	374785	keystroke_k	k	n/a
187.5575	0.1505	375115	keystroke_i	i	n/a
187.618	0.1195	375236	keystroke_n	n	n/a
187.7225	0.1205	375445	keystroke_g	g	n/a
187.9175	0.0755	375835	keystroke_Key.enter	Key.enter	n/a
187.998	5.9805	375996	prompt	n/a	rider buyer societies organ\n
188.6825	0.105	377365	keystroke_r	r	n/a
188.7725	0.1055	377545	keystroke_i	i	n/a
188.8775	0.105	377755	keystroke_d	d	n/a
189.0875	0.12	378175	keystroke_e	e	n/a
189.1625	0.1345	378325	keystroke_r	r	n/a
189.2825	0.09	378565	keystroke_Key.space	Key.space	n/a
189.448	0.1195	378896	keystroke_b	b	n/a
189.5525	0.0905	379105	keystroke_u	u	n/a
189.7775	0.09	379555	keystroke_y	y	n/a
189.8525	0.15	379705	keystroke_e	e	n/a
189.943	0.1495	379886	keystroke_r	r	n/a
190.0475	0.09	380095	keystroke_Key.space	Key.space	n/a
190.243	0.15	380486	keystroke_s	s	n/a
190.348	0.0745	380696	keystroke_o	o	n/a
190.573	0.1045	381146	keystroke_c	c	n/a
190.6625	0.09	381325	keystroke_i	i	n/a
190.8275	0.1205	381655	keystroke_e	e	n/a
191.0375	0.1055	382075	keystroke_i	i	n/a
191.0525	0.045	382105	keystroke_t	t	n/a
192.073	0.0745	384146	keystroke_Key.backspace	Key.backspace	n/a
192.222	0.105	384444	keystroke_Key.backspace	Key.backspace	n/a
192.3725	0.1205	384745	keystroke_t	t	n/a
192.478	0.0745	384956	keystroke_i	i	n/a
192.5525	0.135	385105	keystroke_e	e	n/a
192.7025	0.12	385405	keystroke_s	s	n/a
192.8375	0.0755	385675	keystroke_Key.space	Key.space	n/a
193.198	0.135	386396	keystroke_o	o	n/a
193.3175	0.0905	386635	keystroke_r	r	n/a
193.4825	0.12	386965	keystroke_g	g	n/a
193.558	0.1355	387116	keystroke_a	a	n/a
193.663	0.105	387326	keystroke_n	n	n/a
193.8725	0.105	387745	keystroke_Key.enter	Key.enter	n/a
193.9815	3.898	387963	prompt	n/a	icons add amazon ports\n
194.8475	0.09	389695	keystroke_i	i	n/a
194.9525	0.12	389905	keystroke_c	c	n/a
195.0585	0.1345	390117	keystroke_o	o	n/a
195.178	0.135	390356	keystroke_n	n	n/a
195.298	0.135	390596	keystroke_s	s	n/a
195.4175	0.12	390835	keystroke_Key.space	Key.space	n/a
195.6135	0.1345	391227	keystroke_a	a	n/a
195.9435	0.1045	391887	keystroke_d	d	n/a
196.1225	0.075	392245	keystroke_d	d	n/a
196.213	0.12	392426	keystroke_Key.space	Key.space	n/a
196.348	0.105	392696	keystroke_a	a	n/a
196.4375	0.0905	392875	keystroke_m	m	n/a
196.5425	0.0755	393085	keystroke_a	a	n/a
196.7525	0.0905	393505	keystroke_z	z	n/a
196.828	0.1045	393656	keystroke_o	o	n/a
196.918	0.0895	393836	keystroke_n	n	n/a
196.994	0.149	393988	keystroke_Key.space	Key.space	n/a
197.1585	0.119	394317	keystroke_p	p	n/a
197.2335	0.1345	394467	keystroke_o	o	n/a
197.3525	0.09	394705	keystroke_r	r	n/a
197.548	0.135	395096	keystroke_t	t	n/a
197.6375	0.1355	395275	keystroke_s	s	n/a
197.788	0.09	395576	keystroke_Key.enter	Key.enter	n/a
197.883	4.5265	395766	prompt	n/a	without engineer submit machines\n
198.598	0.1045	397196	keystroke_w	w	n/a
198.883	0.105	397766	keystroke_i	i	n/a
199.0245	0.1285	398049	keystroke_t	t	n/a
199.109	0.074	398218	keystroke_h	h	n/a
199.243	0.1645	398486	keystroke_o	o	n/a
199.3925	0.0605	398785	keystroke_u	u	n/a
199.468	0.0895	398936	keystroke_t	t	n/a
199.543	0.06	399086	keystroke_Key.space	Key.space	n/a
199.648	0.135	399296	keystroke_e	e	n/a
199.7525	0.09	399505	keystroke_n	n	n/a
199.859	0.1035	399718	keystroke_g	g	n/a
199.933	0.165	399866	keystroke_i	i	n/a
199.9935	0.1345	399987	keystroke_n	n	n/a
200.113	0.0595	400226	keystroke_e	e	n/a
200.248	0.1205	400496	keystroke_e	e	n/a
200.338	0.1205	400676	keystroke_r	r	n/a
200.413	0.105	400826	keystroke_Key.space	Key.space	n/a
200.5475	0.1505	401095	keystroke_s	s	n/a
200.6825	0.06	401365	keystroke_u	u	n/a
200.788	0.1195	401576	keystroke_b	b	n/a
200.9225	0.1055	401845	keystroke_m	m	n/a
200.998	0.15	401996	keystroke_i	i	n/a
201.1325	0.09	402265	keystroke_t	t	n/a
201.2075	0.075	402415	keystroke_Key.space	Key.space	n/a
201.343	0.105	402686	keystroke_m	m	n/a
201.463	0.0745	402926	keystroke_a	a	n/a
201.5835	0.1345	403167	keystroke_c	c	n/a
201.673	0.09	403346	keystroke_h	h	n/a
201.748	0.165	403496	keystroke_i	i	n/a
201.853	0.106	403706	keystroke_n	n	n/a
201.898	0.1345	403796	keystroke_e	e	n/a
202.138	0.1205	404276	keystroke_s	s	n/a
202.303	0.1045	404606	keystroke_Key.enter	Key.enter	n/a
202.4145	6.16	404829	prompt	n/a	contributions warming confusion stores\n
203.188	0.1045	406376	keystroke_c	c	n/a
203.233	0.105	406466	keystroke_o	o	n/a
203.2775	0.1505	406555	keystroke_n	n	n/a
203.383	0.09	406766	keystroke_t	t	n/a
203.5335	0.105	407067	keystroke_r	r	n/a
203.6225	0.0755	407245	keystroke_i	i	n/a
203.743	0.1195	407486	keystroke_b	b	n/a
203.833	0.0745	407666	keystroke_u	u	n/a
203.953	0.15	407906	keystroke_t	t	n/a
204.088	0.0745	408176	keystroke_i	i	n/a
204.148	0.165	408296	keystroke_o	o	n/a
204.268	0.135	408536	keystroke_n	n	n/a
204.388	0.0895	408776	keystroke_s	s	n/a
204.493	0.0895	408986	keystroke_Key.space	Key.space	n/a
204.5685	0.1345	409137	keystroke_w	w	n/a
204.6585	0.149	409317	keystroke_a	a	n/a
204.7625	0.135	409525	keystroke_r	r	n/a
204.853	0.1055	409706	keystroke_m	m	n/a
204.9725	0.12	409945	keystroke_i	i	n/a
205.0475	0.1205	410095	keystroke_n	n	n/a
205.1525	0.0755	410305	keystroke_g	g	n/a
205.213	0.09	410426	keystroke_Key.space	Key.space	n/a
205.3175	0.1355	410635	keystroke_c	c	n/a
205.4075	0.1655	410815	keystroke_o	o	n/a
205.498	0.15	410996	keystroke_n	n	n/a
205.6625	0.1355	411325	keystroke_f	f	n/a
205.798	0.0745	411596	keystroke_u	u	n/a
205.948	0.1505	411896	keystroke_s	s	n/a
206.083	0.1795	412166	keystroke_i	i	n/a
206.1725	0.135	412345	keystroke_o	o	n/a
206.248	0.15	412496	keystroke_n	n	n/a
206.413	0.105	412826	keystroke_Key.space	Key.space	n/a
206.578	0.135	413156	keystroke_s	s	n/a
206.698	0.1195	413396	keystroke_t	t	n/a
206.833	0.0745	413666	keystroke_o	o	n/a
206.923	0.0745	413846	keystroke_r	r	n/a
207.7625	0.0755	415525	keystroke_e	e	n/a
207.9285	0.0895	415857	keystroke_s	s	n/a
208.498	0.075	416996	keystroke_Key.enter	Key.enter	n/a
208.578	4.1215	417156	prompt	n/a	chat thou refuse sugar\n
209.233	0.135	418466	keystroke_c	c	n/a
209.323	0.12	418646	keystroke_h	h	n/a
209.428	0.1195	418856	keystroke_a	a	n/a
209.518	0.1045	419036	keystroke_t	t	n/a
209.6075	0.09	419215	keystroke_Key.space	Key.space	n/a
210.2225	0.106	420445	keystroke_t	t	n/a
210.328	0.1045	420656	keystroke_h	h	n/a
210.493	0.1655	420986	keystroke_o	o	n/a
210.598	0.105	421196	keystroke_u	u	n/a
210.898	0.0895	421796	keystroke_Key.space	Key.space	n/a
211.198	0.0605	422396	keystroke_r	r	n/a
211.2275	0.1205	422455	keystroke_e	e	n/a
211.4085	0.1645	422817	keystroke_f	f	n/a
211.5585	0.0595	423117	keystroke_u	u	n/a
211.603	0.1345	423206	keystroke_s	s	n/a
211.6625	0.12	423325	keystroke_e	e	n/a
211.783	0.1195	423566	keystroke_Key.space	Key.space	n/a
211.918	0.0915	423836	keystroke_s	s	n/a
211.993	0.0895	423986	keystroke_u	u	n/a
212.1125	0.1355	424225	keystroke_g	g	n/a
212.233	0.15	424466	keystroke_a	a	n/a
212.413	0.1495	424826	keystroke_r	r	n/a
212.6085	0.089	425217	keystroke_Key.enter	Key.enter	n/a
212.7035	4.1665	425407	prompt	n/a	imagine submitting toner drink\n
213.418	0.0905	426836	keystroke_i	i	n/a
213.523	0.12	427046	keystroke_m	m	n/a
213.628	0.1495	427256	keystroke_a	a	n/a
213.823	0.1355	427646	keystroke_g	g	n/a
213.868	0.1345	427736	keystroke_i	i	n/a
213.9425	0.105	427885	keystroke_n	n	n/a
214.0245	0.098	428049	keystroke_e	e	n/a
214.138	0.1055	428276	keystroke_Key.space	Key.space	n/a
214.258	0.1345	428516	keystroke_s	s	n/a
214.4085	0.0445	428817	keystroke_u	u	n/a
214.4985	0.1495	428997	keystroke_b	b	n/a
214.633	0.0755	429266	keystroke_m	m	n/a
214.6625	0.1355	429325	keystroke_i	i	n/a
214.7985	0.089	429597	keystroke_t	t	n/a
215.0085	0.0895	430017	keystroke_t	t	n/a
215.0535	0.134	430107	keystroke_i	i	n/a
215.128	0.1045	430256	keystroke_n	n	n/a
215.203	0.09	430406	keystroke_g	g	n/a
215.3085	0.059	430617	keystroke_Key.space	Key.space	n/a
215.4285	0.1805	430857	keystroke_t	t	n/a
215.593	0.075	431186	keystroke_o	o	n/a
215.713	0.1195	431426	keystroke_n	n	n/a
215.818	0.1195	431636	keystroke_e	e	n/a
215.8475	0.1655	431695	keystroke_r	r	n/a
215.9525	0.0905	431905	keystroke_Key.space	Key.space	n/a
216.088	0.135	432176	keystroke_d	d	n/a
216.2685	0.1195	432537	keystroke_r	r	n/a
216.343	0.0745	432686	keystroke_i	i	n/a
216.433	0.1195	432866	keystroke_n	n	n/a
216.5675	0.1355	433135	keystroke_k	k	n/a
216.7775	0.0905	433555	keystroke_Key.enter	Key.enter	n/a
216.8735	6.1525	433747	prompt	n/a	christianity provider lambda habitat\n
217.6935	0.1195	435387	keystroke_c	c	n/a
217.798	0.09	435596	keystroke_h	h	n/a
217.9625	0.1205	435925	keystroke_r	r	n/a
218.068	0.105	436136	keystroke_i	i	n/a
218.1585	0.119	436317	keystroke_s	s	n/a
218.323	0.136	436646	keystroke_t	t	n/a
218.4735	0.074	436947	keystroke_i	i	n/a
218.623	0.1945	437246	keystroke_a	a	n/a
218.8035	0.059	437607	keystroke_n	n	n/a
219.538	0.06	439076	keystroke_i	i	n/a
219.6125	0.1505	439225	keystroke_t	t	n/a
219.7775	0.0755	439555	keystroke_y	y	n/a
219.8685	0.1045	439737	keystroke_Key.space	Key.space	n/a
220.0935	0.1495	440187	keystroke_p	p	n/a
220.378	0.135	440756	keystroke_r	r	n/a
220.4985	0.1045	440997	keystroke_o	o	n/a
220.648	0.0905	441296	keystroke_v	v	n/a
220.7235	0.1045	441447	keystroke_i	i	n/a
220.8435	0.104	441687	keystroke_d	d	n/a
221.0225	0.151	442045	keystroke_e	e	n/a
221.0985	0.1495	442197	keystroke_r	r	n/a
221.203	0.09	442406	keystroke_Key.space	Key.space	n/a
221.3685	0.134	442737	keystroke_l	l	n/a
221.518	0.1205	443036	keystroke_a	a	n/a
221.6235	0.09	443247	keystroke_m	m	n/a
221.7135	0.0895	443427	keystroke_b	b	n/a
221.863	0.165	443726	keystroke_d	d	n/a
221.968	0.12	443936	keystroke_a	a	n/a
222.073	0.09	444146	keystroke_Key.space	Key.space	n/a
222.209	0.104	444418	keystroke_h	h	n/a
222.298	0.075	444596	keystroke_a	a	n/a
222.3885	0.135	444777	keystroke_b	b	n/a
222.493	0.09	444986	keystroke_i	i	n/a
222.643	0.09	445286	keystroke_t	t	n/a
222.718	0.135	445436	keystroke_a	a	n/a
222.823	0.105	445646	keystroke_t	t	n/a
222.943	0.0815	445886	keystroke_Key.enter	Key.enter	n/a
223.0285	6.3975	446057	prompt	n/a	bruce cingular porsche corrections\n
223.738	0.09	447476	keystroke_b	b	n/a
223.918	0.1205	447836	keystroke_r	r	n/a
224.0235	0.12	448047	keystroke_u	u	n/a
224.188	0.09	448376	keystroke_c	c	n/a
224.3535	0.075	448707	keystroke_e	e	n/a
224.4435	0.0745	448887	keystroke_Key.space	Key.space	n/a
224.563	0.1205	449126	keystroke_c	c	n/a
225.359	0.1645	450718	keystroke_i	i	n/a
225.478	0.1055	450956	keystroke_n	n	n/a
225.6135	0.1495	451227	keystroke_g	g	n/a
225.733	0.0755	451466	keystroke_u	u	n/a
225.9135	0.12	451827	keystroke_l	l	n/a
226.018	0.12	452036	keystroke_a	a	n/a
226.0935	0.15	452187	keystroke_r	r	n/a
226.198	0.09	452396	keystroke_Key.space	Key.space	n/a
226.4535	0.1345	452907	keystroke_p	p	n/a
226.753	0.0755	453506	keystroke_o	o	n/a
226.9935	0.135	453987	keystroke_r	r	n/a
227.398	0.12	454796	keystroke_s	s	n/a
227.5935	0.1345	455187	keystroke_c	c	n/a
227.7135	0.0895	455427	keystroke_h	h	n/a
227.8185	0.075	455637	keystroke_e	e	n/a
227.9085	0.06	455817	keystroke_Key.space	Key.space	n/a
228.0135	0.1195	456027	keystroke_c	c	n/a
228.088	0.0905	456176	keystroke_o	o	n/a
228.224	0.0445	456448	keystroke_r	r	n/a
228.373	0.1055	456746	keystroke_r	r	n/a
228.4485	0.105	456897	keystroke_e	e	n/a
228.658	0.1205	457316	keystroke_c	c	n/a
228.8535	0.1195	457707	keystroke_t	t	n/a
228.9285	0.165	457857	keystroke_i	i	n/a
228.988	0.135	457976	keystroke_o	o	n/a
229.0335	0.135	458067	keystroke_n	n	n/a
229.1385	0.1345	458277	keystroke_s	s	n/a
229.333	0.0905	458666	keystroke_Key.enter	Key.enter	n/a
229.4285	4.091	458857	prompt	n/a	india house patient space\n
230.1285	0.09	460257	keystroke_i	i	n/a
230.173	0.1055	460346	keystroke_n	n	n/a
230.2485	0.15	460497	keystroke_d	d	n/a
230.4135	0.0595	460827	keystroke_i	i	n/a
230.458	0.1505	460916	keystroke_a	a	n/a
230.563	0.1205	461126	keystroke_Key.space	Key.space	n/a
230.9835	0.0745	461967	keystroke_h	h	n/a
231.1485	0.15	462297	keystroke_o	o	n/a
231.2385	0.1195	462477	keystroke_u	u	n/a
231.3135	0.18	462627	keystroke_s	s	n/a
231.403	0.1205	462806	keystroke_e	e	n/a
231.4785	0.06	462957	keystroke_Key.space	Key.space	n/a
231.5685	0.15	463137	keystroke_p	p	n/a
231.6585	0.105	463317	keystroke_a	a	n/a
231.8085	0.12	463617	keystroke_t	t	n/a
231.9135	0.1045	463827	keystroke_i	i	n/a
232.0335	0.12	464067	keystroke_e	e	n/a
232.108	0.1055	464216	keystroke_n	n	n/a
232.3935	0.1345	464787	keystroke_t	t	n/a
232.514	0.1045	465028	keystroke_Key.space	Key.space	n/a
232.7685	0.1195	465537	keystroke_s	s	n/a
232.888	0.135	465776	keystroke_p	p	n/a
233.0095	0.0735	466019	keystroke_a	a	n/a
233.128	0.106	466256	keystroke_c	c	n/a
233.2785	0.1495	466557	keystroke_e	e	n/a
233.443	0.075	466886	keystroke_Key.enter	Key.enter	n/a
233.5225	5.607	467045	prompt	n/a	trigger cartridge aggregate meeting\n
234.2535	0.0745	468507	keystroke_t	t	n/a
234.4335	0.09	468867	keystroke_r	r	n/a
234.5085	0.0895	469017	keystroke_i	i	n/a
234.6135	0.105	469227	keystroke_g	g	n/a
234.793	0.0755	469586	keystroke_g	g	n/a
234.943	0.1505	469886	keystroke_e	e	n/a
235.018	0.1055	470036	keystroke_r	r	n/a
235.1085	0.1195	470217	keystroke_Key.space	Key.space	n/a
235.258	0.15	470516	keystroke_c	c	n/a
235.4985	0.12	470997	keystroke_a	a	n/a
235.543	0.12	471086	keystroke_r	r	n/a
235.7535	0.0895	471507	keystroke_t	t	n/a
236.218	0.105	472436	keystroke_r	r	n/a
236.428	0.1055	472856	keystroke_i	i	n/a
236.5035	0.135	473007	keystroke_d	d	n/a
236.6835	0.15	473367	keystroke_g	g	n/a
236.7735	0.1045	473547	keystroke_e	e	n/a
236.8935	0.105	473787	keystroke_Key.space	Key.space	n/a
237.073	0.1205	474146	keystroke_a	a	n/a
237.2085	0.1195	474417	keystroke_g	g	n/a
237.373	0.1205	474746	keystroke_g	g	n/a
237.538	0.135	475076	keystroke_r	r	n/a
237.628	0.1205	475256	keystroke_e	e	n/a
237.793	0.15	475586	keystroke_g	g	n/a
237.8985	0.165	475797	keystroke_a	a	n/a
238.0485	0.135	476097	keystroke_t	t	n/a
238.1385	0.1045	476277	keystroke_e	e	n/a
238.228	0.1055	476456	keystroke_Key.space	Key.space	n/a
238.3185	0.105	476637	keystroke_m	m	n/a
238.3935	0.075	476787	keystroke_e	e	n/a
238.559	0.1495	477118	keystroke_e	e	n/a
238.633	0.1355	477266	keystroke_t	t	n/a
238.7235	0.1495	477447	keystroke_i	i	n/a
238.7985	0.1045	477597	keystroke_n	n	n/a
238.888	0.122	477776	keystroke_g	g	n/a
239.0235	0.1045	478047	keystroke_Key.enter	Key.enter	n/a
239.1325	4.767	478265	prompt	n/a	deposit initially searched specs\n
239.8485	0.06	479697	keystroke_d	d	n/a
239.984	0.119	479968	keystroke_e	e	n/a
240.058	0.1505	480116	keystroke_p	p	n/a
240.1785	0.12	480357	keystroke_o	o	n/a
240.313	0.136	480626	keystroke_s	s	n/a
240.4485	0.12	480897	keystroke_i	i	n/a
240.5535	0.135	481107	keystroke_t	t	n/a
240.6735	0.0895	481347	keystroke_Key.space	Key.space	n/a
240.8385	0.1205	481677	keystroke_i	i	n/a
240.943	0.135	481886	keystroke_n	n	n/a
241.0635	0.09	482127	keystroke_i	i	n/a
241.1685	0.105	482337	keystroke_t	t	n/a
241.2585	0.075	482517	keystroke_i	i	n/a
241.3635	0.12	482727	keystroke_a	a	n/a
241.4685	0.0295	482937	keystroke_l	l	n/a
241.6035	0.165	483207	keystroke_l	l	n/a
241.7235	0.1045	483447	keystroke_y	y	n/a
241.7835	0.135	483567	keystroke_Key.space	Key.space	n/a
241.903	0.106	483806	keystroke_s	s	n/a
241.9635	0.1495	483927	keystroke_e	e	n/a
242.098	0.1055	484196	keystroke_a	a	n/a
242.1885	0.12	484377	keystroke_r	r	n/a
242.368	0.1055	484736	keystroke_c	c	n/a
242.458	0.1055	484916	keystroke_h	h	n/a
242.5485	0.09	485097	keystroke_e	e	n/a
242.7735	0.075	485547	keystroke_d	d	n/a
243.059	0.1045	486118	keystroke_Key.space	Key.space	n/a
243.2235	0.1195	486447	keystroke_s	s	n/a
243.298	0.136	486596	keystroke_p	p	n/a
243.388	0.0755	486776	keystroke_e	e	n/a
243.5845	0.119	487169	keystroke_c	c	n/a
243.6885	0.12	487377	keystroke_s	s	n/a
243.8245	0.0735	487649	keystroke_Key.enter	Key.enter	n/a
243.9025	6.0735	487805	prompt	n/a	jamie dump challenges italy\n
244.708	0.0755	489416	keystroke_j	j	n/a
244.7685	0.1355	489537	keystroke_a	a	n/a
244.8885	0.105	489777	keystroke_m	m	n/a
244.963	0.15	489926	keystroke_i	i	n/a
245.0685	0.0895	490137	keystroke_e	e	n/a
245.175	0.1185	490350	keystroke_Key.space	Key.space	n/a
245.309	0.0895	490618	keystroke_d	d	n/a
245.3835	0.0895	490767	keystroke_u	u	n/a
245.5785	0.09	491157	keystroke_m	m	n/a
245.625	0.1485	491250	keystroke_p	p	n/a
245.743	0.135	491486	keystroke_s	s	n/a
245.863	0.0905	491726	keystroke_Key.space	Key.space	n/a
245.9985	0.1195	491997	keystroke_c	c	n/a
246.1035	0.06	492207	keystroke_h	h	n/a
246.628	0.0455	493256	keystroke_Key.backspace	Key.backspace	n/a
246.7485	0.075	493497	keystroke_Key.backspace	Key.backspace	n/a
246.928	0.0455	493856	keystroke_Key.backspace	Key.backspace	n/a
247.0785	0.075	494157	keystroke_Key.backspace	Key.backspace	n/a
247.4385	0.1195	494877	keystroke_Key.space	Key.space	n/a
247.574	0.104	495148	keystroke_c	c	n/a
247.648	0.0755	495296	keystroke_h	h	n/a
247.754	0.1645	495508	keystroke_a	a	n/a
247.8735	0.06	495747	keystroke_l	l	n/a
248.0085	0.09	496017	keystroke_l	l	n/a
248.113	0.1505	496226	keystroke_e	e	n/a
248.2035	0.0755	496407	keystroke_n	n	n/a
248.2935	0.1645	496587	keystroke_g	g	n/a
248.3835	0.1195	496767	keystroke_e	e	n/a
248.5635	0.075	497127	keystroke_s	s	n/a
248.5785	0.196	497157	keystroke_Key.space	Key.space	n/a
249.178	0.1055	498356	keystroke_i	i	n/a
249.328	0.1505	498656	keystroke_t	t	n/a
249.4335	0.1055	498867	keystroke_a	a	n/a
249.5245	0.15	499049	keystroke_l	l	n/a
249.6585	0.09	499317	keystroke_y	y	n/a
249.8685	0.105	499737	keystroke_Key.enter	Key.enter	n/a
249.979	5.1865	499958	prompt	n/a	seconds reaching barrier settle\n
250.6635	0.12	501327	keystroke_s	s	n/a
250.7535	0.1045	501507	keystroke_e	e	n/a
250.9635	0.061	501927	keystroke_c	c	n/a
251.009	0.104	502018	keystroke_o	o	n/a
251.0685	0.12	502137	keystroke_n	n	n/a
251.1735	0.12	502347	keystroke_d	d	n/a
251.2185	0.12	502437	keystroke_s	s	n/a
251.325	0.088	502650	keystroke_Key.space	Key.space	n/a
251.519	0.119	503038	keystroke_r	r	n/a
251.608	0.105	503216	keystroke_a	a	n/a
252.073	0.1355	504146	keystroke_Key.backspace	Key.backspace	n/a
252.179	0.134	504358	keystroke_e	e	n/a
252.283	0.121	504566	keystroke_a	a	n/a
252.7335	0.135	505467	keystroke_c	c	n/a
252.8385	0.105	505677	keystroke_h	h	n/a
252.928	0.1355	505856	keystroke_i	i	n/a
253.0485	0.105	506097	keystroke_n	n	n/a
253.1385	0.105	506277	keystroke_g	g	n/a
253.2285	0.09	506457	keystroke_Key.space	Key.space	n/a
253.3635	0.0905	506727	keystroke_b	b	n/a
253.4385	0.15	506877	keystroke_a	a	n/a
253.5435	0.09	507087	keystroke_r	r	n/a
253.7385	0.105	507477	keystroke_r	r	n/a
253.8435	0.15	507687	keystroke_i	i	n/a
254.0085	0.1795	508017	keystroke_e	e	n/a
254.1135	0.1355	508227	keystroke_r	r	n/a
254.2335	0.091	508467	keystroke_Key.space	Key.space	n/a
254.4285	0.12	508857	keystroke_s	s	n/a
254.4745	0.164	508949	keystroke_e	e	n/a
254.564	0.0895	509128	keystroke_t	t	n/a
254.7435	0.105	509487	keystroke_t	t	n/a
254.834	0.1195	509668	keystroke_l	l	n/a
254.9385	0.136	509877	keystroke_e	e	n/a
255.059	0.105	510118	keystroke_Key.enter	Key.enter	n/a
255.1685	4.797	510337	prompt	n/a	estimates obtaining paris cdna\n
255.959	0.1045	511918	keystroke_e	e	n/a
256.139	0.12	512278	keystroke_s	s	n/a
256.2435	0.135	512487	keystroke_t	t	n/a
256.334	0.135	512668	keystroke_i	i	n/a
256.4245	0.1345	512849	keystroke_m	m	n/a
256.4835	0.135	512967	keystroke_a	a	n/a
256.5745	0.134	513149	keystroke_t	t	n/a
256.634	0.1355	513268	keystroke_e	e	n/a
256.754	0.1345	513508	keystroke_s	s	n/a
256.8745	0.0895	513749	keystroke_Key.space	Key.space	n/a
257.024	0.1045	514048	keystroke_o	o	n/a
257.1135	0.12	514227	keystroke_b	b	n/a
257.309	0.1345	514618	keystroke_t	t	n/a
257.3835	0.1205	514767	keystroke_a	a	n/a
257.459	0.105	514918	keystroke_i	i	n/a
257.5495	0.089	515099	keystroke_n	n	n/a
257.654	0.15	515308	keystroke_i	i	n/a
257.744	0.105	515488	keystroke_n	n	n/a
257.789	0.15	515578	keystroke_g	g	n/a
257.9245	0.074	515849	keystroke_Key.space	Key.space	n/a
257.9835	0.1355	515967	keystroke_p	p	n/a
258.0585	0.15	516117	keystroke_a	a	n/a
258.164	0.1345	516328	keystroke_r	r	n/a
258.2835	0.1205	516567	keystroke_i	i	n/a
258.3885	0.105	516777	keystroke_s	s	n/a
258.479	0.09	516958	keystroke_Key.space	Key.space	n/a
258.689	0.105	517378	keystroke_c	c	n/a
258.8685	0.1505	517737	keystroke_d	d	n/a
259.034	0.12	518068	keystroke_n	n	n/a
259.1685	0.09	518337	keystroke_a	a	n/a
259.8745	0.0895	519749	keystroke_Key.enter	Key.enter	n/a
259.97	5.3805	519940	prompt	n/a	date southwest webshots resulted\n
260.6835	0.1505	521367	keystroke_d	d	n/a
260.789	0.15	521578	keystroke_a	a	n/a
260.909	0.1655	521818	keystroke_t	t	n/a
260.9985	0.1205	521997	keystroke_e	e	n/a
261.059	0.1345	522118	keystroke_Key.space	Key.space	n/a
261.2085	0.1205	522417	keystroke_s	s	n/a
261.2835	0.135	522567	keystroke_o	o	n/a
261.359	0.075	522718	keystroke_u	u	n/a
261.494	0.1345	522988	keystroke_t	t	n/a
261.5835	0.091	523167	keystroke_h	h	n/a
261.794	0.1195	523588	keystroke_w	w	n/a
261.8835	0.1205	523767	keystroke_e	e	n/a
262.154	0.2995	524308	keystroke_s	s	n/a
262.559	0.105	525118	keystroke_t	t	n/a
262.739	0.0745	525478	keystroke_Key.space	Key.space	n/a
262.919	0.1645	525838	keystroke_w	w	n/a
263.0245	0.1345	526049	keystroke_e	e	n/a
263.294	0.1045	526588	keystroke_b	b	n/a
263.564	0.1195	527128	keystroke_s	s	n/a
263.6685	0.1355	527337	keystroke_h	h	n/a
263.7285	0.1355	527457	keystroke_o	o	n/a
263.819	0.1495	527638	keystroke_t	t	n/a
263.9095	0.1195	527819	keystroke_s	s	n/a
264.014	0.12	528028	keystroke_Key.space	Key.space	n/a
264.179	0.165	528358	keystroke_r	r	n/a
264.299	0.0895	528598	keystroke_e	e	n/a
264.404	0.1795	528808	keystroke_s	s	n/a
264.539	0.1345	529078	keystroke_u	u	n/a
264.5985	0.1655	529197	keystroke_l	l	n/a
264.689	0.1645	529378	keystroke_t	t	n/a
264.809	0.18	529618	keystroke_e	e	n/a
265.0335	0.12	530067	keystroke_d	d	n/a
265.229	0.12	530458	keystroke_Key.enter	Key.enter	n/a
265.353	5.907	530706	prompt	n/a	password ends evans reservations\n
266.009	0.0895	532018	keystroke_p	p	n/a
266.0245	0.1505	532049	keystroke_a	a	n/a
266.264	0.0895	532528	keystroke_s	s	n/a
266.429	0.12	532858	keystroke_s	s	n/a
266.6535	0.121	533307	keystroke_w	w	n/a
266.7595	0.1195	533519	keystroke_o	o	n/a
266.864	0.0895	533728	keystroke_r	r	n/a
266.9995	0.1045	533999	keystroke_d	d	n/a
267.119	0.09	534238	keystroke_Key.space	Key.space	n/a
267.194	0.0595	534388	keystroke_e	e	n/a
267.359	0.09	534718	keystroke_d	d	n/a
267.525	0.104	535050	keystroke_n	n	n/a
268.1245	0.074	536249	keystroke_Key.backspace	Key.backspace	n/a
268.289	0.105	536578	keystroke_Key.backspace	Key.backspace	n/a
268.4685	0.1055	536937	keystroke_n	n	n/a
268.589	0.12	537178	keystroke_d	d	n/a
268.694	0.165	537388	keystroke_s	s	n/a
268.8745	0.0745	537749	keystroke_Key.space	Key.space	n/a
269.069	0.075	538138	keystroke_e	e	n/a
269.219	0.1495	538438	keystroke_v	v	n/a
269.324	0.12	538648	keystroke_a	a	n/a
269.3985	0.1055	538797	keystroke_n	n	n/a
269.519	0.105	539038	keystroke_s	s	n/a
269.609	0.12	539218	keystroke_Key.space	Key.space	n/a
269.804	0.1345	539608	keystroke_r	r	n/a
269.864	0.0895	539728	keystroke_e	e	n/a
270.029	0.1045	540058	keystroke_s	s	n/a
270.1035	0.195	540207	keystroke_e	e	n/a
270.2835	0.1055	540567	keystroke_r	r	n/a
270.464	0.12	540928	keystroke_v	v	n/a
270.5535	0.1205	541107	keystroke_a	a	n/a
270.674	0.1355	541348	keystroke_t	t	n/a
270.7935	0.135	541587	keystroke_i	i	n/a
270.8245	0.1795	541649	keystroke_o	o	n/a
270.914	0.12	541828	keystroke_n	n	n/a
271.0235	0.1005	542047	keystroke_s	s	n/a
271.169	0.0895	542338	keystroke_Key.enter	Key.enter	n/a
271.263	4.3625	542526	prompt	n/a	fashion linked diploma isbn\n
272.009	0.071	544018	keystroke_f	f	n/a
272.08	0.094	544160	keystroke_a	a	n/a
272.219	0.1195	544438	keystroke_s	s	n/a
272.3535	0.106	544707	keystroke_h	h	n/a
272.444	0.1205	544888	keystroke_i	i	n/a
272.5485	0.165	545097	keystroke_o	o	n/a
272.6535	0.1505	545307	keystroke_n	n	n/a
272.7895	0.1345	545579	keystroke_Key.space	Key.space	n/a
272.909	0.135	545818	keystroke_l	l	n/a
272.9845	0.1195	545969	keystroke_i	i	n/a
273.089	0.1355	546178	keystroke_n	n	n/a
273.209	0.15	546418	keystroke_k	k	n/a
273.2985	0.0765	546597	keystroke_e	e	n/a
273.4495	0.104	546899	keystroke_d	d	n/a
273.5385	0.0755	547077	keystroke_Key.space	Key.space	n/a
273.674	0.135	547348	keystroke_d	d	n/a
273.749	0.1195	547498	keystroke_i	i	n/a
273.8835	0.15	547767	keystroke_p	p	n/a
274.184	0.045	548368	keystroke_l	l	n/a
274.3335	0.0755	548667	keystroke_o	o	n/a
274.514	0.12	549028	keystroke_m	m	n/a
274.619	0.105	549238	keystroke_a	a	n/a
274.709	0.0595	549418	keystroke_Key.space	Key.space	n/a
274.844	0.1045	549688	keystroke_i	i	n/a
274.9185	0.1355	549837	keystroke_s	s	n/a
275.2035	0.105	550407	keystroke_b	b	n/a
275.324	0.105	550648	keystroke_n	n	n/a
275.5345	0.0895	551069	keystroke_Key.enter	Key.enter	n/a
275.629	6.7915	551258	prompt	n/a	frequently qualifications birth raleigh\n
276.434	0.0745	552868	keystroke_f	f	n/a
276.569	0.135	553138	keystroke_r	r	n/a
276.644	0.1205	553288	keystroke_e	e	n/a
276.749	0.12	553498	keystroke_q	q	n/a
276.9135	0.0455	553827	keystroke_u	u	n/a
276.974	0.1195	553948	keystroke_e	e	n/a
277.079	0.0895	554158	keystroke_n	n	n/a
277.199	0.09	554398	keystroke_t	t	n/a
277.259	0.1655	554518	keystroke_l	l	n/a
277.3645	0.1195	554729	keystroke_y	y	n/a
277.4695	0.0895	554939	keystroke_Key.space	Key.space	n/a
277.6935	0.075	555387	keystroke_q	q	n/a
277.769	0.075	555538	keystroke_u	u	n/a
277.889	0.135	555778	keystroke_a	a	n/a
277.9785	0.1355	555957	keystroke_l	l	n/a
278.039	0.12	556078	keystroke_i	i	n/a
278.234	0.12	556468	keystroke_f	f	n/a
278.339	0.1045	556678	keystroke_i	i	n/a
278.459	0.135	556918	keystroke_c	c	n/a
278.5635	0.1505	557127	keystroke_a	a	n/a
278.699	0.135	557398	keystroke_t	t	n/a
278.7895	0.1645	557579	keystroke_i	i	n/a
278.8495	0.1495	557699	keystroke_o	o	n/a
278.909	0.12	557818	keystroke_n	n	n/a
279.014	0.105	558028	keystroke_s	s	n/a
279.074	0.1195	558148	keystroke_Key.space	Key.space	n/a
279.2085	0.0905	558417	keystroke_b	b	n/a
279.2545	0.1345	558509	keystroke_i	i	n/a
279.404	0.0745	558808	keystroke_r	r	n/a
279.554	0.1205	559108	keystroke_t	t	n/a
279.6295	0.0895	559259	keystroke_h	h	n/a
279.6585	0.135	559317	keystroke_Key.space	Key.space	n/a
279.809	0.135	559618	keystroke_r	r	n/a
279.899	0.0755	559798	keystroke_e	e	n/a
280.094	0.135	560188	keystroke_a	a	n/a
280.4845	0.1345	560969	keystroke_Key.backspace	Key.backspace	n/a
280.6785	0.0905	561357	keystroke_Key.backspace	Key.backspace	n/a
280.814	0.1345	561628	keystroke_a	a	n/a
280.964	0.105	561928	keystroke_l	l	n/a
281.474	0.1345	562948	keystroke_e	e	n/a
281.609	0.135	563218	keystroke_i	i	n/a
281.789	0.135	563578	keystroke_g	g	n/a
281.879	0.12	563758	keystroke_h	h	n/a
282.344	0.075	564688	keystroke_Key.enter	Key.enter	n/a
282.4235	6.4185	564847	prompt	n/a	perfect antigua authorities voting\n
283.214	0.135	566428	keystroke_p	p	n/a
283.289	0.15	566578	keystroke_e	e	n/a
283.394	0.09	566788	keystroke_r	r	n/a
283.56	0.119	567120	keystroke_f	f	n/a
283.664	0.09	567328	keystroke_e	e	n/a
283.889	0.1045	567778	keystroke_c	c	n/a
284.0835	0.076	568167	keystroke_t	t	n/a
284.174	0.1045	568348	keystroke_Key.space	Key.space	n/a
284.2935	0.1355	568587	keystroke_a	a	n/a
284.534	0.075	569068	keystroke_n	n	n/a
284.654	0.105	569308	keystroke_t	t	n/a
284.774	0.0895	569548	keystroke_i	i	n/a
284.894	0.105	569788	keystroke_g	g	n/a
284.9835	0.0905	569967	keystroke_u	u	n/a
285.089	0.1045	570178	keystroke_a	a	n/a
285.209	0.09	570418	keystroke_Key.space	Key.space	n/a
285.449	0.12	570898	keystroke_a	a	n/a
285.554	0.09	571108	keystroke_u	u	n/a
285.659	0.12	571318	keystroke_t	t	n/a
285.7635	0.091	571527	keystroke_h	h	n/a
285.839	0.12	571678	keystroke_o	o	n/a
285.975	0.1185	571950	keystroke_r	r	n/a
286.109	0.075	572218	keystroke_i	i	n/a
286.319	0.135	572638	keystroke_e	e	n/a
286.859	0.105	573718	keystroke_Key.backspace	Key.backspace	n/a
286.979	0.1205	573958	keystroke_t	t	n/a
287.084	0.105	574168	keystroke_i	i	n/a
287.1745	0.1195	574349	keystroke_e	e	n/a
287.279	0.15	574558	keystroke_s	s	n/a
287.384	0.12	574768	keystroke_Key.space	Key.space	n/a
287.6695	0.24	575339	keystroke_v	v	n/a
287.924	0.045	575848	keystroke_o	o	n/a
288.0745	0.15	576149	keystroke_t	t	n/a
288.239	0.1205	576478	keystroke_i	i	n/a
288.3145	0.1345	576629	keystroke_n	n	n/a
288.419	0.1355	576838	keystroke_g	g	n/a
288.719	0.1205	577438	keystroke_Key.enter	Key.enter	n/a
288.8445	5.561	577689	prompt	n/a	showed contained wilson electrical\n
289.514	0.12	579028	keystroke_s	s	n/a
289.619	0.1055	579238	keystroke_h	h	n/a
289.679	0.121	579358	keystroke_o	o	n/a
289.7845	0.075	579569	keystroke_e	e	n/a
290.204	0.105	580408	keystroke_Key.backspace	Key.backspace	n/a
290.3245	0.1195	580649	keystroke_w	w	n/a
290.3995	0.1195	580799	keystroke_e	e	n/a
290.6095	0.12	581219	keystroke_d	d	n/a
290.6995	0.09	581399	keystroke_Key.space	Key.space	n/a
291.1045	0.1495	582209	keystroke_c	c	n/a
291.179	0.1055	582358	keystroke_o	o	n/a
291.239	0.1055	582478	keystroke_n	n	n/a
291.3295	0.1345	582659	keystroke_t	t	n/a
291.4195	0.12	582839	keystroke_a	a	n/a
291.5095	0.135	583019	keystroke_i	i	n/a
291.5695	0.135	583139	keystroke_n	n	n/a
291.6595	0.1045	583319	keystroke_e	e	n/a
291.8995	0.12	583799	keystroke_d	d	n/a
292.034	0.0905	584068	keystroke_Key.space	Key.space	n/a
292.349	0.135	584698	keystroke_w	w	n/a
292.469	0.0905	584938	keystroke_i	i	n/a
292.6045	0.105	585209	keystroke_l	l	n/a
292.7245	0.135	585449	keystroke_s	s	n/a
292.8445	0.1045	585689	keystroke_o	o	n/a
292.934	0.1055	585868	keystroke_n	n	n/a
293.0245	0.0895	586049	keystroke_Key.space	Key.space	n/a
293.099	0.12	586198	keystroke_e	e	n/a
293.234	0.0905	586468	keystroke_l	l	n/a
293.3095	0.06	586619	keystroke_e	e	n/a
293.5045	0.0595	587009	keystroke_c	c	n/a
293.6245	0.075	587249	keystroke_t	t	n/a
293.7745	0.1045	587549	keystroke_r	r	n/a
293.834	0.1055	587668	keystroke_i	i	n/a
293.9545	0.1345	587909	keystroke_c	c	n/a
294.0595	0.15	588119	keystroke_a	a	n/a
294.164	0.0605	588328	keystroke_l	l	n/a
294.329	0.075	588658	keystroke_Key.enter	Key.enter	n/a
294.4085	5.5175	588817	prompt	n/a	including missile turbo amplifier\n
295.064	0.1655	590128	keystroke_i	i	n/a
295.1395	0.12	590279	keystroke_n	n	n/a
295.5145	0.1195	591029	keystroke_c	c	n/a
295.5895	0.135	591179	keystroke_l	l	n/a
295.709	0.0605	591418	keystroke_u	u	n/a
295.7845	0.165	591569	keystroke_d	d	n/a
295.8895	0.105	591779	keystroke_i	i	n/a
295.934	0.1065	591868	keystroke_n	n	n/a
296.0395	0.15	592079	keystroke_g	g	n/a
296.1445	0.0895	592289	keystroke_Key.space	Key.space	n/a
296.564	0.0905	593128	keystroke_m	m	n/a
296.6395	0.135	593279	keystroke_i	i	n/a
296.714	0.0905	593428	keystroke_s	s	n/a
296.9245	0.075	593849	keystroke_s	s	n/a
297.1045	0.105	594209	keystroke_i	i	n/a
297.2245	0.12	594449	keystroke_l	l	n/a
297.3595	0.1195	594719	keystroke_e	e	n/a
297.464	0.075	594928	keystroke_Key.space	Key.space	n/a
297.8395	0.12	595679	keystroke_t	t	n/a
297.9745	0.0745	595949	keystroke_u	u	n/a
298.0795	0.06	596159	keystroke_r	r	n/a
298.2745	0.1045	596549	keystroke_b	b	n/a
298.3495	0.105	596699	keystroke_o	o	n/a
298.4395	0.1045	596879	keystroke_Key.space	Key.space	n/a
298.619	0.1505	597238	keystroke_a	a	n/a
298.7245	0.1045	597449	keystroke_m	m	n/a
298.8445	0.1195	597689	keystroke_p	p	n/a
299.0545	0.1645	598109	keystroke_l	l	n/a
299.1595	0.1045	598319	keystroke_i	i	n/a
299.3845	0.1345	598769	keystroke_f	f	n/a
299.489	0.1205	598978	keystroke_i	i	n/a
299.5645	0.2105	599129	keystroke_e	e	n/a
299.7295	0.135	599459	keystroke_r	r	n/a
299.8345	0.09	599669	keystroke_Key.enter	Key.enter	n/a
299.929	4.214	599858	prompt	n/a	jenny send lines suburban\n
300.6145	0.1045	601229	keystroke_j	j	n/a
300.749	0.0755	601498	keystroke_e	e	n/a
300.8995	0.06	601799	keystroke_n	n	n/a
301.0795	0.045	602159	keystroke_n	n	n/a
301.2295	0.0895	602459	keystroke_y	y	n/a
301.304	0.1205	602608	keystroke_Key.space	Key.space	n/a
301.604	0.1355	603208	keystroke_s	s	n/a
301.6795	0.135	603359	keystroke_e	e	n/a
301.7845	0.105	603569	keystroke_n	n	n/a
301.904	0.12	603808	keystroke_d	d	n/a
301.98	0.0895	603960	keystroke_Key.space	Key.space	n/a
302.1295	0.1945	604259	keystroke_l	l	n/a
302.204	0.1805	604408	keystroke_i	i	n/a
302.3095	0.12	604619	keystroke_n	n	n/a
302.3695	0.121	604739	keystroke_e	e	n/a
302.4445	0.135	604889	keystroke_s	s	n/a
302.564	0.076	605128	keystroke_Key.space	Key.space	n/a
302.834	0.1355	605668	keystroke_s	s	n/a
303.0235	0.051	606047	keystroke_u	u	n/a
303.0595	0.15	606119	keystroke_b	b	n/a
303.2845	0.075	606569	keystroke_u	u	n/a
303.3745	0.1195	606749	keystroke_r	r	n/a
303.6445	0.12	607289	keystroke_b	b	n/a
303.719	0.1215	607438	keystroke_a	a	n/a
303.8245	0.075	607649	keystroke_n	n	n/a
304.034	0.105	608068	keystroke_Key.enter	Key.enter	n/a
304.1465	4.51	608293	prompt	n/a	gossip scenic fits categories\n
304.9945	0.135	609989	keystroke_g	g	n/a
305.1145	0.06	610229	keystroke_o	o	n/a
305.189	0.0905	610378	keystroke_s	s	n/a
305.3545	0.1205	610709	keystroke_s	s	n/a
305.4295	0.165	610859	keystroke_i	i	n/a
305.549	0.1505	611098	keystroke_p	p	n/a
305.6845	0.1645	611369	keystroke_Key.space	Key.space	n/a
305.834	0.091	611668	keystroke_s	s	n/a
306.0005	0.1035	612001	keystroke_c	c	n/a
306.1795	0.09	612359	keystroke_e	e	n/a
306.285	0.119	612570	keystroke_n	n	n/a
306.3745	0.12	612749	keystroke_i	i	n/a
306.4495	0.165	612899	keystroke_c	c	n/a
306.5995	0.075	613199	keystroke_Key.space	Key.space	n/a
306.704	0.1205	613408	keystroke_f	f	n/a
306.8095	0.1055	613619	keystroke_i	i	n/a
306.9755	0.149	613951	keystroke_t	t	n/a
307.0495	0.135	614099	keystroke_s	s	n/a
307.154	0.1055	614308	keystroke_Key.space	Key.space	n/a
307.274	0.1505	614548	keystroke_c	c	n/a
307.41	0.1345	614820	keystroke_a	a	n/a
307.5295	0.135	615059	keystroke_t	t	n/a
307.634	0.1355	615268	keystroke_e	e	n/a
307.8145	0.0895	615629	keystroke_g	g	n/a
307.9195	0.075	615839	keystroke_o	o	n/a
308.0095	0.12	616019	keystroke_r	r	n/a
308.1445	0.12	616289	keystroke_i	i	n/a
308.2195	0.1495	616439	keystroke_e	e	n/a
308.3245	0.1495	616649	keystroke_s	s	n/a
308.504	0.1505	617008	keystroke_Key.enter	Key.enter	n/a
308.659	6.2525	617318	prompt	n/a	amplifier clinic projectors noted\n
309.404	0.1055	618808	keystroke_a	a	n/a
309.495	0.105	618990	keystroke_m	m	n/a
309.585	0.104	619170	keystroke_p	p	n/a
309.8545	0.1495	619709	keystroke_l	l	n/a
309.9295	0.1055	619859	keystroke_i	i	n/a
310.1695	0.1195	620339	keystroke_f	f	n/a
310.2745	0.1055	620549	keystroke_i	i	n/a
310.365	0.18	620730	keystroke_e	e	n/a
310.5295	0.135	621059	keystroke_r	r	n/a
310.6495	0.091	621299	keystroke_Key.space	Key.space	n/a
310.7545	0.1645	621509	keystroke_c	c	n/a
310.8295	0.15	621659	keystroke_l	l	n/a
310.9345	0.09	621869	keystroke_i	i	n/a
311.0405	0.089	622081	keystroke_n	n	n/a
311.115	0.1345	622230	keystroke_i	i	n/a
311.2345	0.135	622469	keystroke_c	c	n/a
311.3245	0.105	622649	keystroke_Key.space	Key.space	n/a
311.5495	0.105	623099	keystroke_p	p	n/a
311.67	0.134	623340	keystroke_r	r	n/a
311.82	0.1205	623640	keystroke_j	j	n/a
312.6445	0.0745	625289	keystroke_Key.backspace	Key.backspace	n/a
312.8545	0.105	625709	keystroke_o	o	n/a
313.0045	0.121	626009	keystroke_j	j	n/a
313.1095	0.0905	626219	keystroke_e	e	n/a
313.3345	0.0755	626669	keystroke_c	c	n/a
313.4545	0.1045	626909	keystroke_t	t	n/a
313.5745	0.09	627149	keystroke_o	o	n/a
313.62	0.09	627240	keystroke_r	r	n/a
313.995	0.15	627990	keystroke_s	s	n/a
314.1295	0.0605	628259	keystroke_Key.space	Key.space	n/a
314.2345	0.12	628469	keystroke_n	n	n/a
314.31	0.135	628620	keystroke_o	o	n/a
314.4295	0.135	628859	keystroke_t	t	n/a
314.5195	0.105	629039	keystroke_e	e	n/a
314.7295	0.12	629459	keystroke_d	d	n/a
314.8045	0.105	629609	keystroke_Key.enter	Key.enter	n/a
314.9145	6.672	629829	prompt	n/a	senate coordinator continent archive\n
316.2595	0.1205	632519	keystroke_s	s	n/a
316.3495	0.15	632699	keystroke_e	e	n/a
316.515	0.075	633030	keystroke_n	n	n/a
316.6045	0.15	633209	keystroke_a	a	n/a
316.74	0.1045	633480	keystroke_t	t	n/a
316.7995	0.135	633599	keystroke_e	e	n/a
316.92	0.0745	633840	keystroke_Key.space	Key.space	n/a
317.0245	0.15	634049	keystroke_c	c	n/a
317.13	0.09	634260	keystroke_o	o	n/a
317.355	0.1045	634710	keystroke_o	o	n/a
317.475	0.12	634950	keystroke_r	r	n/a
317.7145	0.1505	635429	keystroke_d	d	n/a
317.82	0.105	635640	keystroke_i	i	n/a
317.8795	0.09	635759	keystroke_n	n	n/a
317.985	0.0895	635970	keystroke_a	a	n/a
318.0295	0.1355	636059	keystroke_t	t	n/a
318.135	0.1495	636270	keystroke_o	o	n/a
318.2995	0.091	636599	keystroke_r	r	n/a
318.3745	0.0605	636749	keystroke_Key.space	Key.space	n/a
318.5095	0.15	637019	keystroke_c	c	n/a
318.615	0.135	637230	keystroke_o	o	n/a
318.705	0.12	637410	keystroke_n	n	n/a
319.1255	0.119	638251	keystroke_t	t	n/a
319.2295	0.1055	638459	keystroke_i	i	n/a
319.29	0.1195	638580	keystroke_n	n	n/a
319.5295	0.1355	639059	keystroke_e	e	n/a
319.635	0.1345	639270	keystroke_n	n	n/a
319.755	0.1195	639510	keystroke_t	t	n/a
319.8445	0.105	639689	keystroke_Key.space	Key.space	n/a
319.98	0.12	639960	keystroke_a	a	n/a
320.235	0.105	640470	keystroke_r	r	n/a
320.415	0.12	640830	keystroke_c	c	n/a
320.5045	0.0905	641009	keystroke_h	h	n/a
320.55	0.1345	641100	keystroke_i	i	n/a
320.655	0.15	641310	keystroke_e	e	n/a
321.1495	0.1205	642299	keystroke_Key.backspace	Key.backspace	n/a
321.255	0.135	642510	keystroke_v	v	n/a
321.375	0.12	642750	keystroke_e	e	n/a
321.495	0.09	642990	keystroke_Key.enter	Key.enter	n/a
321.589	5.4125	643178	prompt	n/a	copy muscles ebook automation\n
322.3645	0.15	644729	keystroke_c	c	n/a
322.4245	0.105	644849	keystroke_o	o	n/a
322.5	0.1945	645000	keystroke_p	p	n/a
322.62	0.105	645240	keystroke_y	y	n/a
322.71	0.1195	645420	keystroke_Key.space	Key.space	n/a
322.905	0.0755	645810	keystroke_m	m	n/a
323.1	0.09	646200	keystroke_u	u	n/a
323.2495	0.1055	646499	keystroke_s	s	n/a
323.4295	0.1205	646859	keystroke_c	c	n/a
323.535	0.0905	647070	keystroke_l	l	n/a
323.8045	0.0905	647609	keystroke_e	e	n/a
323.985	0.15	647970	keystroke_s	s	n/a
324.135	0.075	648270	keystroke_Key.space	Key.space	n/a
324.54	0.0895	649080	keystroke_b	b	n/a
324.915	0.0895	649830	keystroke_Key.backspace	Key.backspace	n/a
324.992	0.088	649984	keystroke_e	e	n/a
325.395	0.12	650790	keystroke_b	b	n/a
325.5	0.0595	651000	keystroke_o	o	n/a
325.6045	0.1505	651209	keystroke_o	o	n/a
325.71	0.1345	651420	keystroke_k	k	n/a
325.83	0.09	651660	keystroke_Key.space	Key.space	n/a
325.935	0.135	651870	keystroke_a	a	n/a
326.085	0.0745	652170	keystroke_u	u	n/a
326.1745	0.0905	652349	keystroke_t	t	n/a
326.2495	0.1055	652499	keystroke_o	o	n/a
326.3405	0.104	652681	keystroke_m	m	n/a
326.43	0.1045	652860	keystroke_a	a	n/a
326.52	0.12	653040	keystroke_t	t	n/a
326.595	0.1495	653190	keystroke_i	i	n/a
326.685	0.12	653370	keystroke_o	o	n/a
326.7305	0.0895	653461	keystroke_n	n	n/a
326.9255	0.0745	653851	keystroke_Key.enter	Key.enter	n/a
327.004	4.813	654008	prompt	n/a	accounts administered lease ottawa\n
327.6745	0.12	655349	keystroke_a	a	n/a
327.855	0.045	655710	keystroke_c	c	n/a
327.9915	0.1185	655983	keystroke_c	c	n/a
328.065	0.15	656130	keystroke_o	o	n/a
328.125	0.1045	656250	keystroke_u	u	n/a
328.275	0.12	656550	keystroke_n	n	n/a
328.3495	0.18	656699	keystroke_t	t	n/a
328.44	0.12	656880	keystroke_s	s	n/a
328.545	0.075	657090	keystroke_Key.space	Key.space	n/a
328.68	0.12	657360	keystroke_a	a	n/a
328.8445	0.1205	657689	keystroke_d	d	n/a
328.9195	0.0905	657839	keystroke_m	m	n/a
329.025	0.105	658050	keystroke_i	i	n/a
329.1	0.135	658200	keystroke_n	n	n/a
329.22	0.105	658440	keystroke_i	i	n/a
329.25	0.1795	658500	keystroke_s	s	n/a
329.415	0.12	658830	keystroke_t	t	n/a
329.5195	0.1205	659039	keystroke_e	e	n/a
329.625	0.1495	659250	keystroke_r	r	n/a
329.7155	0.0895	659431	keystroke_e	e	n/a
329.895	0.12	659790	keystroke_d	d	n/a
330	0.0905	660000	keystroke_Key.space	Key.space	n/a
330.1195	0.1355	660239	keystroke_l	l	n/a
330.225	0.1345	660450	keystroke_e	e	n/a
330.3745	0.1805	660749	keystroke_a	a	n/a
330.4505	0.1495	660901	keystroke_s	s	n/a
330.54	0.1045	661080	keystroke_e	e	n/a
330.615	0.1045	661230	keystroke_Key.space	Key.space	n/a
330.7805	0.0895	661561	keystroke_o	o	n/a
330.855	0.0895	661710	keystroke_t	t	n/a
331.02	0.075	662040	keystroke_t	t	n/a
331.125	0.1495	662250	keystroke_a	a	n/a
331.485	0.12	662970	keystroke_w	w	n/a
331.5445	0.1355	663089	keystroke_a	a	n/a
331.725	0.09	663450	keystroke_Key.enter	Key.enter	n/a
331.8215	8.0645	663643	prompt	n/a	communication korea acquisition recommended\n
332.505	0.135	665010	keystroke_c	c	n/a
332.5945	0.0755	665189	keystroke_o	o	n/a
332.79	0.045	665580	keystroke_m	m	n/a
332.9105	0.0895	665821	keystroke_m	m	n/a
333.12	0.075	666240	keystroke_u	u	n/a
333.3	0.075	666600	keystroke_n	n	n/a
333.345	0.1495	666690	keystroke_i	i	n/a
333.42	0.165	666840	keystroke_c	c	n/a
333.54	0.151	667080	keystroke_a	a	n/a
333.6595	0.1505	667319	keystroke_t	t	n/a
333.735	0.135	667470	keystroke_i	i	n/a
333.795	0.12	667590	keystroke_o	o	n/a
333.8405	0.12	667681	keystroke_n	n	n/a
333.915	0.135	667830	keystroke_Key.space	Key.space	n/a
334.305	0.1205	668610	keystroke_k	k	n/a
334.38	0.15	668760	keystroke_o	o	n/a
334.515	0.135	669030	keystroke_r	r	n/a
334.6045	0.0605	669209	keystroke_e	e	n/a
335.0995	0.1205	670199	keystroke_a	a	n/a
335.3995	0.1355	670799	keystroke_Key.space	Key.space	n/a
335.7455	0.1045	671491	keystroke_a	a	n/a
336.7205	0.0445	673441	keystroke_c	c	n/a
337.245	0.09	674490	keystroke_q	q	n/a
337.35	0.0905	674700	keystroke_u	u	n/a
337.3955	0.119	674791	keystroke_i	i	n/a
337.5605	0.1195	675121	keystroke_s	s	n/a
337.665	0.06	675330	keystroke_i	i	n/a
337.8	0.135	675600	keystroke_t	t	n/a
337.8905	0.1355	675781	keystroke_i	i	n/a
337.9505	0.135	675901	keystroke_o	o	n/a
338.0405	0.104	676081	keystroke_n	n	n/a
338.1	0.1205	676200	keystroke_Key.space	Key.space	n/a
338.355	0.1505	676710	keystroke_r	r	n/a
338.4445	0.0905	676889	keystroke_e	e	n/a
338.655	0.12	677310	keystroke_c	c	n/a
338.76	0.0305	677520	keystroke_o	o	n/a
338.925	0.0455	677850	keystroke_m	m	n/a
339.045	0.09	678090	keystroke_m	m	n/a
339.15	0.105	678300	keystroke_e	e	n/a
339.2555	0.089	678511	keystroke_n	n	n/a
339.3595	0.0755	678719	keystroke_d	d	n/a
339.54	0.03	679080	keystroke_e	e	n/a
339.675	0.1055	679350	keystroke_d	d	n/a
339.781	0.104	679562	keystroke_Key.enter	Key.enter	n/a
339.889	5.1585	679778	prompt	n/a	current why're accountability adverse\n
340.5905	0.1195	681181	keystroke_c	c	n/a
340.7105	0.0745	681421	keystroke_u	u	n/a
340.815	0.045	681630	keystroke_r	r	n/a
341.2205	0.075	682441	keystroke_r	r	n/a
341.31	0.1505	682620	keystroke_e	e	n/a
341.4755	0.0895	682951	keystroke_n	n	n/a
341.55	0.1205	683100	keystroke_t	t	n/a
341.6705	0.0895	683341	keystroke_Key.space	Key.space	n/a
341.775	0.1055	683550	keystroke_w	w	n/a
341.8355	0.06	683671	keystroke_h	h	n/a
342	0.075	684000	keystroke_y	y	n/a
342.1505	0.1195	684301	keystroke_'	'	n/a
342.2255	0.12	684451	keystroke_r	r	n/a
342.285	0.1055	684570	keystroke_e	e	n/a
342.3755	0.0895	684751	keystroke_Key.space	Key.space	n/a
342.495	0.09	684990	keystroke_a	a	n/a
342.645	0.045	685290	keystroke_c	c	n/a
342.7955	0.15	685591	keystroke_c	c	n/a
342.93	0.1055	685860	keystroke_o	o	n/a
342.9905	0.0595	685981	keystroke_u	u	n/a
343.1555	0.0895	686311	keystroke_n	n	n/a
343.2	0.12	686400	keystroke_t	t	n/a
343.2905	0.105	686581	keystroke_a	a	n/a
343.455	0.1355	686910	keystroke_b	b	n/a
343.515	0.0905	687030	keystroke_i	i	n/a
343.665	0.1345	687330	keystroke_l	l	n/a
343.725	0.135	687450	keystroke_i	i	n/a
343.845	0.1355	687690	keystroke_t	t	n/a
343.92	0.09	687840	keystroke_y	y	n/a
343.9955	0.1045	687991	keystroke_Key.space	Key.space	n/a
344.085	0.12	688170	keystroke_a	a	n/a
344.2205	0.1045	688441	keystroke_d	d	n/a
344.37	0.1355	688740	keystroke_v	v	n/a
344.5055	0.149	689011	keystroke_e	e	n/a
344.6405	0.1045	689281	keystroke_r	r	n/a
344.715	0.1505	689430	keystroke_s	s	n/a
344.7905	0.1495	689581	keystroke_e	e	n/a
344.955	0.0905	689910	keystroke_Key.enter	Key.enter	n/a
345.0515	3.79	690103	prompt	n/a	living flat extra issues\n
345.72	0.15	691440	keystroke_l	l	n/a
345.81	0.105	691620	keystroke_i	i	n/a
345.9	0.105	691800	keystroke_v	v	n/a
346.0205	0.1195	692041	keystroke_i	i	n/a
346.0655	0.135	692131	keystroke_n	n	n/a
346.155	0.1205	692310	keystroke_g	g	n/a
346.2605	0.0895	692521	keystroke_Key.space	Key.space	n/a
346.411	0.1495	692822	keystroke_f	f	n/a
346.5455	0.075	693091	keystroke_l	l	n/a
346.606	0.1045	693212	keystroke_a	a	n/a
346.6955	0.1795	693391	keystroke_t	t	n/a
346.9955	0.165	693991	keystroke_Key.space	Key.space	n/a
347.1755	0.0895	694351	keystroke_e	e	n/a
347.385	0.1055	694770	keystroke_x	x	n/a
347.5355	0.0895	695071	keystroke_t	t	n/a
347.7005	0.12	695401	keystroke_r	r	n/a
347.7755	0.1195	695551	keystroke_a	a	n/a
347.8655	0.1195	695731	keystroke_Key.space	Key.space	n/a
348.1955	0.0295	696391	keystroke_i	i	n/a
348.2105	0.0595	696421	keystroke_s	s	n/a
348.4055	0.03	696811	keystroke_s	s	n/a
348.45	0.075	696900	keystroke_u	u	n/a
348.51	0.1205	697020	keystroke_e	e	n/a
348.585	0.1355	697170	keystroke_s	s	n/a
348.7655	0.0745	697531	keystroke_Key.enter	Key.enter	n/a
348.8445	7.139	697689	prompt	n/a	prizes karma dvds paso\n
349.561	0.1495	699122	keystroke_p	p	n/a
349.6655	0.1495	699331	keystroke_i	i	n/a
349.8605	0.105	699721	keystroke_r	r	n/a
350.0855	0.18	700171	keystroke_z	z	n/a
350.2055	0.135	700411	keystroke_e	e	n/a
350.46	0.1355	700920	keystroke_s	s	n/a
350.5805	0.1045	701161	keystroke_Key.space	Key.space	n/a
351.3755	0.045	702751	keystroke_Key.backspace	Key.backspace	n/a
351.4955	0.09	702991	keystroke_Key.backspace	Key.backspace	n/a
351.6605	0.06	703321	keystroke_Key.backspace	Key.backspace	n/a
351.795	0.06	703590	keystroke_Key.backspace	Key.backspace	n/a
351.9605	0.06	703921	keystroke_Key.backspace	Key.backspace	n/a
352.11	0.0755	704220	keystroke_Key.backspace	Key.backspace	n/a
352.2305	0.1195	704461	keystroke_r	r	n/a
352.3355	0.0895	704671	keystroke_i	i	n/a
352.44	0.1505	704880	keystroke_z	z	n/a
352.5455	0.105	705091	keystroke_e	e	n/a
352.725	0.1505	705450	keystroke_s	s	n/a
352.8605	0.09	705721	keystroke_Key.space	Key.space	n/a
353.445	0.1055	706890	keystroke_k	k	n/a
353.5205	0.12	707041	keystroke_a	a	n/a
353.61	0.1505	707220	keystroke_r	r	n/a
353.7755	0.075	707551	keystroke_m	m	n/a
353.8655	0.0745	707731	keystroke_a	a	n/a
353.9555	0.09	707911	keystroke_Key.space	Key.space	n/a
354.166	0.104	708332	keystroke_d	d	n/a
354.3455	0.105	708691	keystroke_v	v	n/a
354.525	0.1955	709050	keystroke_d	d	n/a
354.705	0.12	709410	keystroke_s	s	n/a
354.855	0.105	709710	keystroke_Key.space	Key.space	n/a
355.3205	0.1045	710641	keystroke_p	p	n/a
355.485	0.1215	710970	keystroke_a	a	n/a
355.591	0.104	711182	keystroke_s	s	n/a
355.6805	0.09	711361	keystroke_o	o	n/a
355.9055	0.0755	711811	keystroke_Key.enter	Key.enter	n/a
355.987	4.345	711974	prompt	n/a	cyber herald seeking companies\n
356.715	0.135	713430	keystroke_c	c	n/a
356.835	0.09	713670	keystroke_y	y	n/a
356.9405	0.12	713881	keystroke_b	b	n/a
357.1055	0.18	714211	keystroke_e	e	n/a
357.1955	0.1195	714391	keystroke_r	r	n/a
357.3005	0.105	714601	keystroke_Key.space	Key.space	n/a
357.51	0.1205	715020	keystroke_h	h	n/a
357.5855	0.15	715171	keystroke_e	e	n/a
357.7505	0.15	715501	keystroke_r	r	n/a
357.916	0.1195	715832	keystroke_a	a	n/a
358.05	0.2105	716100	keystroke_l	l	n/a
358.3655	0.1495	716731	keystroke_d	d	n/a
358.4705	0.105	716941	keystroke_Key.space	Key.space	n/a
358.6205	0.1345	717241	keystroke_s	s	n/a
358.725	0.091	717450	keystroke_e	e	n/a
358.995	0.03	717990	keystroke_e	e	n/a
359.01	0.0905	718020	keystroke_k	k	n/a
359.145	0.165	718290	keystroke_i	i	n/a
359.2205	0.1045	718441	keystroke_n	n	n/a
359.295	0.12	718590	keystroke_g	g	n/a
359.371	0.1195	718742	keystroke_Key.space	Key.space	n/a
359.506	0.1345	719012	keystroke_c	c	n/a
359.55	0.1805	719100	keystroke_o	o	n/a
359.641	0.1045	719282	keystroke_m	m	n/a
359.6705	0.165	719341	keystroke_p	p	n/a
359.807	0.118	719614	keystroke_a	a	n/a
359.895	0.0905	719790	keystroke_n	n	n/a
359.956	0.1345	719912	keystroke_i	i	n/a
360.0305	0.1645	720061	keystroke_e	e	n/a
360.1065	0.1335	720213	keystroke_s	s	n/a
360.256	0.0745	720512	keystroke_Key.enter	Key.enter	n/a
360.3345	5.0235	720669	prompt	n/a	thinking outdoor defects advertisement\n
360.9905	0.1345	721981	keystroke_t	t	n/a
361.0355	0.0745	722071	keystroke_h	h	n/a
361.095	0.1055	722190	keystroke_i	i	n/a
361.2155	0.1195	722431	keystroke_n	n	n/a
361.32	0.06	722640	keystroke_k	k	n/a
361.456	0.1505	722912	keystroke_i	i	n/a
361.5305	0.105	723061	keystroke_n	n	n/a
361.5755	0.1195	723151	keystroke_g	g	n/a
361.6655	0.135	723331	keystroke_Key.space	Key.space	n/a
361.7565	0.1935	723513	keystroke_o	o	n/a
361.86	0.105	723720	keystroke_u	u	n/a
361.935	0.105	723870	keystroke_t	t	n/a
362.1455	0.1495	724291	keystroke_d	d	n/a
362.28	0.03	724560	keystroke_o	o	n/a
362.3855	0.1205	724771	keystroke_o	o	n/a
362.4905	0.1345	724981	keystroke_r	r	n/a
362.58	0.1055	725160	keystroke_Key.space	Key.space	n/a
362.7	0.0755	725400	keystroke_d	d	n/a
362.8205	0.1195	725641	keystroke_e	e	n/a
362.955	0.151	725910	keystroke_f	f	n/a
363.0455	0.105	726091	keystroke_e	e	n/a
363.255	0.1055	726510	keystroke_c	c	n/a
363.4065	0.1495	726813	keystroke_t	t	n/a
363.51	0.1055	727020	keystroke_s	s	n/a
363.6005	0.09	727201	keystroke_Key.space	Key.space	n/a
363.706	0.119	727412	keystroke_a	a	n/a
363.81	0.1355	727620	keystroke_d	d	n/a
363.9755	0.1195	727951	keystroke_v	v	n/a
364.125	0.1205	728250	keystroke_e	e	n/a
364.2005	0.09	728401	keystroke_r	r	n/a
364.395	0.0905	728790	keystroke_t	t	n/a
364.4405	0.15	728881	keystroke_i	i	n/a
364.606	0.119	729212	keystroke_s	s	n/a
364.68	0.12	729360	keystroke_e	e	n/a
364.8455	0.1045	729691	keystroke_m	m	n/a
364.935	0.1355	729870	keystroke_e	e	n/a
365.025	0.12	730050	keystroke_n	n	n/a
365.16	0.1205	730320	keystroke_t	t	n/a
365.2655	0.0895	730531	keystroke_Key.enter	Key.enter	n/a
365.3605	5.7865	730721	prompt	n/a	consoles locking gaming keep\n
366.0455	0.12	732091	keystroke_c	c	n/a
366.0905	0.1345	732181	keystroke_o	o	n/a
366.1805	0.12	732361	keystroke_n	n	n/a
366.3005	0.1195	732601	keystroke_s	s	n/a
366.3755	0.075	732751	keystroke_o	o	n/a
366.54	0.1205	733080	keystroke_l	l	n/a
366.991	0.104	733982	keystroke_e	e	n/a
367.0805	0.1195	734161	keystroke_s	s	n/a
367.1855	0.09	734371	keystroke_Key.space	Key.space	n/a
367.41	0.045	734820	keystroke_l	l	n/a
367.5305	0.06	735061	keystroke_l	l	n/a
368.1005	0.1055	736201	keystroke_Key.backspace	Key.backspace	n/a
368.2505	0.0745	736501	keystroke_Key.backspace	Key.backspace	n/a
368.7455	0.0745	737491	keystroke_l	l	n/a
368.94	0.0755	737880	keystroke_o	o	n/a
369.3455	0.1795	738691	keystroke_c	c	n/a
369.51	0.03	739020	keystroke_k	k	n/a
369.6305	0.15	739261	keystroke_i	i	n/a
369.691	0.119	739382	keystroke_n	n	n/a
369.7655	0.12	739531	keystroke_g	g	n/a
369.8565	0.119	739713	keystroke_Key.space	Key.space	n/a
369.9905	0.1495	739981	keystroke_g	g	n/a
370.0505	0.135	740101	keystroke_a	a	n/a
370.125	0.1055	740250	keystroke_m	m	n/a
370.23	0.1205	740460	keystroke_i	i	n/a
370.306	0.104	740612	keystroke_n	n	n/a
370.3805	0.1195	740761	keystroke_g	g	n/a
370.44	0.1205	740880	keystroke_Key.space	Key.space	n/a
370.5455	0.105	741091	keystroke_k	k	n/a
370.6205	0.0745	741241	keystroke_e	e	n/a
370.8	0.09	741600	keystroke_e	e	n/a
370.8455	0.09	741691	keystroke_p	p	n/a
371.0705	0.075	742141	keystroke_Key.enter	Key.enter	n/a
371.15	4.422	742300	prompt	n/a	cheese hundreds router davis\n
371.91	0.1505	743820	keystroke_c	c	n/a
372.0455	0.0595	744091	keystroke_h	h	n/a
372.1205	0.0895	744241	keystroke_e	e	n/a
372.271	0.0895	744542	keystroke_e	e	n/a
372.4065	0.15	744813	keystroke_s	s	n/a
372.4805	0.12	744961	keystroke_e	e	n/a
372.5855	0.1205	745171	keystroke_Key.space	Key.space	n/a
372.7205	0.0745	745441	keystroke_h	h	n/a
372.885	0.0605	745770	keystroke_u	u	n/a
373.05	0.06	746100	keystroke_n	n	n/a
373.08	0.1355	746160	keystroke_d	d	n/a
373.2905	0.1495	746581	keystroke_r	r	n/a
373.3505	0.1055	746701	keystroke_e	e	n/a
373.575	0.135	747150	keystroke_d	d	n/a
373.6355	0.1205	747271	keystroke_s	s	n/a
373.8005	0.075	747601	keystroke_Key.space	Key.space	n/a
374.07	0.1805	748140	keystroke_r	r	n/a
374.1905	0.1495	748381	keystroke_o	o	n/a
374.295	0.1055	748590	keystroke_u	u	n/a
374.356	0.1195	748712	keystroke_t	t	n/a
374.4605	0.1345	748921	keystroke_e	e	n/a
374.52	0.136	749040	keystroke_r	r	n/a
374.64	0.0605	749280	keystroke_Key.space	Key.space	n/a
374.7155	0.15	749431	keystroke_d	d	n/a
374.94	0.2105	749880	keystroke_a	a	n/a
375.1655	0.0755	750331	keystroke_v	v	n/a
375.2405	0.135	750481	keystroke_i	i	n/a
375.3305	0.12	750661	keystroke_s	s	n/a
375.495	0.0755	750990	keystroke_Key.enter	Key.enter	n/a
375.575	5.6825	751150	prompt	n/a	temporary character bless milwaukee\n
376.306	0.1345	752612	keystroke_t	t	n/a
376.3655	0.165	752731	keystroke_e	e	n/a
376.5155	0.0905	753031	keystroke_m	m	n/a
376.5905	0.1665	753181	keystroke_p	p	n/a
376.6805	0.12	753361	keystroke_o	o	n/a
376.757	0.1185	753514	keystroke_r	r	n/a
376.8915	0.1335	753783	keystroke_a	a	n/a
377.0405	0.105	754081	keystroke_r	r	n/a
377.146	0.119	754292	keystroke_y	y	n/a
377.25	0.1355	754500	keystroke_Key.space	Key.space	n/a
377.7005	0.1195	755401	keystroke_c	c	n/a
377.7605	0.09	755521	keystroke_h	h	n/a
377.8355	0.1055	755671	keystroke_a	a	n/a
377.9255	0.12	755851	keystroke_r	r	n/a
378.0305	0.1045	756061	keystroke_a	a	n/a
378.15	0.1205	756300	keystroke_c	c	n/a
378.3305	0.09	756661	keystroke_t	t	n/a
378.406	0.165	756812	keystroke_e	e	n/a
378.495	0.1205	756990	keystroke_r	r	n/a
378.601	0.0745	757202	keystroke_Key.space	Key.space	n/a
378.7805	0.1045	757561	keystroke_b	b	n/a
378.8855	0.1225	757771	keystroke_l	l	n/a
378.976	0.1045	757952	keystroke_e	e	n/a
379.1705	0.075	758341	keystroke_s	s	n/a
379.3205	0.1055	758641	keystroke_s	s	n/a
379.395	0.0905	758790	keystroke_Key.space	Key.space	n/a
379.5155	0.12	759031	keystroke_m	m	n/a
379.9355	0.135	759871	keystroke_i	i	n/a
380.0405	0.12	760081	keystroke_l	l	n/a
380.341	0.1195	760682	keystroke_w	w	n/a
380.4455	0.1345	760891	keystroke_a	a	n/a
380.6105	0.075	761221	keystroke_u	u	n/a
380.8205	0.105	761641	keystroke_k	k	n/a
380.8955	0.0755	761791	keystroke_e	e	n/a
381.046	0.164	762092	keystroke_e	e	n/a
381.1955	0.0605	762391	keystroke_Key.enter	Key.enter	n/a
381.2605	6.4315	762521	prompt	n/a	computation perceived equality thorough\n
381.9755	0.1945	763951	keystroke_c	c	n/a
382.1855	0.18	764371	keystroke_o	o	n/a
382.2455	0.1045	764491	keystroke_m	m	n/a
382.3205	0.1655	764641	keystroke_p	p	n/a
382.4565	0.104	764913	keystroke_u	u	n/a
382.5155	0.135	765031	keystroke_t	t	n/a
382.6355	0.135	765271	keystroke_a	a	n/a
382.726	0.1195	765452	keystroke_t	t	n/a
382.786	0.1045	765572	keystroke_i	i	n/a
382.816	0.104	765632	keystroke_o	o	n/a
382.861	0.104	765722	keystroke_n	n	n/a
382.9065	0.135	765813	keystroke_Key.space	Key.space	n/a
383.0705	0.1355	766141	keystroke_p	p	n/a
383.1605	0.12	766321	keystroke_e	e	n/a
383.221	0.089	766442	keystroke_r	r	n/a
383.5065	0.074	767013	keystroke_c	c	n/a
383.6255	0.1205	767251	keystroke_e	e	n/a
383.731	0.104	767462	keystroke_i	i	n/a
383.821	0.1045	767642	keystroke_v	v	n/a
383.8805	0.0905	767761	keystroke_e	e	n/a
384.061	0.0895	768122	keystroke_d	d	n/a
384.1355	0.0895	768271	keystroke_Key.space	Key.space	n/a
384.676	0.135	769352	keystroke_e	e	n/a
384.8705	0.09	769741	keystroke_q	q	n/a
384.9605	0.15	769921	keystroke_u	u	n/a
385.1255	0.105	770251	keystroke_a	a	n/a
385.3655	0.1505	770731	keystroke_l	l	n/a
385.4255	0.1195	770851	keystroke_i	i	n/a
385.5305	0.135	771061	keystroke_t	t	n/a
385.6505	0.1055	771301	keystroke_y	y	n/a
385.741	0.1345	771482	keystroke_Key.space	Key.space	n/a
386.0105	0.1205	772021	keystroke_t	t	n/a
386.0855	0.09	772171	keystroke_h	h	n/a
386.2805	0.0905	772561	keystroke_o	o	n/a
386.6855	0.15	773371	keystroke_r	r	n/a
386.8205	0.165	773641	keystroke_o	o	n/a
386.911	0.1045	773822	keystroke_u	u	n/a
387.361	0.1195	774722	keystroke_g	g	n/a
387.4355	0.09	774871	keystroke_h	h	n/a
387.616	0.0745	775232	keystroke_Key.enter	Key.enter	n/a
387.695	5.502	775390	prompt	n/a	centers finance hunter victim\n
388.666	0.09	777332	keystroke_c	c	n/a
388.831	0.12	777662	keystroke_e	e	n/a
388.906	0.1055	777812	keystroke_n	n	n/a
389.012	0.089	778024	keystroke_t	t	n/a
389.131	0.0895	778262	keystroke_e	e	n/a
389.206	0.135	778412	keystroke_r	r	n/a
389.2955	0.1355	778591	keystroke_s	s	n/a
389.416	0.09	778832	keystroke_Key.space	Key.space	n/a
389.5205	0.1205	779041	keystroke_f	f	n/a
389.596	0.12	779192	keystroke_i	i	n/a
389.6565	0.119	779313	keystroke_n	n	n/a
389.881	0.1195	779762	keystroke_n	n	n/a
390.301	0.1195	780602	keystroke_Key.backspace	Key.backspace	n/a
390.451	0.135	780902	keystroke_a	a	n/a
390.601	0.1045	781202	keystroke_n	n	n/a
390.7205	0.09	781441	keystroke_c	c	n/a
390.931	0.0895	781862	keystroke_e	e	n/a
390.9755	0.0905	781951	keystroke_Key.space	Key.space	n/a
391.3355	0.0605	782671	keystroke_h	h	n/a
391.501	0.06	783002	keystroke_u	u	n/a
391.666	0.075	783332	keystroke_n	n	n/a
391.9055	0.0905	783811	keystroke_t	t	n/a
392.011	0.1495	784022	keystroke_e	e	n/a
392.1005	0.1055	784201	keystroke_r	r	n/a
392.191	0.0895	784382	keystroke_Key.space	Key.space	n/a
392.3115	0.104	784623	keystroke_v	v	n/a
392.401	0.0745	784802	keystroke_i	i	n/a
392.5065	0.1795	785013	keystroke_c	c	n/a
392.776	0.1495	785552	keystroke_t	t	n/a
392.866	0.12	785732	keystroke_i	i	n/a
392.911	0.09	785822	keystroke_m	m	n/a
393.121	0.0745	786242	keystroke_Key.enter	Key.enter	n/a
393.2	5.2625	786400	prompt	n/a	subsection jane outstanding many\n
394.1105	0.0905	788221	keystroke_s	s	n/a
394.246	0.0745	788492	keystroke_u	u	n/a
394.366	0.1045	788732	keystroke_b	b	n/a
394.6055	0.1055	789211	keystroke_s	s	n/a
394.666	0.12	789332	keystroke_e	e	n/a
394.8905	0.0905	789781	keystroke_c	c	n/a
395.041	0.135	790082	keystroke_t	t	n/a
395.1005	0.135	790201	keystroke_i	i	n/a
395.1605	0.1505	790321	keystroke_o	o	n/a
395.191	0.135	790382	keystroke_n	n	n/a
395.296	0.09	790592	keystroke_Key.space	Key.space	n/a
395.4905	0.1055	790981	keystroke_j	j	n/a
395.611	0.105	791222	keystroke_a	a	n/a
395.6855	0.1205	791371	keystroke_n	n	n/a
395.7755	0.1055	791551	keystroke_e	e	n/a
395.866	0.135	791732	keystroke_Key.space	Key.space	n/a
396.076	0.135	792152	keystroke_o	o	n/a
396.166	0.09	792332	keystroke_u	u	n/a
396.2415	0.0895	792483	keystroke_t	t	n/a
396.3905	0.1955	792781	keystroke_s	s	n/a
396.661	0.135	793322	keystroke_t	t	n/a
396.781	0.12	793562	keystroke_a	a	n/a
396.916	0.1345	793832	keystroke_n	n	n/a
397.1565	0.1495	794313	keystroke_d	d	n/a
397.216	0.1345	794432	keystroke_i	i	n/a
397.276	0.12	794552	keystroke_n	n	n/a
397.3805	0.0905	794761	keystroke_g	g	n/a
397.456	0.105	794912	keystroke_Key.space	Key.space	n/a
397.546	0.0895	795092	keystroke_m	m	n/a
397.6505	0.1205	795301	keystroke_a	a	n/a
397.726	0.075	795452	keystroke_n	n	n/a
397.876	0.0985	795752	keystroke_y	y	n/a
398.386	0.075	796772	keystroke_Key.enter	Key.enter	n/a
398.4675	5.3065	796935	prompt	n/a	australia abstract how's riders\n
399.1805	0.1205	798361	keystroke_a	a	n/a
399.286	0.0895	798572	keystroke_u	u	n/a
399.361	0.18	798722	keystroke_s	s	n/a
399.481	0.1045	798962	keystroke_t	t	n/a
399.631	0.15	799262	keystroke_r	r	n/a
399.6905	0.1355	799381	keystroke_a	a	n/a
399.841	0.166	799682	keystroke_l	l	n/a
399.9155	0.1355	799831	keystroke_i	i	n/a
400.0355	0.1205	800071	keystroke_a	a	n/a
400.1405	0.1055	800281	keystroke_Key.space	Key.space	n/a
400.351	0.15	800702	keystroke_a	a	n/a
400.561	0.135	801122	keystroke_b	b	n/a
400.696	0.15	801392	keystroke_s	s	n/a
400.8305	0.09	801661	keystroke_t	t	n/a
400.996	0.105	801992	keystroke_r	r	n/a
401.0565	0.0895	802113	keystroke_a	a	n/a
401.1905	0.12	802381	keystroke_c	c	n/a
401.3565	0.1045	802713	keystroke_t	t	n/a
401.4315	0.1195	802863	keystroke_Key.space	Key.space	n/a
401.5355	0.135	803071	keystroke_h	h	n/a
402.031	0.15	804062	keystroke_o	o	n/a
402.196	0.0755	804392	keystroke_w	w	n/a
402.586	0.1045	805172	keystroke_'	'	n/a
402.631	0.12	805262	keystroke_s	s	n/a
402.796	0.09	805592	keystroke_Key.space	Key.space	n/a
403.0355	0.1205	806071	keystroke_r	r	n/a
403.141	0.105	806282	keystroke_i	i	n/a
403.231	0.105	806462	keystroke_d	d	n/a
403.3955	0.1355	806791	keystroke_e	e	n/a
403.456	0.15	806912	keystroke_r	r	n/a
403.561	0.135	807122	keystroke_s	s	n/a
403.681	0.09	807362	keystroke_Key.enter	Key.enter	n/a
403.7775	5.9805	807555	prompt	n/a	meals activities worlds brooklyn\n
404.461	0.1955	808922	keystroke_m	m	n/a
404.581	0.1045	809162	keystroke_e	e	n/a
404.6705	0.0755	809341	keystroke_a	a	n/a
404.7305	0.121	809461	keystroke_l	l	n/a
404.823	0.1185	809646	keystroke_s	s	n/a
404.9265	0.1195	809853	keystroke_Key.space	Key.space	n/a
405.017	0.104	810034	keystroke_a	a	n/a
405.166	0.12	810332	keystroke_c	c	n/a
405.3305	0.12	810661	keystroke_t	t	n/a
405.436	0.06	810872	keystroke_i	i	n/a
405.511	0.12	811022	keystroke_v	v	n/a
405.616	0.0895	811232	keystroke_i	i	n/a
405.857	0.119	811714	keystroke_t	t	n/a
405.9755	0.1205	811951	keystroke_i	i	n/a
406.021	0.135	812042	keystroke_e	e	n/a
406.141	0.1345	812282	keystroke_s	s	n/a
406.246	0.1055	812492	keystroke_Key.space	Key.space	n/a
406.396	0.12	812792	keystroke_w	w	n/a
406.501	0.045	813002	keystroke_o	o	n/a
406.6505	0.0905	813301	keystroke_l	l	n/a
