onset	duration	sample	value	key	prompt_text
5.801	12.622	11602	prompt	n/a	the quick brown fox jumps over a lazy dog\n
7.281	0.1375	14562	keystroke	t	n/a
7.563	0.0905	15126	keystroke	h	n/a
7.7425	0.0905	15485	keystroke	e	n/a
8.018	0.1555	16036	keystroke	Key.space	n/a
8.5215	0.114	17043	keystroke	q	n/a
8.6925	0.0695	17385	keystroke	u	n/a
8.8825	0.0925	17765	keystroke	i	n/a
9.1005	0.113	18201	keystroke	c	n/a
9.235	0.0675	18470	keystroke	k	n/a
11.1465	0.094	22293	keystroke	Key.space	n/a
11.3655	0.091	22731	keystroke	b	n/a
11.5625	0.068	23125	keystroke	r	n/a
11.673	0.1135	23346	keystroke	o	n/a
11.9005	0.089	23801	keystroke	w	n/a
12.0115	0.067	24023	keystroke	n	n/a
12.2185	0.07	24437	keystroke	Key.space	n/a
12.6925	0.0905	25385	keystroke	f	n/a
12.82	0.114	25640	keystroke	o	n/a
13.0475	0.0915	26095	keystroke	x	n/a
13.1615	0.068	26323	keystroke	Key.space	n/a
13.367	0.1165	26734	keystroke	j	n/a
13.5265	0.091	27053	keystroke	u	n/a
13.7745	0.116	27549	keystroke	m	n/a
14.388	0.09	28776	keystroke	p	n/a
14.5	0.0715	29000	keystroke	s	n/a
14.6635	0.0695	29327	keystroke	Key.space	n/a
14.915	0.1365	29830	keystroke	o	n/a
15.086	0.0695	30172	keystroke	v	n/a
15.234	0.1605	30468	keystroke	e	n/a
15.372	0.091	30744	keystroke	r	n/a
15.494	0.1135	30988	keystroke	Key.space	n/a
15.6085	0.09	31217	keystroke	a	n/a
15.7365	0.0725	31473	keystroke	Key.space	n/a
16.104	0.249	32208	keystroke	l	n/a
16.354	0.1585	32708	keystroke	a	n/a
17.0255	0.1355	34051	keystroke	z	n/a
17.162	0.1115	34324	keystroke	y	n/a
17.4565	0.091	34913	keystroke	Key.space	n/a
17.7425	0.0895	35485	keystroke	d	n/a
17.889	0.162	35778	keystroke	o	n/a
18.127	0.091	36254	keystroke	g	n/a
18.3305	0.089	36661	keystroke	Key.enter	n/a
18.4285	8.7525	36857	prompt	n/a	neon puerto compilation discussion\n
19.2005	0.093	38401	keystroke	n	n/a
19.2935	0.089	38587	keystroke	e	n/a
19.4715	0.136	38943	keystroke	o	n/a
19.5835	0.1355	39167	keystroke	n	n/a
20.02	0.07	40040	keystroke	e	n/a
20.147	0.0665	40294	keystroke	Key.space	n/a
20.388	0.1145	40776	keystroke	p	n/a
20.73	0.0895	41460	keystroke	u	n/a
20.8575	0.114	41715	keystroke	e	n/a
21.017	0.0905	42034	keystroke	r	n/a
21.235	0.112	42470	keystroke	t	n/a
21.37	0.0925	42740	keystroke	o	n/a
21.65	0.093	43300	keystroke	Key.space	n/a
22.132	0.0905	44264	keystroke	c	n/a
22.282	0.1405	44564	keystroke	o	n/a
22.3535	0.1365	44707	keystroke	m	n/a
22.6765	0.136	45353	keystroke	p	n/a
23.5435	0.0675	47087	keystroke	i	n/a
23.778	0.1175	47556	keystroke	l	n/a
23.8485	0.1155	47697	keystroke	a	n/a
24.0445	0.091	48089	keystroke	t	n/a
24.1365	0.224	48273	keystroke	i	n/a
24.2255	0.158	48451	keystroke	o	n/a
24.2715	0.1565	48543	keystroke	n	n/a
24.628	0.091	49256	keystroke	Key.space	n/a
25.2905	0.0905	50581	keystroke	d	n/a
25.523	0.069	51046	keystroke	i	n/a
25.662	0.1135	51324	keystroke	s	n/a
25.848	0.092	51696	keystroke	c	n/a
26.0255	0.0495	52051	keystroke	u	n/a
26.2615	0.066	52523	keystroke	s	n/a
26.4205	0.093	52841	keystroke	s	n/a
26.4905	0.251	52981	keystroke	i	n/a
26.6025	0.137	53205	keystroke	o	n/a
26.6265	0.137	53253	keystroke	n	n/a
27.067	0.1115	54134	keystroke	Key.enter	n/a
27.185	7.236	54370	prompt	n/a	comm printer blend makers\n
28.171	0.093	56342	keystroke	c	n/a
28.3355	0.114	56671	keystroke	o	n/a
28.6105	0.115	57221	keystroke	n	n/a
29.4785	0.0915	58957	keystroke	Key.backspace	n/a
29.763	0.093	59526	keystroke	m	n/a
29.918	0.094	59836	keystroke	m	n/a
30.1585	0.068	60317	keystroke	Key.space	n/a
30.3745	0.115	60749	keystroke	p	n/a
30.5905	0.113	61181	keystroke	r	n/a
30.7255	0.091	61451	keystroke	i	n/a
30.7935	0.091	61587	keystroke	n	n/a
30.938	0.0935	61876	keystroke	t	n/a
31.138	0.138	62276	keystroke	e	n/a
31.23	0.113	62460	keystroke	r	n/a
31.3895	0.0685	62779	keystroke	Key.space	n/a
31.676	0.0685	63352	keystroke	b	n/a
31.9225	0.1155	63845	keystroke	l	n/a
32.1645	0.0915	64329	keystroke	e	n/a
32.2995	0.0905	64599	keystroke	n	n/a
32.587	0.0905	65174	keystroke	Key.space	n/a
32.9235	0.0935	65847	keystroke	Key.backspace	n/a
33.0415	0.09	66083	keystroke	d	n/a
33.2495	0.0915	66499	keystroke	Key.space	n/a
33.4715	0.114	66943	keystroke	m	n/a
33.608	0.114	67216	keystroke	a	n/a
33.7435	0.116	67487	keystroke	k	n/a
33.8975	0.114	67795	keystroke	e	n/a
34.0125	0.1155	68025	keystroke	r	n/a
34.1705	0.0685	68341	keystroke	s	n/a
34.3265	0.093	68653	keystroke	Key.enter	n/a
34.426	10.6015	68852	prompt	n/a	portuguese rough institutes stage\n
35.2565	0.089	70513	keystroke	p	n/a
35.4355	0.09	70871	keystroke	o	n/a
35.548	0.0685	71096	keystroke	r	n/a
35.7225	0.09	71445	keystroke	t	n/a
35.924	0.089	71848	keystroke	u	n/a
36.237	0.093	72474	keystroke	g	n/a
36.4015	0.091	72803	keystroke	u	n/a
37.2095	0.069	74419	keystroke	e	n/a
37.4255	0.09	74851	keystroke	s	n/a
37.6065	0.112	75213	keystroke	e	n/a
37.9355	0.068	75871	keystroke	Key.space	n/a
38.1725	0.092	76345	keystroke	r	n/a
38.2855	0.091	76571	keystroke	o	n/a
38.5175	0.0915	77035	keystroke	u	n/a
38.6505	0.091	77301	keystroke	g	n/a
38.7425	0.091	77485	keystroke	h	n/a
39.003	0.0895	78006	keystroke	Key.space	n/a
39.2645	0.138	78529	keystroke	i	n/a
39.3565	0.114	78713	keystroke	n	n/a
39.4925	0.1145	78985	keystroke	s	n/a
39.8105	0.0915	79621	keystroke	t	n/a
39.961	0.092	79922	keystroke	i	n/a
40.216	0.1135	80432	keystroke	t	n/a
40.5365	0.07	81073	keystroke	u	n/a
40.9135	0.092	81827	keystroke	t	n/a
41.227	0.1145	82454	keystroke	e	n/a
41.456	0.0925	82912	keystroke	s	n/a
41.842	0.114	83684	keystroke	Key.space	n/a
42.137	0.0695	84274	keystroke	a	n/a
42.5735	0.158	85147	keystroke	s	n/a
42.6625	0.138	85325	keystroke	Key.backspace	n/a
43.2765	0.067	86553	keystroke	Key.backspace	n/a
43.5635	0.045	87127	keystroke	s	n/a
43.922	0.1175	87844	keystroke	t	n/a
44.061	0.162	88122	keystroke	a	n/a
44.26	0.09	88520	keystroke	g	n/a
44.502	0.068	89004	keystroke	e	n/a
44.955	0.07	89910	keystroke	Key.enter	n/a
45.0325	8.418	90065	prompt	n/a	broker institutes solar flash\n
45.8055	0.069	91611	keystroke	b	n/a
45.9335	0.09	91867	keystroke	r	n/a
46.0785	0.137	92157	keystroke	o	n/a
46.1925	0.114	92385	keystroke	k	n/a
46.3075	0.1345	92615	keystroke	e	n/a
46.443	0.089	92886	keystroke	r	n/a
46.5945	0.0885	93189	keystroke	Key.space	n/a
46.9675	0.1395	93935	keystroke	i	n/a
47.036	0.14	94072	keystroke	n	n/a
47.226	0.07	94452	keystroke	s	n/a
47.6285	0.0685	95257	keystroke	t	n/a
48.005	0.114	96010	keystroke	i	n/a
48.4155	0.176	96831	keystroke	t	n/a
49.506	0.0685	99012	keystroke	u	n/a
49.7685	0.07	99537	keystroke	t	n/a
49.8795	0.113	99759	keystroke	e	n/a
50.0825	0.067	100165	keystroke	s	n/a
50.2205	0.092	100441	keystroke	Key.space	n/a
50.4535	0.092	100907	keystroke	s	n/a
50.6255	0.0445	101251	keystroke	o	n/a
50.836	0.1145	101672	keystroke	l	n/a
50.904	0.134	101808	keystroke	a	n/a
51.094	0.091	102188	keystroke	r	n/a
51.253	0.092	102506	keystroke	Key.space	n/a
51.838	0.1335	103676	keystroke	d	n/a
52.253	0.1365	104506	keystroke	Key.backspace	n/a
52.4115	0.089	104823	keystroke	f	n/a
52.5415	0.092	105083	keystroke	l	n/a
52.6105	0.138	105221	keystroke	a	n/a
52.8315	0.0915	105663	keystroke	s	n/a
53.0335	0.09	106067	keystroke	h	n/a
53.3335	0.115	106667	keystroke	Key.enter	n/a
53.4555	6.7425	106911	prompt	n/a	represent reply nasty clerk\n
54.171	0.1165	108342	keystroke	r	n/a
54.262	0.115	108524	keystroke	e	n/a
54.416	0.1375	108832	keystroke	p	n/a
54.603	0.1355	109206	keystroke	r	n/a
54.7155	0.114	109431	keystroke	e	n/a
54.9785	0.0925	109957	keystroke	s	n/a
55.1795	0.135	110359	keystroke	e	n/a
55.423	0.135	110846	keystroke	n	n/a
55.5795	0.093	111159	keystroke	t	n/a
55.7135	0.0935	111427	keystroke	Key.space	n/a
56.234	0.092	112468	keystroke	r	n/a
56.386	0.134	112772	keystroke	e	n/a
56.543	0.138	113086	keystroke	p	n/a
56.612	0.137	113224	keystroke	l	n/a
56.97	0.113	113940	keystroke	y	n/a
57.28	0.0925	114560	keystroke	Key.space	n/a
57.6095	0.0925	115219	keystroke	n	n/a
57.723	0.114	115446	keystroke	a	n/a
57.943	0.092	115886	keystroke	s	n/a
58.2705	0.0915	116541	keystroke	t	n/a
58.487	0.091	116974	keystroke	y	n/a
58.8215	0.09	117643	keystroke	Key.space	n/a
59.31	0.0915	118620	keystroke	c	n/a
59.5175	0.091	119035	keystroke	l	n/a
59.63	0.1355	119260	keystroke	e	n/a
59.767	0.1115	119534	keystroke	r	n/a
59.9185	0.091	119837	keystroke	k	n/a
60.105	0.091	120210	keystroke	Key.enter	n/a
60.2055	7.002	120411	prompt	n/a	ties cons shepherd salaries\n
60.9955	0.0685	121991	keystroke	t	n/a
61.172	0.095	122344	keystroke	i	n/a
61.268	0.089	122536	keystroke	e	n/a
61.477	0.093	122954	keystroke	s	n/a
61.5925	0.092	123185	keystroke	Key.space	n/a
61.796	0.0925	123592	keystroke	c	n/a
61.8635	0.118	123727	keystroke	o	n/a
61.934	0.1375	123868	keystroke	n	n/a
62.093	0.092	124186	keystroke	s	n/a
62.3955	0.0915	124791	keystroke	Key.space	n/a
62.6245	0.113	125249	keystroke	s	n/a
62.8815	0.092	125763	keystroke	h	n/a
63.068	0.1575	126136	keystroke	e	n/a
63.469	0.1605	126938	keystroke	p	n/a
64.5115	0.0695	129023	keystroke	h	n/a
64.5815	0.159	129163	keystroke	e	n/a
64.7415	0.111	129483	keystroke	r	n/a
64.9985	0.115	129997	keystroke	d	n/a
65.4965	0.07	130993	keystroke	Key.space	n/a
65.6365	0.1145	131273	keystroke	s	n/a
65.839	0.116	131678	keystroke	a	n/a
65.991	0.111	131982	keystroke	l	n/a
66.152	0.092	132304	keystroke	a	n/a
66.347	0.069	132694	keystroke	r	n/a
66.567	0.067	133134	keystroke	i	n/a
66.665	0.113	133330	keystroke	e	n/a
66.904	0.094	133808	keystroke	s	n/a
67.1135	0.0915	134227	keystroke	Key.enter	n/a
67.2145	6.4015	134429	prompt	n/a	pledge briefs access miami\n
67.92	0.161	135840	keystroke	p	n/a
68.056	0.114	136112	keystroke	l	n/a
68.306	0.1145	136612	keystroke	e	n/a
68.5145	0.112	137029	keystroke	d	n/a
69.1715	0.069	138343	keystroke	g	n/a
69.2775	0.135	138555	keystroke	e	n/a
69.588	0.071	139176	keystroke	Key.space	n/a
70.0585	0.069	140117	keystroke	b	n/a
70.2125	0.113	140425	keystroke	r	n/a
70.3555	0.091	140711	keystroke	i	n/a
70.4705	0.112	140941	keystroke	e	n/a
70.7015	0.091	141403	keystroke	f	n/a
70.8845	0.092	141769	keystroke	s	n/a
71.0955	0.092	142191	keystroke	Key.space	n/a
71.359	0.1385	142718	keystroke	a	n/a
71.5885	0.0685	143177	keystroke	c	n/a
71.7085	0.114	143417	keystroke	c	n/a
71.853	0.09	143706	keystroke	e	n/a
72.0325	0.068	144065	keystroke	s	n/a
72.1745	0.115	144349	keystroke	s	n/a
72.3115	0.1135	144623	keystroke	Key.space	n/a
72.5965	0.0925	145193	keystroke	m	n/a
72.764	0.114	145528	keystroke	i	n/a
72.879	0.13	145758	keystroke	a	n/a
73.092	0.092	146184	keystroke	m	n/a
73.244	0.115	146488	keystroke	i	n/a
73.5225	0.092	147045	keystroke	Key.enter	n/a
73.621	10.794	147242	prompt	n/a	florist burning dominican designed\n
74.6445	0.092	149289	keystroke	f	n/a
74.759	0.069	149518	keystroke	l	n/a
74.9335	0.091	149867	keystroke	o	n/a
75.09	0.069	150180	keystroke	r	n/a
75.234	0.0665	150468	keystroke	i	n/a
75.3245	0.112	150649	keystroke	s	n/a
75.566	0.091	151132	keystroke	t	n/a
75.7035	0.091	151407	keystroke	Key.space	n/a
76.0355	0.089	152071	keystroke	b	n/a
76.3345	0.0455	152669	keystroke	r	n/a
76.46	0.0915	152920	keystroke	u	n/a
76.7415	0.069	153483	keystroke	Key.backspace	n/a
76.865	0.11	153730	keystroke	Key.backspace	n/a
77.309	0.0695	154618	keystroke	u	n/a
77.4425	0.067	154885	keystroke	r	n/a
77.6055	0.092	155211	keystroke	n	n/a
77.7395	0.161	155479	keystroke	i	n/a
77.8315	0.137	155663	keystroke	n	n/a
78.3105	0.093	156621	keystroke	g	n/a
78.445	0.115	156890	keystroke	Key.space	n/a
79.055	0.0905	158110	keystroke	d	n/a
79.177	0.16	158354	keystroke	o	n/a
79.268	0.161	158536	keystroke	m	n/a
79.499	0.161	158998	keystroke	i	n/a
79.591	0.114	159182	keystroke	n	n/a
80.33	0.1165	160660	keystroke	i	n/a
80.562	0.1155	161124	keystroke	c	n/a
80.6995	0.114	161399	keystroke	a	n/a
81.2155	0.068	162431	keystroke	e	n/a
81.5955	0.1365	163191	keystroke	Key.backspace	n/a
81.991	0.1135	163982	keystroke	n	n/a
82.249	0.069	164498	keystroke	Key.space	n/a
82.4315	0.0695	164863	keystroke	d	n/a
82.553	0.091	165106	keystroke	e	n/a
82.906	0.1125	165812	keystroke	s	n/a
83.394	0.113	166788	keystroke	i	n/a
83.584	0.069	167168	keystroke	g	n/a
83.716	0.09	167432	keystroke	n	n/a
83.827	0.163	167654	keystroke	e	n/a
84.012	0.112	168024	keystroke	d	n/a
84.298	0.115	168596	keystroke	Key.enter	n/a
84.4205	8.6105	168841	prompt	n/a	folk boots romance crops\n
85.231	0.068	170462	keystroke	f	n/a
85.524	0.0915	171048	keystroke	o	n/a
85.708	0.0895	171416	keystroke	l	n/a
85.8835	0.093	171767	keystroke	d	n/a
86.0285	0.09	172057	keystroke	Key.space	n/a
87.228	0.1135	174456	keystroke	Key.backspace	n/a
87.5755	0.091	175151	keystroke	k	n/a
88.0825	0.0675	176165	keystroke	Key.backspace	n/a
88.22	0.092	176440	keystroke	Key.backspace	n/a
88.607	0.07	177214	keystroke	k	n/a
88.812	0.07	177624	keystroke	Key.space	n/a
88.966	0.093	177932	keystroke	b	n/a
89.1535	0.07	178307	keystroke	o	n/a
89.271	0.1115	178542	keystroke	o	n/a
89.405	0.0915	178810	keystroke	t	n/a
89.6065	0.0935	179213	keystroke	s	n/a
89.7705	0.115	179541	keystroke	Key.space	n/a
90.217	0.0895	180434	keystroke	r	n/a
90.3845	0.115	180769	keystroke	o	n/a
90.5455	0.095	181091	keystroke	m	n/a
90.662	0.114	181324	keystroke	a	n/a
90.799	0.068	181598	keystroke	n	n/a
91.0765	0.093	182153	keystroke	c	n/a
91.2125	0.1145	182425	keystroke	e	n/a
91.4125	0.094	182825	keystroke	Key.space	n/a
92.0535	0.1125	184107	keystroke	c	n/a
92.285	0.089	184570	keystroke	r	n/a
92.439	0.0695	184878	keystroke	o	n/a
92.6255	0.0945	185251	keystroke	p	n/a
92.721	0.0905	185442	keystroke	s	n/a
92.9375	0.0905	185875	keystroke	Key.enter	n/a
93.0355	6.8355	186071	prompt	n/a	trinity ridge reduced ring\n
93.7745	0.1145	187549	keystroke	t	n/a
93.923	0.0905	187846	keystroke	r	n/a
94.075	0.1125	188150	keystroke	i	n/a
94.275	0.0905	188550	keystroke	n	n/a
94.424	0.112	188848	keystroke	i	n/a
94.626	0.069	189252	keystroke	t	n/a
94.836	0.069	189672	keystroke	y	n/a
95.214	0.0905	190428	keystroke	Key.space	n/a
95.556	0.07	191112	keystroke	r	n/a
95.715	0.0895	191430	keystroke	i	n/a
95.867	0.092	191734	keystroke	d	n/a
96.1015	0.1145	192203	keystroke	g	n/a
96.239	0.089	192478	keystroke	e	n/a
96.421	0.09	192842	keystroke	Key.space	n/a
96.887	0.091	193774	keystroke	r	n/a
96.954	0.0935	193908	keystroke	e	n/a
97.223	0.091	194446	keystroke	d	n/a
97.432	0.092	194864	keystroke	u	n/a
97.573	0.0905	195146	keystroke	c	n/a
97.748	0.115	195496	keystroke	e	n/a
97.963	0.0445	195926	keystroke	d	n/a
98.197	0.115	196394	keystroke	Key.space	n/a
99.1605	0.069	198321	keystroke	r	n/a
99.2935	0.134	198587	keystroke	i	n/a
99.3825	0.1135	198765	keystroke	n	n/a
99.632	0.069	199264	keystroke	g	n/a
99.777	0.091	199554	keystroke	Key.enter	n/a
99.8745	7.442	199749	prompt	n/a	computed wizard fiction unwrap\n
100.5605	0.0905	201121	keystroke	c	n/a
100.681	0.116	201362	keystroke	o	n/a
100.7735	0.093	201547	keystroke	m	n/a
100.917	0.091	201834	keystroke	p	n/a
101.168	0.0695	202336	keystroke	u	n/a
101.31	0.047	202620	keystroke	t	n/a
101.426	0.1605	202852	keystroke	e	n/a
101.5865	0.1145	203173	keystroke	d	n/a
101.802	0.07	203604	keystroke	Key.space	n/a
102.1305	0.0905	204261	keystroke	w	n/a
102.3025	0.093	204605	keystroke	i	n/a
102.5565	0.09	205113	keystroke	z	n/a
102.7635	0.115	205527	keystroke	a	n/a
102.9605	0.0905	205921	keystroke	r	n/a
103.191	0.089	206382	keystroke	d	n/a
103.355	0.089	206710	keystroke	Key.space	n/a
103.8465	0.069	207693	keystroke	f	n/a
103.9915	0.091	207983	keystroke	i	n/a
104.185	0.069	208370	keystroke	c	n/a
104.4165	0.069	208833	keystroke	t	n/a
104.5085	0.228	209017	keystroke	i	n/a
104.6225	0.1165	209245	keystroke	o	n/a
104.645	0.1375	209290	keystroke	n	n/a
104.9315	0.094	209863	keystroke	Key.space	n/a
105.3655	0.114	210731	keystroke	u	n/a
105.5015	0.1115	211003	keystroke	n	n/a
106.127	0.136	212254	keystroke	w	n/a
106.334	0.114	212668	keystroke	r	n/a
106.5425	0.113	213085	keystroke	a	n/a
106.8175	0.135	213635	keystroke	p	n/a
107.225	0.09	214450	keystroke	Key.enter	n/a
107.321	8.8055	214642	prompt	n/a	hawaiian understood trusted manager\n
108.095	0.07	216190	keystroke	h	n/a
108.188	0.091	216376	keystroke	a	n/a
108.382	0.093	216764	keystroke	w	n/a
108.554	0.112	217108	keystroke	a	n/a
108.723	0.115	217446	keystroke	i	n/a
109.12	0.0905	218240	keystroke	i	n/a
109.3985	0.1135	218797	keystroke	n	n/a
109.8725	0.113	219745	keystroke	Key.backspace	n/a
110.033	0.0905	220066	keystroke	a	n/a
110.1645	0.1145	220329	keystroke	n	n/a
110.41	0.0905	220820	keystroke	Key.space	n/a
110.913	0.095	221826	keystroke	u	n/a
111.097	0.093	222194	keystroke	n	n/a
111.283	0.115	222566	keystroke	d	n/a
111.5215	0.111	223043	keystroke	e	n/a
111.8075	0.1125	223615	keystroke	r	n/a
112.336	0.113	224672	keystroke	s	n/a
112.623	0.069	225246	keystroke	t	n/a
112.752	0.07	225504	keystroke	o	n/a
112.882	0.114	225764	keystroke	o	n/a
113.052	0.0895	226104	keystroke	d	n/a
113.2975	0.0905	226595	keystroke	Key.space	n/a
113.6805	0.112	227361	keystroke	t	n/a
113.8445	0.093	227689	keystroke	r	n/a
114.0515	0.09	228103	keystroke	u	n/a
114.1715	0.07	228343	keystroke	s	n/a
114.3795	0.091	228759	keystroke	t	n/a
114.5165	0.141	229033	keystroke	e	n/a
114.6335	0.114	229267	keystroke	d	n/a
114.809	0.0925	229618	keystroke	Key.space	n/a
115.096	0.09	230192	keystroke	m	n/a
115.187	0.0915	230374	keystroke	a	n/a
115.3255	0.092	230651	keystroke	n	n/a
115.447	0.0935	230894	keystroke	a	n/a
115.662	0.091	231324	keystroke	g	n/a
115.786	0.138	231572	keystroke	e	n/a
115.9015	0.0895	231803	keystroke	r	n/a
116.013	0.1115	232026	keystroke	Key.enter	n/a
116.1315	12.047	232263	prompt	n/a	climb alexandria paragraphs bucks\n
116.83	0.0905	233660	keystroke	c	n/a
116.952	0.091	233904	keystroke	l	n/a
117.166	0.116	234332	keystroke	i	n/a
117.368	0.0925	234736	keystroke	m	n/a
117.6565	0.048	235313	keystroke	b	n/a
117.8895	0.069	235779	keystroke	Key.space	n/a
118.123	0.0915	236246	keystroke	a	n/a
118.3495	0.112	236699	keystroke	l	n/a
118.595	0.115	237190	keystroke	e	n/a
118.931	0.111	237862	keystroke	x	n/a
119.4685	0.1155	238937	keystroke	a	n/a
119.674	0.114	239348	keystroke	c	n/a
120.2835	0.069	240567	keystroke	Key.backspace	n/a
120.944	0.118	241888	keystroke	=	n/a
121.475	0.116	242950	keystroke	Key.backspace	n/a
121.646	0.094	243292	keystroke	Key.backspace	n/a
122.1975	0.093	244395	keystroke	a	n/a
122.321	0.0935	244642	keystroke	n	n/a
122.912	0.092	245824	keystroke	d	n/a
123.125	0.0895	246250	keystroke	r	n/a
123.2665	0.116	246533	keystroke	i	n/a
123.423	0.092	246846	keystroke	a	n/a
123.6045	0.0895	247209	keystroke	Key.space	n/a
124.233	0.0915	248466	keystroke	p	n/a
124.3475	0.111	248695	keystroke	a	n/a
124.502	0.115	249004	keystroke	r	n/a
124.663	0.113	249326	keystroke	a	n/a
124.889	0.1135	249778	keystroke	g	n/a
125.2735	0.092	250547	keystroke	r	n/a
125.4465	0.113	250893	keystroke	a	n/a
125.5855	0.0905	251171	keystroke	p	n/a
125.77	0.0915	251540	keystroke	h	n/a
125.924	0.068	251848	keystroke	s	n/a
126.1185	0.0915	252237	keystroke	Key.space	n/a
126.749	0.07	253498	keystroke	b	n/a
126.903	0.0915	253806	keystroke	u	n/a
127.0975	0.091	254195	keystroke	c	n/a
127.2275	0.091	254455	keystroke	k	n/a
127.3395	0.0905	254679	keystroke	s	n/a
128.084	0.092	256168	keystroke	Key.enter	n/a
128.1825	10.025	256365	prompt	n/a	pumps thumbs examination southern\n
128.9735	0.093	257947	keystroke	p	n/a
129.211	0.0925	258422	keystroke	u	n/a
129.434	0.091	258868	keystroke	m	n/a
129.5915	0.115	259183	keystroke	p	n/a
129.707	0.065	259414	keystroke	s	n/a
129.868	0.067	259736	keystroke	Key.space	n/a
130.2785	0.069	260557	keystroke	t	n/a
130.3475	0.091	260695	keystroke	h	n/a
130.502	0.0705	261004	keystroke	i	n/a
130.549	0.0255	261098	keystroke	u	n/a
130.966	0.09	261932	keystroke	Key.backspace	n/a
131.35	0.135	262700	keystroke	Key.backspace	n/a
131.679	0.092	263358	keystroke	u	n/a
131.909	0.09	263818	keystroke	m	n/a
132.2425	0.0685	264485	keystroke	b	n/a
132.378	0.067	264756	keystroke	s	n/a
132.541	0.0915	265082	keystroke	Key.space	n/a
132.9285	0.114	265857	keystroke	e	n/a
133.283	0.0925	266566	keystroke	x	n/a
133.437	0.09	266874	keystroke	a	n/a
133.5755	0.093	267151	keystroke	m	n/a
133.7715	0.133	267543	keystroke	i	n/a
133.8595	0.114	267719	keystroke	n	n/a
135.0915	0.113	270183	keystroke	a	n/a
135.6065	0.1575	271213	keystroke	t	n/a
135.8245	0.2305	271649	keystroke	i	n/a
135.916	0.141	271832	keystroke	o	n/a
135.9855	0.1135	271971	keystroke	n	n/a
136.6565	0.092	273313	keystroke	Key.space	n/a
136.9735	0.047	273947	keystroke	s	n/a
137.1205	0.0945	274241	keystroke	o	n/a
137.3145	0.09	274629	keystroke	u	n/a
137.5505	0.111	275101	keystroke	t	n/a
137.6845	0.069	275369	keystroke	h	n/a
137.729	0.137	275458	keystroke	e	n/a
137.819	0.092	275638	keystroke	r	n/a
138.1385	0.067	276277	keystroke	Key.enter	n/a
138.2125	9.239	276425	prompt	n/a	modems transcripts diving buildings\n
139.322	0.091	278644	keystroke	m	n/a
139.483	0.1145	278966	keystroke	o	n/a
140.114	0.181	280228	keystroke	d	n/a
140.3635	0.069	280727	keystroke	e	n/a
140.809	0.1565	281618	keystroke	m	n/a
140.9885	0.069	281977	keystroke	s	n/a
141.1565	0.1355	282313	keystroke	Key.space	n/a
141.763	0.137	283526	keystroke	t	n/a
141.9015	0.1775	283803	keystroke	r	n/a
142.055	0.135	284110	keystroke	a	n/a
142.263	0.091	284526	keystroke	n	n/a
142.4145	0.0465	284829	keystroke	s	n/a
142.765	0.115	285530	keystroke	c	n/a
143.1565	0.068	286313	keystroke	r	n/a
143.331	0.0705	286662	keystroke	i	n/a
143.533	0.114	287066	keystroke	p	n/a
143.703	0.114	287406	keystroke	t	n/a
143.891	0.094	287782	keystroke	s	n/a
144.026	0.1145	288052	keystroke	Key.space	n/a
144.44	0.113	288880	keystroke	d	n/a
144.615	0.1115	289230	keystroke	i	n/a
144.7695	0.094	289539	keystroke	v	n/a
144.8645	0.1585	289729	keystroke	i	n/a
144.9765	0.1355	289953	keystroke	n	n/a
145.1125	0.065	290225	keystroke	g	n/a
145.2485	0.095	290497	keystroke	Key.space	n/a
145.7675	0.092	291535	keystroke	b	n/a
145.933	0.091	291866	keystroke	u	n/a
146.132	0.092	292264	keystroke	i	n/a
146.3705	0.0905	292741	keystroke	l	n/a
146.483	0.09	292966	keystroke	d	n/a
146.606	0.138	293212	keystroke	i	n/a
146.72	0.071	293440	keystroke	n	n/a
146.812	0.0915	293624	keystroke	g	n/a
146.977	0.09	293954	keystroke	s	n/a
147.358	0.091	294716	keystroke	Key.enter	n/a
147.456	6.1575	294912	prompt	n/a	prairie front gale tight\n
148.302	0.114	296604	keystroke	p	n/a
148.4735	0.117	296947	keystroke	r	n/a
148.6335	0.112	297267	keystroke	a	n/a
149.353	0.0945	298706	keystroke	i	n/a
149.5425	0.1145	299085	keystroke	r	n/a
149.8075	0.113	299615	keystroke	i	n/a
150.078	0.112	300156	keystroke	e	n/a
150.3535	0.0915	300707	keystroke	Key.space	n/a
150.722	0.09	301444	keystroke	f	n/a
150.8615	0.0685	301723	keystroke	r	n/a
150.951	0.1365	301902	keystroke	o	n/a
151.1085	0.092	302217	keystroke	n	n/a
151.2805	0.092	302561	keystroke	t	n/a
151.4025	0.092	302805	keystroke	Key.space	n/a
151.837	0.114	303674	keystroke	g	n/a
151.984	0.1375	303968	keystroke	a	n/a
152.1435	0.112	304287	keystroke	l	n/a
152.2095	0.094	304419	keystroke	e	n/a
152.422	0.1105	304844	keystroke	Key.space	n/a
152.631	0.0465	305262	keystroke	t	n/a
152.745	0.1155	305490	keystroke	i	n/a
152.925	0.1125	305850	keystroke	g	n/a
153.059	0.0675	306118	keystroke	h	n/a
153.1665	0.092	306333	keystroke	t	n/a
153.5205	0.091	307041	keystroke	Key.enter	n/a
153.6175	7.923	307235	prompt	n/a	london pros absolute gauge\n
154.365	0.116	308730	keystroke	l	n/a
154.5795	0.139	309159	keystroke	o	n/a
154.672	0.1605	309344	keystroke	n	n/a
154.892	0.09	309784	keystroke	d	n/a
155.006	0.1345	310012	keystroke	o	n/a
155.0725	0.134	310145	keystroke	n	n/a
155.4055	0.091	310811	keystroke	Key.space	n/a
155.806	0.137	311612	keystroke	p	n/a
156.004	0.069	312008	keystroke	r	n/a
156.115	0.115	312230	keystroke	o	n/a
156.445	0.0695	312890	keystroke	s	n/a
156.597	0.091	313194	keystroke	Key.space	n/a
156.9475	0.1135	313895	keystroke	a	n/a
157.108	0.089	314216	keystroke	b	n/a
157.4	0.0925	314800	keystroke	s	n/a
157.541	0.132	315082	keystroke	o	n/a
158.1145	0.113	316229	keystroke	l	n/a
158.9715	0.069	317943	keystroke	u	n/a
159.0855	0.135	318171	keystroke	t	n/a
159.2655	0.0455	318531	keystroke	e	n/a
159.3445	0.091	318689	keystroke	Key.space	n/a
159.8135	0.1125	319627	keystroke	g	n/a
159.948	0.114	319896	keystroke	a	n/a
160.1885	0.0895	320377	keystroke	u	n/a
160.5765	0.1345	321153	keystroke	g	n/a
160.774	0.113	321548	keystroke	e	n/a
161.446	0.092	322892	keystroke	Key.enter	n/a
161.545	6.193	323090	prompt	n/a	tops cultures courage painful\n
162.197	0.114	324394	keystroke	t	n/a
162.3905	0.0695	324781	keystroke	o	n/a
162.565	0.091	325130	keystroke	p	n/a
162.657	0.067	325314	keystroke	s	n/a
162.8345	0.0905	325669	keystroke	Key.space	n/a
163.053	0.071	326106	keystroke	c	n/a
163.198	0.07	326396	keystroke	u	n/a
163.432	0.094	326864	keystroke	l	n/a
163.59	0.0905	327180	keystroke	t	n/a
163.701	0.092	327402	keystroke	u	n/a
163.876	0.16	327752	keystroke	r	n/a
164.0365	0.132	328073	keystroke	e	n/a
164.3335	0.112	328667	keystroke	s	n/a
164.5445	0.092	329089	keystroke	Key.space	n/a
164.8705	0.0895	329741	keystroke	c	n/a
164.983	0.0695	329966	keystroke	o	n/a
165.167	0.09	330334	keystroke	u	n/a
165.279	0.113	330558	keystroke	r	n/a
165.465	0.115	330930	keystroke	a	n/a
165.628	0.114	331256	keystroke	g	n/a
165.763	0.113	331526	keystroke	e	n/a
165.976	0.092	331952	keystroke	Key.space	n/a
166.314	0.1155	332628	keystroke	p	n/a
166.4305	0.0905	332861	keystroke	a	n/a
166.544	0.1165	333088	keystroke	i	n/a
166.661	0.132	333322	keystroke	n	n/a
166.933	0.093	333866	keystroke	f	n/a
167.114	0.068	334228	keystroke	u	n/a
167.37	0.1125	334740	keystroke	l	n/a
167.665	0.071	335330	keystroke	Key.enter	n/a
167.7445	10.3425	335489	prompt	n/a	battlefield rational vacuum gmbh\n
168.491	0.072	336982	keystroke	b	n/a
168.537	0.1155	337074	keystroke	a	n/a
168.754	0.069	337508	keystroke	t	n/a
168.8935	0.071	337787	keystroke	t	n/a
168.986	0.1155	337972	keystroke	l	n/a
169.123	0.069	338246	keystroke	e	n/a
169.7435	0.069	339487	keystroke	f	n/a
170.0015	0.0925	340003	keystroke	i	n/a
170.1265	0.1135	340253	keystroke	e	n/a
170.296	0.137	340592	keystroke	l	n/a
170.456	0.115	340912	keystroke	d	n/a
171.213	0.092	342426	keystroke	Key.space	n/a
171.446	0.114	342892	keystroke	r	n/a
171.611	0.1135	343222	keystroke	a	n/a
171.795	0.067	343590	keystroke	t	n/a
171.909	0.2955	343818	keystroke	i	n/a
172.0445	0.1625	344089	keystroke	o	n/a
172.1585	0.135	344317	keystroke	n	n/a
172.4115	0.095	344823	keystroke	a	n/a
172.574	0.114	345148	keystroke	l	n/a
172.966	0.0915	345932	keystroke	Key.space	n/a
173.402	0.116	346804	keystroke	v	n/a
173.5385	0.156	347077	keystroke	a	n/a
173.7765	0.07	347553	keystroke	c	n/a
173.9195	0.0905	347839	keystroke	c	n/a
174.5685	0.091	349137	keystroke	Key.backspace	n/a
174.856	0.0905	349712	keystroke	u	n/a
175.359	0.115	350718	keystroke	u	n/a
175.7905	0.14	351581	keystroke	m	n/a
176.101	0.092	352202	keystroke	Key.space	n/a
176.294	0.0895	352588	keystroke	g	n/a
176.563	0.116	353126	keystroke	m	n/a
176.892	0.113	353784	keystroke	b	n/a
177.6305	0.0915	355261	keystroke	h	n/a
177.9935	0.091	355987	keystroke	Key.enter	n/a
178.0915	16.9795	356183	prompt	n/a	dietary conversations royalty entrepreneur\n
178.9455	0.1115	357891	keystroke	f	n/a
179.3175	0.136	358635	keystroke	Key.backspace	n/a
179.495	0.092	358990	keystroke	d	n/a
179.624	0.09	359248	keystroke	i	n/a
179.766	0.114	359532	keystroke	e	n/a
179.989	0.1165	359978	keystroke	t	n/a
180.6165	0.1145	361233	keystroke	a	n/a
180.8835	0.046	361767	keystroke	r	n/a
181.2	0.093	362400	keystroke	y	n/a
181.4015	0.113	362803	keystroke	Key.space	n/a
181.9075	0.092	363815	keystroke	c	n/a
182.0715	0.135	364143	keystroke	o	n/a
182.284	0.1145	364568	keystroke	n	n/a
182.5535	0.0895	365107	keystroke	v	n/a
182.747	0.1155	365494	keystroke	e	n/a
182.8835	0.07	365767	keystroke	r	n/a
183.125	0.0915	366250	keystroke	s	n/a
183.3095	0.1365	366619	keystroke	a	n/a
183.488	0.07	366976	keystroke	t	n/a
183.593	0.208	367186	keystroke	i	n/a
183.705	0.073	367410	keystroke	o	n/a
183.732	0.1375	367464	keystroke	n	n/a
183.891	0.087	367782	keystroke	s	n/a
184.0845	0.0905	368169	keystroke	Key.space	n/a
184.413	0.113	368826	keystroke	r	n/a
184.77	0.137	369540	keystroke	o	n/a
185.1875	0.092	370375	keystroke	y	n/a
185.447	0.1125	370894	keystroke	a	n/a
185.6805	0.115	371361	keystroke	l	n/a
186.8425	0.112	373685	keystroke	y	n/a
187.3855	0.137	374771	keystroke	t	n/a
187.7515	0.047	375503	keystroke	=	n/a
188.1665	0.089	376333	keystroke	Key.backspace	n/a
188.338	0.0665	376676	keystroke	Key.backspace	n/a
188.4835	0.1145	376967	keystroke	Key.backspace	n/a
188.7815	0.16	377563	keystroke	t	n/a
188.8955	0.1145	377791	keystroke	y	n/a
189.345	0.114	378690	keystroke	Key.space	n/a
189.838	0.0905	379676	keystroke	e	n/a
189.9645	0.092	379929	keystroke	n	n/a
190.1275	0.113	380255	keystroke	t	n/a
190.5335	0.135	381067	keystroke	r	n/a
190.6445	0.115	381289	keystroke	e	n/a
193.245	0.0905	386490	keystroke	p	n/a
193.3885	0.1345	386777	keystroke	r	n/a
193.5	0.09	387000	keystroke	e	n/a
193.696	0.1105	387392	keystroke	n	n/a
193.8375	0.091	387675	keystroke	e	n/a
194.0195	0.0695	388039	keystroke	u	n/a
194.1615	0.1365	388323	keystroke	r	n/a
194.9775	0.091	389955	keystroke	Key.enter	n/a
195.076	11.4845	390152	prompt	n/a	taylor diana home entrepreneurs\n
195.8935	0.138	391787	keystroke	t	n/a
196.0545	0.1135	392109	keystroke	a	n/a
196.2685	0.0915	392537	keystroke	y	n/a
196.5415	0.094	393083	keystroke	l	n/a
196.7285	0.1105	393457	keystroke	o	n/a
197.1675	0.07	394335	keystroke	t	n/a
197.603	0.0905	395206	keystroke	Key.space	n/a
197.8955	0.088	395791	keystroke	Key.backspace	n/a
198.0235	0.09	396047	keystroke	Key.backspace	n/a
198.1375	0.071	396275	keystroke	r	n/a
198.3015	0.115	396603	keystroke	Key.space	n/a
198.581	0.09	397162	keystroke	d	n/a
198.7545	0.1165	397509	keystroke	i	n/a
198.872	0.089	397744	keystroke	a	n/a
199.049	0.09	398098	keystroke	n	n/a
199.8155	0.1155	399631	keystroke	a	n/a
200.077	0.0905	400154	keystroke	Key.space	n/a
200.3845	0.09	400769	keystroke	h	n/a
200.586	0.159	401172	keystroke	o	n/a
200.722	0.113	401444	keystroke	m	n/a
200.811	0.068	401622	keystroke	e	n/a
200.985	0.0885	401970	keystroke	Key.space	n/a
201.2125	0.135	402425	keystroke	e	n/a
201.258	0.092	402516	keystroke	n	n/a
201.49	0.1135	402980	keystroke	t	n/a
201.7405	0.18	403481	keystroke	e	n/a
202.9275	0.2065	405855	keystroke	Key.backspace	n/a
203.1565	0.1795	406313	keystroke	r	n/a
203.266	0.1605	406532	keystroke	e	n/a
204.065	0.1355	408130	keystroke	p	n/a
204.402	0.159	408804	keystroke	r	n/a
204.492	0.138	408984	keystroke	e	n/a
204.9875	0.0925	409975	keystroke	n	n/a
205.0805	0.1105	410161	keystroke	e	n/a
205.3725	0.1355	410745	keystroke	u	n/a
205.553	0.1385	411106	keystroke	e	n/a
205.667	0.093	411334	keystroke	r	n/a
205.967	0.068	411934	keystroke	s	n/a
206.443	0.1155	412886	keystroke	Key.enter	n/a
206.565	6.206	413130	prompt	n/a	apart hart clicking inspections\n
207.1985	0.1155	414397	keystroke	a	n/a
207.404	0.115	414808	keystroke	p	n/a
207.551	0.1125	415102	keystroke	a	n/a
207.697	0.113	415394	keystroke	r	n/a
207.885	0.114	415770	keystroke	t	n/a
208.02	0.093	416040	keystroke	Key.space	n/a
208.465	0.112	416930	keystroke	h	n/a
208.5535	0.1335	417107	keystroke	a	n/a
208.7335	0.112	417467	keystroke	r	n/a
208.9395	0.0895	417879	keystroke	t	n/a
209.1035	0.0905	418207	keystroke	Key.space	n/a
209.562	0.069	419124	keystroke	c	n/a
209.6625	0.092	419325	keystroke	l	n/a
209.858	0.1165	419716	keystroke	i	n/a
210.0045	0.113	420009	keystroke	c	n/a
210.1385	0.069	420277	keystroke	k	n/a
210.3125	0.138	420625	keystroke	i	n/a
210.4025	0.118	420805	keystroke	n	n/a
210.5435	0.1365	421087	keystroke	g	n/a
210.722	0.067	421444	keystroke	Key.space	n/a
210.895	0.1365	421790	keystroke	i	n/a
210.984	0.1155	421968	keystroke	n	n/a
211.1305	0.0455	422261	keystroke	s	n/a
211.3625	0.157	422725	keystroke	p	n/a
211.5815	0.112	423163	keystroke	e	n/a
211.7865	0.091	423573	keystroke	c	n/a
212.0145	0.092	424029	keystroke	t	n/a
212.1075	0.227	424215	keystroke	i	n/a
212.1955	0.1405	424391	keystroke	o	n/a
212.2415	0.162	424483	keystroke	n	n/a
212.4045	0.088	424809	keystroke	s	n/a
212.6785	0.09	425357	keystroke	Key.enter	n/a
212.775	6.487	425550	prompt	n/a	integrated jeff month balance\n
213.479	0.162	426958	keystroke	i	n/a
213.5945	0.1355	427189	keystroke	n	n/a
213.773	0.1135	427546	keystroke	t	n/a
213.9475	0.134	427895	keystroke	e	n/a
214.407	0.114	428814	keystroke	g	n/a
214.61	0.091	429220	keystroke	r	n/a
214.831	0.135	429662	keystroke	a	n/a
215.0455	0.137	430091	keystroke	t	n/a
215.2295	0.18	430459	keystroke	e	n/a
215.433	0.1135	430866	keystroke	d	n/a
215.852	0.089	431704	keystroke	Key.space	n/a
216.099	0.114	432198	keystroke	j	n/a
216.189	0.114	432378	keystroke	e	n/a
216.464	0.091	432928	keystroke	f	n/a
216.616	0.093	433232	keystroke	f	n/a
216.906	0.0885	433812	keystroke	Key.space	n/a
217.1885	0.0905	434377	keystroke	m	n/a
217.3005	0.159	434601	keystroke	o	n/a
217.4355	0.0685	434871	keystroke	n	n/a
217.572	0.0925	435144	keystroke	t	n/a
217.6665	0.112	435333	keystroke	h	n/a
217.9155	0.0925	435831	keystroke	Key.space	n/a
218.1055	0.094	436211	keystroke	b	n/a
218.223	0.1135	436446	keystroke	a	n/a
218.391	0.115	436782	keystroke	l	n/a
218.507	0.111	437014	keystroke	a	n/a
218.6855	0.092	437371	keystroke	n	n/a
218.8935	0.094	437787	keystroke	c	n/a
219.0325	0.115	438065	keystroke	e	n/a
219.17	0.09	438340	keystroke	Key.enter	n/a
219.266	4.9355	438532	prompt	n/a	barn smart better reforms\n
220.0425	0.1105	440085	keystroke	b	n/a
220.108	0.114	440216	keystroke	a	n/a
220.295	0.092	440590	keystroke	r	n/a
220.417	0.09	440834	keystroke	n	n/a
220.641	0.069	441282	keystroke	Key.space	n/a
220.753	0.1135	441506	keystroke	s	n/a
220.889	0.112	441778	keystroke	m	n/a
220.957	0.133	441914	keystroke	a	n/a
221.17	0.1135	442340	keystroke	r	n/a
221.428	0.1135	442856	keystroke	t	n/a
221.651	0.07	443302	keystroke	Key.space	n/a
221.865	0.0925	443730	keystroke	b	n/a
221.958	0.112	443916	keystroke	e	n/a
222.248	0.0905	444496	keystroke	t	n/a
222.4315	0.092	444863	keystroke	t	n/a
222.5605	0.134	445121	keystroke	e	n/a
222.6715	0.089	445343	keystroke	r	n/a
222.7915	0.09	445583	keystroke	Key.space	n/a
222.972	0.112	445944	keystroke	r	n/a
223.1065	0.1175	446213	keystroke	e	n/a
223.3945	0.092	446789	keystroke	f	n/a
223.545	0.0925	447090	keystroke	o	n/a
223.662	0.0675	447324	keystroke	r	n/a
223.791	0.113	447582	keystroke	m	n/a
223.9255	0.092	447851	keystroke	s	n/a
224.1095	0.0905	448219	keystroke	Key.enter	n/a
224.2045	7.59	448409	prompt	n/a	giving somewhat functional grey\n
224.909	0.092	449818	keystroke	g	n/a
225.0785	0.09	450157	keystroke	i	n/a
225.2535	0.116	450507	keystroke	v	n/a
225.3225	0.159	450645	keystroke	i	n/a
225.4145	0.135	450829	keystroke	n	n/a
225.5505	0.113	451101	keystroke	g	n/a
225.7095	0.11	451419	keystroke	Key.space	n/a
226.1365	0.135	452273	keystroke	s	n/a
226.2715	0.092	452543	keystroke	o	n/a
226.4115	0.1145	452823	keystroke	m	n/a
226.5485	0.0665	453097	keystroke	e	n/a
227.144	0.1155	454288	keystroke	w	n/a
227.2605	0.089	454521	keystroke	h	n/a
227.9185	0.137	455837	keystroke	a	n/a
228.189	0.116	456378	keystroke	t	n/a
228.5195	0.09	457039	keystroke	Key.space	n/a
228.9855	0.1135	457971	keystroke	f	n/a
229.1225	0.115	458245	keystroke	u	n/a
229.2375	0.09	458475	keystroke	n	n/a
229.3655	0.091	458731	keystroke	c	n/a
229.592	0.0895	459184	keystroke	t	n/a
229.7035	0.209	459407	keystroke	i	n/a
229.774	0.1405	459548	keystroke	o	n/a
229.842	0.1385	459684	keystroke	n	n/a
230.0165	0.091	460033	keystroke	a	n/a
230.2125	0.139	460425	keystroke	l	n/a
230.535	0.0905	461070	keystroke	Key.space	n/a
230.7015	0.113	461403	keystroke	g	n/a
231.0595	0.073	462119	keystroke	r	n/a
231.3405	0.0905	462681	keystroke	e	n/a
231.453	0.091	462906	keystroke	y	n/a
231.7005	0.092	463401	keystroke	Key.enter	n/a
231.7995	5.7805	463599	prompt	n/a	pipe submission cant poor\n
232.5255	0.115	465051	keystroke	p	n/a
232.7635	0.07	465527	keystroke	i	n/a
232.981	0.1365	465962	keystroke	p	n/a
233.2445	0.0695	466489	keystroke	e	n/a
233.533	0.135	467066	keystroke	Key.space	n/a
233.9635	0.092	467927	keystroke	s	n/a
234.1165	0.092	468233	keystroke	u	n/a
234.2795	0.092	468559	keystroke	b	n/a
234.5205	0.0935	469041	keystroke	m	n/a
234.689	0.112	469378	keystroke	i	n/a
234.8235	0.0465	469647	keystroke	s	n/a
234.963	0.0965	469926	keystroke	s	n/a
235.012	0.2315	470024	keystroke	i	n/a
235.103	0.139	470206	keystroke	o	n/a
235.1495	0.137	470299	keystroke	n	n/a
235.476	0.1115	470952	keystroke	Key.space	n/a
235.7075	0.093	471415	keystroke	c	n/a
235.8015	0.158	471603	keystroke	a	n/a
235.9805	0.1145	471961	keystroke	n	n/a
236.1645	0.091	472329	keystroke	t	n/a
236.347	0.0705	472694	keystroke	Key.space	n/a
236.9285	0.0905	473857	keystroke	p	n/a
237.1155	0.0475	474231	keystroke	o	n/a
237.2285	0.092	474457	keystroke	o	n/a
237.3785	0.069	474757	keystroke	r	n/a
237.5335	0.045	475067	keystroke	Key.enter	n/a
237.584	10.5765	475168	prompt	n/a	revised appearance question antigua\n
238.3225	0.138	476645	keystroke	r	n/a
238.4615	0.136	476923	keystroke	e	n/a
238.6945	0.069	477389	keystroke	v	n/a
238.8315	0.112	477663	keystroke	i	n/a
238.965	0.0695	477930	keystroke	s	n/a
239.1395	0.091	478279	keystroke	e	n/a
239.455	0.115	478910	keystroke	d	n/a
239.632	0.111	479264	keystroke	Key.space	n/a
239.815	0.089	479630	keystroke	a	n/a
239.972	0.114	479944	keystroke	p	n/a
240.124	0.113	480248	keystroke	p	n/a
240.258	0.1615	480516	keystroke	e	n/a
240.525	0.1365	481050	keystroke	a	n/a
240.733	0.113	481466	keystroke	r	n/a
241.4425	0.115	482885	keystroke	a	n/a
241.6705	0.114	483341	keystroke	c	n/a
241.9685	0.112	483937	keystroke	n	n/a
242.1115	0.091	484223	keystroke	c	n/a
242.2245	0.114	484449	keystroke	e	n/a
242.78	0.069	485560	keystroke	Key.backspace	n/a
242.9055	0.179	485811	keystroke	Key.backspace	n/a
243.138	0.0705	486276	keystroke	Key.backspace	n/a
243.4435	0.115	486887	keystroke	Key.backspace	n/a
243.8295	0.092	487659	keystroke	n	n/a
243.9225	0.114	487845	keystroke	c	n/a
244.067	0.092	488134	keystroke	e	n/a
244.18	0.047	488360	keystroke	Key.space	n/a
244.686	0.092	489372	keystroke	q	n/a
244.858	0.0695	489716	keystroke	u	n/a
244.9815	0.0915	489963	keystroke	e	n/a
245.18	0.068	490360	keystroke	s	n/a
245.3675	0.0905	490735	keystroke	t	n/a
245.412	0.21	490824	keystroke	i	n/a
245.4815	0.117	490963	keystroke	o	n/a
245.5295	0.1615	491059	keystroke	n	n/a
245.831	0.07	491662	keystroke	Key.space	n/a
246.139	0.136	492278	keystroke	a	n/a
246.489	0.114	492978	keystroke	n	n/a
246.687	0.0915	493374	keystroke	t	n/a
246.836	0.1135	493672	keystroke	i	n/a
247.2425	0.113	494485	keystroke	g	n/a
247.4625	0.113	494925	keystroke	u	n/a
247.6885	0.089	495377	keystroke	a	n/a
248.0655	0.093	496131	keystroke	Key.enter	n/a
248.165	8.4165	496330	prompt	n/a	convinced discrimination awful bowl\n
248.9	0.092	497800	keystroke	c	n/a
248.993	0.088	497986	keystroke	o	n/a
249.154	0.091	498308	keystroke	n	n/a
249.3005	0.0925	498601	keystroke	v	n/a
249.445	0.0915	498890	keystroke	i	n/a
249.8795	0.113	499759	keystroke	n	n/a
250.0465	0.116	500093	keystroke	c	n/a
250.2495	0.159	500499	keystroke	e	n/a
250.4665	0.11	500933	keystroke	d	n/a
250.824	0.089	501648	keystroke	Key.space	n/a
251.216	0.136	502432	keystroke	d	n/a
251.402	0.114	502804	keystroke	i	n/a
251.538	0.112	503076	keystroke	s	n/a
251.763	0.069	503526	keystroke	c	n/a
252.058	0.113	504116	keystroke	r	n/a
252.192	0.114	504384	keystroke	i	n/a
252.347	0.135	504694	keystroke	m	n/a
252.557	0.1125	505114	keystroke	i	n/a
252.721	0.092	505442	keystroke	n	n/a
252.953	0.1135	505906	keystroke	a	n/a
253.1845	0.094	506369	keystroke	t	n/a
253.3865	0.2935	506773	keystroke	i	n/a
253.523	0.134	507046	keystroke	o	n/a
253.6345	0.091	507269	keystroke	n	n/a
254.1255	0.09	508251	keystroke	Key.space	n/a
254.2765	0.113	508553	keystroke	a	n/a
254.5645	0.114	509129	keystroke	w	n/a
254.7985	0.115	509597	keystroke	f	n/a
254.961	0.09	509922	keystroke	u	n/a
255.201	0.09	510402	keystroke	l	n/a
255.439	0.068	510878	keystroke	Key.space	n/a
255.634	0.0915	511268	keystroke	b	n/a
255.827	0.093	511654	keystroke	o	n/a
255.921	0.0895	511842	keystroke	w	n/a
256.0785	0.094	512157	keystroke	l	n/a
256.4905	0.089	512981	keystroke	Key.enter	n/a
256.5865	9.7225	513173	prompt	n/a	isolated distinction earned announce\n
257.274	0.1105	514548	keystroke	i	n/a
257.4065	0.0925	514813	keystroke	s	n/a
257.5345	0.1105	515069	keystroke	o	n/a
257.7925	0.091	515585	keystroke	l	n/a
257.8845	0.1125	515769	keystroke	a	n/a
258.1045	0.091	516209	keystroke	t	n/a
258.256	0.1395	516512	keystroke	e	n/a
258.371	0.1375	516742	keystroke	d	n/a
258.5555	0.0665	517111	keystroke	Key.space	n/a
258.816	0.092	517632	keystroke	s	n/a
259.238	0.0695	518476	keystroke	Key.backspace	n/a
259.436	0.1365	518872	keystroke	d	n/a
259.6055	0.094	519211	keystroke	i	n/a
259.676	0.1365	519352	keystroke	s	n/a
260.1845	0.159	520369	keystroke	i	n/a
260.6565	0.135	521313	keystroke	Key.backspace	n/a
260.8575	0.09	521715	keystroke	t	n/a
261.0195	0.16	522039	keystroke	i	n/a
261.1325	0.116	522265	keystroke	n	n/a
261.6285	0.09	523257	keystroke	c	n/a
261.8825	0.1125	523765	keystroke	t	n/a
261.996	0.226	523992	keystroke	i	n/a
262.062	0.138	524124	keystroke	o	n/a
262.1305	0.1365	524261	keystroke	n	n/a
262.8355	0.1115	525671	keystroke	Key.space	n/a
263.0885	0.137	526177	keystroke	e	n/a
263.2595	0.116	526519	keystroke	a	n/a
263.3765	0.0875	526753	keystroke	r	n/a
263.504	0.092	527008	keystroke	n	n/a
263.6475	0.159	527295	keystroke	e	n/a
263.8075	0.089	527615	keystroke	d	n/a
263.9175	0.091	527835	keystroke	Key.space	n/a
264.6125	0.1145	529225	keystroke	a	n/a
264.886	0.0675	529772	keystroke	n	n/a
265.011	0.1155	530022	keystroke	n	n/a
265.2315	0.091	530463	keystroke	o	n/a
265.579	0.089	531158	keystroke	u	n/a
265.758	0.1135	531516	keystroke	n	n/a
265.908	0.1135	531816	keystroke	c	n/a
266.0795	0.09	532159	keystroke	e	n/a
266.2135	0.094	532427	keystroke	Key.enter	n/a
266.3175	6.2	532635	prompt	n/a	range lotus grateful rarely\n
266.9615	0.1135	533923	keystroke	r	n/a
267.0955	0.134	534191	keystroke	a	n/a
267.2305	0.112	534461	keystroke	n	n/a
267.4105	0.114	534821	keystroke	g	n/a
267.5255	0.089	535051	keystroke	e	n/a
267.6665	0.046	535333	keystroke	Key.space	n/a
267.9185	0.1375	535837	keystroke	l	n/a
268.154	0.0905	536308	keystroke	o	n/a
268.5035	0.112	537007	keystroke	t	n/a
268.6645	0.0705	537329	keystroke	u	n/a
269.1145	0.093	538229	keystroke	s	n/a
269.2715	0.113	538543	keystroke	Key.space	n/a
269.533	0.1115	539066	keystroke	g	n/a
269.6755	0.1365	539351	keystroke	r	n/a
269.8335	0.1135	539667	keystroke	a	n/a
270.0175	0.112	540035	keystroke	t	n/a
270.1525	0.111	540305	keystroke	e	n/a
270.3735	0.069	540747	keystroke	f	n/a
270.5195	0.0705	541039	keystroke	u	n/a
270.7525	0.1135	541505	keystroke	l	n/a
271.015	0.068	542030	keystroke	Key.space	n/a
271.2305	0.134	542461	keystroke	r	n/a
271.3655	0.1135	542731	keystroke	a	n/a
271.48	0.113	542960	keystroke	r	n/a
271.669	0.136	543338	keystroke	e	n/a
271.827	0.0905	543654	keystroke	l	n/a
272.0385	0.0685	544077	keystroke	y	n/a
272.402	0.113	544804	keystroke	Key.enter	n/a
272.522	10.263	545044	prompt	n/a	region declaration bloggers encourage\n
273.3305	0.136	546661	keystroke	r	n/a
273.4675	0.114	546935	keystroke	e	n/a
273.791	0.069	547582	keystroke	g	n/a
273.8995	0.2715	547799	keystroke	i	n/a
274.033	0.14	548066	keystroke	o	n/a
274.101	0.161	548202	keystroke	n	n/a
274.384	0.0915	548768	keystroke	Key.space	n/a
274.9355	0.089	549871	keystroke	d	n/a
275.071	0.1335	550142	keystroke	e	n/a
275.2255	0.115	550451	keystroke	c	n/a
275.3715	0.093	550743	keystroke	l	n/a
275.4855	0.116	550971	keystroke	a	n/a
275.6955	0.113	551391	keystroke	t	n/a
276.3915	0.162	552783	keystroke	Key.backspace	n/a
276.5275	0.117	553055	keystroke	r	n/a
276.6455	0.136	553291	keystroke	a	n/a
276.8035	0.112	553607	keystroke	t	n/a
276.9755	0.2755	553951	keystroke	i	n/a
277.133	0.12	554266	keystroke	o	n/a
277.181	0.139	554362	keystroke	n	n/a
277.514	0.068	555028	keystroke	Key.space	n/a
277.752	0.0895	555504	keystroke	b	n/a
278.04	0.069	556080	keystroke	l	n/a
278.205	0.113	556410	keystroke	o	n/a
278.34	0.0685	556680	keystroke	g	n/a
278.476	0.092	556952	keystroke	g	n/a
278.651	0.1625	557302	keystroke	e	n/a
278.8145	0.09	557629	keystroke	r	n/a
278.99	0.0705	557980	keystroke	s	n/a
279.2625	0.0685	558525	keystroke	Key.space	n/a
279.6795	0.09	559359	keystroke	e	n/a
279.8905	0.0915	559781	keystroke	n	n/a
280.1905	0.0905	560381	keystroke	c	n/a
280.416	0.137	560832	keystroke	o	n/a
281.2095	0.0925	562419	keystroke	u	n/a
281.3235	0.091	562647	keystroke	r	n/a
281.7205	0.1835	563441	keystroke	a	n/a
281.973	0.135	563946	keystroke	g	n/a
282.109	0.1355	564218	keystroke	e	n/a
282.669	0.114	565338	keystroke	Key.enter	n/a
282.7895	6.536	565579	prompt	n/a	aviation afraid placing attempting\n
283.4535	0.114	566907	keystroke	a	n/a
283.7175	0.091	567435	keystroke	v	n/a
283.8775	0.115	567755	keystroke	i	n/a
283.9465	0.1375	567893	keystroke	a	n/a
284.136	0.115	568272	keystroke	t	n/a
284.273	0.228	568546	keystroke	i	n/a
284.3185	0.159	568637	keystroke	o	n/a
284.41	0.1365	568820	keystroke	n	n/a
285.029	0.114	570058	keystroke	Key.space	n/a
285.144	0.1345	570288	keystroke	a	n/a
285.391	0.114	570782	keystroke	f	n/a
285.547	0.1155	571094	keystroke	r	n/a
285.712	0.113	571424	keystroke	a	n/a
285.847	0.1135	571694	keystroke	i	n/a
286.068	0.0945	572136	keystroke	d	n/a
286.22	0.0685	572440	keystroke	Key.space	n/a
286.4525	0.1615	572905	keystroke	p	n/a
286.5425	0.095	573085	keystroke	l	n/a
286.5895	0.1355	573179	keystroke	a	n/a
286.8265	0.137	573653	keystroke	c	n/a
286.9865	0.114	573973	keystroke	i	n/a
287.032	0.115	574064	keystroke	n	n/a
287.1865	0.0915	574373	keystroke	g	n/a
287.3155	0.0915	574631	keystroke	Key.space	n/a
287.6225	0.114	575245	keystroke	a	n/a
287.879	0.0685	575758	keystroke	t	n/a
288.008	0.0895	576016	keystroke	t	n/a
288.142	0.0905	576284	keystroke	e	n/a
288.2855	0.113	576571	keystroke	m	n/a
288.4715	0.137	576943	keystroke	p	n/a
288.6725	0.069	577345	keystroke	t	n/a
288.7725	0.18	577545	keystroke	i	n/a
288.884	0.1135	577768	keystroke	n	n/a
289.0495	0.0915	578099	keystroke	g	n/a
289.2335	0.09	578467	keystroke	Key.enter	n/a
289.33	9.2815	578660	prompt	n/a	fatal lesbians perceived smart\n
290.289	0.112	580578	keystroke	f	n/a
290.423	0.1555	580846	keystroke	a	n/a
290.6775	0.1125	581355	keystroke	t	n/a
290.826	0.1385	581652	keystroke	a	n/a
290.918	0.0695	581836	keystroke	l	n/a
291.164	0.089	582328	keystroke	Key.space	n/a
291.563	0.092	583126	keystroke	e	n/a
292.33	0.1835	584660	keystroke	Key.backspace	n/a
292.681	0.091	585362	keystroke	l	n/a
292.748	0.093	585496	keystroke	e	n/a
292.95	0.093	585900	keystroke	s	n/a
293.151	0.1135	586302	keystroke	b	n/a
293.625	0.159	587250	keystroke	Key.backspace	n/a
294.78	0.0675	589560	keystroke	b	n/a
294.9095	0.1115	589819	keystroke	i	n/a
295.043	0.159	590086	keystroke	a	n/a
295.2675	0.1135	590535	keystroke	n	n/a
295.403	0.0675	590806	keystroke	s	n/a
295.5505	0.092	591101	keystroke	Key.space	n/a
295.8405	0.137	591681	keystroke	p	n/a
295.9995	0.115	591999	keystroke	r	n/a
296.0665	0.181	592133	keystroke	e	n/a
296.4035	0.092	592807	keystroke	c	n/a
296.5445	0.117	593089	keystroke	e	n/a
297.0205	0.135	594041	keystroke	i	n/a
297.232	0.068	594464	keystroke	v	n/a
297.395	0.1375	594790	keystroke	e	n/a
297.5085	0.0695	595017	keystroke	d	n/a
297.6785	0.09	595357	keystroke	Key.space	n/a
297.8525	0.138	595705	keystroke	s	n/a
297.9655	0.093	595931	keystroke	m	n/a
298.0585	0.114	596117	keystroke	a	n/a
298.2025	0.1135	596405	keystroke	r	n/a
298.4055	0.0935	596811	keystroke	t	n/a
298.5205	0.0895	597041	keystroke	Key.enter	n/a
298.6155	16.753	597231	prompt	n/a	australia ballet techno capability\n
299.3155	0.092	598631	keystroke	a	n/a
299.725	0.0945	599450	keystroke	u	n/a
299.841	0.091	599682	keystroke	s	n/a
300.0105	0.1345	600021	keystroke	t	n/a
300.211	0.1585	600422	keystroke	r	n/a
301.3725	0.092	602745	keystroke	r	n/a
301.52	0.1155	603040	keystroke	a	n/a
301.6565	0.115	603313	keystroke	l	n/a
302.4375	0.0675	604875	keystroke	Key.backspace	n/a
302.6045	0.091	605209	keystroke	Key.backspace	n/a
302.756	0.0935	605512	keystroke	Key.backspace	n/a
302.9725	0.0915	605945	keystroke	a	n/a
303.186	0.115	606372	keystroke	l	n/a
303.377	0.1115	606754	keystroke	i	n/a
303.5715	0.1115	607143	keystroke	a	n/a
303.763	0.11	607526	keystroke	Key.space	n/a
304.4395	0.091	608879	keystroke	b	n/a
304.5325	0.134	609065	keystroke	a	n/a
304.6885	0.068	609377	keystroke	l	n/a
304.8035	0.137	609607	keystroke	l	n/a
304.8715	0.158	609743	keystroke	e	n/a
305.0655	0.09	610131	keystroke	t	n/a
305.1915	0.093	610383	keystroke	Key.space	n/a
305.8075	0.0685	611615	keystroke	t	n/a
305.9945	0.112	611989	keystroke	e	n/a
306.254	0.0675	612508	keystroke	c	n/a
306.4275	0.113	612855	keystroke	h	n/a
307.241	0.1345	614482	keystroke	n	n/a
307.708	0.1335	615416	keystroke	o	n/a
308.092	0.0725	616184	keystroke	Key.space	n/a
308.392	0.116	616784	keystroke	c	n/a
308.6435	0.157	617287	keystroke	p	n/a
308.8365	0.158	617673	keystroke	a	n/a
309.1135	0.116	618227	keystroke	c	n/a
309.7625	0.139	619525	keystroke	b	n/a
309.924	0.115	619848	keystroke	i	n/a
310.2535	0.1115	620507	keystroke	l	n/a
310.4855	0.1125	620971	keystroke	i	n/a
311.5765	0.092	623153	keystroke	Key.backspace	n/a
311.7205	0.069	623441	keystroke	Key.backspace	n/a
311.8595	0.0695	623719	keystroke	Key.backspace	n/a
312.009	0.048	624018	keystroke	Key.backspace	n/a
312.3595	0.113	624719	keystroke	a	n/a
313.0635	0.091	626127	keystroke	p	n/a
313.1315	0.092	626263	keystroke	a	n/a
313.5355	0.112	627071	keystroke	b	n/a
313.6975	0.0905	627395	keystroke	i	n/a
313.9465	0.0895	627893	keystroke	l	n/a
314.1235	0.113	628247	keystroke	i	n/a
314.2585	0.1355	628517	keystroke	t	n/a
314.499	0.115	628998	keystroke	y	n/a
315.2745	0.0925	630549	keystroke	Key.enter	n/a
315.3725	13.9475	630745	prompt	n/a	institutional scared bases guild\n
316.254	0.134	632508	keystroke	i	n/a
316.4115	0.091	632823	keystroke	n	n/a
316.57	0.0905	633140	keystroke	s	n/a
317.2065	0.093	634413	keystroke	t	n/a
317.4045	0.114	634809	keystroke	i	n/a
317.5835	0.092	635167	keystroke	t	n/a
317.7935	0.114	635587	keystroke	u	n/a
318.13	0.1135	636260	keystroke	t	n/a
318.2995	0.3185	636599	keystroke	u	n/a
318.4775	0.142	636955	keystroke	i	n/a
318.5695	0.118	637139	keystroke	b	n/a
318.6885	0.088	637377	keystroke	s	n/a
318.979	0.0905	637958	keystroke	=	n/a
319.136	0.09	638272	keystroke	Key.backspace	n/a
319.278	0.092	638556	keystroke	Key.backspace	n/a
319.403	0.068	638806	keystroke	Key.backspace	n/a
319.5245	0.0675	639049	keystroke	Key.backspace	n/a
321.4305	0.1145	642861	keystroke	Key.backspace	n/a
322.0725	0.137	644145	keystroke	i	n/a
323.95	0.114	647900	keystroke	o	n/a
324.085	0.092	648170	keystroke	n	n/a
324.255	0.115	648510	keystroke	a	n/a
324.371	0.112	648742	keystroke	l	n/a
324.75	0.069	649500	keystroke	Key.space	n/a
325.413	0.1365	650826	keystroke	s	n/a
325.6655	0.1155	651331	keystroke	c	n/a
325.7815	0.1135	651563	keystroke	a	n/a
325.9365	0.159	651873	keystroke	r	n/a
326.0955	0.157	652191	keystroke	e	n/a
326.2755	0.117	652551	keystroke	d	n/a
326.5575	0.1	653115	keystroke	Key.space	n/a
327.096	0.115	654192	keystroke	b	n/a
327.1875	0.16	654375	keystroke	a	n/a
327.302	0.115	654604	keystroke	s	n/a
327.5095	0.093	655019	keystroke	e	n/a
327.696	0.092	655392	keystroke	s	n/a
327.8255	0.092	655651	keystroke	Key.space	n/a
328.1695	0.091	656339	keystroke	g	n/a
328.4095	0.046	656819	keystroke	u	n/a
328.6125	0.18	657225	keystroke	i	n/a
328.9395	0.092	657879	keystroke	l	n/a
329.054	0.092	658108	keystroke	d	n/a
329.228	0.09	658456	keystroke	Key.enter	n/a
329.3245	16.587	658649	prompt	n/a	pharmaceuticals entered husband obviously\n
330.136	0.1145	660272	keystroke	p	n/a
330.504	0.094	661008	keystroke	h	n/a
330.599	0.09	661198	keystroke	a	n/a
330.76	0.092	661520	keystroke	r	n/a
331.4565	0.0925	662913	keystroke	m	n/a
331.5495	0.1105	663099	keystroke	a	n/a
331.7605	0.069	663521	keystroke	c	n/a
331.9185	0.136	663837	keystroke	e	n/a
332.3285	0.094	664657	keystroke	u	n/a
332.6475	0.091	665295	keystroke	t	n/a
332.8195	0.0655	665639	keystroke	i	n/a
333.025	0.137	666050	keystroke	c	n/a
333.206	0.069	666412	keystroke	a	n/a
333.276	0.112	666552	keystroke	l	n/a
333.3895	0.0665	666779	keystroke	s	n/a
333.612	0.0935	667224	keystroke	Key.space	n/a
334.2935	0.111	668587	keystroke	e	n/a
334.427	0.0895	668854	keystroke	n	n/a
334.546	0.117	669092	keystroke	t	n/a
334.715	0.1145	669430	keystroke	e	n/a
334.8305	0.09	669661	keystroke	r	n/a
335.201	0.1365	670402	keystroke	d	n/a
335.693	0.1365	671386	keystroke	Key.backspace	n/a
335.784	0.1835	671568	keystroke	e	n/a
335.897	0.1385	671794	keystroke	d	n/a
336.0565	0.113	672113	keystroke	Key.space	n/a
336.781	0.1135	673562	keystroke	h	n/a
337.0325	0.0695	674065	keystroke	u	n/a
337.659	0.137	675318	keystroke	d	n/a
338.3245	0.1365	676649	keystroke	Key.backspace	n/a
338.4825	0.092	676965	keystroke	s	n/a
338.7805	0.069	677561	keystroke	b	n/a
338.8705	0.138	677741	keystroke	a	n/a
339.0685	0.091	678137	keystroke	n	n/a
339.1815	0.114	678363	keystroke	d	n/a
339.3495	0.069	678699	keystroke	Key.space	n/a
339.9185	0.137	679837	keystroke	o	n/a
340.459	0.117	680918	keystroke	b	n/a
340.7135	0.0925	681427	keystroke	v	n/a
340.8675	0.093	681735	keystroke	i	n/a
341.4235	0.117	682847	keystroke	u	n/a
342.312	0.205	684624	keystroke	Key.backspace	n/a
342.84	0.1135	685680	keystroke	o	n/a
343.194	0.137	686388	keystroke	u	n/a
343.416	0.113	686832	keystroke	s	n/a
343.8265	0.116	687653	keystroke	l	n/a
344.0565	0.0905	688113	keystroke	g	n/a
344.572	0.159	689144	keystroke	Key.backspace	n/a
344.732	0.132	689464	keystroke	t	n/a
345.4445	0.139	690889	keystroke	Key.backspace	n/a
345.659	0.1125	691318	keystroke	y	n/a
345.8195	0.09	691639	keystroke	Key.enter	n/a
345.9165	10.4605	691833	prompt	n/a	acknowledged expense alloy stays\n
346.602	0.115	693204	keystroke	a	n/a
346.871	0.113	693742	keystroke	c	n/a
347.1465	0.069	694293	keystroke	k	n/a
347.4235	0.092	694847	keystroke	n	n/a
347.6155	0.137	695231	keystroke	o	n/a
348.36	0.0885	696720	keystroke	w	n/a
348.6305	0.1145	697261	keystroke	l	n/a
348.812	0.161	697624	keystroke	e	n/a
349.561	0.1375	699122	keystroke	d	n/a
350.5965	0.07	701193	keystroke	g	n/a
350.6975	0.226	701395	keystroke	e	n/a
350.8785	0.113	701757	keystroke	d	n/a
351.149	0.0685	702298	keystroke	Key.space	n/a
351.563	0.0915	703126	keystroke	e	n/a
351.828	0.1355	703656	keystroke	x	n/a
352.014	0.1355	704028	keystroke	p	n/a
352.1935	0.091	704387	keystroke	e	n/a
352.3245	0.113	704649	keystroke	n	n/a
352.5665	0.067	705133	keystroke	s	n/a
352.7595	0.068	705519	keystroke	e	n/a
353.0145	0.0905	706029	keystroke	Key.space	n/a
353.2575	0.0915	706515	keystroke	a	n/a
353.5975	0.116	707195	keystroke	l	n/a
353.822	0.0915	707644	keystroke	l	n/a
354.0265	0.113	708053	keystroke	o	n/a
354.2085	0.092	708417	keystroke	t	n/a
354.6435	0.16	709287	keystroke	Key.backspace	n/a
354.8045	0.132	709609	keystroke	y	n/a
355.0785	0.0905	710157	keystroke	Key.space	n/a
355.491	0.0915	710982	keystroke	s	n/a
355.612	0.092	711224	keystroke	t	n/a
355.725	0.115	711450	keystroke	a	n/a
355.862	0.0675	711724	keystroke	y	n/a
355.9305	0.111	711861	keystroke	s	n/a
356.2845	0.09	712569	keystroke	Key.enter	n/a
356.3815	10.9315	712763	prompt	n/a	russian households studies undergraduate\n
358.338	0.088	716676	keystroke	r	n/a
358.4895	0.0925	716979	keystroke	u	n/a
358.603	0.09	717206	keystroke	s	n/a
358.7795	0.093	717559	keystroke	s	n/a
358.848	0.2245	717696	keystroke	i	n/a
358.937	0.113	717874	keystroke	o	n/a
359.006	0.112	718012	keystroke	n	n/a
359.435	0.0915	718870	keystroke	Key.backspace	n/a
359.595	0.091	719190	keystroke	Key.backspace	n/a
359.756	0.0915	719512	keystroke	a	n/a
359.9215	0.1135	719843	keystroke	n	n/a
360.201	0.069	720402	keystroke	Key.space	n/a
360.831	0.114	721662	keystroke	h	n/a
361.016	0.09	722032	keystroke	o	n/a
361.208	0.09	722416	keystroke	u	n/a
361.3	0.065	722600	keystroke	s	n/a
361.45	0.137	722900	keystroke	e	n/a
361.864	0.116	723728	keystroke	h	n/a
362.054	0.115	724108	keystroke	o	n/a
362.253	0.112	724506	keystroke	l	n/a
362.436	0.162	724872	keystroke	d	n/a
362.599	0.136	725198	keystroke	s	n/a
362.7765	0.1125	725553	keystroke	Key.space	n/a
363.341	0.116	726682	keystroke	s	n/a
363.609	0.093	727218	keystroke	t	n/a
363.798	0.071	727596	keystroke	u	n/a
363.9595	0.111	727919	keystroke	d	n/a
364.1375	0.1135	728275	keystroke	i	n/a
364.1825	0.091	728365	keystroke	e	n/a
364.4015	0.093	728803	keystroke	s	n/a
364.5505	0.067	729101	keystroke	Key.space	n/a
364.8815	0.114	729763	keystroke	u	n/a
364.9965	0.111	729993	keystroke	n	n/a
365.162	0.113	730324	keystroke	d	n/a
365.3075	0.158	730615	keystroke	e	n/a
365.442	0.1135	730884	keystroke	r	n/a
365.6915	0.114	731383	keystroke	g	n/a
365.8065	0.1335	731613	keystroke	r	n/a
365.9795	0.1355	731959	keystroke	a	n/a
366.1845	0.091	732369	keystroke	d	n/a
366.4755	0.07	732951	keystroke	u	n/a
366.5875	0.069	733175	keystroke	a	n/a
366.781	0.1135	733562	keystroke	t	n/a
366.9165	0.1545	733833	keystroke	e	n/a
367.2195	0.091	734439	keystroke	Key.enter	n/a
367.318	6.895	734636	prompt	n/a	disable photo joke monroe\n
368.368	0.091	736736	keystroke	d	n/a
368.514	0.0695	737028	keystroke	i	n/a
368.6045	0.092	737209	keystroke	s	n/a
368.729	0.136	737458	keystroke	a	n/a
369.226	0.0915	738452	keystroke	b	n/a
369.472	0.114	738944	keystroke	l	n/a
369.61	0.092	739220	keystroke	e	n/a
369.7645	0.0715	739529	keystroke	Key.space	n/a
370.279	0.184	740558	keystroke	p	n/a
370.616	0.09	741232	keystroke	h	n/a
370.79	0.139	741580	keystroke	o	n/a
370.9495	0.1385	741899	keystroke	t	n/a
371.0635	0.1345	742127	keystroke	o	n/a
371.373	0.067	742746	keystroke	Key.space	n/a
371.724	0.09	743448	keystroke	j	n/a
371.8725	0.138	743745	keystroke	o	n/a
372.1535	0.1135	744307	keystroke	k	n/a
372.3145	0.1355	744629	keystroke	e	n/a
372.489	0.0905	744978	keystroke	Key.space	n/a
372.7355	0.091	745471	keystroke	m	n/a
372.9075	0.1335	745815	keystroke	o	n/a
373.0625	0.092	746125	keystroke	n	n/a
373.341	0.115	746682	keystroke	r	n/a
373.487	0.115	746974	keystroke	o	n/a
373.923	0.09	747846	keystroke	e	n/a
374.12	0.091	748240	keystroke	Key.enter	n/a
374.217	9.7345	748434	prompt	n/a	chapters forwarding colleges train\n
375.009	0.0915	750018	keystroke	c	n/a
375.1315	0.0915	750263	keystroke	h	n/a
375.2455	0.1145	750491	keystroke	a	n/a
375.4	0.112	750800	keystroke	p	n/a
375.647	0.113	751294	keystroke	t	n/a
375.811	0.158	751622	keystroke	e	n/a
375.9235	0.1125	751847	keystroke	r	n/a
376.358	0.1145	752716	keystroke	Key.space	n/a
376.3815	0.093	752763	keystroke	s	n/a
376.9885	0.0895	753977	keystroke	Key.backspace	n/a
377.164	0.093	754328	keystroke	Key.backspace	n/a
377.368	0.112	754736	keystroke	s	n/a
377.735	0.0935	755470	keystroke	Key.space	n/a
377.96	0.0905	755920	keystroke	f	n/a
378.0725	0.1165	756145	keystroke	o	n/a
378.1645	0.117	756329	keystroke	r	n/a
378.436	0.139	756872	keystroke	w	n/a
378.6295	0.16	757259	keystroke	a	n/a
379.102	0.09	758204	keystroke	r	n/a
379.353	0.091	758706	keystroke	d	n/a
379.6175	0.1345	759235	keystroke	i	n/a
379.753	0.135	759506	keystroke	n	n/a
380.073	0.138	760146	keystroke	g	n/a
380.79	0.066	761580	keystroke	Key.space	n/a
381.036	0.113	762072	keystroke	c	n/a
381.15	0.091	762300	keystroke	o	n/a
381.315	0.089	762630	keystroke	l	n/a
381.439	0.1145	762878	keystroke	l	n/a
381.575	0.1585	763150	keystroke	e	n/a
381.7695	0.1115	763539	keystroke	g	n/a
381.9105	0.1155	763821	keystroke	e	n/a
382.157	0.136	764314	keystroke	s	n/a
382.345	0.091	764690	keystroke	Key.space	n/a
382.5955	0.1365	765191	keystroke	t	n/a
382.7335	0.1125	765467	keystroke	r	n/a
383.169	0.0905	766338	keystroke	a	n/a
383.2615	0.182	766523	keystroke	i	n/a
383.3285	0.139	766657	keystroke	n	n/a
383.8345	0.115	767669	keystroke	Key.enter	n/a
383.957	10.929	767914	prompt	n/a	perform mutual measurements updates\n
386.215	0.113	772430	keystroke	p	n/a
386.4235	0.113	772847	keystroke	e	n/a
386.559	0.115	773118	keystroke	r	n/a
386.819	0.0925	773638	keystroke	f	n/a
386.9335	0.1365	773867	keystroke	o	n/a
387.071	0.092	774142	keystroke	r	n/a
387.2415	0.1355	774483	keystroke	m	n/a
387.9315	0.117	775863	keystroke	Key.space	n/a
388.2465	0.113	776493	keystroke	m	n/a
388.4485	0.092	776897	keystroke	u	n/a
388.7395	0.1355	777479	keystroke	t	n/a
388.851	0.091	777702	keystroke	u	n/a
389.0035	0.116	778007	keystroke	a	n/a
389.1525	0.09	778305	keystroke	l	n/a
389.4695	0.091	778939	keystroke	Key.space	n/a
389.767	0.111	779534	keystroke	m	n/a
390.011	0.115	780022	keystroke	e	n/a
390.283	0.158	780566	keystroke	a	n/a
390.935	0.113	781870	keystroke	s	n/a
391.07	0.0935	782140	keystroke	u	n/a
391.2375	0.113	782475	keystroke	r	n/a
391.483	0.1115	782966	keystroke	e	n/a
391.7325	0.1135	783465	keystroke	m	n/a
391.8685	0.158	783737	keystroke	e	n/a
392.0025	0.093	784005	keystroke	n	n/a
392.0715	0.1355	784143	keystroke	t	n/a
392.4055	0.114	784811	keystroke	s	n/a
392.8215	0.09	785643	keystroke	Key.space	n/a
393.3855	0.0685	786771	keystroke	u	n/a
393.651	0.136	787302	keystroke	p	n/a
393.8665	0.115	787733	keystroke	d	n/a
393.9825	0.09	787965	keystroke	a	n/a
394.164	0.1365	788328	keystroke	t	n/a
394.3905	0.1135	788781	keystroke	e	n/a
394.6485	0.0675	789297	keystroke	s	n/a
394.7935	0.091	789587	keystroke	Key.enter	n/a
394.8905	9.123	789781	prompt	n/a	there're retail birth screensaver\n
395.5645	0.1375	791129	keystroke	t	n/a
395.7385	0.093	791477	keystroke	h	n/a
395.7845	0.161	791569	keystroke	e	n/a
395.8765	0.1835	791753	keystroke	r	n/a
395.991	0.0705	791982	keystroke	e	n/a
396.341	0.093	792682	keystroke	'	n/a
396.456	0.18	792912	keystroke	r	n/a
396.544	0.1365	793088	keystroke	e	n/a
397.19	0.093	794380	keystroke	Key.space	n/a
397.5945	0.139	795189	keystroke	e	n/a
398.17	0.137	796340	keystroke	Key.backspace	n/a
398.238	0.1605	796476	keystroke	r	n/a
398.329	0.16	796658	keystroke	e	n/a
398.51	0.136	797020	keystroke	t	n/a
398.845	0.133	797690	keystroke	a	n/a
399.049	0.16	798098	keystroke	i	n/a
399.3585	0.1125	798717	keystroke	l	n/a
399.661	0.091	799322	keystroke	Key.space	n/a
399.933	0.0915	799866	keystroke	b	n/a
400.094	0.138	800188	keystroke	i	n/a
400.3185	0.1345	800637	keystroke	r	n/a
400.551	0.116	801102	keystroke	t	n/a
400.688	0.0905	801376	keystroke	h	n/a
400.877	0.113	801754	keystroke	Key.space	n/a
401.077	0.0925	802154	keystroke	s	n/a
401.3355	0.0915	802671	keystroke	c	n/a
401.5115	0.113	803023	keystroke	r	n/a
401.7275	0.068	803455	keystroke	e	n/a
401.8185	0.0685	803637	keystroke	e	n/a
401.945	0.114	803890	keystroke	n	n/a
402.1805	0.1135	804361	keystroke	s	n/a
402.355	0.136	804710	keystroke	a	n/a
402.694	0.09	805388	keystroke	c	n/a
403.398	0.139	806796	keystroke	Key.backspace	n/a
403.538	0.066	807076	keystroke	v	n/a
403.647	0.1575	807294	keystroke	e	n/a
403.759	0.113	807518	keystroke	r	n/a
403.919	0.092	807838	keystroke	Key.enter	n/a
404.0185	11.183	808037	prompt	n/a	analyzes dutch transexual stones\n
404.793	0.112	809586	keystroke	a	n/a
405.031	0.0665	810062	keystroke	n	n/a
405.121	0.114	810242	keystroke	a	n/a
405.5685	0.1145	811137	keystroke	l	n/a
405.8695	0.136	811739	keystroke	y	n/a
406.9605	0.091	813921	keystroke	z	n/a
407.39	0.066	814780	keystroke	e	n/a
407.6455	0.094	815291	keystroke	s	n/a
407.8525	0.069	815705	keystroke	Key.space	n/a
408.17	0.0915	816340	keystroke	d	n/a
408.357	0.0905	816714	keystroke	u	n/a
408.5325	0.116	817065	keystroke	t	n/a
408.8325	0.1135	817665	keystroke	c	n/a
408.9465	0.09	817893	keystroke	h	n/a
409.1605	0.092	818321	keystroke	Key.space	n/a
409.435	0.1355	818870	keystroke	t	n/a
409.755	0.093	819510	keystroke	r	n/a
409.9705	0.1155	819941	keystroke	a	n/a
410.155	0.089	820310	keystroke	n	n/a
410.306	0.071	820612	keystroke	s	n/a
410.9355	0.0915	821871	keystroke	e	n/a
411.2565	0.113	822513	keystroke	x	n/a
411.4265	0.114	822853	keystroke	u	n/a
411.5415	0.114	823083	keystroke	a	n/a
411.727	0.091	823454	keystroke	l	n/a
411.9655	0.069	823931	keystroke	Key.space	n/a
412.0805	0.115	824161	keystroke	s	n/a
412.3125	0.092	824625	keystroke	t	n/a
412.444	0.136	824888	keystroke	o	n/a
412.6725	0.091	825345	keystroke	e	n/a
413.2135	0.114	826427	keystroke	\	n/a
413.5065	0.114	827013	keystroke	Key.backspace	n/a
414.136	0.138	828272	keystroke	Key.backspace	n/a
414.688	0.09	829376	keystroke	n	n/a
414.779	0.0665	829558	keystroke	e	n/a
414.9605	0.0925	829921	keystroke	s	n/a
415.108	0.092	830216	keystroke	Key.enter	n/a
415.205	11.7615	830410	prompt	n/a	commissioners trial regularly thinkpad\n
416.435	0.0925	832870	keystroke	c	n/a
416.566	0.113	833132	keystroke	o	n/a
416.814	0.113	833628	keystroke	m	n/a
416.997	0.091	833994	keystroke	m	n/a
417.156	0.092	834312	keystroke	i	n/a
417.3315	0.0945	834663	keystroke	s	n/a
417.548	0.114	835096	keystroke	s	n/a
417.781	0.3195	835562	keystroke	i	n/a
417.915	0.139	835830	keystroke	o	n/a
418.0315	0.1135	836063	keystroke	n	n/a
418.2705	0.091	836541	keystroke	a	n/a
418.665	0.136	837330	keystroke	Key.backspace	n/a
418.8015	0.158	837603	keystroke	e	n/a
418.9135	0.113	837827	keystroke	r	n/a
419.2975	0.0915	838595	keystroke	s	n/a
419.511	0.0905	839022	keystroke	Key.space	n/a
419.8935	0.1135	839787	keystroke	t	n/a
420.043	0.138	840086	keystroke	r	n/a
420.219	0.092	840438	keystroke	i	n/a
420.425	0.093	840850	keystroke	a	n/a
420.519	0.066	841038	keystroke	l	n/a
420.7765	0.0905	841553	keystroke	Key.space	n/a
421.336	0.1365	842672	keystroke	r	n/a
421.427	0.1355	842854	keystroke	e	n/a
422.0825	0.0695	844165	keystroke	g	n/a
422.2495	0.0895	844499	keystroke	u	n/a
422.4685	0.116	844937	keystroke	l	n/a
422.5385	0.092	845077	keystroke	a	n/a
422.7835	0.1385	845567	keystroke	t	n/a
423.448	0.135	846896	keystroke	Key.backspace	n/a
424.243	0.092	848486	keystroke	r	n/a
424.506	0.1595	849012	keystroke	l	n/a
424.7565	0.111	849513	keystroke	y	n/a
425.0005	0.0925	850001	keystroke	Key.space	n/a
425.412	0.0895	850824	keystroke	t	n/a
425.57	0.091	851140	keystroke	h	n/a
425.721	0.115	851442	keystroke	i	n/a
425.858	0.114	851716	keystroke	n	n/a
426.037	0.113	852074	keystroke	k	n/a
426.421	0.159	852842	keystroke	p	n/a
426.555	0.1595	853110	keystroke	a	n/a
426.7155	0.1355	853431	keystroke	d	n/a
426.8735	0.091	853747	keystroke	Key.enter	n/a
426.9715	8.4735	853943	prompt	n/a	procedures counters verify developer\n
427.951	0.157	855902	keystroke	p	n/a
428.181	0.1135	856362	keystroke	r	n/a
428.3775	0.137	856755	keystroke	o	n/a
428.5515	0.09	857103	keystroke	c	n/a
428.7105	0.115	857421	keystroke	e	n/a
428.9825	0.092	857965	keystroke	d	n/a
429.4625	0.0915	858925	keystroke	u	n/a
429.597	0.156	859194	keystroke	r	n/a
429.708	0.16	859416	keystroke	e	n/a
430.1855	0.1385	860371	keystroke	s	n/a
430.345	0.09	860690	keystroke	Key.space	n/a
430.543	0.092	861086	keystroke	c	n/a
430.636	0.112	861272	keystroke	o	n/a
430.853	0.136	861706	keystroke	u	n/a
430.943	0.141	861886	keystroke	n	n/a
431.06	0.091	862120	keystroke	t	n/a
431.217	0.138	862434	keystroke	e	n/a
431.3095	0.1115	862619	keystroke	r	n/a
431.484	0.1115	862968	keystroke	s	n/a
431.7165	0.067	863433	keystroke	Key.space	n/a
432.1725	0.069	864345	keystroke	v	n/a
432.326	0.16	864652	keystroke	e	n/a
432.438	0.1185	864876	keystroke	r	n/a
432.625	0.093	865250	keystroke	i	n/a
432.976	0.1345	865952	keystroke	f	n/a
433.295	0.137	866590	keystroke	y	n/a
433.556	0.0685	867112	keystroke	Key.space	n/a
433.964	0.158	867928	keystroke	d	n/a
434.184	0.136	868368	keystroke	e	n/a
434.3415	0.0915	868683	keystroke	v	n/a
434.52	0.093	869040	keystroke	e	n/a
434.665	0.094	869330	keystroke	l	n/a
434.832	0.0885	869664	keystroke	o	n/a
435.0315	0.0925	870063	keystroke	p	n/a
435.0545	0.1605	870109	keystroke	e	n/a
435.1915	0.1145	870383	keystroke	r	n/a
435.3275	0.115	870655	keystroke	Key.enter	n/a
435.45	8.001	870900	prompt	n/a	midwest howto democratic those\n
436.23	0.069	872460	keystroke	m	n/a
436.3845	0.092	872769	keystroke	i	n/a
436.5635	0.091	873127	keystroke	d	n/a
436.7615	0.16	873523	keystroke	w	n/a
436.9225	0.113	873845	keystroke	e	n/a
437.1765	0.1145	874353	keystroke	s	n/a
437.418	0.09	874836	keystroke	t	n/a
437.598	0.0465	875196	keystroke	Key.space	n/a
437.8115	0.1135	875623	keystroke	h	n/a
437.9615	0.136	875923	keystroke	o	n/a
438.1185	0.113	876237	keystroke	w	n/a
438.3965	0.0905	876793	keystroke	t	n/a
438.5095	0.0945	877019	keystroke	o	n/a
438.8385	0.0675	877677	keystroke	Key.space	n/a
439.1035	0.0925	878207	keystroke	d	n/a
439.2265	0.0925	878453	keystroke	e	n/a
439.442	0.069	878884	keystroke	m	n/a
439.621	0.117	879242	keystroke	o	n/a
440.1145	0.138	880229	keystroke	c	n/a
441.2255	0.1355	882451	keystroke	r	n/a
441.4325	0.1325	882865	keystroke	a	n/a
441.683	0.091	883366	keystroke	t	n/a
442.059	0.159	884118	keystroke	i	n/a
442.257	0.092	884514	keystroke	c	n/a
442.478	0.091	884956	keystroke	Key.space	n/a
442.745	0.09	885490	keystroke	t	n/a
442.865	0.09	885730	keystroke	h	n/a
443.016	0.115	886032	keystroke	o	n/a
443.107	0.071	886214	keystroke	s	n/a
443.286	0.0955	886572	keystroke	e	n/a
443.357	0.092	886714	keystroke	Key.enter	n/a
443.4545	6.748	886909	prompt	n/a	atlanta arise labels streams\n
444.06	0.1145	888120	keystroke	a	n/a
444.341	0.093	888682	keystroke	t	n/a
444.589	0.092	889178	keystroke	l	n/a
444.712	0.1375	889424	keystroke	a	n/a
444.851	0.0675	889702	keystroke	n	n/a
445.0055	0.115	890011	keystroke	t	n/a
445.27	0.113	890540	keystroke	a	n/a
445.5235	0.091	891047	keystroke	Key.space	n/a
445.6575	0.115	891315	keystroke	a	n/a
445.858	0.092	891716	keystroke	r	n/a
446.0355	0.1365	892071	keystroke	i	n/a
446.147	0.091	892294	keystroke	s	n/a
446.362	0.092	892724	keystroke	e	n/a
446.533	0.069	893066	keystroke	Key.space	n/a
446.82	0.116	893640	keystroke	l	n/a
446.912	0.092	893824	keystroke	a	n/a
447.1595	0.092	894319	keystroke	b	n/a
447.3805	0.113	894761	keystroke	l	n/a
447.4945	0.089	894989	keystroke	e	n/a
447.6885	0.091	895377	keystroke	s	n/a
447.8545	0.066	895709	keystroke	Key.space	n/a
448.0485	0.115	896097	keystroke	s	n/a
448.3515	0.1155	896703	keystroke	t	n/a
448.421	0.1805	896842	keystroke	r	n/a
448.656	0.112	897312	keystroke	a	n/a
449.069	0.14	898138	keystroke	Key.backspace	n/a
449.211	0.158	898422	keystroke	e	n/a
449.301	0.205	898602	keystroke	a	n/a
449.4825	0.114	898965	keystroke	m	n/a
449.816	0.115	899632	keystroke	s	n/a
450.11	0.091	900220	keystroke	Key.enter	n/a
450.2065	11.487	900413	prompt	n/a	vietnamese receives thou enterprises\n
451.121	0.091	902242	keystroke	v	n/a
451.282	0.1145	902564	keystroke	i	n/a
451.4195	0.162	902839	keystroke	e	n/a
451.6605	0.0945	903321	keystroke	t	n/a
451.8765	0.091	903753	keystroke	n	n/a
451.9685	0.1325	903937	keystroke	a	n/a
452.1225	0.113	904245	keystroke	m	n/a
452.3195	0.162	904639	keystroke	e	n/a
453.128	0.087	906256	keystroke	s	n/a
453.331	0.117	906662	keystroke	e	n/a
453.534	0.0895	907068	keystroke	Key.space	n/a
454.21	0.115	908420	keystroke	r	n/a
454.326	0.133	908652	keystroke	e	n/a
454.542	0.068	909084	keystroke	c	n/a
454.632	0.138	909264	keystroke	e	n/a
454.8075	0.1155	909615	keystroke	i	n/a
454.9	0.0915	909800	keystroke	v	n/a
455.054	0.185	910108	keystroke	e	n/a
455.169	0.1375	910338	keystroke	d	n/a
455.861	0.068	911722	keystroke	Key.backspace	n/a
455.993	0.0935	911986	keystroke	Key.backspace	n/a
456.109	0.0935	912218	keystroke	d	n/a
456.627	0.1115	913254	keystroke	Key.backspace	n/a
456.7605	0.186	913521	keystroke	e	n/a
456.8765	0.115	913753	keystroke	d	n/a
457.0795	0.11	914159	keystroke	Key.space	n/a
457.4745	0.091	914949	keystroke	t	n/a
457.6075	0.088	915215	keystroke	h	n/a
457.769	0.0925	915538	keystroke	o	n/a
457.9725	0.113	915945	keystroke	u	n/a
458.373	0.0705	916746	keystroke	Key.space	n/a
459.1065	0.0925	918213	keystroke	e	n/a
459.283	0.09	918566	keystroke	n	n/a
459.4405	0.092	918881	keystroke	t	n/a
459.594	0.158	919188	keystroke	e	n/a
459.7055	0.0915	919411	keystroke	r	n/a
459.978	0.1595	919956	keystroke	p	n/a
460.1385	0.1125	920277	keystroke	r	n/a
460.3075	0.2015	920615	keystroke	i	n/a
461.033	0.0895	922066	keystroke	s	n/a
461.2425	0.137	922485	keystroke	e	n/a
461.4865	0.093	922973	keystroke	s	n/a
461.6015	0.089	923203	keystroke	Key.enter	n/a
461.6975	8.3815	923395	prompt	n/a	unless coupons satin give\n
462.5525	0.1115	925105	keystroke	u	n/a
463.025	0.136	926050	keystroke	n	n/a
463.261	0.137	926522	keystroke	l	n/a
463.3985	0.0675	926797	keystroke	e	n/a
463.5655	0.068	927131	keystroke	s	n/a
463.7125	0.114	927425	keystroke	s	n/a
463.896	0.089	927792	keystroke	Key.space	n/a
464.1865	0.0905	928373	keystroke	c	n/a
464.2995	0.047	928599	keystroke	o	n/a
464.4895	0.0905	928979	keystroke	u	n/a
464.733	0.093	929466	keystroke	p	n/a
464.9425	0.113	929885	keystroke	o	n/a
465.1925	0.024	930385	keystroke	b	n/a
465.9535	0.1365	931907	keystroke	Key.backspace	n/a
466.671	0.112	933342	keystroke	n	n/a
466.8045	0.0905	933609	keystroke	s	n/a
466.9765	0.093	933953	keystroke	Key.space	n/a
467.375	0.114	934750	keystroke	s	n/a
467.726	0.137	935452	keystroke	a	n/a
468.249	0.11	936498	keystroke	t	n/a
468.389	0.138	936778	keystroke	i	n/a
468.694	0.113	937388	keystroke	n	n/a
468.95	0.068	937900	keystroke	Key.space	n/a
469.4605	0.1355	938921	keystroke	g	n/a
469.5975	0.092	939195	keystroke	i	n/a
469.7495	0.112	939499	keystroke	v	n/a
469.8925	0.115	939785	keystroke	e	n/a
469.9605	0.116	939921	keystroke	Key.enter	n/a
470.083	8.8305	940166	prompt	n/a	where type consortium lights\n
470.8175	0.112	941635	keystroke	w	n/a
470.951	0.1135	941902	keystroke	h	n/a
471.1595	0.135	942319	keystroke	e	n/a
471.2955	0.1815	942591	keystroke	r	n/a
471.4305	0.138	942861	keystroke	e	n/a
471.6405	0.069	943281	keystroke	Key.space	n/a
471.7695	0.114	943539	keystroke	t	n/a
472.2705	0.0935	944541	keystroke	y	n/a
472.4415	0.0915	944883	keystroke	p	n/a
472.6715	0.089	945343	keystroke	e	n/a
472.8035	0.091	945607	keystroke	Key.space	n/a
473.5055	0.07	947011	keystroke	c	n/a
473.5965	0.115	947193	keystroke	o	n/a
473.8065	0.069	947613	keystroke	n	n/a
473.9485	0.07	947897	keystroke	s	n/a
474.246	0.1375	948492	keystroke	o	n/a
475.919	0.113	951838	keystroke	r	n/a
476.1465	0.0915	952293	keystroke	t	n/a
476.391	0.092	952782	keystroke	i	n/a
476.664	0.132	953328	keystroke	u	n/a
477.081	0.114	954162	keystroke	m	n/a
477.361	0.068	954722	keystroke	Key.space	n/a
477.592	0.112	955184	keystroke	l	n/a
478.106	0.138	956212	keystroke	i	n/a
478.301	0.0935	956602	keystroke	g	n/a
478.416	0.0905	956832	keystroke	h	n/a
478.529	0.091	957058	keystroke	t	n/a
478.688	0.111	957376	keystroke	s	n/a
478.8205	0.091	957641	keystroke	Key.enter	n/a
478.9215	9.229	957843	prompt	n/a	mumbai pierce antonio adding\n
479.745	0.138	959490	keystroke	m	n/a
479.97	0.1165	959940	keystroke	u	n/a
480.1505	0.116	960301	keystroke	m	n/a
480.5055	0.091	961011	keystroke	b	n/a
480.6405	0.1155	961281	keystroke	a	n/a
480.7085	0.114	961417	keystroke	i	n/a
480.9545	0.069	961909	keystroke	r	n/a
481.35	0.115	962700	keystroke	Key.backspace	n/a
481.75	0.091	963500	keystroke	Key.space	n/a
482.0625	0.0935	964125	keystroke	p	n/a
482.3	0.116	964600	keystroke	i	n/a
482.475	0.116	964950	keystroke	e	n/a
482.592	0.112	965184	keystroke	r	n/a
482.875	0.0915	965750	keystroke	c	n/a
482.989	0.116	965978	keystroke	e	n/a
483.145	0.067	966290	keystroke	Key.space	n/a
483.3675	0.091	966735	keystroke	a	n/a
483.686	0.115	967372	keystroke	n	n/a
483.8935	0.067	967787	keystroke	t	n/a
483.9965	0.1405	967993	keystroke	o	n/a
484.1125	0.115	968225	keystroke	n	n/a
484.44	0.135	968880	keystroke	i	n/a
485.1325	0.1375	970265	keystroke	o	n/a
485.609	0.161	971218	keystroke	Key.backspace	n/a
486.1375	0.1385	972275	keystroke	p	n/a
486.6775	0.113	973355	keystroke	Key.backspace	n/a
486.8795	0.0915	973759	keystroke	o	n/a
487.133	0.092	974266	keystroke	Key.space	n/a
487.2725	0.138	974545	keystroke	a	n/a
487.4885	0.0905	974977	keystroke	d	n/a
487.653	0.115	975306	keystroke	d	n/a
487.746	0.136	975492	keystroke	i	n/a
487.791	0.114	975582	keystroke	n	n/a
487.928	0.092	975856	keystroke	g	n/a
488.079	0.07	976158	keystroke	Key.enter	n/a
488.1555	10.303	976311	prompt	n/a	reaction chairs procurement telephony\n
488.924	0.1125	977848	keystroke	r	n/a
489.013	0.138	978026	keystroke	e	n/a
489.152	0.18	978304	keystroke	a	n/a
489.286	0.135	978572	keystroke	c	n/a
489.541	0.089	979082	keystroke	t	n/a
489.607	0.225	979214	keystroke	i	n/a
489.695	0.114	979390	keystroke	o	n/a
489.763	0.159	979526	keystroke	n	n/a
490.033	0.092	980066	keystroke	Key.space	n/a
490.289	0.137	980578	keystroke	c	n/a
490.402	0.092	980804	keystroke	h	n/a
490.471	0.114	980942	keystroke	a	n/a
490.6305	0.093	981261	keystroke	r	n/a
490.7235	0.1125	981447	keystroke	i	n/a
490.903	0.112	981806	keystroke	s	n/a
491.1425	0.0695	982285	keystroke	Key.space	n/a
491.399	0.158	982798	keystroke	p	n/a
491.6805	0.093	983361	keystroke	r	n/a
491.902	0.136	983804	keystroke	o	n/a
492.3865	0.092	984773	keystroke	c	n/a
493.4325	0.091	986865	keystroke	u	n/a
493.5245	0.159	987049	keystroke	r	n/a
493.6145	0.159	987229	keystroke	e	n/a
493.952	0.1125	987904	keystroke	m	n/a
494.0655	0.112	988131	keystroke	e	n/a
494.1775	0.1115	988355	keystroke	n	n/a
494.2225	0.111	988445	keystroke	t	n/a
494.4295	0.0955	988859	keystroke	Key.space	n/a
494.726	0.092	989452	keystroke	t	n/a
494.8715	0.115	989743	keystroke	e	n/a
495.312	0.116	990624	keystroke	l	n/a
495.582	0.047	991164	keystroke	o	n/a
496.03	0.1565	992060	keystroke	Key.backspace	n/a
496.2095	0.092	992419	keystroke	e	n/a
496.8855	0.111	993771	keystroke	p	n/a
497.143	0.139	994286	keystroke	h	n/a
497.2835	0.178	994567	keystroke	o	n/a
497.393	0.113	994786	keystroke	n	n/a
497.528	0.0925	995056	keystroke	e	n/a
498.0225	0.157	996045	keystroke	Key.backspace	n/a
498.2185	0.0685	996437	keystroke	y	n/a
498.365	0.091	996730	keystroke	Key.enter	n/a
498.4615	7.177	996923	prompt	n/a	medium clicks mild rangers\n
499.1905	0.0935	998381	keystroke	m	n/a
499.33	0.0895	998660	keystroke	e	n/a
499.6215	0.089	999243	keystroke	d	n/a
499.8225	0.093	999645	keystroke	i	n/a
500.0125	0.0905	1000025	keystroke	u	n/a
500.2465	0.095	1000493	keystroke	m	n/a
500.4925	0.0685	1000985	keystroke	Key.space	n/a
500.8045	0.116	1001609	keystroke	l	n/a
501.251	0.158	1002502	keystroke	Key.backspace	n/a
501.572	0.0685	1003144	keystroke	c	n/a
501.6755	0.068	1003351	keystroke	l	n/a
501.868	0.1135	1003736	keystroke	i	n/a
502.016	0.0885	1004032	keystroke	c	n/a
502.1255	0.092	1004251	keystroke	k	n/a
502.523	0.0925	1005046	keystroke	Key.space	n/a
502.7285	0.114	1005457	keystroke	m	n/a
502.8655	0.091	1005731	keystroke	i	n/a
503.0875	0.0685	1006175	keystroke	l	n/a
503.6685	0.093	1007337	keystroke	d	n/a
503.8155	0.092	1007631	keystroke	Key.space	n/a
503.9755	0.138	1007951	keystroke	r	n/a
504.1515	0.0915	1008303	keystroke	a	n/a
504.4045	0.1595	1008809	keystroke	n	n/a
504.565	0.112	1009130	keystroke	g	n/a
504.7	0.181	1009400	keystroke	e	n/a
504.856	0.1155	1009712	keystroke	r	n/a
505.075	0.068	1010150	keystroke	s	n/a
505.546	0.091	1011092	keystroke	Key.enter	n/a
505.643	7.879	1011286	prompt	n/a	oaks rhythm explaining indiana\n
506.446	0.1135	1012892	keystroke	o	n/a
506.581	0.1125	1013162	keystroke	a	n/a
506.806	0.1145	1013612	keystroke	k	n/a
507.0285	0.0895	1014057	keystroke	s	n/a
507.201	0.09	1014402	keystroke	Key.space	n/a
507.585	0.091	1015170	keystroke	t	n/a
508.276	0.135	1016552	keystroke	Key.backspace	n/a
508.4125	0.092	1016825	keystroke	r	n/a
508.7265	0.0915	1017453	keystroke	y	n/a
508.935	0.092	1017870	keystroke	t	n/a
509.063	0.115	1018126	keystroke	h	n/a
509.51	0.114	1019020	keystroke	m	n/a
509.856	0.089	1019712	keystroke	Key.space	n/a
510.3085	0.132	1020617	keystroke	e	n/a
510.5875	0.111	1021175	keystroke	x	n/a
510.7225	0.136	1021445	keystroke	p	n/a
510.8115	0.092	1021623	keystroke	l	n/a
510.9515	0.0905	1021903	keystroke	a	n/a
511.065	0.1165	1022130	keystroke	i	n/a
511.1335	0.116	1022267	keystroke	n	n/a
511.2715	0.1375	1022543	keystroke	i	n/a
511.3615	0.115	1022723	keystroke	n	n/a
511.4525	0.0915	1022905	keystroke	g	n/a
511.615	0.0905	1023230	keystroke	Key.space	n/a
512.0445	0.137	1024089	keystroke	i	n/a
512.1355	0.1375	1024271	keystroke	n	n/a
512.4445	0.092	1024889	keystroke	d	n/a
512.5375	0.113	1025075	keystroke	i	n/a
512.6735	0.1135	1025347	keystroke	a	n/a
512.862	0.115	1025724	keystroke	n	n/a
512.999	0.134	1025998	keystroke	a	n/a
513.45	0.0705	1026900	keystroke	Key.enter	n/a
513.525	11.552	1027050	prompt	n/a	hydrocodone worry functioning larry\n
514.3455	0.0895	1028691	keystroke	h	n/a
514.7215	0.091	1029443	keystroke	y	n/a
514.8995	0.067	1029799	keystroke	r	n/a
515.2205	0.092	1030441	keystroke	Key.backspace	n/a
515.2885	0.114	1030577	keystroke	d	n/a
515.496	0.092	1030992	keystroke	r	n/a
515.6365	0.116	1031273	keystroke	o	n/a
516.4095	0.09	1032819	keystroke	c	n/a
516.5825	0.092	1033165	keystroke	o	n/a
516.7865	0.094	1033573	keystroke	d	n/a
516.9695	0.113	1033939	keystroke	e	n/a
517.1725	0.113	1034345	keystroke	n	n/a
517.817	0.1155	1035634	keystroke	Key.backspace	n/a
518.094	0.071	1036188	keystroke	Key.backspace	n/a
518.3875	0.1385	1036775	keystroke	o	n/a
518.502	0.115	1037004	keystroke	n	n/a
518.6655	0.1365	1037331	keystroke	e	n/a
518.895	0.16	1037790	keystroke	Key.space	n/a
519.349	0.1145	1038698	keystroke	w	n/a
519.44	0.094	1038880	keystroke	o	n/a
519.575	0.069	1039150	keystroke	r	n/a
519.723	0.114	1039446	keystroke	r	n/a
519.838	0.0895	1039676	keystroke	y	n/a
520.0915	0.0935	1040183	keystroke	Key.space	n/a
521.335	0.091	1042670	keystroke	f	n/a
521.4615	0.0925	1042923	keystroke	u	n/a
521.5555	0.1105	1043111	keystroke	n	n/a
521.688	0.09	1043376	keystroke	c	n/a
521.912	0.091	1043824	keystroke	t	n/a
522.004	0.204	1044008	keystroke	i	n/a
522.071	0.1395	1044142	keystroke	o	n/a
522.139	0.137	1044278	keystroke	n	n/a
522.644	0.1825	1045288	keystroke	i	n/a
522.7575	0.18	1045515	keystroke	n	n/a
523.323	0.0715	1046646	keystroke	g	n/a
523.4355	0.115	1046871	keystroke	Key.space	n/a
523.9765	0.113	1047953	keystroke	l	n/a
524.0655	0.116	1048131	keystroke	a	n/a
524.2675	0.2285	1048535	keystroke	r	n/a
524.6615	0.115	1049323	keystroke	r	n/a
524.7975	0.07	1049595	keystroke	y	n/a
524.9835	0.089	1049967	keystroke	Key.enter	n/a
525.0815	6.8585	1050163	prompt	n/a	layer practical anyone showers\n
525.8535	0.049	1051707	keystroke	l	n/a
525.924	0.1365	1051848	keystroke	a	n/a
526.1645	0.0875	1052329	keystroke	y	n/a
526.254	0.134	1052508	keystroke	e	n/a
526.342	0.115	1052684	keystroke	r	n/a
526.522	0.093	1053044	keystroke	Key.space	n/a
526.9645	0.1125	1053929	keystroke	p	n/a
527.151	0.135	1054302	keystroke	r	n/a
527.309	0.135	1054618	keystroke	e	n/a
527.848	0.115	1055696	keystroke	Key.backspace	n/a
527.915	0.14	1055830	keystroke	a	n/a
528.008	0.139	1056016	keystroke	c	n/a
528.5475	0.0675	1057095	keystroke	t	n/a
528.692	0.092	1057384	keystroke	i	n/a
528.861	0.139	1057722	keystroke	c	n/a
529.0005	0.134	1058001	keystroke	a	n/a
529.111	0.114	1058222	keystroke	l	n/a
529.432	0.0925	1058864	keystroke	Key.space	n/a
529.572	0.118	1059144	keystroke	a	n/a
529.771	0.0905	1059542	keystroke	n	n/a
530.0195	0.069	1060039	keystroke	y	n/a
530.2535	0.137	1060507	keystroke	o	n/a
530.3225	0.1135	1060645	keystroke	n	n/a
530.437	0.087	1060874	keystroke	e	n/a
530.57	0.091	1061140	keystroke	Key.space	n/a
530.898	0.069	1061796	keystroke	s	n/a
530.988	0.071	1061976	keystroke	h	n/a
531.109	0.1135	1062218	keystroke	o	n/a
531.223	0.1135	1062446	keystroke	w	n/a
531.367	0.091	1062734	keystroke	e	n/a
531.551	0.091	1063102	keystroke	r	n/a
531.674	0.115	1063348	keystroke	s	n/a
531.846	0.092	1063692	keystroke	Key.enter	n/a
531.9455	7.377	1063891	prompt	n/a	pain characterized tony charms\n
532.584	0.115	1065168	keystroke	p	n/a
532.7205	0.1155	1065441	keystroke	a	n/a
532.837	0.112	1065674	keystroke	i	n/a
532.903	0.1365	1065806	keystroke	n	n/a
533.3795	0.113	1066759	keystroke	Key.space	n/a
533.6045	0.114	1067209	keystroke	c	n/a
533.6965	0.092	1067393	keystroke	h	n/a
533.7645	0.1375	1067529	keystroke	a	n/a
533.933	0.114	1067866	keystroke	r	n/a
534.071	0.136	1068142	keystroke	a	n/a
534.412	0.092	1068824	keystroke	c	n/a
534.894	0.113	1069788	keystroke	t	n/a
535.052	0.18	1070104	keystroke	e	n/a
535.142	0.113	1070284	keystroke	r	n/a
536.2035	0.0925	1072407	keystroke	i	n/a
536.4705	0.0715	1072941	keystroke	z	n/a
536.699	0.161	1073398	keystroke	e	n/a
536.861	0.091	1073722	keystroke	d	n/a
536.952	0.089	1073904	keystroke	Key.space	n/a
537.307	0.0895	1074614	keystroke	t	n/a
537.3975	0.089	1074795	keystroke	o	n/a
537.5435	0.115	1075087	keystroke	n	n/a
537.8115	0.0685	1075623	keystroke	y	n/a
538.0295	0.092	1076059	keystroke	Key.space	n/a
538.4405	0.091	1076881	keystroke	c	n/a
538.5535	0.0685	1077107	keystroke	h	n/a
538.6435	0.092	1077287	keystroke	a	n/a
538.8395	0.113	1077679	keystroke	r	n/a
539.0115	0.092	1078023	keystroke	m	n/a
539.079	0.1155	1078158	keystroke	s	n/a
539.2305	0.09	1078461	keystroke	Key.enter	n/a
539.327	12.1095	1078654	prompt	n/a	consideration japan establish afghanistan\n
540.094	0.09	1080188	keystroke	c	n/a
540.229	0.116	1080458	keystroke	o	n/a
540.322	0.091	1080644	keystroke	n	n/a
540.444	0.1125	1080888	keystroke	s	n/a
540.8255	0.1155	1081651	keystroke	i	n/a
541.1225	0.157	1082245	keystroke	d	n/a
541.6605	0.178	1083321	keystroke	e	n/a
541.8595	0.116	1083719	keystroke	r	n/a
542.4485	0.1355	1084897	keystroke	a	n/a
542.623	0.09	1085246	keystroke	t	n/a
542.714	0.225	1085428	keystroke	i	n/a
542.849	0.093	1085698	keystroke	o	n/a
542.85	0.1575	1085700	keystroke	n	n/a
543.0295	0.09	1086059	keystroke	s	n/a
543.1925	0.1135	1086385	keystroke	Key.space	n/a
543.794	0.091	1087588	keystroke	j	n/a
543.886	0.1335	1087772	keystroke	a	n/a
544.149	0.138	1088298	keystroke	p	n/a
544.3095	0.1135	1088619	keystroke	a	n/a
544.474	0.09	1088948	keystroke	n	n/a
544.7085	0.0685	1089417	keystroke	Key.space	n/a
544.908	0.069	1089816	keystroke	e	n/a
545.1125	0.0915	1090225	keystroke	s	n/a
545.343	0.0685	1090686	keystroke	t	n/a
545.4945	0.113	1090989	keystroke	a	n/a
545.697	0.0705	1091394	keystroke	b	n/a
545.887	0.093	1091774	keystroke	l	n/a
546.092	0.092	1092184	keystroke	i	n/a
546.247	0.0905	1092494	keystroke	s	n/a
546.408	0.0905	1092816	keystroke	h	n/a
546.475	0.09	1092950	keystroke	e	n/a
546.676	0.0915	1093352	keystroke	s	n/a
546.9375	0.091	1093875	keystroke	Key.space	n/a
547.488	0.068	1094976	keystroke	Key.backspace	n/a
547.639	0.092	1095278	keystroke	Key.backspace	n/a
548.057	0.116	1096114	keystroke	Key.backspace	n/a
548.4465	0.091	1096893	keystroke	Key.space	n/a
548.8435	0.092	1097687	keystroke	a	n/a
549.0465	0.0935	1098093	keystroke	f	n/a
549.344	0.089	1098688	keystroke	g	n/a
549.556	0.092	1099112	keystroke	h	n/a
549.669	0.09	1099338	keystroke	a	n/a
549.815	0.0895	1099630	keystroke	n	n/a
550.239	0.116	1100478	keystroke	i	n/a
550.394	0.112	1100788	keystroke	s	n/a
550.636	0.112	1101272	keystroke	t	n/a
550.801	0.1125	1101602	keystroke	a	n/a
550.9825	0.092	1101965	keystroke	n	n/a
551.3425	0.092	1102685	keystroke	Key.enter	n/a
551.441	7.7875	1102882	prompt	n/a	vegetable redeem tragedy tail\n
552.263	0.07	1104526	keystroke	v	n/a
552.42	0.136	1104840	keystroke	e	n/a
553.311	0.112	1106622	keystroke	g	n/a
553.461	0.158	1106922	keystroke	e	n/a
553.7085	0.0935	1107417	keystroke	t	n/a
553.8745	0.096	1107749	keystroke	a	n/a
554.0195	0.09	1108039	keystroke	b	n/a
554.248	0.1365	1108496	keystroke	l	n/a
554.3605	0.089	1108721	keystroke	e	n/a
554.4865	0.1145	1108973	keystroke	Key.space	n/a
555.01	0.1125	1110020	keystroke	r	n/a
555.0995	0.134	1110199	keystroke	e	n/a
555.3655	0.0695	1110731	keystroke	d	n/a
555.5575	0.1135	1111115	keystroke	e	n/a
555.739	0.138	1111478	keystroke	e	n/a
555.899	0.1385	1111798	keystroke	m	n/a
556.1575	0.0915	1112315	keystroke	Key.space	n/a
556.4395	0.113	1112879	keystroke	t	n/a
556.6355	0.094	1113271	keystroke	r	n/a
556.869	0.114	1113738	keystroke	a	n/a
557.124	0.093	1114248	keystroke	g	n/a
557.266	0.137	1114532	keystroke	e	n/a
557.504	0.0685	1115008	keystroke	d	n/a
557.8605	0.1135	1115721	keystroke	y	n/a
558.1415	0.0905	1116283	keystroke	Key.space	n/a
558.456	0.093	1116912	keystroke	t	n/a
558.6215	0.1115	1117243	keystroke	a	n/a
558.734	0.067	1117468	keystroke	i	n/a
558.93	0.114	1117860	keystroke	l	n/a
559.137	0.089	1118274	keystroke	Key.enter	n/a
559.233	8.203	1118466	prompt	n/a	schedules furniture heel pollution\n
559.946	0.0905	1119892	keystroke	s	n/a
560.2785	0.0915	1120557	keystroke	c	n/a
560.401	0.0715	1120802	keystroke	h	n/a
560.553	0.1135	1121106	keystroke	e	n/a
560.935	0.093	1121870	keystroke	d	n/a
561.059	0.0695	1122118	keystroke	u	n/a
561.3995	0.115	1122799	keystroke	l	n/a
561.4895	0.0935	1122979	keystroke	e	n/a
561.691	0.1155	1123382	keystroke	s	n/a
562.602	0.091	1125204	keystroke	Key.space	n/a
562.935	0.069	1125870	keystroke	f	n/a
563.122	0.0685	1126244	keystroke	u	n/a
563.2765	0.0705	1126553	keystroke	r	n/a
563.4485	0.069	1126897	keystroke	n	n/a
563.5925	0.1145	1127185	keystroke	i	n/a
563.792	0.0925	1127584	keystroke	t	n/a
563.929	0.0885	1127858	keystroke	u	n/a
564.218	0.141	1128436	keystroke	r	n/a
564.312	0.136	1128624	keystroke	e	n/a
564.424	0.0915	1128848	keystroke	Key.space	n/a
565.0725	0.0915	1130145	keystroke	h	n/a
565.165	0.067	1130330	keystroke	e	n/a
565.3265	0.0915	1130653	keystroke	e	n/a
565.394	0.0925	1130788	keystroke	l	n/a
565.606	0.091	1131212	keystroke	Key.space	n/a
565.9605	0.1145	1131921	keystroke	p	n/a
566.19	0.0905	1132380	keystroke	o	n/a
566.396	0.0685	1132792	keystroke	l	n/a
566.5235	0.09	1133047	keystroke	l	n/a
566.7755	0.068	1133551	keystroke	u	n/a
566.9515	0.0695	1133903	keystroke	t	n/a
566.996	0.2285	1133992	keystroke	i	n/a
567.0875	0.1145	1134175	keystroke	o	n/a
567.133	0.1375	1134266	keystroke	n	n/a
567.3415	0.092	1134683	keystroke	Key.enter	n/a
567.4415	9.939	1134883	prompt	n/a	all teenage dave preferences\n
568.0105	0.093	1136021	keystroke	a	n/a
568.162	0.0685	1136324	keystroke	l	n/a
568.2675	0.0675	1136535	keystroke	l	n/a
568.47	0.068	1136940	keystroke	Key.space	n/a
568.56	0.135	1137120	keystroke	t	n/a
568.716	0.092	1137432	keystroke	e	n/a
568.8285	0.0685	1137657	keystroke	n	n/a
569.1995	0.0915	1138399	keystroke	Key.backspace	n/a
569.3545	0.0925	1138709	keystroke	e	n/a
569.4945	0.114	1138989	keystroke	n	n/a
569.6575	0.114	1139315	keystroke	a	n/a
569.9105	0.161	1139821	keystroke	t	n/a
570.0725	0.134	1140145	keystroke	e	n/a
570.537	0.068	1141074	keystroke	Key.backspace	n/a
570.6815	0.092	1141363	keystroke	Key.backspace	n/a
570.7955	0.091	1141591	keystroke	g	n/a
570.8875	0.113	1141775	keystroke	e	n/a
571.021	0.094	1142042	keystroke	Key.space	n/a
571.8305	0.1385	1143661	keystroke	d	n/a
571.991	0.137	1143982	keystroke	a	n/a
572.1985	0.092	1144397	keystroke	v	n/a
572.3635	0.068	1144727	keystroke	e	n/a
572.633	0.091	1145266	keystroke	Key.space	n/a
572.9855	0.0905	1145971	keystroke	f	n/a
573.3895	0.09	1146779	keystroke	Key.backspace	n/a
573.5495	0.092	1147099	keystroke	Key.backspace	n/a
574.4045	0.114	1148809	keystroke	Key.space	n/a
574.5865	0.137	1149173	keystroke	p	n/a
574.8605	0.182	1149721	keystroke	r	n/a
574.9735	0.137	1149947	keystroke	e	n/a
575.349	0.158	1150698	keystroke	f	n/a
576.1865	0.1125	1152373	keystroke	e	n/a
576.331	0.115	1152662	keystroke	r	n/a
576.497	0.0935	1152994	keystroke	e	n/a
576.625	0.094	1153250	keystroke	n	n/a
576.825	0.071	1153650	keystroke	c	n/a
576.943	0.091	1153886	keystroke	e	n/a
577.1465	0.069	1154293	keystroke	s	n/a
577.2855	0.0935	1154571	keystroke	Key.enter	n/a
577.387	10.01	1154774	prompt	n/a	connecticut diane fighter notified\n
578.172	0.0925	1156344	keystroke	c	n/a
578.3195	0.112	1156639	keystroke	o	n/a
578.5365	0.068	1157073	keystroke	n	n/a
578.67	0.1145	1157340	keystroke	n	n/a
578.8415	0.135	1157683	keystroke	e	n/a
579.4745	0.0885	1158949	keystroke	c	n/a
579.7995	0.0905	1159599	keystroke	t	n/a
580.118	0.114	1160236	keystroke	i	n/a
581.681	0.1175	1163362	keystroke	c	n/a
581.8885	0.069	1163777	keystroke	u	n/a
581.9945	0.0905	1163989	keystroke	t	n/a
582.154	0.089	1164308	keystroke	Key.space	n/a
582.66	0.1135	1165320	keystroke	d	n/a
582.823	0.113	1165646	keystroke	i	n/a
582.89	0.091	1165780	keystroke	a	n/a
583.052	0.0695	1166104	keystroke	n	n/a
583.3165	0.089	1166633	keystroke	e	n/a
583.473	0.0925	1166946	keystroke	Key.space	n/a
583.779	0.092	1167558	keystroke	f	n/a
583.914	0.113	1167828	keystroke	i	n/a
584.0495	0.0915	1168099	keystroke	g	n/a
584.164	0.07	1168328	keystroke	h	n/a
584.306	0.202	1168612	keystroke	r	n/a
584.8095	0.114	1169619	keystroke	Key.backspace	n/a
584.9245	0.112	1169849	keystroke	t	n/a
585.0125	0.2245	1170025	keystroke	e	n/a
585.1455	0.136	1170291	keystroke	r	n/a
585.3325	0.112	1170665	keystroke	Key.space	n/a
586.2575	0.0925	1172515	keystroke	n	n/a
586.4225	0.091	1172845	keystroke	o	n/a
586.5505	0.091	1173101	keystroke	t	n/a
586.7235	0.091	1173447	keystroke	i	n/a
586.9195	0.0905	1173839	keystroke	f	n/a
587.0105	0.089	1174021	keystroke	i	n/a
587.1005	0.1375	1174201	keystroke	e	n/a
587.2385	0.112	1174477	keystroke	d	n/a
587.3275	0.068	1174655	keystroke	Key.enter	n/a
587.4005	7.3575	1174801	prompt	n/a	canadian manually solving episode\n
588.1925	0.1375	1176385	keystroke	c	n/a
588.3975	0.16	1176795	keystroke	a	n/a
588.5895	0.092	1177179	keystroke	n	n/a
588.7645	0.136	1177529	keystroke	a	n/a
589.032	0.0905	1178064	keystroke	d	n/a
589.1865	0.114	1178373	keystroke	i	n/a
589.2765	0.115	1178553	keystroke	a	n/a
589.4275	0.112	1178855	keystroke	n	n/a
589.6525	0.093	1179305	keystroke	Key.space	n/a
589.8875	0.113	1179775	keystroke	m	n/a
589.9775	0.091	1179955	keystroke	a	n/a
590.1755	0.114	1180351	keystroke	n	n/a
590.4405	0.091	1180881	keystroke	u	n/a
590.597	0.1135	1181194	keystroke	a	n/a
590.7725	0.069	1181545	keystroke	l	n/a
590.8975	0.0905	1181795	keystroke	l	n/a
591.4665	0.0725	1182933	keystroke	y	n/a
591.617	0.113	1183234	keystroke	Key.space	n/a
592.0655	0.092	1184131	keystroke	s	n/a
592.1585	0.09	1184317	keystroke	o	n/a
592.334	0.115	1184668	keystroke	l	n/a
592.649	0.091	1185298	keystroke	v	n/a
592.7605	0.116	1185521	keystroke	i	n/a
592.8305	0.112	1185661	keystroke	n	n/a
592.9435	0.092	1185887	keystroke	g	n/a
593.0575	0.1145	1186115	keystroke	Key.space	n/a
593.647	0.0915	1187294	keystroke	e	n/a
593.7935	0.0685	1187587	keystroke	p	n/a
593.996	0.093	1187992	keystroke	i	n/a
594.1545	0.0905	1188309	keystroke	s	n/a
594.347	0.1145	1188694	keystroke	o	n/a
594.483	0.1155	1188966	keystroke	d	n/a
594.575	0.137	1189150	keystroke	e	n/a
594.6655	0.091	1189331	keystroke	Key.enter	n/a
594.761	9.3065	1189522	prompt	n/a	couldn't bite inquire precious\n
595.4955	0.0915	1190991	keystroke	c	n/a
595.6295	0.0915	1191259	keystroke	o	n/a
595.8245	0.0905	1191649	keystroke	u	n/a
596.037	0.114	1192074	keystroke	l	n/a
596.181	0.091	1192362	keystroke	d	n/a
596.322	0.092	1192644	keystroke	n	n/a
596.63	0.112	1193260	keystroke	'	n/a
596.851	0.091	1193702	keystroke	t	n/a
596.965	0.0915	1193930	keystroke	Key.space	n/a
598.5205	0.0685	1197041	keystroke	b	n/a
598.664	0.0915	1197328	keystroke	i	n/a
598.786	0.135	1197572	keystroke	t	n/a
598.971	0.091	1197942	keystroke	e	n/a
599.063	0.112	1198126	keystroke	Key.space	n/a
599.4165	0.1145	1198833	keystroke	i	n/a
599.508	0.1135	1199016	keystroke	n	n/a
600.085	0.091	1200170	keystroke	q	n/a
600.226	0.069	1200452	keystroke	u	n/a
600.406	0.0935	1200812	keystroke	i	n/a
600.585	0.138	1201170	keystroke	r	n/a
600.674	0.114	1201348	keystroke	e	n/a
600.81	0.068	1201620	keystroke	Key.space	n/a
601.427	0.068	1202854	keystroke	p	n/a
601.6395	0.068	1203279	keystroke	e	n/a
601.6405	0.2025	1203281	keystroke	r	n/a
602.3795	0.091	1204759	keystroke	Key.backspace	n/a
602.5455	0.091	1205091	keystroke	Key.backspace	n/a
602.659	0.135	1205318	keystroke	r	n/a
602.749	0.158	1205498	keystroke	e	n/a
603.185	0.09	1206370	keystroke	c	n/a
603.3525	0.0705	1206705	keystroke	i	n/a
603.518	0.069	1207036	keystroke	o	n/a
603.7175	0.0905	1207435	keystroke	u	n/a
603.83	0.094	1207660	keystroke	s	n/a
603.9985	0.0675	1207997	keystroke	Key.enter	n/a
604.08	8.9695	1208160	prompt	n/a	washington publishers panama contractor\n
604.855	0.162	1209710	keystroke	w	n/a
605.068	0.137	1210136	keystroke	a	n/a
605.547	0.068	1211094	keystroke	s	n/a
605.646	0.089	1211292	keystroke	h	n/a
605.794	0.136	1211588	keystroke	i	n/a
605.884	0.114	1211768	keystroke	n	n/a
606.139	0.112	1212278	keystroke	g	n/a
606.3875	0.0675	1212775	keystroke	t	n/a
606.484	0.158	1212968	keystroke	o	n/a
606.575	0.138	1213150	keystroke	n	n/a
606.818	0.111	1213636	keystroke	Key.space	n/a
607.489	0.068	1214978	keystroke	p	n/a
607.74	0.112	1215480	keystroke	u	n/a
607.889	0.092	1215778	keystroke	b	n/a
608.127	0.09	1216254	keystroke	l	n/a
608.343	0.093	1216686	keystroke	i	n/a
608.466	0.071	1216932	keystroke	s	n/a
608.5745	0.0925	1217149	keystroke	h	n/a
608.668	0.112	1217336	keystroke	e	n/a
609.194	0.1395	1218388	keystroke	r	n/a
609.4155	0.0925	1218831	keystroke	s	n/a
609.557	0.135	1219114	keystroke	Key.space	n/a
609.9685	0.116	1219937	keystroke	p	n/a
610.085	0.0885	1220170	keystroke	a	n/a
610.234	0.0895	1220468	keystroke	n	n/a
610.345	0.091	1220690	keystroke	a	n/a
610.538	0.094	1221076	keystroke	m	n/a
610.653	0.092	1221306	keystroke	a	n/a
611.1575	0.093	1222315	keystroke	Key.space	n/a
611.4995	0.095	1222999	keystroke	c	n/a
611.5955	0.09	1223191	keystroke	o	n/a
611.6605	0.115	1223321	keystroke	n	n/a
611.8415	0.1155	1223683	keystroke	t	n/a
611.9575	0.1355	1223915	keystroke	r	n/a
612.115	0.138	1224230	keystroke	a	n/a
612.3705	0.0685	1224741	keystroke	c	n/a
612.587	0.07	1225174	keystroke	t	n/a
612.679	0.09	1225358	keystroke	o	n/a
612.802	0.115	1225604	keystroke	r	n/a
612.957	0.0905	1225914	keystroke	Key.enter	n/a
613.054	6.5945	1226108	prompt	n/a	promotion riding flex bored\n
613.8915	0.1135	1227783	keystroke	p	n/a
614.0905	0.09	1228181	keystroke	r	n/a
614.2015	0.068	1228403	keystroke	o	n/a
614.3665	0.113	1228733	keystroke	m	n/a
614.595	0.1155	1229190	keystroke	o	n/a
614.7405	0.089	1229481	keystroke	t	n/a
614.9335	0.278	1229867	keystroke	i	n/a
615.049	0.1395	1230098	keystroke	o	n/a
615.1395	0.1175	1230279	keystroke	n	n/a
616.0155	0.091	1232031	keystroke	Key.space	n/a
616.277	0.0915	1232554	keystroke	r	n/a
616.409	0.1145	1232818	keystroke	i	n/a
616.554	0.1185	1233108	keystroke	d	n/a
616.6485	0.1155	1233297	keystroke	i	n/a
616.7165	0.115	1233433	keystroke	n	n/a
616.8525	0.114	1233705	keystroke	g	n/a
616.9865	0.0705	1233973	keystroke	Key.space	n/a
617.3845	0.1125	1234769	keystroke	f	n/a
617.527	0.092	1235054	keystroke	l	n/a
617.641	0.112	1235282	keystroke	e	n/a
617.859	0.0915	1235718	keystroke	c	n/a
617.951	0.09	1235902	keystroke	Key.space	n/a
618.161	0.092	1236322	keystroke	b	n/a
618.391	0.09	1236782	keystroke	o	n/a
618.652	0.161	1237304	keystroke	a	n/a
619.006	0.1145	1238012	keystroke	Key.backspace	n/a
619.181	0.092	1238362	keystroke	r	n/a
619.274	0.178	1238548	keystroke	e	n/a
619.4065	0.1135	1238813	keystroke	d	n/a
619.555	0.092	1239110	keystroke	Key.enter	n/a
619.653	7.6505	1239306	prompt	n/a	larger reports enters initiatives\n
620.574	0.0915	1241148	keystroke	l	n/a
620.618	0.136	1241236	keystroke	a	n/a
620.811	0.0905	1241622	keystroke	r	n/a
621.0215	0.114	1242043	keystroke	g	n/a
621.1585	0.161	1242317	keystroke	e	n/a
621.2945	0.094	1242589	keystroke	r	n/a
621.44	0.0915	1242880	keystroke	Key.space	n/a
621.7675	0.137	1243535	keystroke	r	n/a
621.8585	0.136	1243717	keystroke	e	n/a
622.0485	0.093	1244097	keystroke	p	n/a
622.221	0.093	1244442	keystroke	o	n/a
622.3145	0.092	1244629	keystroke	r	n/a
622.4995	0.069	1244999	keystroke	t	n/a
622.6775	0.089	1245355	keystroke	s	n/a
622.7895	0.0905	1245579	keystroke	Key.space	n/a
622.9755	0.112	1245951	keystroke	e	n/a
623.0885	0.092	1246177	keystroke	n	n/a
623.2685	0.114	1246537	keystroke	t	n/a
623.4045	0.1605	1246809	keystroke	e	n/a
623.541	0.112	1247082	keystroke	r	n/a
623.697	0.114	1247394	keystroke	s	n/a
624.034	0.0925	1248068	keystroke	Key.space	n/a
624.335	0.1355	1248670	keystroke	i	n/a
624.403	0.1355	1248806	keystroke	n	n/a
624.6425	0.1375	1249285	keystroke	i	n/a
624.817	0.0895	1249634	keystroke	t	n/a
625.0185	0.1135	1250037	keystroke	i	n/a
625.5385	0.1145	1251077	keystroke	a	n/a
626.4585	0.0905	1252917	keystroke	t	n/a
626.603	0.092	1253206	keystroke	i	n/a
626.7855	0.089	1253571	keystroke	v	n/a
626.924	0.0905	1253848	keystroke	e	n/a
627.1155	0.0695	1254231	keystroke	s	n/a
627.2075	0.092	1254415	keystroke	Key.enter	n/a
627.313	10.4815	1254626	prompt	n/a	cingular numerous ongoing offices\n
628.125	0.047	1256250	keystroke	c	n/a
628.247	0.1145	1256494	keystroke	i	n/a
628.362	0.067	1256724	keystroke	n	n/a
628.6365	0.0925	1257273	keystroke	g	n/a
628.9805	0.0925	1257961	keystroke	u	n/a
629.2975	0.113	1258595	keystroke	l	n/a
629.4115	0.114	1258823	keystroke	a	n/a
630.085	0.0895	1260170	keystroke	t	n/a
630.344	0.092	1260688	keystroke	Key.space	n/a
630.877	0.134	1261754	keystroke	Key.backspace	n/a
631.032	0.1375	1262064	keystroke	r	n/a
631.1445	0.093	1262289	keystroke	Key.backspace	n/a
631.3035	0.091	1262607	keystroke	Key.backspace	n/a
631.4835	0.093	1262967	keystroke	r	n/a
631.847	0.091	1263694	keystroke	Key.space	n/a
632.131	0.0905	1264262	keystroke	e	n/a
632.614	0.115	1265228	keystroke	Key.backspace	n/a
633.0405	0.088	1266081	keystroke	n	n/a
633.171	0.069	1266342	keystroke	u	n/a
633.3575	0.0905	1266715	keystroke	m	n/a
633.449	0.1365	1266898	keystroke	e	n/a
633.56	0.113	1267120	keystroke	r	n/a
633.704	0.09	1267408	keystroke	o	n/a
633.927	0.1355	1267854	keystroke	u	n/a
634.114	0.1155	1268228	keystroke	s	n/a
634.2705	0.091	1268541	keystroke	Key.space	n/a
634.8015	0.1175	1269603	keystroke	o	n/a
634.963	0.091	1269926	keystroke	n	n/a
