onset	duration	sample	value	key	prompt_text
5.648	27.9795	11296	prompt	n/a	the quick brown fox jumps over a lazy dog\n
13.03	0.059	26060	keystroke_u	u	n/a
13.1795	0.075	26359	keystroke_i	i	n/a
13.3295	0.075	26659	keystroke_c	c	n/a
13.375	0.0895	26750	keystroke_k	k	n/a
13.5245	0.1195	27049	keystroke_Key.space	Key.space	n/a
14.32	0.045	28640	keystroke_Key.backspace	Key.backspace	n/a
14.4845	0.0455	28969	keystroke_Key.backspace	Key.backspace	n/a
14.634	0.0615	29268	keystroke_Key.backspace	Key.backspace	n/a
14.7845	0.0455	29569	keystroke_Key.backspace	Key.backspace	n/a
14.9045	0.15	29809	keystroke_Key.backspace	Key.backspace	n/a
15.2045	0.09	30409	keystroke_Key.backspace	Key.backspace	n/a
15.385	0.0445	30770	keystroke_Key.backspace	Key.backspace	n/a
15.5045	0.105	31009	keystroke_Key.caps_lock	Key.caps_lock	n/a
16.0295	0.075	32059	keystroke_t	t	n/a
16.1355	0.0745	32271	keystroke_h	h	n/a
16.2545	0.105	32509	keystroke_Key.space	Key.space	n/a
17.0645	0.075	34129	keystroke_Key.backspace	Key.backspace	n/a
17.515	0.075	35030	keystroke_e	e	n/a
18.2945	0.0905	36589	keystroke_Key.space	Key.space	n/a
18.489	0.0755	36978	keystroke_q	q	n/a
18.7145	0.0745	37429	keystroke_u	u	n/a
18.864	0.076	37728	keystroke_i	i	n/a
19.0305	0.0585	38061	keystroke_c	c	n/a
19.104	0.091	38208	keystroke_k	k	n/a
19.284	0.0905	38568	keystroke_Key.space	Key.space	n/a
19.4045	0.106	38809	keystroke_b	b	n/a
19.5405	0.089	39081	keystroke_r	r	n/a
19.66	0.0755	39320	keystroke_i	i	n/a
19.7945	0.075	39589	keystroke_w	w	n/a
19.9005	0.1945	39801	keystroke_n	n	n/a
20.02	0.1645	40040	keystroke_Key.space	Key.space	n/a
20.2145	0.0905	40429	keystroke_f	f	n/a
20.3495	0.045	40699	keystroke_o	o	n/a
20.4545	0.09	40909	keystroke_x	x	n/a
20.7095	0.015	41419	keystroke_Key.space	Key.space	n/a
20.8595	0.075	41719	keystroke_Key.backspace	Key.backspace	n/a
21.01	0.0595	42020	keystroke_Key.backspace	Key.backspace	n/a
21.145	0.0595	42290	keystroke_Key.backspace	Key.backspace	n/a
21.28	0.0595	42560	keystroke_Key.backspace	Key.backspace	n/a
21.401	0.0885	42802	keystroke_Key.backspace	Key.backspace	n/a
21.565	0.0595	43130	keystroke_Key.backspace	Key.backspace	n/a
21.6995	0.075	43399	keystroke_Key.backspace	Key.backspace	n/a
21.85	0.105	43700	keystroke_Key.backspace	Key.backspace	n/a
22.48	0.0755	44960	keystroke_o	o	n/a
22.6	0.09	45200	keystroke_w	w	n/a
22.75	0.1505	45500	keystroke_n	n	n/a
22.824	0.166	45648	keystroke_Key.space	Key.space	n/a
23.065	0.075	46130	keystroke_f	f	n/a
23.2	0.03	46400	keystroke_i	i	n/a
23.3495	0.0755	46699	keystroke_x	x	n/a
23.7095	0.0605	47419	keystroke_Key.backspace	Key.backspace	n/a
23.8445	0.09	47689	keystroke_Key.backspace	Key.backspace	n/a
24.4455	0.09	48891	keystroke_o	o	n/a
24.625	0.1045	49250	keystroke_x	x	n/a
24.7445	0.135	49489	keystroke_Key.space	Key.space	n/a
25.6295	0.075	51259	keystroke_j	j	n/a
25.8105	0.089	51621	keystroke_u	u	n/a
25.9595	0.1355	51919	keystroke_m	m	n/a
26.155	0.105	52310	keystroke_o	o	n/a
26.2905	0.074	52581	keystroke_s	s	n/a
26.3495	0.15	52699	keystroke_Key.space	Key.space	n/a
28.075	0.061	56150	keystroke_Key.backspace	Key.backspace	n/a
28.224	0.061	56448	keystroke_Key.backspace	Key.backspace	n/a
28.39	0.0455	56780	keystroke_Key.backspace	Key.backspace	n/a
29.215	0.1055	58430	keystroke_o	o	n/a
29.605	0.0895	59210	keystroke_Key.backspace	Key.backspace	n/a
29.89	0.0755	59780	keystroke_p	p	n/a
30.07	0.075	60140	keystroke_s	s	n/a
30.13	0.09	60260	keystroke_Key.space	Key.space	n/a
30.34	0.0905	60680	keystroke_o	o	n/a
30.595	0.075	61190	keystroke_v	v	n/a
30.7005	0.0745	61401	keystroke_e	e	n/a
30.865	0.0745	61730	keystroke_r	r	n/a
30.9095	0.0905	61819	keystroke_Key.space	Key.space	n/a
31.09	0.075	62180	keystroke_a	a	n/a
31.285	0.09	62570	keystroke_Key.space	Key.space	n/a
31.48	0.0755	62960	keystroke_l	l	n/a
31.705	0.09	63410	keystroke_a	a	n/a
31.9005	0.089	63801	keystroke_z	z	n/a
32.0495	0.105	64099	keystroke_y	y	n/a
32.215	0.1345	64430	keystroke_Key.space	Key.space	n/a
32.5605	0.09	65121	keystroke_d	d	n/a
32.6655	0.1195	65331	keystroke_o	o	n/a
32.859	0.091	65718	keystroke_g	g	n/a
33.61	0.0145	67220	keystroke_Key.enter	Key.enter	n/a
33.634	11.303	67268	prompt	n/a	certain exotic excitement photograph\n
34.39	0.105	68780	keystroke_c	c	n/a
34.585	0.105	69170	keystroke_e	e	n/a
34.75	0.09	69500	keystroke_r	r	n/a
34.9595	0.075	69919	keystroke_t	t	n/a
35.245	0.0755	70490	keystroke_a	a	n/a
35.3955	0.1345	70791	keystroke_i	i	n/a
35.4855	0.0905	70971	keystroke_n	n	n/a
35.68	0.105	71360	keystroke_Key.space	Key.space	n/a
35.9055	0.089	71811	keystroke_e	e	n/a
36.1295	0.106	72259	keystroke_x	x	n/a
36.28	0.1055	72560	keystroke_o	o	n/a
36.565	0.09	73130	keystroke_t	t	n/a
36.73	0.1045	73460	keystroke_i	i	n/a
36.865	0.1205	73730	keystroke_c	c	n/a
37.0295	0.135	74059	keystroke_Key.space	Key.space	n/a
37.3445	0.105	74689	keystroke_e	e	n/a
37.584	0.076	75168	keystroke_x	x	n/a
37.78	0.09	75560	keystroke_c	c	n/a
37.9005	0.09	75801	keystroke_i	i	n/a
39.3395	0.0755	78679	keystroke_t	t	n/a
39.535	0.06	79070	keystroke_e	e	n/a
39.655	0.09	79310	keystroke_m	m	n/a
39.73	0.075	79460	keystroke_e	e	n/a
39.85	0.09	79700	keystroke_n	n	n/a
39.955	0.075	79910	keystroke_t	t	n/a
40.12	0.105	80240	keystroke_Key.space	Key.space	n/a
40.585	0.0605	81170	keystroke_p	p	n/a
40.7805	0.09	81561	keystroke_h	h	n/a
40.8995	0.106	81799	keystroke_o	o	n/a
41.0655	0.06	82131	keystroke_t	t	n/a
41.455	0.06	82910	keystroke_o	o	n/a
41.666	0.014	83332	keystroke_p	p	n/a
42.01	0.06	84020	keystroke_Key.backspace	Key.backspace	n/a
42.025	0.031	84050	keystroke_=	=	n/a
42.94	0.09	85880	keystroke_Key.backspace	Key.backspace	n/a
43.6155	0.075	87231	keystroke_g	g	n/a
43.7045	0.0905	87409	keystroke_r	r	n/a
43.945	0.089	87890	keystroke_a	a	n/a
44.065	0.075	88130	keystroke_p	p	n/a
44.2895	0.075	88579	keystroke_h	h	n/a
44.875	0.06	89750	keystroke_Key.enter	Key.enter	n/a
44.942	9.3845	89884	prompt	n/a	helen ranked coaches simulations\n
46.09	0.0155	92180	keystroke_h	h	n/a
46.1355	0.075	92271	keystroke_e	e	n/a
46.2555	0.06	92511	keystroke_l	l	n/a
46.4205	0.0595	92841	keystroke_e	e	n/a
46.614	0.136	93228	keystroke_n	n	n/a
46.705	0.135	93410	keystroke_Key.space	Key.space	n/a
46.885	0.075	93770	keystroke_r	r	n/a
47.125	0.06	94250	keystroke_a	a	n/a
47.214	0.181	94428	keystroke_n	n	n/a
47.335	0.12	94670	keystroke_k	k	n/a
47.47	0.0905	94940	keystroke_e	e	n/a
47.6505	0.0895	95301	keystroke_d	d	n/a
47.785	0.0895	95570	keystroke_Key.space	Key.space	n/a
47.9205	0.075	95841	keystroke_c	c	n/a
48.0695	0.0595	96139	keystroke_o	o	n/a
48.265	0.1195	96530	keystroke_a	a	n/a
48.5645	0.06	97129	keystroke_c	c	n/a
48.6395	0.075	97279	keystroke_h	h	n/a
48.76	0.075	97520	keystroke_e	e	n/a
48.94	0.09	97880	keystroke_s	s	n/a
49.12	0.09	98240	keystroke_Key.space	Key.space	n/a
49.9595	0.0905	99919	keystroke_s	s	n/a
50.35	0.1205	100700	keystroke_i	i	n/a
50.5745	0.1055	101149	keystroke_m	m	n/a
50.77	0.075	101540	keystroke_u	u	n/a
51.085	0.0755	102170	keystroke_a	a	n/a
52.18	0.075	104360	keystroke_Key.backspace	Key.backspace	n/a
52.4945	0.0755	104989	keystroke_l	l	n/a
52.6155	0.1045	105231	keystroke_a	a	n/a
52.9305	0.0895	105861	keystroke_t	t	n/a
53.0655	0.0595	106131	keystroke_i	i	n/a
53.23	0.135	106460	keystroke_o	o	n/a
53.305	0.135	106610	keystroke_n	n	n/a
53.455	0.0755	106910	keystroke_s	s	n/a
54.25	0.075	108500	keystroke_Key.enter	Key.enter	n/a
54.331	11.456	108662	prompt	n/a	cialis second poison festival\n
55.9755	0.015	111951	keystroke_c	c	n/a
56.0355	0.06	112071	keystroke_i	i	n/a
56.1405	0.074	112281	keystroke_a	a	n/a
56.2295	0.0755	112459	keystroke_l	l	n/a
56.4105	0.0595	112821	keystroke_i	i	n/a
56.5	0.075	113000	keystroke_s	s	n/a
56.62	0.121	113240	keystroke_Key.space	Key.space	n/a
56.8605	0.1045	113721	keystroke_s	s	n/a
57.04	0.075	114080	keystroke_e	e	n/a
57.25	0.09	114500	keystroke_c	c	n/a
57.34	0.165	114680	keystroke_o	o	n/a
57.415	0.135	114830	keystroke_n	n	n/a
57.58	0.091	115160	keystroke_d	d	n/a
57.64	0.1945	115280	keystroke_Key.space	Key.space	n/a
58.9	0.09	117800	keystroke_o	o	n/a
59.485	0.09	118970	keystroke_Key.backspace	Key.backspace	n/a
59.74	0.0755	119480	keystroke_p	p	n/a
59.8905	0.0895	119781	keystroke_o	o	n/a
60.07	0.06	120140	keystroke_s	s	n/a
60.16	0.105	120320	keystroke_i	i	n/a
60.356	0.1795	120712	keystroke_o	o	n/a
60.49	0.135	120980	keystroke_n	n	n/a
60.67	0.165	121340	keystroke_Key.space	Key.space	n/a
61.8555	0.0745	123711	keystroke_Key.backspace	Key.backspace	n/a
62.005	0.0755	124010	keystroke_Key.backspace	Key.backspace	n/a
62.155	0.06	124310	keystroke_Key.backspace	Key.backspace	n/a
62.245	0.045	124490	keystroke_Key.backspace	Key.backspace	n/a
62.59	0.0895	125180	keystroke_Key.backspace	Key.backspace	n/a
63.145	0.0595	126290	keystroke_Key.backspace	Key.backspace	n/a
63.4455	0.075	126891	keystroke_i	i	n/a
63.6105	0.075	127221	keystroke_s	s	n/a
63.6705	0.15	127341	keystroke_o	o	n/a
63.7605	0.1045	127521	keystroke_n	n	n/a
63.955	0.1205	127910	keystroke_Key.space	Key.space	n/a
64.15	0.0755	128300	keystroke_f	f	n/a
64.3445	0.076	128689	keystroke_e	e	n/a
64.5255	0.09	129051	keystroke_s	s	n/a
64.7355	0.075	129471	keystroke_t	t	n/a
64.8405	0.0895	129681	keystroke_i	i	n/a
64.99	0.075	129980	keystroke_v	v	n/a
65.245	0.075	130490	keystroke_a	a	n/a
65.4245	0.0905	130849	keystroke_l	l	n/a
65.7095	0.075	131419	keystroke_Key.enter	Key.enter	n/a
65.7915	12.1005	131583	prompt	n/a	appeal departmental bookmark tiffany\n
66.505	0.09	133010	keystroke_a	a	n/a
66.656	0.0595	133312	keystroke_p	p	n/a
66.82	0.12	133640	keystroke_p	p	n/a
66.955	0.09	133910	keystroke_e	e	n/a
67.181	0.074	134362	keystroke_a	a	n/a
67.285	0.09	134570	keystroke_l	l	n/a
67.435	0.1045	134870	keystroke_Key.space	Key.space	n/a
67.6605	0.0745	135321	keystroke_d	d	n/a
67.84	0.045	135680	keystroke_e	e	n/a
67.9595	0.031	135919	keystroke_p	p	n/a
68.0655	0.089	136131	keystroke_a	a	n/a
68.89	0.075	137780	keystroke_r	r	n/a
69.0555	0.0905	138111	keystroke_t	t	n/a
69.161	0.089	138322	keystroke_m	m	n/a
69.295	0.075	138590	keystroke_e	e	n/a
69.386	0.075	138772	keystroke_n	n	n/a
69.505	0.075	139010	keystroke_t	t	n/a
69.655	0.105	139310	keystroke_l	l	n/a
69.8645	0.105	139729	keystroke_Key.space	Key.space	n/a
70.4345	0.0905	140869	keystroke_b	b	n/a
70.5555	0.0895	141111	keystroke_o	o	n/a
70.69	0.1205	141380	keystroke_o	o	n/a
72.265	0.0605	144530	keystroke_Key.backspace	Key.backspace	n/a
72.565	0.045	145130	keystroke_Key.backspace	Key.backspace	n/a
72.8805	0.0445	145761	keystroke_Key.backspace	Key.backspace	n/a
73.1495	0.0605	146299	keystroke_Key.backspace	Key.backspace	n/a
73.3155	0.059	146631	keystroke_Key.backspace	Key.backspace	n/a
73.646	0.075	147292	keystroke_a	a	n/a
73.87	0.09	147740	keystroke_l	l	n/a
74.065	0.105	148130	keystroke_Key.space	Key.space	n/a
74.7105	0.06	149421	keystroke_b	b	n/a
74.8305	0.06	149661	keystroke_o	o	n/a
74.9655	0.105	149931	keystroke_o	o	n/a
75.3405	0.105	150681	keystroke_k	k	n/a
75.535	0.075	151070	keystroke_m	m	n/a
75.7145	0.076	151429	keystroke_a	a	n/a
75.9405	0.0445	151881	keystroke_r	r	n/a
76.0305	0.1045	152061	keystroke_k	k	n/a
76.1505	0.1345	152301	keystroke_Key.space	Key.space	n/a
76.645	0.09	153290	keystroke_t	t	n/a
76.781	0.0595	153562	keystroke_i	i	n/a
76.9005	0.0595	153801	keystroke_f	f	n/a
77.05	0.09	154100	keystroke_f	f	n/a
77.3055	0.0595	154611	keystroke_a	a	n/a
77.4255	0.075	154851	keystroke_n	n	n/a
77.6355	0.045	155271	keystroke_y	y	n/a
77.8445	0.046	155689	keystroke_Key.enter	Key.enter	n/a
77.903	7.115	155806	prompt	n/a	insider hayes judy creatures\n
78.745	0.15	157490	keystroke_i	i	n/a
78.82	0.135	157640	keystroke_n	n	n/a
78.925	0.09	157850	keystroke_s	s	n/a
79.0305	0.09	158061	keystroke_i	i	n/a
79.1505	0.0895	158301	keystroke_d	d	n/a
79.315	0.105	158630	keystroke_e	e	n/a
79.4955	0.0745	158991	keystroke_r	r	n/a
79.69	0.1055	159380	keystroke_Key.space	Key.space	n/a
80.3205	0.075	160641	keystroke_h	h	n/a
80.4245	0.106	160849	keystroke_a	a	n/a
80.5155	0.075	161031	keystroke_y	y	n/a
80.6655	0.075	161331	keystroke_e	e	n/a
80.8455	0.09	161691	keystroke_s	s	n/a
80.9505	0.075	161901	keystroke_Key.space	Key.space	n/a
81.475	0.075	162950	keystroke_j	j	n/a
81.64	0.075	163280	keystroke_u	u	n/a
81.745	0.091	163490	keystroke_d	d	n/a
81.851	0.134	163702	keystroke_y	y	n/a
81.9855	0.1495	163971	keystroke_Key.space	Key.space	n/a
82.525	0.075	165050	keystroke_c	c	n/a
82.78	0.091	165560	keystroke_r	r	n/a
82.931	0.104	165862	keystroke_e	e	n/a
83.125	0.12	166250	keystroke_a	a	n/a
83.3955	0.0745	166791	keystroke_t	t	n/a
83.4555	0.0755	166911	keystroke_u	u	n/a
83.6355	0.0895	167271	keystroke_r	r	n/a
83.8145	0.076	167629	keystroke_e	e	n/a
84.0105	0.09	168021	keystroke_s	s	n/a
84.955	0.0595	169910	keystroke_Key.enter	Key.enter	n/a
85.022	9.3095	170044	prompt	n/a	thomson smithsonian predictions riding\n
86.1105	0.0145	172221	keystroke_t	t	n/a
86.14	0.015	172280	keystroke_h	h	n/a
86.17	0.1355	172340	keystroke_o	o	n/a
86.245	0.135	172490	keystroke_m	m	n/a
86.395	0.075	172790	keystroke_s	s	n/a
86.515	0.18	173030	keystroke_o	o	n/a
86.605	0.15	173210	keystroke_n	n	n/a
86.7995	0.15	173599	keystroke_Key.space	Key.space	n/a
87.3095	0.075	174619	keystroke_s	s	n/a
87.49	0.0755	174980	keystroke_m	m	n/a
87.6705	0.06	175341	keystroke_i	i	n/a
87.7905	0.0745	175581	keystroke_t	t	n/a
87.88	0.075	175760	keystroke_h	h	n/a
88.075	0.075	176150	keystroke_s	s	n/a
88.165	0.06	176330	keystroke_o	o	n/a
88.345	0.1355	176690	keystroke_n	n	n/a
88.45	0.12	176900	keystroke_i	i	n/a
88.63	0.09	177260	keystroke_a	a	n/a
88.765	0.1805	177530	keystroke_n	n	n/a
88.8705	0.1495	177741	keystroke_Key.space	Key.space	n/a
91.378	0.012	182756	keystroke_p	p	n/a
91.48	0.0895	182960	keystroke_r	r	n/a
91.6445	0.091	183289	keystroke_e	e	n/a
91.84	0.06	183680	keystroke_d	d	n/a
91.961	0.074	183922	keystroke_i	i	n/a
92.065	0.075	184130	keystroke_c	c	n/a
92.29	0.075	184580	keystroke_t	t	n/a
92.4255	0.09	184851	keystroke_i	i	n/a
92.6055	0.1645	185211	keystroke_o	o	n/a
92.7105	0.1345	185421	keystroke_n	n	n/a
92.83	0.135	185660	keystroke_s	s	n/a
93.01	0.135	186020	keystroke_Key.space	Key.space	n/a
93.16	0.09	186320	keystroke_r	r	n/a
93.295	0.075	186590	keystroke_i	i	n/a
93.385	0.075	186770	keystroke_d	d	n/a
93.5055	0.164	187011	keystroke_i	i	n/a
93.5805	0.165	187161	keystroke_n	n	n/a
93.6995	0.105	187399	keystroke_g	g	n/a
94.18	0.15	188360	keystroke_Key.enter	Key.enter	n/a
94.3385	8.318	188677	prompt	n/a	spirit scale competitors peripherals\n
95.215	0.076	190430	keystroke_s	s	n/a
95.3355	0.0745	190671	keystroke_p	p	n/a
95.6055	0.105	191211	keystroke_i	i	n/a
95.7705	0.0595	191541	keystroke_r	r	n/a
96.85	0.06	193700	keystroke_i	i	n/a
96.985	0.075	193970	keystroke_t	t	n/a
97.12	0.105	194240	keystroke_Key.space	Key.space	n/a
97.45	0.0905	194900	keystroke_s	s	n/a
97.6745	0.091	195349	keystroke_c	c	n/a
97.9155	0.059	195831	keystroke_a	a	n/a
98.0205	0.06	196041	keystroke_l	l	n/a
98.1255	0.075	196251	keystroke_e	e	n/a
98.2145	0.121	196429	keystroke_Key.space	Key.space	n/a
98.3795	0.091	196759	keystroke_c	c	n/a
98.4855	0.165	196971	keystroke_o	o	n/a
98.561	0.2245	197122	keystroke_m	m	n/a
98.74	0.1205	197480	keystroke_p	p	n/a
98.875	0.0605	197750	keystroke_e	e	n/a
99.07	0.0755	198140	keystroke_t	t	n/a
99.1605	0.09	198321	keystroke_i	i	n/a
99.28	0.075	198560	keystroke_t	t	n/a
99.37	0.061	198740	keystroke_o	o	n/a
99.5645	0.03	199129	keystroke_r	r	n/a
100.241	0.059	200482	keystroke_s	s	n/a
100.39	0.1045	200780	keystroke_Key.space	Key.space	n/a
100.885	0.075	201770	keystroke_p	p	n/a
101.081	0.0735	202162	keystroke_e	e	n/a
101.2445	0.075	202489	keystroke_r	r	n/a
101.3945	0.091	202789	keystroke_p	p	n/a
101.6955	0.0755	203391	keystroke_h	h	n/a
101.785	0.0755	203570	keystroke_e	e	n/a
101.95	0.06	203900	keystroke_r	r	n/a
102.19	0.06	204380	keystroke_a	a	n/a
102.266	0.104	204532	keystroke_l	l	n/a
102.4	0.075	204800	keystroke_s	s	n/a
102.565	0.09	205130	keystroke_Key.enter	Key.enter	n/a
102.665	5.347	205330	prompt	n/a	chains animals harder serious\n
103.3605	0.1045	206721	keystroke_c	c	n/a
103.4945	0.091	206989	keystroke_h	h	n/a
103.631	0.0885	207262	keystroke_a	a	n/a
103.7645	0.1665	207529	keystroke_i	i	n/a
103.8405	0.1645	207681	keystroke_n	n	n/a
104.0355	0.06	208071	keystroke_s	s	n/a
104.1845	0.1205	208369	keystroke_Key.space	Key.space	n/a
104.351	0.0895	208702	keystroke_a	a	n/a
104.515	0.0905	209030	keystroke_n	n	n/a
104.7255	0.149	209451	keystroke_i	i	n/a
104.815	0.1655	209630	keystroke_m	m	n/a
104.9655	0.075	209931	keystroke_a	a	n/a
105.0705	0.105	210141	keystroke_l	l	n/a
105.2205	0.075	210441	keystroke_s	s	n/a
105.2805	0.12	210561	keystroke_Key.space	Key.space	n/a
105.505	0.1055	211010	keystroke_h	h	n/a
105.5955	0.1045	211191	keystroke_a	a	n/a
105.8505	0.0905	211701	keystroke_r	r	n/a
106.045	0.0905	212090	keystroke_d	d	n/a
106.225	0.076	212450	keystroke_e	e	n/a
106.375	0.105	212750	keystroke_r	r	n/a
106.465	0.1055	212930	keystroke_Key.space	Key.space	n/a
106.676	0.105	213352	keystroke_s	s	n/a
106.915	0.075	213830	keystroke_e	e	n/a
107.0955	0.0745	214191	keystroke_r	r	n/a
107.2305	0.06	214461	keystroke_i	i	n/a
107.3945	0.075	214789	keystroke_o	o	n/a
107.59	0.09	215180	keystroke_u	u	n/a
107.71	0.075	215420	keystroke_s	s	n/a
107.965	0.045	215930	keystroke_Key.enter	Key.enter	n/a
108.0175	5.665	216035	prompt	n/a	cricket fleet patio mayor\n
108.7905	0.09	217581	keystroke_c	c	n/a
109.0005	0.075	218001	keystroke_r	r	n/a
109.1205	0.074	218241	keystroke_i	i	n/a
109.2555	0.105	218511	keystroke_c	c	n/a
109.3755	0.045	218751	keystroke_k	k	n/a
109.5095	0.06	219019	keystroke_e	e	n/a
109.7055	0.075	219411	keystroke_t	t	n/a
109.7955	0.105	219591	keystroke_Key.space	Key.space	n/a
110.2155	0.09	220431	keystroke_p	p	n/a
110.3505	0.075	220701	keystroke_a	a	n/a
110.6505	0.06	221301	keystroke_t	t	n/a
110.7255	0.09	221451	keystroke_i	i	n/a
110.8905	0.1045	221781	keystroke_o	o	n/a
111.055	0.1355	222110	keystroke_Key.space	Key.space	n/a
111.2655	0.105	222531	keystroke_m	m	n/a
111.43	0.0905	222860	keystroke_a	a	n/a
111.565	0.1045	223130	keystroke_y	y	n/a
111.9855	0.045	223971	keystroke_p	p	n/a
112.0005	0.015	224001	keystroke_o	o	n/a
112.6595	0.0605	225319	keystroke_Key.backspace	Key.backspace	n/a
112.81	0.075	225620	keystroke_Key.backspace	Key.backspace	n/a
113.38	0.075	226760	keystroke_o	o	n/a
113.456	0.075	226912	keystroke_r	r	n/a
113.5895	0.09	227179	keystroke_Key.enter	Key.enter	n/a
113.6875	8.349	227375	prompt	n/a	writes recreation collect imported\n
114.4605	0.09	228921	keystroke_w	w	n/a
114.6555	0.09	229311	keystroke_r	r	n/a
114.7745	0.0905	229549	keystroke_i	i	n/a
115.0005	0.0745	230001	keystroke_t	t	n/a
115.09	0.105	230180	keystroke_e	e	n/a
115.27	0.105	230540	keystroke_s	s	n/a
115.4205	0.09	230841	keystroke_Key.space	Key.space	n/a
116.02	0.0755	232040	keystroke_e	e	n/a
116.4855	0.09	232971	keystroke_Key.backspace	Key.backspace	n/a
116.6355	0.075	233271	keystroke_r	r	n/a
116.8005	0.09	233601	keystroke_e	e	n/a
117.0395	0.06	234079	keystroke_c	c	n/a
117.2345	0.075	234469	keystroke_r	r	n/a
117.3995	0.045	234799	keystroke_e	e	n/a
117.595	0.0755	235190	keystroke_a	a	n/a
117.865	0.06	235730	keystroke_t	t	n/a
118.0005	0.1045	236001	keystroke_i	i	n/a
118.1955	0.119	236391	keystroke_o	o	n/a
118.2855	0.149	236571	keystroke_n	n	n/a
118.5395	0.106	237079	keystroke_Key.space	Key.space	n/a
119.126	0.1045	238252	keystroke_c	c	n/a
119.2755	0.089	238551	keystroke_o	o	n/a
119.4705	0.0605	238941	keystroke_l	l	n/a
119.605	0.075	239210	keystroke_l	l	n/a
119.71	0.09	239420	keystroke_e	e	n/a
119.9045	0.09	239809	keystroke_c	c	n/a
120.1605	0.0605	240321	keystroke_t	t	n/a
120.28	0.0755	240560	keystroke_Key.space	Key.space	n/a
120.625	0.1495	241250	keystroke_i	i	n/a
120.7155	0.149	241431	keystroke_m	m	n/a
120.9095	0.091	241819	keystroke_p	p	n/a
121.1055	0.0895	242211	keystroke_o	o	n/a
121.21	0.0905	242420	keystroke_r	r	n/a
121.4055	0.0895	242811	keystroke_t	t	n/a
121.615	0.09	243230	keystroke_e	e	n/a
121.795	0.12	243590	keystroke_d	d	n/a
121.945	0.0895	243890	keystroke_Key.enter	Key.enter	n/a
122.044	8.0025	244088	prompt	n/a	activation dennis organization haven\n
122.7545	0.106	245509	keystroke_a	a	n/a
123.025	0.076	246050	keystroke_c	c	n/a
123.22	0.061	246440	keystroke_t	t	n/a
123.3255	0.0745	246651	keystroke_i	i	n/a
123.5055	0.06	247011	keystroke_v	v	n/a
123.7455	0.0895	247491	keystroke_a	a	n/a
124.0155	0.075	248031	keystroke_t	t	n/a
124.1355	0.09	248271	keystroke_i	i	n/a
124.405	0.09	248810	keystroke_o	o	n/a
124.42	0.135	248840	keystroke_n	n	n/a
124.615	0.135	249230	keystroke_Key.space	Key.space	n/a
124.81	0.0745	249620	keystroke_d	d	n/a
124.9905	0.044	249981	keystroke_e	e	n/a
125.1095	0.076	250219	keystroke_n	n	n/a
125.2595	0.136	250519	keystroke_n	n	n/a
125.4545	0.1205	250909	keystroke_i	i	n/a
125.59	0.121	251180	keystroke_s	s	n/a
125.711	0.074	251422	keystroke_Key.space	Key.space	n/a
125.861	0.089	251722	keystroke_o	o	n/a
125.9955	0.075	251991	keystroke_r	r	n/a
126.1455	0.09	252291	keystroke_g	g	n/a
126.2655	0.074	252531	keystroke_a	a	n/a
126.4005	0.165	252801	keystroke_n	n	n/a
126.5205	0.104	253041	keystroke_i	i	n/a
126.6395	0.09	253279	keystroke_z	z	n/a
126.8055	0.105	253611	keystroke_a	a	n/a
127.0905	0.074	254181	keystroke_t	t	n/a
127.1805	0.0895	254361	keystroke_i	i	n/a
127.3145	0.181	254629	keystroke_o	o	n/a
127.4045	0.151	254809	keystroke_n	n	n/a
127.6305	0.164	255261	keystroke_Key.space	Key.space	n/a
129.04	0.09	258080	keystroke_h	h	n/a
129.25	0.09	258500	keystroke_a	a	n/a
129.355	0.105	258710	keystroke_v	v	n/a
129.5195	0.0755	259039	keystroke_e	e	n/a
129.6245	0.135	259249	keystroke_n	n	n/a
129.9545	0.0905	259909	keystroke_Key.enter	Key.enter	n/a
130.0505	5.7415	260101	prompt	n/a	morris wicked museum electric\n
130.735	0.165	261470	keystroke_m	m	n/a
130.87	0.12	261740	keystroke_o	o	n/a
131.005	0.06	262010	keystroke_r	r	n/a
131.185	0.09	262370	keystroke_r	r	n/a
131.3205	0.0895	262641	keystroke_i	i	n/a
131.485	0.075	262970	keystroke_s	s	n/a
131.6045	0.151	263209	keystroke_Key.space	Key.space	n/a
132.0105	0.0745	264021	keystroke_w	w	n/a
132.2205	0.12	264441	keystroke_i	i	n/a
132.385	0.09	264770	keystroke_c	c	n/a
132.491	0.089	264982	keystroke_k	k	n/a
132.625	0.075	265250	keystroke_e	e	n/a
132.7905	0.0745	265581	keystroke_d	d	n/a
132.8945	0.165	265789	keystroke_Key.space	Key.space	n/a
133.03	0.1355	266060	keystroke_m	m	n/a
133.33	0.09	266660	keystroke_u	u	n/a
133.465	0.0905	266930	keystroke_s	s	n/a
133.6445	0.0755	267289	keystroke_e	e	n/a
133.735	0.105	267470	keystroke_u	u	n/a
133.975	0.1505	267950	keystroke_m	m	n/a
134.1095	0.12	268219	keystroke_Key.space	Key.space	n/a
134.365	0.105	268730	keystroke_e	e	n/a
134.515	0.075	269030	keystroke_l	l	n/a
134.6805	0.09	269361	keystroke_e	e	n/a
134.905	0.09	269810	keystroke_c	c	n/a
135.1305	0.0605	270261	keystroke_t	t	n/a
135.28	0.105	270560	keystroke_r	r	n/a
135.4005	0.105	270801	keystroke_i	i	n/a
135.55	0.09	271100	keystroke_c	c	n/a
135.7	0.09	271400	keystroke_Key.enter	Key.enter	n/a
135.7955	10.301	271591	prompt	n/a	ensures papua tractor sticker\n
136.465	0.075	272930	keystroke_e	e	n/a
136.57	0.105	273140	keystroke_n	n	n/a
136.705	0.09	273410	keystroke_s	s	n/a
136.8105	0.0745	273621	keystroke_u	u	n/a
136.93	0.0905	273860	keystroke_r	r	n/a
137.11	0.09	274220	keystroke_e	e	n/a
137.29	0.1055	274580	keystroke_s	s	n/a
137.3955	0.0895	274791	keystroke_Key.space	Key.space	n/a
137.605	0.0605	275210	keystroke_o	o	n/a
137.6805	0.059	275361	keystroke_a	a	n/a
137.815	0.1055	275630	keystroke_o	o	n/a
138.0545	0.0755	276109	keystroke_u	u	n/a
138.2355	0.074	276471	keystroke_a	a	n/a
138.6395	0.0605	277279	keystroke_Key.backspace	Key.backspace	n/a
138.7895	0.06	277579	keystroke_Key.backspace	Key.backspace	n/a
138.9395	0.045	277879	keystroke_Key.backspace	Key.backspace	n/a
139.0595	0.0755	278119	keystroke_Key.backspace	Key.backspace	n/a
139.2545	0.0455	278509	keystroke_Key.backspace	Key.backspace	n/a
140.095	0.0605	280190	keystroke_p	p	n/a
140.2605	0.0595	280521	keystroke_a	a	n/a
140.38	0.075	280760	keystroke_p	p	n/a
140.605	0.075	281210	keystroke_u	u	n/a
140.74	0.075	281480	keystroke_a	a	n/a
140.845	0.105	281690	keystroke_Key.space	Key.space	n/a
141.07	0.075	282140	keystroke_t	t	n/a
141.25	0.0605	282500	keystroke_r	r	n/a
141.49	0.075	282980	keystroke_a	a	n/a
141.7455	0.075	283491	keystroke_c	c	n/a
141.9395	0.06	283879	keystroke_t	t	n/a
142.0595	0.0905	284119	keystroke_o	o	n/a
142.1945	0.061	284389	keystroke_r	r	n/a
142.3295	0.106	284659	keystroke_Key.space	Key.space	n/a
144.054	0.091	288108	keystroke_s	s	n/a
144.279	0.0765	288558	keystroke_t	t	n/a
144.415	0.09	288830	keystroke_i	i	n/a
144.5495	0.1055	289099	keystroke_c	c	n/a
144.73	0.1195	289460	keystroke_k	k	n/a
144.9545	0.12	289909	keystroke_e	e	n/a
145.1655	0.104	290331	keystroke_r	r	n/a
146.0045	0.0905	292009	keystroke_Key.enter	Key.enter	n/a
146.1025	6.5345	292205	prompt	n/a	spectrum controls based left\n
146.8	0.135	293600	keystroke_s	s	n/a
146.95	0.076	293900	keystroke_p	p	n/a
147.0705	0.0895	294141	keystroke_e	e	n/a
147.296	0.1045	294592	keystroke_c	c	n/a
147.5195	0.09	295039	keystroke_t	t	n/a
147.7005	0.09	295401	keystroke_r	r	n/a
147.8355	0.074	295671	keystroke_u	u	n/a
148.0745	0.1655	296149	keystroke_m	m	n/a
148.165	0.1355	296330	keystroke_Key.space	Key.space	n/a
148.555	0.105	297110	keystroke_c	c	n/a
148.7505	0.18	297501	keystroke_o	o	n/a
148.84	0.18	297680	keystroke_n	n	n/a
149.005	0.09	298010	keystroke_t	t	n/a
149.185	0.09	298370	keystroke_r	r	n/a
149.245	0.075	298490	keystroke_o	o	n/a
149.425	0.1055	298850	keystroke_l	l	n/a
149.5595	0.1205	299119	keystroke_s	s	n/a
149.7095	0.1205	299419	keystroke_Key.space	Key.space	n/a
149.965	0.105	299930	keystroke_b	b	n/a
150.085	0.075	300170	keystroke_a	a	n/a
150.28	0.0905	300560	keystroke_s	s	n/a
150.475	0.0755	300950	keystroke_e	e	n/a
150.625	0.1045	301250	keystroke_d	d	n/a
150.6995	0.09	301399	keystroke_Key.space	Key.space	n/a
150.895	0.105	301790	keystroke_l	l	n/a
151.03	0.09	302060	keystroke_e	e	n/a
151.2845	0.046	302569	keystroke_f	f	n/a
151.495	0.03	302990	keystroke_t	t	n/a
152.5595	0.075	305119	keystroke_Key.enter	Key.enter	n/a
152.6445	6.0675	305289	prompt	n/a	survivor round diary brick\n
153.5945	0.09	307189	keystroke_s	s	n/a
153.73	0.075	307460	keystroke_u	u	n/a
153.8795	0.075	307759	keystroke_r	r	n/a
154.2255	0.059	308451	keystroke_v	v	n/a
154.3605	0.105	308721	keystroke_i	i	n/a
155.29	0.091	310580	keystroke_v	v	n/a
155.396	0.089	310792	keystroke_o	o	n/a
155.53	0.075	311060	keystroke_r	r	n/a
155.68	0.1195	311360	keystroke_Key.space	Key.space	n/a
155.935	0.06	311870	keystroke_r	r	n/a
156.04	0.105	312080	keystroke_o	o	n/a
156.281	0.1335	312562	keystroke_u	u	n/a
156.3705	0.135	312741	keystroke_n	n	n/a
156.506	0.104	313012	keystroke_d	d	n/a
156.6245	0.1055	313249	keystroke_Key.space	Key.space	n/a
156.8045	0.106	313609	keystroke_d	d	n/a
156.8945	0.0755	313789	keystroke_i	i	n/a
157.12	0.075	314240	keystroke_a	a	n/a
157.375	0.06	314750	keystroke_r	r	n/a
157.495	0.0605	314990	keystroke_y	y	n/a
157.6	0.135	315200	keystroke_Key.space	Key.space	n/a
157.8845	0.105	315769	keystroke_b	b	n/a
157.9745	0.0905	315949	keystroke_r	r	n/a
158.1695	0.091	316339	keystroke_i	i	n/a
158.275	0.1045	316550	keystroke_c	c	n/a
158.3955	0.0895	316791	keystroke_k	k	n/a
158.62	0.09	317240	keystroke_Key.enter	Key.enter	n/a
158.717	5.859	317434	prompt	n/a	but vanilla undo tourism\n
159.58	0.12	319160	keystroke_b	b	n/a
159.64	0.135	319280	keystroke_u	u	n/a
159.715	0.09	319430	keystroke_t	t	n/a
159.85	0.105	319700	keystroke_Key.space	Key.space	n/a
160.315	0.045	320630	keystroke_Key.backspace	Key.backspace	n/a
160.45	0.045	320900	keystroke_Key.backspace	Key.backspace	n/a
161.035	0.045	322070	keystroke_t	t	n/a
161.125	0.1045	322250	keystroke_Key.space	Key.space	n/a
161.32	0.105	322640	keystroke_v	v	n/a
161.4395	0.1055	322879	keystroke_a	a	n/a
161.5605	0.1645	323121	keystroke_n	n	n/a
161.695	0.09	323390	keystroke_i	i	n/a
161.905	0.06	323810	keystroke_l	l	n/a
162.04	0.106	324080	keystroke_l	l	n/a
162.205	0.076	324410	keystroke_a	a	n/a
162.296	0.119	324592	keystroke_Key.space	Key.space	n/a
162.7	0.165	325400	keystroke_u	u	n/a
162.7605	0.1645	325521	keystroke_n	n	n/a
162.91	0.075	325820	keystroke_d	d	n/a
163	0.135	326000	keystroke_o	o	n/a
163.225	0.0895	326450	keystroke_Key.space	Key.space	n/a
163.4205	0.089	326841	keystroke_t	t	n/a
163.5255	0.0895	327051	keystroke_o	o	n/a
163.72	0.075	327440	keystroke_u	u	n/a
163.825	0.075	327650	keystroke_r	r	n/a
163.9455	0.0895	327891	keystroke_i	i	n/a
164.095	0.06	328190	keystroke_s	s	n/a
164.215	0.15	328430	keystroke_m	m	n/a
164.515	0.06	329030	keystroke_Key.enter	Key.enter	n/a
164.581	12.5655	329162	prompt	n/a	adjustments expenditures adverse jewel\n
165.4455	0.075	330891	keystroke_a	a	n/a
165.6545	0.0755	331309	keystroke_d	d	n/a
165.7445	0.0605	331489	keystroke_j	j	n/a
165.9705	0.0145	331941	keystroke_u	u	n/a
166.0005	0.0745	332001	keystroke_s	s	n/a
166.255	0.0605	332510	keystroke_t	t	n/a
166.4355	0.105	332871	keystroke_m	m	n/a
166.5855	0.09	333171	keystroke_e	e	n/a
166.6905	0.0895	333381	keystroke_n	n	n/a
166.825	0.075	333650	keystroke_t	t	n/a
167.051	0.075	334102	keystroke_s	s	n/a
167.155	0.105	334310	keystroke_Key.space	Key.space	n/a
167.275	0.09	334550	keystroke_e	e	n/a
167.9805	0.075	335961	keystroke_p	p	n/a
168.4905	0.105	336981	keystroke_Key.backspace	Key.backspace	n/a
168.671	0.0745	337342	keystroke_x	x	n/a
169.525	0.06	339050	keystroke_p	p	n/a
169.645	0.075	339290	keystroke_e	e	n/a
169.795	0.0905	339590	keystroke_n	n	n/a
172.1675	0.0125	344335	keystroke_d	d	n/a
172.2255	0.089	344451	keystroke_i	i	n/a
172.3745	0.09	344749	keystroke_t	t	n/a
172.496	0.0895	344992	keystroke_u	u	n/a
172.7045	0.075	345409	keystroke_r	r	n/a
172.9745	0.09	345949	keystroke_e	e	n/a
173.1845	0.105	346369	keystroke_s	s	n/a
173.335	0.0905	346670	keystroke_Key.space	Key.space	n/a
173.59	0.09	347180	keystroke_a	a	n/a
173.845	0.0755	347690	keystroke_d	d	n/a
174.025	0.106	348050	keystroke_v	v	n/a
174.175	0.0905	348350	keystroke_e	e	n/a
174.3555	0.0895	348711	keystroke_r	r	n/a
174.55	0.09	349100	keystroke_s	s	n/a
174.7455	0.09	349491	keystroke_e	e	n/a
174.88	0.12	349760	keystroke_Key.space	Key.space	n/a
175.4355	0.0595	350871	keystroke_j	j	n/a
175.99	0.075	351980	keystroke_e	e	n/a
176.155	0.075	352310	keystroke_w	w	n/a
176.3355	0.0745	352671	keystroke_e	e	n/a
176.471	0.089	352942	keystroke_l	l	n/a
176.575	0.06	353150	keystroke_s	s	n/a
177.055	0.09	354110	keystroke_Key.enter	Key.enter	n/a
177.156	6.1255	354312	prompt	n/a	genetic title between desert\n
178.045	0.09	356090	keystroke_g	g	n/a
178.1505	0.0745	356301	keystroke_e	e	n/a
178.285	0.03	356570	keystroke_n	n	n/a
178.33	0.03	356660	keystroke_e	e	n/a
179.021	0.06	358042	keystroke_t	t	n/a
179.1395	0.075	358279	keystroke_i	i	n/a
179.3055	0.0905	358611	keystroke_c	c	n/a
179.4095	0.1055	358819	keystroke_Key.space	Key.space	n/a
179.621	0.0905	359242	keystroke_t	t	n/a
179.7555	0.09	359511	keystroke_i	i	n/a
179.8755	0.09	359751	keystroke_t	t	n/a
180.0265	0.074	360053	keystroke_l	l	n/a
180.1755	0.0755	360351	keystroke_e	e	n/a
180.3555	0.09	360711	keystroke_Key.space	Key.space	n/a
180.91	0.1205	361820	keystroke_b	b	n/a
181.045	0.0455	362090	keystroke_e	e	n/a
181.12	0.09	362240	keystroke_t	t	n/a
181.27	0.075	362540	keystroke_w	w	n/a
181.4805	0.06	362961	keystroke_e	e	n/a
181.6455	0.09	363291	keystroke_e	e	n/a
181.751	0.1335	363502	keystroke_n	n	n/a
181.8395	0.135	363679	keystroke_Key.space	Key.space	n/a
182.0045	0.106	364009	keystroke_d	d	n/a
182.2145	0.075	364429	keystroke_e	e	n/a
182.3655	0.09	364731	keystroke_s	s	n/a
182.5605	0.104	365121	keystroke_e	e	n/a
182.7855	0.09	365571	keystroke_r	r	n/a
182.9955	0.06	365991	keystroke_t	t	n/a
183.2045	0.075	366409	keystroke_Key.enter	Key.enter	n/a
183.2855	6.806	366571	prompt	n/a	plains indeed embassy breath\n
184.075	0.1355	368150	keystroke_p	p	n/a
184.135	0.12	368270	keystroke_l	l	n/a
184.27	0.09	368540	keystroke_a	a	n/a
184.42	0.1955	368840	keystroke_i	i	n/a
184.51	0.15	369020	keystroke_n	n	n/a
184.7205	0.1495	369441	keystroke_Key.space	Key.space	n/a
185.1845	0.0305	370369	keystroke_i	i	n/a
185.216	0.149	370432	keystroke_n	n	n/a
185.9345	0.09	371869	keystroke_d	d	n/a
186.1	0.075	372200	keystroke_e	e	n/a
186.3105	0.03	372621	keystroke_e	e	n/a
186.6855	0.075	373371	keystroke_d	d	n/a
186.8645	0.105	373729	keystroke_Key.space	Key.space	n/a
187.1955	0.0745	374391	keystroke_e	e	n/a
187.315	0.06	374630	keystroke_m	m	n/a
187.495	0.075	374990	keystroke_b	b	n/a
187.5855	0.0895	375171	keystroke_a	a	n/a
187.7805	0.0595	375561	keystroke_s	s	n/a
187.96	0.075	375920	keystroke_s	s	n/a
188.0495	0.12	376099	keystroke_y	y	n/a
188.2155	0.1645	376431	keystroke_Key.space	Key.space	n/a
188.8295	0.091	377659	keystroke_b	b	n/a
189.025	0.075	378050	keystroke_r	r	n/a
189.175	0.105	378350	keystroke_e	e	n/a
189.415	0.06	378830	keystroke_a	a	n/a
189.489	0.0905	378978	keystroke_t	t	n/a
189.685	0.0895	379370	keystroke_h	h	n/a
189.985	0.1045	379970	keystroke_Key.enter	Key.enter	n/a
190.1025	8.674	380205	prompt	n/a	concerning rights personally spanish\n
190.885	0.0895	381770	keystroke_c	c	n/a
191.0505	0.1495	382101	keystroke_o	o	n/a
191.1405	0.1495	382281	keystroke_n	n	n/a
191.2745	0.106	382549	keystroke_c	c	n/a
191.486	0.0735	382972	keystroke_e	e	n/a
191.65	0.0895	383300	keystroke_r	r	n/a
191.7845	0.076	383569	keystroke_n	n	n/a
191.95	0.1655	383900	keystroke_i	i	n/a
192.04	0.1505	384080	keystroke_n	n	n/a
192.1595	0.106	384319	keystroke_g	g	n/a
192.2945	0.1205	384589	keystroke_Key.space	Key.space	n/a
192.52	0.1055	385040	keystroke_r	r	n/a
192.61	0.0745	385220	keystroke_i	i	n/a
192.7595	0.09	385519	keystroke_g	g	n/a
192.8645	0.1055	385729	keystroke_h	h	n/a
192.9845	0.06	385969	keystroke_t	t	n/a
193.211	0.1035	386422	keystroke_s	s	n/a
193.2995	0.105	386599	keystroke_Key.space	Key.space	n/a
193.526	0.0885	387052	keystroke_p	p	n/a
193.66	0.09	387320	keystroke_e	e	n/a
193.8245	0.075	387649	keystroke_r	r	n/a
194.035	0.0905	388070	keystroke_s	s	n/a
194.1405	0.1795	388281	keystroke_o	o	n/a
194.245	0.1805	388490	keystroke_n	n	n/a
194.395	0.075	388790	keystroke_a	a	n/a
194.5605	0.0595	389121	keystroke_l	l	n/a
194.83	0.015	389660	keystroke_l	l	n/a
194.965	0.075	389930	keystroke_Key.space	Key.space	n/a
195.3105	0.09	390621	keystroke_Key.backspace	Key.backspace	n/a
196.0595	0.0905	392119	keystroke_y	y	n/a
196.165	0.0295	392330	keystroke_Key.space	Key.space	n/a
196.1805	0.0745	392361	keystroke_s	s	n/a
196.42	0.06	392840	keystroke_a	a	n/a
196.8395	0.0605	393679	keystroke_Key.backspace	Key.backspace	n/a
196.9745	0.076	393949	keystroke_Key.backspace	Key.backspace	n/a
197.546	0.0895	395092	keystroke_s	s	n/a
197.6805	0.089	395361	keystroke_p	p	n/a
197.8155	0.0745	395631	keystroke_a	a	n/a
197.9955	0.18	395991	keystroke_n	n	n/a
198.0995	0.136	396199	keystroke_i	i	n/a
198.2505	0.074	396501	keystroke_s	s	n/a
198.3695	0.135	396739	keystroke_h	h	n/a
198.6845	0.0905	397369	keystroke_Key.enter	Key.enter	n/a
198.7805	8.276	397561	prompt	n/a	holland prayer spider rational\n
199.735	0.075	399470	keystroke_h	h	n/a
199.9445	0.061	399889	keystroke_o	o	n/a
200.125	0.075	400250	keystroke_l	l	n/a
200.2445	0.09	400489	keystroke_l	l	n/a
200.4245	0.0615	400849	keystroke_a	a	n/a
200.531	0.0885	401062	keystroke_n	n	n/a
200.665	0.0595	401330	keystroke_d	d	n/a
200.785	0.1045	401570	keystroke_Key.space	Key.space	n/a
201.2055	0.06	402411	keystroke_p	p	n/a
201.37	0.1055	402740	keystroke_r	r	n/a
201.6105	0.105	403221	keystroke_a	a	n/a
201.7305	0.09	403461	keystroke_y	y	n/a
201.9255	0.09	403851	keystroke_e	e	n/a
202.1195	0.091	404239	keystroke_r	r	n/a
202.2555	0.074	404511	keystroke_Key.space	Key.space	n/a
202.93	0.0905	405860	keystroke_s	s	n/a
203.53	0.0745	407060	keystroke_Key.backspace	Key.backspace	n/a
204.1605	0.104	408321	keystroke_s	s	n/a
204.2795	0.0605	408559	keystroke_p	p	n/a
204.445	0.075	408890	keystroke_i	i	n/a
204.55	0.105	409100	keystroke_d	d	n/a
204.73	0.12	409460	keystroke_e	e	n/a
204.925	0.105	409850	keystroke_r	r	n/a
205.031	0.104	410062	keystroke_Key.space	Key.space	n/a
205.54	0.0905	411080	keystroke_r	r	n/a
205.7955	0.105	411591	keystroke_a	a	n/a
206.1695	0.0155	412339	keystroke_t	t	n/a
206.2145	0.091	412429	keystroke_i	i	n/a
206.395	0.2105	412790	keystroke_o	o	n/a
206.5005	0.1495	413001	keystroke_n	n	n/a
206.6205	0.06	413241	keystroke_a	a	n/a
206.7405	0.12	413481	keystroke_l	l	n/a
206.9645	0.09	413929	keystroke_Key.enter	Key.enter	n/a
207.0605	7.8855	414121	prompt	n/a	driving propose jacksonville sentences\n
207.91	0.0755	415820	keystroke_d	d	n/a
208.09	0.0895	416180	keystroke_r	r	n/a
208.2095	0.091	416419	keystroke_i	i	n/a
208.4355	0.089	416871	keystroke_v	v	n/a
208.5405	0.149	417081	keystroke_i	i	n/a
208.6295	0.121	417259	keystroke_n	n	n/a
208.7045	0.076	417409	keystroke_g	g	n/a
208.8995	0.0755	417799	keystroke_Key.space	Key.space	n/a
209.275	0.12	418550	keystroke_p	p	n/a
209.44	0.0905	418880	keystroke_r	r	n/a
209.545	0.075	419090	keystroke_o	o	n/a
209.7245	0.09	419449	keystroke_p	p	n/a
209.8905	0.0755	419781	keystroke_o	o	n/a
209.967	0.088	419934	keystroke_s	s	n/a
210.16	0.075	420320	keystroke_e	e	n/a
210.265	0.105	420530	keystroke_Key.space	Key.space	n/a
210.49	0.075	420980	keystroke_j	j	n/a
210.5805	0.0895	421161	keystroke_a	a	n/a
210.82	0.09	421640	keystroke_c	c	n/a
210.94	0.09	421880	keystroke_k	k	n/a
211.105	0.075	422210	keystroke_s	s	n/a
211.2855	0.06	422571	keystroke_o	o	n/a
211.96	0.1055	423920	keystroke_n	n	n/a
212.1855	0.0895	424371	keystroke_v	v	n/a
212.3655	0.045	424731	keystroke_i	i	n/a
212.5455	0.044	425091	keystroke_l	l	n/a
212.6795	0.076	425359	keystroke_l	l	n/a
212.8005	0.089	425601	keystroke_e	e	n/a
212.9195	0.1205	425839	keystroke_Key.space	Key.space	n/a
213.1155	0.0895	426231	keystroke_s	s	n/a
213.31	0.09	426620	keystroke_e	e	n/a
213.415	0.075	426830	keystroke_n	n	n/a
213.5345	0.075	427069	keystroke_t	t	n/a
213.745	0.075	427490	keystroke_e	e	n/a
213.88	0.0905	427760	keystroke_n	n	n/a
214.015	0.075	428030	keystroke_c	c	n/a
214.2105	0.06	428421	keystroke_e	e	n/a
214.3905	0.0895	428781	keystroke_s	s	n/a
214.8845	0.0605	429769	keystroke_Key.enter	Key.enter	n/a
214.955	8.6165	429910	prompt	n/a	context boulevard protect learned\n
215.6505	0.09	431301	keystroke_c	c	n/a
215.7545	0.135	431509	keystroke_o	o	n/a
215.8305	0.12	431661	keystroke_n	n	n/a
216.1005	0.09	432201	keystroke_t	t	n/a
216.2055	0.0755	432411	keystroke_e	e	n/a
216.49	0.03	432980	keystroke_x	x	n/a
216.505	0.075	433010	keystroke_t	t	n/a
216.64	0.12	433280	keystroke_Key.space	Key.space	n/a
217.5695	0.06	435139	keystroke_b	b	n/a
217.705	0.0745	435410	keystroke_o	o	n/a
217.9295	0.0605	435859	keystroke_u	u	n/a
218.14	0.06	436280	keystroke_l	l	n/a
218.305	0.06	436610	keystroke_e	e	n/a
218.56	0.075	437120	keystroke_v	v	n/a
218.68	0.105	437360	keystroke_a	a	n/a
218.9805	0.074	437961	keystroke_r	r	n/a
219.1445	0.0755	438289	keystroke_d	d	n/a
219.325	0.12	438650	keystroke_Key.space	Key.space	n/a
219.9255	0.134	439851	keystroke_p	p	n/a
220.09	0.0595	440180	keystroke_r	r	n/a
220.2095	0.075	440419	keystroke_o	o	n/a
220.465	0.0595	440930	keystroke_t	t	n/a
220.5545	0.076	441109	keystroke_e	e	n/a
220.7345	0.091	441469	keystroke_c	c	n/a
220.8095	0.06	441619	keystroke_t	t	n/a
220.9445	0.09	441889	keystroke_Key.space	Key.space	n/a
221.1405	0.089	442281	keystroke_l	l	n/a
221.4855	0.045	442971	keystroke_e	e	n/a
221.6645	0.0905	443329	keystroke_a	a	n/a
221.815	0.09	443630	keystroke_n	n	n/a
221.95	0.06	443900	keystroke_r	r	n/a
222.4755	0.044	444951	keystroke_Key.backspace	Key.backspace	n/a
222.6095	0.075	445219	keystroke_Key.backspace	Key.backspace	n/a
222.7295	0.105	445459	keystroke_r	r	n/a
222.9555	0.104	445911	keystroke_n	n	n/a
223.1055	0.09	446211	keystroke_e	e	n/a
223.2705	0.104	446541	keystroke_d	d	n/a
223.48	0.09	446960	keystroke_Key.enter	Key.enter	n/a
223.575	7.721	447150	prompt	n/a	lenses renewable to drunk\n
225.808	0.001	451616	keystroke_l	l	n/a
225.9255	0.06	451851	keystroke_e	e	n/a
226.12	0.0605	452240	keystroke_n	n	n/a
226.27	0.0755	452540	keystroke_s	s	n/a
226.4355	0.09	452871	keystroke_e	e	n/a
226.63	0.09	453260	keystroke_s	s	n/a
226.869	0.0915	453738	keystroke_Key.space	Key.space	n/a
227.71	0.0745	455420	keystroke_r	r	n/a
227.875	0.0745	455750	keystroke_e	e	n/a
227.9945	0.076	455989	keystroke_n	n	n/a
228.1155	0.089	456231	keystroke_e	e	n/a
228.31	0.0895	456620	keystroke_w	w	n/a
228.625	0.075	457250	keystroke_a	a	n/a
228.7755	0.1045	457551	keystroke_b	b	n/a
229.045	0.06	458090	keystroke_l	l	n/a
229.225	0.0605	458450	keystroke_e	e	n/a
229.4645	0.09	458929	keystroke_Key.space	Key.space	n/a
229.7955	0.089	459591	keystroke_t	t	n/a
229.945	0.105	459890	keystroke_o	o	n/a
230.1545	0.105	460309	keystroke_Key.space	Key.space	n/a
230.2455	0.0295	460491	keystroke_d	d	n/a
230.3495	0.075	460699	keystroke_r	r	n/a
230.5005	0.134	461001	keystroke_u	u	n/a
230.6055	0.24	461211	keystroke_n	n	n/a
230.7705	0.149	461541	keystroke_k	k	n/a
231.2195	0.0755	462439	keystroke_Key.enter	Key.enter	n/a
231.3015	5.0075	462603	prompt	n/a	chairs child northwest sunny\n
231.9845	0.09	463969	keystroke_c	c	n/a
232.0905	0.105	464181	keystroke_h	h	n/a
232.241	0.0895	464482	keystroke_a	a	n/a
232.345	0.0745	464690	keystroke_i	i	n/a
232.5105	0.06	465021	keystroke_r	r	n/a
232.675	0.075	465350	keystroke_s	s	n/a
232.81	0.12	465620	keystroke_Key.space	Key.space	n/a
233.2155	0.0745	466431	keystroke_c	c	n/a
233.335	0.075	466670	keystroke_h	h	n/a
233.53	0.075	467060	keystroke_i	i	n/a
233.71	0.0755	467420	keystroke_l	l	n/a
233.8	0.0755	467600	keystroke_d	d	n/a
233.905	0.09	467810	keystroke_Key.space	Key.space	n/a
234.115	0.1495	468230	keystroke_n	n	n/a
234.1895	0.136	468379	keystroke_o	o	n/a
234.3105	0.105	468621	keystroke_r	r	n/a
234.4745	0.09	468949	keystroke_t	t	n/a
234.5955	0.074	469191	keystroke_h	h	n/a
234.7295	0.09	469459	keystroke_w	w	n/a
234.9105	0.075	469821	keystroke_e	e	n/a
235.0905	0.09	470181	keystroke_s	s	n/a
235.166	0.0745	470332	keystroke_t	t	n/a
235.2995	0.105	470599	keystroke_Key.space	Key.space	n/a
235.3605	0.0895	470721	keystroke_s	s	n/a
235.5245	0.061	471049	keystroke_u	u	n/a
235.735	0.045	471470	keystroke_n	n	n/a
235.8545	0.0755	471709	keystroke_n	n	n/a
235.9745	0.091	471949	keystroke_y	y	n/a
236.2155	0.09	472431	keystroke_Key.enter	Key.enter	n/a
236.319	6.6025	472638	prompt	n/a	establishment ballet relax industries\n
236.995	0.106	473990	keystroke_e	e	n/a
237.16	0.1055	474320	keystroke_s	s	n/a
237.401	0.089	474802	keystroke_t	t	n/a
237.6405	0.074	475281	keystroke_a	a	n/a
237.7295	0.1055	475459	keystroke_b	b	n/a
237.97	0.06	475940	keystroke_l	l	n/a
238.1505	0.0595	476301	keystroke_i	i	n/a
238.255	0.059	476510	keystroke_s	s	n/a
238.345	0.0605	476690	keystroke_h	h	n/a
238.5255	0.075	477051	keystroke_m	m	n/a
238.6455	0.0745	477291	keystroke_e	e	n/a
238.765	0.06	477530	keystroke_n	n	n/a
238.8855	0.0745	477771	keystroke_t	t	n/a
238.96	0.0745	477920	keystroke_Key.space	Key.space	n/a
239.125	0.09	478250	keystroke_b	b	n/a
239.29	0.045	478580	keystroke_a	a	n/a
239.44	0.0895	478880	keystroke_l	l	n/a
239.5755	0.0755	479151	keystroke_l	l	n/a
239.6805	0.105	479361	keystroke_e	e	n/a
239.8755	0.089	479751	keystroke_t	t	n/a
239.95	0.0895	479900	keystroke_Key.space	Key.space	n/a
240.28	0.06	480560	keystroke_r	r	n/a
240.43	0.0745	480860	keystroke_e	e	n/a
240.5495	0.075	481099	keystroke_l	l	n/a
240.6995	0.076	481399	keystroke_a	a	n/a
240.925	0.075	481850	keystroke_x	x	n/a
241.06	0.1055	482120	keystroke_Key.space	Key.space	n/a
241.5245	0.1505	483049	keystroke_i	i	n/a
241.615	0.12	483230	keystroke_n	n	n/a
241.705	0.075	483410	keystroke_d	d	n/a
241.81	0.0905	483620	keystroke_u	u	n/a
241.9155	0.09	483831	keystroke_s	s	n/a
242.1555	0.0745	484311	keystroke_t	t	n/a
242.3195	0.0905	484639	keystroke_r	r	n/a
242.4545	0.075	484909	keystroke_i	i	n/a
242.545	0.09	485090	keystroke_e	e	n/a
242.7245	0.076	485449	keystroke_s	s	n/a
242.8305	0.09	485661	keystroke_Key.enter	Key.enter	n/a
242.9255	7.481	485851	prompt	n/a	founder catholic semester andrews\n
243.7605	0.06	487521	keystroke_f	f	n/a
243.8355	0.075	487671	keystroke_o	o	n/a
244.03	0.105	488060	keystroke_u	u	n/a
244.105	0.1505	488210	keystroke_n	n	n/a
244.195	0.075	488390	keystroke_d	d	n/a
244.375	0.075	488750	keystroke_e	e	n/a
244.54	0.09	489080	keystroke_r	r	n/a
244.66	0.105	489320	keystroke_Key.space	Key.space	n/a
245.0805	0.0595	490161	keystroke_c	c	n/a
245.275	0.0605	490550	keystroke_a	a	n/a
245.395	0.0755	490790	keystroke_t	t	n/a
245.5605	0.075	491121	keystroke_h	h	n/a
245.7705	0.059	491541	keystroke_o	o	n/a
245.935	0.075	491870	keystroke_l	l	n/a
246.115	0.075	492230	keystroke_i	i	n/a
246.25	0.075	492500	keystroke_c	c	n/a
246.4	0.105	492800	keystroke_Key.space	Key.space	n/a
247.255	0.045	494510	keystroke_s	s	n/a
247.3455	0.0745	494691	keystroke_e	e	n/a
247.45	0.0755	494900	keystroke_m	m	n/a
247.63	0.075	495260	keystroke_e	e	n/a
247.779	0.106	495558	keystroke_s	s	n/a
247.87	0.075	495740	keystroke_t	t	n/a
247.975	0.09	495950	keystroke_e	e	n/a
248.1405	0.1045	496281	keystroke_r	r	n/a
248.26	0.075	496520	keystroke_Key.space	Key.space	n/a
248.56	0.03	497120	keystroke_n	n	n/a
248.9345	0.106	497869	keystroke_Key.backspace	Key.backspace	n/a
249.1305	0.09	498261	keystroke_a	a	n/a
249.3105	0.06	498621	keystroke_n	n	n/a
249.4455	0.0745	498891	keystroke_d	d	n/a
249.64	0.075	499280	keystroke_r	r	n/a
249.8055	0.09	499611	keystroke_e	e	n/a
250.0155	0.0895	500031	keystroke_w	w	n/a
250.18	0.106	500360	keystroke_s	s	n/a
250.345	0.06	500690	keystroke_Key.enter	Key.enter	n/a
250.413	9.5035	500826	prompt	n/a	interaction vincent triple daddy\n
251.23	0.1205	502460	keystroke_i	i	n/a
251.305	0.1055	502610	keystroke_n	n	n/a
251.5305	0.06	503061	keystroke_t	t	n/a
251.6195	0.061	503239	keystroke_e	e	n/a
251.7555	0.09	503511	keystroke_r	r	n/a
251.9795	0.0755	503959	keystroke_a	a	n/a
252.22	0.09	504440	keystroke_c	c	n/a
252.4155	0.075	504831	keystroke_t	t	n/a
252.5645	0.0755	505129	keystroke_i	i	n/a
252.745	0.15	505490	keystroke_o	o	n/a
252.851	0.134	505702	keystroke_n	n	n/a
253.2555	0.104	506511	keystroke_Key.space	Key.space	n/a
253.945	0.09	507890	keystroke_v	v	n/a
254.05	0.1045	508100	keystroke_i	i	n/a
254.096	0.1185	508192	keystroke_n	n	n/a
254.1995	0.075	508399	keystroke_c	c	n/a
254.3955	0.074	508791	keystroke_e	e	n/a
254.5305	0.0745	509061	keystroke_n	n	n/a
254.635	0.0905	509270	keystroke_t	t	n/a
254.71	0.1195	509420	keystroke_Key.space	Key.space	n/a
254.98	0.0755	509960	keystroke_t	t	n/a
255.145	0.075	510290	keystroke_r	r	n/a
255.221	0.089	510442	keystroke_i	i	n/a
255.4305	0.0445	510861	keystroke_p	p	n/a
256.735	0.09	513470	keystroke_p	p	n/a
256.8405	0.059	513681	keystroke_l	l	n/a
257.545	0.1045	515090	keystroke_Key.backspace	Key.backspace	n/a
258.0095	0.06	516019	keystroke_Key.backspace	Key.backspace	n/a
258.2345	0.091	516469	keystroke_l	l	n/a
258.4305	0.075	516861	keystroke_e	e	n/a
258.565	0.0905	517130	keystroke_Key.space	Key.space	n/a
258.8205	0.074	517641	keystroke_d	d	n/a
259.0445	0.0605	518089	keystroke_a	a	n/a
259.2545	0.061	518509	keystroke_d	d	n/a
259.4195	0.076	518839	keystroke_d	d	n/a
259.4805	0.12	518961	keystroke_y	y	n/a
259.8105	0.1045	519621	keystroke_Key.enter	Key.enter	n/a
259.924	5.7675	519848	prompt	n/a	what're surface sample made\n
260.62	0.0905	521240	keystroke_w	w	n/a
260.77	0.09	521540	keystroke_h	h	n/a
260.875	0.09	521750	keystroke_a	a	n/a
261.01	0.1055	522020	keystroke_t	t	n/a
261.6995	0.0605	523399	keystroke_'	'	n/a
261.9105	0.0745	523821	keystroke_r	r	n/a
262.06	0.091	524120	keystroke_e	e	n/a
262.1645	0.075	524329	keystroke_Key.space	Key.space	n/a
262.2695	0.121	524539	keystroke_s	s	n/a
262.376	0.0595	524752	keystroke_u	u	n/a
262.4805	0.0895	524961	keystroke_r	r	n/a
262.6015	0.1035	525203	keystroke_f	f	n/a
262.7205	0.0745	525441	keystroke_a	a	n/a
262.81	0.1055	525620	keystroke_c	c	n/a
262.945	0.0605	525890	keystroke_e	e	n/a
263.065	0.105	526130	keystroke_Key.space	Key.space	n/a
263.215	0.0905	526430	keystroke_s	s	n/a
263.4105	0.075	526821	keystroke_a	a	n/a
263.515	0.1055	527030	keystroke_m	m	n/a
263.7705	0.059	527541	keystroke_p	p	n/a
264.655	0.091	529310	keystroke_l	l	n/a
264.79	0.06	529580	keystroke_e	e	n/a
264.865	0.09	529730	keystroke_Key.space	Key.space	n/a
265.015	0.106	530030	keystroke_m	m	n/a
265.1365	0.0585	530273	keystroke_a	a	n/a
265.345	0.0755	530690	keystroke_d	d	n/a
265.4945	0.091	530989	keystroke_e	e	n/a
265.5995	0.0905	531199	keystroke_Key.enter	Key.enter	n/a
265.6945	5.3975	531389	prompt	n/a	poem chest civil mineral\n
266.5	0.046	533000	keystroke_p	p	n/a
266.6495	0.0615	533299	keystroke_o	o	n/a
266.7555	0.0595	533511	keystroke_e	e	n/a
266.86	0.15	533720	keystroke_m	m	n/a
266.98	0.12	533960	keystroke_Key.space	Key.space	n/a
267.085	0.09	534170	keystroke_c	c	n/a
267.205	0.0905	534410	keystroke_h	h	n/a
267.3255	0.105	534651	keystroke_e	e	n/a
267.49	0.1055	534980	keystroke_s	s	n/a
267.58	0.0905	535160	keystroke_t	t	n/a
267.7155	0.134	535431	keystroke_Key.space	Key.space	n/a
268.3155	0.09	536631	keystroke_c	c	n/a
268.5105	0.105	537021	keystroke_i	i	n/a
268.6895	0.091	537379	keystroke_v	v	n/a
268.7955	0.1045	537591	keystroke_i	i	n/a
269.0055	0.075	538011	keystroke_l	l	n/a
269.2445	0.136	538489	keystroke_Key.space	Key.space	n/a
269.5905	0.09	539181	keystroke_m	m	n/a
269.785	0.1205	539570	keystroke_i	i	n/a
269.9055	0.164	539811	keystroke_n	n	n/a
270.2645	0.091	540529	keystroke_e	e	n/a
270.5055	0.06	541011	keystroke_r	r	n/a
270.7295	0.0605	541459	keystroke_a	a	n/a
270.806	0.089	541612	keystroke_l	l	n/a
271	0.09	542000	keystroke_Key.enter	Key.enter	n/a
271.0955	15.026	542191	prompt	n/a	to've mpeg achievements vocabulary\n
272.08	0.06	544160	keystroke_t	t	n/a
272.291	0.0745	544582	keystroke_'	'	n/a
272.6045	0.0755	545209	keystroke_v	v	n/a
272.7705	0.059	545541	keystroke_e	e	n/a
272.9045	0.1055	545809	keystroke_Key.space	Key.space	n/a
273.085	0.1055	546170	keystroke_m	m	n/a
273.8205	0.0895	547641	keystroke_p	p	n/a
274.015	0.06	548030	keystroke_e	e	n/a
274.42	0.06	548840	keystroke_Key.backspace	Key.backspace	n/a
274.54	0.06	549080	keystroke_Key.backspace	Key.backspace	n/a
274.675	0.061	549350	keystroke_Key.backspace	Key.backspace	n/a
274.825	0.03	549650	keystroke_Key.backspace	Key.backspace	n/a
275.02	0.075	550040	keystroke_Key.backspace	Key.backspace	n/a
275.185	0.06	550370	keystroke_Key.backspace	Key.backspace	n/a
275.335	0.06	550670	keystroke_Key.backspace	Key.backspace	n/a
276.1005	0.059	552201	keystroke_o	o	n/a
276.4305	0.044	552861	keystroke_'	'	n/a
276.805	0.0755	553610	keystroke_v	v	n/a
276.925	0.0455	553850	keystroke_e	e	n/a
277.015	0.075	554030	keystroke_Key.space	Key.space	n/a
277.24	0.15	554480	keystroke_m	m	n/a
277.405	0.03	554810	keystroke_p	p	n/a
277.541	0.074	555082	keystroke_e	e	n/a
277.9305	0.105	555861	keystroke_g	g	n/a
278.1405	0.089	556281	keystroke_Key.space	Key.space	n/a
278.5905	0.105	557181	keystroke_a	a	n/a
278.8605	0.105	557721	keystroke_c	c	n/a
278.9665	0.088	557933	keystroke_h	h	n/a
279.2045	0.076	558409	keystroke_i	i	n/a
279.4155	0.075	558831	keystroke_e	e	n/a
279.595	0.1055	559190	keystroke_m	m	n/a
280.2245	0.0905	560449	keystroke_Key.backspace	Key.backspace	n/a
280.9305	0.075	561861	keystroke_v	v	n/a
281.0505	0.0755	562101	keystroke_e	e	n/a
281.1695	0.0755	562339	keystroke_m	m	n/a
281.2605	0.074	562521	keystroke_e	e	n/a
281.3805	0.045	562761	keystroke_b	b	n/a
281.47	0.075	562940	keystroke_t	t	n/a
282.0245	0.045	564049	keystroke_Key.backspace	Key.backspace	n/a
282.1595	0.0605	564319	keystroke_Key.backspace	Key.backspace	n/a
282.7305	0.075	565461	keystroke_n	n	n/a
282.8805	0.089	565761	keystroke_t	t	n/a
283.1055	0.074	566211	keystroke_s	s	n/a
283.1945	0.105	566389	keystroke_Key.space	Key.space	n/a
283.3745	0.076	566749	keystroke_v	v	n/a
283.496	0.074	566992	keystroke_o	o	n/a
283.6155	0.09	567231	keystroke_c	c	n/a
283.8705	0.0605	567741	keystroke_a	a	n/a
284.0805	0.075	568161	keystroke_b	b	n/a
284.2145	0.076	568429	keystroke_u	u	n/a
284.411	0.0585	568822	keystroke_l	l	n/a
284.5305	0.059	569061	keystroke_a	a	n/a
284.7255	0.06	569451	keystroke_r	r	n/a
284.815	0.091	569630	keystroke_y	y	n/a
284.9205	0.119	569841	keystroke_Key.space	Key.space	n/a
285.3095	0.075	570619	keystroke_=	=	n/a
285.5195	0.106	571039	keystroke_Key.backspace	Key.backspace	n/a
285.745	0.06	571490	keystroke_Key.backspace	Key.backspace	n/a
286.09	0.03	572180	keystroke_Key.enter	Key.enter	n/a
286.1265	8.2	572253	prompt	n/a	victim invention appreciate outlined\n
287.14	0.0905	574280	keystroke_v	v	n/a
287.2755	0.0895	574551	keystroke_i	i	n/a
287.381	0.075	574762	keystroke_c	c	n/a
287.5755	0.0595	575151	keystroke_t	t	n/a
287.68	0.15	575360	keystroke_i	i	n/a
287.77	0.0905	575540	keystroke_m	m	n/a
287.935	0.12	575870	keystroke_Key.space	Key.space	n/a
288.16	0.15	576320	keystroke_i	i	n/a
288.2505	0.1195	576501	keystroke_n	n	n/a
288.58	0.09	577160	keystroke_v	v	n/a
288.685	0.09	577370	keystroke_e	e	n/a
288.85	0.03	577700	keystroke_n	n	n/a
288.91	0.0755	577820	keystroke_t	t	n/a
289.345	0.03	578690	keystroke_Key.backspace	Key.backspace	n/a
289.435	0.0895	578870	keystroke_Key.backspace	Key.backspace	n/a
290.095	0.0905	580190	keystroke_n	n	n/a
290.2455	0.09	580491	keystroke_t	t	n/a
290.3945	0.091	580789	keystroke_i	i	n/a
290.561	0.164	581122	keystroke_o	o	n/a
290.6655	0.15	581331	keystroke_n	n	n/a
290.8895	0.1205	581779	keystroke_Key.space	Key.space	n/a
291.2205	0.12	582441	keystroke_a	a	n/a
291.3255	0.074	582651	keystroke_p	p	n/a
291.4905	0.075	582981	keystroke_p	p	n/a
291.6855	0.09	583371	keystroke_r	r	n/a
291.8655	0.075	583731	keystroke_e	e	n/a
292.0445	0.091	584089	keystroke_c	c	n/a
292.1505	0.075	584301	keystroke_i	i	n/a
292.2855	0.06	584571	keystroke_a	a	n/a
292.4655	0.075	584931	keystroke_t	t	n/a
292.5695	0.106	585139	keystroke_e	e	n/a
292.7645	0.106	585529	keystroke_Key.space	Key.space	n/a
293.11	0.106	586220	keystroke_o	o	n/a
293.305	0.09	586610	keystroke_u	u	n/a
293.41	0.045	586820	keystroke_t	t	n/a
293.56	0.0755	587120	keystroke_l	l	n/a
293.755	0.166	587510	keystroke_i	i	n/a
293.8155	0.1805	587631	keystroke_n	n	n/a
293.905	0.1055	587810	keystroke_e	e	n/a
294.0855	0.0895	588171	keystroke_d	d	n/a
294.22	0.1045	588440	keystroke_Key.enter	Key.enter	n/a
294.331	7.046	588662	prompt	n/a	maple join massachusetts rescue\n
295.0605	0.09	590121	keystroke_m	m	n/a
295.1655	0.089	590331	keystroke_a	a	n/a
295.3295	0.151	590659	keystroke_p	p	n/a
295.4195	0.121	590839	keystroke_l	l	n/a
295.5545	0.0605	591109	keystroke_e	e	n/a
295.705	0.075	591410	keystroke_Key.space	Key.space	n/a
295.9	0.0905	591800	keystroke_j	j	n/a
296.125	0.0755	592250	keystroke_o	o	n/a
296.305	0.165	592610	keystroke_i	i	n/a
296.3805	0.1345	592761	keystroke_n	n	n/a
296.6055	0.1345	593211	keystroke_Key.space	Key.space	n/a
296.665	0.1955	593330	keystroke_m	m	n/a
296.8755	0.059	593751	keystroke_a	a	n/a
297.1295	0.075	594259	keystroke_s	s	n/a
297.2945	0.09	594589	keystroke_s	s	n/a
297.5205	0.06	595041	keystroke_a	a	n/a
297.7305	0.0745	595461	keystroke_c	c	n/a
297.76	0.09	595520	keystroke_h	h	n/a
297.9555	0.0595	595911	keystroke_u	u	n/a
298.045	0.0895	596090	keystroke_s	s	n/a
298.2095	0.076	596419	keystroke_e	e	n/a
298.375	0.06	596750	keystroke_t	t	n/a
298.51	0.105	597020	keystroke_t	t	n/a
298.705	0.0605	597410	keystroke_s	s	n/a
299.11	0.09	598220	keystroke_Key.space	Key.space	n/a
299.44	0.09	598880	keystroke_r	r	n/a
299.605	0.1055	599210	keystroke_e	e	n/a
299.8155	0.0745	599631	keystroke_s	s	n/a
300.01	0.09	600020	keystroke_c	c	n/a
300.1455	0.104	600291	keystroke_u	u	n/a
300.235	0.0755	600470	keystroke_e	e	n/a
301.3145	0.0605	602629	keystroke_Key.enter	Key.enter	n/a
301.38	4.8265	602760	prompt	n/a	standard tion frank kinds\n
302.05	0.045	604100	keystroke_s	s	n/a
302.17	0.06	604340	keystroke_t	t	n/a
302.26	0.075	604520	keystroke_a	a	n/a
302.41	0.075	604820	keystroke_n	n	n/a
302.5005	0.0745	605001	keystroke_d	d	n/a
302.695	0.0755	605390	keystroke_a	a	n/a
302.9205	0.074	605841	keystroke_r	r	n/a
303.0695	0.106	606139	keystroke_d	d	n/a
303.1605	0.09	606321	keystroke_Key.space	Key.space	n/a
303.3555	0.0745	606711	keystroke_t	t	n/a
303.49	0.135	606980	keystroke_i	i	n/a
303.685	0.1655	607370	keystroke_o	o	n/a
303.79	0.135	607580	keystroke_n	n	n/a
304.0145	0.1205	608029	keystroke_Key.space	Key.space	n/a
304.2845	0.075	608569	keystroke_f	f	n/a
304.4655	0.0595	608931	keystroke_r	r	n/a
304.7055	0.074	609411	keystroke_a	a	n/a
304.8095	0.1655	609619	keystroke_n	n	n/a
304.87	0.1505	609740	keystroke_k	k	n/a
305.0645	0.106	610129	keystroke_Key.space	Key.space	n/a
305.2895	0.091	610579	keystroke_k	k	n/a
305.5	0.1355	611000	keystroke_i	i	n/a
305.575	0.105	611150	keystroke_n	n	n/a
305.71	0.0745	611420	keystroke_d	d	n/a
305.89	0.075	611780	keystroke_s	s	n/a
306.115	0.09	612230	keystroke_Key.enter	Key.enter	n/a
306.2105	5.561	612421	prompt	n/a	thesis cross topics proceeding\n
306.955	0.0745	613910	keystroke_t	t	n/a
307.0595	0.1055	614119	keystroke_h	h	n/a
307.21	0.09	614420	keystroke_e	e	n/a
307.405	0.075	614810	keystroke_s	s	n/a
307.525	0.075	615050	keystroke_i	i	n/a
307.6315	0.0735	615263	keystroke_s	s	n/a
307.7645	0.1205	615529	keystroke_Key.space	Key.space	n/a
307.96	0.105	615920	keystroke_c	c	n/a
308.17	0.06	616340	keystroke_r	r	n/a
308.2605	0.075	616521	keystroke_o	o	n/a
308.395	0.06	616790	keystroke_s	s	n/a
308.5605	0.1045	617121	keystroke_s	s	n/a
308.695	0.09	617390	keystroke_Key.space	Key.space	n/a
308.815	0.075	617630	keystroke_t	t	n/a
308.92	0.105	617840	keystroke_o	o	n/a
309.1155	0.075	618231	keystroke_p	p	n/a
309.3105	0.09	618621	keystroke_i	i	n/a
309.3855	0.075	618771	keystroke_c	c	n/a
309.6105	0.075	619221	keystroke_s	s	n/a
309.73	0.075	619460	keystroke_Key.space	Key.space	n/a
309.94	0.09	619880	keystroke_p	p	n/a
310.105	0.075	620210	keystroke_r	r	n/a
310.24	0.0905	620480	keystroke_o	o	n/a
310.36	0.105	620720	keystroke_c	c	n/a
310.6005	0.0745	621201	keystroke_e	e	n/a
310.795	0.06	621590	keystroke_d	d	n/a
310.96	0.1055	621920	keystroke_d	d	n/a
311.095	0.151	622190	keystroke_i	i	n/a
311.185	0.135	622370	keystroke_n	n	n/a
311.2755	0.105	622551	keystroke_g	g	n/a
311.5305	0.09	623061	keystroke_s	s	n/a
311.6805	0.089	623361	keystroke_Key.enter	Key.enter	n/a
311.781	12.7405	623562	prompt	n/a	prefix simply poker dinner\n
312.6405	0.0895	625281	keystroke_p	p	n/a
312.79	0.105	625580	keystroke_e	e	n/a
312.985	0.09	625970	keystroke_r	r	n/a
313.1505	0.1045	626301	keystroke_f	f	n/a
313.3	0.075	626600	keystroke_i	i	n/a
313.765	0.0895	627530	keystroke_c	c	n/a
313.96	0.0895	627920	keystroke_Key.space	Key.space	n/a
314.3195	0.0605	628639	keystroke_s	s	n/a
314.665	0.06	629330	keystroke_Key.backspace	Key.backspace	n/a
314.8155	0.045	629631	keystroke_Key.backspace	Key.backspace	n/a
314.9355	0.0595	629871	keystroke_Key.backspace	Key.backspace	n/a
315.0255	0.0745	630051	keystroke_x	x	n/a
315.205	0.105	630410	keystroke_Key.space	Key.space	n/a
315.34	0.075	630680	keystroke_s	s	n/a
315.4605	0.135	630921	keystroke_i	i	n/a
315.5505	0.135	631101	keystroke_m	m	n/a
315.805	0.15	631610	keystroke_p	p	n/a
315.91	0.1205	631820	keystroke_l	l	n/a
316.255	0.03	632510	keystroke_Key.backspace	Key.backspace	n/a
316.855	0.3	633710	keystroke_Key.backspace	Key.backspace	n/a
317.275	0.06	634550	keystroke_Key.backspace	Key.backspace	n/a
317.4255	0.0595	634851	keystroke_Key.backspace	Key.backspace	n/a
317.5745	0.0605	635149	keystroke_Key.backspace	Key.backspace	n/a
317.71	0.075	635420	keystroke_Key.backspace	Key.backspace	n/a
317.935	0.06	635870	keystroke_Key.backspace	Key.backspace	n/a
318.085	0.075	636170	keystroke_Key.backspace	Key.backspace	n/a
318.2655	0.0895	636531	keystroke_Key.backspace	Key.backspace	n/a
318.43	0.12	636860	keystroke_Key.backspace	Key.backspace	n/a
318.67	0.12	637340	keystroke_Key.backspace	Key.backspace	n/a
319.27	0.075	638540	keystroke_r	r	n/a
319.72	0.0755	639440	keystroke_e	e	n/a
319.945	0.0745	639890	keystroke_f	f	n/a
320.0505	0.089	640101	keystroke_i	i	n/a
320.2	0.0745	640400	keystroke_x	x	n/a
320.2595	0.121	640519	keystroke_Key.space	Key.space	n/a
320.4105	0.075	640821	keystroke_s	s	n/a
320.5305	0.105	641061	keystroke_i	i	n/a
320.5605	0.105	641121	keystroke_m	m	n/a
320.7855	0.105	641571	keystroke_p	p	n/a
320.8445	0.1215	641689	keystroke_l	l	n/a
321.1005	0.06	642201	keystroke_y	y	n/a
321.25	0.1195	642500	keystroke_Key.space	Key.space	n/a
321.6845	0.18	643369	keystroke_m	m	n/a
322.165	0.12	644330	keystroke_Key.backspace	Key.backspace	n/a
322.4805	0.0745	644961	keystroke_p	p	n/a
322.6305	0.075	645261	keystroke_o	o	n/a
322.81	0.075	645620	keystroke_k	k	n/a
322.9455	0.09	645891	keystroke_e	e	n/a
323.1255	0.09	646251	keystroke_r	r	n/a
323.245	0.0905	646490	keystroke_Key.space	Key.space	n/a
323.5305	0.0895	647061	keystroke_d	d	n/a
323.6355	0.0745	647271	keystroke_i	i	n/a
323.8455	0.0445	647691	keystroke_n	n	n/a
323.9805	0.106	647961	keystroke_n	n	n/a
324.1015	0.089	648203	keystroke_e	e	n/a
324.2945	0.09	648589	keystroke_r	r	n/a
324.4295	0.09	648859	keystroke_Key.enter	Key.enter	n/a
324.535	6.1515	649070	prompt	n/a	harder facilities loads publication\n
325.4805	0.09	650961	keystroke_h	h	n/a
325.5715	0.104	651143	keystroke_a	a	n/a
325.8255	0.074	651651	keystroke_r	r	n/a
325.9905	0.089	651981	keystroke_d	d	n/a
326.1555	0.0595	652311	keystroke_e	e	n/a
326.3205	0.075	652641	keystroke_r	r	n/a
326.44	0.1045	652880	keystroke_Key.space	Key.space	n/a
326.7395	0.0755	653479	keystroke_f	f	n/a
326.83	0.075	653660	keystroke_a	a	n/a
327.055	0.075	654110	keystroke_c	c	n/a
327.19	0.091	654380	keystroke_i	i	n/a
327.385	0.091	654770	keystroke_l	l	n/a
327.5655	0.075	655131	keystroke_i	i	n/a
327.6695	0.0755	655339	keystroke_t	t	n/a
327.7595	0.0755	655519	keystroke_i	i	n/a
327.91	0.0755	655820	keystroke_e	e	n/a
328.09	0.09	656180	keystroke_s	s	n/a
328.2105	0.0745	656421	keystroke_Key.space	Key.space	n/a
328.7655	0.0895	657531	keystroke_p	p	n/a
329.02	0.075	658040	keystroke_u	u	n/a
329.1855	0.0745	658371	keystroke_b	b	n/a
329.2905	0.0745	658581	keystroke_l	l	n/a
329.4555	0.075	658911	keystroke_i	i	n/a
329.5455	0.06	659091	keystroke_c	c	n/a
329.755	0.0755	659510	keystroke_a	a	n/a
330.0105	0.074	660021	keystroke_t	t	n/a
330.1005	0.104	660201	keystroke_i	i	n/a
330.2795	0.166	660559	keystroke_o	o	n/a
330.3555	0.165	660711	keystroke_n	n	n/a
330.5955	0.0895	661191	keystroke_Key.enter	Key.enter	n/a
330.6925	6.474	661385	prompt	n/a	bikes think generator results\n
331.615	0.0745	663230	keystroke_b	b	n/a
331.7355	0.09	663471	keystroke_i	i	n/a
331.9	0.105	663800	keystroke_k	k	n/a
332.035	0.0755	664070	keystroke_e	e	n/a
332.2155	0.0895	664431	keystroke_s	s	n/a
332.35	0.105	664700	keystroke_Key.space	Key.space	n/a
332.5905	0.06	665181	keystroke_t	t	n/a
332.6195	0.091	665239	keystroke_h	h	n/a
332.83	0.135	665660	keystroke_i	i	n/a
332.89	0.2255	665780	keystroke_n	n	n/a
333.0555	0.135	666111	keystroke_k	k	n/a
333.2205	0.105	666441	keystroke_Key.space	Key.space	n/a
333.4295	0.0905	666859	keystroke_g	g	n/a
333.505	0.0755	667010	keystroke_e	e	n/a
333.64	0.075	667280	keystroke_n	n	n/a
333.6995	0.0755	667399	keystroke_e	e	n/a
333.88	0.075	667760	keystroke_r	r	n/a
334.0905	0.075	668181	keystroke_a	a	n/a
334.3455	0.0595	668691	keystroke_t	t	n/a
334.421	0.089	668842	keystroke_o	o	n/a
334.54	0.09	669080	keystroke_r	r	n/a
334.615	0.1055	669230	keystroke_Key.space	Key.space	n/a
335.0505	0.105	670101	keystroke_r	r	n/a
335.275	0.075	670550	keystroke_e	e	n/a
335.425	0.1055	670850	keystroke_s	s	n/a
335.5455	0.045	671091	keystroke_u	u	n/a
335.741	0.074	671482	keystroke_l	l	n/a
336.13	0.075	672260	keystroke_s	s	n/a
336.535	0.0895	673070	keystroke_Key.backspace	Key.backspace	n/a
336.6545	0.106	673309	keystroke_t	t	n/a
336.9245	0.091	673849	keystroke_s	s	n/a
337.1045	0.0605	674209	keystroke_Key.enter	Key.enter	n/a
337.1705	5.861	674341	prompt	n/a	nato receive handled wisdom\n
337.855	0.091	675710	keystroke_n	n	n/a
337.99	0.075	675980	keystroke_a	a	n/a
338.23	0.045	676460	keystroke_t	t	n/a
338.305	0.09	676610	keystroke_o	o	n/a
338.485	0.1045	676970	keystroke_Key.space	Key.space	n/a
339.01	0.06	678020	keystroke_r	r	n/a
339.1755	0.0595	678351	keystroke_e	e	n/a
339.3705	0.0745	678741	keystroke_c	c	n/a
339.55	0.045	679100	keystroke_e	e	n/a
339.61	0.0605	679220	keystroke_i	i	n/a
339.8355	0.09	679671	keystroke_v	v	n/a
339.9405	0.06	679881	keystroke_e	e	n/a
340.0745	0.09	680149	keystroke_Key.space	Key.space	n/a
340.346	0.1195	680692	keystroke_h	h	n/a
340.8095	0.045	681619	keystroke_a	a	n/a
340.8995	0.106	681799	keystroke_n	n	n/a
341.05	0.0905	682100	keystroke_d	d	n/a
341.1705	0.074	682341	keystroke_l	l	n/a
341.276	0.059	682552	keystroke_e	e	n/a
341.4405	0.075	682881	keystroke_d	d	n/a
341.575	0.0905	683150	keystroke_Key.space	Key.space	n/a
341.6805	0.0605	683361	keystroke_w	w	n/a
341.861	0.104	683722	keystroke_i	i	n/a
342.01	0.0905	684020	keystroke_s	s	n/a
342.22	0.0905	684440	keystroke_d	d	n/a
342.385	0.27	684770	keystroke_o	o	n/a
342.55	0.1505	685100	keystroke_m	m	n/a
342.9395	0.09	685879	keystroke_Key.enter	Key.enter	n/a
343.035	7.7815	686070	prompt	n/a	town jessica baby violence\n
343.796	0.074	687592	keystroke_t	t	n/a
343.885	0.105	687770	keystroke_o	o	n/a
344.035	0.09	688070	keystroke_w	w	n/a
344.1555	0.1495	688311	keystroke_n	n	n/a
344.23	0.1205	688460	keystroke_Key.space	Key.space	n/a
344.395	0.1195	688790	keystroke_j	j	n/a
344.4995	0.09	688999	keystroke_e	e	n/a
344.6795	0.0605	689359	keystroke_s	s	n/a
344.8305	0.09	689661	keystroke_s	s	n/a
344.9355	0.075	689871	keystroke_i	i	n/a
345.0705	0.09	690141	keystroke_c	c	n/a
345.325	0.061	690650	keystroke_a	a	n/a
345.4595	0.0905	690919	keystroke_Key.space	Key.space	n/a
345.64	0.075	691280	keystroke_b	b	n/a
345.745	0.091	691490	keystroke_a	a	n/a
345.8365	0.104	691673	keystroke_b	b	n/a
346.195	0.1055	692390	keystroke_Key.space	Key.space	n/a
346.375	0.09	692750	keystroke_v	v	n/a
346.615	0.0895	693230	keystroke_i	i	n/a
346.7805	0.089	693561	keystroke_o	o	n/a
346.945	0.075	693890	keystroke_l	l	n/a
347.3195	0.0455	694639	keystroke_Key.backspace	Key.backspace	n/a
347.4395	0.061	694879	keystroke_Key.backspace	Key.backspace	n/a
347.6055	0.06	695211	keystroke_Key.backspace	Key.backspace	n/a
347.7395	0.06	695479	keystroke_Key.backspace	Key.backspace	n/a
347.8755	0.045	695751	keystroke_Key.backspace	Key.backspace	n/a
348.43	0.0755	696860	keystroke_y	y	n/a
348.58	0.135	697160	keystroke_Key.space	Key.space	n/a
348.7455	0.0895	697491	keystroke_v	v	n/a
348.925	0.061	697850	keystroke_i	i	n/a
349.0605	0.0895	698121	keystroke_o	o	n/a
349.241	0.074	698482	keystroke_l	l	n/a
349.361	0.074	698722	keystroke_e	e	n/a
349.5705	0.0895	699141	keystroke_n	n	n/a
349.781	0.089	699562	keystroke_c	c	n/a
350.2605	0.09	700521	keystroke_e	e	n/a
350.755	0.06	701510	keystroke_Key.enter	Key.enter	n/a
350.8205	9.088	701641	prompt	n/a	safe hewlett mile trance\n
351.61	0.061	703220	keystroke_s	s	n/a
351.79	0.0755	703580	keystroke_a	a	n/a
351.91	0.09	703820	keystroke_f	f	n/a
352.0455	0.0745	704091	keystroke_e	e	n/a
352.165	0.135	704330	keystroke_Key.space	Key.space	n/a
352.7805	0.0905	705561	keystroke_h	h	n/a
352.9145	0.061	705829	keystroke_e	e	n/a
353.0505	0.0745	706101	keystroke_l	l	n/a
353.6195	0.0615	707239	keystroke_e	e	n/a
354.3555	0.0595	708711	keystroke_Key.backspace	Key.backspace	n/a
354.49	0.0905	708980	keystroke_Key.backspace	Key.backspace	n/a
354.6405	0.09	709281	keystroke_w	w	n/a
354.8055	0.06	709611	keystroke_l	l	n/a
355.0155	0.0745	710031	keystroke_e	e	n/a
355.5855	0.0595	711171	keystroke_t	t	n/a
355.72	0.09	711440	keystroke_t	t	n/a
355.93	0.105	711860	keystroke_Key.space	Key.space	n/a
356.17	0.121	712340	keystroke_m	m	n/a
356.3505	0.1045	712701	keystroke_i	i	n/a
358.3455	0.075	716691	keystroke_l	l	n/a
358.4805	0.075	716961	keystroke_e	e	n/a
358.615	0.09	717230	keystroke_Key.space	Key.space	n/a
358.8255	0.09	717651	keystroke_t	t	n/a
358.9905	0.105	717981	keystroke_r	r	n/a
359.245	0.075	718490	keystroke_a	a	n/a
359.335	0.1055	718670	keystroke_n	n	n/a
359.5155	0.105	719031	keystroke_c	c	n/a
359.695	0.09	719390	keystroke_e	e	n/a
359.815	0.09	719630	keystroke_Key.enter	Key.enter	n/a
359.9275	11.694	719855	prompt	n/a	jelsoft armed equilibrium officially\n
361.136	0.09	722272	keystroke_j	j	n/a
361.315	0.091	722630	keystroke_e	e	n/a
361.5395	0.1355	723079	keystroke_l	l	n/a
361.78	0.091	723560	keystroke_s	s	n/a
361.975	0.06	723950	keystroke_o	o	n/a
362.065	0.1055	724130	keystroke_f	f	n/a
362.3045	0.06	724609	keystroke_t	t	n/a
362.4095	0.09	724819	keystroke_Key.space	Key.space	n/a
362.5595	0.091	725119	keystroke_a	a	n/a
362.8595	0.06	725719	keystroke_r	r	n/a
363.415	0.075	726830	keystroke_m	m	n/a
363.535	0.105	727070	keystroke_e	e	n/a
363.73	0.075	727460	keystroke_d	d	n/a
363.835	0.105	727670	keystroke_Key.space	Key.space	n/a
364.3	0.075	728600	keystroke_e	e	n/a
364.5405	0.0445	729081	keystroke_q	q	n/a
364.8105	0.074	729621	keystroke_u	u	n/a
364.96	0.0905	729920	keystroke_i	i	n/a
365.516	0.0895	731032	keystroke_l	l	n/a
365.6955	0.075	731391	keystroke_i	i	n/a
365.815	0.0895	731630	keystroke_b	b	n/a
365.9655	0.09	731931	keystroke_i	i	n/a
366.1305	0.075	732261	keystroke_r	r	n/a
366.295	0.075	732590	keystroke_u	u	n/a
366.5055	0.1195	733011	keystroke_m	m	n/a
366.6405	0.09	733281	keystroke_Key.space	Key.space	n/a
367.5705	0.0455	735141	keystroke_o	o	n/a
367.6755	0.105	735351	keystroke_f	f	n/a
367.9455	0.015	735891	keystroke_c	c	n/a
368.9805	0.0895	737961	keystroke_Key.backspace	Key.backspace	n/a
369.355	0.06	738710	keystroke_f	f	n/a
369.4905	0.074	738981	keystroke_f	f	n/a
369.88	0.075	739760	keystroke_Key.backspace	Key.backspace	n/a
370.3155	0.09	740631	keystroke_i	i	n/a
370.5555	0.044	741111	keystroke_c	c	n/a
370.645	0.09	741290	keystroke_i	i	n/a
370.8555	0.0755	741711	keystroke_a	a	n/a
370.9605	0.075	741921	keystroke_l	l	n/a
371.1095	0.091	742219	keystroke_l	l	n/a
371.2605	0.119	742521	keystroke_y	y	n/a
371.515	0.105	743030	keystroke_Key.enter	Key.enter	n/a
371.625	6.5365	743250	prompt	n/a	rentals achieve modems summaries\n
372.4755	0.1045	744951	keystroke_r	r	n/a
372.685	0.075	745370	keystroke_e	e	n/a
372.775	0.076	745550	keystroke_n	n	n/a
372.8955	0.06	745791	keystroke_t	t	n/a
373.136	0.0735	746272	keystroke_a	a	n/a
373.2255	0.09	746451	keystroke_l	l	n/a
373.3455	0.0755	746691	keystroke_s	s	n/a
373.4505	0.089	746901	keystroke_Key.space	Key.space	n/a
373.5845	0.091	747169	keystroke_a	a	n/a
373.8405	0.09	747681	keystroke_c	c	n/a
373.9155	0.0745	747831	keystroke_h	h	n/a
374.3355	0.1045	748671	keystroke_i	i	n/a
374.935	0.0755	749870	keystroke_e	e	n/a
375.071	0.089	750142	keystroke_v	v	n/a
375.175	0.061	750350	keystroke_e	e	n/a
375.2955	0.1195	750591	keystroke_Key.space	Key.space	n/a
375.955	0.211	751910	keystroke_m	m	n/a
376.0755	0.1345	752151	keystroke_o	o	n/a
376.18	0.06	752360	keystroke_d	d	n/a
376.316	0.089	752632	keystroke_e	e	n/a
376.4355	0.1195	752871	keystroke_m	m	n/a
376.57	0.09	753140	keystroke_s	s	n/a
376.675	0.1205	753350	keystroke_Key.space	Key.space	n/a
376.81	0.075	753620	keystroke_s	s	n/a
376.945	0.06	753890	keystroke_u	u	n/a
377.1405	0.0455	754281	keystroke_m	m	n/a
377.2605	0.0745	754521	keystroke_m	m	n/a
377.35	0.0755	754700	keystroke_a	a	n/a
377.546	0.0745	755092	keystroke_r	r	n/a
377.6355	0.09	755271	keystroke_i	i	n/a
377.7855	0.0745	755571	keystroke_e	e	n/a
377.935	0.09	755870	keystroke_s	s	n/a
378.04	0.12	756080	keystroke_Key.enter	Key.enter	n/a
378.1675	6.249	756335	prompt	n/a	euros scenes aging bound\n
378.82	0.0605	757640	keystroke_e	e	n/a
379.1355	0.0895	758271	keystroke_u	u	n/a
379.3455	0.0745	758691	keystroke_o	o	n/a
379.4355	0.1195	758871	keystroke_r	r	n/a
379.66	0.09	759320	keystroke_s	s	n/a
379.765	0.1055	759530	keystroke_Key.space	Key.space	n/a
379.961	0.09	759922	keystroke_s	s	n/a
380.1855	0.075	760371	keystroke_c	c	n/a
380.381	0.0595	760762	keystroke_e	e	n/a
380.5305	0.0905	761061	keystroke_n	n	n/a
380.695	0.0905	761390	keystroke_e	e	n/a
380.8755	0.09	761751	keystroke_s	s	n/a
380.9795	0.105	761959	keystroke_Key.space	Key.space	n/a
381.3105	0.075	762621	keystroke_a	a	n/a
381.4455	0.045	762891	keystroke_h	h	n/a
381.9405	0.1045	763881	keystroke_Key.backspace	Key.backspace	n/a
382.3	0.0755	764600	keystroke_g	g	n/a
382.405	0.135	764810	keystroke_i	i	n/a
382.495	0.1045	764990	keystroke_n	n	n/a
382.555	0.075	765110	keystroke_g	g	n/a
382.6905	0.1045	765381	keystroke_Key.space	Key.space	n/a
382.96	0.0755	765920	keystroke_b	b	n/a
383.095	0.0755	766190	keystroke_o	o	n/a
383.3055	0.135	766611	keystroke_u	u	n/a
383.381	0.134	766762	keystroke_n	n	n/a
383.456	0.104	766912	keystroke_d	d	n/a
383.59	0.195	767180	keystroke_i	i	n/a
383.71	0.165	767420	keystroke_n	n	n/a
383.8	0.03	767600	keystroke_g	g	n/a
384.34	0.075	768680	keystroke_Key.enter	Key.enter	n/a
384.4195	11.607	768839	prompt	n/a	actually ours plans rolls\n
385.45	0.106	770900	keystroke_a	a	n/a
385.735	0.0755	771470	keystroke_c	c	n/a
385.961	0.0595	771922	keystroke_t	t	n/a
386.0655	0.075	772131	keystroke_u	u	n/a
386.2305	0.075	772461	keystroke_a	a	n/a
386.395	0.03	772790	keystroke_l	l	n/a
386.5305	0.0595	773061	keystroke_l	l	n/a
390.852	0.013	781704	keystroke_y	y	n/a
390.88	0.075	781760	keystroke_Key.space	Key.space	n/a
391.06	0.075	782120	keystroke_o	o	n/a
391.225	0.045	782450	keystroke_u	u	n/a
391.301	0.089	782602	keystroke_r	r	n/a
391.525	0.0755	783050	keystroke_s	s	n/a
391.675	0.0755	783350	keystroke_Key.space	Key.space	n/a
391.9155	0.045	783831	keystroke_p	p	n/a
392.4555	0.06	784911	keystroke_Key.backspace	Key.backspace	n/a
392.6055	0.06	785211	keystroke_Key.backspace	Key.backspace	n/a
392.7405	0.075	785481	keystroke_Key.backspace	Key.backspace	n/a
393.3405	0.075	786681	keystroke_s	s	n/a
393.4455	0.09	786891	keystroke_Key.space	Key.space	n/a
393.67	0.1205	787340	keystroke_p	p	n/a
393.776	0.044	787552	keystroke_l	l	n/a
393.88	0.075	787760	keystroke_a	a	n/a
394.255	0.075	788510	keystroke_n	n	n/a
394.4505	0.074	788901	keystroke_s	s	n/a
394.5395	0.12	789079	keystroke_Key.space	Key.space	n/a
394.7055	0.09	789411	keystroke_r	r	n/a
394.8105	0.045	789621	keystroke_o	o	n/a
394.99	0.061	789980	keystroke_l	l	n/a
395.155	0.075	790310	keystroke_l	l	n/a
395.545	0.09	791090	keystroke_s	s	n/a
395.965	0.06	791930	keystroke_Key.enter	Key.enter	n/a
396.03	8.247	792060	prompt	n/a	enzyme improvement bottles ronald\n
397.1205	0.059	794241	keystroke_e	e	n/a
397.21	0.0755	794420	keystroke_n	n	n/a
397.4505	0.0745	794901	keystroke_z	z	n/a
397.6005	0.0895	795201	keystroke_y	y	n/a
397.8105	0.09	795621	keystroke_m	m	n/a
397.9455	0.09	795891	keystroke_e	e	n/a
398.0645	0.0905	796129	keystroke_Key.space	Key.space	n/a
398.44	0.09	796880	keystroke_i	i	n/a
398.545	0.15	797090	keystroke_m	m	n/a
399.055	0.0755	798110	keystroke_p	p	n/a
399.19	0.075	798380	keystroke_r	r	n/a
399.28	0.0755	798560	keystroke_o	o	n/a
399.5205	0.075	799041	keystroke_v	v	n/a
399.7305	0.075	799461	keystroke_e	e	n/a
399.8195	0.0765	799639	keystroke_m	m	n/a
399.9105	0.074	799821	keystroke_e	e	n/a
400.001	0.0745	800002	keystroke_n	n	n/a
400.1205	0.0755	800241	keystroke_t	t	n/a
400.3305	0.089	800661	keystroke_Key.space	Key.space	n/a
400.6755	0.09	801351	keystroke_b	b	n/a
400.8705	0.075	801741	keystroke_o	o	n/a
400.9895	0.0765	801979	keystroke_t	t	n/a
401.1705	0.09	802341	keystroke_t	t	n/a
401.3205	0.045	802641	keystroke_l	l	n/a
401.4255	0.0905	802851	keystroke_e	e	n/a
401.605	0.1045	803210	keystroke_s	s	n/a
401.905	0.0605	803810	keystroke_Key.backspace	Key.backspace	n/a
402.07	0.0605	804140	keystroke_Key.backspace	Key.backspace	n/a
402.4455	0.045	804891	keystroke_s	s	n/a
402.8205	0.075	805641	keystroke_Key.backspace	Key.backspace	n/a
402.9555	0.105	805911	keystroke_e	e	n/a
403.1205	0.1205	806241	keystroke_s	s	n/a
403.1955	0.075	806391	keystroke_Key.space	Key.space	n/a
403.435	0.1055	806870	keystroke_r	r	n/a
403.5855	0.165	807171	keystroke_o	o	n/a
403.6755	0.135	807351	keystroke_n	n	n/a
403.826	0.075	807652	keystroke_a	a	n/a
403.9455	0.105	807891	keystroke_l	l	n/a
404.0655	0.075	808131	keystroke_d	d	n/a
404.1855	0.09	808371	keystroke_Key.enter	Key.enter	n/a
404.284	5.4825	808568	prompt	n/a	and rolled systematic hire\n
405.0705	0.075	810141	keystroke_a	a	n/a
405.2055	0.09	810411	keystroke_n	n	n/a
405.3105	0.06	810621	keystroke_d	d	n/a
405.4005	0.0895	810801	keystroke_Key.space	Key.space	n/a
405.5055	0.045	811011	keystroke_r	r	n/a
405.596	0.075	811192	keystroke_o	o	n/a
405.7755	0.045	811551	keystroke_l	l	n/a
405.8955	0.075	811791	keystroke_l	l	n/a
406.0155	0.09	812031	keystroke_e	e	n/a
406.1805	0.12	812361	keystroke_d	d	n/a
406.2705	0.105	812541	keystroke_Key.space	Key.space	n/a
406.5255	0.09	813051	keystroke_s	s	n/a
406.646	0.0745	813292	keystroke_y	y	n/a
406.7505	0.075	813501	keystroke_s	s	n/a
406.9905	0.075	813981	keystroke_t	t	n/a
407.186	0.0595	814372	keystroke_e	e	n/a
407.276	0.0745	814552	keystroke_m	m	n/a
407.41	0.106	814820	keystroke_a	a	n/a
407.7395	0.06	815479	keystroke_t	t	n/a
407.8595	0.075	815719	keystroke_i	i	n/a
407.9945	0.091	815989	keystroke_c	c	n/a
408.1305	0.09	816261	keystroke_Key.space	Key.space	n/a
408.3245	0.091	816649	keystroke_h	h	n/a
408.8355	0.0745	817671	keystroke_i	i	n/a
409	0.076	818000	keystroke_r	r	n/a
409.555	0.0605	819110	keystroke_e	e	n/a
409.7205	0.0445	819441	keystroke_Key.enter	Key.enter	n/a
409.7735	15.563	819547	prompt	n/a	hart literacy conventional chance\n
410.68	0.06	821360	keystroke_h	h	n/a
410.7555	0.0745	821511	keystroke_a	a	n/a
410.965	0.06	821930	keystroke_r	r	n/a
411.13	0.075	822260	keystroke_t	t	n/a
411.175	0.0745	822350	keystroke_Key.space	Key.space	n/a
411.3255	0.104	822651	keystroke_l	l	n/a
411.5055	0.045	823011	keystroke_i	i	n/a
411.746	0.0445	823492	keystroke_t	t	n/a
411.8655	0.105	823731	keystroke_t	t	n/a
412.0755	0.0755	824151	keystroke_e	e	n/a
412.2255	0.09	824451	keystroke_r	r	n/a
412.5405	0.09	825081	keystroke_a	a	n/a
412.7805	0.075	825561	keystroke_c	c	n/a
412.915	0.105	825830	keystroke_y	y	n/a
413.095	0.12	826190	keystroke_Key.space	Key.space	n/a
413.5	0.061	827000	keystroke_c	c	n/a
415.0605	0.12	830121	keystroke_o	o	n/a
415.1355	0.135	830271	keystroke_n	n	n/a
415.2405	0.075	830481	keystroke_c	c	n/a
415.4495	0.0765	830899	keystroke_e	e	n/a
415.586	0.059	831172	keystroke_n	n	n/a
415.84	0.106	831680	keystroke_c	c	n/a
416.111	0.045	832222	keystroke_t	t	n/a
416.23	0.046	832460	keystroke_i	i	n/a
416.396	0.105	832792	keystroke_o	o	n/a
416.456	0.1345	832912	keystroke_n	n	n/a
416.636	0.1485	833272	keystroke_l	l	n/a
416.7995	0.12	833599	keystroke_Key.space	Key.space	n/a
417.13	0.0605	834260	keystroke_Key.backspace	Key.backspace	n/a
417.2805	0.0445	834561	keystroke_Key.backspace	Key.backspace	n/a
417.7005	0.03	835401	keystroke_Key.backspace	Key.backspace	n/a
417.835	0.045	835670	keystroke_Key.backspace	Key.backspace	n/a
417.9545	0.0755	835909	keystroke_Key.backspace	Key.backspace	n/a
418.1055	0.075	836211	keystroke_Key.backspace	Key.backspace	n/a
418.3905	0.0895	836781	keystroke_Key.backspace	Key.backspace	n/a
418.9	0.0905	837800	keystroke_t	t	n/a
419.0055	0.059	838011	keystroke_i	i	n/a
419.1405	0.12	838281	keystroke_o	o	n/a
419.231	0.1045	838462	keystroke_n	n	n/a
419.3055	0.09	838611	keystroke_a	a	n/a
419.3795	0.136	838759	keystroke_l	l	n/a
419.5295	0.0905	839059	keystroke_Key.space	Key.space	n/a
420.131	0.104	840262	keystroke_c	c	n/a
420.2805	0.0755	840561	keystroke_h	h	n/a
420.4	0.075	840800	keystroke_a	a	n/a
420.505	0.09	841010	keystroke_n	n	n/a
420.6705	0.0755	841341	keystroke_c	c	n/a
420.8955	0.03	841791	keystroke_e	e	n/a
423.266	0.0895	846532	keystroke_v	v	n/a
423.37	0.09	846740	keystroke_e	e	n/a
423.49	0.076	846980	keystroke_n	n	n/a
423.6255	0.09	847251	keystroke_t	t	n/a
423.745	0.0905	847490	keystroke_i	i	n/a
423.91	0.15	847820	keystroke_o	o	n/a
424.015	0.105	848030	keystroke_n	n	n/a
424.076	0.0895	848152	keystroke_a	a	n/a
424.15	0.12	848300	keystroke_l	l	n/a
424.3	0.105	848600	keystroke_Key.space	Key.space	n/a
424.3905	0.0895	848781	keystroke_c	c	n/a
424.5105	0.09	849021	keystroke_h	h	n/a
424.645	0.075	849290	keystroke_a	a	n/a
424.75	0.075	849500	keystroke_n	n	n/a
424.9005	0.09	849801	keystroke_c	c	n/a
425.0955	0.09	850191	keystroke_e	e	n/a
425.2755	0.06	850551	keystroke_Key.enter	Key.enter	n/a
425.347	16.6995	850694	prompt	n/a	hosted acdbentity individually bacterial\n
426.116	0.0745	852232	keystroke_h	h	n/a
426.2955	0.0755	852591	keystroke_o	o	n/a
426.4	0.121	852800	keystroke_s	s	n/a
426.536	0.0745	853072	keystroke_t	t	n/a
426.64	0.091	853280	keystroke_e	e	n/a
426.791	0.105	853582	keystroke_d	d	n/a
426.85	0.0905	853700	keystroke_Key.space	Key.space	n/a
426.956	0.104	853912	keystroke_e	e	n/a
427.1805	0.0755	854361	keystroke_x	x	n/a
427.51	0.105	855020	keystroke_e	e	n/a
427.81	0.0905	855620	keystroke_c	c	n/a
427.9905	0.075	855981	keystroke_u	u	n/a
428.1855	0.075	856371	keystroke_t	t	n/a
428.2755	0.09	856551	keystroke_e	e	n/a
428.4405	0.12	856881	keystroke_d	d	n/a
428.5455	0.105	857091	keystroke_Key.space	Key.space	n/a
430.8555	0.0445	861711	keystroke_Key.backspace	Key.backspace	n/a
431.23	0.12	862460	keystroke_Key.backspace	Key.backspace	n/a
433.256	0.0745	866512	keystroke_c	c	n/a
435.1155	0.075	870231	keystroke_d	d	n/a
435.6855	0.075	871371	keystroke_b	b	n/a
435.805	0.075	871610	keystroke_e	e	n/a
435.91	0.0905	871820	keystroke_n	n	n/a
436.0455	0.0745	872091	keystroke_t	t	n/a
436.18	0.075	872360	keystroke_i	i	n/a
436.36	0.075	872720	keystroke_l	l	n/a
436.48	0.0765	872960	keystroke_y	y	n/a
436.6605	0.12	873321	keystroke_Key.space	Key.space	n/a
437.2455	0.15	874491	keystroke_i	i	n/a
437.3345	0.136	874669	keystroke_n	n	n/a
437.4545	0.106	874909	keystroke_d	d	n/a
437.5605	0.105	875121	keystroke_i	i	n/a
437.7255	0.09	875451	keystroke_v	v	n/a
437.8155	0.0895	875631	keystroke_i	i	n/a
437.9655	0.075	875931	keystroke_d	d	n/a
438.0255	0.0905	876051	keystroke_u	u	n/a
438.1755	0.089	876351	keystroke_a	a	n/a
438.2795	0.061	876559	keystroke_l	l	n/a
438.4305	0.09	876861	keystroke_l	l	n/a
438.5955	0.015	877191	keystroke_u	u	n/a
438.7155	0.09	877431	keystroke_Key.space	Key.space	n/a
439.5405	0.059	879081	keystroke_Key.backspace	Key.backspace	n/a
439.6595	0.0905	879319	keystroke_Key.backspace	Key.backspace	n/a
440.246	0.075	880492	keystroke_y	y	n/a
440.395	0.1355	880790	keystroke_Key.space	Key.space	n/a
440.5	0.09	881000	keystroke_b	b	n/a
440.62	0.1055	881240	keystroke_a	a	n/a
440.83	0.105	881660	keystroke_c	c	n/a
440.95	0.075	881900	keystroke_t	t	n/a
441.1	0.06	882200	keystroke_e	e	n/a
441.25	0.09	882500	keystroke_r	r	n/a
441.4155	0.075	882831	keystroke_i	i	n/a
441.535	0.06	883070	keystroke_a	a	n/a
441.6395	0.106	883279	keystroke_l	l	n/a
441.9695	0.076	883939	keystroke_Key.enter	Key.enter	n/a
442.0625	12.9745	884125	prompt	n/a	psychological earn there's peeing\n
442.7955	0.075	885591	keystroke_p	p	n/a
443.065	0.0755	886130	keystroke_h	h	n/a
443.2145	0.045	886429	keystroke_y	y	n/a
443.335	0.0905	886670	keystroke_s	s	n/a
445.09	0.105	890180	keystroke_Key.backspace	Key.backspace	n/a
446.6355	0.075	893271	keystroke_Key.backspace	Key.backspace	n/a
446.7995	0.031	893599	keystroke_Key.backspace	Key.backspace	n/a
447.79	0.075	895580	keystroke_s	s	n/a
447.91	0.075	895820	keystroke_y	y	n/a
448.135	0.0755	896270	keystroke_c	c	n/a
448.255	0.0755	896510	keystroke_h	h	n/a
448.4805	0.0895	896961	keystroke_o	o	n/a
448.63	0.0755	897260	keystroke_l	l	n/a
448.765	0.075	897530	keystroke_o	o	n/a
448.9	0.0605	897800	keystroke_g	g	n/a
448.9755	0.075	897951	keystroke_i	i	n/a
449.095	0.105	898190	keystroke_c	c	n/a
449.35	0.06	898700	keystroke_a	a	n/a
449.4255	0.074	898851	keystroke_l	l	n/a
449.5605	0.104	899121	keystroke_Key.space	Key.space	n/a
450.025	0.075	900050	keystroke_e	e	n/a
450.2795	0.0755	900559	keystroke_a	a	n/a
450.5045	0.06	901009	keystroke_r	r	n/a
450.655	0.135	901310	keystroke_n	n	n/a
450.7455	0.1195	901491	keystroke_Key.space	Key.space	n/a
451.0905	0.0745	902181	keystroke_t	t	n/a
451.195	0.075	902390	keystroke_h	h	n/a
451.3305	0.0895	902661	keystroke_e	e	n/a
451.5255	0.075	903051	keystroke_r	r	n/a
451.6755	0.0755	903351	keystroke_e	e	n/a
451.7955	0.075	903591	keystroke_;	;	n/a
451.9755	0.06	903951	keystroke_s	s	n/a
452.1705	0.0895	904341	keystroke_Key.space	Key.space	n/a
452.635	0.06	905270	keystroke_Key.backspace	Key.backspace	n/a
452.7855	0.0445	905571	keystroke_Key.backspace	Key.backspace	n/a
452.9055	0.075	905811	keystroke_Key.backspace	Key.backspace	n/a
453.4905	0.06	906981	keystroke_'	'	n/a
453.6405	0.09	907281	keystroke_s	s	n/a
453.7305	0.089	907461	keystroke_Key.space	Key.space	n/a
453.9255	0.044	907851	keystroke_p	p	n/a
454.0455	0.074	908091	keystroke_e	e	n/a
454.226	0.1195	908452	keystroke_e	e	n/a
454.4045	0.1805	908809	keystroke_i	i	n/a
454.4955	0.165	908991	keystroke_n	n	n/a
454.6745	0.106	909349	keystroke_g	g	n/a
454.9455	0.09	909891	keystroke_Key.enter	Key.enter	n/a
455.041	6.2955	910082	prompt	n/a	farmers dome worldcat korea\n
455.8455	0.075	911691	keystroke_f	f	n/a
456.0855	0.075	912171	keystroke_a	a	n/a
456.31	0.0605	912620	keystroke_r	r	n/a
456.4	0.09	912800	keystroke_m	m	n/a
456.505	0.075	913010	keystroke_e	e	n/a
456.671	0.074	913342	keystroke_r	r	n/a
456.881	0.059	913762	keystroke_s	s	n/a
456.955	0.075	913910	keystroke_Key.space	Key.space	n/a
457.061	0.074	914122	keystroke_d	d	n/a
457.15	0.1655	914300	keystroke_o	o	n/a
457.226	0.119	914452	keystroke_m	m	n/a
457.3	0.075	914600	keystroke_e	e	n/a
457.435	0.075	914870	keystroke_Key.space	Key.space	n/a
457.525	0.0755	915050	keystroke_w	w	n/a
457.63	0.09	915260	keystroke_o	o	n/a
457.7355	0.0895	915471	keystroke_r	r	n/a
457.87	0.1055	915740	keystroke_l	l	n/a
457.961	0.0745	915922	keystroke_d	d	n/a
458.8305	0.06	917661	keystroke_c	c	n/a
459.0245	0.0765	918049	keystroke_a	a	n/a
459.145	0.075	918290	keystroke_t	t	n/a
459.265	0.1055	918530	keystroke_Key.space	Key.space	n/a
459.626	0.074	919252	keystroke_k	k	n/a
459.8805	0.0905	919761	keystroke_o	o	n/a
459.986	0.089	919972	keystroke_r	r	n/a
460.18	0.091	920360	keystroke_e	e	n/a
460.4955	0.075	920991	keystroke_a	a	n/a
461.2595	0.0755	922519	keystroke_Key.enter	Key.enter	n/a
461.3405	6.7915	922681	prompt	n/a	matches change restaurants alpha\n
462.07	0.075	924140	keystroke_m	m	n/a
462.1755	0.0895	924351	keystroke_a	a	n/a
462.3705	0.0605	924741	keystroke_t	t	n/a
462.475	0.09	924950	keystroke_c	c	n/a
462.565	0.075	925130	keystroke_h	h	n/a
462.6855	0.0895	925371	keystroke_e	e	n/a
462.866	0.074	925732	keystroke_s	s	n/a
462.941	0.1035	925882	keystroke_Key.space	Key.space	n/a
463.1505	0.06	926301	keystroke_c	c	n/a
463.2405	0.075	926481	keystroke_h	h	n/a
463.3755	0.059	926751	keystroke_a	a	n/a
463.4645	0.09	926929	keystroke_n	n	n/a
463.6455	0.06	927291	keystroke_g	g	n/a
463.7645	0.061	927529	keystroke_e	e	n/a
463.8545	0.1055	927709	keystroke_Key.space	Key.space	n/a
464.035	0.106	928070	keystroke_r	r	n/a
464.2155	0.0895	928431	keystroke_e	e	n/a
464.3805	0.105	928761	keystroke_s	s	n/a
464.6505	0.045	929301	keystroke_t	t	n/a
465.0405	0.075	930081	keystroke_a	a	n/a
465.1905	0.075	930381	keystroke_u	u	n/a
465.4005	0.06	930801	keystroke_r	r	n/a
465.611	0.0885	931222	keystroke_a	a	n/a
465.7155	0.0745	931431	keystroke_n	n	n/a
465.8945	0.06	931789	keystroke_t	t	n/a
466.0905	0.075	932181	keystroke_s	s	n/a
466.1795	0.091	932359	keystroke_Key.space	Key.space	n/a
466.3455	0.074	932691	keystroke_a	a	n/a
466.4645	0.0915	932929	keystroke_l	l	n/a
466.661	0.074	933322	keystroke_p	p	n/a
466.9305	0.0445	933861	keystroke_g	g	n/a
467.44	0.0905	934880	keystroke_Key.backspace	Key.backspace	n/a
467.7855	0.075	935571	keystroke_h	h	n/a
467.936	0.0745	935872	keystroke_a	a	n/a
468.0405	0.0895	936081	keystroke_Key.enter	Key.enter	n/a
468.135	4.107	936270	prompt	n/a	lease dice raise shots\n
468.9405	0.075	937881	keystroke_l	l	n/a
469.0455	0.12	938091	keystroke_e	e	n/a
469.2555	0.09	938511	keystroke_a	a	n/a
469.4505	0.09	938901	keystroke_s	s	n/a
469.6305	0.0595	939261	keystroke_e	e	n/a
469.75	0.075	939500	keystroke_Key.space	Key.space	n/a
469.8265	0.089	939653	keystroke_d	d	n/a
469.9455	0.0745	939891	keystroke_i	i	n/a
470.066	0.0745	940132	keystroke_c	c	n/a
470.2755	0.06	940551	keystroke_e	e	n/a
470.3505	0.09	940701	keystroke_Key.space	Key.space	n/a
470.4705	0.075	940941	keystroke_r	r	n/a
470.6955	0.075	941391	keystroke_a	a	n/a
470.8305	0.09	941661	keystroke_i	i	n/a
470.9355	0.06	941871	keystroke_s	s	n/a
471.101	0.0745	942202	keystroke_e	e	n/a
471.2505	0.075	942501	keystroke_Key.space	Key.space	n/a
471.3105	0.105	942621	keystroke_s	s	n/a
471.4455	0.0895	942891	keystroke_h	h	n/a
471.671	0.105	943342	keystroke_o	o	n/a
471.806	0.09	943612	keystroke_t	t	n/a
472.0445	0.0905	944089	keystroke_s	s	n/a
472.18	0.06	944360	keystroke_Key.enter	Key.enter	n/a
472.246	5.9955	944492	prompt	n/a	calvin picks addiction does\n
472.991	0.0745	945982	keystroke_c	c	n/a
473.2005	0.0605	946401	keystroke_a	a	n/a
473.3055	0.075	946611	keystroke_l	l	n/a
473.516	0.059	947032	keystroke_v	v	n/a
473.621	0.149	947242	keystroke_i	i	n/a
473.711	0.12	947422	keystroke_n	n	n/a
473.905	0.075	947810	keystroke_Key.space	Key.space	n/a
474.1	0.06	948200	keystroke_p	p	n/a
474.2805	0.0745	948561	keystroke_i	i	n/a
474.4005	0.075	948801	keystroke_c	c	n/a
474.505	0.075	949010	keystroke_k	k	n/a
474.64	0.075	949280	keystroke_s	s	n/a
474.716	0.104	949432	keystroke_Key.space	Key.space	n/a
474.97	0.09	949940	keystroke_a	a	n/a
475.211	0.0595	950422	keystroke_d	d	n/a
475.375	0.105	950750	keystroke_d	d	n/a
475.525	0.0605	951050	keystroke_i	i	n/a
475.66	0.0605	951320	keystroke_t	t	n/a
476.47	0.0755	952940	keystroke_Key.backspace	Key.backspace	n/a
476.5755	0.089	953151	keystroke_c	c	n/a
476.8295	0.06	953659	keystroke_t	t	n/a
476.9195	0.0915	953839	keystroke_i	i	n/a
477.1145	0.151	954229	keystroke_o	o	n/a
477.2205	0.119	954441	keystroke_n	n	n/a
477.4145	0.106	954829	keystroke_Key.space	Key.space	n/a
477.625	0.105	955250	keystroke_d	d	n/a
477.7455	0.09	955491	keystroke_o	o	n/a
477.8505	0.105	955701	keystroke_e	e	n/a
478.0445	0.091	956089	keystroke_s	s	n/a
478.1355	0.105	956271	keystroke_Key.enter	Key.enter	n/a
478.2455	9.776	956491	prompt	n/a	hyundai playback flying combined\n
479.215	0.06	958430	keystroke_h	h	n/a
479.756	0.059	959512	keystroke_y	y	n/a
479.92	0.1355	959840	keystroke_u	u	n/a
480.011	0.1195	960022	keystroke_n	n	n/a
480.1605	0.075	960321	keystroke_d	d	n/a
480.3855	0.075	960771	keystroke_a	a	n/a
480.4905	0.105	960981	keystroke_i	i	n/a
480.6255	0.135	961251	keystroke_Key.space	Key.space	n/a
481.0305	0.089	962061	keystroke_p	p	n/a
481.2555	0.075	962511	keystroke_l	l	n/a
481.4205	0.075	962841	keystroke_a	a	n/a
481.6605	0.075	963321	keystroke_c	c	n/a
481.7665	0.1045	963533	keystroke_k	k	n/a
482.0805	0.1055	964161	keystroke_b	b	n/a
482.276	0.074	964552	keystroke_a	a	n/a
482.785	0.045	965570	keystroke_Key.backspace	Key.backspace	n/a
482.9205	0.06	965841	keystroke_Key.backspace	Key.backspace	n/a
483.0705	0.06	966141	keystroke_Key.backspace	Key.backspace	n/a
483.2355	0.045	966471	keystroke_Key.backspace	Key.backspace	n/a
483.8055	0.06	967611	keystroke_y	y	n/a
483.9855	0.075	967971	keystroke_b	b	n/a
484.1195	0.09	968239	keystroke_a	a	n/a
484.3445	0.0905	968689	keystroke_c	c	n/a
484.4205	0.09	968841	keystroke_k	k	n/a
484.5855	0.12	969171	keystroke_Key.space	Key.space	n/a
485.1405	0.0755	970281	keystroke_f	f	n/a
485.23	0.075	970460	keystroke_l	l	n/a
485.4555	0.074	970911	keystroke_y	y	n/a
485.651	0.1495	971302	keystroke_i	i	n/a
485.7405	0.135	971481	keystroke_n	n	n/a
486.6405	0.075	973281	keystroke_g	g	n/a
486.76	0.075	973520	keystroke_Key.space	Key.space	n/a
486.94	0.105	973880	keystroke_c	c	n/a
487.015	0.165	974030	keystroke_o	o	n/a
487.1055	0.1495	974211	keystroke_m	m	n/a
487.27	0.09	974540	keystroke_b	b	n/a
487.405	0.15	974810	keystroke_i	i	n/a
487.4655	0.1495	974931	keystroke_n	n	n/a
487.585	0.135	975170	keystroke_e	e	n/a
487.81	0.105	975620	keystroke_d	d	n/a
487.93	0.09	975860	keystroke_Key.enter	Key.enter	n/a
488.0355	8.0865	976071	prompt	n/a	southeast affiliated belongs using\n
488.711	0.1195	977422	keystroke_s	s	n/a
488.816	0.074	977632	keystroke_o	o	n/a
489.0405	0.0745	978081	keystroke_u	u	n/a
489.2055	0.1045	978411	keystroke_t	t	n/a
489.2955	0.0755	978591	keystroke_h	h	n/a
489.4605	0.1045	978921	keystroke_e	e	n/a
489.686	0.089	979372	keystroke_a	a	n/a
489.8505	0.1055	979701	keystroke_s	s	n/a
489.94	0.091	979880	keystroke_t	t	n/a
490.075	0.1045	980150	keystroke_Key.space	Key.space	n/a
490.3005	0.09	980601	keystroke_a	a	n/a
490.571	0.0445	981142	keystroke_f	f	n/a
490.6905	0.105	981381	keystroke_f	f	n/a
490.8705	0.0895	981741	keystroke_i	i	n/a
491.9355	0.075	983871	keystroke_l	l	n/a
492.115	0.0605	984230	keystroke_i	i	n/a
492.235	0.1055	984470	keystroke_a	a	n/a
492.4005	0.075	984801	keystroke_t	t	n/a
492.5355	0.0755	985071	keystroke_e	e	n/a
492.805	0.015	985610	keystroke_d	d	n/a
492.835	0.1055	985670	keystroke_Key.space	Key.space	n/a
493.36	0.076	986720	keystroke_b	b	n/a
493.4805	0.075	986961	keystroke_e	e	n/a
493.6005	0.075	987201	keystroke_l	l	n/a
493.795	0.1205	987590	keystroke_o	o	n/a
494.4855	0.0895	988971	keystroke_n	n	n/a
494.65	0.0905	989300	keystroke_g	g	n/a
494.92	0.0755	989840	keystroke_s	s	n/a
495.07	0.09	990140	keystroke_Key.space	Key.space	n/a
495.266	0.089	990532	keystroke_u	u	n/a
495.385	0.076	990770	keystroke_s	s	n/a
495.506	0.1795	991012	keystroke_i	i	n/a
495.595	0.165	991190	keystroke_n	n	n/a
495.73	0.0755	991460	keystroke_g	g	n/a
496.0295	0.091	992059	keystroke_Key.enter	Key.enter	n/a
496.1345	9.7675	992269	prompt	n/a	cooper kodak hansen dans\n
497.411	0.105	994822	keystroke_c	c	n/a
497.7405	0.06	995481	keystroke_o	o	n/a
497.906	0.0595	995812	keystroke_o	o	n/a
498.1755	0.12	996351	keystroke_p	p	n/a
498.43	0.0905	996860	keystroke_e	e	n/a
499.735	0.0605	999470	keystroke_r	r	n/a
499.825	0.0905	999650	keystroke_Key.space	Key.space	n/a
500.0055	0.0595	1000011	keystroke_k	k	n/a
500.1705	0.06	1000341	keystroke_o	o	n/a
500.245	0.09	1000490	keystroke_d	d	n/a
500.485	0.06	1000970	keystroke_a	a	n/a
500.6055	0.1055	1001211	keystroke_k	k	n/a
500.725	0.105	1001450	keystroke_Key.space	Key.space	n/a
501.0555	0.075	1002111	keystroke_j	j	n/a
501.1745	0.0905	1002349	keystroke_a	a	n/a
501.9395	0.0315	1003879	keystroke_Key.backspace	Key.backspace	n/a
502.5255	0.045	1005051	keystroke_Key.backspace	Key.backspace	n/a
502.675	0.075	1005350	keystroke_Key.backspace	Key.backspace	n/a
503.8	0.09	1007600	keystroke_Key.space	Key.space	n/a
504.01	0.076	1008020	keystroke_h	h	n/a
504.1155	0.075	1008231	keystroke_a	a	n/a
504.22	0.075	1008440	keystroke_n	n	n/a
504.3405	0.0605	1008681	keystroke_s	s	n/a
504.491	0.06	1008982	keystroke_e	e	n/a
504.655	0.1355	1009310	keystroke_n	n	n/a
504.73	0.135	1009460	keystroke_Key.space	Key.space	n/a
505.0005	0.0745	1010001	keystroke_d	d	n/a
505.24	0.045	1010480	keystroke_a	a	n/a
505.36	0.0905	1010720	keystroke_n	n	n/a
505.6455	0.075	1011291	keystroke_s	s	n/a
505.8405	0.06	1011681	keystroke_Key.enter	Key.enter	n/a
505.908	12.4735	1011816	prompt	n/a	hose accidents martin guam\n
506.71	0.0755	1013420	keystroke_h	h	n/a
506.921	0.0295	1013842	keystroke_o	o	n/a
506.981	0.0895	1013962	keystroke_s	s	n/a
507.1745	0.0755	1014349	keystroke_e	e	n/a
508.9	0.1205	1017800	keystroke_a	a	n/a
509.1995	0.061	1018399	keystroke_c	c	n/a
509.35	0.1045	1018700	keystroke_c	c	n/a
509.5145	0.0605	1019029	keystroke_i	i	n/a
509.62	0.075	1019240	keystroke_d	d	n/a
509.755	0.0605	1019510	keystroke_n	n	n/a
510.115	0.0445	1020230	keystroke_Key.backspace	Key.backspace	n/a
510.2345	0.06	1020469	keystroke_Key.backspace	Key.backspace	n/a
510.3695	0.0605	1020739	keystroke_Key.backspace	Key.backspace	n/a
510.7005	0.075	1021401	keystroke_Key.backspace	Key.backspace	n/a
510.895	0.0455	1021790	keystroke_Key.backspace	Key.backspace	n/a
511.2255	0.074	1022451	keystroke_Key.space	Key.space	n/a
511.3755	0.09	1022751	keystroke_a	a	n/a
511.6455	0.045	1023291	keystroke_Key.backspace	Key.backspace	n/a
511.7805	0.0745	1023561	keystroke_Key.backspace	Key.backspace	n/a
512.2155	0.089	1024431	keystroke_Key.backspace	Key.backspace	n/a
512.5005	0.089	1025001	keystroke_Key.space	Key.space	n/a
512.6505	0.075	1025301	keystroke_a	a	n/a
512.8905	0.06	1025781	keystroke_c	c	n/a
513.0405	0.105	1026081	keystroke_c	c	n/a
513.1745	0.075	1026349	keystroke_i	i	n/a
513.3105	0.0745	1026621	keystroke_d	d	n/a
513.475	0.09	1026950	keystroke_e	e	n/a
513.58	0.061	1027160	keystroke_n	n	n/a
513.701	0.0895	1027402	keystroke_t	t	n/a
513.925	0.0755	1027850	keystroke_s	s	n/a
514.0595	0.0905	1028119	keystroke_Key.space	Key.space	n/a
514.2255	0.1055	1028451	keystroke_m	m	n/a
514.346	0.0595	1028692	keystroke_a	a	n/a
514.585	0.106	1029170	keystroke_r	r	n/a
514.8105	0.029	1029621	keystroke_y	y	n/a
514.9295	0.121	1029859	keystroke_i	i	n/a
514.99	0.15	1029980	keystroke_n	n	n/a
515.3505	0.0445	1030701	keystroke_Key.backspace	Key.backspace	n/a
515.4855	0.06	1030971	keystroke_Key.backspace	Key.backspace	n/a
515.6205	0.045	1031241	keystroke_Key.backspace	Key.backspace	n/a
515.846	0.074	1031692	keystroke_t	t	n/a
515.9955	0.0305	1031991	keystroke_i	i	n/a
516.7005	0.03	1033401	keystroke_n	n	n/a
516.8205	0.09	1033641	keystroke_Key.space	Key.space	n/a
517.6455	0.075	1035291	keystroke_g	g	n/a
517.7795	0.076	1035559	keystroke_u	u	n/a
517.93	0.09	1035860	keystroke_a	a	n/a
518.05	0.12	1036100	keystroke_m	m	n/a
518.29	0.09	1036580	keystroke_Key.enter	Key.enter	n/a
518.393	6.2735	1036786	prompt	n/a	they palace silicon identifying\n
519.1605	0.074	1038321	keystroke_t	t	n/a
519.25	0.0745	1038500	keystroke_h	h	n/a
519.3705	0.06	1038741	keystroke_e	e	n/a
519.4145	0.0905	1038829	keystroke_y	y	n/a
519.551	0.119	1039102	keystroke_Key.space	Key.space	n/a
519.82	0.15	1039640	keystroke_p	p	n/a
519.925	0.106	1039850	keystroke_l	l	n/a
520.046	0.06	1040092	keystroke_a	a	n/a
520.2555	0.0755	1040511	keystroke_c	c	n/a
520.4505	0.075	1040901	keystroke_e	e	n/a
520.5105	0.09	1041021	keystroke_Key.space	Key.space	n/a
520.6445	0.091	1041289	keystroke_s	s	n/a
520.7655	0.075	1041531	keystroke_i	i	n/a
520.9455	0.104	1041891	keystroke_l	l	n/a
521.1245	0.076	1042249	keystroke_i	i	n/a
521.2455	0.075	1042491	keystroke_c	c	n/a
521.455	0.165	1042910	keystroke_o	o	n/a
521.5455	0.1195	1043091	keystroke_n	n	n/a
521.74	0.105	1043480	keystroke_Key.space	Key.space	n/a
521.996	0.104	1043992	keystroke_i	i	n/a
522.266	0.105	1044532	keystroke_d	d	n/a
522.446	0.089	1044892	keystroke_e	e	n/a
522.551	0.1045	1045102	keystroke_n	n	n/a
522.7155	0.0595	1045431	keystroke_t	t	n/a
522.835	0.105	1045670	keystroke_i	i	n/a
523.54	0.0755	1047080	keystroke_f	f	n/a
523.7055	0.074	1047411	keystroke_y	y	n/a
523.9005	0.105	1047801	keystroke_i	i	n/a
523.9755	0.1355	1047951	keystroke_n	n	n/a
524.3355	0.105	1048671	keystroke_g	g	n/a
524.605	0.0595	1049210	keystroke_Key.enter	Key.enter	n/a
524.672	7.945	1049344	prompt	n/a	saying breeds gray diagnostic\n
525.356	0.09	1050712	keystroke_s	s	n/a
525.521	0.105	1051042	keystroke_a	a	n/a
525.641	0.06	1051282	keystroke_y	y	n/a
525.8505	0.105	1051701	keystroke_i	i	n/a
525.9105	0.12	1051821	keystroke_n	n	n/a
526.0005	0.09	1052001	keystroke_g	g	n/a
526.1205	0.09	1052241	keystroke_Key.space	Key.space	n/a
526.2405	0.12	1052481	keystroke_b	b	n/a
526.4205	0.075	1052841	keystroke_r	r	n/a
526.6155	0.06	1053231	keystroke_e	e	n/a
526.8715	0.074	1053743	keystroke_e	e	n/a
527.0805	0.075	1054161	keystroke_d	d	n/a
527.2905	0.0595	1054581	keystroke_s	s	n/a
527.47	0.1055	1054940	keystroke_Key.space	Key.space	n/a
529.075	0.075	1058150	keystroke_g	g	n/a
529.1655	0.0605	1058331	keystroke_r	r	n/a
529.405	0.06	1058810	keystroke_a	a	n/a
529.48	0.09	1058960	keystroke_y	y	n/a
529.645	0.09	1059290	keystroke_Key.space	Key.space	n/a
530.4855	0.09	1060971	keystroke_d	d	n/a
530.6355	0.059	1061271	keystroke_i	i	n/a
530.9955	0.0745	1061991	keystroke_a	a	n/a
531.1595	0.061	1062319	keystroke_g	g	n/a
531.3545	0.091	1062709	keystroke_n	n	n/a
531.5355	0.075	1063071	keystroke_o	o	n/a
531.671	0.104	1063342	keystroke_s	s	n/a
531.895	0.075	1063790	keystroke_t	t	n/a
532.0155	0.0745	1064031	keystroke_i	i	n/a
532.1505	0.09	1064301	keystroke_c	c	n/a
532.5555	0.0595	1065111	keystroke_Key.enter	Key.enter	n/a
532.621	4.406	1065242	prompt	n/a	barn serbia it needs\n
533.47	0.076	1066940	keystroke_b	b	n/a
533.575	0.0905	1067150	keystroke_a	a	n/a
533.83	0.045	1067660	keystroke_r	r	n/a
533.9355	0.1505	1067871	keystroke_n	n	n/a
534.01	0.15	1068020	keystroke_Key.space	Key.space	n/a
534.3105	0.12	1068621	keystroke_s	s	n/a
534.5355	0.075	1069071	keystroke_e	e	n/a
534.6995	0.0905	1069399	keystroke_r	r	n/a
534.8655	0.195	1069731	keystroke_b	b	n/a
535.0155	0.12	1070031	keystroke_i	i	n/a
535.1955	0.0895	1070391	keystroke_a	a	n/a
535.42	0.1055	1070840	keystroke_Key.space	Key.space	n/a
535.6605	0.09	1071321	keystroke_i	i	n/a
535.825	0.0905	1071650	keystroke_t	t	n/a
535.975	0.09	1071950	keystroke_Key.space	Key.space	n/a
536.14	0.105	1072280	keystroke_n	n	n/a
536.29	0.046	1072580	keystroke_e	e	n/a
536.5605	0.0145	1073121	keystroke_e	e	n/a
536.755	0.015	1073510	keystroke_d	d	n/a
536.816	0.104	1073632	keystroke_s	s	n/a
536.9355	0.0895	1073871	keystroke_Key.enter	Key.enter	n/a
537.0305	9.5665	1074061	prompt	n/a	symptoms posters extract monetary\n
537.73	0.09	1075460	keystroke_s	s	n/a
538.376	0.059	1076752	keystroke_y	y	n/a
538.571	0.0895	1077142	keystroke_m	m	n/a
538.78	0.061	1077560	keystroke_p	p	n/a
539.02	0.075	1078040	keystroke_t	t	n/a
539.215	0.18	1078430	keystroke_o	o	n/a
