onset	duration	sample	value	key	prompt_text
1.731	16.3455	3462	prompt	n/a	the quick brown fox jumps over a lazy dog\n
3.2995	0.088	6599	keystroke_r	r	n/a
4.379	0.064	8758	keystroke_Key.backspace	Key.backspace	n/a
4.555	0.064	9110	keystroke_Key.backspace	Key.backspace	n/a
4.763	0.0955	9526	keystroke_t	t	n/a
4.9065	0.088	9813	keystroke_h	h	n/a
4.9955	0.071	9991	keystroke_e	e	n/a
5.0985	0.088	10197	keystroke_Key.space	Key.space	n/a
5.6185	0.064	11237	keystroke_q	q	n/a
5.7545	0.128	11509	keystroke_u	u	n/a
5.8425	0.072	11685	keystroke_i	i	n/a
6.33	0.112	12660	keystroke_c	c	n/a
6.586	0.112	13172	keystroke_k	k	n/a
6.818	0.08	13636	keystroke_Key.space	Key.space	n/a
10.8975	0.097	21795	keystroke_b	b	n/a
11.0505	0.111	22101	keystroke_r	r	n/a
11.1535	0.1045	22307	keystroke_o	o	n/a
11.282	0.072	22564	keystroke_w	w	n/a
11.386	0.088	22772	keystroke_n	n	n/a
11.522	0.112	23044	keystroke_Key.space	Key.space	n/a
11.946	0.072	23892	keystroke_f	f	n/a
12.0665	0.096	24133	keystroke_o	o	n/a
12.1705	0.08	24341	keystroke_x	x	n/a
12.4905	0.112	24981	keystroke_Key.space	Key.space	n/a
12.8185	0.088	25637	keystroke_j	j	n/a
13.0025	0.072	26005	keystroke_u	u	n/a
13.3065	0.104	26613	keystroke_p	p	n/a
13.6665	0.064	27333	keystroke_Key.backspace	Key.backspace	n/a
13.9065	0.12	27813	keystroke_m	m	n/a
13.9785	0.104	27957	keystroke_p	p	n/a
14.1305	0.08	28261	keystroke_s	s	n/a
14.2745	0.112	28549	keystroke_Key.space	Key.space	n/a
14.9145	0.08	29829	keystroke_o	o	n/a
15.0025	0.064	30005	keystroke_v	v	n/a
15.1705	0.144	30341	keystroke_e	e	n/a
15.2345	0.128	30469	keystroke_r	r	n/a
15.3225	0.104	30645	keystroke_Key.space	Key.space	n/a
15.5945	0.144	31189	keystroke_a	a	n/a
15.7465	0.104	31493	keystroke_Key.space	Key.space	n/a
15.9465	0.088	31893	keystroke_l	l	n/a
16.1705	0.0715	32341	keystroke_l	l	n/a
16.578	0.064	33156	keystroke_Key.backspace	Key.backspace	n/a
16.722	0.056	33444	keystroke_a	a	n/a
16.914	0.096	33828	keystroke_z	z	n/a
17.13	0.104	34260	keystroke_y	y	n/a
17.298	0.104	34596	keystroke_Key.space	Key.space	n/a
17.53	0.08	35060	keystroke_d	d	n/a
17.65	0.088	35300	keystroke_o	o	n/a
17.7625	0.088	35525	keystroke_g	g	n/a
18.0265	0.048	36053	keystroke_Key.enter	Key.enter	n/a
18.0805	7.563	36161	prompt	n/a	librarian allan traveler commented\n
18.8505	0.08	37701	keystroke_l	l	n/a
19.0505	0.048	38101	keystroke_i	i	n/a
19.2025	0.104	38405	keystroke_b	b	n/a
19.3385	0.072	38677	keystroke_r	r	n/a
19.514	0.128	39028	keystroke_a	a	n/a
19.578	0.12	39156	keystroke_r	r	n/a
19.666	0.064	39332	keystroke_i	i	n/a
19.842	0.096	39684	keystroke_a	a	n/a
19.914	0.072	39828	keystroke_n	n	n/a
20.09	0.104	40180	keystroke_Key.space	Key.space	n/a
20.682	0.088	41364	keystroke_a	a	n/a
20.778	0.064	41556	keystroke_l	l	n/a
20.938	0.064	41876	keystroke_l	l	n/a
21.05	0.12	42100	keystroke_a	a	n/a
21.154	0.08	42308	keystroke_n	n	n/a
21.29	0.104	42580	keystroke_Key.space	Key.space	n/a
21.7535	0.113	43507	keystroke_t	t	n/a
22.034	0.12	44068	keystroke_r	r	n/a
22.258	0.112	44516	keystroke_a	a	n/a
22.362	0.088	44724	keystroke_v	v	n/a
22.514	0.064	45028	keystroke_e	e	n/a
22.65	0.088	45300	keystroke_l	l	n/a
22.858	0.144	45716	keystroke_e	e	n/a
22.946	0.096	45892	keystroke_r	r	n/a
23.386	0.112	46772	keystroke_Key.space	Key.space	n/a
23.602	0.096	47204	keystroke_c	c	n/a
23.722	0.064	47444	keystroke_o	o	n/a
23.8895	0.072	47779	keystroke_m	m	n/a
24.0655	0.08	48131	keystroke_m	m	n/a
24.1615	0.08	48323	keystroke_e	e	n/a
24.3295	0.08	48659	keystroke_n	n	n/a
24.4015	0.104	48803	keystroke_t	t	n/a
24.5935	0.056	49187	keystroke_e	e	n/a
24.8015	0.088	49603	keystroke_d	d	n/a
25.5535	0.088	51107	keystroke_Key.enter	Key.enter	n/a
25.6475	10.652	51295	prompt	n/a	formats anger smilies produce\n
26.5055	0.1125	53011	keystroke_f	f	n/a
26.626	0.0795	53252	keystroke_o	o	n/a
26.7135	0.112	53427	keystroke_r	r	n/a
26.8415	0.104	53683	keystroke_m	m	n/a
27.3455	0.104	54691	keystroke_a	a	n/a
27.4735	0.096	54947	keystroke_t	t	n/a
27.5375	0.016	55075	keystroke_r	r	n/a
27.5775	0.072	55155	keystroke_s	s	n/a
28.098	0.056	56196	keystroke_Key.backspace	Key.backspace	n/a
28.242	0.072	56484	keystroke_Key.backspace	Key.backspace	n/a
28.298	0.08	56596	keystroke_s	s	n/a
28.45	0.072	56900	keystroke_Key.space	Key.space	n/a
29.106	0.12	58212	keystroke_a	a	n/a
29.218	0.08	58436	keystroke_n	n	n/a
29.322	0.088	58644	keystroke_g	g	n/a
29.474	0.152	58948	keystroke_e	e	n/a
29.57	0.096	59140	keystroke_r	r	n/a
29.642	0.08	59284	keystroke_Key.space	Key.space	n/a
29.9935	0.08	59987	keystroke_s	s	n/a
30.1215	0.096	60243	keystroke_m	m	n/a
30.2815	0.08	60563	keystroke_i	i	n/a
30.4815	0.128	60963	keystroke_l	l	n/a
30.6495	0.088	61299	keystroke_i	i	n/a
30.7855	0.056	61571	keystroke_e	e	n/a
30.9615	0.072	61923	keystroke_s	s	n/a
31.906	0.096	63812	keystroke_Key.space	Key.space	n/a
32.202	0.088	64404	keystroke_p	p	n/a
32.4335	0.056	64867	keystroke_o	o	n/a
32.5615	0.072	65123	keystroke_r	r	n/a
33.3455	0.048	66691	keystroke_Key.backspace	Key.backspace	n/a
33.5135	0.056	67027	keystroke_Key.backspace	Key.backspace	n/a
33.6015	0.096	67203	keystroke_r	r	n/a
33.7455	0.08	67491	keystroke_o	o	n/a
33.874	0.072	67748	keystroke_d	d	n/a
33.978	0.104	67956	keystroke_u	u	n/a
34.106	0.128	68212	keystroke_c	c	n/a
34.25	0.128	68500	keystroke_e	e	n/a
36.1855	0.1115	72371	keystroke_Key.enter	Key.enter	n/a
36.302	8.829	72604	prompt	n/a	upgrade static mins cache\n
37.105	0.104	74210	keystroke_u	u	n/a
37.242	0.087	74484	keystroke_r	r	n/a
37.441	0.128	74882	keystroke_g	g	n/a
38.0655	0.064	76131	keystroke_Key.backspace	Key.backspace	n/a
38.4415	0.104	76883	keystroke_g	g	n/a
38.7375	0.072	77475	keystroke_Key.backspace	Key.backspace	n/a
38.9215	0.064	77843	keystroke_Key.backspace	Key.backspace	n/a
39.1615	0.056	78323	keystroke_p	p	n/a
39.2975	0.088	78595	keystroke_g	g	n/a
39.4735	0.096	78947	keystroke_r	r	n/a
39.6335	0.096	79267	keystroke_a	a	n/a
39.8015	0.0725	79603	keystroke_d	d	n/a
39.986	0.064	79972	keystroke_e	e	n/a
40.194	0.1355	80388	keystroke_Key.space	Key.space	n/a
40.6015	0.064	81203	keystroke_a	a	n/a
40.9135	0.0485	81827	keystroke_Key.backspace	Key.backspace	n/a
40.938	0.0795	81876	keystroke_s	s	n/a
41.0975	0.088	82195	keystroke_t	t	n/a
41.2175	0.104	82435	keystroke_a	a	n/a
41.3225	0.087	82645	keystroke_t	t	n/a
41.4575	0.08	82915	keystroke_i	i	n/a
41.5615	0.104	83123	keystroke_c	c	n/a
41.7375	0.088	83475	keystroke_Key.space	Key.space	n/a
42.474	0.104	84948	keystroke_m	m	n/a
42.602	0.08	85204	keystroke_i	i	n/a
42.77	0.088	85540	keystroke_n	n	n/a
42.874	0.072	85748	keystroke_s	s	n/a
43.018	0.08	86036	keystroke_Key.space	Key.space	n/a
43.338	0.12	86676	keystroke_c	c	n/a
43.498	0.12	86996	keystroke_a	a	n/a
43.794	0.103	87588	keystroke_c	c	n/a
43.913	0.088	87826	keystroke_h	h	n/a
44.01	0.055	88020	keystroke_e	e	n/a
44.225	0.04	88450	keystroke_s	s	n/a
44.537	0.072	89074	keystroke_Key.backspace	Key.backspace	n/a
45.049	0.08	90098	keystroke_Key.enter	Key.enter	n/a
45.1345	14.9245	90269	prompt	n/a	constitution advertisements unusual stone\n
45.841	0.1125	91682	keystroke_c	c	n/a
45.9375	0.064	91875	keystroke_o	o	n/a
46.1055	0.088	92211	keystroke_n	n	n/a
46.1945	0.0955	92389	keystroke_s	s	n/a
46.402	0.12	92804	keystroke_t	t	n/a
46.538	0.08	93076	keystroke_i	i	n/a
46.834	0.104	93668	keystroke_t	t	n/a
46.994	0.096	93988	keystroke_u	u	n/a
47.634	0.08	95268	keystroke_t	t	n/a
47.786	0.127	95572	keystroke_i	i	n/a
47.89	0.064	95780	keystroke_o	o	n/a
48.074	0.071	96148	keystroke_n	n	n/a
48.225	0.096	96450	keystroke_Key.space	Key.space	n/a
48.849	0.104	97698	keystroke_a	a	n/a
49.169	0.072	98338	keystroke_d	d	n/a
49.554	0.095	99108	keystroke_v	v	n/a
49.769	0.136	99538	keystroke_e	e	n/a
49.85	0.095	99700	keystroke_r	r	n/a
50.529	0.104	101058	keystroke_i	i	n/a
50.897	0.048	101794	keystroke_Key.backspace	Key.backspace	n/a
51.001	0.088	102002	keystroke_t	t	n/a
51.177	0.073	102354	keystroke_i	i	n/a
51.386	0.064	102772	keystroke_s	s	n/a
51.738	0.08	103476	keystroke_e	e	n/a
52.097	0.104	104194	keystroke_m	m	n/a
52.241	0.112	104482	keystroke_e	e	n/a
52.361	0.088	104722	keystroke_n	n	n/a
52.482	0.056	104964	keystroke_t	t	n/a
52.729	0.072	105458	keystroke_s	s	n/a
53.049	0.064	106098	keystroke_Key.space	Key.space	n/a
53.385	0.081	106770	keystroke_u	u	n/a
53.593	0.08	107186	keystroke_n	n	n/a
53.729	0.096	107458	keystroke_s	s	n/a
53.833	0.08	107666	keystroke_u	u	n/a
54.4895	0.088	108979	keystroke_a	a	n/a
54.7695	0.072	109539	keystroke_l	l	n/a
55.2655	0.0875	110531	keystroke_Key.space	Key.space	n/a
55.7055	0.08	111411	keystroke_s	s	n/a
56.4175	0.072	112835	keystroke_Key.backspace	Key.backspace	n/a
56.5935	0.064	113187	keystroke_Key.backspace	Key.backspace	n/a
56.7615	0.072	113523	keystroke_Key.backspace	Key.backspace	n/a
56.9455	0.056	113891	keystroke_Key.backspace	Key.backspace	n/a
57.1135	0.08	114227	keystroke_Key.backspace	Key.backspace	n/a
57.2895	0.0955	114579	keystroke_Key.backspace	Key.backspace	n/a
57.593	0.096	115186	keystroke_u	u	n/a
57.802	0.111	115604	keystroke_s	s	n/a
58.313	0.104	116626	keystroke_u	u	n/a
58.497	0.072	116994	keystroke_a	a	n/a
58.593	0.08	117186	keystroke_l	l	n/a
58.785	0.08	117570	keystroke_Key.space	Key.space	n/a
58.969	0.088	117938	keystroke_s	s	n/a
59.345	0.1285	118690	keystroke_t	t	n/a
59.4575	0.072	118915	keystroke_o	o	n/a
59.6335	0.072	119267	keystroke_n	n	n/a
59.7215	0.096	119443	keystroke_e	e	n/a
59.9615	0.096	119923	keystroke_Key.enter	Key.enter	n/a
60.062	11.9255	120124	prompt	n/a	wishing everywhere characteristics trance\n
60.721	0.072	121442	keystroke_w	w	n/a
60.849	0.088	121698	keystroke_i	i	n/a
60.953	0.088	121906	keystroke_s	s	n/a
61.2975	0.0875	122595	keystroke_i	i	n/a
61.713	0.04	123426	keystroke_Key.backspace	Key.backspace	n/a
61.945	0.104	123890	keystroke_h	h	n/a
62.017	0.096	124034	keystroke_i	i	n/a
62.201	0.104	124402	keystroke_n	n	n/a
62.361	0.08	124722	keystroke_g	g	n/a
62.473	0.112	124946	keystroke_Key.space	Key.space	n/a
63.017	0.032	126034	keystroke_e	e	n/a
63.217	0.056	126434	keystroke_v	v	n/a
63.4255	0.112	126851	keystroke_e	e	n/a
63.4495	0.12	126899	keystroke_r	r	n/a
63.7295	0.096	127459	keystroke_y	y	n/a
64.362	0.1035	128724	keystroke_w	w	n/a
64.5455	0.096	129091	keystroke_h	h	n/a
64.6495	0.096	129299	keystroke_e	e	n/a
64.7465	0.127	129493	keystroke_r	r	n/a
64.8335	0.08	129667	keystroke_e	e	n/a
64.9455	0.096	129891	keystroke_Key.space	Key.space	n/a
65.6735	0.064	131347	keystroke_c	c	n/a
65.8735	0.096	131747	keystroke_h	h	n/a
65.9855	0.128	131971	keystroke_a	a	n/a
66.1055	0.12	132211	keystroke_r	r	n/a
66.3855	0.144	132771	keystroke_a	a	n/a
67.2415	0.088	134483	keystroke_s	s	n/a
67.7855	0.056	135571	keystroke_Key.backspace	Key.backspace	n/a
67.8735	0.112	135747	keystroke_c	c	n/a
68.1375	0.096	136275	keystroke_t	t	n/a
68.3535	0.112	136707	keystroke_e	e	n/a
68.4095	0.096	136819	keystroke_r	r	n/a
69.1135	0.088	138227	keystroke_i	i	n/a
69.2815	0.08	138563	keystroke_s	s	n/a
70.0975	0.08	140195	keystroke_t	t	n/a
70.2415	0.104	140483	keystroke_i	i	n/a
70.3375	0.136	140675	keystroke_c	c	n/a
70.4015	0.08	140803	keystroke_s	s	n/a
70.5215	0.12	141043	keystroke_Key.space	Key.space	n/a
70.7535	0.088	141507	keystroke_t	t	n/a
70.9135	0.104	141827	keystroke_r	r	n/a
71.1135	0.096	142227	keystroke_a	a	n/a
71.257	0.12	142514	keystroke_n	n	n/a
71.353	0.136	142706	keystroke_c	c	n/a
71.441	0.088	142882	keystroke_e	e	n/a
71.913	0.0725	143826	keystroke_Key.enter	Key.enter	n/a
71.9905	10.996	143981	prompt	n/a	spider heavily eligibility invention\n
72.6975	0.072	145395	keystroke_p	p	n/a
73.0335	0.056	146067	keystroke_Key.backspace	Key.backspace	n/a
73.1375	0.064	146275	keystroke_s	s	n/a
73.2495	0.064	146499	keystroke_p	p	n/a
73.4335	0.088	146867	keystroke_i	i	n/a
73.5135	0.056	147027	keystroke_d	d	n/a
73.6975	0.112	147395	keystroke_e	e	n/a
73.7615	0.128	147523	keystroke_r	r	n/a
73.9295	0.072	147859	keystroke_Key.space	Key.space	n/a
74.4335	0.08	148867	keystroke_h	h	n/a
74.5055	0.072	149011	keystroke_e	e	n/a
74.6815	0.088	149363	keystroke_a	a	n/a
75.0975	0.104	150195	keystroke_v	v	n/a
75.2255	0.08	150451	keystroke_i	i	n/a
75.4335	0.072	150867	keystroke_l	l	n/a
75.6655	0.064	151331	keystroke_y	y	n/a
75.8015	0.088	151603	keystroke_Key.space	Key.space	n/a
76.4735	0.08	152947	keystroke_e	e	n/a
76.8815	0.088	153763	keystroke_l	l	n/a
77.1535	0.072	154307	keystroke_i	i	n/a
77.4015	0.064	154803	keystroke_b	b	n/a
78.1455	0.056	156291	keystroke_Key.backspace	Key.backspace	n/a
78.3935	0.112	156787	keystroke_g	g	n/a
78.6575	0.088	157315	keystroke_i	i	n/a
79.3215	0.088	158643	keystroke_b	b	n/a
79.5295	0.088	159059	keystroke_i	i	n/a
79.7135	0.136	159427	keystroke_l	l	n/a
79.8095	0.104	159619	keystroke_i	i	n/a
79.9295	0.112	159859	keystroke_t	t	n/a
80.0885	0.088	160177	keystroke_y	y	n/a
80.2485	0.088	160497	keystroke_Key.space	Key.space	n/a
80.9525	0.073	161905	keystroke_i	i	n/a
81.1365	0.08	162273	keystroke_n	n	n/a
81.4175	0.104	162835	keystroke_v	v	n/a
81.6255	0.096	163251	keystroke_e	e	n/a
81.7775	0.056	163555	keystroke_n	n	n/a
81.8415	0.12	163683	keystroke_t	t	n/a
82.0095	0.1195	164019	keystroke_i	i	n/a
82.089	0.096	164178	keystroke_o	o	n/a
82.297	0.08	164594	keystroke_n	n	n/a
82.897	0.088	165794	keystroke_Key.enter	Key.enter	n/a
82.991	8.0755	165982	prompt	n/a	mount bonus liver financing\n
83.689	0.088	167378	keystroke_m	m	n/a
83.865	0.136	167730	keystroke_o	o	n/a
83.945	0.08	167890	keystroke_u	u	n/a
84.257	0.064	168514	keystroke_t	t	n/a
84.425	0.088	168850	keystroke_n	n	n/a
84.721	0.064	169442	keystroke_Key.backspace	Key.backspace	n/a
85.121	0.088	170242	keystroke_n	n	n/a
85.257	0.0965	170514	keystroke_t	t	n/a
85.585	0.056	171170	keystroke_Key.backspace	Key.backspace	n/a
85.753	0.064	171506	keystroke_Key.backspace	Key.backspace	n/a
85.937	0.056	171874	keystroke_Key.backspace	Key.backspace	n/a
86.1855	0.0635	172371	keystroke_n	n	n/a
86.257	0.064	172514	keystroke_t	t	n/a
86.3935	0.0715	172787	keystroke_Key.space	Key.space	n/a
87.041	0.072	174082	keystroke_b	b	n/a
87.233	0.072	174466	keystroke_o	o	n/a
87.385	0.08	174770	keystroke_n	n	n/a
87.593	0.088	175186	keystroke_u	u	n/a
87.649	0.088	175298	keystroke_s	s	n/a
87.849	0.08	175698	keystroke_Key.space	Key.space	n/a
88.2495	0.072	176499	keystroke_l	l	n/a
88.4415	0.088	176883	keystroke_i	i	n/a
88.5135	0.088	177027	keystroke_v	v	n/a
88.6815	0.168	177363	keystroke_e	e	n/a
88.7695	0.112	177539	keystroke_r	r	n/a
88.8575	0.08	177715	keystroke_Key.space	Key.space	n/a
89.401	0.064	178802	keystroke_f	f	n/a
89.753	0.08	179506	keystroke_i	i	n/a
89.953	0.072	179906	keystroke_n	n	n/a
90.0735	0.0795	180147	keystroke_a	a	n/a
90.2495	0.088	180499	keystroke_n	n	n/a
90.3855	0.104	180771	keystroke_c	c	n/a
90.5215	0.056	181043	keystroke_i	i	n/a
90.6655	0.096	181331	keystroke_n	n	n/a
90.8015	0.0955	181603	keystroke_g	g	n/a
90.969	0.096	181938	keystroke_Key.enter	Key.enter	n/a
91.0695	7.309	182139	prompt	n/a	ministry scout counseling salad\n
91.6735	0.096	183347	keystroke_m	m	n/a
91.8575	0.048	183715	keystroke_i	i	n/a
91.9935	0.0955	183987	keystroke_n	n	n/a
92.097	0.112	184194	keystroke_i	i	n/a
92.153	0.08	184306	keystroke_s	s	n/a
92.329	0.08	184658	keystroke_t	t	n/a
92.505	0.056	185010	keystroke_r	r	n/a
92.649	0.088	185298	keystroke_y	y	n/a
92.745	0.104	185490	keystroke_Key.space	Key.space	n/a
92.937	0.112	185874	keystroke_s	s	n/a
93.033	0.112	186066	keystroke_c	c	n/a
93.209	0.12	186418	keystroke_o	o	n/a
93.273	0.096	186546	keystroke_u	u	n/a
93.337	0.104	186674	keystroke_t	t	n/a
93.473	0.104	186946	keystroke_Key.space	Key.space	n/a
94.0895	0.08	188179	keystroke_s	s	n/a
94.5215	0.136	189043	keystroke_c	c	n/a
94.8575	0.048	189715	keystroke_Key.backspace	Key.backspace	n/a
95.0335	0.056	190067	keystroke_Key.backspace	Key.backspace	n/a
95.1055	0.128	190211	keystroke_c	c	n/a
95.2495	0.112	190499	keystroke_o	o	n/a
95.3135	0.072	190627	keystroke_u	u	n/a
95.513	0.096	191026	keystroke_n	n	n/a
96.049	0.048	192098	keystroke_s	s	n/a
96.201	0.072	192402	keystroke_e	e	n/a
96.345	0.096	192690	keystroke_l	l	n/a
96.561	0.048	193122	keystroke_i	i	n/a
96.705	0.096	193410	keystroke_n	n	n/a
96.817	0.104	193634	keystroke_g	g	n/a
96.945	0.104	193890	keystroke_Key.space	Key.space	n/a
97.537	0.056	195074	keystroke_s	s	n/a
97.689	0.112	195378	keystroke_a	a	n/a
97.833	0.088	195666	keystroke_l	l	n/a
97.969	0.072	195938	keystroke_a	a	n/a
98.057	0.112	196114	keystroke_d	d	n/a
98.289	0.088	196578	keystroke_Key.enter	Key.enter	n/a
98.3815	11.9405	196763	prompt	n/a	itself tremendous receives chair\n
99.289	0.096	198578	keystroke_i	i	n/a
99.393	0.088	198786	keystroke_t	t	n/a
99.585	0.12	199170	keystroke_f	f	n/a
99.769	0.096	199538	keystroke_l	l	n/a
100.217	0.056	200434	keystroke_Key.backspace	Key.backspace	n/a
100.393	0.056	200786	keystroke_Key.backspace	Key.backspace	n/a
100.481	0.072	200962	keystroke_s	s	n/a
100.641	0.072	201282	keystroke_e	e	n/a
100.745	0.088	201490	keystroke_l	l	n/a
100.865	0.08	201730	keystroke_f	f	n/a
100.985	0.096	201970	keystroke_Key.space	Key.space	n/a
101.753	0.088	203506	keystroke_t	t	n/a
101.937	0.104	203874	keystroke_r	r	n/a
101.985	0.128	203970	keystroke_e	e	n/a
102.121	0.08	204242	keystroke_m	m	n/a
102.233	0.088	204466	keystroke_e	e	n/a
102.585	0.152	205170	keystroke_b	b	n/a
103.2725	0.064	206545	keystroke_Key.backspace	Key.backspace	n/a
103.4965	0.08	206993	keystroke_n	n	n/a
103.6725	0.104	207345	keystroke_d	d	n/a
103.8085	0.144	207617	keystroke_o	o	n/a
103.8725	0.104	207745	keystroke_u	u	n/a
104.0085	0.08	208017	keystroke_s	s	n/a
104.3925	0.088	208785	keystroke_Key.space	Key.space	n/a
104.9045	0.072	209809	keystroke_t	t	n/a
105.1205	0.065	210241	keystroke_r	r	n/a
105.6485	0.064	211297	keystroke_Key.backspace	Key.backspace	n/a
105.8245	0.072	211649	keystroke_Key.backspace	Key.backspace	n/a
105.9205	0.096	211841	keystroke_r	r	n/a
105.9845	0.104	211969	keystroke_e	e	n/a
106.2335	0.088	212467	keystroke_c	c	n/a
106.5535	0.104	213107	keystroke_i	i	n/a
107.2015	0.064	214403	keystroke_Key.backspace	Key.backspace	n/a
107.6095	0.112	215219	keystroke_e	e	n/a
107.7695	0.104	215539	keystroke_i	i	n/a
107.9295	0.088	215859	keystroke_v	v	n/a
108.0815	0.071	216163	keystroke_e	e	n/a
108.2485	0.088	216497	keystroke_s	s	n/a
108.7285	0.12	217457	keystroke_Key.space	Key.space	n/a
109.0725	0.128	218145	keystroke_c	c	n/a
109.2245	0.088	218449	keystroke_h	h	n/a
109.6485	0.136	219297	keystroke_a	a	n/a
109.7605	0.088	219521	keystroke_i	i	n/a
109.8805	0.072	219761	keystroke_r	r	n/a
110.233	0.088	220466	keystroke_Key.enter	Key.enter	n/a
110.3265	6.6595	220653	prompt	n/a	minute hide spare officer\n
111.073	0.12	222146	keystroke_m	m	n/a
111.2325	0.08	222465	keystroke_i	i	n/a
111.4005	0.088	222801	keystroke_n	n	n/a
111.6085	0.104	223217	keystroke_u	u	n/a
111.7135	0.143	223427	keystroke_t	t	n/a
111.8165	0.08	223633	keystroke_e	e	n/a
111.8975	0.071	223795	keystroke_Key.space	Key.space	n/a
112.6485	0.072	225297	keystroke_h	h	n/a
112.8165	0.104	225633	keystroke_i	i	n/a
112.9285	0.072	225857	keystroke_d	d	n/a
113.1045	0.073	226209	keystroke_e	e	n/a
113.2325	0.072	226465	keystroke_Key.space	Key.space	n/a
113.8245	0.096	227649	keystroke_s	s	n/a
113.9285	0.072	227857	keystroke_p	p	n/a
114.0575	0.095	228115	keystroke_a	a	n/a
114.1125	0.168	228225	keystroke_r	r	n/a
114.2085	0.096	228417	keystroke_e	e	n/a
114.3685	0.104	228737	keystroke_Key.space	Key.space	n/a
114.9445	0.096	229889	keystroke_o	o	n/a
115.0485	0.08	230097	keystroke_f	f	n/a
115.2325	0.056	230465	keystroke_f	f	n/a
115.3205	0.0885	230641	keystroke_i	i	n/a
115.441	0.12	230882	keystroke_c	c	n/a
115.513	0.104	231026	keystroke_e	e	n/a
116.089	0.032	232178	keystroke_Key.backspace	Key.backspace	n/a
116.6325	0.168	233265	keystroke_e	e	n/a
116.7365	0.104	233473	keystroke_r	r	n/a
116.9045	0.08	233809	keystroke_Key.enter	Key.enter	n/a
116.989	12.981	233978	prompt	n/a	gradually given columns dutch\n
117.688	0.0885	235376	keystroke_g	g	n/a
117.88	0.0405	235760	keystroke_r	r	n/a
118.0325	0.08	236065	keystroke_a	a	n/a
118.1605	0.088	236321	keystroke_d	d	n/a
118.2805	0.088	236561	keystroke_u	u	n/a
118.4965	0.048	236993	keystroke_l	l	n/a
118.6645	0.064	237329	keystroke_l	l	n/a
118.6725	0.072	237345	keystroke_a	a	n/a
118.9045	0.04	237809	keystroke_l	l	n/a
119.1605	0.056	238321	keystroke_Key.backspace	Key.backspace	n/a
119.3365	0.064	238673	keystroke_Key.backspace	Key.backspace	n/a
119.5045	0.08	239009	keystroke_Key.backspace	Key.backspace	n/a
119.6885	0.056	239377	keystroke_Key.backspace	Key.backspace	n/a
119.7685	0.112	239537	keystroke_a	a	n/a
119.9365	0.08	239873	keystroke_l	l	n/a
120.177	0.08	240354	keystroke_y	y	n/a
120.681	0.056	241362	keystroke_Key.backspace	Key.backspace	n/a
120.897	0.064	241794	keystroke_l	l	n/a
121.081	0.08	242162	keystroke_y	y	n/a
121.2165	0.096	242433	keystroke_Key.space	Key.space	n/a
121.8165	0.096	243633	keystroke_g	g	n/a
122.0485	0.056	244097	keystroke_r	r	n/a
122.1525	0.096	244305	keystroke_i	i	n/a
122.2965	0.08	244593	keystroke_v	v	n/a
122.4645	0.056	244929	keystroke_e	e	n/a
122.6805	0.064	245361	keystroke_Key.backspace	Key.backspace	n/a
122.8565	0.064	245713	keystroke_Key.backspace	Key.backspace	n/a
123.0245	0.064	246049	keystroke_Key.backspace	Key.backspace	n/a
123.2005	0.056	246401	keystroke_Key.backspace	Key.backspace	n/a
123.448	0.056	246896	keystroke_i	i	n/a
123.632	0.096	247264	keystroke_v	v	n/a
123.808	0.08	247616	keystroke_e	e	n/a
123.944	0.088	247888	keystroke_n	n	n/a
124.112	0.0885	248224	keystroke_Key.space	Key.space	n/a
124.9365	0.072	249873	keystroke_a	a	n/a
125.513	0.064	251026	keystroke_Key.backspace	Key.backspace	n/a
125.601	0.087	251202	keystroke_c	c	n/a
125.753	0.056	251506	keystroke_o	o	n/a
125.921	0.088	251842	keystroke_l	l	n/a
126.113	0.063	252226	keystroke_i	i	n/a
126.497	0.08	252994	keystroke_n	n	n/a
126.801	0.056	253602	keystroke_Key.backspace	Key.backspace	n/a
126.969	0.08	253938	keystroke_Key.backspace	Key.backspace	n/a
127.401	0.072	254802	keystroke_u	u	n/a
127.601	0.08	255202	keystroke_m	m	n/a
127.801	0.072	255602	keystroke_n	n	n/a
127.9365	0.08	255873	keystroke_s	s	n/a
128.0645	0.088	256129	keystroke_Key.space	Key.space	n/a
128.713	0.096	257426	keystroke_d	d	n/a
128.953	0.096	257906	keystroke_u	u	n/a
129.177	0.056	258354	keystroke_t	t	n/a
129.368	0.097	258736	keystroke_c	c	n/a
129.504	0.089	259008	keystroke_h	h	n/a
129.888	0.081	259776	keystroke_Key.enter	Key.enter	n/a
129.973	7.149	259946	prompt	n/a	club conditions thick integer\n
130.608	0.112	261216	keystroke_c	c	n/a
130.752	0.072	261504	keystroke_l	l	n/a
130.936	0.08	261872	keystroke_u	u	n/a
131.136	0.081	262272	keystroke_b	b	n/a
131.321	0.08	262642	keystroke_Key.space	Key.space	n/a
131.545	0.096	263090	keystroke_c	c	n/a
131.705	0.064	263410	keystroke_o	o	n/a
131.873	0.072	263746	keystroke_n	n	n/a
132.0725	0.08	264145	keystroke_i	i	n/a
132.448	0.056	264896	keystroke_d	d	n/a
132.648	0.056	265296	keystroke_Key.backspace	Key.backspace	n/a
132.816	0.056	265632	keystroke_Key.backspace	Key.backspace	n/a
132.928	0.08	265856	keystroke_d	d	n/a
133.072	0.056	266144	keystroke_i	i	n/a
133.208	0.08	266416	keystroke_t	t	n/a
133.272	0.176	266544	keystroke_i	i	n/a
133.4	0.128	266800	keystroke_o	o	n/a
133.624	0.088	267248	keystroke_n	n	n/a
134.096	0.064	268192	keystroke_s	s	n/a
134.3125	0.088	268625	keystroke_Key.space	Key.space	n/a
134.4645	0.104	268929	keystroke_t	t	n/a
134.5605	0.12	269121	keystroke_h	h	n/a
134.6325	0.088	269265	keystroke_i	i	n/a
134.7285	0.112	269457	keystroke_c	c	n/a
134.8885	0.088	269777	keystroke_k	k	n/a
135.0805	0.088	270161	keystroke_Key.space	Key.space	n/a
135.9045	0.072	271809	keystroke_i	i	n/a
136.0725	0.104	272145	keystroke_n	n	n/a
136.1775	0.1105	272355	keystroke_t	t	n/a
136.377	0.08	272754	keystroke_e	e	n/a
136.593	0.088	273186	keystroke_g	g	n/a
136.769	0.12	273538	keystroke_e	e	n/a
136.84	0.089	273680	keystroke_r	r	n/a
137.04	0.08	274080	keystroke_Key.enter	Key.enter	n/a
137.126	7.692	274252	prompt	n/a	ceiling levels institution would\n
137.753	0.111	275506	keystroke_c	c	n/a
137.952	0.081	275904	keystroke_e	e	n/a
138.041	0.087	276082	keystroke_i	i	n/a
138.2405	0.152	276481	keystroke_l	l	n/a
138.3045	0.096	276609	keystroke_i	i	n/a
138.5045	0.08	277009	keystroke_n	n	n/a
138.6085	0.112	277217	keystroke_g	g	n/a
138.7445	0.072	277489	keystroke_Key.space	Key.space	n/a
139.1685	0.088	278337	keystroke_l	l	n/a
139.2805	0.104	278561	keystroke_e	e	n/a
139.4725	0.12	278945	keystroke_v	v	n/a
139.5845	0.104	279169	keystroke_e	e	n/a
139.6805	0.072	279361	keystroke_l	l	n/a
139.8245	0.072	279649	keystroke_s	s	n/a
139.9205	0.088	279841	keystroke_Key.space	Key.space	n/a
140.5445	0.072	281089	keystroke_i	i	n/a
140.7285	0.088	281457	keystroke_n	n	n/a
141.0485	0.064	282097	keystroke_s	s	n/a
141.256	0.104	282512	keystroke_t	t	n/a
141.472	0.08	282944	keystroke_i	i	n/a
142.144	0.088	284288	keystroke_t	t	n/a
142.368	0.096	284736	keystroke_u	u	n/a
142.832	0.112	285664	keystroke_t	t	n/a
143.032	0.136	286064	keystroke_i	i	n/a
143.136	0.08	286272	keystroke_o	o	n/a
143.352	0.096	286704	keystroke_n	n	n/a
143.528	0.104	287056	keystroke_Key.space	Key.space	n/a
143.864	0.096	287728	keystroke_w	w	n/a
144.016	0.096	288032	keystroke_o	o	n/a
144.056	0.096	288112	keystroke_u	u	n/a
144.2805	0.088	288561	keystroke_l	l	n/a
144.3045	0.088	288609	keystroke_d	d	n/a
144.7205	0.096	289441	keystroke_Key.enter	Key.enter	n/a
144.8265	9.183	289653	prompt	n/a	adolescent cool alliance fork\n
145.4805	0.088	290961	keystroke_a	a	n/a
145.8245	0.056	291649	keystroke_d	d	n/a
146.496	0.088	292992	keystroke_o	o	n/a
146.872	0.104	293744	keystroke_l	l	n/a
147.928	0.072	295856	keystroke_e	e	n/a
148.104	0.088	296208	keystroke_s	s	n/a
148.328	0.096	296656	keystroke_c	c	n/a
148.472	0.096	296944	keystroke_e	e	n/a
148.584	0.088	297168	keystroke_n	n	n/a
148.704	0.104	297408	keystroke_t	t	n/a
148.816	0.08	297632	keystroke_Key.space	Key.space	n/a
149.408	0.128	298816	keystroke_c	c	n/a
149.496	0.072	298992	keystroke_o	o	n/a
149.68	0.072	299360	keystroke_l	l	n/a
149.848	0.096	299696	keystroke_l	l	n/a
150.3125	0.056	300625	keystroke_Key.backspace	Key.backspace	n/a
150.4645	0.064	300929	keystroke_Key.backspace	Key.backspace	n/a
150.6725	0.064	301345	keystroke_o	o	n/a
150.8485	0.08	301697	keystroke_l	l	n/a
151.0165	0.088	302033	keystroke_Key.space	Key.space	n/a
151.432	0.104	302864	keystroke_a	a	n/a
151.5845	0.064	303169	keystroke_l	l	n/a
151.7605	0.0635	303521	keystroke_l	l	n/a
151.944	0.072	303888	keystroke_i	i	n/a
152.064	0.136	304128	keystroke_a	a	n/a
152.2085	0.0795	304417	keystroke_n	n	n/a
152.28	0.144	304560	keystroke_c	c	n/a
152.376	0.128	304752	keystroke_e	e	n/a
152.544	0.104	305088	keystroke_Key.space	Key.space	n/a
153.312	0.088	306624	keystroke_f	f	n/a
153.392	0.0885	306784	keystroke_o	o	n/a
153.5285	0.096	307057	keystroke_r	r	n/a
153.6255	0.087	307251	keystroke_k	k	n/a
153.9285	0.08	307857	keystroke_Key.enter	Key.enter	n/a
154.013	8.1245	308026	prompt	n/a	tested started populations breeds\n
154.7285	0.144	309457	keystroke_t	t	n/a
154.8725	0.104	309745	keystroke_e	e	n/a
155.0805	0.151	310161	keystroke_s	s	n/a
155.1765	0.144	310353	keystroke_t	t	n/a
155.2405	0.088	310481	keystroke_e	e	n/a
155.4165	0.0955	310833	keystroke_d	d	n/a
155.552	0.088	311104	keystroke_Key.space	Key.space	n/a
155.872	0.08	311744	keystroke_s	s	n/a
156.08	0.136	312160	keystroke_a	a	n/a
156.4875	0.073	312975	keystroke_Key.backspace	Key.backspace	n/a
156.5845	0.112	313169	keystroke_t	t	n/a
156.7765	0.128	313553	keystroke_a	a	n/a
156.8485	0.12	313697	keystroke_r	r	n/a
157.0645	0.112	314129	keystroke_t	t	n/a
157.1285	0.08	314257	keystroke_e	e	n/a
157.3045	0.096	314609	keystroke_d	d	n/a
157.4245	0.08	314849	keystroke_Key.space	Key.space	n/a
158.0725	0.096	316145	keystroke_p	p	n/a
158.2955	0.072	316591	keystroke_o	o	n/a
158.6395	0.104	317279	keystroke_p	p	n/a
158.8875	0.097	317775	keystroke_u	u	n/a
159.0955	0.08	318191	keystroke_l	l	n/a
159.3595	0.12	318719	keystroke_a	a	n/a
159.4475	0.12	318895	keystroke_t	t	n/a
159.6075	0.088	319215	keystroke_i	i	n/a
159.6715	0.088	319343	keystroke_o	o	n/a
159.8875	0.096	319775	keystroke_n	n	n/a
159.9995	0.081	319999	keystroke_s	s	n/a
160.3995	0.104	320799	keystroke_Key.space	Key.space	n/a
160.7755	0.1125	321551	keystroke_b	b	n/a
160.9995	0.12	321999	keystroke_r	r	n/a
161.3275	0.056	322655	keystroke_e	e	n/a
161.4875	0.065	322975	keystroke_e	e	n/a
161.6555	0.2	323311	keystroke_d	d	n/a
161.7515	0.12	323503	keystroke_s	s	n/a
162.0475	0.088	324095	keystroke_Key.enter	Key.enter	n/a
162.1425	6.811	324285	prompt	n/a	utils boot available reason\n
163.16	0.112	326320	keystroke_u	u	n/a
163.32	0.088	326640	keystroke_t	t	n/a
163.608	0.072	327216	keystroke_i	i	n/a
163.808	0.072	327616	keystroke_l	l	n/a
163.944	0.08	327888	keystroke_s	s	n/a
164.056	0.096	328112	keystroke_Key.space	Key.space	n/a
165.112	0.08	330224	keystroke_b	b	n/a
165.32	0.048	330640	keystroke_o	o	n/a
165.464	0.08	330928	keystroke_o	o	n/a
165.568	0.104	331136	keystroke_t	t	n/a
165.744	0.08	331488	keystroke_Key.space	Key.space	n/a
165.976	0.072	331952	keystroke_a	a	n/a
166.144	0.1355	332288	keystroke_v	v	n/a
166.2875	0.1205	332575	keystroke_a	a	n/a
166.4	0.08	332800	keystroke_i	i	n/a
166.592	0.088	333184	keystroke_l	l	n/a
166.728	0.112	333456	keystroke_a	a	n/a
166.848	0.032	333696	keystroke_b	b	n/a
167.016	0.048	334032	keystroke_l	l	n/a
167.144	0.112	334288	keystroke_e	e	n/a
167.328	0.064	334656	keystroke_Key.space	Key.space	n/a
167.936	0.152	335872	keystroke_r	r	n/a
168	0.056	336000	keystroke_e	e	n/a
168.144	0.16	336288	keystroke_a	a	n/a
168.232	0.1445	336464	keystroke_s	s	n/a
168.3605	0.064	336721	keystroke_o	o	n/a
168.5685	0.088	337137	keystroke_n	n	n/a
168.8725	0.08	337745	keystroke_Key.enter	Key.enter	n/a
168.9605	5.713	337921	prompt	n/a	tire burden acer assessed\n
169.6885	0.096	339377	keystroke_t	t	n/a
169.8565	0.08	339713	keystroke_i	i	n/a
169.9845	0.16	339969	keystroke_r	r	n/a
170.0565	0.112	340113	keystroke_e	e	n/a
170.1765	0.08	340353	keystroke_Key.space	Key.space	n/a
170.4395	0.08	340879	keystroke_b	b	n/a
170.6315	0.097	341263	keystroke_u	u	n/a
170.7205	0.071	341441	keystroke_r	r	n/a
170.8725	0.079	341745	keystroke_d	d	n/a
171.0325	0.087	342065	keystroke_e	e	n/a
171.1365	0.064	342273	keystroke_n	n	n/a
171.288	0.096	342576	keystroke_Key.space	Key.space	n/a
172.144	0.112	344288	keystroke_a	a	n/a
172.28	0.1035	344560	keystroke_c	c	n/a
172.4715	0.152	344943	keystroke_e	e	n/a
172.5355	0.136	345071	keystroke_r	r	n/a
172.6875	0.112	345375	keystroke_Key.space	Key.space	n/a
173.2405	0.103	346481	keystroke_a	a	n/a
173.4555	0.072	346911	keystroke_s	s	n/a
173.6475	0.056	347295	keystroke_s	s	n/a
173.7755	0.08	347551	keystroke_e	e	n/a
173.9435	0.072	347887	keystroke_s	s	n/a
174.1355	0.096	348271	keystroke_s	s	n/a
174.2875	0.064	348575	keystroke_e	e	n/a
174.4555	0.08	348911	keystroke_d	d	n/a
174.5995	0.072	349199	keystroke_Key.enter	Key.enter	n/a
174.6775	10.788	349355	prompt	n/a	vendor simulations mouse pickup\n
175.328	0.1045	350656	keystroke_v	v	n/a
175.7525	0.096	351505	keystroke_n	n	n/a
175.8805	0.088	351761	keystroke_e	e	n/a
176.1125	0.064	352225	keystroke_Key.backspace	Key.backspace	n/a
176.296	0.0635	352592	keystroke_Key.backspace	Key.backspace	n/a
176.4555	0.064	352911	keystroke_e	e	n/a
176.5995	0.088	353199	keystroke_n	n	n/a
176.6885	0.079	353377	keystroke_d	d	n/a
176.8075	0.088	353615	keystroke_o	o	n/a
176.9275	0.112	353855	keystroke_r	r	n/a
177.0315	0.096	354063	keystroke_Key.space	Key.space	n/a
177.3675	0.088	354735	keystroke_s	s	n/a
177.5275	0.08	355055	keystroke_i	i	n/a
177.7195	0.088	355439	keystroke_m	m	n/a
177.9515	0.08	355903	keystroke_u	u	n/a
178.1595	0.048	356319	keystroke_l	l	n/a
178.2795	0.1045	356559	keystroke_t	t	n/a
178.376	0.1125	356752	keystroke_i	i	n/a
178.448	0.0565	356896	keystroke_o	o	n/a
178.6475	0.088	357295	keystroke_n	n	n/a
178.7675	0.056	357535	keystroke_s	s	n/a
179.832	0.048	359664	keystroke_Key.backspace	Key.backspace	n/a
179.976	0.08	359952	keystroke_Key.backspace	Key.backspace	n/a
180.168	0.056	360336	keystroke_Key.backspace	Key.backspace	n/a
180.336	0.056	360672	keystroke_Key.backspace	Key.backspace	n/a
180.496	0.072	360992	keystroke_Key.backspace	Key.backspace	n/a
181.648	0.096	363296	keystroke_a	a	n/a
181.96	0.104	363920	keystroke_t	t	n/a
182.12	0.128	364240	keystroke_i	i	n/a
182.192	0.072	364384	keystroke_o	o	n/a
182.376	0.104	364752	keystroke_n	n	n/a
182.512	0.056	365024	keystroke_s	s	n/a
182.64	0.12	365280	keystroke_Key.space	Key.space	n/a
183.496	0.12	366992	keystroke_m	m	n/a
183.68	0.176	367360	keystroke_o	o	n/a
183.768	0.112	367536	keystroke_u	u	n/a
183.904	0.184	367808	keystroke_s	s	n/a
183.976	0.104	367952	keystroke_e	e	n/a
184.096	0.104	368192	keystroke_Key.space	Key.space	n/a
184.32	0.08	368640	keystroke_p	p	n/a
184.504	0.072	369008	keystroke_i	i	n/a
184.648	0.12	369296	keystroke_c	c	n/a
184.728	0.096	369456	keystroke_k	k	n/a
184.984	0.144	369968	keystroke_u	u	n/a
185.12	0.104	370240	keystroke_p	p	n/a
185.376	0.0875	370752	keystroke_Key.enter	Key.enter	n/a
185.468	6.5975	370936	prompt	n/a	most nightmare idle familiar\n
186.0635	0.152	372127	keystroke_m	m	n/a
186.1915	0.1125	372383	keystroke_o	o	n/a
186.352	0.0715	372704	keystroke_s	s	n/a
186.3995	0.112	372799	keystroke_t	t	n/a
186.4715	0.072	372943	keystroke_Key.space	Key.space	n/a
186.7835	0.128	373567	keystroke_n	n	n/a
186.9275	0.112	373855	keystroke_i	i	n/a
187.0475	0.08	374095	keystroke_g	g	n/a
187.1755	0.104	374351	keystroke_h	h	n/a
187.3115	0.088	374623	keystroke_t	t	n/a
187.7755	0.08	375551	keystroke_m	m	n/a
188.2955	0.088	376591	keystroke_a	a	n/a
188.3515	0.1525	376703	keystroke_r	r	n/a
188.424	0.096	376848	keystroke_e	e	n/a
188.536	0.104	377072	keystroke_Key.space	Key.space	n/a
189.08	0.096	378160	keystroke_i	i	n/a
189.2	0.072	378400	keystroke_d	d	n/a
189.384	0.04	378768	keystroke_e	e	n/a
189.488	0.088	378976	keystroke_l	l	n/a
189.904	0.056	379808	keystroke_Key.backspace	Key.backspace	n/a
190.04	0.056	380080	keystroke_Key.backspace	Key.backspace	n/a
190.256	0.08	380512	keystroke_l	l	n/a
190.36	0.0955	380720	keystroke_e	e	n/a
190.4875	0.096	380975	keystroke_Key.space	Key.space	n/a
190.6555	0.096	381311	keystroke_f	f	n/a
190.8075	0.12	381615	keystroke_a	a	n/a
190.9195	0.136	381839	keystroke_m	m	n/a
191.0635	0.064	382127	keystroke_i	i	n/a
191.256	0.16	382512	keystroke_l	l	n/a
191.408	0.12	382816	keystroke_i	i	n/a
191.608	0.136	383216	keystroke_a	a	n/a
191.688	0.12	383376	keystroke_r	r	n/a
191.976	0.088	383952	keystroke_Key.enter	Key.enter	n/a
192.068	7.493	384136	prompt	n/a	poems drawing notification patches\n
192.9115	0.08	385823	keystroke_p	p	n/a
193.2875	0.104	386575	keystroke_o	o	n/a
193.4715	0.08	386943	keystroke_e	e	n/a
193.5915	0.096	387183	keystroke_m	m	n/a
193.7045	0.071	387409	keystroke_s	s	n/a
193.8475	0.112	387695	keystroke_Key.space	Key.space	n/a
194.608	0.12	389216	keystroke_d	d	n/a
194.9355	0.112	389871	keystroke_r	r	n/a
195.1195	0.104	390239	keystroke_a	a	n/a
195.2955	0.08	390591	keystroke_w	w	n/a
195.4075	0.08	390815	keystroke_i	i	n/a
195.5595	0.112	391119	keystroke_n	n	n/a
195.6795	0.12	391359	keystroke_g	g	n/a
195.8075	0.096	391615	keystroke_Key.space	Key.space	n/a
196.1435	0.096	392287	keystroke_n	n	n/a
196.3035	0.12	392607	keystroke_o	o	n/a
196.4395	0.096	392879	keystroke_t	t	n/a
196.5365	0.087	393073	keystroke_i	i	n/a
196.6555	0.08	393311	keystroke_f	f	n/a
196.7515	0.048	393503	keystroke_i	i	n/a
196.8715	0.088	393743	keystroke_c	c	n/a
197.4395	0.096	394879	keystroke_a	a	n/a
197.6155	0.112	395231	keystroke_t	t	n/a
197.7035	0.136	395407	keystroke_i	i	n/a
197.7835	0.088	395567	keystroke_o	o	n/a
197.9915	0.096	395983	keystroke_n	n	n/a
198.2955	0.104	396591	keystroke_Key.space	Key.space	n/a
198.464	0.12	396928	keystroke_p	p	n/a
198.64	0.112	397280	keystroke_a	a	n/a
198.736	0.096	397472	keystroke_t	t	n/a
198.936	0.128	397872	keystroke_c	c	n/a
199.072	0.104	398144	keystroke_h	h	n/a
199.16	0.055	398320	keystroke_e	e	n/a
199.319	0.065	398638	keystroke_s	s	n/a
199.48	0.079	398960	keystroke_Key.enter	Key.enter	n/a
199.564	7.773	399128	prompt	n/a	informative constraint dresses none\n
200.168	0.08	400336	keystroke_i	i	n/a
200.336	0.0955	400672	keystroke_n	n	n/a
200.4475	0.136	400895	keystroke_f	f	n/a
200.5355	0.088	401071	keystroke_o	o	n/a
200.7595	0.096	401519	keystroke_r	r	n/a
201.0875	0.12	402175	keystroke_m	m	n/a
201.328	0.08	402656	keystroke_a	a	n/a
201.488	0.056	402976	keystroke_t	t	n/a
201.608	0.08	403216	keystroke_i	i	n/a
201.784	0.08	403568	keystroke_v	v	n/a
202.016	0.08	404032	keystroke_Key.space	Key.space	n/a
202.384	0.079	404768	keystroke_Key.backspace	Key.backspace	n/a
202.496	0.08	404992	keystroke_e	e	n/a
202.599	0.064	405198	keystroke_Key.space	Key.space	n/a
203.08	0.096	406160	keystroke_c	c	n/a
203.216	0.096	406432	keystroke_o	o	n/a
203.4	0.103	406800	keystroke_n	n	n/a
203.447	0.064	406894	keystroke_s	s	n/a
203.624	0.088	407248	keystroke_t	t	n/a
203.776	0.096	407552	keystroke_r	r	n/a
203.952	0.119	407904	keystroke_a	a	n/a
204.064	0.047	408128	keystroke_i	i	n/a
204.224	0.1195	408448	keystroke_n	n	n/a
204.3915	0.1205	408783	keystroke_t	t	n/a
204.544	0.08	409088	keystroke_Key.space	Key.space	n/a
205.184	0.096	410368	keystroke_d	d	n/a
205.392	0.128	410784	keystroke_r	r	n/a
205.648	0.12	411296	keystroke_e	e	n/a
205.896	0.031	411792	keystroke_s	s	n/a
206.072	0.079	412144	keystroke_s	s	n/a
206.2555	0.08	412511	keystroke_e	e	n/a
206.4315	0.0795	412863	keystroke_s	s	n/a
206.567	0.072	413134	keystroke_Key.space	Key.space	n/a
206.72	0.127	413440	keystroke_n	n	n/a
206.831	0.089	413662	keystroke_o	o	n/a
206.983	0.105	413966	keystroke_n	n	n/a
207.103	0.104	414206	keystroke_e	e	n/a
207.255	0.08	414510	keystroke_Key.enter	Key.enter	n/a
207.341	11.124	414682	prompt	n/a	organization listen pennsylvania excel\n
207.92	0.096	415840	keystroke_o	o	n/a
208.056	0.08	416112	keystroke_r	r	n/a
208.232	0.08	416464	keystroke_g	g	n/a
208.32	0.12	416640	keystroke_a	a	n/a
208.456	0.056	416912	keystroke_n	n	n/a
208.536	0.112	417072	keystroke_i	i	n/a
208.648	0.064	417296	keystroke_z	z	n/a
208.832	0.128	417664	keystroke_a	a	n/a
208.928	0.12	417856	keystroke_t	t	n/a
208.96	0.12	417920	keystroke_i	i	n/a
209.04	0.088	418080	keystroke_o	o	n/a
209.256	0.088	418512	keystroke_n	n	n/a
209.3995	0.104	418799	keystroke_Key.space	Key.space	n/a
209.6795	0.096	419359	keystroke_l	l	n/a
210.0235	0.08	420047	keystroke_s	s	n/a
210.1115	0.096	420223	keystroke_i	i	n/a
210.5595	0.056	421119	keystroke_Key.backspace	Key.backspace	n/a
210.7035	0.056	421407	keystroke_Key.backspace	Key.backspace	n/a
210.9515	0.064	421903	keystroke_i	i	n/a
211.0395	0.072	422079	keystroke_s	s	n/a
211.215	0.128	422430	keystroke_t	t	n/a
211.327	0.1045	422654	keystroke_e	e	n/a
211.4635	0.08	422927	keystroke_n	n	n/a
211.6155	0.104	423231	keystroke_Key.space	Key.space	n/a
212.0555	0.104	424111	keystroke_p	p	n/a
212.2235	0.072	424447	keystroke_e	e	n/a
212.3995	0.0645	424799	keystroke_n	n	n/a
212.576	0.064	425152	keystroke_n	n	n/a
212.688	0.096	425376	keystroke_s	s	n/a
212.848	0.096	425696	keystroke_y	y	n/a
213.096	0.088	426192	keystroke_l	l	n/a
213.479	0.089	426958	keystroke_v	v	n/a
213.648	0.104	427296	keystroke_a	a	n/a
214.104	0.087	428208	keystroke_n	n	n/a
214.296	0.096	428592	keystroke_i	i	n/a
214.44	0.087	428880	keystroke_a	a	n/a
214.567	0.072	429134	keystroke_Key.space	Key.space	n/a
215.119	0.12	430238	keystroke_e	e	n/a
215.344	0.1515	430688	keystroke_c	c	n/a
215.4635	0.112	430927	keystroke_e	e	n/a
215.5595	0.096	431119	keystroke_l	l	n/a
215.8315	0.096	431663	keystroke_t	t	n/a
216.1995	0.072	432399	keystroke_Key.backspace	Key.backspace	n/a
216.4075	0.064	432815	keystroke_Key.backspace	Key.backspace	n/a
216.5995	0.096	433199	keystroke_Key.backspace	Key.backspace	n/a
216.7835	0.08	433567	keystroke_Key.backspace	Key.backspace	n/a
217.2075	0.072	434415	keystroke_x	x	n/a
217.8795	0.096	435759	keystroke_c	c	n/a
218.0395	0.088	436079	keystroke_e	e	n/a
218.1195	0.096	436239	keystroke_l	l	n/a
218.3755	0.088	436751	keystroke_Key.enter	Key.enter	n/a
218.468	4.821	436936	prompt	n/a	does warnings manner triangle\n
219.0795	0.112	438159	keystroke_d	d	n/a
219.1995	0.104	438399	keystroke_o	o	n/a
219.2715	0.088	438543	keystroke_e	e	n/a
219.4475	0.096	438895	keystroke_s	s	n/a
219.5275	0.136	439055	keystroke_Key.space	Key.space	n/a
219.6715	0.088	439343	keystroke_w	w	n/a
219.8715	0.136	439743	keystroke_a	a	n/a
219.9595	0.096	439919	keystroke_r	r	n/a
220.0875	0.08	440175	keystroke_n	n	n/a
220.2395	0.096	440479	keystroke_i	i	n/a
220.4315	0.1205	440863	keystroke_n	n	n/a
220.568	0.128	441136	keystroke_g	g	n/a
220.672	0.088	441344	keystroke_s	s	n/a
220.808	0.096	441616	keystroke_Key.space	Key.space	n/a
221.224	0.111	442448	keystroke_m	m	n/a
221.408	0.103	442816	keystroke_a	a	n/a
221.592	0.063	443184	keystroke_n	n	n/a
221.752	0.087	443504	keystroke_n	n	n/a
221.871	0.136	443742	keystroke_e	e	n/a
221.927	0.104	443854	keystroke_r	r	n/a
222.032	0.103	444064	keystroke_Key.space	Key.space	n/a
222.151	0.081	444302	keystroke_t	t	n/a
222.303	0.096	444606	keystroke_r	r	n/a
222.447	0.0725	444894	keystroke_i	i	n/a
222.5275	0.112	445055	keystroke_a	a	n/a
222.6635	0.08	445327	keystroke_b	b	n/a
222.8715	0.08	445743	keystroke_l	l	n/a
222.9675	0.104	445935	keystroke_e	e	n/a
223.2235	0.064	446447	keystroke_Key.enter	Key.enter	n/a
223.2925	7.484	446585	prompt	n/a	pdas platforms flood to've\n
224.1995	0.08	448399	keystroke_p	p	n/a
224.5035	0.0955	449007	keystroke_d	d	n/a
224.703	0.192	449406	keystroke_a	a	n/a
224.775	0.152	449550	keystroke_s	s	n/a
224.983	0.104	449966	keystroke_Key.space	Key.space	n/a
225.543	0.057	451086	keystroke_p	p	n/a
225.743	0.072	451486	keystroke_l	l	n/a
225.783	0.088	451566	keystroke_a	a	n/a
226.023	0.064	452046	keystroke_t	t	n/a
226.464	0.119	452928	keystroke_f	f	n/a
226.575	0.088	453150	keystroke_o	o	n/a
226.791	0.08	453582	keystroke_r	r	n/a
227.007	0.128	454014	keystroke_m	m	n/a
227.143	0.064	454286	keystroke_s	s	n/a
227.343	0.072	454686	keystroke_Key.space	Key.space	n/a
227.879	0.08	455758	keystroke_l	l	n/a
228.359	0.064	456718	keystroke_Key.backspace	Key.backspace	n/a
228.455	0.112	456910	keystroke_f	f	n/a
228.599	0.064	457198	keystroke_l	l	n/a
228.767	0.064	457534	keystroke_o	o	n/a
228.919	0.072	457838	keystroke_o	o	n/a
229.039	0.064	458078	keystroke_d	d	n/a
229.279	0.112	458558	keystroke_Key.space	Key.space	n/a
229.679	0.088	459358	keystroke_t	t	n/a
229.743	0.072	459486	keystroke_o	o	n/a
229.927	0.104	459854	keystroke_'	'	n/a
230.079	0.104	460158	keystroke_v	v	n/a
230.415	0.096	460830	keystroke_e	e	n/a
230.6875	0.088	461375	keystroke_Key.enter	Key.enter	n/a
230.781	9.5075	461562	prompt	n/a	debian fifteen pacific guatemala\n
231.751	0.088	463502	keystroke_d	d	n/a
231.927	0.104	463854	keystroke_e	e	n/a
232.055	0.072	464110	keystroke_b	b	n/a
232.231	0.072	464462	keystroke_i	i	n/a
232.383	0.08	464766	keystroke_a	a	n/a
232.479	0.088	464958	keystroke_n	n	n/a
232.623	0.096	465246	keystroke_Key.space	Key.space	n/a
233.087	0.096	466174	keystroke_f	f	n/a
233.199	0.08	466398	keystroke_i	i	n/a
233.319	0.072	466638	keystroke_f	f	n/a
233.503	0.121	467006	keystroke_t	t	n/a
233.615	0.104	467230	keystroke_e	e	n/a
233.888	0.095	467776	keystroke_e	e	n/a
234.039	0.12	468078	keystroke_n	n	n/a
234.391	0.12	468782	keystroke_Key.space	Key.space	n/a
234.6875	0.088	469375	keystroke_p	p	n/a
235.0155	0.112	470031	keystroke_c	c	n/a
235.2155	0.1035	470431	keystroke_a	a	n/a
235.6475	0.055	471295	keystroke_Key.backspace	Key.backspace	n/a
235.7915	0.055	471583	keystroke_Key.backspace	Key.backspace	n/a
235.8475	0.143	471695	keystroke_a	a	n/a
235.8945	0.128	471789	keystroke_c	c	n/a
236.0625	0.065	472125	keystroke_i	i	n/a
236.1755	0.088	472351	keystroke_c	c	n/a
236.591	0.064	473182	keystroke_Key.backspace	Key.backspace	n/a
236.72	0.087	473440	keystroke_f	f	n/a
236.847	0.096	473694	keystroke_i	i	n/a
236.951	0.088	473902	keystroke_c	c	n/a
237.135	0.088	474270	keystroke_Key.space	Key.space	n/a
237.983	0.12	475966	keystroke_g	g	n/a
238.175	0.104	476350	keystroke_u	u	n/a
238.415	0.12	476830	keystroke_a	a	n/a
238.655	0.096	477310	keystroke_t	t	n/a
239.143	0.088	478286	keystroke_e	e	n/a
239.367	0.1035	478734	keystroke_m	m	n/a
239.5505	0.096	479101	keystroke_a	a	n/a
239.7185	0.096	479437	keystroke_l	l	n/a
239.8545	0.105	479709	keystroke_a	a	n/a
240.2065	0.08	480413	keystroke_Key.enter	Key.enter	n/a
240.291	5.9095	480582	prompt	n/a	unix hunger cold proceeding\n
240.927	0.072	481854	keystroke_u	u	n/a
241.127	0.056	482254	keystroke_n	n	n/a
241.2555	0.088	482511	keystroke_i	i	n/a
241.3515	0.0795	482703	keystroke_x	x	n/a
241.487	0.088	482974	keystroke_Key.space	Key.space	n/a
241.895	0.048	483790	keystroke_h	h	n/a
242.095	0.088	484190	keystroke_u	u	n/a
242.303	0.088	484606	keystroke_n	n	n/a
242.415	0.088	484830	keystroke_g	g	n/a
242.6145	0.168	485229	keystroke_e	e	n/a
242.6705	0.136	485341	keystroke_r	r	n/a
242.7665	0.112	485533	keystroke_Key.space	Key.space	n/a
243.0875	0.127	486175	keystroke_c	c	n/a
243.2305	0.072	486461	keystroke_o	o	n/a
243.4315	0.088	486863	keystroke_l	l	n/a
243.5355	0.096	487071	keystroke_d	d	n/a
243.6635	0.088	487327	keystroke_Key.space	Key.space	n/a
244.1595	0.064	488319	keystroke_p	p	n/a
244.2875	0.112	488575	keystroke_r	r	n/a
244.4155	0.104	488831	keystroke_o	o	n/a
244.615	0.096	489230	keystroke_c	c	n/a
244.903	0.072	489806	keystroke_e	e	n/a
245.071	0.072	490142	keystroke_e	e	n/a
245.271	0.088	490542	keystroke_d	d	n/a
245.4475	0.072	490895	keystroke_i	i	n/a
245.6315	0.12	491263	keystroke_n	n	n/a
245.7595	0.12	491519	keystroke_g	g	n/a
246.1275	0.072	492255	keystroke_Key.enter	Key.enter	n/a
246.204	6.7725	492408	prompt	n/a	resistance quality ignored zinc\n
246.7835	0.144	493567	keystroke_r	r	n/a
246.8625	0.105	493725	keystroke_e	e	n/a
247.0715	0.12	494143	keystroke_s	s	n/a
247.2875	0.112	494575	keystroke_i	i	n/a
247.4705	0.072	494941	keystroke_s	s	n/a
247.6315	0.095	495263	keystroke_t	t	n/a
247.8155	0.112	495631	keystroke_a	a	n/a
247.9585	0.088	495917	keystroke_n	n	n/a
248.0395	0.168	496079	keystroke_c	c	n/a
248.1195	0.119	496239	keystroke_e	e	n/a
248.2315	0.111	496463	keystroke_Key.space	Key.space	n/a
248.4225	0.1045	496845	keystroke_q	q	n/a
248.575	0.0965	497150	keystroke_u	u	n/a
248.7115	0.136	497423	keystroke_a	a	n/a
248.8315	0.08	497663	keystroke_l	l	n/a
248.9995	0.12	497999	keystroke_i	i	n/a
249.1355	0.104	498271	keystroke_t	t	n/a
249.2555	0.104	498511	keystroke_y	y	n/a
249.3915	0.08	498783	keystroke_Key.space	Key.space	n/a
249.6075	0.088	499215	keystroke_i	i	n/a
249.7835	0.112	499567	keystroke_g	g	n/a
250.1195	0.104	500239	keystroke_n	n	n/a
250.2315	0.12	500463	keystroke_o	o	n/a
250.3275	0.136	500655	keystroke_r	r	n/a
250.3915	0.088	500783	keystroke_e	e	n/a
250.5675	0.1115	501135	keystroke_d	d	n/a
250.6865	0.112	501373	keystroke_Key.space	Key.space	n/a
251.2155	0.096	502431	keystroke_z	z	n/a
251.3915	0.104	502783	keystroke_n	n	n/a
252.0715	0.048	504143	keystroke_Key.backspace	Key.backspace	n/a
252.2955	0.04	504591	keystroke_i	i	n/a
252.4235	0.096	504847	keystroke_n	n	n/a
252.5355	0.08	505071	keystroke_c	c	n/a
252.9035	0.072	505807	keystroke_Key.enter	Key.enter	n/a
252.9805	5.204	505961	prompt	n/a	streets quick rings who's\n
253.6795	0.088	507359	keystroke_s	s	n/a
253.8555	0.088	507711	keystroke_t	t	n/a
254.0315	0.12	508063	keystroke_r	r	n/a
254.0875	0.096	508175	keystroke_e	e	n/a
254.2715	0.096	508543	keystroke_e	e	n/a
254.5035	0.1755	509007	keystroke_t	t	n/a
254.623	0.104	509246	keystroke_s	s	n/a
254.767	0.096	509534	keystroke_Key.space	Key.space	n/a
255.215	0.104	510430	keystroke_q	q	n/a
255.367	0.112	510734	keystroke_u	u	n/a
255.439	0.088	510878	keystroke_i	i	n/a
255.559	0.128	511118	keystroke_c	c	n/a
255.695	0.088	511390	keystroke_k	k	n/a
255.847	0.096	511694	keystroke_Key.space	Key.space	n/a
256.3595	0.111	512719	keystroke_r	r	n/a
256.4945	0.072	512989	keystroke_i	i	n/a
256.6635	0.096	513327	keystroke_n	n	n/a
256.6795	0.176	513359	keystroke_g	g	n/a
256.7835	0.112	513567	keystroke_s	s	n/a
256.9435	0.08	513887	keystroke_Key.space	Key.space	n/a
257.3115	0.072	514623	keystroke_w	w	n/a
257.4075	0.12	514815	keystroke_h	h	n/a
257.4715	0.088	514943	keystroke_o	o	n/a
257.6795	0.104	515359	keystroke_'	'	n/a
257.8635	0.088	515727	keystroke_s	s	n/a
258.0955	0.088	516191	keystroke_Key.enter	Key.enter	n/a
258.187	6.7575	516374	prompt	n/a	orlando cases oxford total\n
258.8075	0.055	517615	keystroke_o	o	n/a
258.9505	0.096	517901	keystroke_r	r	n/a
259.0945	0.088	518189	keystroke_l	l	n/a
259.2145	0.113	518429	keystroke_a	a	n/a
259.4235	0.031	518847	keystroke_n	n	n/a
259.6555	0.112	519311	keystroke_d	d	n/a
259.8145	0.089	519629	keystroke_o	o	n/a
260.0145	0.08	520029	keystroke_Key.space	Key.space	n/a
260.3265	0.144	520653	keystroke_c	c	n/a
260.5105	0.12	521021	keystroke_a	a	n/a
260.6065	0.152	521213	keystroke_s	s	n/a
260.7665	0.12	521533	keystroke_e	e	n/a
260.9905	0.064	521981	keystroke_s	s	n/a
261.0945	0.104	522189	keystroke_Key.space	Key.space	n/a
261.695	0.104	523390	keystroke_o	o	n/a
262.183	0.112	524366	keystroke_x	x	n/a
262.479	0.136	524958	keystroke_f	f	n/a
262.623	0.128	525246	keystroke_o	o	n/a
262.799	0.104	525598	keystroke_r	r	n/a
262.991	0.08	525982	keystroke_d	d	n/a
263.103	0.12	526206	keystroke_Key.space	Key.space	n/a
263.575	0.112	527150	keystroke_d	d	n/a
263.975	0.064	527950	keystroke_Key.backspace	Key.backspace	n/a
264.055	0.104	528110	keystroke_t	t	n/a
264.207	0.096	528414	keystroke_o	o	n/a
264.311	0.112	528622	keystroke_t	t	n/a
264.463	0.104	528926	keystroke_a	a	n/a
264.568	0.0875	529136	keystroke_l	l	n/a
264.8795	0.064	529759	keystroke_Key.enter	Key.enter	n/a
264.949	5.7075	529898	prompt	n/a	there unlimited equation arrives\n
265.535	0.104	531070	keystroke_t	t	n/a
265.671	0.112	531342	keystroke_h	h	n/a
265.743	0.112	531486	keystroke_e	e	n/a
265.839	0.168	531678	keystroke_r	r	n/a
265.935	0.112	531870	keystroke_e	e	n/a
266.055	0.096	532110	keystroke_Key.space	Key.space	n/a
266.207	0.0805	532414	keystroke_u	u	n/a
266.3985	0.073	532797	keystroke_n	n	n/a
266.767	0.088	533534	keystroke_l	l	n/a
266.943	0.072	533886	keystroke_i	i	n/a
267.087	0.104	534174	keystroke_m	m	n/a
267.167	0.112	534334	keystroke_i	i	n/a
267.287	0.12	534574	keystroke_t	t	n/a
267.343	0.104	534686	keystroke_e	e	n/a
267.535	0.08	535070	keystroke_d	d	n/a
267.671	0.08	535342	keystroke_Key.space	Key.space	n/a
268.015	0.056	536030	keystroke_e	e	n/a
268.471	0.104	536942	keystroke_q	q	n/a
268.639	0.0885	537278	keystroke_u	u	n/a
268.7675	0.104	537535	keystroke_a	a	n/a
268.9595	0.104	537919	keystroke_t	t	n/a
269.0475	0.12	538095	keystroke_i	i	n/a
269.1435	0.08	538287	keystroke_o	o	n/a
269.3835	0.088	538767	keystroke_n	n	n/a
269.5035	0.104	539007	keystroke_Key.space	Key.space	n/a
269.5675	0.088	539135	keystroke_a	a	n/a
269.6795	0.088	539359	keystroke_r	r	n/a
269.8715	0.096	539743	keystroke_r	r	n/a
270.0235	0.088	540047	keystroke_i	i	n/a
270.1275	0.112	540255	keystroke_v	v	n/a
270.2075	0.104	540415	keystroke_e	e	n/a
270.4235	0.104	540847	keystroke_s	s	n/a
270.5835	0.072	541167	keystroke_Key.enter	Key.enter	n/a
270.663	9.609	541326	prompt	n/a	implications bookmark chorus wicked\n
271.4385	0.073	542877	keystroke_i	i	n/a
271.5985	0.152	543197	keystroke_m	m	n/a
271.7105	0.08	543421	keystroke_p	p	n/a
271.8955	0.063	543791	keystroke_l	l	n/a
272.0625	0.08	544125	keystroke_i	i	n/a
272.1345	0.097	544269	keystroke_c	c	n/a
272.3185	0.168	544637	keystroke_a	a	n/a
272.4545	0.144	544909	keystroke_t	t	n/a
272.6065	0.144	545213	keystroke_i	i	n/a
272.6945	0.096	545389	keystroke_o	o	n/a
272.8945	0.096	545789	keystroke_n	n	n/a
272.9745	0.072	545949	keystroke_s	s	n/a
273.1585	0.08	546317	keystroke_Key.space	Key.space	n/a
273.559	0.064	547118	keystroke_b	b	n/a
273.759	0.064	547518	keystroke_o	o	n/a
273.927	0.056	547854	keystroke_o	o	n/a
274.127	0.056	548254	keystroke_k	k	n/a
274.327	0.1125	548654	keystroke_m	m	n/a
274.4865	0.104	548973	keystroke_r	r	n/a
274.6385	0.1125	549277	keystroke_a	a	n/a
275.167	0.064	550334	keystroke_Key.backspace	Key.backspace	n/a
275.335	0.056	550670	keystroke_Key.backspace	Key.backspace	n/a
275.4305	0.112	550861	keystroke_a	a	n/a
275.4945	0.096	550989	keystroke_r	r	n/a
275.5985	0.073	551197	keystroke_k	k	n/a
275.7825	0.096	551565	keystroke_Key.space	Key.space	n/a
276.439	0.112	552878	keystroke_c	c	n/a
276.599	0.08	553198	keystroke_h	h	n/a
276.719	0.136	553438	keystroke_r	r	n/a
276.847	0.112	553694	keystroke_o	o	n/a
277.551	0.072	555102	keystroke_Key.backspace	Key.backspace	n/a
277.735	0.064	555470	keystroke_Key.backspace	Key.backspace	n/a
277.959	0.088	555918	keystroke_o	o	n/a
278.159	0.064	556318	keystroke_r	r	n/a
278.271	0.112	556542	keystroke_u	u	n/a
278.423	0.08	556846	keystroke_s	s	n/a
278.543	0.096	557086	keystroke_Key.space	Key.space	n/a
279.0795	0.088	558159	keystroke_w	w	n/a
279.4235	0.096	558847	keystroke_i	i	n/a
279.6155	0.112	559231	keystroke_c	c	n/a
279.7425	0.073	559485	keystroke_k	k	n/a
279.8315	0.064	559663	keystroke_e	e	n/a
280.0235	0.08	560047	keystroke_d	d	n/a
280.1835	0.088	560367	keystroke_Key.enter	Key.enter	n/a
280.2755	9.6205	560551	prompt	n/a	nasty various progressive avatar\n
281.047	0.104	562094	keystroke_b	b	n/a
281.207	0.152	562414	keystroke_a	a	n/a
281.263	0.112	562526	keystroke_s	s	n/a
281.663	0.048	563326	keystroke_Key.backspace	Key.backspace	n/a
281.815	0.064	563630	keystroke_Key.backspace	Key.backspace	n/a
281.991	0.0715	563982	keystroke_Key.backspace	Key.backspace	n/a
282.2465	0.088	564493	keystroke_n	n	n/a
282.4065	0.136	564813	keystroke_a	a	n/a
282.4465	0.104	564893	keystroke_s	s	n/a
282.6305	0.1045	565261	keystroke_t	t	n/a
282.751	0.096	565502	keystroke_y	y	n/a
282.935	0.096	565870	keystroke_Key.space	Key.space	n/a
283.567	0.112	567134	keystroke_v	v	n/a
283.751	0.128	567502	keystroke_a	a	n/a
283.927	0.112	567854	keystroke_r	r	n/a
284.079	0.08	568158	keystroke_i	i	n/a
284.263	0.112	568526	keystroke_o	o	n/a
284.319	0.12	568638	keystroke_u	u	n/a
284.399	0.104	568798	keystroke_s	s	n/a
284.543	0.112	569086	keystroke_Key.space	Key.space	n/a
285.023	0.08	570046	keystroke_p	p	n/a
285.199	0.096	570398	keystroke_r	r	n/a
285.327	0.096	570654	keystroke_o	o	n/a
285.543	0.104	571086	keystroke_g	g	n/a
285.759	0.072	571518	keystroke_e	e	n/a
285.951	0.056	571902	keystroke_s	s	n/a
286.119	0.08	572238	keystroke_s	s	n/a
286.2705	0.104	572541	keystroke_i	i	n/a
286.3585	0.112	572717	keystroke_v	v	n/a
286.4715	0.135	572943	keystroke_e	e	n/a
286.6145	0.08	573229	keystroke_Key.space	Key.space	n/a
286.855	0.104	573710	keystroke_a	a	n/a
287.039	0.12	574078	keystroke_v	v	n/a
288.559	0.08	577118	keystroke_a	a	n/a
288.815	0.112	577630	keystroke_t	t	n/a
288.959	0.096	577918	keystroke_o	o	n/a
289.359	0.064	578718	keystroke_Key.backspace	Key.backspace	n/a
289.599	0.12	579198	keystroke_a	a	n/a
289.679	0.128	579358	keystroke_r	r	n/a
289.831	0.064	579662	keystroke_Key.enter	Key.enter	n/a
289.8995	7.3965	579799	prompt	n/a	dealer supports offensive delta\n
290.479	0.064	580958	keystroke_d	d	n/a
290.647	0.088	581294	keystroke_e	e	n/a
290.8305	0.096	581661	keystroke_l	l	n/a
290.9665	0.104	581933	keystroke_a	a	n/a
291.1105	0.144	582221	keystroke_e	e	n/a
291.4065	0.056	582813	keystroke_Key.backspace	Key.backspace	n/a
291.5585	0.064	583117	keystroke_Key.backspace	Key.backspace	n/a
291.7345	0.056	583469	keystroke_Key.backspace	Key.backspace	n/a
291.8075	0.127	583615	keystroke_a	a	n/a
291.9665	0.064	583933	keystroke_l	l	n/a
292.0545	0.144	584109	keystroke_e	e	n/a
292.1505	0.088	584301	keystroke_r	r	n/a
292.2545	0.088	584509	keystroke_Key.space	Key.space	n/a
292.4145	0.08	584829	keystroke_s	s	n/a
292.5105	0.096	585021	keystroke_u	u	n/a
292.711	0.0795	585422	keystroke_p	p	n/a
292.8865	0.128	585773	keystroke_p	p	n/a
292.9665	0.104	585933	keystroke_o	o	n/a
293.0545	0.088	586109	keystroke_r	r	n/a
293.2385	0.104	586477	keystroke_t	t	n/a
293.3985	0.096	586797	keystroke_Key.space	Key.space	n/a
293.9105	0.072	587821	keystroke_d	d	n/a
294.2385	0.064	588477	keystroke_Key.backspace	Key.backspace	n/a
294.4625	0.064	588925	keystroke_o	o	n/a
294.5585	0.088	589117	keystroke_f	f	n/a
294.7585	0.096	589517	keystroke_f	f	n/a
295.0145	0.08	590029	keystroke_e	e	n/a
295.1505	0.08	590301	keystroke_n	n	n/a
295.2785	0.112	590557	keystroke_s	s	n/a
295.3985	0.08	590797	keystroke_i	i	n/a
295.5025	0.112	591005	keystroke_v	v	n/a
295.6065	0.128	591213	keystroke_e	e	n/a
295.7105	0.096	591421	keystroke_Key.space	Key.space	n/a
296.1105	0.096	592221	keystroke_d	d	n/a
296.399	0.104	592798	keystroke_e	e	n/a
296.431	0.087	592862	keystroke_l	l	n/a
296.8625	0.08	593725	keystroke_t	t	n/a
297.0625	0.056	594125	keystroke_a	a	n/a
297.2225	0.072	594445	keystroke_Key.enter	Key.enter	n/a
297.2985	9.1815	594597	prompt	n/a	governing colony mathematical concrete\n
298.51	0.096	597020	keystroke_g	g	n/a
298.638	0.12	597276	keystroke_o	o	n/a
298.9665	0.112	597933	keystroke_v	v	n/a
299.2065	0.152	598413	keystroke_e	e	n/a
299.2945	0.1115	598589	keystroke_r	r	n/a
299.398	0.056	598796	keystroke_n	n	n/a
299.502	0.08	599004	keystroke_i	i	n/a
299.654	0.104	599308	keystroke_n	n	n/a
299.774	0.096	599548	keystroke_g	g	n/a
299.878	0.112	599756	keystroke_Key.space	Key.space	n/a
300.022	0.12	600044	keystroke_c	c	n/a
300.102	0.048	600204	keystroke_o	o	n/a
300.254	0.072	600508	keystroke_l	l	n/a
300.423	0.071	600846	keystroke_o	o	n/a
300.607	0.08	601214	keystroke_n	n	n/a
300.8065	0.088	601613	keystroke_y	y	n/a
300.9345	0.104	601869	keystroke_Key.space	Key.space	n/a
301.255	0.096	602510	keystroke_m	m	n/a
301.4225	0.112	602845	keystroke_a	a	n/a
301.5425	0.1355	603085	keystroke_t	t	n/a
301.702	0.08	603404	keystroke_h	h	n/a
301.83	0.088	603660	keystroke_e	e	n/a
302.174	0.088	604348	keystroke_m	m	n/a
302.302	0.064	604604	keystroke_e	e	n/a
302.7905	0.0715	605581	keystroke_Key.backspace	Key.backspace	n/a
302.854	0.104	605708	keystroke_a	a	n/a
302.918	0.08	605836	keystroke_t	t	n/a
303.8945	0.096	607789	keystroke_i	i	n/a
304.1345	0.128	608269	keystroke_c	c	n/a
304.2945	0.136	608589	keystroke_a	a	n/a
304.4065	0.096	608813	keystroke_l	l	n/a
304.6385	0.088	609277	keystroke_Key.space	Key.space	n/a
305.158	0.112	610316	keystroke_c	c	n/a
305.262	0.072	610524	keystroke_o	o	n/a
305.446	0.096	610892	keystroke_n	n	n/a
305.534	0.0805	611068	keystroke_c	c	n/a
305.7345	0.136	611469	keystroke_r	r	n/a
305.8305	0.096	611661	keystroke_e	e	n/a
306.0225	0.136	612045	keystroke_t	t	n/a
306.1025	0.104	612205	keystroke_e	e	n/a
306.406	0.072	612812	keystroke_Key.enter	Key.enter	n/a
306.483	6.341	612966	prompt	n/a	threads early incidents farming\n
307.1345	0.128	614269	keystroke_t	t	n/a
307.2545	0.104	614509	keystroke_h	h	n/a
307.3425	0.112	614685	keystroke_r	r	n/a
307.3905	0.08	614781	keystroke_e	e	n/a
307.5505	0.2	615101	keystroke_a	a	n/a
307.6945	0.28	615389	keystroke_d	d	n/a
307.7905	0.192	615581	keystroke_s	s	n/a
308.1025	0.08	616205	keystroke_Key.space	Key.space	n/a
308.5425	0.088	617085	keystroke_e	e	n/a
308.7345	0.112	617469	keystroke_a	a	n/a
308.8145	0.112	617629	keystroke_r	r	n/a
308.9105	0.096	617821	keystroke_l	l	n/a
309.1105	0.152	618221	keystroke_y	y	n/a
309.2705	0.12	618541	keystroke_Key.space	Key.space	n/a
309.8945	0.072	619789	keystroke_i	i	n/a
310.0545	0.088	620109	keystroke_n	n	n/a
310.1825	0.104	620365	keystroke_c	c	n/a
310.2865	0.08	620573	keystroke_i	i	n/a
310.3905	0.072	620781	keystroke_d	d	n/a
310.5505	0.096	621101	keystroke_e	e	n/a
310.6705	0.104	621341	keystroke_n	n	n/a
310.8145	0.144	621629	keystroke_t	t	n/a
310.9415	0.089	621883	keystroke_s	s	n/a
311.4225	0.104	622845	keystroke_Key.space	Key.space	n/a
311.5905	0.096	623181	keystroke_f	f	n/a
311.7665	0.136	623533	keystroke_a	a	n/a
311.8785	0.112	623757	keystroke_r	r	n/a
311.9425	0.12	623885	keystroke_m	m	n/a
312.1185	0.096	624237	keystroke_i	i	n/a
312.2865	0.096	624573	keystroke_n	n	n/a
312.4305	0.12	624861	keystroke_g	g	n/a
312.7425	0.08	625485	keystroke_Key.enter	Key.enter	n/a
312.828	7.8755	625656	prompt	n/a	chief singer calculators minute\n
313.4145	0.136	626829	keystroke_c	c	n/a
313.6065	0.104	627213	keystroke_h	h	n/a
313.8145	0.096	627629	keystroke_i	i	n/a
313.9585	0.056	627917	keystroke_e	e	n/a
314.1345	0.072	628269	keystroke_f	f	n/a
314.3905	0.112	628781	keystroke_Key.space	Key.space	n/a
314.7745	0.08	629549	keystroke_s	s	n/a
314.8785	0.048	629757	keystroke_i	i	n/a
315.0145	0.088	630029	keystroke_n	n	n/a
315.1185	0.08	630237	keystroke_g	g	n/a
315.2865	0.16	630573	keystroke_e	e	n/a
315.3505	0.12	630701	keystroke_r	r	n/a
315.4225	0.104	630845	keystroke_Key.space	Key.space	n/a
315.5825	0.136	631165	keystroke_c	c	n/a
315.7265	0.12	631453	keystroke_a	a	n/a
315.8545	0.072	631709	keystroke_l	l	n/a
315.9505	0.128	631901	keystroke_c	c	n/a
316.1025	0.08	632205	keystroke_u	u	n/a
316.294	0.072	632588	keystroke_l	l	n/a
316.398	0.112	632796	keystroke_a	a	n/a
316.47	0.104	632940	keystroke_t	t	n/a
316.686	0.08	633372	keystroke_o	o	n/a
316.8305	0.128	633661	keystroke_r	r	n/a
316.9025	0.064	633805	keystroke_s	s	n/a
317.0145	0.096	634029	keystroke_Key.space	Key.space	n/a
317.7345	0.08	635469	keystroke_m	m	n/a
317.9025	0.048	635805	keystroke_o	o	n/a
318.0625	0.064	636125	keystroke_n	n	n/a
318.4865	0.056	636973	keystroke_Key.backspace	Key.backspace	n/a
318.6465	0.048	637293	keystroke_Key.backspace	Key.backspace	n/a
318.8705	0.048	637741	keystroke_i	i	n/a
319.0225	0.088	638045	keystroke_n	n	n/a
319.2625	0.064	638525	keystroke_m	m	n/a
319.5265	0.08	639053	keystroke_u	u	n/a
319.8785	0.056	639757	keystroke_Key.backspace	Key.backspace	n/a
320.0385	0.04	640077	keystroke_Key.backspace	Key.backspace	n/a
320.2385	0.096	640477	keystroke_u	u	n/a
320.3425	0.128	640685	keystroke_t	t	n/a
320.4065	0.088	640813	keystroke_e	e	n/a
320.6305	0.072	641261	keystroke_Key.enter	Key.enter	n/a
320.707	7.7485	641414	prompt	n/a	arlington nails let's french\n
321.3185	0.112	642637	keystroke_a	a	n/a
321.5345	0.088	643069	keystroke_l	l	n/a
321.6625	0.088	643325	keystroke_r	r	n/a
321.9185	0.12	643837	keystroke_g	g	n/a
322.4145	0.048	644829	keystroke_Key.backspace	Key.backspace	n/a
322.5745	0.056	645149	keystroke_Key.backspace	Key.backspace	n/a
322.7345	0.056	645469	keystroke_Key.backspace	Key.backspace	n/a
322.8225	0.0955	645645	keystroke_r	r	n/a
322.942	0.08	645884	keystroke_l	l	n/a
323.15	0.032	646300	keystroke_i	i	n/a
323.286	0.088	646572	keystroke_n	n	n/a
323.406	0.088	646812	keystroke_g	g	n/a
323.574	0.08	647148	keystroke_t	t	n/a
323.662	0.08	647324	keystroke_o	o	n/a
323.846	0.064	647692	keystroke_n	n	n/a
324.022	0.088	648044	keystroke_Key.space	Key.space	n/a
324.614	0.088	649228	keystroke_r	r	n/a
325.086	0.048	650172	keystroke_Key.backspace	Key.backspace	n/a
325.302	0.0805	650604	keystroke_n	n	n/a
325.4465	0.08	650893	keystroke_a	a	n/a
325.5425	0.072	651085	keystroke_i	i	n/a
325.7425	0.088	651485	keystroke_l	l	n/a
325.8385	0.096	651677	keystroke_s	s	n/a
325.9265	0.104	651853	keystroke_Key.space	Key.space	n/a
326.0865	0.096	652173	keystroke_l	l	n/a
326.1825	0.0715	652365	keystroke_e	e	n/a
326.302	0.12	652604	keystroke_t	t	n/a
326.462	0.088	652924	keystroke_'	'	n/a
326.598	0.072	653196	keystroke_s	s	n/a
327.086	0.08	654172	keystroke_Key.space	Key.space	n/a
327.382	0.104	654764	keystroke_f	f	n/a
327.614	0.152	655228	keystroke_r	r	n/a
327.702	0.088	655404	keystroke_e	e	n/a
327.886	0.08	655772	keystroke_n	n	n/a
327.99	0.128	655980	keystroke_c	c	n/a
328.126	0.072	656252	keystroke_h	h	n/a
328.374	0.08	656748	keystroke_Key.enter	Key.enter	n/a
328.461	6.1545	656922	prompt	n/a	lamps reality hotmail gilbert\n
329.046	0.072	658092	keystroke_l	l	n/a
329.19	0.088	658380	keystroke_a	a	n/a
329.262	0.1045	658524	keystroke_m	m	n/a
329.35	0.08	658700	keystroke_p	p	n/a
329.446	0.088	658892	keystroke_s	s	n/a
329.678	0.104	659356	keystroke_Key.space	Key.space	n/a
330.134	0.136	660268	keystroke_r	r	n/a
330.19	0.096	660380	keystroke_e	e	n/a
330.358	0.128	660716	keystroke_a	a	n/a
330.454	0.072	660908	keystroke_l	l	n/a
330.638	0.088	661276	keystroke_i	i	n/a
330.75	0.12	661500	keystroke_t	t	n/a
330.918	0.096	661836	keystroke_y	y	n/a
331.63	0.096	663260	keystroke_Key.space	Key.space	n/a
331.838	0.104	663676	keystroke_h	h	n/a
331.926	0.104	663852	keystroke_o	o	n/a
332.062	0.088	664124	keystroke_t	t	n/a
332.198	0.088	664396	keystroke_m	m	n/a
332.342	0.12	664684	keystroke_a	a	n/a
332.454	0.072	664908	keystroke_i	i	n/a
332.638	0.08	665276	keystroke_l	l	n/a
332.814	0.0965	665628	keystroke_Key.space	Key.space	n/a
333.2705	0.072	666541	keystroke_g	g	n/a
333.5015	0.073	667003	keystroke_i	i	n/a
333.7095	0.072	667419	keystroke_l	l	n/a
333.9255	0.088	667851	keystroke_b	b	n/a
334.0455	0.136	668091	keystroke_e	e	n/a
334.1175	0.096	668235	keystroke_r	r	n/a
334.2855	0.104	668571	keystroke_t	t	n/a
334.5495	0.064	669099	keystroke_Key.enter	Key.enter	n/a
334.622	6.3055	669244	prompt	n/a	listing operating disco gold\n
335.214	0.072	670428	keystroke_l	l	n/a
335.414	0.0885	670828	keystroke_i	i	n/a
335.4855	0.089	670971	keystroke_s	s	n/a
335.6785	0.079	671357	keystroke_t	t	n/a
335.8305	0.064	671661	keystroke_i	i	n/a
335.9905	0.104	671981	keystroke_n	n	n/a
336.1425	0.1275	672285	keystroke_g	g	n/a
336.271	0.103	672542	keystroke_Key.space	Key.space	n/a
336.718	0.088	673436	keystroke_o	o	n/a
336.9265	0.071	673853	keystroke_p	p	n/a
337.0465	0.112	674093	keystroke_e	e	n/a
337.0945	0.088	674189	keystroke_r	r	n/a
337.2865	0.119	674573	keystroke_a	a	n/a
337.3745	0.127	674749	keystroke_t	t	n/a
337.7505	0.079	675501	keystroke_i	i	n/a
337.9345	0.087	675869	keystroke_n	n	n/a
338.1175	0.081	676235	keystroke_g	g	n/a
338.3575	0.128	676715	keystroke_Key.space	Key.space	n/a
338.7175	0.088	677435	keystroke_d	d	n/a
338.8295	0.104	677659	keystroke_i	i	n/a
338.9495	0.136	677899	keystroke_s	s	n/a
339.0535	0.12	678107	keystroke_c	c	n/a
339.2455	0.088	678491	keystroke_o	o	n/a
339.4215	0.088	678843	keystroke_Key.space	Key.space	n/a
340.0535	0.128	680107	keystroke_g	g	n/a
340.1575	0.08	680315	keystroke_o	o	n/a
340.3655	0.104	680731	keystroke_l	l	n/a
340.4535	0.104	680907	keystroke_d	d	n/a
340.8455	0.0805	681691	keystroke_Key.enter	Key.enter	n/a
340.931	7.156	681862	prompt	n/a	connectivity rule trader what're\n
341.5585	0.136	683117	keystroke_c	c	n/a
341.6865	0.088	683373	keystroke_o	o	n/a
341.9105	0.048	683821	keystroke_n	n	n/a
342.0705	0.08	684141	keystroke_n	n	n/a
342.1585	0.1275	684317	keystroke_e	e	n/a
342.1745	0.1355	684349	keystroke_c	c	n/a
342.646	0.104	685292	keystroke_t	t	n/a
342.862	0.0805	685724	keystroke_i	i	n/a
342.9985	0.128	685997	keystroke_v	v	n/a
343.0945	0.104	686189	keystroke_i	i	n/a
343.3185	0.12	686637	keystroke_t	t	n/a
343.5025	0.08	687005	keystroke_y	y	n/a
343.5985	0.104	687197	keystroke_Key.space	Key.space	n/a
344.3745	0.104	688749	keystroke_r	r	n/a
344.5185	0.072	689037	keystroke_u	u	n/a
344.7025	0.08	689405	keystroke_l	l	n/a
344.7985	0.096	689597	keystroke_e	e	n/a
344.8865	0.12	689773	keystroke_Key.space	Key.space	n/a
344.9905	0.096	689981	keystroke_t	t	n/a
345.1335	0.096	690267	keystroke_r	r	n/a
345.3025	0.136	690605	keystroke_a	a	n/a
345.4385	0.135	690877	keystroke_d	d	n/a
345.6455	0.176	691291	keystroke_e	e	n/a
345.7015	0.161	691403	keystroke_r	r	n/a
345.8065	0.095	691613	keystroke_Key.space	Key.space	n/a
346.75	0.112	693500	keystroke_w	w	n/a
346.974	0.088	693948	keystroke_h	h	n/a
347.102	0.104	694204	keystroke_a	a	n/a
347.174	0.088	694348	keystroke_t	t	n/a
347.374	0.104	694748	keystroke_'	'	n/a
347.582	0.12	695164	keystroke_r	r	n/a
347.63	0.088	695260	keystroke_e	e	n/a
348.006	0.08	696012	keystroke_Key.enter	Key.enter	n/a
348.09	8.125	696180	prompt	n/a	taken disclose counted numeric\n
348.742	0.072	697484	keystroke_l	l	n/a
349.078	0.064	698156	keystroke_Key.backspace	Key.backspace	n/a
349.158	0.104	698316	keystroke_t	t	n/a
349.374	0.12	698748	keystroke_a	a	n/a
349.622	0.104	699244	keystroke_e	e	n/a
349.782	0.064	699564	keystroke_k	k	n/a
350.206	0.04	700412	keystroke_Key.backspace	Key.backspace	n/a
350.35	0.048	700700	keystroke_Key.backspace	Key.backspace	n/a
350.574	0.04	701148	keystroke_k	k	n/a
350.6545	0.0955	701309	keystroke_e	e	n/a
350.8145	0.0555	701629	keystroke_n	n	n/a
350.9895	0.088	701979	keystroke_Key.space	Key.space	n/a
351.686	0.088	703372	keystroke_d	d	n/a
351.814	0.088	703628	keystroke_i	i	n/a
351.894	0.072	703788	keystroke_s	s	n/a
352.062	0.112	704124	keystroke_c	c	n/a
352.19	0.08	704380	keystroke_l	l	n/a
352.382	0.064	704764	keystroke_o	o	n/a
352.494	0.176	704988	keystroke_s	s	n/a
352.558	0.096	705116	keystroke_e	e	n/a
352.662	0.096	705324	keystroke_Key.space	Key.space	n/a
353.3095	0.128	706619	keystroke_c	c	n/a
353.4215	0.136	706843	keystroke_o	o	n/a
353.4855	0.08	706971	keystroke_u	u	n/a
353.6695	0.112	707339	keystroke_n	n	n/a
353.7975	0.12	707595	keystroke_t	t	n/a
353.8615	0.104	707723	keystroke_e	e	n/a
354.0615	0.072	708123	keystroke_d	d	n/a
354.1735	0.096	708347	keystroke_Key.space	Key.space	n/a
354.8295	0.072	709659	keystroke_n	n	n/a
355.03	0.056	710060	keystroke_u	u	n/a
355.214	0.1195	710428	keystroke_m	m	n/a
355.3495	0.1285	710699	keystroke_e	e	n/a
355.422	0.072	710844	keystroke_r	r	n/a
355.518	0.072	711036	keystroke_i	i	n/a
355.926	0.088	711852	keystroke_c	c	n/a
356.134	0.0795	712268	keystroke_Key.enter	Key.enter	n/a
356.218	7.653	712436	prompt	n/a	atmosphere ruby nirvana match\n
356.9265	0.031	713853	keystroke_s	s	n/a
357.134	0.16	714268	keystroke_a	a	n/a
357.4775	0.032	714955	keystroke_Key.backspace	Key.backspace	n/a
357.6055	0.072	715211	keystroke_Key.backspace	Key.backspace	n/a
357.6695	0.128	715339	keystroke_a	a	n/a
357.7255	0.104	715451	keystroke_t	t	n/a
357.8855	0.136	715771	keystroke_m	m	n/a
358.0375	0.072	716075	keystroke_o	o	n/a
358.1415	0.072	716283	keystroke_s	s	n/a
358.4055	0.064	716811	keystroke_p	p	n/a
358.5975	0.096	717195	keystroke_h	h	n/a
358.7175	0.136	717435	keystroke_e	e	n/a
358.8295	0.1365	717659	keystroke_r	r	n/a
358.9175	0.1125	717835	keystroke_e	e	n/a
358.982	0.088	717964	keystroke_Key.space	Key.space	n/a
360.078	0.08	720156	keystroke_g	g	n/a
360.606	0.048	721212	keystroke_Key.backspace	Key.backspace	n/a
360.67	0.08	721340	keystroke_r	r	n/a
360.854	0.112	721708	keystroke_u	u	n/a
360.9975	0.112	721995	keystroke_b	b	n/a
361.1495	0.08	722299	keystroke_y	y	n/a
361.2535	0.088	722507	keystroke_Key.space	Key.space	n/a
361.5415	0.064	723083	keystroke_n	n	n/a
361.6935	0.096	723387	keystroke_i	i	n/a
361.7975	0.072	723595	keystroke_r	r	n/a
361.9815	0.112	723963	keystroke_v	v	n/a
362.1175	0.12	724235	keystroke_a	a	n/a
362.2455	0.064	724491	keystroke_n	n	n/a
362.3655	0.112	724731	keystroke_a	a	n/a
362.4785	0.079	724957	keystroke_Key.space	Key.space	n/a
363.006	0.104	726012	keystroke_m	m	n/a
363.174	0.12	726348	keystroke_a	a	n/a
363.27	0.064	726540	keystroke_t	t	n/a
363.438	0.112	726876	keystroke_c	c	n/a
363.566	0.08	727132	keystroke_h	h	n/a
363.782	0.088	727564	keystroke_Key.enter	Key.enter	n/a
363.884	5.9635	727768	prompt	n/a	second inclusive direction either\n
364.478	0.048	728956	keystroke_s	s	n/a
364.622	0.064	729244	keystroke_e	e	n/a
364.782	0.088	729564	keystroke_c	c	n/a
364.87	0.072	729740	keystroke_o	o	n/a
365.0215	0.088	730043	keystroke_n	n	n/a
365.1175	0.088	730235	keystroke_d	d	n/a
365.1575	0.12	730315	keystroke_Key.space	Key.space	n/a
365.2855	0.064	730571	keystroke_i	i	n/a
365.4455	0.0885	730891	keystroke_n	n	n/a
365.518	0.12	731036	keystroke_c	c	n/a
365.662	0.072	731324	keystroke_l	l	n/a
365.854	0.088	731708	keystroke_u	u	n/a
366.022	0.08	732044	keystroke_s	s	n/a
366.15	0.0795	732300	keystroke_i	i	n/a
366.2455	0.112	732491	keystroke_v	v	n/a
366.3335	0.112	732667	keystroke_e	e	n/a
366.4615	0.096	732923	keystroke_Key.space	Key.space	n/a
367.061	0.088	734122	keystroke_d	d	n/a
367.189	0.089	734378	keystroke_i	i	n/a
367.285	0.104	734570	keystroke_r	r	n/a
367.341	0.08	734682	keystroke_e	e	n/a
367.517	0.056	735034	keystroke_c	c	n/a
368.053	0.065	736106	keystroke_c	c	n/a
368.373	0.064	736746	keystroke_Key.backspace	Key.backspace	n/a
368.477	0.096	736954	keystroke_t	t	n/a
368.629	0.136	737258	keystroke_i	i	n/a
368.717	0.088	737434	keystroke_o	o	n/a
368.91	0.112	737820	keystroke_n	n	n/a
369.038	0.112	738076	keystroke_Key.space	Key.space	n/a
369.19	0.088	738380	keystroke_e	e	n/a
369.278	0.096	738556	keystroke_i	i	n/a
369.398	0.096	738796	keystroke_t	t	n/a
369.486	0.096	738972	keystroke_h	h	n/a
369.574	0.128	739148	keystroke_e	e	n/a
369.646	0.112	739292	keystroke_r	r	n/a
369.782	0.064	739564	keystroke_Key.enter	Key.enter	n/a
369.8515	5.8035	739703	prompt	n/a	crazy fall anyway tariff\n
370.606	0.104	741212	keystroke_c	c	n/a
370.806	0.112	741612	keystroke_r	r	n/a
370.966	0.0955	741932	keystroke_a	a	n/a
371.1735	0.1195	742347	keystroke_z	z	n/a
371.381	0.072	742762	keystroke_y	y	n/a
371.509	0.112	743018	keystroke_Key.space	Key.space	n/a
372.573	0.112	745146	keystroke_f	f	n/a
372.733	0.097	745466	keystroke_a	a	n/a
372.797	0.064	745594	keystroke_l	l	n/a
372.957	0.0885	745914	keystroke_l	l	n/a
373.0615	0.064	746123	keystroke_Key.space	Key.space	n/a
373.1815	0.08	746363	keystroke_a	a	n/a
373.2695	0.088	746539	keystroke_n	n	n/a
373.5415	0.088	747083	keystroke_y	y	n/a
373.6615	0.064	747323	keystroke_w	w	n/a
373.8455	0.112	747691	keystroke_a	a	n/a
373.9735	0.072	747947	keystroke_y	y	n/a
374.0935	0.128	748187	keystroke_Key.space	Key.space	n/a
374.7495	0.12	749499	keystroke_t	t	n/a
374.9335	0.0955	749867	keystroke_a	a	n/a
374.9975	0.0555	749995	keystroke_r	r	n/a
375.189	0.088	750378	keystroke_i	i	n/a
375.318	0.08	750636	keystroke_f	f	n/a
375.485	0.097	750970	keystroke_f	f	n/a
375.589	0.064	751178	keystroke_Key.enter	Key.enter	n/a
375.6575	9.5335	751315	prompt	n/a	write ctrl uniprotkb awards\n
376.3015	0.112	752603	keystroke_w	w	n/a
376.5735	0.112	753147	keystroke_r	r	n/a
376.7415	0.072	753483	keystroke_i	i	n/a
376.8375	0.136	753675	keystroke_t	t	n/a
376.9015	0.096	753803	keystroke_e	e	n/a
376.9815	0.1035	753963	keystroke_Key.space	Key.space	n/a
377.333	0.112	754666	keystroke_c	c	n/a
377.589	0.08	755178	keystroke_t	t	n/a
377.749	0.072	755498	keystroke_r	r	n/a
377.869	0.064	755738	keystroke_l	l	n/a
378.037	0.08	756074	keystroke_Key.space	Key.space	n/a
378.901	0.072	757802	keystroke_u	u	n/a
379.4295	0.0565	758859	keystroke_n	n	n/a
379.806	0.048	759612	keystroke_i	i	n/a
380.19	0.104	760380	keystroke_p	p	n/a
380.774	0.104	761548	keystroke_r	r	n/a
381.1895	0.0795	762379	keystroke_o	o	n/a
382.357	0.072	764714	keystroke_t	t	n/a
382.925	0.088	765850	keystroke_k	k	n/a
383.294	0.112	766588	keystroke_b	b	n/a
383.518	0.096	767036	keystroke_Key.space	Key.space	n/a
384.0455	0.112	768091	keystroke_a	a	n/a
384.2855	0.072	768571	keystroke_w	w	n/a
384.4775	0.096	768955	keystroke_a	a	n/a
384.5815	0.064	769163	keystroke_r	r	n/a
384.7575	0.208	769515	keystroke_d	d	n/a
384.8845	0.121	769769	keystroke_s	s	n/a
385.11	0.079	770220	keystroke_Key.enter	Key.enter	n/a
385.1935	4.181	770387	prompt	n/a	music consider flow cottage\n
385.941	0.072	771882	keystroke_m	m	n/a
386.133	0.056	772266	keystroke_u	u	n/a
386.237	0.096	772474	keystroke_s	s	n/a
386.357	0.072	772714	keystroke_i	i	n/a
386.493	0.096	772986	keystroke_c	c	n/a
386.557	0.088	773114	keystroke_Key.space	Key.space	n/a
386.773	0.112	773546	keystroke_c	c	n/a
386.893	0.072	773786	keystroke_o	o	n/a
387.069	0.08	774138	keystroke_n	n	n/a
387.181	0.104	774362	keystroke_s	s	n/a
387.269	0.096	774538	keystroke_i	i	n/a
387.389	0.056	774778	keystroke_d	d	n/a
387.573	0.12	775146	keystroke_e	e	n/a
387.645	0.104	775290	keystroke_r	r	n/a
387.773	0.096	775546	keystroke_Key.space	Key.space	n/a
387.925	0.096	775850	keystroke_f	f	n/a
387.973	0.072	775946	keystroke_l	l	n/a
388.141	0.08	776282	keystroke_o	o	n/a
388.245	0.072	776490	keystroke_w	w	n/a
388.325	0.096	776650	keystroke_Key.space	Key.space	n/a
388.422	0.127	776844	keystroke_c	c	n/a
388.525	0.064	777050	keystroke_o	o	n/a
388.677	0.064	777354	keystroke_t	t	n/a
388.853	0.072	777706	keystroke_t	t	n/a
388.989	0.1125	777978	keystroke_a	a	n/a
389.069	0.1045	778138	keystroke_g	g	n/a
389.1815	0.096	778363	keystroke_e	e	n/a
389.2935	0.08	778587	keystroke_Key.enter	Key.enter	n/a
389.3775	6.717	778755	prompt	n/a	eval brunei tent obtaining\n
390.1015	0.104	780203	keystroke_e	e	n/a
390.3015	0.112	780603	keystroke_v	v	n/a
390.4295	0.128	780859	keystroke_a	a	n/a
390.5895	0.08	781179	keystroke_l	l	n/a
390.7895	0.08	781579	keystroke_Key.space	Key.space	n/a
391.1495	0.032	782299	keystroke_b	b	n/a
391.3175	0.072	782635	keystroke_r	r	n/a
391.4455	0.096	782891	keystroke_u	u	n/a
391.6935	0.056	783387	keystroke_n	n	n/a
391.8375	0.112	783675	keystroke_a	a	n/a
392.4615	0.048	784923	keystroke_Key.backspace	Key.backspace	n/a
392.5255	0.064	785051	keystroke_e	e	n/a
392.6695	0.064	785339	keystroke_i	i	n/a
392.8295	0.096	785659	keystroke_Key.space	Key.space	n/a
393.493	0.096	786986	keystroke_t	t	n/a
393.637	0.112	787274	keystroke_e	e	n/a
393.757	0.088	787514	keystroke_n	n	n/a
393.861	0.12	787722	keystroke_t	t	n/a
393.957	0.128	787914	keystroke_Key.space	Key.space	n/a
394.125	0.088	788250	keystroke_o	o	n/a
394.325	0.088	788650	keystroke_b	b	n/a
394.677	0.104	789354	keystroke_t	t	n/a
394.869	0.136	789738	keystroke_a	a	n/a
395.037	0.0965	790074	keystroke_i	i	n/a
395.2375	0.088	790475	keystroke_n	n	n/a
395.4055	0.0635	790811	keystroke_i	i	n/a
395.557	0.096	791114	keystroke_n	n	n/a
395.693	0.112	791386	keystroke_g	g	n/a
396.005	0.088	792010	keystroke_Key.enter	Key.enter	n/a
396.099	6.6595	792198	prompt	n/a	afternoon intimate sphere butter\n
396.8055	0.128	793611	keystroke_a	a	n/a
397.1175	0.112	794235	keystroke_f	f	n/a
397.3335	0.104	794667	keystroke_t	t	n/a
397.4535	0.127	794907	keystroke_e	e	n/a
397.5175	0.112	795035	keystroke_r	r	n/a
397.6445	0.065	795289	keystroke_n	n	n/a
397.7895	0.08	795579	keystroke_o	o	n/a
397.9495	0.08	795899	keystroke_o	o	n/a
398.0695	0.088	796139	keystroke_n	n	n/a
398.1895	0.088	796379	keystroke_Key.space	Key.space	n/a
398.7735	0.072	797547	keystroke_i	i	n/a
398.9245	0.089	797849	keystroke_n	n	n/a
399.285	0.096	798570	keystroke_t	t	n/a
399.429	0.064	798858	keystroke_i	i	n/a
399.605	0.064	799210	keystroke_m	m	n/a
399.765	0.096	799530	keystroke_a	a	n/a
399.837	0.136	799674	keystroke_t	t	n/a
399.957	0.064	799914	keystroke_e	e	n/a
400.061	0.072	800122	keystroke_Key.space	Key.space	n/a
400.381	0.08	800762	keystroke_s	s	n/a
400.509	0.088	801018	keystroke_p	p	n/a
400.957	0.08	801914	keystroke_h	h	n/a
401.125	0.12	802250	keystroke_e	e	n/a
401.269	0.136	802538	keystroke_r	r	n/a
401.341	0.12	802682	keystroke_e	e	n/a
401.462	0.095	802924	keystroke_Key.space	Key.space	n/a
401.877	0.064	803754	keystroke_b	b	n/a
402.045	0.088	804090	keystroke_u	u	n/a
402.149	0.088	804298	keystroke_t	t	n/a
402.349	0.08	804698	keystroke_t	t	n/a
402.469	0.144	804938	keystroke_e	e	n/a
402.557	0.104	805114	keystroke_r	r	n/a
402.669	0.088	805338	keystroke_Key.enter	Key.enter	n/a
402.762	5.7085	805524	prompt	n/a	shower intelligent slightly locate\n
403.341	0.096	806682	keystroke_s	s	n/a
403.485	0.104	806970	keystroke_h	h	n/a
403.565	0.112	807130	keystroke_o	o	n/a
403.685	0.208	807370	keystroke_w	w	n/a
403.773	0.16	807546	keystroke_e	e	n/a
403.837	0.128	807674	keystroke_r	r	n/a
403.917	0.104	807834	keystroke_Key.space	Key.space	n/a
404.029	0.072	808058	keystroke_i	i	n/a
404.181	0.096	808362	keystroke_n	n	n/a
404.278	0.111	808556	keystroke_t	t	n/a
404.381	0.112	808762	keystroke_e	e	n/a
404.517	0.016	809034	keystroke_l	l	n/a
404.621	0.088	809242	keystroke_l	l	n/a
404.805	0.096	809610	keystroke_i	i	n/a
404.917	0.088	809834	keystroke_g	g	n/a
405.045	0.1275	810090	keystroke_e	e	n/a
405.1815	0.095	810363	keystroke_n	n	n/a
405.3085	0.128	810617	keystroke_t	t	n/a
405.4375	0.111	810875	keystroke_Key.space	Key.space	n/a
405.7085	0.04	811417	keystroke_f	f	n/a
406.0845	0.04	812169	keystroke_Key.backspace	Key.backspace	n/a
406.1885	0.072	812377	keystroke_s	s	n/a
406.2925	0.064	812585	keystroke_l	l	n/a
406.4525	0.096	812905	keystroke_i	i	n/a
406.5565	0.112	813113	keystroke_g	g	n/a
406.6845	0.088	813369	keystroke_h	h	n/a
406.7805	0.112	813561	keystroke_t	t	n/a
406.9005	0.072	813801	keystroke_l	l	n/a
407.0855	0.079	814171	keystroke_y	y	n/a
407.2205	0.128	814441	keystroke_Key.space	Key.space	n/a
407.5885	0.072	815177	keystroke_l	l	n/a
407.7565	0.088	815513	keystroke_o	o	n/a
407.8605	0.12	815721	keystroke_c	c	n/a
408.0365	0.128	816073	keystroke_a	a	n/a
408.1325	0.16	816265	keystroke_t	t	n/a
408.2365	0.112	816473	keystroke_e	e	n/a
408.3965	0.072	816793	keystroke_Key.enter	Key.enter	n/a
408.473	7.1975	816946	prompt	n/a	details tension desktops relying\n
409.0765	0.0965	818153	keystroke_d	d	n/a
409.261	0.064	818522	keystroke_e	e	n/a
409.405	0.104	818810	keystroke_t	t	n/a
409.557	0.096	819114	keystroke_a	a	n/a
409.654	0.079	819308	keystroke_i	i	n/a
409.853	0.072	819706	keystroke_l	l	n/a
409.957	0.072	819914	keystroke_s	s	n/a
410.061	0.12	820122	keystroke_Key.space	Key.space	n/a
410.381	0.096	820762	keystroke_t	t	n/a
410.453	0.088	820906	keystroke_e	e	n/a
410.597	0.064	821194	keystroke_n	n	n/a
410.709	0.088	821418	keystroke_s	s	n/a
410.837	0.136	821674	keystroke_i	i	n/a
410.925	0.088	821850	keystroke_o	o	n/a
411.133	0.064	822266	keystroke_n	n	n/a
411.3085	0.088	822617	keystroke_Key.space	Key.space	n/a
411.8125	0.056	823625	keystroke_d	d	n/a
412.0045	0.048	824009	keystroke_e	e	n/a
412.1565	0.057	824313	keystroke_k	k	n/a
412.2205	0.024	824441	keystroke_s	s	n/a
412.7085	0.04	825417	keystroke_Key.backspace	Key.backspace	n/a
412.8525	0.048	825705	keystroke_Key.backspace	Key.backspace	n/a
412.9805	0.064	825961	keystroke_s	s	n/a
413.0925	0.056	826185	keystroke_k	k	n/a
413.1895	0.1115	826379	keystroke_t	t	n/a
413.285	0.152	826570	keystroke_o	o	n/a
413.373	0.088	826746	keystroke_p	p	n/a
413.469	0.072	826938	keystroke_s	s	n/a
413.613	0.104	827226	keystroke_Key.space	Key.space	n/a
414.325	0.072	828650	keystroke_d	d	n/a
414.605	0.048	829210	keystroke_Key.backspace	Key.backspace	n/a
414.654	0.135	829308	keystroke_r	r	n/a
414.701	0.08	829402	keystroke_e	e	n/a
414.821	0.08	829642	keystroke_l	l	n/a
415.021	0.08	830042	keystroke_y	y	n/a
415.197	0.064	830394	keystroke_i	i	n/a
415.341	0.0795	830682	keystroke_n	n	n/a
415.4525	0.08	830905	keystroke_g	g	n/a
415.5965	0.072	831193	keystroke_Key.enter	Key.enter	n/a
415.673	7.2535	831346	prompt	n/a	introduction steve quiz springer\n
416.2535	0.064	832507	keystroke_i	i	n/a
416.4135	0.08	832827	keystroke_n	n	n/a
416.6455	0.048	833291	keystroke_d	d	n/a
416.9095	0.048	833819	keystroke_Key.backspace	Key.backspace	n/a
416.9655	0.064	833931	keystroke_t	t	n/a
417.1015	0.111	834203	keystroke_r	r	n/a
417.2845	0.08	834569	keystroke_o	o	n/a
417.413	0.08	834826	keystroke_d	d	n/a
417.565	0.088	835130	keystroke_u	u	n/a
417.645	0.056	835290	keystroke_c	c	n/a
417.853	0.096	835706	keystroke_t	t	n/a
417.957	0.096	835914	keystroke_i	i	n/a
418.021	0.088	836042	keystroke_o	o	n/a
418.213	0.104	836426	keystroke_n	n	n/a
418.373	0.096	836746	keystroke_Key.space	Key.space	n/a
418.669	0.104	837338	keystroke_s	s	n/a
418.861	0.104	837722	keystroke_t	t	n/a
418.933	0.112	837866	keystroke_e	e	n/a
419.125	0.1355	838250	keystroke_v	v	n/a
419.2135	0.111	838427	keystroke_e	e	n/a
419.3405	0.096	838681	keystroke_Key.space	Key.space	n/a
419.5645	0.12	839129	keystroke_q	q	n/a
419.7885	0.12	839577	keystroke_i	i	n/a
420.2285	0.08	840457	keystroke_z	z	n/a
420.5165	0.048	841033	keystroke_Key.backspace	Key.backspace	n/a
420.7885	0.064	841577	keystroke_Key.backspace	Key.backspace	n/a
421.0365	0.112	842073	keystroke_u	u	n/a
421.109	0.0875	842218	keystroke_i	i	n/a
421.1725	0.073	842345	keystroke_z	z	n/a
421.3805	0.088	842761	keystroke_Key.space	Key.space	n/a
421.9005	0.096	843801	keystroke_s	s	n/a
422.1245	0.064	844249	keystroke_p	p	n/a
422.2525	0.1045	844505	keystroke_r	r	n/a
422.349	0.056	844698	keystroke_i	i	n/a
422.493	0.08	844986	keystroke_n	n	n/a
422.557	0.096	845114	keystroke_g	g	n/a
422.701	0.128	845402	keystroke_e	e	n/a
422.765	0.104	845530	keystroke_r	r	n/a
422.853	0.072	845706	keystroke_Key.enter	Key.enter	n/a
422.9355	5.583	845871	prompt	n/a	forever tapes mason machine\n
423.589	0.096	847178	keystroke_f	f	n/a
423.717	0.096	847434	keystroke_o	o	n/a
423.814	0.063	847628	keystroke_r	r	n/a
424.069	0.08	848138	keystroke_e	e	n/a
424.613	0.08	849226	keystroke_v	v	n/a
424.8045	0.128	849609	keystroke_e	e	n/a
424.8765	0.12	849753	keystroke_r	r	n/a
425.0045	0.112	850009	keystroke_Key.space	Key.space	n/a
425.2205	0.1125	850441	keystroke_t	t	n/a
425.421	0.08	850842	keystroke_a	a	n/a
425.533	0.096	851066	keystroke_p	p	n/a
425.621	0.08	851242	keystroke_e	e	n/a
426.061	0.08	852122	keystroke_s	s	n/a
426.2605	0.072	852521	keystroke_Key.space	Key.space	n/a
426.533	0.056	853066	keystroke_m	m	n/a
426.653	0.152	853306	keystroke_a	a	n/a
426.717	0.128	853434	keystroke_s	s	n/a
426.869	0.072	853738	keystroke_o	o	n/a
427.037	0.08	854074	keystroke_n	n	n/a
427.189	0.088	854378	keystroke_Key.space	Key.space	n/a
427.749	0.08	855498	keystroke_m	m	n/a
427.868	0.121	855736	keystroke_a	a	n/a
427.933	0.12	855866	keystroke_c	c	n/a
428.029	0.08	856058	keystroke_h	h	n/a
428.101	0.072	856202	keystroke_i	i	n/a
428.245	0.064	856490	keystroke_n	n	n/a
428.316	0.097	856632	keystroke_e	e	n/a
428.452	0.064	856904	keystroke_Key.enter	Key.enter	n/a
428.521	10.517	857042	prompt	n/a	edward invisible mercedes compete\n
429.125	0.112	858250	keystroke_e	e	n/a
429.5565	0.088	859113	keystroke_w	w	n/a
429.9805	0.048	859961	keystroke_Key.backspace	Key.backspace	n/a
430.0125	0.088	860025	keystroke_d	d	n/a
430.1645	0.096	860329	keystroke_w	w	n/a
430.3885	0.104	860777	keystroke_a	a	n/a
430.4605	0.104	860921	keystroke_r	r	n/a
430.6205	0.104	861241	keystroke_d	d	n/a
430.7165	0.088	861433	keystroke_Key.space	Key.space	n/a
431.2125	0.0725	862425	keystroke_i	i	n/a
431.365	0.088	862730	keystroke_n	n	n/a
431.525	0.104	863050	keystroke_v	v	n/a
431.645	0.064	863290	keystroke_i	i	n/a
431.757	0.104	863514	keystroke_s	s	n/a
431.845	0.08	863690	keystroke_i	i	n/a
431.989	0.088	863978	keystroke_t	t	n/a
432.149	0.072	864298	keystroke_b	b	n/a
432.309	0.064	864618	keystroke_l	l	n/a
432.413	0.088	864826	keystroke_e	e	n/a
432.677	0.056	865354	keystroke_Key.backspace	Key.backspace	n/a
432.829	0.056	865658	keystroke_Key.backspace	Key.backspace	n/a
432.981	0.064	865962	keystroke_Key.backspace	Key.backspace	n/a
433.165	0.057	866330	keystroke_Key.backspace	Key.backspace	n/a
433.3965	0.056	866793	keystroke_b	b	n/a
433.5565	0.072	867113	keystroke_l	l	n/a
433.6605	0.08	867321	keystroke_e	e	n/a
433.7725	0.088	867545	keystroke_Key.space	Key.space	n/a
434.3405	0.112	868681	keystroke_m	m	n/a
434.4765	0.152	868953	keystroke_e	e	n/a
434.5725	0.072	869145	keystroke_r	r	n/a
434.7405	0.128	869481	keystroke_c	c	n/a
434.8845	0.088	869769	keystroke_e	e	n/a
435.0845	0.088	870169	keystroke_d	d	n/a
436.7485	0.08	873497	keystroke_e	e	n/a
436.9245	0.072	873849	keystroke_s	s	n/a
437.0765	0.088	874153	keystroke_Key.space	Key.space	n/a
437.9085	0.104	875817	keystroke_c	c	n/a
437.9805	0.056	875961	keystroke_o	o	n/a
438.1085	0.136	876217	keystroke_m	m	n/a
438.1965	0.112	876393	keystroke_p	p	n/a
438.5245	0.128	877049	keystroke_e	e	n/a
438.6925	0.152	877385	keystroke_t	t	n/a
438.7885	0.088	877577	keystroke_e	e	n/a
438.9485	0.088	877897	keystroke_Key.enter	Key.enter	n/a
439.045	10.377	878090	prompt	n/a	authorization methods kilometers clay\n
439.6685	0.128	879337	keystroke_a	a	n/a
439.7885	0.088	879577	keystroke_u	u	n/a
439.9165	0.104	879833	keystroke_t	t	n/a
440.0285	0.104	880057	keystroke_h	h	n/a
440.1405	0.12	880281	keystroke_o	o	n/a
440.3085	0.048	880617	keystroke_r	r	n/a
440.4125	0.104	880825	keystroke_i	i	n/a
440.5485	0.072	881097	keystroke_z	z	n/a
440.7485	0.104	881497	keystroke_a	a	n/a
440.8685	0.1275	881737	keystroke_t	t	n/a
440.9245	0.1275	881849	keystroke_i	i	n/a
441.0045	0.0875	882009	keystroke_o	o	n/a
441.204	0.0965	882408	keystroke_n	n	n/a
441.3565	0.088	882713	keystroke_Key.space	Key.space	n/a
442.1405	0.104	884281	keystroke_m	m	n/a
442.2685	0.096	884537	keystroke_e	e	n/a
442.4125	0.08	884825	keystroke_h	h	n/a
442.5085	0.048	885017	keystroke_t	t	n/a
442.8365	0.128	885673	keystroke_o	o	n/a
443.1645	0.048	886329	keystroke_Key.backspace	Key.backspace	n/a
443.3245	0.064	886649	keystroke_Key.backspace	Key.backspace	n/a
443.4845	0.121	886969	keystroke_t	t	n/a
443.6285	0.088	887257	keystroke_Key.backspace	Key.backspace	n/a
443.8125	0.072	887625	keystroke_Key.backspace	Key.backspace	n/a
443.9325	0.104	887865	keystroke_t	t	n/a
444.0605	0.072	888121	keystroke_h	h	n/a
444.1965	0.112	888393	keystroke_o	o	n/a
444.3245	0.168	888649	keystroke_d	d	n/a
444.4045	0.104	888809	keystroke_s	s	n/a
444.5005	0.096	889001	keystroke_Key.space	Key.space	n/a
445.4205	0.08	890841	keystroke_k	k	n/a
445.6045	0.08	891209	keystroke_i	i	n/a
445.7645	0.08	891529	keystroke_l	l	n/a
446.2205	0.088	892441	keystroke_o	o	n/a
446.4445	0.112	892889	keystroke_m	m	n/a
446.5975	0.071	893195	keystroke_e	e	n/a
446.8365	0.112	893673	keystroke_t	t	n/a
446.9725	0.128	893945	keystroke_e	e	n/a
447.1015	0.047	894203	keystroke_r	r	n/a
447.1965	0.088	894393	keystroke_s	s	n/a
447.3245	0.12	894649	keystroke_Key.space	Key.space	n/a
447.4365	0.104	894873	keystroke_d	d	n/a
447.6125	0.12	895225	keystroke_a	a	n/a
447.7245	0.104	895449	keystroke_y	y	n/a
448.3165	0.048	896633	keystroke_Key.backspace	Key.backspace	n/a
448.4685	0.064	896937	keystroke_Key.backspace	Key.backspace	n/a
448.6445	0.056	897289	keystroke_Key.backspace	Key.backspace	n/a
448.7085	0.104	897417	keystroke_c	c	n/a
448.7965	0.104	897593	keystroke_a	a	n/a
448.8525	0.08	897705	keystroke_l	l	n/a
449.0525	0.088	898105	keystroke_y	y	n/a
449.3565	0.064	898713	keystroke_Key.enter	Key.enter	n/a
449.4245	6.2055	898849	prompt	n/a	who'll replace healthcare first\n
450.2525	0.104	900505	keystroke_c	c	n/a
450.6765	0.048	901353	keystroke_Key.backspace	Key.backspace	n/a
450.7565	0.08	901513	keystroke_w	w	n/a
450.8925	0.12	901785	keystroke_h	h	n/a
450.9645	0.112	901929	keystroke_o	o	n/a
451.1565	0.088	902313	keystroke_'	'	n/a
451.333	0.071	902666	keystroke_l	l	n/a
451.492	0.097	902984	keystroke_l	l	n/a
451.597	0.088	903194	keystroke_Key.space	Key.space	n/a
451.621	0.128	903242	keystroke_r	r	n/a
451.677	0.104	903354	keystroke_e	e	n/a
451.765	0.064	903530	keystroke_p	p	n/a
451.949	0.104	903898	keystroke_l	l	n/a
452.029	0.08	904058	keystroke_a	a	n/a
452.069	0.136	904138	keystroke_c	c	n/a
452.181	0.088	904362	keystroke_e	e	n/a
452.341	0.088	904682	keystroke_Key.space	Key.space	n/a
452.917	0.096	905834	keystroke_h	h	n/a
453.093	0.088	906186	keystroke_e	e	n/a
453.261	0.127	906522	keystroke_a	a	n/a
453.364	0.088	906728	keystroke_l	l	n/a
453.492	0.096	906984	keystroke_t	t	n/a
453.604	0.104	907208	keystroke_h	h	n/a
453.844	0.104	907688	keystroke_c	c	n/a
454.02	0.12	908040	keystroke_a	a	n/a
454.1	0.129	908200	keystroke_r	r	n/a
454.148	0.104	908296	keystroke_e	e	n/a
454.308	0.096	908616	keystroke_Key.space	Key.space	n/a
454.972	0.072	909944	keystroke_f	f	n/a
455.068	0.096	910136	keystroke_i	i	n/a
455.172	0.096	910344	keystroke_r	r	n/a
455.3405	0.112	910681	keystroke_s	s	n/a
455.4125	0.12	910825	keystroke_t	t	n/a
455.5565	0.0715	911113	keystroke_Key.enter	Key.enter	n/a
455.637	8.6405	911274	prompt	n/a	greenhouse hawaii clarke camcorder\n
456.3965	0.12	912793	keystroke_g	g	n/a
456.5965	0.056	913193	keystroke_e	e	n/a
456.7725	0.08	913545	keystroke_e	e	n/a
457.1405	0.04	914281	keystroke_Key.backspace	Key.backspace	n/a
457.2845	0.064	914569	keystroke_Key.backspace	Key.backspace	n/a
457.3645	0.12	914729	keystroke_r	r	n/a
457.5245	0.088	915049	keystroke_e	e	n/a
457.7085	0.096	915417	keystroke_e	e	n/a
457.7965	0.072	915593	keystroke_n	n	n/a
458.0445	0.096	916089	keystroke_h	h	n/a
458.2765	0.168	916553	keystroke_o	o	n/a
458.3805	0.136	916761	keystroke_u	u	n/a
458.4525	0.136	916905	keystroke_s	s	n/a
458.5005	0.104	917001	keystroke_e	e	n/a
458.6285	0.104	917257	keystroke_Key.space	Key.space	n/a
459.2605	0.08	918521	keystroke_h	h	n/a
459.412	0.08	918824	keystroke_a	a	n/a
459.588	0.072	919176	keystroke_w	w	n/a
459.756	0.112	919512	keystroke_a	a	n/a
459.884	0.081	919768	keystroke_i	i	n/a
460.037	0.08	920074	keystroke_i	i	n/a
460.18	0.104	920360	keystroke_Key.space	Key.space	n/a
460.98	0.105	921960	keystroke_c	c	n/a
461.092	0.096	922184	keystroke_l	l	n/a
461.196	0.0885	922392	keystroke_a	a	n/a
461.3645	0.12	922729	keystroke_r	r	n/a
461.5165	0.088	923033	keystroke_k	k	n/a
461.6845	0.072	923369	keystroke_e	e	n/a
461.7805	0.112	923561	keystroke_Key.space	Key.space	n/a
462.4605	0.128	924921	keystroke_c	c	n/a
462.6205	0.08	925241	keystroke_o	o	n/a
463.0765	0.064	926153	keystroke_Key.backspace	Key.backspace	n/a
463.189	0.112	926378	keystroke_a	a	n/a
463.308	0.0805	926616	keystroke_m	m	n/a
463.4685	0.12	926937	keystroke_c	c	n/a
463.5645	0.112	927129	keystroke_o	o	n/a
463.7005	0.088	927401	keystroke_r	r	n/a
463.8605	0.056	927721	keystroke_d	d	n/a
464.0205	0.152	928041	keystroke_e	e	n/a
464.1005	0.128	928201	keystroke_r	r	n/a
464.2205	0.056	928441	keystroke_Key.enter	Key.enter	n/a
464.282	8.7235	928564	prompt	n/a	chorus leadership chad attempting\n
464.8925	0.12	929785	keystroke_c	c	n/a
465.1805	0.08	930361	keystroke_h	h	n/a
465.3325	0.1515	930665	keystroke_o	o	n/a
465.428	0.12	930856	keystroke_u	u	n/a
465.508	0.136	931016	keystroke_r	r	n/a
465.684	0.12	931368	keystroke_s	s	n/a
465.748	0.104	931496	keystroke_e	e	n/a
465.876	0.112	931752	keystroke_Key.space	Key.space	n/a
466.172	0.0485	932344	keystroke_Key.backspace	Key.backspace	n/a
466.3245	0.056	932649	keystroke_Key.backspace	Key.backspace	n/a
466.4845	0.056	932969	keystroke_Key.backspace	Key.backspace	n/a
466.6445	0.072	933289	keystroke_Key.backspace	Key.backspace	n/a
466.8045	0.064	933609	keystroke_Key.backspace	Key.backspace	n/a
466.8765	0.12	933753	keystroke_r	r	n/a
467.0365	0.088	934073	keystroke_u	u	n/a
467.1165	0.128	934233	keystroke_s	s	n/a
467.1725	0.088	934345	keystroke_e	e	n/a
467.612	0.056	935224	keystroke_Key.backspace	Key.backspace	n/a
467.788	0.08	935576	keystroke_Key.space	Key.space	n/a
468.636	0.104	937272	keystroke_l	l	n/a
468.716	0.088	937432	keystroke_e	e	n/a
468.892	0.112	937784	keystroke_a	a	n/a
468.956	0.12	937912	keystroke_d	d	n/a
469.276	0.144	938552	keystroke_e	e	n/a
469.356	0.128	938712	keystroke_r	r	n/a
469.596	0.104	939192	keystroke_s	s	n/a
469.732	0.136	939464	keystroke_h	h	n/a
469.852	0.104	939704	keystroke_i	i	n/a
470.068	0.104	940136	keystroke_p	p	n/a
470.292	0.088	940584	keystroke_Key.space	Key.space	n/a
470.788	0.136	941576	keystroke_c	c	n/a
470.932	0.08	941864	keystroke_h	h	n/a
471.028	0.056	942056	keystroke_a	a	n/a
471.18	0.0885	942360	keystroke_d	d	n/a
471.3005	0.095	942601	keystroke_Key.space	Key.space	n/a
471.4435	0.096	942887	keystroke_a	a	n/a
471.6275	0.048	943255	keystroke_t	t	n/a
471.8035	0.12	943607	keystroke_t	t	n/a
471.9475	0.112	943895	keystroke_e	e	n/a
472.0435	0.136	944087	keystroke_m	m	n/a
472.1315	0.104	944263	keystroke_p	p	n/a
472.2515	0.112	944503	keystroke_t	t	n/a
472.3795	0.072	944759	keystroke_i	i	n/a
472.5315	0.096	945063	keystroke_n	n	n/a
472.6355	0.088	945271	keystroke_g	g	n/a
472.9155	0.0885	945831	keystroke_Key.enter	Key.enter	n/a
473.0085	6.645	946017	prompt	n/a	aboriginal responses reduces bang\n
473.724	0.128	947448	keystroke_a	a	n/a
473.908	0.088	947816	keystroke_b	b	n/a
474.124	0.104	948248	keystroke_o	o	n/a
474.268	0.08	948536	keystroke_r	r	n/a
474.364	0.08	948728	keystroke_i	i	n/a
474.492	0.136	948984	keystroke_g	g	n/a
474.58	0.072	949160	keystroke_i	i	n/a
474.74	0.088	949480	keystroke_n	n	n/a
474.892	0.088	949784	keystroke_a	a	n/a
475.004	0.096	950008	keystroke_l	l	n/a
475.172	0.104	950344	keystroke_Key.space	Key.space	n/a
475.7155	0.136	951431	keystroke_r	r	n/a
475.7715	0.089	951543	keystroke_e	e	n/a
475.9395	0.08	951879	keystroke_s	s	n/a
476.0215	0.078	952043	keystroke_p	p	n/a
476.2035	0.073	952407	keystroke_o	o	n/a
476.388	0.088	952776	keystroke_n	n	n/a
476.484	0.12	952968	keystroke_s	s	n/a
476.612	0.112	953224	keystroke_e	e	n/a
476.788	0.096	953576	keystroke_s	s	n/a
476.924	0.096	953848	keystroke_Key.space	Key.space	n/a
477.4445	0.1275	954889	keystroke_r	r	n/a
477.516	0.088	955032	keystroke_e	e	n/a
477.708	0.08	955416	keystroke_d	d	n/a
477.82	0.112	955640	keystroke_u	u	n/a
477.9	0.12	955800	keystroke_c	c	n/a
478.1	0.064	956200	keystroke_e	e	n/a
478.284	0.08	956568	keystroke_s	s	n/a
478.42	0.104	956840	keystroke_Key.space	Key.space	n/a
478.892	0.056	957784	keystroke_b	b	n/a
479.068	0.08	958136	keystroke_a	a	n/a
479.18	0.072	958360	keystroke_n	n	n/a
479.38	0.1125	958760	keystroke_g	g	n/a
479.564	0.088	959128	keystroke_Key.enter	Key.enter	n/a
479.658	8.2195	959316	prompt	n/a	frederick assigned dance reject\n
480.308	0.152	960616	keystroke_r	r	n/a
480.412	0.096	960824	keystroke_e	e	n/a
480.604	0.08	961208	keystroke_d	d	n/a
480.988	0.048	961976	keystroke_Key.backspace	Key.backspace	n/a
481.14	0.064	962280	keystroke_Key.backspace	Key.backspace	n/a
481.3075	0.088	962615	keystroke_Key.backspace	Key.backspace	n/a
481.3715	0.1045	962743	keystroke_f	f	n/a
481.556	0.112	963112	keystroke_r	r	n/a
481.604	0.12	963208	keystroke_e	e	n/a
481.86	0.104	963720	keystroke_d	d	n/a
482.396	0.144	964792	keystroke_e	e	n/a
482.468	0.088	964936	keystroke_r	r	n/a
482.684	0.072	965368	keystroke_i	i	n/a
482.812	0.08	965624	keystroke_c	c	n/a
482.924	0.064	965848	keystroke_k	k	n/a
483.068	0.096	966136	keystroke_Key.space	Key.space	n/a
483.796	0.088	967592	keystroke_a	a	n/a
483.956	0.08	967912	keystroke_s	s	n/a
484.14	0.104	968280	keystroke_s	s	n/a
484.212	0.08	968424	keystroke_i	i	n/a
484.372	0.12	968744	keystroke_g	g	n/a
484.524	0.096	969048	keystroke_n	n	n/a
484.588	0.056	969176	keystroke_e	e	n/a
484.756	0.088	969512	keystroke_d	d	n/a
484.916	0.104	969832	keystroke_Key.space	Key.space	n/a
485.34	0.104	970680	keystroke_d	d	n/a
485.532	0.1355	971064	keystroke_a	a	n/a
485.6915	0.088	971383	keystroke_n	n	n/a
485.7715	0.152	971543	keystroke_c	c	n/a
485.8355	0.12	971671	keystroke_e	e	n/a
485.9475	0.12	971895	keystroke_Key.space	Key.space	n/a
486.2365	0.16	972473	keystroke_r	r	n/a
486.3405	0.104	972681	keystroke_e	e	n/a
486.5085	0.072	973017	keystroke_f	f	n/a
486.6125	0.104	973225	keystroke_j	j	n/a
486.9725	0.056	973945	keystroke_Key.backspace	Key.backspace	n/a
487.1405	0.056	974281	keystroke_Key.backspace	Key.backspace	n/a
487.3325	0.088	974665	keystroke_j	j	n/a
487.3885	0.152	974777	keystroke_e	e	n/a
487.4515	0.097	974903	keystroke_c	c	n/a
487.6515	0.104	975303	keystroke_t	t	n/a
487.7875	0.088	975575	keystroke_Key.enter	Key.enter	n/a
487.88	7.3175	975760	prompt	n/a	spencer gathering corpus bedroom\n
488.4285	0.103	976857	keystroke_s	s	n/a
488.5475	0.088	977095	keystroke_p	p	n/a
488.6675	0.065	977335	keystroke_e	e	n/a
488.7875	0.104	977575	keystroke_n	n	n/a
488.8835	0.072	977767	keystroke_c	c	n/a
489.0925	0.127	978185	keystroke_e	e	n/a
489.1485	0.135	978297	keystroke_r	r	n/a
489.2995	0.08	978599	keystroke_Key.space	Key.space	n/a
489.8675	0.112	979735	keystroke_g	g	n/a
490.3475	0.08	980695	keystroke_a	a	n/a
490.4755	0.12	980951	keystroke_t	t	n/a
490.6115	0.096	981223	keystroke_h	h	n/a
490.6675	0.144	981335	keystroke_e	e	n/a
490.7395	0.112	981479	keystroke_r	r	n/a
490.8275	0.08	981655	keystroke_i	i	n/a
490.9955	0.088	981991	keystroke_n	n	n/a
491.1475	0.1045	982295	keystroke_g	g	n/a
491.404	0.1115	982808	keystroke_Key.space	Key.space	n/a
491.8595	0.136	983719	keystroke_c	c	n/a
491.9715	0.072	983943	keystroke_o	o	n/a
492.1155	0.112	984231	keystroke_r	r	n/a
492.2835	0.096	984567	keystroke_p	p	n/a
492.4355	0.104	984871	keystroke_u	u	n/a
492.5955	0.104	985191	keystroke_s	s	n/a
492.7395	0.096	985479	keystroke_Key.space	Key.space	n/a
493.676	0.112	987352	keystroke_b	b	n/a
493.868	0.088	987736	keystroke_e	e	n/a
494.076	0.088	988152	keystroke_d	d	n/a
494.3	0.096	988600	keystroke_r	r	n/a
494.5	0.08	989000	keystroke_o	o	n/a
494.668	0.072	989336	keystroke_o	o	n/a
494.86	0.088	989720	keystroke_m	m	n/a
495.116	0.08	990232	keystroke_Key.enter	Key.enter	n/a
495.2015	9.1875	990403	prompt	n/a	upgrading brazilian bizarre puppy\n
495.852	0.096	991704	keystroke_u	u	n/a
496.02	0.104	992040	keystroke_p	p	n/a
496.132	0.0955	992264	keystroke_g	g	n/a
496.3075	0.088	992615	keystroke_r	r	n/a
496.4675	0.096	992935	keystroke_a	a	n/a
496.5645	0.119	993129	keystroke_d	d	n/a
496.7395	0.064	993479	keystroke_i	i	n/a
496.9235	0.08	993847	keystroke_n	n	n/a
497.0275	0.112	994055	keystroke_g	g	n/a
497.1155	0.08	994231	keystroke_Key.space	Key.space	n/a
497.2835	0.104	994567	keystroke_b	b	n/a
497.3715	0.1125	994743	keystroke_r	r	n/a
497.54	0.088	995080	keystroke_a	a	n/a
497.804	0.144	995608	keystroke_z	z	n/a
498.044	0.0395	996088	keystroke_i	i	n/a
498.516	0.0955	997032	keystroke_l	l	n/a
498.7555	0.048	997511	keystroke_i	i	n/a
499.0195	0.072	998039	keystroke_i	i	n/a
499.3795	0.048	998759	keystroke_Key.backspace	Key.backspace	n/a
500.0915	0.064	1000183	keystroke_a	a	n/a
500.3315	0.088	1000663	keystroke_n	n	n/a
500.5155	0.088	1001031	keystroke_Key.space	Key.space	n/a
500.9955	0.088	1001991	keystroke_b	b	n/a
501.252	0.112	1002504	keystroke_i	i	n/a
501.388	0.088	1002776	keystroke_z	z	n/a
501.612	0.12	1003224	keystroke_a	a	n/a
501.884	0.072	1003768	keystroke_a	a	n/a
502.204	0.112	1004408	keystroke_r	r	n/a
502.5	0.032	1005000	keystroke_Key.backspace	Key.backspace	n/a
502.628	0.063	1005256	keystroke_Key.backspace	Key.backspace	n/a
502.756	0.08	1005512	keystroke_r	r	n/a
