onset	duration	sample	value	key	prompt_text
44.847	0.0875	89694	keystroke_l	l	n/a
44.9465	0.0965	89893	keystroke_f	f	n/a
45.1465	0.092	90293	keystroke_h	h	n/a
139.112	14.1275	278224	prompt	n/a	the quick brown fox jumps over a lazy dog\n
144.1925	0.12	288385	keystroke_t	t	n/a
144.3875	0.09	288775	keystroke_h	h	n/a
144.4475	0.077	288895	keystroke_e	e	n/a
144.567	0.1655	289134	keystroke_Key.space	Key.space	n/a
144.9575	0.1505	289915	keystroke_q	q	n/a
145.1825	0.09	290365	keystroke_u	u	n/a
145.4075	0.105	290815	keystroke_i	i	n/a
145.5425	0.15	291085	keystroke_c	c	n/a
145.7075	0.105	291415	keystroke_k	k	n/a
145.843	0.1495	291686	keystroke_Key.space	Key.space	n/a
146.6825	0.091	293365	keystroke_b	b	n/a
146.833	0.104	293666	keystroke_r	r	n/a
147.313	0.1045	294626	keystroke_o	o	n/a
147.433	0.09	294866	keystroke_w	w	n/a
147.5975	0.15	295195	keystroke_n	n	n/a
147.6875	0.136	295375	keystroke_Key.space	Key.space	n/a
147.8375	0.12	295675	keystroke_f	f	n/a
147.9735	0.089	295947	keystroke_o	o	n/a
148.1235	0.104	296247	keystroke_x	x	n/a
148.258	0.15	296516	keystroke_Key.space	Key.space	n/a
148.783	0.1045	297566	keystroke_j	j	n/a
148.978	0.0745	297956	keystroke_u	u	n/a
149.2025	0.0755	298405	keystroke_m	m	n/a
149.518	0.105	299036	keystroke_p	p	n/a
149.6525	0.1055	299305	keystroke_s	s	n/a
149.818	0.1345	299636	keystroke_Key.space	Key.space	n/a
150.1475	0.0605	300295	keystroke_o	o	n/a
150.298	0.0895	300596	keystroke_v	v	n/a
150.5825	0.1355	301165	keystroke_e	e	n/a
150.6585	0.1495	301317	keystroke_r	r	n/a
150.7625	0.1355	301525	keystroke_Key.space	Key.space	n/a
150.928	0.15	301856	keystroke_a	a	n/a
151.063	0.1195	302126	keystroke_Key.space	Key.space	n/a
151.483	0.0895	302966	keystroke_l	l	n/a
151.633	0.1195	303266	keystroke_a	a	n/a
151.873	0.1345	303746	keystroke_z	z	n/a
152.0375	0.165	304075	keystroke_y	y	n/a
152.143	0.15	304286	keystroke_Key.space	Key.space	n/a
152.3375	0.1205	304675	keystroke_d	d	n/a
152.473	0.09	304946	keystroke_o	o	n/a
152.6975	0.1055	305395	keystroke_g	g	n/a
153.088	0.1495	306176	keystroke_Key.enter	Key.enter	n/a
153.243	8.891	306486	prompt	n/a	creation secondary privileges retro\n
154.183	0.12	308366	keystroke_c	c	n/a
154.4525	0.1655	308905	keystroke_r	r	n/a
154.513	0.12	309026	keystroke_e	e	n/a
154.603	0.1645	309206	keystroke_a	a	n/a
154.723	0.12	309446	keystroke_t	t	n/a
154.948	0.18	309896	keystroke_i	i	n/a
155.0675	0.106	310135	keystroke_o	o	n/a
155.2325	0.1655	310465	keystroke_n	n	n/a
155.3375	0.136	310675	keystroke_Key.space	Key.space	n/a
155.818	0.165	311636	keystroke_s	s	n/a
156.433	0.1045	312866	keystroke_e	e	n/a
156.613	0.135	313226	keystroke_c	c	n/a
156.8675	0.0905	313735	keystroke_o	o	n/a
157.108	0.12	314216	keystroke_n	n	n/a
157.2125	0.075	314425	keystroke_d	d	n/a
157.393	0.15	314786	keystroke_a	a	n/a
157.498	0.12	314996	keystroke_r	r	n/a
157.558	0.2095	315116	keystroke_y	y	n/a
157.7085	0.15	315417	keystroke_Key.space	Key.space	n/a
158.0525	0.1355	316105	keystroke_p	p	n/a
158.233	0.1195	316466	keystroke_r	r	n/a
158.488	0.09	316976	keystroke_i	i	n/a
158.698	0.105	317396	keystroke_v	v	n/a
158.878	0.0895	317756	keystroke_i	i	n/a
159.103	0.075	318206	keystroke_l	l	n/a
159.2825	0.061	318565	keystroke_e	e	n/a
159.6875	0.1955	319375	keystroke_g	g	n/a
159.853	0.09	319706	keystroke_e	e	n/a
160.093	0.0895	320186	keystroke_s	s	n/a
160.303	0.195	320606	keystroke_Key.space	Key.space	n/a
160.918	0.1495	321836	keystroke_r	r	n/a
160.9775	0.1205	321955	keystroke_e	e	n/a
161.233	0.075	322466	keystroke_t	t	n/a
161.428	0.075	322856	keystroke_r	r	n/a
161.728	0.09	323456	keystroke_o	o	n/a
161.998	0.135	323996	keystroke_Key.enter	Key.enter	n/a
162.137	8.1425	324274	prompt	n/a	supervisor appreciation lauren href\n
163.063	0.15	326126	keystroke_s	s	n/a
163.453	0.0895	326906	keystroke_u	u	n/a
163.663	0.12	327326	keystroke_p	p	n/a
163.724	0.149	327448	keystroke_e	e	n/a
163.798	0.135	327596	keystroke_r	r	n/a
164.143	0.09	328286	keystroke_v	v	n/a
164.293	0.0745	328586	keystroke_i	i	n/a
164.3985	0.1195	328797	keystroke_s	s	n/a
164.713	0.0755	329426	keystroke_o	o	n/a
164.803	0.09	329606	keystroke_r	r	n/a
164.9245	0.1495	329849	keystroke_Key.space	Key.space	n/a
165.418	0.15	330836	keystroke_a	a	n/a
165.613	0.0755	331226	keystroke_p	p	n/a
165.793	0.0905	331586	keystroke_p	p	n/a
165.898	0.135	331796	keystroke_r	r	n/a
165.9435	0.1345	331887	keystroke_e	e	n/a
166.348	0.1195	332696	keystroke_c	c	n/a
166.543	0.075	333086	keystroke_i	i	n/a
166.633	0.18	333266	keystroke_a	a	n/a
166.783	0.135	333566	keystroke_t	t	n/a
166.888	0.1495	333776	keystroke_i	i	n/a
166.963	0.12	333926	keystroke_o	o	n/a
167.1585	0.1655	334317	keystroke_n	n	n/a
167.263	0.12	334526	keystroke_Key.space	Key.space	n/a
167.5185	0.1055	335037	keystroke_l	l	n/a
167.563	0.15	335126	keystroke_a	a	n/a
167.7885	0.12	335577	keystroke_r	r	n/a
167.938	0.09	335876	keystroke_u	u	n/a
168.118	0.0905	336236	keystroke_e	e	n/a
168.4185	0.1645	336837	keystroke_n	n	n/a
168.5235	0.1645	337047	keystroke_Key.space	Key.space	n/a
169.112	0.0935	338224	keystroke_h	h	n/a
169.3635	0.18	338727	keystroke_r	r	n/a
169.468	0.1655	338936	keystroke_e	e	n/a
169.753	0.1355	339506	keystroke_f	f	n/a
170.1285	0.15	340257	keystroke_Key.enter	Key.enter	n/a
170.283	10.1515	340566	prompt	n/a	lightning filtering closest was\n
171.4185	0.1345	342837	keystroke_l	l	n/a
171.9585	0.0745	343917	keystroke_i	i	n/a
172.0635	0.1045	344127	keystroke_g	g	n/a
172.1985	0.09	344397	keystroke_h	h	n/a
172.5435	0.1045	345087	keystroke_t	t	n/a
173.1885	0.09	346377	keystroke_n	n	n/a
173.368	0.0905	346736	keystroke_i	i	n/a
173.5785	0.0595	347157	keystroke_h	h	n/a
173.653	0.106	347306	keystroke_g	g	n/a
174.4035	0.075	348807	keystroke_Key.backspace	Key.backspace	n/a
174.568	0.1055	349136	keystroke_Key.backspace	Key.backspace	n/a
175.348	0.105	350696	keystroke_n	n	n/a
175.438	0.0905	350876	keystroke_g	g	n/a
175.6185	0.1345	351237	keystroke_Key.space	Key.space	n/a
176.2935	0.12	352587	keystroke_f	f	n/a
176.4285	0.075	352857	keystroke_i	i	n/a
176.624	0.1045	353248	keystroke_l	l	n/a
176.668	0.1355	353336	keystroke_t	t	n/a
176.8335	0.1645	353667	keystroke_e	e	n/a
176.9235	0.12	353847	keystroke_r	r	n/a
177.0585	0.075	354117	keystroke_i	i	n/a
177.2235	0.105	354447	keystroke_n	n	n/a
177.2985	0.0755	354597	keystroke_g	g	n/a
177.3885	0.135	354777	keystroke_Key.space	Key.space	n/a
177.5835	0.105	355167	keystroke_c	c	n/a
177.7035	0.09	355407	keystroke_l	l	n/a
177.9285	0.06	355857	keystroke_o	o	n/a
177.9735	0.24	355947	keystroke_s	s	n/a
178.0935	0.105	356187	keystroke_e	e	n/a
178.6335	0.195	357267	keystroke_s	s	n/a
178.7835	0.1195	357567	keystroke_t	t	n/a
178.918	0.1655	357836	keystroke_Key.space	Key.space	n/a
179.7135	0.195	359427	keystroke_w	w	n/a
179.953	0.1655	359906	keystroke_a	a	n/a
180.0435	0.12	360087	keystroke_s	s	n/a
180.2835	0.15	360567	keystroke_Key.enter	Key.enter	n/a
180.4375	12.177	360875	prompt	n/a	encoding analysis distributor permanent\n
181.168	0.106	362336	keystroke_e	e	n/a
181.6035	0.105	363207	keystroke_n	n	n/a
181.724	0.1195	363448	keystroke_c	c	n/a
181.8585	0.09	363717	keystroke_o	o	n/a
182.159	0.1195	364318	keystroke_d	d	n/a
182.353	0.0755	364706	keystroke_i	i	n/a
182.5335	0.1195	365067	keystroke_n	n	n/a
182.609	0.1045	365218	keystroke_g	g	n/a
182.728	0.1355	365456	keystroke_Key.space	Key.space	n/a
182.968	0.107	365936	keystroke_a	a	n/a
183.1485	0.0895	366297	keystroke_n	n	n/a
183.268	0.106	366536	keystroke_a	a	n/a
183.4035	0.09	366807	keystroke_l	l	n/a
183.6585	0.075	367317	keystroke_u	u	n/a
183.824	0.1045	367648	keystroke_s	s	n/a
184.303	0.0755	368606	keystroke_Key.backspace	Key.backspace	n/a
184.483	0.0755	368966	keystroke_Key.backspace	Key.backspace	n/a
185.2635	0.0895	370527	keystroke_y	y	n/a
185.5635	0.12	371127	keystroke_s	s	n/a
185.744	0.1045	371488	keystroke_i	i	n/a
185.8335	0.075	371667	keystroke_s	s	n/a
185.968	0.1505	371936	keystroke_Key.space	Key.space	n/a
186.3135	0.12	372627	keystroke_d	d	n/a
186.509	0.089	373018	keystroke_i	i	n/a
186.613	0.1355	373226	keystroke_s	s	n/a
186.9585	0.09	373917	keystroke_t	t	n/a
187.168	0.09	374336	keystroke_r	r	n/a
187.3035	0.09	374607	keystroke_i	i	n/a
188.7435	0.105	377487	keystroke_b	b	n/a
188.938	0.1055	377876	keystroke_u	u	n/a
189.148	0.105	378296	keystroke_t	t	n/a
189.3435	0.075	378687	keystroke_o	o	n/a
189.4485	0.1045	378897	keystroke_r	r	n/a
189.568	0.1505	379136	keystroke_Key.space	Key.space	n/a
190.138	0.121	380276	keystroke_p	p	n/a
190.2135	0.135	380427	keystroke_e	e	n/a
190.274	0.164	380548	keystroke_r	r	n/a
190.5435	0.1055	381087	keystroke_m	m	n/a
190.6485	0.1195	381297	keystroke_a	a	n/a
191.6385	0.105	383277	keystroke_n	n	n/a
191.7285	0.09	383457	keystroke_e	e	n/a
191.8635	0.09	383727	keystroke_n	n	n/a
192.0135	0.09	384027	keystroke_t	t	n/a
192.4635	0.15	384927	keystroke_Key.enter	Key.enter	n/a
192.618	8.0665	385236	prompt	n/a	limiting johns rankings usage\n
193.875	0.0885	387750	keystroke_l	l	n/a
194.0835	0.0755	388167	keystroke_i	i	n/a
194.234	0.0905	388468	keystroke_m	m	n/a
194.3835	0.105	388767	keystroke_i	i	n/a
194.5485	0.09	389097	keystroke_t	t	n/a
194.6535	0.0755	389307	keystroke_i	i	n/a
194.8335	0.12	389667	keystroke_n	n	n/a
194.9235	0.09	389847	keystroke_g	g	n/a
195.0435	0.165	390087	keystroke_Key.space	Key.space	n/a
195.4485	0.12	390897	keystroke_j	j	n/a
195.6595	0.074	391319	keystroke_o	o	n/a
195.9585	0.09	391917	keystroke_h	h	n/a
196.2885	0.09	392577	keystroke_n	n	n/a
196.3935	0.0745	392787	keystroke_s	s	n/a
196.574	0.15	393148	keystroke_Key.space	Key.space	n/a
197.2935	0.18	394587	keystroke_r	r	n/a
197.399	0.165	394798	keystroke_a	a	n/a
197.5785	0.09	395157	keystroke_n	n	n/a
197.759	0.0895	395518	keystroke_k	k	n/a
197.9685	0.06	395937	keystroke_i	i	n/a
198.1185	0.106	396237	keystroke_n	n	n/a
198.194	0.18	396388	keystroke_g	g	n/a
198.314	0.135	396628	keystroke_s	s	n/a
198.464	0.1345	396928	keystroke_Key.space	Key.space	n/a
199.1535	0.1055	398307	keystroke_u	u	n/a
199.244	0.18	398488	keystroke_s	s	n/a
199.364	0.165	398728	keystroke_a	a	n/a
199.544	0.165	399088	keystroke_g	g	n/a
199.619	0.1195	399238	keystroke_e	e	n/a
200.534	0.1495	401068	keystroke_Key.enter	Key.enter	n/a
200.6905	10.3745	401381	prompt	n/a	american athletes craft mixture\n
201.494	0.15	402988	keystroke_a	a	n/a
201.6745	0.0895	403349	keystroke_m	m	n/a
201.749	0.135	403498	keystroke_e	e	n/a
201.824	0.1345	403648	keystroke_r	r	n/a
202.064	0.0745	404128	keystroke_i	i	n/a
202.1685	0.135	404337	keystroke_c	c	n/a
202.214	0.165	404428	keystroke_a	a	n/a
202.424	0.075	404848	keystroke_Key.space	Key.space	n/a
202.814	0.105	405628	keystroke_Key.backspace	Key.backspace	n/a
203.144	0.1495	406288	keystroke_n	n	n/a
203.2335	0.1505	406467	keystroke_Key.space	Key.space	n/a
203.684	0.15	407368	keystroke_a	a	n/a
204.2535	0.1055	408507	keystroke_t	t	n/a
204.449	0.0895	408898	keystroke_h	h	n/a
205.724	0.12	411448	keystroke_l	l	n/a
205.829	0.15	411658	keystroke_e	e	n/a
206.0535	0.1505	412107	keystroke_t	t	n/a
206.129	0.15	412258	keystroke_e	e	n/a
206.714	0.1195	413428	keystroke_s	s	n/a
206.8185	0.1655	413637	keystroke_Key.space	Key.space	n/a
207.194	0.105	414388	keystroke_c	c	n/a
207.419	0.1495	414838	keystroke_r	r	n/a
207.494	0.18	414988	keystroke_a	a	n/a
207.764	0.0895	415528	keystroke_f	f	n/a
207.944	0.075	415888	keystroke_t	t	n/a
208.094	0.15	416188	keystroke_Key.space	Key.space	n/a
208.919	0.105	417838	keystroke_m	m	n/a
209.129	0.09	418258	keystroke_i	i	n/a
209.189	0.1495	418378	keystroke_x	x	n/a
209.6535	0.1205	419307	keystroke_t	t	n/a
209.834	0.09	419668	keystroke_u	u	n/a
209.9095	0.1345	419819	keystroke_r	r	n/a
209.9685	0.1355	419937	keystroke_e	e	n/a
210.8985	0.1655	421797	keystroke_Key.enter	Key.enter	n/a
211.068	9.5975	422136	prompt	n/a	montana king allow requires\n
212.3685	0.0905	424737	keystroke_m	m	n/a
212.564	0.0765	425128	keystroke_o	o	n/a
212.759	0.09	425518	keystroke_n	n	n/a
212.954	0.165	425908	keystroke_t	t	n/a
213.029	0.165	426058	keystroke_a	a	n/a
214.619	0.09	429238	keystroke_n	n	n/a
214.8435	0.1655	429687	keystroke_a	a	n/a
215.0385	0.1805	430077	keystroke_Key.space	Key.space	n/a
215.729	0.075	431458	keystroke_k	k	n/a
215.924	0.06	431848	keystroke_i	i	n/a
216.074	0.105	432148	keystroke_n	n	n/a
216.119	0.1195	432238	keystroke_g	g	n/a
216.614	0.135	433228	keystroke_Key.space	Key.space	n/a
217.094	0.135	434188	keystroke_a	a	n/a
217.2745	0.0745	434549	keystroke_l	l	n/a
217.4535	0.0905	434907	keystroke_l	l	n/a
217.89	0.074	435780	keystroke_o	o	n/a
217.979	0.105	435958	keystroke_w	w	n/a
218.159	0.1655	436318	keystroke_Key.space	Key.space	n/a
218.7745	0.179	437549	keystroke_r	r	n/a
218.8345	0.134	437669	keystroke_e	e	n/a
219.0295	0.1195	438059	keystroke_q	q	n/a
219.164	0.1045	438328	keystroke_u	u	n/a
219.3745	0.0895	438749	keystroke_i	i	n/a
219.449	0.18	438898	keystroke_r	r	n/a
219.524	0.135	439048	keystroke_e	e	n/a
219.884	0.1355	439768	keystroke_s	s	n/a
220.514	0.15	441028	keystroke_Key.enter	Key.enter	n/a
220.668	8.9515	441336	prompt	n/a	algorithms either expanded oakland\n
221.5495	0.1195	443099	keystroke_a	a	n/a
221.7445	0.135	443489	keystroke_l	l	n/a
221.9845	0.1055	443969	keystroke_g	g	n/a
222.254	0.0905	444508	keystroke_o	o	n/a
222.3895	0.1045	444779	keystroke_r	r	n/a
222.584	0.0905	445168	keystroke_i	i	n/a
222.7345	0.0755	445469	keystroke_t	t	n/a
222.869	0.0905	445738	keystroke_h	h	n/a
223.154	0.09	446308	keystroke_m	m	n/a
223.2745	0.12	446549	keystroke_s	s	n/a
223.439	0.135	446878	keystroke_Key.space	Key.space	n/a
223.8445	0.1195	447689	keystroke_e	e	n/a
224.19	0.074	448380	keystroke_i	i	n/a
224.294	0.1045	448588	keystroke_t	t	n/a
224.3835	0.0905	448767	keystroke_h	h	n/a
224.504	0.12	449008	keystroke_e	e	n/a
224.564	0.135	449128	keystroke_r	r	n/a
224.6685	0.1205	449337	keystroke_Key.space	Key.space	n/a
225.299	0.0915	450598	keystroke_e	e	n/a
225.509	0.1045	451018	keystroke_x	x	n/a
225.644	0.09	451288	keystroke_p	p	n/a
225.8685	0.1505	451737	keystroke_a	a	n/a
226.034	0.09	452068	keystroke_n	n	n/a
226.169	0.1045	452338	keystroke_d	d	n/a
226.379	0.0745	452758	keystroke_e	e	n/a
226.589	0.075	453178	keystroke_d	d	n/a
226.649	0.15	453298	keystroke_Key.space	Key.space	n/a
227.3835	0.0905	454767	keystroke_o	o	n/a
227.5335	0.135	455067	keystroke_a	a	n/a
228.4335	0.06	456867	keystroke_k	k	n/a
228.6435	0.0905	457287	keystroke_l	l	n/a
228.7485	0.1195	457497	keystroke_a	a	n/a
228.899	0.0895	457798	keystroke_n	n	n/a
229.0185	0.1195	458037	keystroke_d	d	n/a
229.483	0.1355	458966	keystroke_Key.enter	Key.enter	n/a
229.6225	7.122	459245	prompt	n/a	accurate lightbox hampshire adults\n
230.3235	0.18	460647	keystroke_a	a	n/a
230.4895	0.119	460979	keystroke_c	c	n/a
230.8335	0.1195	461667	keystroke_c	c	n/a
231.0435	0.09	462087	keystroke_u	u	n/a
231.1935	0.135	462387	keystroke_r	r	n/a
231.373	0.1655	462746	keystroke_a	a	n/a
231.4635	0.15	462927	keystroke_t	t	n/a
231.5385	0.1355	463077	keystroke_e	e	n/a
231.6585	0.15	463317	keystroke_Key.space	Key.space	n/a
232.018	0.09	464036	keystroke_l	l	n/a
232.2435	0.075	464487	keystroke_i	i	n/a
232.3035	0.09	464607	keystroke_g	g	n/a
232.438	0.0905	464876	keystroke_h	h	n/a
232.514	0.0755	465028	keystroke_t	t	n/a
232.8135	0.09	465627	keystroke_b	b	n/a
233.0085	0.105	466017	keystroke_o	o	n/a
233.1135	0.12	466227	keystroke_x	x	n/a
233.2485	0.1195	466497	keystroke_Key.space	Key.space	n/a
233.6385	0.09	467277	keystroke_h	h	n/a
233.7585	0.135	467517	keystroke_a	a	n/a
233.968	0.0905	467936	keystroke_m	m	n/a
234.1935	0.0745	468387	keystroke_p	p	n/a
234.2835	0.12	468567	keystroke_s	s	n/a
234.538	0.075	469076	keystroke_h	h	n/a
234.6585	0.12	469317	keystroke_i	i	n/a
234.7935	0.165	469587	keystroke_r	r	n/a
234.883	0.1355	469766	keystroke_e	e	n/a
235.0485	0.1645	470097	keystroke_Key.space	Key.space	n/a
235.6635	0.1345	471327	keystroke_a	a	n/a
235.784	0.1195	471568	keystroke_d	d	n/a
236.0085	0.09	472017	keystroke_u	u	n/a
236.2185	0.1195	472437	keystroke_l	l	n/a
236.2785	0.165	472557	keystroke_t	t	n/a
236.353	0.1955	472706	keystroke_s	s	n/a
236.624	0.1195	473248	keystroke_Key.enter	Key.enter	n/a
236.7475	6.493	473495	prompt	n/a	refer performance item cycles\n
237.673	0.1355	475346	keystroke_r	r	n/a
237.7485	0.135	475497	keystroke_e	e	n/a
237.9435	0.135	475887	keystroke_f	f	n/a
238.1235	0.12	476247	keystroke_e	e	n/a
238.1835	0.12	476367	keystroke_r	r	n/a
238.2885	0.15	476577	keystroke_Key.space	Key.space	n/a
238.6185	0.105	477237	keystroke_p	p	n/a
238.7535	0.15	477507	keystroke_e	e	n/a
238.8285	0.12	477657	keystroke_r	r	n/a
239.098	0.09	478196	keystroke_f	f	n/a
239.2185	0.09	478437	keystroke_o	o	n/a
239.7895	0.119	479579	keystroke_r	r	n/a
240.119	0.1045	480238	keystroke_m	m	n/a
240.1935	0.1345	480387	keystroke_a	a	n/a
240.3895	0.074	480779	keystroke_n	n	n/a
240.4935	0.15	480987	keystroke_c	c	n/a
240.5835	0.1065	481167	keystroke_e	e	n/a
240.6905	0.118	481381	keystroke_Key.space	Key.space	n/a
241.0335	0.09	482067	keystroke_i	i	n/a
241.153	0.1205	482306	keystroke_t	t	n/a
241.2135	0.09	482427	keystroke_e	e	n/a
241.364	0.1495	482728	keystroke_m	m	n/a
241.453	0.1205	482906	keystroke_Key.space	Key.space	n/a
241.739	0.1195	483478	keystroke_c	c	n/a
242.024	0.0745	484048	keystroke_y	y	n/a
242.084	0.1195	484168	keystroke_c	c	n/a
242.5635	0.1195	485127	keystroke_l	l	n/a
242.6985	0.0905	485397	keystroke_e	e	n/a
242.9085	0.105	485817	keystroke_s	s	n/a
243.1035	0.1345	486207	keystroke_Key.enter	Key.enter	n/a
243.244	10.886	486488	prompt	n/a	flame lifestyle towers reserve\n
244.2285	0.135	488457	keystroke_f	f	n/a
244.4235	0.15	488847	keystroke_l	l	n/a
244.5585	0.1505	489117	keystroke_a	a	n/a
245.128	0.1055	490256	keystroke_m	m	n/a
245.219	0.1045	490438	keystroke_e	e	n/a
245.3985	0.135	490797	keystroke_Key.space	Key.space	n/a
246.0885	0.105	492177	keystroke_l	l	n/a
246.3285	0.09	492657	keystroke_i	i	n/a
246.434	0.119	492868	keystroke_e	e	n/a
246.704	0.1345	493408	keystroke_f	f	n/a
247.214	0.0755	494428	keystroke_Key.backspace	Key.backspace	n/a
247.3935	0.105	494787	keystroke_Key.backspace	Key.backspace	n/a
247.4835	0.135	494967	keystroke_f	f	n/a
247.574	0.1195	495148	keystroke_e	e	n/a
248.099	0.1045	496198	keystroke_s	s	n/a
248.3685	0.09	496737	keystroke_t	t	n/a
248.759	0.105	497518	keystroke_y	y	n/a
249.0895	0.1195	498179	keystroke_l	l	n/a
249.164	0.0895	498328	keystroke_e	e	n/a
249.2985	0.1655	498597	keystroke_Key.space	Key.space	n/a
250.109	0.09	500218	keystroke_t	t	n/a
250.229	0.105	500458	keystroke_o	o	n/a
250.424	0.225	500848	keystroke_w	w	n/a
250.5895	0.164	501179	keystroke_e	e	n/a
250.6635	0.1955	501327	keystroke_r	r	n/a
250.904	0.1645	501808	keystroke_s	s	n/a
251.084	0.1345	502168	keystroke_Key.space	Key.space	n/a
251.834	0.18	503668	keystroke_r	r	n/a
251.909	0.12	503818	keystroke_e	e	n/a
252.164	0.0895	504328	keystroke_s	s	n/a
252.3895	0.2245	504779	keystroke_e	e	n/a
252.4645	0.2095	504929	keystroke_r	r	n/a
253.214	0.09	506428	keystroke_v	v	n/a
253.409	0.105	506818	keystroke_e	e	n/a
253.964	0.165	507928	keystroke_Key.enter	Key.enter	n/a
254.133	7.259	508266	prompt	n/a	frames efficient stan experiment\n
254.9685	0.1055	509937	keystroke_f	f	n/a
255.1495	0.1945	510299	keystroke_r	r	n/a
255.2245	0.1655	510449	keystroke_a	a	n/a
255.464	0.12	510928	keystroke_m	m	n/a
255.5245	0.1045	511049	keystroke_e	e	n/a
255.704	0.1055	511408	keystroke_s	s	n/a
255.794	0.15	511588	keystroke_Key.space	Key.space	n/a
256.349	0.1195	512698	keystroke_e	e	n/a
256.559	0.105	513118	keystroke_f	f	n/a
256.7245	0.1345	513449	keystroke_f	f	n/a
256.994	0.0745	513988	keystroke_i	i	n/a
257.084	0.0755	514168	keystroke_c	c	n/a
257.1895	0.0745	514379	keystroke_i	i	n/a
257.2945	0.0745	514589	keystroke_e	e	n/a
257.4145	0.105	514829	keystroke_n	n	n/a
257.5345	0.0895	515069	keystroke_t	t	n/a
257.64	0.134	515280	keystroke_Key.space	Key.space	n/a
257.94	0.1345	515880	keystroke_s	s	n/a
258.0595	0.12	516119	keystroke_t	t	n/a
258.1645	0.1195	516329	keystroke_a	a	n/a
258.3445	0.0895	516689	keystroke_n	n	n/a
258.4195	0.0895	516839	keystroke_d	d	n/a
258.554	0.1055	517108	keystroke_Key.space	Key.space	n/a
258.9445	0.0895	517889	keystroke_Key.backspace	Key.backspace	n/a
259.1245	0.09	518249	keystroke_Key.backspace	Key.backspace	n/a
259.3795	0.135	518759	keystroke_Key.space	Key.space	n/a
259.5895	0.075	519179	keystroke_e	e	n/a
259.799	0.0905	519598	keystroke_x	x	n/a
259.9045	0.105	519809	keystroke_p	p	n/a
260.0245	0.135	520049	keystroke_e	e	n/a
260.0995	0.135	520199	keystroke_r	r	n/a
260.2645	0.0895	520529	keystroke_i	i	n/a
260.4745	0.09	520949	keystroke_m	m	n/a
260.5195	0.105	521039	keystroke_e	e	n/a
260.7145	0.0755	521429	keystroke_n	n	n/a
260.7745	0.105	521549	keystroke_t	t	n/a
261.254	0.136	522508	keystroke_Key.enter	Key.enter	n/a
261.395	7.1055	522790	prompt	n/a	japan devices firmware checklist\n
262.6645	0.1045	525329	keystroke_j	j	n/a
262.784	0.1355	525568	keystroke_a	a	n/a
262.9945	0.12	525989	keystroke_p	p	n/a
263.1595	0.135	526319	keystroke_a	a	n/a
263.3095	0.165	526619	keystroke_n	n	n/a
263.4445	0.135	526889	keystroke_Key.space	Key.space	n/a
263.819	0.0905	527638	keystroke_d	d	n/a
264.014	0.0765	528028	keystroke_e	e	n/a
264.2405	0.059	528481	keystroke_v	v	n/a
264.3595	0.075	528719	keystroke_i	i	n/a
264.4495	0.195	528899	keystroke_c	c	n/a
264.5245	0.18	529049	keystroke_e	e	n/a
264.6295	0.15	529259	keystroke_s	s	n/a
264.8695	0.135	529739	keystroke_Key.space	Key.space	n/a
265.409	0.1355	530818	keystroke_f	f	n/a
265.6045	0.075	531209	keystroke_i	i	n/a
265.7095	0.105	531419	keystroke_r	r	n/a
265.9045	0.12	531809	keystroke_m	m	n/a
266.2495	0.1045	532499	keystroke_w	w	n/a
266.4295	0.1645	532859	keystroke_a	a	n/a
266.5045	0.135	533009	keystroke_r	r	n/a
266.579	0.1205	533158	keystroke_e	e	n/a
266.6845	0.135	533369	keystroke_Key.space	Key.space	n/a
266.9245	0.09	533849	keystroke_c	c	n/a
267.0295	0.09	534059	keystroke_h	h	n/a
267.1345	0.0895	534269	keystroke_e	e	n/a
267.2545	0.12	534509	keystroke_c	c	n/a
267.3905	0.089	534781	keystroke_k	k	n/a
267.705	0.1045	535410	keystroke_l	l	n/a
267.9445	0.09	535889	keystroke_i	i	n/a
268.0495	0.165	536099	keystroke_s	s	n/a
268.1845	0.09	536369	keystroke_t	t	n/a
268.3945	0.105	536789	keystroke_Key.enter	Key.enter	n/a
268.503	15.5985	537006	prompt	n/a	compile instrument owen parent\n
269.341	0.149	538682	keystroke_c	c	n/a
269.4595	0.09	538919	keystroke_o	o	n/a
269.6695	0.09	539339	keystroke_m	m	n/a
269.79	0.1195	539580	keystroke_p	p	n/a
270.0445	0.09	540089	keystroke_i	i	n/a
270.2545	0.1205	540509	keystroke_l	l	n/a
270.315	0.09	540630	keystroke_e	e	n/a
270.4345	0.1055	540869	keystroke_Key.space	Key.space	n/a
270.72	0.075	541440	keystroke_i	i	n/a
270.885	0.09	541770	keystroke_n	n	n/a
271.0645	0.1655	542129	keystroke_s	s	n/a
271.245	0.105	542490	keystroke_t	t	n/a
271.425	0.075	542850	keystroke_u	u	n/a
271.515	0.135	543030	keystroke_r	r	n/a
271.8905	0.0895	543781	keystroke_m	m	n/a
272.01	0.09	544020	keystroke_e	e	n/a
272.13	0.075	544260	keystroke_n	n	n/a
272.25	0.09	544500	keystroke_t	t	n/a
272.82	0.1205	545640	keystroke_Key.space	Key.space	n/a
273.135	0.09	546270	keystroke_o	o	n/a
273.3	0.21	546600	keystroke_w	w	n/a
273.435	0.1195	546870	keystroke_e	e	n/a
273.6	0.195	547200	keystroke_n	n	n/a
273.78	0.0895	547560	keystroke_Key.space	Key.space	n/a
276.435	0.09	552870	keystroke_Key.backspace	Key.backspace	n/a
276.63	0.075	553260	keystroke_Key.backspace	Key.backspace	n/a
276.795	0.0745	553590	keystroke_Key.backspace	Key.backspace	n/a
277.0795	0.1055	554159	keystroke_r	r	n/a
277.875	0.09	555750	keystroke_u	u	n/a
278.43	0.105	556860	keystroke_m	m	n/a
278.505	0.075	557010	keystroke_e	e	n/a
278.6545	0.075	557309	keystroke_n	n	n/a
278.7445	0.0905	557489	keystroke_t	t	n/a
278.895	0.12	557790	keystroke_Key.space	Key.space	n/a
281.025	0.105	562050	keystroke_o	o	n/a
281.115	0.12	562230	keystroke_w	w	n/a
281.76	0.105	563520	keystroke_e	e	n/a
281.91	0.15	563820	keystroke_n	n	n/a
281.985	0.165	563970	keystroke_Key.space	Key.space	n/a
282.585	0.1055	565170	keystroke_p	p	n/a
282.66	0.18	565320	keystroke_a	a	n/a
282.7655	0.1645	565531	keystroke_r	r	n/a
282.87	0.1205	565740	keystroke_e	e	n/a
283.065	0.09	566130	keystroke_n	n	n/a
283.1255	0.1195	566251	keystroke_t	t	n/a
283.9505	0.15	567901	keystroke_Key.enter	Key.enter	n/a
284.1045	11.142	568209	prompt	n/a	worship chassis municipal conducting\n
285.0155	0.1195	570031	keystroke_w	w	n/a
285.4205	0.09	570841	keystroke_o	o	n/a
285.5255	0.105	571051	keystroke_r	r	n/a
285.9755	0.105	571951	keystroke_s	s	n/a
286.0955	0.0895	572191	keystroke_h	h	n/a
286.2605	0.105	572521	keystroke_i	i	n/a
286.485	0.1355	572970	keystroke_p	p	n/a
286.6655	0.165	573331	keystroke_Key.space	Key.space	n/a
287.13	0.1205	574260	keystroke_c	c	n/a
287.2955	0.0745	574591	keystroke_h	h	n/a
287.415	0.1205	574830	keystroke_a	a	n/a
287.4465	0.134	574893	keystroke_s	s	n/a
287.67	0.1055	575340	keystroke_s	s	n/a
287.955	0.0755	575910	keystroke_i	i	n/a
288.0605	0.105	576121	keystroke_s	s	n/a
288.1805	0.1645	576361	keystroke_Key.space	Key.space	n/a
288.8255	0.12	577651	keystroke_m	m	n/a
288.9305	0.09	577861	keystroke_a	a	n/a
289.4405	0.09	578881	keystroke_Key.backspace	Key.backspace	n/a
289.7105	0.0595	579421	keystroke_u	u	n/a
289.9205	0.075	579841	keystroke_n	n	n/a
290.1005	0.09	580201	keystroke_i	i	n/a
290.2055	0.1495	580411	keystroke_c	c	n/a
290.5955	0.09	581191	keystroke_i	i	n/a
291.9755	0.09	583951	keystroke_p	p	n/a
292.1105	0.135	584221	keystroke_a	a	n/a
292.3805	0.0895	584761	keystroke_l	l	n/a
292.8605	0.1495	585721	keystroke_Key.space	Key.space	n/a
293.34	0.12	586680	keystroke_c	c	n/a
293.491	0.0895	586982	keystroke_o	o	n/a
293.715	0.091	587430	keystroke_n	n	n/a
293.806	0.1045	587612	keystroke_d	d	n/a
294.016	0.0745	588032	keystroke_u	u	n/a
294.1355	0.1045	588271	keystroke_c	c	n/a
294.407	0.0735	588814	keystroke_t	t	n/a
294.5255	0.075	589051	keystroke_i	i	n/a
294.707	0.1035	589414	keystroke_n	n	n/a
294.8255	0.09	589651	keystroke_g	g	n/a
295.1105	0.135	590221	keystroke_Key.enter	Key.enter	n/a
295.2495	9.027	590499	prompt	n/a	saving disaster integrated apps\n
296.085	0.1205	592170	keystroke_s	s	n/a
296.2355	0.165	592471	keystroke_a	a	n/a
296.3255	0.135	592651	keystroke_v	v	n/a
296.5805	0.0895	593161	keystroke_i	i	n/a
296.7605	0.135	593521	keystroke_n	n	n/a
296.7755	0.135	593551	keystroke_g	g	n/a
296.94	0.1205	593880	keystroke_Key.space	Key.space	n/a
297.1055	0.12	594211	keystroke_d	d	n/a
297.2555	0.09	594511	keystroke_i	i	n/a
297.3605	0.15	594721	keystroke_s	s	n/a
297.87	0.1205	595740	keystroke_a	a	n/a
298.1105	0.105	596221	keystroke_s	s	n/a
298.4255	0.105	596851	keystroke_t	t	n/a
298.6205	0.1495	597241	keystroke_e	e	n/a
298.6955	0.135	597391	keystroke_r	r	n/a
298.8455	0.165	597691	keystroke_Key.space	Key.space	n/a
299.67	0.0755	599340	keystroke_i	i	n/a
299.8355	0.105	599671	keystroke_n	n	n/a
299.88	0.1205	599760	keystroke_t	t	n/a
300.0605	0.1805	600121	keystroke_e	e	n/a
300.1355	0.15	600271	keystroke_r	r	n/a
300.4805	0.075	600961	keystroke_f	f	n/a
300.6605	0.1655	601321	keystroke_r	r	n/a
300.7505	0.21	601501	keystroke_a	a	n/a
301.2	0.0905	602400	keystroke_Key.backspace	Key.backspace	n/a
301.3955	0.075	602791	keystroke_Key.backspace	Key.backspace	n/a
301.546	0.1195	603092	keystroke_Key.backspace	Key.backspace	n/a
301.6955	0.1045	603391	keystroke_g	g	n/a
301.9055	0.15	603811	keystroke_r	r	n/a
301.9655	0.2405	603931	keystroke_a	a	n/a
302.191	0.195	604382	keystroke_t	t	n/a
302.2805	0.135	604561	keystroke_e	e	n/a
302.5505	0.105	605101	keystroke_d	d	n/a
303.316	0.15	606632	keystroke_Key.space	Key.space	n/a
303.466	0.1345	606932	keystroke_a	a	n/a
303.616	0.0895	607232	keystroke_p	p	n/a
303.7955	0.1055	607591	keystroke_p	p	n/a
303.961	0.1195	607922	keystroke_s	s	n/a
304.14	0.1355	608280	keystroke_Key.enter	Key.enter	n/a
304.2795	27.7175	608559	prompt	n/a	chip analyze germany arbitrary\n
305.2065	0.119	610413	keystroke_c	c	n/a
305.5655	0.105	611131	keystroke_h	h	n/a
305.701	0.106	611402	keystroke_i	i	n/a
305.8955	0.211	611791	keystroke_p	p	n/a
306.031	0.1495	612062	keystroke_Key.space	Key.space	n/a
306.2565	0.1195	612513	keystroke_a	a	n/a
306.466	0.1045	612932	keystroke_n	n	n/a
306.555	0.1655	613110	keystroke_a	a	n/a
306.796	0.1195	613592	keystroke_l	l	n/a
307.096	0.0895	614192	keystroke_y	y	n/a
307.2455	0.135	614491	keystroke_s	s	n/a
307.696	0.1045	615392	keystroke_Key.backspace	Key.backspace	n/a
307.7855	0.165	615571	keystroke_z	z	n/a
307.891	0.164	615782	keystroke_e	e	n/a
308.0405	0.15	616081	keystroke_Key.space	Key.space	n/a
308.5805	0.105	617161	keystroke_g	g	n/a
308.7905	0.1355	617581	keystroke_e	e	n/a
308.851	0.1645	617702	keystroke_r	r	n/a
309.0605	0.15	618121	keystroke_m	m	n/a
309.2855	0.0905	618571	keystroke_i	i	n/a
309.3905	0.15	618781	keystroke_a	a	n/a
309.526	0.075	619052	keystroke_n	n	n/a
309.7505	0.09	619501	keystroke_y	y	n/a
312.526	0.09	625052	keystroke_Key.backspace	Key.backspace	n/a
312.706	0.075	625412	keystroke_Key.backspace	Key.backspace	n/a
312.8705	0.0755	625741	keystroke_Key.backspace	Key.backspace	n/a
313.036	0.09	626072	keystroke_Key.backspace	Key.backspace	n/a
313.3055	0.135	626611	keystroke_a	a	n/a
313.576	0.09	627152	keystroke_n	n	n/a
313.831	0.1645	627662	keystroke_y	y	n/a
313.981	0.12	627962	keystroke_Key.space	Key.space	n/a
314.701	0.1495	629402	keystroke_a	a	n/a
314.926	0.12	629852	keystroke_r	r	n/a
315.2255	0.0905	630451	keystroke_b	b	n/a
315.4065	0.0895	630813	keystroke_i	i	n/a
315.526	0.105	631052	keystroke_t	t	n/a
315.766	0.1045	631532	keystroke_r	r	n/a
315.811	0.18	631622	keystroke_a	a	n/a
315.961	0.12	631922	keystroke_r	r	n/a
316.201	0.075	632402	keystroke_y	y	n/a
331.8915	0.1045	663783	keystroke_Key.enter	Key.enter	n/a
332.0025	8.7555	664005	prompt	n/a	valued accessories plenty theater\n
333.361	0.135	666722	keystroke_v	v	n/a
333.391	0.1805	666782	keystroke_a	a	n/a
333.871	0.075	667742	keystroke_u	u	n/a
333.991	0.09	667982	keystroke_e	e	n/a
334.171	0.1055	668342	keystroke_d	d	n/a
334.246	0.15	668492	keystroke_Key.space	Key.space	n/a
334.741	0.15	669482	keystroke_a	a	n/a
334.9365	0.1045	669873	keystroke_c	c	n/a
335.1155	0.18	670231	keystroke_c	c	n/a
335.2365	0.1345	670473	keystroke_e	e	n/a
335.2665	0.1645	670533	keystroke_s	s	n/a
335.521	0.1205	671042	keystroke_s	s	n/a
336.121	0.1045	672242	keystroke_o	o	n/a
336.271	0.105	672542	keystroke_r	r	n/a
336.526	0.0755	673052	keystroke_i	i	n/a
336.631	0.105	673262	keystroke_e	e	n/a
336.8255	0.0905	673651	keystroke_s	s	n/a
336.901	0.1805	673802	keystroke_Key.space	Key.space	n/a
337.426	0.075	674852	keystroke_p	p	n/a
337.651	0.1205	675302	keystroke_l	l	n/a
337.7855	0.0755	675571	keystroke_e	e	n/a
337.9955	0.0905	675991	keystroke_n	n	n/a
338.161	0.1045	676322	keystroke_t	t	n/a
338.4615	0.1645	676923	keystroke_y	y	n/a
338.5815	0.1795	677163	keystroke_Key.space	Key.space	n/a
339.2415	0.1045	678483	keystroke_t	t	n/a
339.3765	0.09	678753	keystroke_h	h	n/a
339.4665	0.09	678933	keystroke_e	e	n/a
339.571	0.18	679142	keystroke_a	a	n/a
339.8715	0.12	679743	keystroke_t	t	n/a
340.096	0.1355	680192	keystroke_e	e	n/a
340.157	0.1505	680314	keystroke_r	r	n/a
340.6065	0.1505	681213	keystroke_Key.enter	Key.enter	n/a
340.762	10.8555	681524	prompt	n/a	violence exclusive dozens workstation\n
342.0165	0.105	684033	keystroke_v	v	n/a
342.257	0.0745	684514	keystroke_i	i	n/a
342.4515	0.09	684903	keystroke_o	o	n/a
342.6165	0.1345	685233	keystroke_l	l	n/a
342.736	0.09	685472	keystroke_e	e	n/a
342.9315	0.075	685863	keystroke_n	n	n/a
343.111	0.1805	686222	keystroke_c	c	n/a
343.1865	0.165	686373	keystroke_e	e	n/a
343.307	0.1645	686614	keystroke_Key.space	Key.space	n/a
343.8915	0.0895	687783	keystroke_e	e	n/a
344.1015	0.1065	688203	keystroke_x	x	n/a
344.357	0.1195	688714	keystroke_c	c	n/a
344.5215	0.1045	689043	keystroke_l	l	n/a
344.7615	0.075	689523	keystroke_u	u	n/a
344.896	0.1355	689792	keystroke_s	s	n/a
345.4515	0.0895	690903	keystroke_i	i	n/a
345.526	0.135	691052	keystroke_v	v	n/a
345.7665	0.09	691533	keystroke_e	e	n/a
345.8715	0.1495	691743	keystroke_Key.space	Key.space	n/a
346.607	0.1345	693214	keystroke_d	d	n/a
346.8465	0.09	693693	keystroke_o	o	n/a
346.9515	0.165	693903	keystroke_z	z	n/a
347.1465	0.105	694293	keystroke_e	e	n/a
347.6715	0.09	695343	keystroke_n	n	n/a
347.7465	0.1045	695493	keystroke_s	s	n/a
347.8815	0.165	695763	keystroke_Key.space	Key.space	n/a
348.5565	0.09	697113	keystroke_w	w	n/a
348.7065	0.1045	697413	keystroke_o	o	n/a
348.9015	0.165	697803	keystroke_r	r	n/a
349.2465	0.09	698493	keystroke_k	k	n/a
349.5465	0.105	699093	keystroke_s	s	n/a
349.771	0.0905	699542	keystroke_t	t	n/a
349.8465	0.1495	699693	keystroke_a	a	n/a
349.9515	0.12	699903	keystroke_t	t	n/a
350.0865	0.165	700173	keystroke_i	i	n/a
350.1615	0.12	700323	keystroke_o	o	n/a
350.3715	0.105	700743	keystroke_n	n	n/a
351.4665	0.15	702933	keystroke_Key.enter	Key.enter	n/a
351.62	9.2075	703240	prompt	n/a	clusters badge burn free\n
352.4415	0.1505	704883	keystroke_c	c	n/a
352.5765	0.1195	705153	keystroke_l	l	n/a
352.8015	0.09	705603	keystroke_u	u	n/a
352.8765	0.165	705753	keystroke_s	s	n/a
353.011	0.1205	706022	keystroke_t	t	n/a
353.1765	0.165	706353	keystroke_e	e	n/a
353.2665	0.15	706533	keystroke_r	r	n/a
353.4315	0.105	706863	keystroke_s	s	n/a
353.5515	0.165	707103	keystroke_Key.space	Key.space	n/a
354.226	0.0755	708452	keystroke_v	v	n/a
354.2415	0.075	708483	keystroke_b	b	n/a
354.2865	0.135	708573	keystroke_a	a	n/a
355.5765	0.06	711153	keystroke_Key.backspace	Key.backspace	n/a
355.726	0.1355	711452	keystroke_Key.backspace	Key.backspace	n/a
355.9365	0.1205	711873	keystroke_b	b	n/a
355.9815	0.15	711963	keystroke_a	a	n/a
356.5815	0.075	713163	keystroke_Key.backspace	Key.backspace	n/a
356.7615	0.09	713523	keystroke_Key.backspace	Key.backspace	n/a
356.926	0.0905	713852	keystroke_Key.backspace	Key.backspace	n/a
357.0015	0.1945	714003	keystroke_b	b	n/a
357.108	0.1635	714216	keystroke_a	a	n/a
357.541	0.1055	715082	keystroke_d	d	n/a
357.8565	0.18	715713	keystroke_g	g	n/a
357.9915	0.1195	715983	keystroke_e	e	n/a
358.1565	0.15	716313	keystroke_Key.space	Key.space	n/a
358.8765	0.09	717753	keystroke_b	b	n/a
359.1165	0.075	718233	keystroke_u	u	n/a
359.222	0.1195	718444	keystroke_r	r	n/a
359.3565	0.165	718713	keystroke_n	n	n/a
359.4615	0.15	718923	keystroke_Key.space	Key.space	n/a
359.7915	0.1195	719583	keystroke_f	f	n/a
360.122	0.1645	720244	keystroke_r	r	n/a
360.211	0.1205	720422	keystroke_e	e	n/a
360.4065	0.1045	720813	keystroke_e	e	n/a
360.676	0.1505	721352	keystroke_Key.enter	Key.enter	n/a
360.831	8.2165	721662	prompt	n/a	poor associates park installing\n
361.8165	0.1195	723633	keystroke_p	p	n/a
362.0715	0.075	724143	keystroke_o	o	n/a
362.2365	0.1205	724473	keystroke_o	o	n/a
362.686	0.1355	725372	keystroke_r	r	n/a
362.8215	0.15	725643	keystroke_Key.space	Key.space	n/a
363.0465	0.1795	726093	keystroke_a	a	n/a
363.1515	0.1205	726303	keystroke_s	s	n/a
363.3765	0.09	726753	keystroke_s	s	n/a
363.6465	0.075	727293	keystroke_o	o	n/a
363.7665	0.165	727533	keystroke_c	c	n/a
363.9165	0.075	727833	keystroke_i	i	n/a
364.0365	0.18	728073	keystroke_a	a	n/a
364.1415	0.135	728283	keystroke_t	t	n/a
364.2165	0.12	728433	keystroke_e	e	n/a
364.4565	0.105	728913	keystroke_s	s	n/a
364.5915	0.165	729183	keystroke_Key.space	Key.space	n/a
365.326	0.1355	730652	keystroke_p	p	n/a
365.4465	0.195	730893	keystroke_a	a	n/a
365.581	0.1355	731162	keystroke_r	r	n/a
365.776	0.1805	731552	keystroke_k	k	n/a
365.8665	0.15	731733	keystroke_Key.space	Key.space	n/a
366.526	0.0905	733052	keystroke_i	i	n/a
366.7215	0.0895	733443	keystroke_n	n	n/a
366.826	0.1505	733652	keystroke_s	s	n/a
366.9615	0.12	733923	keystroke_t	t	n/a
367.0225	0.149	734045	keystroke_a	a	n/a
367.3515	0.0895	734703	keystroke_l	l	n/a
368.0415	0.09	736083	keystroke_l	l	n/a
368.311	0.06	736622	keystroke_i	i	n/a
368.4915	0.09	736983	keystroke_n	n	n/a
368.5065	0.1045	737013	keystroke_g	g	n/a
368.9115	0.135	737823	keystroke_Key.enter	Key.enter	n/a
369.0505	10.574	738101	prompt	n/a	inspections renewal accessory chubby\n
370.0225	0.1035	740045	keystroke_i	i	n/a
370.2315	0.12	740463	keystroke_n	n	n/a
370.3515	0.12	740703	keystroke_s	s	n/a
370.5315	0.09	741063	keystroke_p	p	n/a
370.5765	0.09	741153	keystroke_e	e	n/a
370.8915	0.0155	741783	keystroke_c	c	n/a
371.011	0.1055	742022	keystroke_t	t	n/a
371.1315	0.1645	742263	keystroke_i	i	n/a
371.2215	0.1045	742443	keystroke_o	o	n/a
371.4015	0.121	742803	keystroke_n	n	n/a
371.5065	0.1345	743013	keystroke_s	s	n/a
371.837	0.1645	743674	keystroke_Key.space	Key.space	n/a
372.257	0.1345	744514	keystroke_r	r	n/a
372.3165	0.135	744633	keystroke_e	e	n/a
372.5865	0.09	745173	keystroke_n	n	n/a
372.6765	0.1195	745353	keystroke_e	e	n/a
373.396	0.1205	746792	keystroke_w	w	n/a
373.6065	0.15	747213	keystroke_a	a	n/a
373.7415	0.1955	747483	keystroke_l	l	n/a
373.8465	0.1645	747693	keystroke_Key.space	Key.space	n/a
374.6265	0.1955	749253	keystroke_a	a	n/a
374.7915	0.1195	749583	keystroke_c	c	n/a
374.987	0.1945	749974	keystroke_c	c	n/a
375.107	0.1795	750214	keystroke_e	e	n/a
375.1665	0.135	750333	keystroke_s	s	n/a
375.3915	0.12	750783	keystroke_s	s	n/a
375.692	0.0895	751384	keystroke_o	o	n/a
375.8115	0.105	751623	keystroke_r	r	n/a
375.977	0.1195	751954	keystroke_y	y	n/a
376.892	0.1495	753784	keystroke_Key.space	Key.space	n/a
377.132	0.15	754264	keystroke_c	c	n/a
377.4315	0.0755	754863	keystroke_h	h	n/a
377.657	0.0745	755314	keystroke_u	u	n/a
377.882	0.075	755764	keystroke_b	b	n/a
378.032	0.0905	756064	keystroke_b	b	n/a
378.2115	0.1055	756423	keystroke_y	y	n/a
379.487	0.136	758974	keystroke_Key.enter	Key.enter	n/a
379.628	10.18	759256	prompt	n/a	expansion content states females\n
380.6265	0.0755	761253	keystroke_e	e	n/a
380.822	0.1045	761644	keystroke_x	x	n/a
381.0015	0.1055	762003	keystroke_p	p	n/a
381.1515	0.1205	762303	keystroke_a	a	n/a
381.347	0.12	762694	keystroke_n	n	n/a
381.587	0.09	763174	keystroke_s	s	n/a
381.7225	0.1945	763445	keystroke_i	i	n/a
381.8265	0.1205	763653	keystroke_o	o	n/a
382.052	0.165	764104	keystroke_n	n	n/a
382.1715	0.151	764343	keystroke_Key.space	Key.space	n/a
382.982	0.15	765964	keystroke_c	c	n/a
383.117	0.075	766234	keystroke_o	o	n/a
383.2965	0.1205	766593	keystroke_n	n	n/a
383.477	0.075	766954	keystroke_t	t	n/a
383.507	0.15	767014	keystroke_e	e	n/a
384.062	0.105	768124	keystroke_n	n	n/a
384.182	0.075	768364	keystroke_t	t	n/a
384.917	0.135	769834	keystroke_Key.space	Key.space	n/a
385.082	0.195	770164	keystroke_s	s	n/a
385.292	0.075	770584	keystroke_t	t	n/a
385.352	0.165	770704	keystroke_a	a	n/a
385.473	0.1635	770946	keystroke_t	t	n/a
385.5465	0.165	771093	keystroke_e	e	n/a
385.742	0.12	771484	keystroke_s	s	n/a
386.3265	0.1505	772653	keystroke_Key.space	Key.space	n/a
386.6265	0.1505	773253	keystroke_f	f	n/a
386.867	0.0895	773734	keystroke_e	e	n/a
387.107	0.1195	774214	keystroke_m	m	n/a
387.287	0.12	774574	keystroke_a	a	n/a
388.4265	0.1355	776853	keystroke_l	l	n/a
388.502	0.0905	777004	keystroke_e	e	n/a
388.7115	0.105	777423	keystroke_s	s	n/a
389.657	0.15	779314	keystroke_Key.enter	Key.enter	n/a
389.811	9.537	779622	prompt	n/a	reunion dietary powell logos\n
390.7965	0.1355	781593	keystroke_r	r	n/a
390.842	0.15	781684	keystroke_e	e	n/a
391.217	0.135	782434	keystroke_u	u	n/a
391.487	0.105	782974	keystroke_n	n	n/a
391.6965	0.077	783393	keystroke_i	i	n/a
391.9825	0.1195	783965	keystroke_o	o	n/a
392.223	0.164	784446	keystroke_n	n	n/a
392.357	0.135	784714	keystroke_Key.space	Key.space	n/a
392.987	0.105	785974	keystroke_d	d	n/a
393.257	0.09	786514	keystroke_i	i	n/a
393.8265	0.12	787653	keystroke_e	e	n/a
394.202	0.1205	788404	keystroke_t	t	n/a
394.473	0.179	788946	keystroke_a	a	n/a
394.622	0.12	789244	keystroke_r	r	n/a
394.787	0.165	789574	keystroke_y	y	n/a
395.507	0.1195	791014	keystroke_Key.space	Key.space	n/a
395.777	0.1195	791554	keystroke_p	p	n/a
396.377	0.105	792754	keystroke_o	o	n/a
396.677	0.27	793354	keystroke_w	w	n/a
396.842	0.135	793684	keystroke_e	e	n/a
397.277	0.046	794554	keystroke_l	l	n/a
397.4115	0.2105	794823	keystroke_l	l	n/a
397.532	0.1795	795064	keystroke_Key.space	Key.space	n/a
398.3115	0.105	796623	keystroke_l	l	n/a
398.552	0.0895	797104	keystroke_o	o	n/a
398.657	0.09	797314	keystroke_g	g	n/a
398.852	0.0745	797704	keystroke_o	o	n/a
398.987	0.105	797974	keystroke_s	s	n/a
399.2115	0.1355	798423	keystroke_Key.enter	Key.enter	n/a
399.3515	8.261	798703	prompt	n/a	offensive rica height garcia\n
400.532	0.105	801064	keystroke_o	o	n/a
400.682	0.0905	801364	keystroke_f	f	n/a
400.847	0.1345	801694	keystroke_f	f	n/a
400.907	0.165	801814	keystroke_e	e	n/a
401.162	0.0905	802324	keystroke_n	n	n/a
401.6265	0.0905	803253	keystroke_s	s	n/a
401.792	0.09	803584	keystroke_i	i	n/a
402.002	0.105	804004	keystroke_v	v	n/a
402.182	0.0895	804364	keystroke_e	e	n/a
402.377	0.1345	804754	keystroke_Key.space	Key.space	n/a
403.142	0.105	806284	keystroke_r	r	n/a
403.262	0.105	806524	keystroke_i	i	n/a
403.457	0.135	806914	keystroke_c	c	n/a
403.7115	0.12	807423	keystroke_a	a	n/a
404.207	0.135	808414	keystroke_Key.space	Key.space	n/a
404.687	0.09	809374	keystroke_h	h	n/a
404.762	0.09	809524	keystroke_e	e	n/a
404.9265	0.1055	809853	keystroke_i	i	n/a
405.047	0.076	810094	keystroke_g	g	n/a
405.137	0.105	810274	keystroke_h	h	n/a
405.2265	0.0905	810453	keystroke_t	t	n/a
405.4075	0.166	810815	keystroke_Key.space	Key.space	n/a
406.367	0.12	812734	keystroke_g	g	n/a
406.5925	0.149	813185	keystroke_a	a	n/a
406.667	0.1045	813334	keystroke_r	r	n/a
406.9365	0.1205	813873	keystroke_c	c	n/a
407.117	0.09	814234	keystroke_i	i	n/a
407.1925	0.134	814385	keystroke_a	a	n/a
407.477	0.1345	814954	keystroke_Key.enter	Key.enter	n/a
407.6155	9.673	815231	prompt	n/a	quantities society burn junction\n
408.6465	0.0905	817293	keystroke_q	q	n/a
408.797	0.09	817594	keystroke_u	u	n/a
408.917	0.1505	817834	keystroke_a	a	n/a
409.1115	0.0755	818223	keystroke_n	n	n/a
409.292	0.0755	818584	keystroke_t	t	n/a
409.4115	0.0755	818823	keystroke_i	i	n/a
409.547	0.105	819094	keystroke_t	t	n/a
409.623	0.0885	819246	keystroke_i	i	n/a
410.673	0.119	821346	keystroke_Key.backspace	Key.backspace	n/a
411.3325	0.1045	822665	keystroke_i	i	n/a
411.5425	0.0595	823085	keystroke_e	e	n/a
411.7075	0.1045	823415	keystroke_s	s	n/a
411.827	0.165	823654	keystroke_Key.space	Key.space	n/a
412.382	0.105	824764	keystroke_s	s	n/a
412.5925	0.104	825185	keystroke_o	o	n/a
412.682	0.1055	825364	keystroke_c	c	n/a
412.8625	0.09	825725	keystroke_i	i	n/a
412.967	0.0905	825934	keystroke_e	e	n/a
413.192	0.12	826384	keystroke_t	t	n/a
413.417	0.1655	826834	keystroke_y	y	n/a
413.523	0.164	827046	keystroke_Key.space	Key.space	n/a
414.2425	0.1045	828485	keystroke_b	b	n/a
414.482	0.0755	828964	keystroke_u	u	n/a
414.573	0.119	829146	keystroke_r	r	n/a
414.723	0.1505	829446	keystroke_n	n	n/a
414.827	0.15	829654	keystroke_Key.space	Key.space	n/a
415.6375	0.0895	831275	keystroke_j	j	n/a
415.8175	0.0595	831635	keystroke_u	u	n/a
415.9825	0.1195	831965	keystroke_n	n	n/a
416.0575	0.12	832115	keystroke_c	c	n/a
416.297	0.105	832594	keystroke_t	t	n/a
416.372	0.2105	832744	keystroke_i	i	n/a
416.462	0.165	832924	keystroke_o	o	n/a
416.7025	0.09	833405	keystroke_n	n	n/a
417.1525	0.135	834305	keystroke_Key.enter	Key.enter	n/a
417.292	9.4175	834584	prompt	n/a	permissions shirts where're individually\n
418.1875	0.12	836375	keystroke_p	p	n/a
418.2925	0.1345	836585	keystroke_e	e	n/a
418.3525	0.135	836705	keystroke_r	r	n/a
418.5625	0.105	837125	keystroke_s	s	n/a
419.1175	0.0755	838235	keystroke_Key.backspace	Key.backspace	n/a
419.327	0.1055	838654	keystroke_m	m	n/a
419.4925	0.0895	838985	keystroke_i	i	n/a
419.552	0.075	839104	keystroke_s	s	n/a
419.7325	0.09	839465	keystroke_s	s	n/a
419.8375	0.15	839675	keystroke_i	i	n/a
419.927	0.0905	839854	keystroke_o	o	n/a
420.108	0.089	840216	keystroke_n	n	n/a
420.197	0.0905	840394	keystroke_s	s	n/a
420.3025	0.12	840605	keystroke_Key.space	Key.space	n/a
420.558	0.1045	841116	keystroke_s	s	n/a
420.6625	0.075	841325	keystroke_h	h	n/a
420.842	0.0905	841684	keystroke_i	i	n/a
420.9175	0.0905	841835	keystroke_r	r	n/a
421.127	0.1355	842254	keystroke_t	t	n/a
421.2025	0.135	842405	keystroke_s	s	n/a
421.3825	0.135	842765	keystroke_Key.space	Key.space	n/a
421.6075	0.1045	843215	keystroke_w	w	n/a
421.697	0.076	843394	keystroke_h	h	n/a
421.8175	0.12	843635	keystroke_e	e	n/a
421.8925	0.18	843785	keystroke_r	r	n/a
422.012	0.1355	844024	keystroke_e	e	n/a
422.5235	0.1195	845047	keystroke_'	'	n/a
422.7925	0.1345	845585	keystroke_r	r	n/a
422.8675	0.105	845735	keystroke_e	e	n/a
423.0325	0.1645	846065	keystroke_Key.space	Key.space	n/a
423.4375	0.0895	846875	keystroke_i	i	n/a
423.6325	0.105	847265	keystroke_n	n	n/a
423.7825	0.105	847565	keystroke_d	d	n/a
424.0235	0.0885	848047	keystroke_i	i	n/a
424.2325	0.12	848465	keystroke_v	v	n/a
424.4575	0.075	848915	keystroke_i	i	n/a
424.5925	0.0745	849185	keystroke_d	d	n/a
425.4475	0.105	850895	keystroke_u	u	n/a
425.6875	0.12	851375	keystroke_a	a	n/a
425.8825	0.0745	851765	keystroke_l	l	n/a
426.0475	0.12	852095	keystroke_l	l	n/a
426.3175	0.09	852635	keystroke_y	y	n/a
426.6325	0.075	853265	keystroke_Key.enter	Key.enter	n/a
426.7125	8.156	853425	prompt	n/a	pages simulations industrial luis\n
427.6675	0.12	855335	keystroke_p	p	n/a
427.8325	0.135	855665	keystroke_a	a	n/a
427.9825	0.195	855965	keystroke_g	g	n/a
428.0875	0.165	856175	keystroke_e	e	n/a
428.297	0.1055	856594	keystroke_s	s	n/a
428.4175	0.15	856835	keystroke_Key.space	Key.space	n/a
428.7025	0.09	857405	keystroke_s	s	n/a
428.8075	0.075	857615	keystroke_i	i	n/a
428.9875	0.105	857975	keystroke_m	m	n/a
429.212	0.0755	858424	keystroke_u	u	n/a
429.4225	0.12	858845	keystroke_l	l	n/a
429.4975	0.21	858995	keystroke_a	a	n/a
429.6025	0.15	859205	keystroke_t	t	n/a
429.7235	0.179	859447	keystroke_i	i	n/a
429.7975	0.12	859595	keystroke_o	o	n/a
429.993	0.134	859986	keystroke_n	n	n/a
430.112	0.1205	860224	keystroke_s	s	n/a
430.2475	0.1645	860495	keystroke_Key.space	Key.space	n/a
430.5325	0.075	861065	keystroke_i	i	n/a
430.712	0.1055	861424	keystroke_n	n	n/a
430.8325	0.12	861665	keystroke_d	d	n/a
431.012	0.0905	862024	keystroke_u	u	n/a
431.297	0.1205	862594	keystroke_s	s	n/a
431.5225	0.135	863045	keystroke_t	t	n/a
432.0775	0.105	864155	keystroke_r	r	n/a
432.227	0.0905	864454	keystroke_i	i	n/a
432.347	0.15	864694	keystroke_a	a	n/a
432.512	0.1655	865024	keystroke_l	l	n/a
432.6025	0.165	865205	keystroke_Key.space	Key.space	n/a
433.502	0.1355	867004	keystroke_l	l	n/a
434.193	0.0895	868386	keystroke_u	u	n/a
434.388	0.1045	868776	keystroke_i	i	n/a
434.5375	0.105	869075	keystroke_s	s	n/a
434.7625	0.105	869525	keystroke_Key.enter	Key.enter	n/a
434.872	8.6065	869744	prompt	n/a	guardian dispatch sensors bradford\n
435.827	0.1055	871654	keystroke_g	g	n/a
436.1575	0.075	872315	keystroke_u	u	n/a
436.2475	0.1795	872495	keystroke_a	a	n/a
436.3375	0.135	872675	keystroke_r	r	n/a
436.623	0.089	873246	keystroke_d	d	n/a
436.7875	0.075	873575	keystroke_i	i	n/a
436.923	0.1345	873846	keystroke_a	a	n/a
437.027	0.1655	874054	keystroke_n	n	n/a
437.5825	0.15	875165	keystroke_Key.space	Key.space	n/a
437.9425	0.105	875885	keystroke_d	d	n/a
438.0775	0.09	876155	keystroke_i	i	n/a
438.1975	0.135	876395	keystroke_s	s	n/a
438.6775	0.105	877355	keystroke_p	p	n/a
438.812	0.2255	877624	keystroke_a	a	n/a
439.023	0.1195	878046	keystroke_t	t	n/a
439.3075	0.1195	878615	keystroke_c	c	n/a
439.382	0.1655	878764	keystroke_h	h	n/a
439.488	0.1495	878976	keystroke_Key.space	Key.space	n/a
439.7875	0.1805	879575	keystroke_s	s	n/a
439.9375	0.1045	879875	keystroke_e	e	n/a
440.1025	0.0895	880205	keystroke_n	n	n/a
440.208	0.104	880416	keystroke_s	s	n/a
440.4475	0.0755	880895	keystroke_o	o	n/a
440.5525	0.12	881105	keystroke_r	r	n/a
440.7175	0.105	881435	keystroke_s	s	n/a
440.7325	0.105	881465	keystroke_Key.space	Key.space	n/a
441.8125	0.1195	883625	keystroke_b	b	n/a
441.993	0.2545	883986	keystroke_r	r	n/a
442.097	0.2255	884194	keystroke_a	a	n/a
442.4875	0.105	884975	keystroke_d	d	n/a
442.7875	0.09	885575	keystroke_f	f	n/a
442.923	0.0745	885846	keystroke_o	o	n/a
442.983	0.105	885966	keystroke_r	r	n/a
443.193	0.119	886386	keystroke_d	d	n/a
443.3735	0.104	886747	keystroke_Key.enter	Key.enter	n/a
443.4825	7.481	886965	prompt	n/a	massive funding corner talks\n
444.408	0.119	888816	keystroke_m	m	n/a
444.483	0.1495	888966	keystroke_a	a	n/a
444.5725	0.105	889145	keystroke_s	s	n/a
444.7675	0.12	889535	keystroke_s	s	n/a
444.873	0.1045	889746	keystroke_i	i	n/a
444.993	0.149	889986	keystroke_c	c	n/a
445.473	0.0895	890946	keystroke_Key.backspace	Key.backspace	n/a
445.5475	0.12	891095	keystroke_v	v	n/a
445.727	0.0905	891454	keystroke_e	e	n/a
445.8175	0.15	891635	keystroke_Key.space	Key.space	n/a
446.1775	0.09	892355	keystroke_f	f	n/a
446.2825	0.075	892565	keystroke_u	u	n/a
446.4925	0.09	892985	keystroke_n	n	n/a
446.5675	0.106	893135	keystroke_d	d	n/a
446.6875	0.075	893375	keystroke_i	i	n/a
446.8525	0.1205	893705	keystroke_n	n	n/a
446.897	0.091	893794	keystroke_g	g	n/a
447.003	0.1195	894006	keystroke_Key.space	Key.space	n/a
447.1825	0.12	894365	keystroke_c	c	n/a
447.2875	0.075	894575	keystroke_o	o	n/a
447.4225	0.12	894845	keystroke_r	r	n/a
447.648	0.0895	895296	keystroke_n	n	n/a
447.723	0.089	895446	keystroke_d	d	n/a
447.888	0.1045	895776	keystroke_e	e	n/a
447.963	0.1195	895926	keystroke_r	r	n/a
448.038	0.1495	896076	keystroke_Key.space	Key.space	n/a
448.908	0.074	897816	keystroke_Key.backspace	Key.backspace	n/a
449.073	0.075	898146	keystroke_Key.backspace	Key.backspace	n/a
449.2525	0.0745	898505	keystroke_Key.backspace	Key.backspace	n/a
449.4175	0.135	898835	keystroke_Key.backspace	Key.backspace	n/a
449.627	0.1055	899254	keystroke_e	e	n/a
449.6725	0.135	899345	keystroke_r	r	n/a
449.763	0.149	899526	keystroke_Key.space	Key.space	n/a
450.1075	0.12	900215	keystroke_t	t	n/a
450.1675	0.1505	900335	keystroke_a	a	n/a
450.318	0.0895	900636	keystroke_l	l	n/a
450.5425	0.1055	901085	keystroke_k	k	n/a
450.6925	0.1045	901385	keystroke_s	s	n/a
450.8575	0.105	901715	keystroke_Key.enter	Key.enter	n/a
450.968	6.896	901936	prompt	n/a	paperback we'd it circuits\n
451.908	0.1045	903816	keystroke_p	p	n/a
451.968	0.1195	903936	keystroke_a	a	n/a
452.1775	0.12	904355	keystroke_p	p	n/a
452.283	0.1495	904566	keystroke_e	e	n/a
452.3425	0.15	904685	keystroke_r	r	n/a
453.2125	0.0755	906425	keystroke_b	b	n/a
453.258	0.165	906516	keystroke_a	a	n/a
453.363	0.1495	906726	keystroke_c	c	n/a
453.543	0.195	907086	keystroke_k	k	n/a
453.678	0.105	907356	keystroke_Key.space	Key.space	n/a
454.323	0.195	908646	keystroke_w	w	n/a
454.443	0.135	908886	keystroke_e	e	n/a
454.803	0.105	909606	keystroke_'	'	n/a
454.893	0.1045	909786	keystroke_d	d	n/a
455.0275	0.1505	910055	keystroke_Key.space	Key.space	n/a
455.4625	0.0905	910925	keystroke_i	i	n/a
455.538	0.0895	911076	keystroke_t	t	n/a
455.658	0.135	911316	keystroke_Key.space	Key.space	n/a
455.9275	0.1205	911855	keystroke_c	c	n/a
456.393	0.09	912786	keystroke_i	i	n/a
456.558	0.0895	913116	keystroke_r	r	n/a
456.8585	0.1045	913717	keystroke_c	c	n/a
456.993	0.075	913986	keystroke_u	u	n/a
457.2185	0.1045	914437	keystroke_i	i	n/a
457.323	0.1045	914646	keystroke_t	t	n/a
457.518	0.12	915036	keystroke_s	s	n/a
457.743	0.12	915486	keystroke_Key.enter	Key.enter	n/a
457.8665	11.325	915733	prompt	n/a	genetics contrary openings chemical\n
458.6725	0.1055	917345	keystroke_g	g	n/a
458.7925	0.1205	917585	keystroke_e	e	n/a
458.958	0.12	917916	keystroke_n	n	n/a
459.063	0.09	918126	keystroke_e	e	n/a
459.2125	0.1055	918425	keystroke_t	t	n/a
459.333	0.09	918666	keystroke_i	i	n/a
459.5275	0.1955	919055	keystroke_c	c	n/a
459.7975	0.0755	919595	keystroke_s	s	n/a
460.4125	0.1355	920825	keystroke_Key.space	Key.space	n/a
460.7735	0.149	921547	keystroke_c	c	n/a
460.9385	0.074	921877	keystroke_o	o	n/a
461.1475	0.1055	922295	keystroke_n	n	n/a
461.268	0.075	922536	keystroke_t	t	n/a
461.433	0.1645	922866	keystroke_r	r	n/a
461.523	0.18	923046	keystroke_a	a	n/a
462.768	0.105	925536	keystroke_r	r	n/a
462.918	0.1945	925836	keystroke_y	y	n/a
463.0525	0.1505	926105	keystroke_Key.space	Key.space	n/a
463.518	0.2095	927036	keystroke_o	o	n/a
463.653	0.15	927306	keystroke_p	p	n/a
463.789	0.074	927578	keystroke_e	e	n/a
463.9385	0.1195	927877	keystroke_n	n	n/a
464.178	0.075	928356	keystroke_i	i	n/a
464.3275	0.1505	928655	keystroke_n	n	n/a
464.433	0.09	928866	keystroke_g	g	n/a
464.538	0.12	929076	keystroke_Key.space	Key.space	n/a
465.243	0.075	930486	keystroke_Key.backspace	Key.backspace	n/a
465.378	0.105	930756	keystroke_s	s	n/a
465.468	0.1495	930936	keystroke_Key.space	Key.space	n/a
465.8875	0.106	931775	keystroke_c	c	n/a
466.053	0.0745	932106	keystroke_h	h	n/a
466.1125	0.077	932225	keystroke_e	e	n/a
466.593	0.1195	933186	keystroke_m	m	n/a
466.848	0.09	933696	keystroke_i	i	n/a
466.953	0.15	933906	keystroke_c	c	n/a
467.058	0.12	934116	keystroke_a	a	n/a
467.148	0.1645	934296	keystroke_l	l	n/a
467.253	0.135	934506	keystroke_Key.space	Key.space	n/a
468.138	0.12	936276	keystroke_Key.backspace	Key.backspace	n/a
469.038	0.1505	938076	keystroke_Key.enter	Key.enter	n/a
469.195	8.41	938390	prompt	n/a	handbags denied enhancing narrow\n
470.208	0.1045	940416	keystroke_h	h	n/a
470.2975	0.1205	940595	keystroke_a	a	n/a
470.463	0.09	940926	keystroke_n	n	n/a
470.583	0.09	941166	keystroke_d	d	n/a
471.033	0.09	942066	keystroke_b	b	n/a
471.108	0.21	942216	keystroke_a	a	n/a
471.4975	0.1205	942995	keystroke_g	g	n/a
471.663	0.105	943326	keystroke_s	s	n/a
471.7975	0.1355	943595	keystroke_Key.space	Key.space	n/a
472.278	0.075	944556	keystroke_d	d	n/a
472.443	0.075	944886	keystroke_e	e	n/a
472.5935	0.104	945187	keystroke_n	n	n/a
472.818	0.075	945636	keystroke_i	i	n/a
473.088	0.09	946176	keystroke_e	e	n/a
473.283	0.09	946566	keystroke_d	d	n/a
473.3575	0.1655	946715	keystroke_Key.space	Key.space	n/a
473.9125	0.0755	947825	keystroke_e	e	n/a
474.048	0.105	948096	keystroke_n	n	n/a
474.288	0.09	948576	keystroke_h	h	n/a
474.4375	0.1055	948875	keystroke_a	a	n/a
474.693	0.09	949386	keystroke_n	n	n/a
474.873	0.12	949746	keystroke_c	c	n/a
475.398	0.075	950796	keystroke_i	i	n/a
475.578	0.1195	951156	keystroke_n	n	n/a
475.653	0.09	951306	keystroke_g	g	n/a
475.788	0.1645	951576	keystroke_Key.space	Key.space	n/a
476.463	0.12	952926	keystroke_n	n	n/a
476.568	0.24	953136	keystroke_a	a	n/a
476.733	0.12	953466	keystroke_r	r	n/a
476.9125	0.1205	953825	keystroke_r	r	n/a
477.0935	0.0895	954187	keystroke_o	o	n/a
477.1975	0.1055	954395	keystroke_w	w	n/a
477.483	0.12	954966	keystroke_Key.enter	Key.enter	n/a
477.609	8.605	955218	prompt	n/a	supporting hoping military march\n
478.489	0.119	956978	keystroke_s	s	n/a
478.653	0.105	957306	keystroke_u	u	n/a
478.878	0.09	957756	keystroke_p	p	n/a
479.043	0.105	958086	keystroke_p	p	n/a
479.283	0.075	958566	keystroke_o	o	n/a
479.343	0.105	958686	keystroke_r	r	n/a
479.553	0.09	959106	keystroke_t	t	n/a
479.673	0.09	959346	keystroke_i	i	n/a
479.853	0.1205	959706	keystroke_n	n	n/a
479.958	0.09	959916	keystroke_g	g	n/a
480.093	0.1345	960186	keystroke_Key.space	Key.space	n/a
480.5735	0.1045	961147	keystroke_h	h	n/a
481.143	0.135	962286	keystroke_o	o	n/a
481.4435	0.1045	962887	keystroke_p	p	n/a
481.668	0.075	963336	keystroke_i	i	n/a
481.8485	0.105	963697	keystroke_n	n	n/a
481.968	0.09	963936	keystroke_g	g	n/a
482.133	0.12	964266	keystroke_Key.space	Key.space	n/a
482.7785	0.105	965557	keystroke_m	m	n/a
482.9895	0.0885	965979	keystroke_i	i	n/a
483.1835	0.105	966367	keystroke_l	l	n/a
483.408	0.075	966816	keystroke_i	i	n/a
483.4975	0.1055	966995	keystroke_t	t	n/a
483.858	0.1655	967716	keystroke_a	a	n/a
484.1435	0.1345	968287	keystroke_r	r	n/a
484.3835	0.105	968767	keystroke_y	y	n/a
484.998	0.105	969996	keystroke_Key.space	Key.space	n/a
485.2835	0.09	970567	keystroke_m	m	n/a
485.343	0.1805	970686	keystroke_a	a	n/a
485.448	0.12	970896	keystroke_r	r	n/a
485.718	0.1205	971436	keystroke_c	c	n/a
485.853	0.0745	971706	keystroke_h	h	n/a
486.093	0.1195	972186	keystroke_Key.enter	Key.enter	n/a
486.2175	5.742	972435	prompt	n/a	know solo latina chester\n
487.068	0.121	974136	keystroke_k	k	n/a
487.3235	0.1195	974647	keystroke_n	n	n/a
487.5335	0.075	975067	keystroke_o	o	n/a
487.639	0.1045	975278	keystroke_w	w	n/a
487.7585	0.1045	975517	keystroke_Key.space	Key.space	n/a
487.9835	0.106	975967	keystroke_s	s	n/a
488.1035	0.09	976207	keystroke_o	o	n/a
488.298	0.0915	976596	keystroke_l	l	n/a
488.5235	0.06	977047	keystroke_o	o	n/a
488.8085	0.165	977617	keystroke_Key.space	Key.space	n/a
489.288	0.1205	978576	keystroke_l	l	n/a
489.3635	0.1945	978727	keystroke_a	a	n/a
489.5435	0.09	979087	keystroke_t	t	n/a
489.693	0.075	979386	keystroke_i	i	n/a
489.8735	0.105	979747	keystroke_n	n	n/a
489.993	0.135	979986	keystroke_a	a	n/a
490.113	0.1505	980226	keystroke_Key.space	Key.space	n/a
490.7435	0.105	981487	keystroke_c	c	n/a
490.8635	0.0895	981727	keystroke_h	h	n/a
490.9685	0.0895	981937	keystroke_e	e	n/a
491.1785	0.1495	982357	keystroke_s	s	n/a
491.313	0.1205	982626	keystroke_t	t	n/a
491.4785	0.1495	982957	keystroke_e	e	n/a
491.5535	0.15	983107	keystroke_r	r	n/a
491.8385	0.12	983677	keystroke_Key.enter	Key.enter	n/a
491.9625	11.322	983925	prompt	n/a	nato discuss workforce experience\n
492.9785	0.105	985957	keystroke_n	n	n/a
493.113	0.1955	986226	keystroke_a	a	n/a
493.2635	0.105	986527	keystroke_t	t	n/a
493.639	0.1795	987278	keystroke_o	o	n/a
493.7585	0.15	987517	keystroke_Key.space	Key.space	n/a
494.1035	0.09	988207	keystroke_d	d	n/a
494.239	0.089	988478	keystroke_i	i	n/a
494.3585	0.135	988717	keystroke_s	s	n/a
494.539	0.119	989078	keystroke_c	c	n/a
494.718	0.0755	989436	keystroke_u	u	n/a
494.8085	0.0895	989617	keystroke_s	s	n/a
494.9585	0.0895	989917	keystroke_s	s	n/a
495.1535	0.15	990307	keystroke_Key.space	Key.space	n/a
495.768	0.1355	991536	keystroke_w	w	n/a
495.9635	0.09	991927	keystroke_o	o	n/a
496.0685	0.09	992137	keystroke_r	r	n/a
496.2035	0.045	992407	keystroke_k	k	n/a
496.6535	0.105	993307	keystroke_f	f	n/a
496.8635	0.06	993727	keystroke_o	o	n/a
496.9535	0.12	993907	keystroke_r	r	n/a
497.268	0.122	994536	keystroke_c	c	n/a
497.4335	0.09	994867	keystroke_e	e	n/a
497.539	0.1645	995078	keystroke_Key.space	Key.space	n/a
498.3035	0.06	996607	keystroke_e	e	n/a
498.498	0.091	996996	keystroke_x	x	n/a
498.6485	0.091	997297	keystroke_p	p	n/a
498.7685	0.1345	997537	keystroke_e	e	n/a
498.8585	0.135	997717	keystroke_r	r	n/a
499.098	0.0915	998196	keystroke_i	i	n/a
499.339	0.074	998678	keystroke_n	n	n/a
499.3835	0.105	998767	keystroke_e	e	n/a
499.6085	0.135	999217	keystroke_c	c	n/a
499.698	0.1205	999396	keystroke_e	e	n/a
500.823	0.075	1001646	keystroke_Key.backspace	Key.backspace	n/a
501.0035	0.075	1002007	keystroke_Key.backspace	Key.backspace	n/a
501.1835	0.09	1002367	keystroke_Key.backspace	Key.backspace	n/a
501.3635	0.06	1002727	keystroke_Key.backspace	Key.backspace	n/a
501.6335	0.075	1003267	keystroke_e	e	n/a
502.5785	0.105	1005157	keystroke_n	n	n/a
502.698	0.1355	1005396	keystroke_c	c	n/a
502.8035	0.12	1005607	keystroke_e	e	n/a
503.1635	0.12	1006327	keystroke_Key.enter	Key.enter	n/a
503.2875	11.877	1006575	prompt	n/a	nebraska wherever bias trend\n
504.1835	0.12	1008367	keystroke_n	n	n/a
504.289	0.0895	1008578	keystroke_e	e	n/a
504.7685	0.0745	1009537	keystroke_b	b	n/a
504.859	0.1645	1009718	keystroke_r	r	n/a
504.9335	0.1645	1009867	keystroke_a	a	n/a
505.2035	0.0895	1010407	keystroke_s	s	n/a
505.3535	0.0745	1010707	keystroke_k	k	n/a
507.0035	0.105	1014007	keystroke_a	a	n/a
507.1835	0.165	1014367	keystroke_Key.space	Key.space	n/a
507.4835	0.135	1014967	keystroke_w	w	n/a
507.7385	0.0895	1015477	keystroke_h	h	n/a
507.8435	0.135	1015687	keystroke_e	e	n/a
507.9335	0.1795	1015867	keystroke_r	r	n/a
508.0535	0.12	1016107	keystroke_e	e	n/a
508.413	0.09	1016826	keystroke_e	e	n/a
508.624	0.0895	1017248	keystroke_v	v	n/a
508.7735	0.12	1017547	keystroke_e	e	n/a
508.8485	0.135	1017697	keystroke_r	r	n/a
508.998	0.1205	1017996	keystroke_Key.space	Key.space	n/a
510.513	0.0905	1021026	keystroke_Key.backspace	Key.backspace	n/a
510.7085	0.075	1021417	keystroke_Key.backspace	Key.backspace	n/a
510.8905	0.073	1021781	keystroke_Key.backspace	Key.backspace	n/a
511.053	0.0905	1022106	keystroke_Key.backspace	Key.backspace	n/a
511.2485	0.09	1022497	keystroke_Key.backspace	Key.backspace	n/a
511.413	0.1205	1022826	keystroke_v	v	n/a
511.609	0.119	1023218	keystroke_e	e	n/a
511.669	0.1495	1023338	keystroke_r	r	n/a
511.7435	0.15	1023487	keystroke_Key.space	Key.space	n/a
512.764	0.1045	1025528	keystroke_b	b	n/a
513.0335	0.1055	1026067	keystroke_i	i	n/a
513.198	0.1655	1026396	keystroke_a	a	n/a
513.3035	0.15	1026607	keystroke_s	s	n/a
513.4685	0.1355	1026937	keystroke_Key.space	Key.space	n/a
513.8735	0.105	1027747	keystroke_t	t	n/a
514.0835	0.165	1028167	keystroke_r	r	n/a
514.1435	0.1345	1028287	keystroke_e	e	n/a
514.4435	0.09	1028887	keystroke_n	n	n/a
514.8485	0.1205	1029697	keystroke_d	d	n/a
515.0435	0.12	1030087	keystroke_Key.enter	Key.enter	n/a
515.1675	5.625	1030335	prompt	n/a	crew offers mars liberia\n
515.989	0.1045	1031978	keystroke_c	c	n/a
516.198	0.1505	1032396	keystroke_r	r	n/a
516.228	0.2555	1032456	keystroke_e	e	n/a
516.3185	0.09	1032637	keystroke_a	a	n/a
516.858	0.0755	1033716	keystroke_Key.backspace	Key.backspace	n/a
516.9185	0.105	1033837	keystroke_w	w	n/a
517.0535	0.15	1034107	keystroke_Key.space	Key.space	n/a
517.3235	0.0895	1034647	keystroke_o	o	n/a
517.428	0.0755	1034856	keystroke_f	f	n/a
517.5935	0.075	1035187	keystroke_f	f	n/a
517.698	0.1355	1035396	keystroke_e	e	n/a
517.7735	0.135	1035547	keystroke_r	r	n/a
517.9395	0.0885	1035879	keystroke_s	s	n/a
518.0435	0.135	1036087	keystroke_Key.space	Key.space	n/a
518.328	0.1055	1036656	keystroke_m	m	n/a
518.3585	0.1655	1036717	keystroke_a	a	n/a
518.4785	0.1345	1036957	keystroke_r	r	n/a
518.659	0.1045	1037318	keystroke_s	s	n/a
518.779	0.119	1037558	keystroke_Key.space	Key.space	n/a
518.989	0.1195	1037978	keystroke_l	l	n/a
519.2735	0.075	1038547	keystroke_i	i	n/a
519.589	0.105	1039178	keystroke_b	b	n/a
519.828	0.1355	1039656	keystroke_e	e	n/a
519.9035	0.135	1039807	keystroke_r	r	n/a
520.144	0.075	1040288	keystroke_i	i	n/a
520.2335	0.135	1040467	keystroke_a	a	n/a
520.6685	0.1225	1041337	keystroke_Key.enter	Key.enter	n/a
520.796	6.803	1041592	prompt	n/a	danish costa passes sydney\n
521.5535	0.165	1043107	keystroke_d	d	n/a
521.6585	0.15	1043317	keystroke_a	a	n/a
521.8535	0.0895	1043707	keystroke_n	n	n/a
522.0635	0.0755	1044127	keystroke_i	i	n/a
522.154	0.0895	1044308	keystroke_s	s	n/a
522.274	0.1645	1044548	keystroke_h	h	n/a
522.3785	0.1495	1044757	keystroke_Key.space	Key.space	n/a
522.7685	0.15	1045537	keystroke_c	c	n/a
522.889	0.1045	1045778	keystroke_o	o	n/a
523.069	0.0745	1046138	keystroke_s	s	n/a
523.563	0.135	1047126	keystroke_t	t	n/a
523.6535	0.12	1047307	keystroke_a	a	n/a
523.8185	0.165	1047637	keystroke_Key.space	Key.space	n/a
524.2535	0.105	1048507	keystroke_p	p	n/a
524.328	0.1355	1048656	keystroke_a	a	n/a
524.419	0.089	1048838	keystroke_s	s	n/a
524.5835	0.18	1049167	keystroke_s	s	n/a
524.7335	0.12	1049467	keystroke_e	e	n/a
524.913	0.0905	1049826	keystroke_s	s	n/a
525.0185	0.15	1050037	keystroke_Key.space	Key.space	n/a
525.2735	0.12	1050547	keystroke_s	s	n/a
525.768	0.075	1051536	keystroke_y	y	n/a
526.2485	0.0905	1052497	keystroke_d	d	n/a
526.624	0.104	1053248	keystroke_n	n	n/a
526.9535	0.09	1053907	keystroke_e	e	n/a
527.1635	0.09	1054327	keystroke_y	y	n/a
527.494	0.104	1054988	keystroke_Key.enter	Key.enter	n/a
527.602	10.0925	1055204	prompt	n/a	equipped lesbian aggressive volunteer\n
528.513	0.2105	1057026	keystroke_e	e	n/a
528.8895	0.1035	1057779	keystroke_q	q	n/a
529.068	0.091	1058136	keystroke_u	u	n/a
529.413	0.0905	1058826	keystroke_i	i	n/a
529.6535	0.075	1059307	keystroke_p	p	n/a
529.8185	0.105	1059637	keystroke_p	p	n/a
529.9085	0.075	1059817	keystroke_e	e	n/a
530.1185	0.06	1060237	keystroke_d	d	n/a
530.1935	0.1195	1060387	keystroke_Key.space	Key.space	n/a
530.4035	0.1355	1060807	keystroke_l	l	n/a
530.5235	0.0895	1061047	keystroke_e	e	n/a
530.7635	0.09	1061527	keystroke_s	s	n/a
531.3335	0.09	1062667	keystroke_b	b	n/a
531.513	0.0905	1063026	keystroke_i	i	n/a
531.6485	0.1495	1063297	keystroke_a	a	n/a
531.8435	0.165	1063687	keystroke_n	n	n/a
531.9485	0.1495	1063897	keystroke_Key.space	Key.space	n/a
532.6085	0.1045	1065217	keystroke_a	a	n/a
532.7735	0.09	1065547	keystroke_g	g	n/a
532.9535	0.09	1065907	keystroke_g	g	n/a
533.1485	0.1495	1066297	keystroke_r	r	n/a
533.2085	0.1195	1066417	keystroke_e	e	n/a
533.4035	0.0745	1066807	keystroke_s	s	n/a
533.598	0.091	1067196	keystroke_s	s	n/a
533.839	0.074	1067678	keystroke_i	i	n/a
533.9285	0.105	1067857	keystroke_v	v	n/a
534.108	0.09	1068216	keystroke_e	e	n/a
534.213	0.1655	1068426	keystroke_Key.space	Key.space	n/a
534.8735	0.09	1069747	keystroke_v	v	n/a
535.0535	0.09	1070107	keystroke_o	o	n/a
535.2485	0.1345	1070497	keystroke_l	l	n/a
535.489	0.1045	1070978	keystroke_u	u	n/a
535.8035	0.075	1071607	keystroke_n	n	n/a
536.4785	0.1345	1072957	keystroke_t	t	n/a
536.7335	0.09	1073467	keystroke_e	e	n/a
536.9135	0.12	1073827	keystroke_e	e	n/a
537.1685	0.12	1074337	keystroke_r	r	n/a
537.5735	0.12	1075147	keystroke_Key.enter	Key.enter	n/a
537.6975	9.7475	1075395	prompt	n/a	travels bachelor frost japan\n
538.5635	0.105	1077127	keystroke_t	t	n/a
538.744	0.1945	1077488	keystroke_r	r	n/a
538.8335	0.1795	1077667	keystroke_a	a	n/a
539.1485	0.105	1078297	keystroke_v	v	n/a
539.389	0.0595	1078778	keystroke_e	e	n/a
539.628	0.1055	1079256	keystroke_l	l	n/a
539.719	0.0745	1079438	keystroke_s	s	n/a
539.839	0.1645	1079678	keystroke_Key.space	Key.space	n/a
540.454	0.12	1080908	keystroke_b	b	n/a
540.5135	0.195	1081027	keystroke_a	a	n/a
540.619	0.15	1081238	keystroke_c	c	n/a
540.784	0.105	1081568	keystroke_k	k	n/a
540.949	0.09	1081898	keystroke_e	e	n/a
541.369	0.1045	1082738	keystroke_l	l	n/a
541.819	0.0745	1083638	keystroke_Key.backspace	Key.backspace	n/a
541.984	0.075	1083968	keystroke_Key.backspace	Key.backspace	n/a
542.1485	0.09	1084297	keystroke_Key.backspace	Key.backspace	n/a
542.494	0.0895	1084988	keystroke_h	h	n/a
543.154	0.09	1086308	keystroke_e	e	n/a
543.379	0.105	1086758	keystroke_l	l	n/a
543.619	0.0895	1087238	keystroke_o	o	n/a
543.724	0.1045	1087448	keystroke_r	r	n/a
543.949	0.1495	1087898	keystroke_Key.space	Key.space	n/a
544.219	0.09	1088438	keystroke_f	f	n/a
544.4135	0.0755	1088827	keystroke_r	r	n/a
544.549	0.075	1089098	keystroke_o	o	n/a
544.9985	0.1205	1089997	keystroke_s	s	n/a
545.179	0.1345	1090358	keystroke_t	t	n/a
545.2985	0.1505	1090597	keystroke_Key.space	Key.space	n/a
545.9135	0.1205	1091827	keystroke_j	j	n/a
546.0485	0.1355	1092097	keystroke_a	a	n/a
546.379	0.1195	1092758	keystroke_p	p	n/a
546.769	0.1195	1093538	keystroke_a	a	n/a
546.949	0.1055	1093898	keystroke_n	n	n/a
547.324	0.12	1094648	keystroke_Key.enter	Key.enter	n/a
547.4475	8.878	1094895	prompt	n/a	highland violations trade seconds\n
548.449	0.105	1096898	keystroke_h	h	n/a
548.554	0.1195	1097108	keystroke_a	a	n/a
549.0935	0.0905	1098187	keystroke_i	i	n/a
549.2135	0.0905	1098427	keystroke_g	g	n/a
549.6935	0.0755	1099387	keystroke_Key.backspace	Key.backspace	n/a
549.859	0.09	1099718	keystroke_Key.backspace	Key.backspace	n/a
550.024	0.06	1100048	keystroke_Key.backspace	Key.backspace	n/a
550.279	0.09	1100558	keystroke_i	i	n/a
550.4285	0.1055	1100857	keystroke_g	g	n/a
550.519	0.075	1101038	keystroke_h	h	n/a
551.044	0.09	1102088	keystroke_l	l	n/a
551.164	0.1345	1102328	keystroke_a	a	n/a
551.3285	0.1055	1102657	keystroke_n	n	n/a
551.419	0.105	1102838	keystroke_d	d	n/a
551.539	0.166	1103078	keystroke_Key.space	Key.space	n/a
551.794	0.1045	1103588	keystroke_v	v	n/a
551.9285	0.09	1103857	keystroke_i	i	n/a
552.559	0.1045	1105118	keystroke_o	o	n/a
552.949	0.135	1105898	keystroke_l	l	n/a
553.099	0.18	1106198	keystroke_a	a	n/a
553.2345	0.1195	1106469	keystroke_t	t	n/a
553.339	0.18	1106678	keystroke_i	i	n/a
553.444	0.12	1106888	keystroke_o	o	n/a
553.655	0.119	1107310	keystroke_n	n	n/a
553.759	0.09	1107518	keystroke_s	s	n/a
553.864	0.12	1107728	keystroke_Key.space	Key.space	n/a
554.119	0.12	1108238	keystroke_t	t	n/a
554.2985	0.1805	1108597	keystroke_r	r	n/a
554.374	0.1655	1108748	keystroke_a	a	n/a
554.6135	0.0755	1109227	keystroke_d	d	n/a
554.779	0.075	1109558	keystroke_e	e	n/a
554.8395	0.1655	1109679	keystroke_Key.space	Key.space	n/a
555.064	0.225	1110128	keystroke_s	s	n/a
555.2135	0.1205	1110427	keystroke_e	e	n/a
555.469	0.12	1110938	keystroke_c	c	n/a
555.604	0.075	1111208	keystroke_o	o	n/a
555.784	0.12	1111568	keystroke_n	n	n/a
555.8585	0.1505	1111717	keystroke_d	d	n/a
555.949	0.135	1111898	keystroke_s	s	n/a
556.189	0.135	1112378	keystroke_Key.enter	Key.enter	n/a
556.3285	8.786	1112657	prompt	n/a	ratings geography legend almost\n
557.434	0.21	1114868	keystroke_r	r	n/a
557.5985	0.226	1115197	keystroke_a	a	n/a
557.7935	0.0905	1115587	keystroke_t	t	n/a
557.9285	0.0905	1115857	keystroke_i	i	n/a
558.124	0.09	1116248	keystroke_n	n	n/a
558.169	0.15	1116338	keystroke_g	g	n/a
558.274	0.12	1116548	keystroke_s	s	n/a
558.364	0.1495	1116728	keystroke_Key.space	Key.space	n/a
558.754	0.105	1117508	keystroke_g	g	n/a
558.874	0.135	1117748	keystroke_e	e	n/a
559.114	0.0755	1118228	keystroke_o	o	n/a
559.624	0.1045	1119248	keystroke_g	g	n/a
559.819	0.15	1119638	keystroke_r	r	n/a
559.909	0.135	1119818	keystroke_a	a	n/a
560.074	0.12	1120148	keystroke_p	p	n/a
560.6285	0.1205	1121257	keystroke_h	h	n/a
560.8695	0.104	1121739	keystroke_y	y	n/a
561.244	0.135	1122488	keystroke_Key.space	Key.space	n/a
561.8135	0.1205	1123627	keystroke_l	l	n/a
561.874	0.075	1123748	keystroke_e	e	n/a
562.069	0.1505	1124138	keystroke_g	g	n/a
562.2345	0.0895	1124469	keystroke_e	e	n/a
562.4135	0.0755	1124827	keystroke_n	n	n/a
562.9985	0.0905	1125997	keystroke_d	d	n/a
563.119	0.15	1126238	keystroke_Key.space	Key.space	n/a
563.405	0.1195	1126810	keystroke_a	a	n/a
563.6895	0.15	1127379	keystroke_l	l	n/a
564.4095	0.104	1128819	keystroke_m	m	n/a
564.619	0.075	1129238	keystroke_o	o	n/a
564.6795	0.164	1129359	keystroke_s	s	n/a
564.8135	0.1205	1129627	keystroke_t	t	n/a
565.009	0.1045	1130018	keystroke_Key.enter	Key.enter	n/a
565.118	8.8475	1130236	prompt	n/a	wave complexity easy thompson\n
565.956	0.133	1131912	keystroke_w	w	n/a
566.2395	0.1495	1132479	keystroke_a	a	n/a
566.344	0.1355	1132688	keystroke_v	v	n/a
566.5095	0.1045	1133019	keystroke_e	e	n/a
566.644	0.1505	1133288	keystroke_Key.space	Key.space	n/a
566.9895	0.135	1133979	keystroke_c	c	n/a
567.1545	0.09	1134309	keystroke_o	o	n/a
567.3645	0.0905	1134729	keystroke_m	m	n/a
567.514	0.0755	1135028	keystroke_p	p	n/a
567.709	0.09	1135418	keystroke_l	l	n/a
567.799	0.1055	1135598	keystroke_e	e	n/a
568.0845	0.105	1136169	keystroke_x	x	n/a
568.355	0.0895	1136710	keystroke_i	i	n/a
568.4745	0.075	1136949	keystroke_t	t	n/a
568.6095	0.075	1137219	keystroke_y	y	n/a
569.405	0.1505	1138810	keystroke_Key.space	Key.space	n/a
569.5695	0.075	1139139	keystroke_e	e	n/a
569.7495	0.1645	1139499	keystroke_a	a	n/a
569.8395	0.15	1139679	keystroke_s	s	n/a
570.0195	0.15	1140039	keystroke_y	y	n/a
570.1845	0.135	1140369	keystroke_Key.space	Key.space	n/a
570.4545	0.1195	1140909	keystroke_t	t	n/a
570.529	0.1055	1141058	keystroke_h	h	n/a
570.9495	0.12	1141899	keystroke_o	o	n/a
571.2495	0.106	1142499	keystroke_m	m	n/a
571.5345	0.105	1143069	keystroke_s	s	n/a
571.7895	0.0155	1143579	keystroke_p	p	n/a
572.2395	0.0745	1144479	keystroke_Key.backspace	Key.backspace	n/a
572.405	0.0745	1144810	keystroke_Key.backspace	Key.backspace	n/a
572.809	0.105	1145618	keystroke_p	p	n/a
573.0945	0.165	1146189	keystroke_s	s	n/a
573.3195	0.09	1146639	keystroke_o	o	n/a
573.5445	0.105	1147089	keystroke_n	n	n/a
573.86	0.1045	1147720	keystroke_Key.enter	Key.enter	n/a
573.97	11.021	1147940	prompt	n/a	thought certified prohibited visited\n
574.805	0.1195	1149610	keystroke_t	t	n/a
574.9395	0.0895	1149879	keystroke_h	h	n/a
575.105	0.1345	1150210	keystroke_o	o	n/a
575.2095	0.1045	1150419	keystroke_u	u	n/a
575.2845	0.105	1150569	keystroke_g	g	n/a
575.4795	0.09	1150959	keystroke_h	h	n/a
575.689	0.1205	1151378	keystroke_t	t	n/a
575.8555	0.15	1151711	keystroke_Key.space	Key.space	n/a
576.334	0.1205	1152668	keystroke_c	c	n/a
576.5595	0.12	1153119	keystroke_e	e	n/a
576.62	0.1045	1153240	keystroke_r	r	n/a
576.799	0.0905	1153598	keystroke_t	t	n/a
576.9195	0.09	1153839	keystroke_i	i	n/a
577.0695	0.105	1154139	keystroke_f	f	n/a
577.2195	0.09	1154439	keystroke_i	i	n/a
577.3395	0.105	1154679	keystroke_e	e	n/a
577.5645	0.0905	1155129	keystroke_d	d	n/a
577.639	0.1355	1155278	keystroke_Key.space	Key.space	n/a
578.5245	0.0895	1157049	keystroke_p	p	n/a
578.8555	0.0885	1157711	keystroke_r	r	n/a
579.0795	0.09	1158159	keystroke_o	o	n/a
579.9345	0.06	1159869	keystroke_h	h	n/a
580.0555	0.104	1160111	keystroke_i	i	n/a
581.1195	0.075	1162239	keystroke_b	b	n/a
581.2845	0.105	1162569	keystroke_i	i	n/a
581.3745	0.135	1162749	keystroke_t	t	n/a
582.0495	0.0755	1164099	keystroke_e	e	n/a
582.229	0.0905	1164458	keystroke_d	d	n/a
582.3495	0.1495	1164699	keystroke_Key.space	Key.space	n/a
582.6195	0.09	1165239	keystroke_v	v	n/a
582.755	0.044	1165510	keystroke_i	i	n/a
582.814	0.091	1165628	keystroke_s	s	n/a
582.9495	0.075	1165899	keystroke_i	i	n/a
583.0395	0.105	1166079	keystroke_t	t	n/a
583.174	0.0755	1166348	keystroke_i	i	n/a
584.2695	0.075	1168539	keystroke_Key.backspace	Key.backspace	n/a
584.3895	0.09	1168779	keystroke_e	e	n/a
584.599	0.0905	1169198	keystroke_d	d	n/a
584.8695	0.1205	1169739	keystroke_Key.enter	Key.enter	n/a
584.9945	12.132	1169989	prompt	n/a	introduction include switzerland combat\n
585.8595	0.0895	1171719	keystroke_i	i	n/a
586.0555	0.119	1172111	keystroke_n	n	n/a
586.2495	0.09	1172499	keystroke_g	g	n/a
586.4445	0.0895	1172889	keystroke_r	r	n/a
586.579	0.0905	1173158	keystroke_o	o	n/a
586.7595	0.0465	1173519	keystroke_d	d	n/a
587.06	0.0595	1174120	keystroke_Key.backspace	Key.backspace	n/a
587.2565	0.028	1174513	keystroke_Key.backspace	Key.backspace	n/a
587.39	0.0595	1174780	keystroke_Key.backspace	Key.backspace	n/a
587.555	0.1345	1175110	keystroke_Key.backspace	Key.backspace	n/a
587.7345	0.06	1175469	keystroke_t	t	n/a
587.8995	0.09	1175799	keystroke_r	r	n/a
588.0795	0.105	1176159	keystroke_o	o	n/a
588.7245	0.12	1177449	keystroke_d	d	n/a
588.935	0.075	1177870	keystroke_u	u	n/a
589.0095	0.1195	1178019	keystroke_c	c	n/a
589.2345	0.09	1178469	keystroke_t	t	n/a
589.355	0.15	1178710	keystroke_i	i	n/a
589.414	0.1055	1178828	keystroke_o	o	n/a
589.6245	0.1805	1179249	keystroke_n	n	n/a
589.729	0.1355	1179458	keystroke_Key.space	Key.space	n/a
590.0145	0.0755	1180029	keystroke_i	i	n/a
590.1645	0.1205	1180329	keystroke_n	n	n/a
590.2555	0.1345	1180511	keystroke_c	c	n/a
590.405	0.1045	1180810	keystroke_l	l	n/a
590.5845	0.121	1181169	keystroke_u	u	n/a
590.69	0.0895	1181380	keystroke_d	d	n/a
590.87	0.0745	1181740	keystroke_e	e	n/a
590.96	0.15	1181920	keystroke_Key.space	Key.space	n/a
591.455	0.1045	1182910	keystroke_s	s	n/a
591.905	0.1195	1183810	keystroke_w	w	n/a
592.1295	0.105	1184259	keystroke_i	i	n/a
592.22	0.1195	1184440	keystroke_t	t	n/a
592.7295	0.12	1185459	keystroke_z	z	n/a
592.9995	0.1205	1185999	keystroke_e	e	n/a
593.075	0.135	1186150	keystroke_r	r	n/a
593.465	0.12	1186930	keystroke_l	l	n/a
593.54	0.15	1187080	keystroke_a	a	n/a
593.75	0.105	1187500	keystroke_n	n	n/a
593.84	0.0745	1187680	keystroke_d	d	n/a
593.975	0.15	1187950	keystroke_Key.space	Key.space	n/a
594.455	0.135	1188910	keystroke_c	c	n/a
594.59	0.075	1189180	keystroke_o	o	n/a
594.7845	0.121	1189569	keystroke_m	m	n/a
595.685	0.09	1191370	keystroke_b	b	n/a
595.745	0.18	1191490	keystroke_a	a	n/a
595.865	0.1345	1191730	keystroke_t	t	n/a
596.99	0.135	1193980	keystroke_Key.enter	Key.enter	n/a
597.1295	11.9965	1194259	prompt	n/a	forests clarke compounds nvidia\n
597.8295	0.1355	1195659	keystroke_f	f	n/a
598.0555	0.089	1196111	keystroke_o	o	n/a
598.1445	0.1205	1196289	keystroke_r	r	n/a
598.4595	0.0905	1196919	keystroke_e	e	n/a
598.64	0.15	1197280	keystroke_s	s	n/a
598.7295	0.1355	1197459	keystroke_t	t	n/a
598.9995	0.0905	1197999	keystroke_s	s	n/a
599.12	0.165	1198240	keystroke_Key.space	Key.space	n/a
599.465	0.1345	1198930	keystroke_c	c	n/a
599.6145	0.1055	1199229	keystroke_l	l	n/a
599.735	0.1945	1199470	keystroke_a	a	n/a
599.8995	0.135	1199799	keystroke_r	r	n/a
600.38	0.09	1200760	keystroke_k	k	n/a
600.455	0.12	1200910	keystroke_e	e	n/a
600.6495	0.1355	1201299	keystroke_Key.space	Key.space	n/a
601.01	0.1195	1202020	keystroke_c	c	n/a
601.0995	0.1055	1202199	keystroke_o	o	n/a
601.28	0.105	1202560	keystroke_m	m	n/a
601.445	0.075	1202890	keystroke_p	p	n/a
602.42	0.105	1204840	keystroke_o	o	n/a
602.6295	0.06	1205259	keystroke_u	u	n/a
602.825	0.1045	1205650	keystroke_n	n	n/a
602.8995	0.1505	1205799	keystroke_d	d	n/a
602.99	0.105	1205980	keystroke_s	s	n/a
603.14	0.1195	1206280	keystroke_Key.space	Key.space	n/a
603.7845	0.1055	1207569	keystroke_n	n	n/a
604.01	0.1045	1208020	keystroke_v	v	n/a
604.2345	0.0905	1208469	keystroke_i	i	n/a
604.37	0.105	1208740	keystroke_d	d	n/a
604.9995	0.091	1209999	keystroke_i	i	n/a
605.1055	0.1495	1210211	keystroke_a	a	n/a
609.005	0.12	1218010	keystroke_Key.enter	Key.enter	n/a
609.129	6.582	1218258	prompt	n/a	mailman ones cart challenge\n
610.805	0.135	1221610	keystroke_m	m	n/a
610.9095	0.105	1221819	keystroke_a	a	n/a
611.0295	0.1055	1222059	keystroke_i	i	n/a
611.465	0.12	1222930	keystroke_l	l	n/a
611.87	0.105	1223740	keystroke_m	m	n/a
611.945	0.12	1223890	keystroke_a	a	n/a
612.1105	0.1945	1224221	keystroke_n	n	n/a
612.26	0.105	1224520	keystroke_Key.space	Key.space	n/a
612.47	0.075	1224940	keystroke_o	o	n/a
612.65	0.1055	1225300	keystroke_n	n	n/a
612.71	0.0895	1225420	keystroke_e	e	n/a
612.89	0.0905	1225780	keystroke_s	s	n/a
612.965	0.12	1225930	keystroke_Key.space	Key.space	n/a
613.1295	0.1355	1226259	keystroke_c	c	n/a
613.25	0.21	1226500	keystroke_a	a	n/a
613.4295	0.1355	1226859	keystroke_r	r	n/a
613.6705	0.0745	1227341	keystroke_t	t	n/a
613.805	0.135	1227610	keystroke_Key.space	Key.space	n/a
614.2995	0.121	1228599	keystroke_c	c	n/a
614.45	0.09	1228900	keystroke_h	h	n/a
614.5555	0.1045	1229111	keystroke_a	a	n/a
614.721	0.074	1229442	keystroke_l	l	n/a
614.885	0.105	1229770	keystroke_l	l	n/a
614.99	0.075	1229980	keystroke_e	e	n/a
615.141	0.0885	1230282	keystroke_n	n	n/a
615.29	0.15	1230580	keystroke_g	g	n/a
615.3945	0.105	1230789	keystroke_e	e	n/a
615.59	0.12	1231180	keystroke_Key.enter	Key.enter	n/a
615.714	7.452	1231428	prompt	n/a	segments plugins marc opposite\n
616.55	0.105	1233100	keystroke_s	s	n/a
616.7	0.105	1233400	keystroke_e	e	n/a
616.925	0.1045	1233850	keystroke_g	g	n/a
617.2105	0.089	1234421	keystroke_m	m	n/a
617.315	0.06	1234630	keystroke_e	e	n/a
617.45	0.06	1234900	keystroke_n	n	n/a
617.495	0.1505	1234990	keystroke_t	t	n/a
617.57	0.165	1235140	keystroke_s	s	n/a
617.765	0.1345	1235530	keystroke_Key.space	Key.space	n/a
618.17	0.12	1236340	keystroke_p	p	n/a
618.395	0.1345	1236790	keystroke_l	l	n/a
618.635	0.09	1237270	keystroke_u	u	n/a
618.755	0.1055	1237510	keystroke_g	g	n/a
619.0255	0.0745	1238051	keystroke_i	i	n/a
619.2055	0.0895	1238411	keystroke_n	n	n/a
619.3105	0.1045	1238621	keystroke_s	s	n/a
619.475	0.135	1238950	keystroke_Key.space	Key.space	n/a
619.865	0.1065	1239730	keystroke_m	m	n/a
619.9405	0.165	1239881	keystroke_a	a	n/a
620.015	0.1355	1240030	keystroke_r	r	n/a
620.315	0.1205	1240630	keystroke_c	c	n/a
620.4505	0.1495	1240901	keystroke_Key.space	Key.space	n/a
621.0505	0.12	1242101	keystroke_o	o	n/a
621.2905	0.09	1242581	keystroke_p	p	n/a
621.4855	0.09	1242971	keystroke_p	p	n/a
621.77	0.0905	1243540	keystroke_o	o	n/a
621.9655	0.12	1243931	keystroke_s	s	n/a
622.34	0.09	1244680	keystroke_i	i	n/a
622.46	0.1355	1244920	keystroke_t	t	n/a
622.5055	0.135	1245011	keystroke_e	e	n/a
623.0455	0.12	1246091	keystroke_Key.enter	Key.enter	n/a
623.169	6.0275	1246338	prompt	n/a	parties inch belfast size\n
624.1705	0.105	1248341	keystroke_p	p	n/a
624.2605	0.165	1248521	keystroke_a	a	n/a
624.335	0.1055	1248670	keystroke_r	r	n/a
624.5605	0.06	1249121	keystroke_t	t	n/a
624.6505	0.09	1249301	keystroke_i	i	n/a
624.7715	0.134	1249543	keystroke_e	e	n/a
624.9505	0.105	1249901	keystroke_s	s	n/a
625.1	0.0755	1250200	keystroke_Key.space	Key.space	n/a
625.25	0.0755	1250500	keystroke_i	i	n/a
625.43	0.1055	1250860	keystroke_n	n	n/a
625.73	0.1205	1251460	keystroke_c	c	n/a
625.9855	0.18	1251971	keystroke_h	h	n/a
626.121	0.149	1252242	keystroke_Key.space	Key.space	n/a
626.7505	0.105	1253501	keystroke_b	b	n/a
626.8705	0.0745	1253741	keystroke_e	e	n/a
627.11	0.1355	1254220	keystroke_l	l	n/a
627.321	0.1195	1254642	keystroke_f	f	n/a
627.4855	0.165	1254971	keystroke_a	a	n/a
627.6055	0.1655	1255211	keystroke_s	s	n/a
627.7855	0.12	1255571	keystroke_t	t	n/a
627.9355	0.15	1255871	keystroke_Key.space	Key.space	n/a
628.5055	0.09	1257011	keystroke_s	s	n/a
628.6555	0.105	1257311	keystroke_i	i	n/a
628.7455	0.18	1257491	keystroke_z	z	n/a
628.8805	0.105	1257761	keystroke_e	e	n/a
629.0755	0.12	1258151	keystroke_Key.enter	Key.enter	n/a
629.1995	13.437	1258399	prompt	n/a	killer senators effect azerbaijan\n
630.215	0.0905	1260430	keystroke_k	k	n/a
630.5	0.0905	1261000	keystroke_i	i	n/a
630.9055	0.06	1261811	keystroke_l	l	n/a
631.071	0.1045	1262142	keystroke_l	l	n/a
631.2955	0.1195	1262591	keystroke_e	e	n/a
631.37	0.1355	1262740	keystroke_r	r	n/a
631.5505	0.135	1263101	keystroke_Key.space	Key.space	n/a
632.3	0.1805	1264600	keystroke_s	s	n/a
632.3755	0.15	1264751	keystroke_e	e	n/a
632.6305	0.105	1265261	keystroke_n	n	n/a
632.7505	0.225	1265501	keystroke_a	a	n/a
632.9455	0.09	1265891	keystroke_t	t	n/a
633.1405	0.0895	1266281	keystroke_o	o	n/a
633.2455	0.165	1266491	keystroke_r	r	n/a
633.35	0.1055	1266700	keystroke_s	s	n/a
633.4715	0.149	1266943	keystroke_Key.space	Key.space	n/a
633.8905	0.15	1267781	keystroke_e	e	n/a
634.0555	0.09	1268111	keystroke_f	f	n/a
634.221	0.1505	1268442	keystroke_f	f	n/a
634.3255	0.1205	1268651	keystroke_e	e	n/a
634.521	0.0895	1269042	keystroke_c	c	n/a
634.8055	0.15	1269611	keystroke_Key.space	Key.space	n/a
635.4805	0.1345	1270961	keystroke_a	a	n/a
635.855	0.1505	1271710	keystroke_z	z	n/a
636.1105	0.135	1272221	keystroke_e	e	n/a
636.1855	0.15	1272371	keystroke_r	r	n/a
637.521	0.0745	1275042	keystroke_b	b	n/a
638.766	0.1045	1277532	keystroke_a	a	n/a
639.1405	0.015	1278281	keystroke_i	i	n/a
640.7755	0.06	1281551	keystroke_h	h	n/a
641.5715	0.0885	1283143	keystroke_Key.backspace	Key.backspace	n/a
641.8855	0.075	1283771	keystroke_j	j	n/a
642.021	0.0895	1284042	keystroke_a	a	n/a
642.2905	0.075	1284581	keystroke_n	n	n/a
642.5155	0.12	1285031	keystroke_Key.enter	Key.enter	n/a
642.64	9.0565	1285280	prompt	n/a	belong integrated courage receivers\n
643.5805	0.1195	1287161	keystroke_b	b	n/a
643.715	0.0905	1287430	keystroke_e	e	n/a
643.9555	0.12	1287911	keystroke_l	l	n/a
644.195	0.0765	1288390	keystroke_o	o	n/a
644.3905	0.105	1288781	keystroke_n	n	n/a
644.481	0.0905	1288962	keystroke_g	g	n/a
644.6	0.1355	1289200	keystroke_Key.space	Key.space	n/a
644.8855	0.075	1289771	keystroke_i	i	n/a
645.036	0.12	1290072	keystroke_n	n	n/a
645.0955	0.1195	1290191	keystroke_t	t	n/a
645.2605	0.15	1290521	keystroke_e	e	n/a
645.336	0.1195	1290672	keystroke_r	r	n/a
645.5905	0.105	1291181	keystroke_f	f	n/a
646.4455	0.09	1292891	keystroke_Key.backspace	Key.backspace	n/a
646.5805	0.105	1293161	keystroke_g	g	n/a
647.0915	0.1195	1294183	keystroke_r	r	n/a
647.166	0.224	1294332	keystroke_a	a	n/a
647.3305	0.1655	1294661	keystroke_t	t	n/a
647.406	0.1495	1294812	keystroke_e	e	n/a
647.6905	0.1055	1295381	keystroke_d	d	n/a
647.8255	0.15	1295651	keystroke_Key.space	Key.space	n/a
648.3955	0.135	1296791	keystroke_c	c	n/a
648.5005	0.09	1297001	keystroke_o	o	n/a
648.6655	0.12	1297331	keystroke_u	u	n/a
648.7405	0.105	1297481	keystroke_r	r	n/a
648.9955	0.18	1297991	keystroke_a	a	n/a
649.13	0.1805	1298260	keystroke_g	g	n/a
649.236	0.12	1298472	keystroke_e	e	n/a
649.341	0.1495	1298682	keystroke_Key.space	Key.space	n/a
649.8505	0.15	1299701	keystroke_r	r	n/a
649.926	0.1345	1299852	keystroke_e	e	n/a
650.3605	0.105	1300721	keystroke_c	c	n/a
650.511	0.1045	1301022	keystroke_e	e	n/a
650.811	0.0895	1301622	keystroke_i	i	n/a
650.9005	0.1055	1301801	keystroke_v	v	n/a
651.126	0.1345	1302252	keystroke_e	e	n/a
651.186	0.15	1302372	keystroke_r	r	n/a
651.381	0.1045	1302762	keystroke_s	s	n/a
651.576	0.1195	1303152	keystroke_Key.enter	Key.enter	n/a
651.6995	8.7275	1303399	prompt	n/a	adware mysterious carpet ricky\n
652.6405	0.1955	1305281	keystroke_a	a	n/a
652.821	0.09	1305642	keystroke_d	d	n/a
653.1215	0.0895	1306243	keystroke_w	w	n/a
653.3155	0.1505	1306631	keystroke_a	a	n/a
653.3755	0.1355	1306751	keystroke_r	r	n/a
653.436	0.12	1306872	keystroke_e	e	n/a
653.871	0.12	1307742	keystroke_Key.space	Key.space	n/a
654.3055	0.135	1308611	keystroke_m	m	n/a
654.681	0.075	1309362	keystroke_y	y	n/a
654.786	0.12	1309572	keystroke_s	s	n/a
654.996	0.1045	1309992	keystroke_t	t	n/a
655.176	0.135	1310352	keystroke_e	e	n/a
655.236	0.12	1310472	keystroke_r	r	n/a
655.551	0.075	1311102	keystroke_i	i	n/a
655.7455	0.076	1311491	keystroke_o	o	n/a
655.941	0.0595	1311882	keystroke_u	u	n/a
656.076	0.105	1312152	keystroke_s	s	n/a
656.211	0.1345	1312422	keystroke_Key.space	Key.space	n/a
656.9155	0.1355	1313831	keystroke_c	c	n/a
657.3805	0.1655	1314761	keystroke_a	a	n/a
657.486	0.12	1314972	keystroke_r	r	n/a
657.8155	0.0755	1315631	keystroke_p	p	n/a
658.041	0.15	1316082	keystroke_e	e	n/a
658.206	0.0895	1316412	keystroke_t	t	n/a
658.341	0.135	1316682	keystroke_Key.space	Key.space	n/a
658.8955	0.0905	1317791	keystroke_r	r	n/a
659.0155	0.0905	1318031	keystroke_i	i	n/a
659.211	0.075	1318422	keystroke_c	c	n/a
659.406	0.105	1318812	keystroke_k	k	n/a
659.976	0.09	1319952	keystroke_y	y	n/a
660.3215	0.1045	1320643	keystroke_Key.enter	Key.enter	n/a
660.4295	10.409	1320859	prompt	n/a	went danish encountered threatened\n
661.326	0.165	1322652	keystroke_w	w	n/a
661.4755	0.1205	1322951	keystroke_e	e	n/a
661.7305	0.091	1323461	keystroke_n	n	n/a
661.791	0.09	1323582	keystroke_t	t	n/a
661.911	0.15	1323822	keystroke_Key.space	Key.space	n/a
662.151	0.1795	1324302	keystroke_d	d	n/a
662.241	0.18	1324482	keystroke_a	a	n/a
662.6005	0.015	1325201	keystroke_n	n	n/a
662.646	0.0895	1325292	keystroke_s	s	n/a
663.126	0.0895	1326252	keystroke_i	i	n/a
663.471	0.0595	1326942	keystroke_Key.backspace	Key.backspace	n/a
663.636	0.09	1327272	keystroke_Key.backspace	Key.backspace	n/a
663.921	0.0895	1327842	keystroke_i	i	n/a
664.0405	0.1055	1328081	keystroke_s	s	n/a
664.161	0.165	1328322	keystroke_h	h	n/a
664.251	0.1645	1328502	keystroke_Key.space	Key.space	n/a
664.522	0.089	1329044	keystroke_e	e	n/a
664.6715	0.0895	1329343	keystroke_n	n	n/a
664.806	0.105	1329612	keystroke_c	c	n/a
664.9115	0.089	1329823	keystroke_o	o	n/a
665.0305	0.1205	1330061	keystroke_u	u	n/a
665.181	0.1195	1330362	keystroke_t	t	n/a
665.3605	0.1055	1330721	keystroke_n	n	n/a
665.841	0.0895	1331682	keystroke_Key.backspace	Key.backspace	n/a
666.0065	0.0595	1332013	keystroke_Key.backspace	Key.backspace	n/a
666.2305	0.1205	1332461	keystroke_n	n	n/a
666.291	0.135	1332582	keystroke_t	t	n/a
666.486	0.1045	1332972	keystroke_e	e	n/a
666.546	0.195	1333092	keystroke_r	r	n/a
666.666	0.105	1333332	keystroke_e	e	n/a
666.876	0.06	1333752	keystroke_d	d	n/a
666.966	0.1495	1333932	keystroke_Key.space	Key.space	n/a
667.3405	0.1055	1334681	keystroke_t	t	n/a
667.821	0.105	1335642	keystroke_h	h	n/a
667.941	0.18	1335882	keystroke_r	r	n/a
668.0005	0.1655	1336001	keystroke_e	e	n/a
668.601	0.195	1337202	keystroke_a	a	n/a
668.751	0.1495	1337502	keystroke_t	t	n/a
669.021	0.1195	1338042	keystroke_e	e	n/a
669.8155	0.1055	1339631	keystroke_n	n	n/a
670.1005	0.1055	1340201	keystroke_e	e	n/a
670.341	0.0745	1340682	keystroke_d	d	n/a
670.7005	0.1355	1341401	keystroke_Key.enter	Key.enter	n/a
670.842	6.6245	1341684	prompt	n/a	bloom means removed rapidly\n
671.946	0.09	1343892	keystroke_b	b	n/a
672.081	0.105	1344162	keystroke_l	l	n/a
672.336	0.06	1344672	keystroke_o	o	n/a
672.5005	0.0905	1345001	keystroke_o	o	n/a
672.726	0.15	1345452	keystroke_m	m	n/a
672.8305	0.1055	1345661	keystroke_Key.space	Key.space	n/a
673.266	0.075	1346532	keystroke_m	m	n/a
673.326	0.0895	1346652	keystroke_e	e	n/a
673.461	0.165	1346922	keystroke_a	a	n/a
673.641	0.105	1347282	keystroke_n	n	n/a
673.761	0.09	1347522	keystroke_s	s	n/a
673.866	0.1345	1347732	keystroke_Key.space	Key.space	n/a
674.151	0.135	1348302	keystroke_r	r	n/a
674.226	0.135	1348452	keystroke_e	e	n/a
674.406	0.09	1348812	keystroke_m	m	n/a
674.601	0.09	1349202	keystroke_o	o	n/a
674.6765	0.1045	1349353	keystroke_v	v	n/a
674.8715	0.135	1349743	keystroke_e	e	n/a
675.126	0.0745	1350252	keystroke_d	d	n/a
675.2465	0.1495	1350493	keystroke_Key.space	Key.space	n/a
675.9365	0.1495	1351873	keystroke_r	r	n/a
676.0115	0.1645	1352023	keystroke_a	a	n/a
676.311	0.075	1352622	keystroke_p	p	n/a
676.536	0.075	1353072	keystroke_i	i	n/a
676.596	0.12	1353192	keystroke_d	d	n/a
676.7915	0.075	1353583	keystroke_l	l	n/a
677.046	0.075	1354092	keystroke_y	y	n/a
677.361	0.1045	1354722	keystroke_Key.enter	Key.enter	n/a
677.4695	7.858	1354939	prompt	n/a	paths banking sweet palace\n
678.2915	0.12	1356583	keystroke_p	p	n/a
678.3815	0.1795	1356763	keystroke_a	a	n/a
678.531	0.0755	1357062	keystroke_t	t	n/a
678.741	0.06	1357482	keystroke_h	h	n/a
678.831	0.1055	1357662	keystroke_s	s	n/a
678.9515	0.149	1357903	keystroke_Key.space	Key.space	n/a
679.5215	0.1045	1359043	keystroke_b	b	n/a
679.596	0.195	1359192	keystroke_a	a	n/a
679.8365	0.15	1359673	keystroke_c	c	n/a
680.061	0.1205	1360122	keystroke_n	n	n/a
680.4965	0.075	1360993	keystroke_Key.backspace	Key.backspace	n/a
680.661	0.0755	1361322	keystroke_Key.backspace	Key.backspace	n/a
680.916	0.1055	1361832	keystroke_n	n	n/a
681.4415	0.0745	1362883	keystroke_k	k	n/a
681.6665	0.0595	1363333	keystroke_i	i	n/a
681.816	0.12	1363632	keystroke_n	n	n/a
681.8615	0.105	1363723	keystroke_g	g	n/a
681.9965	0.1345	1363993	keystroke_Key.space	Key.space	n/a
682.2065	0.1495	1364413	keystroke_s	s	n/a
682.5365	0.12	1365073	keystroke_w	w	n/a
682.596	0.105	1365192	keystroke_e	e	n/a
682.8365	0.12	1365673	keystroke_e	e	n/a
683.346	0.1355	1366692	keystroke_t	t	n/a
683.4665	0.1495	1366933	keystroke_Key.space	Key.space	n/a
683.7665	0.12	1367533	keystroke_p	p	n/a
683.901	0.1205	1367802	keystroke_a	a	n/a
684.4115	0.0895	1368823	keystroke_l	l	n/a
684.516	0.1355	1369032	keystroke_a	a	n/a
684.801	0.1805	1369602	keystroke_c	c	n/a
684.9065	0.1345	1369813	keystroke_e	e	n/a
685.1915	0.135	1370383	keystroke_Key.enter	Key.enter	n/a
685.332	9.191	1370664	prompt	n/a	plenty departments occupational water\n
686.2265	0.1045	1372453	keystroke_p	p	n/a
686.4665	0.09	1372933	keystroke_l	l	n/a
686.5265	0.0895	1373053	keystroke_e	e	n/a
686.7365	0.09	1373473	keystroke_n	n	n/a
686.8565	0.105	1373713	keystroke_t	t	n/a
687.0965	0.1345	1374193	keystroke_y	y	n/a
687.201	0.1355	1374402	keystroke_Key.space	Key.space	n/a
688.0115	0.1045	1376023	keystroke_d	d	n/a
688.2065	0.06	1376413	keystroke_e	e	n/a
688.3715	0.09	1376743	keystroke_p	p	n/a
688.5215	0.1795	1377043	keystroke_a	a	n/a
688.6565	0.135	1377313	keystroke_t	t	n/a
689.1665	0.09	1378333	keystroke_Key.backspace	Key.backspace	n/a
689.2265	0.1045	1378453	keystroke_r	r	n/a
689.4215	0.09	1378843	keystroke_t	t	n/a
689.616	0.091	1379232	keystroke_m	m	n/a
689.7965	0.075	1379593	keystroke_e	e	n/a
689.8865	0.075	1379773	keystroke_n	n	n/a
690.0065	0.1645	1380013	keystroke_t	t	n/a
690.1265	0.165	1380253	keystroke_s	s	n/a
690.6815	0.1195	1381363	keystroke_Key.space	Key.space	n/a
691.116	0.0905	1382232	keystroke_o	o	n/a
691.2375	0.104	1382475	keystroke_c	c	n/a
691.416	0.12	1382832	keystroke_c	c	n/a
691.551	0.1055	1383102	keystroke_u	u	n/a
691.8965	0.1045	1383793	keystroke_p	p	n/a
692.1215	0.1655	1384243	keystroke_a	a	n/a
692.2565	0.0745	1384513	keystroke_t	t	n/a
692.347	0.195	1384694	keystroke_i	i	n/a
692.4665	0.12	1384933	keystroke_o	o	n/a
692.7065	0.09	1385413	keystroke_n	n	n/a
692.811	0.12	1385622	keystroke_a	a	n/a
692.9465	0.1055	1385893	keystroke_l	l	n/a
693.231	0.1655	1386462	keystroke_Key.space	Key.space	n/a
693.6065	0.135	1387213	keystroke_w	w	n/a
693.816	0.1955	1387632	keystroke_a	a	n/a
693.9815	0.1055	1387963	keystroke_t	t	n/a
694.146	0.1355	1388292	keystroke_e	e	n/a
694.222	0.1345	1388444	keystroke_r	r	n/a
694.3865	0.135	1388773	keystroke_Key.enter	Key.enter	n/a
694.526	6.3865	1389052	prompt	n/a	mariah gale compiler knitting\n
695.497	0.119	1390994	keystroke_m	m	n/a
695.5875	0.209	1391175	keystroke_a	a	n/a
695.8115	0.1045	1391623	keystroke_r	r	n/a
695.9765	0.09	1391953	keystroke_i	i	n/a
696.0815	0.1495	1392163	keystroke_a	a	n/a
696.4265	0.18	1392853	keystroke_h	h	n/a
696.5615	0.135	1393123	keystroke_Key.space	Key.space	n/a
696.9815	0.18	1393963	keystroke_g	g	n/a
697.0715	0.165	1394143	keystroke_a	a	n/a
697.2515	0.1055	1394503	keystroke_l	l	n/a
697.3875	0.074	1394775	keystroke_e	e	n/a
697.5065	0.15	1395013	keystroke_Key.space	Key.space	n/a
697.8665	0.105	1395733	keystroke_c	c	n/a
697.9415	0.075	1395883	keystroke_o	o	n/a
698.1215	0.075	1396243	keystroke_m	m	n/a
698.2115	0.1045	1396423	keystroke_p	p	n/a
698.4215	0.075	1396843	keystroke_i	i	n/a
698.631	0.1065	1397262	keystroke_l	l	n/a
698.707	0.1195	1397414	keystroke_e	e	n/a
698.7815	0.1195	1397563	keystroke_r	r	n/a
698.8715	0.12	1397743	keystroke_Key.space	Key.space	n/a
699.3375	0.119	1398675	keystroke_k	k	n/a
699.6815	0.09	1399363	keystroke_n	n	n/a
699.8915	0.105	1399783	keystroke_i	i	n/a
700.0415	0.0895	1400083	keystroke_t	t	n/a
700.2065	0.135	1400413	keystroke_t	t	n/a
700.3565	0.09	1400713	keystroke_i	i	n/a
700.5365	0.105	1401073	keystroke_n	n	n/a
700.6265	0.0745	1401253	keystroke_g	g	n/a
700.822	0.0895	1401644	keystroke_Key.enter	Key.enter	n/a
700.9155	7.167	1401831	prompt	n/a	boom higher britain excuse\n
701.9165	0.09	1403833	keystroke_b	b	n/a
702.0965	0.0895	1404193	keystroke_o	o	n/a
702.3665	0.09	1404733	keystroke_o	o	n/a
702.6365	0.165	1405273	keystroke_m	m	n/a
702.757	0.12	1405514	keystroke_Key.space	Key.space	n/a
703.071	0.1055	1406142	keystroke_h	h	n/a
703.2215	0.0905	1406443	keystroke_i	i	n/a
703.3115	0.0895	1406623	keystroke_g	g	n/a
703.431	0.0905	1406862	keystroke_h	h	n/a
703.538	0.1185	1407076	keystroke_e	e	n/a
703.597	0.1345	1407194	keystroke_r	r	n/a
703.6875	0.134	1407375	keystroke_Key.space	Key.space	n/a
704.6015	0.09	1409203	keystroke_b	b	n/a
704.7065	0.105	1409413	keystroke_r	r	n/a
704.9015	0.09	1409803	keystroke_i	i	n/a
705.112	0.1195	1410224	keystroke_t	t	n/a
705.2465	0.15	1410493	keystroke_a	a	n/a
705.442	0.0745	1410884	keystroke_i	i	n/a
705.6375	0.179	1411275	keystroke_n	n	n/a
705.757	0.1195	1411514	keystroke_Key.space	Key.space	n/a
705.982	0.09	1411964	keystroke_e	e	n/a
706.192	0.1045	1412384	keystroke_x	x	n/a
706.7915	0.165	1413583	keystroke_c	c	n/a
706.987	0.0895	1413974	keystroke_u	u	n/a
707.1225	0.209	1414245	keystroke_s	s	n/a
707.242	0.105	1414484	keystroke_e	e	n/a
708.067	0.0145	1416134	keystroke_Key.enter	Key.enter	n/a
708.0855	10.213	1416171	prompt	n/a	silicon vocals demonstration polyester\n
708.8615	0.1205	1417723	keystroke_s	s	n/a
709.012	0.0895	1418024	keystroke_i	i	n/a
709.2225	0.1195	1418445	keystroke_l	l	n/a
709.4315	0.0605	1418863	keystroke_i	i	n/a
709.492	0.12	1418984	keystroke_c	c	n/a
709.6875	0.0745	1419375	keystroke_o	o	n/a
709.897	0.1195	1419794	keystroke_n	n	n/a
709.987	0.1195	1419974	keystroke_Key.space	Key.space	n/a
710.4965	0.12	1420993	keystroke_v	v	n/a
710.722	0.075	1421444	keystroke_o	o	n/a
711.562	0.15	1423124	keystroke_c	c	n/a
711.638	0.15	1423276	keystroke_a	a	n/a
712.0415	0.1505	1424083	keystroke_l	l	n/a
712.177	0.075	1424354	keystroke_s	s	n/a
712.267	0.1495	1424534	keystroke_Key.space	Key.space	n/a
712.582	0.0895	1425164	keystroke_d	d	n/a
712.777	0.0605	1425554	keystroke_e	e	n/a
712.927	0.1045	1425854	keystroke_m	m	n/a
713.437	0.09	1426874	keystroke_o	o	n/a
713.647	0.0905	1427294	keystroke_n	n	n/a
713.9465	0.1355	1427893	keystroke_s	s	n/a
714.097	0.1195	1428194	keystroke_t	t	n/a
714.352	0.075	1428704	keystroke_a	a	n/a
715.1165	0.12	1430233	keystroke_t	t	n/a
715.252	0.1795	1430504	keystroke_i	i	n/a
715.357	0.12	1430714	keystroke_o	o	n/a
715.5375	0.2395	1431075	keystroke_n	n	n/a
715.7015	0.1365	1431403	keystroke_Key.space	Key.space	n/a
716.197	0.1045	1432394	keystroke_p	p	n/a
716.377	0.09	1432754	keystroke_o	o	n/a
716.5875	0.1345	1433175	keystroke_l	l	n/a
716.8575	0.074	1433715	keystroke_y	y	n/a
717.247	0.075	1434494	keystroke_e	e	n/a
717.442	0.12	1434884	keystroke_s	s	n/a
717.5315	0.1355	1435063	keystroke_t	t	n/a
717.712	0.15	1435424	keystroke_e	e	n/a
717.8015	0.135	1435603	keystroke_r	r	n/a
718.147	0.15	1436294	keystroke_Key.enter	Key.enter	n/a
718.303	9.8365	1436606	prompt	n/a	direction white drawn stops\n
720.847	0.105	1441694	keystroke_d	d	n/a
721.027	0.0895	1442054	keystroke_i	i	n/a
721.207	0.135	1442414	keystroke_r	r	n/a
721.267	0.1495	1442534	keystroke_e	e	n/a
721.462	0.076	1442924	keystroke_c	c	n/a
721.672	0.0595	1443344	keystroke_t	t	n/a
721.747	0.15	1443494	keystroke_i	i	n/a
721.822	0.105	1443644	keystroke_o	o	n/a
721.972	0.15	1443944	keystroke_n	n	n/a
722.137	0.105	1444274	keystroke_w	w	n/a
722.288	0.089	1444576	keystroke_h	h	n/a
722.422	0.105	1444844	keystroke_i	i	n/a
722.482	0.1195	1444964	keystroke_t	t	n/a
722.542	0.135	1445084	keystroke_e	e	n/a
722.9015	0.0755	1445803	keystroke_Key.backspace	Key.backspace	n/a
723.067	0.09	1446134	keystroke_Key.backspace	Key.backspace	n/a
723.247	0.06	1446494	keystroke_Key.backspace	Key.backspace	n/a
723.412	0.1345	1446824	keystroke_Key.backspace	Key.backspace	n/a
723.757	0.105	1447514	keystroke_Key.backspace	Key.backspace	n/a
723.967	0.1495	1447934	keystroke_Key.space	Key.space	n/a
724.162	0.09	1448324	keystroke_w	w	n/a
724.4165	0.091	1448833	keystroke_h	h	n/a
724.552	0.12	1449104	keystroke_i	i	n/a
724.657	0.12	1449314	keystroke_t	t	n/a
724.702	0.1345	1449404	keystroke_e	e	n/a
724.792	0.1345	1449584	keystroke_Key.space	Key.space	n/a
725.0315	0.106	1450063	keystroke_d	d	n/a
725.3475	0.1495	1450695	keystroke_r	r	n/a
725.4515	0.2105	1450903	keystroke_a	a	n/a
725.572	0.15	1451144	keystroke_w	w	n/a
725.812	0.195	1451624	keystroke_n	n	n/a
725.962	0.1495	1451924	keystroke_Key.space	Key.space	n/a
726.367	0.105	1452734	keystroke_s	s	n/a
726.577	0.03	1453154	keystroke_t	t	n/a
726.667	0.0895	1453334	keystroke_o	o	n/a
726.877	0.12	1453754	keystroke_p	p	n/a
727.027	0.0895	1454054	keystroke_s	s	n/a
727.177	0.061	1454354	keystroke_Key.space	Key.space	n/a
727.7475	0.075	1455495	keystroke_=	=	n/a
727.7625	0.045	1455525	keystroke_Key.backspace	Key.backspace	n/a
728.017	0.121	1456034	keystroke_Key.enter	Key.enter	n/a
728.143	8.59	1456286	prompt	n/a	hall similarly announcement begins\n
729.367	0.09	1458734	keystroke_h	h	n/a
729.4415	0.1055	1458883	keystroke_a	a	n/a
729.637	0.105	1459274	keystroke_l	l	n/a
729.847	0.135	1459694	keystroke_l	l	n/a
729.922	0.12	1459844	keystroke_Key.space	Key.space	n/a
730.147	0.1205	1460294	keystroke_s	s	n/a
730.282	0.06	1460564	keystroke_i	i	n/a
730.4625	0.0895	1460925	keystroke_m	m	n/a
730.627	0.0895	1461254	keystroke_i	i	n/a
730.867	0.105	1461734	keystroke_l	l	n/a
731.377	0.225	1462754	keystroke_a	a	n/a
731.557	0.135	1463114	keystroke_r	r	n/a
731.827	0.1045	1463654	keystroke_l	l	n/a
732.067	0.1645	1464134	keystroke_y	y	n/a
732.1725	0.1495	1464345	keystroke_Key.space	Key.space	n/a
732.6225	0.1195	1465245	keystroke_a	a	n/a
732.8315	0.0755	1465663	keystroke_n	n	n/a
732.9825	0.1195	1465965	keystroke_n	n	n/a
733.177	0.12	1466354	keystroke_o	o	n/a
733.747	0.0905	1467494	keystroke_u	u	n/a
734.092	0.09	1468184	keystroke_n	n	n/a
734.1375	0.1505	1468275	keystroke_c	c	n/a
734.242	0.1205	1468484	keystroke_e	e	n/a
734.542	0.105	1469084	keystroke_m	m	n/a
734.662	0.0605	1469324	keystroke_e	e	n/a
734.7525	0.09	1469505	keystroke_n	n	n/a
734.857	0.105	1469714	keystroke_t	t	n/a
734.977	0.15	1469954	keystroke_Key.space	Key.space	n/a
735.3675	0.0895	1470735	keystroke_b	b	n/a
735.427	0.105	1470854	keystroke_e	e	n/a
735.832	0.12	1471664	keystroke_g	g	n/a
736.102	0.09	1472204	keystroke_i	i	n/a
736.3725	0.029	1472745	keystroke_n	n	n/a
736.3875	0.105	1472775	keystroke_s	s	n/a
736.612	0.12	1473224	keystroke_Key.enter	Key.enter	n/a
736.7365	9.2815	1473473	prompt	n/a	filename sixth exploration wilderness\n
737.632	0.0905	1475264	keystroke_f	f	n/a
737.7525	0.075	1475505	keystroke_i	i	n/a
737.9475	0.1045	1475895	keystroke_l	l	n/a
738.037	0.075	1476074	keystroke_e	e	n/a
738.202	0.105	1476404	keystroke_n	n	n/a
738.2925	0.1045	1476585	keystroke_a	a	n/a
738.4275	0.0895	1476855	keystroke_m	m	n/a
738.502	0.075	1477004	keystroke_e	e	n/a
738.6375	0.1045	1477275	keystroke_Key.space	Key.space	n/a
738.7875	0.1045	1477575	keystroke_s	s	n/a
738.907	0.0755	1477814	keystroke_i	i	n/a
739.2675	0.105	1478535	keystroke_x	x	n/a
739.5225	0.09	1479045	keystroke_t	t	n/a
739.6425	0.0745	1479285	keystroke_h	h	n/a
739.8375	0.1505	1479675	keystroke_Key.space	Key.space	n/a
740.4525	0.06	1480905	keystroke_e	e	n/a
740.662	0.0755	1481324	keystroke_x	x	n/a
741.0375	0.09	1482075	keystroke_p	p	n/a
741.2475	0.075	1482495	keystroke_l	l	n/a
741.472	0.0755	1482944	keystroke_o	o	n/a
741.9975	0.1345	1483995	keystroke_r	r	n/a
742.2825	0.18	1484565	keystroke_a	a	n/a
742.3875	0.12	1484775	keystroke_t	t	n/a
742.5075	0.165	1485015	keystroke_i	i	n/a
742.5975	0.1195	1485195	keystroke_o	o	n/a
742.7925	0.195	1485585	keystroke_n	n	n/a
742.9125	0.165	1485825	keystroke_Key.space	Key.space	n/a
743.6925	0.135	1487385	keystroke_w	w	n/a
