onset	duration	sample	value	key	prompt_text
2.2365	14.4585	4473	prompt	n/a	the quick brown fox jumps over a lazy dog\n
4.257	0.001	8514	keystroke_t	t	n/a
4.27	0.1505	8540	keystroke_h	h	n/a
5.0355	0.075	10071	keystroke_e	e	n/a
5.2305	0.075	10461	keystroke_Key.space	Key.space	n/a
5.786	0.09	11572	keystroke_q	q	n/a
5.966	0.044	11932	keystroke_u	u	n/a
6.146	0.0745	12292	keystroke_i	i	n/a
6.461	0.0595	12922	keystroke_c	c	n/a
6.745	0.075	13490	keystroke_k	k	n/a
7.09	0.06	14180	keystroke_Key.space	Key.space	n/a
7.8095	0.045	15619	keystroke_b	b	n/a
7.915	0.0745	15830	keystroke_r	r	n/a
8.11	0.092	16220	keystroke_o	o	n/a
8.323	0.0745	16646	keystroke_w	w	n/a
8.488	0.0745	16976	keystroke_n	n	n/a
8.7125	0.06	17425	keystroke_Key.space	Key.space	n/a
9.341	0.091	18682	keystroke_f	f	n/a
9.612	0.0595	19224	keystroke_o	o	n/a
9.792	0.0595	19584	keystroke_x	x	n/a
9.897	0.0895	19794	keystroke_Key.space	Key.space	n/a
10.137	0.0595	20274	keystroke_j	j	n/a
10.317	0.0905	20634	keystroke_u	u	n/a
10.587	0.0745	21174	keystroke_m	m	n/a
10.8865	0.0605	21773	keystroke_p	p	n/a
11.0215	0.075	22043	keystroke_s	s	n/a
11.1865	0.0595	22373	keystroke_Key.space	Key.space	n/a
12.0575	0.059	24115	keystroke_o	o	n/a
12.3865	0.076	24773	keystroke_v	v	n/a
12.522	0.12	25044	keystroke_e	e	n/a
12.6265	0.075	25253	keystroke_r	r	n/a
12.732	0.0895	25464	keystroke_Key.space	Key.space	n/a
12.8075	0.075	25615	keystroke_a	a	n/a
12.927	0.0605	25854	keystroke_Key.space	Key.space	n/a
13.1525	0.06	26305	keystroke_l	l	n/a
13.2575	0.0895	26515	keystroke_a	a	n/a
13.557	0.0745	27114	keystroke_z	z	n/a
13.7375	0.0595	27475	keystroke_y	y	n/a
13.9465	0.075	27893	keystroke_Key.space	Key.space	n/a
14.3065	0.076	28613	keystroke_d	d	n/a
14.5015	0.0605	29003	keystroke_o	o	n/a
14.742	0.06	29484	keystroke_g	g	n/a
15.012	0.0595	30024	keystroke_'	'	n/a
16.302	0.06	32604	keystroke_Key.backspace	Key.backspace	n/a
16.6165	0.075	33233	keystroke_Key.enter	Key.enter	n/a
16.701	11.648	33402	prompt	n/a	scores promises outsourcing midnight\n
17.5615	0.0755	35123	keystroke_s	s	n/a
17.7875	0.0745	35575	keystroke_c	c	n/a
17.9825	0.074	35965	keystroke_o	o	n/a
18.0725	0.1195	36145	keystroke_r	r	n/a
18.1775	0.104	36355	keystroke_e	e	n/a
18.4015	0.076	36803	keystroke_s	s	n/a
18.5515	0.075	37103	keystroke_Key.space	Key.space	n/a
19.0625	0.0895	38125	keystroke_p	p	n/a
19.2265	0.061	38453	keystroke_r	r	n/a
19.3625	0.09	38725	keystroke_o	o	n/a
19.7065	0.076	39413	keystroke_m	m	n/a
19.9015	0.075	39803	keystroke_i	i	n/a
20.0225	0.09	40045	keystroke_s	s	n/a
20.232	0.0455	40464	keystroke_e	e	n/a
20.4125	0.074	40825	keystroke_s	s	n/a
20.832	0.0595	41664	keystroke_Key.space	Key.space	n/a
21.3275	0.06	42655	keystroke_o	o	n/a
21.582	0.0605	43164	keystroke_u	u	n/a
21.7625	0.0595	43525	keystroke_t	t	n/a
21.9875	0.12	43975	keystroke_s	s	n/a
22.4375	0.044	44875	keystroke_o	o	n/a
22.7975	0.0445	45595	keystroke_r	r	n/a
23.0525	0.0745	46105	keystroke_c	c	n/a
23.2475	0.0595	46495	keystroke_i	i	n/a
23.442	0.0905	46884	keystroke_n	n	n/a
23.5475	0.09	47095	keystroke_g	g	n/a
23.9525	0.06	47905	keystroke_Key.space	Key.space	n/a
24.5075	0.0745	49015	keystroke_m	m	n/a
24.6875	0.06	49375	keystroke_i	i	n/a
25.5425	0.059	51085	keystroke_d	d	n/a
25.6775	0.09	51355	keystroke_n	n	n/a
25.8715	0.091	51743	keystroke_i	i	n/a
26.0225	0.0745	52045	keystroke_g	g	n/a
26.1265	0.076	52253	keystroke_h	h	n/a
26.2625	0.06	52525	keystroke_t	t	n/a
26.562	0.0605	53124	keystroke_'	'	n/a
27.987	0.0455	55974	keystroke_Key.backspace	Key.backspace	n/a
28.3025	0.045	56605	keystroke_Key.enter	Key.enter	n/a
28.353	9.806	56706	prompt	n/a	accounts combo devon sustainable\n
29.247	0.1055	58494	keystroke_a	a	n/a
29.502	0.03	59004	keystroke_c	c	n/a
29.6375	0.0595	59275	keystroke_c	c	n/a
29.7425	0.09	59485	keystroke_o	o	n/a
29.982	0.075	59964	keystroke_u	u	n/a
30.042	0.105	60084	keystroke_n	n	n/a
30.162	0.075	60324	keystroke_t	t	n/a
30.4025	0.0895	60805	keystroke_s	s	n/a
30.567	0.09	61134	keystroke_Key.space	Key.space	n/a
31.4825	0.075	62965	keystroke_c	c	n/a
31.6775	0.165	63355	keystroke_o	o	n/a
31.7975	0.165	63595	keystroke_m	m	n/a
32.1125	0.09	64225	keystroke_b	b	n/a
32.3215	0.076	64643	keystroke_o	o	n/a
32.623	0.044	65246	keystroke_Key.space	Key.space	n/a
33.1775	0.09	66355	keystroke_d	d	n/a
33.312	0.1205	66624	keystroke_e	e	n/a
33.5225	0.06	67045	keystroke_v	v	n/a
33.6725	0.105	67345	keystroke_o	o	n/a
33.8225	0.105	67645	keystroke_n	n	n/a
34.077	0.075	68154	keystroke_Key.space	Key.space	n/a
34.347	0.105	68694	keystroke_s	s	n/a
34.542	0.075	69084	keystroke_u	u	n/a
34.6625	0.105	69325	keystroke_s	s	n/a
34.9475	0.06	69895	keystroke_t	t	n/a
35.1275	0.075	70255	keystroke_a	a	n/a
35.2625	0.135	70525	keystroke_i	i	n/a
35.3525	0.1195	70705	keystroke_n	n	n/a
35.9675	0.0905	71935	keystroke_a	a	n/a
36.162	0.0755	72324	keystroke_b	b	n/a
36.4475	0.09	72895	keystroke_l	l	n/a
36.597	0.0605	73194	keystroke_e	e	n/a
36.792	0.0605	73584	keystroke_'	'	n/a
37.7965	0.045	75593	keystroke_Key.backspace	Key.backspace	n/a
38.0965	0.061	76193	keystroke_Key.enter	Key.enter	n/a
38.1635	9.0105	76327	prompt	n/a	mint observation banks prague\n
39.2975	0.0755	78595	keystroke_m	m	n/a
39.4325	0.15	78865	keystroke_i	i	n/a
39.568	0.1045	79136	keystroke_n	n	n/a
39.7775	0.0595	79555	keystroke_t	t	n/a
39.972	0.06	79944	keystroke_Key.space	Key.space	n/a
40.723	0.0745	81446	keystroke_o	o	n/a
41.0375	0.06	82075	keystroke_b	b	n/a
41.1425	0.075	82285	keystroke_s	s	n/a
41.3375	0.09	82675	keystroke_e	e	n/a
41.473	0.074	82946	keystroke_r	r	n/a
41.7275	0.0905	83455	keystroke_v	v	n/a
41.8465	0.106	83693	keystroke_a	a	n/a
42.0275	0.075	84055	keystroke_t	t	n/a
42.163	0.2395	84326	keystroke_i	i	n/a
42.238	0.1345	84476	keystroke_o	o	n/a
42.3275	0.12	84655	keystroke_n	n	n/a
42.9575	0.075	85915	keystroke_Key.space	Key.space	n/a
43.1825	0.06	86365	keystroke_b	b	n/a
43.2725	0.1055	86545	keystroke_a	a	n/a
43.4375	0.0905	86875	keystroke_n	n	n/a
43.7225	0.075	87445	keystroke_k	k	n/a
43.858	0.09	87716	keystroke_s	s	n/a
44.3225	0.075	88645	keystroke_Key.space	Key.space	n/a
44.788	0.089	89576	keystroke_p	p	n/a
44.9975	0.09	89995	keystroke_r	r	n/a
45.238	0.0895	90476	keystroke_a	a	n/a
45.4765	0.061	90953	keystroke_g	g	n/a
45.643	0.105	91286	keystroke_u	u	n/a
45.808	0.09	91616	keystroke_e	e	n/a
46.063	0.06	92126	keystroke_'	'	n/a
46.872	0.06	93744	keystroke_Key.backspace	Key.backspace	n/a
47.112	0.06	94224	keystroke_Key.enter	Key.enter	n/a
47.178	9.6115	94356	prompt	n/a	windsor dosage laden jpeg\n
48.0875	0.075	96175	keystroke_w	w	n/a
48.267	0.076	96534	keystroke_i	i	n/a
48.477	0.076	96954	keystroke_n	n	n/a
48.7025	0.09	97405	keystroke_d	d	n/a
49.5425	0.045	99085	keystroke_s	s	n/a
49.692	0.0755	99384	keystroke_o	o	n/a
49.903	0.1045	99806	keystroke_r	r	n/a
50.3975	0.075	100795	keystroke_Key.space	Key.space	n/a
50.697	0.03	101394	keystroke_d	d	n/a
50.802	0.075	101604	keystroke_o	o	n/a
51.192	0.105	102384	keystroke_s	s	n/a
51.343	0.0745	102686	keystroke_a	a	n/a
51.6425	0.0745	103285	keystroke_g	g	n/a
51.762	0.091	103524	keystroke_e	e	n/a
52.4225	0.0745	104845	keystroke_Key.space	Key.space	n/a
52.7075	0.06	105415	keystroke_l	l	n/a
52.7825	0.12	105565	keystroke_a	a	n/a
52.9625	0.1355	105925	keystroke_d	d	n/a
53.0825	0.09	106165	keystroke_e	e	n/a
53.263	0.0745	106526	keystroke_n	n	n/a
53.712	0.0455	107424	keystroke_Key.space	Key.space	n/a
55.3775	0.135	110755	keystroke_j	j	n/a
55.5275	0.1345	111055	keystroke_p	p	n/a
55.677	0.0755	111354	keystroke_e	e	n/a
56.4125	0.09	112825	keystroke_g	g	n/a
56.697	0.09	113394	keystroke_Key.enter	Key.enter	n/a
56.7955	8.1385	113591	prompt	n/a	proven mega collins empty\n
58.767	0.0755	117534	keystroke_p	p	n/a
58.902	0.061	117804	keystroke_r	r	n/a
59.0675	0.075	118135	keystroke_o	o	n/a
59.2925	0.105	118585	keystroke_v	v	n/a
59.4425	0.105	118885	keystroke_e	e	n/a
59.6075	0.075	119215	keystroke_n	n	n/a
60.0875	0.075	120175	keystroke_Key.space	Key.space	n/a
60.5225	0.0755	121045	keystroke_m	m	n/a
60.6425	0.09	121285	keystroke_e	e	n/a
60.9125	0.075	121825	keystroke_g	g	n/a
61.0625	0.09	122125	keystroke_a	a	n/a
61.3625	0.06	122725	keystroke_Key.space	Key.space	n/a
61.9025	0.075	123805	keystroke_c	c	n/a
62.0375	0.075	124075	keystroke_o	o	n/a
62.2175	0.06	124435	keystroke_l	l	n/a
62.3375	0.09	124675	keystroke_l	l	n/a
62.5475	0.1205	125095	keystroke_i	i	n/a
62.6075	0.12	125215	keystroke_n	n	n/a
62.743	0.0745	125486	keystroke_s	s	n/a
62.9225	0.06	125845	keystroke_Key.space	Key.space	n/a
63.4775	0.045	126955	keystroke_e	e	n/a
63.6125	0.075	127225	keystroke_m	m	n/a
63.8375	0.12	127675	keystroke_p	p	n/a
64.047	0.061	128094	keystroke_t	t	n/a
64.227	0.061	128454	keystroke_y	y	n/a
64.812	0.12	129624	keystroke_Key.enter	Key.enter	n/a
64.9405	7.7795	129881	prompt	n/a	routing mesh producing readily\n
65.938	0.09	131876	keystroke_r	r	n/a
66.1175	0.165	132235	keystroke_o	o	n/a
66.448	0.0895	132896	keystroke_u	u	n/a
66.582	0.075	133164	keystroke_t	t	n/a
66.6875	0.12	133375	keystroke_i	i	n/a
66.762	0.1205	133524	keystroke_n	n	n/a
66.8675	0.075	133735	keystroke_g	g	n/a
67.0175	0.0745	134035	keystroke_Key.space	Key.space	n/a
67.618	0.0895	135236	keystroke_m	m	n/a
67.7675	0.0905	135535	keystroke_e	e	n/a
67.9625	0.075	135925	keystroke_s	s	n/a
68.068	0.0735	136136	keystroke_h	h	n/a
68.3075	0.075	136615	keystroke_Key.space	Key.space	n/a
68.773	0.1345	137546	keystroke_p	p	n/a
69.0125	0.0595	138025	keystroke_r	r	n/a
69.1325	0.09	138265	keystroke_o	o	n/a
69.283	0.1045	138566	keystroke_d	d	n/a
69.493	0.074	138986	keystroke_u	u	n/a
69.7175	0.105	139435	keystroke_c	c	n/a
69.958	0.1195	139916	keystroke_i	i	n/a
70.0625	0.1205	140125	keystroke_n	n	n/a
70.2425	0.0745	140485	keystroke_g	g	n/a
70.378	0.059	140756	keystroke_Key.space	Key.space	n/a
71.263	0.12	142526	keystroke_r	r	n/a
71.323	0.1795	142646	keystroke_e	e	n/a
71.4425	0.18	142885	keystroke_a	a	n/a
71.6525	0.105	143305	keystroke_d	d	n/a
71.9225	0.0605	143845	keystroke_i	i	n/a
72.1925	0.0755	144385	keystroke_l	l	n/a
72.4025	0.06	144805	keystroke_y	y	n/a
72.6125	0.105	145225	keystroke_Key.enter	Key.enter	n/a
72.726	10.928	145452	prompt	n/a	navigate asthma bathroom galleries\n
73.6925	0.0755	147385	keystroke_n	n	n/a
73.858	0.104	147716	keystroke_a	a	n/a
74.097	0.0755	148194	keystroke_v	v	n/a
74.3375	0.0745	148675	keystroke_i	i	n/a
74.4875	0.12	148975	keystroke_g	g	n/a
74.6225	0.0905	149245	keystroke_a	a	n/a
74.8025	0.135	149605	keystroke_t	t	n/a
74.9225	0.06	149845	keystroke_e	e	n/a
75.1325	0.075	150265	keystroke_Key.space	Key.space	n/a
75.5975	0.075	151195	keystroke_a	a	n/a
75.7925	0.075	151585	keystroke_s	s	n/a
76.0625	0.06	152125	keystroke_t	t	n/a
76.258	0.0745	152516	keystroke_h	h	n/a
76.4975	0.075	152995	keystroke_m	m	n/a
76.6325	0.075	153265	keystroke_a	a	n/a
76.797	0.06	153594	keystroke_Key.space	Key.space	n/a
77.3525	0.06	154705	keystroke_b	b	n/a
77.3825	0.105	154765	keystroke_a	a	n/a
77.6075	0.075	155215	keystroke_t	t	n/a
77.7275	0.09	155455	keystroke_h	h	n/a
77.9225	0.0895	155845	keystroke_r	r	n/a
78.09	0.072	156180	keystroke_o	o	n/a
78.2675	0.1195	156535	keystroke_o	o	n/a
78.402	0.1055	156804	keystroke_m	m	n/a
78.6725	0.075	157345	keystroke_Key.space	Key.space	n/a
79.108	0.104	158216	keystroke_g	g	n/a
79.242	0.105	158484	keystroke_a	a	n/a
79.422	0.0755	158844	keystroke_l	l	n/a
79.5575	0.1055	159115	keystroke_l	l	n/a
79.6775	0.1195	159355	keystroke_a	a	n/a
79.947	0.12	159894	keystroke_r	r	n/a
81.6125	0.0895	163225	keystroke_Key.backspace	Key.backspace	n/a
82.1675	0.09	164335	keystroke_Key.backspace	Key.backspace	n/a
82.3765	0.106	164753	keystroke_e	e	n/a
82.857	0.0455	165714	keystroke_r	r	n/a
82.9625	0.105	165925	keystroke_i	i	n/a
83.0825	0.075	166165	keystroke_e	e	n/a
83.2775	0.06	166555	keystroke_s	s	n/a
83.5775	0.075	167155	keystroke_Key.enter	Key.enter	n/a
83.6575	7.6915	167315	prompt	n/a	sign communications great meaning\n
84.462	0.075	168924	keystroke_s	s	n/a
84.657	0.09	169314	keystroke_i	i	n/a
84.9125	0.015	169825	keystroke_g	g	n/a
84.9425	0.045	169885	keystroke_n	n	n/a
85.1215	0.076	170243	keystroke_Key.space	Key.space	n/a
85.573	0.059	171146	keystroke_c	c	n/a
85.752	0.12	171504	keystroke_o	o	n/a
85.842	0.1055	171684	keystroke_m	m	n/a
86.142	0.015	172284	keystroke_m	m	n/a
86.293	0.105	172586	keystroke_u	u	n/a
86.367	0.105	172734	keystroke_n	n	n/a
86.847	0.0605	173694	keystroke_i	i	n/a
86.9525	0.0895	173905	keystroke_c	c	n/a
87.2375	0.075	174475	keystroke_a	a	n/a
87.4175	0.105	174835	keystroke_t	t	n/a
87.5375	0.2095	175075	keystroke_i	i	n/a
87.628	0.104	175256	keystroke_o	o	n/a
87.6725	0.1355	175345	keystroke_n	n	n/a
88.1375	0.0905	176275	keystroke_s	s	n/a
88.317	0.09	176634	keystroke_Key.space	Key.space	n/a
88.8875	0.1195	177775	keystroke_g	g	n/a
88.993	0.1345	177986	keystroke_r	r	n/a
89.1875	0.21	178375	keystroke_e	e	n/a
89.412	0.135	178824	keystroke_a	a	n/a
89.5475	0.0895	179095	keystroke_t	t	n/a
89.742	0.0755	179484	keystroke_Key.space	Key.space	n/a
90.177	0.061	180354	keystroke_m	m	n/a
90.238	0.1495	180476	keystroke_e	e	n/a
90.3425	0.0905	180685	keystroke_a	a	n/a
90.418	0.1045	180836	keystroke_n	n	n/a
90.537	0.1205	181074	keystroke_i	i	n/a
90.6125	0.15	181225	keystroke_n	n	n/a
90.747	0.0755	181494	keystroke_g	g	n/a
91.2575	0.089	182515	keystroke_Key.enter	Key.enter	n/a
91.354	9.1755	182708	prompt	n/a	variations athletics who'd sweet\n
92.2475	0.0745	184495	keystroke_v	v	n/a
92.337	0.1505	184674	keystroke_a	a	n/a
92.502	0.075	185004	keystroke_r	r	n/a
92.622	0.09	185244	keystroke_i	i	n/a
92.713	0.105	185426	keystroke_a	a	n/a
92.9375	0.075	185875	keystroke_t	t	n/a
93.133	0.2695	186266	keystroke_i	i	n/a
93.252	0.1355	186504	keystroke_o	o	n/a
93.3575	0.135	186715	keystroke_n	n	n/a
93.5525	0.09	187105	keystroke_s	s	n/a
93.717	0.09	187434	keystroke_Key.space	Key.space	n/a
93.9875	0.1195	187975	keystroke_a	a	n/a
94.2575	0.0755	188515	keystroke_t	t	n/a
94.452	0.0905	188904	keystroke_h	h	n/a
94.7375	0.09	189475	keystroke_l	l	n/a
94.9315	0.091	189863	keystroke_e	e	n/a
95.127	0.0605	190254	keystroke_t	t	n/a
95.293	0.0895	190586	keystroke_i	i	n/a
95.5325	0.09	191065	keystroke_c	c	n/a
95.7125	0.1045	191425	keystroke_s	s	n/a
96.4775	0.075	192955	keystroke_Key.space	Key.space	n/a
96.8065	0.076	193613	keystroke_w	w	n/a
97.0025	0.075	194005	keystroke_h	h	n/a
97.1975	0.075	194395	keystroke_o	o	n/a
97.737	0.015	195474	keystroke_'	'	n/a
97.917	0.075	195834	keystroke_s	s	n/a
98.352	0.135	196704	keystroke_Key.backspace	Key.backspace	n/a
98.532	0.0905	197064	keystroke_d	d	n/a
98.772	0.0755	197544	keystroke_Key.space	Key.space	n/a
99.3875	0.06	198775	keystroke_s	s	n/a
99.5825	0.075	199165	keystroke_w	w	n/a
99.7175	0.06	199435	keystroke_e	e	n/a
99.8365	0.12	199673	keystroke_e	e	n/a
100.257	0.0605	200514	keystroke_t	t	n/a
100.422	0.105	200844	keystroke_Key.enter	Key.enter	n/a
100.534	8.77	201068	prompt	n/a	electron projected posting mcdonald\n
101.3525	0.0895	202705	keystroke_e	e	n/a
101.8925	0.059	203785	keystroke_l	l	n/a
101.9375	0.104	203875	keystroke_e	e	n/a
102.1625	0.105	204325	keystroke_c	c	n/a
102.3725	0.06	204745	keystroke_t	t	n/a
102.552	0.0755	205104	keystroke_r	r	n/a
102.6425	0.12	205285	keystroke_o	o	n/a
102.7325	0.135	205465	keystroke_n	n	n/a
103.0175	0.074	206035	keystroke_Key.space	Key.space	n/a
103.4975	0.0895	206995	keystroke_p	p	n/a
103.6775	0.0745	207355	keystroke_r	r	n/a
103.7675	0.1195	207535	keystroke_o	o	n/a
103.9925	0.075	207985	keystroke_j	j	n/a
104.0825	0.104	208165	keystroke_e	e	n/a
104.3525	0.09	208705	keystroke_c	c	n/a
104.4275	0.075	208855	keystroke_t	t	n/a
104.6975	0.1045	209395	keystroke_e	e	n/a
104.8625	0.09	209725	keystroke_d	d	n/a
105.0425	0.0895	210085	keystroke_Key.space	Key.space	n/a
105.777	0.091	211554	keystroke_p	p	n/a
106.017	0.0755	212034	keystroke_o	o	n/a
106.122	0.09	212244	keystroke_s	s	n/a
106.347	0.06	212694	keystroke_t	t	n/a
106.392	0.1205	212784	keystroke_i	i	n/a
106.4675	0.12	212935	keystroke_n	n	n/a
106.632	0.075	213264	keystroke_g	g	n/a
106.737	0.0905	213474	keystroke_Key.space	Key.space	n/a
107.202	0.0895	214404	keystroke_m	m	n/a
107.517	0.1055	215034	keystroke_c	c	n/a
107.907	0.045	215814	keystroke_d	d	n/a
108.0125	0.09	216025	keystroke_o	o	n/a
108.147	0.09	216294	keystroke_n	n	n/a
108.282	0.0755	216564	keystroke_a	a	n/a
108.4325	0.075	216865	keystroke_l	l	n/a
108.5825	0.09	217165	keystroke_d	d	n/a
109.2275	0.074	218455	keystroke_Key.enter	Key.enter	n/a
109.3085	8.185	218617	prompt	n/a	lowest cubic placement deviation\n
110.052	0.0755	220104	keystroke_l	l	n/a
110.247	0.06	220494	keystroke_o	o	n/a
110.3375	0.074	220675	keystroke_w	w	n/a
110.592	0.015	221184	keystroke_e	e	n/a
110.7415	0.0755	221483	keystroke_s	s	n/a
111.402	0.0605	222804	keystroke_t	t	n/a
111.582	0.0755	223164	keystroke_Key.space	Key.space	n/a
111.8525	0.059	223705	keystroke_c	c	n/a
112.093	0.0895	224186	keystroke_u	u	n/a
112.317	0.09	224634	keystroke_b	b	n/a
112.4975	0.0895	224995	keystroke_i	i	n/a
112.6325	0.0895	225265	keystroke_c	c	n/a
112.797	0.06	225594	keystroke_Key.space	Key.space	n/a
113.4115	0.121	226823	keystroke_p	p	n/a
113.5175	0.09	227035	keystroke_l	l	n/a
113.6225	0.104	227245	keystroke_a	a	n/a
114.0875	0.1045	228175	keystroke_c	c	n/a
114.282	0.061	228564	keystroke_e	e	n/a
114.522	0.09	229044	keystroke_m	m	n/a
114.627	0.105	229254	keystroke_e	e	n/a
114.747	0.075	229494	keystroke_n	n	n/a
114.852	0.045	229704	keystroke_t	t	n/a
114.972	0.075	229944	keystroke_Key.space	Key.space	n/a
115.7375	0.075	231475	keystroke_d	d	n/a
115.9025	0.105	231805	keystroke_e	e	n/a
116.112	0.09	232224	keystroke_v	v	n/a
116.277	0.075	232554	keystroke_i	i	n/a
116.3675	0.0895	232735	keystroke_a	a	n/a
116.5465	0.061	233093	keystroke_t	t	n/a
116.6365	0.316	233273	keystroke_i	i	n/a
116.848	0.1795	233696	keystroke_n	n	n/a
116.8625	0.12	233725	keystroke_o	o	n/a
117.4175	0.0745	234835	keystroke_Key.enter	Key.enter	n/a
117.497	7.467	234994	prompt	n/a	arms disc explicit manager\n
118.887	0.1205	237774	keystroke_a	a	n/a
119.0525	0.0895	238105	keystroke_r	r	n/a
119.217	0.09	238434	keystroke_m	m	n/a
119.337	0.09	238674	keystroke_s	s	n/a
119.487	0.0755	238974	keystroke_Key.space	Key.space	n/a
120.1015	0.09	240203	keystroke_d	d	n/a
120.3265	0.046	240653	keystroke_i	i	n/a
120.3875	0.1045	240775	keystroke_s	s	n/a
120.5975	0.075	241195	keystroke_c	c	n/a
120.852	0.0605	241704	keystroke_Key.space	Key.space	n/a
121.557	0.0605	243114	keystroke_e	e	n/a
121.8125	0.075	243625	keystroke_x	x	n/a
122.2625	0.15	244525	keystroke_p	p	n/a
122.3525	0.12	244705	keystroke_l	l	n/a
122.622	0.09	245244	keystroke_i	i	n/a
122.802	0.075	245604	keystroke_c	c	n/a
122.892	0.0895	245784	keystroke_i	i	n/a
123.1465	0.076	246293	keystroke_t	t	n/a
123.387	0.06	246774	keystroke_Key.space	Key.space	n/a
123.6425	0.0895	247285	keystroke_m	m	n/a
123.747	0.075	247494	keystroke_a	a	n/a
123.912	0.09	247824	keystroke_n	n	n/a
124.002	0.09	248004	keystroke_a	a	n/a
124.212	0.0605	248424	keystroke_g	g	n/a
124.302	0.1355	248604	keystroke_e	e	n/a
124.7375	0.06	249475	keystroke_r	r	n/a
124.872	0.09	249744	keystroke_Key.enter	Key.enter	n/a
124.969	12.91	249938	prompt	n/a	bufing tests draws instruction\n
125.8775	0.0895	251755	keystroke_b	b	n/a
126.042	0.075	252084	keystroke_u	u	n/a
126.2225	0.0745	252445	keystroke_f	f	n/a
126.3725	0.1345	252745	keystroke_i	i	n/a
126.462	0.135	252924	keystroke_n	n	n/a
126.5525	0.0745	253105	keystroke_g	g	n/a
126.717	0.09	253434	keystroke_Key.space	Key.space	n/a
127.3325	0.135	254665	keystroke_d	d	n/a
128.4415	0.0605	256883	keystroke_Key.backspace	Key.backspace	n/a
128.6975	0.1045	257395	keystroke_t	t	n/a
128.8315	0.1055	257663	keystroke_e	e	n/a
129.0565	0.136	258113	keystroke_s	s	n/a
129.2675	0.0895	258535	keystroke_t	t	n/a
130.002	0.06	260004	keystroke_Key.space	Key.space	n/a
130.2425	0.075	260485	keystroke_d	d	n/a
131.037	0.105	262074	keystroke_r	r	n/a
131.3525	0.0445	262705	keystroke_a	a	n/a
131.922	0.15	263844	keystroke_w	w	n/a
132.3425	0.0895	264685	keystroke_s	s	n/a
133.422	0.0755	266844	keystroke_Key.space	Key.space	n/a
133.7825	0.1345	267565	keystroke_i	i	n/a
133.872	0.12	267744	keystroke_n	n	n/a
133.932	0.1205	267864	keystroke_s	s	n/a
134.1875	0.135	268375	keystroke_t	t	n/a
134.2775	0.12	268555	keystroke_r	r	n/a
134.5175	0.06	269035	keystroke_u	u	n/a
134.6975	0.075	269395	keystroke_c	c	n/a
134.9075	0.075	269815	keystroke_t	t	n/a
135.0275	0.285	270055	keystroke_i	i	n/a
135.1775	0.18	270355	keystroke_n	n	n/a
135.192	0.1205	270384	keystroke_o	o	n/a
136.437	0.0905	272874	keystroke_Key.backspace	Key.backspace	n/a
136.6175	0.09	273235	keystroke_Key.backspace	Key.backspace	n/a
137.277	0.2255	274554	keystroke_o	o	n/a
137.4425	0.1195	274885	keystroke_n	n	n/a
137.8025	0.075	275605	keystroke_Key.enter	Key.enter	n/a
137.883	8.2155	275766	prompt	n/a	butterfly hose actually exempt\n
138.793	0.089	277586	keystroke_b	b	n/a
138.987	0.09	277974	keystroke_u	u	n/a
139.242	0.06	278484	keystroke_t	t	n/a
139.4075	0.075	278815	keystroke_t	t	n/a
139.5275	0.18	279055	keystroke_e	e	n/a
139.6625	0.089	279325	keystroke_r	r	n/a
140.3525	0.074	280705	keystroke_f	f	n/a
140.5325	0.075	281065	keystroke_l	l	n/a
140.7425	0.06	281485	keystroke_y	y	n/a
141.132	0.075	282264	keystroke_Key.space	Key.space	n/a
141.5075	0.06	283015	keystroke_h	h	n/a
141.6725	0.09	283345	keystroke_o	o	n/a
141.7775	0.06	283555	keystroke_s	s	n/a
141.9725	0.06	283945	keystroke_e	e	n/a
142.1525	0.06	284305	keystroke_Key.space	Key.space	n/a
142.3625	0.09	284725	keystroke_a	a	n/a
142.6025	0.0745	285205	keystroke_c	c	n/a
142.857	0.06	285714	keystroke_t	t	n/a
142.977	0.075	285954	keystroke_u	u	n/a
143.112	0.1055	286224	keystroke_a	a	n/a
143.292	0.06	286584	keystroke_l	l	n/a
143.4275	0.0895	286855	keystroke_l	l	n/a
143.667	0.075	287334	keystroke_y	y	n/a
144.1475	0.059	288295	keystroke_Key.space	Key.space	n/a
144.4475	0.104	288895	keystroke_e	e	n/a
144.7925	0.06	289585	keystroke_x	x	n/a
145.0175	0.06	290035	keystroke_e	e	n/a
145.2575	0.075	290515	keystroke_m	m	n/a
145.4675	0.09	290935	keystroke_p	p	n/a
145.707	0.075	291414	keystroke_t	t	n/a
146.052	0.0445	292104	keystroke_Key.enter	Key.enter	n/a
146.1025	8.8015	292205	prompt	n/a	better intended abortion efficiency\n
147.0275	0.074	294055	keystroke_b	b	n/a
147.1165	0.091	294233	keystroke_e	e	n/a
147.3275	0.045	294655	keystroke_t	t	n/a
147.447	0.105	294894	keystroke_t	t	n/a
147.507	0.1355	295014	keystroke_e	e	n/a
147.6275	0.09	295255	keystroke_r	r	n/a
147.792	0.075	295584	keystroke_Key.space	Key.space	n/a
148.047	0.1355	296094	keystroke_i	i	n/a
148.1525	0.105	296305	keystroke_n	n	n/a
148.3925	0.09	296785	keystroke_t	t	n/a
148.5275	0.1045	297055	keystroke_e	e	n/a
148.6775	0.1045	297355	keystroke_n	n	n/a
148.8565	0.1055	297713	keystroke_d	d	n/a
149.037	0.1505	298074	keystroke_e	e	n/a
149.157	0.135	298314	keystroke_d	d	n/a
149.682	0.09	299364	keystroke_Key.space	Key.space	n/a
150.0715	0.091	300143	keystroke_a	a	n/a
150.3275	0.074	300655	keystroke_b	b	n/a
150.537	0.0755	301074	keystroke_o	o	n/a
150.702	0.0755	301404	keystroke_r	r	n/a
150.8965	0.06	301793	keystroke_t	t	n/a
151.0465	0.1215	302093	keystroke_i	i	n/a
151.3625	0.105	302725	keystroke_o	o	n/a
151.5265	0.1055	303053	keystroke_n	n	n/a
151.8715	0.076	303743	keystroke_Key.space	Key.space	n/a
152.1275	0.09	304255	keystroke_e	e	n/a
152.3375	0.075	304675	keystroke_f	f	n/a
152.4875	0.104	304975	keystroke_f	f	n/a
152.6225	0.104	305245	keystroke_i	i	n/a
152.8475	0.0895	305695	keystroke_c	c	n/a
152.967	0.0755	305934	keystroke_i	i	n/a
153.7925	0.0895	307585	keystroke_e	e	n/a
154.0315	0.076	308063	keystroke_n	n	n/a
154.1975	0.09	308395	keystroke_c	c	n/a
154.4675	0.06	308935	keystroke_y	y	n/a
154.812	0.0895	309624	keystroke_Key.enter	Key.enter	n/a
154.907	7.226	309814	prompt	n/a	balance poem cheapest abroad\n
155.652	0.0595	311304	keystroke_b	b	n/a
155.757	0.105	311514	keystroke_a	a	n/a
155.907	0.09	311814	keystroke_l	l	n/a
156.012	0.09	312024	keystroke_a	a	n/a
156.162	0.06	312324	keystroke_n	n	n/a
156.357	0.09	312714	keystroke_c	c	n/a
156.537	0.0755	313074	keystroke_e	e	n/a
156.702	0.06	313404	keystroke_Key.space	Key.space	n/a
157.3175	0.0745	314635	keystroke_p	p	n/a
157.5575	0.089	315115	keystroke_o	o	n/a
157.692	0.1055	315384	keystroke_e	e	n/a
158.022	0.09	316044	keystroke_m	m	n/a
158.308	0.059	316616	keystroke_Key.space	Key.space	n/a
158.877	0.061	317754	keystroke_c	c	n/a
158.9975	0.06	317995	keystroke_h	h	n/a
159.0725	0.21	318145	keystroke_e	e	n/a
159.2375	0.06	318475	keystroke_a	a	n/a
159.4025	0.09	318805	keystroke_p	p	n/a
159.5225	0.1045	319045	keystroke_e	e	n/a
159.747	0.09	319494	keystroke_s	s	n/a
159.9875	0.0745	319975	keystroke_t	t	n/a
160.1515	0.0905	320303	keystroke_Key.space	Key.space	n/a
160.782	0.0595	321564	keystroke_a	a	n/a
160.932	0.09	321864	keystroke_b	b	n/a
161.2025	0.074	322405	keystroke_r	r	n/a
161.3825	0.075	322765	keystroke_o	o	n/a
161.4425	0.12	322885	keystroke_a	a	n/a
161.6675	0.075	323335	keystroke_d	d	n/a
162.087	0.045	324174	keystroke_Key.enter	Key.enter	n/a
162.1365	13.047	324273	prompt	n/a	plugins migration requiring manager\n
163.1075	0.12	326215	keystroke_p	p	n/a
163.1975	0.105	326395	keystroke_l	l	n/a
163.4825	0.06	326965	keystroke_u	u	n/a
163.7075	0.0745	327415	keystroke_g	g	n/a
163.8125	0.1645	327625	keystroke_i	i	n/a
163.917	0.15	327834	keystroke_n	n	n/a
164.172	0.075	328344	keystroke_s	s	n/a
164.427	0.075	328854	keystroke_Key.space	Key.space	n/a
165.1465	0.09	330293	keystroke_m	m	n/a
165.3875	0.059	330775	keystroke_i	i	n/a
165.507	0.0895	331014	keystroke_g	g	n/a
165.672	0.1505	331344	keystroke_r	r	n/a
165.8525	0.179	331705	keystroke_a	a	n/a
166.0765	0.1055	332153	keystroke_t	t	n/a
166.242	0.1805	332484	keystroke_i	i	n/a
166.3165	0.09	332633	keystroke_o	o	n/a
166.347	0.1495	332694	keystroke_n	n	n/a
167.1115	0.0755	334223	keystroke_Key.space	Key.space	n/a
167.3215	0.12	334643	keystroke_r	r	n/a
167.3965	0.105	334793	keystroke_e	e	n/a
167.9515	0.0155	335903	keystroke_q	q	n/a
168.0415	0.075	336083	keystroke_u	u	n/a
168.2365	0.0755	336473	keystroke_i	i	n/a
168.3875	0.12	336775	keystroke_r	r	n/a
168.4615	0.135	336923	keystroke_e	e	n/a
170.112	0.12	340224	keystroke_Key.backspace	Key.backspace	n/a
170.652	0.135	341304	keystroke_i	i	n/a
170.742	0.135	341484	keystroke_n	n	n/a
170.892	0.09	341784	keystroke_g	g	n/a
171.027	0.075	342054	keystroke_Key.space	Key.space	n/a
171.492	0.0905	342984	keystroke_m	m	n/a
171.597	0.135	343194	keystroke_a	a	n/a
171.852	0.0755	343704	keystroke_g	g	n/a
171.9715	0.09	343943	keystroke_a	a	n/a
172.3025	0.0445	344605	keystroke_n	n	n/a
173.472	0.075	346944	keystroke_Key.backspace	Key.backspace	n/a
173.607	0.105	347214	keystroke_Key.backspace	Key.backspace	n/a
173.7715	0.075	347543	keystroke_Key.backspace	Key.backspace	n/a
174.432	0.09	348864	keystroke_n	n	n/a
174.567	0.12	349134	keystroke_a	a	n/a
174.687	0.06	349374	keystroke_g	g	n/a
174.852	0.1195	349704	keystroke_e	e	n/a
174.9275	0.1045	349855	keystroke_r	r	n/a
175.077	0.105	350154	keystroke_Key.enter	Key.enter	n/a
175.19	7.4195	350380	prompt	n/a	keywords categories usps plan\n
176.022	0.075	352044	keystroke_k	k	n/a
176.142	0.09	352284	keystroke_e	e	n/a
176.3075	0.075	352615	keystroke_y	y	n/a
176.5475	0.12	353095	keystroke_w	w	n/a
176.7875	0.059	353575	keystroke_o	o	n/a
177.132	0.075	354264	keystroke_r	r	n/a
177.342	0.135	354684	keystroke_d	d	n/a
177.4325	0.0895	354865	keystroke_s	s	n/a
178.047	0.075	356094	keystroke_Key.space	Key.space	n/a
178.272	0.165	356544	keystroke_c	c	n/a
178.497	0.0755	356994	keystroke_a	a	n/a
178.7375	0.1045	357475	keystroke_t	t	n/a
178.872	0.1055	357744	keystroke_e	e	n/a
179.052	0.0905	358104	keystroke_g	g	n/a
179.397	0.0755	358794	keystroke_o	o	n/a
179.5625	0.074	359125	keystroke_r	r	n/a
179.682	0.0895	359364	keystroke_i	i	n/a
179.8475	0.09	359695	keystroke_e	e	n/a
180.0875	0.075	360175	keystroke_s	s	n/a
180.3425	0.06	360685	keystroke_Key.space	Key.space	n/a
180.717	0.06	361434	keystroke_u	u	n/a
180.807	0.0905	361614	keystroke_s	s	n/a
181.0175	0.06	362035	keystroke_p	p	n/a
181.122	0.075	362244	keystroke_s	s	n/a
181.662	0.0455	363324	keystroke_Key.space	Key.space	n/a
181.8725	0.1345	363745	keystroke_p	p	n/a
181.932	0.1205	363864	keystroke_l	l	n/a
182.067	0.0755	364134	keystroke_a	a	n/a
182.247	0.0755	364494	keystroke_n	n	n/a
182.502	0.105	365004	keystroke_Key.enter	Key.enter	n/a
182.614	5.306	365228	prompt	n/a	nutten lawn seed ladder\n
183.3425	0.0895	366685	keystroke_n	n	n/a
183.507	0.09	367014	keystroke_u	u	n/a
183.7165	0.045	367433	keystroke_t	t	n/a
183.8515	0.0755	367703	keystroke_t	t	n/a
183.9725	0.0895	367945	keystroke_e	e	n/a
184.0925	0.0895	368185	keystroke_n	n	n/a
184.6625	0.089	369325	keystroke_Key.space	Key.space	n/a
184.9615	0.105	369923	keystroke_l	l	n/a
185.0375	0.105	370075	keystroke_a	a	n/a
185.2775	0.059	370555	keystroke_w	w	n/a
185.4265	0.0905	370853	keystroke_n	n	n/a
185.6665	0.0605	371333	keystroke_Key.space	Key.space	n/a
185.7875	0.0745	371575	keystroke_s	s	n/a
186.012	0.03	372024	keystroke_e	e	n/a
186.147	0.0905	372294	keystroke_e	e	n/a
186.312	0.1045	372624	keystroke_d	d	n/a
186.5515	0.0455	373103	keystroke_Key.space	Key.space	n/a
187.0315	0.09	374063	keystroke_l	l	n/a
187.0765	0.105	374153	keystroke_a	a	n/a
187.2565	0.076	374513	keystroke_d	d	n/a
187.4075	0.119	374815	keystroke_d	d	n/a
187.5575	0.134	375115	keystroke_e	e	n/a
187.6765	0.061	375353	keystroke_r	r	n/a
187.872	0.045	375744	keystroke_Key.enter	Key.enter	n/a
187.9245	15.4595	375849	prompt	n/a	tomorrow registrar costume mightn't\n
188.697	0.0755	377394	keystroke_t	t	n/a
188.893	0.0895	377786	keystroke_o	o	n/a
189.1775	0.089	378355	keystroke_o	o	n/a
189.7315	0.105	379463	keystroke_Key.backspace	Key.backspace	n/a
190.2275	0.06	380455	keystroke_m	m	n/a
190.3925	0.09	380785	keystroke_o	o	n/a
190.5575	0.09	381115	keystroke_r	r	n/a
191.3215	0.076	382643	keystroke_r	r	n/a
191.4265	0.136	382853	keystroke_o	o	n/a
191.5765	0.1055	383153	keystroke_w	w	n/a
191.8925	0.075	383785	keystroke_Key.space	Key.space	n/a
192.4775	0.15	384955	keystroke_r	r	n/a
192.5525	0.12	385105	keystroke_e	e	n/a
192.8375	0.09	385675	keystroke_s	s	n/a
193.7665	0.09	387533	keystroke_Key.backspace	Key.backspace	n/a
194.2925	0.075	388585	keystroke_g	g	n/a
194.5015	0.076	389003	keystroke_i	i	n/a
194.6225	0.074	389245	keystroke_s	s	n/a
195.5375	0.105	391075	keystroke_t	t	n/a
195.627	0.2255	391254	keystroke_r	r	n/a
195.7925	0.1495	391585	keystroke_a	a	n/a
196.137	0.075	392274	keystroke_r	r	n/a
196.8715	0.075	393743	keystroke_Key.space	Key.space	n/a
197.2325	0.074	394465	keystroke_c	c	n/a
197.4415	0.061	394883	keystroke_o	o	n/a
197.5175	0.105	395035	keystroke_s	s	n/a
197.8625	0.06	395725	keystroke_t	t	n/a
197.9975	0.0745	395995	keystroke_u	u	n/a
198.1925	0.0895	396385	keystroke_m	m	n/a
198.2975	0.0745	396595	keystroke_e	e	n/a
198.492	0.09	396984	keystroke_Key.space	Key.space	n/a
198.7475	0.0745	397495	keystroke_m	m	n/a
198.9575	0.075	397915	keystroke_i	i	n/a
200.202	0.09	400404	keystroke_g	g	n/a
200.4275	0.0745	400855	keystroke_h	h	n/a
200.9975	0.09	401995	keystroke_t	t	n/a
201.897	0.135	403794	keystroke_n	n	n/a
202.092	0.09	404184	keystroke_'	'	n/a
202.167	0.09	404334	keystroke_t	t	n/a
203.3375	0.044	406675	keystroke_Key.enter	Key.enter	n/a
203.3885	6.5805	406777	prompt	n/a	warranties rack you billy\n
204.2525	0.12	408505	keystroke_w	w	n/a
204.4325	0.12	408865	keystroke_a	a	n/a
204.6875	0.03	409375	keystroke_r	r	n/a
204.8075	0.074	409615	keystroke_r	r	n/a
205.032	0.0905	410064	keystroke_a	a	n/a
205.7225	0.09	411445	keystroke_n	n	n/a
205.8875	0.1045	411775	keystroke_t	t	n/a
206.0065	0.061	412013	keystroke_i	i	n/a
206.0975	0.089	412195	keystroke_e	e	n/a
206.3075	0.0745	412615	keystroke_s	s	n/a
206.637	0.0755	413274	keystroke_Key.space	Key.space	n/a
206.9225	0.09	413845	keystroke_r	r	n/a
207.058	0.1345	414116	keystroke_a	a	n/a
207.2975	0.09	414595	keystroke_c	c	n/a
207.402	0.09	414804	keystroke_k	k	n/a
207.6425	0.06	415285	keystroke_Key.space	Key.space	n/a
208.272	0.06	416544	keystroke_y	y	n/a
208.392	0.105	416784	keystroke_o	o	n/a
208.632	0.075	417264	keystroke_u	u	n/a
208.797	0.0895	417594	keystroke_Key.space	Key.space	n/a
209.0075	0.0745	418015	keystroke_b	b	n/a
209.1725	0.09	418345	keystroke_i	i	n/a
209.4125	0.045	418825	keystroke_l	l	n/a
209.5475	0.0905	419095	keystroke_l	l	n/a
209.697	0.06	419394	keystroke_y	y	n/a
209.8775	0.09	419755	keystroke_Key.enter	Key.enter	n/a
209.973	6.6255	419946	prompt	n/a	cruise belong violin nicole\n
210.717	0.09	421434	keystroke_c	c	n/a
210.942	0.06	421884	keystroke_r	r	n/a
211.1075	0.059	422215	keystroke_u	u	n/a
211.2715	0.075	422543	keystroke_i	i	n/a
211.392	0.0605	422784	keystroke_s	s	n/a
211.588	0.0595	423176	keystroke_e	e	n/a
211.7215	0.091	423443	keystroke_Key.space	Key.space	n/a
212.3525	0.06	424705	keystroke_b	b	n/a
212.4725	0.074	424945	keystroke_e	e	n/a
212.6225	0.074	425245	keystroke_l	l	n/a
212.8025	0.1045	425605	keystroke_o	o	n/a
212.8925	0.105	425785	keystroke_n	n	n/a
212.9975	0.0745	425995	keystroke_g	g	n/a
213.132	0.075	426264	keystroke_Key.space	Key.space	n/a
213.807	0.0745	427614	keystroke_v	v	n/a
213.9425	0.074	427885	keystroke_i	i	n/a
214.1375	0.075	428275	keystroke_o	o	n/a
214.3325	0.089	428665	keystroke_l	l	n/a
214.572	0.0755	429144	keystroke_i	i	n/a
214.7375	0.074	429475	keystroke_n	n	n/a
214.992	0.0445	429984	keystroke_Key.space	Key.space	n/a
215.442	0.0755	430884	keystroke_n	n	n/a
215.5925	0.09	431185	keystroke_i	i	n/a
215.772	0.09	431544	keystroke_c	c	n/a
216.0275	0.0745	432055	keystroke_o	o	n/a
216.2225	0.075	432445	keystroke_l	l	n/a
216.3275	0.09	432655	keystroke_e	e	n/a
216.5375	0.06	433075	keystroke_Key.enter	Key.enter	n/a
216.603	12.4485	433206	prompt	n/a	drinking historical roommates purchased\n
217.4975	0.09	434995	keystroke_d	d	n/a
217.7075	0.09	435415	keystroke_r	r	n/a
217.8125	0.105	435625	keystroke_i	i	n/a
217.8725	0.1195	435745	keystroke_n	n	n/a
218.262	0.091	436524	keystroke_k	k	n/a
218.442	0.1205	436884	keystroke_i	i	n/a
218.5175	0.15	437035	keystroke_n	n	n/a
218.6825	0.075	437365	keystroke_g	g	n/a
218.862	0.0755	437724	keystroke_Key.space	Key.space	n/a
219.6125	0.075	439225	keystroke_h	h	n/a
219.7475	0.09	439495	keystroke_i	i	n/a
219.8525	0.0745	439705	keystroke_s	s	n/a
220.107	0.0755	440214	keystroke_t	t	n/a
220.273	0.0895	440546	keystroke_o	o	n/a
220.4075	0.09	440815	keystroke_r	r	n/a
220.6025	0.075	441205	keystroke_i	i	n/a
220.8125	0.1045	441625	keystroke_c	c	n/a
220.977	0.1055	441954	keystroke_a	a	n/a
221.1275	0.09	442255	keystroke_l	l	n/a
221.6375	0.045	443275	keystroke_Key.space	Key.space	n/a
222.0575	0.075	444115	keystroke_r	r	n/a
222.2375	0.09	444475	keystroke_o	o	n/a
222.4325	0.075	444865	keystroke_m	m	n/a
222.5975	0.105	445195	keystroke_m	m	n/a
223.9025	0.1045	447805	keystroke_Key.backspace	Key.backspace	n/a
224.0825	0.09	448165	keystroke_Key.backspace	Key.backspace	n/a
224.8175	0.105	449635	keystroke_o	o	n/a
225.0425	0.0595	450085	keystroke_m	m	n/a
225.2665	0.0455	450533	keystroke_m	m	n/a
225.777	0.1205	451554	keystroke_a	a	n/a
226.1825	0.12	452365	keystroke_t	t	n/a
226.303	0.104	452606	keystroke_e	e	n/a
226.513	0.075	453026	keystroke_s	s	n/a
226.6775	0.0745	453355	keystroke_Key.space	Key.space	n/a
227.1575	0.09	454315	keystroke_p	p	n/a
227.397	0.0755	454794	keystroke_u	u	n/a
227.757	0.075	455514	keystroke_r	r	n/a
228.0125	0.0895	456025	keystroke_c	c	n/a
228.132	0.075	456264	keystroke_h	h	n/a
228.222	0.0905	456444	keystroke_a	a	n/a
228.478	0.059	456956	keystroke_s	s	n/a
228.6575	0.075	457315	keystroke_e	e	n/a
228.7925	0.09	457585	keystroke_d	d	n/a
228.942	0.105	457884	keystroke_Key.enter	Key.enter	n/a
229.0555	6.023	458111	prompt	n/a	pound marvel attempt vendor\n
229.8875	0.0745	459775	keystroke_p	p	n/a
230.0825	0.075	460165	keystroke_o	o	n/a
230.3065	0.121	460613	keystroke_u	u	n/a
230.398	0.1345	460796	keystroke_n	n	n/a
230.6675	0.0745	461335	keystroke_d	d	n/a
230.7865	0.091	461573	keystroke_Key.space	Key.space	n/a
231.2375	0.075	462475	keystroke_m	m	n/a
231.2975	0.12	462595	keystroke_a	a	n/a
231.4775	0.09	462955	keystroke_r	r	n/a
231.6875	0.09	463375	keystroke_v	v	n/a
231.8525	0.09	463705	keystroke_e	e	n/a
232.0175	0.09	464035	keystroke_l	l	n/a
232.2725	0.075	464545	keystroke_Key.space	Key.space	n/a
232.482	0.1055	464964	keystroke_a	a	n/a
232.708	0.0595	465416	keystroke_t	t	n/a
232.8275	0.0895	465655	keystroke_t	t	n/a
232.9775	0.074	465955	keystroke_e	e	n/a
233.0965	0.091	466193	keystroke_m	m	n/a
233.292	0.09	466584	keystroke_p	p	n/a
233.4575	0.0745	466915	keystroke_t	t	n/a
233.6365	0.091	467273	keystroke_Key.space	Key.space	n/a
234.0875	0.075	468175	keystroke_v	v	n/a
234.2375	0.09	468475	keystroke_e	e	n/a
234.3575	0.09	468715	keystroke_n	n	n/a
234.5525	0.12	469105	keystroke_d	d	n/a
234.6875	0.105	469375	keystroke_o	o	n/a
234.8075	0.09	469615	keystroke_r	r	n/a
235.0015	0.0755	470003	keystroke_Key.enter	Key.enter	n/a
235.082	10.377	470164	prompt	n/a	losses piece battlefield formats\n
235.812	0.0755	471624	keystroke_l	l	n/a
236.007	0.0755	472014	keystroke_o	o	n/a
236.097	0.075	472194	keystroke_s	s	n/a
236.2625	0.0745	472525	keystroke_s	s	n/a
236.4875	0.089	472975	keystroke_e	e	n/a
236.6975	0.09	473395	keystroke_s	s	n/a
237.4315	0.045	474863	keystroke_Key.space	Key.space	n/a
237.7325	0.1195	475465	keystroke_p	p	n/a
238.0025	0.045	476005	keystroke_i	i	n/a
238.077	0.09	476154	keystroke_s	s	n/a
238.317	0.06	476634	keystroke_e	e	n/a
238.527	0.105	477054	keystroke_Key.backspace	Key.backspace	n/a
238.722	0.09	477444	keystroke_Key.backspace	Key.backspace	n/a
238.827	0.1055	477654	keystroke_e	e	n/a
239.742	0.0755	479484	keystroke_c	c	n/a
239.8775	0.0895	479755	keystroke_e	e	n/a
240.297	0.0755	480594	keystroke_Key.space	Key.space	n/a
240.6275	0.074	481255	keystroke_b	b	n/a
240.6865	0.1055	481373	keystroke_a	a	n/a
240.9125	0.0595	481825	keystroke_t	t	n/a
241.047	0.0755	482094	keystroke_t	t	n/a
241.2865	0.0755	482573	keystroke_l	l	n/a
241.3925	0.105	482785	keystroke_e	e	n/a
242.3215	0.1205	484643	keystroke_f	f	n/a
242.4875	0.074	484975	keystroke_i	i	n/a
242.6065	0.105	485213	keystroke_e	e	n/a
242.7275	0.075	485455	keystroke_l	l	n/a
242.8475	0.0895	485695	keystroke_d	d	n/a
243.3275	0.06	486655	keystroke_Key.space	Key.space	n/a
243.853	0.09	487706	keystroke_f	f	n/a
244.0325	0.09	488065	keystroke_o	o	n/a
244.123	0.074	488246	keystroke_r	r	n/a
244.2875	0.0745	488575	keystroke_m	m	n/a
244.4075	0.0905	488815	keystroke_a	a	n/a
244.602	0.09	489204	keystroke_t	t	n/a
245.0675	0.09	490135	keystroke_s	s	n/a
245.367	0.09	490734	keystroke_Key.enter	Key.enter	n/a
245.464	7.675	490928	prompt	n/a	merely switched repairs iowa\n
246.1775	0.0895	492355	keystroke_m	m	n/a
246.252	0.1205	492504	keystroke_e	e	n/a
246.4025	0.1795	492805	keystroke_r	r	n/a
246.552	0.135	493104	keystroke_e	e	n/a
246.8375	0.1345	493675	keystroke_l	l	n/a
247.797	0.0455	495594	keystroke_y	y	n/a
248.112	0.0595	496224	keystroke_Key.space	Key.space	n/a
248.2175	0.09	496435	keystroke_s	s	n/a
248.4715	0.075	496943	keystroke_w	w	n/a
248.652	0.09	497304	keystroke_i	i	n/a
248.7875	0.0745	497575	keystroke_t	t	n/a
249.0725	0.0745	498145	keystroke_c	c	n/a
249.132	0.075	498264	keystroke_h	h	n/a
249.2675	0.135	498535	keystroke_e	e	n/a
249.387	0.06	498774	keystroke_d	d	n/a
249.492	0.0155	498984	keystroke_d	d	n/a
249.762	0.0605	499524	keystroke_Key.space	Key.space	n/a
250.0775	0.1805	500155	keystroke_r	r	n/a
250.242	0.1205	500484	keystroke_e	e	n/a
250.407	0.1055	500814	keystroke_p	p	n/a
250.5275	0.105	501055	keystroke_a	a	n/a
250.7975	0.074	501595	keystroke_i	i	n/a
251.007	0.09	502014	keystroke_r	r	n/a
251.5325	0.09	503065	keystroke_s	s	n/a
251.7875	0.06	503575	keystroke_Key.space	Key.space	n/a
252.2975	0.0745	504595	keystroke_i	i	n/a
252.4925	0.09	504985	keystroke_o	o	n/a
252.732	0.0605	505464	keystroke_w	w	n/a
252.9125	0.0895	505825	keystroke_a	a	n/a
253.0475	0.0895	506095	keystroke_Key.enter	Key.enter	n/a
253.1435	11.486	506287	prompt	n/a	mozilla particularly improved reggae\n
253.9025	0.06	507805	keystroke_m	m	n/a
254.0975	0.06	508195	keystroke_o	o	n/a
254.3375	0.089	508675	keystroke_z	z	n/a
254.517	0.0745	509034	keystroke_i	i	n/a
254.7725	0.06	509545	keystroke_l	l	n/a
254.8915	0.0905	509783	keystroke_l	l	n/a
255.012	0.075	510024	keystroke_a	a	n/a
255.1765	0.0755	510353	keystroke_Key.space	Key.space	n/a
257.187	0.0605	514374	keystroke_p	p	n/a
257.2625	0.1045	514525	keystroke_a	a	n/a
257.472	0.0755	514944	keystroke_r	r	n/a
257.6825	0.06	515365	keystroke_t	t	n/a
257.8625	0.06	515725	keystroke_i	i	n/a
258.118	0.0895	516236	keystroke_c	c	n/a
258.312	0.105	516624	keystroke_u	u	n/a
258.882	0.09	517764	keystroke_l	l	n/a
258.9875	0.1045	517975	keystroke_a	a	n/a
259.197	0.105	518394	keystroke_r	r	n/a
259.392	0.1055	518784	keystroke_l	l	n/a
259.5865	0.09	519173	keystroke_y	y	n/a
260.0365	0.0755	520073	keystroke_Key.space	Key.space	n/a
260.2925	0.134	520585	keystroke_i	i	n/a
260.442	0.1045	520884	keystroke_m	m	n/a
260.6665	0.106	521333	keystroke_p	p	n/a
260.8925	0.0595	521785	keystroke_r	r	n/a
260.9365	0.1055	521873	keystroke_o	o	n/a
261.162	0.0755	522324	keystroke_v	v	n/a
261.297	0.12	522594	keystroke_e	e	n/a
261.447	0.1205	522894	keystroke_d	d	n/a
261.582	0.0905	523164	keystroke_Key.space	Key.space	n/a
262.362	0.151	524724	keystroke_r	r	n/a
262.452	0.15	524904	keystroke_e	e	n/a
263.667	0.075	527334	keystroke_g	g	n/a
263.817	0.105	527634	keystroke_g	g	n/a
263.952	0.12	527904	keystroke_a	a	n/a
264.252	0.075	528504	keystroke_e	e	n/a
264.537	0.09	529074	keystroke_Key.enter	Key.enter	n/a
264.6365	8.962	529273	prompt	n/a	reload cheapest cardiac amendments\n
265.4075	0.12	530815	keystroke_r	r	n/a
265.4825	0.1345	530965	keystroke_e	e	n/a
265.6925	0.0895	531385	keystroke_l	l	n/a
265.872	0.075	531744	keystroke_o	o	n/a
265.9925	0.105	531985	keystroke_a	a	n/a
266.1275	0.0895	532255	keystroke_d	d	n/a
266.352	0.045	532704	keystroke_Key.space	Key.space	n/a
266.7715	0.091	533543	keystroke_c	c	n/a
266.892	0.0755	533784	keystroke_h	h	n/a
266.9825	0.18	533965	keystroke_e	e	n/a
267.1025	0.105	534205	keystroke_a	a	n/a
267.1775	0.09	534355	keystroke_p	p	n/a
267.3425	0.12	534685	keystroke_e	e	n/a
267.717	0.09	535434	keystroke_s	s	n/a
267.987	0.075	535974	keystroke_t	t	n/a
268.422	0.06	536844	keystroke_Key.space	Key.space	n/a
269.1425	0.0895	538285	keystroke_c	c	n/a
269.4865	0.075	538973	keystroke_a	a	n/a
269.6665	0.09	539333	keystroke_r	r	n/a
269.8915	0.076	539783	keystroke_d	d	n/a
270.0125	0.0745	540025	keystroke_i	i	n/a
270.1025	0.119	540205	keystroke_a	a	n/a
270.282	0.105	540564	keystroke_c	c	n/a
270.822	0.075	541644	keystroke_Key.space	Key.space	n/a
271.0475	0.075	542095	keystroke_a	a	n/a
271.2275	0.105	542455	keystroke_m	m	n/a
271.5275	0.075	543055	keystroke_e	e	n/a
271.6175	0.06	543235	keystroke_n	n	n/a
271.7665	0.0905	543533	keystroke_d	d	n/a
271.932	0.105	543864	keystroke_m	m	n/a
272.082	0.135	544164	keystroke_e	e	n/a
272.1725	0.0745	544345	keystroke_n	n	n/a
272.487	0.075	544974	keystroke_t	t	n/a
273.207	0.0905	546414	keystroke_s	s	n/a
273.5375	0.059	547075	keystroke_Key.enter	Key.enter	n/a
273.603	6.191	547206	prompt	n/a	denial skills russian joshua\n
274.347	0.09	548694	keystroke_d	d	n/a
274.467	0.0905	548934	keystroke_e	e	n/a
274.6925	0.075	549385	keystroke_n	n	n/a
274.827	0.1055	549654	keystroke_i	i	n/a
274.9625	0.089	549925	keystroke_a	a	n/a
275.0825	0.0895	550165	keystroke_l	l	n/a
275.307	0.09	550614	keystroke_Key.space	Key.space	n/a
275.697	0.045	551394	keystroke_s	s	n/a
275.757	0.0895	551514	keystroke_k	k	n/a
275.9215	0.0755	551843	keystroke_i	i	n/a
276.147	0.06	552294	keystroke_l	l	n/a
276.267	0.105	552534	keystroke_l	l	n/a
276.387	0.0755	552774	keystroke_s	s	n/a
276.537	0.075	553074	keystroke_Key.space	Key.space	n/a
276.912	0.1045	553824	keystroke_r	r	n/a
277.137	0.09	554274	keystroke_u	u	n/a
277.392	0.06	554784	keystroke_s	s	n/a
277.557	0.09	555114	keystroke_s	s	n/a
277.692	0.105	555384	keystroke_i	i	n/a
277.8425	0.105	555685	keystroke_a	a	n/a
277.9925	0.104	555985	keystroke_n	n	n/a
278.3365	0.061	556673	keystroke_Key.space	Key.space	n/a
278.757	0.075	557514	keystroke_j	j	n/a
278.9075	0.104	557815	keystroke_o	o	n/a
279.0575	0.06	558115	keystroke_s	s	n/a
279.1775	0.09	558355	keystroke_h	h	n/a
279.3415	0.091	558683	keystroke_u	u	n/a
279.4765	0.1055	558953	keystroke_a	a	n/a
279.7015	0.09	559403	keystroke_Key.enter	Key.enter	n/a
279.7985	9.055	559597	prompt	n/a	timer rainbow configured accounting\n
280.632	0.105	561264	keystroke_t	t	n/a
280.7665	0.1505	561533	keystroke_i	i	n/a
280.8415	0.135	561683	keystroke_m	m	n/a
280.962	0.195	561924	keystroke_e	e	n/a
281.1125	0.1045	562225	keystroke_r	r	n/a
281.292	0.075	562584	keystroke_Key.space	Key.space	n/a
281.8025	0.104	563605	keystroke_r	r	n/a
281.9675	0.1045	563935	keystroke_a	a	n/a
282.1315	0.12	564263	keystroke_i	i	n/a
282.2225	0.1045	564445	keystroke_n	n	n/a
282.4915	0.075	564983	keystroke_b	b	n/a
282.6715	0.075	565343	keystroke_o	o	n/a
282.7925	0.0745	565585	keystroke_w	w	n/a
282.942	0.0755	565884	keystroke_Key.space	Key.space	n/a
283.5885	0.074	567177	keystroke_c	c	n/a
283.7225	0.1195	567445	keystroke_o	o	n/a
283.7975	0.1045	567595	keystroke_n	n	n/a
284.0075	0.0745	568015	keystroke_f	f	n/a
284.172	0.1795	568344	keystroke_i	i	n/a
284.8325	0.104	569665	keystroke_g	g	n/a
284.982	0.1195	569964	keystroke_u	u	n/a
285.162	0.1345	570324	keystroke_e	e	n/a
286.0925	0.135	572185	keystroke_Key.backspace	Key.backspace	n/a
286.2425	0.135	572485	keystroke_r	r	n/a
286.3325	0.179	572665	keystroke_e	e	n/a
286.5875	0.1495	573175	keystroke_d	d	n/a
287.1565	0.075	574313	keystroke_Key.space	Key.space	n/a
287.4265	0.105	574853	keystroke_a	a	n/a
287.607	0.0755	575214	keystroke_c	c	n/a
287.7565	0.105	575513	keystroke_c	c	n/a
287.8465	0.0905	575693	keystroke_o	o	n/a
288.0575	0.104	576115	keystroke_u	u	n/a
288.132	0.12	576264	keystroke_n	n	n/a
288.238	0.0735	576476	keystroke_t	t	n/a
288.372	0.1345	576744	keystroke_i	i	n/a
288.447	0.135	576894	keystroke_n	n	n/a
288.5515	0.076	577103	keystroke_g	g	n/a
288.777	0.0745	577554	keystroke_Key.enter	Key.enter	n/a
288.8585	9.2805	577717	prompt	n/a	alex column associations brook\n
289.4675	0.104	578935	keystroke_a	a	n/a
289.6465	0.1055	579293	keystroke_l	l	n/a
289.782	0.06	579564	keystroke_e	e	n/a
290.337	0.105	580674	keystroke_x	x	n/a
290.787	0.075	581574	keystroke_Key.space	Key.space	n/a
291.087	0.06	582174	keystroke_c	c	n/a
291.1765	0.1205	582353	keystroke_o	o	n/a
291.4915	0.06	582983	keystroke_l	l	n/a
292.047	0.091	584094	keystroke_u	u	n/a
292.2575	0.075	584515	keystroke_m	m	n/a
292.4965	0.091	584993	keystroke_n	n	n/a
292.917	0.06	585834	keystroke_Key.space	Key.space	n/a
293.172	0.09	586344	keystroke_a	a	n/a
293.547	0.0605	587094	keystroke_s	s	n/a
293.697	0.1055	587394	keystroke_s	s	n/a
293.8175	0.0895	587635	keystroke_o	o	n/a
293.922	0.1205	587844	keystroke_c	c	n/a
294.102	0.0605	588204	keystroke_i	i	n/a
294.3115	0.106	588623	keystroke_a	a	n/a
294.5065	0.106	589013	keystroke_t	t	n/a
295.0325	0.1195	590065	keystroke_u	u	n/a
295.632	0.105	591264	keystroke_Key.backspace	Key.backspace	n/a
296.4575	0.224	592915	keystroke_i	i	n/a
296.5475	0.12	593095	keystroke_o	o	n/a
296.6075	0.1345	593215	keystroke_n	n	n/a
296.802	0.1055	593604	keystroke_s	s	n/a
296.9965	0.06	593993	keystroke_Key.space	Key.space	n/a
297.3415	0.06	594683	keystroke_b	b	n/a
297.4775	0.074	594955	keystroke_r	r	n/a
297.6115	0.06	595223	keystroke_o	o	n/a
297.7465	0.136	595493	keystroke_o	o	n/a
297.822	0.12	595644	keystroke_k	k	n/a
298.062	0.075	596124	keystroke_Key.enter	Key.enter	n/a
298.1445	9.099	596289	prompt	n/a	owners commitment salvation lynn\n
298.9475	0.0745	597895	keystroke_o	o	n/a
299.098	0.089	598196	keystroke_w	w	n/a
299.232	0.09	598464	keystroke_n	n	n/a
299.472	0.105	598944	keystroke_e	e	n/a
299.637	0.09	599274	keystroke_r	r	n/a
299.862	0.105	599724	keystroke_s	s	n/a
300.147	0.045	600294	keystroke_Key.space	Key.space	n/a
300.657	0.075	601314	keystroke_c	c	n/a
300.792	0.12	601584	keystroke_o	o	n/a
300.882	0.12	601764	keystroke_m	m	n/a
301.152	0.09	602304	keystroke_m	m	n/a
301.9765	0.1055	603953	keystroke_i	i	n/a
302.3815	0.046	604763	keystroke_t	t	n/a
302.7715	0.12	605543	keystroke_m	m	n/a
302.9515	0.1055	605903	keystroke_e	e	n/a
303.0865	0.121	606173	keystroke_n	n	n/a
303.2365	0.105	606473	keystroke_t	t	n/a
304.0465	0.06	608093	keystroke_Key.space	Key.space	n/a
304.1815	0.15	608363	keystroke_s	s	n/a
304.4675	0.075	608935	keystroke_a	a	n/a
304.587	0.09	609174	keystroke_l	l	n/a
304.842	0.075	609684	keystroke_v	v	n/a
304.977	0.105	609954	keystroke_a	a	n/a
305.172	0.06	610344	keystroke_t	t	n/a
305.3075	0.2245	610615	keystroke_i	i	n/a
305.397	0.12	610794	keystroke_o	o	n/a
305.457	0.12	610914	keystroke_n	n	n/a
305.712	0.075	611424	keystroke_Key.space	Key.space	n/a
306.297	0.0745	612594	keystroke_l	l	n/a
306.582	0.09	613164	keystroke_y	y	n/a
306.7925	0.074	613585	keystroke_n	n	n/a
306.942	0.0605	613884	keystroke_n	n	n/a
307.152	0.09	614304	keystroke_Key.enter	Key.enter	n/a
307.248	7.526	614496	prompt	n/a	involvement ware ideas glasgow\n
307.9615	0.09	615923	keystroke_i	i	n/a
308.3075	0.059	616615	keystroke_n	n	n/a
308.5315	0.0755	617063	keystroke_v	v	n/a
308.622	0.09	617244	keystroke_o	o	n/a
308.8175	0.0895	617635	keystroke_l	l	n/a
308.9515	0.091	617903	keystroke_v	v	n/a
309.207	0.0755	618414	keystroke_m	m	n/a
309.387	0.0905	618774	keystroke_e	e	n/a
309.447	0.0905	618894	keystroke_n	n	n/a
309.6425	0.075	619285	keystroke_t	t	n/a
310.0925	0.074	620185	keystroke_Key.space	Key.space	n/a
310.3475	0.194	620695	keystroke_w	w	n/a
310.4825	0.119	620965	keystroke_a	a	n/a
310.6925	0.1355	621385	keystroke_r	r	n/a
310.7825	0.105	621565	keystroke_e	e	n/a
310.9775	0.0895	621955	keystroke_Key.space	Key.space	n/a
311.4725	0.0445	622945	keystroke_i	i	n/a
311.562	0.135	623124	keystroke_d	d	n/a
311.682	0.15	623364	keystroke_e	e	n/a
311.787	0.1505	623574	keystroke_a	a	n/a
312.042	0.09	624084	keystroke_s	s	n/a
312.237	0.06	624474	keystroke_Key.space	Key.space	n/a
312.792	0.06	625584	keystroke_g	g	n/a
312.9725	0.06	625945	keystroke_l	l	n/a
313.422	0.075	626844	keystroke_a	a	n/a
313.512	0.0755	627024	keystroke_s	s	n/a
314.1565	0.061	628313	keystroke_g	g	n/a
314.3515	0.09	628703	keystroke_o	o	n/a
314.5315	0.061	629063	keystroke_w	w	n/a
314.6815	0.091	629363	keystroke_Key.enter	Key.enter	n/a
314.7785	6.625	629557	prompt	n/a	sony pretty engaged medline\n
315.522	0.0755	631044	keystroke_s	s	n/a
315.672	0.12	631344	keystroke_o	o	n/a
315.747	0.12	631494	keystroke_n	n	n/a
316.0315	0.0915	632063	keystroke_y	y	n/a
316.317	0.06	632634	keystroke_Key.space	Key.space	n/a
316.9615	0.06	633923	keystroke_p	p	n/a
317.127	0.105	634254	keystroke_r	r	n/a
317.1875	0.1045	634375	keystroke_e	e	n/a
317.367	0.075	634734	keystroke_t	t	n/a
317.547	0.0455	635094	keystroke_t	t	n/a
317.712	0.0755	635424	keystroke_y	y	n/a
317.9225	0.074	635845	keystroke_Key.space	Key.space	n/a
318.3575	0.09	636715	keystroke_e	e	n/a
318.507	0.075	637014	keystroke_n	n	n/a
318.6875	0.0745	637375	keystroke_g	g	n/a
318.7925	0.1195	637585	keystroke_a	a	n/a
318.942	0.135	637884	keystroke_g	g	n/a
319.1075	0.1495	638215	keystroke_e	e	n/a
319.347	0.105	638694	keystroke_d	d	n/a
319.8715	0.0755	639743	keystroke_Key.space	Key.space	n/a
320.1415	0.076	640283	keystroke_m	m	n/a
320.277	0.1195	640554	keystroke_e	e	n/a
320.4715	0.106	640943	keystroke_d	d	n/a
320.6675	0.06	641335	keystroke_l	l	n/a
320.8625	0.1345	641725	keystroke_i	i	n/a
320.8915	0.136	641783	keystroke_n	n	n/a
320.982	0.09	641964	keystroke_e	e	n/a
321.312	0.09	642624	keystroke_Key.enter	Key.enter	n/a
321.408	8.621	642816	prompt	n/a	polished items consolidation paintings\n
322.2575	0.105	644515	keystroke_p	p	n/a
322.4975	0.06	644995	keystroke_o	o	n/a
322.662	0.09	645324	keystroke_l	l	n/a
322.872	0.075	645744	keystroke_i	i	n/a
323.097	0.0905	646194	keystroke_s	s	n/a
323.232	0.076	646464	keystroke_h	h	n/a
323.3225	0.1195	646645	keystroke_e	e	n/a
323.457	0.1055	646914	keystroke_d	d	n/a
323.577	0.0595	647154	keystroke_Key.space	Key.space	n/a
324.147	0.0755	648294	keystroke_i	i	n/a
324.312	0.12	648624	keystroke_t	t	n/a
324.462	0.12	648924	keystroke_e	e	n/a
324.627	0.09	649254	keystroke_m	m	n/a
324.732	0.075	649464	keystroke_s	s	n/a
324.867	0.09	649734	keystroke_Key.space	Key.space	n/a
325.1965	0.076	650393	keystroke_c	c	n/a
325.2865	0.135	650573	keystroke_o	o	n/a
325.3915	0.105	650783	keystroke_n	n	n/a
325.557	0.075	651114	keystroke_s	s	n/a
325.9315	0.0905	651863	keystroke_o	o	n/a
326.172	0.0745	652344	keystroke_l	l	n/a
326.817	0.075	653634	keystroke_i	i	n/a
326.997	0.105	653994	keystroke_d	d	n/a
327.1165	0.09	654233	keystroke_a	a	n/a
327.2675	0.075	654535	keystroke_t	t	n/a
327.4325	0.2245	654865	keystroke_i	i	n/a
327.5375	0.1045	655075	keystroke_o	o	n/a
327.5825	0.1645	655165	keystroke_n	n	n/a
328.107	0.06	656214	keystroke_Key.space	Key.space	n/a
328.527	0.1055	657054	keystroke_p	p	n/a
328.647	0.105	657294	keystroke_a	a	n/a
328.797	0.09	657594	keystroke_i	i	n/a
328.962	0.09	657924	keystroke_n	n	n/a
329.172	0.06	658344	keystroke_t	t	n/a
329.2625	0.1345	658525	keystroke_i	i	n/a
329.352	0.12	658704	keystroke_n	n	n/a
329.487	0.09	658974	keystroke_g	g	n/a
329.6815	0.106	659363	keystroke_s	s	n/a
329.9665	0.0605	659933	keystroke_Key.enter	Key.enter	n/a
330.0355	13.298	660071	prompt	n/a	not acdbentity figured florist\n
331.017	0.105	662034	keystroke_n	n	n/a
331.137	0.105	662274	keystroke_o	o	n/a
331.257	0.0905	662514	keystroke_t	t	n/a
331.377	0.105	662754	keystroke_Key.space	Key.space	n/a
331.7825	0.075	663565	keystroke_a	a	n/a
332.4715	0.105	664943	keystroke_c	c	n/a
334.0025	0.09	668005	keystroke_b	b	n/a
335.397	0.06	670794	keystroke_Key.backspace	Key.backspace	n/a
335.772	0.0905	671544	keystroke_d	d	n/a
335.982	0.0755	671964	keystroke_b	b	n/a
337.272	0.089	674544	keystroke_e	e	n/a
337.467	0.06	674934	keystroke_n	n	n/a
337.6475	0.0895	675295	keystroke_t	t	n/a
337.782	0.075	675564	keystroke_i	i	n/a
337.887	0.12	675774	keystroke_t	t	n/a
339.162	0.06	678324	keystroke_y	y	n/a
339.417	0.06	678834	keystroke_Key.space	Key.space	n/a
339.537	0.135	679074	keystroke_f	f	n/a
339.642	0.0895	679284	keystroke_i	i	n/a
339.8525	0.0595	679705	keystroke_g	g	n/a
339.972	0.075	679944	keystroke_u	u	n/a
340.167	0.12	680334	keystroke_r	r	n/a
340.257	0.1955	680514	keystroke_e	e	n/a
340.437	0.12	680874	keystroke_d	d	n/a
340.572	0.09	681144	keystroke_Key.space	Key.space	n/a
341.562	0.075	683124	keystroke_f	f	n/a
341.6975	0.09	683395	keystroke_l	l	n/a
341.8915	0.075	683783	keystroke_o	o	n/a
342.0715	0.09	684143	keystroke_r	r	n/a
342.2065	0.075	684413	keystroke_i	i	n/a
342.3415	0.121	684683	keystroke_s	s	n/a
342.687	0.0895	685374	keystroke_t	t	n/a
343.257	0.0745	686514	keystroke_Key.enter	Key.enter	n/a
343.339	9.3845	686678	prompt	n/a	show intensity modification impressed\n
344.172	0.075	688344	keystroke_s	s	n/a
344.366	0.0615	688732	keystroke_h	h	n/a
344.547	0.09	689094	keystroke_o	o	n/a
344.652	0.09	689304	keystroke_w	w	n/a
345.2365	0.1055	690473	keystroke_Key.space	Key.space	n/a
345.417	0.1495	690834	keystroke_i	i	n/a
345.522	0.105	691044	keystroke_n	n	n/a
345.8665	0.121	691733	keystroke_t	t	n/a
345.9875	0.1195	691975	keystroke_e	e	n/a
346.1515	0.09	692303	keystroke_n	n	n/a
346.3015	0.12	692603	keystroke_s	s	n/a
346.437	0.09	692874	keystroke_i	i	n/a
346.602	0.09	693204	keystroke_t	t	n/a
346.812	0.075	693624	keystroke_y	y	n/a
346.946	0.091	693892	keystroke_Key.space	Key.space	n/a
347.9225	0.0145	695845	keystroke_m	m	n/a
347.9525	0.089	695905	keystroke_o	o	n/a
348.087	0.1055	696174	keystroke_d	d	n/a
348.2525	0.074	696505	keystroke_i	i	n/a
348.4015	0.09	696803	keystroke_f	f	n/a
348.537	0.0745	697074	keystroke_i	i	n/a
348.777	0.09	697554	keystroke_c	c	n/a
349.152	0.0895	698304	keystroke_a	a	n/a
349.872	0.075	699744	keystroke_t	t	n/a
350.067	0.2555	700134	keystroke_i	i	n/a
350.1875	0.1045	700375	keystroke_o	o	n/a
350.262	0.0445	700524	keystroke_n	n	n/a
350.3365	0.061	700673	keystroke_n	n	n/a
350.6515	0.06	701303	keystroke_Key.space	Key.space	n/a
351.0875	0.105	702175	keystroke_i	i	n/a
351.1625	0.105	702325	keystroke_m	m	n/a
351.402	0.0895	702804	keystroke_p	p	n/a
351.6115	0.091	703223	keystroke_r	r	n/a
351.687	0.135	703374	keystroke_e	e	n/a
351.927	0.06	703854	keystroke_s	s	n/a
352.092	0.06	704184	keystroke_s	s	n/a
352.257	0.105	704514	keystroke_e	e	n/a
352.377	0.1195	704754	keystroke_d	d	n/a
352.6315	0.09	705263	keystroke_Key.enter	Key.enter	n/a
352.728	6.7005	705456	prompt	n/a	tail doubt eagle perfect\n
353.8475	0.12	707695	keystroke_t	t	n/a
354.0725	0.12	708145	keystroke_a	a	n/a
354.1625	0.09	708325	keystroke_i	i	n/a
354.3865	0.075	708773	keystroke_l	l	n/a
354.5665	0.105	709133	keystroke_Key.space	Key.space	n/a
354.792	0.075	709584	keystroke_d	d	n/a
354.9275	0.0745	709855	keystroke_o	o	n/a
355.1375	0.1195	710275	keystroke_u	u	n/a
355.2265	0.135	710453	keystroke_b	b	n/a
355.527	0.0595	711054	keystroke_t	t	n/a
355.6325	0.0895	711265	keystroke_Key.space	Key.space	n/a
356.202	0.135	712404	keystroke_e	e	n/a
356.292	0.105	712584	keystroke_a	a	n/a
356.457	0.09	712914	keystroke_g	g	n/a
356.652	0.12	713304	keystroke_l	l	n/a
356.757	0.075	713514	keystroke_e	e	n/a
356.937	0.075	713874	keystroke_Key.space	Key.space	n/a
357.9415	0.0755	715883	keystroke_p	p	n/a
358.0015	0.106	716003	keystroke_e	e	n/a
358.1225	0.119	716245	keystroke_r	r	n/a
358.3765	0.105	716753	keystroke_f	f	n/a
358.497	0.1505	716994	keystroke_e	e	n/a
358.8715	0.1355	717743	keystroke_c	c	n/a
359.1725	0.074	718345	keystroke_t	t	n/a
359.3365	0.09	718673	keystroke_Key.enter	Key.enter	n/a
359.436	6.2025	718872	prompt	n/a	rehab nights queens dubai\n
360.3565	0.1205	720713	keystroke_r	r	n/a
360.4025	0.18	720805	keystroke_e	e	n/a
360.702	0.09	721404	keystroke_h	h	n/a
360.822	0.075	721644	keystroke_a	a	n/a
361.1815	0.105	722363	keystroke_b	b	n/a
361.422	0.0745	722844	keystroke_Key.space	Key.space	n/a
361.692	0.1055	723384	keystroke_n	n	n/a
361.857	0.135	723714	keystroke_i	i	n/a
362.037	0.09	724074	keystroke_g	g	n/a
362.112	0.105	724224	keystroke_h	h	n/a
362.247	0.105	724494	keystroke_t	t	n/a
362.502	0.075	725004	keystroke_s	s	n/a
362.6515	0.076	725303	keystroke_Key.space	Key.space	n/a
363.2675	0.0145	726535	keystroke_q	q	n/a
363.327	0.0745	726654	keystroke_u	u	n/a
363.4775	0.059	726955	keystroke_e	e	n/a
363.642	0.0595	727284	keystroke_e	e	n/a
363.7315	0.09	727463	keystroke_n	n	n/a
363.867	0.0895	727734	keystroke_s	s	n/a
363.972	0.0895	727944	keystroke_Key.space	Key.space	n/a
364.617	0.075	729234	keystroke_d	d	n/a
364.842	0.075	729684	keystroke_u	u	n/a
365.021	0.0765	730042	keystroke_b	b	n/a
365.142	0.074	730284	keystroke_a	a	n/a
365.2475	0.1045	730495	keystroke_i	i	n/a
365.547	0.09	731094	keystroke_Key.enter	Key.enter	n/a
365.643	7.6905	731286	prompt	n/a	shorts reflect geneva representing\n
366.2975	0.0445	732595	keystroke_s	s	n/a
366.4765	0.0755	732953	keystroke_h	h	n/a
366.642	0.09	733284	keystroke_o	o	n/a
366.792	0.09	733584	keystroke_r	r	n/a
366.9865	0.09	733973	keystroke_t	t	n/a
367.1815	0.0895	734363	keystroke_s	s	n/a
367.3015	0.09	734603	keystroke_Key.space	Key.space	n/a
367.6915	0.0905	735383	keystroke_r	r	n/a
367.7975	0.119	735595	keystroke_e	e	n/a
368.0515	0.0605	736103	keystroke_f	f	n/a
368.187	0.105	736374	keystroke_l	l	n/a
368.322	0.119	736644	keystroke_e	e	n/a
368.652	0.06	737304	keystroke_c	c	n/a
368.877	0.075	737754	keystroke_t	t	n/a
369.012	0.075	738024	keystroke_Key.space	Key.space	n/a
369.702	0.075	739404	keystroke_g	g	n/a
369.8225	0.1045	739645	keystroke_e	e	n/a
369.987	0.0895	739974	keystroke_n	n	n/a
370.092	0.119	740184	keystroke_e	e	n/a
370.5265	0.0905	741053	keystroke_v	v	n/a
370.7215	0.105	741443	keystroke_a	a	n/a
370.8865	0.0905	741773	keystroke_Key.space	Key.space	n/a
371.337	0.1045	742674	keystroke_r	r	n/a
371.4265	0.0905	742853	keystroke_e	e	n/a
371.6365	0.0905	743273	keystroke_p	p	n/a
371.862	0.1195	743724	keystroke_r	r	n/a
371.9515	0.1205	743903	keystroke_e	e	n/a
372.207	0.0745	744414	keystroke_s	s	n/a
372.4025	0.089	744805	keystroke_e	e	n/a
372.582	0.06	745164	keystroke_n	n	n/a
372.686	0.0765	745372	keystroke_t	t	n/a
372.807	0.165	745614	keystroke_i	i	n/a
372.912	0.1205	745824	keystroke_n	n	n/a
373.047	0.09	746094	keystroke_g	g	n/a
373.242	0.09	746484	keystroke_Key.enter	Key.enter	n/a
373.338	7.64	746676	prompt	n/a	spin outlet milk coach\n
374.082	0.0755	748164	keystroke_a	a	n/a
374.307	0.06	748614	keystroke_o	o	n/a
374.8765	0.0905	749753	keystroke_Key.backspace	Key.backspace	n/a
375.012	0.09	750024	keystroke_Key.backspace	Key.backspace	n/a
375.162	0.075	750324	keystroke_Key.backspace	Key.backspace	n/a
375.267	0.06	750534	keystroke_Key.backspace	Key.backspace	n/a
375.4625	0.0745	750925	keystroke_s	s	n/a
375.596	0.106	751192	keystroke_p	p	n/a
375.822	0.15	751644	keystroke_i	i	n/a
375.927	0.12	751854	keystroke_n	n	n/a
376.152	0.089	752304	keystroke_Key.space	Key.space	n/a
376.767	0.105	753534	keystroke_o	o	n/a
376.992	0.075	753984	keystroke_u	u	n/a
377.142	0.1055	754284	keystroke_t	t	n/a
377.3225	0.0895	754645	keystroke_l	l	n/a
377.562	0.12	755124	keystroke_e	e	n/a
377.7875	0.0895	755575	keystroke_t	t	n/a
377.907	0.075	755814	keystroke_Key.space	Key.space	n/a
378.5225	0.09	757045	keystroke_m	m	n/a
378.657	0.0905	757314	keystroke_i	i	n/a
378.882	0.09	757764	keystroke_l	l	n/a
379.107	0.06	758214	keystroke_k	k	n/a
379.347	0.075	758694	keystroke_Key.space	Key.space	n/a
379.797	0.09	759594	keystroke_c	c	n/a
379.902	0.09	759804	keystroke_o	o	n/a
380.127	0.105	760254	keystroke_a	a	n/a
380.3215	0.1055	760643	keystroke_c	c	n/a
380.5025	0.0885	761005	keystroke_h	h	n/a
380.8915	0.0755	761783	keystroke_Key.enter	Key.enter	n/a
380.982	5.7615	761964	prompt	n/a	that's mortgage skin says\n
381.702	0.135	763404	keystroke_t	t	n/a
381.822	0.075	763644	keystroke_h	h	n/a
381.912	0.135	763824	keystroke_a	a	n/a
382.002	0.105	764004	keystroke_t	t	n/a
382.242	0.0745	764484	keystroke_'	'	n/a
382.3765	0.091	764753	keystroke_s	s	n/a
382.587	0.0745	765174	keystroke_Key.space	Key.space	n/a
383.2325	0.015	766465	keystroke_m	m	n/a
383.3365	0.0905	766673	keystroke_o	o	n/a
383.4565	0.09	766913	keystroke_r	r	n/a
383.667	0.0745	767334	keystroke_t	t	n/a
383.9065	0.121	767813	keystroke_g	g	n/a
384.0425	0.1195	768085	keystroke_a	a	n/a
384.192	0.1355	768384	keystroke_g	g	n/a
384.342	0.0905	768684	keystroke_e	e	n/a
384.927	0.06	769854	keystroke_Key.space	Key.space	n/a
385.2265	0.075	770453	keystroke_s	s	n/a
385.362	0.075	770724	keystroke_k	k	n/a
385.512	0.105	771024	keystroke_i	i	n/a
385.662	0.09	771324	keystroke_n	n	n/a
385.872	0.075	771744	keystroke_Key.space	Key.space	n/a
385.962	0.1655	771924	keystroke_s	s	n/a
386.2025	0.089	772405	keystroke_a	a	n/a
386.337	0.06	772674	keystroke_y	y	n/a
386.4115	0.105	772823	keystroke_s	s	n/a
386.667	0.075	773334	keystroke_Key.enter	Key.enter	n/a
386.748	5.4705	773496	prompt	n/a	ears connect elite cell\n
387.462	0.15	774924	keystroke_e	e	n/a
387.597	0.12	775194	keystroke_a	a	n/a
387.761	0.1205	775522	keystroke_r	r	n/a
387.912	0.1045	775824	keystroke_s	s	n/a
388.152	0.0745	776304	keystroke_Key.space	Key.space	n/a
388.6615	0.0905	777323	keystroke_c	c	n/a
388.7815	0.1505	777563	keystroke_o	o	n/a
388.9765	0.075	777953	keystroke_n	n	n/a
389.127	0.105	778254	keystroke_n	n	n/a
389.217	0.105	778434	keystroke_e	e	n/a
389.442	0.074	778884	keystroke_c	c	n/a
389.592	0.075	779184	keystroke_t	t	n/a
389.907	0.06	779814	keystroke_Key.space	Key.space	n/a
390.252	0.075	780504	keystroke_e	e	n/a
390.372	0.075	780744	keystroke_l	l	n/a
390.567	0.0745	781134	keystroke_i	i	n/a
390.7015	0.1655	781403	keystroke_t	t	n/a
390.852	0.09	781704	keystroke_e	e	n/a
390.927	0.09	781854	keystroke_Key.space	Key.space	n/a
391.602	0.045	783204	keystroke_c	c	n/a
391.722	0.09	783444	keystroke_e	e	n/a
391.8275	0.0735	783655	keystroke_l	l	n/a
391.961	0.106	783922	keystroke_l	l	n/a
392.111	0.1055	784222	keystroke_Key.enter	Key.enter	n/a
392.223	8.2005	784446	prompt	n/a	haven deny xerox promote\n
392.907	0.09	785814	keystroke_h	h	n/a
393.0725	0.21	786145	keystroke_e	e	n/a
393.267	0.12	786534	keystroke_a	a	n/a
393.447	0.12	786894	keystroke_v	v	n/a
393.627	0.18	787254	keystroke_e	e	n/a
394.302	0.12	788604	keystroke_n	n	n/a
394.602	0.09	789204	keystroke_Key.space	Key.space	n/a
394.9765	0.12	789953	keystroke_d	d	n/a
395.0975	0.119	790195	keystroke_e	e	n/a
395.3515	0.09	790703	keystroke_b	b	n/a
395.832	0.135	791664	keystroke_Key.backspace	Key.backspace	n/a
396.237	0.09	792474	keystroke_n	n	n/a
396.432	0.0755	792864	keystroke_y	y	n/a
396.687	0.075	793374	keystroke_Key.space	Key.space	n/a
397.4075	0.089	794815	keystroke_x	x	n/a
397.632	0.15	795264	keystroke_e	e	n/a
397.767	0.105	795534	keystroke_r	r	n/a
397.932	0.104	795864	keystroke_o	o	n/a
398.172	0.09	796344	keystroke_x	x	n/a
398.307	0.075	796614	keystroke_Key.space	Key.space	n/a
399.267	0.09	798534	keystroke_p	p	n/a
399.402	0.0755	798804	keystroke_r	r	n/a
399.507	0.09	799014	keystroke_o	o	n/a
399.6875	0.09	799375	keystroke_m	m	n/a
399.837	0.1055	799674	keystroke_o	o	n/a
400.122	0.135	800244	keystroke_t	t	n/a
400.242	0.105	800484	keystroke_e	e	n/a
400.347	0.075	800694	keystroke_Key.enter	Key.enter	n/a
400.427	8.411	800854	prompt	n/a	battery ethnic reunion fathers\n
401.5015	0.09	803003	keystroke_b	b	n/a
401.607	0.1055	803214	keystroke_a	a	n/a
401.7565	0.06	803513	keystroke_t	t	n/a
401.877	0.09	803754	keystroke_t	t	n/a
401.982	0.12	803964	keystroke_e	e	n/a
402.072	0.12	804144	keystroke_r	r	n/a
402.342	0.075	804684	keystroke_y	y	n/a
402.7165	0.06	805433	keystroke_Key.space	Key.space	n/a
403.182	0.075	806364	keystroke_e	e	n/a
403.392	0.075	806784	keystroke_t	t	n/a
403.481	0.091	806962	keystroke_h	h	n/a
403.707	0.0895	807414	keystroke_n	n	n/a
403.902	0.09	807804	keystroke_i	i	n/a
404.142	0.09	808284	keystroke_c	c	n/a
404.712	0.06	809424	keystroke_Key.space	Key.space	n/a
405.162	0.0745	810324	keystroke_r	r	n/a
405.297	0.105	810594	keystroke_e	e	n/a
405.582	0.075	811164	keystroke_u	u	n/a
405.762	0.09	811524	keystroke_n	n	n/a
405.957	0.15	811914	keystroke_i	i	n/a
406.452	0.135	812904	keystroke_o	o	n/a
406.647	0.1205	813294	keystroke_n	n	n/a
406.9915	0.0605	813983	keystroke_Key.space	Key.space	n/a
407.471	0.1055	814942	keystroke_f	f	n/a
407.5925	0.1045	815185	keystroke_a	a	n/a
407.7415	0.12	815483	keystroke_t	t	n/a
407.967	0.135	815934	keystroke_h	h	n/a
408.117	0.135	816234	keystroke_e	e	n/a
408.2065	0.1355	816413	keystroke_r	r	n/a
408.3715	0.105	816743	keystroke_s	s	n/a
408.7615	0.0755	817523	keystroke_Key.enter	Key.enter	n/a
408.8425	7.3915	817685	prompt	n/a	nokia solomon anatomy cheat\n
409.692	0.0905	819384	keystroke_n	n	n/a
409.872	0.1055	819744	keystroke_o	o	n/a
410.202	0.0745	820404	keystroke_k	k	n/a
410.3815	0.09	820763	keystroke_i	i	n/a
410.5315	0.0905	821063	keystroke_a	a	n/a
410.7115	0.0755	821423	keystroke_Key.space	Key.space	n/a
411.012	0.09	822024	keystroke_s	s	n/a
411.192	0.0755	822384	keystroke_o	o	n/a
411.401	0.076	822802	keystroke_l	l	n/a
411.582	0.0895	823164	keystroke_o	o	n/a
411.7925	0.075	823585	keystroke_m	m	n/a
411.971	0.151	823942	keystroke_o	o	n/a
412.077	0.105	824154	keystroke_n	n	n/a
412.347	0.0745	824694	keystroke_Key.space	Key.space	n/a
412.647	0.075	825294	keystroke_a	a	n/a
412.8425	0.0445	825685	keystroke_n	n	n/a
412.977	0.09	825954	keystroke_a	a	n/a
413.517	0.12	827034	keystroke_t	t	n/a
413.832	0.1205	827664	keystroke_o	o	n/a
413.997	0.12	827994	keystroke_m	m	n/a
414.6125	0.0895	829225	keystroke_y	y	n/a
414.9115	0.0755	829823	keystroke_Key.space	Key.space	n/a
415.316	0.105	830632	keystroke_c	c	n/a
415.4375	0.059	830875	keystroke_h	h	n/a
415.557	0.224	831114	keystroke_e	e	n/a
415.677	0.15	831354	keystroke_a	a	n/a
415.8415	0.1205	831683	keystroke_t	t	n/a
416.156	0.076	832312	keystroke_Key.enter	Key.enter	n/a
416.238	7.0005	832476	prompt	n/a	director radios skirts whats\n
417.012	0.105	834024	keystroke_d	d	n/a
417.3275	0.075	834655	keystroke_i	i	n/a
417.4465	0.1205	834893	keystroke_r	r	n/a
417.552	0.135	835104	keystroke_e	e	n/a
417.792	0.074	835584	keystroke_c	c	n/a
417.987	0.09	835974	keystroke_t	t	n/a
418.107	0.074	836214	keystroke_o	o	n/a
418.317	0.06	836634	keystroke_r	r	n/a
418.482	0.045	836964	keystroke_Key.space	Key.space	n/a
419.217	0.09	838434	keystroke_r	r	n/a
419.3665	0.106	838733	keystroke_a	a	n/a
419.517	0.06	839034	keystroke_d	d	n/a
419.6365	0.075	839273	keystroke_i	i	n/a
419.8165	0.09	839633	keystroke_o	o	n/a
419.922	0.06	839844	keystroke_s	s	n/a
420.042	0.0895	840084	keystroke_Key.space	Key.space	n/a
420.612	0.075	841224	keystroke_s	s	n/a
420.7615	0.0905	841523	keystroke_k	k	n/a
420.972	0.0755	841944	keystroke_i	i	n/a
421.1365	0.075	842273	keystroke_r	r	n/a
421.332	0.0745	842664	keystroke_t	t	n/a
421.527	0.0905	843054	keystroke_s	s	n/a
421.6765	0.06	843353	keystroke_Key.space	Key.space	n/a
422.157	0.1355	844314	keystroke_w	w	n/a
422.307	0.075	844614	keystroke_h	h	n/a
422.337	0.12	844674	keystroke_a	a	n/a
422.487	0.075	844974	keystroke_t	t	n/a
422.697	0.075	845394	keystroke_s	s	n/a
423.192	0.044	846384	keystroke_Key.enter	Key.enter	n/a
423.2425	5.381	846485	prompt	n/a	please rocky long motor\n
424.032	0.0905	848064	keystroke_p	p	n/a
424.137	0.135	848274	keystroke_l	l	n/a
424.2865	0.1355	848573	keystroke_e	e	n/a
424.437	0.1945	848874	keystroke_a	a	n/a
424.602	0.075	849204	keystroke_s	s	n/a
424.7965	0.06	849593	keystroke_e	e	n/a
424.9765	0.075	849953	keystroke_Key.space	Key.space	n/a
425.262	0.0595	850524	keystroke_r	r	n/a
425.4415	0.09	850883	keystroke_o	o	n/a
425.6065	0.09	851213	keystroke_c	c	n/a
425.7115	0.09	851423	keystroke_k	k	n/a
426.0265	0.0605	852053	keystroke_y	y	n/a
426.3415	0.075	852683	keystroke_Key.space	Key.space	n/a
426.9725	0.119	853945	keystroke_l	l	n/a
427.1215	0.105	854243	keystroke_o	o	n/a
427.286	0.09	854572	keystroke_n	n	n/a
427.407	0.0595	854814	keystroke_g	g	n/a
427.5265	0.061	855053	keystroke_Key.space	Key.space	n/a
427.7065	0.076	855413	keystroke_m	m	n/a
427.7975	0.1045	855595	keystroke_o	o	n/a
428.037	0.135	856074	keystroke_t	t	n/a
428.1875	0.1195	856375	keystroke_o	o	n/a
428.322	0.105	856644	keystroke_r	r	n/a
428.5315	0.0905	857063	keystroke_Key.enter	Key.enter	n/a
428.628	7.9915	857256	prompt	n/a	humidity finished rapids twin\n
429.417	0.119	858834	keystroke_h	h	n/a
429.521	0.12	859042	keystroke_u	u	n/a
429.792	0.075	859584	keystroke_m	m	n/a
429.9865	0.0755	859973	keystroke_i	i	n/a
430.1965	0.09	860393	keystroke_d	d	n/a
431.2325	0.074	862465	keystroke_i	i	n/a
431.352	0.0895	862704	keystroke_t	t	n/a
431.472	0.1045	862944	keystroke_y	y	n/a
432.1915	0.0755	864383	keystroke_Key.space	Key.space	n/a
432.4915	0.09	864983	keystroke_f	f	n/a
432.597	0.12	865194	keystroke_i	i	n/a
432.6875	0.1185	865375	keystroke_n	n	n/a
432.822	0.12	865644	keystroke_i	i	n/a
432.972	0.075	865944	keystroke_s	s	n/a
433.0625	0.0895	866125	keystroke_h	h	n/a
433.182	0.15	866364	keystroke_e	e	n/a
433.333	0.104	866666	keystroke_d	d	n/a
433.452	0.06	866904	keystroke_Key.space	Key.space	n/a
434.277	0.12	868554	keystroke_r	r	n/a
434.5025	0.0745	869005	keystroke_a	a	n/a
434.697	0.0745	869394	keystroke_p	p	n/a
434.937	0.1045	869874	keystroke_i	i	n/a
435.1015	0.1505	870203	keystroke_d	d	n/a
435.2075	0.1045	870415	keystroke_s	s	n/a
435.342	0.0895	870684	keystroke_Key.space	Key.space	n/a
435.822	0.1045	871644	keystroke_t	t	n/a
435.987	0.1195	871974	keystroke_w	w	n/a
436.1365	0.1345	872273	keystroke_i	i	n/a
436.2865	0.1195	872573	keystroke_n	n	n/a
436.541	0.075	873082	keystroke_Key.enter	Key.enter	n/a
436.6305	7.248	873261	prompt	n/a	persian wiring reflects trading\n
437.5925	0.074	875185	keystroke_p	p	n/a
437.6815	0.12	875363	keystroke_e	e	n/a
437.8465	0.1055	875693	keystroke_r	r	n/a
438.0715	0.06	876143	keystroke_s	s	n/a
438.162	0.105	876324	keystroke_i	i	n/a
438.3265	0.106	876653	keystroke_a	a	n/a
438.4765	0.1055	876953	keystroke_n	n	n/a
439.002	0.09	878004	keystroke_Key.space	Key.space	n/a
439.272	0.1205	878544	keystroke_w	w	n/a
439.557	0.0905	879114	keystroke_r	r	n/a
439.737	0.105	879474	keystroke_i	i	n/a
439.857	0.075	879714	keystroke_t	t	n/a
439.992	0.135	879984	keystroke_i	i	n/a
440.112	0.105	880224	keystroke_n	n	n/a
440.2015	0.09	880403	keystroke_g	g	n/a
440.337	0.09	880674	keystroke_Key.space	Key.space	n/a
440.997	0.135	881994	keystroke_r	r	n/a
441.117	0.12	882234	keystroke_e	e	n/a
441.2825	0.104	882565	keystroke_f	f	n/a
441.417	0.105	882834	keystroke_l	l	n/a
441.537	0.1195	883074	keystroke_e	e	n/a
441.9115	0.06	883823	keystroke_c	c	n/a
442.0025	0.089	884005	keystroke_t	t	n/a
442.212	0.09	884424	keystroke_s	s	n/a
442.4065	0.03	884813	keystroke_Key.space	Key.space	n/a
442.811	0.136	885622	keystroke_t	t	n/a
442.932	0.165	885864	keystroke_r	r	n/a
443.082	0.1945	886164	keystroke_a	a	n/a
443.292	0.105	886584	keystroke_d	d	n/a
443.442	0.1345	886884	keystroke_i	i	n/a
443.502	0.1345	887004	keystroke_n	n	n/a
443.6225	0.075	887245	keystroke_g	g	n/a
443.802	0.074	887604	keystroke_Key.enter	Key.enter	n/a
443.883	6.1455	887766	prompt	n/a	trance spent he damage\n
444.702	0.105	889404	keystroke_t	t	n/a
444.897	0.1195	889794	keystroke_r	r	n/a
445.122	0.075	890244	keystroke_a	a	n/a
445.2565	0.0755	890513	keystroke_n	n	n/a
445.452	0.1045	890904	keystroke_c	c	n/a
445.6165	0.0905	891233	keystroke_e	e	n/a
445.7365	0.075	891473	keystroke_Key.space	Key.space	n/a
446.277	0.135	892554	keystroke_s	s	n/a
446.4415	0.105	892883	keystroke_p	p	n/a
446.562	0.09	893124	keystroke_e	e	n/a
446.697	0.0895	893394	keystroke_n	n	n/a
446.862	0.09	893724	keystroke_t	t	n/a
446.9965	0.075	893993	keystroke_Key.space	Key.space	n/a
448.0315	0.06	896063	keystroke_h	h	n/a
448.077	0.0745	896154	keystroke_e	e	n/a
448.2115	0.105	896423	keystroke_Key.space	Key.space	n/a
448.9165	0.105	897833	keystroke_d	d	n/a
449.037	0.1195	898074	keystroke_a	a	n/a
449.172	0.105	898344	keystroke_m	m	n/a
449.2615	0.1055	898523	keystroke_a	a	n/a
449.5315	0.075	899063	keystroke_g	g	n/a
449.6365	0.15	899273	keystroke_e	e	n/a
449.9365	0.09	899873	keystroke_Key.enter	Key.enter	n/a
450.033	6.9405	900066	prompt	n/a	instances rankings mars prize\n
450.822	0.105	901644	keystroke_i	i	n/a
450.882	0.1045	901764	keystroke_n	n	n/a
450.9715	0.09	901943	keystroke_s	s	n/a
451.167	0.12	902334	keystroke_t	t	n/a
451.3165	0.1355	902633	keystroke_a	a	n/a
451.482	0.1045	902964	keystroke_n	n	n/a
451.827	0.0895	903654	keystroke_c	c	n/a
451.961	0.105	903922	keystroke_e	e	n/a
452.1865	0.0755	904373	keystroke_s	s	n/a
452.322	0.09	904644	keystroke_Key.space	Key.space	n/a
452.9665	0.105	905933	keystroke_r	r	n/a
453.162	0.0895	906324	keystroke_a	a	n/a
453.282	0.0595	906564	keystroke_n	n	n/a
453.4315	0.09	906863	keystroke_k	k	n/a
453.6425	0.104	907285	keystroke_i	i	n/a
453.7025	0.12	907405	keystroke_n	n	n/a
453.8375	0.119	907675	keystroke_g	g	n/a
454.032	0.0895	908064	keystroke_s	s	n/a
454.1965	0.075	908393	keystroke_Key.space	Key.space	n/a
454.617	0.0905	909234	keystroke_m	m	n/a
454.676	0.1355	909352	keystroke_a	a	n/a
454.8565	0.09	909713	keystroke_r	r	n/a
455.067	0.105	910134	keystroke_s	s	n/a
455.337	0.075	910674	keystroke_Key.space	Key.space	n/a
455.712	0.105	911424	keystroke_p	p	n/a
455.9365	0.0755	911873	keystroke_r	r	n/a
456.2675	0.1035	912535	keystroke_i	i	n/a
456.522	0.0745	913044	keystroke_z	z	n/a
456.7775	0.059	913555	keystroke_e	e	n/a
456.8965	0.075	913793	keystroke_Key.enter	Key.enter	n/a
456.978	8.2755	913956	prompt	n/a	focuses diseases all statistical\n
457.917	0.0745	915834	keystroke_f	f	n/a
458.1415	0.09	916283	keystroke_o	o	n/a
458.352	0.0595	916704	keystroke_c	c	n/a
458.502	0.0605	917004	keystroke_u	u	n/a
458.6225	0.0895	917245	keystroke_s	s	n/a
458.862	0.06	917724	keystroke_e	e	n/a
459.042	0.074	918084	keystroke_s	s	n/a
459.221	0.075	918442	keystroke_Key.space	Key.space	n/a
459.686	0.136	919372	keystroke_d	d	n/a
460.032	0.075	920064	keystroke_i	i	n/a
460.121	0.091	920242	keystroke_s	s	n/a
460.347	0.09	920694	keystroke_e	e	n/a
460.482	0.165	920964	keystroke_a	a	n/a
460.632	0.119	921264	keystroke_s	s	n/a
460.872	0.0745	921744	keystroke_e	e	n/a
461.366	0.075	922732	keystroke_Key.space	Key.space	n/a
461.456	0.06	922912	keystroke_a	a	n/a
461.682	0.075	923364	keystroke_l	l	n/a
461.802	0.0895	923604	keystroke_l	l	n/a
462.0265	0.075	924053	keystroke_Key.space	Key.space	n/a
462.087	0.105	924174	keystroke_s	s	n/a
462.327	0.1045	924654	keystroke_t	t	n/a
462.4465	0.12	924893	keystroke_a	a	n/a
462.5815	0.135	925163	keystroke_t	t	n/a
463.437	0.075	926874	keystroke_i	i	n/a
463.527	0.12	927054	keystroke_s	s	n/a
463.752	0.074	927504	keystroke_t	t	n/a
463.841	0.09	927682	keystroke_i	i	n/a
464.126	0.121	928252	keystroke_c	c	n/a
464.2765	0.0745	928553	keystroke_a	a	n/a
464.396	0.061	928792	keystroke_l	l	n/a
465.162	0.09	930324	keystroke_Key.enter	Key.enter	n/a
465.2575	9.748	930515	prompt	n/a	reid planets we'll subsequent\n
466.0165	0.1205	932033	keystroke_r	r	n/a
466.0915	0.15	932183	keystroke_e	e	n/a
466.4065	0.0755	932813	keystroke_i	i	n/a
466.5265	0.075	933053	keystroke_d	d	n/a
466.617	0.1045	933234	keystroke_Key.space	Key.space	n/a
467.2325	0.1195	934465	keystroke_p	p	n/a
467.2925	0.1195	934585	keystroke_l	l	n/a
467.3965	0.09	934793	keystroke_a	a	n/a
467.652	0.1045	935304	keystroke_n	n	n/a
467.802	0.0895	935604	keystroke_e	e	n/a
467.9665	0.0905	935933	keystroke_t	t	n/a
468.0865	0.0895	936173	keystroke_s	s	n/a
468.2665	0.0745	936533	keystroke_Key.space	Key.space	n/a
468.597	0.12	937194	keystroke_w	w	n/a
468.777	0.105	937554	keystroke_e	e	n/a
469.317	0.0595	938634	keystroke_'	'	n/a
469.542	0.06	939084	keystroke_l	l	n/a
469.662	0.1195	939324	keystroke_l	l	n/a
469.9915	0.075	939983	keystroke_Key.space	Key.space	n/a
470.4415	0.075	940883	keystroke_s	s	n/a
470.7265	0.1355	941453	keystroke_y	y	n/a
471.192	0.089	942384	keystroke_Key.backspace	Key.backspace	n/a
471.9275	0.0885	943855	keystroke_u	u	n/a
472.152	0.075	944304	keystroke_b	b	n/a
472.302	0.09	944604	keystroke_s	s	n/a
473.367	0.105	946734	keystroke_e	e	n/a
473.592	0.075	947184	keystroke_q	q	n/a
473.772	0.074	947544	keystroke_u	u	n/a
473.967	0.075	947934	keystroke_e	e	n/a
474.072	0.075	948144	keystroke_n	n	n/a
474.282	0.06	948564	keystroke_t	t	n/a
474.911	0.0905	949822	keystroke_Key.enter	Key.enter	n/a
475.01	8.8135	950020	prompt	n/a	flights locale doesn't simplified\n
475.9315	0.06	951863	keystroke_f	f	n/a
476.052	0.0895	952104	keystroke_l	l	n/a
476.2615	0.105	952523	keystroke_i	i	n/a
476.4265	0.1055	952853	keystroke_g	g	n/a
476.5165	0.075	953033	keystroke_h	h	n/a
476.622	0.09	953244	keystroke_t	t	n/a
476.7715	0.0755	953543	keystroke_Key.space	Key.space	n/a
477.2525	0.0895	954505	keystroke_l	l	n/a
477.4315	0.0905	954863	keystroke_o	o	n/a
477.5965	0.0905	955193	keystroke_c	c	n/a
477.7165	0.105	955433	keystroke_a	a	n/a
477.8365	0.0605	955673	keystroke_l	l	n/a
477.942	0.0595	955884	keystroke_e	e	n/a
478.1515	0.015	956303	keystroke_Key.space	Key.space	n/a
479.0375	0.1045	958075	keystroke_d	d	n/a
479.1875	0.0895	958375	keystroke_o	o	n/a
479.247	0.075	958494	keystroke_e	e	n/a
479.412	0.0895	958824	keystroke_s	s	n/a
479.5465	0.076	959093	keystroke_n	n	n/a
479.9065	0.0905	959813	keystroke_'	'	n/a
480.1015	0.075	960203	keystroke_t	t	n/a
480.2815	0.075	960563	keystroke_Key.space	Key.space	n/a
481.0765	0.045	962153	keystroke_s	s	n/a
481.1815	0.1205	962363	keystroke_i	i	n/a
481.272	0.1205	962544	keystroke_m	m	n/a
481.5725	0.1345	963145	keystroke_p	p	n/a
481.662	0.1195	963324	keystroke_l	l	n/a
481.947	0.0895	963894	keystroke_i	i	n/a
482.3065	0.06	964613	keystroke_f	f	n/a
482.4125	0.09	964825	keystroke_i	i	n/a
482.802	0.09	965604	keystroke_e	e	n/a
483.357	0.09	966714	keystroke_d	d	n/a
483.747	0.0745	967494	keystroke_Key.enter	Key.enter	n/a
483.8275	7.316	967655	prompt	n/a	lingerie tabs corp detect\n
484.9325	0.0445	969865	keystroke_l	l	n/a
485.082	0.1355	970164	keystroke_i	i	n/a
485.187	0.105	970374	keystroke_n	n	n/a
486.2215	0.075	972443	keystroke_g	g	n/a
486.3565	0.1355	972713	keystroke_e	e	n/a
486.5065	0.105	973013	keystroke_r	r	n/a
486.717	0.105	973434	keystroke_i	i	n/a
486.807	0.09	973614	keystroke_e	e	n/a
487.482	0.06	974964	keystroke_Key.space	Key.space	n/a
487.797	0.09	975594	keystroke_t	t	n/a
488.022	0.119	976044	keystroke_a	a	n/a
488.157	0.09	976314	keystroke_b	b	n/a
488.3365	0.075	976673	keystroke_s	s	n/a
488.472	0.0895	976944	keystroke_Key.space	Key.space	n/a
488.877	0.0295	977754	keystroke_c	c	n/a
489.0265	0.0905	978053	keystroke_o	o	n/a
489.132	0.075	978264	keystroke_r	r	n/a
489.312	0.09	978624	keystroke_p	p	n/a
489.5815	0.0905	979163	keystroke_Key.space	Key.space	n/a
489.927	0.09	979854	keystroke_d	d	n/a
490.076	0.106	980152	keystroke_e	e	n/a
490.2275	0.1045	980455	keystroke_t	t	n/a
490.362	0.135	980724	keystroke_e	e	n/a
490.662	0.09	981324	keystroke_c	c	n/a
490.9175	0.06	981835	keystroke_t	t	n/a
491.067	0.0745	982134	keystroke_Key.enter	Key.enter	n/a
491.1475	11.5615	982295	prompt	n/a	battle initiatives who's photography\n
492.0415	0.061	984083	keystroke_b	b	n/a
492.1475	0.1495	984295	keystroke_a	a	n/a
492.5815	0.105	985163	keystroke_t	t	n/a
492.8675	0.0895	985735	keystroke_t	t	n/a
493.062	0.12	986124	keystroke_l	l	n/a
493.257	0.12	986514	keystroke_w	w	n/a
494.337	0.104	988674	keystroke_Key.backspace	Key.backspace	n/a
494.411	0.1055	988822	keystroke_e	e	n/a
494.7715	0.0745	989543	keystroke_Key.space	Key.space	n/a
495.417	0.12	990834	keystroke_i	i	n/a
495.4925	0.1195	990985	keystroke_n	n	n/a
495.672	0.1345	991344	keystroke_i	i	n/a
495.837	0.0745	991674	keystroke_t	t	n/a
495.972	0.105	991944	keystroke_i	i	n/a
496.572	0.105	993144	keystroke_a	a	n/a
496.8565	0.075	993713	keystroke_t	t	n/a
497.007	0.09	994014	keystroke_i	i	n/a
497.2015	0.0905	994403	keystroke_v	v	n/a
497.352	0.09	994704	keystroke_e	e	n/a
497.8765	0.075	995753	keystroke_s	s	n/a
498.0565	0.0905	996113	keystroke_Key.space	Key.space	n/a
498.297	0.075	996594	keystroke_w	w	n/a
498.402	0.075	996804	keystroke_h	h	n/a
498.552	0.09	997104	keystroke_o	o	n/a
498.9115	0.1055	997823	keystroke_'	'	n/a
499.001	0.0755	998002	keystroke_s	s	n/a
499.197	0.09	998394	keystroke_Key.space	Key.space	n/a
500.022	0.015	1000044	keystroke_p	p	n/a
500.397	0.09	1000794	keystroke_h	h	n/a
500.562	0.119	1001124	keystroke_o	o	n/a
500.787	0.075	1001574	keystroke_t	t	n/a
500.982	0.09	1001964	keystroke_o	o	n/a
501.4025	0.104	1002805	keystroke_g	g	n/a
501.582	0.105	1003164	keystroke_r	r	n/a
501.7915	0.0755	1003583	keystroke_a	a	n/a
501.957	0.1045	1003914	keystroke_p	p	n/a
502.137	0.0895	1004274	keystroke_h	h	n/a
502.3165	0.0905	1004633	keystroke_y	y	n/a
502.6165	0.09	1005233	keystroke_Key.enter	Key.enter	n/a
502.714	7.884	1005428	prompt	n/a	orchestra return hair serves\n
503.6665	0.0755	1007333	keystroke_o	o	n/a
503.8015	0.075	1007603	keystroke_r	r	n/a
504.0415	0.09	1008083	keystroke_c	c	n/a
504.1615	0.0905	1008323	keystroke_h	h	n/a
504.2665	0.09	1008533	keystroke_e	e	n/a
504.4615	0.09	1008923	keystroke_s	s	n/a
504.657	0.06	1009314	keystroke_t	t	n/a
504.791	0.151	1009582	keystroke_r	r	n/a
505.061	0.075	1010122	keystroke_e	e	n/a
505.7065	0.0895	1011413	keystroke_a	a	n/a
505.977	0.045	1011954	keystroke_Key.backspace	Key.backspace	n/a
506.097	0.09	1012194	keystroke_Key.backspace	Key.backspace	n/a
506.157	0.09	1012314	keystroke_a	a	n/a
506.4565	0.0455	1012913	keystroke_Key.space	Key.space	n/a
506.9365	0.1355	1013873	keystroke_r	r	n/a
507.0265	0.1355	1014053	keystroke_e	e	n/a
507.2215	0.09	1014443	keystroke_t	t	n/a
507.3265	0.09	1014653	keystroke_u	u	n/a
507.477	0.0895	1014954	keystroke_r	r	n/a
507.597	0.0745	1015194	keystroke_n	n	n/a
507.7915	0.075	1015583	keystroke_Key.space	Key.space	n/a
508.4365	0.09	1016873	keystroke_h	h	n/a
508.5265	0.03	1017053	keystroke_a	a	n/a
508.5565	0.105	1017113	keystroke_i	i	n/a
508.6915	0.06	1017383	keystroke_r	r	n/a
508.8265	0.0905	1017653	keystroke_Key.space	Key.space	n/a
509.1415	0.045	1018283	keystroke_s	s	n/a
509.3215	0.09	1018643	keystroke_e	e	n/a
509.427	0.105	1018854	keystroke_r	r	n/a
509.997	0.0745	1019994	keystroke_v	v	n/a
510.162	0.0895	1020324	keystroke_e	e	n/a
510.3565	0.075	1020713	keystroke_s	s	n/a
510.4915	0.1055	1020983	keystroke_Key.enter	Key.enter	n/a
510.6025	8.0505	1021205	prompt	n/a	blackjack bands blowing sexuality\n
511.407	0.06	1022814	keystroke_b	b	n/a
511.617	0.075	1023234	keystroke_l	l	n/a
511.707	0.119	1023414	keystroke_a	a	n/a
511.902	0.0895	1023804	keystroke_c	c	n/a
512.0065	0.075	1024013	keystroke_k	k	n/a
512.322	0.0595	1024644	keystroke_j	j	n/a
512.3965	0.1055	1024793	keystroke_a	a	n/a
512.562	0.1195	1025124	keystroke_c	c	n/a
512.6965	0.105	1025393	keystroke_k	k	n/a
513.0115	0.1055	1026023	keystroke_Key.space	Key.space	n/a
513.2965	0.0605	1026593	keystroke_b	b	n/a
513.3415	0.105	1026683	keystroke_a	a	n/a
513.507	0.09	1027014	keystroke_n	n	n/a
513.6565	0.09	1027313	keystroke_d	d	n/a
513.7475	0.0745	1027495	keystroke_Key.space	Key.space	n/a
514.3765	0.06	1028753	keystroke_b	b	n/a
514.5715	0.075	1029143	keystroke_l	l	n/a
514.7665	0.0755	1029533	keystroke_o	o	n/a
514.9765	0.09	1029953	keystroke_w	w	n/a
515.082	0.1195	1030164	keystroke_i	i	n/a
515.1415	0.15	1030283	keystroke_n	n	n/a
515.3215	0.091	1030643	keystroke_g	g	n/a
515.4415	0.075	1030883	keystroke_Key.space	Key.space	n/a
515.862	0.1195	1031724	keystroke_s	s	n/a
516.342	0.06	1032684	keystroke_e	e	n/a
517.3015	0.0595	1034603	keystroke_x	x	n/a
517.496	0.076	1034992	keystroke_u	u	n/a
517.602	0.104	1035204	keystroke_a	a	n/a
517.781	0.0905	1035562	keystroke_l	l	n/a
518.037	0.0745	1036074	keystroke_i	i	n/a
518.232	0.045	1036464	keystroke_t	t	n/a
518.397	0.06	1036794	keystroke_y	y	n/a
518.5915	0.0605	1037183	keystroke_Key.enter	Key.enter	n/a
518.6605	7.8675	1037321	prompt	n/a	cables crowd compliant espn\n
519.522	0.09	1039044	keystroke_c	c	n/a
519.7165	0.1205	1039433	keystroke_a	a	n/a
519.852	0.06	1039704	keystroke_b	b	n/a
520.032	0.0895	1040064	keystroke_l	l	n/a
520.152	0.1045	1040304	keystroke_e	e	n/a
520.2415	0.0755	1040483	keystroke_Key.space	Key.space	n/a
520.4365	0.06	1040873	keystroke_c	c	n/a
520.692	0.104	1041384	keystroke_r	r	n/a
520.842	0.09	1041684	keystroke_o	o	n/a
520.992	0.105	1041984	keystroke_w	w	n/a
522.176	0.076	1044352	keystroke_d	d	n/a
522.432	0.0595	1044864	keystroke_Key.space	Key.space	n/a
522.762	0.09	1045524	keystroke_c	c	n/a
523.4215	0.0445	1046843	keystroke_o	o	n/a
524.067	0.134	1048134	keystroke_p	p	n/a
524.1265	0.1205	1048253	keystroke_l	l	n/a
524.367	0.09	1048734	keystroke_i	i	n/a
524.471	0.106	1048942	keystroke_a	a	n/a
524.591	0.1055	1049182	keystroke_n	n	n/a
524.727	0.075	1049454	keystroke_t	t	n/a
524.847	0.105	1049694	keystroke_Key.space	Key.space	n/a
525.6115	0.106	1051223	keystroke_e	e	n/a
525.837	0.074	1051674	keystroke_s	s	n/a
525.957	0.075	1051914	keystroke_p	p	n/a
526.152	0.09	1052304	keystroke_n	n	n/a
526.451	0.075	1052902	keystroke_Key.enter	Key.enter	n/a
526.532	8.3205	1053064	prompt	n/a	brick olympics knew contacts\n
527.457	0.06	1054914	keystroke_b	b	n/a
527.681	0.061	1055362	keystroke_r	r	n/a
527.786	0.076	1055572	keystroke_i	i	n/a
527.981	0.075	1055962	keystroke_c	c	n/a
528.071	0.0605	1056142	keystroke_k	k	n/a
528.282	0.09	1056564	keystroke_Key.space	Key.space	n/a
528.821	0.0755	1057642	keystroke_o	o	n/a
529.001	0.09	1058002	keystroke_l	l	n/a
529.2865	0.0605	1058573	keystroke_y	y	n/a
529.7515	0.075	1059503	keystroke_p	p	n/a
529.977	0.089	1059954	keystroke_i	i	n/a
530.306	0.06	1060612	keystroke_c	c	n/a
530.442	0.09	1060884	keystroke_s	s	n/a
530.547	0.044	1061094	keystroke_Key.space	Key.space	n/a
531.402	0.105	1062804	keystroke_k	k	n/a
531.522	0.075	1063044	keystroke_n	n	n/a
531.716	0.286	1063432	keystroke_e	e	n/a
531.882	0.15	1063764	keystroke_w	w	n/a
532.092	0.0895	1064184	keystroke_Key.space	Key.space	n/a
533.3965	0.06	1066793	keystroke_c	c	n/a
533.5015	0.12	1067003	keystroke_o	o	n/a
533.5915	0.075	1067183	keystroke_n	n	n/a
533.6965	0.12	1067393	keystroke_t	t	n/a
533.8465	0.1205	1067693	keystroke_a	a	n/a
534.177	0.104	1068354	keystroke_c	c	n/a
534.431	0.075	1068862	keystroke_t	t	n/a
534.656	0.075	1069312	keystroke_s	s	n/a
534.791	0.06	1069582	keystroke_Key.enter	Key.enter	n/a
534.8575	14.2305	1069715	prompt	n/a	alot chevrolet advances still\n
541.0935	0.028	1082187	keystroke_a	a	n/a
541.1365	0.0905	1082273	keystroke_l	l	n/a
541.331	0.076	1082662	keystroke_o	o	n/a
541.422	0.09	1082844	keystroke_t	t	n/a
541.5865	0.0755	1083173	keystroke_Key.space	Key.space	n/a
542.142	0.1045	1084284	keystroke_c	c	n/a
542.2765	0.09	1084553	keystroke_h	h	n/a
542.4115	0.1205	1084823	keystroke_e	e	n/a
543.746	0.091	1087492	keystroke_v	v	n/a
545.037	0.075	1090074	keystroke_r	r	n/a
545.1865	0.075	1090373	keystroke_o	o	n/a
545.337	0.1045	1090674	keystroke_l	l	n/a
545.4715	0.0905	1090943	keystroke_e	e	n/a
545.6365	0.075	1091273	keystroke_t	t	n/a
545.757	0.0745	1091514	keystroke_Key.space	Key.space	n/a
546.372	0.1045	1092744	keystroke_a	a	n/a
546.5965	0.105	1093193	keystroke_d	d	n/a
546.882	0.075	1093764	keystroke_v	v	n/a
547.002	0.09	1094004	keystroke_a	a	n/a
547.1215	0.0755	1094243	keystroke_n	n	n/a
547.242	0.0745	1094484	keystroke_c	c	n/a
547.3765	0.0905	1094753	keystroke_e	e	n/a
547.617	0.074	1095234	keystroke_s	s	n/a
547.781	0.061	1095562	keystroke_Key.space	Key.space	n/a
547.9915	0.075	1095983	keystroke_s	s	n/a
548.2465	0.0605	1096493	keystroke_t	t	n/a
548.382	0.105	1096764	keystroke_i	i	n/a
548.6365	0.0455	1097273	keystroke_l	l	n/a
548.757	0.105	1097514	keystroke_l	l	n/a
549.011	0.075	1098022	keystroke_Key.enter	Key.enter	n/a
549.092	8.6815	1098184	prompt	n/a	delivery barrel maximum edward\n
549.8825	0.089	1099765	keystroke_d	d	n/a
550.047	0.09	1100094	keystroke_e	e	n/a
550.1975	0.0895	1100395	keystroke_l	l	n/a
550.422	0.075	1100844	keystroke_i	i	n/a
550.512	0.075	1101024	keystroke_v	v	n/a
550.662	0.135	1101324	keystroke_e	e	n/a
550.782	0.105	1101564	keystroke_r	r	n/a
551.022	0.075	1102044	keystroke_y	y	n/a
551.3815	0.0755	1102763	keystroke_Key.space	Key.space	n/a
551.742	0.074	1103484	keystroke_b	b	n/a
551.832	0.105	1103664	keystroke_a	a	n/a
551.982	0.075	1103964	keystroke_r	r	n/a
552.1315	0.12	1104263	keystroke_r	r	n/a
552.2215	0.1205	1104443	keystroke_e	e	n/a
552.4315	0.105	1104863	keystroke_l	l	n/a
552.9115	0.0595	1105823	keystroke_Key.space	Key.space	n/a
553.4665	0.0145	1106933	keystroke_m	m	n/a
553.497	0.105	1106994	keystroke_a	a	n/a
554.742	0.0745	1109484	keystroke_x	x	n/a
554.9215	0.135	1109843	keystroke_i	i	n/a
555.567	0.1345	1111134	keystroke_m	m	n/a
555.8965	0.0905	1111793	keystroke_u	u	n/a
556.122	0.0745	1112244	keystroke_m	m	n/a
556.3465	0.0755	1112693	keystroke_Key.space	Key.space	n/a
556.632	0.075	1113264	keystroke_e	e	n/a
556.8265	0.091	1113653	keystroke_d	d	n/a
557.021	0.105	1114042	keystroke_w	w	n/a
557.202	0.119	1114404	keystroke_a	a	n/a
557.3515	0.1045	1114703	keystroke_r	r	n/a
557.547	0.09	1115094	keystroke_d	d	n/a
557.667	0.105	1115334	keystroke_Key.enter	Key.enter	n/a
557.7775	8.741	1115555	prompt	n/a	crucial dennis glasses physician\n
558.7915	0.015	1117583	keystroke_c	c	n/a
558.942	0.0595	1117884	keystroke_r	r	n/a
559.062	0.0895	1118124	keystroke_u	u	n/a
559.257	0.0595	1118514	keystroke_c	c	n/a
559.3615	0.061	1118723	keystroke_i	i	n/a
559.4965	0.09	1118993	keystroke_a	a	n/a
559.632	0.105	1119264	keystroke_l	l	n/a
559.9015	0.09	1119803	keystroke_Key.space	Key.space	n/a
560.3965	0.105	1120793	keystroke_d	d	n/a
560.577	0.075	1121154	keystroke_e	e	n/a
560.742	0.06	1121484	keystroke_n	n	n/a
560.877	0.1045	1121754	keystroke_n	n	n/a
561.012	0.105	1122024	keystroke_i	i	n/a
561.1465	0.09	1122293	keystroke_s	s	n/a
561.341	0.0755	1122682	keystroke_Key.space	Key.space	n/a
561.882	0.09	1123764	keystroke_g	g	n/a
562.001	0.076	1124002	keystroke_l	l	n/a
562.122	0.1045	1124244	keystroke_a	a	n/a
562.272	0.06	1124544	keystroke_s	s	n/a
562.407	0.075	1124814	keystroke_s	s	n/a
562.677	0.09	1125354	keystroke_e	e	n/a
562.9015	0.0905	1125803	keystroke_s	s	n/a
563.1115	0.075	1126223	keystroke_Key.space	Key.space	n/a
563.7715	0.09	1127543	keystroke_p	p	n/a
564.1015	0.0905	1128203	keystroke_h	h	n/a
564.282	0.0745	1128564	keystroke_y	y	n/a
564.4315	0.09	1128863	keystroke_s	s	n/a
564.6115	0.105	1129223	keystroke_i	i	n/a
564.7615	0.075	1129523	keystroke_c	c	n/a
564.867	0.105	1129734	keystroke_i	i	n/a
565.1665	0.105	1130333	keystroke_a	a	n/a
565.3015	0.1055	1130603	keystroke_l	l	n/a
565.7515	0.1055	1131503	keystroke_Key.backspace	Key.backspace	n/a
566.2325	0.0895	1132465	keystroke_n	n	n/a
566.4415	0.0755	1132883	keystroke_Key.enter	Key.enter	n/a
566.5255	12.878	1133051	prompt	n/a	developmental promises favors rose\n
567.717	0.09	1135434	keystroke_d	d	n/a
567.762	0.1655	1135524	keystroke_e	e	n/a
568.0165	0.1055	1136033	keystroke_v	v	n/a
568.137	0.09	1136274	keystroke_e	e	n/a
568.287	0.1045	1136574	keystroke_l	l	n/a
568.767	0.045	1137534	keystroke_o	o	n/a
568.902	0.105	1137804	keystroke_p	p	n/a
569.757	0.09	1139514	keystroke_m	m	n/a
569.9525	0.1195	1139905	keystroke_e	e	n/a
570.012	0.09	1140024	keystroke_n	n	n/a
570.162	0.105	1140324	keystroke_t	t	n/a
570.2815	0.1055	1140563	keystroke_Key.space	Key.space	n/a
571.1815	0.0895	1142363	keystroke_=	=	n/a
571.9015	0.06	1143803	keystroke_Key.backspace	Key.backspace	n/a
572.157	0.015	1144314	keystroke_Key.backspace	Key.backspace	n/a
572.8765	0.0905	1145753	keystroke_a	a	n/a
573.027	0.0755	1146054	keystroke_l	l	n/a
573.3265	0.0905	1146653	keystroke_Key.space	Key.space	n/a
573.897	0.03	1147794	keystroke_p	p	n/a
573.9865	0.0905	1147973	keystroke_r	r	n/a
574.362	0.18	1148724	keystroke_o	o	n/a
574.527	0.1495	1149054	keystroke_m	m	n/a
574.737	0.12	1149474	keystroke_i	i	n/a
574.9015	0.06	1149803	keystroke_s	s	n/a
575.0515	0.0605	1150103	keystroke_i	i	n/a
575.141	0.0755	1150282	keystroke_s	s	n/a
575.5015	0.09	1151003	keystroke_Key.backspace	Key.backspace	n/a
575.682	0.0895	1151364	keystroke_Key.backspace	Key.backspace	n/a
575.7865	0.0905	1151573	keystroke_e	e	n/a
576.417	0.045	1152834	keystroke_s	s	n/a
576.9125	0.089	1153825	keystroke_Key.space	Key.space	n/a
577.211	0.121	1154422	keystroke_f	f	n/a
577.346	0.1355	1154692	keystroke_a	a	n/a
577.5115	0.1205	1155023	keystroke_v	v	n/a
577.782	0.105	1155564	keystroke_o	o	n/a
577.902	0.1055	1155804	keystroke_r	r	n/a
578.142	0.06	1156284	keystroke_s	s	n/a
578.247	0.075	1156494	keystroke_Key.space	Key.space	n/a
578.8315	0.0455	1157663	keystroke_r	r	n/a
578.8915	0.105	1157783	keystroke_o	o	n/a
578.9965	0.0905	1157993	keystroke_s	s	n/a
579.207	0.0745	1158414	keystroke_e	e	n/a
579.312	0.09	1158624	keystroke_Key.enter	Key.enter	n/a
579.4095	12.489	1158819	prompt	n/a	obituaries lesson dicke melissa\n
580.4365	0.0905	1160873	keystroke_o	o	n/a
580.857	0.09	1161714	keystroke_b	b	n/a
581.847	0.09	1163694	keystroke_i	i	n/a
581.997	0.09	1163994	keystroke_t	t	n/a
582.1325	0.0745	1164265	keystroke_u	u	n/a
582.432	0.12	1164864	keystroke_r	r	n/a
583.6165	0.12	1167233	keystroke_Key.backspace	Key.backspace	n/a
583.737	0.1345	1167474	keystroke_a	a	n/a
584.0225	0.1495	1168045	keystroke_r	r	n/a
584.9965	0.0455	1169993	keystroke_i	i	n/a
585.057	0.015	1170114	keystroke_e	e	n/a
585.192	0.075	1170384	keystroke_s	s	n/a
585.326	0.076	1170652	keystroke_Key.space	Key.space	n/a
585.777	0.119	1171554	keystroke_l	l	n/a
585.852	0.074	1171704	keystroke_e	e	n/a
586.136	0.06	1172272	keystroke_s	s	n/a
586.301	0.091	1172602	keystroke_s	s	n/a
586.421	0.166	1172842	keystroke_o	o	n/a
586.511	0.1355	1173022	keystroke_n	n	n/a
586.8415	0.075	1173683	keystroke_Key.space	Key.space	n/a
587.3065	0.06	1174613	keystroke_d	d	n/a
587.4865	0.091	1174973	keystroke_i	i	n/a
587.6365	0.105	1175273	keystroke_c	c	n/a
587.892	0.0895	1175784	keystroke_k	k	n/a
588.7615	0.0905	1177523	keystroke_e	e	n/a
590.321	0.046	1180642	keystroke_Key.space	Key.space	n/a
590.7415	0.075	1181483	keystroke_m	m	n/a
590.832	0.075	1181664	keystroke_e	e	n/a
591.102	0.059	1182204	keystroke_l	l	n/a
591.2965	0.09	1182593	keystroke_i	i	n/a
591.402	0.0445	1182804	keystroke_s	s	n/a
591.5365	0.105	1183073	keystroke_s	s	n/a
591.687	0.1045	1183374	keystroke_a	a	n/a
591.8215	0.075	1183643	keystroke_Key.enter	Key.enter	n/a
591.905	7.1635	1183810	prompt	n/a	conclude hotels food catalogue\n
592.722	0.06	1185444	keystroke_c	c	n/a
592.842	0.09	1185684	keystroke_o	o	n/a
592.977	0.105	1185954	keystroke_n	n	n/a
593.1125	0.1035	1186225	keystroke_c	c	n/a
593.277	0.0895	1186554	keystroke_l	l	n/a
593.517	0.0745	1187034	keystroke_u	u	n/a
593.6965	0.135	1187393	keystroke_d	d	n/a
593.8615	0.105	1187723	keystroke_e	e	n/a
593.9965	0.075	1187993	keystroke_Key.space	Key.space	n/a
594.297	0.0895	1188594	keystroke_h	h	n/a
594.4915	0.075	1188983	keystroke_o	o	n/a
594.5815	0.09	1189163	keystroke_t	t	n/a
594.7915	0.0755	1189583	keystroke_e	e	n/a
594.957	0.1045	1189914	keystroke_l	l	n/a
595.031	0.0905	1190062	keystroke_s	s	n/a
595.2715	0.06	1190543	keystroke_Key.space	Key.space	n/a
595.5865	0.06	1191173	keystroke_f	f	n/a
595.7075	0.0895	1191415	keystroke_o	o	n/a
595.871	0.106	1191742	keystroke_o	o	n/a
595.9925	0.0595	1191985	keystroke_d	d	n/a
596.171	0.09	1192342	keystroke_Key.space	Key.space	n/a
596.5625	0.1045	1193125	keystroke_c	c	n/a
596.712	0.1055	1193424	keystroke_a	a	n/a
596.9375	0.075	1193875	keystroke_t	t	n/a
597.0275	0.119	1194055	keystroke_a	a	n/a
597.3565	0.106	1194713	keystroke_l	l	n/a
597.597	0.1045	1195194	keystroke_o	o	n/a
598.587	0.075	1197174	keystroke_g	g	n/a
598.722	0.09	1197444	keystroke_u	u	n/a
598.842	0.09	1197684	keystroke_e	e	n/a
598.977	0.0895	1197954	keystroke_Key.enter	Key.enter	n/a
599.0725	8.081	1198145	prompt	n/a	clusters marketing winston auctions\n
600.282	0.135	1200564	keystroke_c	c	n/a
600.402	0.075	1200804	keystroke_l	l	n/a
600.6425	0.0745	1201285	keystroke_u	u	n/a
600.687	0.1205	1201374	keystroke_s	s	n/a
600.942	0.09	1201884	keystroke_t	t	n/a
601.076	0.196	1202152	keystroke_e	e	n/a
601.362	0.09	1202724	keystroke_r	r	n/a
601.5725	0.089	1203145	keystroke_s	s	n/a
601.797	0.06	1203594	keystroke_Key.space	Key.space	n/a
602.022	0.105	1204044	keystroke_m	m	n/a
602.082	0.0905	1204164	keystroke_a	a	n/a
602.2315	0.105	1204463	keystroke_r	r	n/a
602.5325	0.09	1205065	keystroke_k	k	n/a
602.637	0.1055	1205274	keystroke_e	e	n/a
602.8025	0.089	1205605	keystroke_t	t	n/a
602.9365	0.1355	1205873	keystroke_i	i	n/a
603.0265	0.12	1206053	keystroke_n	n	n/a
603.1315	0.09	1206263	keystroke_g	g	n/a
603.2815	0.1055	1206563	keystroke_Key.space	Key.space	n/a
604.092	0.09	1208184	keystroke_w	w	n/a
604.2125	0.1195	1208425	keystroke_i	i	n/a
604.287	0.105	1208574	keystroke_n	n	n/a
604.392	0.0905	1208784	keystroke_s	s	n/a
604.6165	0.0605	1209233	keystroke_t	t	n/a
604.707	0.1355	1209414	keystroke_o	o	n/a
604.827	0.105	1209654	keystroke_n	n	n/a
605.082	0.0745	1210164	keystroke_Key.space	Key.space	n/a
605.3065	0.1055	1210613	keystroke_a	a	n/a
605.8175	0.075	1211635	keystroke_u	u	n/a
605.997	0.075	1211994	keystroke_c	c	n/a
606.252	0.06	1212504	keystroke_t	t	n/a
606.417	0.255	1212834	keystroke_i	i	n/a
606.5815	0.0755	1213163	keystroke_o	o	n/a
606.5965	0.1355	1213193	keystroke_n	n	n/a
606.747	0.1055	1213494	keystroke_s	s	n/a
607.0615	0.09	1214123	keystroke_Key.enter	Key.enter	n/a
607.1575	8.276	1214315	prompt	n/a	yukon routines automated skilled\n
608.0675	0.104	1216135	keystroke_y	y	n/a
608.352	0.105	1216704	keystroke_u	u	n/a
608.577	0.12	1217154	keystroke_k	k	n/a
608.7865	0.15	1217573	keystroke_o	o	n/a
608.9065	0.1205	1217813	keystroke_n	n	n/a
609.132	0.105	1218264	keystroke_Key.space	Key.space	n/a
609.762	0.075	1219524	keystroke_r	r	n/a
609.897	0.0755	1219794	keystroke_o	o	n/a
610.1075	0.0895	1220215	keystroke_u	u	n/a
610.362	0.06	1220724	keystroke_t	t	n/a
610.452	0.1345	1220904	keystroke_i	i	n/a
610.542	0.105	1221084	keystroke_n	n	n/a
610.7215	0.121	1221443	keystroke_e	e	n/a
611.052	0.09	1222104	keystroke_s	s	n/a
611.231	0.106	1222462	keystroke_Key.space	Key.space	n/a
611.5025	0.0745	1223005	keystroke_a	a	n/a
611.757	0.06	1223514	keystroke_u	u	n/a
611.952	0.045	1223904	keystroke_r	r	n/a
612.4165	0.135	1224833	keystroke_Key.backspace	Key.backspace	n/a
612.5665	0.0905	1225133	keystroke_t	t	n/a
612.8225	0.135	1225645	keystroke_o	o	n/a
613.167	0.0895	1226334	keystroke_m	m	n/a
613.3165	0.09	1226633	keystroke_a	a	n/a
613.5265	0.075	1227053	keystroke_t	t	n/a
613.6165	0.181	1227233	keystroke_e	e	n/a
613.7975	0.1195	1227595	keystroke_d	d	n/a
614.052	0.0905	1228104	keystroke_Key.space	Key.space	n/a
614.382	0.105	1228764	keystroke_s	s	n/a
614.5165	0.0755	1229033	keystroke_k	k	n/a
614.6515	0.1055	1229303	keystroke_i	i	n/a
614.892	0.0445	1229784	keystroke_l	l	n/a
614.967	0.12	1229934	keystroke_l	l	n/a
615.057	0.1645	1230114	keystroke_e	e	n/a
615.162	0.15	1230324	keystroke_d	d	n/a
615.3565	0.075	1230713	keystroke_Key.enter	Key.enter	n/a
615.438	10.301	1230876	prompt	n/a	menu instantly roland indicating\n
616.3465	0.09	1232693	keystroke_m	m	n/a
616.452	0.0745	1232904	keystroke_e	e	n/a
616.5725	0.074	1233145	keystroke_n	n	n/a
616.7525	0.075	1233505	keystroke_u	u	n/a
616.9615	0.09	1233923	keystroke_Key.space	Key.space	n/a
617.652	0.12	1235304	keystroke_i	i	n/a
617.727	0.104	1235454	keystroke_n	n	n/a
617.8025	0.1045	1235605	keystroke_s	s	n/a
617.997	0.12	1235994	keystroke_t	t	n/a
618.132	0.1205	1236264	keystroke_a	a	n/a
618.2675	0.0895	1236535	keystroke_t	t	n/a
618.522	0.075	1237044	keystroke_n	n	n/a
618.957	0.1045	1237914	keystroke_t	t	n/a
619.1065	0.0905	1238213	keystroke_l	l	n/a
619.2115	0.09	1238423	keystroke_y	y	n/a
619.9315	0.06	1239863	keystroke_Key.space	Key.space	n/a
620.8015	0.09	1241603	keystroke_r	r	n/a
