onset	duration	sample	value	key	prompt_text
12.2205	9.2245	24441	prompt	n/a	the quick brown fox jumps over a lazy dog\n
13.9885	0.0285	27977	keystroke	t	n/a
14.002	0.09	28004	keystroke	h	n/a
14.137	0.105	28274	keystroke	e	n/a
14.257	0.09	28514	keystroke	Key.space	n/a
14.572	0.09	29144	keystroke	q	n/a
14.782	0.0745	29564	keystroke	u	n/a
14.9765	0.105	29953	keystroke	i	n/a
15.1565	0.075	30313	keystroke	c	n/a
15.262	0.075	30524	keystroke	k	n/a
15.487	0.0445	30974	keystroke	Key.space	n/a
15.637	0.0895	31274	keystroke	b	n/a
15.892	0.09	31784	keystroke	r	n/a
16.2965	0.0605	32593	keystroke	o	n/a
16.4165	0.075	32833	keystroke	w	n/a
16.522	0.0745	33044	keystroke	n	n/a
16.6865	0.0755	33373	keystroke	Key.space	n/a
17.002	0.0445	34004	keystroke	f	n/a
17.182	0.0745	34364	keystroke	o	n/a
17.3465	0.105	34693	keystroke	x	n/a
17.467	0.075	34934	keystroke	Key.space	n/a
17.6765	0.0755	35353	keystroke	j	n/a
17.857	0.06	35714	keystroke	u	n/a
18.052	0.075	36104	keystroke	m	n/a
18.277	0.06	36554	keystroke	p	n/a
18.382	0.09	36764	keystroke	s	n/a
18.502	0.09	37004	keystroke	Key.space	n/a
18.9075	0.0895	37815	keystroke	o	n/a
19.027	0.1345	38054	keystroke	v	n/a
19.177	0.1345	38354	keystroke	e	n/a
19.2815	0.091	38563	keystroke	r	n/a
19.402	0.06	38804	keystroke	Key.space	n/a
19.507	0.075	39014	keystroke	a	n/a
19.597	0.075	39194	keystroke	Key.space	n/a
19.807	0.0745	39614	keystroke	l	n/a
19.8665	0.06	39733	keystroke	a	n/a
20.062	0.075	40124	keystroke	z	n/a
20.197	0.09	40394	keystroke	y	n/a
20.332	0.075	40664	keystroke	Key.space	n/a
20.4825	0.0745	40965	keystroke	d	n/a
20.617	0.06	41234	keystroke	o	n/a
20.722	0.075	41444	keystroke	g	n/a
21.3375	0.1045	42675	keystroke	Key.enter	n/a
21.4515	7.162	42903	prompt	n/a	speeds library copy mothers\n
22.432	0.075	44864	keystroke	s	n/a
22.627	0.045	45254	keystroke	p	n/a
23.5875	0.074	47175	keystroke	e	n/a
23.7515	0.075	47503	keystroke	e	n/a
23.947	0.105	47894	keystroke	d	n/a
24.007	0.105	48014	keystroke	s	n/a
24.157	0.075	48314	keystroke	Key.space	n/a
24.997	0.075	49994	keystroke	l	n/a
25.177	0.0605	50354	keystroke	i	n/a
25.2675	0.105	50535	keystroke	b	n/a
25.5075	0.12	51015	keystroke	r	n/a
25.6115	0.15	51223	keystroke	a	n/a
25.8215	0.09	51643	keystroke	r	n/a
26.062	0.03	52124	keystroke	y	n/a
26.197	0.09	52394	keystroke	Key.space	n/a
26.647	0.045	53294	keystroke	c	n/a
26.752	0.105	53504	keystroke	o	n/a
26.992	0.075	53984	keystroke	p	n/a
27.127	0.0905	54254	keystroke	y	n/a
27.292	0.075	54584	keystroke	Key.space	n/a
27.457	0.06	54914	keystroke	m	n/a
27.6665	0.06	55333	keystroke	o	n/a
27.7115	0.09	55423	keystroke	t	n/a
27.877	0.06	55754	keystroke	h	n/a
28.012	0.105	56024	keystroke	e	n/a
28.057	0.12	56114	keystroke	r	n/a
28.222	0.0905	56444	keystroke	s	n/a
28.507	0.105	57014	keystroke	Key.enter	n/a
28.6195	14.1095	57239	prompt	n/a	passwords guidance mime billing\n
29.662	0.0905	59324	keystroke	a	n/a
30.0665	0.1055	60133	keystroke	Key.backspace	n/a
30.9075	0.0895	61815	keystroke	p	n/a
31.042	0.195	62084	keystroke	a	n/a
31.192	0.075	62384	keystroke	s	n/a
31.3575	0.06	62715	keystroke	s	n/a
31.5665	0.0905	63133	keystroke	w	n/a
31.687	0.105	63374	keystroke	o	n/a
31.7775	0.0595	63555	keystroke	r	n/a
31.957	0.1195	63914	keystroke	d	n/a
32.0615	0.1055	64123	keystroke	s	n/a
32.272	0.09	64544	keystroke	Key.space	n/a
32.527	0.075	65054	keystroke	g	n/a
32.677	0.0455	65354	keystroke	u	n/a
32.812	0.075	65624	keystroke	i	n/a
32.902	0.0905	65804	keystroke	d	n/a
33.0225	0.135	66045	keystroke	a	n/a
33.1125	0.09	66225	keystroke	n	n/a
33.1425	0.045	66285	keystroke	c	n/a
33.2175	0.15	66435	keystroke	c	n/a
33.3225	0.09	66645	keystroke	e	n/a
33.4725	0.044	66945	keystroke	Key.space	n/a
34.3865	0.0905	68773	keystroke	Key.backspace	n/a
35.392	0.105	70784	keystroke	Key.backspace	n/a
36.982	0.1195	73964	keystroke	Key.backspace	n/a
38.872	0.075	77744	keystroke	e	n/a
39.082	0.075	78164	keystroke	Key.space	n/a
39.7725	0.105	79545	keystroke	m	n/a
40.312	0.0905	80624	keystroke	i	n/a
40.537	0.075	81074	keystroke	m	n/a
40.627	0.09	81254	keystroke	e	n/a
40.732	0.075	81464	keystroke	Key.space	n/a
40.897	0.0755	81794	keystroke	b	n/a
40.987	0.075	81974	keystroke	i	n/a
41.182	0.06	82364	keystroke	l	n/a
41.3175	0.0745	82635	keystroke	l	n/a
41.512	0.06	83024	keystroke	i	n/a
42.1125	0.135	84225	keystroke	n	n/a
42.2025	0.105	84405	keystroke	g	n/a
42.6075	0.119	85215	keystroke	Key.enter	n/a
42.7335	9.2355	85467	prompt	n/a	guns improving donald gordon\n
43.4775	0.075	86955	keystroke	g	n/a
43.6125	0.075	87225	keystroke	u	n/a
43.822	0.1055	87644	keystroke	n	n/a
44.002	0.09	88004	keystroke	s	n/a
44.122	0.075	88244	keystroke	Key.space	n/a
44.422	0.0605	88844	keystroke	i	n/a
44.5865	0.0905	89173	keystroke	m	n/a
44.8265	0.0455	89653	keystroke	o	n/a
44.917	0.0755	89834	keystroke	r	n/a
45.007	0.06	90014	keystroke	i	n/a
45.127	0.1045	90254	keystroke	v	n/a
45.2765	0.061	90553	keystroke	i	n/a
46.087	0.03	92174	keystroke	Key.backspace	n/a
46.417	0.105	92834	keystroke	Key.backspace	n/a
46.7025	0.0745	93405	keystroke	Key.backspace	n/a
46.9715	0.0755	93943	keystroke	Key.backspace	n/a
47.272	0.09	94544	keystroke	Key.backspace	n/a
48.0075	0.09	96015	keystroke	p	n/a
48.1565	0.106	96313	keystroke	r	n/a
48.2775	0.0895	96555	keystroke	o	n/a
48.547	0.075	97094	keystroke	v	n/a
48.6825	0.0595	97365	keystroke	i	n/a
48.892	0.06	97784	keystroke	n	n/a
48.967	0.075	97934	keystroke	g	n/a
49.072	0.0755	98144	keystroke	Key.space	n/a
49.207	0.06	98414	keystroke	d	n/a
49.297	0.0595	98594	keystroke	o	n/a
49.4775	0.075	98955	keystroke	n	n/a
49.5675	0.09	99135	keystroke	a	n/a
49.672	0.0605	99344	keystroke	l	n/a
49.777	0.075	99554	keystroke	d	n/a
49.882	0.06	99764	keystroke	Key.space	n/a
50.197	0.0755	100394	keystroke	d	n/a
50.4065	0.09	100813	keystroke	Key.backspace	n/a
50.602	0.0755	101204	keystroke	g	n/a
51.0515	0.076	102103	keystroke	o	n/a
51.157	0.0905	102314	keystroke	r	n/a
51.3525	0.1045	102705	keystroke	d	n/a
51.472	0.0455	102944	keystroke	o	n/a
51.637	0.06	103274	keystroke	n	n/a
51.862	0.1045	103724	keystroke	Key.enter	n/a
51.9745	5.4545	103949	prompt	n/a	bhutan formal hero eleven\n
52.6425	0.09	105285	keystroke	b	n/a
53.047	0.0755	106094	keystroke	h	n/a
53.2275	0.075	106455	keystroke	u	n/a
53.4225	0.09	106845	keystroke	t	n/a
53.602	0.075	107204	keystroke	a	n/a
53.722	0.06	107444	keystroke	n	n/a
53.9465	0.0755	107893	keystroke	Key.space	n/a
54.052	0.0895	108104	keystroke	f	n/a
54.1865	0.0605	108373	keystroke	o	n/a
54.2615	0.06	108523	keystroke	r	n/a
54.3815	0.075	108763	keystroke	m	n/a
54.4875	0.059	108975	keystroke	a	n/a
54.592	0.0595	109184	keystroke	l	n/a
54.7725	0.06	109545	keystroke	Key.space	n/a
54.8475	0.09	109695	keystroke	h	n/a
54.9525	0.09	109905	keystroke	e	n/a
55.1175	0.0895	110235	keystroke	r	n/a
55.222	0.06	110444	keystroke	o	n/a
55.417	0.0755	110834	keystroke	Key.space	n/a
55.5075	0.075	111015	keystroke	e	n/a
55.627	0.0905	111254	keystroke	l	n/a
55.6875	0.105	111375	keystroke	e	n/a
55.8225	0.059	111645	keystroke	c	n/a
56.0925	0.0895	112185	keystroke	Key.backspace	n/a
56.902	0.135	113804	keystroke	v	n/a
56.992	0.0905	113984	keystroke	e	n/a
57.112	0.0755	114224	keystroke	n	n/a
57.3225	0.105	114645	keystroke	Key.enter	n/a
57.433	10.647	114866	prompt	n/a	glucose monsters entrepreneurs switch\n
58.2975	0.0595	116595	keystroke	g	n/a
58.687	0.06	117374	keystroke	l	n/a
58.912	0.06	117824	keystroke	u	n/a
59.002	0.0755	118004	keystroke	c	n/a
59.1525	0.075	118305	keystroke	o	n/a
59.2575	0.06	118515	keystroke	s	n/a
59.4225	0.075	118845	keystroke	e	n/a
59.5125	0.075	119025	keystroke	Key.space	n/a
59.6925	0.06	119385	keystroke	m	n/a
59.8725	0.06	119745	keystroke	o	n/a
60.0675	0.06	120135	keystroke	n	n/a
60.1425	0.045	120285	keystroke	s	n/a
60.2775	0.135	120555	keystroke	e	n/a
60.4575	0.075	120915	keystroke	t	n/a
61.402	0.0745	122804	keystroke	Key.backspace	n/a
61.777	0.0755	123554	keystroke	Key.backspace	n/a
62.1075	0.105	124215	keystroke	t	n/a
62.3325	0.104	124665	keystroke	e	n/a
62.407	0.1045	124814	keystroke	r	n/a
62.5865	0.076	125173	keystroke	s	n/a
63.007	0.0905	126014	keystroke	Key.space	n/a
63.3525	0.0745	126705	keystroke	e	n/a
63.562	0.075	127124	keystroke	n	n/a
63.667	0.0755	127334	keystroke	t	n/a
63.8775	0.135	127755	keystroke	r	n/a
64.357	0.09	128714	keystroke	e	n/a
64.5825	0.089	129165	keystroke	p	n/a
64.702	0.1205	129404	keystroke	r	n/a
64.792	0.105	129584	keystroke	e	n/a
65.062	0.075	130124	keystroke	n	n/a
65.257	0.045	130514	keystroke	e	n/a
65.902	0.0755	131804	keystroke	u	n/a
66.007	0.135	132014	keystroke	r	n/a
66.112	0.1055	132224	keystroke	s	n/a
66.3675	0.06	132735	keystroke	Key.space	n/a
66.712	0.075	133424	keystroke	s	n/a
66.8915	0.0905	133783	keystroke	w	n/a
67.087	0.0155	134174	keystroke	i	n/a
67.1325	0.0895	134265	keystroke	t	n/a
67.3425	0.06	134685	keystroke	c	n/a
67.3725	0.09	134745	keystroke	h	n/a
67.987	0.0905	135974	keystroke	Key.enter	n/a
68.085	7.6595	136170	prompt	n/a	treatments compete shaved website\n
68.767	0.09	137534	keystroke	t	n/a
68.962	0.075	137924	keystroke	r	n/a
69.127	0.1205	138254	keystroke	e	n/a
69.232	0.12	138464	keystroke	a	n/a
69.337	0.075	138674	keystroke	t	n/a
69.5325	0.12	139065	keystroke	m	n/a
69.7275	0.09	139455	keystroke	e	n/a
69.8915	0.0755	139783	keystroke	n	n/a
70.1175	0.059	140235	keystroke	s	n/a
71.227	0.075	142454	keystroke	Key.backspace	n/a
71.5575	0.09	143115	keystroke	t	n/a
71.7075	0.09	143415	keystroke	s	n/a
72.0975	0.0895	144195	keystroke	Key.space	n/a
72.3525	0.06	144705	keystroke	c	n/a
72.4575	0.0445	144915	keystroke	o	n/a
72.6375	0.075	145275	keystroke	m	n/a
72.8775	0.0445	145755	keystroke	p	n/a
72.982	0.09	145964	keystroke	e	n/a
73.102	0.1355	146204	keystroke	t	n/a
73.207	0.1055	146414	keystroke	e	n/a
73.3125	0.0895	146625	keystroke	Key.space	n/a
73.4615	0.091	146923	keystroke	s	n/a
73.6125	0.075	147225	keystroke	h	n/a
73.7325	0.104	147465	keystroke	a	n/a
73.8215	0.121	147643	keystroke	v	n/a
73.9115	0.09	147823	keystroke	e	n/a
74.0775	0.075	148155	keystroke	d	n/a
74.167	0.0755	148334	keystroke	Key.space	n/a
74.2875	0.1495	148575	keystroke	w	n/a
74.422	0.0905	148844	keystroke	e	n/a
74.662	0.0605	149324	keystroke	b	n/a
74.8575	0.0895	149715	keystroke	s	n/a
75.022	0.06	150044	keystroke	i	n/a
75.427	0.12	150854	keystroke	t	n/a
75.502	0.12	151004	keystroke	e	n/a
75.637	0.105	151274	keystroke	Key.enter	n/a
75.7525	5.556	151505	prompt	n/a	flight criticism form steal\n
76.387	0.105	152774	keystroke	f	n/a
76.567	0.09	153134	keystroke	l	n/a
76.762	0.075	153524	keystroke	i	n/a
76.807	0.12	153614	keystroke	g	n/a
76.957	0.045	153914	keystroke	h	n/a
77.017	0.075	154034	keystroke	t	n/a
77.152	0.09	154304	keystroke	Key.space	n/a
77.272	0.09	154544	keystroke	c	n/a
77.467	0.09	154934	keystroke	r	n/a
77.632	0.0595	155264	keystroke	i	n/a
78.0225	0.075	156045	keystroke	t	n/a
78.247	0.0745	156494	keystroke	i	n/a
78.457	0.0905	156914	keystroke	c	n/a
78.6215	0.0755	157243	keystroke	i	n/a
78.727	0.09	157454	keystroke	s	n/a
78.892	0.06	157784	keystroke	m	n/a
79.072	0.075	158144	keystroke	Key.space	n/a
79.1925	0.105	158385	keystroke	f	n/a
79.327	0.06	158654	keystroke	o	n/a
79.402	0.06	158804	keystroke	r	n/a
79.507	0.0755	159014	keystroke	m	n/a
79.672	0.09	159344	keystroke	Key.space	n/a
79.747	0.105	159494	keystroke	s	n/a
79.8665	0.0905	159733	keystroke	t	n/a
80.077	0.105	160154	keystroke	e	n/a
80.1665	0.0755	160333	keystroke	a	n/a
80.977	0.09	161954	keystroke	l	n/a
81.1865	0.1205	162373	keystroke	Key.enter	n/a
81.3125	6.671	162625	prompt	n/a	diagram wild gratuit plus\n
81.967	0.09	163934	keystroke	d	n/a
82.102	0.0745	164204	keystroke	i	n/a
82.1915	0.1055	164383	keystroke	a	n/a
82.3565	0.09	164713	keystroke	g	n/a
82.5365	0.1055	165073	keystroke	r	n/a
82.642	0.09	165284	keystroke	a	n/a
82.7465	0.045	165493	keystroke	m	n/a
82.8815	0.075	165763	keystroke	Key.space	n/a
82.9715	0.075	165943	keystroke	w	n/a
83.107	0.0605	166214	keystroke	i	n/a
83.2715	0.09	166543	keystroke	l	n/a
83.3765	0.06	166753	keystroke	d	n/a
83.4665	0.09	166933	keystroke	Key.space	n/a
83.587	0.09	167174	keystroke	g	n/a
83.782	0.105	167564	keystroke	r	n/a
83.9015	0.105	167803	keystroke	a	n/a
84.7865	0.091	169573	keystroke	t	n/a
84.9525	0.06	169905	keystroke	u	n/a
85.1315	0.076	170263	keystroke	i	n/a
85.2215	0.046	170443	keystroke	t	n/a
85.3415	0.09	170683	keystroke	Key.space	n/a
85.597	0.03	171194	keystroke	o	n/a
86.6015	0.0605	173203	keystroke	Key.backspace	n/a
87.0965	0.06	174193	keystroke	p	n/a
87.292	0.09	174584	keystroke	l	n/a
87.562	0.0595	175124	keystroke	u	n/a
87.667	0.09	175334	keystroke	s	n/a
87.8765	0.105	175753	keystroke	Key.enter	n/a
87.989	13.1195	175978	prompt	n/a	puts friendly consequences andrews\n
89.0615	0.0905	178123	keystroke	o	n/a
89.917	0.045	179834	keystroke	Key.backspace	n/a
90.202	0.075	180404	keystroke	p	n/a
90.652	0.09	181304	keystroke	u	n/a
90.802	0.075	181604	keystroke	t	n/a
91.492	0.075	182984	keystroke	s	n/a
91.581	0.075	183162	keystroke	Key.space	n/a
91.7765	0.091	183553	keystroke	f	n/a
91.9725	0.0745	183945	keystroke	r	n/a
92.1825	0.0895	184365	keystroke	e	n/a
93.036	0.091	186072	keystroke	Key.backspace	n/a
93.457	0.075	186914	keystroke	i	n/a
93.592	0.045	187184	keystroke	e	n/a
93.7125	0.045	187425	keystroke	n	n/a
93.787	0.075	187574	keystroke	d	n/a
93.967	0.03	187934	keystroke	l	n/a
94.0565	0.091	188113	keystroke	y	n/a
94.867	0.09	189734	keystroke	Key.space	n/a
95.152	0.075	190304	keystroke	c	n/a
95.437	0.06	190874	keystroke	o	n/a
95.662	0.06	191324	keystroke	n	n/a
95.7515	0.0905	191503	keystroke	s	n/a
96.592	0.0905	193184	keystroke	e	n/a
96.8025	0.09	193605	keystroke	q	n/a
97.0125	0.0595	194025	keystroke	u	n/a
97.087	0.09	194174	keystroke	e	n/a
97.2225	0.0745	194445	keystroke	n	n/a
97.312	0.105	194624	keystroke	c	n/a
97.372	0.105	194744	keystroke	e	n/a
97.552	0.09	195104	keystroke	s	n/a
97.702	0.075	195404	keystroke	Key.space	n/a
98.0175	0.074	196035	keystroke	a	n/a
98.2125	0.059	196425	keystroke	n	n/a
98.2865	0.091	196573	keystroke	d	n/a
98.4975	0.06	196995	keystroke	r	n/a
98.6775	0.15	197355	keystroke	e	n/a
98.7675	0.105	197535	keystroke	w	n/a
98.9625	0.09	197925	keystroke	s	n/a
99.3825	0.074	198765	keystroke	]	n/a
100.567	0.0595	201134	keystroke	Key.backspace	n/a
101.0165	0.09	202033	keystroke	Key.enter	n/a
101.112	8.5315	202224	prompt	n/a	chester mile newman walking\n
101.857	0.075	203714	keystroke	c	n/a
102.052	0.075	204104	keystroke	h	n/a
102.142	0.075	204284	keystroke	e	n/a
102.292	0.12	204584	keystroke	s	n/a
102.397	0.0905	204794	keystroke	t	n/a
102.667	0.09	205334	keystroke	Key.space	n/a
104.7365	0.105	209473	keystroke	Key.backspace	n/a
105.037	0.1345	210074	keystroke	e	n/a
105.1265	0.1205	210253	keystroke	r	n/a
105.2765	0.1055	210553	keystroke	Key.space	n/a
105.952	0.0905	211904	keystroke	m	n/a
106.177	0.06	212354	keystroke	i	n/a
106.372	0.1055	212744	keystroke	l	n/a
106.5065	0.09	213013	keystroke	e	n/a
106.6725	0.074	213345	keystroke	Key.space	n/a
106.9875	0.105	213975	keystroke	n	n/a
107.1215	0.1055	214243	keystroke	e	n/a
107.1665	0.1055	214333	keystroke	w	n/a
107.377	0.0445	214754	keystroke	m	n/a
107.4515	0.075	214903	keystroke	a	n/a
107.5565	0.0455	215113	keystroke	n	n/a
107.692	0.0895	215384	keystroke	Key.space	n/a
107.797	0.135	215594	keystroke	w	n/a
107.9165	0.075	215833	keystroke	a	n/a
108.697	0.06	217394	keystroke	l	n/a
108.862	0.06	217724	keystroke	k	n/a
109.027	0.06	218054	keystroke	i	n/a
109.102	0.105	218204	keystroke	n	n/a
109.177	0.075	218354	keystroke	g	n/a
109.5065	0.1355	219013	keystroke	Key.enter	n/a
109.647	9.8665	219294	prompt	n/a	metric estate competitors refugees\n
110.482	0.075	220964	keystroke	m	n/a
110.572	0.075	221144	keystroke	e	n/a
110.692	0.045	221384	keystroke	t	n/a
110.827	0.105	221654	keystroke	r	n/a
111.007	0.075	222014	keystroke	i	n/a
111.1715	0.075	222343	keystroke	c	n/a
111.396	0.076	222792	keystroke	Key.space	n/a
111.742	0.06	223484	keystroke	e	n/a
111.907	0.075	223814	keystroke	s	n/a
112.072	0.12	224144	keystroke	t	n/a
112.207	0.105	224414	keystroke	a	n/a
112.282	0.12	224564	keystroke	t	n/a
112.357	0.09	224714	keystroke	e	n/a
112.492	0.09	224984	keystroke	Key.space	n/a
112.6865	0.075	225373	keystroke	e	n/a
113.407	0.119	226814	keystroke	Key.backspace	n/a
113.6765	0.06	227353	keystroke	c	n/a
113.7665	0.075	227533	keystroke	o	n/a
113.9615	0.0755	227923	keystroke	m	n/a
114.3225	0.0445	228645	keystroke	p	n/a
114.4865	0.0905	228973	keystroke	e	n/a
114.7415	0.09	229483	keystroke	t	n/a
115.057	0.06	230114	keystroke	i	n/a
115.147	0.09	230294	keystroke	t	n/a
115.747	0.09	231494	keystroke	o	n/a
115.852	0.105	231704	keystroke	r	n/a
115.972	0.1045	231944	keystroke	s	n/a
116.137	0.09	232274	keystroke	Key.space	n/a
116.347	0.12	232694	keystroke	r	n/a
116.437	0.09	232874	keystroke	e	n/a
116.586	0.091	233172	keystroke	f	n/a
116.752	0.0895	233504	keystroke	u	n/a
117.142	0.12	234284	keystroke	c	n/a
117.4115	0.075	234823	keystroke	Key.backspace	n/a
117.907	0.075	235814	keystroke	g	n/a
118.1325	0.0895	236265	keystroke	r	n/a
118.462	0.075	236924	keystroke	Key.backspace	n/a
118.6575	0.045	237315	keystroke	e	n/a
118.8065	0.09	237613	keystroke	e	n/a
119.167	0.06	238334	keystroke	s	n/a
119.3465	0.1655	238693	keystroke	Key.enter	n/a
119.5165	4.362	239033	prompt	n/a	holders handled assisted owned\n
120.202	0.06	240404	keystroke	h	n/a
120.292	0.089	240584	keystroke	o	n/a
120.457	0.104	240914	keystroke	l	n/a
120.516	0.121	241032	keystroke	d	n/a
120.651	0.091	241302	keystroke	e	n/a
120.712	0.0895	241424	keystroke	r	n/a
120.8465	0.09	241693	keystroke	s	n/a
120.8765	0.09	241753	keystroke	Key.space	n/a
121.102	0.0745	242204	keystroke	h	n/a
121.207	0.105	242414	keystroke	a	n/a
121.297	0.075	242594	keystroke	n	n/a
121.4015	0.09	242803	keystroke	d	n/a
121.552	0.0445	243104	keystroke	l	n/a
121.612	0.0895	243224	keystroke	e	n/a
121.8215	0.075	243643	keystroke	d	n/a
121.941	0.0755	243882	keystroke	Key.space	n/a
122.0615	0.1205	244123	keystroke	a	n/a
122.1825	0.059	244365	keystroke	s	n/a
122.3015	0.0905	244603	keystroke	s	n/a
122.437	0.0745	244874	keystroke	i	n/a
122.482	0.045	244964	keystroke	s	n/a
122.602	0.09	245204	keystroke	t	n/a
122.6615	0.0905	245323	keystroke	e	n/a
122.812	0.075	245624	keystroke	d	n/a
122.902	0.075	245804	keystroke	Key.space	n/a
123.127	0.06	246254	keystroke	o	n/a
123.2165	0.09	246433	keystroke	w	n/a
123.3515	0.09	246703	keystroke	n	n/a
123.4565	0.0895	246913	keystroke	e	n/a
123.607	0.075	247214	keystroke	d	n/a
123.757	0.12	247514	keystroke	Key.enter	n/a
123.8825	4.736	247765	prompt	n/a	inspired beats fits michigan\n
124.447	0.075	248894	keystroke	i	n/a
124.612	0.09	249224	keystroke	n	n/a
124.837	0.075	249674	keystroke	p	n/a
125.092	0.06	250184	keystroke	i	n/a
125.212	0.1345	250424	keystroke	r	n/a
125.2865	0.1055	250573	keystroke	e	n/a
125.527	0.075	251054	keystroke	d	n/a
125.707	0.06	251414	keystroke	Key.space	n/a
125.932	0.09	251864	keystroke	b	n/a
126.142	0.12	252284	keystroke	e	n/a
126.262	0.1195	252524	keystroke	a	n/a
126.367	0.0895	252734	keystroke	t	n/a
126.487	0.105	252974	keystroke	s	n/a
126.607	0.06	253214	keystroke	Key.space	n/a
126.712	0.105	253424	keystroke	f	n/a
126.892	0.045	253784	keystroke	i	n/a
126.952	0.135	253904	keystroke	t	n/a
127.102	0.09	254204	keystroke	s	n/a
127.162	0.075	254324	keystroke	Key.space	n/a
127.372	0.0595	254744	keystroke	m	n/a
127.567	0.075	255134	keystroke	i	n/a
127.627	0.09	255254	keystroke	c	n/a
127.747	0.075	255494	keystroke	h	n/a
127.942	0.0445	255884	keystroke	i	n/a
128.016	0.091	256032	keystroke	g	n/a
128.226	0.076	256452	keystroke	a	n/a
128.317	0.059	256634	keystroke	n	n/a
128.497	0.12	256994	keystroke	Key.enter	n/a
128.623	14.155	257246	prompt	n/a	minority executed obligation ranking\n
129.4565	0.12	258913	keystroke	m	n/a
129.682	0.06	259364	keystroke	i	n/a
129.847	0.075	259694	keystroke	n	n/a
130.0565	0.0605	260113	keystroke	o	n/a
130.162	0.105	260324	keystroke	r	n/a
130.267	0.06	260534	keystroke	i	n/a
130.3865	0.09	260773	keystroke	t	n/a
130.5665	0.06	261133	keystroke	y	n/a
130.6565	0.075	261313	keystroke	Key.space	n/a
130.807	0.0895	261614	keystroke	e	n/a
131.0015	0.075	262003	keystroke	x	n/a
131.1815	0.0905	262363	keystroke	e	n/a
131.287	0.09	262574	keystroke	c	n/a
131.497	0.03	262994	keystroke	u	n/a
131.602	0.0745	263204	keystroke	t	n/a
131.796	0.1055	263592	keystroke	e	n/a
131.9465	0.0905	263893	keystroke	d	n/a
132.0665	0.045	264133	keystroke	Key.space	n/a
132.3225	0.059	264645	keystroke	o	n/a
132.4115	0.075	264823	keystroke	b	n/a
132.6515	0.0755	265303	keystroke	i	n/a
132.8015	0.015	265603	keystroke	g	n/a
133.297	0.045	266594	keystroke	Key.backspace	n/a
133.761	0.1055	267522	keystroke	Key.backspace	n/a
134.1515	0.075	268303	keystroke	g	n/a
134.257	0.0895	268514	keystroke	l	n/a
135.696	0.09	271392	keystroke	Key.backspace	n/a
135.9365	0.1055	271873	keystroke	Key.backspace	n/a
137.332	0.0895	274664	keystroke	l	n/a
137.557	0.075	275114	keystroke	i	n/a
137.662	0.09	275324	keystroke	g	n/a
137.797	0.12	275594	keystroke	a	n/a
137.902	0.0745	275804	keystroke	t	n/a
137.962	0.0595	275924	keystroke	i	n/a
138.126	0.0755	276252	keystroke	o	n/a
138.367	0.09	276734	keystroke	Key.space	n/a
138.8465	0.0755	277693	keystroke	Key.backspace	n/a
139.312	0.075	278624	keystroke	n	n/a
139.5065	0.1205	279013	keystroke	r	n/a
139.597	0.105	279194	keystroke	a	n/a
139.7615	0.06	279523	keystroke	n	n/a
140.1215	0.075	280243	keystroke	Key.backspace	n/a
140.2715	0.105	280543	keystroke	Key.backspace	n/a
140.7515	0.045	281503	keystroke	Key.backspace	n/a
141.1565	0.105	282313	keystroke	Key.space	n/a
141.4115	0.135	282823	keystroke	r	n/a
141.5165	0.09	283033	keystroke	a	n/a
141.6365	0.075	283273	keystroke	n	n/a
142.1165	0.0905	284233	keystroke	k	n/a
142.297	0.075	284594	keystroke	i	n/a
142.477	0.0895	284954	keystroke	n	n/a
142.5515	0.06	285103	keystroke	g	n/a
142.672	0.104	285344	keystroke	Key.enter	n/a
142.7825	8.0655	285565	prompt	n/a	association chinese comparative marilyn\n
143.437	0.09	286874	keystroke	a	n/a
143.602	0.089	287204	keystroke	s	n/a
143.752	0.09	287504	keystroke	s	n/a
143.872	0.09	287744	keystroke	o	n/a
144.0965	0.0605	288193	keystroke	i	n/a
144.6665	0.1205	289333	keystroke	Key.backspace	n/a
145.597	0.074	291194	keystroke	c	n/a
145.777	0.059	291554	keystroke	i	n/a
145.851	0.1055	291702	keystroke	a	n/a
146.017	0.059	292034	keystroke	t	n/a
146.091	0.0455	292182	keystroke	i	n/a
146.227	0.089	292454	keystroke	o	n/a
146.331	0.061	292662	keystroke	n	n/a
146.437	0.09	292874	keystroke	Key.space	n/a
146.557	0.104	293114	keystroke	c	n/a
146.677	0.074	293354	keystroke	h	n/a
146.872	0.0595	293744	keystroke	i	n/a
147.037	0.075	294074	keystroke	n	n/a
147.127	0.0445	294254	keystroke	e	n/a
147.2615	0.0605	294523	keystroke	s	n/a
147.412	0.0595	294824	keystroke	e	n/a
147.502	0.0745	295004	keystroke	Key.space	n/a
147.6365	0.06	295273	keystroke	c	n/a
147.7415	0.075	295483	keystroke	o	n/a
147.907	0.0745	295814	keystroke	m	n/a
148.1165	0.075	296233	keystroke	p	n/a
148.2515	0.105	296503	keystroke	a	n/a
148.417	0.135	296834	keystroke	r	n/a
148.567	0.1045	297134	keystroke	a	n/a
148.656	0.076	297312	keystroke	t	n/a
148.7915	0.09	297583	keystroke	i	n/a
148.867	0.135	297734	keystroke	v	n/a
148.942	0.09	297884	keystroke	e	n/a
149.047	0.075	298094	keystroke	Key.space	n/a
149.242	0.06	298484	keystroke	m	n/a
149.317	0.1045	298634	keystroke	a	n/a
150.007	0.075	300014	keystroke	r	n/a
150.1565	0.0755	300313	keystroke	i	n/a
150.352	0.0595	300704	keystroke	l	n/a
150.457	0.06	300914	keystroke	y	n/a
150.5615	0.0755	301123	keystroke	n	n/a
150.7415	0.105	301483	keystroke	Key.enter	n/a
150.852	5.3365	301704	prompt	n/a	safe song thanksgiving tech\n
151.4915	0.06	302983	keystroke	s	n/a
151.8515	0.1345	303703	keystroke	a	n/a
151.971	0.15	303942	keystroke	f	n/a
152.077	0.1045	304154	keystroke	e	n/a
152.196	0.09	304392	keystroke	Key.space	n/a
152.4965	0.1055	304993	keystroke	s	n/a
152.6315	0.06	305263	keystroke	o	n/a
152.8265	0.075	305653	keystroke	n	n/a
152.932	0.105	305864	keystroke	g	n/a
153.052	0.09	306104	keystroke	Key.space	n/a
153.262	0.075	306524	keystroke	t	n/a
153.382	0.075	306764	keystroke	h	n/a
153.502	0.0595	307004	keystroke	a	n/a
153.5765	0.075	307153	keystroke	n	n/a
153.667	0.09	307334	keystroke	s	n/a
153.9365	0.09	307873	keystroke	g	n/a
154.162	0.0445	308324	keystroke	i	n/a
154.597	0.09	309194	keystroke	v	n/a
154.732	0.0745	309464	keystroke	i	n/a
154.9415	0.0755	309883	keystroke	n	n/a
155.031	0.0905	310062	keystroke	g	n/a
155.137	0.09	310274	keystroke	Key.space	n/a
155.4965	0.1505	310993	keystroke	t	n/a
155.632	0.09	311264	keystroke	e	n/a
155.7665	0.0905	311533	keystroke	c	n/a
155.8715	0.09	311743	keystroke	h	n/a
156.0815	0.105	312163	keystroke	Key.enter	n/a
156.1915	6.042	312383	prompt	n/a	jungle funding dentists ignore\n
157.011	0.075	314022	keystroke	j	n/a
157.1765	0.06	314353	keystroke	u	n/a
157.3265	0.09	314653	keystroke	n	n/a
157.4315	0.0755	314863	keystroke	g	n/a
157.537	0.0745	315074	keystroke	l	n/a
157.6415	0.09	315283	keystroke	e	n/a
157.747	0.09	315494	keystroke	Key.space	n/a
157.987	0.104	315974	keystroke	f	n/a
158.1065	0.0605	316213	keystroke	u	n/a
158.271	0.076	316542	keystroke	n	n/a
158.332	0.0895	316664	keystroke	d	n/a
158.4665	0.06	316933	keystroke	i	n/a
158.6315	0.075	317263	keystroke	n	n/a
158.6765	0.09	317353	keystroke	g	n/a
158.8115	0.09	317623	keystroke	Key.space	n/a
158.9765	0.165	317953	keystroke	d	n/a
159.097	0.105	318194	keystroke	e	n/a
159.2465	0.075	318493	keystroke	n	n/a
159.337	0.0745	318674	keystroke	t	n/a
159.487	0.075	318974	keystroke	i	n/a
159.5165	0.1055	319033	keystroke	s	n/a
159.682	0.105	319364	keystroke	t	n/a
159.771	0.076	319542	keystroke	s	n/a
159.876	0.075	319752	keystroke	Key.space	n/a
160.161	0.06	320322	keystroke	i	n/a
160.3415	0.0145	320683	keystroke	n	n/a
161.106	0.0755	322212	keystroke	Key.backspace	n/a
161.4365	0.0745	322873	keystroke	g	n/a
161.677	0.0745	323354	keystroke	n	n/a
161.902	0.0595	323804	keystroke	o	n/a
161.9615	0.105	323923	keystroke	r	n/a
162.0215	0.1055	324043	keystroke	e	n/a
162.112	0.1195	324224	keystroke	Key.enter	n/a
162.24	8.063	324480	prompt	n/a	phone guild lauderdale downloads\n
162.9665	0.105	325933	keystroke	p	n/a
163.4765	0.06	326953	keystroke	h	n/a
163.567	0.0745	327134	keystroke	o	n/a
163.7765	0.0755	327553	keystroke	n	n/a
163.8665	0.09	327733	keystroke	e	n/a
163.9715	0.09	327943	keystroke	Key.space	n/a
164.0615	0.0755	328123	keystroke	g	n/a
164.2115	0.075	328423	keystroke	u	n/a
164.407	0.0595	328814	keystroke	i	n/a
164.5865	0.06	329173	keystroke	l	n/a
164.6615	0.0755	329323	keystroke	d	n/a
165.201	0.075	330402	keystroke	Key.space	n/a
165.546	0.106	331092	keystroke	l	n/a
165.711	0.106	331422	keystroke	a	n/a
165.892	0.045	331784	keystroke	u	n/a
165.9815	0.1505	331963	keystroke	d	n/a
166.147	0.12	332294	keystroke	e	n/a
166.221	0.1055	332442	keystroke	r	n/a
166.491	0.1505	332982	keystroke	d	n/a
166.6265	0.09	333253	keystroke	a	n/a
166.7315	0.09	333463	keystroke	l	n/a
166.8065	0.105	333613	keystroke	e	n/a
166.9415	0.0895	333883	keystroke	Key.space	n/a
167.046	0.0905	334092	keystroke	d	n/a
167.1815	0.0605	334363	keystroke	o	n/a
167.3615	0.06	334723	keystroke	w	n/a
167.377	0.0595	334754	keystroke	n	n/a
167.9915	0.075	335983	keystroke	l	n/a
168.1565	0.105	336313	keystroke	a	n/a
168.1715	0.045	336343	keystroke	o	n/a
169.1165	0.075	338233	keystroke	Key.backspace	n/a
169.3565	0.09	338713	keystroke	Key.backspace	n/a
169.6715	0.12	339343	keystroke	o	n/a
169.8215	0.1055	339643	keystroke	a	n/a
169.9115	0.1355	339823	keystroke	d	n/a
170.017	0.105	340034	keystroke	s	n/a
170.1665	0.135	340333	keystroke	Key.enter	n/a
170.308	4.18	340616	prompt	n/a	marco flood modeling blast\n
170.946	0.076	341892	keystroke	m	n/a
171.096	0.075	342192	keystroke	a	n/a
171.142	0.089	342284	keystroke	r	n/a
171.366	0.09	342732	keystroke	c	n/a
171.486	0.1055	342972	keystroke	o	n/a
171.787	0.075	343574	keystroke	Key.space	n/a
171.937	0.09	343874	keystroke	f	n/a
172.041	0.0755	344082	keystroke	l	n/a
172.2215	0.0605	344443	keystroke	o	n/a
172.3415	0.09	344683	keystroke	o	n/a
172.4465	0.075	344893	keystroke	d	n/a
172.5815	0.06	345163	keystroke	Key.space	n/a
172.761	0.06	345522	keystroke	m	n/a
172.957	0.074	345914	keystroke	o	n/a
173.047	0.134	346094	keystroke	d	n/a
173.152	0.1045	346304	keystroke	e	n/a
173.196	0.09	346392	keystroke	l	n/a
173.406	0.0605	346812	keystroke	i	n/a
173.5865	0.06	347173	keystroke	n	n/a
173.6615	0.0605	347323	keystroke	g	n/a
173.7515	0.09	347503	keystroke	Key.space	n/a
173.9465	0.075	347893	keystroke	b	n/a
174.0815	0.105	348163	keystroke	l	n/a
174.172	0.1495	348344	keystroke	a	n/a
174.262	0.1345	348524	keystroke	s	n/a
174.4115	0.075	348823	keystroke	Key.enter	n/a
174.4925	5.9805	348985	prompt	n/a	working homeland incredible hiring\n
175.596	0.091	351192	keystroke	w	n/a
175.672	0.09	351344	keystroke	o	n/a
175.777	0.06	351554	keystroke	r	n/a
175.882	0.06	351764	keystroke	k	n/a
176.032	0.0745	352064	keystroke	i	n/a
176.107	0.105	352214	keystroke	n	n/a
176.166	0.076	352332	keystroke	g	n/a
176.271	0.076	352542	keystroke	Key.space	n/a
176.436	0.045	352872	keystroke	h	n/a
176.511	0.06	353022	keystroke	o	n/a
176.692	0.074	353384	keystroke	m	n/a
177.0215	0.075	354043	keystroke	e	n/a
177.1865	0.105	354373	keystroke	l	n/a
177.322	0.0895	354644	keystroke	a	n/a
177.4865	0.06	354973	keystroke	n	n/a
177.5765	0.0755	355153	keystroke	d	n/a
177.6815	0.06	355363	keystroke	Key.space	n/a
177.8915	0.0455	355783	keystroke	i	n/a
178.057	0.0895	356114	keystroke	n	n/a
178.1015	0.0905	356203	keystroke	c	n/a
178.2965	0.105	356593	keystroke	r	n/a
178.387	0.1045	356774	keystroke	e	n/a
178.5215	0.075	357043	keystroke	d	n/a
178.6265	0.075	357253	keystroke	i	n/a
178.7315	0.075	357463	keystroke	b	n/a
178.867	0.0745	357734	keystroke	l	n/a
178.927	0.105	357854	keystroke	e	n/a
179.076	0.075	358152	keystroke	Key.space	n/a
179.2865	0.06	358573	keystroke	h	n/a
179.481	0.046	358962	keystroke	i	n/a
179.661	0.0605	359322	keystroke	r	n/a
179.9315	0.075	359863	keystroke	i	n/a
180.1265	0.0745	360253	keystroke	n	n/a
180.216	0.0755	360432	keystroke	g	n/a
180.3665	0.105	360733	keystroke	Key.enter	n/a
180.4775	5.4705	360955	prompt	n/a	laptops resource hook guitars\n
181.2965	0.105	362593	keystroke	l	n/a
181.4465	0.0755	362893	keystroke	a	n/a
181.5665	0.09	363133	keystroke	p	n/a
181.7765	0.06	363553	keystroke	t	n/a
181.8515	0.0755	363703	keystroke	o	n/a
182.0465	0.0745	364093	keystroke	p	n/a
182.167	0.09	364334	keystroke	s	n/a
182.347	0.0745	364694	keystroke	Key.space	n/a
182.4665	0.135	364933	keystroke	r	n/a
182.5565	0.105	365113	keystroke	e	n/a
182.8115	0.06	365623	keystroke	s	n/a
182.8565	0.09	365713	keystroke	o	n/a
183.067	0.0595	366134	keystroke	u	n/a
183.1415	0.135	366283	keystroke	c	n/a
183.2315	0.105	366463	keystroke	e	n/a
183.3815	0.075	366763	keystroke	Key.space	n/a
183.9515	0.075	367903	keystroke	h	n/a
184.057	0.0745	368114	keystroke	o	n/a
184.1765	0.075	368353	keystroke	o	n/a
184.342	0.0595	368684	keystroke	k	n/a
184.507	0.089	369014	keystroke	Key.space	n/a
184.582	0.1045	369164	keystroke	g	n/a
184.7465	0.045	369493	keystroke	u	n/a
184.9115	0.0755	369823	keystroke	i	n/a
185.0015	0.06	370003	keystroke	t	n/a
185.4365	0.06	370873	keystroke	a	n/a
185.572	0.1495	371144	keystroke	r	n/a
185.7065	0.09	371413	keystroke	s	n/a
185.8265	0.1205	371653	keystroke	Key.enter	n/a
185.952	11.3815	371904	prompt	n/a	detection credit hilton placing\n
186.5615	0.1205	373123	keystroke	d	n/a
186.697	0.0745	373394	keystroke	e	n/a
187.087	0.1045	374174	keystroke	t	n/a
187.1615	0.12	374323	keystroke	e	n/a
187.402	0.06	374804	keystroke	c	n/a
187.582	0.075	375164	keystroke	t	n/a
187.687	0.075	375374	keystroke	i	n/a
187.837	0.09	375674	keystroke	o	n/a
187.912	0.075	375824	keystroke	n	n/a
188.077	0.075	376154	keystroke	Key.space	n/a
188.497	0.105	376994	keystroke	c	n/a
188.7365	0.105	377473	keystroke	r	n/a
188.8265	0.09	377653	keystroke	e	n/a
188.9765	0.09	377953	keystroke	d	n/a
189.127	0.06	378254	keystroke	i	n/a
189.217	0.0895	378434	keystroke	t	n/a
189.532	0.0745	379064	keystroke	Key.space	n/a
189.877	0.06	379754	keystroke	h	n/a
189.952	0.075	379904	keystroke	i	n/a
190.462	0.089	380924	keystroke	l	n/a
190.5965	0.09	381193	keystroke	t	n/a
190.716	0.0605	381432	keystroke	i	n/a
190.8665	0.075	381733	keystroke	o	n/a
191.4215	0.0895	382843	keystroke	Key.backspace	n/a
191.602	0.09	383204	keystroke	Key.backspace	n/a
191.901	0.076	383802	keystroke	o	n/a
192.2015	0.1045	384403	keystroke	Key.backspace	n/a
192.501	0.031	385002	keystroke	Key.backspace	n/a
193.7915	0.075	387583	keystroke	t	n/a
193.897	0.0745	387794	keystroke	o	n/a
194.121	0.0755	388242	keystroke	n	n/a
194.3165	0.06	388633	keystroke	Key.space	n/a
194.542	0.059	389084	keystroke	p	n/a
194.737	0.0895	389474	keystroke	l	n/a
194.886	0.135	389772	keystroke	a	n/a
194.9915	0.1355	389983	keystroke	c	n/a
195.081	0.075	390162	keystroke	e	n/a
195.2315	0.06	390463	keystroke	i	n/a
195.9815	0.09	391963	keystroke	Key.backspace	n/a
196.3115	0.0755	392623	keystroke	Key.backspace	n/a
196.822	0.06	393644	keystroke	i	n/a
197.0165	0.0745	394033	keystroke	n	n/a
197.092	0.0745	394184	keystroke	g	n/a
197.211	0.1205	394422	keystroke	Key.enter	n/a
197.337	7.211	394674	prompt	n/a	glow journalism liked obtaining\n
198.127	0.0595	396254	keystroke	h	n/a
198.712	0.09	397424	keystroke	Key.backspace	n/a
199.0565	0.06	398113	keystroke	g	n/a
199.207	0.074	398414	keystroke	l	n/a
199.386	0.061	398772	keystroke	o	n/a
199.476	0.09	398952	keystroke	w	n/a
199.7015	0.0595	399403	keystroke	Key.space	n/a
200.107	0.0595	400214	keystroke	j	n/a
200.332	0.0595	400664	keystroke	o	n/a
200.527	0.059	401054	keystroke	u	n/a
200.6165	0.09	401233	keystroke	r	n/a
200.751	0.06	401502	keystroke	n	n/a
200.871	0.075	401742	keystroke	a	n/a
201.3215	0.105	402643	keystroke	l	n/a
201.532	0.0745	403064	keystroke	i	n/a
201.652	0.09	403304	keystroke	s	n/a
201.787	0.06	403574	keystroke	m	n/a
201.952	0.0745	403904	keystroke	Key.space	n/a
202.177	0.09	404354	keystroke	l	n/a
202.387	0.06	404774	keystroke	i	n/a
202.522	0.09	405044	keystroke	k	n/a
202.596	0.121	405192	keystroke	e	n/a
202.731	0.091	405462	keystroke	d	n/a
202.776	0.0905	405552	keystroke	Key.space	n/a
203.047	0.089	406094	keystroke	o	n/a
203.152	0.104	406304	keystroke	b	n/a
203.587	0.089	407174	keystroke	t	n/a
203.736	0.0905	407472	keystroke	a	n/a
203.811	0.061	407622	keystroke	i	n/a
204.007	0.03	408014	keystroke	n	n/a
204.141	0.075	408282	keystroke	i	n/a
204.2465	0.12	408493	keystroke	n	n/a
204.3215	0.12	408643	keystroke	g	n/a
204.4265	0.12	408853	keystroke	Key.enter	n/a
204.553	5.0505	409106	prompt	n/a	chart holdem test cnet\n
205.1615	0.0605	410323	keystroke	c	n/a
205.2965	0.0895	410593	keystroke	h	n/a
205.402	0.105	410804	keystroke	a	n/a
205.461	0.106	410922	keystroke	r	n/a
205.672	0.09	411344	keystroke	t	n/a
205.8515	0.09	411703	keystroke	Key.space	n/a
206.152	0.045	412304	keystroke	h	n/a
206.227	0.03	412454	keystroke	o	n/a
206.3915	0.0895	412783	keystroke	l	n/a
206.496	0.105	412992	keystroke	d	n/a
206.661	0.09	413322	keystroke	e	n/a
206.7965	0.075	413593	keystroke	n	n/a
207.4265	0.105	414853	keystroke	Key.backspace	n/a
207.741	0.075	415482	keystroke	m	n/a
208.2065	0.06	416413	keystroke	Key.space	n/a
208.416	0.12	416832	keystroke	t	n/a
208.491	0.06	416982	keystroke	e	n/a
208.6565	0.09	417313	keystroke	s	n/a
208.7615	0.0755	417523	keystroke	t	n/a
208.911	0.075	417822	keystroke	Key.space	n/a
209.001	0.06	418002	keystroke	c	n/a
209.137	0.0745	418274	keystroke	n	n/a
209.256	0.135	418512	keystroke	e	n/a
209.376	0.09	418752	keystroke	t	n/a
209.496	0.105	418992	keystroke	Key.enter	n/a
209.6085	7.1195	419217	prompt	n/a	plasma penguin collar senator\n
210.397	0.03	420794	keystroke	p	n/a
210.577	0.059	421154	keystroke	l	n/a
210.757	0.164	421514	keystroke	a	n/a
210.831	0.135	421662	keystroke	s	n/a
211.2815	0.09	422563	keystroke	m	n/a
211.4315	0.09	422863	keystroke	a	n/a
212.032	0.0745	424064	keystroke	Key.space	n/a
212.437	0.0595	424874	keystroke	o	n/a
213.3215	0.105	426643	keystroke	Key.backspace	n/a
213.6365	0.0895	427273	keystroke	p	n/a
213.771	0.09	427542	keystroke	e	n/a
213.906	0.076	427812	keystroke	n	n/a
214.0265	0.105	428053	keystroke	g	n/a
214.1615	0.06	428323	keystroke	u	n/a
214.3415	0.075	428683	keystroke	i	n/a
214.611	0.061	429222	keystroke	n	n/a
214.8215	0.0905	429643	keystroke	Key.space	n/a
214.9865	0.09	429973	keystroke	c	n/a
215.1065	0.075	430213	keystroke	o	n/a
215.2865	0.075	430573	keystroke	l	n/a
215.4065	0.09	430813	keystroke	l	n/a
215.4665	0.135	430933	keystroke	a	n/a
215.5565	0.075	431113	keystroke	r	n/a
215.6465	0.0895	431293	keystroke	Key.space	n/a
215.8565	0.06	431713	keystroke	s	n/a
215.9915	0.06	431983	keystroke	e	n/a
216.0815	0.075	432163	keystroke	n	n/a
216.2015	0.1055	432403	keystroke	a	n/a
216.292	0.059	432584	keystroke	t	n/a
216.396	0.091	432792	keystroke	o	n/a
216.471	0.09	432942	keystroke	r	n/a
216.606	0.1205	433212	keystroke	Key.enter	n/a
216.732	5.3065	433464	prompt	n/a	grey macromedia injured kept\n
217.402	0.0895	434804	keystroke	g	n/a
217.6115	0.1495	435223	keystroke	r	n/a
217.731	0.1355	435462	keystroke	e	n/a
217.8965	0.09	435793	keystroke	y	n/a
218.0465	0.0745	436093	keystroke	Key.space	n/a
218.2715	0.075	436543	keystroke	m	n/a
218.602	0.134	437204	keystroke	a	n/a
218.797	0.074	437594	keystroke	c	n/a
218.992	0.0745	437984	keystroke	r	n/a
219.111	0.075	438222	keystroke	o	n/a
219.411	0.0755	438822	keystroke	m	n/a
219.5165	0.075	439033	keystroke	e	n/a
219.6515	0.0755	439303	keystroke	d	n/a
219.771	0.06	439542	keystroke	i	n/a
219.846	0.0755	439692	keystroke	a	n/a
219.9965	0.09	439993	keystroke	Key.space	n/a
220.2365	0.06	440473	keystroke	i	n/a
220.4465	0.075	440893	keystroke	n	n/a
220.6415	0.06	441283	keystroke	j	n/a
220.792	0.0745	441584	keystroke	u	n/a
220.8515	0.09	441703	keystroke	r	n/a
220.8965	0.12	441793	keystroke	e	n/a
221.046	0.076	442092	keystroke	d	n/a
221.106	0.0905	442212	keystroke	Key.space	n/a
221.3465	0.075	442693	keystroke	k	n/a
221.4365	0.105	442873	keystroke	e	n/a
221.587	0.0595	443174	keystroke	p	n/a
221.6915	0.12	443383	keystroke	t	n/a
221.9615	0.075	443923	keystroke	Key.enter	n/a
222.0435	7.659	444087	prompt	n/a	wells ships simulations islands\n
222.741	0.09	445482	keystroke	w	n/a
223.012	0.12	446024	keystroke	e	n/a
223.2215	0.075	446443	keystroke	l	n/a
223.3565	0.105	446713	keystroke	l	n/a
223.627	0.0745	447254	keystroke	Key.space	n/a
224.4215	0.105	448843	keystroke	Key.backspace	n/a
225.0665	0.1195	450133	keystroke	s	n/a
225.5315	0.0595	451063	keystroke	Key.space	n/a
225.7115	0.0595	451423	keystroke	s	n/a
225.8765	0.0745	451753	keystroke	h	n/a
225.9965	0.0445	451993	keystroke	i	n/a
226.236	0.1055	452472	keystroke	p	n/a
226.4315	0.075	452863	keystroke	s	n/a
226.5965	0.09	453193	keystroke	Key.space	n/a
227.0615	0.09	454123	keystroke	s	n/a
227.2265	0.075	454453	keystroke	i	n/a
227.4065	0.09	454813	keystroke	m	n/a
227.6465	0.06	455293	keystroke	u	n/a
227.8715	0.1045	455743	keystroke	l	n/a
227.961	0.1205	455922	keystroke	a	n/a
228.0515	0.09	456103	keystroke	t	n/a
228.1115	0.06	456223	keystroke	i	n/a
228.2765	0.09	456553	keystroke	o	n/a
228.3805	0.061	456761	keystroke	n	n/a
228.5755	0.09	457151	keystroke	s	n/a
228.7255	0.076	457451	keystroke	Key.space	n/a
228.9815	0.045	457963	keystroke	i	n/a
229.0415	0.06	458083	keystroke	s	n/a
229.1615	0.075	458323	keystroke	l	n/a
229.2375	0.088	458475	keystroke	a	n/a
229.371	0.075	458742	keystroke	n	n/a
229.447	0.0895	458894	keystroke	d	n/a
229.5065	0.0895	459013	keystroke	s	n/a
229.612	0.0895	459224	keystroke	Key.enter	n/a
229.707	7.9915	459414	prompt	n/a	weapons violence reputation threads\n
230.3465	0.119	460693	keystroke	w	n/a
230.4665	0.1355	460933	keystroke	e	n/a
230.571	0.12	461142	keystroke	a	n/a
230.8865	0.03	461773	keystroke	o	n/a
231.5315	0.105	463063	keystroke	Key.backspace	n/a
231.8615	0.09	463723	keystroke	p	n/a
232.1765	0.1045	464353	keystroke	o	n/a
232.686	0.09	465372	keystroke	n	n/a
232.8665	0.0895	465733	keystroke	s	n/a
233.091	0.09	466182	keystroke	Key.space	n/a
233.406	0.0755	466812	keystroke	v	n/a
233.7205	0.06	467441	keystroke	i	n/a
233.9015	0.06	467803	keystroke	o	n/a
234.0965	0.1045	468193	keystroke	l	n/a
234.426	0.105	468852	keystroke	e	n/a
234.591	0.09	469182	keystroke	n	n/a
234.7105	0.106	469421	keystroke	c	n/a
234.7715	0.105	469543	keystroke	e	n/a
234.8915	0.045	469783	keystroke	Key.space	n/a
235.0715	0.12	470143	keystroke	r	n/a
235.1465	0.09	470293	keystroke	e	n/a
235.2965	0.075	470593	keystroke	p	n/a
235.5365	0.06	471073	keystroke	u	n/a
235.6265	0.09	471253	keystroke	t	n/a
235.7615	0.12	471523	keystroke	a	n/a
235.8215	0.135	471643	keystroke	t	n/a
235.9415	0.045	471883	keystroke	i	n/a
236.0765	0.0895	472153	keystroke	o	n/a
236.167	0.0745	472334	keystroke	n	n/a
236.3315	0.0745	472663	keystroke	Key.space	n/a
236.4515	0.105	472903	keystroke	t	n/a
236.5865	0.075	473173	keystroke	h	n/a
236.6765	0.105	473353	keystroke	r	n/a
236.8565	0.12	473713	keystroke	e	n/a
236.9765	0.105	473953	keystroke	a	n/a
237.4115	0.1045	474823	keystroke	d	n/a
237.471	0.0905	474942	keystroke	s	n/a
237.5915	0.105	475183	keystroke	Key.enter	n/a
237.7045	3.714	475409	prompt	n/a	hear marks another dosage\n
238.416	0.075	476832	keystroke	h	n/a
238.476	0.0905	476952	keystroke	e	n/a
238.5515	0.1495	477103	keystroke	a	n/a
238.6565	0.0745	477313	keystroke	r	n/a
238.7615	0.0745	477523	keystroke	Key.space	n/a
238.956	0.075	477912	keystroke	m	n/a
239.0465	0.0895	478093	keystroke	a	n/a
239.1215	0.09	478243	keystroke	r	n/a
239.2415	0.0745	478483	keystroke	k	n/a
239.331	0.0905	478662	keystroke	s	n/a
239.466	0.0745	478932	keystroke	Key.space	n/a
239.5265	0.075	479053	keystroke	a	n/a
239.6915	0.0595	479383	keystroke	n	n/a
239.8865	0.045	479773	keystroke	o	n/a
239.9615	0.089	479923	keystroke	t	n/a
240.0805	0.0605	480161	keystroke	h	n/a
240.2015	0.135	480403	keystroke	e	n/a
240.3065	0.105	480613	keystroke	r	n/a
240.5165	0.075	481033	keystroke	Key.space	n/a
240.6515	0.09	481303	keystroke	d	n/a
240.7865	0.075	481573	keystroke	o	n/a
240.9365	0.12	481873	keystroke	s	n/a
241.0115	0.119	482023	keystroke	a	n/a
241.1615	0.135	482323	keystroke	g	n/a
241.2365	0.105	482473	keystroke	e	n/a
241.3115	0.105	482623	keystroke	Key.enter	n/a
241.423	9.04	482846	prompt	n/a	wesley ricky questionnaire nike\n
242.2265	0.134	484453	keystroke	w	n/a
242.3455	0.075	484691	keystroke	e	n/a
242.7655	0.075	485531	keystroke	s	n/a
242.9605	0.106	485921	keystroke	l	n/a
243.111	0.075	486222	keystroke	e	n/a
243.321	0.075	486642	keystroke	y	n/a
243.4705	0.091	486941	keystroke	Key.space	n/a
243.576	0.0905	487152	keystroke	r	n/a
243.7415	0.0745	487483	keystroke	i	n/a
243.7855	0.076	487571	keystroke	c	n/a
243.966	0.075	487932	keystroke	k	n/a
244.0715	0.0895	488143	keystroke	e	n/a
244.3565	0.045	488713	keystroke	Key.space	n/a
244.8215	0.0595	489643	keystroke	Key.backspace	n/a
244.8955	0.0755	489791	keystroke	y	n/a
245.541	0.09	491082	keystroke	Key.space	n/a
245.7215	0.09	491443	keystroke	q	n/a
245.8705	0.09	491741	keystroke	u	n/a
245.976	0.135	491952	keystroke	e	n/a
246.081	0.12	492162	keystroke	s	n/a
246.231	0.0755	492462	keystroke	t	n/a
246.3365	0.06	492673	keystroke	i	n/a
246.5165	0.0745	493033	keystroke	o	n/a
246.606	0.09	493212	keystroke	n	n/a
246.846	0.0605	493692	keystroke	a	n/a
247.791	0.0755	495582	keystroke	Key.backspace	n/a
248.196	0.06	496392	keystroke	n	n/a
248.6015	0.09	497203	keystroke	a	n/a
249.081	0.0755	498162	keystroke	i	n/a
249.186	0.06	498372	keystroke	r	n/a
249.3955	0.106	498791	keystroke	e	n/a
249.5455	0.0755	499091	keystroke	Key.space	n/a
249.8165	0.0595	499633	keystroke	n	n/a
249.9965	0.06	499993	keystroke	i	n/a
250.131	0.105	500262	keystroke	k	n/a
250.221	0.1055	500442	keystroke	e	n/a
250.3415	0.12	500683	keystroke	Key.enter	n/a
250.4665	8.306	500933	prompt	n/a	epson none partially composed\n
251.1365	0.0745	502273	keystroke	e	n/a
251.3015	0.09	502603	keystroke	s	n/a
251.406	0.105	502812	keystroke	p	n/a
251.6015	0.075	503203	keystroke	o	n/a
251.7965	0.075	503593	keystroke	n	n/a
251.961	0.0905	503922	keystroke	Key.space	n/a
252.1565	0.074	504313	keystroke	n	n/a
252.366	0.06	504732	keystroke	o	n/a
252.546	0.075	505092	keystroke	n	n/a
252.7415	0.06	505483	keystroke	Key.space	n/a
253.476	0.12	506952	keystroke	Key.backspace	n/a
253.956	0.0895	507912	keystroke	e	n/a
254.3455	0.09	508691	keystroke	Key.space	n/a
254.6915	0.029	509383	keystroke	p	n/a
254.7665	0.12	509533	keystroke	a	n/a
255.021	0.09	510042	keystroke	r	n/a
255.2005	0.0755	510401	keystroke	t	n/a
255.351	0.0595	510702	keystroke	i	n/a
255.4715	0.0745	510943	keystroke	a	n/a
255.5905	0.0755	511181	keystroke	l	n/a
255.7265	0.104	511453	keystroke	l	n/a
255.8455	0.09	511691	keystroke	y	n/a
256.011	0.075	512022	keystroke	Key.space	n/a
256.161	0.0605	512322	keystroke	c	n/a
256.2365	0.0595	512473	keystroke	o	n/a
256.4165	0.06	512833	keystroke	m	n/a
256.6265	0.06	513253	keystroke	p	n/a
256.7915	0.09	513583	keystroke	o	n/a
256.8815	0.12	513763	keystroke	s	n/a
257.2115	0.045	514423	keystroke	d	n/a
258.1405	0.09	516281	keystroke	Key.backspace	n/a
258.381	0.105	516762	keystroke	e	n/a
258.516	0.12	517032	keystroke	d	n/a
258.666	0.105	517332	keystroke	Key.enter	n/a
258.7775	5.9055	517555	prompt	n/a	variations liver factors want\n
259.3865	0.12	518773	keystroke	v	n/a
259.4905	0.1355	518981	keystroke	a	n/a
259.6105	0.0905	519221	keystroke	r	n/a
259.761	0.09	519522	keystroke	i	n/a
259.836	0.105	519672	keystroke	a	n/a
259.926	0.075	519852	keystroke	t	n/a
260.031	0.0755	520062	keystroke	i	n/a
260.196	0.06	520392	keystroke	o	n/a
260.257	0.0745	520514	keystroke	n	n/a
260.4965	0.0895	520993	keystroke	s	n/a
260.601	0.06	521202	keystroke	Key.space	n/a
260.8115	0.075	521623	keystroke	l	n/a
261.0065	0.12	522013	keystroke	v	n/a
261.0215	0.03	522043	keystroke	i	n/a
261.1865	0.12	522373	keystroke	e	n/a
261.7255	0.09	523451	keystroke	Key.backspace	n/a
261.8765	0.074	523753	keystroke	Key.backspace	n/a
262.026	0.1055	524052	keystroke	Key.backspace	n/a
262.237	0.0745	524474	keystroke	i	n/a
262.2965	0.105	524593	keystroke	v	n/a
262.3855	0.151	524771	keystroke	e	n/a
262.4915	0.105	524983	keystroke	r	n/a
262.6415	0.075	525283	keystroke	Key.space	n/a
262.8365	0.09	525673	keystroke	f	n/a
262.9115	0.165	525823	keystroke	a	n/a
263.0315	0.06	526063	keystroke	c	n/a
263.2265	0.045	526453	keystroke	t	n/a
263.2865	0.0895	526573	keystroke	o	n/a
263.451	0.0755	526902	keystroke	r	n/a
263.5415	0.105	527083	keystroke	s	n/a
263.9155	0.0905	527831	keystroke	Key.space	n/a
264.007	0.134	528014	keystroke	w	n/a
264.111	0.105	528222	keystroke	a	n/a
264.2765	0.075	528553	keystroke	n	n/a
264.381	0.09	528762	keystroke	t	n/a
264.561	0.12	529122	keystroke	Key.enter	n/a
264.686	6.0575	529372	prompt	n/a	subtle swim sticks flooring\n
265.4155	0.0755	530831	keystroke	u	n/a
265.506	0.075	531012	keystroke	b	n/a
266.0015	0.06	532003	keystroke	Key.backspace	n/a
266.1665	0.06	532333	keystroke	Key.backspace	n/a
266.3015	0.105	532603	keystroke	Key.backspace	n/a
266.4065	0.1045	532813	keystroke	s	n/a
266.631	0.06	533262	keystroke	u	n/a
266.7215	0.0745	533443	keystroke	b	n/a
267.0065	0.075	534013	keystroke	t	n/a
267.1265	0.09	534253	keystroke	l	n/a
267.2315	0.0895	534463	keystroke	e	n/a
267.3665	0.075	534733	keystroke	Key.space	n/a
267.471	0.1055	534942	keystroke	w	n/a
267.7865	0.06	535573	keystroke	Key.backspace	n/a
268.146	0.0605	536292	keystroke	s	n/a
268.2965	0.0745	536593	keystroke	w	n/a
268.4165	0.06	536833	keystroke	i	n/a
268.6105	0.061	537221	keystroke	m	n/a
268.761	0.0905	537522	keystroke	Key.space	n/a
268.8365	0.105	537673	keystroke	s	n/a
269.0165	0.075	538033	keystroke	t	n/a
269.121	0.061	538242	keystroke	i	n/a
269.2105	0.0755	538421	keystroke	c	n/a
269.301	0.06	538602	keystroke	k	n/a
269.406	0.105	538812	keystroke	s	n/a
269.512	0.074	539024	keystroke	Key.space	n/a
269.601	0.09	539202	keystroke	f	n/a
269.751	0.03	539502	keystroke	l	n/a
269.961	0.045	539922	keystroke	o	n/a
270.066	0.075	540132	keystroke	o	n/a
270.142	0.089	540284	keystroke	r	n/a
270.2615	0.075	540523	keystroke	i	n/a
270.4565	0.0895	540913	keystroke	n	n/a
270.547	0.0745	541094	keystroke	g	n/a
270.6365	0.105	541273	keystroke	Key.enter	n/a
270.755	6.7375	541510	prompt	n/a	dosage factor domestic debate\n
271.327	0.1045	542654	keystroke	s	n/a
271.6115	0.105	543223	keystroke	Key.backspace	n/a
271.7315	0.105	543463	keystroke	d	n/a
271.8215	0.075	543643	keystroke	o	n/a
272.766	0.12	545532	keystroke	s	n/a
272.931	0.1355	545862	keystroke	a	n/a
273.0965	0.1195	546193	keystroke	g	n/a
273.1705	0.121	546341	keystroke	e	n/a
273.3515	0.0745	546703	keystroke	Key.space	n/a
273.471	0.0905	546942	keystroke	f	n/a
273.5765	0.135	547153	keystroke	a	n/a
273.6815	0.09	547363	keystroke	c	n/a
273.8915	0.075	547783	keystroke	t	n/a
274.9565	0.075	549913	keystroke	o	n/a
275.0615	0.06	550123	keystroke	r	n/a
275.1965	0.075	550393	keystroke	Key.space	n/a
275.3465	0.075	550693	keystroke	d	n/a
275.4665	0.045	550933	keystroke	o	n/a
275.631	0.075	551262	keystroke	m	n/a
275.721	0.0605	551442	keystroke	e	n/a
275.8715	0.1195	551743	keystroke	s	n/a
276.006	0.0755	552012	keystroke	t	n/a
276.1115	0.075	552223	keystroke	i	n/a
276.2465	0.075	552493	keystroke	c	n/a
276.351	0.075	552702	keystroke	Key.space	n/a
276.5015	0.1495	553003	keystroke	d	n/a
276.636	0.1055	553272	keystroke	e	n/a
276.8305	0.091	553661	keystroke	b	n/a
277.086	0.0905	554172	keystroke	a	n/a
277.191	0.105	554382	keystroke	t	n/a
277.266	0.0905	554532	keystroke	e	n/a
277.371	0.12	554742	keystroke	Key.enter	n/a
277.497	10.211	554994	prompt	n/a	telling ethnic inline emperor\n
278.2265	0.135	556453	keystroke	t	n/a
278.3315	0.09	556663	keystroke	e	n/a
278.4365	0.075	556873	keystroke	l	n/a
278.5865	0.06	557173	keystroke	l	n/a
278.7515	0.075	557503	keystroke	i	n/a
278.8115	0.105	557623	keystroke	n	n/a
278.8865	0.06	557773	keystroke	g	n/a
278.9905	0.075	557981	keystroke	Key.space	n/a
279.0815	0.12	558163	keystroke	e	n/a
279.3215	0.105	558643	keystroke	t	n/a
279.4715	0.0895	558943	keystroke	h	n/a
279.681	0.0905	559362	keystroke	n	n/a
279.906	0.075	559812	keystroke	i	n/a
280.056	0.075	560112	keystroke	c	n/a
280.191	0.075	560382	keystroke	Key.space	n/a
280.4015	0.075	560803	keystroke	l	n/a
280.8065	0.105	561613	keystroke	Key.backspace	n/a
281.0165	0.075	562033	keystroke	i	n/a
281.2115	0.075	562423	keystroke	n	n/a
281.4515	0.06	562903	keystroke	c	n/a
281.616	0.075	563232	keystroke	l	n/a
281.826	0.0455	563652	keystroke	i	n/a
282.0065	0.09	564013	keystroke	n	n/a
282.471	0.06	564942	keystroke	Key.backspace	n/a
282.636	0.075	565272	keystroke	Key.backspace	n/a
282.771	0.1195	565542	keystroke	Key.backspace	n/a
283.0105	0.0905	566021	keystroke	Key.backspace	n/a
283.2965	0.074	566593	keystroke	l	n/a
283.4905	0.075	566981	keystroke	i	n/a
283.6865	0.0745	567373	keystroke	n	n/a
283.777	0.0895	567554	keystroke	e	n/a
283.881	0.0755	567762	keystroke	Key.space	n/a
284.046	0.06	568092	keystroke	e	n/a
284.166	0.105	568332	keystroke	p	n/a
284.6165	0.0895	569233	keystroke	e	n/a
284.9605	0.091	569921	keystroke	Key.backspace	n/a
285.1105	0.1055	570221	keystroke	Key.backspace	n/a
285.7565	0.09	571513	keystroke	m	n/a
286.116	0.0605	572232	keystroke	p	n/a
286.251	0.1355	572502	keystroke	e	n/a
286.371	0.09	572742	keystroke	r	n/a
287.016	0.0755	574032	keystroke	o	n/a
287.1065	0.075	574213	keystroke	r	n/a
287.616	0.09	575232	keystroke	Key.enter	n/a
287.7125	6.2355	575425	prompt	n/a	delegation rely panama help\n
288.381	0.165	576762	keystroke	d	n/a
288.516	0.0905	577032	keystroke	e	n/a
288.5915	0.09	577183	keystroke	l	n/a
288.7265	0.074	577453	keystroke	a	n/a
289.1615	0.0745	578323	keystroke	Key.backspace	n/a
289.7165	0.09	579433	keystroke	e	n/a
289.926	0.06	579852	keystroke	g	n/a
290.046	0.12	580092	keystroke	a	n/a
290.136	0.075	580272	keystroke	t	n/a
290.271	0.075	580542	keystroke	i	n/a
290.436	0.1055	580872	keystroke	o	n/a
290.526	0.0905	581052	keystroke	n	n/a
290.736	0.0905	581472	keystroke	Key.space	n/a
291.1115	0.1195	582223	keystroke	r	n/a
291.1865	0.09	582373	keystroke	e	n/a
291.261	0.0905	582522	keystroke	l	n/a
291.4415	0.0745	582883	keystroke	y	n/a
291.576	0.075	583152	keystroke	Key.space	n/a
292.191	0.0755	584382	keystroke	p	n/a
292.311	0.0905	584622	keystroke	a	n/a
292.461	0.075	584922	keystroke	n	n/a
292.581	0.09	585162	keystroke	a	n/a
292.7915	0.0745	585583	keystroke	m	n/a
292.9115	0.09	585823	keystroke	a	n/a
293.0315	0.075	586063	keystroke	Key.space	n/a
293.3165	0.12	586633	keystroke	h	n/a
293.4065	0.105	586813	keystroke	e	n/a
293.4815	0.075	586963	keystroke	l	n/a
293.6615	0.075	587323	keystroke	p	n/a
293.8115	0.1345	587623	keystroke	Key.enter	n/a
293.952	9.4755	587904	prompt	n/a	celebs consortium parks excess\n
294.6515	0.135	589303	keystroke	c	n/a
294.7415	0.105	589483	keystroke	e	n/a
294.8615	0.105	589723	keystroke	l	n/a
294.9815	0.12	589963	keystroke	b	n/a
295.0715	0.075	590143	keystroke	e	n/a
295.5815	0.074	591163	keystroke	Key.backspace	n/a
295.7315	0.089	591463	keystroke	Key.backspace	n/a
296.406	0.075	592812	keystroke	e	n/a
296.556	0.0905	593112	keystroke	b	n/a
297.096	0.1055	594192	keystroke	s	n/a
297.3505	0.0905	594701	keystroke	Key.space	n/a
297.501	0.0895	595002	keystroke	c	n/a
297.606	0.0605	595212	keystroke	o	n/a
297.8015	0.06	595603	keystroke	n	n/a
297.8765	0.12	595753	keystroke	s	n/a
298.0115	0.09	596023	keystroke	o	n/a
298.1165	0.09	596233	keystroke	r	n/a
298.7165	0.075	597433	keystroke	t	n/a
298.821	0.075	597642	keystroke	i	n/a
299.016	0.0595	598032	keystroke	u	n/a
299.346	0.0755	598692	keystroke	m	n/a
299.646	0.1345	599292	keystroke	Key.space	n/a
300.186	0.12	600372	keystroke	p	n/a
300.591	0.15	601182	keystroke	a	n/a
300.711	0.1055	601422	keystroke	r	n/a
300.831	0.09	601662	keystroke	k	n/a
300.9665	0.0745	601933	keystroke	s	n/a
301.071	0.0755	602142	keystroke	Key.space	n/a
301.221	0.12	602442	keystroke	e	n/a
301.791	0.1045	603582	keystroke	x	n/a
302.136	0.06	604272	keystroke	e	n/a
302.721	0.0895	605442	keystroke	Key.backspace	n/a
302.8115	0.134	605623	keystroke	c	n/a
302.8705	0.105	605741	keystroke	e	n/a
303.0505	0.0755	606101	keystroke	s	n/a
303.1855	0.09	606371	keystroke	s	n/a
303.2905	0.135	606581	keystroke	Key.enter	n/a
303.431	7.0015	606862	prompt	n/a	journalists cache traveler dust\n
304.3405	0.076	608681	keystroke	j	n/a
304.536	0.0745	609072	keystroke	o	n/a
304.716	0.075	609432	keystroke	u	n/a
304.8655	0.0905	609731	keystroke	r	n/a
305.286	0.0755	610572	keystroke	n	n/a
305.466	0.075	610932	keystroke	a	n/a
305.7965	0.015	611593	keystroke	i	n/a
306.2315	0.1045	612463	keystroke	Key.backspace	n/a
306.3955	0.105	612791	keystroke	l	n/a
306.6215	0.0595	613243	keystroke	i	n/a
306.711	0.105	613422	keystroke	s	n/a
306.831	0.1205	613662	keystroke	t	n/a
306.966	0.06	613932	keystroke	s	n/a
307.1615	0.0595	614323	keystroke	Key.space	n/a
307.476	0.135	614952	keystroke	c	n/a
307.596	0.15	615192	keystroke	a	n/a
307.731	0.09	615462	keystroke	c	n/a
307.896	0.075	615792	keystroke	h	n/a
307.9865	0.1045	615973	keystroke	e	n/a
308.121	0.1055	616242	keystroke	Key.space	n/a
308.271	0.0905	616542	keystroke	t	n/a
308.451	0.1195	616902	keystroke	r	n/a
308.5555	0.105	617111	keystroke	a	n/a
308.676	0.1205	617352	keystroke	v	n/a
308.781	0.0755	617562	keystroke	e	n/a
308.9015	0.09	617803	keystroke	l	n/a
309.006	0.075	618012	keystroke	e	n/a
309.381	0.09	618762	keystroke	r	n/a
309.5315	0.0895	619063	keystroke	Key.space	n/a
309.651	0.0755	619302	keystroke	d	n/a
309.8155	0.061	619631	keystroke	u	n/a
309.8905	0.06	619781	keystroke	s	n/a
309.9965	0.0745	619993	keystroke	t	n/a
310.326	0.105	620652	keystroke	Key.enter	n/a
310.4365	5.816	620873	prompt	n/a	axis violation column searches\n
311.0315	0.105	622063	keystroke	a	n/a
311.2565	0.1045	622513	keystroke	x	n/a
311.436	0.075	622872	keystroke	i	n/a
311.6315	0.0895	623263	keystroke	s	n/a
311.781	0.06	623562	keystroke	Key.space	n/a
312.021	0.0745	624042	keystroke	v	n/a
312.3365	0.059	624673	keystroke	i	n/a
312.5165	0.0595	625033	keystroke	o	n/a
312.666	0.09	625332	keystroke	l	n/a
312.7865	0.1045	625573	keystroke	a	n/a
312.876	0.075	625752	keystroke	t	n/a
312.966	0.06	625932	keystroke	i	n/a
313.131	0.075	626262	keystroke	o	n/a
313.236	0.0895	626472	keystroke	n	n/a
313.3855	0.075	626771	keystroke	Key.space	n/a
313.5805	0.06	627161	keystroke	c	n/a
313.6705	0.061	627341	keystroke	o	n/a
313.8355	0.0905	627671	keystroke	l	n/a
314.2105	0.045	628421	keystroke	u	n/a
314.406	0.0755	628812	keystroke	m	n/a
314.6155	0.06	629231	keystroke	n	n/a
314.8255	0.075	629651	keystroke	Key.space	n/a
315.0965	0.0895	630193	keystroke	s	n/a
315.3055	0.135	630611	keystroke	e	n/a
315.4255	0.1355	630851	keystroke	a	n/a
315.5305	0.0605	631061	keystroke	r	n/a
315.711	0.045	631422	keystroke	c	n/a
315.801	0.06	631602	keystroke	h	n/a
315.891	0.0605	631782	keystroke	e	n/a
316.026	0.0905	632052	keystroke	s	n/a
316.146	0.1045	632292	keystroke	Key.enter	n/a
316.2585	5.5445	632517	prompt	n/a	wish besides harmful upset\n
316.821	0.12	633642	keystroke	w	n/a
317.046	0.06	634092	keystroke	i	n/a
317.091	0.09	634182	keystroke	s	n/a
317.226	0.075	634452	keystroke	h	n/a
317.4065	0.0595	634813	keystroke	Key.space	n/a
317.5855	0.045	635171	keystroke	b	n/a
317.646	0.075	635292	keystroke	e	n/a
317.7955	0.09	635591	keystroke	s	n/a
317.961	0.06	635922	keystroke	i	n/a
318.051	0.135	636102	keystroke	d	n/a
318.1565	0.0895	636313	keystroke	e	n/a
318.321	0.105	636642	keystroke	s	n/a
318.396	0.1045	636792	keystroke	Key.space	n/a
318.696	0.045	637392	keystroke	h	n/a
318.756	0.1045	637512	keystroke	a	n/a
318.8155	0.105	637631	keystroke	r	n/a
318.966	0.09	637932	keystroke	m	n/a
319.701	0.075	639402	keystroke	f	n/a
319.791	0.06	639582	keystroke	u	n/a
320.016	0.03	640032	keystroke	l	n/a
320.6765	0.0745	641353	keystroke	Key.space	n/a
321.0655	0.046	642131	keystroke	u	n/a
321.276	0.06	642552	keystroke	p	n/a
321.351	0.0605	642702	keystroke	s	n/a
321.501	0.1195	643002	keystroke	e	n/a
321.6055	0.075	643211	keystroke	t	n/a
321.7105	0.09	643421	keystroke	Key.enter	n/a
321.8065	11.486	643613	prompt	n/a	pulse recommended shouldn't've reflect\n
322.4905	0.105	644981	keystroke	p	n/a
322.7315	0.044	645463	keystroke	l	n/a
323.5255	0.1055	647051	keystroke	Key.backspace	n/a
324.186	0.06	648372	keystroke	u	n/a
324.486	0.09	648972	keystroke	l	n/a
324.7405	0.09	649481	keystroke	s	n/a
324.9355	0.0605	649871	keystroke	e	n/a
325.0705	0.075	650141	keystroke	Key.space	n/a
325.1755	0.1205	650351	keystroke	r	n/a
325.2655	0.0905	650531	keystroke	e	n/a
325.401	0.075	650802	keystroke	c	n/a
325.521	0.06	651042	keystroke	o	n/a
325.686	0.06	651372	keystroke	m	n/a
325.821	0.09	651642	keystroke	m	n/a
325.926	0.09	651852	keystroke	e	n/a
326.046	0.0755	652092	keystroke	n	n/a
326.166	0.105	652332	keystroke	d	n/a
326.256	0.1355	652512	keystroke	e	n/a
326.406	0.075	652812	keystroke	d	n/a
326.481	0.0905	652962	keystroke	Key.space	n/a
326.691	0.0905	653382	keystroke	s	n/a
326.8715	0.06	653743	keystroke	h	n/a
327.2605	0.1055	654521	keystroke	o	n/a
327.4705	0.06	654941	keystroke	u	n/a
327.681	0.0605	655362	keystroke	l	n/a
328.2965	0.075	656593	keystroke	d	n/a
329.3165	0.09	658633	keystroke	n	n/a
330.126	0.1055	660252	keystroke	'	n/a
330.621	0.09	661242	keystroke	t	n/a
331.3415	0.089	662683	keystroke	'	n/a
331.5065	0.1795	663013	keystroke	v	n/a
331.6115	0.1195	663223	keystroke	e	n/a
332.2565	0.09	664513	keystroke	Key.space	n/a
332.3315	0.09	664663	keystroke	r	n/a
332.4065	0.09	664813	keystroke	e	n/a
332.5415	0.075	665083	keystroke	f	n/a
332.6465	0.09	665293	keystroke	l	n/a
332.7215	0.1195	665443	keystroke	e	n/a
332.8265	0.1045	665653	keystroke	c	n/a
333.036	0.06	666072	keystroke	t	n/a
333.1555	0.136	666311	keystroke	Key.enter	n/a
333.2965	9.971	666593	prompt	n/a	airline actual thickness crown\n
333.906	0.135	667812	keystroke	a	n/a
334.026	0.09	668052	keystroke	r	n/a
334.1615	0.0445	668323	keystroke	i	n/a
334.8805	0.09	669761	keystroke	Key.backspace	n/a
335.2705	0.075	670541	keystroke	Key.backspace	n/a
335.6465	0.044	671293	keystroke	i	n/a
335.721	0.075	671442	keystroke	r	n/a
335.9165	0.044	671833	keystroke	c	n/a
336.711	0.105	673422	keystroke	Key.backspace	n/a
337.2515	0.074	674503	keystroke	l	n/a
337.4605	0.0605	674921	keystroke	i	n/a
337.626	0.075	675252	keystroke	n	n/a
337.716	0.0905	675432	keystroke	e	n/a
337.821	0.075	675642	keystroke	Key.space	n/a
338.001	0.105	676002	keystroke	a	n/a
338.076	0.09	676152	keystroke	c	n/a
338.2865	0.0295	676573	keystroke	t	n/a
338.346	0.06	676692	keystroke	u	n/a
338.466	0.105	676932	keystroke	a	n/a
338.661	0.09	677322	keystroke	l	n/a
338.841	0.09	677682	keystroke	y	n/a
339.051	0.0455	678102	keystroke	Key.space	n/a
339.816	0.06	679632	keystroke	Key.backspace	n/a
340.176	0.075	680352	keystroke	Key.backspace	n/a
341.016	0.09	682032	keystroke	Key.space	n/a
341.271	0.09	682542	keystroke	t	n/a
341.481	0.0605	682962	keystroke	h	n/a
341.5865	0.075	683173	keystroke	i	n/a
341.6905	0.061	683381	keystroke	c	n/a
341.781	0.075	683562	keystroke	k	n/a
341.9765	0.0745	683953	keystroke	n	n/a
342.066	0.075	684132	keystroke	e	n/a
342.246	0.045	684492	keystroke	s	n/a
342.3505	0.0605	684701	keystroke	s	n/a
342.4405	0.09	684881	keystroke	Key.space	n/a
342.516	0.0745	685032	keystroke	c	n/a
342.696	0.06	685392	keystroke	r	n/a
342.7865	0.03	685573	keystroke	o	n/a
342.8465	0.12	685693	keystroke	w	n/a
342.9805	0.061	685961	keystroke	n	n/a
343.176	0.09	686352	keystroke	Key.enter	n/a
343.2705	6.792	686541	prompt	n/a	select revisions songs metallica\n
343.851	0.0895	687702	keystroke	r	n/a
344.091	0.09	688182	keystroke	Key.backspace	n/a
344.361	0.06	688722	keystroke	s	n/a
344.541	0.03	689082	keystroke	e	n/a
345.2005	0.0905	690401	keystroke	l	n/a
345.321	0.0895	690642	keystroke	e	n/a
345.4705	0.105	690941	keystroke	c	n/a
346.0565	0.044	692113	keystroke	t	n/a
346.2965	0.074	692593	keystroke	Key.space	n/a
346.4305	0.135	692861	keystroke	r	n/a
346.5505	0.0905	693101	keystroke	e	n/a
346.671	0.075	693342	keystroke	v	n/a
346.791	0.075	693582	keystroke	i	n/a
346.881	0.06	693762	keystroke	s	n/a
346.956	0.0895	693912	keystroke	i	n/a
347.091	0.0755	694182	keystroke	o	n/a
347.1365	0.105	694273	keystroke	n	n/a
347.3765	0.089	694753	keystroke	s	n/a
347.4805	0.0905	694961	keystroke	Key.space	n/a
347.706	0.0895	695412	keystroke	s	n/a
347.7815	0.059	695563	keystroke	o	n/a
347.961	0.075	695922	keystroke	n	n/a
348.021	0.105	696042	keystroke	g	n/a
348.141	0.075	696282	keystroke	s	n/a
348.171	0.075	696342	keystroke	Key.space	n/a
348.366	0.0745	696732	keystroke	m	n/a
348.396	0.105	696792	keystroke	e	n/a
348.5605	0.0905	697121	keystroke	t	n/a
349.2205	0.09	698441	keystroke	a	n/a
349.3555	0.045	698711	keystroke	l	n/a
349.4905	0.06	698981	keystroke	l	n/a
349.656	0.0745	699312	keystroke	i	n/a
349.7005	0.1355	699401	keystroke	c	n/a
349.806	0.1045	699612	keystroke	a	n/a
349.9405	0.12	699881	keystroke	Key.enter	n/a
350.066	5.0065	700132	prompt	n/a	worked gerald we crossing\n
350.841	0.105	701682	keystroke	w	n/a
350.9315	0.074	701863	keystroke	o	n/a
351.0215	0.074	702043	keystroke	r	n/a
351.1105	0.09	702221	keystroke	k	n/a
351.2005	0.1055	702401	keystroke	e	n/a
351.336	0.075	702672	keystroke	d	n/a
351.426	0.06	702852	keystroke	Key.space	n/a
351.5465	0.0895	703093	keystroke	g	n/a
351.621	0.1345	703242	keystroke	e	n/a
351.726	0.1195	703452	keystroke	r	n/a
351.8605	0.091	703721	keystroke	a	n/a
351.9665	0.09	703933	keystroke	l	n/a
352.0705	0.091	704141	keystroke	d	n/a
352.2205	0.075	704441	keystroke	Key.space	n/a
352.3105	0.15	704621	keystroke	w	n/a
352.4155	0.09	704831	keystroke	e	n/a
352.5505	0.06	705101	keystroke	Key.space	n/a
352.656	0.0595	705312	keystroke	c	n/a
352.836	0.06	705672	keystroke	r	n/a
352.941	0.06	705882	keystroke	o	n/a
353.091	0.06	706182	keystroke	o	n/a
353.3905	0.045	706781	keystroke	Key.backspace	n/a
353.9455	0.0755	707891	keystroke	s	n/a
354.471	0.12	708942	keystroke	s	n/a
354.621	0.06	709242	keystroke	i	n/a
354.786	0.075	709572	keystroke	n	n/a
354.846	0.075	709692	keystroke	g	n/a
354.9655	0.105	709931	keystroke	Key.enter	n/a
355.0765	8.6805	710153	prompt	n/a	monster analyze encouraged occasionally\n
355.701	0.06	711402	keystroke	m	n/a
355.896	0.06	711792	keystroke	o	n/a
355.956	0.105	711912	keystroke	s	n/a
356.7955	0.0905	713591	keystroke	Key.backspace	n/a
357.141	0.06	714282	keystroke	n	n/a
357.261	0.09	714522	keystroke	s	n/a
357.471	0.075	714942	keystroke	t	n/a
357.531	0.135	715062	keystroke	e	n/a
357.636	0.09	715272	keystroke	r	n/a
357.786	0.0605	715572	keystroke	Key.space	n/a
357.9365	0.074	715873	keystroke	a	n/a
358.0415	0.089	716083	keystroke	n	n/a
358.2055	0.061	716411	keystroke	a	n/a
358.4005	0.06	716801	keystroke	l	n/a
359.0005	0.076	718001	keystroke	y	n/a
359.3455	0.165	718691	keystroke	z	n/a
359.4805	0.1205	718961	keystroke	e	n/a
359.676	0.075	719352	keystroke	Key.space	n/a
359.886	0.0895	719772	keystroke	e	n/a
360.0055	0.0605	720011	keystroke	n	n/a
360.1255	0.09	720251	keystroke	c	n/a
360.2765	0.0745	720553	keystroke	o	n/a
360.486	0.06	720972	keystroke	u	n/a
360.561	0.1045	721122	keystroke	r	n/a
360.711	0.1055	721422	keystroke	a	n/a
360.8315	0.1345	721663	keystroke	g	n/a
360.906	0.105	721812	keystroke	e	n/a
361.1465	0.0595	722293	keystroke	d	n/a
361.266	0.075	722532	keystroke	Key.space	n/a
361.866	0.1045	723732	keystroke	o	n/a
362.0755	0.076	724151	keystroke	c	n/a
362.2255	0.1055	724451	keystroke	c	n/a
362.4055	0.15	724811	keystroke	a	n/a
362.5255	0.105	725051	keystroke	s	n/a
362.7805	0.06	725561	keystroke	i	n/a
362.9455	0.06	725891	keystroke	o	n/a
363.126	0.06	726252	keystroke	n	n/a
363.201	0.0905	726402	keystroke	a	n/a
363.321	0.06	726642	keystroke	l	n/a
363.426	0.105	726852	keystroke	l	n/a
363.516	0.09	727032	keystroke	y	n/a
363.621	0.135	727242	keystroke	Key.enter	n/a
363.7625	7.24	727525	prompt	n/a	freebsd assumptions coalition gnome\n
364.3705	0.1055	728741	keystroke	f	n/a
364.5955	0.135	729191	keystroke	r	n/a
364.7455	0.0755	729491	keystroke	e	n/a
364.896	0.09	729792	keystroke	e	n/a
365.136	0.1045	730272	keystroke	b	n/a
365.3005	0.135	730601	keystroke	s	n/a
365.4665	0.1195	730933	keystroke	d	n/a
365.856	0.075	731712	keystroke	Key.space	n/a
365.9605	0.09	731921	keystroke	a	n/a
366.1555	0.06	732311	keystroke	s	n/a
366.291	0.09	732582	keystroke	s	n/a
366.3955	0.0605	732791	keystroke	u	n/a
366.5605	0.09	733121	keystroke	m	n/a
366.8005	0.09	733601	keystroke	p	n/a
367.086	0.105	734172	keystroke	t	n/a
367.221	0.075	734442	keystroke	i	n/a
367.371	0.09	734742	keystroke	o	n/a
367.431	0.09	734862	keystroke	n	n/a
367.656	0.105	735312	keystroke	s	n/a
367.8355	0.0755	735671	keystroke	Key.space	n/a
368.031	0.0745	736062	keystroke	c	n/a
368.271	0.015	736542	keystroke	o	n/a
368.391	0.075	736782	keystroke	a	n/a
368.481	0.09	736962	keystroke	l	n/a
368.691	0.06	737382	keystroke	i	n/a
368.826	0.09	737652	keystroke	t	n/a
368.901	0.06	737802	keystroke	i	n/a
369.0655	0.075	738131	keystroke	o	n/a
369.1255	0.09	738251	keystroke	n	n/a
369.2905	0.0755	738581	keystroke	Key.space	n/a
369.411	0.105	738822	keystroke	g	n/a
369.576	0.06	739152	keystroke	n	n/a
369.7705	0.0755	739541	keystroke	o	n/a
369.861	0.075	739722	keystroke	s	n/a
370.446	0.075	740892	keystroke	Key.backspace	n/a
370.671	0.075	741342	keystroke	m	n/a
370.761	0.09	741522	keystroke	e	n/a
370.896	0.105	741792	keystroke	Key.enter	n/a
371.007	15.955	742014	prompt	n/a	can environmental conducting navigator\n
376.7785	0.057	753557	keystroke	c	n/a
376.821	0.1045	753642	keystroke	a	n/a
376.866	0.1045	753732	keystroke	n	n/a
377.1515	0.1045	754303	keystroke	Key.space	n/a
377.496	0.09	754992	keystroke	e	n/a
377.661	0.075	755322	keystroke	n	n/a
377.946	0.0895	755892	keystroke	v	n/a
378.141	0.0305	756282	keystroke	i	n/a
378.3515	0.089	756703	keystroke	r	n/a
378.4715	0.06	756943	keystroke	o	n/a
378.6665	0.0745	757333	keystroke	n	n/a
378.891	0.075	757782	keystroke	m	n/a
378.9965	0.1045	757993	keystroke	e	n/a
379.1155	0.06	758231	keystroke	n	n/a
379.191	0.0895	758382	keystroke	t	n/a
379.3555	0.075	758711	keystroke	a	n/a
379.4315	0.0745	758863	keystroke	l	n/a
379.5955	0.0455	759191	keystroke	Key.space	n/a
379.776	0.045	759552	keystroke	c	n/a
379.806	0.06	759612	keystroke	o	n/a
379.9855	0.075	759971	keystroke	n	n/a
380.0765	0.089	760153	keystroke	d	n/a
380.196	0.06	760392	keystroke	u	n/a
380.301	0.105	760602	keystroke	t	n/a
380.5855	0.0605	761171	keystroke	n	n/a
381.081	0.105	762162	keystroke	Key.backspace	n/a
382.221	0.135	764442	keystroke	Key.backspace	n/a
382.446	0.09	764892	keystroke	c	n/a
382.8365	0.074	765673	keystroke	t	n/a
382.9705	0.0905	765941	keystroke	i	n/a
383.226	0.0595	766452	keystroke	n	n/a
383.301	0.0595	766602	keystroke	g	n/a
383.4505	0.03	766901	keystroke	Key.space	n/a
383.9755	0.076	767951	keystroke	n	n/a
384.0655	0.121	768131	keystroke	a	n/a
384.1555	0.076	768311	keystroke	v	n/a
384.2915	0.045	768583	keystroke	i	n/a
385.356	0.09	770712	keystroke	g	n/a
385.461	0.12	770922	keystroke	a	n/a
385.551	0.0895	771102	keystroke	t	n/a
385.6555	0.105	771311	keystroke	o	n/a
385.791	0.1195	771582	keystroke	r	n/a
386.8115	0.149	773623	keystroke	Key.enter	n/a
386.966	6.8365	773932	prompt	n/a	developed mode processed victory\n
387.6365	0.1345	775273	keystroke	d	n/a
387.741	0.12	775482	keystroke	e	n/a
387.891	0.09	775782	keystroke	v	n/a
388.011	0.075	776022	keystroke	e	n/a
388.0405	0.075	776081	keystroke	l	n/a
388.686	0.0595	777372	keystroke	o	n/a
388.8665	0.0595	777733	keystroke	p	n/a
388.926	0.105	777852	keystroke	e	n/a
389.331	0.09	778662	keystroke	d	n/a
389.5105	0.06	779021	keystroke	Key.space	n/a
389.7205	0.0605	779441	keystroke	m	n/a
389.9015	0.0745	779803	keystroke	o	n/a
389.9605	0.1655	779921	keystroke	d	n/a
390.0665	0.104	780133	keystroke	e	n/a
390.1555	0.0905	780311	keystroke	Key.space	n/a
390.3805	0.091	780761	keystroke	p	n/a
390.4715	0.089	780943	keystroke	r	n/a
390.5905	0.09	781181	keystroke	o	n/a
390.771	0.15	781542	keystroke	c	n/a
390.861	0.105	781722	keystroke	e	n/a
391.0715	0.06	782143	keystroke	s	n/a
391.191	0.09	782382	keystroke	s	n/a
391.311	0.075	782622	keystroke	e	n/a
391.5805	0.06	783161	keystroke	d	n/a
392.1655	0.075	784331	keystroke	Key.space	n/a
392.3615	0.074	784723	keystroke	v	n/a
392.496	0.0595	784992	keystroke	i	n/a
392.5855	0.09	785171	keystroke	c	n/a
392.841	0.0145	785682	keystroke	t	n/a
392.916	0.075	785832	keystroke	o	n/a
393.321	0.075	786642	keystroke	r	n/a
393.531	0.09	787062	keystroke	y	n/a
393.681	0.12	787362	keystroke	Key.enter	n/a
393.806	6.4015	787612	prompt	n/a	qualified forty argue anyway\n
394.461	0.075	788922	keystroke	q	n/a
394.596	0.09	789192	keystroke	u	n/a
394.761	0.105	789522	keystroke	a	n/a
394.956	0.09	789912	keystroke	l	n/a
395.166	0.06	790332	keystroke	i	n/a
395.256	0.12	790512	keystroke	f	n/a
395.391	0.0755	790782	keystroke	i	n/a
395.526	0.1045	791052	keystroke	e	n/a
395.691	0.0895	791382	keystroke	d	n/a
395.7955	0.0755	791591	keystroke	Key.space	n/a
395.946	0.0895	791892	keystroke	f	n/a
396.096	0.0745	792192	keystroke	o	n/a
396.1555	0.091	792311	keystroke	r	n/a
396.4105	0.0605	792821	keystroke	t	n/a
396.561	0.075	793122	keystroke	y	n/a
396.696	0.09	793392	keystroke	Key.space	n/a
396.801	0.1205	793602	keystroke	a	n/a
397.101	0.0895	794202	keystroke	r	n/a
397.2955	0.0455	794591	keystroke	u	n/a
397.3255	0.0455	794651	keystroke	g	n/a
397.9855	0.075	795971	keystroke	Key.backspace	n/a
398.421	0.0895	796842	keystroke	Key.backspace	n/a
398.691	0.075	797382	keystroke	g	n/a
398.871	0.06	797742	keystroke	u	n/a
398.9765	0.0895	797953	keystroke	e	n/a
399.126	0.09	798252	keystroke	Key.space	n/a
399.246	0.1195	798492	keystroke	a	n/a
399.351	0.0595	798702	keystroke	n	n/a
399.4855	0.06	798971	keystroke	y	n/a
399.681	0.06	799362	keystroke	w	n/a
399.726	0.0605	799452	keystroke	a	n/a
399.8605	0.091	799721	keystroke	y	n/a
400.086	0.12	800172	keystroke	Key.enter	n/a
400.211	5.0215	800422	prompt	n/a	we've along partly floyd\n
400.8805	0.076	801761	keystroke	w	n/a
401.091	0.09	802182	keystroke	e	n/a
401.5705	0.0905	803141	keystroke	'	n/a
401.691	0.1355	803382	keystroke	v	n/a
401.7665	0.119	803533	keystroke	e	n/a
401.9015	0.074	803803	keystroke	Key.space	n/a
402.276	0.09	804552	keystroke	a	n/a
402.381	0.0755	804762	keystroke	l	n/a
402.5455	0.061	805091	keystroke	o	n/a
402.726	0.06	805452	keystroke	n	n/a
402.816	0.09	805632	keystroke	g	n/a
402.8905	0.09	805781	keystroke	Key.space	n/a
403.131	0.0745	806262	keystroke	p	n/a
403.221	0.1205	806442	keystroke	a	n/a
403.281	0.1045	806562	keystroke	r	n/a
403.7165	0.0745	807433	keystroke	t	n/a
403.926	0.105	807852	keystroke	l	n/a
404.0455	0.09	808091	keystroke	y	n/a
404.2405	0.075	808481	keystroke	Key.space	n/a
404.4065	0.09	808813	keystroke	f	n/a
404.5115	0.06	809023	keystroke	l	n/a
404.6465	0.09	809293	keystroke	o	n/a
404.781	0.075	809562	keystroke	y	n/a
405.006	0.06	810012	keystroke	d	n/a
405.111	0.12	810222	keystroke	Key.enter	n/a
405.2385	7.1195	810477	prompt	n/a	privilege minimum baptist directly\n
405.9055	0.0905	811811	keystroke	p	n/a
406.1465	0.06	812293	keystroke	i	n/a
406.2365	0.09	812473	keystroke	v	n/a
406.4015	0.0595	812803	keystroke	i	n/a
406.5965	0.0895	813193	keystroke	l	n/a
406.881	0.1045	813762	keystroke	e	n/a
407.0155	0.1355	814031	keystroke	g	n/a
407.1055	0.105	814211	keystroke	e	n/a
407.361	0.06	814722	keystroke	Key.space	n/a
407.676	0.0745	815352	keystroke	m	n/a
407.8855	0.046	815771	keystroke	i	n/a
408.051	0.0745	816102	keystroke	n	n/a
408.2315	0.0595	816463	keystroke	i	n/a
408.3965	0.0745	816793	keystroke	m	n/a
408.7405	0.0605	817481	keystroke	u	n/a
408.9655	0.09	817931	keystroke	m	n/a
409.1755	0.075	818351	keystroke	Key.space	n/a
409.596	0.09	819192	keystroke	b	n/a
409.716	0.1055	819432	keystroke	a	n/a
409.866	0.09	819732	keystroke	p	n/a
410.1055	0.09	820211	keystroke	t	n/a
410.3465	0.0745	820693	keystroke	i	n/a
410.436	0.0895	820872	keystroke	s	n/a
410.5555	0.0455	821111	keystroke	t	n/a
410.721	0.075	821442	keystroke	Key.space	n/a
411.2155	0.0905	822431	keystroke	d	n/a
411.411	0.045	822822	keystroke	i	n/a
411.4865	0.089	822973	keystroke	r	n/a
411.561	0.1045	823122	keystroke	e	n/a
411.7255	0.076	823451	keystroke	c	n/a
411.9055	0.0755	823811	keystroke	t	n/a
412.026	0.0895	824052	keystroke	l	n/a
412.1315	0.044	824263	keystroke	y	n/a
412.2505	0.1055	824501	keystroke	Key.enter	n/a
412.361	5.2165	824722	prompt	n/a	attacks beaches exactly answered\n
413.0155	0.075	826031	keystroke	a	n/a
413.1805	0.06	826361	keystroke	t	n/a
413.3005	0.0755	826601	keystroke	t	n/a
413.406	0.105	826812	keystroke	a	n/a
413.526	0.06	827052	keystroke	c	n/a
413.571	0.075	827142	keystroke	k	n/a
413.706	0.105	827412	keystroke	s	n/a
413.826	0.0595	827652	keystroke	Key.space	n/a
414.051	0.075	828102	keystroke	b	n/a
414.2615	0.0895	828523	keystroke	e	n/a
414.336	0.1645	828672	keystroke	a	n/a
414.4855	0.06	828971	keystroke	c	n/a
414.5605	0.076	829121	keystroke	h	n/a
414.6505	0.06	829301	keystroke	e	n/a
414.8005	0.075	829601	keystroke	s	n/a
414.8905	0.09	829781	keystroke	Key.space	n/a
415.0105	0.09	830021	keystroke	e	n/a
415.2065	0.0895	830413	keystroke	x	n/a
415.401	0.165	830802	keystroke	a	n/a
415.551	0.075	831102	keystroke	c	n/a
415.746	0.09	831492	keystroke	t	n/a
415.911	0.0895	831822	keystroke	l	n/a
416.016	0.075	832032	keystroke	y	n/a
416.1655	0.075	832331	keystroke	Key.space	n/a
416.286	0.09	832572	keystroke	a	n/a
416.391	0.09	832782	keystroke	n	n/a
416.466	0.1045	832932	keystroke	s	n/a
416.736	0.1495	833472	keystroke	w	n/a
416.8555	0.1055	833711	keystroke	e	n/a
417.051	0.1195	834102	keystroke	r	n/a
417.1415	0.119	834283	keystroke	e	n/a
417.321	0.075	834642	keystroke	d	n/a
417.486	0.0895	834972	keystroke	Key.enter	n/a
417.581	5.742	835162	prompt	n/a	click myspace printers doing\n
418.341	0.06	836682	keystroke	c	n/a
418.416	0.0745	836832	keystroke	l	n/a
418.5955	0.0605	837191	keystroke	i	n/a
418.6705	0.0455	837341	keystroke	c	n/a
418.746	0.075	837492	keystroke	k	n/a
418.911	0.0745	837822	keystroke	Key.space	n/a
419.091	0.06	838182	keystroke	m	n/a
419.1655	0.06	838331	keystroke	y	n/a
419.361	0.0605	838722	keystroke	s	n/a
419.406	0.075	838812	keystroke	p	n/a
419.5555	0.1205	839111	keystroke	a	n/a
419.7065	0.1045	839413	keystroke	c	n/a
419.7815	0.0895	839563	keystroke	e	n/a
419.9155	0.1055	839831	keystroke	Key.space	n/a
420.066	0.045	840132	keystroke	s	n/a
420.801	0.12	841602	keystroke	Key.backspace	n/a
421.2955	0.09	842591	keystroke	p	n/a
421.3865	0.074	842773	keystroke	r	n/a
421.521	0.075	843042	keystroke	i	n/a
421.701	0.075	843402	keystroke	n	n/a
421.911	0.09	843822	keystroke	t	n/a
422.0155	0.1205	844031	keystroke	e	n/a
422.121	0.1345	844242	keystroke	r	n/a
422.286	0.075	844572	keystroke	e	n/a
422.466	0.0745	844932	keystroke	s	n/a
422.556	0.0745	845112	keystroke	Key.space	n/a
422.6755	0.0755	845351	keystroke	d	n/a
422.8255	0.0305	845651	keystroke	o	n/a
422.946	0.0895	845892	keystroke	i	n/a
423.0505	0.1205	846101	keystroke	n	n/a
423.1115	0.1045	846223	keystroke	g	n/a
423.2165	0.104	846433	keystroke	Key.enter	n/a
423.3265	5.786	846653	prompt	n/a	go saves seven precision\n
423.951	0.075	847902	keystroke	g	n/a
424.041	0.06	848082	keystroke	o	n/a
424.281	0.0595	848562	keystroke	Key.space	n/a
424.371	0.135	848742	keystroke	s	n/a
424.476	0.135	848952	keystroke	a	n/a
424.596	0.1045	849192	keystroke	v	n/a
424.6555	0.0905	849311	keystroke	e	n/a
424.851	0.09	849702	keystroke	s	n/a
424.9555	0.06	849911	keystroke	Key.space	n/a
425.106	0.075	850212	keystroke	s	n/a
425.3755	0.0755	850751	keystroke	e	n/a
425.496	0.1195	850992	keystroke	v	n/a
425.601	0.0895	851202	keystroke	e	n/a
425.7355	0.075	851471	keystroke	n	n/a
425.901	0.074	851802	keystroke	Key.space	n/a
426.1405	0.0605	852281	keystroke	p	n/a
426.2155	0.06	852431	keystroke	r	n/a
426.4105	0.0605	852821	keystroke	c	n/a
426.5755	0.06	853151	keystroke	e	n/a
427.3105	0.075	854621	keystroke	Key.backspace	n/a
427.596	0.0895	855192	keystroke	Key.backspace	n/a
427.9555	0.0905	855911	keystroke	e	n/a
428.196	0.075	856392	keystroke	c	n/a
428.3765	0.0595	856753	keystroke	i	n/a
428.451	0.075	856902	keystroke	s	n/a
428.556	0.075	857112	keystroke	i	n/a
428.691	0.105	857382	keystroke	o	n/a
428.766	0.09	857532	keystroke	n	n/a
429.006	0.1045	858012	keystroke	Key.enter	n/a
429.116	7.4365	858232	prompt	n/a	citizen britain engage october\n
429.7265	0.0895	859453	keystroke	c	n/a
429.861	0.09	859722	keystroke	i	n/a
429.996	0.09	859992	keystroke	t	n/a
430.206	0.075	860412	keystroke	i	n/a
430.341	0.09	860682	keystroke	z	n/a
430.5655	0.0905	861131	keystroke	e	n/a
430.671	0.0745	861342	keystroke	n	n/a
430.8355	0.1055	861671	keystroke	Key.space	n/a
431.061	0.045	862122	keystroke	b	n/a
431.2705	0.075	862541	keystroke	r	n/a
431.4505	0.06	862901	keystroke	i	n/a
431.6605	0.0755	863321	keystroke	t	n/a
431.871	0.075	863742	keystroke	a	n/a
431.9605	0.0605	863921	keystroke	i	n/a
432.1405	0.045	864281	keystroke	n	n/a
432.276	0.09	864552	keystroke	Key.space	n/a
432.381	0.09	864762	keystroke	e	n/a
432.5005	0.0755	865001	keystroke	n	n/a
432.591	0.09	865182	keystroke	g	n/a
432.666	0.135	865332	keystroke	a	n/a
432.786	0.0895	865572	keystroke	g	n/a
432.8605	0.0605	865721	keystroke	e	n/a
432.906	0.075	865812	keystroke	Key.space	n/a
433.086	0.06	866172	keystroke	c	n/a
433.176	0.0895	866352	keystroke	o	n/a
433.326	0.0595	866652	keystroke	t	n/a
433.4755	0.06	866951	keystroke	r	n/a
433.9555	0.0755	867911	keystroke	Key.backspace	n/a
434.1965	0.0595	868393	keystroke	Key.backspace	n/a
434.376	0.06	868752	keystroke	Key.backspace	n/a
434.4955	0.09	868991	keystroke	Key.backspace	n/a
435.066	0.06	870132	keystroke	o	n/a
435.231	0.09	870462	keystroke	c	n/a
435.546	0.0745	871092	keystroke	t	n/a
435.681	0.06	871362	keystroke	o	n/a
435.801	0.1045	871602	keystroke	b	n/a
435.9065	0.134	871813	keystroke	e	n/a
436.0255	0.09	872051	keystroke	r	n/a
436.4455	0.105	872891	keystroke	Key.enter	n/a
436.5555	8.637	873111	prompt	n/a	bicycle dominican connectivity anatomy\n
437.4355	0.075	874871	keystroke	b	n/a
437.5855	0.0605	875171	keystroke	i	n/a
437.691	0.09	875382	keystroke	c	n/a
438.171	0.09	876342	keystroke	y	n/a
438.411	0.0595	876822	keystroke	c	n/a
438.4855	0.0755	876971	keystroke	l	n/a
438.591	0.1045	877182	keystroke	e	n/a
438.7105	0.06	877421	keystroke	Key.space	n/a
438.786	0.0895	877572	keystroke	d	n/a
438.9205	0.0305	877841	keystroke	o	n/a
439.071	0.0895	878142	keystroke	m	n/a
439.2655	0.0455	878531	keystroke	i	n/a
439.416	0.075	878832	keystroke	n	n/a
439.626	0.06	879252	keystroke	i	n/a
439.805	0.046	879610	keystroke	c	n/a
440.0455	0.0755	880091	keystroke	a	n/a
440.211	0.045	880422	keystroke	n	n/a
440.3605	0.09	880721	keystroke	Key.space	n/a
440.5255	0.06	881051	keystroke	c	n/a
440.601	0.075	881202	keystroke	o	n/a
440.781	0.06	881562	keystroke	n	n/a
440.901	0.075	881802	keystroke	n	n/a
440.991	0.105	881982	keystroke	e	n/a
441.0805	0.06	882161	keystroke	c	n/a
441.2305	0.0755	882461	keystroke	t	n/a
441.336	0.075	882672	keystroke	i	n/a
441.4555	0.121	882911	keystroke	v	n/a
441.6505	0.075	883301	keystroke	i	n/a
441.7715	0.074	883543	keystroke	t	n/a
441.9205	0.075	883841	keystroke	y	n/a
442.0255	0.075	884051	keystroke	Key.space	n/a
442.131	0.105	884262	keystroke	a	n/a
442.221	0.075	884442	keystroke	n	n/a
442.761	0.075	885522	keystroke	a	n/a
443.031	0.09	886062	keystroke	o	n/a
443.196	0.045	886392	keystroke	t	n/a
443.3005	0.0905	886601	keystroke	Key.backspace	n/a
443.9455	0.09	887891	keystroke	Key.backspace	n/a
444.2005	0.0605	888401	keystroke	t	n/a
444.411	0.075	888822	keystroke	o	n/a
444.8455	0.0755	889691	keystroke	m	n/a
444.9655	0.075	889931	keystroke	y	n/a
445.1155	0.0755	890231	keystroke	Key.enter	n/a
445.196	7.7065	890392	prompt	n/a	mode employment allan deluxe\n
445.8055	0.075	891611	keystroke	m	n/a
445.986	0.06	891972	keystroke	o	n/a
446.016	0.1795	892032	keystroke	d	n/a
446.1355	0.0895	892271	keystroke	e	n/a
446.2105	0.0455	892421	keystroke	Key.space	n/a
446.406	0.075	892812	keystroke	m	n/a
446.421	0.045	892842	keystroke	e	n/a
447.111	0.075	894222	keystroke	Key.backspace	n/a
447.2905	0.0905	894581	keystroke	Key.backspace	n/a
447.5465	0.089	895093	keystroke	e	n/a
447.7255	0.06	895451	keystroke	m	n/a
447.9655	0.03	895931	keystroke	p	n/a
448.1155	0.075	896231	keystroke	l	n/a
448.311	0.06	896622	keystroke	o	n/a
448.401	0.075	896802	keystroke	y	n/a
448.5505	0.105	897101	keystroke	m	n/a
448.776	0.06	897552	keystroke	n	n/a
449.4055	0.075	898811	keystroke	Key.backspace	n/a
449.916	0.0745	899832	keystroke	e	n/a
450.1405	0.06	900281	keystroke	n	n/a
450.261	0.075	900522	keystroke	t	n/a
450.381	0.075	900762	keystroke	Key.space	n/a
450.576	0.105	901152	keystroke	a	n/a
450.7255	0.0605	901451	keystroke	l	n/a
450.8455	0.06	901691	keystroke	l	n/a
450.981	0.0595	901962	keystroke	a	n/a
451.056	0.0595	902112	keystroke	n	n/a
451.2055	0.0905	902411	keystroke	Key.space	n/a
451.311	0.075	902622	keystroke	d	n/a
451.611	0.09	903222	keystroke	e	n/a
452.0455	0.0895	904091	keystroke	l	n/a
452.3005	0.0745	904601	keystroke	u	n/a
452.391	0.105	904782	keystroke	x	n/a
452.646	0.104	905292	keystroke	e	n/a
452.826	0.0745	905652	keystroke	Key.enter	n/a
452.906	6.986	905812	prompt	n/a	branches social moderators bluetooth\n
453.7255	0.12	907451	keystroke	b	n/a
453.8605	0.105	907721	keystroke	e	n/a
454.5955	0.09	909191	keystroke	Key.backspace	n/a
454.8055	0.105	909611	keystroke	r	n/a
455.0005	0.1055	910001	keystroke	a	n/a
455.1355	0.09	910271	keystroke	n	n/a
455.2405	0.12	910481	keystroke	c	n/a
455.3005	0.105	910601	keystroke	e	n/a
455.4805	0.09	910961	keystroke	s	n/a
455.5855	0.06	911171	keystroke	Key.space	n/a
455.6905	0.105	911381	keystroke	s	n/a
455.8405	0.06	911681	keystroke	o	n/a
455.93	0.121	911860	keystroke	c	n/a
456.036	0.059	912072	keystroke	i	n/a
456.1105	0.06	912221	keystroke	a	n/a
456.276	0.1045	912552	keystroke	l	n/a
456.9205	0.045	913841	keystroke	Key.space	n/a
457.0855	0.075	914171	keystroke	m	n/a
457.2955	0.075	914591	keystroke	o	n/a
457.4155	0.1055	914831	keystroke	d	n/a
457.5055	0.1205	915011	keystroke	e	n/a
457.6105	0.09	915221	keystroke	r	n/a
457.7155	0.1195	915431	keystroke	a	n/a
457.821	0.0895	915642	keystroke	t	n/a
457.9705	0.0755	915941	keystroke	o	n/a
458.031	0.105	916062	keystroke	r	n/a
458.166	0.0905	916332	keystroke	s	n/a
458.271	0.074	916542	keystroke	Key.space	n/a
458.451	0.0445	916902	keystroke	b	n/a
458.54	0.0905	917080	keystroke	l	n/a
458.751	0.06	917502	keystroke	u	n/a
458.826	0.09	917652	keystroke	e	n/a
458.961	0.09	917922	keystroke	t	n/a
459.231	0.06	918462	keystroke	o	n/a
459.351	0.0895	918702	keystroke	o	n/a
459.4705	0.09	918941	keystroke	t	n/a
459.5755	0.075	919151	keystroke	h	n/a
459.7555	0.135	919511	keystroke	Key.enter	n/a
459.8955	7.077	919791	prompt	n/a	courier jerusalem analyzes lived\n
460.5505	0.0755	921101	keystroke	c	n/a
460.6405	0.0755	921281	keystroke	o	n/a
460.8505	0.0605	921701	keystroke	u	n/a
460.9255	0.0905	921851	keystroke	r	n/a
461.1205	0.0755	922241	keystroke	i	n/a
461.256	0.105	922512	keystroke	e	n/a
461.331	0.104	922662	keystroke	r	n/a
461.4955	0.1045	922991	keystroke	Key.space	n/a
461.796	0.0895	923592	keystroke	j	n/a
461.9155	0.1195	923831	keystroke	e	n/a
462.0055	0.106	924011	keystroke	r	n/a
462.3955	0.0755	924791	keystroke	u	n/a
462.6355	0.075	925271	keystroke	s	n/a
462.8155	0.09	925631	keystroke	a	n/a
462.9205	0.09	925841	keystroke	l	n/a
463.0405	0.0905	926081	keystroke	e	n/a
463.176	0.0595	926352	keystroke	m	n/a
463.3255	0.09	926651	keystroke	Key.space	n/a
463.4755	0.075	926951	keystroke	a	n/a
463.5955	0.075	927191	keystroke	l	n/a
464.4055	0.09	928811	keystroke	Key.backspace	n/a
464.9155	0.0605	929831	keystroke	n	n/a
465.051	0.0745	930102	keystroke	a	n/a
465.186	0.075	930372	keystroke	l	n/a
465.381	0.0595	930762	keystroke	y	n/a
465.576	0.15	931152	keystroke	z	n/a
465.696	0.105	931392	keystroke	e	n/a
465.92	0.0905	931840	keystroke	s	n/a
466.0255	0.075	932051	keystroke	Key.space	n/a
466.2805	0.075	932561	keystroke	l	n/a
466.476	0.0745	932952	keystroke	i	n/a
466.521	0.1195	933042	keystroke	v	n/a
466.6255	0.1055	933251	keystroke	e	n/a
466.7455	0.09	933491	keystroke	d	n/a
466.8505	0.12	933701	keystroke	Key.enter	n/a
466.976	7.5715	933952	prompt	n/a	mediawiki semi counsel selections\n
467.706	0.075	935412	keystroke	m	n/a
467.8265	0.089	935653	keystroke	e	n/a
467.991	0.09	935982	keystroke	d	n/a
468.186	0.06	936372	keystroke	i	n/a
468.306	0.06	936612	keystroke	a	n/a
469.401	0.09	938802	keystroke	w	n/a
469.506	0.09	939012	keystroke	i	n/a
469.701	0.0745	939402	keystroke	k	n/a
469.836	0.0605	939672	keystroke	i	n/a
469.971	0.075	939942	keystroke	Key.space	n/a
470.136	0.06	940272	keystroke	s	n/a
470.301	0.045	940602	keystroke	e	n/a
470.3765	0.0745	940753	keystroke	m	n/a
470.586	0.0605	941172	keystroke	i	n/a
470.7805	0.0755	941561	keystroke	Key.space	n/a
470.886	0.075	941772	keystroke	c	n/a
471.021	0.06	942042	keystroke	o	n/a
471.5605	0.075	943121	keystroke	u	n/a
471.7555	0.075	943511	keystroke	n	n/a
471.876	0.06	943752	keystroke	s	n/a
472.041	0.0595	944082	keystroke	e	n/a
472.1155	0.0755	944231	keystroke	l	n/a
472.311	0.075	944622	keystroke	Key.space	n/a
472.446	0.09	944892	keystroke	s	n/a
472.611	0.09	945222	keystroke	e	n/a
472.685	0.106	945370	keystroke	l	n/a
473.1955	0.0905	946391	keystroke	e	n/a
473.346	0.075	946692	keystroke	c	n/a
473.541	0.045	947082	keystroke	t	n/a
473.601	0.075	947202	keystroke	i	n/a
474.021	0.075	948042	keystroke	o	n/a
474.096	0.075	948192	keystroke	n	n/a
474.306	0.105	948612	keystroke	s	n/a
474.426	0.12	948852	keystroke	Key.enter	n/a
474.554	8.7835	949108	prompt	n/a	newer modifications pants latinas\n
475.2205	0.0755	950441	keystroke	n	n/a
475.3415	0.089	950683	keystroke	e	n/a
475.3865	0.104	950773	keystroke	w	n/a
475.611	0.06	951222	keystroke	e	n/a
475.79	0.031	951580	keystroke	e	n/a
476.6605	0.0905	953321	keystroke	Key.backspace	n/a
477.5155	0.0755	955031	keystroke	r	n/a
477.831	0.075	955662	keystroke	Key.space	n/a
478.1005	0.0755	956201	keystroke	m	n/a
478.2955	0.075	956591	keystroke	o	n/a
478.3555	0.0605	956711	keystroke	d	n/a
478.4755	0.0755	956951	keystroke	i	n/a
478.581	0.06	957162	keystroke	c	n/a
479.2555	0.105	958511	keystroke	Key.backspace	n/a
479.496	0.0745	958992	keystroke	f	n/a
479.676	0.0745	959352	keystroke	i	n/a
479.8705	0.1355	959741	keystroke	c	n/a
479.991	0.1195	959982	keystroke	a	n/a
480.216	0.075	960432	keystroke	t	n/a
480.306	0.06	960612	keystroke	i	n/a
480.4555	0.0755	960911	keystroke	o	n/a
480.501	0.0755	961002	keystroke	n	n/a
480.696	0.0895	961392	keystroke	s	n/a
480.7555	0.0755	961511	keystroke	Key.space	n/a
480.9655	0.06	961931	keystroke	p	n/a
481.0715	0.0895	962143	keystroke	a	n/a
481.176	0.0745	962352	keystroke	n	n/a
481.2655	0.0745	962531	keystroke	t	n/a
481.836	0.104	963672	keystroke	s	n/a
481.971	0.074	963942	keystroke	Key.space	n/a
482.2405	0.0895	964481	keystroke	l	n/a
482.391	0.104	964782	keystroke	a	n/a
482.5705	0.0745	965141	keystroke	t	n/a
482.721	0.0595	965442	keystroke	i	n/a
482.8705	0.0895	965741	keystroke	n	n/a
482.975	0.1655	965950	keystroke	a	n/a
483.111	0.1195	966222	keystroke	s	n/a
483.2155	0.12	966431	keystroke	Key.enter	n/a
483.3415	4.211	966683	prompt	n/a	boring belts williams word\n
483.936	0.075	967872	keystroke	b	n/a
484.071	0.09	968142	keystroke	o	n/a
484.1305	0.0905	968261	keystroke	r	n/a
484.251	0.06	968502	keystroke	i	n/a
484.416	0.075	968832	keystroke	n	n/a
484.5055	0.09	969011	keystroke	g	n/a
484.581	0.089	969162	keystroke	Key.space	n/a
484.716	0.1195	969432	keystroke	b	n/a
484.851	0.12	969702	keystroke	e	n/a
485.016	0.075	970032	keystroke	l	n/a
485.211	0.1205	970422	keystroke	t	n/a
485.3455	0.105	970691	keystroke	s	n/a
485.511	0.075	971022	keystroke	Key.space	n/a
485.931	0.1045	971862	keystroke	w	n/a
486.0205	0.06	972041	keystroke	i	n/a
486.186	0.075	972372	keystroke	l	n/a
486.321	0.075	972642	keystroke	l	n/a
486.516	0.06	973032	keystroke	i	n/a
486.621	0.09	973242	keystroke	a	n/a
486.756	0.045	973512	keystroke	m	n/a
486.816	0.0895	973632	keystroke	s	n/a
486.906	0.0895	973812	keystroke	Key.space	n/a
487.0255	0.12	974051	keystroke	w	n/a
487.1615	0.0445	974323	keystroke	o	n/a
487.221	0.06	974442	keystroke	r	n/a
487.3705	0.0605	974741	keystroke	d	n/a
487.4455	0.105	974891	keystroke	Key.enter	n/a
487.5555	4.392	975111	prompt	n/a	instruction tend rank yoga\n
488.1055	0.045	976211	keystroke	i	n/a
488.2555	0.0755	976511	keystroke	n	n/a
488.3005	0.1045	976601	keystroke	s	n/a
488.435	0.0605	976870	keystroke	t	n/a
488.556	0.09	977112	keystroke	r	n/a
488.6755	0.075	977351	keystroke	u	n/a
488.7655	0.075	977531	keystroke	c	n/a
488.946	0.0595	977892	keystroke	t	n/a
489.021	0.0745	978042	keystroke	i	n/a
489.1705	0.075	978341	keystroke	o	n/a
489.2305	0.0905	978461	keystroke	n	n/a
489.3955	0.075	978791	keystroke	Key.space	n/a
489.5155	0.15	979031	keystroke	t	n/a
489.6505	0.105	979301	keystroke	e	n/a
489.7715	0.074	979543	keystroke	n	n/a
489.876	0.075	979752	keystroke	d	n/a
489.966	0.0745	979932	keystroke	Key.space	n/a
490.071	0.09	980142	keystroke	r	n/a
490.175	0.076	980350	keystroke	a	n/a
490.266	0.0595	980532	keystroke	n	n/a
490.4455	0.0455	980891	keystroke	k	n/a
490.611	0.0445	981222	keystroke	Key.space	n/a
490.7455	0.03	981491	keystroke	y	n/a
490.8515	0.044	981703	keystroke	o	n/a
491.5855	0.12	983171	keystroke	g	n/a
491.7205	0.12	983441	keystroke	a	n/a
491.8855	0.06	983771	keystroke	Key.enter	n/a
491.951	4.946	983902	prompt	n/a	stress redeem randy defensive\n
492.4855	0.0905	984971	keystroke	s	n/a
492.6205	0.0755	985241	keystroke	t	n/a
492.786	0.12	985572	keystroke	r	n/a
492.876	0.074	985752	keystroke	e	n/a
493.281	0.075	986562	keystroke	s	n/a
493.43	0.105	986860	keystroke	s	n/a
493.58	0.091	987160	keystroke	Key.space	n/a
493.7605	0.1355	987521	keystroke	r	n/a
493.881	0.105	987762	keystroke	e	n/a
494.091	0.075	988182	keystroke	d	n/a
494.2705	0.09	988541	keystroke	e	n/a
494.4205	0.09	988841	keystroke	e	n/a
494.601	0.0745	989202	keystroke	m	n/a
494.796	0.075	989592	keystroke	Key.space	n/a
494.9155	0.1345	989831	keystroke	r	n/a
495.035	0.1055	990070	keystroke	a	n/a
495.126	0.0745	990252	keystroke	n	n/a
495.2455	0.09	990491	keystroke	d	n/a
495.4705	0.075	990941	keystroke	y	n/a
495.6055	0.09	991211	keystroke	Key.space	n/a
495.8905	0.135	991781	keystroke	d	n/a
496.0105	0.1205	992021	keystroke	e	n/a
496.116	0.135	992232	keystroke	f	n/a
496.22	0.091	992440	keystroke	e	n/a
496.341	0.075	992682	keystroke	n	n/a
496.43	0.091	992860	keystroke	s	n/a
496.581	0.06	993162	keystroke	i	n/a
496.626	0.135	993252	keystroke	v	n/a
496.716	0.105	993432	keystroke	e	n/a
496.791	0.104	993582	keystroke	Key.enter	n/a
496.901	15.0115	993802	prompt	n/a	shepherd household represent promotion\n
505.3275	0.028	1010655	keystroke	s	n/a
505.416	0.075	1010832	keystroke	h	n/a
505.551	0.09	1011102	keystroke	e	n/a
506.3305	0.0905	1012661	keystroke	p	n/a
506.976	0.075	1013952	keystroke	h	n/a
507.096	0.12	1014192	keystroke	e	n/a
507.201	0.09	1014402	keystroke	r	n/a
507.5015	0.09	1015003	keystroke	d	n/a
507.7415	0.075	1015483	keystroke	Key.space	n/a
508.056	0.0755	1016112	keystroke	h	n/a
508.1465	0.06	1016293	keystroke	o	n/a
508.3265	0.06	1016653	keystroke	u	n/a
508.4015	0.06	1016803	keystroke	s	n/a
508.5655	0.061	1017131	keystroke	e	n/a
508.791	0.0745	1017582	keystroke	h	n/a
508.8805	0.061	1017761	keystroke	o	n/a
509.0305	0.0755	1018061	keystroke	l	n/a
509.091	0.09	1018182	keystroke	d	n/a
509.226	0.0905	1018452	keystroke	Key.space	n/a
509.331	0.135	1018662	keystroke	r	n/a
509.4365	0.0895	1018873	keystroke	e	n/a
509.556	0.075	1019112	keystroke	p	n/a
509.736	0.1345	1019472	keystroke	r	n/a
509.8265	0.089	1019653	keystroke	e	n/a
509.9905	0.09	1019981	keystroke	s	n/a
510.1555	0.0905	1020311	keystroke	e	n/a
510.261	0.075	1020522	keystroke	n	n/a
510.3505	0.0755	1020701	keystroke	t	n/a
510.4405	0.0905	1020881	keystroke	Key.space	n/a
510.6815	0.075	1021363	keystroke	p	n/a
510.7565	0.075	1021513	keystroke	r	n/a
510.861	0.0605	1021722	keystroke	o	n/a
511.0255	0.076	1022051	keystroke	m	n/a
511.221	0.0595	1022442	keystroke	o	n/a
511.296	0.0895	1022592	keystroke	t	n/a
511.4165	0.0595	1022833	keystroke	i	n/a
511.566	0.0745	1023132	keystroke	o	n/a
511.6255	0.09	1023251	keystroke	n	n/a
511.776	0.1345	1023552	keystroke	Key.enter	n/a
511.9155	7.2275	1023831	prompt	n/a	euro shop advertisement involving\n
512.8405	0.061	1025681	keystroke	e	n/a
512.946	0.09	1025892	keystroke	u	n/a
513.111	0.09	1026222	keystroke	r	n/a
513.231	0.06	1026462	keystroke	o	n/a
513.351	0.105	1026702	keystroke	Key.space	n/a
513.621	0.06	1027242	keystroke	s	n/a
513.786	0.09	1027572	keystroke	h	n/a
513.861	0.06	1027722	keystroke	o	n/a
514.0415	0.075	1028083	keystroke	p	n/a
514.2655	0.0755	1028531	keystroke	Key.space	n/a
514.446	0.105	1028892	keystroke	a	n/a
514.596	0.0745	1029192	keystroke	d	n/a
514.806	0.0755	1029612	keystroke	v	n/a
515.0465	0.105	1030093	keystroke	e	n/a
515.136	0.075	1030272	keystroke	r	n/a
515.3315	0.06	1030663	keystroke	t	n/a
515.5105	0.0605	1031021	keystroke	i	n/a
515.556	0.06	1031112	keystroke	s	n/a
515.721	0.075	1031442	keystroke	e	n/a
515.781	0.06	1031562	keystroke	m	n/a
515.961	0.0755	1031922	keystroke	n	n/a
516.771	0.0895	1033542	keystroke	Key.backspace	n/a
517.236	0.105	1034472	keystroke	e	n/a
517.401	0.06	1034802	keystroke	n	n/a
517.491	0.09	1034982	keystroke	t	n/a
517.641	0.09	1035282	keystroke	Key.space	n/a
517.956	0.0605	1035912	keystroke	i	n/a
518.121	0.075	1036242	keystroke	n	n/a
518.211	0.075	1036422	keystroke	v	n/a
518.331	0.045	1036662	keystroke	o	n/a
518.481	0.105	1036962	keystroke	l	n/a
518.571	0.075	1037142	keystroke	v	n/a
518.706	0.06	1037412	keystroke	i	n/a
518.841	0.09	1037682	keystroke	n	n/a
518.9455	0.075	1037891	keystroke	g	n/a
519.0365	0.1045	1038073	keystroke	Key.enter	n/a
519.1465	12.596	1038293	prompt	n/a	fathers appliance reads proprietary\n
519.6505	0.12	1039301	keystroke	f	n/a
519.7555	0.1355	1039511	keystroke	a	n/a
519.861	0.105	1039722	keystroke	t	n/a
519.9805	0.061	1039961	keystroke	h	n/a
520.0115	0.1045	1040023	keystroke	e	n/a
520.101	0.09	1040202	keystroke	r	n/a
520.236	0.0905	1040472	keystroke	s	n/a
520.4765	0.06	1040953	keystroke	Key.space	n/a
520.7615	0.06	1041523	keystroke	a	n/a
520.8515	0.0895	1041703	keystroke	p	n/a
520.986	0.0595	1041972	keystroke	p	n/a
521.1505	0.075	1042301	keystroke	l	n/a
521.3305	0.06	1042661	keystroke	i	n/a
521.676	0.09	1043352	keystroke	a	n/a
521.796	0.0755	1043592	keystroke	n	n/a
521.9015	0.12	1043803	keystroke	c	n/a
521.9615	0.12	1043923	keystroke	e	n/a
522.0665	0.0595	1044133	keystroke	Key.space	n/a
522.2315	0.1195	1044463	keystroke	r	n/a
522.306	0.12	1044612	keystroke	e	n/a
522.486	0.1205	1044972	keystroke	a	n/a
522.561	0.135	1045122	keystroke	d	n/a
522.756	0.105	1045512	keystroke	s	n/a
522.966	0.075	1045932	keystroke	Key.space	n/a
523.236	0.06	1046472	keystroke	p	n/a
523.326	0.09	1046652	keystroke	r	n/a
523.431	0.09	1046862	keystroke	o	n/a
523.791	0.075	1047582	keystroke	t	n/a
524.466	0.105	1048932	keystroke	Key.backspace	n/a
525.291	0.0895	1050582	keystroke	p	n/a
525.5465	0.075	1051093	keystroke	r	n/a
525.7855	0.061	1051571	keystroke	i	n/a
525.9215	0.1195	1051843	keystroke	e	n/a
526.161	0.09	1052322	keystroke	t	n/a
526.356	0.06	1052712	keystroke	y	n/a
526.521	0.12	1053042	keystroke	a	n/a
526.626	0.0755	1053252	keystroke	r	n/a
526.806	0.075	1053612	keystroke	y	n/a
528.0815	0.09	1056163	keystroke	Key.backspace	n/a
528.2765	0.089	1056553	keystroke	Key.backspace	n/a
528.471	0.09	1056942	keystroke	Key.backspace	n/a
528.8465	0.0745	1057693	keystroke	Key.backspace	n/a
529.476	0.15	1058952	keystroke	a	n/a
529.686	0.1045	1059372	keystroke	r	n/a
529.9555	0.0755	1059911	keystroke	y	n/a
530.301	0.06	1060602	keystroke	\	n/a
531.186	0.06	1062372	keystroke	Key.backspace	n/a
531.6665	0.075	1063333	keystroke	Key.enter	n/a
531.7465	9.3865	1063493	prompt	n/a	angle newsletter telephony dale\n
532.7015	0.045	1065403	keystroke	a	n/a
533.346	0.0755	1066692	keystroke	n	n/a
533.466	0.1195	1066932	keystroke	g	n/a
533.6465	0.089	1067293	keystroke	l	n/a
533.7665	0.074	1067533	keystroke	e	n/a
533.8705	0.09	1067741	keystroke	Key.space	n/a
534.0965	0.0745	1068193	keystroke	n	n/a
534.1865	0.1195	1068373	keystroke	e	n/a
534.2465	0.1045	1068493	keystroke	w	n/a
534.4565	0.0895	1068913	keystroke	s	n/a
534.651	0.09	1069302	keystroke	l	n/a
534.756	0.09	1069512	keystroke	e	n/a
534.9055	0.06	1069811	keystroke	t	n/a
535.0255	0.09	1070051	keystroke	t	n/a
535.131	0.1205	1070262	keystroke	e	n/a
535.2055	0.09	1070411	keystroke	r	n/a
535.3105	0.09	1070621	keystroke	Key.space	n/a
535.446	0.1345	1070892	keystroke	t	n/a
535.5655	0.1055	1071131	keystroke	e	n/a
535.7155	0.09	1071431	keystroke	l	n/a
536.331	0.0895	1072662	keystroke	e	n/a
536.6455	0.075	1073291	keystroke	p	n/a
536.856	0.09	1073712	keystroke	h	n/a
537.021	0.075	1074042	keystroke	o	n/a
537.2765	0.0745	1074553	keystroke	n	n/a
537.5765	0.0745	1075153	keystroke	Key.space	n/a
538.6405	0.0455	1077281	keystroke	Key.backspace	n/a
538.8955	0.076	1077791	keystroke	y	n/a
539.2415	0.0895	1078483	keystroke	d	n/a
539.7655	0.075	1079531	keystroke	Key.backspace	n/a
539.976	0.09	1079952	keystroke	Key.space	n/a
540.471	0.06	1080942	keystroke	d	n/a
540.6805	0.091	1081361	keystroke	a	n/a
540.816	0.0895	1081632	keystroke	l	n/a
540.8905	0.105	1081781	keystroke	e	n/a
541.0105	0.12	1082021	keystroke	Key.enter	n/a
541.1375	6.4	1082275	prompt	n/a	delete science clubs cuts\n
541.776	0.1645	1083552	keystroke	d	n/a
541.9265	0.1045	1083853	keystroke	e	n/a
542.1805	0.0905	1084361	keystroke	l	n/a
542.301	0.1205	1084602	keystroke	e	n/a
542.5565	0.135	1085113	keystroke	t	n/a
542.6615	0.1195	1085323	keystroke	e	n/a
542.886	0.06	1085772	keystroke	Key.space	n/a
543.0965	0.059	1086193	keystroke	s	n/a
543.3055	0.0905	1086611	keystroke	c	n/a
543.4565	0.06	1086913	keystroke	i	n/a
543.531	0.105	1087062	keystroke	e	n/a
543.681	0.09	1087362	keystroke	n	n/a
543.7565	0.135	1087513	keystroke	c	n/a
543.831	0.1345	1087662	keystroke	e	n/a
543.951	0.0745	1087902	keystroke	Key.space	n/a
544.1605	0.0455	1088321	keystroke	d	n/a
544.7455	0.1055	1089491	keystroke	Key.backspace	n/a
544.9265	0.0895	1089853	keystroke	c	n/a
545.046	0.0905	1090092	keystroke	l	n/a
545.286	0.06	1090572	keystroke	u	n/a
545.3605	0.091	1090721	keystroke	b	n/a
545.5115	0.105	1091023	keystroke	s	n/a
545.631	0.09	1091262	keystroke	Key.space	n/a
545.796	0.09	1091592	keystroke	c	n/a
545.9765	0.0595	1091953	keystroke	u	n/a
546.096	0.12	1092192	keystroke	t	n/a
546.261	0.045	1092522	keystroke	e	n/a
547.0105	0.1055	1094021	keystroke	Key.backspace	n/a
547.236	0.0905	1094472	keystroke	s	n/a
547.4605	0.075	1094921	keystroke	Key.enter	n/a
547.542	8.425	1095084	prompt	n/a	mario keyboard commons example\n
548.3755	0.075	1096751	keystroke	m	n/a
548.4665	0.12	1096933	keystroke	a	n/a
548.5415	0.09	1097083	keystroke	r	n/a
548.6465	0.06	1097293	keystroke	i	n/a
548.8115	0.06	1097623	keystroke	o	n/a
548.9315	0.09	1097863	keystroke	Key.space	n/a
549.3665	0.06	1098733	keystroke	k	n/a
549.471	0.1195	1098942	keystroke	e	n/a
549.7255	0.091	1099451	keystroke	y	n/a
549.9515	0.0895	1099903	keystroke	w	n/a
550.206	0.105	1100412	keystroke	Key.backspace	n/a
550.3255	0.09	1100651	keystroke	b	n/a
550.5355	0.075	1101071	keystroke	a	n/a
551.331	0.135	1102662	keystroke	Key.backspace	n/a
551.556	0.105	1103112	keystroke	a	n/a
551.961	0.0905	1103922	keystroke	Key.backspace	n/a
552.3065	0.105	1104613	keystroke	o	n/a
552.5315	0.104	1105063	keystroke	a	n/a
552.6665	0.09	1105333	keystroke	r	n/a
