onset	duration	sample	value	key	prompt_text
12.2205	9.2245	24441	prompt	n/a	the quick brown fox jumps over a lazy dog\n
13.9885	0.0285	27977	keystroke_t	t	n/a
14.002	0.09	28004	keystroke_h	h	n/a
14.137	0.105	28274	keystroke_e	e	n/a
14.257	0.09	28514	keystroke_Key.space	Key.space	n/a
14.572	0.09	29144	keystroke_q	q	n/a
14.782	0.0745	29564	keystroke_u	u	n/a
14.9765	0.105	29953	keystroke_i	i	n/a
15.1565	0.075	30313	keystroke_c	c	n/a
15.262	0.075	30524	keystroke_k	k	n/a
15.487	0.0445	30974	keystroke_Key.space	Key.space	n/a
15.637	0.0895	31274	keystroke_b	b	n/a
15.892	0.09	31784	keystroke_r	r	n/a
16.2965	0.0605	32593	keystroke_o	o	n/a
16.4165	0.075	32833	keystroke_w	w	n/a
16.522	0.0745	33044	keystroke_n	n	n/a
16.6865	0.0755	33373	keystroke_Key.space	Key.space	n/a
17.002	0.0445	34004	keystroke_f	f	n/a
17.182	0.0745	34364	keystroke_o	o	n/a
17.3465	0.105	34693	keystroke_x	x	n/a
17.467	0.075	34934	keystroke_Key.space	Key.space	n/a
17.6765	0.0755	35353	keystroke_j	j	n/a
17.857	0.06	35714	keystroke_u	u	n/a
18.052	0.075	36104	keystroke_m	m	n/a
18.277	0.06	36554	keystroke_p	p	n/a
18.382	0.09	36764	keystroke_s	s	n/a
18.502	0.09	37004	keystroke_Key.space	Key.space	n/a
18.9075	0.0895	37815	keystroke_o	o	n/a
19.027	0.1345	38054	keystroke_v	v	n/a
19.177	0.1345	38354	keystroke_e	e	n/a
19.2815	0.091	38563	keystroke_r	r	n/a
19.402	0.06	38804	keystroke_Key.space	Key.space	n/a
19.507	0.075	39014	keystroke_a	a	n/a
19.597	0.075	39194	keystroke_Key.space	Key.space	n/a
19.807	0.0745	39614	keystroke_l	l	n/a
19.8665	0.06	39733	keystroke_a	a	n/a
20.062	0.075	40124	keystroke_z	z	n/a
20.197	0.09	40394	keystroke_y	y	n/a
20.332	0.075	40664	keystroke_Key.space	Key.space	n/a
20.4825	0.0745	40965	keystroke_d	d	n/a
20.617	0.06	41234	keystroke_o	o	n/a
20.722	0.075	41444	keystroke_g	g	n/a
21.3375	0.1045	42675	keystroke_Key.enter	Key.enter	n/a
21.4515	7.162	42903	prompt	n/a	speeds library copy mothers\n
22.432	0.075	44864	keystroke_s	s	n/a
22.627	0.045	45254	keystroke_p	p	n/a
23.5875	0.074	47175	keystroke_e	e	n/a
23.7515	0.075	47503	keystroke_e	e	n/a
23.947	0.105	47894	keystroke_d	d	n/a
24.007	0.105	48014	keystroke_s	s	n/a
24.157	0.075	48314	keystroke_Key.space	Key.space	n/a
24.997	0.075	49994	keystroke_l	l	n/a
25.177	0.0605	50354	keystroke_i	i	n/a
25.2675	0.105	50535	keystroke_b	b	n/a
25.5075	0.12	51015	keystroke_r	r	n/a
25.6115	0.15	51223	keystroke_a	a	n/a
25.8215	0.09	51643	keystroke_r	r	n/a
26.062	0.03	52124	keystroke_y	y	n/a
26.197	0.09	52394	keystroke_Key.space	Key.space	n/a
26.647	0.045	53294	keystroke_c	c	n/a
26.752	0.105	53504	keystroke_o	o	n/a
26.992	0.075	53984	keystroke_p	p	n/a
27.127	0.0905	54254	keystroke_y	y	n/a
27.292	0.075	54584	keystroke_Key.space	Key.space	n/a
27.457	0.06	54914	keystroke_m	m	n/a
27.6665	0.06	55333	keystroke_o	o	n/a
27.7115	0.09	55423	keystroke_t	t	n/a
27.877	0.06	55754	keystroke_h	h	n/a
28.012	0.105	56024	keystroke_e	e	n/a
28.057	0.12	56114	keystroke_r	r	n/a
28.222	0.0905	56444	keystroke_s	s	n/a
28.507	0.105	57014	keystroke_Key.enter	Key.enter	n/a
28.6195	14.1095	57239	prompt	n/a	passwords guidance mime billing\n
29.662	0.0905	59324	keystroke_a	a	n/a
30.0665	0.1055	60133	keystroke_Key.backspace	Key.backspace	n/a
30.9075	0.0895	61815	keystroke_p	p	n/a
31.042	0.195	62084	keystroke_a	a	n/a
31.192	0.075	62384	keystroke_s	s	n/a
31.3575	0.06	62715	keystroke_s	s	n/a
31.5665	0.0905	63133	keystroke_w	w	n/a
31.687	0.105	63374	keystroke_o	o	n/a
31.7775	0.0595	63555	keystroke_r	r	n/a
31.957	0.1195	63914	keystroke_d	d	n/a
32.0615	0.1055	64123	keystroke_s	s	n/a
32.272	0.09	64544	keystroke_Key.space	Key.space	n/a
32.527	0.075	65054	keystroke_g	g	n/a
32.677	0.0455	65354	keystroke_u	u	n/a
32.812	0.075	65624	keystroke_i	i	n/a
32.902	0.0905	65804	keystroke_d	d	n/a
33.0225	0.135	66045	keystroke_a	a	n/a
33.1125	0.09	66225	keystroke_n	n	n/a
33.1425	0.045	66285	keystroke_c	c	n/a
33.2175	0.15	66435	keystroke_c	c	n/a
33.3225	0.09	66645	keystroke_e	e	n/a
33.4725	0.044	66945	keystroke_Key.space	Key.space	n/a
34.3865	0.0905	68773	keystroke_Key.backspace	Key.backspace	n/a
35.392	0.105	70784	keystroke_Key.backspace	Key.backspace	n/a
36.982	0.1195	73964	keystroke_Key.backspace	Key.backspace	n/a
38.872	0.075	77744	keystroke_e	e	n/a
39.082	0.075	78164	keystroke_Key.space	Key.space	n/a
39.7725	0.105	79545	keystroke_m	m	n/a
40.312	0.0905	80624	keystroke_i	i	n/a
40.537	0.075	81074	keystroke_m	m	n/a
40.627	0.09	81254	keystroke_e	e	n/a
40.732	0.075	81464	keystroke_Key.space	Key.space	n/a
40.897	0.0755	81794	keystroke_b	b	n/a
40.987	0.075	81974	keystroke_i	i	n/a
41.182	0.06	82364	keystroke_l	l	n/a
41.3175	0.0745	82635	keystroke_l	l	n/a
41.512	0.06	83024	keystroke_i	i	n/a
42.1125	0.135	84225	keystroke_n	n	n/a
42.2025	0.105	84405	keystroke_g	g	n/a
42.6075	0.119	85215	keystroke_Key.enter	Key.enter	n/a
42.7335	9.2355	85467	prompt	n/a	guns improving donald gordon\n
43.4775	0.075	86955	keystroke_g	g	n/a
43.6125	0.075	87225	keystroke_u	u	n/a
43.822	0.1055	87644	keystroke_n	n	n/a
44.002	0.09	88004	keystroke_s	s	n/a
44.122	0.075	88244	keystroke_Key.space	Key.space	n/a
44.422	0.0605	88844	keystroke_i	i	n/a
44.5865	0.0905	89173	keystroke_m	m	n/a
44.8265	0.0455	89653	keystroke_o	o	n/a
44.917	0.0755	89834	keystroke_r	r	n/a
45.007	0.06	90014	keystroke_i	i	n/a
45.127	0.1045	90254	keystroke_v	v	n/a
45.2765	0.061	90553	keystroke_i	i	n/a
46.087	0.03	92174	keystroke_Key.backspace	Key.backspace	n/a
46.417	0.105	92834	keystroke_Key.backspace	Key.backspace	n/a
46.7025	0.0745	93405	keystroke_Key.backspace	Key.backspace	n/a
46.9715	0.0755	93943	keystroke_Key.backspace	Key.backspace	n/a
47.272	0.09	94544	keystroke_Key.backspace	Key.backspace	n/a
48.0075	0.09	96015	keystroke_p	p	n/a
48.1565	0.106	96313	keystroke_r	r	n/a
48.2775	0.0895	96555	keystroke_o	o	n/a
48.547	0.075	97094	keystroke_v	v	n/a
48.6825	0.0595	97365	keystroke_i	i	n/a
48.892	0.06	97784	keystroke_n	n	n/a
48.967	0.075	97934	keystroke_g	g	n/a
49.072	0.0755	98144	keystroke_Key.space	Key.space	n/a
49.207	0.06	98414	keystroke_d	d	n/a
49.297	0.0595	98594	keystroke_o	o	n/a
49.4775	0.075	98955	keystroke_n	n	n/a
49.5675	0.09	99135	keystroke_a	a	n/a
49.672	0.0605	99344	keystroke_l	l	n/a
49.777	0.075	99554	keystroke_d	d	n/a
49.882	0.06	99764	keystroke_Key.space	Key.space	n/a
50.197	0.0755	100394	keystroke_d	d	n/a
50.4065	0.09	100813	keystroke_Key.backspace	Key.backspace	n/a
50.602	0.0755	101204	keystroke_g	g	n/a
51.0515	0.076	102103	keystroke_o	o	n/a
51.157	0.0905	102314	keystroke_r	r	n/a
51.3525	0.1045	102705	keystroke_d	d	n/a
51.472	0.0455	102944	keystroke_o	o	n/a
51.637	0.06	103274	keystroke_n	n	n/a
51.862	0.1045	103724	keystroke_Key.enter	Key.enter	n/a
51.9745	5.4545	103949	prompt	n/a	bhutan formal hero eleven\n
52.6425	0.09	105285	keystroke_b	b	n/a
53.047	0.0755	106094	keystroke_h	h	n/a
53.2275	0.075	106455	keystroke_u	u	n/a
53.4225	0.09	106845	keystroke_t	t	n/a
53.602	0.075	107204	keystroke_a	a	n/a
53.722	0.06	107444	keystroke_n	n	n/a
53.9465	0.0755	107893	keystroke_Key.space	Key.space	n/a
54.052	0.0895	108104	keystroke_f	f	n/a
54.1865	0.0605	108373	keystroke_o	o	n/a
54.2615	0.06	108523	keystroke_r	r	n/a
54.3815	0.075	108763	keystroke_m	m	n/a
54.4875	0.059	108975	keystroke_a	a	n/a
54.592	0.0595	109184	keystroke_l	l	n/a
54.7725	0.06	109545	keystroke_Key.space	Key.space	n/a
54.8475	0.09	109695	keystroke_h	h	n/a
54.9525	0.09	109905	keystroke_e	e	n/a
55.1175	0.0895	110235	keystroke_r	r	n/a
55.222	0.06	110444	keystroke_o	o	n/a
55.417	0.0755	110834	keystroke_Key.space	Key.space	n/a
55.5075	0.075	111015	keystroke_e	e	n/a
55.627	0.0905	111254	keystroke_l	l	n/a
55.6875	0.105	111375	keystroke_e	e	n/a
55.8225	0.059	111645	keystroke_c	c	n/a
56.0925	0.0895	112185	keystroke_Key.backspace	Key.backspace	n/a
56.902	0.135	113804	keystroke_v	v	n/a
56.992	0.0905	113984	keystroke_e	e	n/a
57.112	0.0755	114224	keystroke_n	n	n/a
57.3225	0.105	114645	keystroke_Key.enter	Key.enter	n/a
57.433	10.647	114866	prompt	n/a	glucose monsters entrepreneurs switch\n
58.2975	0.0595	116595	keystroke_g	g	n/a
58.687	0.06	117374	keystroke_l	l	n/a
58.912	0.06	117824	keystroke_u	u	n/a
59.002	0.0755	118004	keystroke_c	c	n/a
59.1525	0.075	118305	keystroke_o	o	n/a
59.2575	0.06	118515	keystroke_s	s	n/a
59.4225	0.075	118845	keystroke_e	e	n/a
59.5125	0.075	119025	keystroke_Key.space	Key.space	n/a
59.6925	0.06	119385	keystroke_m	m	n/a
59.8725	0.06	119745	keystroke_o	o	n/a
60.0675	0.06	120135	keystroke_n	n	n/a
60.1425	0.045	120285	keystroke_s	s	n/a
60.2775	0.135	120555	keystroke_e	e	n/a
60.4575	0.075	120915	keystroke_t	t	n/a
61.402	0.0745	122804	keystroke_Key.backspace	Key.backspace	n/a
61.777	0.0755	123554	keystroke_Key.backspace	Key.backspace	n/a
62.1075	0.105	124215	keystroke_t	t	n/a
62.3325	0.104	124665	keystroke_e	e	n/a
62.407	0.1045	124814	keystroke_r	r	n/a
62.5865	0.076	125173	keystroke_s	s	n/a
63.007	0.0905	126014	keystroke_Key.space	Key.space	n/a
63.3525	0.0745	126705	keystroke_e	e	n/a
63.562	0.075	127124	keystroke_n	n	n/a
63.667	0.0755	127334	keystroke_t	t	n/a
63.8775	0.135	127755	keystroke_r	r	n/a
64.357	0.09	128714	keystroke_e	e	n/a
64.5825	0.089	129165	keystroke_p	p	n/a
64.702	0.1205	129404	keystroke_r	r	n/a
64.792	0.105	129584	keystroke_e	e	n/a
65.062	0.075	130124	keystroke_n	n	n/a
65.257	0.045	130514	keystroke_e	e	n/a
65.902	0.0755	131804	keystroke_u	u	n/a
66.007	0.135	132014	keystroke_r	r	n/a
66.112	0.1055	132224	keystroke_s	s	n/a
66.3675	0.06	132735	keystroke_Key.space	Key.space	n/a
66.712	0.075	133424	keystroke_s	s	n/a
66.8915	0.0905	133783	keystroke_w	w	n/a
67.087	0.0155	134174	keystroke_i	i	n/a
67.1325	0.0895	134265	keystroke_t	t	n/a
67.3425	0.06	134685	keystroke_c	c	n/a
67.3725	0.09	134745	keystroke_h	h	n/a
67.987	0.0905	135974	keystroke_Key.enter	Key.enter	n/a
68.085	7.6595	136170	prompt	n/a	treatments compete shaved website\n
68.767	0.09	137534	keystroke_t	t	n/a
68.962	0.075	137924	keystroke_r	r	n/a
69.127	0.1205	138254	keystroke_e	e	n/a
69.232	0.12	138464	keystroke_a	a	n/a
69.337	0.075	138674	keystroke_t	t	n/a
69.5325	0.12	139065	keystroke_m	m	n/a
69.7275	0.09	139455	keystroke_e	e	n/a
69.8915	0.0755	139783	keystroke_n	n	n/a
70.1175	0.059	140235	keystroke_s	s	n/a
71.227	0.075	142454	keystroke_Key.backspace	Key.backspace	n/a
71.5575	0.09	143115	keystroke_t	t	n/a
71.7075	0.09	143415	keystroke_s	s	n/a
72.0975	0.0895	144195	keystroke_Key.space	Key.space	n/a
72.3525	0.06	144705	keystroke_c	c	n/a
72.4575	0.0445	144915	keystroke_o	o	n/a
72.6375	0.075	145275	keystroke_m	m	n/a
72.8775	0.0445	145755	keystroke_p	p	n/a
72.982	0.09	145964	keystroke_e	e	n/a
73.102	0.1355	146204	keystroke_t	t	n/a
73.207	0.1055	146414	keystroke_e	e	n/a
73.3125	0.0895	146625	keystroke_Key.space	Key.space	n/a
73.4615	0.091	146923	keystroke_s	s	n/a
73.6125	0.075	147225	keystroke_h	h	n/a
73.7325	0.104	147465	keystroke_a	a	n/a
73.8215	0.121	147643	keystroke_v	v	n/a
73.9115	0.09	147823	keystroke_e	e	n/a
74.0775	0.075	148155	keystroke_d	d	n/a
74.167	0.0755	148334	keystroke_Key.space	Key.space	n/a
74.2875	0.1495	148575	keystroke_w	w	n/a
74.422	0.0905	148844	keystroke_e	e	n/a
74.662	0.0605	149324	keystroke_b	b	n/a
74.8575	0.0895	149715	keystroke_s	s	n/a
75.022	0.06	150044	keystroke_i	i	n/a
75.427	0.12	150854	keystroke_t	t	n/a
75.502	0.12	151004	keystroke_e	e	n/a
75.637	0.105	151274	keystroke_Key.enter	Key.enter	n/a
75.7525	5.556	151505	prompt	n/a	flight criticism form steal\n
76.387	0.105	152774	keystroke_f	f	n/a
76.567	0.09	153134	keystroke_l	l	n/a
76.762	0.075	153524	keystroke_i	i	n/a
76.807	0.12	153614	keystroke_g	g	n/a
76.957	0.045	153914	keystroke_h	h	n/a
77.017	0.075	154034	keystroke_t	t	n/a
77.152	0.09	154304	keystroke_Key.space	Key.space	n/a
77.272	0.09	154544	keystroke_c	c	n/a
77.467	0.09	154934	keystroke_r	r	n/a
77.632	0.0595	155264	keystroke_i	i	n/a
78.0225	0.075	156045	keystroke_t	t	n/a
78.247	0.0745	156494	keystroke_i	i	n/a
78.457	0.0905	156914	keystroke_c	c	n/a
78.6215	0.0755	157243	keystroke_i	i	n/a
78.727	0.09	157454	keystroke_s	s	n/a
78.892	0.06	157784	keystroke_m	m	n/a
79.072	0.075	158144	keystroke_Key.space	Key.space	n/a
79.1925	0.105	158385	keystroke_f	f	n/a
79.327	0.06	158654	keystroke_o	o	n/a
79.402	0.06	158804	keystroke_r	r	n/a
79.507	0.0755	159014	keystroke_m	m	n/a
79.672	0.09	159344	keystroke_Key.space	Key.space	n/a
79.747	0.105	159494	keystroke_s	s	n/a
79.8665	0.0905	159733	keystroke_t	t	n/a
80.077	0.105	160154	keystroke_e	e	n/a
80.1665	0.0755	160333	keystroke_a	a	n/a
80.977	0.09	161954	keystroke_l	l	n/a
81.1865	0.1205	162373	keystroke_Key.enter	Key.enter	n/a
81.3125	6.671	162625	prompt	n/a	diagram wild gratuit plus\n
81.967	0.09	163934	keystroke_d	d	n/a
82.102	0.0745	164204	keystroke_i	i	n/a
82.1915	0.1055	164383	keystroke_a	a	n/a
82.3565	0.09	164713	keystroke_g	g	n/a
82.5365	0.1055	165073	keystroke_r	r	n/a
82.642	0.09	165284	keystroke_a	a	n/a
82.7465	0.045	165493	keystroke_m	m	n/a
82.8815	0.075	165763	keystroke_Key.space	Key.space	n/a
82.9715	0.075	165943	keystroke_w	w	n/a
83.107	0.0605	166214	keystroke_i	i	n/a
83.2715	0.09	166543	keystroke_l	l	n/a
83.3765	0.06	166753	keystroke_d	d	n/a
83.4665	0.09	166933	keystroke_Key.space	Key.space	n/a
83.587	0.09	167174	keystroke_g	g	n/a
83.782	0.105	167564	keystroke_r	r	n/a
83.9015	0.105	167803	keystroke_a	a	n/a
84.7865	0.091	169573	keystroke_t	t	n/a
84.9525	0.06	169905	keystroke_u	u	n/a
85.1315	0.076	170263	keystroke_i	i	n/a
85.2215	0.046	170443	keystroke_t	t	n/a
85.3415	0.09	170683	keystroke_Key.space	Key.space	n/a
85.597	0.03	171194	keystroke_o	o	n/a
86.6015	0.0605	173203	keystroke_Key.backspace	Key.backspace	n/a
87.0965	0.06	174193	keystroke_p	p	n/a
87.292	0.09	174584	keystroke_l	l	n/a
87.562	0.0595	175124	keystroke_u	u	n/a
87.667	0.09	175334	keystroke_s	s	n/a
87.8765	0.105	175753	keystroke_Key.enter	Key.enter	n/a
87.989	13.1195	175978	prompt	n/a	puts friendly consequences andrews\n
89.0615	0.0905	178123	keystroke_o	o	n/a
89.917	0.045	179834	keystroke_Key.backspace	Key.backspace	n/a
90.202	0.075	180404	keystroke_p	p	n/a
90.652	0.09	181304	keystroke_u	u	n/a
90.802	0.075	181604	keystroke_t	t	n/a
91.492	0.075	182984	keystroke_s	s	n/a
91.581	0.075	183162	keystroke_Key.space	Key.space	n/a
91.7765	0.091	183553	keystroke_f	f	n/a
91.9725	0.0745	183945	keystroke_r	r	n/a
92.1825	0.0895	184365	keystroke_e	e	n/a
93.036	0.091	186072	keystroke_Key.backspace	Key.backspace	n/a
93.457	0.075	186914	keystroke_i	i	n/a
93.592	0.045	187184	keystroke_e	e	n/a
93.7125	0.045	187425	keystroke_n	n	n/a
93.787	0.075	187574	keystroke_d	d	n/a
93.967	0.03	187934	keystroke_l	l	n/a
94.0565	0.091	188113	keystroke_y	y	n/a
94.867	0.09	189734	keystroke_Key.space	Key.space	n/a
95.152	0.075	190304	keystroke_c	c	n/a
95.437	0.06	190874	keystroke_o	o	n/a
95.662	0.06	191324	keystroke_n	n	n/a
95.7515	0.0905	191503	keystroke_s	s	n/a
96.592	0.0905	193184	keystroke_e	e	n/a
96.8025	0.09	193605	keystroke_q	q	n/a
97.0125	0.0595	194025	keystroke_u	u	n/a
97.087	0.09	194174	keystroke_e	e	n/a
97.2225	0.0745	194445	keystroke_n	n	n/a
97.312	0.105	194624	keystroke_c	c	n/a
97.372	0.105	194744	keystroke_e	e	n/a
97.552	0.09	195104	keystroke_s	s	n/a
97.702	0.075	195404	keystroke_Key.space	Key.space	n/a
98.0175	0.074	196035	keystroke_a	a	n/a
98.2125	0.059	196425	keystroke_n	n	n/a
98.2865	0.091	196573	keystroke_d	d	n/a
98.4975	0.06	196995	keystroke_r	r	n/a
98.6775	0.15	197355	keystroke_e	e	n/a
98.7675	0.105	197535	keystroke_w	w	n/a
98.9625	0.09	197925	keystroke_s	s	n/a
99.3825	0.074	198765	keystroke_]	]	n/a
100.567	0.0595	201134	keystroke_Key.backspace	Key.backspace	n/a
101.0165	0.09	202033	keystroke_Key.enter	Key.enter	n/a
101.112	8.5315	202224	prompt	n/a	chester mile newman walking\n
101.857	0.075	203714	keystroke_c	c	n/a
102.052	0.075	204104	keystroke_h	h	n/a
102.142	0.075	204284	keystroke_e	e	n/a
102.292	0.12	204584	keystroke_s	s	n/a
102.397	0.0905	204794	keystroke_t	t	n/a
102.667	0.09	205334	keystroke_Key.space	Key.space	n/a
104.7365	0.105	209473	keystroke_Key.backspace	Key.backspace	n/a
105.037	0.1345	210074	keystroke_e	e	n/a
105.1265	0.1205	210253	keystroke_r	r	n/a
105.2765	0.1055	210553	keystroke_Key.space	Key.space	n/a
105.952	0.0905	211904	keystroke_m	m	n/a
106.177	0.06	212354	keystroke_i	i	n/a
106.372	0.1055	212744	keystroke_l	l	n/a
106.5065	0.09	213013	keystroke_e	e	n/a
106.6725	0.074	213345	keystroke_Key.space	Key.space	n/a
106.9875	0.105	213975	keystroke_n	n	n/a
107.1215	0.1055	214243	keystroke_e	e	n/a
107.1665	0.1055	214333	keystroke_w	w	n/a
107.377	0.0445	214754	keystroke_m	m	n/a
107.4515	0.075	214903	keystroke_a	a	n/a
107.5565	0.0455	215113	keystroke_n	n	n/a
107.692	0.0895	215384	keystroke_Key.space	Key.space	n/a
107.797	0.135	215594	keystroke_w	w	n/a
107.9165	0.075	215833	keystroke_a	a	n/a
108.697	0.06	217394	keystroke_l	l	n/a
108.862	0.06	217724	keystroke_k	k	n/a
109.027	0.06	218054	keystroke_i	i	n/a
109.102	0.105	218204	keystroke_n	n	n/a
109.177	0.075	218354	keystroke_g	g	n/a
109.5065	0.1355	219013	keystroke_Key.enter	Key.enter	n/a
109.647	9.8665	219294	prompt	n/a	metric estate competitors refugees\n
110.482	0.075	220964	keystroke_m	m	n/a
110.572	0.075	221144	keystroke_e	e	n/a
110.692	0.045	221384	keystroke_t	t	n/a
110.827	0.105	221654	keystroke_r	r	n/a
111.007	0.075	222014	keystroke_i	i	n/a
111.1715	0.075	222343	keystroke_c	c	n/a
111.396	0.076	222792	keystroke_Key.space	Key.space	n/a
111.742	0.06	223484	keystroke_e	e	n/a
111.907	0.075	223814	keystroke_s	s	n/a
112.072	0.12	224144	keystroke_t	t	n/a
112.207	0.105	224414	keystroke_a	a	n/a
112.282	0.12	224564	keystroke_t	t	n/a
112.357	0.09	224714	keystroke_e	e	n/a
112.492	0.09	224984	keystroke_Key.space	Key.space	n/a
112.6865	0.075	225373	keystroke_e	e	n/a
113.407	0.119	226814	keystroke_Key.backspace	Key.backspace	n/a
113.6765	0.06	227353	keystroke_c	c	n/a
113.7665	0.075	227533	keystroke_o	o	n/a
113.9615	0.0755	227923	keystroke_m	m	n/a
114.3225	0.0445	228645	keystroke_p	p	n/a
114.4865	0.0905	228973	keystroke_e	e	n/a
114.7415	0.09	229483	keystroke_t	t	n/a
115.057	0.06	230114	keystroke_i	i	n/a
115.147	0.09	230294	keystroke_t	t	n/a
115.747	0.09	231494	keystroke_o	o	n/a
115.852	0.105	231704	keystroke_r	r	n/a
115.972	0.1045	231944	keystroke_s	s	n/a
116.137	0.09	232274	keystroke_Key.space	Key.space	n/a
116.347	0.12	232694	keystroke_r	r	n/a
116.437	0.09	232874	keystroke_e	e	n/a
116.586	0.091	233172	keystroke_f	f	n/a
116.752	0.0895	233504	keystroke_u	u	n/a
117.142	0.12	234284	keystroke_c	c	n/a
117.4115	0.075	234823	keystroke_Key.backspace	Key.backspace	n/a
117.907	0.075	235814	keystroke_g	g	n/a
118.1325	0.0895	236265	keystroke_r	r	n/a
118.462	0.075	236924	keystroke_Key.backspace	Key.backspace	n/a
118.6575	0.045	237315	keystroke_e	e	n/a
118.8065	0.09	237613	keystroke_e	e	n/a
119.167	0.06	238334	keystroke_s	s	n/a
119.3465	0.1655	238693	keystroke_Key.enter	Key.enter	n/a
119.5165	4.362	239033	prompt	n/a	holders handled assisted owned\n
120.202	0.06	240404	keystroke_h	h	n/a
120.292	0.089	240584	keystroke_o	o	n/a
120.457	0.104	240914	keystroke_l	l	n/a
120.516	0.121	241032	keystroke_d	d	n/a
120.651	0.091	241302	keystroke_e	e	n/a
120.712	0.0895	241424	keystroke_r	r	n/a
120.8465	0.09	241693	keystroke_s	s	n/a
120.8765	0.09	241753	keystroke_Key.space	Key.space	n/a
121.102	0.0745	242204	keystroke_h	h	n/a
121.207	0.105	242414	keystroke_a	a	n/a
121.297	0.075	242594	keystroke_n	n	n/a
121.4015	0.09	242803	keystroke_d	d	n/a
121.552	0.0445	243104	keystroke_l	l	n/a
121.612	0.0895	243224	keystroke_e	e	n/a
121.8215	0.075	243643	keystroke_d	d	n/a
121.941	0.0755	243882	keystroke_Key.space	Key.space	n/a
122.0615	0.1205	244123	keystroke_a	a	n/a
122.1825	0.059	244365	keystroke_s	s	n/a
122.3015	0.0905	244603	keystroke_s	s	n/a
122.437	0.0745	244874	keystroke_i	i	n/a
122.482	0.045	244964	keystroke_s	s	n/a
122.602	0.09	245204	keystroke_t	t	n/a
122.6615	0.0905	245323	keystroke_e	e	n/a
122.812	0.075	245624	keystroke_d	d	n/a
122.902	0.075	245804	keystroke_Key.space	Key.space	n/a
123.127	0.06	246254	keystroke_o	o	n/a
123.2165	0.09	246433	keystroke_w	w	n/a
123.3515	0.09	246703	keystroke_n	n	n/a
123.4565	0.0895	246913	keystroke_e	e	n/a
123.607	0.075	247214	keystroke_d	d	n/a
123.757	0.12	247514	keystroke_Key.enter	Key.enter	n/a
123.8825	4.736	247765	prompt	n/a	inspired beats fits michigan\n
124.447	0.075	248894	keystroke_i	i	n/a
124.612	0.09	249224	keystroke_n	n	n/a
124.837	0.075	249674	keystroke_p	p	n/a
125.092	0.06	250184	keystroke_i	i	n/a
125.212	0.1345	250424	keystroke_r	r	n/a
125.2865	0.1055	250573	keystroke_e	e	n/a
125.527	0.075	251054	keystroke_d	d	n/a
125.707	0.06	251414	keystroke_Key.space	Key.space	n/a
125.932	0.09	251864	keystroke_b	b	n/a
126.142	0.12	252284	keystroke_e	e	n/a
126.262	0.1195	252524	keystroke_a	a	n/a
126.367	0.0895	252734	keystroke_t	t	n/a
126.487	0.105	252974	keystroke_s	s	n/a
126.607	0.06	253214	keystroke_Key.space	Key.space	n/a
126.712	0.105	253424	keystroke_f	f	n/a
126.892	0.045	253784	keystroke_i	i	n/a
126.952	0.135	253904	keystroke_t	t	n/a
127.102	0.09	254204	keystroke_s	s	n/a
127.162	0.075	254324	keystroke_Key.space	Key.space	n/a
127.372	0.0595	254744	keystroke_m	m	n/a
127.567	0.075	255134	keystroke_i	i	n/a
127.627	0.09	255254	keystroke_c	c	n/a
127.747	0.075	255494	keystroke_h	h	n/a
127.942	0.0445	255884	keystroke_i	i	n/a
128.016	0.091	256032	keystroke_g	g	n/a
128.226	0.076	256452	keystroke_a	a	n/a
128.317	0.059	256634	keystroke_n	n	n/a
128.497	0.12	256994	keystroke_Key.enter	Key.enter	n/a
128.623	14.155	257246	prompt	n/a	minority executed obligation ranking\n
129.4565	0.12	258913	keystroke_m	m	n/a
129.682	0.06	259364	keystroke_i	i	n/a
129.847	0.075	259694	keystroke_n	n	n/a
130.0565	0.0605	260113	keystroke_o	o	n/a
130.162	0.105	260324	keystroke_r	r	n/a
130.267	0.06	260534	keystroke_i	i	n/a
130.3865	0.09	260773	keystroke_t	t	n/a
130.5665	0.06	261133	keystroke_y	y	n/a
130.6565	0.075	261313	keystroke_Key.space	Key.space	n/a
130.807	0.0895	261614	keystroke_e	e	n/a
131.0015	0.075	262003	keystroke_x	x	n/a
131.1815	0.0905	262363	keystroke_e	e	n/a
131.287	0.09	262574	keystroke_c	c	n/a
131.497	0.03	262994	keystroke_u	u	n/a
131.602	0.0745	263204	keystroke_t	t	n/a
131.796	0.1055	263592	keystroke_e	e	n/a
131.9465	0.0905	263893	keystroke_d	d	n/a
132.0665	0.045	264133	keystroke_Key.space	Key.space	n/a
132.3225	0.059	264645	keystroke_o	o	n/a
132.4115	0.075	264823	keystroke_b	b	n/a
132.6515	0.0755	265303	keystroke_i	i	n/a
132.8015	0.015	265603	keystroke_g	g	n/a
133.297	0.045	266594	keystroke_Key.backspace	Key.backspace	n/a
133.761	0.1055	267522	keystroke_Key.backspace	Key.backspace	n/a
134.1515	0.075	268303	keystroke_g	g	n/a
134.257	0.0895	268514	keystroke_l	l	n/a
135.696	0.09	271392	keystroke_Key.backspace	Key.backspace	n/a
135.9365	0.1055	271873	keystroke_Key.backspace	Key.backspace	n/a
137.332	0.0895	274664	keystroke_l	l	n/a
137.557	0.075	275114	keystroke_i	i	n/a
137.662	0.09	275324	keystroke_g	g	n/a
137.797	0.12	275594	keystroke_a	a	n/a
137.902	0.0745	275804	keystroke_t	t	n/a
137.962	0.0595	275924	keystroke_i	i	n/a
138.126	0.0755	276252	keystroke_o	o	n/a
138.367	0.09	276734	keystroke_Key.space	Key.space	n/a
138.8465	0.0755	277693	keystroke_Key.backspace	Key.backspace	n/a
139.312	0.075	278624	keystroke_n	n	n/a
139.5065	0.1205	279013	keystroke_r	r	n/a
139.597	0.105	279194	keystroke_a	a	n/a
139.7615	0.06	279523	keystroke_n	n	n/a
140.1215	0.075	280243	keystroke_Key.backspace	Key.backspace	n/a
140.2715	0.105	280543	keystroke_Key.backspace	Key.backspace	n/a
140.7515	0.045	281503	keystroke_Key.backspace	Key.backspace	n/a
141.1565	0.105	282313	keystroke_Key.space	Key.space	n/a
141.4115	0.135	282823	keystroke_r	r	n/a
141.5165	0.09	283033	keystroke_a	a	n/a
141.6365	0.075	283273	keystroke_n	n	n/a
142.1165	0.0905	284233	keystroke_k	k	n/a
142.297	0.075	284594	keystroke_i	i	n/a
142.477	0.0895	284954	keystroke_n	n	n/a
142.5515	0.06	285103	keystroke_g	g	n/a
142.672	0.104	285344	keystroke_Key.enter	Key.enter	n/a
142.7825	8.0655	285565	prompt	n/a	association chinese comparative marilyn\n
143.437	0.09	286874	keystroke_a	a	n/a
143.602	0.089	287204	keystroke_s	s	n/a
143.752	0.09	287504	keystroke_s	s	n/a
143.872	0.09	287744	keystroke_o	o	n/a
144.0965	0.0605	288193	keystroke_i	i	n/a
144.6665	0.1205	289333	keystroke_Key.backspace	Key.backspace	n/a
145.597	0.074	291194	keystroke_c	c	n/a
145.777	0.059	291554	keystroke_i	i	n/a
145.851	0.1055	291702	keystroke_a	a	n/a
146.017	0.059	292034	keystroke_t	t	n/a
146.091	0.0455	292182	keystroke_i	i	n/a
146.227	0.089	292454	keystroke_o	o	n/a
146.331	0.061	292662	keystroke_n	n	n/a
146.437	0.09	292874	keystroke_Key.space	Key.space	n/a
146.557	0.104	293114	keystroke_c	c	n/a
146.677	0.074	293354	keystroke_h	h	n/a
146.872	0.0595	293744	keystroke_i	i	n/a
147.037	0.075	294074	keystroke_n	n	n/a
147.127	0.0445	294254	keystroke_e	e	n/a
147.2615	0.0605	294523	keystroke_s	s	n/a
147.412	0.0595	294824	keystroke_e	e	n/a
147.502	0.0745	295004	keystroke_Key.space	Key.space	n/a
147.6365	0.06	295273	keystroke_c	c	n/a
147.7415	0.075	295483	keystroke_o	o	n/a
147.907	0.0745	295814	keystroke_m	m	n/a
148.1165	0.075	296233	keystroke_p	p	n/a
148.2515	0.105	296503	keystroke_a	a	n/a
148.417	0.135	296834	keystroke_r	r	n/a
148.567	0.1045	297134	keystroke_a	a	n/a
148.656	0.076	297312	keystroke_t	t	n/a
148.7915	0.09	297583	keystroke_i	i	n/a
148.867	0.135	297734	keystroke_v	v	n/a
148.942	0.09	297884	keystroke_e	e	n/a
149.047	0.075	298094	keystroke_Key.space	Key.space	n/a
149.242	0.06	298484	keystroke_m	m	n/a
149.317	0.1045	298634	keystroke_a	a	n/a
150.007	0.075	300014	keystroke_r	r	n/a
150.1565	0.0755	300313	keystroke_i	i	n/a
150.352	0.0595	300704	keystroke_l	l	n/a
150.457	0.06	300914	keystroke_y	y	n/a
150.5615	0.0755	301123	keystroke_n	n	n/a
150.7415	0.105	301483	keystroke_Key.enter	Key.enter	n/a
150.852	5.3365	301704	prompt	n/a	safe song thanksgiving tech\n
151.4915	0.06	302983	keystroke_s	s	n/a
151.8515	0.1345	303703	keystroke_a	a	n/a
151.971	0.15	303942	keystroke_f	f	n/a
152.077	0.1045	304154	keystroke_e	e	n/a
152.196	0.09	304392	keystroke_Key.space	Key.space	n/a
152.4965	0.1055	304993	keystroke_s	s	n/a
152.6315	0.06	305263	keystroke_o	o	n/a
152.8265	0.075	305653	keystroke_n	n	n/a
152.932	0.105	305864	keystroke_g	g	n/a
153.052	0.09	306104	keystroke_Key.space	Key.space	n/a
153.262	0.075	306524	keystroke_t	t	n/a
153.382	0.075	306764	keystroke_h	h	n/a
153.502	0.0595	307004	keystroke_a	a	n/a
153.5765	0.075	307153	keystroke_n	n	n/a
153.667	0.09	307334	keystroke_s	s	n/a
153.9365	0.09	307873	keystroke_g	g	n/a
154.162	0.0445	308324	keystroke_i	i	n/a
154.597	0.09	309194	keystroke_v	v	n/a
154.732	0.0745	309464	keystroke_i	i	n/a
154.9415	0.0755	309883	keystroke_n	n	n/a
155.031	0.0905	310062	keystroke_g	g	n/a
155.137	0.09	310274	keystroke_Key.space	Key.space	n/a
155.4965	0.1505	310993	keystroke_t	t	n/a
155.632	0.09	311264	keystroke_e	e	n/a
155.7665	0.0905	311533	keystroke_c	c	n/a
155.8715	0.09	311743	keystroke_h	h	n/a
156.0815	0.105	312163	keystroke_Key.enter	Key.enter	n/a
156.1915	6.042	312383	prompt	n/a	jungle funding dentists ignore\n
157.011	0.075	314022	keystroke_j	j	n/a
157.1765	0.06	314353	keystroke_u	u	n/a
157.3265	0.09	314653	keystroke_n	n	n/a
157.4315	0.0755	314863	keystroke_g	g	n/a
157.537	0.0745	315074	keystroke_l	l	n/a
157.6415	0.09	315283	keystroke_e	e	n/a
157.747	0.09	315494	keystroke_Key.space	Key.space	n/a
157.987	0.104	315974	keystroke_f	f	n/a
158.1065	0.0605	316213	keystroke_u	u	n/a
158.271	0.076	316542	keystroke_n	n	n/a
158.332	0.0895	316664	keystroke_d	d	n/a
158.4665	0.06	316933	keystroke_i	i	n/a
158.6315	0.075	317263	keystroke_n	n	n/a
158.6765	0.09	317353	keystroke_g	g	n/a
158.8115	0.09	317623	keystroke_Key.space	Key.space	n/a
158.9765	0.165	317953	keystroke_d	d	n/a
159.097	0.105	318194	keystroke_e	e	n/a
159.2465	0.075	318493	keystroke_n	n	n/a
159.337	0.0745	318674	keystroke_t	t	n/a
159.487	0.075	318974	keystroke_i	i	n/a
159.5165	0.1055	319033	keystroke_s	s	n/a
159.682	0.105	319364	keystroke_t	t	n/a
159.771	0.076	319542	keystroke_s	s	n/a
159.876	0.075	319752	keystroke_Key.space	Key.space	n/a
160.161	0.06	320322	keystroke_i	i	n/a
160.3415	0.0145	320683	keystroke_n	n	n/a
161.106	0.0755	322212	keystroke_Key.backspace	Key.backspace	n/a
161.4365	0.0745	322873	keystroke_g	g	n/a
161.677	0.0745	323354	keystroke_n	n	n/a
161.902	0.0595	323804	keystroke_o	o	n/a
161.9615	0.105	323923	keystroke_r	r	n/a
162.0215	0.1055	324043	keystroke_e	e	n/a
162.112	0.1195	324224	keystroke_Key.enter	Key.enter	n/a
162.24	8.063	324480	prompt	n/a	phone guild lauderdale downloads\n
162.9665	0.105	325933	keystroke_p	p	n/a
163.4765	0.06	326953	keystroke_h	h	n/a
163.567	0.0745	327134	keystroke_o	o	n/a
163.7765	0.0755	327553	keystroke_n	n	n/a
163.8665	0.09	327733	keystroke_e	e	n/a
163.9715	0.09	327943	keystroke_Key.space	Key.space	n/a
164.0615	0.0755	328123	keystroke_g	g	n/a
164.2115	0.075	328423	keystroke_u	u	n/a
164.407	0.0595	328814	keystroke_i	i	n/a
164.5865	0.06	329173	keystroke_l	l	n/a
164.6615	0.0755	329323	keystroke_d	d	n/a
165.201	0.075	330402	keystroke_Key.space	Key.space	n/a
165.546	0.106	331092	keystroke_l	l	n/a
165.711	0.106	331422	keystroke_a	a	n/a
165.892	0.045	331784	keystroke_u	u	n/a
165.9815	0.1505	331963	keystroke_d	d	n/a
166.147	0.12	332294	keystroke_e	e	n/a
166.221	0.1055	332442	keystroke_r	r	n/a
166.491	0.1505	332982	keystroke_d	d	n/a
166.6265	0.09	333253	keystroke_a	a	n/a
166.7315	0.09	333463	keystroke_l	l	n/a
166.8065	0.105	333613	keystroke_e	e	n/a
166.9415	0.0895	333883	keystroke_Key.space	Key.space	n/a
167.046	0.0905	334092	keystroke_d	d	n/a
167.1815	0.0605	334363	keystroke_o	o	n/a
167.3615	0.06	334723	keystroke_w	w	n/a
167.377	0.0595	334754	keystroke_n	n	n/a
167.9915	0.075	335983	keystroke_l	l	n/a
168.1565	0.105	336313	keystroke_a	a	n/a
168.1715	0.045	336343	keystroke_o	o	n/a
169.1165	0.075	338233	keystroke_Key.backspace	Key.backspace	n/a
169.3565	0.09	338713	keystroke_Key.backspace	Key.backspace	n/a
169.6715	0.12	339343	keystroke_o	o	n/a
169.8215	0.1055	339643	keystroke_a	a	n/a
169.9115	0.1355	339823	keystroke_d	d	n/a
170.017	0.105	340034	keystroke_s	s	n/a
170.1665	0.135	340333	keystroke_Key.enter	Key.enter	n/a
170.308	4.18	340616	prompt	n/a	marco flood modeling blast\n
170.946	0.076	341892	keystroke_m	m	n/a
171.096	0.075	342192	keystroke_a	a	n/a
171.142	0.089	342284	keystroke_r	r	n/a
171.366	0.09	342732	keystroke_c	c	n/a
171.486	0.1055	342972	keystroke_o	o	n/a
171.787	0.075	343574	keystroke_Key.space	Key.space	n/a
171.937	0.09	343874	keystroke_f	f	n/a
172.041	0.0755	344082	keystroke_l	l	n/a
172.2215	0.0605	344443	keystroke_o	o	n/a
172.3415	0.09	344683	keystroke_o	o	n/a
172.4465	0.075	344893	keystroke_d	d	n/a
172.5815	0.06	345163	keystroke_Key.space	Key.space	n/a
172.761	0.06	345522	keystroke_m	m	n/a
172.957	0.074	345914	keystroke_o	o	n/a
173.047	0.134	346094	keystroke_d	d	n/a
173.152	0.1045	346304	keystroke_e	e	n/a
173.196	0.09	346392	keystroke_l	l	n/a
173.406	0.0605	346812	keystroke_i	i	n/a
173.5865	0.06	347173	keystroke_n	n	n/a
173.6615	0.0605	347323	keystroke_g	g	n/a
173.7515	0.09	347503	keystroke_Key.space	Key.space	n/a
173.9465	0.075	347893	keystroke_b	b	n/a
174.0815	0.105	348163	keystroke_l	l	n/a
174.172	0.1495	348344	keystroke_a	a	n/a
174.262	0.1345	348524	keystroke_s	s	n/a
174.4115	0.075	348823	keystroke_Key.enter	Key.enter	n/a
174.4925	5.9805	348985	prompt	n/a	working homeland incredible hiring\n
175.596	0.091	351192	keystroke_w	w	n/a
175.672	0.09	351344	keystroke_o	o	n/a
175.777	0.06	351554	keystroke_r	r	n/a
175.882	0.06	351764	keystroke_k	k	n/a
176.032	0.0745	352064	keystroke_i	i	n/a
176.107	0.105	352214	keystroke_n	n	n/a
176.166	0.076	352332	keystroke_g	g	n/a
176.271	0.076	352542	keystroke_Key.space	Key.space	n/a
176.436	0.045	352872	keystroke_h	h	n/a
176.511	0.06	353022	keystroke_o	o	n/a
176.692	0.074	353384	keystroke_m	m	n/a
177.0215	0.075	354043	keystroke_e	e	n/a
177.1865	0.105	354373	keystroke_l	l	n/a
177.322	0.0895	354644	keystroke_a	a	n/a
177.4865	0.06	354973	keystroke_n	n	n/a
177.5765	0.0755	355153	keystroke_d	d	n/a
177.6815	0.06	355363	keystroke_Key.space	Key.space	n/a
177.8915	0.0455	355783	keystroke_i	i	n/a
178.057	0.0895	356114	keystroke_n	n	n/a
178.1015	0.0905	356203	keystroke_c	c	n/a
178.2965	0.105	356593	keystroke_r	r	n/a
178.387	0.1045	356774	keystroke_e	e	n/a
178.5215	0.075	357043	keystroke_d	d	n/a
178.6265	0.075	357253	keystroke_i	i	n/a
178.7315	0.075	357463	keystroke_b	b	n/a
178.867	0.0745	357734	keystroke_l	l	n/a
178.927	0.105	357854	keystroke_e	e	n/a
179.076	0.075	358152	keystroke_Key.space	Key.space	n/a
179.2865	0.06	358573	keystroke_h	h	n/a
179.481	0.046	358962	keystroke_i	i	n/a
179.661	0.0605	359322	keystroke_r	r	n/a
179.9315	0.075	359863	keystroke_i	i	n/a
180.1265	0.0745	360253	keystroke_n	n	n/a
180.216	0.0755	360432	keystroke_g	g	n/a
180.3665	0.105	360733	keystroke_Key.enter	Key.enter	n/a
180.4775	5.4705	360955	prompt	n/a	laptops resource hook guitars\n
181.2965	0.105	362593	keystroke_l	l	n/a
181.4465	0.0755	362893	keystroke_a	a	n/a
181.5665	0.09	363133	keystroke_p	p	n/a
181.7765	0.06	363553	keystroke_t	t	n/a
181.8515	0.0755	363703	keystroke_o	o	n/a
182.0465	0.0745	364093	keystroke_p	p	n/a
182.167	0.09	364334	keystroke_s	s	n/a
182.347	0.0745	364694	keystroke_Key.space	Key.space	n/a
182.4665	0.135	364933	keystroke_r	r	n/a
182.5565	0.105	365113	keystroke_e	e	n/a
182.8115	0.06	365623	keystroke_s	s	n/a
182.8565	0.09	365713	keystroke_o	o	n/a
183.067	0.0595	366134	keystroke_u	u	n/a
183.1415	0.135	366283	keystroke_c	c	n/a
183.2315	0.105	366463	keystroke_e	e	n/a
183.3815	0.075	366763	keystroke_Key.space	Key.space	n/a
183.9515	0.075	367903	keystroke_h	h	n/a
184.057	0.0745	368114	keystroke_o	o	n/a
184.1765	0.075	368353	keystroke_o	o	n/a
184.342	0.0595	368684	keystroke_k	k	n/a
184.507	0.089	369014	keystroke_Key.space	Key.space	n/a
184.582	0.1045	369164	keystroke_g	g	n/a
184.7465	0.045	369493	keystroke_u	u	n/a
184.9115	0.0755	369823	keystroke_i	i	n/a
185.0015	0.06	370003	keystroke_t	t	n/a
185.4365	0.06	370873	keystroke_a	a	n/a
185.572	0.1495	371144	keystroke_r	r	n/a
185.7065	0.09	371413	keystroke_s	s	n/a
185.8265	0.1205	371653	keystroke_Key.enter	Key.enter	n/a
185.952	11.3815	371904	prompt	n/a	detection credit hilton placing\n
186.5615	0.1205	373123	keystroke_d	d	n/a
186.697	0.0745	373394	keystroke_e	e	n/a
187.087	0.1045	374174	keystroke_t	t	n/a
187.1615	0.12	374323	keystroke_e	e	n/a
187.402	0.06	374804	keystroke_c	c	n/a
187.582	0.075	375164	keystroke_t	t	n/a
187.687	0.075	375374	keystroke_i	i	n/a
187.837	0.09	375674	keystroke_o	o	n/a
187.912	0.075	375824	keystroke_n	n	n/a
188.077	0.075	376154	keystroke_Key.space	Key.space	n/a
188.497	0.105	376994	keystroke_c	c	n/a
188.7365	0.105	377473	keystroke_r	r	n/a
188.8265	0.09	377653	keystroke_e	e	n/a
188.9765	0.09	377953	keystroke_d	d	n/a
189.127	0.06	378254	keystroke_i	i	n/a
189.217	0.0895	378434	keystroke_t	t	n/a
189.532	0.0745	379064	keystroke_Key.space	Key.space	n/a
189.877	0.06	379754	keystroke_h	h	n/a
189.952	0.075	379904	keystroke_i	i	n/a
190.462	0.089	380924	keystroke_l	l	n/a
190.5965	0.09	381193	keystroke_t	t	n/a
190.716	0.0605	381432	keystroke_i	i	n/a
190.8665	0.075	381733	keystroke_o	o	n/a
191.4215	0.0895	382843	keystroke_Key.backspace	Key.backspace	n/a
191.602	0.09	383204	keystroke_Key.backspace	Key.backspace	n/a
191.901	0.076	383802	keystroke_o	o	n/a
192.2015	0.1045	384403	keystroke_Key.backspace	Key.backspace	n/a
192.501	0.031	385002	keystroke_Key.backspace	Key.backspace	n/a
193.7915	0.075	387583	keystroke_t	t	n/a
193.897	0.0745	387794	keystroke_o	o	n/a
194.121	0.0755	388242	keystroke_n	n	n/a
194.3165	0.06	388633	keystroke_Key.space	Key.space	n/a
194.542	0.059	389084	keystroke_p	p	n/a
194.737	0.0895	389474	keystroke_l	l	n/a
194.886	0.135	389772	keystroke_a	a	n/a
194.9915	0.1355	389983	keystroke_c	c	n/a
195.081	0.075	390162	keystroke_e	e	n/a
195.2315	0.06	390463	keystroke_i	i	n/a
195.9815	0.09	391963	keystroke_Key.backspace	Key.backspace	n/a
196.3115	0.0755	392623	keystroke_Key.backspace	Key.backspace	n/a
196.822	0.06	393644	keystroke_i	i	n/a
197.0165	0.0745	394033	keystroke_n	n	n/a
197.092	0.0745	394184	keystroke_g	g	n/a
197.211	0.1205	394422	keystroke_Key.enter	Key.enter	n/a
197.337	7.211	394674	prompt	n/a	glow journalism liked obtaining\n
198.127	0.0595	396254	keystroke_h	h	n/a
198.712	0.09	397424	keystroke_Key.backspace	Key.backspace	n/a
199.0565	0.06	398113	keystroke_g	g	n/a
199.207	0.074	398414	keystroke_l	l	n/a
199.386	0.061	398772	keystroke_o	o	n/a
199.476	0.09	398952	keystroke_w	w	n/a
199.7015	0.0595	399403	keystroke_Key.space	Key.space	n/a
200.107	0.0595	400214	keystroke_j	j	n/a
200.332	0.0595	400664	keystroke_o	o	n/a
200.527	0.059	401054	keystroke_u	u	n/a
200.6165	0.09	401233	keystroke_r	r	n/a
200.751	0.06	401502	keystroke_n	n	n/a
200.871	0.075	401742	keystroke_a	a	n/a
201.3215	0.105	402643	keystroke_l	l	n/a
201.532	0.0745	403064	keystroke_i	i	n/a
201.652	0.09	403304	keystroke_s	s	n/a
201.787	0.06	403574	keystroke_m	m	n/a
201.952	0.0745	403904	keystroke_Key.space	Key.space	n/a
202.177	0.09	404354	keystroke_l	l	n/a
202.387	0.06	404774	keystroke_i	i	n/a
202.522	0.09	405044	keystroke_k	k	n/a
202.596	0.121	405192	keystroke_e	e	n/a
202.731	0.091	405462	keystroke_d	d	n/a
202.776	0.0905	405552	keystroke_Key.space	Key.space	n/a
203.047	0.089	406094	keystroke_o	o	n/a
203.152	0.104	406304	keystroke_b	b	n/a
203.587	0.089	407174	keystroke_t	t	n/a
203.736	0.0905	407472	keystroke_a	a	n/a
203.811	0.061	407622	keystroke_i	i	n/a
204.007	0.03	408014	keystroke_n	n	n/a
204.141	0.075	408282	keystroke_i	i	n/a
204.2465	0.12	408493	keystroke_n	n	n/a
204.3215	0.12	408643	keystroke_g	g	n/a
204.4265	0.12	408853	keystroke_Key.enter	Key.enter	n/a
204.553	5.0505	409106	prompt	n/a	chart holdem test cnet\n
205.1615	0.0605	410323	keystroke_c	c	n/a
205.2965	0.0895	410593	keystroke_h	h	n/a
205.402	0.105	410804	keystroke_a	a	n/a
205.461	0.106	410922	keystroke_r	r	n/a
205.672	0.09	411344	keystroke_t	t	n/a
205.8515	0.09	411703	keystroke_Key.space	Key.space	n/a
206.152	0.045	412304	keystroke_h	h	n/a
206.227	0.03	412454	keystroke_o	o	n/a
206.3915	0.0895	412783	keystroke_l	l	n/a
206.496	0.105	412992	keystroke_d	d	n/a
206.661	0.09	413322	keystroke_e	e	n/a
206.7965	0.075	413593	keystroke_n	n	n/a
207.4265	0.105	414853	keystroke_Key.backspace	Key.backspace	n/a
207.741	0.075	415482	keystroke_m	m	n/a
208.2065	0.06	416413	keystroke_Key.space	Key.space	n/a
208.416	0.12	416832	keystroke_t	t	n/a
208.491	0.06	416982	keystroke_e	e	n/a
208.6565	0.09	417313	keystroke_s	s	n/a
208.7615	0.0755	417523	keystroke_t	t	n/a
208.911	0.075	417822	keystroke_Key.space	Key.space	n/a
209.001	0.06	418002	keystroke_c	c	n/a
209.137	0.0745	418274	keystroke_n	n	n/a
209.256	0.135	418512	keystroke_e	e	n/a
209.376	0.09	418752	keystroke_t	t	n/a
209.496	0.105	418992	keystroke_Key.enter	Key.enter	n/a
209.6085	7.1195	419217	prompt	n/a	plasma penguin collar senator\n
210.397	0.03	420794	keystroke_p	p	n/a
210.577	0.059	421154	keystroke_l	l	n/a
210.757	0.164	421514	keystroke_a	a	n/a
210.831	0.135	421662	keystroke_s	s	n/a
211.2815	0.09	422563	keystroke_m	m	n/a
211.4315	0.09	422863	keystroke_a	a	n/a
212.032	0.0745	424064	keystroke_Key.space	Key.space	n/a
212.437	0.0595	424874	keystroke_o	o	n/a
213.3215	0.105	426643	keystroke_Key.backspace	Key.backspace	n/a
213.6365	0.0895	427273	keystroke_p	p	n/a
213.771	0.09	427542	keystroke_e	e	n/a
213.906	0.076	427812	keystroke_n	n	n/a
214.0265	0.105	428053	keystroke_g	g	n/a
214.1615	0.06	428323	keystroke_u	u	n/a
214.3415	0.075	428683	keystroke_i	i	n/a
214.611	0.061	429222	keystroke_n	n	n/a
214.8215	0.0905	429643	keystroke_Key.space	Key.space	n/a
214.9865	0.09	429973	keystroke_c	c	n/a
215.1065	0.075	430213	keystroke_o	o	n/a
215.2865	0.075	430573	keystroke_l	l	n/a
215.4065	0.09	430813	keystroke_l	l	n/a
215.4665	0.135	430933	keystroke_a	a	n/a
215.5565	0.075	431113	keystroke_r	r	n/a
215.6465	0.0895	431293	keystroke_Key.space	Key.space	n/a
215.8565	0.06	431713	keystroke_s	s	n/a
215.9915	0.06	431983	keystroke_e	e	n/a
216.0815	0.075	432163	keystroke_n	n	n/a
216.2015	0.1055	432403	keystroke_a	a	n/a
216.292	0.059	432584	keystroke_t	t	n/a
216.396	0.091	432792	keystroke_o	o	n/a
216.471	0.09	432942	keystroke_r	r	n/a
216.606	0.1205	433212	keystroke_Key.enter	Key.enter	n/a
216.732	5.3065	433464	prompt	n/a	grey macromedia injured kept\n
217.402	0.0895	434804	keystroke_g	g	n/a
217.6115	0.1495	435223	keystroke_r	r	n/a
217.731	0.1355	435462	keystroke_e	e	n/a
217.8965	0.09	435793	keystroke_y	y	n/a
218.0465	0.0745	436093	keystroke_Key.space	Key.space	n/a
218.2715	0.075	436543	keystroke_m	m	n/a
218.602	0.134	437204	keystroke_a	a	n/a
218.797	0.074	437594	keystroke_c	c	n/a
218.992	0.0745	437984	keystroke_r	r	n/a
219.111	0.075	438222	keystroke_o	o	n/a
219.411	0.0755	438822	keystroke_m	m	n/a
219.5165	0.075	439033	keystroke_e	e	n/a
219.6515	0.0755	439303	keystroke_d	d	n/a
219.771	0.06	439542	keystroke_i	i	n/a
219.846	0.0755	439692	keystroke_a	a	n/a
219.9965	0.09	439993	keystroke_Key.space	Key.space	n/a
220.2365	0.06	440473	keystroke_i	i	n/a
220.4465	0.075	440893	keystroke_n	n	n/a
220.6415	0.06	441283	keystroke_j	j	n/a
220.792	0.0745	441584	keystroke_u	u	n/a
220.8515	0.09	441703	keystroke_r	r	n/a
220.8965	0.12	441793	keystroke_e	e	n/a
221.046	0.076	442092	keystroke_d	d	n/a
221.106	0.0905	442212	keystroke_Key.space	Key.space	n/a
221.3465	0.075	442693	keystroke_k	k	n/a
221.4365	0.105	442873	keystroke_e	e	n/a
221.587	0.0595	443174	keystroke_p	p	n/a
221.6915	0.12	443383	keystroke_t	t	n/a
221.9615	0.075	443923	keystroke_Key.enter	Key.enter	n/a
222.0435	7.659	444087	prompt	n/a	wells ships simulations islands\n
222.741	0.09	445482	keystroke_w	w	n/a
223.012	0.12	446024	keystroke_e	e	n/a
223.2215	0.075	446443	keystroke_l	l	n/a
223.3565	0.105	446713	keystroke_l	l	n/a
223.627	0.0745	447254	keystroke_Key.space	Key.space	n/a
224.4215	0.105	448843	keystroke_Key.backspace	Key.backspace	n/a
225.0665	0.1195	450133	keystroke_s	s	n/a
225.5315	0.0595	451063	keystroke_Key.space	Key.space	n/a
225.7115	0.0595	451423	keystroke_s	s	n/a
225.8765	0.0745	451753	keystroke_h	h	n/a
225.9965	0.0445	451993	keystroke_i	i	n/a
226.236	0.1055	452472	keystroke_p	p	n/a
226.4315	0.075	452863	keystroke_s	s	n/a
226.5965	0.09	453193	keystroke_Key.space	Key.space	n/a
227.0615	0.09	454123	keystroke_s	s	n/a
227.2265	0.075	454453	keystroke_i	i	n/a
227.4065	0.09	454813	keystroke_m	m	n/a
227.6465	0.06	455293	keystroke_u	u	n/a
227.8715	0.1045	455743	keystroke_l	l	n/a
227.961	0.1205	455922	keystroke_a	a	n/a
228.0515	0.09	456103	keystroke_t	t	n/a
228.1115	0.06	456223	keystroke_i	i	n/a
228.2765	0.09	456553	keystroke_o	o	n/a
228.3805	0.061	456761	keystroke_n	n	n/a
228.5755	0.09	457151	keystroke_s	s	n/a
228.7255	0.076	457451	keystroke_Key.space	Key.space	n/a
228.9815	0.045	457963	keystroke_i	i	n/a
229.0415	0.06	458083	keystroke_s	s	n/a
229.1615	0.075	458323	keystroke_l	l	n/a
229.2375	0.088	458475	keystroke_a	a	n/a
229.371	0.075	458742	keystroke_n	n	n/a
229.447	0.0895	458894	keystroke_d	d	n/a
229.5065	0.0895	459013	keystroke_s	s	n/a
229.612	0.0895	459224	keystroke_Key.enter	Key.enter	n/a
229.707	7.9915	459414	prompt	n/a	weapons violence reputation threads\n
230.3465	0.119	460693	keystroke_w	w	n/a
230.4665	0.1355	460933	keystroke_e	e	n/a
230.571	0.12	461142	keystroke_a	a	n/a
230.8865	0.03	461773	keystroke_o	o	n/a
231.5315	0.105	463063	keystroke_Key.backspace	Key.backspace	n/a
231.8615	0.09	463723	keystroke_p	p	n/a
232.1765	0.1045	464353	keystroke_o	o	n/a
232.686	0.09	465372	keystroke_n	n	n/a
232.8665	0.0895	465733	keystroke_s	s	n/a
233.091	0.09	466182	keystroke_Key.space	Key.space	n/a
233.406	0.0755	466812	keystroke_v	v	n/a
233.7205	0.06	467441	keystroke_i	i	n/a
233.9015	0.06	467803	keystroke_o	o	n/a
234.0965	0.1045	468193	keystroke_l	l	n/a
234.426	0.105	468852	keystroke_e	e	n/a
234.591	0.09	469182	keystroke_n	n	n/a
234.7105	0.106	469421	keystroke_c	c	n/a
234.7715	0.105	469543	keystroke_e	e	n/a
234.8915	0.045	469783	keystroke_Key.space	Key.space	n/a
235.0715	0.12	470143	keystroke_r	r	n/a
235.1465	0.09	470293	keystroke_e	e	n/a
235.2965	0.075	470593	keystroke_p	p	n/a
235.5365	0.06	471073	keystroke_u	u	n/a
235.6265	0.09	471253	keystroke_t	t	n/a
235.7615	0.12	471523	keystroke_a	a	n/a
235.8215	0.135	471643	keystroke_t	t	n/a
235.9415	0.045	471883	keystroke_i	i	n/a
236.0765	0.0895	472153	keystroke_o	o	n/a
236.167	0.0745	472334	keystroke_n	n	n/a
236.3315	0.0745	472663	keystroke_Key.space	Key.space	n/a
236.4515	0.105	472903	keystroke_t	t	n/a
236.5865	0.075	473173	keystroke_h	h	n/a
236.6765	0.105	473353	keystroke_r	r	n/a
236.8565	0.12	473713	keystroke_e	e	n/a
236.9765	0.105	473953	keystroke_a	a	n/a
237.4115	0.1045	474823	keystroke_d	d	n/a
237.471	0.0905	474942	keystroke_s	s	n/a
237.5915	0.105	475183	keystroke_Key.enter	Key.enter	n/a
237.7045	3.714	475409	prompt	n/a	hear marks another dosage\n
238.416	0.075	476832	keystroke_h	h	n/a
238.476	0.0905	476952	keystroke_e	e	n/a
238.5515	0.1495	477103	keystroke_a	a	n/a
238.6565	0.0745	477313	keystroke_r	r	n/a
238.7615	0.0745	477523	keystroke_Key.space	Key.space	n/a
238.956	0.075	477912	keystroke_m	m	n/a
239.0465	0.0895	478093	keystroke_a	a	n/a
239.1215	0.09	478243	keystroke_r	r	n/a
239.2415	0.0745	478483	keystroke_k	k	n/a
239.331	0.0905	478662	keystroke_s	s	n/a
239.466	0.0745	478932	keystroke_Key.space	Key.space	n/a
239.5265	0.075	479053	keystroke_a	a	n/a
239.6915	0.0595	479383	keystroke_n	n	n/a
239.8865	0.045	479773	keystroke_o	o	n/a
239.9615	0.089	479923	keystroke_t	t	n/a
240.0805	0.0605	480161	keystroke_h	h	n/a
240.2015	0.135	480403	keystroke_e	e	n/a
240.3065	0.105	480613	keystroke_r	r	n/a
240.5165	0.075	481033	keystroke_Key.space	Key.space	n/a
240.6515	0.09	481303	keystroke_d	d	n/a
240.7865	0.075	481573	keystroke_o	o	n/a
240.9365	0.12	481873	keystroke_s	s	n/a
241.0115	0.119	482023	keystroke_a	a	n/a
241.1615	0.135	482323	keystroke_g	g	n/a
241.2365	0.105	482473	keystroke_e	e	n/a
241.3115	0.105	482623	keystroke_Key.enter	Key.enter	n/a
241.423	9.04	482846	prompt	n/a	wesley ricky questionnaire nike\n
242.2265	0.134	484453	keystroke_w	w	n/a
242.3455	0.075	484691	keystroke_e	e	n/a
242.7655	0.075	485531	keystroke_s	s	n/a
242.9605	0.106	485921	keystroke_l	l	n/a
243.111	0.075	486222	keystroke_e	e	n/a
243.321	0.075	486642	keystroke_y	y	n/a
243.4705	0.091	486941	keystroke_Key.space	Key.space	n/a
243.576	0.0905	487152	keystroke_r	r	n/a
243.7415	0.0745	487483	keystroke_i	i	n/a
243.7855	0.076	487571	keystroke_c	c	n/a
243.966	0.075	487932	keystroke_k	k	n/a
244.0715	0.0895	488143	keystroke_e	e	n/a
244.3565	0.045	488713	keystroke_Key.space	Key.space	n/a
244.8215	0.0595	489643	keystroke_Key.backspace	Key.backspace	n/a
244.8955	0.0755	489791	keystroke_y	y	n/a
245.541	0.09	491082	keystroke_Key.space	Key.space	n/a
245.7215	0.09	491443	keystroke_q	q	n/a
245.8705	0.09	491741	keystroke_u	u	n/a
245.976	0.135	491952	keystroke_e	e	n/a
246.081	0.12	492162	keystroke_s	s	n/a
246.231	0.0755	492462	keystroke_t	t	n/a
246.3365	0.06	492673	keystroke_i	i	n/a
246.5165	0.0745	493033	keystroke_o	o	n/a
246.606	0.09	493212	keystroke_n	n	n/a
246.846	0.0605	493692	keystroke_a	a	n/a
247.791	0.0755	495582	keystroke_Key.backspace	Key.backspace	n/a
248.196	0.06	496392	keystroke_n	n	n/a
248.6015	0.09	497203	keystroke_a	a	n/a
249.081	0.0755	498162	keystroke_i	i	n/a
249.186	0.06	498372	keystroke_r	r	n/a
249.3955	0.106	498791	keystroke_e	e	n/a
249.5455	0.0755	499091	keystroke_Key.space	Key.space	n/a
249.8165	0.0595	499633	keystroke_n	n	n/a
249.9965	0.06	499993	keystroke_i	i	n/a
250.131	0.105	500262	keystroke_k	k	n/a
250.221	0.1055	500442	keystroke_e	e	n/a
250.3415	0.12	500683	keystroke_Key.enter	Key.enter	n/a
250.4665	8.306	500933	prompt	n/a	epson none partially composed\n
251.1365	0.0745	502273	keystroke_e	e	n/a
251.3015	0.09	502603	keystroke_s	s	n/a
251.406	0.105	502812	keystroke_p	p	n/a
251.6015	0.075	503203	keystroke_o	o	n/a
251.7965	0.075	503593	keystroke_n	n	n/a
251.961	0.0905	503922	keystroke_Key.space	Key.space	n/a
252.1565	0.074	504313	keystroke_n	n	n/a
252.366	0.06	504732	keystroke_o	o	n/a
252.546	0.075	505092	keystroke_n	n	n/a
252.7415	0.06	505483	keystroke_Key.space	Key.space	n/a
253.476	0.12	506952	keystroke_Key.backspace	Key.backspace	n/a
253.956	0.0895	507912	keystroke_e	e	n/a
254.3455	0.09	508691	keystroke_Key.space	Key.space	n/a
254.6915	0.029	509383	keystroke_p	p	n/a
254.7665	0.12	509533	keystroke_a	a	n/a
255.021	0.09	510042	keystroke_r	r	n/a
255.2005	0.0755	510401	keystroke_t	t	n/a
255.351	0.0595	510702	keystroke_i	i	n/a
255.4715	0.0745	510943	keystroke_a	a	n/a
255.5905	0.0755	511181	keystroke_l	l	n/a
255.7265	0.104	511453	keystroke_l	l	n/a
255.8455	0.09	511691	keystroke_y	y	n/a
256.011	0.075	512022	keystroke_Key.space	Key.space	n/a
256.161	0.0605	512322	keystroke_c	c	n/a
256.2365	0.0595	512473	keystroke_o	o	n/a
256.4165	0.06	512833	keystroke_m	m	n/a
256.6265	0.06	513253	keystroke_p	p	n/a
256.7915	0.09	513583	keystroke_o	o	n/a
256.8815	0.12	513763	keystroke_s	s	n/a
257.2115	0.045	514423	keystroke_d	d	n/a
258.1405	0.09	516281	keystroke_Key.backspace	Key.backspace	n/a
258.381	0.105	516762	keystroke_e	e	n/a
258.516	0.12	517032	keystroke_d	d	n/a
258.666	0.105	517332	keystroke_Key.enter	Key.enter	n/a
258.7775	5.9055	517555	prompt	n/a	variations liver factors want\n
259.3865	0.12	518773	keystroke_v	v	n/a
259.4905	0.1355	518981	keystroke_a	a	n/a
259.6105	0.0905	519221	keystroke_r	r	n/a
259.761	0.09	519522	keystroke_i	i	n/a
259.836	0.105	519672	keystroke_a	a	n/a
259.926	0.075	519852	keystroke_t	t	n/a
260.031	0.0755	520062	keystroke_i	i	n/a
260.196	0.06	520392	keystroke_o	o	n/a
260.257	0.0745	520514	keystroke_n	n	n/a
260.4965	0.0895	520993	keystroke_s	s	n/a
260.601	0.06	521202	keystroke_Key.space	Key.space	n/a
260.8115	0.075	521623	keystroke_l	l	n/a
261.0065	0.12	522013	keystroke_v	v	n/a
261.0215	0.03	522043	keystroke_i	i	n/a
261.1865	0.12	522373	keystroke_e	e	n/a
261.7255	0.09	523451	keystroke_Key.backspace	Key.backspace	n/a
261.8765	0.074	523753	keystroke_Key.backspace	Key.backspace	n/a
262.026	0.1055	524052	keystroke_Key.backspace	Key.backspace	n/a
262.237	0.0745	524474	keystroke_i	i	n/a
262.2965	0.105	524593	keystroke_v	v	n/a
262.3855	0.151	524771	keystroke_e	e	n/a
262.4915	0.105	524983	keystroke_r	r	n/a
262.6415	0.075	525283	keystroke_Key.space	Key.space	n/a
262.8365	0.09	525673	keystroke_f	f	n/a
262.9115	0.165	525823	keystroke_a	a	n/a
263.0315	0.06	526063	keystroke_c	c	n/a
263.2265	0.045	526453	keystroke_t	t	n/a
263.2865	0.0895	526573	keystroke_o	o	n/a
263.451	0.0755	526902	keystroke_r	r	n/a
263.5415	0.105	527083	keystroke_s	s	n/a
263.9155	0.0905	527831	keystroke_Key.space	Key.space	n/a
264.007	0.134	528014	keystroke_w	w	n/a
264.111	0.105	528222	keystroke_a	a	n/a
264.2765	0.075	528553	keystroke_n	n	n/a
264.381	0.09	528762	keystroke_t	t	n/a
264.561	0.12	529122	keystroke_Key.enter	Key.enter	n/a
264.686	6.0575	529372	prompt	n/a	subtle swim sticks flooring\n
265.4155	0.0755	530831	keystroke_u	u	n/a
265.506	0.075	531012	keystroke_b	b	n/a
266.0015	0.06	532003	keystroke_Key.backspace	Key.backspace	n/a
266.1665	0.06	532333	keystroke_Key.backspace	Key.backspace	n/a
266.3015	0.105	532603	keystroke_Key.backspace	Key.backspace	n/a
266.4065	0.1045	532813	keystroke_s	s	n/a
266.631	0.06	533262	keystroke_u	u	n/a
266.7215	0.0745	533443	keystroke_b	b	n/a
267.0065	0.075	534013	keystroke_t	t	n/a
267.1265	0.09	534253	keystroke_l	l	n/a
267.2315	0.0895	534463	keystroke_e	e	n/a
267.3665	0.075	534733	keystroke_Key.space	Key.space	n/a
267.471	0.1055	534942	keystroke_w	w	n/a
267.7865	0.06	535573	keystroke_Key.backspace	Key.backspace	n/a
268.146	0.0605	536292	keystroke_s	s	n/a
268.2965	0.0745	536593	keystroke_w	w	n/a
268.4165	0.06	536833	keystroke_i	i	n/a
268.6105	0.061	537221	keystroke_m	m	n/a
268.761	0.0905	537522	keystroke_Key.space	Key.space	n/a
268.8365	0.105	537673	keystroke_s	s	n/a
269.0165	0.075	538033	keystroke_t	t	n/a
269.121	0.061	538242	keystroke_i	i	n/a
269.2105	0.0755	538421	keystroke_c	c	n/a
269.301	0.06	538602	keystroke_k	k	n/a
269.406	0.105	538812	keystroke_s	s	n/a
269.512	0.074	539024	keystroke_Key.space	Key.space	n/a
269.601	0.09	539202	keystroke_f	f	n/a
269.751	0.03	539502	keystroke_l	l	n/a
269.961	0.045	539922	keystroke_o	o	n/a
270.066	0.075	540132	keystroke_o	o	n/a
270.142	0.089	540284	keystroke_r	r	n/a
270.2615	0.075	540523	keystroke_i	i	n/a
270.4565	0.0895	540913	keystroke_n	n	n/a
270.547	0.0745	541094	keystroke_g	g	n/a
270.6365	0.105	541273	keystroke_Key.enter	Key.enter	n/a
270.755	6.7375	541510	prompt	n/a	dosage factor domestic debate\n
271.327	0.1045	542654	keystroke_s	s	n/a
271.6115	0.105	543223	keystroke_Key.backspace	Key.backspace	n/a
271.7315	0.105	543463	keystroke_d	d	n/a
271.8215	0.075	543643	keystroke_o	o	n/a
272.766	0.12	545532	keystroke_s	s	n/a
272.931	0.1355	545862	keystroke_a	a	n/a
273.0965	0.1195	546193	keystroke_g	g	n/a
273.1705	0.121	546341	keystroke_e	e	n/a
273.3515	0.0745	546703	keystroke_Key.space	Key.space	n/a
273.471	0.0905	546942	keystroke_f	f	n/a
273.5765	0.135	547153	keystroke_a	a	n/a
273.6815	0.09	547363	keystroke_c	c	n/a
273.8915	0.075	547783	keystroke_t	t	n/a
274.9565	0.075	549913	keystroke_o	o	n/a
275.0615	0.06	550123	keystroke_r	r	n/a
275.1965	0.075	550393	keystroke_Key.space	Key.space	n/a
275.3465	0.075	550693	keystroke_d	d	n/a
275.4665	0.045	550933	keystroke_o	o	n/a
275.631	0.075	551262	keystroke_m	m	n/a
275.721	0.0605	551442	keystroke_e	e	n/a
275.8715	0.1195	551743	keystroke_s	s	n/a
276.006	0.0755	552012	keystroke_t	t	n/a
276.1115	0.075	552223	keystroke_i	i	n/a
276.2465	0.075	552493	keystroke_c	c	n/a
276.351	0.075	552702	keystroke_Key.space	Key.space	n/a
276.5015	0.1495	553003	keystroke_d	d	n/a
276.636	0.1055	553272	keystroke_e	e	n/a
276.8305	0.091	553661	keystroke_b	b	n/a
277.086	0.0905	554172	keystroke_a	a	n/a
277.191	0.105	554382	keystroke_t	t	n/a
277.266	0.0905	554532	keystroke_e	e	n/a
277.371	0.12	554742	keystroke_Key.enter	Key.enter	n/a
277.497	10.211	554994	prompt	n/a	telling ethnic inline emperor\n
278.2265	0.135	556453	keystroke_t	t	n/a
278.3315	0.09	556663	keystroke_e	e	n/a
278.4365	0.075	556873	keystroke_l	l	n/a
278.5865	0.06	557173	keystroke_l	l	n/a
278.7515	0.075	557503	keystroke_i	i	n/a
278.8115	0.105	557623	keystroke_n	n	n/a
278.8865	0.06	557773	keystroke_g	g	n/a
278.9905	0.075	557981	keystroke_Key.space	Key.space	n/a
279.0815	0.12	558163	keystroke_e	e	n/a
279.3215	0.105	558643	keystroke_t	t	n/a
279.4715	0.0895	558943	keystroke_h	h	n/a
279.681	0.0905	559362	keystroke_n	n	n/a
279.906	0.075	559812	keystroke_i	i	n/a
280.056	0.075	560112	keystroke_c	c	n/a
280.191	0.075	560382	keystroke_Key.space	Key.space	n/a
280.4015	0.075	560803	keystroke_l	l	n/a
280.8065	0.105	561613	keystroke_Key.backspace	Key.backspace	n/a
281.0165	0.075	562033	keystroke_i	i	n/a
281.2115	0.075	562423	keystroke_n	n	n/a
281.4515	0.06	562903	keystroke_c	c	n/a
281.616	0.075	563232	keystroke_l	l	n/a
281.826	0.0455	563652	keystroke_i	i	n/a
282.0065	0.09	564013	keystroke_n	n	n/a
282.471	0.06	564942	keystroke_Key.backspace	Key.backspace	n/a
282.636	0.075	565272	keystroke_Key.backspace	Key.backspace	n/a
282.771	0.1195	565542	keystroke_Key.backspace	Key.backspace	n/a
283.0105	0.0905	566021	keystroke_Key.backspace	Key.backspace	n/a
283.2965	0.074	566593	keystroke_l	l	n/a
283.4905	0.075	566981	keystroke_i	i	n/a
283.6865	0.0745	567373	keystroke_n	n	n/a
283.777	0.0895	567554	keystroke_e	e	n/a
283.881	0.0755	567762	keystroke_Key.space	Key.space	n/a
284.046	0.06	568092	keystroke_e	e	n/a
284.166	0.105	568332	keystroke_p	p	n/a
284.6165	0.0895	569233	keystroke_e	e	n/a
284.9605	0.091	569921	keystroke_Key.backspace	Key.backspace	n/a
285.1105	0.1055	570221	keystroke_Key.backspace	Key.backspace	n/a
285.7565	0.09	571513	keystroke_m	m	n/a
286.116	0.0605	572232	keystroke_p	p	n/a
286.251	0.1355	572502	keystroke_e	e	n/a
286.371	0.09	572742	keystroke_r	r	n/a
287.016	0.0755	574032	keystroke_o	o	n/a
287.1065	0.075	574213	keystroke_r	r	n/a
287.616	0.09	575232	keystroke_Key.enter	Key.enter	n/a
287.7125	6.2355	575425	prompt	n/a	delegation rely panama help\n
288.381	0.165	576762	keystroke_d	d	n/a
288.516	0.0905	577032	keystroke_e	e	n/a
288.5915	0.09	577183	keystroke_l	l	n/a
288.7265	0.074	577453	keystroke_a	a	n/a
289.1615	0.0745	578323	keystroke_Key.backspace	Key.backspace	n/a
289.7165	0.09	579433	keystroke_e	e	n/a
289.926	0.06	579852	keystroke_g	g	n/a
290.046	0.12	580092	keystroke_a	a	n/a
290.136	0.075	580272	keystroke_t	t	n/a
290.271	0.075	580542	keystroke_i	i	n/a
290.436	0.1055	580872	keystroke_o	o	n/a
290.526	0.0905	581052	keystroke_n	n	n/a
290.736	0.0905	581472	keystroke_Key.space	Key.space	n/a
291.1115	0.1195	582223	keystroke_r	r	n/a
291.1865	0.09	582373	keystroke_e	e	n/a
291.261	0.0905	582522	keystroke_l	l	n/a
291.4415	0.0745	582883	keystroke_y	y	n/a
291.576	0.075	583152	keystroke_Key.space	Key.space	n/a
292.191	0.0755	584382	keystroke_p	p	n/a
292.311	0.0905	584622	keystroke_a	a	n/a
292.461	0.075	584922	keystroke_n	n	n/a
292.581	0.09	585162	keystroke_a	a	n/a
292.7915	0.0745	585583	keystroke_m	m	n/a
292.9115	0.09	585823	keystroke_a	a	n/a
293.0315	0.075	586063	keystroke_Key.space	Key.space	n/a
293.3165	0.12	586633	keystroke_h	h	n/a
293.4065	0.105	586813	keystroke_e	e	n/a
293.4815	0.075	586963	keystroke_l	l	n/a
293.6615	0.075	587323	keystroke_p	p	n/a
293.8115	0.1345	587623	keystroke_Key.enter	Key.enter	n/a
293.952	9.4755	587904	prompt	n/a	celebs consortium parks excess\n
294.6515	0.135	589303	keystroke_c	c	n/a
294.7415	0.105	589483	keystroke_e	e	n/a
294.8615	0.105	589723	keystroke_l	l	n/a
294.9815	0.12	589963	keystroke_b	b	n/a
295.0715	0.075	590143	keystroke_e	e	n/a
295.5815	0.074	591163	keystroke_Key.backspace	Key.backspace	n/a
295.7315	0.089	591463	keystroke_Key.backspace	Key.backspace	n/a
296.406	0.075	592812	keystroke_e	e	n/a
296.556	0.0905	593112	keystroke_b	b	n/a
297.096	0.1055	594192	keystroke_s	s	n/a
297.3505	0.0905	594701	keystroke_Key.space	Key.space	n/a
297.501	0.0895	595002	keystroke_c	c	n/a
297.606	0.0605	595212	keystroke_o	o	n/a
297.8015	0.06	595603	keystroke_n	n	n/a
297.8765	0.12	595753	keystroke_s	s	n/a
298.0115	0.09	596023	keystroke_o	o	n/a
298.1165	0.09	596233	keystroke_r	r	n/a
298.7165	0.075	597433	keystroke_t	t	n/a
298.821	0.075	597642	keystroke_i	i	n/a
299.016	0.0595	598032	keystroke_u	u	n/a
299.346	0.0755	598692	keystroke_m	m	n/a
299.646	0.1345	599292	keystroke_Key.space	Key.space	n/a
300.186	0.12	600372	keystroke_p	p	n/a
300.591	0.15	601182	keystroke_a	a	n/a
300.711	0.1055	601422	keystroke_r	r	n/a
300.831	0.09	601662	keystroke_k	k	n/a
300.9665	0.0745	601933	keystroke_s	s	n/a
301.071	0.0755	602142	keystroke_Key.space	Key.space	n/a
301.221	0.12	602442	keystroke_e	e	n/a
301.791	0.1045	603582	keystroke_x	x	n/a
302.136	0.06	604272	keystroke_e	e	n/a
302.721	0.0895	605442	keystroke_Key.backspace	Key.backspace	n/a
302.8115	0.134	605623	keystroke_c	c	n/a
302.8705	0.105	605741	keystroke_e	e	n/a
303.0505	0.0755	606101	keystroke_s	s	n/a
303.1855	0.09	606371	keystroke_s	s	n/a
303.2905	0.135	606581	keystroke_Key.enter	Key.enter	n/a
303.431	7.0015	606862	prompt	n/a	journalists cache traveler dust\n
304.3405	0.076	608681	keystroke_j	j	n/a
304.536	0.0745	609072	keystroke_o	o	n/a
304.716	0.075	609432	keystroke_u	u	n/a
304.8655	0.0905	609731	keystroke_r	r	n/a
305.286	0.0755	610572	keystroke_n	n	n/a
305.466	0.075	610932	keystroke_a	a	n/a
305.7965	0.015	611593	keystroke_i	i	n/a
306.2315	0.1045	612463	keystroke_Key.backspace	Key.backspace	n/a
306.3955	0.105	612791	keystroke_l	l	n/a
306.6215	0.0595	613243	keystroke_i	i	n/a
306.711	0.105	613422	keystroke_s	s	n/a
306.831	0.1205	613662	keystroke_t	t	n/a
306.966	0.06	613932	keystroke_s	s	n/a
307.1615	0.0595	614323	keystroke_Key.space	Key.space	n/a
307.476	0.135	614952	keystroke_c	c	n/a
307.596	0.15	615192	keystroke_a	a	n/a
307.731	0.09	615462	keystroke_c	c	n/a
307.896	0.075	615792	keystroke_h	h	n/a
307.9865	0.1045	615973	keystroke_e	e	n/a
308.121	0.1055	616242	keystroke_Key.space	Key.space	n/a
308.271	0.0905	616542	keystroke_t	t	n/a
308.451	0.1195	616902	keystroke_r	r	n/a
308.5555	0.105	617111	keystroke_a	a	n/a
308.676	0.1205	617352	keystroke_v	v	n/a
308.781	0.0755	617562	keystroke_e	e	n/a
308.9015	0.09	617803	keystroke_l	l	n/a
309.006	0.075	618012	keystroke_e	e	n/a
309.381	0.09	618762	keystroke_r	r	n/a
309.5315	0.0895	619063	keystroke_Key.space	Key.space	n/a
309.651	0.0755	619302	keystroke_d	d	n/a
309.8155	0.061	619631	keystroke_u	u	n/a
309.8905	0.06	619781	keystroke_s	s	n/a
309.9965	0.0745	619993	keystroke_t	t	n/a
310.326	0.105	620652	keystroke_Key.enter	Key.enter	n/a
310.4365	5.816	620873	prompt	n/a	axis violation column searches\n
311.0315	0.105	622063	keystroke_a	a	n/a
311.2565	0.1045	622513	keystroke_x	x	n/a
311.436	0.075	622872	keystroke_i	i	n/a
311.6315	0.0895	623263	keystroke_s	s	n/a
311.781	0.06	623562	keystroke_Key.space	Key.space	n/a
312.021	0.0745	624042	keystroke_v	v	n/a
312.3365	0.059	624673	keystroke_i	i	n/a
312.5165	0.0595	625033	keystroke_o	o	n/a
312.666	0.09	625332	keystroke_l	l	n/a
312.7865	0.1045	625573	keystroke_a	a	n/a
312.876	0.075	625752	keystroke_t	t	n/a
312.966	0.06	625932	keystroke_i	i	n/a
313.131	0.075	626262	keystroke_o	o	n/a
313.236	0.0895	626472	keystroke_n	n	n/a
313.3855	0.075	626771	keystroke_Key.space	Key.space	n/a
313.5805	0.06	627161	keystroke_c	c	n/a
313.6705	0.061	627341	keystroke_o	o	n/a
313.8355	0.0905	627671	keystroke_l	l	n/a
314.2105	0.045	628421	keystroke_u	u	n/a
314.406	0.0755	628812	keystroke_m	m	n/a
314.6155	0.06	629231	keystroke_n	n	n/a
314.8255	0.075	629651	keystroke_Key.space	Key.space	n/a
315.0965	0.0895	630193	keystroke_s	s	n/a
315.3055	0.135	630611	keystroke_e	e	n/a
315.4255	0.1355	630851	keystroke_a	a	n/a
315.5305	0.0605	631061	keystroke_r	r	n/a
315.711	0.045	631422	keystroke_c	c	n/a
315.801	0.06	631602	keystroke_h	h	n/a
315.891	0.0605	631782	keystroke_e	e	n/a
316.026	0.0905	632052	keystroke_s	s	n/a
316.146	0.1045	632292	keystroke_Key.enter	Key.enter	n/a
316.2585	5.5445	632517	prompt	n/a	wish besides harmful upset\n
316.821	0.12	633642	keystroke_w	w	n/a
317.046	0.06	634092	keystroke_i	i	n/a
317.091	0.09	634182	keystroke_s	s	n/a
317.226	0.075	634452	keystroke_h	h	n/a
317.4065	0.0595	634813	keystroke_Key.space	Key.space	n/a
317.5855	0.045	635171	keystroke_b	b	n/a
317.646	0.075	635292	keystroke_e	e	n/a
317.7955	0.09	635591	keystroke_s	s	n/a
317.961	0.06	635922	keystroke_i	i	n/a
318.051	0.135	636102	keystroke_d	d	n/a
318.1565	0.0895	636313	keystroke_e	e	n/a
318.321	0.105	636642	keystroke_s	s	n/a
318.396	0.1045	636792	keystroke_Key.space	Key.space	n/a
318.696	0.045	637392	keystroke_h	h	n/a
318.756	0.1045	637512	keystroke_a	a	n/a
318.8155	0.105	637631	keystroke_r	r	n/a
318.966	0.09	637932	keystroke_m	m	n/a
319.701	0.075	639402	keystroke_f	f	n/a
319.791	0.06	639582	keystroke_u	u	n/a
320.016	0.03	640032	keystroke_l	l	n/a
320.6765	0.0745	641353	keystroke_Key.space	Key.space	n/a
321.0655	0.046	642131	keystroke_u	u	n/a
321.276	0.06	642552	keystroke_p	p	n/a
321.351	0.0605	642702	keystroke_s	s	n/a
321.501	0.1195	643002	keystroke_e	e	n/a
321.6055	0.075	643211	keystroke_t	t	n/a
321.7105	0.09	643421	keystroke_Key.enter	Key.enter	n/a
321.8065	11.486	643613	prompt	n/a	pulse recommended shouldn't've reflect\n
322.4905	0.105	644981	keystroke_p	p	n/a
322.7315	0.044	645463	keystroke_l	l	n/a
323.5255	0.1055	647051	keystroke_Key.backspace	Key.backspace	n/a
324.186	0.06	648372	keystroke_u	u	n/a
324.486	0.09	648972	keystroke_l	l	n/a
324.7405	0.09	649481	keystroke_s	s	n/a
324.9355	0.0605	649871	keystroke_e	e	n/a
325.0705	0.075	650141	keystroke_Key.space	Key.space	n/a
325.1755	0.1205	650351	keystroke_r	r	n/a
325.2655	0.0905	650531	keystroke_e	e	n/a
325.401	0.075	650802	keystroke_c	c	n/a
325.521	0.06	651042	keystroke_o	o	n/a
325.686	0.06	651372	keystroke_m	m	n/a
325.821	0.09	651642	keystroke_m	m	n/a
325.926	0.09	651852	keystroke_e	e	n/a
326.046	0.0755	652092	keystroke_n	n	n/a
326.166	0.105	652332	keystroke_d	d	n/a
326.256	0.1355	652512	keystroke_e	e	n/a
326.406	0.075	652812	keystroke_d	d	n/a
326.481	0.0905	652962	keystroke_Key.space	Key.space	n/a
326.691	0.0905	653382	keystroke_s	s	n/a
326.8715	0.06	653743	keystroke_h	h	n/a
327.2605	0.1055	654521	keystroke_o	o	n/a
327.4705	0.06	654941	keystroke_u	u	n/a
327.681	0.0605	655362	keystroke_l	l	n/a
328.2965	0.075	656593	keystroke_d	d	n/a
329.3165	0.09	658633	keystroke_n	n	n/a
330.126	0.1055	660252	keystroke_'	'	n/a
330.621	0.09	661242	keystroke_t	t	n/a
331.3415	0.089	662683	keystroke_'	'	n/a
331.5065	0.1795	663013	keystroke_v	v	n/a
331.6115	0.1195	663223	keystroke_e	e	n/a
332.2565	0.09	664513	keystroke_Key.space	Key.space	n/a
332.3315	0.09	664663	keystroke_r	r	n/a
332.4065	0.09	664813	keystroke_e	e	n/a
332.5415	0.075	665083	keystroke_f	f	n/a
332.6465	0.09	665293	keystroke_l	l	n/a
332.7215	0.1195	665443	keystroke_e	e	n/a
332.8265	0.1045	665653	keystroke_c	c	n/a
333.036	0.06	666072	keystroke_t	t	n/a
333.1555	0.136	666311	keystroke_Key.enter	Key.enter	n/a
333.2965	9.971	666593	prompt	n/a	airline actual thickness crown\n
333.906	0.135	667812	keystroke_a	a	n/a
334.026	0.09	668052	keystroke_r	r	n/a
334.1615	0.0445	668323	keystroke_i	i	n/a
334.8805	0.09	669761	keystroke_Key.backspace	Key.backspace	n/a
335.2705	0.075	670541	keystroke_Key.backspace	Key.backspace	n/a
335.6465	0.044	671293	keystroke_i	i	n/a
335.721	0.075	671442	keystroke_r	r	n/a
335.9165	0.044	671833	keystroke_c	c	n/a
336.711	0.105	673422	keystroke_Key.backspace	Key.backspace	n/a
337.2515	0.074	674503	keystroke_l	l	n/a
337.4605	0.0605	674921	keystroke_i	i	n/a
337.626	0.075	675252	keystroke_n	n	n/a
337.716	0.0905	675432	keystroke_e	e	n/a
337.821	0.075	675642	keystroke_Key.space	Key.space	n/a
338.001	0.105	676002	keystroke_a	a	n/a
338.076	0.09	676152	keystroke_c	c	n/a
338.2865	0.0295	676573	keystroke_t	t	n/a
338.346	0.06	676692	keystroke_u	u	n/a
338.466	0.105	676932	keystroke_a	a	n/a
338.661	0.09	677322	keystroke_l	l	n/a
338.841	0.09	677682	keystroke_y	y	n/a
339.051	0.0455	678102	keystroke_Key.space	Key.space	n/a
339.816	0.06	679632	keystroke_Key.backspace	Key.backspace	n/a
340.176	0.075	680352	keystroke_Key.backspace	Key.backspace	n/a
341.016	0.09	682032	keystroke_Key.space	Key.space	n/a
341.271	0.09	682542	keystroke_t	t	n/a
341.481	0.0605	682962	keystroke_h	h	n/a
341.5865	0.075	683173	keystroke_i	i	n/a
341.6905	0.061	683381	keystroke_c	c	n/a
341.781	0.075	683562	keystroke_k	k	n/a
341.9765	0.0745	683953	keystroke_n	n	n/a
342.066	0.075	684132	keystroke_e	e	n/a
342.246	0.045	684492	keystroke_s	s	n/a
342.3505	0.0605	684701	keystroke_s	s	n/a
342.4405	0.09	684881	keystroke_Key.space	Key.space	n/a
342.516	0.0745	685032	keystroke_c	c	n/a
342.696	0.06	685392	keystroke_r	r	n/a
342.7865	0.03	685573	keystroke_o	o	n/a
342.8465	0.12	685693	keystroke_w	w	n/a
342.9805	0.061	685961	keystroke_n	n	n/a
343.176	0.09	686352	keystroke_Key.enter	Key.enter	n/a
343.2705	6.792	686541	prompt	n/a	select revisions songs metallica\n
343.851	0.0895	687702	keystroke_r	r	n/a
344.091	0.09	688182	keystroke_Key.backspace	Key.backspace	n/a
344.361	0.06	688722	keystroke_s	s	n/a
344.541	0.03	689082	keystroke_e	e	n/a
345.2005	0.0905	690401	keystroke_l	l	n/a
345.321	0.0895	690642	keystroke_e	e	n/a
345.4705	0.105	690941	keystroke_c	c	n/a
346.0565	0.044	692113	keystroke_t	t	n/a
346.2965	0.074	692593	keystroke_Key.space	Key.space	n/a
346.4305	0.135	692861	keystroke_r	r	n/a
346.5505	0.0905	693101	keystroke_e	e	n/a
346.671	0.075	693342	keystroke_v	v	n/a
346.791	0.075	693582	keystroke_i	i	n/a
346.881	0.06	693762	keystroke_s	s	n/a
346.956	0.0895	693912	keystroke_i	i	n/a
347.091	0.0755	694182	keystroke_o	o	n/a
347.1365	0.105	694273	keystroke_n	n	n/a
347.3765	0.089	694753	keystroke_s	s	n/a
347.4805	0.0905	694961	keystroke_Key.space	Key.space	n/a
347.706	0.0895	695412	keystroke_s	s	n/a
347.7815	0.059	695563	keystroke_o	o	n/a
347.961	0.075	695922	keystroke_n	n	n/a
348.021	0.105	696042	keystroke_g	g	n/a
348.141	0.075	696282	keystroke_s	s	n/a
348.171	0.075	696342	keystroke_Key.space	Key.space	n/a
348.366	0.0745	696732	keystroke_m	m	n/a
348.396	0.105	696792	keystroke_e	e	n/a
348.5605	0.0905	697121	keystroke_t	t	n/a
349.2205	0.09	698441	keystroke_a	a	n/a
349.3555	0.045	698711	keystroke_l	l	n/a
349.4905	0.06	698981	keystroke_l	l	n/a
349.656	0.0745	699312	keystroke_i	i	n/a
349.7005	0.1355	699401	keystroke_c	c	n/a
349.806	0.1045	699612	keystroke_a	a	n/a
349.9405	0.12	699881	keystroke_Key.enter	Key.enter	n/a
350.066	5.0065	700132	prompt	n/a	worked gerald we crossing\n
350.841	0.105	701682	keystroke_w	w	n/a
350.9315	0.074	701863	keystroke_o	o	n/a
351.0215	0.074	702043	keystroke_r	r	n/a
351.1105	0.09	702221	keystroke_k	k	n/a
351.2005	0.1055	702401	keystroke_e	e	n/a
351.336	0.075	702672	keystroke_d	d	n/a
351.426	0.06	702852	keystroke_Key.space	Key.space	n/a
351.5465	0.0895	703093	keystroke_g	g	n/a
351.621	0.1345	703242	keystroke_e	e	n/a
351.726	0.1195	703452	keystroke_r	r	n/a
351.8605	0.091	703721	keystroke_a	a	n/a
351.9665	0.09	703933	keystroke_l	l	n/a
352.0705	0.091	704141	keystroke_d	d	n/a
352.2205	0.075	704441	keystroke_Key.space	Key.space	n/a
352.3105	0.15	704621	keystroke_w	w	n/a
352.4155	0.09	704831	keystroke_e	e	n/a
352.5505	0.06	705101	keystroke_Key.space	Key.space	n/a
352.656	0.0595	705312	keystroke_c	c	n/a
352.836	0.06	705672	keystroke_r	r	n/a
352.941	0.06	705882	keystroke_o	o	n/a
353.091	0.06	706182	keystroke_o	o	n/a
353.3905	0.045	706781	keystroke_Key.backspace	Key.backspace	n/a
353.9455	0.0755	707891	keystroke_s	s	n/a
354.471	0.12	708942	keystroke_s	s	n/a
354.621	0.06	709242	keystroke_i	i	n/a
354.786	0.075	709572	keystroke_n	n	n/a
354.846	0.075	709692	keystroke_g	g	n/a
354.9655	0.105	709931	keystroke_Key.enter	Key.enter	n/a
355.0765	8.6805	710153	prompt	n/a	monster analyze encouraged occasionally\n
355.701	0.06	711402	keystroke_m	m	n/a
355.896	0.06	711792	keystroke_o	o	n/a
355.956	0.105	711912	keystroke_s	s	n/a
356.7955	0.0905	713591	keystroke_Key.backspace	Key.backspace	n/a
357.141	0.06	714282	keystroke_n	n	n/a
357.261	0.09	714522	keystroke_s	s	n/a
357.471	0.075	714942	keystroke_t	t	n/a
357.531	0.135	715062	keystroke_e	e	n/a
357.636	0.09	715272	keystroke_r	r	n/a
357.786	0.0605	715572	keystroke_Key.space	Key.space	n/a
357.9365	0.074	715873	keystroke_a	a	n/a
358.0415	0.089	716083	keystroke_n	n	n/a
358.2055	0.061	716411	keystroke_a	a	n/a
358.4005	0.06	716801	keystroke_l	l	n/a
359.0005	0.076	718001	keystroke_y	y	n/a
359.3455	0.165	718691	keystroke_z	z	n/a
359.4805	0.1205	718961	keystroke_e	e	n/a
359.676	0.075	719352	keystroke_Key.space	Key.space	n/a
359.886	0.0895	719772	keystroke_e	e	n/a
360.0055	0.0605	720011	keystroke_n	n	n/a
360.1255	0.09	720251	keystroke_c	c	n/a
360.2765	0.0745	720553	keystroke_o	o	n/a
360.486	0.06	720972	keystroke_u	u	n/a
360.561	0.1045	721122	keystroke_r	r	n/a
360.711	0.1055	721422	keystroke_a	a	n/a
360.8315	0.1345	721663	keystroke_g	g	n/a
360.906	0.105	721812	keystroke_e	e	n/a
361.1465	0.0595	722293	keystroke_d	d	n/a
361.266	0.075	722532	keystroke_Key.space	Key.space	n/a
361.866	0.1045	723732	keystroke_o	o	n/a
362.0755	0.076	724151	keystroke_c	c	n/a
362.2255	0.1055	724451	keystroke_c	c	n/a
362.4055	0.15	724811	keystroke_a	a	n/a
362.5255	0.105	725051	keystroke_s	s	n/a
362.7805	0.06	725561	keystroke_i	i	n/a
362.9455	0.06	725891	keystroke_o	o	n/a
363.126	0.06	726252	keystroke_n	n	n/a
363.201	0.0905	726402	keystroke_a	a	n/a
363.321	0.06	726642	keystroke_l	l	n/a
363.426	0.105	726852	keystroke_l	l	n/a
363.516	0.09	727032	keystroke_y	y	n/a
363.621	0.135	727242	keystroke_Key.enter	Key.enter	n/a
363.7625	7.24	727525	prompt	n/a	freebsd assumptions coalition gnome\n
364.3705	0.1055	728741	keystroke_f	f	n/a
364.5955	0.135	729191	keystroke_r	r	n/a
364.7455	0.0755	729491	keystroke_e	e	n/a
364.896	0.09	729792	keystroke_e	e	n/a
365.136	0.1045	730272	keystroke_b	b	n/a
365.3005	0.135	730601	keystroke_s	s	n/a
365.4665	0.1195	730933	keystroke_d	d	n/a
365.856	0.075	731712	keystroke_Key.space	Key.space	n/a
365.9605	0.09	731921	keystroke_a	a	n/a
366.1555	0.06	732311	keystroke_s	s	n/a
366.291	0.09	732582	keystroke_s	s	n/a
366.3955	0.0605	732791	keystroke_u	u	n/a
366.5605	0.09	733121	keystroke_m	m	n/a
366.8005	0.09	733601	keystroke_p	p	n/a
367.086	0.105	734172	keystroke_t	t	n/a
367.221	0.075	734442	keystroke_i	i	n/a
367.371	0.09	734742	keystroke_o	o	n/a
367.431	0.09	734862	keystroke_n	n	n/a
367.656	0.105	735312	keystroke_s	s	n/a
367.8355	0.0755	735671	keystroke_Key.space	Key.space	n/a
368.031	0.0745	736062	keystroke_c	c	n/a
368.271	0.015	736542	keystroke_o	o	n/a
368.391	0.075	736782	keystroke_a	a	n/a
368.481	0.09	736962	keystroke_l	l	n/a
368.691	0.06	737382	keystroke_i	i	n/a
368.826	0.09	737652	keystroke_t	t	n/a
368.901	0.06	737802	keystroke_i	i	n/a
369.0655	0.075	738131	keystroke_o	o	n/a
369.1255	0.09	738251	keystroke_n	n	n/a
369.2905	0.0755	738581	keystroke_Key.space	Key.space	n/a
369.411	0.105	738822	keystroke_g	g	n/a
369.576	0.06	739152	keystroke_n	n	n/a
369.7705	0.0755	739541	keystroke_o	o	n/a
369.861	0.075	739722	keystroke_s	s	n/a
370.446	0.075	740892	keystroke_Key.backspace	Key.backspace	n/a
370.671	0.075	741342	keystroke_m	m	n/a
370.761	0.09	741522	keystroke_e	e	n/a
370.896	0.105	741792	keystroke_Key.enter	Key.enter	n/a
371.007	15.955	742014	prompt	n/a	can environmental conducting navigator\n
376.7785	0.057	753557	keystroke_c	c	n/a
376.821	0.1045	753642	keystroke_a	a	n/a
376.866	0.1045	753732	keystroke_n	n	n/a
377.1515	0.1045	754303	keystroke_Key.space	Key.space	n/a
377.496	0.09	754992	keystroke_e	e	n/a
377.661	0.075	755322	keystroke_n	n	n/a
377.946	0.0895	755892	keystroke_v	v	n/a
378.141	0.0305	756282	keystroke_i	i	n/a
378.3515	0.089	756703	keystroke_r	r	n/a
378.4715	0.06	756943	keystroke_o	o	n/a
378.6665	0.0745	757333	keystroke_n	n	n/a
378.891	0.075	757782	keystroke_m	m	n/a
378.9965	0.1045	757993	keystroke_e	e	n/a
379.1155	0.06	758231	keystroke_n	n	n/a
379.191	0.0895	758382	keystroke_t	t	n/a
379.3555	0.075	758711	keystroke_a	a	n/a
379.4315	0.0745	758863	keystroke_l	l	n/a
379.5955	0.0455	759191	keystroke_Key.space	Key.space	n/a
379.776	0.045	759552	keystroke_c	c	n/a
379.806	0.06	759612	keystroke_o	o	n/a
379.9855	0.075	759971	keystroke_n	n	n/a
380.0765	0.089	760153	keystroke_d	d	n/a
380.196	0.06	760392	keystroke_u	u	n/a
380.301	0.105	760602	keystroke_t	t	n/a
380.5855	0.0605	761171	keystroke_n	n	n/a
381.081	0.105	762162	keystroke_Key.backspace	Key.backspace	n/a
382.221	0.135	764442	keystroke_Key.backspace	Key.backspace	n/a
382.446	0.09	764892	keystroke_c	c	n/a
382.8365	0.074	765673	keystroke_t	t	n/a
382.9705	0.0905	765941	keystroke_i	i	n/a
383.226	0.0595	766452	keystroke_n	n	n/a
383.301	0.0595	766602	keystroke_g	g	n/a
383.4505	0.03	766901	keystroke_Key.space	Key.space	n/a
383.9755	0.076	767951	keystroke_n	n	n/a
384.0655	0.121	768131	keystroke_a	a	n/a
384.1555	0.076	768311	keystroke_v	v	n/a
384.2915	0.045	768583	keystroke_i	i	n/a
385.356	0.09	770712	keystroke_g	g	n/a
385.461	0.12	770922	keystroke_a	a	n/a
385.551	0.0895	771102	keystroke_t	t	n/a
385.6555	0.105	771311	keystroke_o	o	n/a
385.791	0.1195	771582	keystroke_r	r	n/a
386.8115	0.149	773623	keystroke_Key.enter	Key.enter	n/a
386.966	6.8365	773932	prompt	n/a	developed mode processed victory\n
387.6365	0.1345	775273	keystroke_d	d	n/a
387.741	0.12	775482	keystroke_e	e	n/a
387.891	0.09	775782	keystroke_v	v	n/a
388.011	0.075	776022	keystroke_e	e	n/a
388.0405	0.075	776081	keystroke_l	l	n/a
388.686	0.0595	777372	keystroke_o	o	n/a
388.8665	0.0595	777733	keystroke_p	p	n/a
388.926	0.105	777852	keystroke_e	e	n/a
389.331	0.09	778662	keystroke_d	d	n/a
389.5105	0.06	779021	keystroke_Key.space	Key.space	n/a
389.7205	0.0605	779441	keystroke_m	m	n/a
389.9015	0.0745	779803	keystroke_o	o	n/a
389.9605	0.1655	779921	keystroke_d	d	n/a
390.0665	0.104	780133	keystroke_e	e	n/a
390.1555	0.0905	780311	keystroke_Key.space	Key.space	n/a
390.3805	0.091	780761	keystroke_p	p	n/a
390.4715	0.089	780943	keystroke_r	r	n/a
390.5905	0.09	781181	keystroke_o	o	n/a
390.771	0.15	781542	keystroke_c	c	n/a
390.861	0.105	781722	keystroke_e	e	n/a
391.0715	0.06	782143	keystroke_s	s	n/a
391.191	0.09	782382	keystroke_s	s	n/a
391.311	0.075	782622	keystroke_e	e	n/a
391.5805	0.06	783161	keystroke_d	d	n/a
392.1655	0.075	784331	keystroke_Key.space	Key.space	n/a
392.3615	0.074	784723	keystroke_v	v	n/a
392.496	0.0595	784992	keystroke_i	i	n/a
392.5855	0.09	785171	keystroke_c	c	n/a
392.841	0.0145	785682	keystroke_t	t	n/a
392.916	0.075	785832	keystroke_o	o	n/a
393.321	0.075	786642	keystroke_r	r	n/a
393.531	0.09	787062	keystroke_y	y	n/a
393.681	0.12	787362	keystroke_Key.enter	Key.enter	n/a
393.806	6.4015	787612	prompt	n/a	qualified forty argue anyway\n
394.461	0.075	788922	keystroke_q	q	n/a
394.596	0.09	789192	keystroke_u	u	n/a
394.761	0.105	789522	keystroke_a	a	n/a
394.956	0.09	789912	keystroke_l	l	n/a
395.166	0.06	790332	keystroke_i	i	n/a
395.256	0.12	790512	keystroke_f	f	n/a
395.391	0.0755	790782	keystroke_i	i	n/a
395.526	0.1045	791052	keystroke_e	e	n/a
395.691	0.0895	791382	keystroke_d	d	n/a
395.7955	0.0755	791591	keystroke_Key.space	Key.space	n/a
395.946	0.0895	791892	keystroke_f	f	n/a
396.096	0.0745	792192	keystroke_o	o	n/a
396.1555	0.091	792311	keystroke_r	r	n/a
396.4105	0.0605	792821	keystroke_t	t	n/a
396.561	0.075	793122	keystroke_y	y	n/a
396.696	0.09	793392	keystroke_Key.space	Key.space	n/a
396.801	0.1205	793602	keystroke_a	a	n/a
397.101	0.0895	794202	keystroke_r	r	n/a
397.2955	0.0455	794591	keystroke_u	u	n/a
397.3255	0.0455	794651	keystroke_g	g	n/a
397.9855	0.075	795971	keystroke_Key.backspace	Key.backspace	n/a
398.421	0.0895	796842	keystroke_Key.backspace	Key.backspace	n/a
398.691	0.075	797382	keystroke_g	g	n/a
398.871	0.06	797742	keystroke_u	u	n/a
398.9765	0.0895	797953	keystroke_e	e	n/a
399.126	0.09	798252	keystroke_Key.space	Key.space	n/a
399.246	0.1195	798492	keystroke_a	a	n/a
399.351	0.0595	798702	keystroke_n	n	n/a
399.4855	0.06	798971	keystroke_y	y	n/a
399.681	0.06	799362	keystroke_w	w	n/a
399.726	0.0605	799452	keystroke_a	a	n/a
399.8605	0.091	799721	keystroke_y	y	n/a
400.086	0.12	800172	keystroke_Key.enter	Key.enter	n/a
400.211	5.0215	800422	prompt	n/a	we've along partly floyd\n
400.8805	0.076	801761	keystroke_w	w	n/a
401.091	0.09	802182	keystroke_e	e	n/a
401.5705	0.0905	803141	keystroke_'	'	n/a
401.691	0.1355	803382	keystroke_v	v	n/a
401.7665	0.119	803533	keystroke_e	e	n/a
401.9015	0.074	803803	keystroke_Key.space	Key.space	n/a
402.276	0.09	804552	keystroke_a	a	n/a
402.381	0.0755	804762	keystroke_l	l	n/a
402.5455	0.061	805091	keystroke_o	o	n/a
402.726	0.06	805452	keystroke_n	n	n/a
402.816	0.09	805632	keystroke_g	g	n/a
402.8905	0.09	805781	keystroke_Key.space	Key.space	n/a
403.131	0.0745	806262	keystroke_p	p	n/a
403.221	0.1205	806442	keystroke_a	a	n/a
403.281	0.1045	806562	keystroke_r	r	n/a
403.7165	0.0745	807433	keystroke_t	t	n/a
403.926	0.105	807852	keystroke_l	l	n/a
404.0455	0.09	808091	keystroke_y	y	n/a
404.2405	0.075	808481	keystroke_Key.space	Key.space	n/a
404.4065	0.09	808813	keystroke_f	f	n/a
404.5115	0.06	809023	keystroke_l	l	n/a
404.6465	0.09	809293	keystroke_o	o	n/a
404.781	0.075	809562	keystroke_y	y	n/a
405.006	0.06	810012	keystroke_d	d	n/a
405.111	0.12	810222	keystroke_Key.enter	Key.enter	n/a
405.2385	7.1195	810477	prompt	n/a	privilege minimum baptist directly\n
405.9055	0.0905	811811	keystroke_p	p	n/a
406.1465	0.06	812293	keystroke_i	i	n/a
406.2365	0.09	812473	keystroke_v	v	n/a
406.4015	0.0595	812803	keystroke_i	i	n/a
406.5965	0.0895	813193	keystroke_l	l	n/a
406.881	0.1045	813762	keystroke_e	e	n/a
407.0155	0.1355	814031	keystroke_g	g	n/a
407.1055	0.105	814211	keystroke_e	e	n/a
407.361	0.06	814722	keystroke_Key.space	Key.space	n/a
407.676	0.0745	815352	keystroke_m	m	n/a
407.8855	0.046	815771	keystroke_i	i	n/a
408.051	0.0745	816102	keystroke_n	n	n/a
408.2315	0.0595	816463	keystroke_i	i	n/a
408.3965	0.0745	816793	keystroke_m	m	n/a
408.7405	0.0605	817481	keystroke_u	u	n/a
408.9655	0.09	817931	keystroke_m	m	n/a
409.1755	0.075	818351	keystroke_Key.space	Key.space	n/a
409.596	0.09	819192	keystroke_b	b	n/a
409.716	0.1055	819432	keystroke_a	a	n/a
409.866	0.09	819732	keystroke_p	p	n/a
410.1055	0.09	820211	keystroke_t	t	n/a
410.3465	0.0745	820693	keystroke_i	i	n/a
410.436	0.0895	820872	keystroke_s	s	n/a
410.5555	0.0455	821111	keystroke_t	t	n/a
410.721	0.075	821442	keystroke_Key.space	Key.space	n/a
411.2155	0.0905	822431	keystroke_d	d	n/a
411.411	0.045	822822	keystroke_i	i	n/a
411.4865	0.089	822973	keystroke_r	r	n/a
411.561	0.1045	823122	keystroke_e	e	n/a
411.7255	0.076	823451	keystroke_c	c	n/a
411.9055	0.0755	823811	keystroke_t	t	n/a
412.026	0.0895	824052	keystroke_l	l	n/a
412.1315	0.044	824263	keystroke_y	y	n/a
412.2505	0.1055	824501	keystroke_Key.enter	Key.enter	n/a
412.361	5.2165	824722	prompt	n/a	attacks beaches exactly answered\n
413.0155	0.075	826031	keystroke_a	a	n/a
413.1805	0.06	826361	keystroke_t	t	n/a
413.3005	0.0755	826601	keystroke_t	t	n/a
413.406	0.105	826812	keystroke_a	a	n/a
413.526	0.06	827052	keystroke_c	c	n/a
413.571	0.075	827142	keystroke_k	k	n/a
413.706	0.105	827412	keystroke_s	s	n/a
413.826	0.0595	827652	keystroke_Key.space	Key.space	n/a
414.051	0.075	828102	keystroke_b	b	n/a
414.2615	0.0895	828523	keystroke_e	e	n/a
414.336	0.1645	828672	keystroke_a	a	n/a
414.4855	0.06	828971	keystroke_c	c	n/a
414.5605	0.076	829121	keystroke_h	h	n/a
414.6505	0.06	829301	keystroke_e	e	n/a
414.8005	0.075	829601	keystroke_s	s	n/a
414.8905	0.09	829781	keystroke_Key.space	Key.space	n/a
415.0105	0.09	830021	keystroke_e	e	n/a
415.2065	0.0895	830413	keystroke_x	x	n/a
415.401	0.165	830802	keystroke_a	a	n/a
415.551	0.075	831102	keystroke_c	c	n/a
415.746	0.09	831492	keystroke_t	t	n/a
415.911	0.0895	831822	keystroke_l	l	n/a
416.016	0.075	832032	keystroke_y	y	n/a
416.1655	0.075	832331	keystroke_Key.space	Key.space	n/a
416.286	0.09	832572	keystroke_a	a	n/a
416.391	0.09	832782	keystroke_n	n	n/a
416.466	0.1045	832932	keystroke_s	s	n/a
416.736	0.1495	833472	keystroke_w	w	n/a
416.8555	0.1055	833711	keystroke_e	e	n/a
417.051	0.1195	834102	keystroke_r	r	n/a
417.1415	0.119	834283	keystroke_e	e	n/a
417.321	0.075	834642	keystroke_d	d	n/a
417.486	0.0895	834972	keystroke_Key.enter	Key.enter	n/a
417.581	5.742	835162	prompt	n/a	click myspace printers doing\n
418.341	0.06	836682	keystroke_c	c	n/a
418.416	0.0745	836832	keystroke_l	l	n/a
418.5955	0.0605	837191	keystroke_i	i	n/a
418.6705	0.0455	837341	keystroke_c	c	n/a
418.746	0.075	837492	keystroke_k	k	n/a
418.911	0.0745	837822	keystroke_Key.space	Key.space	n/a
419.091	0.06	838182	keystroke_m	m	n/a
419.1655	0.06	838331	keystroke_y	y	n/a
419.361	0.0605	838722	keystroke_s	s	n/a
419.406	0.075	838812	keystroke_p	p	n/a
419.5555	0.1205	839111	keystroke_a	a	n/a
419.7065	0.1045	839413	keystroke_c	c	n/a
419.7815	0.0895	839563	keystroke_e	e	n/a
419.9155	0.1055	839831	keystroke_Key.space	Key.space	n/a
420.066	0.045	840132	keystroke_s	s	n/a
420.801	0.12	841602	keystroke_Key.backspace	Key.backspace	n/a
421.2955	0.09	842591	keystroke_p	p	n/a
421.3865	0.074	842773	keystroke_r	r	n/a
421.521	0.075	843042	keystroke_i	i	n/a
421.701	0.075	843402	keystroke_n	n	n/a
421.911	0.09	843822	keystroke_t	t	n/a
422.0155	0.1205	844031	keystroke_e	e	n/a
422.121	0.1345	844242	keystroke_r	r	n/a
422.286	0.075	844572	keystroke_e	e	n/a
422.466	0.0745	844932	keystroke_s	s	n/a
422.556	0.0745	845112	keystroke_Key.space	Key.space	n/a
422.6755	0.0755	845351	keystroke_d	d	n/a
422.8255	0.0305	845651	keystroke_o	o	n/a
422.946	0.0895	845892	keystroke_i	i	n/a
423.0505	0.1205	846101	keystroke_n	n	n/a
423.1115	0.1045	846223	keystroke_g	g	n/a
423.2165	0.104	846433	keystroke_Key.enter	Key.enter	n/a
423.3265	5.786	846653	prompt	n/a	go saves seven precision\n
423.951	0.075	847902	keystroke_g	g	n/a
424.041	0.06	848082	keystroke_o	o	n/a
424.281	0.0595	848562	keystroke_Key.space	Key.space	n/a
424.371	0.135	848742	keystroke_s	s	n/a
424.476	0.135	848952	keystroke_a	a	n/a
424.596	0.1045	849192	keystroke_v	v	n/a
424.6555	0.0905	849311	keystroke_e	e	n/a
424.851	0.09	849702	keystroke_s	s	n/a
424.9555	0.06	849911	keystroke_Key.space	Key.space	n/a
425.106	0.075	850212	keystroke_s	s	n/a
425.3755	0.0755	850751	keystroke_e	e	n/a
425.496	0.1195	850992	keystroke_v	v	n/a
425.601	0.0895	851202	keystroke_e	e	n/a
425.7355	0.075	851471	keystroke_n	n	n/a
425.901	0.074	851802	keystroke_Key.space	Key.space	n/a
426.1405	0.0605	852281	keystroke_p	p	n/a
426.2155	0.06	852431	keystroke_r	r	n/a
426.4105	0.0605	852821	keystroke_c	c	n/a
426.5755	0.06	853151	keystroke_e	e	n/a
427.3105	0.075	854621	keystroke_Key.backspace	Key.backspace	n/a
427.596	0.0895	855192	keystroke_Key.backspace	Key.backspace	n/a
427.9555	0.0905	855911	keystroke_e	e	n/a
428.196	0.075	856392	keystroke_c	c	n/a
428.3765	0.0595	856753	keystroke_i	i	n/a
428.451	0.075	856902	keystroke_s	s	n/a
428.556	0.075	857112	keystroke_i	i	n/a
428.691	0.105	857382	keystroke_o	o	n/a
428.766	0.09	857532	keystroke_n	n	n/a
429.006	0.1045	858012	keystroke_Key.enter	Key.enter	n/a
429.116	7.4365	858232	prompt	n/a	citizen britain engage october\n
429.7265	0.0895	859453	keystroke_c	c	n/a
429.861	0.09	859722	keystroke_i	i	n/a
429.996	0.09	859992	keystroke_t	t	n/a
430.206	0.075	860412	keystroke_i	i	n/a
430.341	0.09	860682	keystroke_z	z	n/a
430.5655	0.0905	861131	keystroke_e	e	n/a
430.671	0.0745	861342	keystroke_n	n	n/a
430.8355	0.1055	861671	keystroke_Key.space	Key.space	n/a
431.061	0.045	862122	keystroke_b	b	n/a
431.2705	0.075	862541	keystroke_r	r	n/a
431.4505	0.06	862901	keystroke_i	i	n/a
431.6605	0.0755	863321	keystroke_t	t	n/a
431.871	0.075	863742	keystroke_a	a	n/a
431.9605	0.0605	863921	keystroke_i	i	n/a
432.1405	0.045	864281	keystroke_n	n	n/a
432.276	0.09	864552	keystroke_Key.space	Key.space	n/a
432.381	0.09	864762	keystroke_e	e	n/a
432.5005	0.0755	865001	keystroke_n	n	n/a
432.591	0.09	865182	keystroke_g	g	n/a
432.666	0.135	865332	keystroke_a	a	n/a
432.786	0.0895	865572	keystroke_g	g	n/a
432.8605	0.0605	865721	keystroke_e	e	n/a
432.906	0.075	865812	keystroke_Key.space	Key.space	n/a
433.086	0.06	866172	keystroke_c	c	n/a
433.176	0.0895	866352	keystroke_o	o	n/a
433.326	0.0595	866652	keystroke_t	t	n/a
433.4755	0.06	866951	keystroke_r	r	n/a
433.9555	0.0755	867911	keystroke_Key.backspace	Key.backspace	n/a
434.1965	0.0595	868393	keystroke_Key.backspace	Key.backspace	n/a
434.376	0.06	868752	keystroke_Key.backspace	Key.backspace	n/a
434.4955	0.09	868991	keystroke_Key.backspace	Key.backspace	n/a
435.066	0.06	870132	keystroke_o	o	n/a
435.231	0.09	870462	keystroke_c	c	n/a
435.546	0.0745	871092	keystroke_t	t	n/a
435.681	0.06	871362	keystroke_o	o	n/a
435.801	0.1045	871602	keystroke_b	b	n/a
435.9065	0.134	871813	keystroke_e	e	n/a
436.0255	0.09	872051	keystroke_r	r	n/a
436.4455	0.105	872891	keystroke_Key.enter	Key.enter	n/a
436.5555	8.637	873111	prompt	n/a	bicycle dominican connectivity anatomy\n
437.4355	0.075	874871	keystroke_b	b	n/a
437.5855	0.0605	875171	keystroke_i	i	n/a
437.691	0.09	875382	keystroke_c	c	n/a
438.171	0.09	876342	keystroke_y	y	n/a
438.411	0.0595	876822	keystroke_c	c	n/a
438.4855	0.0755	876971	keystroke_l	l	n/a
438.591	0.1045	877182	keystroke_e	e	n/a
438.7105	0.06	877421	keystroke_Key.space	Key.space	n/a
438.786	0.0895	877572	keystroke_d	d	n/a
438.9205	0.0305	877841	keystroke_o	o	n/a
439.071	0.0895	878142	keystroke_m	m	n/a
439.2655	0.0455	878531	keystroke_i	i	n/a
439.416	0.075	878832	keystroke_n	n	n/a
439.626	0.06	879252	keystroke_i	i	n/a
439.805	0.046	879610	keystroke_c	c	n/a
440.0455	0.0755	880091	keystroke_a	a	n/a
440.211	0.045	880422	keystroke_n	n	n/a
440.3605	0.09	880721	keystroke_Key.space	Key.space	n/a
440.5255	0.06	881051	keystroke_c	c	n/a
440.601	0.075	881202	keystroke_o	o	n/a
440.781	0.06	881562	keystroke_n	n	n/a
440.901	0.075	881802	keystroke_n	n	n/a
440.991	0.105	881982	keystroke_e	e	n/a
441.0805	0.06	882161	keystroke_c	c	n/a
441.2305	0.0755	882461	keystroke_t	t	n/a
441.336	0.075	882672	keystroke_i	i	n/a
441.4555	0.121	882911	keystroke_v	v	n/a
441.6505	0.075	883301	keystroke_i	i	n/a
441.7715	0.074	883543	keystroke_t	t	n/a
441.9205	0.075	883841	keystroke_y	y	n/a
442.0255	0.075	884051	keystroke_Key.space	Key.space	n/a
442.131	0.105	884262	keystroke_a	a	n/a
442.221	0.075	884442	keystroke_n	n	n/a
442.761	0.075	885522	keystroke_a	a	n/a
443.031	0.09	886062	keystroke_o	o	n/a
443.196	0.045	886392	keystroke_t	t	n/a
443.3005	0.0905	886601	keystroke_Key.backspace	Key.backspace	n/a
443.9455	0.09	887891	keystroke_Key.backspace	Key.backspace	n/a
444.2005	0.0605	888401	keystroke_t	t	n/a
444.411	0.075	888822	keystroke_o	o	n/a
444.8455	0.0755	889691	keystroke_m	m	n/a
444.9655	0.075	889931	keystroke_y	y	n/a
445.1155	0.0755	890231	keystroke_Key.enter	Key.enter	n/a
445.196	7.7065	890392	prompt	n/a	mode employment allan deluxe\n
445.8055	0.075	891611	keystroke_m	m	n/a
445.986	0.06	891972	keystroke_o	o	n/a
446.016	0.1795	892032	keystroke_d	d	n/a
446.1355	0.0895	892271	keystroke_e	e	n/a
446.2105	0.0455	892421	keystroke_Key.space	Key.space	n/a
446.406	0.075	892812	keystroke_m	m	n/a
446.421	0.045	892842	keystroke_e	e	n/a
447.111	0.075	894222	keystroke_Key.backspace	Key.backspace	n/a
447.2905	0.0905	894581	keystroke_Key.backspace	Key.backspace	n/a
447.5465	0.089	895093	keystroke_e	e	n/a
447.7255	0.06	895451	keystroke_m	m	n/a
447.9655	0.03	895931	keystroke_p	p	n/a
448.1155	0.075	896231	keystroke_l	l	n/a
448.311	0.06	896622	keystroke_o	o	n/a
448.401	0.075	896802	keystroke_y	y	n/a
448.5505	0.105	897101	keystroke_m	m	n/a
448.776	0.06	897552	keystroke_n	n	n/a
449.4055	0.075	898811	keystroke_Key.backspace	Key.backspace	n/a
449.916	0.0745	899832	keystroke_e	e	n/a
450.1405	0.06	900281	keystroke_n	n	n/a
450.261	0.075	900522	keystroke_t	t	n/a
450.381	0.075	900762	keystroke_Key.space	Key.space	n/a
450.576	0.105	901152	keystroke_a	a	n/a
450.7255	0.0605	901451	keystroke_l	l	n/a
450.8455	0.06	901691	keystroke_l	l	n/a
450.981	0.0595	901962	keystroke_a	a	n/a
451.056	0.0595	902112	keystroke_n	n	n/a
451.2055	0.0905	902411	keystroke_Key.space	Key.space	n/a
451.311	0.075	902622	keystroke_d	d	n/a
451.611	0.09	903222	keystroke_e	e	n/a
452.0455	0.0895	904091	keystroke_l	l	n/a
452.3005	0.0745	904601	keystroke_u	u	n/a
452.391	0.105	904782	keystroke_x	x	n/a
452.646	0.104	905292	keystroke_e	e	n/a
452.826	0.0745	905652	keystroke_Key.enter	Key.enter	n/a
452.906	6.986	905812	prompt	n/a	branches social moderators bluetooth\n
453.7255	0.12	907451	keystroke_b	b	n/a
453.8605	0.105	907721	keystroke_e	e	n/a
454.5955	0.09	909191	keystroke_Key.backspace	Key.backspace	n/a
454.8055	0.105	909611	keystroke_r	r	n/a
455.0005	0.1055	910001	keystroke_a	a	n/a
455.1355	0.09	910271	keystroke_n	n	n/a
455.2405	0.12	910481	keystroke_c	c	n/a
455.3005	0.105	910601	keystroke_e	e	n/a
455.4805	0.09	910961	keystroke_s	s	n/a
455.5855	0.06	911171	keystroke_Key.space	Key.space	n/a
455.6905	0.105	911381	keystroke_s	s	n/a
455.8405	0.06	911681	keystroke_o	o	n/a
455.93	0.121	911860	keystroke_c	c	n/a
456.036	0.059	912072	keystroke_i	i	n/a
456.1105	0.06	912221	keystroke_a	a	n/a
456.276	0.1045	912552	keystroke_l	l	n/a
456.9205	0.045	913841	keystroke_Key.space	Key.space	n/a
457.0855	0.075	914171	keystroke_m	m	n/a
457.2955	0.075	914591	keystroke_o	o	n/a
457.4155	0.1055	914831	keystroke_d	d	n/a
457.5055	0.1205	915011	keystroke_e	e	n/a
457.6105	0.09	915221	keystroke_r	r	n/a
457.7155	0.1195	915431	keystroke_a	a	n/a
457.821	0.0895	915642	keystroke_t	t	n/a
457.9705	0.0755	915941	keystroke_o	o	n/a
458.031	0.105	916062	keystroke_r	r	n/a
458.166	0.0905	916332	keystroke_s	s	n/a
458.271	0.074	916542	keystroke_Key.space	Key.space	n/a
458.451	0.0445	916902	keystroke_b	b	n/a
458.54	0.0905	917080	keystroke_l	l	n/a
458.751	0.06	917502	keystroke_u	u	n/a
458.826	0.09	917652	keystroke_e	e	n/a
458.961	0.09	917922	keystroke_t	t	n/a
459.231	0.06	918462	keystroke_o	o	n/a
459.351	0.0895	918702	keystroke_o	o	n/a
459.4705	0.09	918941	keystroke_t	t	n/a
459.5755	0.075	919151	keystroke_h	h	n/a
459.7555	0.135	919511	keystroke_Key.enter	Key.enter	n/a
459.8955	7.077	919791	prompt	n/a	courier jerusalem analyzes lived\n
460.5505	0.0755	921101	keystroke_c	c	n/a
460.6405	0.0755	921281	keystroke_o	o	n/a
460.8505	0.0605	921701	keystroke_u	u	n/a
460.9255	0.0905	921851	keystroke_r	r	n/a
461.1205	0.0755	922241	keystroke_i	i	n/a
461.256	0.105	922512	keystroke_e	e	n/a
461.331	0.104	922662	keystroke_r	r	n/a
461.4955	0.1045	922991	keystroke_Key.space	Key.space	n/a
461.796	0.0895	923592	keystroke_j	j	n/a
461.9155	0.1195	923831	keystroke_e	e	n/a
462.0055	0.106	924011	keystroke_r	r	n/a
462.3955	0.0755	924791	keystroke_u	u	n/a
462.6355	0.075	925271	keystroke_s	s	n/a
462.8155	0.09	925631	keystroke_a	a	n/a
462.9205	0.09	925841	keystroke_l	l	n/a
463.0405	0.0905	926081	keystroke_e	e	n/a
463.176	0.0595	926352	keystroke_m	m	n/a
463.3255	0.09	926651	keystroke_Key.space	Key.space	n/a
463.4755	0.075	926951	keystroke_a	a	n/a
463.5955	0.075	927191	keystroke_l	l	n/a
464.4055	0.09	928811	keystroke_Key.backspace	Key.backspace	n/a
464.9155	0.0605	929831	keystroke_n	n	n/a
465.051	0.0745	930102	keystroke_a	a	n/a
465.186	0.075	930372	keystroke_l	l	n/a
465.381	0.0595	930762	keystroke_y	y	n/a
465.576	0.15	931152	keystroke_z	z	n/a
465.696	0.105	931392	keystroke_e	e	n/a
465.92	0.0905	931840	keystroke_s	s	n/a
466.0255	0.075	932051	keystroke_Key.space	Key.space	n/a
466.2805	0.075	932561	keystroke_l	l	n/a
466.476	0.0745	932952	keystroke_i	i	n/a
466.521	0.1195	933042	keystroke_v	v	n/a
466.6255	0.1055	933251	keystroke_e	e	n/a
466.7455	0.09	933491	keystroke_d	d	n/a
466.8505	0.12	933701	keystroke_Key.enter	Key.enter	n/a
466.976	7.5715	933952	prompt	n/a	mediawiki semi counsel selections\n
467.706	0.075	935412	keystroke_m	m	n/a
467.8265	0.089	935653	keystroke_e	e	n/a
467.991	0.09	935982	keystroke_d	d	n/a
468.186	0.06	936372	keystroke_i	i	n/a
468.306	0.06	936612	keystroke_a	a	n/a
469.401	0.09	938802	keystroke_w	w	n/a
469.506	0.09	939012	keystroke_i	i	n/a
469.701	0.0745	939402	keystroke_k	k	n/a
469.836	0.0605	939672	keystroke_i	i	n/a
469.971	0.075	939942	keystroke_Key.space	Key.space	n/a
470.136	0.06	940272	keystroke_s	s	n/a
470.301	0.045	940602	keystroke_e	e	n/a
470.3765	0.0745	940753	keystroke_m	m	n/a
470.586	0.0605	941172	keystroke_i	i	n/a
470.7805	0.0755	941561	keystroke_Key.space	Key.space	n/a
470.886	0.075	941772	keystroke_c	c	n/a
471.021	0.06	942042	keystroke_o	o	n/a
471.5605	0.075	943121	keystroke_u	u	n/a
471.7555	0.075	943511	keystroke_n	n	n/a
471.876	0.06	943752	keystroke_s	s	n/a
472.041	0.0595	944082	keystroke_e	e	n/a
472.1155	0.0755	944231	keystroke_l	l	n/a
472.311	0.075	944622	keystroke_Key.space	Key.space	n/a
472.446	0.09	944892	keystroke_s	s	n/a
472.611	0.09	945222	keystroke_e	e	n/a
472.685	0.106	945370	keystroke_l	l	n/a
473.1955	0.0905	946391	keystroke_e	e	n/a
473.346	0.075	946692	keystroke_c	c	n/a
473.541	0.045	947082	keystroke_t	t	n/a
473.601	0.075	947202	keystroke_i	i	n/a
474.021	0.075	948042	keystroke_o	o	n/a
474.096	0.075	948192	keystroke_n	n	n/a
474.306	0.105	948612	keystroke_s	s	n/a
474.426	0.12	948852	keystroke_Key.enter	Key.enter	n/a
474.554	8.7835	949108	prompt	n/a	newer modifications pants latinas\n
475.2205	0.0755	950441	keystroke_n	n	n/a
475.3415	0.089	950683	keystroke_e	e	n/a
475.3865	0.104	950773	keystroke_w	w	n/a
475.611	0.06	951222	keystroke_e	e	n/a
475.79	0.031	951580	keystroke_e	e	n/a
476.6605	0.0905	953321	keystroke_Key.backspace	Key.backspace	n/a
477.5155	0.0755	955031	keystroke_r	r	n/a
477.831	0.075	955662	keystroke_Key.space	Key.space	n/a
478.1005	0.0755	956201	keystroke_m	m	n/a
478.2955	0.075	956591	keystroke_o	o	n/a
478.3555	0.0605	956711	keystroke_d	d	n/a
478.4755	0.0755	956951	keystroke_i	i	n/a
478.581	0.06	957162	keystroke_c	c	n/a
479.2555	0.105	958511	keystroke_Key.backspace	Key.backspace	n/a
479.496	0.0745	958992	keystroke_f	f	n/a
479.676	0.0745	959352	keystroke_i	i	n/a
479.8705	0.1355	959741	keystroke_c	c	n/a
479.991	0.1195	959982	keystroke_a	a	n/a
480.216	0.075	960432	keystroke_t	t	n/a
480.306	0.06	960612	keystroke_i	i	n/a
480.4555	0.0755	960911	keystroke_o	o	n/a
480.501	0.0755	961002	keystroke_n	n	n/a
480.696	0.0895	961392	keystroke_s	s	n/a
480.7555	0.0755	961511	keystroke_Key.space	Key.space	n/a
480.9655	0.06	961931	keystroke_p	p	n/a
481.0715	0.0895	962143	keystroke_a	a	n/a
481.176	0.0745	962352	keystroke_n	n	n/a
481.2655	0.0745	962531	keystroke_t	t	n/a
481.836	0.104	963672	keystroke_s	s	n/a
481.971	0.074	963942	keystroke_Key.space	Key.space	n/a
482.2405	0.0895	964481	keystroke_l	l	n/a
482.391	0.104	964782	keystroke_a	a	n/a
482.5705	0.0745	965141	keystroke_t	t	n/a
482.721	0.0595	965442	keystroke_i	i	n/a
482.8705	0.0895	965741	keystroke_n	n	n/a
482.975	0.1655	965950	keystroke_a	a	n/a
483.111	0.1195	966222	keystroke_s	s	n/a
483.2155	0.12	966431	keystroke_Key.enter	Key.enter	n/a
483.3415	4.211	966683	prompt	n/a	boring belts williams word\n
483.936	0.075	967872	keystroke_b	b	n/a
484.071	0.09	968142	keystroke_o	o	n/a
484.1305	0.0905	968261	keystroke_r	r	n/a
484.251	0.06	968502	keystroke_i	i	n/a
484.416	0.075	968832	keystroke_n	n	n/a
484.5055	0.09	969011	keystroke_g	g	n/a
484.581	0.089	969162	keystroke_Key.space	Key.space	n/a
484.716	0.1195	969432	keystroke_b	b	n/a
484.851	0.12	969702	keystroke_e	e	n/a
485.016	0.075	970032	keystroke_l	l	n/a
485.211	0.1205	970422	keystroke_t	t	n/a
485.3455	0.105	970691	keystroke_s	s	n/a
485.511	0.075	971022	keystroke_Key.space	Key.space	n/a
485.931	0.1045	971862	keystroke_w	w	n/a
486.0205	0.06	972041	keystroke_i	i	n/a
486.186	0.075	972372	keystroke_l	l	n/a
486.321	0.075	972642	keystroke_l	l	n/a
486.516	0.06	973032	keystroke_i	i	n/a
486.621	0.09	973242	keystroke_a	a	n/a
486.756	0.045	973512	keystroke_m	m	n/a
486.816	0.0895	973632	keystroke_s	s	n/a
486.906	0.0895	973812	keystroke_Key.space	Key.space	n/a
487.0255	0.12	974051	keystroke_w	w	n/a
487.1615	0.0445	974323	keystroke_o	o	n/a
487.221	0.06	974442	keystroke_r	r	n/a
487.3705	0.0605	974741	keystroke_d	d	n/a
487.4455	0.105	974891	keystroke_Key.enter	Key.enter	n/a
487.5555	4.392	975111	prompt	n/a	instruction tend rank yoga\n
488.1055	0.045	976211	keystroke_i	i	n/a
488.2555	0.0755	976511	keystroke_n	n	n/a
488.3005	0.1045	976601	keystroke_s	s	n/a
488.435	0.0605	976870	keystroke_t	t	n/a
488.556	0.09	977112	keystroke_r	r	n/a
488.6755	0.075	977351	keystroke_u	u	n/a
488.7655	0.075	977531	keystroke_c	c	n/a
488.946	0.0595	977892	keystroke_t	t	n/a
489.021	0.0745	978042	keystroke_i	i	n/a
489.1705	0.075	978341	keystroke_o	o	n/a
489.2305	0.0905	978461	keystroke_n	n	n/a
489.3955	0.075	978791	keystroke_Key.space	Key.space	n/a
489.5155	0.15	979031	keystroke_t	t	n/a
489.6505	0.105	979301	keystroke_e	e	n/a
489.7715	0.074	979543	keystroke_n	n	n/a
489.876	0.075	979752	keystroke_d	d	n/a
489.966	0.0745	979932	keystroke_Key.space	Key.space	n/a
490.071	0.09	980142	keystroke_r	r	n/a
490.175	0.076	980350	keystroke_a	a	n/a
490.266	0.0595	980532	keystroke_n	n	n/a
490.4455	0.0455	980891	keystroke_k	k	n/a
490.611	0.0445	981222	keystroke_Key.space	Key.space	n/a
490.7455	0.03	981491	keystroke_y	y	n/a
490.8515	0.044	981703	keystroke_o	o	n/a
491.5855	0.12	983171	keystroke_g	g	n/a
491.7205	0.12	983441	keystroke_a	a	n/a
491.8855	0.06	983771	keystroke_Key.enter	Key.enter	n/a
491.951	4.946	983902	prompt	n/a	stress redeem randy defensive\n
492.4855	0.0905	984971	keystroke_s	s	n/a
492.6205	0.0755	985241	keystroke_t	t	n/a
492.786	0.12	985572	keystroke_r	r	n/a
492.876	0.074	985752	keystroke_e	e	n/a
493.281	0.075	986562	keystroke_s	s	n/a
493.43	0.105	986860	keystroke_s	s	n/a
493.58	0.091	987160	keystroke_Key.space	Key.space	n/a
493.7605	0.1355	987521	keystroke_r	r	n/a
493.881	0.105	987762	keystroke_e	e	n/a
494.091	0.075	988182	keystroke_d	d	n/a
494.2705	0.09	988541	keystroke_e	e	n/a
494.4205	0.09	988841	keystroke_e	e	n/a
494.601	0.0745	989202	keystroke_m	m	n/a
494.796	0.075	989592	keystroke_Key.space	Key.space	n/a
494.9155	0.1345	989831	keystroke_r	r	n/a
495.035	0.1055	990070	keystroke_a	a	n/a
495.126	0.0745	990252	keystroke_n	n	n/a
495.2455	0.09	990491	keystroke_d	d	n/a
495.4705	0.075	990941	keystroke_y	y	n/a
495.6055	0.09	991211	keystroke_Key.space	Key.space	n/a
495.8905	0.135	991781	keystroke_d	d	n/a
496.0105	0.1205	992021	keystroke_e	e	n/a
496.116	0.135	992232	keystroke_f	f	n/a
496.22	0.091	992440	keystroke_e	e	n/a
496.341	0.075	992682	keystroke_n	n	n/a
496.43	0.091	992860	keystroke_s	s	n/a
496.581	0.06	993162	keystroke_i	i	n/a
496.626	0.135	993252	keystroke_v	v	n/a
496.716	0.105	993432	keystroke_e	e	n/a
496.791	0.104	993582	keystroke_Key.enter	Key.enter	n/a
496.901	15.0115	993802	prompt	n/a	shepherd household represent promotion\n
505.3275	0.028	1010655	keystroke_s	s	n/a
505.416	0.075	1010832	keystroke_h	h	n/a
505.551	0.09	1011102	keystroke_e	e	n/a
506.3305	0.0905	1012661	keystroke_p	p	n/a
506.976	0.075	1013952	keystroke_h	h	n/a
507.096	0.12	1014192	keystroke_e	e	n/a
507.201	0.09	1014402	keystroke_r	r	n/a
507.5015	0.09	1015003	keystroke_d	d	n/a
507.7415	0.075	1015483	keystroke_Key.space	Key.space	n/a
508.056	0.0755	1016112	keystroke_h	h	n/a
508.1465	0.06	1016293	keystroke_o	o	n/a
508.3265	0.06	1016653	keystroke_u	u	n/a
508.4015	0.06	1016803	keystroke_s	s	n/a
508.5655	0.061	1017131	keystroke_e	e	n/a
508.791	0.0745	1017582	keystroke_h	h	n/a
508.8805	0.061	1017761	keystroke_o	o	n/a
509.0305	0.0755	1018061	keystroke_l	l	n/a
509.091	0.09	1018182	keystroke_d	d	n/a
509.226	0.0905	1018452	keystroke_Key.space	Key.space	n/a
509.331	0.135	1018662	keystroke_r	r	n/a
