onset	duration	sample	value	key	prompt_text
12.0625	20.473	24125	prompt	n/a	the quick brown fox jumps over a lazy dog\n
13.498	0.001	26996	keystroke_t	t	n/a
13.5255	0.0605	27051	keystroke_h	h	n/a
13.6165	0.1045	27233	keystroke_e	e	n/a
13.736	0.075	27472	keystroke_Key.space	Key.space	n/a
13.886	0.1205	27772	keystroke_q	q	n/a
13.961	0.1205	27922	keystroke_u	u	n/a
14.1265	0.075	28253	keystroke_i	i	n/a
14.261	0.0755	28522	keystroke_c	c	n/a
14.4265	0.09	28853	keystroke_k	k	n/a
15.356	0.075	30712	keystroke_Key.space	Key.space	n/a
15.5815	0.0595	31163	keystroke_b	b	n/a
15.671	0.09	31342	keystroke_r	r	n/a
15.7915	0.075	31583	keystroke_o	o	n/a
15.8965	0.1045	31793	keystroke_w	w	n/a
16.0465	0.0745	32093	keystroke_n	n	n/a
16.1965	0.0895	32393	keystroke_Key.space	Key.space	n/a
16.6615	0.06	33323	keystroke_f	f	n/a
16.7805	0.09	33561	keystroke_o	o	n/a
17.126	0.1195	34252	keystroke_x	x	n/a
17.321	0.1045	34642	keystroke_Key.space	Key.space	n/a
17.6815	0.0755	35363	keystroke_j	j	n/a
17.846	0.0595	35692	keystroke_u	u	n/a
18.071	0.0605	36142	keystroke_m	m	n/a
18.1765	0.089	36353	keystroke_p	p	n/a
18.3415	0.06	36683	keystroke_s	s	n/a
19.571	0.1045	39142	keystroke_o	o	n/a
19.6915	0.12	39383	keystroke_v	v	n/a
19.9605	0.166	39921	keystroke_e	e	n/a
20.0815	0.104	40163	keystroke_r	r	n/a
20.1705	0.0905	40341	keystroke_Key.space	Key.space	n/a
20.3205	0.076	40641	keystroke_a	a	n/a
20.411	0.09	40822	keystroke_Key.space	Key.space	n/a
20.6955	0.091	41391	keystroke_l	l	n/a
20.861	0.1055	41722	keystroke_a	a	n/a
21.1015	0.105	42203	keystroke_z	z	n/a
21.2215	0.0905	42443	keystroke_y	y	n/a
21.3555	0.106	42711	keystroke_Key.space	Key.space	n/a
21.536	0.09	43072	keystroke_d	d	n/a
21.702	0.0745	43404	keystroke_o	o	n/a
21.791	0.0755	43582	keystroke_g	g	n/a
24.224	0	48448	keystroke_Key.backspace	Key.backspace	n/a
24.311	0.0755	48622	keystroke_Key.backspace	Key.backspace	n/a
24.476	0.06	48952	keystroke_Key.backspace	Key.backspace	n/a
24.641	0.0455	49282	keystroke_Key.backspace	Key.backspace	n/a
24.8065	0.045	49613	keystroke_Key.backspace	Key.backspace	n/a
24.956	0.0595	49912	keystroke_Key.backspace	Key.backspace	n/a
25.1215	0.0595	50243	keystroke_Key.backspace	Key.backspace	n/a
25.286	0.06	50572	keystroke_Key.backspace	Key.backspace	n/a
25.451	0.06	50902	keystroke_Key.backspace	Key.backspace	n/a
25.6315	0.0445	51263	keystroke_Key.backspace	Key.backspace	n/a
25.796	0.06	51592	keystroke_Key.backspace	Key.backspace	n/a
25.976	0.06	51952	keystroke_Key.backspace	Key.backspace	n/a
26.156	0.0595	52312	keystroke_Key.backspace	Key.backspace	n/a
26.336	0.06	52672	keystroke_Key.backspace	Key.backspace	n/a
26.726	0.0605	53452	keystroke_Key.backspace	Key.backspace	n/a
27.1615	0.105	54323	keystroke_Key.space	Key.space	n/a
27.492	0.0745	54984	keystroke_o	o	n/a
27.611	0.0605	55222	keystroke_v	v	n/a
27.716	0.1505	55432	keystroke_e	e	n/a
27.806	0.136	55612	keystroke_r	r	n/a
27.9265	0.0895	55853	keystroke_Key.space	Key.space	n/a
28.0605	0.091	56121	keystroke_a	a	n/a
28.1815	0.0895	56363	keystroke_Key.space	Key.space	n/a
28.647	0.1045	57294	keystroke_l	l	n/a
28.7815	0.105	57563	keystroke_a	a	n/a
29.0065	0.0905	58013	keystroke_z	z	n/a
29.1415	0.045	58283	keystroke_y	y	n/a
29.2465	0.089	58493	keystroke_Key.space	Key.space	n/a
29.562	0.075	59124	keystroke_d	d	n/a
29.696	0.0905	59392	keystroke_o	o	n/a
29.817	0.075	59634	keystroke_g	g	n/a
30.762	0.0595	61524	keystroke_'	'	n/a
31.8565	0.0895	63713	keystroke_Key.backspace	Key.backspace	n/a
32.442	0.09	64884	keystroke_Key.enter	Key.enter	n/a
32.5405	12.6385	65081	prompt	n/a	wheel assign leave logistics\n
33.596	0.105	67192	keystroke_w	w	n/a
33.732	0.075	67464	keystroke_h	h	n/a
33.942	0.09	67884	keystroke_e	e	n/a
34.151	0.076	68302	keystroke_l	l	n/a
34.331	0.0755	68662	keystroke_l	l	n/a
34.7515	0.075	69503	keystroke_=	=	n/a
34.9165	0.075	69833	keystroke_=	=	n/a
35.1565	0.0595	70313	keystroke_Key.backspace	Key.backspace	n/a
35.3215	0.0595	70643	keystroke_Key.backspace	Key.backspace	n/a
35.4865	0.0745	70973	keystroke_Key.backspace	Key.backspace	n/a
35.6815	0.0295	71363	keystroke_Key.backspace	Key.backspace	n/a
35.9665	0.0745	71933	keystroke_e	e	n/a
36.191	0.0905	72382	keystroke_l	l	n/a
36.4015	0.0895	72803	keystroke_Key.space	Key.space	n/a
36.852	0.0895	73704	keystroke_a	a	n/a
37.0165	0.09	74033	keystroke_s	s	n/a
37.1965	0.06	74393	keystroke_s	s	n/a
37.2715	0.075	74543	keystroke_i	i	n/a
37.5865	0.06	75173	keystroke_g	g	n/a
37.7215	0.075	75443	keystroke_n	n	n/a
37.8415	0.105	75683	keystroke_Key.space	Key.space	n/a
38.0965	0.12	76193	keystroke_l	l	n/a
38.2315	0.1805	76463	keystroke_e	e	n/a
38.3665	0.18	76733	keystroke_a	a	n/a
38.5165	0.15	77033	keystroke_v	v	n/a
38.637	0.0895	77274	keystroke_e	e	n/a
38.7415	0.075	77483	keystroke_Key.space	Key.space	n/a
39.1015	0.03	78203	keystroke_l	l	n/a
39.327	0.09	78654	keystroke_o	o	n/a
39.476	0.09	78952	keystroke_g	g	n/a
39.6265	0.09	79253	keystroke_i	i	n/a
39.7615	0.1355	79523	keystroke_s	s	n/a
39.8515	0.105	79703	keystroke_t	t	n/a
42.345	0.027	84690	keystroke_i	i	n/a
42.477	0.135	84954	keystroke_c	c	n/a
42.597	0.105	85194	keystroke_s	s	n/a
43.3165	0.0755	86633	keystroke_'	'	n/a
44.3515	0.09	88703	keystroke_Key.backspace	Key.backspace	n/a
45.1015	0.075	90203	keystroke_Key.enter	Key.enter	n/a
45.184	15.37	90368	prompt	n/a	cruise arabia acceptable followed\n
46.3165	0.0605	92633	keystroke_c	c	n/a
46.5115	0.0605	93023	keystroke_r	r	n/a
46.662	0.105	93324	keystroke_u	u	n/a
46.7525	0.0895	93505	keystroke_i	i	n/a
46.9015	0.165	93803	keystroke_s	s	n/a
47.022	0.105	94044	keystroke_e	e	n/a
47.156	0.105	94312	keystroke_Key.space	Key.space	n/a
47.6515	0.1195	95303	keystroke_a	a	n/a
47.8015	0.15	95603	keystroke_r	r	n/a
47.936	0.121	95872	keystroke_a	a	n/a
48.147	0.105	96294	keystroke_b	b	n/a
48.2665	0.0745	96533	keystroke_i	i	n/a
48.386	0.075	96772	keystroke_a	a	n/a
48.476	0.09	96952	keystroke_Key.space	Key.space	n/a
48.867	0.105	97734	keystroke_a	a	n/a
49.0775	0.0745	98155	keystroke_c	c	n/a
49.242	0.105	98484	keystroke_c	c	n/a
49.6625	0.0745	99325	keystroke_e	e	n/a
50.711	0.076	101422	keystroke_t	t	n/a
50.8915	0.1045	101783	keystroke_a	a	n/a
51.611	0.405	103222	keystroke_Key.backspace	Key.backspace	n/a
56.113	0.164	112226	keystroke_Key.backspace	Key.backspace	n/a
56.6525	0.09	113305	keystroke_p	p	n/a
56.7715	0.105	113543	keystroke_t	t	n/a
56.9515	0.1505	113903	keystroke_a	a	n/a
57.1765	0.0905	114353	keystroke_l	l	n/a
57.282	0.09	114564	keystroke_b	b	n/a
57.792	0.075	115584	keystroke_Key.backspace	Key.backspace	n/a
57.957	0.045	115914	keystroke_Key.backspace	Key.backspace	n/a
58.0175	0.09	116035	keystroke_b	b	n/a
58.212	0.075	116424	keystroke_l	l	n/a
58.347	0.0905	116694	keystroke_e	e	n/a
58.527	0.09	117054	keystroke_Key.space	Key.space	n/a
58.6775	0.0745	117355	keystroke_f	f	n/a
58.827	0.09	117654	keystroke_o	o	n/a
59.037	0.06	118074	keystroke_l	l	n/a
59.187	0.075	118374	keystroke_l	l	n/a
59.382	0.075	118764	keystroke_o	o	n/a
59.5325	0.135	119065	keystroke_w	w	n/a
59.6375	0.194	119275	keystroke_e	e	n/a
59.8165	0.09	119633	keystroke_r	r	n/a
60.192	0.075	120384	keystroke_Key.backspace	Key.backspace	n/a
60.312	0.06	120624	keystroke_d	d	n/a
60.4765	0.075	120953	keystroke_Key.enter	Key.enter	n/a
60.568	8.8215	121136	prompt	n/a	them random michel trouble\n
61.4665	0.106	122933	keystroke_t	t	n/a
61.5565	0.0755	123113	keystroke_h	h	n/a
61.692	0.0595	123384	keystroke_e	e	n/a
61.7665	0.075	123533	keystroke_m	m	n/a
61.9315	0.09	123863	keystroke_Key.space	Key.space	n/a
62.1115	0.1505	124223	keystroke_r	r	n/a
62.277	0.0895	124554	keystroke_a	a	n/a
62.3525	0.0895	124705	keystroke_n	n	n/a
62.517	0.06	125034	keystroke_d	d	n/a
62.817	0.0605	125634	keystroke_o	o	n/a
62.9825	0.104	125965	keystroke_m	m	n/a
63.207	0.06	126414	keystroke_Key.space	Key.space	n/a
63.4025	0.104	126805	keystroke_m	m	n/a
63.6725	0.0895	127345	keystroke_e	e	n/a
63.882	0.0605	127764	keystroke_i	i	n/a
64.002	0.09	128004	keystroke_c	c	n/a
64.137	0.06	128274	keystroke_h	h	n/a
64.287	0.06	128574	keystroke_a	a	n/a
64.392	0.06	128784	keystroke_a	a	n/a
64.4675	0.0745	128935	keystroke_l	l	n/a
64.812	0.06	129624	keystroke_Key.backspace	Key.backspace	n/a
64.977	0.06	129954	keystroke_Key.backspace	Key.backspace	n/a
65.142	0.06	130284	keystroke_Key.backspace	Key.backspace	n/a
65.697	0.06	131394	keystroke_Key.backspace	Key.backspace	n/a
65.862	0.09	131724	keystroke_Key.backspace	Key.backspace	n/a
66.027	0.075	132054	keystroke_Key.backspace	Key.backspace	n/a
66.237	0.045	132474	keystroke_Key.backspace	Key.backspace	n/a
66.762	0.045	133524	keystroke_i	i	n/a
66.822	0.045	133644	keystroke_c	c	n/a
66.912	0.0455	133824	keystroke_h	h	n/a
67.002	0.0755	134004	keystroke_e	e	n/a
67.287	0.105	134574	keystroke_l	l	n/a
67.512	0.09	135024	keystroke_Key.space	Key.space	n/a
67.752	0.1205	135504	keystroke_t	t	n/a
67.9475	0.089	135895	keystroke_r	r	n/a
68.082	0.1495	136164	keystroke_o	o	n/a
68.2015	0.09	136403	keystroke_u	u	n/a
68.367	0.0905	136734	keystroke_b	b	n/a
68.5025	0.105	137005	keystroke_l	l	n/a
68.6225	0.075	137245	keystroke_e	e	n/a
69.327	0.06	138654	keystroke_Key.enter	Key.enter	n/a
69.3935	8.5015	138787	prompt	n/a	chicks citations roads deputy\n
70.3475	0.0745	140695	keystroke_c	c	n/a
70.4525	0.0745	140905	keystroke_h	h	n/a
70.542	0.09	141084	keystroke_i	i	n/a
70.662	0.075	141324	keystroke_c	c	n/a
70.7675	0.0895	141535	keystroke_k	k	n/a
70.917	0.0605	141834	keystroke_s	s	n/a
71.067	0.075	142134	keystroke_Key.space	Key.space	n/a
71.532	0.06	143064	keystroke_c	c	n/a
71.607	0.0755	143214	keystroke_i	i	n/a
71.757	0.0905	143514	keystroke_t	t	n/a
71.907	0.06	143814	keystroke_i	i	n/a
72.9275	0.1045	145855	keystroke_Key.backspace	Key.backspace	n/a
73.0465	0.1355	146093	keystroke_a	a	n/a
73.1515	0.1055	146303	keystroke_t	t	n/a
73.2725	0.1345	146545	keystroke_i	i	n/a
73.3765	0.09	146753	keystroke_o	o	n/a
73.602	0.075	147204	keystroke_n	n	n/a
74.0215	0.075	148043	keystroke_s	s	n/a
74.202	0.075	148404	keystroke_Key.space	Key.space	n/a
74.5475	0.075	149095	keystroke_r	r	n/a
74.7265	0.0755	149453	keystroke_o	o	n/a
74.922	0.135	149844	keystroke_a	a	n/a
75.027	0.1055	150054	keystroke_d	d	n/a
75.1465	0.0755	150293	keystroke_Key.space	Key.space	n/a
75.357	0.075	150714	keystroke_s	s	n/a
75.672	0.03	151344	keystroke_Key.backspace	Key.backspace	n/a
75.8065	0.076	151613	keystroke_Key.backspace	Key.backspace	n/a
75.9125	0.09	151825	keystroke_s	s	n/a
76.017	0.0755	152034	keystroke_Key.space	Key.space	n/a
76.512	0.015	153024	keystroke_d	d	n/a
76.647	0.12	153294	keystroke_e	e	n/a
76.872	0.075	153744	keystroke_o	o	n/a
77.0825	0.0595	154165	keystroke_u	u	n/a
77.1875	0.0745	154375	keystroke_t	t	n/a
77.4125	0.029	154825	keystroke_y	y	n/a
77.802	0.0895	155604	keystroke_Key.enter	Key.enter	n/a
77.8995	7.7945	155799	prompt	n/a	defined guides cooperation illegal\n
79.168	0.029	158336	keystroke_d	d	n/a
79.302	0.105	158604	keystroke_e	e	n/a
79.407	0.12	158814	keystroke_f	f	n/a
79.542	0.1205	159084	keystroke_i	i	n/a
79.632	0.105	159264	keystroke_n	n	n/a
79.767	0.03	159534	keystroke_e	e	n/a
79.9015	0.091	159803	keystroke_d	d	n/a
80.0065	0.1055	160013	keystroke_Key.space	Key.space	n/a
80.802	0.0745	161604	keystroke_g	g	n/a
80.9065	0.12	161813	keystroke_u	u	n/a
80.9965	0.09	161993	keystroke_i	i	n/a
81.1315	0.045	162263	keystroke_d	d	n/a
81.282	0.135	162564	keystroke_e	e	n/a
81.372	0.135	162744	keystroke_s	s	n/a
81.522	0.105	163044	keystroke_Key.space	Key.space	n/a
81.8825	0.1045	163765	keystroke_c	c	n/a
82.002	0.06	164004	keystroke_o	o	n/a
82.167	0.06	164334	keystroke_o	o	n/a
82.3165	0.09	164633	keystroke_p	p	n/a
82.5265	0.165	165053	keystroke_e	e	n/a
82.647	0.105	165294	keystroke_r	r	n/a
82.8875	0.1495	165775	keystroke_a	a	n/a
83.0375	0.119	166075	keystroke_t	t	n/a
83.217	0.1355	166434	keystroke_i	i	n/a
83.322	0.1045	166644	keystroke_o	o	n/a
83.562	0.0755	167124	keystroke_n	n	n/a
83.7115	0.105	167423	keystroke_Key.space	Key.space	n/a
84.2375	0.105	168475	keystroke_i	i	n/a
84.4765	0.0605	168953	keystroke_l	l	n/a
84.6115	0.075	169223	keystroke_l	l	n/a
84.7315	0.0755	169463	keystroke_e	e	n/a
84.897	0.105	169794	keystroke_g	g	n/a
85.002	0.09	170004	keystroke_a	a	n/a
85.107	0.0905	170214	keystroke_l	l	n/a
85.617	0.0745	171234	keystroke_Key.enter	Key.enter	n/a
85.699	11.5905	171398	prompt	n/a	installations bradford shirts footage\n
87.9735	0.0285	175947	keystroke_i	i	n/a
88.121	0.0755	176242	keystroke_n	n	n/a
88.242	0.1205	176484	keystroke_s	s	n/a
88.347	0.12	176694	keystroke_t	t	n/a
88.5125	0.0895	177025	keystroke_a	a	n/a
89.0375	0.075	178075	keystroke_l	l	n/a
89.217	0.075	178434	keystroke_l	l	n/a
89.397	0.09	178794	keystroke_a	a	n/a
89.742	0.075	179484	keystroke_t	t	n/a
90.147	0.135	180294	keystroke_i	i	n/a
90.267	0.105	180534	keystroke_o	o	n/a
90.477	0.075	180954	keystroke_n	n	n/a
90.597	0.06	181194	keystroke_s	s	n/a
90.717	0.09	181434	keystroke_Key.space	Key.space	n/a
91.062	0.09	182124	keystroke_b	b	n/a
91.197	0.06	182394	keystroke_r	r	n/a
91.512	0.1495	183024	keystroke_a	a	n/a
91.6775	0.059	183355	keystroke_d	d	n/a
92.202	0.075	184404	keystroke_f	f	n/a
92.2925	0.059	184585	keystroke_o	o	n/a
92.3815	0.075	184763	keystroke_r	r	n/a
92.5915	0.0755	185183	keystroke_d	d	n/a
92.741	0.0755	185482	keystroke_Key.space	Key.space	n/a
92.9215	0.1055	185843	keystroke_s	s	n/a
93.0565	0.136	186113	keystroke_h	h	n/a
93.5365	0.0755	187073	keystroke_i	i	n/a
93.702	0.165	187404	keystroke_r	r	n/a
93.9725	0.1345	187945	keystroke_t	t	n/a
94.182	0.09	188364	keystroke_s	s	n/a
94.587	0.09	189174	keystroke_Key.space	Key.space	n/a
95.052	0.09	190104	keystroke_f	f	n/a
95.4565	0.0755	190913	keystroke_o	o	n/a
95.6215	0.091	191243	keystroke_o	o	n/a
95.742	0.06	191484	keystroke_t	t	n/a
95.832	0.1495	191664	keystroke_a	a	n/a
95.9365	0.1355	191873	keystroke_g	g	n/a
96.042	0.075	192084	keystroke_e	e	n/a
96.1765	0.105	192353	keystroke_'	'	n/a
96.897	0.09	193794	keystroke_Key.backspace	Key.backspace	n/a
97.1965	0.0905	194393	keystroke_Key.enter	Key.enter	n/a
97.2975	9.9515	194595	prompt	n/a	enhancing ebooks rain availability\n
98.4115	0.06	196823	keystroke_e	e	n/a
98.5615	0.0595	197123	keystroke_n	n	n/a
99.147	0.06	198294	keystroke_h	h	n/a
99.327	0.105	198654	keystroke_a	a	n/a
99.447	0.075	198894	keystroke_n	n	n/a
99.822	0.09	199644	keystroke_c	c	n/a
99.927	0.179	199854	keystroke_i	i	n/a
100.047	0.105	200094	keystroke_n	n	n/a
100.242	0.09	200484	keystroke_g	g	n/a
100.467	0.105	200934	keystroke_Key.space	Key.space	n/a
100.707	0.09	201414	keystroke_e	e	n/a
101.127	0.075	202254	keystroke_b	b	n/a
101.262	0.06	202524	keystroke_o	o	n/a
101.412	0.104	202824	keystroke_o	o	n/a
101.487	0.105	202974	keystroke_k	k	n/a
101.637	0.075	203274	keystroke_s	s	n/a
101.787	0.135	203574	keystroke_Key.space	Key.space	n/a
102.057	0.105	204114	keystroke_r	r	n/a
102.1925	0.0895	204385	keystroke_a	a	n/a
102.267	0.165	204534	keystroke_i	i	n/a
102.372	0.12	204744	keystroke_n	n	n/a
102.522	0.09	205044	keystroke_Key.space	Key.space	n/a
103.6165	0.09	207233	keystroke_a	a	n/a
103.8715	0.1055	207743	keystroke_v	v	n/a
103.9915	0.09	207983	keystroke_a	a	n/a
104.157	0.09	208314	keystroke_i	i	n/a
104.4425	0.089	208885	keystroke_l	l	n/a
105.1465	0.075	210293	keystroke_a	a	n/a
105.432	0.0595	210864	keystroke_b	b	n/a
105.612	0.0745	211224	keystroke_i	i	n/a
105.7915	0.075	211583	keystroke_l	l	n/a
106.1515	0.06	212303	keystroke_i	i	n/a
106.302	0.0445	212604	keystroke_t	t	n/a
106.4375	0.0745	212875	keystroke_y	y	n/a
107.186	0.0605	214372	keystroke_Key.enter	Key.enter	n/a
107.2535	9.4005	214507	prompt	n/a	deaf hockey look riding\n
108.1625	0.0745	216325	keystroke_d	d	n/a
108.327	0.12	216654	keystroke_e	e	n/a
108.417	0.1645	216834	keystroke_a	a	n/a
108.5965	0.0605	217193	keystroke_g	g	n/a
108.612	0.0595	217224	keystroke_f	f	n/a
108.7165	0.105	217433	keystroke_Key.space	Key.space	n/a
109.527	0.045	219054	keystroke_=	=	n/a
109.692	0.0605	219384	keystroke_=	=	n/a
110.0365	0.0595	220073	keystroke_Key.backspace	Key.backspace	n/a
110.412	0.09	220824	keystroke_Key.backspace	Key.backspace	n/a
110.591	0.076	221182	keystroke_Key.backspace	Key.backspace	n/a
110.787	0.0895	221574	keystroke_Key.backspace	Key.backspace	n/a
111.1615	0.12	222323	keystroke_Key.backspace	Key.backspace	n/a
111.447	0.0745	222894	keystroke_f	f	n/a
112.182	0.075	224364	keystroke_Key.space	Key.space	n/a
112.8575	0.09	225715	keystroke_h	h	n/a
113.0965	0.075	226193	keystroke_o	o	n/a
113.2315	0.105	226463	keystroke_c	c	n/a
113.3815	0.091	226763	keystroke_k	k	n/a
113.5315	0.1655	227063	keystroke_e	e	n/a
113.6815	0.0755	227363	keystroke_y	y	n/a
113.787	0.12	227574	keystroke_Key.space	Key.space	n/a
114.597	0.059	229194	keystroke_l	l	n/a
114.777	0.045	229554	keystroke_o	o	n/a
114.927	0.12	229854	keystroke_o	o	n/a
115.017	0.09	230034	keystroke_k	k	n/a
115.167	0.105	230334	keystroke_Key.space	Key.space	n/a
115.362	0.06	230724	keystroke_r	r	n/a
115.527	0.075	231054	keystroke_i	i	n/a
115.647	0.09	231294	keystroke_d	d	n/a
115.752	0.165	231504	keystroke_i	i	n/a
115.8565	0.105	231713	keystroke_n	n	n/a
115.977	0.06	231954	keystroke_g	g	n/a
116.592	0.0595	233184	keystroke_Key.enter	Key.enter	n/a
116.659	10.1195	233318	prompt	n/a	expires george keyboards cathedral\n
117.3565	0.06	234713	keystroke_e	e	n/a
117.6415	0.09	235283	keystroke_x	x	n/a
117.8215	0.0905	235643	keystroke_p	p	n/a
118.0775	0.0595	236155	keystroke_i	i	n/a
118.1675	0.105	236335	keystroke_r	r	n/a
118.2415	0.181	236483	keystroke_e	e	n/a
118.3915	0.105	236783	keystroke_s	s	n/a
118.5565	0.105	237113	keystroke_Key.space	Key.space	n/a
119.277	0.09	238554	keystroke_g	g	n/a
119.427	0.075	238854	keystroke_e	e	n/a
119.517	0.075	239034	keystroke_o	o	n/a
119.697	0.09	239394	keystroke_r	r	n/a
119.892	0.135	239784	keystroke_g	g	n/a
120.012	0.074	240024	keystroke_e	e	n/a
120.1315	0.09	240263	keystroke_Key.space	Key.space	n/a
120.867	0.075	241734	keystroke_k	k	n/a
121.016	0.121	242032	keystroke_e	e	n/a
121.317	0.03	242634	keystroke_y	y	n/a
121.542	0.0745	243084	keystroke_b	b	n/a
121.766	0.045	243532	keystroke_o	o	n/a
121.9015	0.15	243803	keystroke_a	a	n/a
122.022	0.0895	244044	keystroke_r	r	n/a
122.217	0.1945	244434	keystroke_d	d	n/a
122.3675	0.134	244735	keystroke_s	s	n/a
122.5165	0.1055	245033	keystroke_Key.space	Key.space	n/a
123.162	0.12	246324	keystroke_c	c	n/a
123.3115	0.15	246623	keystroke_a	a	n/a
123.417	0.1195	246834	keystroke_t	t	n/a
123.552	0.09	247104	keystroke_h	h	n/a
123.672	0.1195	247344	keystroke_e	e	n/a
123.7325	0.104	247465	keystroke_r	r	n/a
125.0515	0.09	250103	keystroke_Key.backspace	Key.backspace	n/a
125.2625	0.149	250525	keystroke_d	d	n/a
125.427	0.074	250854	keystroke_a	a	n/a
125.547	0.105	251094	keystroke_r	r	n/a
125.831	0.0455	251662	keystroke_Key.backspace	Key.backspace	n/a
125.9965	0.06	251993	keystroke_Key.backspace	Key.backspace	n/a
126.072	0.0895	252144	keystroke_r	r	n/a
126.1625	0.1045	252325	keystroke_a	a	n/a
126.3265	0.105	252653	keystroke_l	l	n/a
126.7165	0.06	253433	keystroke_Key.enter	Key.enter	n/a
126.791	13.458	253582	prompt	n/a	prostate speeches communication harris\n
128.426	0.075	256852	keystroke_p	p	n/a
128.651	0.0905	257302	keystroke_r	r	n/a
128.831	0.045	257662	keystroke_o	o	n/a
129.2065	0.1195	258413	keystroke_s	s	n/a
129.311	0.1505	258622	keystroke_t	t	n/a
129.446	0.121	258892	keystroke_a	a	n/a
129.536	0.151	259072	keystroke_t	t	n/a
129.702	0.104	259404	keystroke_e	e	n/a
129.866	0.1205	259732	keystroke_Key.space	Key.space	n/a
130.212	0.105	260424	keystroke_s	s	n/a
130.347	0.0745	260694	keystroke_p	p	n/a
130.4515	0.075	260903	keystroke_e	e	n/a
130.6315	0.075	261263	keystroke_e	e	n/a
131.0965	0.12	262193	keystroke_c	c	n/a
131.2315	0.075	262463	keystroke_h	h	n/a
131.352	0.1495	262704	keystroke_e	e	n/a
131.4415	0.105	262883	keystroke_s	s	n/a
131.5615	0.0905	263123	keystroke_Key.space	Key.space	n/a
131.8915	0.06	263783	keystroke_c	c	n/a
132.087	0.06	264174	keystroke_i	i	n/a
132.282	0.0595	264564	keystroke_m	m	n/a
132.447	0.09	264894	keystroke_m	m	n/a
132.9865	0.075	265973	keystroke_Key.backspace	Key.backspace	n/a
133.212	0.045	266424	keystroke_Key.backspace	Key.backspace	n/a
133.302	0.075	266604	keystroke_Key.backspace	Key.backspace	n/a
133.9915	0.0905	267983	keystroke_o	o	n/a
134.1865	0.0605	268373	keystroke_m	m	n/a
134.682	0.09	269364	keystroke_m	m	n/a
134.922	0.0595	269844	keystroke_u	u	n/a
135.0115	0.12	270023	keystroke_c	c	n/a
135.1925	0.1045	270385	keystroke_i	i	n/a
135.822	0.075	271644	keystroke_Key.backspace	Key.backspace	n/a
136.002	0.06	272004	keystroke_Key.backspace	Key.backspace	n/a
137.337	0.06	274674	keystroke_n	n	n/a
137.4865	0.06	274973	keystroke_i	i	n/a
137.607	0.15	275214	keystroke_c	c	n/a
137.772	0.135	275544	keystroke_a	a	n/a
137.908	0.119	275816	keystroke_t	t	n/a
138.042	0.105	276084	keystroke_i	i	n/a
138.132	0.075	276264	keystroke_o	o	n/a
138.342	0.075	276684	keystroke_n	n	n/a
138.447	0.075	276894	keystroke_s	s	n/a
138.552	0.09	277104	keystroke_Key.space	Key.space	n/a
138.762	0.06	277524	keystroke_h	h	n/a
138.866	0.1205	277732	keystroke_a	a	n/a
139.167	0.0595	278334	keystroke_r	r	n/a
139.317	0.075	278634	keystroke_r	r	n/a
139.5115	0.075	279023	keystroke_i	i	n/a
139.677	0.0755	279354	keystroke_s	s	n/a
140.187	0.06	280374	keystroke_Key.enter	Key.enter	n/a
140.2535	10.555	280507	prompt	n/a	coleman block associated circumstances\n
140.907	0.12	281814	keystroke_c	c	n/a
141.072	0.09	282144	keystroke_o	o	n/a
141.267	0.0895	282534	keystroke_l	l	n/a
141.3715	0.06	282743	keystroke_e	e	n/a
141.507	0.0745	283014	keystroke_m	m	n/a
141.642	0.0895	283284	keystroke_a	a	n/a
141.7465	0.075	283493	keystroke_n	n	n/a
141.956	0.061	283912	keystroke_Key.space	Key.space	n/a
142.587	0.074	285174	keystroke_b	b	n/a
142.7815	0.0755	285563	keystroke_l	l	n/a
142.9615	0.0605	285923	keystroke_o	o	n/a
143.0365	0.09	286073	keystroke_c	c	n/a
143.1565	0.0905	286313	keystroke_k	k	n/a
143.3815	0.045	286763	keystroke_Key.space	Key.space	n/a
143.4715	0.09	286943	keystroke_a	a	n/a
143.6215	0.105	287243	keystroke_s	s	n/a
143.8315	0.0755	287663	keystroke_s	s	n/a
144.207	0.075	288414	keystroke_o	o	n/a
144.402	0.105	288804	keystroke_c	c	n/a
145.002	0.06	290004	keystroke_i	i	n/a
145.1965	0.2095	290393	keystroke_a	a	n/a
145.3165	0.166	290633	keystroke_t	t	n/a
145.451	0.106	290902	keystroke_e	e	n/a
145.632	0.1045	291264	keystroke_d	d	n/a
145.7665	0.105	291533	keystroke_Key.space	Key.space	n/a
146.8165	0.1055	293633	keystroke_c	c	n/a
147.042	0.1205	294084	keystroke_i	i	n/a
147.5215	0.105	295043	keystroke_Key.backspace	Key.backspace	n/a
148.302	0.104	296604	keystroke_i	i	n/a
148.632	0.09	297264	keystroke_r	r	n/a
148.917	0.105	297834	keystroke_c	c	n/a
149.037	0.06	298074	keystroke_u	u	n/a
149.262	0.075	298524	keystroke_m	m	n/a
149.367	0.18	298734	keystroke_s	s	n/a
149.517	0.12	299034	keystroke_t	t	n/a
149.651	0.106	299302	keystroke_a	a	n/a
149.727	0.075	299454	keystroke_n	n	n/a
150.102	0.18	300204	keystroke_c	c	n/a
150.2215	0.165	300443	keystroke_e	e	n/a
150.3715	0.1205	300743	keystroke_s	s	n/a
150.7165	0.09	301433	keystroke_Key.enter	Key.enter	n/a
150.82	8.0735	301640	prompt	n/a	glucose howdy darkness housewares\n
151.9315	0.06	303863	keystroke_g	g	n/a
152.0515	0.12	304103	keystroke_l	l	n/a
152.2915	0.06	304583	keystroke_u	u	n/a
152.4115	0.09	304823	keystroke_c	c	n/a
152.5165	0.09	305033	keystroke_o	o	n/a
152.6965	0.1355	305393	keystroke_s	s	n/a
152.7865	0.1205	305573	keystroke_e	e	n/a
152.9365	0.1205	305873	keystroke_Key.space	Key.space	n/a
153.2365	0.0745	306473	keystroke_h	h	n/a
153.402	0.089	306804	keystroke_o	o	n/a
153.506	0.1805	307012	keystroke_w	w	n/a
153.7465	0.075	307493	keystroke_e	e	n/a
154.0765	0.06	308153	keystroke_Key.backspace	Key.backspace	n/a
154.2265	0.1055	308453	keystroke_d	d	n/a
154.4515	0.09	308903	keystroke_y	y	n/a
154.5715	0.09	309143	keystroke_Key.space	Key.space	n/a
155.247	0.135	310494	keystroke_d	d	n/a
155.456	0.15	310912	keystroke_a	a	n/a
155.562	0.09	311124	keystroke_r	r	n/a
155.652	0.09	311304	keystroke_k	k	n/a
155.847	0.09	311694	keystroke_n	n	n/a
155.922	0.164	311844	keystroke_e	e	n/a
156.041	0.105	312082	keystroke_s	s	n/a
156.252	0.1045	312504	keystroke_s	s	n/a
156.4015	0.105	312803	keystroke_Key.space	Key.space	n/a
156.8215	0.105	313643	keystroke_h	h	n/a
156.9415	0.165	313883	keystroke_o	o	n/a
157.077	0.0745	314154	keystroke_u	u	n/a
157.2565	0.1505	314513	keystroke_s	s	n/a
157.4515	0.12	314903	keystroke_e	e	n/a
157.7365	0.1355	315473	keystroke_w	w	n/a
157.827	0.1945	315654	keystroke_a	a	n/a
157.9615	0.2105	315923	keystroke_r	r	n/a
158.1115	0.1805	316223	keystroke_e	e	n/a
158.277	0.1345	316554	keystroke_s	s	n/a
158.817	0.075	317634	keystroke_Key.enter	Key.enter	n/a
158.898	10.391	317796	prompt	n/a	block companies strings armstrong\n
160.047	0.12	320094	keystroke_b	b	n/a
160.182	0.09	320364	keystroke_l	l	n/a
160.392	0.09	320784	keystroke_o	o	n/a
160.526	0.091	321052	keystroke_c	c	n/a
160.677	0.105	321354	keystroke_k	k	n/a
160.9165	0.1195	321833	keystroke_Key.space	Key.space	n/a
162.0265	0.09	324053	keystroke_c	c	n/a
162.1175	0.149	324235	keystroke_o	o	n/a
162.312	0.075	324624	keystroke_m	m	n/a
162.5515	0.09	325103	keystroke_p	p	n/a
162.822	0.105	325644	keystroke_a	a	n/a
163.0315	0.0895	326063	keystroke_n	n	n/a
163.2865	0.06	326573	keystroke_i	i	n/a
163.7365	0.18	327473	keystroke_e	e	n/a
163.8565	0.15	327713	keystroke_s	s	n/a
163.9915	0.105	327983	keystroke_Key.space	Key.space	n/a
164.1715	0.195	328343	keystroke_s	s	n/a
164.3215	0.12	328643	keystroke_t	t	n/a
164.4565	0.1805	328913	keystroke_i	i	n/a
164.5765	0.1205	329153	keystroke_n	n	n/a
164.682	0.1045	329364	keystroke_g	g	n/a
164.9365	0.0755	329873	keystroke_s	s	n/a
165.5965	0.075	331193	keystroke_Key.backspace	Key.backspace	n/a
165.7615	0.075	331523	keystroke_Key.backspace	Key.backspace	n/a
165.9115	0.0905	331823	keystroke_Key.backspace	Key.backspace	n/a
166.092	0.0745	332184	keystroke_Key.backspace	Key.backspace	n/a
166.692	0.075	333384	keystroke_r	r	n/a
166.812	0.135	333624	keystroke_i	i	n/a
166.932	0.12	333864	keystroke_n	n	n/a
167.066	0.12	334132	keystroke_g	g	n/a
167.1565	0.105	334313	keystroke_s	s	n/a
167.291	0.09	334582	keystroke_Key.space	Key.space	n/a
167.8315	0.1205	335663	keystroke_a	a	n/a
168.072	0.09	336144	keystroke_r	r	n/a
168.221	0.09	336442	keystroke_m	m	n/a
168.357	0.1645	336714	keystroke_s	s	n/a
168.5065	0.2105	337013	keystroke_t	t	n/a
168.657	0.119	337314	keystroke_r	r	n/a
168.807	0.1495	337614	keystroke_o	o	n/a
168.942	0.09	337884	keystroke_n	n	n/a
169.076	0.046	338152	keystroke_g	g	n/a
169.197	0.09	338394	keystroke_Key.enter	Key.enter	n/a
169.303	7.755	338606	prompt	n/a	amber hayes scores charter\n
170.096	0.075	340192	keystroke_a	a	n/a
170.516	0.061	341032	keystroke_m	m	n/a
170.727	0.0595	341454	keystroke_b	b	n/a
170.817	0.15	341634	keystroke_e	e	n/a
170.9215	0.105	341843	keystroke_r	r	n/a
170.9815	0.1055	341963	keystroke_Key.space	Key.space	n/a
171.7315	0.0745	343463	keystroke_h	h	n/a
171.8515	0.1205	343703	keystroke_a	a	n/a
171.956	0.076	343912	keystroke_y	y	n/a
172.0465	0.09	344093	keystroke_e	e	n/a
172.256	0.09	344512	keystroke_s	s	n/a
172.4665	0.0905	344933	keystroke_Key.space	Key.space	n/a
172.692	0.15	345384	keystroke_s	s	n/a
172.827	0.105	345654	keystroke_c	c	n/a
172.947	0.06	345894	keystroke_o	o	n/a
173.157	0.18	346314	keystroke_r	r	n/a
173.277	0.195	346554	keystroke_e	e	n/a
173.411	0.1205	346822	keystroke_s	s	n/a
173.6365	0.135	347273	keystroke_Key.space	Key.space	n/a
174.206	0.09	348412	keystroke_c	c	n/a
174.3415	0.075	348683	keystroke_h	h	n/a
174.4765	0.1355	348953	keystroke_a	a	n/a
174.5815	0.1205	349163	keystroke_r	r	n/a
174.9415	0.1355	349883	keystroke_e	e	n/a
175.122	0.0895	350244	keystroke_s	s	n/a
175.4815	0.075	350963	keystroke_Key.backspace	Key.backspace	n/a
175.6465	0.075	351293	keystroke_Key.backspace	Key.backspace	n/a
175.707	0.12	351414	keystroke_t	t	n/a
175.8415	0.135	351683	keystroke_e	e	n/a
175.917	0.1195	351834	keystroke_r	r	n/a
176.232	0.075	352464	keystroke_s	s	n/a
176.832	0.1045	353664	keystroke_Key.backspace	Key.backspace	n/a
176.9815	0.075	353963	keystroke_Key.enter	Key.enter	n/a
177.0615	7.5875	354123	prompt	n/a	korean kitchen lightweight floppy\n
178.302	0.09	356604	keystroke_k	k	n/a
178.3925	0.104	356785	keystroke_o	o	n/a
178.482	0.135	356964	keystroke_r	r	n/a
178.5565	0.15	357113	keystroke_e	e	n/a
178.6315	0.1205	357263	keystroke_a	a	n/a
178.752	0.0905	357504	keystroke_n	n	n/a
178.871	0.136	357742	keystroke_Key.space	Key.space	n/a
179.3365	0.09	358673	keystroke_k	k	n/a
179.5615	0.09	359123	keystroke_i	i	n/a
179.6815	0.045	359363	keystroke_t	t	n/a
179.8775	0.1045	359755	keystroke_c	c	n/a
179.9825	0.059	359965	keystroke_h	h	n/a
180.117	0.0745	360234	keystroke_e	e	n/a
180.2215	0.0755	360443	keystroke_n	n	n/a
180.371	0.0905	360742	keystroke_Key.space	Key.space	n/a
180.807	0.09	361614	keystroke_l	l	n/a
181.0165	0.06	362033	keystroke_i	i	n/a
181.1065	0.0905	362213	keystroke_g	g	n/a
181.3015	0.061	362603	keystroke_h	h	n/a
181.4515	0.105	362903	keystroke_t	t	n/a
181.7965	0.12	363593	keystroke_w	w	n/a
182.1265	0.105	364253	keystroke_e	e	n/a
182.247	0.075	364494	keystroke_i	i	n/a
182.397	0.09	364794	keystroke_g	g	n/a
182.5165	0.0755	365033	keystroke_h	h	n/a
182.621	0.075	365242	keystroke_t	t	n/a
182.741	0.091	365482	keystroke_Key.space	Key.space	n/a
183.522	0.06	367044	keystroke_f	f	n/a
183.6415	0.075	367283	keystroke_l	l	n/a
183.8515	0.0305	367703	keystroke_o	o	n/a
184.137	0.075	368274	keystroke_p	p	n/a
184.317	0.075	368634	keystroke_p	p	n/a
184.467	0.06	368934	keystroke_y	y	n/a
184.5715	0.0755	369143	keystroke_Key.enter	Key.enter	n/a
184.6535	5.47	369307	prompt	n/a	stronger safe sounds bulletin\n
185.472	0.165	370944	keystroke_s	s	n/a
185.637	0.15	371274	keystroke_t	t	n/a
185.7265	0.135	371453	keystroke_r	r	n/a
185.907	0.09	371814	keystroke_o	o	n/a
186.042	0.0745	372084	keystroke_n	n	n/a
186.1315	0.0755	372263	keystroke_g	g	n/a
186.2825	0.149	372565	keystroke_e	e	n/a
186.3715	0.1055	372743	keystroke_r	r	n/a
186.4915	0.0905	372983	keystroke_Key.space	Key.space	n/a
186.657	0.09	373314	keystroke_s	s	n/a
186.866	0.18	373732	keystroke_a	a	n/a
187.0765	0.1955	374153	keystroke_f	f	n/a
187.227	0.1195	374454	keystroke_e	e	n/a
187.3615	0.09	374723	keystroke_Key.space	Key.space	n/a
187.5865	0.0745	375173	keystroke_s	s	n/a
187.6915	0.1345	375383	keystroke_o	o	n/a
187.8115	0.105	375623	keystroke_u	u	n/a
188.051	0.0755	376102	keystroke_n	n	n/a
188.141	0.1355	376282	keystroke_d	d	n/a
188.231	0.1055	376462	keystroke_s	s	n/a
188.351	0.091	376702	keystroke_Key.space	Key.space	n/a
188.6815	0.0755	377363	keystroke_b	b	n/a
189.1015	0.0755	378203	keystroke_u	u	n/a
189.2965	0.06	378593	keystroke_l	l	n/a
189.4465	0.075	378893	keystroke_l	l	n/a
189.567	0.1195	379134	keystroke_e	e	n/a
189.657	0.0595	379314	keystroke_t	t	n/a
189.7615	0.045	379523	keystroke_i	i	n/a
189.8965	0.075	379793	keystroke_n	n	n/a
190.0615	0.0605	380123	keystroke_Key.enter	Key.enter	n/a
190.128	7.4055	380256	prompt	n/a	fantasy processing assault ethics\n
190.872	0.1345	381744	keystroke_f	f	n/a
190.992	0.09	381984	keystroke_a	a	n/a
191.0965	0.06	382193	keystroke_n	n	n/a
191.2915	0.1345	382583	keystroke_t	t	n/a
191.486	0.1205	382972	keystroke_a	a	n/a
191.636	0.2855	383272	keystroke_s	s	n/a
191.8915	0.12	383783	keystroke_y	y	n/a
192.0415	0.105	384083	keystroke_Key.space	Key.space	n/a
192.432	0.074	384864	keystroke_p	p	n/a
192.537	0.12	385074	keystroke_r	r	n/a
192.7315	0.075	385463	keystroke_o	o	n/a
192.9715	0.105	385943	keystroke_c	c	n/a
193.122	0.12	386244	keystroke_e	e	n/a
193.272	0.074	386544	keystroke_s	s	n/a
193.437	0.075	386874	keystroke_s	s	n/a
193.542	0.105	387084	keystroke_i	i	n/a
193.662	0.105	387324	keystroke_n	n	n/a
193.751	0.061	387502	keystroke_g	g	n/a
193.872	0.089	387744	keystroke_Key.space	Key.space	n/a
194.172	0.1495	388344	keystroke_a	a	n/a
194.3665	0.0905	388733	keystroke_s	s	n/a
194.562	0.1045	389124	keystroke_s	s	n/a
194.652	0.0895	389304	keystroke_a	a	n/a
194.8015	0.06	389603	keystroke_u	u	n/a
195.3265	0.0895	390653	keystroke_l	l	n/a
195.4915	0.06	390983	keystroke_t	t	n/a
195.5965	0.105	391193	keystroke_Key.space	Key.space	n/a
196.0315	0.0755	392063	keystroke_t	t	n/a
196.4665	0.0155	392933	keystroke_Key.backspace	Key.backspace	n/a
196.5415	0.135	393083	keystroke_e	e	n/a
196.7815	0.09	393563	keystroke_t	t	n/a
196.916	0.105	393832	keystroke_h	h	n/a
196.9915	0.0895	393983	keystroke_i	i	n/a
197.111	0.1055	394222	keystroke_c	c	n/a
197.187	0.1045	394374	keystroke_s	s	n/a
197.4565	0.075	394913	keystroke_Key.enter	Key.enter	n/a
197.54	13.509	395080	prompt	n/a	birmingham brazilian seattle logan\n
198.297	0.074	396594	keystroke_b	b	n/a
198.507	0.06	397014	keystroke_i	i	n/a
198.687	0.09	397374	keystroke_r	r	n/a
198.867	0.089	397734	keystroke_n	n	n/a
199.0615	0.105	398123	keystroke_i	i	n/a
199.482	0.0445	398964	keystroke_Key.backspace	Key.backspace	n/a
199.6315	0.075	399263	keystroke_Key.backspace	Key.backspace	n/a
199.8715	0.075	399743	keystroke_m	m	n/a
200.1115	0.12	400223	keystroke_i	i	n/a
200.2765	0.075	400553	keystroke_n	n	n/a
200.4865	0.06	400973	keystroke_g	g	n/a
201.237	0.075	402474	keystroke_h	h	n/a
201.417	0.075	402834	keystroke_a	a	n/a
201.537	0.06	403074	keystroke_n	n	n/a
201.732	0.029	403464	keystroke_Key.space	Key.space	n/a
202.166	0.046	404332	keystroke_b	b	n/a
202.286	0.1065	404572	keystroke_r	r	n/a
202.422	0.104	404844	keystroke_a	a	n/a
202.721	0.09	405442	keystroke_z	z	n/a
202.8725	0.0745	405745	keystroke_i	i	n/a
203.352	0.09	406704	keystroke_l	l	n/a
203.592	0.0895	407184	keystroke_i	i	n/a
203.727	0.075	407454	keystroke_a	a	n/a
203.9065	0.075	407813	keystroke_n	n	n/a
204.0715	0.0755	408143	keystroke_Key.space	Key.space	n/a
204.4015	0.1495	408803	keystroke_s	s	n/a
204.552	0.1945	409104	keystroke_e	e	n/a
204.776	0.166	409552	keystroke_a	a	n/a
205.032	0.0895	410064	keystroke_l	l	n/a
205.6465	0.4045	411293	keystroke_Key.backspace	Key.backspace	n/a
208.964	0.012	417928	keystroke_t	t	n/a
209.066	0.075	418132	keystroke_t	t	n/a
209.1565	0.0895	418313	keystroke_l	l	n/a
209.306	0.0755	418612	keystroke_e	e	n/a
209.4115	0.105	418823	keystroke_Key.space	Key.space	n/a
210.207	0.075	420414	keystroke_l	l	n/a
210.402	0.06	420804	keystroke_o	o	n/a
210.552	0.12	421104	keystroke_g	g	n/a
210.672	0.075	421344	keystroke_a	a	n/a
210.792	0.074	421584	keystroke_n	n	n/a
210.972	0.074	421944	keystroke_Key.enter	Key.enter	n/a
211.066	9.778	422132	prompt	n/a	accent showing make posters\n
211.827	0.09	423654	keystroke_a	a	n/a
211.976	0.135	423952	keystroke_c	c	n/a
212.127	0.119	424254	keystroke_c	c	n/a
212.381	0.135	424762	keystroke_c	c	n/a
212.501	0.106	425002	keystroke_e	e	n/a
212.6215	0.09	425243	keystroke_n	n	n/a
212.741	0.09	425482	keystroke_t	t	n/a
212.876	0.0905	425752	keystroke_Key.space	Key.space	n/a
213.2515	0.075	426503	keystroke_Key.backspace	Key.backspace	n/a
213.4165	0.06	426833	keystroke_Key.backspace	Key.backspace	n/a
213.5515	0.075	427103	keystroke_Key.backspace	Key.backspace	n/a
213.6865	0.09	427373	keystroke_Key.backspace	Key.backspace	n/a
213.8665	0.06	427733	keystroke_Key.backspace	Key.backspace	n/a
214.226	0.09	428452	keystroke_e	e	n/a
214.377	0.09	428754	keystroke_n	n	n/a
214.4815	0.0905	428963	keystroke_t	t	n/a
214.616	0.075	429232	keystroke_Key.space	Key.space	n/a
215.051	0.105	430102	keystroke_s	s	n/a
215.261	0.0905	430522	keystroke_h	h	n/a
215.5915	0.105	431183	keystroke_o	o	n/a
215.7865	0.105	431573	keystroke_w	w	n/a
215.9215	0.135	431843	keystroke_i	i	n/a
216.0575	0.0885	432115	keystroke_n	n	n/a
216.162	0.075	432324	keystroke_g	g	n/a
216.2665	0.12	432533	keystroke_Key.space	Key.space	n/a
216.9415	0.09	433883	keystroke_m	m	n/a
217.0615	0.12	434123	keystroke_a	a	n/a
217.467	0.09	434934	keystroke_k	k	n/a
217.6465	0.09	435293	keystroke_e	e	n/a
218.0815	0.09	436163	keystroke_Key.space	Key.space	n/a
218.6065	0.0755	437213	keystroke_p	p	n/a
219.086	0.106	438172	keystroke_o	o	n/a
219.236	0.1655	438472	keystroke_s	s	n/a
219.3565	0.15	438713	keystroke_t	t	n/a
219.5065	0.165	439013	keystroke_e	e	n/a
219.6115	0.15	439223	keystroke_r	r	n/a
219.7465	0.1355	439493	keystroke_s	s	n/a
219.9115	0.09	439823	keystroke_'	'	n/a
220.5115	0.09	441023	keystroke_Key.backspace	Key.backspace	n/a
220.7515	0.09	441503	keystroke_Key.enter	Key.enter	n/a
220.8605	16.2435	441721	prompt	n/a	exercise electrical parade blog\n
221.7415	0.045	443483	keystroke_e	e	n/a
221.8315	0.12	443663	keystroke_c	c	n/a
222.1015	0.1645	444203	keystroke_e	e	n/a
222.4915	0.03	444983	keystroke_Key.backspace	Key.backspace	n/a
222.6415	0.06	445283	keystroke_Key.backspace	Key.backspace	n/a
222.8665	0.06	445733	keystroke_x	x	n/a
223.0615	0.18	446123	keystroke_e	e	n/a
223.166	0.1505	446332	keystroke_r	r	n/a
223.5865	0.135	447173	keystroke_c	c	n/a
223.7065	0.06	447413	keystroke_i	i	n/a
223.8265	0.1355	447653	keystroke_s	s	n/a
223.977	0.1045	447954	keystroke_e	e	n/a
224.1865	0.105	448373	keystroke_Key.space	Key.space	n/a
224.7265	0.09	449453	keystroke_e	e	n/a
225.191	0.091	450382	keystroke_l	l	n/a
225.431	0.061	450862	keystroke_e	e	n/a
225.612	0.06	451224	keystroke_e	e	n/a
226.001	0.031	452002	keystroke_Key.backspace	Key.backspace	n/a
226.062	0.105	452124	keystroke_c	c	n/a
226.497	0.1195	452994	keystroke_t	t	n/a
226.5715	0.21	453143	keystroke_r	r	n/a
226.737	0.1195	453474	keystroke_a	a	n/a
227.2615	0.075	454523	keystroke_Key.backspace	Key.backspace	n/a
227.4265	0.03	454853	keystroke_Key.backspace	Key.backspace	n/a
227.5915	0.09	455183	keystroke_i	i	n/a
227.6815	0.105	455363	keystroke_c	c	n/a
227.7865	0.075	455573	keystroke_a	a	n/a
227.8915	0.075	455783	keystroke_l	l	n/a
228.1615	0.0895	456323	keystroke_Key.space	Key.space	n/a
229.0015	0.09	458003	keystroke_p	p	n/a
229.526	0.12	459052	keystroke_Key.backspace	Key.backspace	n/a
229.7365	0.1045	459473	keystroke_Key.backspace	Key.backspace	n/a
229.9615	0.105	459923	keystroke_Key.backspace	Key.backspace	n/a
230.1415	0.1045	460283	keystroke_Key.backspace	Key.backspace	n/a
230.3665	0.119	460733	keystroke_Key.backspace	Key.backspace	n/a
230.696	0.105	461392	keystroke_Key.backspace	Key.backspace	n/a
231.117	0.0595	462234	keystroke_r	r	n/a
231.2665	0.045	462533	keystroke_i	i	n/a
231.341	0.136	462682	keystroke_c	c	n/a
231.4775	0.089	462955	keystroke_a	a	n/a
231.596	0.1055	463192	keystroke_l	l	n/a
231.7465	0.105	463493	keystroke_Key.space	Key.space	n/a
231.9115	0.105	463823	keystroke_p	p	n/a
232.0615	0.15	464123	keystroke_a	a	n/a
232.1515	0.135	464303	keystroke_r	r	n/a
232.3315	0.15	464663	keystroke_a	a	n/a
232.4365	0.12	464873	keystroke_g	g	n/a
232.7365	0.045	465473	keystroke_Key.backspace	Key.backspace	n/a
232.9165	0.06	465833	keystroke_Key.backspace	Key.backspace	n/a
232.9915	0.075	465983	keystroke_d	d	n/a
233.1565	0.06	466313	keystroke_e	e	n/a
233.1865	0.105	466373	keystroke_Key.space	Key.space	n/a
233.786	0.075	467572	keystroke_Key.backspace	Key.backspace	n/a
233.951	0.075	467902	keystroke_Key.backspace	Key.backspace	n/a
234.192	0.149	468384	keystroke_a	a	n/a
234.5815	0.06	469163	keystroke_Key.backspace	Key.backspace	n/a
234.7315	0.075	469463	keystroke_Key.backspace	Key.backspace	n/a
234.7915	0.1345	469583	keystroke_a	a	n/a
234.8965	0.0895	469793	keystroke_d	d	n/a
235.0915	0.0745	470183	keystroke_e	e	n/a
235.181	0.075	470362	keystroke_Key.space	Key.space	n/a
236.4865	0.015	472973	keystroke_b	b	n/a
236.5165	0.015	473033	keystroke_l	l	n/a
236.621	0.0755	473242	keystroke_o	o	n/a
236.711	0.045	473422	keystroke_g	g	n/a
237.026	0.075	474052	keystroke_Key.enter	Key.enter	n/a
237.1145	16.759	474229	prompt	n/a	then variety intensity bachelor\n
237.972	0.074	475944	keystroke_t	t	n/a
238.091	0.046	476182	keystroke_h	h	n/a
238.181	0.061	476362	keystroke_e	e	n/a
238.272	0.074	476544	keystroke_n	n	n/a
238.376	0.105	476752	keystroke_Key.space	Key.space	n/a
238.692	0.12	477384	keystroke_c	c	n/a
238.826	0.151	477652	keystroke_a	a	n/a
238.961	0.1205	477922	keystroke_r	r	n/a
239.1115	0.09	478223	keystroke_i	i	n/a
239.3215	0.165	478643	keystroke_e	e	n/a
239.4415	0.105	478883	keystroke_t	t	n/a
239.6365	0.06	479273	keystroke_y	y	n/a
239.7555	0.121	479511	keystroke_Key.space	Key.space	n/a
240.311	0.075	480622	keystroke_i	i	n/a
240.4465	0.105	480893	keystroke_n	n	n/a
240.5665	0.1645	481133	keystroke_t	t	n/a
240.7465	0.0905	481493	keystroke_e	e	n/a
241.0765	0.0905	482153	keystroke_n	n	n/a
241.2865	0.12	482573	keystroke_s	s	n/a
241.4215	0.09	482843	keystroke_i	i	n/a
241.5265	0.105	483053	keystroke_d	d	n/a
241.7815	0.045	483563	keystroke_y	y	n/a
241.9915	0.06	483983	keystroke_Key.backspace	Key.backspace	n/a
242.1565	0.0595	484313	keystroke_Key.backspace	Key.backspace	n/a
242.261	0.0755	484522	keystroke_f	f	n/a
242.366	0.06	484732	keystroke_y	y	n/a
242.5165	0.0895	485033	keystroke_Key.space	Key.space	n/a
242.801	0.0605	485602	keystroke_b	b	n/a
242.966	0.15	485932	keystroke_a	a	n/a
243.0865	0.1195	486173	keystroke_c	c	n/a
243.3565	0.015	486713	keystroke_h	h	n/a
243.386	0.06	486772	keystroke_e	e	n/a
243.4315	0.105	486863	keystroke_l	l	n/a
243.642	0.0595	487284	keystroke_o	o	n/a
243.8065	0.03	487613	keystroke_r	r	n/a
249.191	0.1055	498382	keystroke_v	v	n/a
249.311	0.135	498622	keystroke_a	a	n/a
249.431	0.12	498862	keystroke_r	r	n/a
249.6415	0.0455	499283	keystroke_i	i	n/a
249.792	0.179	499584	keystroke_e	e	n/a
249.926	0.105	499852	keystroke_t	t	n/a
250.1365	0.0445	500273	keystroke_y	y	n/a
250.256	0.1055	500512	keystroke_Key.space	Key.space	n/a
250.6765	0.09	501353	keystroke_i	i	n/a
250.797	0.0895	501594	keystroke_n	n	n/a
250.9005	0.151	501801	keystroke_t	t	n/a
251.0355	0.106	502071	keystroke_e	e	n/a
251.1715	0.06	502343	keystroke_n	n	n/a
251.3065	0.1045	502613	keystroke_s	s	n/a
251.441	0.075	502882	keystroke_i	i	n/a
251.606	0.0605	503212	keystroke_t	t	n/a
251.7705	0.0755	503541	keystroke_y	y	n/a
251.9055	0.121	503811	keystroke_Key.space	Key.space	n/a
252.611	0.1345	505222	keystroke_b	b	n/a
252.7615	0.15	505523	keystroke_a	a	n/a
252.897	0.119	505794	keystroke_c	c	n/a
253.017	0.074	506034	keystroke_h	h	n/a
253.166	0.0605	506332	keystroke_e	e	n/a
253.241	0.0905	506482	keystroke_l	l	n/a
253.481	0.045	506962	keystroke_o	o	n/a
253.646	0.075	507292	keystroke_r	r	n/a
253.796	0.0755	507592	keystroke_Key.enter	Key.enter	n/a
253.8855	12.3205	507771	prompt	n/a	funk laboratory switches warranties\n
254.577	0.0735	509154	keystroke_f	f	n/a
254.741	0.06	509482	keystroke_u	u	n/a
255.041	0.0905	510082	keystroke_n	n	n/a
255.251	0.135	510502	keystroke_k	k	n/a
255.507	0.044	511014	keystroke_Key.space	Key.space	n/a
255.821	0.09	511642	keystroke_l	l	n/a
255.971	0.09	511942	keystroke_a	a	n/a
256.181	0.0755	512362	keystroke_b	b	n/a
256.376	0.0755	512752	keystroke_a	a	n/a
256.811	0.03	513622	keystroke_Key.backspace	Key.backspace	n/a
257.006	0.091	514012	keystroke_o	o	n/a
257.141	0.0895	514282	keystroke_r	r	n/a
257.2905	0.166	514581	keystroke_a	a	n/a
257.441	0.091	514882	keystroke_t	t	n/a
259.3015	0.015	518603	keystroke_Key.backspace	Key.backspace	n/a
259.3915	0.0895	518783	keystroke_Key.backspace	Key.backspace	n/a
260.246	0.0905	520492	keystroke_a	a	n/a
260.891	0.0755	521782	keystroke_t	t	n/a
261.071	0.06	522142	keystroke_o	o	n/a
261.281	0.075	522562	keystroke_r	r	n/a
261.7165	0.06	523433	keystroke_y	y	n/a
261.8655	0.121	523731	keystroke_Key.space	Key.space	n/a
262.556	0.105	525112	keystroke_s	s	n/a
262.991	0.105	525982	keystroke_w	w	n/a
263.171	0.06	526342	keystroke_i	i	n/a
263.276	0.075	526552	keystroke_t	t	n/a
263.486	0.1205	526972	keystroke_c	c	n/a
263.591	0.0605	527182	keystroke_h	h	n/a
263.7265	0.15	527453	keystroke_e	e	n/a
263.831	0.12	527662	keystroke_s	s	n/a
263.9365	0.1195	527873	keystroke_Key.space	Key.space	n/a
264.311	0.21	528622	keystroke_w	w	n/a
264.492	0.134	528984	keystroke_a	a	n/a
264.8665	0.0595	529733	keystroke_r	r	n/a
265.0015	0.1045	530003	keystroke_r	r	n/a
265.1215	0.105	530243	keystroke_a	a	n/a
265.241	0.06	530482	keystroke_n	n	n/a
265.5715	0.105	531143	keystroke_t	t	n/a
265.7365	0.075	531473	keystroke_i	i	n/a
265.8865	0.18	531773	keystroke_e	e	n/a
265.9765	0.1195	531953	keystroke_s	s	n/a
266.141	0.06	532282	keystroke_Key.enter	Key.enter	n/a
266.2235	7.644	532447	prompt	n/a	ipaq polymer thai airplane\n
267.3265	0.09	534653	keystroke_i	i	n/a
267.6705	0.076	535341	keystroke_p	p	n/a
267.8965	0.105	535793	keystroke_a	a	n/a
268.0605	0.0755	536121	keystroke_d	d	n/a
268.4805	0.06	536961	keystroke_Key.backspace	Key.backspace	n/a
268.571	0.09	537142	keystroke_q	q	n/a
268.751	0.105	537502	keystroke_Key.space	Key.space	n/a
269.321	0.12	538642	keystroke_p	p	n/a
269.501	0.12	539002	keystroke_o	o	n/a
269.7715	0.1045	539543	keystroke_l	l	n/a
270.0865	0.044	540173	keystroke_y	y	n/a
270.281	0.105	540562	keystroke_m	m	n/a
270.371	0.1355	540742	keystroke_e	e	n/a
270.461	0.1195	540922	keystroke_r	r	n/a
270.596	0.09	541192	keystroke_Key.space	Key.space	n/a
271.0165	0.12	542033	keystroke_t	t	n/a
271.1215	0.075	542243	keystroke_h	h	n/a
271.2565	0.0745	542513	keystroke_a	a	n/a
271.4515	0.09	542903	keystroke_i	i	n/a
271.631	0.0895	543262	keystroke_Key.space	Key.space	n/a
271.961	0.0905	543922	keystroke_a	a	n/a
272.1565	0.09	544313	keystroke_i	i	n/a
272.4115	0.105	544823	keystroke_r	r	n/a
272.6965	0.21	545393	keystroke_p	p	n/a
272.861	0.1195	545722	keystroke_l	l	n/a
273.026	0.0905	546052	keystroke_a	a	n/a
273.1605	0.06	546321	keystroke_n	n	n/a
273.6115	0.045	547223	keystroke_e	e	n/a
273.8065	0.059	547613	keystroke_Key.enter	Key.enter	n/a
273.8705	12.0885	547741	prompt	n/a	internationally alliance acrobat filter\n
274.901	0.1355	549802	keystroke_i	i	n/a
275.0515	0.09	550103	keystroke_n	n	n/a
275.1855	0.1355	550371	keystroke_t	t	n/a
275.3365	0.1495	550673	keystroke_e	e	n/a
275.411	0.1345	550822	keystroke_r	r	n/a
275.9215	0.09	551843	keystroke_n	n	n/a
276.0565	0.12	552113	keystroke_a	a	n/a
276.1615	0.12	552323	keystroke_t	t	n/a
276.2815	0.1345	552563	keystroke_i	i	n/a
276.4015	0.135	552803	keystroke_o	o	n/a
276.5805	0.075	553161	keystroke_n	n	n/a
276.7315	0.074	553463	keystroke_a	a	n/a
276.8665	0.075	553733	keystroke_l	l	n/a
277.0615	0.06	554123	keystroke_l	l	n/a
277.1665	0.059	554333	keystroke_y	y	n/a
277.2855	0.106	554571	keystroke_Key.space	Key.space	n/a
277.586	0.0905	555172	keystroke_a	a	n/a
277.7665	0.0595	555533	keystroke_l	l	n/a
277.9465	0.075	555893	keystroke_l	l	n/a
278.1265	0.0745	556253	keystroke_i	i	n/a
278.4415	0.15	556883	keystroke_a	a	n/a
278.5615	0.075	557123	keystroke_n	n	n/a
278.6815	0.03	557363	keystroke_a	a	n/a
278.7265	0.1795	557453	keystroke_c	c	n/a
278.846	0.1505	557692	keystroke_e	e	n/a
278.9805	0.09	557961	keystroke_Key.space	Key.space	n/a
279.131	0.1205	558262	keystroke_a	a	n/a
279.3715	0.1195	558743	keystroke_c	c	n/a
280.2555	0.075	560511	keystroke_Key.backspace	Key.backspace	n/a
280.4055	0.105	560811	keystroke_Key.backspace	Key.backspace	n/a
280.5705	0.0905	561141	keystroke_Key.backspace	Key.backspace	n/a
280.7355	0.091	561471	keystroke_Key.backspace	Key.backspace	n/a
280.9155	0.106	561831	keystroke_Key.backspace	Key.backspace	n/a
281.1265	0.104	562253	keystroke_Key.backspace	Key.backspace	n/a
282.0115	0.2105	564023	keystroke_c	c	n/a
282.1315	0.1345	564263	keystroke_e	e	n/a
282.251	0.105	564502	keystroke_Key.space	Key.space	n/a
282.7165	0.12	565433	keystroke_a	a	n/a
282.8965	0.24	565793	keystroke_c	c	n/a
283.106	0.135	566212	keystroke_r	r	n/a
283.826	0.09	567652	keystroke_o	o	n/a
284.0805	0.061	568161	keystroke_b	b	n/a
284.1865	0.12	568373	keystroke_a	a	n/a
284.2605	0.1055	568521	keystroke_t	t	n/a
284.3955	0.105	568791	keystroke_Key.space	Key.space	n/a
284.6065	0.09	569213	keystroke_f	f	n/a
284.8015	0.0595	569603	keystroke_i	i	n/a
285.0415	0.09	570083	keystroke_l	l	n/a
285.2965	0.1055	570593	keystroke_t	t	n/a
285.4315	0.135	570863	keystroke_e	e	n/a
285.5065	0.09	571013	keystroke_r	r	n/a
285.881	0.075	571762	keystroke_Key.enter	Key.enter	n/a
285.9735	10.74	571947	prompt	n/a	maldives mouse surfing acne\n
286.737	0.0445	573474	keystroke_m	m	n/a
286.841	0.135	573682	keystroke_a	a	n/a
287.2615	0.075	574523	keystroke_l	l	n/a
287.3815	0.0745	574763	keystroke_d	d	n/a
287.531	0.06	575062	keystroke_i	i	n/a
287.6955	0.18	575391	keystroke_c	c	n/a
287.8315	0.164	575663	keystroke_e	e	n/a
287.9065	0.1345	575813	keystroke_s	s	n/a
288.058	0.103	576116	keystroke_Key.space	Key.space	n/a
288.416	0.015	576832	keystroke_l	l	n/a
288.9105	0.0755	577821	keystroke_Key.backspace	Key.backspace	n/a
289.241	0.06	578482	keystroke_Key.backspace	Key.backspace	n/a
289.406	0.075	578812	keystroke_Key.backspace	Key.backspace	n/a
289.5865	0.0595	579173	keystroke_Key.backspace	Key.backspace	n/a
289.7655	0.075	579531	keystroke_Key.backspace	Key.backspace	n/a
289.8865	0.15	579773	keystroke_v	v	n/a
289.961	0.15	579922	keystroke_e	e	n/a
290.126	0.1205	580252	keystroke_m	m	n/a
290.801	0.0745	581602	keystroke_Key.backspace	Key.backspace	n/a
291.4015	0.165	582803	keystroke_s	s	n/a
291.5815	0.015	583163	keystroke_Key.space	Key.space	n/a
291.7765	0.12	583553	keystroke_m	m	n/a
291.9415	0.18	583883	keystroke_o	o	n/a
292.3315	0.0895	584663	keystroke_u	u	n/a
292.466	0.121	584932	keystroke_s	s	n/a
292.5115	0.1345	585023	keystroke_e	e	n/a
292.691	0.0755	585382	keystroke_Key.space	Key.space	n/a
293.5615	0.105	587123	keystroke_f	f	n/a
294.161	0.045	588322	keystroke_Key.backspace	Key.backspace	n/a
294.236	0.12	588472	keystroke_s	s	n/a
294.3865	0.045	588773	keystroke_u	u	n/a
294.4765	0.0745	588953	keystroke_r	r	n/a
294.641	0.0905	589282	keystroke_f	f	n/a
294.956	0.195	589912	keystroke_i	i	n/a
295.091	0.105	590182	keystroke_n	n	n/a
295.181	0.0905	590362	keystroke_g	g	n/a
295.3015	0.0895	590603	keystroke_Key.space	Key.space	n/a
295.451	0.1495	590902	keystroke_a	a	n/a
295.7055	0.165	591411	keystroke_c	c	n/a
295.8565	0.075	591713	keystroke_e	e	n/a
296.171	0.075	592342	keystroke_Key.backspace	Key.backspace	n/a
296.381	0.06	592762	keystroke_n	n	n/a
296.456	0.06	592912	keystroke_e	e	n/a
296.621	0.09	593242	keystroke_Key.enter	Key.enter	n/a
296.7255	11.2235	593451	prompt	n/a	judgment unto mailto accommodate\n
297.746	0.0305	595492	keystroke_j	j	n/a
297.881	0.061	595762	keystroke_u	u	n/a
298.1965	0.105	596393	keystroke_s	s	n/a
299.441	0.06	598882	keystroke_Key.backspace	Key.backspace	n/a
299.576	0.09	599152	keystroke_d	d	n/a
300.1915	0.12	600383	keystroke_g	g	n/a
300.4015	0.075	600803	keystroke_m	m	n/a
300.5355	0.121	601071	keystroke_e	e	n/a
300.6715	0.03	601343	keystroke_n	n	n/a
300.7465	0.104	601493	keystroke_t	t	n/a
300.896	0.0895	601792	keystroke_Key.space	Key.space	n/a
301.481	0.18	602962	keystroke_u	u	n/a
301.676	0.045	603352	keystroke_n	n	n/a
301.766	0.076	603532	keystroke_t	t	n/a
301.9005	0.0905	603801	keystroke_o	o	n/a
302.141	0.075	604282	keystroke_Key.space	Key.space	n/a
302.4265	0.0745	604853	keystroke_m	m	n/a
302.561	0.1045	605122	keystroke_a	a	n/a
302.9815	0.104	605963	keystroke_i	i	n/a
303.2205	0.1205	606441	keystroke_l	l	n/a
303.506	0.075	607012	keystroke_t	t	n/a
303.626	0.075	607252	keystroke_o	o	n/a
303.8505	0.105	607701	keystroke_Key.space	Key.space	n/a
304.496	0.105	608992	keystroke_a	a	n/a
304.721	0.09	609442	keystroke_c	c	n/a
304.901	0.105	609802	keystroke_c	c	n/a
305.051	0.12	610102	keystroke_o	o	n/a
305.351	0.075	610702	keystroke_m	m	n/a
305.5765	0.09	611153	keystroke_o	o	n/a
305.771	0.06	611542	keystroke_o	o	n/a
306.2055	0.0755	612411	keystroke_Key.backspace	Key.backspace	n/a
306.386	0.045	612772	keystroke_Key.backspace	Key.backspace	n/a
306.596	0.12	613192	keystroke_m	m	n/a
306.7615	0.12	613523	keystroke_o	o	n/a
307.211	0.075	614422	keystroke_d	d	n/a
307.421	0.1795	614842	keystroke_a	a	n/a
307.541	0.1645	615082	keystroke_t	t	n/a
307.6755	0.1215	615351	keystroke_e	e	n/a
307.8715	0.074	615743	keystroke_Key.enter	Key.enter	n/a
307.9615	21.542	615923	prompt	n/a	investors installations tuesday scheme\n
309.6415	0.0895	619283	keystroke_i	i	n/a
309.7765	0.075	619553	keystroke_n	n	n/a
310.0755	0.1205	620151	keystroke_v	v	n/a
310.271	0.195	620542	keystroke_e	e	n/a
310.451	0.135	620902	keystroke_s	s	n/a
310.5565	0.0895	621113	keystroke_t	t	n/a
310.676	0.09	621352	keystroke_o	o	n/a
311.126	0.135	622252	keystroke_r	r	n/a
311.231	0.105	622462	keystroke_s	s	n/a
311.4415	0.0895	622883	keystroke_Key.space	Key.space	n/a
311.711	0.1205	623422	keystroke_i	i	n/a
311.846	0.1055	623692	keystroke_n	n	n/a
311.981	0.135	623962	keystroke_s	s	n/a
312.086	0.1505	624172	keystroke_t	t	n/a
312.2215	0.105	624443	keystroke_a	a	n/a
312.3115	0.06	624623	keystroke_l	l	n/a
312.4765	0.045	624953	keystroke_l	l	n/a
312.6415	0.029	625283	keystroke_l	l	n/a
312.776	0.135	625552	keystroke_a	a	n/a
312.941	0.1355	625882	keystroke_t	t	n/a
313.121	0.135	626242	keystroke_i	i	n/a
313.271	0.135	626542	keystroke_o	o	n/a
313.571	0.06	627142	keystroke_n	n	n/a
313.721	0.045	627442	keystroke_s	s	n/a
313.841	0.06	627682	keystroke_Key.space	Key.space	n/a
314.276	0.1055	628552	keystroke_t	t	n/a
314.5315	0.06	629063	keystroke_u	u	n/a
314.651	0.136	629302	keystroke_e	e	n/a
314.801	0.09	629602	keystroke_s	s	n/a
315.1015	0.135	630203	keystroke_d	d	n/a
315.2215	0.105	630443	keystroke_a	a	n/a
315.3565	0.06	630713	keystroke_y	y	n/a
315.4915	0.105	630983	keystroke_Key.space	Key.space	n/a
316.1515	0.1495	632303	keystroke_s	s	n/a
316.316	0.1205	632632	keystroke_c	c	n/a
316.4215	0.0895	632843	keystroke_h	h	n/a
316.601	0.0905	633202	keystroke_e	e	n/a
318.071	0.09	636142	keystroke_m	m	n/a
318.1755	0.0755	636351	keystroke_e	e	n/a
320.3375	0.029	640675	keystroke_Key.backspace	Key.backspace	n/a
322.721	0.0905	645442	keystroke_Key.backspace	Key.backspace	n/a
322.8865	0.0895	645773	keystroke_Key.backspace	Key.backspace	n/a
323.396	0.1955	646792	keystroke_a	a	n/a
323.5765	0.135	647153	keystroke_t	t	n/a
323.6665	0.15	647333	keystroke_i	i	n/a
323.7865	0.165	647573	keystroke_o	o	n/a
323.9365	0.09	647873	keystroke_n	n	n/a
324.027	0.0735	648054	keystroke_s	s	n/a
324.1315	0.104	648263	keystroke_Key.space	Key.space	n/a
324.2965	0.105	648593	keystroke_c	c	n/a
324.7015	0.12	649403	keystroke_Key.backspace	Key.backspace	n/a
324.926	0.1205	649852	keystroke_t	t	n/a
325.181	0.075	650362	keystroke_u	u	n/a
325.451	0.1505	650902	keystroke_e	e	n/a
325.541	0.1205	651082	keystroke_s	s	n/a
325.766	0.12	651532	keystroke_d	d	n/a
325.901	0.15	651802	keystroke_a	a	n/a
326.036	0.12	652072	keystroke_t	t	n/a
327.3405	0.016	654681	keystroke_Key.backspace	Key.backspace	n/a
327.3865	0.09	654773	keystroke_y	y	n/a
327.5505	0.106	655101	keystroke_Key.space	Key.space	n/a
327.8955	0.15	655791	keystroke_s	s	n/a
328.0305	0.12	656061	keystroke_c	c	n/a
328.1515	0.0595	656303	keystroke_h	h	n/a
328.301	0.0755	656602	keystroke_e	e	n/a
328.5265	0.09	657053	keystroke_m	m	n/a
328.6455	0.0605	657291	keystroke_e	e	n/a
329.456	0.045	658912	keystroke_Key.enter	Key.enter	n/a
329.521	9.2675	659042	prompt	n/a	brochure requested historic roman\n
330.4915	0.0595	660983	keystroke_b	b	n/a
330.611	0.075	661222	keystroke_r	r	n/a
330.9115	0.0895	661823	keystroke_o	o	n/a
331.047	0.089	662094	keystroke_c	c	n/a
331.166	0.0755	662332	keystroke_h	h	n/a
331.2715	0.0745	662543	keystroke_u	u	n/a
331.3615	0.15	662723	keystroke_r	r	n/a
331.451	0.135	662902	keystroke_e	e	n/a
331.6165	0.1045	663233	keystroke_Key.space	Key.space	n/a
332.2315	0.089	664463	keystroke_q	q	n/a
332.8765	0.0595	665753	keystroke_Key.backspace	Key.backspace	n/a
332.996	0.15	665992	keystroke_r	r	n/a
333.116	0.195	666232	keystroke_e	e	n/a
333.326	0.0755	666652	keystroke_q	q	n/a
333.4615	0.0755	666923	keystroke_u	u	n/a
333.762	0.269	667524	keystroke_e	e	n/a
333.8965	0.1795	667793	keystroke_s	s	n/a
334.0465	0.18	668093	keystroke_t	t	n/a
334.1955	0.105	668391	keystroke_e	e	n/a
334.376	0.1205	668752	keystroke_d	d	n/a
334.5855	0.135	669171	keystroke_Key.space	Key.space	n/a
334.991	0.1205	669982	keystroke_h	h	n/a
335.127	0.089	670254	keystroke_i	i	n/a
335.441	0.15	670882	keystroke_s	s	n/a
335.5915	0.1195	671183	keystroke_t	t	n/a
336.626	0.045	673252	keystroke_o	o	n/a
336.686	0.0895	673372	keystroke_r	r	n/a
336.837	0.075	673674	keystroke_i	i	n/a
337.0305	0.0905	674061	keystroke_c	c	n/a
337.166	0.0895	674332	keystroke_Key.space	Key.space	n/a
337.541	0.045	675082	keystroke_m	m	n/a
337.856	0.09	675712	keystroke_Key.backspace	Key.backspace	n/a
337.976	0.105	675952	keystroke_r	r	n/a
338.126	0.105	676252	keystroke_o	o	n/a
338.306	0.075	676612	keystroke_m	m	n/a
338.411	0.076	676822	keystroke_a	a	n/a
338.502	0.074	677004	keystroke_n	n	n/a
338.726	0.0595	677452	keystroke_Key.enter	Key.enter	n/a
338.7925	10.136	677585	prompt	n/a	meaningful psychology refined convergence\n
339.7015	0.045	679403	keystroke_m	m	n/a
339.8215	0.21	679643	keystroke_e	e	n/a
340.0015	0.105	680003	keystroke_a	a	n/a
340.0915	0.12	680183	keystroke_n	n	n/a
340.2265	0.164	680453	keystroke_i	i	n/a
340.3765	0.1045	680753	keystroke_n	n	n/a
340.482	0.0735	680964	keystroke_g	g	n/a
340.751	0.075	681502	keystroke_f	f	n/a
340.841	0.12	681682	keystroke_u	u	n/a
341.141	0.12	682282	keystroke_l	l	n/a
341.396	0.075	682792	keystroke_Key.space	Key.space	n/a
341.636	0.1205	683272	keystroke_p	p	n/a
341.8165	0.0895	683633	keystroke_s	s	n/a
341.9665	0.059	683933	keystroke_y	y	n/a
342.0705	0.106	684141	keystroke_c	c	n/a
342.386	0.15	684772	keystroke_h	h	n/a
342.596	0.09	685192	keystroke_o	o	n/a
342.7905	0.0905	685581	keystroke_l	l	n/a
343.0005	0.0605	686001	keystroke_o	o	n/a
343.0765	0.06	686153	keystroke_g	g	n/a
343.2405	0.076	686481	keystroke_y	y	n/a
343.3755	0.12	686751	keystroke_Key.space	Key.space	n/a
344.3215	0.1945	688643	keystroke_r	r	n/a
344.4555	0.091	688911	keystroke_e	e	n/a
344.681	0.075	689362	keystroke_f	f	n/a
344.756	0.135	689512	keystroke_i	i	n/a
344.8465	0.0895	689693	keystroke_n	n	n/a
344.981	0.075	689962	keystroke_e	e	n/a
345.161	0.075	690322	keystroke_d	d	n/a
345.266	0.0905	690532	keystroke_Key.space	Key.space	n/a
345.731	0.105	691462	keystroke_c	c	n/a
345.8965	0.18	691793	keystroke_o	o	n/a
346.106	0.0905	692212	keystroke_v	v	n/a
346.1505	0.075	692301	keystroke_n	n	n/a
346.7505	0.0455	693501	keystroke_Key.backspace	Key.backspace	n/a
346.811	0.0145	693622	keystroke_Key.backspace	Key.backspace	n/a
346.9755	0.06	693951	keystroke_n	n	n/a
347.081	0.1055	694162	keystroke_v	v	n/a
347.3955	0.12	694791	keystroke_e	e	n/a
347.6505	0.105	695301	keystroke_r	r	n/a
348.1755	0.061	696351	keystroke_g	g	n/a
348.2805	0.075	696561	keystroke_e	e	n/a
348.3855	0.09	696771	keystroke_n	n	n/a
348.5515	0.135	697103	keystroke_c	c	n/a
348.6415	0.1645	697283	keystroke_e	e	n/a
348.851	0.075	697702	keystroke_Key.enter	Key.enter	n/a
348.945	8.1125	697890	prompt	n/a	helmet death possess principles\n
349.8705	0.045	699741	keystroke_h	h	n/a
349.946	0.0755	699892	keystroke_e	e	n/a
350.2015	0.044	700403	keystroke_l	l	n/a
350.4255	0.0455	700851	keystroke_m	m	n/a
350.5155	0.1505	701031	keystroke_e	e	n/a
350.6365	0.1045	701273	keystroke_t	t	n/a
350.801	0.105	701602	keystroke_Key.space	Key.space	n/a
351.026	0.045	702052	keystroke_d	d	n/a
351.191	0.135	702382	keystroke_e	e	n/a
351.296	0.135	702592	keystroke_a	a	n/a
351.401	0.09	702802	keystroke_t	t	n/a
351.476	0.12	702952	keystroke_h	h	n/a
351.6705	0.075	703341	keystroke_Key.space	Key.space	n/a
351.8655	0.105	703731	keystroke_o	o	n/a
352.6005	0.09	705201	keystroke_Key.backspace	Key.backspace	n/a
353.066	0.1195	706132	keystroke_p	p	n/a
353.2455	0.0755	706491	keystroke_o	o	n/a
353.471	0.0895	706942	keystroke_s	s	n/a
353.6805	0.076	707361	keystroke_s	s	n/a
354.026	0.105	708052	keystroke_e	e	n/a
354.206	0.105	708412	keystroke_s	s	n/a
354.401	0.0905	708802	keystroke_s	s	n/a
354.536	0.1045	709072	keystroke_Key.space	Key.space	n/a
355.001	0.074	710002	keystroke_p	p	n/a
355.166	0.06	710332	keystroke_r	r	n/a
355.541	0.0595	711082	keystroke_i	i	n/a
355.991	0.0745	711982	keystroke_n	n	n/a
356.0805	0.1205	712161	keystroke_c	c	n/a
356.201	0.09	712402	keystroke_i	i	n/a
356.4265	0.1645	712853	keystroke_p	p	n/a
356.636	0.15	713272	keystroke_l	l	n/a
356.741	0.134	713482	keystroke_e	e	n/a
356.831	0.105	713662	keystroke_s	s	n/a
356.981	0.075	713962	keystroke_Key.enter	Key.enter	n/a
357.062	14.3215	714124	prompt	n/a	appointed britannica aren't crazy\n
357.791	0.0755	715582	keystroke_a	a	n/a
358.1355	0.0605	716271	keystroke_p	p	n/a
358.2855	0.1355	716571	keystroke_p	p	n/a
358.4055	0.075	716811	keystroke_o	o	n/a
359.231	0.0895	718462	keystroke_Key.backspace	Key.backspace	n/a
360.0865	0.1045	720173	keystroke_o	o	n/a
360.491	0.165	720982	keystroke_i	i	n/a
360.971	0.0895	721942	keystroke_n	n	n/a
361.1365	0.1495	722273	keystroke_t	t	n/a
361.2405	0.1055	722481	keystroke_e	e	n/a
361.4505	0.076	722901	keystroke_d	d	n/a
361.5405	0.1045	723081	keystroke_Key.space	Key.space	n/a
362.261	0.0895	724522	keystroke_b	b	n/a
362.3655	0.045	724731	keystroke_r	r	n/a
362.4565	0.089	724913	keystroke_i	i	n/a
362.6065	0.1045	725213	keystroke_t	t	n/a
363.776	0.0445	727552	keystroke_a	a	n/a
363.9405	0.061	727881	keystroke_n	n	n/a
364.076	0.0895	728152	keystroke_n	n	n/a
364.3305	0.03	728661	keystroke_u	u	n/a
364.436	0.0605	728872	keystroke_c	c	n/a
365.096	0.076	730192	keystroke_Key.backspace	Key.backspace	n/a
365.261	0.075	730522	keystroke_Key.backspace	Key.backspace	n/a
365.501	0.074	731002	keystroke_i	i	n/a
365.591	0.15	731182	keystroke_c	c	n/a
365.726	0.105	731452	keystroke_a	a	n/a
365.8455	0.0895	731691	keystroke_Key.space	Key.space	n/a
366.131	0.105	732262	keystroke_a	a	n/a
366.415	0.121	732830	keystroke_Key.backspace	Key.backspace	n/a
366.61	0.1365	733220	keystroke_r	r	n/a
367.1505	0.0755	734301	keystroke_Key.backspace	Key.backspace	n/a
367.3615	0.119	734723	keystroke_c	c	n/a
367.4655	0.1805	734931	keystroke_a	a	n/a
367.616	0.15	735232	keystroke_r	r	n/a
368.096	0.06	736192	keystroke_Key.backspace	Key.backspace	n/a
368.261	0.06	736522	keystroke_Key.backspace	Key.backspace	n/a
368.426	0.135	736852	keystroke_Key.backspace	Key.backspace	n/a
368.5165	0.1945	737033	keystroke_a	a	n/a
368.666	0.1645	737332	keystroke_r	r	n/a
368.771	0.1355	737542	keystroke_e	e	n/a
369.1455	0.0605	738291	keystroke_n	n	n/a
369.4905	0.1205	738981	keystroke_'	'	n/a
369.656	0.09	739312	keystroke_t	t	n/a
369.791	0.09	739582	keystroke_Key.space	Key.space	n/a
370.2715	0.0895	740543	keystroke_c	c	n/a
370.5855	0.09	741171	keystroke_r	r	n/a
370.7955	0.091	741591	keystroke_a	a	n/a
371.0205	0.091	742041	keystroke_z	z	n/a
371.1265	0.059	742253	keystroke_y	y	n/a
371.3055	0.075	742611	keystroke_Key.enter	Key.enter	n/a
371.3995	10.109	742799	prompt	n/a	budgets bangkok struggle char\n
372.5055	0.06	745011	keystroke_b	b	n/a
372.6705	0.0755	745341	keystroke_u	u	n/a
372.761	0.09	745522	keystroke_d	d	n/a
372.971	0.045	745942	keystroke_g	g	n/a
373.061	0.12	746122	keystroke_e	e	n/a
373.211	0.135	746422	keystroke_t	t	n/a
373.361	0.105	746722	keystroke_s	s	n/a
373.481	0.105	746962	keystroke_Key.space	Key.space	n/a
373.796	0.045	747592	keystroke_b	b	n/a
373.931	0.075	747862	keystroke_a	a	n/a
374.036	0.06	748072	keystroke_n	n	n/a
374.756	0.075	749512	keystroke_g	g	n/a
375.101	0.0755	750202	keystroke_k	k	n/a
375.251	0.165	750502	keystroke_o	o	n/a
375.401	0.0755	750802	keystroke_k	k	n/a
375.746	0.09	751492	keystroke_Key.space	Key.space	n/a
376.181	0.1645	752362	keystroke_s	s	n/a
376.3155	0.151	752631	keystroke_t	t	n/a
376.6755	0.0605	753351	keystroke_u	u	n/a
377.6505	0.0455	755301	keystroke_Key.backspace	Key.backspace	n/a
378.056	0.0595	756112	keystroke_r	r	n/a
378.371	0.045	756742	keystroke_u	u	n/a
379.1655	0.0755	758331	keystroke_g	g	n/a
379.526	0.105	759052	keystroke_l	l	n/a
379.946	0.09	759892	keystroke_Key.backspace	Key.backspace	n/a
380.111	0.075	760222	keystroke_g	g	n/a
380.26	0.091	760520	keystroke_l	l	n/a
380.411	0.09	760822	keystroke_e	e	n/a
380.53	0.121	761060	keystroke_Key.space	Key.space	n/a
380.921	0.136	761842	keystroke_c	c	n/a
381.0415	0.0745	762083	keystroke_h	h	n/a
381.161	0.12	762322	keystroke_a	a	n/a
381.236	0.105	762472	keystroke_r	r	n/a
381.461	0.045	762922	keystroke_Key.enter	Key.enter	n/a
381.525	9.1335	763050	prompt	n/a	theorem shadows faster theater\n
382.511	0.06	765022	keystroke_t	t	n/a
382.646	0.0605	765292	keystroke_h	h	n/a
382.751	0.0745	765502	keystroke_e	e	n/a
383.2605	0.136	766521	keystroke_r	r	n/a
383.366	0.09	766732	keystroke_e	e	n/a
383.4855	0.1505	766971	keystroke_o	o	n/a
383.6955	0.091	767391	keystroke_m	m	n/a
383.9055	0.1055	767811	keystroke_Key.space	Key.space	n/a
384.2205	0.0605	768441	keystroke_s	s	n/a
384.2955	0.0755	768591	keystroke_h	h	n/a
384.4455	0.1355	768891	keystroke_a	a	n/a
384.656	0.03	769312	keystroke_e	e	n/a
385.046	0.06	770092	keystroke_Key.backspace	Key.backspace	n/a
385.316	0.12	770632	keystroke_d	d	n/a
385.466	0.09	770932	keystroke_o	o	n/a
385.601	0.045	771202	keystroke_w	w	n/a
385.766	0.105	771532	keystroke_s	s	n/a
385.886	0.09	771772	keystroke_Key.space	Key.space	n/a
386.306	0.12	772612	keystroke_f	f	n/a
386.486	0.1355	772972	keystroke_a	a	n/a
386.576	0.15	773152	keystroke_t	t	n/a
386.696	0.18	773392	keystroke_e	e	n/a
386.831	0.12	773662	keystroke_r	r	n/a
387.386	0.045	774772	keystroke_Key.backspace	Key.backspace	n/a
387.535	0.0755	775070	keystroke_Key.backspace	Key.backspace	n/a
387.6855	0.105	775371	keystroke_Key.backspace	Key.backspace	n/a
387.806	0.134	775612	keystroke_s	s	n/a
387.88	0.165	775760	keystroke_t	t	n/a
388.031	0.15	776062	keystroke_e	e	n/a
388.151	0.089	776302	keystroke_r	r	n/a
388.271	0.135	776542	keystroke_Key.space	Key.space	n/a
389.7105	0.09	779421	keystroke_t	t	n/a
389.8605	0.03	779721	keystroke_h	h	n/a
389.965	0.1805	779930	keystroke_e	e	n/a
390.1	0.151	780200	keystroke_a	a	n/a
390.191	0.149	780382	keystroke_t	t	n/a
390.311	0.15	780622	keystroke_e	e	n/a
390.416	0.105	780832	keystroke_r	r	n/a
390.596	0.06	781192	keystroke_Key.enter	Key.enter	n/a
390.672	9.886	781344	prompt	n/a	push bosnia senators hearings\n
391.901	0.12	783802	keystroke_p	p	n/a
392.4265	0.0735	784853	keystroke_u	u	n/a
392.5465	0.104	785093	keystroke_s	s	n/a
392.756	0.0595	785512	keystroke_h	h	n/a
392.9505	0.09	785901	keystroke_Key.space	Key.space	n/a
393.7165	0.0735	787433	keystroke_b	b	n/a
393.895	0.09	787790	keystroke_o	o	n/a
394.6765	0.0745	789353	keystroke_s	s	n/a
395.4855	0.06	790971	keystroke_n	n	n/a
395.5905	0.1055	791181	keystroke_i	i	n/a
395.741	0.09	791482	keystroke_a	a	n/a
395.875	0.106	791750	keystroke_Key.space	Key.space	n/a
396.206	0.09	792412	keystroke_s	s	n/a
396.3255	0.0755	792651	keystroke_n	n	n/a
396.761	0.0895	793522	keystroke_Key.backspace	Key.backspace	n/a
396.866	0.0895	793732	keystroke_e	e	n/a
397.0155	0.0605	794031	keystroke_n	n	n/a
397.1805	0.135	794361	keystroke_a	a	n/a
397.286	0.135	794572	keystroke_t	t	n/a
397.556	0.089	795112	keystroke_o	o	n/a
397.69	0.135	795380	keystroke_r	r	n/a
397.766	0.1345	795532	keystroke_s	s	n/a
397.885	0.091	795770	keystroke_Key.space	Key.space	n/a
398.2755	0.0895	796551	keystroke_h	h	n/a
398.38	0.166	796760	keystroke_e	e	n/a
398.441	0.15	796882	keystroke_a	a	n/a
398.531	0.15	797062	keystroke_r	r	n/a
398.7555	0.1055	797511	keystroke_d	d	n/a
399.401	0.074	798802	keystroke_Key.backspace	Key.backspace	n/a
399.611	0.195	799222	keystroke_i	i	n/a
399.791	0.12	799582	keystroke_n	n	n/a
399.881	0.12	799762	keystroke_g	g	n/a
399.986	0.1055	799972	keystroke_s	s	n/a
400.481	0.0745	800962	keystroke_Key.enter	Key.enter	n/a
400.5735	9.7795	801147	prompt	n/a	podcasts curious maintenance processors\n
401.5155	0.105	803031	keystroke_p	p	n/a
401.651	0.09	803302	keystroke_o	o	n/a
401.801	0.075	803602	keystroke_d	d	n/a
401.981	0.09	803962	keystroke_c	c	n/a
402.115	0.2555	804230	keystroke_a	a	n/a
402.3555	0.18	804711	keystroke_s	s	n/a
402.4605	0.15	804921	keystroke_t	t	n/a
402.7605	0.1045	805521	keystroke_Key.space	Key.space	n/a
403.181	0.09	806362	keystroke_c	c	n/a
403.646	0.0745	807292	keystroke_u	u	n/a
403.736	0.089	807472	keystroke_r	r	n/a
403.9	0.076	807800	keystroke_i	i	n/a
404.171	0.0755	808342	keystroke_i	i	n/a
404.231	0.1645	808462	keystroke_o	o	n/a
404.6505	0.0605	809301	keystroke_Key.backspace	Key.backspace	n/a
405.205	0.06	810410	keystroke_Key.backspace	Key.backspace	n/a
405.626	0.1345	811252	keystroke_o	o	n/a
405.746	0.1045	811492	keystroke_u	u	n/a
405.911	0.105	811822	keystroke_s	s	n/a
406.0605	0.09	812121	keystroke_Key.space	Key.space	n/a
406.496	0.0595	812992	keystroke_m	m	n/a
406.6005	0.105	813201	keystroke_a	a	n/a
406.796	0.105	813592	keystroke_i	i	n/a
406.961	0.09	813922	keystroke_n	n	n/a
407.17	0.135	814340	keystroke_t	t	n/a
407.365	0.091	814730	keystroke_e	e	n/a
407.486	0.075	814972	keystroke_n	n	n/a
407.681	0.105	815362	keystroke_a	a	n/a
407.876	0.09	815752	keystroke_n	n	n/a
408.011	0.15	816022	keystroke_c	c	n/a
408.101	0.105	816202	keystroke_e	e	n/a
408.221	0.105	816442	keystroke_Key.space	Key.space	n/a
408.79	0.106	817580	keystroke_p	p	n/a
408.941	0.06	817882	keystroke_r	r	n/a
409.061	0.06	818122	keystroke_o	o	n/a
409.241	0.09	818482	keystroke_c	c	n/a
409.421	0.12	818842	keystroke_e	e	n/a
409.556	0.105	819112	keystroke_s	s	n/a
409.751	0.09	819502	keystroke_s	s	n/a
409.901	0.0895	819802	keystroke_o	o	n/a
410.036	0.0895	820072	keystroke_r	r	n/a
410.111	0.105	820222	keystroke_s	s	n/a
410.2605	0.09	820521	keystroke_Key.enter	Key.enter	n/a
410.3685	20.715	820737	prompt	n/a	else occupations boulder bouquet\n
411.026	0.075	822052	keystroke_e	e	n/a
411.251	0.09	822502	keystroke_l	l	n/a
411.371	0.135	822742	keystroke_s	s	n/a
411.446	0.135	822892	keystroke_e	e	n/a
411.596	0.105	823192	keystroke_Key.space	Key.space	n/a
411.866	0.09	823732	keystroke_c	c	n/a
412.406	0.075	824812	keystroke_Key.backspace	Key.backspace	n/a
412.751	0.06	825502	keystroke_o	o	n/a
412.84	0.106	825680	keystroke_c	c	n/a
412.961	0.165	825922	keystroke_c	c	n/a
413.351	0.0745	826702	keystroke_c	c	n/a
413.5305	0.121	827061	keystroke_u	u	n/a
413.6355	0.1355	827271	keystroke_p	p	n/a
413.8005	0.105	827601	keystroke_t	t	n/a
414.19	0.076	828380	keystroke_Key.backspace	Key.backspace	n/a
414.881	0.134	829762	keystroke_a	a	n/a
414.971	0.1345	829942	keystroke_t	t	n/a
415.2405	0.1955	830481	keystroke_i	i	n/a
415.39	0.211	830780	keystroke_o	o	n/a
415.616	0.104	831232	keystroke_n	n	n/a
415.705	0.106	831410	keystroke_s	s	n/a
415.8555	0.0905	831711	keystroke_Key.space	Key.space	n/a
416.306	0.0895	832612	keystroke_b	b	n/a
416.4105	0.2705	832821	keystroke_o	o	n/a
416.5615	0.1495	833123	keystroke_u	u	n/a
416.83	0.091	833660	keystroke_l	l	n/a
416.951	0.09	833902	keystroke_d	d	n/a
417.145	0.136	834290	keystroke_e	e	n/a
417.22	0.121	834440	keystroke_r	r	n/a
417.355	0.1055	834710	keystroke_Key.space	Key.space	n/a
419.021	0.329	838042	keystroke_Key.backspace	Key.backspace	n/a
419.05	0.18	838100	keystroke_Key.f12	Key.f12	n/a
419.5	0.4205	839000	keystroke_Key.backspace	Key.backspace	n/a
421.2105	0.06	842421	keystroke_Key.f12	Key.f12	n/a
423.1905	0.0905	846381	keystroke_Key.backspace	Key.backspace	n/a
423.416	0.0895	846832	keystroke_Key.backspace	Key.backspace	n/a
425.1855	0.015	850371	keystroke_u	u	n/a
425.2305	0.09	850461	keystroke_p	p	n/a
425.3955	0.1945	850791	keystroke_a	a	n/a
425.575	0.105	851150	keystroke_t	t	n/a
425.7705	0.18	851541	keystroke_i	i	n/a
425.9205	0.15	851841	keystroke_o	o	n/a
426.115	0.091	852230	keystroke_n	n	n/a
426.22	0.105	852440	keystroke_s	s	n/a
426.356	0.0895	852712	keystroke_Key.space	Key.space	n/a
426.7	0.105	853400	keystroke_b	b	n/a
426.8505	0.1645	853701	keystroke_o	o	n/a
426.985	0.091	853970	keystroke_u	u	n/a
427.18	0.1055	854360	keystroke_l	l	n/a
427.3305	0.0755	854661	keystroke_d	d	n/a
427.496	0.1345	854992	keystroke_e	e	n/a
427.5855	0.105	855171	keystroke_r	r	n/a
427.7355	0.09	855471	keystroke_Key.space	Key.space	n/a
428.5005	0.0895	857001	keystroke_n	n	n/a
428.6505	0.105	857301	keystroke_o	o	n/a
429.0555	0.06	858111	keystroke_Key.backspace	Key.backspace	n/a
429.191	0.075	858382	keystroke_Key.backspace	Key.backspace	n/a
429.296	0.0745	858592	keystroke_b	b	n/a
429.5055	0.151	859011	keystroke_o	o	n/a
429.7005	0.105	859401	keystroke_n	n	n/a
429.9855	0.09	859971	keystroke_q	q	n/a
430.241	0.06	860482	keystroke_u	u	n/a
430.3605	0.135	860721	keystroke_e	e	n/a
430.4965	0.104	860993	keystroke_t	t	n/a
431.006	0.075	862012	keystroke_Key.enter	Key.enter	n/a
431.098	19.35	862196	prompt	n/a	choose version housewives prerequisite\n
431.831	0.0745	863662	keystroke_c	c	n/a
431.981	0.089	863962	keystroke_h	h	n/a
432.1005	0.076	864201	keystroke_o	o	n/a
432.28	0.061	864560	keystroke_o	o	n/a
432.4005	0.15	864801	keystroke_s	s	n/a
432.4905	0.1195	864981	keystroke_e	e	n/a
432.655	0.1205	865310	keystroke_Key.space	Key.space	n/a
433.0155	0.0305	866031	keystroke_v	v	n/a
433.886	0.195	867772	keystroke_e	e	n/a
434.036	0.105	868072	keystroke_r	r	n/a
434.186	0.12	868372	keystroke_s	s	n/a
434.4255	0.285	868851	keystroke_i	i	n/a
434.6215	0.1795	869243	keystroke_o	o	n/a
434.771	0.075	869542	keystroke_i	i	n/a
434.786	0.135	869572	keystroke_n	n	n/a
434.935	0.106	869870	keystroke_Key.space	Key.space	n/a
435.416	0.074	870832	keystroke_h	h	n/a
435.551	0.1795	871102	keystroke_o	o	n/a
435.716	0.0895	871432	keystroke_u	u	n/a
435.8655	0.135	871731	keystroke_s	s	n/a
436.841	0.075	873682	keystroke_w	w	n/a
436.9605	0.06	873921	keystroke_i	i	n/a
437.246	0.119	874492	keystroke_v	v	n/a
437.396	0.1795	874792	keystroke_e	e	n/a
437.531	0.12	875062	keystroke_s	s	n/a
437.771	0.09	875542	keystroke_Key.space	Key.space	n/a
439.2255	0.0905	878451	keystroke_Key.backspace	Key.backspace	n/a
440.096	0.15	880192	keystroke_i	i	n/a
440.2015	0.1945	880403	keystroke_o	o	n/a
440.411	0.089	880822	keystroke_n	n	n/a
441.776	0.1195	883552	keystroke_Key.space	Key.space	n/a
442.1355	0.1355	884271	keystroke_h	h	n/a
442.3305	0.2105	884661	keystroke_o	o	n/a
442.5105	0.09	885021	keystroke_u	u	n/a
442.751	0.18	885502	keystroke_s	s	n/a
442.9165	0.1345	885833	keystroke_e	e	n/a
443.366	0.09	886732	keystroke_w	w	n/a
443.516	0.09	887032	keystroke_i	i	n/a
443.651	0.195	887302	keystroke_c	c	n/a
443.801	0.135	887602	keystroke_e	e	n/a
444.116	0.06	888232	keystroke_Key.backspace	Key.backspace	n/a
444.28	0.0605	888560	keystroke_Key.backspace	Key.backspace	n/a
444.371	0.12	888742	keystroke_v	v	n/a
444.431	0.1345	888862	keystroke_e	e	n/a
444.5055	0.1205	889011	keystroke_s	s	n/a
444.64	0.1055	889280	keystroke_Key.space	Key.space	n/a
445.796	0.1195	891592	keystroke_p	p	n/a
445.9005	0.12	891801	keystroke_r	r	n/a
445.9605	0.1505	891921	keystroke_e	e	n/a
448.03	0.121	896060	keystroke_r	r	n/a
448.12	0.165	896240	keystroke_e	e	n/a
448.931	0.1045	897862	keystroke_q	q	n/a
449.126	0.1795	898252	keystroke_u	u	n/a
449.2305	0.1205	898461	keystroke_i	i	n/a
449.426	0.09	898852	keystroke_s	s	n/a
449.801	0.09	899602	keystroke_i	i	n/a
449.921	0.164	899842	keystroke_t	t	n/a
450.041	0.12	900082	keystroke_e	e	n/a
450.3855	0.0605	900771	keystroke_Key.enter	Key.enter	n/a
450.4675	8.8155	900935	prompt	n/a	teams recipient bored elephant\n
451.406	0.134	902812	keystroke_t	t	n/a
451.496	0.164	902992	keystroke_e	e	n/a
451.556	0.135	903112	keystroke_a	a	n/a
451.675	0.075	903350	keystroke_m	m	n/a
451.811	0.105	903622	keystroke_s	s	n/a
452.0955	0.075	904191	keystroke_Key.space	Key.space	n/a
452.396	0.1195	904792	keystroke_c	c	n/a
453.2205	0.06	906441	keystroke_Key.backspace	Key.backspace	n/a
453.3105	0.12	906621	keystroke_r	r	n/a
453.4155	0.105	906831	keystroke_e	e	n/a
453.6405	0.12	907281	keystroke_c	c	n/a
453.7455	0.075	907491	keystroke_i	i	n/a
453.9405	0.075	907881	keystroke_p	p	n/a
454.0755	0.06	908151	keystroke_e	e	n/a
454.1655	0.0605	908331	keystroke_i	i	n/a
454.48	0.03	908960	keystroke_Key.backspace	Key.backspace	n/a
454.63	0.06	909260	keystroke_Key.backspace	Key.backspace	n/a
454.765	0.061	909530	keystroke_i	i	n/a
454.8705	0.1055	909741	keystroke_e	e	n/a
455.171	0.0895	910342	keystroke_n	n	n/a
455.2905	0.105	910581	keystroke_t	t	n/a
456.3705	0.09	912741	keystroke_Key.space	Key.space	n/a
456.791	0.119	913582	keystroke_b	b	n/a
456.971	0.09	913942	keystroke_o	o	n/a
457.0895	0.105	914179	keystroke_r	r	n/a
457.4655	0.045	914931	keystroke_e	e	n/a
457.615	0.09	915230	keystroke_d	d	n/a
457.75	0.1055	915500	keystroke_Key.space	Key.space	n/a
457.93	0.076	915860	keystroke_e	e	n/a
458.081	0.089	916162	keystroke_l	l	n/a
458.2455	0.0595	916491	keystroke_e	e	n/a
458.47	0.106	916940	keystroke_p	p	n/a
458.725	0.0605	917450	keystroke_h	h	n/a
458.8155	0.0905	917631	keystroke_a	a	n/a
458.9655	0.06	917931	keystroke_n	n	n/a
459.0555	0.075	918111	keystroke_t	t	n/a
459.2205	0.06	918441	keystroke_Key.enter	Key.enter	n/a
459.2995	8.2775	918599	prompt	n/a	loop gambling neil unlock\n
459.9705	0.0755	919941	keystroke_l	l	n/a
460.1955	0.09	920391	keystroke_o	o	n/a
460.421	0.0745	920842	keystroke_o	o	n/a
460.616	0.089	921232	keystroke_p	p	n/a
460.8855	0.075	921771	keystroke_Key.space	Key.space	n/a
461.2305	0.09	922461	keystroke_g	g	n/a
461.366	0.1045	922732	keystroke_a	a	n/a
461.4855	0.06	922971	keystroke_m	m	n/a
461.7105	0.105	923421	keystroke_b	b	n/a
461.8305	0.075	923661	keystroke_l	l	n/a
462.04	0.075	924080	keystroke_i	i	n/a
462.191	0.075	924382	keystroke_n	n	n/a
462.295	0.091	924590	keystroke_g	g	n/a
462.4455	0.105	924891	keystroke_Key.space	Key.space	n/a
464.47	0.09	928940	keystroke_n	n	n/a
464.6505	0.015	929301	keystroke_e	e	n/a
464.7255	0.1195	929451	keystroke_i	i	n/a
464.9055	0.0895	929811	keystroke_l	l	n/a
465.1605	0.09	930321	keystroke_Key.space	Key.space	n/a
465.7755	0.075	931551	keystroke_u	u	n/a
466.0005	0.105	932001	keystroke_n	n	n/a
466.3455	0.09	932691	keystroke_l	l	n/a
466.525	0.091	933050	keystroke_o	o	n/a
466.676	0.0895	933352	keystroke_c	c	n/a
466.8405	0.105	933681	keystroke_k	k	n/a
467.5155	0.06	935031	keystroke_Key.enter	Key.enter	n/a
467.5835	6.0835	935167	prompt	n/a	peers male secret bits\n
468.4305	0.1045	936861	keystroke_p	p	n/a
468.58	0.1055	937160	keystroke_e	e	n/a
468.7755	0.15	937551	keystroke_e	e	n/a
468.865	0.136	937730	keystroke_r	r	n/a
469.0155	0.1055	938031	keystroke_s	s	n/a
469.121	0.1045	938242	keystroke_Key.space	Key.space	n/a
469.6755	0.135	939351	keystroke_m	m	n/a
469.8405	0.105	939681	keystroke_a	a	n/a
470.0055	0.0455	940011	keystroke_k	k	n/a
470.4255	0.075	940851	keystroke_Key.backspace	Key.backspace	n/a
470.6805	0.1355	941361	keystroke_l	l	n/a
470.891	0.074	941782	keystroke_e	e	n/a
471.0555	0.0445	942111	keystroke_Key.space	Key.space	n/a
471.2205	0.15	942441	keystroke_s	s	n/a
471.356	0.1645	942712	keystroke_e	e	n/a
471.4605	0.105	942921	keystroke_r	r	n/a
471.8505	0.09	943701	keystroke_Key.backspace	Key.backspace	n/a
472.0005	0.0745	944001	keystroke_c	c	n/a
472.18	0.091	944360	keystroke_r	r	n/a
472.376	0.164	944752	keystroke_e	e	n/a
472.496	0.119	944992	keystroke_t	t	n/a
472.645	0.0905	945290	keystroke_Key.space	Key.space	n/a
472.8555	0.09	945711	keystroke_b	b	n/a
473.0655	0.09	946131	keystroke_i	i	n/a
473.1705	0.12	946341	keystroke_t	t	n/a
473.2755	0.105	946551	keystroke_s	s	n/a
473.59	0.0755	947180	keystroke_Key.enter	Key.enter	n/a
473.671	10.437	947342	prompt	n/a	recruitment trinity conflicts installations\n
474.3855	0.165	948771	keystroke_r	r	n/a
474.5205	0.105	949041	keystroke_e	e	n/a
475.135	0.1055	950270	keystroke_c	c	n/a
475.3605	0.075	950721	keystroke_r	r	n/a
475.4805	0.135	950961	keystroke_u	u	n/a
475.6	0.09	951200	keystroke_i	i	n/a
475.8255	0.135	951651	keystroke_t	t	n/a
475.99	0.105	951980	keystroke_m	m	n/a
476.1105	0.18	952221	keystroke_e	e	n/a
476.231	0.09	952462	keystroke_n	n	n/a
476.395	0.016	952790	keystroke_t	t	n/a
476.4255	0.105	952851	keystroke_Key.space	Key.space	n/a
476.8905	0.06	953781	keystroke_t	t	n/a
477.221	0.0595	954442	keystroke_i	i	n/a
477.5355	0.075	955071	keystroke_Key.backspace	Key.backspace	n/a
477.6415	0.0895	955283	keystroke_r	r	n/a
477.8205	0.105	955641	keystroke_i	i	n/a
478.046	0.0755	956092	keystroke_n	n	n/a
478.1805	0.09	956361	keystroke_i	i	n/a
478.3155	0.09	956631	keystroke_t	t	n/a
478.4655	0.06	956931	keystroke_y	y	n/a
478.6455	0.1495	957291	keystroke_Key.space	Key.space	n/a
479.035	0.09	958070	keystroke_c	c	n/a
479.1705	0.105	958341	keystroke_o	o	n/a
479.5755	0.09	959151	keystroke_n	n	n/a
479.7405	0.06	959481	keystroke_g	g	n/a
480.0855	0.075	960171	keystroke_Key.backspace	Key.backspace	n/a
480.2355	0.09	960471	keystroke_f	f	n/a
480.3405	0.09	960681	keystroke_l	l	n/a
480.536	0.0745	961072	keystroke_i	i	n/a
480.6255	0.075	961251	keystroke_c	c	n/a
480.8205	0.1195	961641	keystroke_t	t	n/a
480.925	0.1655	961850	keystroke_s	s	n/a
481.0455	0.0895	962091	keystroke_Key.space	Key.space	n/a
481.495	0.1955	962990	keystroke_i	i	n/a
481.7205	0.075	963441	keystroke_n	n	n/a
481.8555	0.165	963711	keystroke_s	s	n/a
482.411	0.1045	964822	keystroke_t	t	n/a
482.5455	0.105	965091	keystroke_a	a	n/a
482.6655	0.09	965331	keystroke_l	l	n/a
482.8455	0.0905	965691	keystroke_l	l	n/a
482.9955	0.15	965991	keystroke_a	a	n/a
483.1905	0.045	966381	keystroke_t	t	n/a
483.281	0.2085	966562	keystroke_i	i	n/a
483.3855	0.15	966771	keystroke_o	o	n/a
483.5205	0.12	967041	keystroke_n	n	n/a
483.8345	0.106	967669	keystroke_s	s	n/a
484.0605	0.044	968121	keystroke_Key.enter	Key.enter	n/a
484.124	7.768	968248	prompt	n/a	wall homeland caroline mills\n
484.976	0.149	969952	keystroke_w	w	n/a
485.17	0.12	970340	keystroke_a	a	n/a
485.23	0.105	970460	keystroke_l	l	n/a
485.41	0.1055	970820	keystroke_l	l	n/a
485.5305	0.0895	971061	keystroke_Key.space	Key.space	n/a
485.695	0.09	971390	keystroke_h	h	n/a
485.845	0.15	971690	keystroke_o	o	n/a
486.085	0.0755	972170	keystroke_m	m	n/a
486.1615	0.1045	972323	keystroke_e	e	n/a
486.2955	0.09	972591	keystroke_l	l	n/a
486.5955	0.15	973191	keystroke_a	a	n/a
486.7295	0.0905	973459	keystroke_d	d	n/a
487.1355	0.075	974271	keystroke_Key.backspace	Key.backspace	n/a
487.346	0.0745	974692	keystroke_n	n	n/a
487.4505	0.09	974901	keystroke_d	d	n/a
487.5555	0.119	975111	keystroke_Key.space	Key.space	n/a
488.006	0.1195	976012	keystroke_c	c	n/a
488.1555	0.1355	976311	keystroke_a	a	n/a
488.3055	0.1205	976611	keystroke_r	r	n/a
488.4555	0.105	976911	keystroke_o	o	n/a
488.71	0.0155	977420	keystroke_l	l	n/a
488.936	0.105	977872	keystroke_i	i	n/a
489.1305	0.134	978261	keystroke_n	n	n/a
489.2355	0.075	978471	keystroke_e	e	n/a
489.3995	0.076	978799	keystroke_Key.space	Key.space	n/a
489.5945	0.0905	979189	keystroke_m	m	n/a
489.7755	0.059	979551	keystroke_i	i	n/a
490.0305	0.045	980061	keystroke_l	l	n/a
490.316	0.0595	980632	keystroke_s	s	n/a
490.3755	0.105	980751	keystroke_l	l	n/a
490.7645	0.061	981529	keystroke_Key.backspace	Key.backspace	n/a
490.9295	0.076	981859	keystroke_Key.backspace	Key.backspace	n/a
491.2905	0.135	982581	keystroke_l	l	n/a
491.456	0.0895	982912	keystroke_s	s	n/a
491.83	0.0605	983660	keystroke_Key.enter	Key.enter	n/a
491.8965	11.666	983793	prompt	n/a	boulevard lazy plane encourages\n
492.9555	0.0755	985911	keystroke_b	b	n/a
493.27	0.18	986540	keystroke_o	o	n/a
493.405	0.091	986810	keystroke_u	u	n/a
493.6	0.09	987200	keystroke_l	l	n/a
493.735	0.0755	987470	keystroke_e	e	n/a
494.0055	0.18	988011	keystroke_v	v	n/a
494.17	0.1805	988340	keystroke_a	a	n/a
494.365	0.1055	988730	keystroke_r	r	n/a
494.59	0.075	989180	keystroke_d	d	n/a
494.7855	0.045	989571	keystroke_e	e	n/a
495.0855	0.09	990171	keystroke_Key.backspace	Key.backspace	n/a
495.2505	0.09	990501	keystroke_Key.space	Key.space	n/a
495.7145	0.106	991429	keystroke_l	l	n/a
495.8345	0.121	991669	keystroke_a	a	n/a
496.0905	0.09	992181	keystroke_z	z	n/a
496.1955	0.105	992391	keystroke_y	y	n/a
496.3305	0.119	992661	keystroke_Key.space	Key.space	n/a
496.6005	0.105	993201	keystroke_p	p	n/a
496.84	0.151	993680	keystroke_l	l	n/a
497.245	0.1055	994490	keystroke_a	a	n/a
497.38	0.12	994760	keystroke_n	n	n/a
497.995	0.09	995990	keystroke_y	y	n/a
498.4455	0.09	996891	keystroke_Key.backspace	Key.backspace	n/a
498.566	0.0595	997132	keystroke_t	t	n/a
498.7605	0.0745	997521	keystroke_Key.space	Key.space	n/a
499.105	0.0905	998210	keystroke_Key.backspace	Key.backspace	n/a
499.3	0.0605	998600	keystroke_Key.backspace	Key.backspace	n/a
499.496	0.0895	998992	keystroke_r	r	n/a
500.0655	0.075	1000131	keystroke_Key.backspace	Key.backspace	n/a
500.4105	0.06	1000821	keystroke_e	e	n/a
500.5605	0.045	1001121	keystroke_Key.space	Key.space	n/a
501.4155	0.0745	1002831	keystroke_e	e	n/a
501.971	0.03	1003942	keystroke_n	n	n/a
502.076	0.074	1004152	keystroke_c	c	n/a
502.405	0.136	1004810	keystroke_o	o	n/a
502.556	0.105	1005112	keystroke_u	u	n/a
502.705	0.0905	1005410	keystroke_r	r	n/a
502.9155	0.165	1005831	keystroke_a	a	n/a
503.0505	0.195	1006101	keystroke_g	g	n/a
503.2155	0.165	1006431	keystroke_e	e	n/a
503.3205	0.105	1006641	keystroke_s	s	n/a
503.5005	0.06	1007001	keystroke_Key.enter	Key.enter	n/a
503.5745	8.1925	1007149	prompt	n/a	dylan receives calculation merely\n
504.536	0.0895	1009072	keystroke_d	d	n/a
504.67	0.09	1009340	keystroke_y	y	n/a
504.836	0.1045	1009672	keystroke_l	l	n/a
504.971	0.075	1009942	keystroke_e	e	n/a
505.3605	0.075	1010721	keystroke_Key.backspace	Key.backspace	n/a
505.6455	0.06	1011291	keystroke_a	a	n/a
505.7355	0.105	1011471	keystroke_n	n	n/a
505.9005	0.09	1011801	keystroke_Key.space	Key.space	n/a
506.0655	0.1505	1012131	keystroke_r	r	n/a
506.1555	0.135	1012311	keystroke_e	e	n/a
506.59	0.1355	1013180	keystroke_c	c	n/a
506.7105	0.105	1013421	keystroke_e	e	n/a
506.8605	0.06	1013721	keystroke_i	i	n/a
507.0105	0.1205	1014021	keystroke_v	v	n/a
507.1005	0.195	1014201	keystroke_e	e	n/a
507.2205	0.105	1014441	keystroke_s	s	n/a
507.4155	0.09	1014831	keystroke_Key.space	Key.space	n/a
507.6405	0.105	1015281	keystroke_c	c	n/a
507.7605	0.105	1015521	keystroke_a	a	n/a
508.0155	0.1045	1016031	keystroke_l	l	n/a
508.751	0.09	1017502	keystroke_c	c	n/a
508.9155	0.1195	1017831	keystroke_u	u	n/a
509.155	0.1205	1018310	keystroke_l	l	n/a
509.305	0.1355	1018610	keystroke_a	a	n/a
509.3955	0.135	1018791	keystroke_t	t	n/a
509.6355	0.12	1019271	keystroke_i	i	n/a
509.741	0.18	1019482	keystroke_o	o	n/a
509.9055	0.105	1019811	keystroke_n	n	n/a
510.0705	0.09	1020141	keystroke_Key.space	Key.space	n/a
510.2805	0.105	1020561	keystroke_m	m	n/a
510.3705	0.135	1020741	keystroke_e	e	n/a
510.4605	0.135	1020921	keystroke_r	r	n/a
510.6255	0.1195	1021251	keystroke_e	e	n/a
510.7905	0.0595	1021581	keystroke_l	l	n/a
510.8955	0.09	1021791	keystroke_y	y	n/a
511.6455	0.12	1023291	keystroke_Key.enter	Key.enter	n/a
511.771	11.412	1023542	prompt	n/a	beneath python treatment postcards\n
514.0785	0.002	1028157	keystroke_b	b	n/a
514.091	0.1195	1028182	keystroke_e	e	n/a
514.2555	0.0605	1028511	keystroke_n	n	n/a
514.3755	0.27	1028751	keystroke_e	e	n/a
514.4955	0.1955	1028991	keystroke_a	a	n/a
514.6155	0.165	1029231	keystroke_t	t	n/a
514.8555	0.1355	1029711	keystroke_h	h	n/a
515.065	0.09	1030130	keystroke_Key.space	Key.space	n/a
515.995	0.1055	1031990	keystroke_p	p	n/a
516.3105	0.105	1032621	keystroke_y	y	n/a
516.4755	0.075	1032951	keystroke_t	t	n/a
516.5805	0.105	1033161	keystroke_h	h	n/a
516.7905	0.1055	1033581	keystroke_o	o	n/a
517.0305	0.06	1034061	keystroke_n	n	n/a
517.1655	0.09	1034331	keystroke_Key.space	Key.space	n/a
517.406	0.164	1034812	keystroke_t	t	n/a
517.6155	0.1495	1035231	keystroke_r	r	n/a
517.915	0.1505	1035830	keystroke_e	e	n/a
518.096	0.1495	1036192	keystroke_a	a	n/a
518.246	0.1345	1036492	keystroke_t	t	n/a
518.455	0.09	1036910	keystroke_m	m	n/a
518.5755	0.09	1037151	keystroke_e	e	n/a
518.7855	0.075	1037571	keystroke_t	t	n/a
519.25	0.09	1038500	keystroke_Key.backspace	Key.backspace	n/a
519.4755	0.075	1038951	keystroke_n	n	n/a
519.5655	0.075	1039131	keystroke_t	t	n/a
519.7005	0.09	1039401	keystroke_Key.space	Key.space	n/a
520.75	0.1655	1041500	keystroke_p	p	n/a
520.8555	0.12	1041711	keystroke_o	o	n/a
521.035	0.195	1042070	keystroke_s	s	n/a
521.185	0.106	1042370	keystroke_t	t	n/a
521.5605	0.2105	1043121	keystroke_c	c	n/a
521.786	0.15	1043572	keystroke_a	a	n/a
521.861	0.15	1043722	keystroke_r	r	n/a
522.115	0.1955	1044230	keystroke_d	d	n/a
522.25	0.135	1044500	keystroke_s	s	n/a
523.09	0.0895	1046180	keystroke_Key.enter	Key.enter	n/a
523.199	8.2645	1046398	prompt	n/a	crops caution thermal commons\n
523.901	0.09	1047802	keystroke_c	c	n/a
524.111	0.09	1048222	keystroke_r	r	n/a
524.291	0.134	1048582	keystroke_o	o	n/a
524.41	0.1205	1048820	keystroke_p	p	n/a
524.5755	0.06	1049151	keystroke_s	s	n/a
524.6805	0.12	1049361	keystroke_Key.space	Key.space	n/a
525.1305	0.135	1050261	keystroke_v	v	n/a
525.685	0.105	1051370	keystroke_=	=	n/a
526.0305	0.075	1052061	keystroke_Key.backspace	Key.backspace	n/a
526.18	0.09	1052360	keystroke_Key.backspace	Key.backspace	n/a
526.2555	0.1355	1052511	keystroke_c	c	n/a
526.405	0.0905	1052810	keystroke_a	a	n/a
526.5105	0.06	1053021	keystroke_i	i	n/a
527.0655	0.075	1054131	keystroke_Key.backspace	Key.backspace	n/a
527.2305	0.09	1054461	keystroke_u	u	n/a
527.351	0.1195	1054702	keystroke_t	t	n/a
527.59	0.1805	1055180	keystroke_i	i	n/a
527.7255	0.165	1055451	keystroke_o	o	n/a
527.9645	0.075	1055929	keystroke_n	n	n/a
528.0705	0.105	1056141	keystroke_Key.space	Key.space	n/a
528.2055	0.0755	1056411	keystroke_t	t	n/a
528.3105	0.0905	1056621	keystroke_h	h	n/a
528.4455	0.0595	1056891	keystroke_e	e	n/a
528.5355	0.1055	1057071	keystroke_m	m	n/a
528.7	0.09	1057400	keystroke_a	a	n/a
528.8205	0.1195	1057641	keystroke_l	l	n/a
529.045	0.0605	1058090	keystroke_Key.space	Key.space	n/a
529.315	0.0755	1058630	keystroke_o	o	n/a
529.375	0.1355	1058750	keystroke_c	c	n/a
529.6305	0.075	1059261	keystroke_Key.backspace	Key.backspace	n/a
529.81	0.061	1059620	keystroke_Key.backspace	Key.backspace	n/a
529.93	0.1355	1059860	keystroke_c	c	n/a
530.32	0.15	1060640	keystroke_o	o	n/a
530.56	0.0605	1061120	keystroke_m	m	n/a
530.6955	0.09	1061391	keystroke_m	m	n/a
530.8605	0.135	1061721	keystroke_o	o	n/a
531.0245	0.091	1062049	keystroke_n	n	n/a
531.206	0.09	1062412	keystroke_s	s	n/a
531.3705	0.0905	1062741	keystroke_Key.enter	Key.enter	n/a
531.473	8.99	1062946	prompt	n/a	blogging fixed funny bureau\n
532.27	0.0905	1064540	keystroke_b	b	n/a
532.3755	0.1195	1064751	keystroke_l	l	n/a
532.6005	0.135	1065201	keystroke_o	o	n/a
532.7505	0.045	1065501	keystroke_g	g	n/a
533.1555	0.075	1066311	keystroke_g	g	n/a
533.6355	0.165	1067271	keystroke_i	i	n/a
533.8605	0.105	1067721	keystroke_n	n	n/a
534.2505	0.075	1068501	keystroke_g	g	n/a
534.475	0.105	1068950	keystroke_Key.space	Key.space	n/a
534.9095	0.061	1069819	keystroke_f	f	n/a
535.1205	0.09	1070241	keystroke_i	i	n/a
535.285	0.105	1070570	keystroke_x	x	n/a
535.496	0.0745	1070992	keystroke_e	e	n/a
535.675	0.061	1071350	keystroke_d	d	n/a
535.765	0.105	1071530	keystroke_Key.space	Key.space	n/a
536.4705	0.15	1072941	keystroke_f	f	n/a
536.6055	0.06	1073211	keystroke_u	u	n/a
536.8155	0.06	1073631	keystroke_n	n	n/a
536.9505	0.09	1073901	keystroke_n	n	n/a
537.0555	0.06	1074111	keystroke_y	y	n/a
537.1605	0.09	1074321	keystroke_Key.space	Key.space	n/a
537.49	0.075	1074980	keystroke_b	b	n/a
537.625	0.0755	1075250	keystroke_e	e	n/a
538.015	0.106	1076030	keystroke_Key.backspace	Key.backspace	n/a
538.2105	0.075	1076421	keystroke_u	u	n/a
538.435	0.1355	1076870	keystroke_r	r	n/a
538.556	0.1045	1077112	keystroke_e	e	n/a
540.01	0.06	1080020	keystroke_a	a	n/a
540.1605	0.105	1080321	keystroke_u	u	n/a
540.3705	0.09	1080741	keystroke_Key.enter	Key.enter	n/a
540.4765	8.0855	1080953	prompt	n/a	naked handheld filtering beauty\n
541.361	0.075	1082722	keystroke_n	n	n/a
541.4955	0.105	1082991	keystroke_a	a	n/a
541.7055	0.075	1083411	keystroke_k	k	n/a
541.8255	0.075	1083651	keystroke_e	e	n/a
541.9455	0.1055	1083891	keystroke_Key.space	Key.space	n/a
542.4855	0.06	1084971	keystroke_Key.backspace	Key.backspace	n/a
542.576	0.0745	1085152	keystroke_d	d	n/a
542.7255	0.075	1085451	keystroke_Key.space	Key.space	n/a
542.995	0.075	1085990	keystroke_h	h	n/a
543.115	0.075	1086230	keystroke_a	a	n/a
543.2205	0.0595	1086441	keystroke_n	n	n/a
543.3705	0.0455	1086741	keystroke_f	f	n/a
543.7755	0.06	1087551	keystroke_Key.backspace	Key.backspace	n/a
543.8955	0.06	1087791	keystroke_d	d	n/a
544.0155	0.0755	1088031	keystroke_h	h	n/a
544.1205	0.0755	1088241	keystroke_e	e	n/a
544.2555	0.105	1088511	keystroke_l	l	n/a
544.9305	0.06	1089861	keystroke_d	d	n/a
545.0205	0.105	1090041	keystroke_Key.space	Key.space	n/a
545.5605	0.075	1091121	keystroke_f	f	n/a
545.7255	0.105	1091451	keystroke_i	i	n/a
545.9355	0.105	1091871	keystroke_l	l	n/a
546.0555	0.1055	1092111	keystroke_t	t	n/a
546.206	0.165	1092412	keystroke_e	e	n/a
546.281	0.15	1092562	keystroke_r	r	n/a
546.416	0.12	1092832	keystroke_i	i	n/a
546.521	0.1045	1093042	keystroke_n	n	n/a
546.61	0.076	1093220	keystroke_g	g	n/a
546.7305	0.105	1093461	keystroke_Key.space	Key.space	n/a
547.1955	0.12	1094391	keystroke_b	b	n/a
547.3	0.105	1094600	keystroke_a	a	n/a
547.645	0.0755	1095290	keystroke_Key.backspace	Key.backspace	n/a
547.7805	0.135	1095561	keystroke_e	e	n/a
547.8405	0.1655	1095681	keystroke_a	a	n/a
548.0805	0.045	1096161	keystroke_u	u	n/a
548.2445	0.076	1096489	keystroke_t	t	n/a
548.4105	0.059	1096821	keystroke_y	y	n/a
548.5005	0.0595	1097001	keystroke_Key.enter	Key.enter	n/a
548.566	8.862	1097132	prompt	n/a	grande voluntary prostate fourth\n
549.611	0.134	1099222	keystroke_g	g	n/a
549.686	0.1195	1099372	keystroke_r	r	n/a
549.7605	0.1055	1099521	keystroke_a	a	n/a
549.926	0.015	1099852	keystroke_n	n	n/a
549.956	0.045	1099912	keystroke_d	d	n/a
550.091	0.0735	1100182	keystroke_e	e	n/a
550.1355	0.075	1100271	keystroke_Key.space	Key.space	n/a
551.1405	0.089	1102281	keystroke_Key.backspace	Key.backspace	n/a
551.755	0.0755	1103510	keystroke_Key.space	Key.space	n/a
552.445	0.105	1104890	keystroke_v	v	n/a
552.8355	0.06	1105671	keystroke_o	o	n/a
553.0305	0.074	1106061	keystroke_l	l	n/a
553.1655	0.045	1106331	keystroke_u	u	n/a
553.3755	0.075	1106751	keystroke_n	n	n/a
553.4655	0.09	1106931	keystroke_t	t	n/a
553.601	0.1195	1107202	keystroke_a	a	n/a
553.6605	0.105	1107321	keystroke_r	r	n/a
553.7805	0.09	1107561	keystroke_y	y	n/a
553.9455	0.075	1107891	keystroke_Key.space	Key.space	n/a
554.3505	0.119	1108701	keystroke_p	p	n/a
554.5455	0.09	1109091	keystroke_o	o	n/a
554.7105	0.0905	1109421	keystroke_r	r	n/a
554.951	0.0745	1109902	keystroke_Key.backspace	Key.backspace	n/a
555.1155	0.045	1110231	keystroke_Key.backspace	Key.backspace	n/a
555.1905	0.075	1110381	keystroke_r	r	n/a
555.3105	0.09	1110621	keystroke_o	o	n/a
555.446	0.135	1110892	keystroke_s	s	n/a
555.5655	0.15	1111131	keystroke_t	t	n/a
555.7005	0.135	1111401	keystroke_a	a	n/a
555.7905	0.15	1111581	keystroke_t	t	n/a
555.866	0.1195	1111732	keystroke_e	e	n/a
556.0005	0.1655	1112001	keystroke_Key.space	Key.space	n/a
556.4055	0.09	1112811	keystroke_f	f	n/a
556.5705	0.1495	1113141	keystroke_o	o	n/a
556.7655	0.0745	1113531	keystroke_u	u	n/a
556.8855	0.0755	1113771	keystroke_r	r	n/a
557.125	0.03	1114250	keystroke_t	t	n/a
557.171	0.0595	1114342	keystroke_h	h	n/a
557.32	0.105	1114640	keystroke_Key.enter	Key.enter	n/a
557.4445	9.8685	1114889	prompt	n/a	event painting lecture cnet\n
558.026	0.0895	1116052	keystroke_e	e	n/a
558.5205	0.09	1117041	keystroke_v	v	n/a
558.596	0.09	1117192	keystroke_e	e	n/a
558.6865	0.059	1117373	keystroke_n	n	n/a
558.8505	0.075	1117701	keystroke_t	t	n/a
558.94	0.105	1117880	keystroke_Key.space	Key.space	n/a
559.3155	0.105	1118631	keystroke_[	[	n/a
559.5105	0.12	1119021	keystroke_a	a	n/a
559.6905	0.18	1119381	keystroke_i	i	n/a
559.856	0.105	1119712	keystroke_n	n	n/a
559.9455	0.0905	1119891	keystroke_t	t	n/a
560.0955	0.135	1120191	keystroke_i	i	n/a
560.2455	0.09	1120491	keystroke_n	n	n/a
560.3655	0.075	1120731	keystroke_g	g	n/a
560.5155	0.09	1121031	keystroke_Key.space	Key.space	n/a
561.5655	0.105	1123131	keystroke_Key.backspace	Key.backspace	n/a
561.7755	0.075	1123551	keystroke_Key.backspace	Key.backspace	n/a
562.421	0.1195	1124842	keystroke_p	p	n/a
562.5555	0.09	1125111	keystroke_a	a	n/a
562.6605	0.18	1125321	keystroke_i	i	n/a
562.81	0.1355	1125620	keystroke_n	n	n/a
562.9755	0.1055	1125951	keystroke_t	t	n/a
563.155	0.12	1126310	keystroke_i	i	n/a
563.3355	0.1195	1126671	keystroke_n	n	n/a
563.47	0.09	1126940	keystroke_g	g	n/a
564.19	0.09	1128380	keystroke_Key.space	Key.space	n/a
564.5205	0.1045	1129041	keystroke_l	l	n/a
564.67	0.06	1129340	keystroke_e	e	n/a
564.821	0.105	1129642	keystroke_c	c	n/a
565.12	0.06	1130240	keystroke_u	u	n/a
565.3605	0.03	1130721	keystroke_t	t	n/a
565.6305	0.06	1131261	keystroke_Key.backspace	Key.backspace	n/a
565.7805	0.074	1131561	keystroke_Key.backspace	Key.backspace	n/a
565.8555	0.075	1131711	keystroke_t	t	n/a
565.976	0.0745	1131952	keystroke_u	u	n/a
566.0655	0.15	1132131	keystroke_r	r	n/a
566.1705	0.135	1132341	keystroke_e	e	n/a
566.3205	0.074	1132641	keystroke_Key.space	Key.space	n/a
566.6195	0.091	1133239	keystroke_c	c	n/a
566.8005	0.09	1133601	keystroke_n	n	n/a
566.9655	0.135	1133931	keystroke_e	e	n/a
567.0555	0.1205	1134111	keystroke_t	t	n/a
567.2355	0.075	1134471	keystroke_Key.enter	Key.enter	n/a
567.328	9.4945	1134656	prompt	n/a	revolution dollar mpegs telephony\n
568.1805	0.135	1136361	keystroke_r	r	n/a
568.255	0.1205	1136510	keystroke_e	e	n/a
568.42	0.1655	1136840	keystroke_l	l	n/a
568.63	0.06	1137260	keystroke_u	u	n/a
569.35	0.105	1138700	keystroke_Key.backspace	Key.backspace	n/a
569.5155	0.105	1139031	keystroke_Key.backspace	Key.backspace	n/a
569.7105	0.1045	1139421	keystroke_v	v	n/a
570.145	0.0605	1140290	keystroke_o	o	n/a
570.3855	0.105	1140771	keystroke_l	l	n/a
570.9255	0.075	1141851	keystroke_u	u	n/a
571.0455	0.09	1142091	keystroke_t	t	n/a
571.3455	0.164	1142691	keystroke_i	i	n/a
571.3605	0.3	1142721	keystroke_o	o	n/a
571.975	0.105	1143950	keystroke_n	n	n/a
572.32	0.105	1144640	keystroke_Key.space	Key.space	n/a
572.56	0.09	1145120	keystroke_d	d	n/a
572.6655	0.06	1145331	keystroke_o	o	n/a
572.8605	0.03	1145721	keystroke_l	l	n/a
572.9955	0.06	1145991	keystroke_l	l	n/a
573.0855	0.165	1146171	keystroke_a	a	n/a
573.2045	0.136	1146409	keystroke_r	r	n/a
573.3855	0.0745	1146771	keystroke_Key.space	Key.space	n/a
573.6255	0.075	1147251	keystroke_m	m	n/a
573.865	0.12	1147730	keystroke_p	p	n/a
574.36	0.075	1148720	keystroke_e	e	n/a
574.63	0.136	1149260	keystroke_g	g	n/a
574.7505	0.09	1149501	keystroke_s	s	n/a
575.11	0.1055	1150220	keystroke_Key.space	Key.space	n/a
575.395	0.15	1150790	keystroke_t	t	n/a
575.5005	0.105	1151001	keystroke_e	e	n/a
575.62	0.06	1151240	keystroke_l	l	n/a
575.815	0.0745	1151630	keystroke_e	e	n/a
575.9655	0.105	1151931	keystroke_p	p	n/a
576.1145	0.091	1152229	keystroke_h	h	n/a
576.295	0.09	1152590	keystroke_o	o	n/a
576.475	0.0755	1152950	keystroke_n	n	n/a
576.6105	0.0595	1153221	keystroke_y	y	n/a
576.731	0.0895	1153462	keystroke_Key.enter	Key.enter	n/a
576.839	7.469	1153678	prompt	n/a	discrete fake chicken federation\n
577.496	0.0595	1154992	keystroke_d	d	n/a
577.7505	0.0905	1155501	keystroke_i	i	n/a
578.1545	0.106	1156309	keystroke_s	s	n/a
578.44	0.12	1156880	keystroke_c	c	n/a
578.605	0.09	1157210	keystroke_r	r	n/a
578.786	0.119	1157572	keystroke_e	e	n/a
578.9505	0.15	1157901	keystroke_t	t	n/a
579.085	0.1505	1158170	keystroke_e	e	n/a
579.25	0.1055	1158500	keystroke_Key.space	Key.space	n/a
579.5955	0.12	1159191	keystroke_f	f	n/a
579.7455	0.12	1159491	keystroke_a	a	n/a
580.1205	0.135	1160241	keystroke_k	k	n/a
580.271	0.0745	1160542	keystroke_e	e	n/a
580.465	0.165	1160930	keystroke_Key.space	Key.space	n/a
580.9755	0.105	1161951	keystroke_c	c	n/a
581.276	0.074	1162552	keystroke_h	h	n/a
581.3345	0.136	1162669	keystroke_i	i	n/a
581.5005	0.1045	1163001	keystroke_c	c	n/a
581.635	0.075	1163270	keystroke_k	k	n/a
581.755	0.06	1163510	keystroke_e	e	n/a
581.861	0.1345	1163722	keystroke_n	n	n/a
582.085	0.075	1164170	keystroke_Key.space	Key.space	n/a
582.296	0.119	1164592	keystroke_f	f	n/a
582.505	0.106	1165010	keystroke_e	e	n/a
582.746	0.0745	1165492	keystroke_d	d	n/a
582.9405	0.1655	1165881	keystroke_e	e	n/a
583.0305	0.165	1166061	keystroke_r	r	n/a
583.226	0.1645	1166452	keystroke_a	a	n/a
583.3455	0.105	1166691	keystroke_t	t	n/a
583.4955	0.165	1166991	keystroke_i	i	n/a
583.7655	0.0605	1167531	keystroke_o	o	n/a
583.8855	0.09	1167771	keystroke_n	n	n/a
584.1855	0.12	1168371	keystroke_Key.enter	Key.enter	n/a
584.3115	12.086	1168623	prompt	n/a	breaking template refresh activation\n
585.2205	0.075	1170441	keystroke_b	b	n/a
585.3255	0.165	1170651	keystroke_r	r	n/a
585.3405	0.21	1170681	keystroke_e	e	n/a
585.5055	0.1345	1171011	keystroke_a	a	n/a
585.655	0.0905	1171310	keystroke_k	k	n/a
585.8505	0.135	1171701	keystroke_i	i	n/a
586.0455	0.074	1172091	keystroke_n	n	n/a
586.1345	0.0765	1172269	keystroke_g	g	n/a
586.285	0.0755	1172570	keystroke_Key.space	Key.space	n/a
586.6155	0.1495	1173231	keystroke_t	t	n/a
586.735	0.1055	1173470	keystroke_e	e	n/a
586.8705	0.0905	1173741	keystroke_m	m	n/a
587.0505	0.255	1174101	keystroke_p	p	n/a
587.456	0.0745	1174912	keystroke_l	l	n/a
587.711	0.1645	1175422	keystroke_a	a	n/a
587.8455	0.18	1175691	keystroke_t	t	n/a
587.9505	0.135	1175901	keystroke_e	e	n/a
588.3555	0.089	1176711	keystroke_Key.space	Key.space	n/a
588.7455	0.1495	1177491	keystroke_r	r	n/a
588.835	0.121	1177670	keystroke_e	e	n/a
589.4795	0.135	1178959	keystroke_f	f	n/a
589.66	0.09	1179320	keystroke_r	r	n/a
589.8705	0.0595	1179741	keystroke_e	e	n/a
589.96	0.12	1179920	keystroke_s	s	n/a
590.11	0.0905	1180220	keystroke_h	h	n/a
590.2905	0.0745	1180581	keystroke_Key.space	Key.space	n/a
590.561	0.089	1181122	keystroke_a	a	n/a
590.83	0.106	1181660	keystroke_c	c	n/a
591.145	0.0605	1182290	keystroke_t	t	n/a
591.265	0.075	1182530	keystroke_i	i	n/a
591.52	0.09	1183040	keystroke_v	v	n/a
591.655	0.09	1183310	keystroke_i	i	n/a
592.7955	0.1045	1185591	keystroke_a	a	n/a
592.87	0.136	1185740	keystroke_t	t	n/a
