onset	duration	sample	value	key	prompt_text
6.6305	8.2185	13261	prompt	n/a	the quick brown fox jumps over a lazy dog\n
7.7065	0.0445	15413	keystroke_t	t	n/a
7.7955	0.09	15591	keystroke_h	h	n/a
8.051	0.18	16102	keystroke_e	e	n/a
8.2455	0.105	16491	keystroke_Key.space	Key.space	n/a
8.741	0.105	17482	keystroke_q	q	n/a
8.861	0.0595	17722	keystroke_u	u	n/a
9.041	0.0895	18082	keystroke_i	i	n/a
9.146	0.1045	18292	keystroke_c	c	n/a
9.2955	0.1055	18591	keystroke_k	k	n/a
9.416	0.075	18832	keystroke_Key.space	Key.space	n/a
9.5655	0.0755	19131	keystroke_b	b	n/a
9.7005	0.1055	19401	keystroke_r	r	n/a
9.851	0.03	19702	keystroke_o	o	n/a
9.9405	0.105	19881	keystroke_w	w	n/a
10.0605	0.075	20121	keystroke_n	n	n/a
10.1205	0.0895	20241	keystroke_Key.space	Key.space	n/a
10.316	0.1045	20632	keystroke_f	f	n/a
10.4505	0.0905	20901	keystroke_o	o	n/a
10.6455	0.0905	21291	keystroke_x	x	n/a
10.8105	0.105	21621	keystroke_Key.space	Key.space	n/a
10.9605	0.09	21921	keystroke_j	j	n/a
11.1705	0.075	22341	keystroke_u	u	n/a
11.3655	0.075	22731	keystroke_m	m	n/a
11.5305	0.09	23061	keystroke_p	p	n/a
11.6505	0.0905	23301	keystroke_s	s	n/a
11.6955	0.105	23391	keystroke_Key.space	Key.space	n/a
11.8155	0.09	23631	keystroke_o	o	n/a
11.9205	0.105	23841	keystroke_v	v	n/a
12.2655	0.075	24531	keystroke_r	r	n/a
12.6255	0.0905	25251	keystroke_Key.backspace	Key.backspace	n/a
12.745	0.1205	25490	keystroke_e	e	n/a
12.8355	0.1045	25671	keystroke_r	r	n/a
12.8955	0.15	25791	keystroke_Key.space	Key.space	n/a
13.031	0.1345	26062	keystroke_a	a	n/a
13.12	0.1205	26240	keystroke_Key.space	Key.space	n/a
13.3455	0.09	26691	keystroke_l	l	n/a
13.4205	0.105	26841	keystroke_a	a	n/a
13.7055	0.075	27411	keystroke_z	z	n/a
13.8705	0.0605	27741	keystroke_y	y	n/a
13.9605	0.0905	27921	keystroke_Key.space	Key.space	n/a
14.2005	0.0605	28401	keystroke_d	d	n/a
14.276	0.0905	28552	keystroke_o	o	n/a
14.5755	0.0905	29151	keystroke_g	g	n/a
14.7555	0.0905	29511	keystroke_Key.enter	Key.enter	n/a
14.855	8.4675	29710	prompt	n/a	poll musician what's nasdaq\n
15.521	0.074	31042	keystroke_p	p	n/a
15.7155	0.0605	31431	keystroke_o	o	n/a
15.9105	0.0455	31821	keystroke_l	l	n/a
16.015	0.0755	32030	keystroke_l	l	n/a
16.136	0.0745	32272	keystroke_Key.space	Key.space	n/a
16.6605	0.03	33321	keystroke_b	b	n/a
16.99	0.046	33980	keystroke_Key.backspace	Key.backspace	n/a
17.2155	0.076	34431	keystroke_m	m	n/a
17.425	0.061	34850	keystroke_u	u	n/a
17.531	0.09	35062	keystroke_s	s	n/a
17.6805	0.09	35361	keystroke_i	i	n/a
17.8755	0.1055	35751	keystroke_c	c	n/a
18.041	0.0745	36082	keystroke_i	i	n/a
18.326	0.104	36652	keystroke_a	a	n/a
18.461	0.0895	36922	keystroke_n	n	n/a
18.58	0.0905	37160	keystroke_Key.space	Key.space	n/a
18.8205	0.09	37641	keystroke_w	w	n/a
18.9705	0.075	37941	keystroke_h	h	n/a
19.0905	0.09	38181	keystroke_a	a	n/a
19.2855	0.0895	38571	keystroke_t	t	n/a
19.4805	0.0905	38961	keystroke_'	'	n/a
19.6155	0.1055	39231	keystroke_s	s	n/a
19.706	0.09	39412	keystroke_Key.space	Key.space	n/a
20.066	0.0745	40132	keystroke_n	n	n/a
20.2155	0.105	40431	keystroke_a	a	n/a
20.5615	0.09	41123	keystroke_s	s	n/a
21.6565	0.089	43313	keystroke_f	f	n/a
22.241	0.0895	44482	keystroke_Key.backspace	Key.backspace	n/a
22.5105	0.1045	45021	keystroke_d	d	n/a
22.6005	0.105	45201	keystroke_a	a	n/a
22.9615	0.0745	45923	keystroke_q	q	n/a
23.2305	0.0905	46461	keystroke_Key.enter	Key.enter	n/a
23.328	9.205	46656	prompt	n/a	carnival confused absorption realtor\n
24.2505	0.075	48501	keystroke_c	c	n/a
24.386	0.1045	48772	keystroke_a	a	n/a
24.55	0.076	49100	keystroke_r	r	n/a
24.761	0.0895	49522	keystroke_n	n	n/a
25.1515	0.0885	50303	keystroke_i	i	n/a
25.4805	0.075	50961	keystroke_v	v	n/a
25.616	0.135	51232	keystroke_a	a	n/a
25.7355	0.075	51471	keystroke_l	l	n/a
25.8555	0.0905	51711	keystroke_Key.space	Key.space	n/a
26.171	0.0895	52342	keystroke_c	c	n/a
26.2905	0.09	52581	keystroke_o	o	n/a
26.3655	0.0905	52731	keystroke_n	n	n/a
26.681	0.0745	53362	keystroke_f	f	n/a
26.8165	0.0745	53633	keystroke_u	u	n/a
27.1755	0.0905	54351	keystroke_s	s	n/a
27.4455	0.0755	54891	keystroke_e	e	n/a
27.6405	0.105	55281	keystroke_d	d	n/a
27.731	0.089	55462	keystroke_Key.space	Key.space	n/a
28.0605	0.0905	56121	keystroke_a	a	n/a
28.211	0.075	56422	keystroke_b	b	n/a
28.361	0.105	56722	keystroke_s	s	n/a
28.6305	0.105	57261	keystroke_o	o	n/a
28.871	0.09	57742	keystroke_r	r	n/a
29.156	0.0745	58312	keystroke_t	t	n/a
29.861	0.074	59722	keystroke_Key.backspace	Key.backspace	n/a
30.101	0.105	60202	keystroke_p	p	n/a
30.341	0.074	60682	keystroke_t	t	n/a
30.491	0.075	60982	keystroke_i	i	n/a
30.716	0.0895	61432	keystroke_o	o	n/a
30.791	0.089	61582	keystroke_n	n	n/a
30.911	0.0895	61822	keystroke_Key.space	Key.space	n/a
31.0905	0.1205	62181	keystroke_r	r	n/a
31.4655	0.15	62931	keystroke_e	e	n/a
31.601	0.1345	63202	keystroke_a	a	n/a
31.7505	0.105	63501	keystroke_l	l	n/a
31.9905	0.0755	63981	keystroke_t	t	n/a
32.1705	0.0605	64341	keystroke_o	o	n/a
32.276	0.09	64552	keystroke_r	r	n/a
32.441	0.09	64882	keystroke_Key.enter	Key.enter	n/a
32.5375	9.9115	65075	prompt	n/a	acceptable polyester consortium sheet\n
33.476	0.09	66952	keystroke_a	a	n/a
33.6705	0.0605	67341	keystroke_c	c	n/a
33.791	0.06	67582	keystroke_c	c	n/a
33.986	0.105	67972	keystroke_e	e	n/a
34.121	0.105	68242	keystroke_p	p	n/a
34.211	0.1045	68422	keystroke_t	t	n/a
34.4065	0.104	68813	keystroke_a	a	n/a
34.5715	0.0895	69143	keystroke_b	b	n/a
34.736	0.105	69472	keystroke_l	l	n/a
34.871	0.075	69742	keystroke_e	e	n/a
34.886	0.15	69772	keystroke_Key.space	Key.space	n/a
35.3505	0.0455	70701	keystroke_p	p	n/a
35.831	0.09	71662	keystroke_u	u	n/a
36.236	0.075	72472	keystroke_Key.backspace	Key.backspace	n/a
36.476	0.09	72952	keystroke_o	o	n/a
36.671	0.105	73342	keystroke_l	l	n/a
36.821	0.06	73642	keystroke_y	y	n/a
37.346	0.09	74692	keystroke_e	e	n/a
37.781	0.12	75562	keystroke_s	s	n/a
38.0515	0.1495	76103	keystroke_t	t	n/a
38.261	0.15	76522	keystroke_e	e	n/a
38.396	0.1345	76792	keystroke_r	r	n/a
38.5155	0.09	77031	keystroke_Key.space	Key.space	n/a
38.8465	0.074	77693	keystroke_c	c	n/a
38.9955	0.1355	77991	keystroke_o	o	n/a
39.1005	0.1055	78201	keystroke_n	n	n/a
39.4005	0.105	78801	keystroke_s	s	n/a
39.5655	0.09	79131	keystroke_o	o	n/a
39.6705	0.075	79341	keystroke_r	r	n/a
39.8815	0.0895	79763	keystroke_t	t	n/a
40.1205	0.105	80241	keystroke_i	i	n/a
40.6315	0.0745	81263	keystroke_u	u	n/a
40.87	0.0905	81740	keystroke_m	m	n/a
41.02	0.105	82040	keystroke_Key.space	Key.space	n/a
41.456	0.09	82912	keystroke_s	s	n/a
41.561	0.075	83122	keystroke_h	h	n/a
41.7865	0.0745	83573	keystroke_e	e	n/a
41.936	0.09	83872	keystroke_e	e	n/a
42.1755	0.0905	84351	keystroke_t	t	n/a
42.3705	0.075	84741	keystroke_Key.enter	Key.enter	n/a
42.455	7.5525	84910	prompt	n/a	elimination valuable there'd rico\n
43.0615	0.104	86123	keystroke_e	e	n/a
43.241	0.0895	86482	keystroke_l	l	n/a
43.511	0.12	87022	keystroke_i	i	n/a
44.0805	0.075	88161	keystroke_m	m	n/a
44.411	0.075	88822	keystroke_i	i	n/a
44.4705	0.105	88941	keystroke_n	n	n/a
44.636	0.1195	89272	keystroke_a	a	n/a
44.8755	0.06	89751	keystroke_t	t	n/a
44.9955	0.06	89991	keystroke_i	i	n/a
45.1905	0.1055	90381	keystroke_o	o	n/a
45.2805	0.075	90561	keystroke_n	n	n/a
45.3405	0.1055	90681	keystroke_Key.space	Key.space	n/a
45.5955	0.1055	91191	keystroke_v	v	n/a
45.7455	0.105	91491	keystroke_a	a	n/a
45.9255	0.105	91851	keystroke_l	l	n/a
46.286	0.0905	92572	keystroke_u	u	n/a
46.436	0.105	92872	keystroke_a	a	n/a
46.706	0.075	93412	keystroke_b	b	n/a
46.901	0.1195	93802	keystroke_l	l	n/a
47.006	0.1345	94012	keystroke_e	e	n/a
47.111	0.1195	94222	keystroke_Key.space	Key.space	n/a
47.3955	0.0905	94791	keystroke_t	t	n/a
47.5305	0.0605	95061	keystroke_h	h	n/a
47.576	0.0895	95152	keystroke_e	e	n/a
47.6665	0.1345	95333	keystroke_r	r	n/a
47.786	0.105	95572	keystroke_e	e	n/a
48.206	0.105	96412	keystroke_'	'	n/a
48.3865	0.1495	96773	keystroke_d	d	n/a
48.551	0.09	97102	keystroke_Key.space	Key.space	n/a
49.301	0.09	98602	keystroke_r	r	n/a
49.436	0.075	98872	keystroke_i	i	n/a
49.586	0.09	99172	keystroke_c	c	n/a
49.721	0.074	99442	keystroke_o	o	n/a
49.916	0.0895	99832	keystroke_Key.enter	Key.enter	n/a
50.011	6.1025	100022	prompt	n/a	scottish bike variations stored\n
50.696	0.09	101392	keystroke_s	s	n/a
50.8905	0.0905	101781	keystroke_c	c	n/a
51.026	0.075	102052	keystroke_o	o	n/a
51.251	0.0155	102502	keystroke_t	t	n/a
51.3265	0.0895	102653	keystroke_t	t	n/a
51.491	0.075	102982	keystroke_i	i	n/a
51.596	0.09	103192	keystroke_s	s	n/a
51.731	0.0905	103462	keystroke_h	h	n/a
51.806	0.12	103612	keystroke_Key.space	Key.space	n/a
52.031	0.075	104062	keystroke_b	b	n/a
52.6005	0.0905	105201	keystroke_i	i	n/a
52.8105	0.091	105621	keystroke_k	k	n/a
52.886	0.1345	105772	keystroke_e	e	n/a
52.991	0.1195	105982	keystroke_Key.space	Key.space	n/a
53.3655	0.076	106731	keystroke_v	v	n/a
53.5005	0.0905	107001	keystroke_a	a	n/a
53.696	0.09	107392	keystroke_r	r	n/a
53.876	0.075	107752	keystroke_i	i	n/a
53.966	0.089	107932	keystroke_a	a	n/a
54.161	0.089	108322	keystroke_t	t	n/a
54.311	0.075	108622	keystroke_i	i	n/a
54.5065	0.1045	109013	keystroke_o	o	n/a
54.5965	0.0745	109193	keystroke_n	n	n/a
54.656	0.12	109312	keystroke_s	s	n/a
54.715	0.121	109430	keystroke_Key.space	Key.space	n/a
54.9415	0.1045	109883	keystroke_s	s	n/a
55.1805	0.076	110361	keystroke_t	t	n/a
55.3015	0.089	110603	keystroke_o	o	n/a
55.4055	0.09	110811	keystroke_r	r	n/a
55.5105	0.12	111021	keystroke_e	e	n/a
55.7665	0.089	111533	keystroke_d	d	n/a
56.006	0.1045	112012	keystroke_Key.enter	Key.enter	n/a
56.1185	9.2785	112237	prompt	n/a	partner managed advertisement bowling\n
56.9215	0.0745	113843	keystroke_p	p	n/a
56.9655	0.09	113931	keystroke_a	a	n/a
57.146	0.1055	114292	keystroke_r	r	n/a
57.326	0.075	114652	keystroke_t	t	n/a
57.491	0.0755	114982	keystroke_n	n	n/a
57.6255	0.09	115251	keystroke_e	e	n/a
57.8655	0.1355	115731	keystroke_r	r	n/a
58.0155	0.105	116031	keystroke_Key.space	Key.space	n/a
58.4505	0.0605	116901	keystroke_m	m	n/a
58.4805	0.0905	116961	keystroke_a	a	n/a
58.6455	0.09	117291	keystroke_a	a	n/a
58.661	0.0445	117322	keystroke_n	n	n/a
58.8715	0.1045	117743	keystroke_g	g	n/a
59.02	0.106	118040	keystroke_e	e	n/a
59.381	0.06	118762	keystroke_Key.backspace	Key.backspace	n/a
59.516	0.06	119032	keystroke_Key.backspace	Key.backspace	n/a
59.636	0.06	119272	keystroke_Key.backspace	Key.backspace	n/a
59.756	0.075	119512	keystroke_Key.backspace	Key.backspace	n/a
60.026	0.075	120052	keystroke_n	n	n/a
60.0865	0.1045	120173	keystroke_a	a	n/a
60.371	0.105	120742	keystroke_g	g	n/a
60.626	0.09	121252	keystroke_e	e	n/a
60.8965	0.1195	121793	keystroke_d	d	n/a
61.03	0.091	122060	keystroke_Key.space	Key.space	n/a
61.5715	0.0445	123143	keystroke_a	a	n/a
61.8255	0.0905	123651	keystroke_d	d	n/a
62.126	0.075	124252	keystroke_v	v	n/a
62.366	0.0905	124732	keystroke_e	e	n/a
62.441	0.09	124882	keystroke_r	r	n/a
62.651	0.06	125302	keystroke_t	t	n/a
62.7865	0.0895	125573	keystroke_i	i	n/a
62.9215	0.0895	125843	keystroke_s	s	n/a
63.086	0.0905	126172	keystroke_e	e	n/a
63.2365	0.0745	126473	keystroke_m	m	n/a
63.325	0.106	126650	keystroke_e	e	n/a
63.4615	0.06	126923	keystroke_n	n	n/a
63.566	0.1205	127132	keystroke_t	t	n/a
63.6705	0.105	127341	keystroke_Key.space	Key.space	n/a
63.9705	0.06	127941	keystroke_b	b	n/a
64.211	0.0905	128422	keystroke_o	o	n/a
64.4655	0.106	128931	keystroke_w	w	n/a
64.616	0.09	129232	keystroke_l	l	n/a
64.9455	0.12	129891	keystroke_i	i	n/a
65.036	0.0895	130072	keystroke_n	n	n/a
65.1405	0.06	130281	keystroke_g	g	n/a
65.2905	0.1055	130581	keystroke_Key.enter	Key.enter	n/a
65.4025	27.3095	130805	prompt	n/a	monitors equilibrium scotland elite\n
66.056	0.075	132112	keystroke_m	m	n/a
66.236	0.09	132472	keystroke_o	o	n/a
66.4155	0.075	132831	keystroke_n	n	n/a
66.596	0.089	133192	keystroke_i	i	n/a
66.851	0.089	133702	keystroke_t	t	n/a
66.971	0.089	133942	keystroke_o	o	n/a
67.106	0.12	134212	keystroke_r	r	n/a
67.226	0.15	134452	keystroke_s	s	n/a
67.361	0.09	134722	keystroke_Key.space	Key.space	n/a
68.351	0.105	136702	keystroke_r	r	n/a
68.9055	0.0755	137811	keystroke_Key.backspace	Key.backspace	n/a
69.0855	0.12	138171	keystroke_e	e	n/a
69.176	0.1055	138352	keystroke_q	q	n/a
69.4315	0.074	138863	keystroke_u	u	n/a
69.6115	0.074	139223	keystroke_i	i	n/a
69.8065	0.059	139613	keystroke_l	l	n/a
69.9265	0.0745	139853	keystroke_l	l	n/a
70.1355	0.0755	140271	keystroke_i	i	n/a
70.5705	0.06	141141	keystroke_b	b	n/a
71.246	0.0905	142492	keystroke_r	r	n/a
71.3365	0.0895	142673	keystroke_i	i	n/a
71.56	0.076	143120	keystroke_u	u	n/a
71.771	0.09	143542	keystroke_m	m	n/a
71.876	0.09	143752	keystroke_Key.space	Key.space	n/a
72.205	0.091	144410	keystroke_s	s	n/a
72.401	0.0895	144802	keystroke_c	c	n/a
72.5365	0.089	145073	keystroke_o	o	n/a
72.716	0.075	145432	keystroke_t	t	n/a
73.0305	0.0755	146061	keystroke_l	l	n/a
73.1815	0.0895	146363	keystroke_a	a	n/a
73.346	0.075	146692	keystroke_n	n	n/a
73.541	0.105	147082	keystroke_d	d	n/a
78.8835	0.0275	157767	keystroke_e	e	n/a
79.2265	0.089	158453	keystroke_l	l	n/a
79.4365	0.06	158873	keystroke_i	i	n/a
79.4805	0.1505	158961	keystroke_t	t	n/a
79.661	0.1355	159322	keystroke_e	e	n/a
80.7415	0.089	161483	keystroke_Key.backspace	Key.backspace	n/a
80.8905	0.075	161781	keystroke_Key.backspace	Key.backspace	n/a
81.0415	0.059	162083	keystroke_Key.backspace	Key.backspace	n/a
81.1905	0.075	162381	keystroke_Key.backspace	Key.backspace	n/a
81.3555	0.076	162711	keystroke_Key.backspace	Key.backspace	n/a
81.5965	0.105	163193	keystroke_Key.space	Key.space	n/a
81.8665	0.12	163733	keystroke_e	e	n/a
81.9715	0.09	163943	keystroke_l	l	n/a
82.2105	0.076	164421	keystroke_i	i	n/a
82.3165	0.195	164633	keystroke_t	t	n/a
82.466	0.135	164932	keystroke_e	e	n/a
87.2975	0.001	174595	keystroke_Key.backspace	Key.backspace	n/a
87.4015	0.044	174803	keystroke_Key.backspace	Key.backspace	n/a
87.5505	0.045	175101	keystroke_Key.backspace	Key.backspace	n/a
88.6165	0.044	177233	keystroke_i	i	n/a
88.886	0.0905	177772	keystroke_b	b	n/a
89.081	0.105	178162	keystroke_r	r	n/a
89.201	0.0745	178402	keystroke_i	i	n/a
89.441	0.0755	178882	keystroke_u	u	n/a
89.696	0.0905	179392	keystroke_m	m	n/a
89.801	0.1045	179602	keystroke_Key.space	Key.space	n/a
90.2065	0.105	180413	keystroke_s	s	n/a
90.416	0.0905	180832	keystroke_c	c	n/a
90.551	0.0755	181102	keystroke_o	o	n/a
90.731	0.06	181462	keystroke_t	t	n/a
90.911	0.075	181822	keystroke_l	l	n/a
91.0015	0.1045	182003	keystroke_a	a	n/a
91.166	0.075	182332	keystroke_n	n	n/a
91.226	0.105	182452	keystroke_d	d	n/a
91.3155	0.135	182631	keystroke_Key.space	Key.space	n/a
91.4665	0.105	182933	keystroke_e	e	n/a
91.8565	0.0895	183713	keystroke_l	l	n/a
92.096	0.09	184192	keystroke_i	i	n/a
92.201	0.1655	184402	keystroke_t	t	n/a
92.3955	0.1505	184791	keystroke_e	e	n/a
92.6055	0.1055	185211	keystroke_Key.enter	Key.enter	n/a
92.7165	6.266	185433	prompt	n/a	beta marked quit delivering\n
93.371	0.09	186742	keystroke_b	b	n/a
93.4465	0.105	186893	keystroke_e	e	n/a
93.6565	0.105	187313	keystroke_t	t	n/a
93.8065	0.135	187613	keystroke_a	a	n/a
93.9565	0.1045	187913	keystroke_Key.space	Key.space	n/a
94.1965	0.105	188393	keystroke_m	m	n/a
94.6165	0.0295	189233	keystroke_a	a	n/a
94.691	0.105	189382	keystroke_r	r	n/a
94.9615	0.1345	189923	keystroke_k	k	n/a
95.291	0.1055	190582	keystroke_e	e	n/a
95.516	0.12	191032	keystroke_d	d	n/a
95.621	0.105	191242	keystroke_Key.space	Key.space	n/a
96.1605	0.106	192321	keystroke_q	q	n/a
96.2815	0.09	192563	keystroke_u	u	n/a
96.491	0.0905	192982	keystroke_i	i	n/a
96.6115	0.12	193223	keystroke_t	t	n/a
96.701	0.1195	193402	keystroke_Key.space	Key.space	n/a
97.1805	0.075	194361	keystroke_d	d	n/a
97.376	0.09	194752	keystroke_e	e	n/a
97.406	0.0755	194812	keystroke_l	l	n/a
97.631	0.075	195262	keystroke_i	i	n/a
97.946	0.09	195892	keystroke_v	v	n/a
98.216	0.135	196432	keystroke_e	e	n/a
98.3215	0.0895	196643	keystroke_r	r	n/a
98.501	0.12	197002	keystroke_i	i	n/a
98.591	0.1055	197182	keystroke_n	n	n/a
98.7115	0.074	197423	keystroke_g	g	n/a
98.8915	0.09	197783	keystroke_Key.enter	Key.enter	n/a
98.988	6.925	197976	prompt	n/a	rice qatar sodium spatial\n
99.5665	0.09	199133	keystroke_r	r	n/a
99.6865	0.09	199373	keystroke_i	i	n/a
99.8065	0.075	199613	keystroke_c	c	n/a
99.9865	0.0895	199973	keystroke_e	e	n/a
100.061	0.12	200122	keystroke_Key.space	Key.space	n/a
100.751	0.1055	201502	keystroke_q	q	n/a
101.036	0.135	202072	keystroke_a	a	n/a
101.5765	0.075	203153	keystroke_t	t	n/a
101.7565	0.15	203513	keystroke_a	a	n/a
101.9665	0.12	203933	keystroke_r	r	n/a
102.1155	0.121	204231	keystroke_Key.space	Key.space	n/a
102.6265	0.1045	205253	keystroke_s	s	n/a
102.8365	0.0895	205673	keystroke_o	o	n/a
103.197	0.119	206394	keystroke_d	d	n/a
103.4055	0.091	206811	keystroke_i	i	n/a
103.6455	0.0755	207291	keystroke_u	u	n/a
103.8565	0.105	207713	keystroke_m	m	n/a
103.9305	0.1205	207861	keystroke_Key.space	Key.space	n/a
104.4115	0.09	208823	keystroke_s	s	n/a
104.5465	0.12	209093	keystroke_p	p	n/a
104.6965	0.105	209393	keystroke_a	a	n/a
105.2515	0.075	210503	keystroke_t	t	n/a
105.3565	0.089	210713	keystroke_i	i	n/a
105.5065	0.0745	211013	keystroke_a	a	n/a
105.626	0.0905	211252	keystroke_l	l	n/a
105.8215	0.09	211643	keystroke_Key.enter	Key.enter	n/a
105.9175	6.715	211835	prompt	n/a	nicholas laws knit cams\n
106.631	0.0595	213262	keystroke_n	n	n/a
107.0065	0.09	214013	keystroke_o	o	n/a
107.3805	0.06	214761	keystroke_Key.backspace	Key.backspace	n/a
107.711	0.09	215422	keystroke_c	c	n/a
108.341	0.075	216682	keystroke_Key.backspace	Key.backspace	n/a
108.5965	0.0895	217193	keystroke_i	i	n/a
108.7315	0.0895	217463	keystroke_c	c	n/a
108.836	0.09	217672	keystroke_h	h	n/a
109.031	0.09	218062	keystroke_o	o	n/a
109.376	0.09	218752	keystroke_l	l	n/a
109.481	0.075	218962	keystroke_a	a	n/a
109.691	0.09	219382	keystroke_s	s	n/a
109.766	0.105	219532	keystroke_Key.space	Key.space	n/a
109.977	0.1035	219954	keystroke_l	l	n/a
110.0955	0.0755	220191	keystroke_a	a	n/a
110.276	0.09	220552	keystroke_w	w	n/a
110.576	0.075	221152	keystroke_s	s	n/a
110.681	0.105	221362	keystroke_Key.space	Key.space	n/a
111.011	0.135	222022	keystroke_k	k	n/a
111.116	0.0905	222232	keystroke_n	n	n/a
111.341	0.0755	222682	keystroke_i	i	n/a
111.4915	0.12	222983	keystroke_t	t	n/a
111.6405	0.106	223281	keystroke_Key.space	Key.space	n/a
112.0765	0.09	224153	keystroke_c	c	n/a
112.1965	0.09	224393	keystroke_a	a	n/a
112.3015	0.0895	224603	keystroke_m	m	n/a
112.4205	0.09	224841	keystroke_s	s	n/a
112.5405	0.0905	225081	keystroke_Key.enter	Key.enter	n/a
112.637	8.4555	225274	prompt	n/a	finals msgid legacy coordinated\n
113.381	0.0905	226762	keystroke_f	f	n/a
113.531	0.0755	227062	keystroke_i	i	n/a
113.5915	0.09	227183	keystroke_n	n	n/a
113.6515	0.0895	227303	keystroke_a	a	n/a
113.8315	0.09	227663	keystroke_l	l	n/a
113.9055	0.09	227811	keystroke_s	s	n/a
113.9665	0.089	227933	keystroke_Key.space	Key.space	n/a
114.206	0.0595	228412	keystroke_m	m	n/a
114.281	0.105	228562	keystroke_s	s	n/a
114.7155	0.0905	229431	keystroke_g	g	n/a
115.8555	0.09	231711	keystroke_i	i	n/a
115.9905	0.12	231981	keystroke_d	d	n/a
116.246	0.0895	232492	keystroke_Key.space	Key.space	n/a
117.0565	0.1045	234113	keystroke_l	l	n/a
117.206	0.105	234412	keystroke_e	e	n/a
117.401	0.105	234802	keystroke_g	g	n/a
117.536	0.1055	235072	keystroke_a	a	n/a
117.8355	0.09	235671	keystroke_c	c	n/a
118.0315	0.0595	236063	keystroke_y	y	n/a
118.136	0.09	236272	keystroke_Key.space	Key.space	n/a
119.2155	0.0305	238431	keystroke_c	c	n/a
119.3965	0.105	238793	keystroke_o	o	n/a
119.5615	0.09	239123	keystroke_o	o	n/a
119.6955	0.091	239391	keystroke_r	r	n/a
120.0265	0.09	240053	keystroke_d	d	n/a
120.1465	0.104	240293	keystroke_i	i	n/a
120.2215	0.09	240443	keystroke_n	n	n/a
120.3265	0.09	240653	keystroke_a	a	n/a
120.536	0.09	241072	keystroke_t	t	n/a
120.671	0.075	241342	keystroke_e	e	n/a
120.8665	0.0895	241733	keystroke_d	d	n/a
121.016	0.075	242032	keystroke_Key.enter	Key.enter	n/a
121.0965	6.5505	242193	prompt	n/a	excel salvador windows unknown\n
121.7965	0.075	243593	keystroke_e	e	n/a
122.021	0.09	244042	keystroke_x	x	n/a
122.1865	0.1045	244373	keystroke_c	c	n/a
122.411	0.0905	244822	keystroke_e	e	n/a
122.5615	0.0895	245123	keystroke_l	l	n/a
122.666	0.0905	245332	keystroke_Key.space	Key.space	n/a
123.011	0.075	246022	keystroke_s	s	n/a
123.3715	0.074	246743	keystroke_a	a	n/a
123.491	0.1055	246982	keystroke_l	l	n/a
123.792	0.0745	247584	keystroke_v	v	n/a
124.0005	0.1205	248001	keystroke_a	a	n/a
124.301	0.1195	248602	keystroke_d	d	n/a
124.481	0.09	248962	keystroke_o	o	n/a
124.6165	0.1195	249233	keystroke_r	r	n/a
124.706	0.105	249412	keystroke_Key.space	Key.space	n/a
125.141	0.0455	250282	keystroke_w	w	n/a
125.231	0.135	250462	keystroke_i	i	n/a
125.321	0.0895	250642	keystroke_n	n	n/a
125.5455	0.09	251091	keystroke_d	d	n/a
125.8015	0.059	251603	keystroke_o	o	n/a
125.9055	0.0905	251811	keystroke_w	w	n/a
126.1455	0.105	252291	keystroke_s	s	n/a
126.2655	0.1205	252531	keystroke_Key.space	Key.space	n/a
126.506	0.1195	253012	keystroke_u	u	n/a
126.5955	0.075	253191	keystroke_n	n	n/a
126.8515	0.119	253703	keystroke_k	k	n/a
126.9405	0.061	253881	keystroke_n	n	n/a
127.1655	0.061	254331	keystroke_o	o	n/a
127.2405	0.106	254481	keystroke_w	w	n/a
127.3605	0.0755	254721	keystroke_n	n	n/a
127.5555	0.0905	255111	keystroke_Key.enter	Key.enter	n/a
127.65	8.457	255300	prompt	n/a	upgrades defence gnome manga\n
128.726	0.0905	257452	keystroke_u	u	n/a
128.996	0.0905	257992	keystroke_p	p	n/a
129.2965	0.0595	258593	keystroke_g	g	n/a
129.506	0.09	259012	keystroke_r	r	n/a
129.626	0.1205	259252	keystroke_a	a	n/a
129.821	0.09	259642	keystroke_d	d	n/a
130.2115	0.134	260423	keystroke_e	e	n/a
130.7055	0.091	261411	keystroke_s	s	n/a
130.8255	0.105	261651	keystroke_Key.space	Key.space	n/a
131.1715	0.075	262343	keystroke_d	d	n/a
131.3515	0.105	262703	keystroke_e	e	n/a
132.1765	0.09	264353	keystroke_f	f	n/a
132.3705	0.1055	264741	keystroke_e	e	n/a
132.491	0.09	264982	keystroke_n	n	n/a
132.7015	0.09	265403	keystroke_c	c	n/a
132.941	0.105	265882	keystroke_e	e	n/a
133.031	0.1055	266062	keystroke_Key.space	Key.space	n/a
133.5115	0.0895	267023	keystroke_g	g	n/a
133.751	0.0755	267502	keystroke_n	n	n/a
134.3215	0.075	268643	keystroke_o	o	n/a
134.576	0.09	269152	keystroke_m	m	n/a
134.6965	0.104	269393	keystroke_e	e	n/a
134.786	0.0895	269572	keystroke_Key.space	Key.space	n/a
134.981	0.075	269962	keystroke_m	m	n/a
135.101	0.1045	270202	keystroke_a	a	n/a
135.221	0.075	270442	keystroke_n	n	n/a
135.3865	0.06	270773	keystroke_g	g	n/a
135.6265	0.0745	271253	keystroke_a	a	n/a
136.016	0.09	272032	keystroke_Key.enter	Key.enter	n/a
136.112	7.016	272224	prompt	n/a	mazda speaker html toolkit\n
136.841	0.0895	273682	keystroke_m	m	n/a
136.916	0.09	273832	keystroke_a	a	n/a
137.2605	0.106	274521	keystroke_x	x	n/a
137.9065	0.0895	275813	keystroke_Key.backspace	Key.backspace	n/a
138.3255	0.1205	276651	keystroke_z	z	n/a
138.866	0.135	277732	keystroke_d	d	n/a
139.001	0.105	278002	keystroke_a	a	n/a
139.166	0.09	278332	keystroke_Key.space	Key.space	n/a
139.526	0.0605	279052	keystroke_s	s	n/a
139.601	0.09	279202	keystroke_p	p	n/a
139.751	0.135	279502	keystroke_e	e	n/a
139.871	0.105	279742	keystroke_a	a	n/a
140.021	0.09	280042	keystroke_k	k	n/a
140.156	0.1205	280312	keystroke_e	e	n/a
140.261	0.1205	280522	keystroke_r	r	n/a
140.351	0.09	280702	keystroke_Key.space	Key.space	n/a
140.711	0.0755	281422	keystroke_h	h	n/a
140.9515	0.09	281903	keystroke_t	t	n/a
141.1765	0.075	282353	keystroke_m	m	n/a
141.4165	0.0895	282833	keystroke_l	l	n/a
141.58	0.091	283160	keystroke_Key.space	Key.space	n/a
141.9565	0.09	283913	keystroke_t	t	n/a
142.0465	0.0745	284093	keystroke_o	o	n/a
142.1815	0.075	284363	keystroke_o	o	n/a
142.3615	0.0895	284723	keystroke_l	l	n/a
142.6165	0.0745	285233	keystroke_k	k	n/a
142.781	0.0755	285562	keystroke_i	i	n/a
142.886	0.1055	285772	keystroke_t	t	n/a
143.036	0.09	286072	keystroke_Key.enter	Key.enter	n/a
143.133	6.3845	286266	prompt	n/a	mission inexpensive prot behalf\n
143.7565	0.0595	287513	keystroke_m	m	n/a
143.906	0.0605	287812	keystroke_i	i	n/a
143.951	0.075	287902	keystroke_s	s	n/a
144.101	0.0905	288202	keystroke_s	s	n/a
144.206	0.075	288412	keystroke_i	i	n/a
144.416	0.06	288832	keystroke_o	o	n/a
144.461	0.105	288922	keystroke_n	n	n/a
144.596	0.105	289192	keystroke_Key.space	Key.space	n/a
144.926	0.1205	289852	keystroke_i	i	n/a
145.016	0.1045	290032	keystroke_n	n	n/a
145.2865	0.0745	290573	keystroke_e	e	n/a
145.526	0.075	291052	keystroke_x	x	n/a
145.676	0.075	291352	keystroke_p	p	n/a
145.856	0.045	291712	keystroke_e	e	n/a
145.9165	0.0895	291833	keystroke_n	n	n/a
146.216	0.105	292432	keystroke_s	s	n/a
146.456	0.075	292912	keystroke_i	i	n/a
146.606	0.09	293212	keystroke_v	v	n/a
146.8465	0.09	293693	keystroke_e	e	n/a
146.891	0.12	293782	keystroke_Key.space	Key.space	n/a
147.131	0.06	294262	keystroke_p	p	n/a
147.266	0.09	294532	keystroke_r	r	n/a
147.3865	0.074	294773	keystroke_o	o	n/a
147.5665	0.0885	295133	keystroke_t	t	n/a
147.64	0.121	295280	keystroke_Key.space	Key.space	n/a
148.076	0.0755	296152	keystroke_b	b	n/a
148.196	0.105	296392	keystroke_e	e	n/a
148.676	0.09	297352	keystroke_h	h	n/a
148.931	0.105	297862	keystroke_a	a	n/a
149.126	0.12	298252	keystroke_l	l	n/a
149.231	0.09	298462	keystroke_f	f	n/a
149.44	0.075	298880	keystroke_Key.enter	Key.enter	n/a
149.522	7.856	299044	prompt	n/a	neighbor funds investigation super\n
150.1605	0.09	300321	keystroke_n	n	n/a
150.265	0.061	300530	keystroke_e	e	n/a
150.4165	0.0285	300833	keystroke_i	i	n/a
150.4905	0.075	300981	keystroke_g	g	n/a
150.6865	0.0595	301373	keystroke_h	h	n/a
151.2565	0.0745	302513	keystroke_b	b	n/a
151.526	0.0895	303052	keystroke_o	o	n/a
151.691	0.12	303382	keystroke_r	r	n/a
151.796	0.105	303592	keystroke_Key.space	Key.space	n/a
152.096	0.0755	304192	keystroke_f	f	n/a
152.276	0.105	304552	keystroke_u	u	n/a
152.351	0.09	304702	keystroke_n	n	n/a
152.756	0.09	305512	keystroke_d	d	n/a
152.996	0.135	305992	keystroke_s	s	n/a
153.086	0.09	306172	keystroke_Key.space	Key.space	n/a
153.3565	0.12	306713	keystroke_i	i	n/a
153.491	0.075	306982	keystroke_n	n	n/a
153.671	0.0895	307342	keystroke_v	v	n/a
153.9565	0.135	307913	keystroke_e	e	n/a
154.0615	0.119	308123	keystroke_s	s	n/a
154.2265	0.104	308453	keystroke_t	t	n/a
154.3905	0.09	308781	keystroke_i	i	n/a
154.586	0.0745	309172	keystroke_a	a	n/a
155.0355	0.0755	310071	keystroke_Key.backspace	Key.backspace	n/a
155.6215	0.0745	311243	keystroke_g	g	n/a
155.741	0.1045	311482	keystroke_a	a	n/a
155.9815	0.0595	311963	keystroke_t	t	n/a
156.101	0.074	312202	keystroke_i	i	n/a
156.2965	0.0895	312593	keystroke_o	o	n/a
156.371	0.0905	312742	keystroke_n	n	n/a
156.4455	0.1055	312891	keystroke_Key.space	Key.space	n/a
156.596	0.0905	313192	keystroke_s	s	n/a
156.701	0.09	313402	keystroke_u	u	n/a
156.941	0.105	313882	keystroke_p	p	n/a
157.0155	0.135	314031	keystroke_e	e	n/a
157.121	0.0895	314242	keystroke_r	r	n/a
157.2705	0.1055	314541	keystroke_Key.enter	Key.enter	n/a
157.383	6.3125	314766	prompt	n/a	check agreement poet africa\n
158.006	0.0905	316012	keystroke_c	c	n/a
158.141	0.0745	316282	keystroke_h	h	n/a
158.2455	0.075	316491	keystroke_e	e	n/a
158.4555	0.106	316911	keystroke_c	c	n/a
158.576	0.06	317152	keystroke_k	k	n/a
158.651	0.0895	317302	keystroke_Key.space	Key.space	n/a
158.9965	0.1195	317993	keystroke_a	a	n/a
159.1755	0.0905	318351	keystroke_g	g	n/a
159.3705	0.09	318741	keystroke_r	r	n/a
159.596	0.0605	319192	keystroke_e	e	n/a
159.716	0.0745	319432	keystroke_e	e	n/a
159.8505	0.076	319701	keystroke_m	m	n/a
159.9405	0.0755	319881	keystroke_e	e	n/a
160.046	0.06	320092	keystroke_n	n	n/a
160.211	0.075	320422	keystroke_t	t	n/a
160.301	0.09	320602	keystroke_Key.space	Key.space	n/a
160.721	0.076	321442	keystroke_p	p	n/a
161.396	0.075	322792	keystroke_o	o	n/a
161.531	0.105	323062	keystroke_e	e	n/a
161.756	0.105	323512	keystroke_t	t	n/a
161.831	0.12	323662	keystroke_Key.space	Key.space	n/a
162.311	0.09	324622	keystroke_a	a	n/a
162.431	0.1055	324862	keystroke_f	f	n/a
162.6555	0.075	325311	keystroke_r	r	n/a
162.806	0.06	325612	keystroke_i	i	n/a
162.941	0.1055	325882	keystroke_a	a	n/a
163.316	0.09	326632	keystroke_Key.backspace	Key.backspace	n/a
163.391	0.0895	326782	keystroke_c	c	n/a
163.526	0.09	327052	keystroke_a	a	n/a
163.6305	0.06	327261	keystroke_Key.enter	Key.enter	n/a
163.702	8.046	327404	prompt	n/a	xhtml they'd preservation printing\n
164.651	0.135	329302	keystroke_x	x	n/a
165.04	0.076	330080	keystroke_h	h	n/a
165.5665	0.0895	331133	keystroke_t	t	n/a
165.8965	0.0885	331793	keystroke_m	m	n/a
166.1505	0.0905	332301	keystroke_l	l	n/a
166.361	0.0895	332722	keystroke_Key.space	Key.space	n/a
166.5865	0.0595	333173	keystroke_t	t	n/a
166.7515	0.089	333503	keystroke_h	h	n/a
166.9615	0.0745	333923	keystroke_e	e	n/a
167.141	0.075	334282	keystroke_y	y	n/a
167.441	0.105	334882	keystroke_'	'	n/a
167.711	0.134	335422	keystroke_d	d	n/a
168.131	0.1195	336262	keystroke_Key.space	Key.space	n/a
168.506	0.0745	337012	keystroke_e	e	n/a
168.806	0.0745	337612	keystroke_Key.backspace	Key.backspace	n/a
169.031	0.105	338062	keystroke_p	p	n/a
169.1055	0.1205	338211	keystroke_r	r	n/a
169.196	0.1345	338392	keystroke_e	e	n/a
169.3455	0.105	338691	keystroke_s	s	n/a
169.5255	0.1055	339051	keystroke_e	e	n/a
169.661	0.09	339322	keystroke_r	r	n/a
169.916	0.09	339832	keystroke_v	v	n/a
170.066	0.075	340132	keystroke_a	a	n/a
170.261	0.075	340522	keystroke_t	t	n/a
170.351	0.075	340702	keystroke_i	i	n/a
170.5015	0.12	341003	keystroke_o	o	n/a
170.5915	0.09	341183	keystroke_n	n	n/a
170.6505	0.09	341301	keystroke_Key.space	Key.space	n/a
170.8155	0.091	341631	keystroke_p	p	n/a
170.936	0.0905	341872	keystroke_r	r	n/a
171.071	0.12	342142	keystroke_i	i	n/a
171.1455	0.0905	342291	keystroke_n	n	n/a
171.2655	0.075	342531	keystroke_t	t	n/a
171.3565	0.105	342713	keystroke_i	i	n/a
171.4315	0.089	342863	keystroke_n	n	n/a
171.5505	0.075	343101	keystroke_g	g	n/a
171.6555	0.09	343311	keystroke_Key.enter	Key.enter	n/a
171.7515	21.536	343503	prompt	n/a	palestine monte substantially customize\n
172.4205	0.0755	344841	keystroke_p	p	n/a
172.541	0.1195	345082	keystroke_a	a	n/a
172.676	0.1045	345352	keystroke_l	l	n/a
172.826	0.1355	345652	keystroke_e	e	n/a
172.946	0.09	345892	keystroke_s	s	n/a
173.126	0.0895	346252	keystroke_t	t	n/a
173.2605	0.1355	346521	keystroke_i	i	n/a
173.381	0.0595	346762	keystroke_n	n	n/a
173.426	0.105	346852	keystroke_e	e	n/a
173.5155	0.1055	347031	keystroke_Key.space	Key.space	n/a
173.7865	0.0595	347573	keystroke_m	m	n/a
173.936	0.135	347872	keystroke_o	o	n/a
174.056	0.12	348112	keystroke_n	n	n/a
174.1615	0.1345	348323	keystroke_t	t	n/a
174.311	0.12	348622	keystroke_e	e	n/a
174.416	0.105	348832	keystroke_Key.space	Key.space	n/a
174.971	0.1355	349942	keystroke_s	s	n/a
175.181	0.0905	350362	keystroke_u	u	n/a
175.2255	0.105	350451	keystroke_b	b	n/a
175.3155	0.09	350631	keystroke_s	s	n/a
175.5715	0.074	351143	keystroke_t	t	n/a
175.6905	0.121	351381	keystroke_a	a	n/a
175.8855	0.1205	351771	keystroke_i	i	n/a
175.976	0.09	351952	keystroke_n	n	n/a
176.4115	0.0745	352823	keystroke_t	t	n/a
176.501	0.0755	353002	keystroke_i	i	n/a
176.5915	0.1045	353183	keystroke_a	a	n/a
176.741	0.075	353482	keystroke_l	l	n/a
176.876	0.0755	353752	keystroke_l	l	n/a
176.966	0.105	353932	keystroke_y	y	n/a
177.041	0.105	354082	keystroke_Key.space	Key.space	n/a
177.371	0.105	354742	keystroke_c	c	n/a
177.581	0.06	355162	keystroke_u	u	n/a
177.6865	0.0735	355373	keystroke_s	s	n/a
178.15	0.075	356300	keystroke_Key.backspace	Key.backspace	n/a
178.3005	0.0605	356601	keystroke_Key.backspace	Key.backspace	n/a
178.45	0.045	356900	keystroke_Key.backspace	Key.backspace	n/a
178.571	0.06	357142	keystroke_Key.backspace	Key.backspace	n/a
178.706	0.074	357412	keystroke_Key.backspace	Key.backspace	n/a
178.841	0.075	357682	keystroke_Key.backspace	Key.backspace	n/a
178.991	0.06	357982	keystroke_Key.backspace	Key.backspace	n/a
179.1255	0.075	358251	keystroke_Key.backspace	Key.backspace	n/a
179.351	0.06	358702	keystroke_Key.backspace	Key.backspace	n/a
179.5905	0.0755	359181	keystroke_Key.backspace	Key.backspace	n/a
180.056	0.075	360112	keystroke_t	t	n/a
180.146	0.09	360292	keystroke_i	i	n/a
180.266	0.0905	360532	keystroke_a	a	n/a
180.686	0.09	361372	keystroke_l	l	n/a
181.046	0.105	362092	keystroke_y	y	n/a
181.136	0.12	362272	keystroke_Key.space	Key.space	n/a
185.157	0.001	370314	keystroke_Key.backspace	Key.backspace	n/a
185.231	0.06	370462	keystroke_Key.backspace	Key.backspace	n/a
185.381	0.06	370762	keystroke_Key.backspace	Key.backspace	n/a
185.531	0.074	371062	keystroke_Key.backspace	Key.backspace	n/a
185.665	0.075	371330	keystroke_Key.backspace	Key.backspace	n/a
185.816	0.06	371632	keystroke_Key.backspace	Key.backspace	n/a
185.951	0.0595	371902	keystroke_Key.backspace	Key.backspace	n/a
186.0705	0.075	372141	keystroke_Key.backspace	Key.backspace	n/a
186.3855	0.075	372771	keystroke_n	n	n/a
186.7155	0.075	373431	keystroke_t	t	n/a
186.8205	0.075	373641	keystroke_i	i	n/a
186.9705	0.12	373941	keystroke_a	a	n/a
187.1805	0.0905	374361	keystroke_l	l	n/a
187.376	0.105	374752	keystroke_y	y	n/a
187.496	0.09	374992	keystroke_Key.space	Key.space	n/a
189.0105	0.0755	378021	keystroke_Key.backspace	Key.backspace	n/a
189.1605	0.0595	378321	keystroke_Key.backspace	Key.backspace	n/a
189.476	0.0445	378952	keystroke_Key.backspace	Key.backspace	n/a
189.8665	0.074	379733	keystroke_l	l	n/a
190.0005	0.0755	380001	keystroke_l	l	n/a
190.091	0.12	380182	keystroke_u	u	n/a
190.2555	0.12	380511	keystroke_Key.space	Key.space	n/a
190.8555	0.0605	381711	keystroke_Key.backspace	Key.backspace	n/a
190.9755	0.09	381951	keystroke_Key.backspace	Key.backspace	n/a
191.1555	0.12	382311	keystroke_y	y	n/a
191.2455	0.105	382491	keystroke_Key.space	Key.space	n/a
191.6505	0.09	383301	keystroke_c	c	n/a
191.846	0.0745	383692	keystroke_u	u	n/a
191.9355	0.076	383871	keystroke_s	s	n/a
192.1315	0.074	384263	keystroke_t	t	n/a
192.251	0.1195	384502	keystroke_o	o	n/a
192.3555	0.075	384711	keystroke_m	m	n/a
192.6705	0.0755	385341	keystroke_i	i	n/a
192.7905	0.0905	385581	keystroke_z	z	n/a
193.0455	0.1055	386091	keystroke_e	e	n/a
193.2105	0.075	386421	keystroke_Key.enter	Key.enter	n/a
193.292	5.8605	386584	prompt	n/a	judicial graph worldwide remained\n
194.0215	0.045	388043	keystroke_j	j	n/a
194.141	0.0745	388282	keystroke_u	u	n/a
194.2765	0.0895	388553	keystroke_d	d	n/a
194.426	0.0755	388852	keystroke_i	i	n/a
194.531	0.105	389062	keystroke_c	c	n/a
194.6805	0.075	389361	keystroke_i	i	n/a
194.7865	0.089	389573	keystroke_a	a	n/a
194.9205	0.09	389841	keystroke_l	l	n/a
195.0405	0.09	390081	keystroke_Key.space	Key.space	n/a
195.311	0.0745	390622	keystroke_g	g	n/a
195.4605	0.15	390921	keystroke_r	r	n/a
195.6255	0.1055	391251	keystroke_a	a	n/a
195.7005	0.075	391401	keystroke_p	p	n/a
195.956	0.09	391912	keystroke_h	h	n/a
196.091	0.09	392182	keystroke_Key.space	Key.space	n/a
196.5105	0.09	393021	keystroke_w	w	n/a
196.6165	0.074	393233	keystroke_o	o	n/a
196.7205	0.076	393441	keystroke_r	r	n/a
196.8705	0.091	393741	keystroke_l	l	n/a
197.0055	0.06	394011	keystroke_d	d	n/a
197.2305	0.1055	394461	keystroke_w	w	n/a
197.366	0.075	394732	keystroke_i	i	n/a
197.47	0.0915	394940	keystroke_d	d	n/a
197.666	0.09	395332	keystroke_e	e	n/a
197.711	0.119	395422	keystroke_Key.space	Key.space	n/a
197.9215	0.135	395843	keystroke_r	r	n/a
198.041	0.09	396082	keystroke_e	e	n/a
198.191	0.105	396382	keystroke_m	m	n/a
198.341	0.105	396682	keystroke_a	a	n/a
198.521	0.135	397042	keystroke_i	i	n/a
198.626	0.09	397252	keystroke_n	n	n/a
198.731	0.0605	397462	keystroke_e	e	n/a
198.941	0.09	397882	keystroke_d	d	n/a
199.076	0.075	398152	keystroke_Key.enter	Key.enter	n/a
199.1555	8.112	398311	prompt	n/a	andorra actress ethical paid\n
199.781	0.105	399562	keystroke_a	a	n/a
199.916	0.075	399832	keystroke_n	n	n/a
200.006	0.06	400012	keystroke_d	d	n/a
200.186	0.0755	400372	keystroke_r	r	n/a
200.3515	0.0895	400703	keystroke_o	o	n/a
200.9665	0.0585	401933	keystroke_Key.backspace	Key.backspace	n/a
201.341	0.075	402682	keystroke_Key.backspace	Key.backspace	n/a
201.5965	0.0745	403193	keystroke_o	o	n/a
201.731	0.044	403462	keystroke_r	r	n/a
201.865	0.076	403730	keystroke_r	r	n/a
202.106	0.0905	404212	keystroke_a	a	n/a
202.1965	0.1045	404393	keystroke_Key.space	Key.space	n/a
202.676	0.0905	405352	keystroke_a	a	n/a
202.886	0.09	405772	keystroke_c	c	n/a
203.231	0.12	406462	keystroke_t	t	n/a
203.381	0.1205	406762	keystroke_r	r	n/a
203.9955	0.075	407991	keystroke_e	e	n/a
204.1905	0.076	408381	keystroke_s	s	n/a
204.3705	0.076	408741	keystroke_s	s	n/a
204.476	0.105	408952	keystroke_Key.space	Key.space	n/a
204.8215	0.09	409643	keystroke_t	t	n/a
205.1355	0.09	410271	keystroke_Key.backspace	Key.backspace	n/a
205.2405	0.09	410481	keystroke_e	e	n/a
205.3755	0.091	410751	keystroke_t	t	n/a
205.4965	0.059	410993	keystroke_h	h	n/a
205.721	0.0745	411442	keystroke_i	i	n/a
205.9	0.0755	411800	keystroke_c	c	n/a
206.1255	0.09	412251	keystroke_a	a	n/a
206.246	0.0905	412492	keystroke_l	l	n/a
206.3805	0.1055	412761	keystroke_Key.space	Key.space	n/a
206.6505	0.09	413301	keystroke_p	p	n/a
206.7715	0.089	413543	keystroke_a	a	n/a
206.936	0.075	413872	keystroke_i	i	n/a
207.041	0.0745	414082	keystroke_d	d	n/a
207.1755	0.09	414351	keystroke_Key.enter	Key.enter	n/a
207.271	7.3465	414542	prompt	n/a	jpeg salt representing pacific\n
208.1965	0.09	416393	keystroke_j	j	n/a
209.2315	0.09	418463	keystroke_p	p	n/a
209.3665	0.0895	418733	keystroke_e	e	n/a
209.621	0.075	419242	keystroke_g	g	n/a
209.756	0.105	419512	keystroke_Key.space	Key.space	n/a
210.281	0.0455	420562	keystroke_s	s	n/a
210.401	0.1045	420802	keystroke_a	a	n/a
210.5355	0.09	421071	keystroke_l	l	n/a
210.686	0.0905	421372	keystroke_t	t	n/a
210.7455	0.105	421491	keystroke_Key.space	Key.space	n/a
210.986	0.0895	421972	keystroke_r	r	n/a
211.0615	0.09	422123	keystroke_e	e	n/a
211.2255	0.09	422451	keystroke_p	p	n/a
211.3605	0.121	422721	keystroke_r	r	n/a
211.451	0.165	422902	keystroke_e	e	n/a
211.616	0.12	423232	keystroke_s	s	n/a
211.781	0.1045	423562	keystroke_e	e	n/a
211.9465	0.075	423893	keystroke_n	n	n/a
212.2165	0.075	424433	keystroke_t	t	n/a
212.4255	0.135	424851	keystroke_i	i	n/a
212.516	0.1045	425032	keystroke_n	n	n/a
212.6515	0.12	425303	keystroke_g	g	n/a
212.7855	0.09	425571	keystroke_Key.space	Key.space	n/a
213.1315	0.0745	426263	keystroke_p	p	n/a
213.1915	0.1045	426383	keystroke_a	a	n/a
213.386	0.0895	426772	keystroke_c	c	n/a
213.5215	0.0595	427043	keystroke_i	i	n/a
213.7605	0.03	427521	keystroke_f	f	n/a
213.7765	0.0895	427553	keystroke_i	i	n/a
214.3315	0.09	428663	keystroke_c	c	n/a
214.5255	0.0905	429051	keystroke_Key.enter	Key.enter	n/a
214.623	7.179	429246	prompt	n/a	cake whilst capabilities ne'er\n
215.336	0.09	430672	keystroke_c	c	n/a
215.531	0.075	431062	keystroke_a	a	n/a
215.6665	0.09	431333	keystroke_k	k	n/a
215.801	0.12	431602	keystroke_e	e	n/a
215.906	0.105	431812	keystroke_Key.space	Key.space	n/a
216.326	0.0895	432652	keystroke_w	w	n/a
216.4455	0.075	432891	keystroke_h	h	n/a
216.626	0.0895	433252	keystroke_i	i	n/a
216.896	0.09	433792	keystroke_l	l	n/a
217.046	0.1045	434092	keystroke_s	s	n/a
217.2705	0.09	434541	keystroke_t	t	n/a
217.346	0.0745	434692	keystroke_Key.space	Key.space	n/a
217.631	0.0895	435262	keystroke_c	c	n/a
217.7655	0.09	435531	keystroke_a	a	n/a
217.886	0.0895	435772	keystroke_p	p	n/a
217.9605	0.075	435921	keystroke_a	a	n/a
218.5005	0.0605	437001	keystroke_b	b	n/a
218.7105	0.0755	437421	keystroke_i	i	n/a
218.921	0.0745	437842	keystroke_l	l	n/a
219.1015	0.074	438203	keystroke_i	i	n/a
219.2065	0.0895	438413	keystroke_t	t	n/a
219.3255	0.09	438651	keystroke_i	i	n/a
219.4315	0.15	438863	keystroke_e	e	n/a
219.566	0.0905	439132	keystroke_s	s	n/a
219.6255	0.135	439251	keystroke_Key.space	Key.space	n/a
219.8515	0.059	439703	keystroke_n	n	n/a
219.9715	0.03	439943	keystroke_e	e	n/a
220.181	0.09	440362	keystroke_'	'	n/a
220.4655	0.1205	440931	keystroke_v	v	n/a
221.1705	0.075	442341	keystroke_Key.backspace	Key.backspace	n/a
221.261	0.09	442522	keystroke_e	e	n/a
221.4415	0.0895	442883	keystroke_r	r	n/a
221.7105	0.09	443421	keystroke_Key.enter	Key.enter	n/a
221.8055	6.298	443611	prompt	n/a	brilliant adds title halo\n
222.4155	0.0905	444831	keystroke_b	b	n/a
222.626	0.12	445252	keystroke_r	r	n/a
222.8365	0.0895	445673	keystroke_i	i	n/a
223.091	0.075	446182	keystroke_l	l	n/a
223.271	0.06	446542	keystroke_l	l	n/a
223.766	0.091	447532	keystroke_i	i	n/a
224.006	0.075	448012	keystroke_a	a	n/a
224.125	0.076	448250	keystroke_n	n	n/a
224.306	0.0755	448612	keystroke_t	t	n/a
224.3655	0.09	448731	keystroke_Key.space	Key.space	n/a
224.711	0.09	449422	keystroke_a	a	n/a
225.07	0.0315	450140	keystroke_d	d	n/a
225.16	0.121	450320	keystroke_d	d	n/a
225.356	0.1195	450712	keystroke_s	s	n/a
225.4765	0.074	450953	keystroke_Key.space	Key.space	n/a
225.7165	0.0745	451433	keystroke_l	l	n/a
226.001	0.074	452002	keystroke_Key.backspace	Key.backspace	n/a
226.136	0.074	452272	keystroke_t	t	n/a
226.2855	0.0755	452571	keystroke_i	i	n/a
226.375	0.105	452750	keystroke_t	t	n/a
226.5855	0.0905	453171	keystroke_l	l	n/a
226.7055	0.106	453411	keystroke_e	e	n/a
226.7965	0.089	453593	keystroke_Key.space	Key.space	n/a
227.2755	0.0605	454551	keystroke_h	h	n/a
227.3955	0.12	454791	keystroke_a	a	n/a
227.6505	0.09	455301	keystroke_l	l	n/a
227.8315	0.089	455663	keystroke_o	o	n/a
228.026	0.075	456052	keystroke_Key.enter	Key.enter	n/a
228.108	9.2345	456216	prompt	n/a	smithsonian papers clothing moderators\n
228.8665	0.09	457733	keystroke_s	s	n/a
229.061	0.075	458122	keystroke_m	m	n/a
229.2555	0.0905	458511	keystroke_o	o	n/a
229.691	0.015	459382	keystroke_Key.backspace	Key.backspace	n/a
229.901	0.0745	459802	keystroke_i	i	n/a
230.0055	0.09	460011	keystroke_t	t	n/a
230.1415	0.059	460283	keystroke_h	h	n/a
230.4855	0.045	460971	keystroke_s	s	n/a
230.5455	0.075	461091	keystroke_o	o	n/a
230.7265	0.075	461453	keystroke_n	n	n/a
230.9205	0.061	461841	keystroke_i	i	n/a
231.056	0.0745	462112	keystroke_a	a	n/a
231.3405	0.0905	462681	keystroke_Key.space	Key.space	n/a
231.5055	0.0455	463011	keystroke_n	n	n/a
232.0305	0.09	464061	keystroke_Key.backspace	Key.backspace	n/a
232.166	0.09	464332	keystroke_Key.backspace	Key.backspace	n/a
232.436	0.0755	464872	keystroke_n	n	n/a
232.5265	0.0895	465053	keystroke_Key.space	Key.space	n/a
232.6905	0.0605	465381	keystroke_p	p	n/a
232.7655	0.106	465531	keystroke_a	a	n/a
232.8565	0.0885	465713	keystroke_p	p	n/a
233.081	0.1195	466162	keystroke_e	e	n/a
233.1855	0.135	466371	keystroke_r	r	n/a
233.4255	0.135	466851	keystroke_s	s	n/a
233.5755	0.105	467151	keystroke_Key.space	Key.space	n/a
234.071	0.135	468142	keystroke_c	c	n/a
234.1915	0.0745	468383	keystroke_l	l	n/a
234.3565	0.0745	468713	keystroke_o	o	n/a
234.4905	0.075	468981	keystroke_t	t	n/a
234.611	0.06	469222	keystroke_h	h	n/a
234.806	0.1055	469612	keystroke_i	i	n/a
234.8815	0.0895	469763	keystroke_n	n	n/a
234.956	0.1045	469912	keystroke_g	g	n/a
235.016	0.15	470032	keystroke_Key.space	Key.space	n/a
235.256	0.0305	470512	keystroke_m	m	n/a
235.4065	0.0745	470813	keystroke_o	o	n/a
235.466	0.1205	470932	keystroke_d	d	n/a
235.871	0.15	471742	keystroke_e	e	n/a
236.036	0.1195	472072	keystroke_r	r	n/a
236.2755	0.09	472551	keystroke_a	a	n/a
236.486	0.075	472972	keystroke_t	t	n/a
236.831	0.09	473662	keystroke_o	o	n/a
236.936	0.15	473872	keystroke_r	r	n/a
237.101	0.12	474202	keystroke_s	s	n/a
237.236	0.105	474472	keystroke_Key.enter	Key.enter	n/a
237.348	5.2145	474696	prompt	n/a	brass thereof modes write\n
238.076	0.0745	476152	keystroke_b	b	n/a
238.1515	0.1195	476303	keystroke_r	r	n/a
238.3015	0.1045	476603	keystroke_a	a	n/a
238.556	0.0595	477112	keystroke_s	s	n/a
238.661	0.1495	477322	keystroke_s	s	n/a
238.946	0.1195	477892	keystroke_Key.space	Key.space	n/a
239.111	0.09	478222	keystroke_t	t	n/a
239.275	0.076	478550	keystroke_h	h	n/a
239.396	0.075	478792	keystroke_e	e	n/a
239.456	0.134	478912	keystroke_r	r	n/a
239.6065	0.09	479213	keystroke_e	e	n/a
240.041	0.0455	480082	keystroke_o	o	n/a
240.146	0.1055	480292	keystroke_f	f	n/a
240.341	0.09	480682	keystroke_Key.space	Key.space	n/a
240.5515	0.0445	481103	keystroke_m	m	n/a
240.701	0.06	481402	keystroke_o	o	n/a
240.746	0.105	481492	keystroke_d	d	n/a
240.941	0.165	481882	keystroke_e	e	n/a
241.121	0.12	482242	keystroke_s	s	n/a
241.211	0.105	482422	keystroke_Key.space	Key.space	n/a
241.5715	0.105	483143	keystroke_w	w	n/a
241.916	0.09	483832	keystroke_r	r	n/a
242.066	0.105	484132	keystroke_i	i	n/a
242.186	0.15	484372	keystroke_t	t	n/a
242.351	0.09	484702	keystroke_e	e	n/a
242.471	0.09	484942	keystroke_Key.enter	Key.enter	n/a
242.5665	9.176	485133	prompt	n/a	murder european footwear breath\n
243.2055	0.075	486411	keystroke_m	m	n/a
243.4305	0.06	486861	keystroke_u	u	n/a
243.6705	0.121	487341	keystroke_d	d	n/a
244.001	0.06	488002	keystroke_e	e	n/a
244.271	0.06	488542	keystroke_Key.backspace	Key.backspace	n/a
244.391	0.1045	488782	keystroke_Key.backspace	Key.backspace	n/a
244.4505	0.09	488901	keystroke_r	r	n/a
244.7805	0.105	489561	keystroke_d	d	n/a
244.9915	0.1045	489983	keystroke_e	e	n/a
245.0805	0.09	490161	keystroke_r	r	n/a
245.1555	0.105	490311	keystroke_Key.space	Key.space	n/a
245.5605	0.105	491121	keystroke_e	e	n/a
245.7105	0.075	491421	keystroke_u	u	n/a
245.9355	0.09	491871	keystroke_r	r	n/a
246.1615	0.09	492323	keystroke_o	o	n/a
246.971	0.105	493942	keystroke_p	p	n/a
247.166	0.0905	494332	keystroke_e	e	n/a
247.6755	0.09	495351	keystroke_a	a	n/a
247.796	0.1045	495592	keystroke_n	n	n/a
247.93	0.0755	495860	keystroke_Key.space	Key.space	n/a
248.1255	0.105	496251	keystroke_f	f	n/a
248.2755	0.06	496551	keystroke_o	o	n/a
248.3965	0.089	496793	keystroke_o	o	n/a
248.546	0.0895	497092	keystroke_t	t	n/a
249.8815	0.149	499763	keystroke_w	w	n/a
250.166	0.12	500332	keystroke_e	e	n/a
250.3315	0.1195	500663	keystroke_a	a	n/a
250.496	0.089	500992	keystroke_r	r	n/a
250.5555	0.1055	501111	keystroke_Key.space	Key.space	n/a
250.751	0.0905	501502	keystroke_b	b	n/a
250.826	0.12	501652	keystroke_r	r	n/a
250.916	0.135	501832	keystroke_e	e	n/a
251.036	0.135	502072	keystroke_a	a	n/a
251.291	0.075	502582	keystroke_t	t	n/a
251.3965	0.09	502793	keystroke_h	h	n/a
251.6805	0.06	503361	keystroke_Key.enter	Key.enter	n/a
251.7505	9.502	503501	prompt	n/a	premises christian despite chrome\n
252.4915	0.09	504983	keystroke_p	p	n/a
252.5505	0.121	505101	keystroke_r	r	n/a
252.6565	0.12	505313	keystroke_e	e	n/a
253.0155	0.09	506031	keystroke_m	m	n/a
253.2115	0.089	506423	keystroke_i	i	n/a
253.2855	0.075	506571	keystroke_s	s	n/a
253.481	0.135	506962	keystroke_e	e	n/a
253.6305	0.135	507261	keystroke_s	s	n/a
253.7665	0.1045	507533	keystroke_Key.space	Key.space	n/a
254.0955	0.091	508191	keystroke_c	c	n/a
254.23	0.076	508460	keystroke_h	h	n/a
254.351	0.09	508702	keystroke_r	r	n/a
254.486	0.135	508972	keystroke_s	s	n/a
254.636	0.0755	509272	keystroke_i	i	n/a
255.04	0.03	510080	keystroke_Key.backspace	Key.backspace	n/a
255.13	0.075	510260	keystroke_Key.backspace	Key.backspace	n/a
255.506	0.06	511012	keystroke_r	r	n/a
255.6415	0.089	511283	keystroke_i	i	n/a
255.9555	0.06	511911	keystroke_Key.backspace	Key.backspace	n/a
256.076	0.0595	512152	keystroke_Key.backspace	Key.backspace	n/a
256.301	0.0745	512602	keystroke_i	i	n/a
256.361	0.0745	512722	keystroke_s	s	n/a
256.571	0.1045	513142	keystroke_t	t	n/a
256.7515	0.15	513503	keystroke_r	r	n/a
257.1255	0.0755	514251	keystroke_i	i	n/a
257.381	0.0595	514762	keystroke_Key.backspace	Key.backspace	n/a
257.4855	0.06	514971	keystroke_Key.backspace	Key.backspace	n/a
257.7255	0.06	515451	keystroke_i	i	n/a
257.801	0.105	515602	keystroke_a	a	n/a
257.921	0.1055	515842	keystroke_n	n	n/a
258.0105	0.105	516021	keystroke_Key.space	Key.space	n/a
258.251	0.1045	516502	keystroke_d	d	n/a
258.461	0.1195	516922	keystroke_e	e	n/a
258.6255	0.136	517251	keystroke_s	s	n/a
259.301	0.0745	518602	keystroke_p	p	n/a
259.541	0.0755	519082	keystroke_i	i	n/a
259.7055	0.106	519411	keystroke_t	t	n/a
259.871	0.075	519742	keystroke_e	e	n/a
259.9305	0.105	519861	keystroke_Key.space	Key.space	n/a
260.2465	0.0745	520493	keystroke_c	c	n/a
260.3655	0.0755	520731	keystroke_h	h	n/a
260.516	0.105	521032	keystroke_r	r	n/a
260.7405	0.1355	521481	keystroke_o	o	n/a
260.8765	0.06	521753	keystroke_m	m	n/a
260.9805	0.0745	521961	keystroke_e	e	n/a
261.1605	0.0905	522321	keystroke_Key.enter	Key.enter	n/a
261.2565	7.331	522513	prompt	n/a	upon unique howard lawrence\n
261.896	0.075	523792	keystroke_u	u	n/a
262.1205	0.0905	524241	keystroke_p	p	n/a
262.346	0.0755	524692	keystroke_o	o	n/a
262.541	0.075	525082	keystroke_n	n	n/a
262.631	0.075	525262	keystroke_Key.space	Key.space	n/a
262.8715	0.0895	525743	keystroke_u	u	n/a
262.9305	0.105	525861	keystroke_n	n	n/a
263.141	0.0895	526282	keystroke_i	i	n/a
263.366	0.06	526732	keystroke_q	q	n/a
263.591	0.0745	527182	keystroke_u	u	n/a
263.9515	0.15	527903	keystroke_e	e	n/a
264.1155	0.0905	528231	keystroke_Key.space	Key.space	n/a
264.596	0.045	529192	keystroke_h	h	n/a
264.716	0.09	529432	keystroke_o	o	n/a
265.136	0.015	530272	keystroke_a	a	n/a
265.196	0.105	530392	keystroke_w	w	n/a
265.481	0.075	530962	keystroke_Key.backspace	Key.backspace	n/a
265.616	0.0745	531232	keystroke_Key.backspace	Key.backspace	n/a
265.6915	0.1495	531383	keystroke_w	w	n/a
265.8105	0.105	531621	keystroke_a	a	n/a
265.991	0.0895	531982	keystroke_r	r	n/a
266.216	0.1195	532432	keystroke_d	d	n/a
266.321	0.09	532642	keystroke_Key.space	Key.space	n/a
266.606	0.1045	533212	keystroke_l	l	n/a
266.7555	0.0755	533511	keystroke_a	a	n/a
266.9355	0.105	533871	keystroke_w	w	n/a
267.5205	0.061	535041	keystroke_r	r	n/a
267.7465	0.12	535493	keystroke_e	e	n/a
267.9705	0.076	535941	keystroke_n	n	n/a
268.106	0.09	536212	keystroke_c	c	n/a
268.3455	0.105	536691	keystroke_e	e	n/a
268.496	0.0895	536992	keystroke_Key.enter	Key.enter	n/a
268.592	10.8255	537184	prompt	n/a	aruba retreat pioneer description\n
269.8015	0.134	539603	keystroke_a	a	n/a
270.0555	0.09	540111	keystroke_r	r	n/a
270.206	0.075	540412	keystroke_u	u	n/a
270.4455	0.0755	540891	keystroke_b	b	n/a
270.776	0.18	541552	keystroke_a	a	n/a
270.971	0.09	541942	keystroke_Key.space	Key.space	n/a
271.211	0.105	542422	keystroke_r	r	n/a
271.301	0.1055	542602	keystroke_e	e	n/a
271.496	0.09	542992	keystroke_t	t	n/a
271.691	0.1495	543382	keystroke_r	r	n/a
271.795	0.195	543590	keystroke_e	e	n/a
272.051	0.134	544102	keystroke_s	s	n/a
272.5455	0.075	545091	keystroke_Key.backspace	Key.backspace	n/a
272.6505	0.1205	545301	keystroke_a	a	n/a
272.8005	0.1205	545601	keystroke_t	t	n/a
272.936	0.0745	545872	keystroke_Key.space	Key.space	n/a
273.161	0.029	546322	keystroke_p	p	n/a
273.611	0.0745	547222	keystroke_i	i	n/a
273.8655	0.09	547731	keystroke_o	o	n/a
274.076	0.09	548152	keystroke_n	n	n/a
274.3155	0.0455	548631	keystroke_e	e	n/a
274.4515	0.089	548903	keystroke_e	e	n/a
274.6005	0.105	549201	keystroke_r	r	n/a
274.6905	0.0755	549381	keystroke_Key.space	Key.space	n/a
274.916	0.0745	549832	keystroke_d	d	n/a
275.216	0.1495	550432	keystroke_e	e	n/a
275.5015	0.0895	551003	keystroke_s	s	n/a
275.7705	0.0905	551541	keystroke_c	c	n/a
275.9955	0.0455	551991	keystroke_r	r	n/a
276.0555	0.0445	552111	keystroke_r	r	n/a
276.115	0.061	552230	keystroke_i	i	n/a
276.851	0.075	553702	keystroke_Key.backspace	Key.backspace	n/a
277.061	0.0745	554122	keystroke_Key.backspace	Key.backspace	n/a
277.331	0.09	554662	keystroke_o	o	n/a
277.991	0.075	555982	keystroke_Key.backspace	Key.backspace	n/a
278.3065	0.0595	556613	keystroke_i	i	n/a
278.486	0.09	556972	keystroke_p	p	n/a
278.6515	0.0895	557303	keystroke_t	t	n/a
278.756	0.09	557512	keystroke_i	i	n/a
278.966	0.165	557932	keystroke_o	o	n/a
279.086	0.105	558172	keystroke_n	n	n/a
279.341	0.075	558682	keystroke_Key.enter	Key.enter	n/a
279.4225	6.91	558845	prompt	n/a	fundamentals accused ross binary\n
280.2415	0.09	560483	keystroke_f	f	n/a
280.3605	0.135	560721	keystroke_u	u	n/a
280.4515	0.104	560903	keystroke_n	n	n/a
280.7355	0.0905	561471	keystroke_d	d	n/a
280.9605	0.076	561921	keystroke_a	a	n/a
281.1555	0.0755	562311	keystroke_m	m	n/a
281.2455	0.091	562491	keystroke_e	e	n/a
281.3655	0.075	562731	keystroke_n	n	n/a
281.486	0.0905	562972	keystroke_t	t	n/a
281.8905	0.105	563781	keystroke_a	a	n/a
282.116	0.105	564232	keystroke_l	l	n/a
282.236	0.1495	564472	keystroke_s	s	n/a
282.3705	0.105	564741	keystroke_Key.space	Key.space	n/a
282.626	0.075	565252	keystroke_a	a	n/a
282.8065	0.075	565613	keystroke_c	c	n/a
282.941	0.0745	565882	keystroke_c	c	n/a
283.151	0.074	566302	keystroke_u	u	n/a
283.2705	0.0755	566541	keystroke_s	s	n/a
283.6165	0.089	567233	keystroke_e	e	n/a
283.825	0.121	567650	keystroke_d	d	n/a
283.9305	0.1055	567861	keystroke_Key.space	Key.space	n/a
284.1405	0.0905	568281	keystroke_r	r	n/a
284.291	0.075	568582	keystroke_o	o	n/a
284.3955	0.076	568791	keystroke_s	s	n/a
284.5905	0.0605	569181	keystroke_s	s	n/a
284.636	0.09	569272	keystroke_Key.space	Key.space	n/a
285.011	0.089	570022	keystroke_b	b	n/a
285.265	0.0765	570530	keystroke_i	i	n/a
285.476	0.075	570952	keystroke_n	n	n/a
285.626	0.12	571252	keystroke_a	a	n/a
285.866	0.075	571732	keystroke_r	r	n/a
286.016	0.075	572032	keystroke_y	y	n/a
286.256	0.075	572512	keystroke_Key.enter	Key.enter	n/a
286.343	6.9045	572686	prompt	n/a	evolution increasingly orlando skirt\n
286.976	0.06	573952	keystroke_e	e	n/a
287.156	0.105	574312	keystroke_v	v	n/a
287.2905	0.075	574581	keystroke_o	o	n/a
287.4555	0.0905	574911	keystroke_l	l	n/a
287.6955	0.06	575391	keystroke_u	u	n/a
287.9055	0.075	575811	keystroke_t	t	n/a
288.041	0.075	576082	keystroke_i	i	n/a
288.2505	0.0905	576501	keystroke_o	o	n/a
288.3255	0.0905	576651	keystroke_n	n	n/a
288.4005	0.1055	576801	keystroke_Key.space	Key.space	n/a
288.7155	0.075	577431	keystroke_i	i	n/a
288.7915	0.105	577583	keystroke_n	n	n/a
289.1055	0.09	578211	keystroke_c	c	n/a
289.3455	0.12	578691	keystroke_r	r	n/a
289.4505	0.1055	578901	keystroke_e	e	n/a
289.541	0.0905	579082	keystroke_a	a	n/a
289.766	0.09	579532	keystroke_s	s	n/a
289.976	0.105	579952	keystroke_i	i	n/a
290.066	0.075	580132	keystroke_n	n	n/a
290.171	0.09	580342	keystroke_g	g	n/a
290.441	0.0905	580882	keystroke_l	l	n/a
290.591	0.105	581182	keystroke_y	y	n/a
290.681	0.104	581362	keystroke_Key.space	Key.space	n/a
290.9655	0.09	581931	keystroke_o	o	n/a
291.1155	0.09	582231	keystroke_r	r	n/a
291.326	0.0905	582652	keystroke_l	l	n/a
291.4315	0.1045	582863	keystroke_a	a	n/a
291.6115	0.0895	583223	keystroke_n	n	n/a
292.0305	0.046	584061	keystroke_d	d	n/a
292.1365	0.0745	584273	keystroke_o	o	n/a
292.256	0.0895	584512	keystroke_Key.space	Key.space	n/a
292.4655	0.105	584931	keystroke_s	s	n/a
292.5555	0.076	585111	keystroke_k	k	n/a
292.7355	0.076	585471	keystroke_i	i	n/a
292.8405	0.0755	585681	keystroke_r	r	n/a
293.0205	0.061	586041	keystroke_t	t	n/a
293.141	0.105	586282	keystroke_Key.enter	Key.enter	n/a
293.254	5.4085	586508	prompt	n/a	enters showed walnut grain\n
293.8015	0.0895	587603	keystroke_e	e	n/a
293.8915	0.074	587783	keystroke_n	n	n/a
293.996	0.0905	587992	keystroke_t	t	n/a
294.1315	0.12	588263	keystroke_e	e	n/a
294.2215	0.119	588443	keystroke_r	r	n/a
294.3705	0.12	588741	keystroke_s	s	n/a
294.461	0.1195	588922	keystroke_Key.space	Key.space	n/a
295.076	0.12	590152	keystroke_s	s	n/a
295.166	0.105	590332	keystroke_h	h	n/a
295.346	0.105	590692	keystroke_o	o	n/a
295.466	0.09	590932	keystroke_w	w	n/a
295.631	0.075	591262	keystroke_e	e	n/a
295.826	0.12	591652	keystroke_d	d	n/a
295.916	0.1045	591832	keystroke_Key.space	Key.space	n/a
296.3655	0.165	592731	keystroke_w	w	n/a
296.5155	0.1205	593031	keystroke_a	a	n/a
296.6515	0.09	593303	keystroke_l	l	n/a
296.936	0.075	593872	keystroke_n	n	n/a
297.101	0.09	594202	keystroke_u	u	n/a
297.221	0.119	594442	keystroke_t	t	n/a
297.325	0.105	594650	keystroke_Key.space	Key.space	n/a
297.761	0.0745	595522	keystroke_g	g	n/a
297.9405	0.15	595881	keystroke_r	r	n/a
298.0755	0.135	596151	keystroke_a	a	n/a
298.2405	0.105	596481	keystroke_i	i	n/a
298.3315	0.09	596663	keystroke_n	n	n/a
298.586	0.075	597172	keystroke_Key.enter	Key.enter	n/a
298.667	6.9255	597334	prompt	n/a	executive strand hayes exact\n
299.216	0.075	598432	keystroke_e	e	n/a
299.456	0.105	598912	keystroke_x	x	n/a
299.756	0.09	599512	keystroke_e	e	n/a
300.026	0.09	600052	keystroke_c	c	n/a
300.4305	0.075	600861	keystroke_u	u	n/a
300.6115	0.074	601223	keystroke_t	t	n/a
300.8205	0.06	601641	keystroke_i	i	n/a
300.9855	0.09	601971	keystroke_v	v	n/a
301.196	0.09	602392	keystroke_e	e	n/a
301.256	0.12	602512	keystroke_Key.space	Key.space	n/a
301.436	0.09	602872	keystroke_s	s	n/a
301.631	0.09	603262	keystroke_t	t	n/a
301.7665	0.0895	603533	keystroke_a	a	n/a
302.201	0.06	604402	keystroke_Key.backspace	Key.backspace	n/a
302.246	0.15	604492	keystroke_r	r	n/a
302.411	0.15	604822	keystroke_a	a	n/a
302.591	0.075	605182	keystroke_n	n	n/a
302.726	0.1195	605452	keystroke_d	d	n/a
302.831	0.1045	605662	keystroke_Key.space	Key.space	n/a
303.2655	0.045	606531	keystroke_h	h	n/a
303.4455	0.12	606891	keystroke_a	a	n/a
303.671	0.0745	607342	keystroke_y	y	n/a
303.791	0.1645	607582	keystroke_e	e	n/a
303.9405	0.135	607881	keystroke_s	s	n/a
304.0605	0.105	608121	keystroke_Key.space	Key.space	n/a
304.3305	0.105	608661	keystroke_e	e	n/a
304.6015	0.089	609203	keystroke_x	x	n/a
304.841	0.1045	609682	keystroke_a	a	n/a
305.0355	0.105	610071	keystroke_c	c	n/a
305.3205	0.075	610641	keystroke_t	t	n/a
305.4855	0.105	610971	keystroke_Key.enter	Key.enter	n/a
305.596	10.6465	611192	prompt	n/a	manufacturing anywhere distribute coast\n
306.221	0.074	612442	keystroke_m	m	n/a
306.31	0.0915	612620	keystroke_a	a	n/a
306.4455	0.0755	612891	keystroke_n	n	n/a
306.64	0.091	613280	keystroke_u	u	n/a
306.9555	0.06	613911	keystroke_f	f	n/a
307.331	0.105	614662	keystroke_a	a	n/a
307.541	0.09	615082	keystroke_c	c	n/a
307.826	0.06	615652	keystroke_t	t	n/a
308.0215	0.0895	616043	keystroke_u	u	n/a
308.186	0.075	616372	keystroke_r	r	n/a
308.711	0.165	617422	keystroke_i	i	n/a
308.845	0.076	617690	keystroke_n	n	n/a
308.9665	0.119	617933	keystroke_g	g	n/a
309.041	0.104	618082	keystroke_Key.space	Key.space	n/a
309.311	0.105	618622	keystroke_a	a	n/a
309.43	0.06	618860	keystroke_n	n	n/a
309.671	0.075	619342	keystroke_y	y	n/a
310.676	0.0755	621352	keystroke_w	w	n/a
310.766	0.06	621532	keystroke_h	h	n/a
310.961	0.075	621922	keystroke_e	e	n/a
311.0365	0.1345	622073	keystroke_r	r	n/a
311.1555	0.1205	622311	keystroke_e	e	n/a
311.291	0.09	622582	keystroke_Key.space	Key.space	n/a
312.2505	0.105	624501	keystroke_d	d	n/a
312.416	0.0895	624832	keystroke_i	i	n/a
312.491	0.0745	624982	keystroke_s	s	n/a
312.701	0.1045	625402	keystroke_t	t	n/a
312.7905	0.12	625581	keystroke_r	r	n/a
313.016	0.075	626032	keystroke_u	u	n/a
313.391	0.0145	626782	keystroke_b	b	n/a
313.6455	0.06	627291	keystroke_Key.backspace	Key.backspace	n/a
313.766	0.0745	627532	keystroke_Key.backspace	Key.backspace	n/a
314.036	0.0745	628072	keystroke_i	i	n/a
314.2455	0.0605	628491	keystroke_b	b	n/a
314.4105	0.091	628821	keystroke_u	u	n/a
314.636	0.12	629272	keystroke_t	t	n/a
314.786	0.135	629572	keystroke_e	e	n/a
314.906	0.104	629812	keystroke_Key.space	Key.space	n/a
315.311	0.09	630622	keystroke_c	c	n/a
315.416	0.06	630832	keystroke_o	o	n/a
315.551	0.075	631102	keystroke_a	a	n/a
315.776	0.09	631552	keystroke_s	s	n/a
315.971	0.075	631942	keystroke_t	t	n/a
316.136	0.105	632272	keystroke_Key.enter	Key.enter	n/a
316.247	6.6855	632494	prompt	n/a	titles scottish began hints\n
316.9755	0.0455	633951	keystroke_l	l	n/a
317.291	0.06	634582	keystroke_Key.backspace	Key.backspace	n/a
317.516	0.06	635032	keystroke_t	t	n/a
317.951	0.09	635902	keystroke_i	i	n/a
318.101	0.0895	636202	keystroke_t	t	n/a
318.266	0.105	636532	keystroke_l	l	n/a
318.476	0.1345	636952	keystroke_e	e	n/a
318.5955	0.12	637191	keystroke_s	s	n/a
318.7005	0.09	637401	keystroke_Key.space	Key.space	n/a
319.151	0.075	638302	keystroke_s	s	n/a
319.3605	0.0605	638721	keystroke_c	c	n/a
319.4655	0.0905	638931	keystroke_o	o	n/a
319.6755	0.0305	639351	keystroke_t	t	n/a
319.7655	0.09	639531	keystroke_t	t	n/a
319.901	0.0745	639802	keystroke_i	i	n/a
320.0205	0.09	640041	keystroke_s	s	n/a
320.1555	0.0905	640311	keystroke_h	h	n/a
320.2605	0.09	640521	keystroke_Key.space	Key.space	n/a
320.546	0.0745	641092	keystroke_b	b	n/a
320.936	0.09	641872	keystroke_e	e	n/a
321.161	0.09	642322	keystroke_g	g	n/a
321.311	0.105	642622	keystroke_a	a	n/a
321.491	0.09	642982	keystroke_n	n	n/a
321.6255	0.09	643251	keystroke_Key.space	Key.space	n/a
322.1355	0.09	644271	keystroke_h	h	n/a
322.376	0.12	644752	keystroke_i	i	n/a
322.481	0.075	644962	keystroke_n	n	n/a
322.571	0.12	645142	keystroke_t	t	n/a
322.676	0.15	645352	keystroke_s	s	n/a
322.8405	0.0895	645681	keystroke_Key.enter	Key.enter	n/a
322.936	5.667	645872	prompt	n/a	species facing span creations\n
323.576	0.075	647152	keystroke_s	s	n/a
323.6805	0.0905	647361	keystroke_p	p	n/a
323.801	0.075	647602	keystroke_e	e	n/a
324.026	0.0895	648052	keystroke_c	c	n/a
324.1605	0.09	648321	keystroke_i	i	n/a
324.4455	0.1055	648891	keystroke_e	e	n/a
324.611	0.1345	649222	keystroke_s	s	n/a
324.7605	0.075	649521	keystroke_Key.space	Key.space	n/a
325.256	0.09	650512	keystroke_f	f	n/a
325.361	0.12	650722	keystroke_a	a	n/a
325.631	0.09	651262	keystroke_c	c	n/a
325.916	0.105	651832	keystroke_i	i	n/a
326.006	0.09	652012	keystroke_n	n	n/a
326.081	0.12	652162	keystroke_g	g	n/a
326.171	0.134	652342	keystroke_Key.space	Key.space	n/a
326.32	0.1055	652640	keystroke_s	s	n/a
326.4405	0.0905	652881	keystroke_p	p	n/a
326.576	0.1045	653152	keystroke_a	a	n/a
326.7705	0.0755	653541	keystroke_n	n	n/a
326.8605	0.105	653721	keystroke_Key.space	Key.space	n/a
327.251	0.075	654502	keystroke_c	c	n/a
327.4915	0.12	654983	keystroke_r	r	n/a
327.5965	0.09	655193	keystroke_e	e	n/a
327.6715	0.104	655343	keystroke_a	a	n/a
327.8515	0.074	655703	keystroke_t	t	n/a
327.956	0.0895	655912	keystroke_i	i	n/a
328.1355	0.121	656271	keystroke_o	o	n/a
328.2415	0.09	656483	keystroke_n	n	n/a
328.3465	0.0745	656693	keystroke_s	s	n/a
328.4955	0.105	656991	keystroke_Key.enter	Key.enter	n/a
328.6075	7.3	657215	prompt	n/a	validity finishing purposes arcade\n
329.501	0.09	659002	keystroke_v	v	n/a
329.621	0.12	659242	keystroke_a	a	n/a
329.726	0.075	659452	keystroke_l	l	n/a
329.936	0.075	659872	keystroke_i	i	n/a
330.026	0.09	660052	keystroke_d	d	n/a
330.2355	0.0755	660471	keystroke_i	i	n/a
330.8805	0.076	661761	keystroke_t	t	n/a
331.09	0.061	662180	keystroke_y	y	n/a
331.1655	0.0755	662331	keystroke_Key.space	Key.space	n/a
331.406	0.0905	662812	keystroke_f	f	n/a
331.541	0.09	663082	keystroke_i	i	n/a
331.7055	0.06	663411	keystroke_n	n	n/a
331.81	0.105	663620	keystroke_i	i	n/a
331.961	0.1055	663922	keystroke_s	s	n/a
332.306	0.075	664612	keystroke_h	h	n/a
332.546	0.119	665092	keystroke_i	i	n/a
332.651	0.075	665302	keystroke_n	n	n/a
332.741	0.105	665482	keystroke_g	g	n/a
332.83	0.1055	665660	keystroke_Key.space	Key.space	n/a
333.026	0.074	666052	keystroke_p	p	n/a
333.266	0.06	666532	keystroke_u	u	n/a
333.3715	0.0895	666743	keystroke_r	r	n/a
333.535	0.0605	667070	keystroke_p	p	n/a
333.7	0.0755	667400	keystroke_o	o	n/a
333.791	0.075	667582	keystroke_s	s	n/a
334.001	0.12	668002	keystroke_e	e	n/a
334.135	0.12	668270	keystroke_s	s	n/a
334.24	0.12	668480	keystroke_Key.space	Key.space	n/a
334.42	0.091	668840	keystroke_a	a	n/a
334.616	0.0895	669232	keystroke_r	r	n/a
334.871	0.075	669742	keystroke_c	c	n/a
335.0955	0.09	670191	keystroke_a	a	n/a
335.426	0.015	670852	keystroke_d	d	n/a
335.6655	0.0605	671331	keystroke_e	e	n/a
335.816	0.0895	671632	keystroke_Key.enter	Key.enter	n/a
335.914	9.0085	671828	prompt	n/a	hole collection chargers conversations\n
336.566	0.06	673132	keystroke_h	h	n/a
336.7755	0.075	673551	keystroke_o	o	n/a
336.9405	0.12	673881	keystroke_l	l	n/a
337.346	0.09	674692	keystroke_e	e	n/a
337.45	0.076	674900	keystroke_Key.space	Key.space	n/a
337.706	0.06	675412	keystroke_c	c	n/a
337.826	0.075	675652	keystroke_o	o	n/a
338.021	0.075	676042	keystroke_l	l	n/a
338.156	0.09	676312	keystroke_l	l	n/a
338.276	0.06	676552	keystroke_e	e	n/a
338.456	0.105	676912	keystroke_c	c	n/a
338.77	0.031	677540	keystroke_t	t	n/a
338.845	0.09	677690	keystroke_i	i	n/a
339.0555	0.0905	678111	keystroke_o	o	n/a
339.1315	0.0735	678263	keystroke_n	n	n/a
339.206	0.119	678412	keystroke_Key.space	Key.space	n/a
339.535	0.106	679070	keystroke_c	c	n/a
339.701	0.09	679402	keystroke_h	h	n/a
339.775	0.0905	679550	keystroke_a	a	n/a
339.9705	0.09	679941	keystroke_r	r	n/a
340.136	0.075	680272	keystroke_g	g	n/a
340.241	0.165	680482	keystroke_e	e	n/a
340.376	0.1495	680752	keystroke_s	s	n/a
340.7355	0.06	681471	keystroke_Key.backspace	Key.backspace	n/a
340.961	0.1195	681922	keystroke_r	r	n/a
341.1255	0.1345	682251	keystroke_s	s	n/a
341.23	0.09	682460	keystroke_Key.space	Key.space	n/a
341.531	0.0745	683062	keystroke_c	c	n/a
341.6205	0.12	683241	keystroke_o	o	n/a
341.7255	0.06	683451	keystroke_n	n	n/a
342.326	0.0895	684652	keystroke_v	v	n/a
342.5655	0.075	685131	keystroke_e	e	n/a
342.6555	0.12	685311	keystroke_r	r	n/a
342.8505	0.12	685701	keystroke_s	s	n/a
343.076	0.0595	686152	keystroke_t	t	n/a
343.1655	0.106	686331	keystroke_a	a	n/a
343.81	0.075	687620	keystroke_Key.backspace	Key.backspace	n/a
343.9455	0.0595	687891	keystroke_Key.backspace	Key.backspace	n/a
343.991	0.1505	687982	keystroke_a	a	n/a
344.1255	0.09	688251	keystroke_t	t	n/a
344.2605	0.0755	688521	keystroke_i	i	n/a
344.4405	0.1205	688881	keystroke_o	o	n/a
344.531	0.09	689062	keystroke_n	n	n/a
344.696	0.119	689392	keystroke_s	s	n/a
344.83	0.09	689660	keystroke_Key.enter	Key.enter	n/a
344.927	6.115	689854	prompt	n/a	introduce broken precise jean\n
345.5655	0.09	691131	keystroke_i	i	n/a
345.6405	0.0905	691281	keystroke_n	n	n/a
345.8505	0.09	691701	keystroke_t	t	n/a
345.9555	0.12	691911	keystroke_r	r	n/a
346.121	0.09	692242	keystroke_u	u	n/a
346.5105	0.075	693021	keystroke_Key.backspace	Key.backspace	n/a
346.736	0.09	693472	keystroke_o	o	n/a
346.856	0.0895	693712	keystroke_d	d	n/a
347.051	0.06	694102	keystroke_u	u	n/a
347.126	0.09	694252	keystroke_c	c	n/a
347.366	0.0745	694732	keystroke_e	e	n/a
347.4255	0.105	694851	keystroke_Key.space	Key.space	n/a
347.6655	0.09	695331	keystroke_b	b	n/a
347.8155	0.0755	695631	keystroke_r	r	n/a
347.9055	0.18	695811	keystroke_o	o	n/a
348.0555	0.0905	696111	keystroke_k	k	n/a
348.22	0.105	696440	keystroke_e	e	n/a
348.34	0.075	696680	keystroke_n	n	n/a
348.401	0.105	696802	keystroke_Key.space	Key.space	n/a
348.6255	0.0905	697251	keystroke_p	p	n/a
348.9405	0.105	697881	keystroke_e	e	n/a
349.33	0.0755	698660	keystroke_Key.backspace	Key.backspace	n/a
349.4205	0.1205	698841	keystroke_r	r	n/a
349.5105	0.105	699021	keystroke_e	e	n/a
349.781	0.0895	699562	keystroke_c	c	n/a
349.916	0.075	699832	keystroke_i	i	n/a
350.036	0.09	700072	keystroke_s	s	n/a
350.1705	0.1205	700341	keystroke_e	e	n/a
350.2455	0.1205	700491	keystroke_Key.space	Key.space	n/a
350.441	0.0605	700882	keystroke_j	j	n/a
350.502	0.134	701004	keystroke_e	e	n/a
350.636	0.105	701272	keystroke_a	a	n/a
350.771	0.09	701542	keystroke_n	n	n/a
350.95	0.09	701900	keystroke_Key.enter	Key.enter	n/a
351.0465	6.251	702093	prompt	n/a	diseases ability macro is\n
351.671	0.105	703342	keystroke_d	d	n/a
351.911	0.09	703822	keystroke_i	i	n/a
352.1955	0.09	704391	keystroke_s	s	n/a
352.511	0.0745	705022	keystroke_e	e	n/a
352.661	0.09	705322	keystroke_a	a	n/a
352.8855	0.1055	705771	keystroke_s	s	n/a
353.0815	0.134	706163	keystroke_e	e	n/a
353.2005	0.12	706401	keystroke_s	s	n/a
353.3055	0.12	706611	keystroke_Key.space	Key.space	n/a
353.621	0.09	707242	keystroke_a	a	n/a
353.741	0.075	707482	keystroke_b	b	n/a
353.936	0.09	707872	keystroke_i	i	n/a
354.131	0.075	708262	keystroke_l	l	n/a
354.326	0.06	708652	keystroke_i	i	n/a
354.431	0.09	708862	keystroke_t	t	n/a
354.896	0.09	709792	keystroke_i	i	n/a
355.3755	0.09	710751	keystroke_Key.backspace	Key.backspace	n/a
355.5115	0.0885	711023	keystroke_y	y	n/a
355.66	0.105	711320	keystroke_Key.space	Key.space	n/a
356.0955	0.075	712191	keystroke_m	m	n/a
356.2455	0.075	712491	keystroke_a	a	n/a
356.4255	0.09	712851	keystroke_c	c	n/a
356.6655	0.0905	713331	keystroke_r	r	n/a
356.771	0.0745	713542	keystroke_o	o	n/a
356.8605	0.09	713721	keystroke_Key.space	Key.space	n/a
356.996	0.0895	713992	keystroke_i	i	n/a
357.0705	0.09	714141	keystroke_s	s	n/a
357.2355	0.06	714471	keystroke_Key.enter	Key.enter	n/a
357.302	6.2055	714604	prompt	n/a	multiple inquiries percent brakes\n
357.85	0.075	715700	keystroke_m	m	n/a
358.03	0.0605	716060	keystroke_u	u	n/a
358.271	0.075	716542	keystroke_l	l	n/a
358.541	0.074	717082	keystroke_t	t	n/a
358.99	0.091	717980	keystroke_i	i	n/a
359.306	0.165	718612	keystroke_p	p	n/a
359.441	0.105	718882	keystroke_l	l	n/a
359.561	0.105	719122	keystroke_e	e	n/a
359.636	0.105	719272	keystroke_Key.space	Key.space	n/a
359.861	0.105	719722	keystroke_i	i	n/a
359.951	0.09	719902	keystroke_n	n	n/a
360.191	0.075	720382	keystroke_q	q	n/a
360.326	0.06	720652	keystroke_u	u	n/a
360.5205	0.075	721041	keystroke_i	i	n/a
360.6555	0.09	721311	keystroke_r	r	n/a
360.8205	0.09	721641	keystroke_i	i	n/a
361.046	0.1345	722092	keystroke_e	e	n/a
361.196	0.0895	722392	keystroke_s	s	n/a
361.256	0.1195	722512	keystroke_Key.space	Key.space	n/a
361.5855	0.09	723171	keystroke_p	p	n/a
361.6605	0.12	723321	keystroke_e	e	n/a
361.7505	0.09	723501	keystroke_r	r	n/a
362.006	0.075	724012	keystroke_c	c	n/a
362.1865	0.0595	724373	keystroke_e	e	n/a
362.291	0.06	724582	keystroke_n	n	n/a
362.381	0.09	724762	keystroke_t	t	n/a
362.441	0.1045	724882	keystroke_Key.space	Key.space	n/a
362.5755	0.0455	725151	keystroke_b	b	n/a
362.6355	0.135	725271	keystroke_r	r	n/a
362.8605	0.12	725721	keystroke_a	a	n/a
363.026	0.105	726052	keystroke_k	k	n/a
363.146	0.165	726292	keystroke_e	e	n/a
363.326	0.105	726652	keystroke_s	s	n/a
363.4155	0.0895	726831	keystroke_Key.enter	Key.enter	n/a
363.51	9.957	727020	prompt	n/a	newspapers operators administration candles\n
364.271	0.09	728542	keystroke_n	n	n/a
364.616	0.075	729232	keystroke_w	w	n/a
365.035	0.076	730070	keystroke_Key.backspace	Key.backspace	n/a
365.081	0.119	730162	keystroke_e	e	n/a
365.171	0.09	730342	keystroke_w	w	n/a
365.366	0.105	730732	keystroke_s	s	n/a
365.4855	0.0745	730971	keystroke_p	p	n/a
365.8005	0.09	731601	keystroke_a	a	n/a
365.9355	0.105	731871	keystroke_p	p	n/a
366.191	0.1645	732382	keystroke_e	e	n/a
366.341	0.12	732682	keystroke_r	r	n/a
366.5205	0.12	733041	keystroke_s	s	n/a
366.6105	0.1205	733221	keystroke_Key.space	Key.space	n/a
366.91	0.091	733820	keystroke_o	o	n/a
367.046	0.105	734092	keystroke_r	r	n/a
367.466	0.074	734932	keystroke_Key.backspace	Key.backspace	n/a
367.706	0.12	735412	keystroke_p	p	n/a
367.811	0.119	735622	keystroke_e	e	n/a
367.916	0.105	735832	keystroke_r	r	n/a
368.036	0.12	736072	keystroke_a	a	n/a
368.231	0.09	736462	keystroke_t	t	n/a
368.411	0.09	736822	keystroke_o	o	n/a
368.516	0.12	737032	keystroke_r	r	n/a
368.6955	0.1205	737391	keystroke_s	s	n/a
368.786	0.1045	737572	keystroke_Key.space	Key.space	n/a
368.9955	0.06	737991	keystroke_a	a	n/a
369.2655	0.12	738531	keystroke_m	m	n/a
369.836	0.075	739672	keystroke_Key.backspace	Key.backspace	n/a
369.942	0.1185	739884	keystroke_d	d	n/a
370.1355	0.0755	740271	keystroke_m	m	n/a
370.345	0.1055	740690	keystroke_i	i	n/a
370.421	0.1045	740842	keystroke_n	n	n/a
370.571	0.0895	741142	keystroke_i	i	n/a
370.6755	0.0905	741351	keystroke_s	s	n/a
370.8855	0.105	741771	keystroke_t	t	n/a
370.9755	0.105	741951	keystroke_r	r	n/a
371.1855	0.1045	742371	keystroke_a	a	n/a
371.3805	0.09	742761	keystroke_t	t	n/a
371.5005	0.075	743001	keystroke_i	i	n/a
371.6965	0.089	743393	keystroke_o	o	n/a
371.7865	0.059	743573	keystroke_n	n	n/a
371.8305	0.09	743661	keystroke_Key.space	Key.space	n/a
372.0705	0.09	744141	keystroke_c	c	n/a
372.2055	0.105	744411	keystroke_a	a	n/a
372.341	0.0745	744682	keystroke_n	n	n/a
372.731	0.105	745462	keystroke_d	d	n/a
372.9115	0.0895	745823	keystroke_l	l	n/a
373.046	0.15	746092	keystroke_e	e	n/a
373.166	0.135	746332	keystroke_s	s	n/a
373.361	0.105	746722	keystroke_Key.enter	Key.enter	n/a
373.471	8.366	746942	prompt	n/a	instrument blair cardiff duplicate\n
374.111	0.075	748222	keystroke_i	i	n/a
374.171	0.0745	748342	keystroke_n	n	n/a
374.231	0.09	748462	keystroke_s	s	n/a
374.411	0.1045	748822	keystroke_t	t	n/a
374.5005	0.105	749001	keystroke_r	r	n/a
374.6655	0.0745	749331	keystroke_u	u	n/a
374.83	0.0755	749660	keystroke_c	c	n/a
375.1755	0.075	750351	keystroke_Key.backspace	Key.backspace	n/a
375.386	0.075	750772	keystroke_m	m	n/a
375.4755	0.1055	750951	keystroke_e	e	n/a
375.611	0.06	751222	keystroke_n	n	n/a
375.7005	0.0895	751401	keystroke_t	t	n/a
375.775	0.1055	751550	keystroke_Key.space	Key.space	n/a
376.091	0.0745	752182	keystroke_b	b	n/a
376.2705	0.12	752541	keystroke_l	l	n/a
376.3755	0.105	752751	keystroke_a	a	n/a
376.601	0.075	753202	keystroke_i	i	n/a
376.706	0.0895	753412	keystroke_r	r	n/a
376.7655	0.12	753531	keystroke_Key.space	Key.space	n/a
377.3205	0.12	754641	keystroke_c	c	n/a
377.5605	0.09	755121	keystroke_a	a	n/a
377.7405	0.09	755481	keystroke_r	r	n/a
378.2355	0.09	756471	keystroke_d	d	n/a
378.4305	0.075	756861	keystroke_i	i	n/a
378.7155	0.045	757431	keystroke_f	f	n/a
378.836	0.09	757672	keystroke_f	f	n/a
378.9855	0.12	757971	keystroke_Key.space	Key.space	n/a
379.9755	0.09	759951	keystroke_d	d	n/a
380.111	0.0745	760222	keystroke_u	u	n/a
380.3805	0.075	760761	keystroke_p	p	n/a
380.5755	0.075	761151	keystroke_l	l	n/a
380.77	0.076	761540	keystroke_i	i	n/a
380.861	0.104	761722	keystroke_c	c	n/a
380.98	0.1055	761960	keystroke_a	a	n/a
381.325	0.12	762650	keystroke_t	t	n/a
381.431	0.134	762862	keystroke_e	e	n/a
381.745	0.0905	763490	keystroke_Key.enter	Key.enter	n/a
381.84	5.833	763680	prompt	n/a	thomas georgia cisco came\n
382.51	0.075	765020	keystroke_t	t	n/a
382.661	0.075	765322	keystroke_h	h	n/a
382.856	0.119	765712	keystroke_o	o	n/a
383.021	0.075	766042	keystroke_m	m	n/a
383.081	0.089	766162	keystroke_a	a	n/a
383.306	0.089	766612	keystroke_s	s	n/a
383.3805	0.09	766761	keystroke_Key.space	Key.space	n/a
383.635	0.0755	767270	keystroke_g	g	n/a
383.785	0.1055	767570	keystroke_e	e	n/a
383.9805	0.0905	767961	keystroke_o	o	n/a
384.085	0.09	768170	keystroke_r	r	n/a
384.401	0.074	768802	keystroke_g	g	n/a
384.7305	0.0905	769461	keystroke_i	i	n/a
384.9255	0.0755	769851	keystroke_a	a	n/a
385.0755	0.135	770151	keystroke_Key.space	Key.space	n/a
385.5855	0.09	771171	keystroke_c	c	n/a
385.751	0.0745	771502	keystroke_i	i	n/a
386.0955	0.09	772191	keystroke_s	s	n/a
386.35	0.091	772700	keystroke_c	c	n/a
386.5005	0.1045	773001	keystroke_o	o	n/a
386.62	0.1055	773240	keystroke_Key.space	Key.space	n/a
387.0255	0.09	774051	keystroke_g	g	n/a
387.1305	0.135	774261	keystroke_a	a	n/a
387.3105	0.105	774621	keystroke_m	m	n/a
387.4005	0.09	774801	keystroke_e	e	n/a
387.5805	0.091	775161	keystroke_Key.enter	Key.enter	n/a
387.6775	5.695	775355	prompt	n/a	noon miles stranger angola\n
388.6905	0.06	777381	keystroke_n	n	n/a
388.8705	0.0605	777741	keystroke_o	o	n/a
389.0205	0.06	778041	keystroke_o	o	n/a
389.1705	0.0745	778341	keystroke_n	n	n/a
389.23	0.1055	778460	keystroke_Key.space	Key.space	n/a
389.5005	0.0605	779001	keystroke_n	n	n/a
389.905	0.015	779810	keystroke_Key.backspace	Key.backspace	n/a
390.101	0.059	780202	keystroke_m	m	n/a
390.311	0.075	780622	keystroke_i	i	n/a
390.535	0.0905	781070	keystroke_l	l	n/a
390.6705	0.12	781341	keystroke_e	e	n/a
390.7605	0.09	781521	keystroke_s	s	n/a
390.8205	0.18	781641	keystroke_Key.space	Key.space	n/a
390.9855	0.09	781971	keystroke_s	s	n/a
391.1805	0.12	782361	keystroke_t	t	n/a
391.271	0.15	782542	keystroke_r	r	n/a
391.4355	0.12	782871	keystroke_a	a	n/a
391.5855	0.0755	783171	keystroke_n	n	n/a
391.676	0.09	783352	keystroke_g	g	n/a
391.871	0.12	783742	keystroke_e	e	n/a
391.945	0.121	783890	keystroke_r	r	n/a
392.155	0.12	784310	keystroke_Key.space	Key.space	n/a
392.41	0.106	784820	keystroke_a	a	n/a
392.531	0.06	785062	keystroke_n	n	n/a
392.6655	0.0905	785331	keystroke_g	g	n/a
392.83	0.06	785660	keystroke_o	o	n/a
392.981	0.1045	785962	keystroke_l	l	n/a
393.1005	0.1055	786201	keystroke_a	a	n/a
393.265	0.1055	786530	keystroke_Key.enter	Key.enter	n/a
393.376	17.291	786752	prompt	n/a	bradley configurations arabia radiation\n
394.1955	0.075	788391	keystroke_b	b	n/a
394.3155	0.09	788631	keystroke_a	a	n/a
394.511	0.0745	789022	keystroke_r	r	n/a
394.676	0.1045	789352	keystroke_d	d	n/a
395.276	0.0895	790552	keystroke_l	l	n/a
395.65	0.061	791300	keystroke_Key.backspace	Key.backspace	n/a
395.785	0.0605	791570	keystroke_Key.backspace	Key.backspace	n/a
395.9205	0.045	791841	keystroke_Key.backspace	Key.backspace	n/a
396.0405	0.0745	792081	keystroke_Key.backspace	Key.backspace	n/a
396.101	0.134	792202	keystroke_r	r	n/a
396.25	0.09	792500	keystroke_a	a	n/a
396.401	0.089	792802	keystroke_l	l	n/a
396.535	0.106	793070	keystroke_d	d	n/a
396.895	0.0605	793790	keystroke_Key.backspace	Key.backspace	n/a
397.015	0.06	794030	keystroke_Key.backspace	Key.backspace	n/a
397.076	0.1045	794152	keystroke_d	d	n/a
397.256	0.06	794512	keystroke_l	l	n/a
397.391	0.105	794782	keystroke_y	y	n/a
397.48	0.106	794960	keystroke_Key.space	Key.space	n/a
397.93	0.09	795860	keystroke_b	b	n/a
398.305	0.06	796610	keystroke_Key.backspace	Key.backspace	n/a
398.471	0.0895	796942	keystroke_c	c	n/a
398.6055	0.12	797211	keystroke_o	o	n/a
398.6955	0.09	797391	keystroke_n	n	n/a
399.4905	0.09	798981	keystroke_f	f	n/a
399.581	0.09	799162	keystroke_i	i	n/a
400.1955	0.0445	800391	keystroke_g	g	n/a
400.285	0.075	800570	keystroke_u	u	n/a
400.45	0.0905	800900	keystroke_a	a	n/a
400.6455	0.075	801291	keystroke_r	r	n/a
401.1255	0.0595	802251	keystroke_t	t	n/a
401.275	0.076	802550	keystroke_i	i	n/a
401.4855	0.135	802971	keystroke_o	o	n/a
401.6055	0.0895	803211	keystroke_n	n	n/a
401.6805	0.105	803361	keystroke_s	s	n/a
401.74	0.1205	803480	keystroke_Key.space	Key.space	n/a
401.9805	0.075	803961	keystroke_a	a	n/a
402.2505	0.12	804501	keystroke_r	r	n/a
402.3855	0.12	804771	keystroke_a	a	n/a
402.9405	0.075	805881	keystroke_Key.backspace	Key.backspace	n/a
403.1205	0.045	806241	keystroke_Key.backspace	Key.backspace	n/a
403.5555	0.06	807111	keystroke_Key.backspace	Key.backspace	n/a
403.705	0.06	807410	keystroke_Key.backspace	Key.backspace	n/a
403.8555	0.06	807711	keystroke_Key.backspace	Key.backspace	n/a
403.9905	0.0745	807981	keystroke_Key.backspace	Key.backspace	n/a
404.1405	0.0595	808281	keystroke_Key.backspace	Key.backspace	n/a
404.275	0.075	808550	keystroke_Key.backspace	Key.backspace	n/a
404.425	0.0755	808850	keystroke_Key.backspace	Key.backspace	n/a
404.5605	0.075	809121	keystroke_Key.backspace	Key.backspace	n/a
404.6955	0.1055	809391	keystroke_Key.backspace	Key.backspace	n/a
404.8455	0.1205	809691	keystroke_r	r	n/a
405.011	0.135	810022	keystroke_a	a	n/a
405.236	0.0745	810472	keystroke_t	t	n/a
405.3405	0.0895	810681	keystroke_i	i	n/a
405.5805	0.0905	811161	keystroke_o	o	n/a
405.655	0.0905	811310	keystroke_n	n	n/a
405.775	0.105	811550	keystroke_s	s	n/a
405.85	0.12	811700	keystroke_Key.space	Key.space	n/a
406.031	0.09	812062	keystroke_a	a	n/a
406.195	0.105	812390	keystroke_r	r	n/a
406.3155	0.1345	812631	keystroke_a	a	n/a
406.571	0.059	813142	keystroke_b	b	n/a
406.751	0.0745	813502	keystroke_i	i	n/a
406.841	0.134	813682	keystroke_a	a	n/a
406.9455	0.105	813891	keystroke_Key.space	Key.space	n/a
407.2755	0.12	814551	keystroke_r	r	n/a
408.0405	0.1505	816081	keystroke_a	a	n/a
408.235	0.136	816470	keystroke_d	d	n/a
408.446	0.09	816892	keystroke_i	i	n/a
408.581	0.09	817162	keystroke_a	a	n/a
408.9555	0.09	817911	keystroke_t	t	n/a
409.076	0.0745	818152	keystroke_i	i	n/a
409.3905	0.09	818781	keystroke_n	n	n/a
409.8255	0.075	819651	keystroke_Key.backspace	Key.backspace	n/a
410.126	0.12	820252	keystroke_o	o	n/a
410.261	0.105	820522	keystroke_n	n	n/a
410.561	0.1045	821122	keystroke_Key.enter	Key.enter	n/a
410.6715	7.601	821343	prompt	n/a	safely springs tennessee seconds\n
411.821	0.1045	823642	keystroke_d	d	n/a
412.2405	0.075	824481	keystroke_Key.backspace	Key.backspace	n/a
412.3165	0.074	824633	keystroke_s	s	n/a
412.7055	0.18	825411	keystroke_a	a	n/a
412.9155	0.15	825831	keystroke_f	f	n/a
413.0805	0.12	826161	keystroke_e	e	n/a
413.2915	0.104	826583	keystroke_l	l	n/a
413.4405	0.105	826881	keystroke_y	y	n/a
413.5155	0.12	827031	keystroke_Key.space	Key.space	n/a
413.681	0.104	827362	keystroke_s	s	n/a
413.801	0.09	827602	keystroke_p	p	n/a
413.936	0.1055	827872	keystroke_r	r	n/a
414.1005	0.1205	828201	keystroke_i	i	n/a
414.1905	0.0755	828381	keystroke_n	n	n/a
414.2955	0.105	828591	keystroke_g	g	n/a
414.3855	0.12	828771	keystroke_s	s	n/a
414.4755	0.1355	828951	keystroke_Key.space	Key.space	n/a
414.731	0.09	829462	keystroke_t	t	n/a
414.8805	0.0905	829761	keystroke_e	e	n/a
415.016	0.06	830032	keystroke_n	n	n/a
415.136	0.075	830272	keystroke_n	n	n/a
415.255	0.09	830510	keystroke_e	e	n/a
415.691	0.089	831382	keystroke_s	s	n/a
415.8565	0.0885	831713	keystroke_s	s	n/a
416.111	0.06	832222	keystroke_e	e	n/a
416.276	0.0745	832552	keystroke_e	e	n/a
416.4555	0.12	832911	keystroke_Key.space	Key.space	n/a
416.7255	0.09	833451	keystroke_s	s	n/a
416.9505	0.0605	833901	keystroke_e	e	n/a
417.146	0.105	834292	keystroke_c	c	n/a
417.461	0.09	834922	keystroke_o	o	n/a
417.746	0.075	835492	keystroke_n	n	n/a
417.866	0.105	835732	keystroke_d	d	n/a
418.046	0.105	836092	keystroke_s	s	n/a
418.181	0.09	836362	keystroke_Key.enter	Key.enter	n/a
418.2775	6.775	836555	prompt	n/a	last smell representing biblical\n
419.111	0.1195	838222	keystroke_l	l	n/a
419.1855	0.0745	838371	keystroke_a	a	n/a
419.3805	0.1045	838761	keystroke_s	s	n/a
419.561	0.105	839122	keystroke_t	t	n/a
419.62	0.1055	839240	keystroke_Key.space	Key.space	n/a
419.7705	0.0905	839541	keystroke_s	s	n/a
419.9205	0.105	839841	keystroke_m	m	n/a
420.011	0.0895	840022	keystroke_e	e	n/a
420.1905	0.0605	840381	keystroke_l	l	n/a
420.311	0.09	840622	keystroke_l	l	n/a
420.4455	0.1045	840891	keystroke_Key.space	Key.space	n/a
420.986	0.075	841972	keystroke_p	p	n/a
421.3	0.09	842600	keystroke_Key.backspace	Key.backspace	n/a
421.376	0.135	842752	keystroke_r	r	n/a
421.481	0.105	842962	keystroke_e	e	n/a
421.631	0.09	843262	keystroke_p	p	n/a
421.7955	0.135	843591	keystroke_r	r	n/a
421.9455	0.105	843891	keystroke_e	e	n/a
422.156	0.0895	844312	keystroke_s	s	n/a
422.3055	0.0905	844611	keystroke_e	e	n/a
422.5005	0.075	845001	keystroke_n	n	n/a
422.6205	0.0745	845241	keystroke_t	t	n/a
422.8455	0.12	845691	keystroke_i	i	n/a
422.9505	0.075	845901	keystroke_n	n	n/a
423.026	0.1195	846052	keystroke_g	g	n/a
423.1005	0.105	846201	keystroke_Key.space	Key.space	n/a
423.386	0.075	846772	keystroke_b	b	n/a
423.6705	0.075	847341	keystroke_i	i	n/a
423.8355	0.09	847671	keystroke_b	b	n/a
424.1055	0.0755	848211	keystroke_l	l	n/a
424.2855	0.0755	848571	keystroke_i	i	n/a
424.375	0.0905	848750	keystroke_c	c	n/a
424.5405	0.09	849081	keystroke_a	a	n/a
424.646	0.1045	849292	keystroke_l	l	n/a
424.9305	0.12	849861	keystroke_Key.enter	Key.enter	n/a
425.0615	6.126	850123	prompt	n/a	senator leader mines screensavers\n
425.6205	0.075	851241	keystroke_s	s	n/a
425.8005	0.1205	851601	keystroke_e	e	n/a
425.8755	0.06	851751	keystroke_n	n	n/a
425.9955	0.105	851991	keystroke_a	a	n/a
426.22	0.075	852440	keystroke_t	t	n/a
426.37	0.075	852740	keystroke_o	o	n/a
426.475	0.106	852950	keystroke_r	r	n/a
426.565	0.0905	853130	keystroke_Key.space	Key.space	n/a
426.716	0.105	853432	keystroke_l	l	n/a
426.791	0.1045	853582	keystroke_e	e	n/a
426.8955	0.1355	853791	keystroke_a	a	n/a
427.031	0.12	854062	keystroke_d	d	n/a
427.271	0.1045	854542	keystroke_e	e	n/a
427.361	0.1195	854722	keystroke_r	r	n/a
427.4505	0.1195	854901	keystroke_Key.space	Key.space	n/a
427.736	0.06	855472	keystroke_m	m	n/a
427.961	0.105	855922	keystroke_i	i	n/a
428.051	0.089	856102	keystroke_n	n	n/a
428.306	0.12	856612	keystroke_e	e	n/a
428.501	0.105	857002	keystroke_s	s	n/a
428.59	0.12	857180	keystroke_Key.space	Key.space	n/a
428.7705	0.1195	857541	keystroke_s	s	n/a
428.996	0.0895	857992	keystroke_c	c	n/a
429.2655	0.105	858531	keystroke_r	r	n/a
429.3555	0.075	858711	keystroke_e	e	n/a
429.5055	0.105	859011	keystroke_e	e	n/a
429.6855	0.09	859371	keystroke_n	n	n/a
429.7905	0.105	859581	keystroke_s	s	n/a
430.12	0.105	860240	keystroke_a	a	n/a
430.391	0.0445	860782	keystroke_v	v	n/a
430.6455	0.075	861291	keystroke_e	e	n/a
430.7355	0.18	861471	keystroke_r	r	n/a
430.8855	0.135	861771	keystroke_s	s	n/a
431.0805	0.105	862161	keystroke_Key.enter	Key.enter	n/a
431.191	5.5765	862382	prompt	n/a	waste flickr scored catering\n
431.801	0.12	863602	keystroke_w	w	n/a
431.951	0.134	863902	keystroke_a	a	n/a
432.1305	0.06	864261	keystroke_s	s	n/a
432.3855	0.1195	864771	keystroke_t	t	n/a
432.52	0.09	865040	keystroke_e	e	n/a
432.58	0.1205	865160	keystroke_Key.space	Key.space	n/a
432.851	0.0895	865702	keystroke_f	f	n/a
433.0005	0.09	866001	keystroke_l	l	n/a
433.2405	0.075	866481	keystroke_i	i	n/a
433.3605	0.09	866721	keystroke_c	c	n/a
433.481	0.0895	866962	keystroke_k	k	n/a
433.7955	0.09	867591	keystroke_r	r	n/a
433.93	0.1055	867860	keystroke_Key.space	Key.space	n/a
434.261	0.0895	868522	keystroke_s	s	n/a
434.4705	0.0895	868941	keystroke_c	c	n/a
434.605	0.0755	869210	keystroke_o	o	n/a
434.755	0.0905	869510	keystroke_r	r	n/a
434.86	0.12	869720	keystroke_e	e	n/a
435.13	0.075	870260	keystroke_d	d	n/a
435.175	0.0905	870350	keystroke_Key.space	Key.space	n/a
435.4455	0.1195	870891	keystroke_c	c	n/a
435.581	0.134	871162	keystroke_a	a	n/a
435.8505	0.0905	871701	keystroke_t	t	n/a
435.9855	0.135	871971	keystroke_e	e	n/a
436.1055	0.105	872211	keystroke_r	r	n/a
436.3155	0.12	872631	keystroke_i	i	n/a
436.4055	0.09	872811	keystroke_n	n	n/a
436.5105	0.075	873021	keystroke_g	g	n/a
436.6755	0.09	873351	keystroke_Key.enter	Key.enter	n/a
436.7715	8.2905	873543	prompt	n/a	trusts florists distribute useful\n
437.441	0.104	874882	keystroke_t	t	n/a
437.561	0.104	875122	keystroke_r	r	n/a
437.7405	0.0905	875481	keystroke_u	u	n/a
437.8455	0.105	875691	keystroke_s	s	n/a
438.011	0.1345	876022	keystroke_t	t	n/a
438.1305	0.18	876261	keystroke_Key.space	Key.space	n/a
438.3855	0.12	876771	keystroke_s	s	n/a
438.6855	0.06	877371	keystroke_Key.backspace	Key.backspace	n/a
438.8055	0.06	877611	keystroke_Key.backspace	Key.backspace	n/a
438.8665	0.104	877733	keystroke_s	s	n/a
438.9405	0.12	877881	keystroke_Key.space	Key.space	n/a
439.1655	0.1195	878331	keystroke_f	f	n/a
439.301	0.0745	878602	keystroke_l	l	n/a
439.4805	0.075	878961	keystroke_o	o	n/a
439.601	0.0745	879202	keystroke_r	r	n/a
439.8105	0.075	879621	keystroke_i	i	n/a
439.961	0.0895	879922	keystroke_s	s	n/a
440.2155	0.105	880431	keystroke_t	t	n/a
440.3355	0.12	880671	keystroke_s	s	n/a
440.4405	0.12	880881	keystroke_Key.space	Key.space	n/a
441.521	0.1495	883042	keystroke_d	d	n/a
441.7155	0.105	883431	keystroke_i	i	n/a
441.8355	0.1055	883671	keystroke_s	s	n/a
442.1355	0.1205	884271	keystroke_t	t	n/a
442.241	0.12	884482	keystroke_r	r	n/a
442.436	0.09	884872	keystroke_i	i	n/a
442.736	0.074	885472	keystroke_b	b	n/a
442.931	0.059	885862	keystroke_u	u	n/a
443.05	0.105	886100	keystroke_t	t	n/a
443.276	0.044	886552	keystroke_e	e	n/a
443.305	0.105	886610	keystroke_Key.space	Key.space	n/a
443.696	0.0895	887392	keystroke_u	u	n/a
443.8	0.076	887600	keystroke_s	s	n/a
443.966	0.0895	887932	keystroke_e	e	n/a
444.221	0.104	888442	keystroke_f	f	n/a
444.415	0.075	888830	keystroke_u	u	n/a
444.67	0.075	889340	keystroke_l	l	n/a
444.985	0.0755	889970	keystroke_Key.enter	Key.enter	n/a
445.0665	8.576	890133	prompt	n/a	barely phoenix mention jerusalem\n
445.7355	0.045	891471	keystroke_b	b	n/a
445.9005	0.12	891801	keystroke_a	a	n/a
446.1105	0.105	892221	keystroke_r	r	n/a
446.2005	0.105	892401	keystroke_e	e	n/a
446.3805	0.09	892761	keystroke_l	l	n/a
446.5605	0.075	893121	keystroke_y	y	n/a
446.6055	0.135	893211	keystroke_Key.space	Key.space	n/a
446.8305	0.075	893661	keystroke_p	p	n/a
447.086	0.074	894172	keystroke_h	h	n/a
447.205	0.106	894410	keystroke_e	e	n/a
447.355	0.091	894710	keystroke_o	o	n/a
447.596	0.0745	895192	keystroke_n	n	n/a
447.7755	0.075	895551	keystroke_i	i	n/a
447.896	0.0895	895792	keystroke_c	c	n/a
448.1205	0.0905	896241	keystroke_Key.space	Key.space	n/a
448.7355	0.06	897471	keystroke_Key.backspace	Key.backspace	n/a
448.8705	0.075	897741	keystroke_Key.backspace	Key.backspace	n/a
448.9155	0.1055	897831	keystroke_x	x	n/a
449.17	0.106	898340	keystroke_Key.space	Key.space	n/a
449.741	0.075	899482	keystroke_m	m	n/a
449.831	0.09	899662	keystroke_e	e	n/a
449.936	0.06	899872	keystroke_n	n	n/a
450.071	0.074	900142	keystroke_t	t	n/a
450.161	0.075	900322	keystroke_i	i	n/a
450.3705	0.06	900741	keystroke_o	o	n/a
450.4155	0.0905	900831	keystroke_n	n	n/a
450.5205	0.09	901041	keystroke_Key.space	Key.space	n/a
451.166	0.105	902332	keystroke_j	j	n/a
451.661	0.1345	903322	keystroke_e	e	n/a
452.1405	0.1205	904281	keystroke_r	r	n/a
452.32	0.076	904640	keystroke_u	u	n/a
452.5905	0.105	905181	keystroke_s	s	n/a
452.861	0.1045	905722	keystroke_a	a	n/a
452.9805	0.1045	905961	keystroke_l	l	n/a
453.175	0.105	906350	keystroke_e	e	n/a
453.311	0.09	906622	keystroke_m	m	n/a
453.5805	0.06	907161	keystroke_Key.enter	Key.enter	n/a
453.647	5.7105	907294	prompt	n/a	hours international vanilla info\n
454.5555	0.0755	909111	keystroke_h	h	n/a
454.751	0.0895	909502	keystroke_o	o	n/a
454.9905	0.06	909981	keystroke_u	u	n/a
455.0955	0.105	910191	keystroke_r	r	n/a
455.2155	0.12	910431	keystroke_s	s	n/a
455.3205	0.105	910641	keystroke_Key.space	Key.space	n/a
455.56	0.106	911120	keystroke_i	i	n/a
455.651	0.089	911302	keystroke_n	n	n/a
456.026	0.0595	912052	keystroke_t	t	n/a
456.1905	0.165	912381	keystroke_e	e	n/a
456.3255	0.1055	912651	keystroke_r	r	n/a
456.4905	0.0755	912981	keystroke_n	n	n/a
456.581	0.09	913162	keystroke_a	a	n/a
456.7905	0.06	913581	keystroke_t	t	n/a
456.8805	0.075	913761	keystroke_i	i	n/a
457.06	0.09	914120	keystroke_o	o	n/a
457.106	0.1045	914212	keystroke_n	n	n/a
457.226	0.1045	914452	keystroke_a	a	n/a
457.421	0.0745	914842	keystroke_l	l	n/a
457.4805	0.09	914961	keystroke_Key.space	Key.space	n/a
457.6755	0.105	915351	keystroke_v	v	n/a
457.8105	0.1055	915621	keystroke_a	a	n/a
457.931	0.0745	915862	keystroke_n	n	n/a
458.0955	0.09	916191	keystroke_i	i	n/a
458.3205	0.06	916641	keystroke_l	l	n/a
458.4405	0.075	916881	keystroke_l	l	n/a
458.5005	0.1045	917001	keystroke_a	a	n/a
458.5755	0.1045	917151	keystroke_Key.space	Key.space	n/a
458.771	0.089	917542	keystroke_i	i	n/a
458.846	0.075	917692	keystroke_n	n	n/a
458.95	0.09	917900	keystroke_f	f	n/a
459.085	0.075	918170	keystroke_o	o	n/a
459.265	0.09	918530	keystroke_Key.enter	Key.enter	n/a
459.3615	7.226	918723	prompt	n/a	archives bill agree residents\n
460.1955	0.105	920391	keystroke_a	a	n/a
460.3905	0.075	920781	keystroke_r	r	n/a
460.721	0.045	921442	keystroke_h	h	n/a
461.0055	0.075	922011	keystroke_Key.backspace	Key.backspace	n/a
461.1105	0.0905	922221	keystroke_c	c	n/a
461.291	0.074	922582	keystroke_h	h	n/a
461.501	0.105	923002	keystroke_i	i	n/a
461.741	0.0745	923482	keystroke_v	v	n/a
461.9655	0.1345	923931	keystroke_e	e	n/a
462.085	0.121	924170	keystroke_s	s	n/a
462.1455	0.1345	924291	keystroke_Key.space	Key.space	n/a
462.34	0.0755	924680	keystroke_b	b	n/a
462.521	0.074	925042	keystroke_i	i	n/a
462.731	0.074	925462	keystroke_l	l	n/a
462.865	0.06	925730	keystroke_l	l	n/a
462.91	0.12	925820	keystroke_Key.space	Key.space	n/a
463.285	0.12	926570	keystroke_a	a	n/a
463.465	0.12	926930	keystroke_g	g	n/a
463.6155	0.1045	927231	keystroke_r	r	n/a
463.84	0.076	927680	keystroke_e	e	n/a
464.141	0.044	928282	keystroke_Key.space	Key.space	n/a
464.5605	0.105	929121	keystroke_Key.backspace	Key.backspace	n/a
464.651	0.1195	929302	keystroke_e	e	n/a
464.7405	0.105	929481	keystroke_Key.space	Key.space	n/a
465.1155	0.12	930231	keystroke_r	r	n/a
465.221	0.1045	930442	keystroke_e	e	n/a
465.385	0.121	930770	keystroke_s	s	n/a
465.551	0.09	931102	keystroke_i	i	n/a
465.73	0.09	931460	keystroke_d	d	n/a
465.956	0.0895	931912	keystroke_e	e	n/a
466.09	0.076	932180	keystroke_n	n	n/a
466.241	0.105	932482	keystroke_t	t	n/a
466.361	0.12	932722	keystroke_s	s	n/a
466.496	0.09	932992	keystroke_Key.enter	Key.enter	n/a
466.592	6.295	933184	prompt	n/a	colleagues jersey ment they'd\n
467.171	0.075	934342	keystroke_a	a	n/a
467.53	0.075	935060	keystroke_Key.backspace	Key.backspace	n/a
467.651	0.105	935302	keystroke_c	c	n/a
467.816	0.06	935632	keystroke_o	o	n/a
467.981	0.0595	935962	keystroke_l	l	n/a
468.1155	0.0905	936231	keystroke_l	l	n/a
468.235	0.121	936470	keystroke_e	e	n/a
468.34	0.1205	936680	keystroke_a	a	n/a
468.6855	0.0905	937371	keystroke_g	g	n/a
468.8505	0.09	937701	keystroke_u	u	n/a
469.0005	0.1505	938001	keystroke_e	e	n/a
469.165	0.1055	938330	keystroke_s	s	n/a
469.255	0.105	938510	keystroke_Key.space	Key.space	n/a
469.616	0.074	939232	keystroke_j	j	n/a
469.735	0.135	939470	keystroke_e	e	n/a
469.915	0.09	939830	keystroke_r	r	n/a
470.411	0.09	940822	keystroke_s	s	n/a
470.575	0.1055	941150	keystroke_e	e	n/a
470.7405	0.0755	941481	keystroke_y	y	n/a
470.831	0.09	941662	keystroke_Key.space	Key.space	n/a
471.026	0.09	942052	keystroke_m	m	n/a
471.086	0.09	942172	keystroke_e	e	n/a
471.266	0.06	942532	keystroke_n	n	n/a
471.386	0.09	942772	keystroke_t	t	n/a
471.461	0.134	942922	keystroke_Key.space	Key.space	n/a
471.581	0.075	943162	keystroke_t	t	n/a
471.716	0.0595	943432	keystroke_h	h	n/a
471.76	0.1055	943520	keystroke_e	e	n/a
471.9255	0.075	943851	keystroke_y	y	n/a
472.271	0.09	944542	keystroke_'	'	n/a
472.451	0.089	944902	keystroke_d	d	n/a
472.81	0.075	945620	keystroke_Key.enter	Key.enter	n/a
472.8915	11.411	945783	prompt	n/a	kennedy who'd distinguished informational\n
473.5915	0.0735	947183	keystroke_k	k	n/a
473.771	0.0895	947542	keystroke_k	k	n/a
473.906	0.0895	947812	keystroke_e	e	n/a
474.2055	0.06	948411	keystroke_Key.backspace	Key.backspace	n/a
474.3555	0.045	948711	keystroke_Key.backspace	Key.backspace	n/a
474.4305	0.09	948861	keystroke_e	e	n/a
474.5955	0.06	949191	keystroke_n	n	n/a
474.716	0.0745	949432	keystroke_n	n	n/a
474.955	0.075	949910	keystroke_e	e	n/a
475.181	0.0895	950362	keystroke_d	d	n/a
475.39	0.075	950780	keystroke_y	y	n/a
475.5105	0.1045	951021	keystroke_Key.space	Key.space	n/a
475.75	0.091	951500	keystroke_w	w	n/a
475.871	0.074	951742	keystroke_h	h	n/a
476.02	0.091	952040	keystroke_o	o	n/a
476.2755	0.09	952551	keystroke_'	'	n/a
476.4555	0.12	952911	keystroke_d	d	n/a
476.6655	0.105	953331	keystroke_Key.space	Key.space	n/a
477.1005	0.1045	954201	keystroke_d	d	n/a
477.2505	0.0755	954501	keystroke_i	i	n/a
477.3405	0.0905	954681	keystroke_s	s	n/a
478.631	0.0745	957262	keystroke_t	t	n/a
478.7655	0.1055	957531	keystroke_i	i	n/a
478.856	0.0745	957712	keystroke_n	n	n/a
479.2455	0.09	958491	keystroke_g	g	n/a
479.3805	0.0745	958761	keystroke_u	u	n/a
479.486	0.119	958972	keystroke_a	a	n/a
479.65	0.075	959300	keystroke_i	i	n/a
480.085	0.045	960170	keystroke_Key.backspace	Key.backspace	n/a
480.205	0.06	960410	keystroke_Key.backspace	Key.backspace	n/a
480.461	0.059	960922	keystroke_i	i	n/a
480.536	0.1045	961072	keystroke_s	s	n/a
480.6555	0.0755	961311	keystroke_h	h	n/a
480.7605	0.09	961521	keystroke_e	e	n/a
481.0005	0.105	962001	keystroke_d	d	n/a
481.0905	0.12	962181	keystroke_Key.space	Key.space	n/a
481.4055	0.105	962811	keystroke_i	i	n/a
481.4955	0.0905	962991	keystroke_n	n	n/a
481.7205	0.09	963441	keystroke_d	d	n/a
482.0355	0.0745	964071	keystroke_Key.backspace	Key.backspace	n/a
482.141	0.0895	964282	keystroke_f	f	n/a
482.275	0.0905	964550	keystroke_o	o	n/a
482.38	0.0905	964760	keystroke_r	r	n/a
482.86	0.09	965720	keystroke_m	m	n/a
483.025	0.075	966050	keystroke_a	a	n/a
483.2355	0.075	966471	keystroke_t	t	n/a
483.3405	0.0745	966681	keystroke_i	i	n/a
483.551	0.074	967102	keystroke_o	o	n/a
483.5805	0.12	967161	keystroke_n	n	n/a
483.76	0.0755	967520	keystroke_a	a	n/a
483.9105	0.09	967821	keystroke_l	l	n/a
484.1955	0.105	968391	keystroke_Key.enter	Key.enter	n/a
484.3065	7.646	968613	prompt	n/a	unknown cookie visibility partners\n
485.0205	0.1055	970041	keystroke_u	u	n/a
485.0955	0.09	970191	keystroke_n	n	n/a
485.3205	0.09	970641	keystroke_k	k	n/a
485.9655	0.075	971931	keystroke_n	n	n/a
486.1455	0.06	972291	keystroke_o	o	n/a
486.236	0.1045	972472	keystroke_w	w	n/a
486.3705	0.105	972741	keystroke_n	n	n/a
486.505	0.105	973010	keystroke_Key.space	Key.space	n/a
486.8055	0.0905	973611	keystroke_c	c	n/a
486.911	0.06	973822	keystroke_o	o	n/a
487.0305	0.09	974061	keystroke_o	o	n/a
487.361	0.09	974722	keystroke_k	k	n/a
487.646	0.09	975292	keystroke_i	i	n/a
487.766	0.12	975532	keystroke_e	e	n/a
487.931	0.09	975862	keystroke_Key.space	Key.space	n/a
488.156	0.105	976312	keystroke_c	c	n/a
488.6355	0.09	977271	keystroke_Key.backspace	Key.backspace	n/a
488.756	0.1045	977512	keystroke_v	v	n/a
488.9205	0.075	977841	keystroke_i	i	n/a
489.0105	0.0905	978021	keystroke_s	s	n/a
489.116	0.0745	978232	keystroke_i	i	n/a
489.3255	0.0755	978651	keystroke_b	b	n/a
489.5355	0.0755	979071	keystroke_i	i	n/a
489.7605	0.075	979521	keystroke_l	l	n/a
489.9555	0.0755	979911	keystroke_i	i	n/a
490.1355	0.075	980271	keystroke_t	t	n/a
490.3455	0.0905	980691	keystroke_y	y	n/a
490.4205	0.09	980841	keystroke_Key.space	Key.space	n/a
490.6905	0.09	981381	keystroke_p	p	n/a
490.8105	0.09	981621	keystroke_a	a	n/a
490.9605	0.075	981921	keystroke_r	r	n/a
491.1405	0.075	982281	keystroke_t	t	n/a
491.305	0.076	982610	keystroke_n	n	n/a
491.41	0.1205	982820	keystroke_e	e	n/a
491.5005	0.15	983001	keystroke_r	r	n/a
491.681	0.1345	983362	keystroke_s	s	n/a
491.86	0.0905	983720	keystroke_Key.enter	Key.enter	n/a
491.9645	5.973	983929	prompt	n/a	those're nova times licenses\n
492.626	0.09	985252	keystroke_t	t	n/a
492.73	0.06	985460	keystroke_h	h	n/a
492.88	0.1055	985760	keystroke_o	o	n/a
493	0.105	986000	keystroke_s	s	n/a
493.195	0.09	986390	keystroke_e	e	n/a
493.361	0.1045	986722	keystroke_'	'	n/a
493.586	0.149	987172	keystroke_r	r	n/a
493.705	0.151	987410	keystroke_e	e	n/a
493.84	0.1205	987680	keystroke_Key.space	Key.space	n/a
494.516	0.06	989032	keystroke_n	n	n/a
494.801	0.075	989602	keystroke_o	o	n/a
494.996	0.105	989992	keystroke_v	v	n/a
495.191	0.1045	990382	keystroke_a	a	n/a
495.3105	0.09	990621	keystroke_Key.space	Key.space	n/a
495.5205	0.0745	991041	keystroke_t	t	n/a
495.58	0.135	991160	keystroke_i	i	n/a
495.701	0.089	991402	keystroke_m	m	n/a
495.745	0.18	991490	keystroke_e	e	n/a
495.8955	0.1205	991791	keystroke_s	s	n/a
495.9705	0.1195	991941	keystroke_Key.space	Key.space	n/a
496.24	0.0755	992480	keystroke_l	l	n/a
496.4505	0.0755	992901	keystroke_i	i	n/a
496.495	0.09	992990	keystroke_c	c	n/a
496.7205	0.105	993441	keystroke_e	e	n/a
496.8405	0.09	993681	keystroke_n	n	n/a
496.9605	0.1205	993921	keystroke_s	s	n/a
497.4855	0.18	994971	keystroke_e	e	n/a
497.6805	0.1505	995361	keystroke_s	s	n/a
497.8455	0.09	995691	keystroke_Key.enter	Key.enter	n/a
497.942	6.4	995884	prompt	n/a	strings beaver anger photography\n
498.5505	0.0895	997101	keystroke_s	s	n/a
498.761	0.1045	997522	keystroke_t	t	n/a
498.8505	0.1345	997701	keystroke_r	r	n/a
499.4055	0.135	998811	keystroke_i	i	n/a
499.4955	0.09	998991	keystroke_n	n	n/a
499.631	0.1495	999262	keystroke_g	g	n/a
499.766	0.149	999532	keystroke_s	s	n/a
499.9	0.105	999800	keystroke_Key.space	Key.space	n/a
500.41	0.061	1000820	keystroke_b	b	n/a
500.44	0.1355	1000880	keystroke_e	e	n/a
500.5605	0.105	1001121	keystroke_a	a	n/a
500.845	0.105	1001690	keystroke_v	v	n/a
501.1155	0.1345	1002231	keystroke_e	e	n/a
501.235	0.1355	1002470	keystroke_r	r	n/a
501.325	0.1205	1002650	keystroke_Key.space	Key.space	n/a
501.5955	0.09	1003191	keystroke_a	a	n/a
501.715	0.09	1003430	keystroke_n	n	n/a
501.82	0.075	1003640	keystroke_g	g	n/a
501.985	0.12	1003970	keystroke_e	e	n/a
502.076	0.1195	1004152	keystroke_r	r	n/a
502.15	0.1055	1004300	keystroke_Key.space	Key.space	n/a
502.3455	0.075	1004691	keystroke_p	p	n/a
502.5705	0.075	1005141	keystroke_h	h	n/a
502.7205	0.09	1005441	keystroke_o	o	n/a
502.8105	0.0905	1005621	keystroke_t	t	n/a
502.9305	0.09	1005861	keystroke_o	o	n/a
503.2005	0.09	1006401	keystroke_g	g	n/a
503.3655	0.1505	1006731	keystroke_r	r	n/a
503.4855	0.0895	1006971	keystroke_a	a	n/a
503.59	0.06	1007180	keystroke_p	p	n/a
503.83	0.0755	1007660	keystroke_h	h	n/a
504.04	0.061	1008080	keystroke_y	y	n/a
504.2655	0.0745	1008531	keystroke_Key.enter	Key.enter	n/a
504.349	7.8835	1008698	prompt	n/a	complications standing women settled\n
505.18	0.09	1010360	keystroke_c	c	n/a
505.255	0.105	1010510	keystroke_o	o	n/a
505.345	0.06	1010690	keystroke_m	m	n/a
505.5555	0.1055	1011111	keystroke_p	p	n/a
506.065	0.091	1012130	keystroke_l	l	n/a
506.3055	0.09	1012611	keystroke_i	i	n/a
506.4255	0.0755	1012851	keystroke_c	c	n/a
506.5145	0.1205	1013029	keystroke_a	a	n/a
506.7705	0.0755	1013541	keystroke_t	t	n/a
506.8755	0.06	1013751	keystroke_i	i	n/a
507.0555	0.105	1014111	keystroke_o	o	n/a
507.2205	0.105	1014441	keystroke_s	s	n/a
507.3105	0.12	1014621	keystroke_Key.space	Key.space	n/a
507.6255	0.0455	1015251	keystroke_Key.backspace	Key.backspace	n/a
507.7605	0.06	1015521	keystroke_Key.backspace	Key.backspace	n/a
507.986	0.0745	1015972	keystroke_n	n	n/a
508.046	0.1195	1016092	keystroke_s	s	n/a
508.1355	0.12	1016271	keystroke_Key.space	Key.space	n/a
508.4655	0.15	1016931	keystroke_s	s	n/a
508.6905	0.12	1017381	keystroke_t	t	n/a
508.8255	0.0745	1017651	keystroke_a	a	n/a
