onset	duration	sample	value	key	prompt_text
10.287	14.4365	20574	prompt	n/a	the quick brown fox jumps over a lazy dog\n
15.619	0.041	31238	keystroke_t	t	n/a
15.705	0.12	31410	keystroke_h	h	n/a
15.78	0.075	31560	keystroke_e	e	n/a
15.93	0.075	31860	keystroke_Key.space	Key.space	n/a
16.35	0.09	32700	keystroke_q	q	n/a
16.53	0.09	33060	keystroke_u	u	n/a
16.995	0.075	33990	keystroke_i	i	n/a
17.1	0.105	34200	keystroke_c	c	n/a
17.4	0.12	34800	keystroke_k	k	n/a
17.49	0.12	34980	keystroke_Key.space	Key.space	n/a
17.805	0.06	35610	keystroke_b	b	n/a
18.045	0.061	36090	keystroke_r	r	n/a
18.495	0.091	36990	keystroke_o	o	n/a
18.826	0.089	37652	keystroke_w	w	n/a
19.23	0.136	38460	keystroke_n	n	n/a
19.366	0.104	38732	keystroke_Key.space	Key.space	n/a
19.5755	0.09	39151	keystroke_f	f	n/a
19.7105	0.075	39421	keystroke_o	o	n/a
19.8305	0.105	39661	keystroke_x	x	n/a
19.9655	0.075	39931	keystroke_Key.space	Key.space	n/a
20.0855	0.12	40171	keystroke_j	j	n/a
20.325	0.09	40650	keystroke_u	u	n/a
20.58	0.09	41160	keystroke_m	m	n/a
20.821	0.09	41642	keystroke_p	p	n/a
21.166	0.075	42332	keystroke_s	s	n/a
21.271	0.074	42542	keystroke_Key.space	Key.space	n/a
21.45	0.09	42900	keystroke_o	o	n/a
21.586	0.09	43172	keystroke_v	v	n/a
21.7805	0.105	43561	keystroke_e	e	n/a
21.8255	0.09	43651	keystroke_r	r	n/a
21.9455	0.09	43891	keystroke_Key.space	Key.space	n/a
22.0805	0.09	44161	keystroke_a	a	n/a
22.1855	0.1195	44371	keystroke_Key.space	Key.space	n/a
22.44	0.09	44880	keystroke_l	l	n/a
22.561	0.059	45122	keystroke_a	a	n/a
22.906	0.074	45812	keystroke_z	z	n/a
23.175	0.106	46350	keystroke_y	y	n/a
23.265	0.09	46530	keystroke_Key.space	Key.space	n/a
23.461	0.059	46922	keystroke_d	d	n/a
23.521	0.104	47042	keystroke_o	o	n/a
23.73	0.06	47460	keystroke_g	g	n/a
24.63	0.09	49260	keystroke_Key.enter	Key.enter	n/a
24.7405	9.343	49481	prompt	n/a	breed pages murder complete\n
25.755	0.105	51510	keystroke_b	b	n/a
26.611	0.089	53222	keystroke_r	r	n/a
26.775	0.09	53550	keystroke_e	e	n/a
26.91	0.09	53820	keystroke_e	e	n/a
27.15	0.061	54300	keystroke_d	d	n/a
27.24	0.12	54480	keystroke_Key.space	Key.space	n/a
27.466	0.089	54932	keystroke_p	p	n/a
27.57	0.105	55140	keystroke_a	a	n/a
27.78	0.075	55560	keystroke_g	g	n/a
27.9	0.075	55800	keystroke_e	e	n/a
28.096	0.074	56192	keystroke_s	s	n/a
28.275	0.105	56550	keystroke_Key.space	Key.space	n/a
28.695	0.091	57390	keystroke_m	m	n/a
28.935	0.105	57870	keystroke_u	u	n/a
29.115	0.105	58230	keystroke_r	r	n/a
29.37	0.09	58740	keystroke_d	d	n/a
29.566	0.074	59132	keystroke_e	e	n/a
29.61	0.09	59220	keystroke_r	r	n/a
29.715	0.12	59430	keystroke_Key.space	Key.space	n/a
30	0.076	60000	keystroke_c	c	n/a
30.12	0.15	60240	keystroke_o	o	n/a
30.255	0.256	60510	keystroke_m	m	n/a
30.81	0.076	61620	keystroke_p	p	n/a
31.021	0.104	62042	keystroke_l	l	n/a
31.08	0.106	62160	keystroke_e	e	n/a
31.155	0.105	62310	keystroke_t	t	n/a
31.275	0.075	62550	keystroke_e	e	n/a
31.605	0.075	63210	keystroke_d	d	n/a
33.3905	0.09	66781	keystroke_Key.backspace	Key.backspace	n/a
34.0205	0.06	68041	keystroke_Key.enter	Key.enter	n/a
34.0885	7.6145	68177	prompt	n/a	oliver donna fall buy\n
35.1	0.075	70200	keystroke_o	o	n/a
35.295	0.105	70590	keystroke_l	l	n/a
35.52	0.06	71040	keystroke_i	i	n/a
35.625	0.091	71250	keystroke_v	v	n/a
35.79	0.09	71580	keystroke_e	e	n/a
35.851	0.119	71702	keystroke_r	r	n/a
35.955	0.105	71910	keystroke_Key.space	Key.space	n/a
36.12	0.09	72240	keystroke_d	d	n/a
36.24	0.09	72480	keystroke_o	o	n/a
36.466	0.059	72932	keystroke_n	n	n/a
36.63	0.09	73260	keystroke_n	n	n/a
36.99	0.09	73980	keystroke_a	a	n/a
37.125	0.075	74250	keystroke_Key.space	Key.space	n/a
37.666	0.104	75332	keystroke_f	f	n/a
38.325	0.105	76650	keystroke_a	a	n/a
38.49	0.061	76980	keystroke_l	l	n/a
38.655	0.091	77310	keystroke_l	l	n/a
39.48	0.075	78960	keystroke_Key.space	Key.space	n/a
39.796	0.089	79592	keystroke_b	b	n/a
40.095	0.091	80190	keystroke_u	u	n/a
40.351	0.074	80702	keystroke_y	y	n/a
41.625	0.075	83250	keystroke_Key.enter	Key.enter	n/a
41.7085	13.014	83417	prompt	n/a	continued hadn't daisy neil\n
42.796	0.09	85592	keystroke_c	c	n/a
42.991	0.075	85982	keystroke_i	i	n/a
43.185	0.136	86370	keystroke_n	n	n/a
43.305	0.09	86610	keystroke_t	t	n/a
43.47	0.06	86940	keystroke_i	i	n/a
43.605	0.105	87210	keystroke_n	n	n/a
44.251	0.089	88502	keystroke_u	u	n/a
45.075	0.06	90150	keystroke_Key.backspace	Key.backspace	n/a
45.24	0.09	90480	keystroke_Key.backspace	Key.backspace	n/a
45.405	0.09	90810	keystroke_Key.backspace	Key.backspace	n/a
45.57	0.105	91140	keystroke_Key.backspace	Key.backspace	n/a
45.765	0.105	91530	keystroke_Key.backspace	Key.backspace	n/a
45.945	0.12	91890	keystroke_Key.backspace	Key.backspace	n/a
47.116	0.0895	94232	keystroke_o	o	n/a
47.3105	0.119	94621	keystroke_n	n	n/a
47.5355	0.075	95071	keystroke_t	t	n/a
47.655	0.0605	95310	keystroke_i	i	n/a
47.7745	0.136	95549	keystroke_n	n	n/a
48.0905	0.075	96181	keystroke_u	u	n/a
48.3905	0.075	96781	keystroke_e	e	n/a
48.8405	0.075	97681	keystroke_d	d	n/a
49.0345	0.09	98069	keystroke_Key.space	Key.space	n/a
49.3355	0.075	98671	keystroke_h	h	n/a
49.4245	0.075	98849	keystroke_a	a	n/a
49.6195	0.091	99239	keystroke_d	d	n/a
49.9195	0.076	99839	keystroke_n	n	n/a
50.6705	0.104	101341	keystroke_'	'	n/a
50.7905	0.059	101581	keystroke_t	t	n/a
51.0745	0.061	102149	keystroke_Key.space	Key.space	n/a
51.8545	0.091	103709	keystroke_d	d	n/a
52.3505	0.075	104701	keystroke_a	a	n/a
52.5755	0.06	105151	keystroke_i	i	n/a
52.6955	0.105	105391	keystroke_s	s	n/a
52.9945	0.105	105989	keystroke_y	y	n/a
53.1895	0.075	106379	keystroke_Key.space	Key.space	n/a
53.4005	0.105	106801	keystroke_n	n	n/a
53.5195	0.06	107039	keystroke_e	e	n/a
53.6545	0.076	107309	keystroke_i	i	n/a
53.8655	0.075	107731	keystroke_l	l	n/a
54.6455	0.074	109291	keystroke_Key.enter	Key.enter	n/a
54.7285	8.829	109457	prompt	n/a	capital normally small safari\n
55.7095	0.09	111419	keystroke_c	c	n/a
55.9355	0.075	111871	keystroke_a	a	n/a
56.2805	0.105	112561	keystroke_p	p	n/a
56.5495	0.091	113099	keystroke_i	i	n/a
56.9105	0.105	113821	keystroke_t	t	n/a
57.3295	0.061	114659	keystroke_a	a	n/a
57.4955	0.135	114991	keystroke_l	l	n/a
57.7205	0.074	115441	keystroke_Key.space	Key.space	n/a
58.2005	0.105	116401	keystroke_n	n	n/a
58.4555	0.075	116911	keystroke_o	o	n/a
58.7105	0.06	117421	keystroke_r	r	n/a
58.8755	0.074	117751	keystroke_m	m	n/a
59.0245	0.076	118049	keystroke_a	a	n/a
59.1605	0.09	118321	keystroke_l	l	n/a
59.3545	0.09	118709	keystroke_l	l	n/a
59.6255	0.15	119251	keystroke_y	y	n/a
59.7445	0.12	119489	keystroke_Key.space	Key.space	n/a
60.1655	0.075	120331	keystroke_s	s	n/a
60.3005	0.105	120601	keystroke_m	m	n/a
60.4205	0.06	120841	keystroke_a	a	n/a
60.5555	0.09	121111	keystroke_l	l	n/a
60.7505	0.104	121501	keystroke_l	l	n/a
60.9605	0.09	121921	keystroke_Key.space	Key.space	n/a
61.4555	0.105	122911	keystroke_s	s	n/a
61.6355	0.09	123271	keystroke_a	a	n/a
61.9055	0.09	123811	keystroke_f	f	n/a
62.0555	0.075	124111	keystroke_a	a	n/a
62.3255	0.06	124651	keystroke_r	r	n/a
62.5205	0.075	125041	keystroke_i	i	n/a
63.4805	0.075	126961	keystroke_Key.enter	Key.enter	n/a
63.5625	8.9645	127125	prompt	n/a	regards margin wrote scanned\n
64.3955	0.075	128791	keystroke_r	r	n/a
64.5755	0.075	129151	keystroke_e	e	n/a
64.7855	0.075	129571	keystroke_g	g	n/a
64.9055	0.075	129811	keystroke_a	a	n/a
64.9955	0.105	129991	keystroke_r	r	n/a
65.2655	0.12	130531	keystroke_d	d	n/a
65.4005	0.105	130801	keystroke_s	s	n/a
66	0.075	132000	keystroke_Key.space	Key.space	n/a
66.405	0.12	132810	keystroke_m	m	n/a
66.51	0.06	133020	keystroke_a	a	n/a
66.795	0.075	133590	keystroke_r	r	n/a
67.02	0.075	134040	keystroke_g	g	n/a
67.2	0.06	134400	keystroke_i	i	n/a
67.38	0.12	134760	keystroke_n	n	n/a
67.65	0.09	135300	keystroke_Key.space	Key.space	n/a
68.1	0.075	136200	keystroke_w	w	n/a
68.31	0.075	136620	keystroke_r	r	n/a
68.61	0.075	137220	keystroke_o	o	n/a
68.76	0.09	137520	keystroke_t	t	n/a
69.915	0.075	139830	keystroke_e	e	n/a
70.185	0.09	140370	keystroke_Key.space	Key.space	n/a
70.575	0.075	141150	keystroke_s	s	n/a
70.755	0.105	141510	keystroke_c	c	n/a
70.905	0.105	141810	keystroke_a	a	n/a
71.115	0.06	142230	keystroke_n	n	n/a
71.28	0.075	142560	keystroke_n	n	n/a
71.37	0.06	142740	keystroke_e	e	n/a
71.55	0.075	143100	keystroke_d	d	n/a
72.435	0.09	144870	keystroke_Key.enter	Key.enter	n/a
72.5325	8.635	145065	prompt	n/a	montreal found gear plus\n
73.335	0.105	146670	keystroke_m	m	n/a
74.01	0.09	148020	keystroke_o	o	n/a
74.205	0.076	148410	keystroke_n	n	n/a
74.43	0.0895	148860	keystroke_t	t	n/a
74.6695	0.1055	149339	keystroke_r	r	n/a
74.8645	0.075	149729	keystroke_e	e	n/a
75.1195	0.075	150239	keystroke_a	a	n/a
75.2845	0.105	150569	keystroke_l	l	n/a
75.5995	0.09	151199	keystroke_Key.space	Key.space	n/a
75.7345	0.106	151469	keystroke_f	f	n/a
76.8445	0.09	153689	keystroke_o	o	n/a
77.2345	0.075	154469	keystroke_u	u	n/a
77.8795	0.09	155759	keystroke_n	n	n/a
77.9705	0.074	155941	keystroke_d	d	n/a
78.0895	0.09	156179	keystroke_Key.space	Key.space	n/a
78.4195	0.075	156839	keystroke_g	g	n/a
78.6005	0.074	157201	keystroke_e	e	n/a
78.7645	0.06	157529	keystroke_a	a	n/a
78.8095	0.075	157619	keystroke_r	r	n/a
79.3045	0.09	158609	keystroke_Key.space	Key.space	n/a
79.6945	0.105	159389	keystroke_p	p	n/a
79.9055	0.119	159811	keystroke_l	l	n/a
80.1155	0.089	160231	keystroke_u	u	n/a
80.2195	0.09	160439	keystroke_s	s	n/a
81.0745	0.09	162149	keystroke_Key.enter	Key.enter	n/a
81.175	10.9725	162350	prompt	n/a	silent gage altered native\n
81.9145	0.09	163829	keystroke_s	s	n/a
82.0345	0.09	164069	keystroke_i	i	n/a
82.2445	0.09	164489	keystroke_l	l	n/a
82.5895	0.075	165179	keystroke_e	e	n/a
82.7245	0.09	165449	keystroke_n	n	n/a
82.8595	0.061	165719	keystroke_t	t	n/a
83.1445	0.075	166289	keystroke_Key.space	Key.space	n/a
83.4295	0.09	166859	keystroke_g	g	n/a
83.5645	0.09	167129	keystroke_a	a	n/a
83.7745	0.106	167549	keystroke_g	g	n/a
83.9845	0.09	167969	keystroke_e	e	n/a
84.1945	0.045	168389	keystroke_Key.space	Key.space	n/a
84.7195	0.06	169439	keystroke_a	a	n/a
84.8545	0.105	169709	keystroke_l	l	n/a
84.9895	0.09	169979	keystroke_t	t	n/a
85.1845	0.075	170369	keystroke_e	e	n/a
85.2445	0.091	170489	keystroke_r	r	n/a
85.3355	0.074	170671	keystroke_e	e	n/a
85.5295	0.075	171059	keystroke_d	d	n/a
85.7245	0.105	171449	keystroke_Key.space	Key.space	n/a
86.1605	0.104	172321	keystroke_n	n	n/a
86.2945	0.075	172589	keystroke_a	a	n/a
86.4605	0.104	172921	keystroke_t	t	n/a
86.5945	0.136	173189	keystroke_e	e	n/a
87.7345	0.075	175469	keystroke_Key.backspace	Key.backspace	n/a
88.2305	0.089	176461	keystroke_i	i	n/a
88.2905	0.09	176581	keystroke_v	v	n/a
88.8155	0.059	177631	keystroke_e	e	n/a
92.1185	0.026	184237	keystroke_Key.enter	Key.enter	n/a
92.1515	10.3305	184303	prompt	n/a	drop kansas longest winston\n
92.9855	0.075	185971	keystroke_d	d	n/a
93.2555	0.075	186511	keystroke_r	r	n/a
93.6455	0.09	187291	keystroke_o	o	n/a
93.8845	0.1055	187769	keystroke_p	p	n/a
94.065	0.12	188130	keystroke_Key.space	Key.space	n/a
94.62	0.075	189240	keystroke_k	k	n/a
94.695	0.075	189390	keystroke_a	a	n/a
94.845	0.09	189690	keystroke_n	n	n/a
95.025	0.045	190050	keystroke_s	s	n/a
95.145	0.06	190290	keystroke_s	s	n/a
96.15	0.03	192300	keystroke_Key.backspace	Key.backspace	n/a
96.166	0.029	192332	keystroke_a	a	n/a
96.285	0.105	192570	keystroke_s	s	n/a
97.26	0.075	194520	keystroke_Key.space	Key.space	n/a
97.605	0.15	195210	keystroke_l	l	n/a
97.92	0.075	195840	keystroke_o	o	n/a
98.16	0.09	196320	keystroke_n	n	n/a
98.445	0.075	196890	keystroke_g	g	n/a
98.625	0.075	197250	keystroke_e	e	n/a
98.865	0.12	197730	keystroke_s	s	n/a
99.06	0.075	198120	keystroke_t	t	n/a
99.33	0.015	198660	keystroke_Key.space	Key.space	n/a
100.2	0.09	200400	keystroke_w	w	n/a
100.41	0.075	200820	keystroke_i	i	n/a
100.74	0.09	201480	keystroke_n	n	n/a
100.86	0.105	201720	keystroke_s	s	n/a
100.995	0.09	201990	keystroke_t	t	n/a
101.13	0.075	202260	keystroke_o	o	n/a
101.31	0.06	202620	keystroke_n	n	n/a
102.36	0.12	204720	keystroke_Key.enter	Key.enter	n/a
102.4875	9.8045	204975	prompt	n/a	headset namespace supplier dictionary\n
103.515	0.105	207030	keystroke_h	h	n/a
103.845	0.075	207690	keystroke_e	e	n/a
103.965	0.06	207930	keystroke_a	a	n/a
104.445	0.075	208890	keystroke_d	d	n/a
104.595	0.075	209190	keystroke_s	s	n/a
104.805	0.09	209610	keystroke_e	e	n/a
105	0.075	210000	keystroke_t	t	n/a
105.105	0.105	210210	keystroke_Key.space	Key.space	n/a
105.36	0.09	210720	keystroke_n	n	n/a
105.435	0.09	210870	keystroke_a	a	n/a
105.645	0.075	211290	keystroke_m	m	n/a
105.735	0.06	211470	keystroke_e	e	n/a
106.005	0.075	212010	keystroke_s	s	n/a
106.26	0.075	212520	keystroke_p	p	n/a
106.59	0.06	213180	keystroke_a	a	n/a
106.8	0.09	213600	keystroke_c	c	n/a
107.01	0.06	214020	keystroke_e	e	n/a
107.175	0.09	214350	keystroke_Key.space	Key.space	n/a
107.505	0.076	215010	keystroke_s	s	n/a
107.7595	0.1055	215519	keystroke_u	u	n/a
108	0.075	216000	keystroke_p	p	n/a
108.15	0.105	216300	keystroke_p	p	n/a
108.36	0.105	216720	keystroke_l	l	n/a
108.585	0.06	217170	keystroke_i	i	n/a
108.795	0.09	217590	keystroke_e	e	n/a
108.87	0.075	217740	keystroke_r	r	n/a
109.71	0.06	219420	keystroke_Key.space	Key.space	n/a
109.83	0.075	219660	keystroke_d	d	n/a
109.95	0.09	219900	keystroke_i	i	n/a
110.1	0.075	220200	keystroke_c	c	n/a
110.3095	0.06	220619	keystroke_t	t	n/a
110.3845	0.165	220769	keystroke_i	i	n/a
110.4455	0.164	220891	keystroke_o	o	n/a
110.5645	0.105	221129	keystroke_n	n	n/a
110.7445	0.045	221489	keystroke_a	a	n/a
111.045	0.0445	222090	keystroke_r	r	n/a
111.2395	0.045	222479	keystroke_y	y	n/a
112.2145	0.075	224429	keystroke_Key.enter	Key.enter	n/a
112.2965	9.6705	224593	prompt	n/a	atlas magnificent chemical explain\n
113.6695	0.06	227339	keystroke_a	a	n/a
113.9995	0.075	227999	keystroke_t	t	n/a
114.1655	0.089	228331	keystroke_l	l	n/a
114.2695	0.03	228539	keystroke_a	a	n/a
114.5695	0.09	229139	keystroke_s	s	n/a
114.7045	0.075	229409	keystroke_Key.space	Key.space	n/a
114.9445	0.09	229889	keystroke_m	m	n/a
115.0495	0.045	230099	keystroke_a	a	n/a
115.3195	0.06	230639	keystroke_g	g	n/a
115.4845	0.09	230969	keystroke_n	n	n/a
115.6495	0.105	231299	keystroke_i	i	n/a
115.7695	0.075	231539	keystroke_f	f	n/a
115.9045	0.075	231809	keystroke_i	i	n/a
116.6845	0.075	233369	keystroke_c	c	n/a
116.8795	0.046	233759	keystroke_e	e	n/a
116.9845	0.09	233969	keystroke_n	n	n/a
117.1195	0.045	234239	keystroke_t	t	n/a
117.5845	0.075	235169	keystroke_Key.space	Key.space	n/a
117.7945	0.09	235589	keystroke_c	c	n/a
117.9145	0.09	235829	keystroke_h	h	n/a
118.0945	0.06	236189	keystroke_e	e	n/a
118.1995	0.09	236399	keystroke_m	m	n/a
118.3645	0.09	236729	keystroke_i	i	n/a
118.4995	0.12	236999	keystroke_c	c	n/a
118.6045	0.06	237209	keystroke_a	a	n/a
118.7105	0.119	237421	keystroke_l	l	n/a
118.8145	0.135	237629	keystroke_Key.space	Key.space	n/a
119.0995	0.06	238199	keystroke_e	e	n/a
119.3255	0.09	238651	keystroke_x	x	n/a
119.8045	0.091	239609	keystroke_p	p	n/a
120.0295	0.09	240059	keystroke_l	l	n/a
120.5855	0.029	241171	keystroke_a	a	n/a
120.7345	0.06	241469	keystroke_i	i	n/a
120.9445	0.06	241889	keystroke_n	n	n/a
121.8895	0.075	243779	keystroke_Key.enter	Key.enter	n/a
121.972	12.145	243944	prompt	n/a	penetration pension stud socks\n
122.7895	0.09	245579	keystroke_p	p	n/a
122.9405	0.075	245881	keystroke_e	e	n/a
123.0605	0.104	246121	keystroke_n	n	n/a
123.1195	0.091	246239	keystroke_e	e	n/a
123.3295	0.09	246659	keystroke_t	t	n/a
123.5245	0.075	247049	keystroke_r	r	n/a
123.7795	0.091	247559	keystroke_t	t	n/a
124.0955	0.089	248191	keystroke_i	i	n/a
124.2605	0.104	248521	keystroke_o	o	n/a
124.4845	0.225	248969	keystroke_n	n	n/a
125.4745	0.09	250949	keystroke_Key.backspace	Key.backspace	n/a
125.6695	0.075	251339	keystroke_Key.backspace	Key.backspace	n/a
125.8345	0.09	251669	keystroke_Key.backspace	Key.backspace	n/a
126.0145	0.09	252029	keystroke_Key.backspace	Key.backspace	n/a
126.1945	0.075	252389	keystroke_Key.backspace	Key.backspace	n/a
126.8695	0.091	253739	keystroke_r	r	n/a
127.0795	0.075	254159	keystroke_a	a	n/a
127.2895	0.075	254579	keystroke_t	t	n/a
127.4395	0.09	254879	keystroke_i	i	n/a
127.6345	0.075	255269	keystroke_o	o	n/a
127.8155	0.119	255631	keystroke_n	n	n/a
128.0095	0.09	256019	keystroke_Key.space	Key.space	n/a
128.4155	0.104	256831	keystroke_p	p	n/a
128.5205	0.074	257041	keystroke_e	e	n/a
128.6855	0.09	257371	keystroke_n	n	n/a
128.7905	0.089	257581	keystroke_s	s	n/a
128.9395	0.075	257879	keystroke_i	i	n/a
129.1195	0.075	258239	keystroke_o	o	n/a
129.2845	0.105	258569	keystroke_n	n	n/a
129.5545	0.075	259109	keystroke_Key.space	Key.space	n/a
130.2005	0.119	260401	keystroke_s	s	n/a
130.4095	0.076	260819	keystroke_t	t	n/a
130.7255	0.089	261451	keystroke_u	u	n/a
131.4005	0.089	262801	keystroke_d	d	n/a
131.5645	0.09	263129	keystroke_Key.space	Key.space	n/a
131.8645	0.076	263729	keystroke_s	s	n/a
132.0305	0.089	264061	keystroke_o	o	n/a
132.2105	0.059	264421	keystroke_c	c	n/a
132.3155	0.089	264631	keystroke_k	k	n/a
132.6305	0.075	265261	keystroke_s	s	n/a
134.0095	0.105	268019	keystroke_Key.enter	Key.enter	n/a
134.123	9.384	268246	prompt	n/a	jungle completed colony last\n
134.9555	0.105	269911	keystroke_j	j	n/a
135.1945	0.076	270389	keystroke_u	u	n/a
135.4055	0.09	270811	keystroke_n	n	n/a
135.5855	0.075	271171	keystroke_g	g	n/a
135.7055	0.12	271411	keystroke_l	l	n/a
135.7945	0.075	271589	keystroke_e	e	n/a
135.9445	0.09	271889	keystroke_Key.space	Key.space	n/a
136.5755	0.075	273151	keystroke_c	c	n/a
136.8455	0.105	273691	keystroke_o	o	n/a
137.0555	0.104	274111	keystroke_m	m	n/a
137.2055	0.105	274411	keystroke_p	p	n/a
137.4445	0.12	274889	keystroke_l	l	n/a
137.5205	0.105	275041	keystroke_e	e	n/a
137.7905	0.089	275581	keystroke_t	t	n/a
138.1205	0.074	276241	keystroke_e	e	n/a
138.8105	0.074	277621	keystroke_d	d	n/a
139.0045	0.076	278009	keystroke_Key.space	Key.space	n/a
139.3355	0.09	278671	keystroke_c	c	n/a
139.4405	0.09	278881	keystroke_o	o	n/a
139.6355	0.105	279271	keystroke_l	l	n/a
139.8445	0.091	279689	keystroke_o	o	n/a
140.0405	0.074	280081	keystroke_n	n	n/a
140.3255	0.15	280651	keystroke_y	y	n/a
140.4445	0.106	280889	keystroke_Key.space	Key.space	n/a
140.6555	0.089	281311	keystroke_l	l	n/a
141.0595	0.091	282119	keystroke_a	a	n/a
141.2855	0.105	282571	keystroke_s	s	n/a
141.5405	0.074	283081	keystroke_t	t	n/a
143.4295	0.075	286859	keystroke_Key.enter	Key.enter	n/a
143.5125	12.88	287025	prompt	n/a	sandra lots louisville packs\n
144.1355	0.06	288271	keystroke_s	s	n/a
144.3305	0.03	288661	keystroke_a	a	n/a
144.5255	0.09	289051	keystroke_n	n	n/a
144.7055	0.075	289411	keystroke_d	d	n/a
144.9445	0.046	289889	keystroke_r	r	n/a
145.1105	0.075	290221	keystroke_a	a	n/a
145.4255	0.09	290851	keystroke_Key.space	Key.space	n/a
145.8755	0.09	291751	keystroke_l	l	n/a
146.1005	0.075	292201	keystroke_o	o	n/a
146.1605	0.09	292321	keystroke_t	t	n/a
146.3405	0.09	292681	keystroke_s	s	n/a
146.4905	0.075	292981	keystroke_Key.space	Key.space	n/a
146.6855	0.105	293371	keystroke_l	l	n/a
147.0155	0.09	294031	keystroke_o	o	n/a
147.2395	0.061	294479	keystroke_i	i	n/a
148.8605	0.089	297721	keystroke_Key.backspace	Key.backspace	n/a
150.7505	0.075	301501	keystroke_u	u	n/a
150.9155	0.06	301831	keystroke_i	i	n/a
151.2305	0.09	302461	keystroke_s	s	n/a
152.2655	0.06	304531	keystroke_v	v	n/a
152.4155	0.075	304831	keystroke_i	i	n/a
152.6105	0.09	305221	keystroke_l	l	n/a
152.8055	0.09	305611	keystroke_l	l	n/a
152.9255	0.075	305851	keystroke_e	e	n/a
153.1055	0.075	306211	keystroke_Key.space	Key.space	n/a
153.4505	0.09	306901	keystroke_p	p	n/a
154.5905	0.06	309181	keystroke_a	a	n/a
154.9805	0.075	309961	keystroke_c	c	n/a
155.0705	0.09	310141	keystroke_k	k	n/a
155.3705	0.09	310741	keystroke_s	s	n/a
156.3155	0.075	312631	keystroke_Key.enter	Key.enter	n/a
156.398	9.639	312796	prompt	n/a	tool diabetes collectible continuing\n
157.2155	0.09	314431	keystroke_t	t	n/a
157.4105	0.06	314821	keystroke_o	o	n/a
157.5605	0.09	315121	keystroke_o	o	n/a
157.7855	0.105	315571	keystroke_l	l	n/a
157.9205	0.105	315841	keystroke_Key.space	Key.space	n/a
158.1005	0.075	316201	keystroke_d	d	n/a
158.2055	0.09	316411	keystroke_i	i	n/a
158.3255	0.06	316651	keystroke_a	a	n/a
158.5955	0.075	317191	keystroke_b	b	n/a
158.7905	0.06	317581	keystroke_e	e	n/a
159.0155	0.045	318031	keystroke_t	t	n/a
159.1355	0.09	318271	keystroke_e	e	n/a
159.36	0.0605	318720	keystroke_s	s	n/a
159.4955	0.105	318991	keystroke_Key.space	Key.space	n/a
159.7505	0.09	319501	keystroke_c	c	n/a
159.9305	0.075	319861	keystroke_o	o	n/a
160.11	0.09	320220	keystroke_l	l	n/a
160.3355	0.0595	320671	keystroke_l	l	n/a
160.425	0.06	320850	keystroke_e	e	n/a
161.235	0.09	322470	keystroke_c	c	n/a
161.445	0.075	322890	keystroke_t	t	n/a
161.76	0.0605	323520	keystroke_i	i	n/a
161.8505	0.0745	323701	keystroke_b	b	n/a
161.985	0.09	323970	keystroke_l	l	n/a
162.076	0.044	324152	keystroke_e	e	n/a
162.615	0.09	325230	keystroke_Key.space	Key.space	n/a
162.93	0.09	325860	keystroke_c	c	n/a
163.125	0.135	326250	keystroke_o	o	n/a
163.845	0.105	327690	keystroke_n	n	n/a
164.04	0.06	328080	keystroke_t	t	n/a
164.16	0.075	328320	keystroke_i	i	n/a
164.28	0.105	328560	keystroke_n	n	n/a
164.535	0.075	329070	keystroke_u	u	n/a
164.73	0.075	329460	keystroke_i	i	n/a
164.94	0.075	329880	keystroke_n	n	n/a
165.15	0.045	330300	keystroke_g	g	n/a
165.9455	0.0895	331891	keystroke_Key.enter	Key.enter	n/a
166.042	8.5155	332084	prompt	n/a	pointing newbie intake reading\n
166.8	0.105	333600	keystroke_p	p	n/a
167.01	0.09	334020	keystroke_o	o	n/a
167.22	0.075	334440	keystroke_i	i	n/a
167.67	0.09	335340	keystroke_n	n	n/a
167.925	0.06	335850	keystroke_t	t	n/a
168.045	0.075	336090	keystroke_i	i	n/a
168.225	0.09	336450	keystroke_n	n	n/a
168.345	0.075	336690	keystroke_g	g	n/a
168.465	0.09	336930	keystroke_Key.space	Key.space	n/a
168.69	0.075	337380	keystroke_n	n	n/a
168.795	0.09	337590	keystroke_e	e	n/a
168.87	0.09	337740	keystroke_w	w	n/a
169.335	0.06	338670	keystroke_b	b	n/a
169.44	0.075	338880	keystroke_i	i	n/a
169.59	0.06	339180	keystroke_e	e	n/a
170.04	0.06	340080	keystroke_Key.space	Key.space	n/a
170.16	0.12	340320	keystroke_i	i	n/a
170.31	0.105	340620	keystroke_n	n	n/a
170.655	0.06	341310	keystroke_t	t	n/a
171.435	0.075	342870	keystroke_a	a	n/a
171.615	0.075	343230	keystroke_k	k	n/a
171.735	0.06	343470	keystroke_e	e	n/a
171.9	0.09	343800	keystroke_Key.space	Key.space	n/a
172.125	0.06	344250	keystroke_r	r	n/a
172.155	0.09	344310	keystroke_e	e	n/a
172.62	0.06	345240	keystroke_a	a	n/a
172.815	0.075	345630	keystroke_d	d	n/a
173.25	0.075	346500	keystroke_i	i	n/a
173.445	0.09	346890	keystroke_n	n	n/a
173.58	0.06	347160	keystroke_g	g	n/a
174.48	0.075	348960	keystroke_Key.enter	Key.enter	n/a
174.5635	6.3685	349127	prompt	n/a	dock attack wage stranger\n
175.23	0.075	350460	keystroke_d	d	n/a
175.38	0.075	350760	keystroke_o	o	n/a
175.485	0.09	350970	keystroke_c	c	n/a
175.635	0.09	351270	keystroke_k	k	n/a
175.8	0.105	351600	keystroke_Key.space	Key.space	n/a
175.98	0.09	351960	keystroke_a	a	n/a
176.205	0.075	352410	keystroke_t	t	n/a
176.325	0.105	352650	keystroke_t	t	n/a
176.52	0.075	353040	keystroke_a	a	n/a
176.715	0.075	353430	keystroke_c	c	n/a
177.135	0.105	354270	keystroke_k	k	n/a
177.3	0.105	354600	keystroke_Key.space	Key.space	n/a
177.495	0.09	354990	keystroke_w	w	n/a
177.645	0.12	355290	keystroke_a	a	n/a
177.885	0.09	355770	keystroke_g	g	n/a
178.035	0.075	356070	keystroke_e	e	n/a
178.29	0.045	356580	keystroke_Key.space	Key.space	n/a
178.41	0.09	356820	keystroke_s	s	n/a
178.605	0.09	357210	keystroke_t	t	n/a
178.8	0.105	357600	keystroke_r	r	n/a
178.98	0.09	357960	keystroke_a	a	n/a
179.205	0.09	358410	keystroke_n	n	n/a
179.31	0.075	358620	keystroke_g	g	n/a
179.46	0.105	358920	keystroke_e	e	n/a
179.535	0.075	359070	keystroke_r	r	n/a
180.825	0.105	361650	keystroke_Key.enter	Key.enter	n/a
180.9385	16.9585	361877	prompt	n/a	oasis affects reality presently\n
182.115	0.09	364230	keystroke_o	o	n/a
182.28	0.06	364560	keystroke_a	a	n/a
182.475	0.06	364950	keystroke_s	s	n/a
182.595	0.09	365190	keystroke_i	i	n/a
182.686	0.089	365372	keystroke_s	s	n/a
182.91	0.09	365820	keystroke_Key.space	Key.space	n/a
183.15	0.075	366300	keystroke_a	a	n/a
183.345	0.06	366690	keystroke_f	f	n/a
183.45	0.09	366900	keystroke_f	f	n/a
183.63	0.09	367260	keystroke_e	e	n/a
183.915	0.105	367830	keystroke_c	c	n/a
184.095	0.105	368190	keystroke_t	t	n/a
184.62	0.09	369240	keystroke_s	s	n/a
184.77	0.09	369540	keystroke_Key.space	Key.space	n/a
185.04	0.105	370080	keystroke_r	r	n/a
185.115	0.075	370230	keystroke_e	e	n/a
185.415	0.03	370830	keystroke_a	a	n/a
185.97	0.105	371940	keystroke_a	a	n/a
186.09	0.105	372180	keystroke_l	l	n/a
186.3	0.09	372600	keystroke_i	i	n/a
186.405	0.075	372810	keystroke_t	t	n/a
186.645	0.06	373290	keystroke_y	y	n/a
186.84	0.09	373680	keystroke_Key.space	Key.space	n/a
187.185	0.06	374370	keystroke_p	p	n/a
187.246	0.089	374492	keystroke_r	r	n/a
187.32	0.075	374640	keystroke_e	e	n/a
187.65	0.105	375300	keystroke_s	s	n/a
188.055	0.075	376110	keystroke_e	e	n/a
188.205	0.09	376410	keystroke_n	n	n/a
188.31	0.06	376620	keystroke_t	t	n/a
188.415	0.09	376830	keystroke_l	l	n/a
188.67	0.06	377340	keystroke_y	y	n/a
191.208	0.027	382416	keystroke_Key.backspace	Key.backspace	n/a
191.325	0.09	382650	keystroke_Key.backspace	Key.backspace	n/a
191.49	0.09	382980	keystroke_Key.backspace	Key.backspace	n/a
191.67	0.075	383340	keystroke_Key.backspace	Key.backspace	n/a
191.835	0.075	383670	keystroke_Key.backspace	Key.backspace	n/a
192.015	0.075	384030	keystroke_Key.backspace	Key.backspace	n/a
192.18	0.075	384360	keystroke_Key.backspace	Key.backspace	n/a
192.36	0.075	384720	keystroke_Key.backspace	Key.backspace	n/a
192.54	0.075	385080	keystroke_Key.backspace	Key.backspace	n/a
192.72	0.06	385440	keystroke_Key.backspace	Key.backspace	n/a
192.885	0.06	385770	keystroke_Key.backspace	Key.backspace	n/a
193.05	0.075	386100	keystroke_Key.backspace	Key.backspace	n/a
193.215	0.09	386430	keystroke_Key.backspace	Key.backspace	n/a
193.425	0.075	386850	keystroke_Key.backspace	Key.backspace	n/a
193.62	0.06	387240	keystroke_Key.backspace	Key.backspace	n/a
194.4	0.105	388800	keystroke_l	l	n/a
194.67	0.09	389340	keystroke_i	i	n/a
194.821	0.074	389642	keystroke_t	t	n/a
195.045	0.135	390090	keystroke_y	y	n/a
195.15	0.105	390300	keystroke_Key.space	Key.space	n/a
195.375	0.075	390750	keystroke_p	p	n/a
195.555	0.105	391110	keystroke_r	r	n/a
195.63	0.0895	391260	keystroke_e	e	n/a
195.8395	0.106	391679	keystroke_s	s	n/a
196.1395	0.075	392279	keystroke_e	e	n/a
196.2745	0.09	392549	keystroke_n	n	n/a
196.3945	0.06	392789	keystroke_t	t	n/a
196.4995	0.09	392999	keystroke_l	l	n/a
196.7245	0.0605	393449	keystroke_y	y	n/a
197.8195	0.075	395639	keystroke_Key.enter	Key.enter	n/a
197.9055	12.786	395811	prompt	n/a	discipline implementing primarily survival\n
198.6745	0.075	397349	keystroke_d	d	n/a
198.8395	0.045	397679	keystroke_i	i	n/a
198.8995	0.075	397799	keystroke_s	s	n/a
199.2745	0.09	398549	keystroke_c	c	n/a
199.4095	0.06	398819	keystroke_i	i	n/a
199.6345	0.09	399269	keystroke_p	p	n/a
199.8595	0.105	399719	keystroke_l	l	n/a
200.0695	0.075	400139	keystroke_i	i	n/a
200.2645	0.121	400529	keystroke_n	n	n/a
200.3545	0.075	400709	keystroke_e	e	n/a
200.4745	0.105	400949	keystroke_Key.space	Key.space	n/a
200.7145	0.09	401429	keystroke_i	i	n/a
201.2095	0.09	402419	keystroke_m	m	n/a
201.4345	0.09	402869	keystroke_p	p	n/a
201.7045	0.09	403409	keystroke_l	l	n/a
201.8395	0.045	403679	keystroke_e	e	n/a
201.9895	0.075	403979	keystroke_m	m	n/a
202.0495	0.09	404099	keystroke_e	e	n/a
202.2305	0.059	404461	keystroke_n	n	n/a
202.3205	0.074	404641	keystroke_t	t	n/a
202.4695	0.06	404939	keystroke_i	i	n/a
202.6195	0.105	405239	keystroke_n	n	n/a
202.7545	0.06	405509	keystroke_g	g	n/a
202.8445	0.09	405689	keystroke_Key.space	Key.space	n/a
203.2495	0.075	406499	keystroke_p	p	n/a
203.4745	0.075	406949	keystroke_r	r	n/a
203.6845	0.06	407369	keystroke_i	i	n/a
203.8945	0.075	407789	keystroke_m	m	n/a
204.1645	0.12	408329	keystroke_a	a	n/a
204.3295	0.06	408659	keystroke_r	r	n/a
204.6295	0.075	409259	keystroke_i	i	n/a
204.8245	0.09	409649	keystroke_l	l	n/a
205.0945	0.165	410189	keystroke_y	y	n/a
205.2295	0.15	410459	keystroke_Key.space	Key.space	n/a
205.5295	0.105	411059	keystroke_s	s	n/a
205.6955	0.089	411391	keystroke_u	u	n/a
205.7995	0.075	411599	keystroke_r	r	n/a
206.1595	0.06	412319	keystroke_v	v	n/a
206.2945	0.09	412589	keystroke_i	i	n/a
206.5045	0.075	413009	keystroke_v	v	n/a
206.6245	0.075	413249	keystroke_i	i	n/a
206.7145	0.06	413429	keystroke_a	a	n/a
207.6595	0.09	415319	keystroke_Key.backspace	Key.backspace	n/a
208.4395	0.075	416879	keystroke_Key.backspace	Key.backspace	n/a
209.0695	0.06	418139	keystroke_a	a	n/a
209.2795	0.075	418559	keystroke_l	l	n/a
210.5845	0.105	421169	keystroke_Key.enter	Key.enter	n/a
210.697	8.245	421394	prompt	n/a	causes retired prompt pearl\n
211.6205	0.104	423241	keystroke_c	c	n/a
211.9495	0.076	423899	keystroke_a	a	n/a
212.1145	0.075	424229	keystroke_u	u	n/a
212.2195	0.09	424439	keystroke_s	s	n/a
212.4145	0.045	424829	keystroke_e	e	n/a
212.5795	0.075	425159	keystroke_s	s	n/a
212.6995	0.0745	425399	keystroke_Key.space	Key.space	n/a
213.0145	0.06	426029	keystroke_r	r	n/a
213.075	0.075	426150	keystroke_e	e	n/a
213.689	0.106	427378	keystroke_t	t	n/a
213.929	0.045	427858	keystroke_i	i	n/a
213.9895	0.1055	427979	keystroke_r	r	n/a
214.109	0.075	428218	keystroke_e	e	n/a
214.634	0.061	429268	keystroke_d	d	n/a
214.754	0.09	429508	keystroke_Key.space	Key.space	n/a
215.0555	0.105	430111	keystroke_p	p	n/a
215.2195	0.075	430439	keystroke_r	r	n/a
215.5345	0.075	431069	keystroke_o	o	n/a
215.82	0.075	431640	keystroke_m	m	n/a
216.0145	0.091	432029	keystroke_p	p	n/a
216.255	0.0595	432510	keystroke_t	t	n/a
216.3895	0.105	432779	keystroke_Key.space	Key.space	n/a
216.66	0.0745	433320	keystroke_p	p	n/a
216.764	0.166	433528	keystroke_e	e	n/a
217.109	0.076	434218	keystroke_a	a	n/a
217.2	0.074	434400	keystroke_r	r	n/a
217.965	0.0905	435930	keystroke_l	l	n/a
218.85	0.089	437700	keystroke_Key.enter	Key.enter	n/a
218.9465	12.596	437893	prompt	n/a	burden psychology held activated\n
221.328	0.027	442656	keystroke_b	b	n/a
221.535	0.09	443070	keystroke_u	u	n/a
221.6095	0.0895	443219	keystroke_r	r	n/a
221.864	0.075	443728	keystroke_d	d	n/a
222.03	0.09	444060	keystroke_e	e	n/a
222.135	0.149	444270	keystroke_n	n	n/a
222.254	0.12	444508	keystroke_Key.space	Key.space	n/a
222.674	0.076	445348	keystroke_p	p	n/a
222.914	0.09	445828	keystroke_s	s	n/a
223.889	0.075	447778	keystroke_y	y	n/a
224.355	0.074	448710	keystroke_c	c	n/a
224.475	0.09	448950	keystroke_h	h	n/a
224.639	0.09	449278	keystroke_o	o	n/a
224.834	0.106	449668	keystroke_l	l	n/a
225.06	0.089	450120	keystroke_o	o	n/a
225.6	0.06	451200	keystroke_g	g	n/a
225.93	0.105	451860	keystroke_y	y	n/a
226.064	0.12	452128	keystroke_Key.space	Key.space	n/a
226.335	0.09	452670	keystroke_h	h	n/a
226.41	0.074	452820	keystroke_e	e	n/a
226.56	0.104	453120	keystroke_l	l	n/a
226.695	0.075	453390	keystroke_d	d	n/a
226.8	0.089	453600	keystroke_Key.space	Key.space	n/a
227.1	0.044	454200	keystroke_a	a	n/a
227.25	0.15	454500	keystroke_c	c	n/a
227.445	0.105	454890	keystroke_t	t	n/a
227.655	0.06	455310	keystroke_i	i	n/a
228.06	0.029	456120	keystroke_a	a	n/a
228.87	0.089	457740	keystroke_Key.backspace	Key.backspace	n/a
229.035	0.104	458070	keystroke_v	v	n/a
229.154	0.076	458308	keystroke_a	a	n/a
229.364	0.061	458728	keystroke_t	t	n/a
229.545	0.075	459090	keystroke_e	e	n/a
230.19	0.059	460380	keystroke_d	d	n/a
231.45	0.089	462900	keystroke_Key.enter	Key.enter	n/a
231.548	11.5	463096	prompt	n/a	wiley involving tunnel harvest\n
232.635	0.09	465270	keystroke_w	w	n/a
232.77	0.105	465540	keystroke_i	i	n/a
232.98	0.105	465960	keystroke_l	l	n/a
233.07	0.06	466140	keystroke_e	e	n/a
233.325	0.09	466650	keystroke_y	y	n/a
233.535	0.089	467070	keystroke_Key.space	Key.space	n/a
233.97	0.075	467940	keystroke_i	i	n/a
234.135	0.12	468270	keystroke_n	n	n/a
234.57	0.06	469140	keystroke_v	v	n/a
235.05	0.075	470100	keystroke_o	o	n/a
235.245	0.135	470490	keystroke_l	l	n/a
235.365	0.074	470730	keystroke_v	v	n/a
235.5	0.075	471000	keystroke_i	i	n/a
235.68	0.105	471360	keystroke_n	n	n/a
235.8	0.06	471600	keystroke_g	g	n/a
235.875	0.09	471750	keystroke_Key.space	Key.space	n/a
236.31	0.075	472620	keystroke_t	t	n/a
236.595	0.105	473190	keystroke_u	u	n/a
237.014	0.091	474028	keystroke_n	n	n/a
237.255	0.09	474510	keystroke_n	n	n/a
237.419	0.076	474838	keystroke_e	e	n/a
237.54	0.105	475080	keystroke_l	l	n/a
237.72	0.089	475440	keystroke_Key.space	Key.space	n/a
238.005	0.105	476010	keystroke_h	h	n/a
238.065	0.135	476130	keystroke_a	a	n/a
238.23	0.09	476460	keystroke_r	r	n/a
238.665	0.075	477330	keystroke_e	e	n/a
238.86	0.12	477720	keystroke_s	s	n/a
239.1	0.075	478200	keystroke_t	t	n/a
239.955	0.075	479910	keystroke_Key.backspace	Key.backspace	n/a
240.135	0.09	480270	keystroke_Key.backspace	Key.backspace	n/a
240.345	0.09	480690	keystroke_Key.backspace	Key.backspace	n/a
240.72	0.075	481440	keystroke_v	v	n/a
240.96	0.06	481920	keystroke_e	e	n/a
241.125	0.09	482250	keystroke_s	s	n/a
241.29	0.075	482580	keystroke_t	t	n/a
242.955	0.09	485910	keystroke_Key.enter	Key.enter	n/a
243.054	11.6475	486108	prompt	n/a	idol endorsement themes devices\n
244.08	0.075	488160	keystroke_i	i	n/a
244.215	0.09	488430	keystroke_d	d	n/a
244.32	0.075	488640	keystroke_o	o	n/a
244.815	0.165	489630	keystroke_l	l	n/a
244.995	0.12	489990	keystroke_Key.space	Key.space	n/a
245.175	0.105	490350	keystroke_i	i	n/a
245.94	0.075	491880	keystroke_Key.backspace	Key.backspace	n/a
246.045	0.075	492090	keystroke_e	e	n/a
246.705	0.075	493410	keystroke_n	n	n/a
246.795	0.105	493590	keystroke_d	d	n/a
246.96	0.09	493920	keystroke_o	o	n/a
247.095	0.09	494190	keystroke_r	r	n/a
247.5	0.09	495000	keystroke_s	s	n/a
247.665	0.075	495330	keystroke_e	e	n/a
247.83	0.105	495660	keystroke_m	m	n/a
247.905	0.09	495810	keystroke_e	e	n/a
248.07	0.075	496140	keystroke_n	n	n/a
248.175	0.06	496350	keystroke_t	t	n/a
248.31	0.09	496620	keystroke_Key.space	Key.space	n/a
248.52	0.075	497040	keystroke_t	t	n/a
248.625	0.075	497250	keystroke_h	h	n/a
248.745	0.045	497490	keystroke_e	e	n/a
248.85	0.075	497700	keystroke_m	m	n/a
248.94	0.075	497880	keystroke_e	e	n/a
249.255	0.075	498510	keystroke_s	s	n/a
249.525	0.09	499050	keystroke_Key.space	Key.space	n/a
249.945	0.075	499890	keystroke_e	e	n/a
250.59	0.09	501180	keystroke_Key.backspace	Key.backspace	n/a
250.665	0.09	501330	keystroke_d	d	n/a
250.83	0.06	501660	keystroke_e	e	n/a
251.325	0.06	502650	keystroke_v	v	n/a
251.415	0.09	502830	keystroke_i	i	n/a
252.345	0.09	504690	keystroke_c	c	n/a
252.54	0.06	505080	keystroke_e	e	n/a
252.705	0.075	505410	keystroke_s	s	n/a
254.625	0.075	509250	keystroke_Key.enter	Key.enter	n/a
254.7075	8.4395	509415	prompt	n/a	plans position complex versions\n
255.6905	0.075	511381	keystroke_p	p	n/a
255.8695	0.106	511739	keystroke_l	l	n/a
255.9595	0.06	511919	keystroke_a	a	n/a
256.1395	0.076	512279	keystroke_n	n	n/a
256.2595	0.106	512519	keystroke_s	s	n/a
256.4095	0.09	512819	keystroke_Key.space	Key.space	n/a
256.7395	0.061	513479	keystroke_p	p	n/a
256.9205	0.104	513841	keystroke_o	o	n/a
257.3405	0.089	514681	keystroke_s	s	n/a
257.5045	0.076	515009	keystroke_i	i	n/a
257.6845	0.075	515369	keystroke_t	t	n/a
257.8495	0.09	515699	keystroke_i	i	n/a
258.0595	0.091	516119	keystroke_o	o	n/a
258.3145	0.075	516629	keystroke_n	n	n/a
258.7495	0.09	517499	keystroke_Key.space	Key.space	n/a
258.8995	0.105	517799	keystroke_c	c	n/a
259.0055	0.135	518011	keystroke_o	o	n/a
259.1545	0.15	518309	keystroke_m	m	n/a
259.2605	0.105	518521	keystroke_p	p	n/a
259.4995	0.106	518999	keystroke_l	l	n/a
259.5745	0.075	519149	keystroke_e	e	n/a
260.0995	0.09	520199	keystroke_x	x	n/a
260.2645	0.105	520529	keystroke_Key.space	Key.space	n/a
260.5795	0.091	521159	keystroke_v	v	n/a
261.0455	0.119	522091	keystroke_e	e	n/a
261.1505	0.105	522301	keystroke_r	r	n/a
261.4205	0.074	522841	keystroke_s	s	n/a
261.5395	0.09	523079	keystroke_i	i	n/a
261.7195	0.09	523439	keystroke_o	o	n/a
261.8405	0.104	523681	keystroke_n	n	n/a
262.0045	0.075	524009	keystroke_s	s	n/a
263.0545	0.09	526109	keystroke_Key.enter	Key.enter	n/a
263.152	10.076	526304	prompt	n/a	openings every enhance cookies\n
264.3155	0.089	528631	keystroke_o	o	n/a
264.4945	0.106	528989	keystroke_p	p	n/a
264.5855	0.075	529171	keystroke_e	e	n/a
264.7345	0.075	529469	keystroke_n	n	n/a
264.8705	0.075	529741	keystroke_i	i	n/a
265.0355	0.104	530071	keystroke_n	n	n/a
265.1545	0.075	530309	keystroke_g	g	n/a
265.2905	0.089	530581	keystroke_s	s	n/a
265.4245	0.075	530849	keystroke_Key.space	Key.space	n/a
265.7705	0.075	531541	keystroke_e	e	n/a
266.0395	0.06	532079	keystroke_v	v	n/a
266.2045	0.076	532409	keystroke_e	e	n/a
266.2505	0.075	532501	keystroke_r	r	n/a
266.5205	0.075	533041	keystroke_y	y	n/a
266.7895	0.09	533579	keystroke_Key.space	Key.space	n/a
267.2255	0.09	534451	keystroke_e	e	n/a
267.9455	0.09	535891	keystroke_n	n	n/a
268.1995	0.076	536399	keystroke_h	h	n/a
268.3195	0.076	536639	keystroke_a	a	n/a
268.4395	0.09	536879	keystroke_n	n	n/a
268.6195	0.09	537239	keystroke_c	c	n/a
268.8295	0.061	537659	keystroke_e	e	n/a
268.9195	0.09	537839	keystroke_Key.space	Key.space	n/a
269.1305	0.075	538261	keystroke_c	c	n/a
269.2345	0.09	538469	keystroke_o	o	n/a
269.4455	0.074	538891	keystroke_o	o	n/a
269.6405	0.105	539281	keystroke_k	k	n/a
269.8805	0.074	539761	keystroke_e	e	n/a
270.0455	0.104	540091	keystroke_s	s	n/a
271.0795	0.091	542159	keystroke_Key.backspace	Key.backspace	n/a
271.2295	0.09	542459	keystroke_Key.backspace	Key.backspace	n/a
271.4995	0.091	542999	keystroke_i	i	n/a
271.5755	0.06	543151	keystroke_e	e	n/a
271.8295	0.076	543659	keystroke_s	s	n/a
273.0905	0.134	546181	keystroke_Key.enter	Key.enter	n/a
273.2335	10.179	546467	prompt	n/a	trademarks attempts butts mortality\n
274.0505	0.09	548101	keystroke_t	t	n/a
274.2455	0.09	548491	keystroke_r	r	n/a
274.3645	0.0755	548729	keystroke_a	a	n/a
274.575	0.0745	549150	keystroke_d	d	n/a
274.7095	0.061	549419	keystroke_e	e	n/a
274.8595	0.106	549719	keystroke_m	m	n/a
274.9205	0.1035	549841	keystroke_a	a	n/a
275.1305	0.0895	550261	keystroke_k	k	n/a
275.234	0.061	550468	keystroke_r	r	n/a
275.8205	0.044	551641	keystroke_Key.backspace	Key.backspace	n/a
275.94	0.075	551880	keystroke_Key.backspace	Key.backspace	n/a
276	0.06	552000	keystroke_r	r	n/a
276.224	0.061	552448	keystroke_k	k	n/a
276.3	0.059	552600	keystroke_s	s	n/a
276.8255	0.0895	553651	keystroke_Key.space	Key.space	n/a
277.3805	0.0595	554761	keystroke_a	a	n/a
277.559	0.0765	555118	keystroke_t	t	n/a
277.695	0.105	555390	keystroke_t	t	n/a
277.874	0.075	555748	keystroke_e	e	n/a
278.025	0.09	556050	keystroke_m	m	n/a
278.145	0.105	556290	keystroke_p	p	n/a
278.325	0.075	556650	keystroke_t	t	n/a
278.475	0.089	556950	keystroke_s	s	n/a
278.64	0.12	557280	keystroke_Key.space	Key.space	n/a
278.9245	0.09	557849	keystroke_b	b	n/a
279.0445	0.075	558089	keystroke_u	u	n/a
279.2245	0.06	558449	keystroke_t	t	n/a
279.3595	0.06	558719	keystroke_t	t	n/a
279.5395	0.075	559079	keystroke_s	s	n/a
279.6295	0.09	559259	keystroke_Key.space	Key.space	n/a
279.9295	0.075	559859	keystroke_m	m	n/a
280.1395	0.075	560279	keystroke_o	o	n/a
280.2295	0.12	560459	keystroke_r	r	n/a
280.4695	0.105	560939	keystroke_t	t	n/a
280.9045	0.06	561809	keystroke_a	a	n/a
281.0995	0.075	562199	keystroke_l	l	n/a
281.3245	0.075	562649	keystroke_i	i	n/a
281.5045	0.06	563009	keystroke_t	t	n/a
281.6995	0.045	563399	keystroke_y	y	n/a
283.3195	0.09	566639	keystroke_Key.enter	Key.enter	n/a
283.4165	11.2755	566833	prompt	n/a	blacks detected current candy\n
284.2795	0.075	568559	keystroke_b	b	n/a
284.4145	0.075	568829	keystroke_l	l	n/a
284.4895	0.09	568979	keystroke_a	a	n/a
285.0295	0.09	570059	keystroke_c	c	n/a
285.1195	0.075	570239	keystroke_k	k	n/a
285.6735	0.076	571347	keystroke_s	s	n/a
285.7945	0.105	571589	keystroke_Key.space	Key.space	n/a
286.1545	0.075	572309	keystroke_d	d	n/a
286.3335	0.061	572667	keystroke_e	e	n/a
286.6045	0.09	573209	keystroke_t	t	n/a
286.8145	0.075	573629	keystroke_e	e	n/a
287.0695	0.105	574139	keystroke_c	c	n/a
287.2495	0.075	574499	keystroke_t	t	n/a
287.4145	0.06	574829	keystroke_e	e	n/a
287.5795	0.075	575159	keystroke_d	d	n/a
288.1345	0.09	576269	keystroke_Key.space	Key.space	n/a
288.3895	0.09	576779	keystroke_c	c	n/a
288.5995	0.075	577199	keystroke_u	u	n/a
289.0945	0.06	578189	keystroke_r	r	n/a
289.2295	0.09	578459	keystroke_r	r	n/a
289.8295	0.03	579659	keystroke_n	n	n/a
290.8195	0.105	581639	keystroke_Key.backspace	Key.backspace	n/a
290.9395	0.075	581879	keystroke_e	e	n/a
291.1195	0.06	582239	keystroke_n	n	n/a
291.2395	0.06	582479	keystroke_t	t	n/a
291.4045	0.09	582809	keystroke_l	l	n/a
292.6495	0.105	585299	keystroke_Key.backspace	Key.backspace	n/a
293.0395	0.06	586079	keystroke_Key.space	Key.space	n/a
293.2195	0.12	586439	keystroke_c	c	n/a
293.3095	0.12	586619	keystroke_a	a	n/a
293.4595	0.105	586919	keystroke_n	n	n/a
293.5945	0.06	587189	keystroke_d	d	n/a
293.8195	0.06	587639	keystroke_y	y	n/a
294.5845	0.105	589169	keystroke_Key.enter	Key.enter	n/a
294.697	19.7045	589394	prompt	n/a	heat recently consolidation answering\n
295.694	0.105	591388	keystroke_h	h	n/a
295.769	0.09	591538	keystroke_e	e	n/a
295.919	0.135	591838	keystroke_a	a	n/a
296.114	0.09	592228	keystroke_t	t	n/a
296.249	0.09	592498	keystroke_Key.space	Key.space	n/a
296.549	0.09	593098	keystroke_r	r	n/a
296.609	0.075	593218	keystroke_e	e	n/a
297.239	0.09	594478	keystroke_c	c	n/a
297.449	0.075	594898	keystroke_e	e	n/a
297.584	0.105	595168	keystroke_n	n	n/a
297.704	0.06	595408	keystroke_t	t	n/a
297.839	0.105	595678	keystroke_l	l	n/a
298.02	0.104	596040	keystroke_y	y	n/a
298.199	0.09	596398	keystroke_Key.space	Key.space	n/a
298.814	0.075	597628	keystroke_c	c	n/a
298.919	0.091	597838	keystroke_o	o	n/a
299.099	0.135	598198	keystroke_n	n	n/a
299.339	0.075	598678	keystroke_s	s	n/a
299.46	0.089	598920	keystroke_i	i	n/a
299.729	0.106	599458	keystroke_l	l	n/a
299.97	0.059	599940	keystroke_i	i	n/a
300.119	0.105	600238	keystroke_d	d	n/a
300.284	0.105	600568	keystroke_a	a	n/a
300.359	0.106	600718	keystroke_t	t	n/a
300.449	0.075	600898	keystroke_e	e	n/a
301.154	0.075	602308	keystroke_Key.backspace	Key.backspace	n/a
301.259	0.12	602518	keystroke_a	a	n/a
301.394	0.09	602788	keystroke_t	t	n/a
301.574	0.225	603148	keystroke_i	i	n/a
301.664	0.195	603328	keystroke_o	o	n/a
301.784	0.135	603568	keystroke_n	n	n/a
302.234	0.105	604468	keystroke_Key.space	Key.space	n/a
302.475	0.074	604950	keystroke_a	a	n/a
302.594	0.09	605188	keystroke_n	n	n/a
303.9	0.195	607800	keystroke_a	a	n/a
305.1595	0.06	610319	keystroke_Key.backspace	Key.backspace	n/a
305.3095	0.075	610619	keystroke_Key.backspace	Key.backspace	n/a
305.4745	0.075	610949	keystroke_Key.backspace	Key.backspace	n/a
305.6245	0.075	611249	keystroke_Key.backspace	Key.backspace	n/a
305.7745	0.09	611549	keystroke_Key.backspace	Key.backspace	n/a
305.9395	0.09	611879	keystroke_Key.backspace	Key.backspace	n/a
306.0895	0.09	612179	keystroke_Key.backspace	Key.backspace	n/a
306.2545	0.075	612509	keystroke_Key.backspace	Key.backspace	n/a
306.4195	0.09	612839	keystroke_Key.backspace	Key.backspace	n/a
306.5845	0.075	613169	keystroke_Key.backspace	Key.backspace	n/a
306.7495	0.09	613499	keystroke_Key.backspace	Key.backspace	n/a
306.9145	0.105	613829	keystroke_Key.backspace	Key.backspace	n/a
307.1245	0.075	614249	keystroke_Key.backspace	Key.backspace	n/a
307.3195	0.075	614639	keystroke_Key.backspace	Key.backspace	n/a
307.5295	0.075	615059	keystroke_Key.backspace	Key.backspace	n/a
308.2795	0.075	616559	keystroke_o	o	n/a
308.49	0.104	616980	keystroke_l	l	n/a
308.729	0.06	617458	keystroke_i	i	n/a
309.0595	0.09	618119	keystroke_d	d	n/a
309.3905	0.089	618781	keystroke_a	a	n/a
309.554	0.0755	619108	keystroke_t	t	n/a
309.749	0.106	619498	keystroke_i	i	n/a
309.944	0.09	619888	keystroke_o	o	n/a
310.154	0.091	620308	keystroke_n	n	n/a
310.709	0.075	621418	keystroke_Key.space	Key.space	n/a
310.904	0.06	621808	keystroke_a	a	n/a
311.0685	0.091	622137	keystroke_n	n	n/a
311.2645	0.09	622529	keystroke_s	s	n/a
311.5195	0.12	623039	keystroke_w	w	n/a
311.7435	0.136	623487	keystroke_e	e	n/a
311.8635	0.151	623727	keystroke_r	r	n/a
312.374	0.0605	624748	keystroke_i	i	n/a
312.5685	0.075	625137	keystroke_n	n	n/a
312.6895	0.06	625379	keystroke_g	g	n/a
314.3095	0.089	628619	keystroke_Key.enter	Key.enter	n/a
314.41	9.877	628820	prompt	n/a	newspaper hybrid fool officer\n
315.09	0.089	630180	keystroke_n	n	n/a
315.2985	0.061	630597	keystroke_e	e	n/a
315.3145	0.1355	630629	keystroke_w	w	n/a
316.0185	0.106	632037	keystroke_s	s	n/a
316.1835	0.09	632367	keystroke_p	p	n/a
316.4695	0.074	632939	keystroke_a	a	n/a
316.6345	0.059	633269	keystroke_p	p	n/a
316.9195	0.075	633839	keystroke_e	e	n/a
316.9645	0.089	633929	keystroke_r	r	n/a
317.3985	0.09	634797	keystroke_Key.space	Key.space	n/a
318.5545	0.104	637109	keystroke_h	h	n/a
319.1845	0.104	638369	keystroke_y	y	n/a
319.9345	0.105	639869	keystroke_b	b	n/a
320.5345	0.074	641069	keystroke_r	r	n/a
320.7595	0.06	641519	keystroke_i	i	n/a
320.9095	0.075	641819	keystroke_d	d	n/a
321.0285	0.09	642057	keystroke_Key.space	Key.space	n/a
321.2395	0.075	642479	keystroke_f	f	n/a
321.3585	0.076	642717	keystroke_o	o	n/a
321.5095	0.105	643019	keystroke_o	o	n/a
321.7645	0.089	643529	keystroke_l	l	n/a
322.0195	0.074	644039	keystroke_Key.space	Key.space	n/a
322.4845	0.089	644969	keystroke_o	o	n/a
322.6495	0.06	645299	keystroke_f	f	n/a
322.7695	0.075	645539	keystroke_f	f	n/a
322.8895	0.06	645779	keystroke_i	i	n/a
322.9645	0.09	645929	keystroke_c	c	n/a
323.1885	0.076	646377	keystroke_e	e	n/a
323.2345	0.075	646469	keystroke_r	r	n/a
324.1635	0.12	648327	keystroke_Key.enter	Key.enter	n/a
324.296	9.6205	648592	prompt	n/a	magic tennessee cleaner median\n
325.0945	0.12	650189	keystroke_m	m	n/a
325.1995	0.06	650399	keystroke_a	a	n/a
325.5735	0.076	651147	keystroke_g	g	n/a
325.7095	0.075	651419	keystroke_i	i	n/a
326.3545	0.09	652709	keystroke_c	c	n/a
326.4735	0.09	652947	keystroke_Key.space	Key.space	n/a
327.2695	0.09	654539	keystroke_t	t	n/a
327.4645	0.075	654929	keystroke_e	e	n/a
327.6295	0.06	655259	keystroke_n	n	n/a
327.7795	0.075	655559	keystroke_n	n	n/a
328.0045	0.06	656009	keystroke_e	e	n/a
328.2295	0.074	656459	keystroke_s	s	n/a
328.3795	0.105	656759	keystroke_s	s	n/a
328.9495	0.06	657899	keystroke_e	e	n/a
329.0695	0.09	658139	keystroke_e	e	n/a
329.3845	0.089	658769	keystroke_Key.space	Key.space	n/a
329.8045	0.12	659609	keystroke_c	c	n/a
329.9985	0.106	659997	keystroke_l	l	n/a
330.0885	0.076	660177	keystroke_e	e	n/a
330.2095	0.044	660419	keystroke_a	a	n/a
330.3745	0.074	660749	keystroke_n	n	n/a
330.6445	0.09	661289	keystroke_e	e	n/a
330.7045	0.075	661409	keystroke_r	r	n/a
331.2895	0.12	662579	keystroke_Key.space	Key.space	n/a
331.9645	0.105	663929	keystroke_m	m	n/a
332.0995	0.045	664199	keystroke_e	e	n/a
332.2945	0.075	664589	keystroke_d	d	n/a
332.4445	0.06	664889	keystroke_i	i	n/a
332.5345	0.06	665069	keystroke_a	a	n/a
332.7445	0.075	665489	keystroke_n	n	n/a
333.8095	0.105	667619	keystroke_Key.enter	Key.enter	n/a
333.932	12.8845	667864	prompt	n/a	highs muscle unnecessary conjunction\n
335.0245	0.09	670049	keystroke_h	h	n/a
335.1745	0.135	670349	keystroke_i	i	n/a
335.4595	0.06	670919	keystroke_g	g	n/a
335.5945	0.075	671189	keystroke_h	h	n/a
335.8495	0.09	671699	keystroke_s	s	n/a
336.3895	0.09	672779	keystroke_Key.space	Key.space	n/a
336.8095	0.105	673619	keystroke_m	m	n/a
337.0495	0.075	674099	keystroke_u	u	n/a
337.6195	0.09	675239	keystroke_s	s	n/a
337.8295	0.09	675659	keystroke_c	c	n/a
338.4295	0.09	676859	keystroke_l	l	n/a
338.5045	0.075	677009	keystroke_e	e	n/a
338.7145	0.09	677429	keystroke_Key.space	Key.space	n/a
339.2695	0.105	678539	keystroke_u	u	n/a
339.5545	0.075	679109	keystroke_n	n	n/a
339.7045	0.09	679409	keystroke_n	n	n/a
339.8395	0.09	679679	keystroke_e	e	n/a
340.3495	0.09	680699	keystroke_c	c	n/a
340.5895	0.06	681179	keystroke_e	e	n/a
340.8145	0.06	681629	keystroke_s	s	n/a
340.9645	0.075	681929	keystroke_s	s	n/a
341.2345	0.105	682469	keystroke_a	a	n/a
341.3845	0.075	682769	keystroke_r	r	n/a
341.7295	0.06	683459	keystroke_y	y	n/a
342.0295	0.075	684059	keystroke_Key.space	Key.space	n/a
342.4195	0.09	684839	keystroke_c	c	n/a
342.5545	0.06	685109	keystroke_o	o	n/a
343.0945	0.09	686189	keystroke_n	n	n/a
343.3195	0.105	686639	keystroke_j	j	n/a
343.5745	0.09	687149	keystroke_u	u	n/a
343.8895	0.075	687779	keystroke_n	n	n/a
344.6395	0.09	689279	keystroke_c	c	n/a
344.8345	0.075	689669	keystroke_t	t	n/a
344.9695	0.135	689939	keystroke_i	i	n/a
345.0445	0.165	690089	keystroke_o	o	n/a
345.1645	0.105	690329	keystroke_n	n	n/a
346.7095	0.105	693419	keystroke_Key.enter	Key.enter	n/a
346.821	12.806	693642	prompt	n/a	somewhere assignments julian public\n
349.0375	0.027	698075	keystroke_s	s	n/a
349.1395	0.075	698279	keystroke_o	o	n/a
349.3495	0.105	698699	keystroke_m	m	n/a
349.4395	0.075	698879	keystroke_e	e	n/a
349.7395	0.12	699479	keystroke_w	w	n/a
349.9645	0.045	699929	keystroke_h	h	n/a
350.0245	0.12	700049	keystroke_e	e	n/a
350.1145	0.12	700229	keystroke_r	r	n/a
350.2195	0.075	700439	keystroke_e	e	n/a
350.7145	0.105	701429	keystroke_Key.space	Key.space	n/a
351.2545	0.06	702509	keystroke_a	a	n/a
351.4195	0.075	702839	keystroke_s	s	n/a
351.5695	0.09	703139	keystroke_s	s	n/a
351.7795	0.045	703559	keystroke_i	i	n/a
351.9745	0.075	703949	keystroke_g	g	n/a
352.1845	0.06	704369	keystroke_n	n	n/a
353.0545	0.135	706109	keystroke_m	m	n/a
353.2495	0.075	706499	keystroke_e	e	n/a
353.3695	0.105	706739	keystroke_n	n	n/a
353.4445	0.09	706889	keystroke_t	t	n/a
353.5795	0.09	707159	keystroke_s	s	n/a
354.0295	0.075	708059	keystroke_Key.space	Key.space	n/a
355.4845	0.105	710969	keystroke_j	j	n/a
355.7695	0.12	711539	keystroke_u	u	n/a
355.9945	0.12	711989	keystroke_l	l	n/a
356.2345	0.075	712469	keystroke_i	i	n/a
356.3395	0.075	712679	keystroke_a	a	n/a
356.5045	0.1045	713009	keystroke_n	n	n/a
357.3145	0.09	714629	keystroke_Key.space	Key.space	n/a
357.6445	0.09	715289	keystroke_p	p	n/a
357.8695	0.075	715739	keystroke_u	u	n/a
358.1095	0.06	716219	keystroke_b	b	n/a
358.2745	0.09	716549	keystroke_l	l	n/a
358.4845	0.06	716969	keystroke_i	i	n/a
358.5745	0.075	717149	keystroke_c	c	n/a
359.534	0.0905	719068	keystroke_Key.enter	Key.enter	n/a
359.634	12.2625	719268	prompt	n/a	wars guess leadership cosmetics\n
360.359	0.0905	720718	keystroke_w	w	n/a
360.509	0.09	721018	keystroke_a	a	n/a
360.6445	0.1045	721289	keystroke_r	r	n/a
360.944	0.09	721888	keystroke_s	s	n/a
362.0995	0.1045	724199	keystroke_Key.space	Key.space	n/a
362.3995	0.12	724799	keystroke_g	g	n/a
362.6545	0.075	725309	keystroke_u	u	n/a
362.759	0.06	725518	keystroke_e	e	n/a
362.954	0.06	725908	keystroke_s	s	n/a
363.089	0.105	726178	keystroke_s	s	n/a
363.209	0.105	726418	keystroke_Key.space	Key.space	n/a
363.929	0.135	727858	keystroke_l	l	n/a
364.034	0.09	728068	keystroke_e	e	n/a
364.229	0.105	728458	keystroke_a	a	n/a
364.949	0.075	729898	keystroke_d	d	n/a
365.189	0.09	730378	keystroke_e	e	n/a
365.234	0.105	730468	keystroke_r	r	n/a
365.489	0.09	730978	keystroke_s	s	n/a
365.609	0.105	731218	keystroke_h	h	n/a
365.834	0.075	731668	keystroke_i	i	n/a
366.179	0.09	732358	keystroke_p	p	n/a
366.389	0.075	732778	keystroke_Key.space	Key.space	n/a
366.749	0.09	733498	keystroke_s	s	n/a
368.204	0.09	736408	keystroke_Key.backspace	Key.backspace	n/a
368.384	0.075	736768	keystroke_c	c	n/a
368.564	0.075	737128	keystroke_o	o	n/a
368.699	0.09	737398	keystroke_s	s	n/a
368.894	0.075	737788	keystroke_m	m	n/a
369.074	0.075	738148	keystroke_e	e	n/a
369.284	0.09	738568	keystroke_t	t	n/a
369.449	0.06	738898	keystroke_i	i	n/a
370.169	0.09	740338	keystroke_c	c	n/a
370.394	0.045	740788	keystroke_s	s	n/a
371.819	0.075	743638	keystroke_Key.enter	Key.enter	n/a
371.9015	8.8445	743803	prompt	n/a	biology tampa deviant stay\n
372.989	0.075	745978	keystroke_b	b	n/a
373.334	0.09	746668	keystroke_i	i	n/a
373.514	0.105	747028	keystroke_o	o	n/a
373.739	0.105	747478	keystroke_l	l	n/a
373.949	0.075	747898	keystroke_o	o	n/a
374.084	0.045	748168	keystroke_g	g	n/a
374.264	0.15	748528	keystroke_y	y	n/a
374.399	0.09	748798	keystroke_Key.space	Key.space	n/a
374.639	0.105	749278	keystroke_t	t	n/a
374.759	0.09	749518	keystroke_a	a	n/a
375.014	0.09	750028	keystroke_m	m	n/a
375.224	0.075	750448	keystroke_p	p	n/a
375.329	0.075	750658	keystroke_a	a	n/a
376.004	0.105	752008	keystroke_Key.space	Key.space	n/a
376.274	0.09	752548	keystroke_d	d	n/a
376.439	0.06	752878	keystroke_e	e	n/a
377.699	0.075	755398	keystroke_v	v	n/a
377.879	0.075	755758	keystroke_i	i	n/a
377.999	0.06	755998	keystroke_a	a	n/a
378.254	0.105	756508	keystroke_n	n	n/a
378.374	0.06	756748	keystroke_t	t	n/a
378.494	0.075	756988	keystroke_Key.space	Key.space	n/a
378.689	0.15	757378	keystroke_s	s	n/a
378.855	0.089	757710	keystroke_t	t	n/a
379.199	0.06	758398	keystroke_a	a	n/a
379.514	0.045	759028	keystroke_y	y	n/a
380.684	0.06	761368	keystroke_Key.enter	Key.enter	n/a
380.7505	8.4415	761501	prompt	n/a	emacs struggle excel incl\n
381.704	0.075	763408	keystroke_e	e	n/a
382.094	0.09	764188	keystroke_m	m	n/a
382.304	0.075	764608	keystroke_a	a	n/a
382.619	0.075	765238	keystroke_c	c	n/a
382.844	0.06	765688	keystroke_s	s	n/a
383.204	0.075	766408	keystroke_Key.space	Key.space	n/a
383.744	0.09	767488	keystroke_s	s	n/a
383.924	0.105	767848	keystroke_t	t	n/a
384.119	0.105	768238	keystroke_r	r	n/a
384.389	0.075	768778	keystroke_u	u	n/a
384.659	0.045	769318	keystroke_g	g	n/a
384.764	0.075	769528	keystroke_g	g	n/a
384.899	0.106	769798	keystroke_l	l	n/a
384.989	0.075	769978	keystroke_e	e	n/a
385.619	0.075	771238	keystroke_Key.space	Key.space	n/a
385.874	0.075	771748	keystroke_e	e	n/a
386.114	0.12	772228	keystroke_x	x	n/a
386.324	0.06	772648	keystroke_c	c	n/a
386.504	0.075	773008	keystroke_e	e	n/a
386.624	0.12	773248	keystroke_l	l	n/a
386.804	0.105	773608	keystroke_Key.space	Key.space	n/a
386.985	0.104	773970	keystroke_i	i	n/a
387.179	0.12	774358	keystroke_n	n	n/a
387.464	0.075	774928	keystroke_c	c	n/a
387.599	0.075	775198	keystroke_l	l	n/a
389.099	0.09	778198	keystroke_Key.enter	Key.enter	n/a
389.197	10.614	778394	prompt	n/a	plan separate resume tobacco\n
390.255	0.074	780510	keystroke_p	p	n/a
390.449	0.106	780898	keystroke_l	l	n/a
390.494	0.09	780988	keystroke_a	a	n/a
390.674	0.136	781348	keystroke_n	n	n/a
390.764	0.12	781528	keystroke_Key.space	Key.space	n/a
390.944	0.076	781888	keystroke_s	s	n/a
391.08	0.074	782160	keystroke_e	e	n/a
391.259	0.076	782518	keystroke_p	p	n/a
391.38	0.104	782760	keystroke_a	a	n/a
391.469	0.12	782938	keystroke_r	r	n/a
391.844	0.06	783688	keystroke_a	a	n/a
391.889	0.12	783778	keystroke_t	t	n/a
391.994	0.06	783988	keystroke_e	e	n/a
392.324	0.09	784648	keystroke_Key.space	Key.space	n/a
392.73	0.104	785460	keystroke_r	r	n/a
392.789	0.09	785578	keystroke_e	e	n/a
393.179	0.06	786358	keystroke_u	u	n/a
393.419	0.09	786838	keystroke_m	m	n/a
393.464	0.076	786928	keystroke_e	e	n/a
394.184	0.075	788368	keystroke_Key.backspace	Key.backspace	n/a
394.364	0.09	788728	keystroke_Key.backspace	Key.backspace	n/a
394.559	0.06	789118	keystroke_Key.backspace	Key.backspace	n/a
394.709	0.045	789418	keystroke_Key.backspace	Key.backspace	n/a
395.219	0.075	790438	keystroke_e	e	n/a
395.384	0.106	790768	keystroke_s	s	n/a
395.564	0.075	791128	keystroke_u	u	n/a
395.79	0.104	791580	keystroke_m	m	n/a
395.864	0.075	791728	keystroke_e	e	n/a
395.984	0.09	791968	keystroke_Key.space	Key.space	n/a
396.209	0.076	792418	keystroke_t	t	n/a
396.269	0.12	792538	keystroke_o	o	n/a
396.584	0.09	793168	keystroke_b	b	n/a
396.734	0.09	793468	keystroke_a	a	n/a
397.394	0.076	794788	keystroke_c	c	n/a
397.679	0.076	795358	keystroke_c	c	n/a
397.965	0.074	795930	keystroke_o	o	n/a
399.719	0.09	799438	keystroke_Key.enter	Key.enter	n/a
399.8165	16.9895	799633	prompt	n/a	belly reflects modem ocean\n
400.724	0.091	801448	keystroke_b	b	n/a
400.92	0.074	801840	keystroke_e	e	n/a
401.235	0.0735	802470	keystroke_l	l	n/a
401.399	0.0905	802798	keystroke_l	l	n/a
401.6995	0.135	803399	keystroke_y	y	n/a
401.88	0.119	803760	keystroke_Key.space	Key.space	n/a
402.1185	0.1055	804237	keystroke_r	r	n/a
402.1645	0.09	804329	keystroke_e	e	n/a
402.615	0.0895	805230	keystroke_l	l	n/a
402.8235	0.061	805647	keystroke_e	e	n/a
403.0495	0.12	806099	keystroke_c	c	n/a
403.2435	0.09	806487	keystroke_t	t	n/a
403.4385	0.075	806877	keystroke_s	s	n/a
403.6785	0.076	807357	keystroke_Key.space	Key.space	n/a
405.2385	0.09	810477	keystroke_Key.backspace	Key.backspace	n/a
405.4635	0.075	810927	keystroke_Key.backspace	Key.backspace	n/a
405.6585	0.075	811317	keystroke_Key.backspace	Key.backspace	n/a
405.8685	0.075	811737	keystroke_Key.backspace	Key.backspace	n/a
406.049	0.0745	812098	keystroke_Key.backspace	Key.backspace	n/a
406.2285	0.091	812457	keystroke_Key.backspace	Key.backspace	n/a
406.5595	0.089	813119	keystroke_f	f	n/a
406.9345	0.09	813869	keystroke_l	l	n/a
407.0395	0.105	814079	keystroke_e	e	n/a
407.2795	0.075	814559	keystroke_c	c	n/a
407.5195	0.015	815039	keystroke_t	t	n/a
407.6385	0.091	815277	keystroke_s	s	n/a
408.1185	0.091	816237	keystroke_Key.space	Key.space	n/a
408.4185	0.075	816837	keystroke_m	m	n/a
408.5995	0.074	817199	keystroke_o	o	n/a
408.6885	0.105	817377	keystroke_d	d	n/a
408.8995	0.06	817799	keystroke_e	e	n/a
408.9435	0.075	817887	keystroke_r	r	n/a
409.4095	0.075	818819	keystroke_n	n	n/a
409.6345	0.089	819269	keystroke_Key.space	Key.space	n/a
412.0225	0.026	824045	keystroke_Key.backspace	Key.backspace	n/a
412.1235	0.09	824247	keystroke_Key.backspace	Key.backspace	n/a
412.3185	0.075	824637	keystroke_Key.backspace	Key.backspace	n/a
412.7095	0.075	825419	keystroke_m	m	n/a
413.0835	0.106	826167	keystroke_Key.space	Key.space	n/a
413.5345	0.075	827069	keystroke_o	o	n/a
413.6545	0.09	827309	keystroke_c	c	n/a
413.8635	0.046	827727	keystroke_e	e	n/a
413.9545	0.075	827909	keystroke_a	a	n/a
414.1195	0.06	828239	keystroke_n	n	n/a
416.7775	0.027	833555	keystroke_Key.enter	Key.enter	n/a
416.8115	15.6845	833623	prompt	n/a	acquisitions safer calculation responsibilities\n
417.7495	0.075	835499	keystroke_a	a	n/a
418.0935	0.106	836187	keystroke_c	c	n/a
418.5145	0.104	837029	keystroke_q	q	n/a
418.8295	0.09	837659	keystroke_u	u	n/a
419.0695	0.075	838139	keystroke_i	i	n/a
419.2045	0.09	838409	keystroke_s	s	n/a
419.354	0.0755	838708	keystroke_i	i	n/a
419.5195	0.075	839039	keystroke_t	t	n/a
419.6685	0.061	839337	keystroke_i	i	n/a
419.7145	0.12	839429	keystroke_o	o	n/a
420.3445	0.0895	840689	keystroke_n	n	n/a
420.6435	0.091	841287	keystroke_s	s	n/a
420.8095	0.074	841619	keystroke_Key.space	Key.space	n/a
421.8895	0.105	843779	keystroke_s	s	n/a
422.0545	0.105	844109	keystroke_a	a	n/a
422.1895	0.1045	844379	keystroke_f	f	n/a
422.399	0.105	844798	keystroke_e	e	n/a
422.4295	0.1045	844859	keystroke_r	r	n/a
422.909	0.105	845818	keystroke_Key.space	Key.space	n/a
423.284	0.09	846568	keystroke_c	c	n/a
423.4195	0.0895	846839	keystroke_a	a	n/a
423.6445	0.12	847289	keystroke_l	l	n/a
423.854	0.0905	847708	keystroke_c	c	n/a
424.0345	0.0745	848069	keystroke_u	u	n/a
424.2445	0.075	848489	keystroke_l	l	n/a
424.409	0.1055	848818	keystroke_a	a	n/a
424.664	0.0605	849328	keystroke_t	t	n/a
424.874	0.105	849748	keystroke_i	i	n/a
424.904	0.195	849808	keystroke_o	o	n/a
425.054	0.105	850108	keystroke_n	n	n/a
425.2945	0.075	850589	keystroke_Key.space	Key.space	n/a
425.684	0.059	851368	keystroke_r	r	n/a
425.729	0.0605	851458	keystroke_e	e	n/a
425.969	0.075	851938	keystroke_s	s	n/a
426.134	0.075	852268	keystroke_p	p	n/a
427.124	0.09	854248	keystroke_o	o	n/a
427.334	0.09	854668	keystroke_n	n	n/a
427.574	0.06	855148	keystroke_s	s	n/a
427.709	0.075	855418	keystroke_i	i	n/a
428.909	0.06	857818	keystroke_b	b	n/a
429.209	0.075	858418	keystroke_i	i	n/a
429.404	0.105	858808	keystroke_l	l	n/a
429.629	0.075	859258	keystroke_i	i	n/a
429.719	0.075	859438	keystroke_t	t	n/a
430.664	0.06	861328	keystroke_i	i	n/a
430.725	0.059	861450	keystroke_e	e	n/a
430.919	0.075	861838	keystroke_s	s	n/a
432.4035	0.09	864807	keystroke_Key.enter	Key.enter	n/a
432.5025	10.358	865005	prompt	n/a	owners bargains official infections\n
433.3185	0.06	866637	keystroke_o	o	n/a
433.4235	0.105	866847	keystroke_w	w	n/a
433.6185	0.075	867237	keystroke_n	n	n/a
433.7385	0.135	867477	keystroke_e	e	n/a
433.8135	0.12	867627	keystroke_r	r	n/a
434.0535	0.105	868107	keystroke_s	s	n/a
434.2035	0.105	868407	keystroke_Key.space	Key.space	n/a
434.4585	0.105	868917	keystroke_b	b	n/a
434.6385	0.135	869277	keystroke_a	a	n/a
434.7285	0.105	869457	keystroke_r	r	n/a
435.0135	0.06	870027	keystroke_g	g	n/a
435.4335	0.075	870867	keystroke_a	a	n/a
435.5385	0.075	871077	keystroke_i	i	n/a
436.0185	0.06	872037	keystroke_n	n	n/a
436.0935	0.045	872187	keystroke_s	s	n/a
436.3185	0.075	872637	keystroke_Key.space	Key.space	n/a
436.8285	0.075	873657	keystroke_o	o	n/a
437.1285	0.045	874257	keystroke_f	f	n/a
437.2635	0.061	874527	keystroke_f	f	n/a
437.4285	0.046	874857	keystroke_i	i	n/a
437.6835	0.075	875367	keystroke_c	c	n/a
437.7885	0.075	875577	keystroke_i	i	n/a
437.9695	0.059	875939	keystroke_a	a	n/a
438.0745	0.089	876149	keystroke_l	l	n/a
438.6585	0.075	877317	keystroke_Key.space	Key.space	n/a
439.1235	0.075	878247	keystroke_i	i	n/a
439.6635	0.09	879327	keystroke_n	n	n/a
439.8285	0.09	879657	keystroke_f	f	n/a
440.0095	0.059	880019	keystroke_e	e	n/a
440.2335	0.105	880467	keystroke_c	c	n/a
440.4435	0.06	880887	keystroke_t	t	n/a
440.5635	0.09	881127	keystroke_i	i	n/a
440.6235	0.181	881247	keystroke_o	o	n/a
440.7285	0.12	881457	keystroke_n	n	n/a
440.8935	0.09	881787	keystroke_s	s	n/a
442.7685	0.09	885537	keystroke_Key.enter	Key.enter	n/a
442.865	9.4615	885730	prompt	n/a	launches alexander boulder divisions\n
443.6845	0.119	887369	keystroke_l	l	n/a
443.7435	0.075	887487	keystroke_a	a	n/a
443.9995	0.074	887999	keystroke_u	u	n/a
444.2085	0.09	888417	keystroke_n	n	n/a
444.3885	0.075	888777	keystroke_c	c	n/a
444.5235	0.075	889047	keystroke_h	h	n/a
444.6285	0.06	889257	keystroke_e	e	n/a
444.8535	0.09	889707	keystroke_s	s	n/a
445.0335	0.075	890067	keystroke_Key.space	Key.space	n/a
445.9785	0.045	891957	keystroke_a	a	n/a
446.1585	0.09	892317	keystroke_l	l	n/a
446.2635	0.045	892527	keystroke_e	e	n/a
446.5335	0.09	893067	keystroke_x	x	n/a
446.7135	0.076	893427	keystroke_a	a	n/a
446.8485	0.09	893697	keystroke_n	n	n/a
446.9835	0.09	893967	keystroke_d	d	n/a
447.1935	0.091	894387	keystroke_e	e	n/a
447.2535	0.09	894507	keystroke_r	r	n/a
447.4185	0.09	894837	keystroke_Key.space	Key.space	n/a
447.7195	0.074	895439	keystroke_b	b	n/a
447.9135	0.105	895827	keystroke_o	o	n/a
447.9885	0.121	895977	keystroke_u	u	n/a
448.7995	0.119	897599	keystroke_l	l	n/a
448.9035	0.075	897807	keystroke_d	d	n/a
449.1435	0.075	898287	keystroke_e	e	n/a
449.1735	0.09	898347	keystroke_r	r	n/a
449.3385	0.075	898677	keystroke_Key.space	Key.space	n/a
449.6535	0.046	899307	keystroke_d	d	n/a
449.7445	0.059	899489	keystroke_i	i	n/a
449.9395	0.074	899879	keystroke_v	v	n/a
450.0585	0.076	900117	keystroke_i	i	n/a
450.2085	0.09	900417	keystroke_s	s	n/a
450.3885	0.21	900777	keystroke_i	i	n/a
450.4485	0.18	900897	keystroke_o	o	n/a
450.5685	0.106	901137	keystroke_n	n	n/a
450.7945	0.059	901589	keystroke_s	s	n/a
452.2345	0.089	904469	keystroke_Key.enter	Key.enter	n/a
452.3355	7.431	904671	prompt	n/a	mild province turkey lance\n
453.0435	0.105	906087	keystroke_m	m	n/a
453.1335	0.12	906267	keystroke_i	i	n/a
453.3745	0.12	906749	keystroke_l	l	n/a
453.4635	0.091	906927	keystroke_d	d	n/a
453.5835	0.09	907167	keystroke_Key.space	Key.space	n/a
453.8995	0.09	907799	keystroke_p	p	n/a
454.0045	0.075	908009	keystroke_r	r	n/a
454.8895	0.104	909779	keystroke_o	o	n/a
455.0685	0.076	910137	keystroke_v	v	n/a
455.2345	0.059	910469	keystroke_i	i	n/a
455.3845	0.089	910769	keystroke_n	n	n/a
455.4885	0.075	910977	keystroke_c	c	n/a
455.6845	0.059	911369	keystroke_e	e	n/a
455.7885	0.105	911577	keystroke_Key.space	Key.space	n/a
456.0745	0.09	912149	keystroke_t	t	n/a
456.3135	0.091	912627	keystroke_u	u	n/a
456.4635	0.076	912927	keystroke_r	r	n/a
457.1085	0.12	914217	keystroke_k	k	n/a
457.2895	0.075	914579	keystroke_e	e	n/a
457.5585	0.135	915117	keystroke_y	y	n/a
457.6495	0.119	915299	keystroke_Key.space	Key.space	n/a
457.8745	0.089	915749	keystroke_l	l	n/a
457.9185	0.076	915837	keystroke_a	a	n/a
458.0995	0.075	916199	keystroke_n	n	n/a
458.2785	0.076	916557	keystroke_c	c	n/a
458.5045	0.045	917009	keystroke_e	e	n/a
459.6735	0.09	919347	keystroke_Key.enter	Key.enter	n/a
459.7715	9.775	919543	prompt	n/a	israeli nation albania slideshow\n
460.4385	0.091	920877	keystroke_i	i	n/a
460.6945	0.06	921389	keystroke_s	s	n/a
460.9335	0.091	921867	keystroke_r	r	n/a
461.7145	0.029	923429	keystroke_a	a	n/a
462.0435	0.061	924087	keystroke_e	e	n/a
462.2245	0.074	924449	keystroke_l	l	n/a
462.5095	0.075	925019	keystroke_i	i	n/a
462.7185	0.075	925437	keystroke_Key.space	Key.space	n/a
462.9745	0.09	925949	keystroke_n	n	n/a
463.0785	0.091	926157	keystroke_a	a	n/a
463.2295	0.105	926459	keystroke_t	t	n/a
463.3795	0.194	926759	keystroke_i	i	n/a
463.4545	0.15	926909	keystroke_o	o	n/a
463.5435	0.135	927087	keystroke_n	n	n/a
463.7695	0.104	927539	keystroke_Key.space	Key.space	n/a
464.1295	0.075	928259	keystroke_a	a	n/a
464.2945	0.075	928589	keystroke_l	l	n/a
464.8345	0.059	929669	keystroke_b	b	n/a
465.1635	0.076	930327	keystroke_a	a	n/a
465.3145	0.09	930629	keystroke_n	n	n/a
465.5095	0.075	931019	keystroke_i	i	n/a
465.7335	0.091	931467	keystroke_a	a	n/a
465.9135	0.091	931827	keystroke_Key.space	Key.space	n/a
466.2445	0.075	932489	keystroke_s	s	n/a
466.3495	0.12	932699	keystroke_l	l	n/a
466.5885	0.061	933177	keystroke_i	i	n/a
467.4135	0.076	934827	keystroke_d	d	n/a
467.5945	0.044	935189	keystroke_e	e	n/a
468.0445	0.06	936089	keystroke_s	s	n/a
468.2385	0.076	936477	keystroke_h	h	n/a
468.4195	0.089	936839	keystroke_o	o	n/a
468.5395	0.074	937079	keystroke_w	w	n/a
469.4685	0.076	938937	keystroke_Key.enter	Key.enter	n/a
469.552	7.749	939104	prompt	n/a	cambridge colon hats directly\n
470.5635	0.091	941127	keystroke_c	c	n/a
470.7295	0.074	941459	keystroke_a	a	n/a
470.9685	0.076	941937	keystroke_m	m	n/a
471.8095	0.09	943619	keystroke_b	b	n/a
472.0935	0.061	944187	keystroke_r	r	n/a
472.2295	0.09	944459	keystroke_i	i	n/a
472.4095	0.09	944819	keystroke_d	d	n/a
472.6045	0.09	945209	keystroke_g	g	n/a
472.7545	0.075	945509	keystroke_e	e	n/a
473.0395	0.119	946079	keystroke_Key.space	Key.space	n/a
473.2345	0.105	946469	keystroke_c	c	n/a
473.3695	0.089	946739	keystroke_o	o	n/a
473.5945	0.105	947189	keystroke_l	l	n/a
473.8195	0.09	947639	keystroke_o	o	n/a
474.0445	0.135	948089	keystroke_n	n	n/a
474.1635	0.121	948327	keystroke_Key.space	Key.space	n/a
474.4345	0.09	948869	keystroke_h	h	n/a
474.5095	0.074	949019	keystroke_a	a	n/a
474.7645	0.0745	949529	keystroke_t	t	n/a
474.9595	0.0745	949919	keystroke_s	s	n/a
475.079	0.1195	950158	keystroke_Key.space	Key.space	n/a
475.379	0.09	950758	keystroke_d	d	n/a
475.544	0.0905	951088	keystroke_i	i	n/a
475.679	0.09	951358	keystroke_r	r	n/a
475.709	0.0755	951418	keystroke_e	e	n/a
475.9645	0.1045	951929	keystroke_c	c	n/a
476.054	0.075	952108	keystroke_t	t	n/a
476.158	0.151	952316	keystroke_l	l	n/a
476.31	0.074	952620	keystroke_y	y	n/a
477.209	0.09	954418	keystroke_Key.enter	Key.enter	n/a
477.3065	10.8695	954613	prompt	n/a	laura hong unwrap substantially\n
478.184	0.105	956368	keystroke_l	l	n/a
478.274	0.09	956548	keystroke_a	a	n/a
478.439	0.09	956878	keystroke_u	u	n/a
478.544	0.075	957088	keystroke_r	r	n/a
478.709	0.09	957418	keystroke_a	a	n/a
478.814	0.09	957628	keystroke_Key.space	Key.space	n/a
479.099	0.09	958198	keystroke_h	h	n/a
479.294	0.075	958588	keystroke_o	o	n/a
479.534	0.09	959068	keystroke_n	n	n/a
479.714	0.06	959428	keystroke_g	g	n/a
479.879	0.09	959758	keystroke_Key.space	Key.space	n/a
481.214	0.12	962428	keystroke_u	u	n/a
481.484	0.12	962968	keystroke_n	n	n/a
482.084	0.075	964168	keystroke_w	w	n/a
482.354	0.09	964708	keystroke_r	r	n/a
482.594	0.09	965188	keystroke_a	a	n/a
482.864	0.105	965728	keystroke_p	p	n/a
483.029	0.135	966058	keystroke_Key.space	Key.space	n/a
483.269	0.06	966538	keystroke_s	s	n/a
483.434	0.075	966868	keystroke_u	u	n/a
483.584	0.045	967168	keystroke_b	b	n/a
484.379	0.06	968758	keystroke_s	s	n/a
484.619	0.09	969238	keystroke_t	t	n/a
485.024	0.06	970048	keystroke_a	a	n/a
485.204	0.09	970408	keystroke_n	n	n/a
485.549	0.09	971098	keystroke_t	t	n/a
485.654	0.105	971308	keystroke_i	i	n/a
485.819	0.075	971638	keystroke_a	a	n/a
485.939	0.09	971878	keystroke_l	l	n/a
486.134	0.09	972268	keystroke_l	l	n/a
486.404	0.075	972808	keystroke_y	y	n/a
488.099	0.075	976198	keystroke_Key.enter	Key.enter	n/a
488.1815	12.3695	976363	prompt	n/a	incorrect centuries companion events\n
491.387	0.027	982774	keystroke_i	i	n/a
491.684	0.09	983368	keystroke_n	n	n/a
491.834	0.09	983668	keystroke_c	c	n/a
491.954	0.09	983908	keystroke_o	o	n/a
492.149	0.06	984298	keystroke_r	r	n/a
492.299	0.09	984598	keystroke_r	r	n/a
492.389	0.075	984778	keystroke_e	e	n/a
492.629	0.075	985258	keystroke_c	c	n/a
492.719	0.09	985438	keystroke_t	t	n/a
492.869	0.075	985738	keystroke_Key.space	Key.space	n/a
493.244	0.06	986488	keystroke_c	c	n/a
493.409	0.075	986818	keystroke_e	e	n/a
493.514	0.105	987028	keystroke_n	n	n/a
493.664	0.09	987328	keystroke_t	t	n/a
494.009	0.075	988018	keystroke_u	u	n/a
494.099	0.09	988198	keystroke_r	r	n/a
494.264	0.09	988528	keystroke_i	i	n/a
494.384	0.06	988768	keystroke_e	e	n/a
494.564	0.075	989128	keystroke_s	s	n/a
494.894	0.045	989788	keystroke_Key.space	Key.space	n/a
495.644	0.09	991288	keystroke_c	c	n/a
495.764	0.106	991528	keystroke_o	o	n/a
495.884	0.12	991768	keystroke_m	m	n/a
496.079	0.09	992158	keystroke_p	p	n/a
496.289	0.0755	992578	keystroke_a	a	n/a
496.829	0.09	993658	keystroke_n	n	n/a
497.084	0.09	994168	keystroke_i	i	n/a
497.339	0.075	994678	keystroke_o	o	n/a
497.549	0.075	995098	keystroke_n	n	n/a
497.909	0.075	995818	keystroke_Key.space	Key.space	n/a
498.089	0.075	996178	keystroke_e	e	n/a
498.254	0.09	996508	keystroke_v	v	n/a
498.329	0.09	996658	keystroke_e	e	n/a
498.449	0.09	996898	keystroke_n	n	n/a
498.584	0.09	997168	keystroke_t	t	n/a
498.734	0.075	997468	keystroke_s	s	n/a
500.444	0.105	1000888	keystroke_Key.enter	Key.enter	n/a
500.5555	9.8805	1001111	prompt	n/a	pressure powers farm represent\n
501.464	0.09	1002928	keystroke_p	p	n/a
501.554	0.09	1003108	keystroke_r	r	n/a
501.599	0.075	1003198	keystroke_e	e	n/a
501.794	0.075	1003588	keystroke_s	s	n/a
501.944	0.09	1003888	keystroke_s	s	n/a
502.094	0.06	1004188	keystroke_u	u	n/a
502.259	0.06	1004518	keystroke_r	r	n/a
502.289	0.09	1004578	keystroke_e	e	n/a
502.769	0.105	1005538	keystroke_Key.space	Key.space	n/a
502.964	0.105	1005928	keystroke_p	p	n/a
503.204	0.09	1006408	keystroke_o	o	n/a
503.699	0.135	1007398	keystroke_w	w	n/a
503.939	0.195	1007878	keystroke_e	e	n/a
503.984	0.12	1007968	keystroke_r	r	n/a
504.944	0.105	1009888	keystroke_s	s	n/a
505.079	0.105	1010158	keystroke_Key.space	Key.space	n/a
505.379	0.09	1010758	keystroke_f	f	n/a
505.484	0.075	1010968	keystroke_a	a	n/a
505.604	0.075	1011208	keystroke_r	r	n/a
506.054	0.135	1012108	keystroke_m	m	n/a
506.234	0.135	1012468	keystroke_Key.space	Key.space	n/a
506.534	0.105	1013068	keystroke_r	r	n/a
506.609	0.09	1013218	keystroke_e	e	n/a
506.8035	0.09	1013607	keystroke_p	p	n/a
507.1035	0.1055	1014207	keystroke_r	r	n/a
507.194	0.09	1014388	keystroke_e	e	n/a
507.4785	0.075	1014957	keystroke_s	s	n/a
507.6435	0.0455	1015287	keystroke_e	e	n/a
507.7635	0.0905	1015527	keystroke_n	n	n/a
507.9135	0.06	1015827	keystroke_t	t	n/a
510.4225	0.011	1020845	keystroke_Key.enter	Key.enter	n/a
510.44	11.185	1020880	prompt	n/a	goals taken cognitive chronicle\n
511.3195	0.074	1022639	keystroke_g	g	n/a
511.4385	0.09	1022877	keystroke_o	o	n/a
511.7535	0.075	1023507	keystroke_a	a	n/a
511.9195	0.089	1023839	keystroke_l	l	n/a
512.0845	0.074	1024169	keystroke_s	s	n/a
512.1885	0.09	1024377	keystroke_Key.space	Key.space	n/a
512.7135	0.09	1025427	keystroke_t	t	n/a
512.8935	0.06	1025787	keystroke_a	a	n/a
513.0595	0.074	1026119	keystroke_k	k	n/a
513.1945	0.0585	1026389	keystroke_e	e	n/a
513.7335	0.121	1027467	keystroke_n	n	n/a
513.868	0.12	1027736	keystroke_Key.space	Key.space	n/a
514.424	0.105	1028848	keystroke_c	c	n/a
514.5435	0.09	1029087	keystroke_o	o	n/a
514.7995	0.059	1029599	keystroke_g	g	n/a
514.9945	0.089	1029989	keystroke_n	n	n/a
515.1745	0.089	1030349	keystroke_i	i	n/a
515.3385	0.061	1030677	keystroke_t	t	n/a
515.4445	0.075	1030889	keystroke_i	i	n/a
515.6095	0.09	1031219	keystroke_v	v	n/a
515.6845	0.06	1031369	keystroke_e	e	n/a
516.313	0.09	1032626	keystroke_Key.space	Key.space	n/a
517.259	0.09	1034518	keystroke_c	c	n/a
517.544	0.089	1035088	keystroke_h	h	n/a
517.738	0.061	1035476	keystroke_r	r	n/a
517.888	0.091	1035776	keystroke_o	o	n/a
518.099	0.09	1036198	keystroke_n	n	n/a
518.249	0.12	1036498	keystroke_i	i	n/a
518.428	0.091	1036856	keystroke_c	c	n/a
518.579	0.09	1037158	keystroke_l	l	n/a
518.954	0.059	1037908	keystroke_e	e	n/a
521.597	0.026	1043194	keystroke_Key.enter	Key.enter	n/a
521.6295	8.3065	1043259	prompt	n/a	raise nottingham cameron diff\n
522.374	0.135	1044748	keystroke_r	r	n/a
522.7335	0.045	1045467	keystroke_a	a	n/a
522.9135	0.06	1045827	keystroke_i	i	n/a
523.0635	0.09	1046127	keystroke_s	s	n/a
523.6785	0.075	1047357	keystroke_e	e	n/a
523.8135	0.105	1047627	keystroke_Key.space	Key.space	n/a
524.039	0.0895	1048078	keystroke_n	n	n/a
524.2035	0.12	1048407	keystroke_o	o	n/a
524.3985	0.075	1048797	keystroke_t	t	n/a
524.5475	0.076	1049095	keystroke_t	t	n/a
524.6085	0.074	1049217	keystroke_i	i	n/a
524.7735	0.09	1049547	keystroke_n	n	n/a
524.8785	0.075	1049757	keystroke_g	g	n/a
525.1035	0.09	1050207	keystroke_h	h	n/a
525.2235	0.075	1050447	keystroke_a	a	n/a
525.7185	0.044	1051437	keystroke_m	m	n/a
526.3335	0.09	1052667	keystroke_Key.space	Key.space	n/a
526.6485	0.105	1053297	keystroke_c	c	n/a
526.7385	0.12	1053477	keystroke_a	a	n/a
526.9635	0.09	1053927	keystroke_m	m	n/a
527.2035	0.105	1054407	keystroke_e	e	n/a
527.2635	0.075	1054527	keystroke_r	r	n/a
527.4735	0.075	1054947	keystroke_o	o	n/a
527.6535	0.135	1055307	keystroke_n	n	n/a
527.7735	0.12	1055547	keystroke_Key.space	Key.space	n/a
528.4785	0.075	1056957	keystroke_d	d	n/a
528.5835	0.075	1057167	keystroke_i	i	n/a
528.7635	0.06	1057527	keystroke_f	f	n/a
528.8985	0.06	1057797	keystroke_f	f	n/a
529.8435	0.09	1059687	keystroke_Key.enter	Key.enter	n/a
529.9405	9.8355	1059881	prompt	n/a	sending versus effect professionals\n
530.7435	0.06	1061487	keystroke_s	s	n/a
530.9985	0.06	1061997	keystroke_e	e	n/a
531.1185	0.09	1062237	keystroke_n	n	n/a
531.2235	0.09	1062447	keystroke_d	d	n/a
531.3285	0.075	1062657	keystroke_i	i	n/a
531.4785	0.15	1062957	keystroke_n	n	n/a
531.6135	0.075	1063227	keystroke_g	g	n/a
531.7035	0.12	1063407	keystroke_Key.space	Key.space	n/a
531.9285	0.09	1063857	keystroke_v	v	n/a
532.1535	0.075	1064307	keystroke_e	e	n/a
532.1835	0.105	1064367	keystroke_r	r	n/a
532.6785	0.074	1065357	keystroke_s	s	n/a
532.8885	0.09	1065777	keystroke_u	u	n/a
533.0085	0.075	1066017	keystroke_s	s	n/a
533.5185	0.075	1067037	keystroke_Key.space	Key.space	n/a
533.9085	0.075	1067817	keystroke_e	e	n/a
534.1635	0.075	1068327	keystroke_f	f	n/a
534.2835	0.105	1068567	keystroke_f	f	n/a
534.4335	0.09	1068867	keystroke_e	e	n/a
534.6885	0.15	1069377	keystroke_c	c	n/a
534.8535	0.09	1069707	keystroke_t	t	n/a
535.0335	0.09	1070067	keystroke_Key.space	Key.space	n/a
535.7235	0.135	1071447	keystroke_p	p	n/a
535.9035	0.075	1071807	keystroke_r	r	n/a
536.0085	0.09	1072017	keystroke_o	o	n/a
536.2485	0.09	1072497	keystroke_f	f	n/a
536.4885	0.045	1072977	keystroke_e	e	n/a
536.6685	0.06	1073337	keystroke_s	s	n/a
536.8185	0.075	1073637	keystroke_s	s	n/a
537.0735	0.075	1074147	keystroke_i	i	n/a
537.2235	0.105	1074447	keystroke_o	o	n/a
537.4035	0.09	1074807	keystroke_n	n	n/a
537.5235	0.09	1075047	keystroke_a	a	n/a
537.6735	0.105	1075347	keystroke_l	l	n/a
537.8235	0.075	1075647	keystroke_s	s	n/a
539.7285	0.045	1079457	keystroke_Key.enter	Key.enter	n/a
539.7805	8.35	1079561	prompt	n/a	exemption assists copy demonstrate\n
540.4785	0.06	1080957	keystroke_e	e	n/a
540.6885	0.12	1081377	keystroke_x	x	n/a
540.9585	0.06	1081917	keystroke_e	e	n/a
541.0635	0.105	1082127	keystroke_m	m	n/a
541.2435	0.105	1082487	keystroke_p	p	n/a
541.4385	0.06	1082877	keystroke_t	t	n/a
541.6185	0.12	1083237	keystroke_i	i	n/a
541.6635	0.195	1083327	keystroke_o	o	n/a
541.7835	0.105	1083567	keystroke_n	n	n/a
542.3835	0.075	1084767	keystroke_Key.space	Key.space	n/a
542.8185	0.06	1085637	keystroke_a	a	n/a
543.0135	0.075	1086027	keystroke_s	s	n/a
543.1335	0.09	1086267	keystroke_s	s	n/a
543.2835	0.075	1086567	keystroke_i	i	n/a
543.3435	0.105	1086687	keystroke_s	s	n/a
543.5385	0.06	1087077	keystroke_t	t	n/a
543.7485	0.075	1087497	keystroke_s	s	n/a
543.9885	0.075	1087977	keystroke_Key.space	Key.space	n/a
544.2585	0.075	1088517	keystroke_c	c	n/a
544.3485	0.09	1088697	keystroke_o	o	n/a
544.5585	0.075	1089117	keystroke_p	p	n/a
544.7985	0.09	1089597	keystroke_y	y	n/a
544.9185	0.105	1089837	keystroke_Key.space	Key.space	n/a
545.1435	0.09	1090287	keystroke_d	d	n/a
545.2935	0.075	1090587	keystroke_e	e	n/a
545.3985	0.105	1090797	keystroke_m	m	n/a
545.6085	0.075	1091217	keystroke_o	o	n/a
545.7585	0.105	1091517	keystroke_n	n	n/a
545.9685	0.075	1091937	keystroke_s	s	n/a
546.1485	0.09	1092297	keystroke_t	t	n/a
546.3435	0.12	1092687	keystroke_r	r	n/a
546.6285	0.09	1093257	keystroke_a	a	n/a
546.7335	0.105	1093467	keystroke_t	t	n/a
546.8235	0.09	1093647	keystroke_e	e	n/a
548.038	0.09	1096076	keystroke_Key.enter	Key.enter	n/a
548.1355	8.05	1096271	prompt	n/a	drill parent contact colleague\n
548.984	0.074	1097968	keystroke_d	d	n/a
549.193	0.075	1098386	keystroke_r	r	n/a
549.328	0.076	1098656	keystroke_i	i	n/a
549.539	0.089	1099078	keystroke_l	l	n/a
549.703	0.135	1099406	keystroke_l	l	n/a
549.883	0.135	1099766	keystroke_Key.space	Key.space	n/a
550.258	0.091	1100516	keystroke_p	p	n/a
550.453	0.075	1100906	keystroke_a	a	n/a
550.708	0.045	1101416	keystroke_r	r	n/a
551.008	0.091	1102016	keystroke_e	e	n/a
551.143	0.09	1102286	keystroke_n	n	n/a
551.293	0.061	1102586	keystroke_t	t	n/a
551.414	0.089	1102828	keystroke_Key.space	Key.space	n/a
551.728	0.09	1103456	keystroke_c	c	n/a
551.849	0.044	1103698	keystroke_o	o	n/a
551.969	0.089	1103938	keystroke_n	n	n/a
552.163	0.06	1104326	keystroke_t	t	n/a
552.464	0.06	1104928	keystroke_a	a	n/a
552.703	0.091	1105406	keystroke_c	c	n/a
552.913	0.06	1105826	keystroke_t	t	n/a
553.168	0.12	1106336	keystroke_Key.space	Key.space	n/a
553.393	0.091	1106786	keystroke_c	c	n/a
553.513	0.105	1107026	keystroke_o	o	n/a
553.738	0.09	1107476	keystroke_l	l	n/a
553.918	0.121	1107836	keystroke_l	l	n/a
554.023	0.075	1108046	keystroke_e	e	n/a
554.398	0.075	1108796	keystroke_a	a	n/a
554.683	0.06	1109366	keystroke_g	g	n/a
554.953	0.09	1109906	keystroke_u	u	n/a
555.058	0.061	1110116	keystroke_e	e	n/a
556.108	0.075	1112216	keystroke_Key.enter	Key.enter	n/a
556.1905	9.0095	1112381	prompt	n/a	relying ecuador tunes holiday\n
556.889	0.105	1113778	keystroke_r	r	n/a
557.428	0.075	1114856	keystroke_e	e	n/a
557.653	0.105	1115306	keystroke_l	l	n/a
557.939	0.089	1115878	keystroke_y	y	n/a
558.178	0.076	1116356	keystroke_i	i	n/a
558.418	0.12	1116836	keystroke_n	n	n/a
558.524	0.09	1117048	keystroke_g	g	n/a
558.628	0.105	1117256	keystroke_Key.space	Key.space	n/a
559.138	0.061	1118276	keystroke_e	e	n/a
559.394	0.074	1118788	keystroke_c	c	n/a
559.633	0.075	1119266	keystroke_u	u	n/a
559.799	0.074	1119598	keystroke_a	a	n/a
560.053	0.075	1120106	keystroke_d	d	n/a
560.189	0.089	1120378	keystroke_o	o	n/a
560.339	0.059	1120678	keystroke_r	r	n/a
560.563	0.1045	1121126	keystroke_Key.space	Key.space	n/a
560.8625	0.0905	1121725	keystroke_t	t	n/a
561.0275	0.061	1122055	keystroke_u	u	n/a
561.8685	0.089	1123737	keystroke_n	n	n/a
561.9425	0.06	1123885	keystroke_e	e	n/a
562.1985	0.074	1124397	keystroke_s	s	n/a
562.3175	0.09	1124635	keystroke_Key.space	Key.space	n/a
562.5435	0.075	1125087	keystroke_h	h	n/a
562.8885	0.089	1125777	keystroke_o	o	n/a
563.1135	0.119	1126227	keystroke_l	l	n/a
563.3685	0.044	1126737	keystroke_i	i	n/a
563.5925	0.046	1127185	keystroke_d	d	n/a
563.8185	0.105	1127637	keystroke_a	a	n/a
564.0725	0.06	1128145	keystroke_y	y	n/a
565.1075	0.09	1130215	keystroke_Key.enter	Key.enter	n/a
565.207	16.4185	1130414	prompt	n/a	breach individuals gmbh banana\n
565.9185	0.09	1131837	keystroke_b	b	n/a
566.1575	0.091	1132315	keystroke_r	r	n/a
566.5935	0.105	1133187	keystroke_e	e	n/a
567.1025	0.061	1134205	keystroke_a	a	n/a
567.4185	0.074	1134837	keystroke_c	c	n/a
567.6275	0.15	1135255	keystroke_h	h	n/a
567.7325	0.135	1135465	keystroke_Key.space	Key.space	n/a
567.9275	0.091	1135855	keystroke_i	i	n/a
568.2275	0.076	1136455	keystroke_d	d	n/a
568.3785	0.09	1136757	keystroke_i	i	n/a
568.6185	0.075	1137237	keystroke_v	v	n/a
568.7835	0.075	1137567	keystroke_i	i	n/a
569.0075	0.061	1138015	keystroke_d	d	n/a
569.1585	0.075	1138317	keystroke_u	u	n/a
569.4275	0.061	1138855	keystroke_a	a	n/a
569.6385	0.105	1139277	keystroke_l	l	n/a
569.8785	0.074	1139757	keystroke_s	s	n/a
570.0125	0.106	1140025	keystroke_Key.space	Key.space	n/a
571.9635	0.075	1143927	keystroke_Key.backspace	Key.backspace	n/a
572.1425	0.06	1144285	keystroke_Key.backspace	Key.backspace	n/a
572.3075	0.06	1144615	keystroke_Key.backspace	Key.backspace	n/a
572.4725	0.091	1144945	keystroke_Key.backspace	Key.backspace	n/a
572.6525	0.061	1145305	keystroke_Key.backspace	Key.backspace	n/a
572.8175	0.076	1145635	keystroke_Key.backspace	Key.backspace	n/a
572.9975	0.076	1145995	keystroke_Key.backspace	Key.backspace	n/a
573.1635	0.089	1146327	keystroke_Key.backspace	Key.backspace	n/a
573.3275	0.105	1146655	keystroke_Key.backspace	Key.backspace	n/a
573.5835	0.089	1147167	keystroke_Key.backspace	Key.backspace	n/a
574.3185	0.105	1148637	keystroke_n	n	n/a
574.4385	0.075	1148877	keystroke_d	d	n/a
574.5735	0.075	1149147	keystroke_i	i	n/a
574.9185	0.075	1149837	keystroke_v	v	n/a
575.0385	0.075	1150077	keystroke_i	i	n/a
575.2185	0.075	1150437	keystroke_d	d	n/a
575.3685	0.075	1150737	keystroke_u	u	n/a
575.4885	0.075	1150977	keystroke_a	a	n/a
575.6535	0.075	1151307	keystroke_l	l	n/a
575.7885	0.09	1151577	keystroke_s	s	n/a
576.1485	0.09	1152297	keystroke_Key.space	Key.space	n/a
576.4335	0.075	1152867	keystroke_g	g	n/a
576.6735	0.09	1153347	keystroke_m	m	n/a
577.0485	0.06	1154097	keystroke_b	b	n/a
577.4835	0.089	1154967	keystroke_h	h	n/a
577.7235	0.09	1155447	keystroke_Key.space	Key.space	n/a
579.3285	0.105	1158657	keystroke_b	b	n/a
579.6135	0.075	1159227	keystroke_a	a	n/a
579.7935	0.12	1159587	keystroke_n	n	n/a
579.9285	0.074	1159857	keystroke_a	a	n/a
580.0635	0.09	1160127	keystroke_n	n	n/a
580.1685	0.045	1160337	keystroke_a	a	n/a
581.5335	0.09	1163067	keystroke_Key.enter	Key.enter	n/a
581.6305	9.464	1163261	prompt	n/a	boys carry jefferson unsubscribe\n
582.4635	0.06	1164927	keystroke_b	b	n/a
582.7635	0.075	1165527	keystroke_o	o	n/a
583.0335	0.09	1166067	keystroke_y	y	n/a
583.1985	0.09	1166397	keystroke_s	s	n/a
583.3035	0.075	1166607	keystroke_Key.space	Key.space	n/a
583.4835	0.105	1166967	keystroke_c	c	n/a
583.7085	0.074	1167417	keystroke_a	a	n/a
583.9485	0.045	1167897	keystroke_r	r	n/a
584.0835	0.06	1168167	keystroke_r	r	n/a
584.2485	0.15	1168497	keystroke_y	y	n/a
584.3535	0.105	1168707	keystroke_Key.space	Key.space	n/a
584.6535	0.105	1169307	keystroke_j	j	n/a
584.7885	0.09	1169577	keystroke_e	e	n/a
585.0285	0.045	1170057	keystroke_f	f	n/a
585.1635	0.075	1170327	keystroke_f	f	n/a
585.3135	0.09	1170627	keystroke_e	e	n/a
585.3735	0.105	1170747	keystroke_r	r	n/a
585.5535	0.105	1171107	keystroke_s	s	n/a
585.6735	0.09	1171347	keystroke_o	o	n/a
585.8535	0.135	1171707	keystroke_n	n	n/a
585.9585	0.15	1171917	keystroke_Key.space	Key.space	n/a
586.3185	0.105	1172637	keystroke_u	u	n/a
586.6035	0.09	1173207	keystroke_n	n	n/a
587.0535	0.12	1174107	keystroke_s	s	n/a
587.3235	0.075	1174647	keystroke_u	u	n/a
587.5185	0.06	1175037	keystroke_b	b	n/a
587.7435	0.075	1175487	keystroke_s	s	n/a
587.9535	0.09	1175907	keystroke_c	c	n/a
588.1635	0.06	1176327	keystroke_r	r	n/a
588.3135	0.075	1176627	keystroke_i	i	n/a
588.5535	0.045	1177107	keystroke_b	b	n/a
588.7335	0.06	1177467	keystroke_e	e	n/a
591.091	0.001	1182182	keystroke_Key.enter	Key.enter	n/a
591.1005	11.149	1182201	prompt	n/a	hispanic lodging changelog anna\n
592.0485	0.0745	1184097	keystroke_h	h	n/a
592.198	0.12	1184396	keystroke_i	i	n/a
592.273	0.0755	1184546	keystroke_s	s	n/a
592.423	0.075	1184846	keystroke_p	p	n/a
592.543	0.06	1185086	keystroke_a	a	n/a
592.693	0.075	1185386	keystroke_n	n	n/a
592.873	0.075	1185746	keystroke_i	i	n/a
593.008	0.105	1186016	keystroke_c	c	n/a
593.128	0.075	1186256	keystroke_Key.space	Key.space	n/a
593.503	0.09	1187006	keystroke_l	l	n/a
593.833	0.075	1187666	keystroke_o	o	n/a
593.968	0.075	1187936	keystroke_d	d	n/a
594.283	0.075	1188566	keystroke_g	g	n/a
594.373	0.075	1188746	keystroke_i	i	n/a
594.568	0.105	1189136	keystroke_n	n	n/a
594.688	0.075	1189376	keystroke_g	g	n/a
594.793	0.09	1189586	keystroke_Key.space	Key.space	n/a
597.301	0.027	1194602	keystroke_c	c	n/a
597.838	0.075	1195676	keystroke_h	h	n/a
597.943	0.09	1195886	keystroke_a	a	n/a
598.063	0.105	1196126	keystroke_n	n	n/a
598.273	0.09	1196546	keystroke_g	g	n/a
598.453	0.105	1196906	keystroke_e	e	n/a
598.618	0.105	1197236	keystroke_l	l	n/a
598.828	0.09	1197656	keystroke_o	o	n/a
598.933	0.075	1197866	keystroke_g	g	n/a
599.143	0.09	1198286	keystroke_Key.space	Key.space	n/a
600.118	0.06	1200236	keystroke_a	a	n/a
600.358	0.075	1200716	keystroke_n	n	n/a
600.508	0.09	1201016	keystroke_n	n	n/a
600.613	0.075	1201226	keystroke_a	a	n/a
602.158	0.09	1204316	keystroke_Key.enter	Key.enter	n/a
602.2555	7.3745	1204511	prompt	n/a	handling grocery oral hats\n
603.028	0.09	1206056	keystroke_h	h	n/a
603.133	0.06	1206266	keystroke_a	a	n/a
603.268	0.09	1206536	keystroke_n	n	n/a
603.373	0.075	1206746	keystroke_d	d	n/a
603.523	0.09	1207046	keystroke_l	l	n/a
603.733	0.045	1207466	keystroke_i	i	n/a
603.928	0.12	1207856	keystroke_n	n	n/a
604.033	0.06	1208066	keystroke_g	g	n/a
604.123	0.09	1208246	keystroke_Key.space	Key.space	n/a
604.423	0.09	1208846	keystroke_g	g	n/a
604.663	0.06	1209326	keystroke_r	r	n/a
604.903	0.09	1209806	keystroke_o	o	n/a
605.068	0.105	1210136	keystroke_c	c	n/a
605.308	0.075	1210616	keystroke_e	e	n/a
605.353	0.09	1210706	keystroke_r	r	n/a
605.668	0.12	1211336	keystroke_y	y	n/a
605.818	0.105	1211636	keystroke_Key.space	Key.space	n/a
606.403	0.105	1212806	keystroke_o	o	n/a
606.523	0.075	1213046	keystroke_r	r	n/a
606.703	0.075	1213406	keystroke_a	a	n/a
606.868	0.135	1213736	keystroke_l	l	n/a
606.988	0.12	1213976	keystroke_Key.space	Key.space	n/a
607.213	0.09	1214426	keystroke_h	h	n/a
607.318	0.075	1214636	keystroke_a	a	n/a
607.498	0.075	1214996	keystroke_t	t	n/a
608.068	0.075	1216136	keystroke_s	s	n/a
609.553	0.075	1219106	keystroke_Key.enter	Key.enter	n/a
609.6345	9.415	1219269	prompt	n/a	occurrence produces recovered coming\n
610.678	0.105	1221356	keystroke_o	o	n/a
611.278	0.105	1222556	keystroke_c	c	n/a
611.593	0.075	1223186	keystroke_c	c	n/a
611.8925	0.09	1223785	keystroke_u	u	n/a
612.1325	0.075	1224265	keystroke_r	r	n/a
612.2975	0.09	1224595	keystroke_r	r	n/a
612.5525	0.075	1225105	keystroke_e	e	n/a
612.7025	0.09	1225405	keystroke_n	n	n/a
612.8525	0.105	1225705	keystroke_c	c	n/a
613.0325	0.075	1226065	keystroke_e	e	n/a
613.1525	0.09	1226305	keystroke_Key.space	Key.space	n/a
613.3775	0.105	1226755	keystroke_p	p	n/a
613.662	0.09	1227324	keystroke_r	r	n/a
613.782	0.12	1227564	keystroke_o	o	n/a
614.1875	0.06	1228375	keystroke_d	d	n/a
614.4575	0.075	1228915	keystroke_u	u	n/a
614.6675	0.09	1229335	keystroke_c	c	n/a
614.8925	0.06	1229785	keystroke_e	e	n/a
615.1025	0.03	1230205	keystroke_s	s	n/a
615.1925	0.09	1230385	keystroke_Key.space	Key.space	n/a
615.4625	0.06	1230925	keystroke_r	r	n/a
615.4925	0.075	1230985	keystroke_e	e	n/a
615.7475	0.09	1231495	keystroke_c	c	n/a
615.8675	0.105	1231735	keystroke_o	o	n/a
616.0475	0.105	1232095	keystroke_v	v	n/a
616.3025	0.12	1232605	keystroke_e	e	n/a
616.6025	0.06	1233205	keystroke_r	r	n/a
616.9775	0.06	1233955	keystroke_e	e	n/a
617.1875	0.075	1234375	keystroke_d	d	n/a
617.3975	0.09	1234795	keystroke_Key.space	Key.space	n/a
617.6075	0.09	1235215	keystroke_c	c	n/a
617.7125	0.105	1235425	keystroke_o	o	n/a
617.8625	0.12	1235725	keystroke_m	m	n/a
617.9975	0.075	1235995	keystroke_i	i	n/a
618.1625	0.09	1236325	keystroke_n	n	n/a
618.3275	0.045	1236655	keystroke_g	g	n/a
618.9725	0.075	1237945	keystroke_Key.enter	Key.enter	n/a
619.055	12.6695	1238110	prompt	n/a	household bennett phones authentic\n
619.8725	0.105	1239745	keystroke_h	h	n/a
620.0525	0.09	1240105	keystroke_o	o	n/a
620.1435	0.134	1240287	keystroke_u	u	n/a
620.3675	0.06	1240735	keystroke_s	s	n/a
620.5775	0.075	1241155	keystroke_e	e	n/a
620.8625	0.09	1241725	keystroke_h	h	n/a
621.0275	0.105	1242055	keystroke_o	o	n/a
621.2525	0.105	1242505	keystroke_l	l	n/a
621.3425	0.075	1242685	keystroke_d	d	n/a
621.4475	0.09	1242895	keystroke_Key.space	Key.space	n/a
621.6875	0.09	1243375	keystroke_b	b	n/a
621.9125	0.06	1243825	keystroke_e	e	n/a
622.1075	0.045	1244215	keystroke_n	n	n/a
622.2425	0.075	1244485	keystroke_n	n	n/a
622.3475	0.075	1244695	keystroke_e	e	n/a
622.5725	0.06	1245145	keystroke_t	t	n/a
622.692	0.075	1245384	keystroke_Key.space	Key.space	n/a
623.427	0.075	1246854	keystroke_Key.backspace	Key.backspace	n/a
623.608	0.059	1247216	keystroke_t	t	n/a
623.7575	0.075	1247515	keystroke_Key.space	Key.space	n/a
624.162	0.09	1248324	keystroke_p	p	n/a
624.342	0.09	1248684	keystroke_h	h	n/a
624.5225	0.135	1249045	keystroke_o	o	n/a
625.2125	0.09	1250425	keystroke_n	n	n/a
625.2575	0.075	1250515	keystroke_e	e	n/a
625.4975	0.075	1250995	keystroke_s	s	n/a
625.6775	0.105	1251355	keystroke_Key.space	Key.space	n/a
626.1575	0.06	1252315	keystroke_a	a	n/a
626.322	0.075	1252644	keystroke_u	u	n/a
626.517	0.0605	1253034	keystroke_t	t	n/a
626.652	0.09	1253304	keystroke_h	h	n/a
626.772	0.075	1253544	keystroke_e	e	n/a
626.922	0.105	1253844	keystroke_n	n	n/a
627.477	0.06	1254954	keystroke_t	t	n/a
627.597	0.06	1255194	keystroke_i	i	n/a
628.152	0.075	1256304	keystroke_c	c	n/a
631.6495	0.0725	1263299	keystroke_Key.enter	Key.enter	n/a
631.729	9.7155	1263458	prompt	n/a	anyone decision scoring eggs\n
634.11	0.001	1268220	keystroke_a	a	n/a
634.137	0.105	1268274	keystroke_n	n	n/a
634.377	0.075	1268754	keystroke_y	y	n/a
634.587	0.0905	1269174	keystroke_o	o	n/a
634.782	0.09	1269564	keystroke_n	n	n/a
634.887	0.06	1269774	keystroke_e	e	n/a
634.992	0.0905	1269984	keystroke_Key.space	Key.space	n/a
635.893	0.09	1271786	keystroke_d	d	n/a
636.072	0.031	1272144	keystroke_e	e	n/a
636.327	0.075	1272654	keystroke_c	c	n/a
636.447	0.075	1272894	keystroke_i	i	n/a
636.612	0.06	1273224	keystroke_s	s	n/a
636.837	0.165	1273674	keystroke_i	i	n/a
636.942	0.165	1273884	keystroke_o	o	n/a
637.017	0.135	1274034	keystroke_n	n	n/a
637.227	0.075	1274454	keystroke_Key.space	Key.space	n/a
637.467	0.075	1274934	keystroke_s	s	n/a
637.663	0.074	1275326	keystroke_c	c	n/a
637.767	0.105	1275534	keystroke_o	o	n/a
637.962	0.06	1275924	keystroke_r	r	n/a
638.112	0.061	1276224	keystroke_i	i	n/a
638.292	0.09	1276584	keystroke_n	n	n/a
638.427	0.06	1276854	keystroke_g	g	n/a
638.547	0.09	1277094	keystroke_Key.space	Key.space	n/a
639.222	0.075	1278444	keystroke_e	e	n/a
639.522	0.06	1279044	keystroke_g	g	n/a
639.642	0.075	1279284	keystroke_g	g	n/a
639.807	0.075	1279614	keystroke_s	s	n/a
641.367	0.075	1282734	keystroke_Key.enter	Key.enter	n/a
641.4495	12.775	1282899	prompt	n/a	holdings grows czech helpful\n
645.0155	0.042	1290031	keystroke_h	h	n/a
645.1175	0.119	1290235	keystroke_o	o	n/a
645.3275	0.105	1290655	keystroke_l	l	n/a
645.3865	0.091	1290773	keystroke_d	d	n/a
645.5365	0.061	1291073	keystroke_i	i	n/a
645.7015	0.091	1291403	keystroke_n	n	n/a
645.7775	0.09	1291555	keystroke_g	g	n/a
646.0925	0.09	1292185	keystroke_s	s	n/a
646.2265	0.061	1292453	keystroke_Key.space	Key.space	n/a
646.9325	0.074	1293865	keystroke_g	g	n/a
647.1125	0.074	1294225	keystroke_r	r	n/a
647.2775	0.074	1294555	keystroke_o	o	n/a
647.3825	0.075	1294765	keystroke_w	w	n/a
647.6375	0.074	1295275	keystroke_s	s	n/a
647.7565	0.075	1295513	keystroke_Key.space	Key.space	n/a
648.2815	0.105	1296563	keystroke_c	c	n/a
649.2275	0.089	1298455	keystroke_z	z	n/a
649.4525	0.074	1298905	keystroke_e	e	n/a
649.7665	0.076	1299533	keystroke_c	c	n/a
650.0365	0.076	1300073	keystroke_h	h	n/a
650.7875	0.089	1301575	keystroke_Key.space	Key.space	n/a
651.0265	0.106	1302053	keystroke_h	h	n/a
651.1015	0.076	1302203	keystroke_e	e	n/a
651.2525	0.09	1302505	keystroke_l	l	n/a
651.4015	0.12	1302803	keystroke_p	p	n/a
652.0475	0.075	1304095	keystroke_f	f	n/a
652.1965	0.091	1304393	keystroke_u	u	n/a
652.4075	0.12	1304815	keystroke_l	l	n/a
654.1465	0.075	1308293	keystroke_Key.enter	Key.enter	n/a
654.229	7.225	1308458	prompt	n/a	ecology digest sports reason\n
655.0475	0.044	1310095	keystroke_e	e	n/a
655.2575	0.074	1310515	keystroke_c	c	n/a
655.3615	0.09	1310723	keystroke_o	o	n/a
655.5575	0.105	1311115	keystroke_l	l	n/a
655.7675	0.075	1311535	keystroke_o	o	n/a
655.8565	0.061	1311713	keystroke_g	g	n/a
656.0365	0.121	1312073	keystroke_y	y	n/a
656.1715	0.121	1312343	keystroke_Key.space	Key.space	n/a
656.4275	0.075	1312855	keystroke_d	d	n/a
656.5165	0.076	1313033	keystroke_i	i	n/a
657.0575	0.075	1314115	keystroke_g	g	n/a
657.2515	0.045	1314503	keystroke_e	e	n/a
657.4465	0.106	1314893	keystroke_s	s	n/a
657.5215	0.091	1315043	keystroke_t	t	n/a
657.6715	0.105	1315343	keystroke_Key.space	Key.space	n/a
657.8825	0.074	1315765	keystroke_s	s	n/a
657.9865	0.076	1315973	keystroke_p	p	n/a
658.1825	0.104	1316365	keystroke_o	o	n/a
658.2715	0.075	1316543	keystroke_r	r	n/a
658.4825	0.075	1316965	keystroke_t	t	n/a
658.6475	0.06	1317295	keystroke_s	s	n/a
658.8415	0.09	1317683	keystroke_Key.space	Key.space	n/a
659.3365	0.105	1318673	keystroke_r	r	n/a
659.3965	0.075	1318793	keystroke_e	e	n/a
659.9075	0.06	1319815	keystroke_a	a	n/a
660.1165	0.076	1320233	keystroke_s	s	n/a
660.2365	0.061	1320473	keystroke_o	o	n/a
660.4175	0.075	1320835	keystroke_n	n	n/a
661.3625	0.089	1322725	keystroke_Key.enter	Key.enter	n/a
661.458	11.111	1322916	prompt	n/a	screensavers commitments arrival lower\n
662.3365	0.076	1324673	keystroke_s	s	n/a
662.5175	0.12	1325035	keystroke_c	c	n/a
662.8165	0.136	1325633	keystroke_r	r	n/a
663.7325	0.059	1327465	keystroke_e	e	n/a
663.8825	0.075	1327765	keystroke_e	e	n/a
664.0175	0.09	1328035	keystroke_n	n	n/a
664.1975	0.09	1328395	keystroke_s	s	n/a
664.377	0.075	1328754	keystroke_a	a	n/a
664.512	0.1055	1329024	keystroke_v	v	n/a
664.7375	0.075	1329475	keystroke_e	e	n/a
664.7825	0.104	1329565	keystroke_r	r	n/a
665.2465	0.076	1330493	keystroke_s	s	n/a
665.5765	0.105	1331153	keystroke_Key.space	Key.space	n/a
666.2225	0.105	1332445	keystroke_c	c	n/a
666.3575	0.12	1332715	keystroke_o	o	n/a
666.5975	0.06	1333195	keystroke_m	m	n/a
666.7775	0.03	1333555	keystroke_m	m	n/a
667.3925	0.09	1334785	keystroke_i	i	n/a
667.6025	0.044	1335205	keystroke_t	t	n/a
667.9325	0.105	1335865	keystroke_m	m	n/a
668.0215	0.061	1336043	keystroke_e	e	n/a
668.1875	0.075	1336375	keystroke_n	n	n/a
668.2465	0.106	1336493	keystroke_t	t	n/a
668.3975	0.075	1336795	keystroke_s	s	n/a
668.9665	0.106	1337933	keystroke_Key.space	Key.space	n/a
669.1625	0.09	1338325	keystroke_a	a	n/a
669.3575	0.06	1338715	keystroke_r	r	n/a
669.5075	0.06	1339015	keystroke_r	r	n/a
669.9575	0.075	1339915	keystroke_i	i	n/a
670.0775	0.12	1340155	keystroke_v	v	n/a
670.2725	0.075	1340545	keystroke_a	a	n/a
670.3925	0.105	1340785	keystroke_l	l	n/a
670.5275	0.135	1341055	keystroke_Key.space	Key.space	n/a
670.8575	0.09	1341715	keystroke_l	l	n/a
671.0665	0.091	1342133	keystroke_o	o	n/a
671.1275	0.105	1342255	keystroke_w	w	n/a
671.3825	0.12	1342765	keystroke_e	e	n/a
671.4725	0.09	1342945	keystroke_r	r	n/a
672.5075	0.06	1345015	keystroke_Key.enter	Key.enter	n/a
672.5745	12.9545	1345149	prompt	n/a	maximum yale thickness specialties\n
673.7375	0.09	1347475	keystroke_m	m	n/a
674.2025	0.09	1348405	keystroke_a	a	n/a
674.4725	0.09	1348945	keystroke_x	x	n/a
674.6375	0.074	1349275	keystroke_i	i	n/a
674.8475	0.09	1349695	keystroke_m	m	n/a
675.1175	0.075	1350235	keystroke_u	u	n/a
675.3875	0.15	1350775	keystroke_m	m	n/a
675.5075	0.12	1351015	keystroke_Key.space	Key.space	n/a
675.8665	0.106	1351733	keystroke_y	y	n/a
675.9425	0.075	1351885	keystroke_a	a	n/a
676.1225	0.105	1352245	keystroke_l	l	n/a
676.2725	0.075	1352545	keystroke_e	e	n/a
676.4075	0.09	1352815	keystroke_Key.space	Key.space	n/a
676.7225	0.09	1353445	keystroke_t	t	n/a
676.8275	0.09	1353655	keystroke_h	h	n/a
676.9625	0.105	1353925	keystroke_i	i	n/a
677.3675	0.06	1354735	keystroke_c	c	n/a
677.4725	0.075	1354945	keystroke_k	k	n/a
677.6675	0.075	1355335	keystroke_n	n	n/a
677.8025	0.06	1355605	keystroke_e	e	n/a
678.0275	0.06	1356055	keystroke_s	s	n/a
678.1625	0.105	1356325	keystroke_s	s	n/a
678.2975	0.12	1356595	keystroke_Key.space	Key.space	n/a
680.0375	0.09	1360075	keystroke_s	s	n/a
680.1875	0.105	1360375	keystroke_p	p	n/a
680.3525	0.075	1360705	keystroke_e	e	n/a
680.9375	0.09	1361875	keystroke_c	c	n/a
681.0725	0.075	1362145	keystroke_i	i	n/a
681.2975	0.015	1362595	keystroke_a	a	n/a
681.4475	0.105	1362895	keystroke_l	l	n/a
682.1225	0.12	1364245	keystroke_t	t	n/a
682.4525	0.075	1364905	keystroke_i	i	n/a
682.5425	0.06	1365085	keystroke_e	e	n/a
682.7375	0.075	1365475	keystroke_s	s	n/a
685.4705	0.057	1370941	keystroke_Key.enter	Key.enter	n/a
685.5355	7.029	1371071	prompt	n/a	video jackets courtesy are\n
686.2475	0.09	1372495	keystroke_v	v	n/a
686.4125	0.09	1372825	keystroke_i	i	n/a
686.4875	0.09	1372975	keystroke_d	d	n/a
686.6525	0.075	1373305	keystroke_e	e	n/a
686.7575	0.105	1373515	keystroke_o	o	n/a
686.8775	0.09	1373755	keystroke_Key.space	Key.space	n/a
687.1625	0.105	1374325	keystroke_j	j	n/a
687.2975	0.09	1374595	keystroke_a	a	n/a
687.5525	0.12	1375105	keystroke_c	c	n/a
687.6875	0.075	1375375	keystroke_k	k	n/a
687.8375	0.06	1375675	keystroke_e	e	n/a
688.0475	0.075	1376095	keystroke_t	t	n/a
688.2275	0.06	1376455	keystroke_s	s	n/a
688.6775	0.12	1377355	keystroke_Key.space	Key.space	n/a
688.9325	0.09	1377865	keystroke_c	c	n/a
689.3975	0.09	1378795	keystroke_o	o	n/a
689.6225	0.06	1379245	keystroke_u	u	n/a
689.7875	0.075	1379575	keystroke_r	r	n/a
690.0275	0.06	1380055	keystroke_t	t	n/a
690.2075	0.075	1380415	keystroke_e	e	n/a
690.4325	0.06	1380865	keystroke_s	s	n/a
690.7475	0.12	1381495	keystroke_y	y	n/a
690.9425	0.09	1381885	keystroke_Key.space	Key.space	n/a
691.1075	0.105	1382215	keystroke_a	a	n/a
691.2875	0.075	1382575	keystroke_r	r	n/a
691.3475	0.09	1382695	keystroke_e	e	n/a
692.4875	0.075	1384975	keystroke_Key.enter	Key.enter	n/a
692.5715	7.3585	1385143	prompt	n/a	serum logged lamps courts\n
693.2375	0.06	1386475	keystroke_s	s	n/a
693.4045	0.059	1386809	keystroke_e	e	n/a
693.6425	0.075	1387285	keystroke_r	r	n/a
693.8375	0.075	1387675	keystroke_u	u	n/a
694.1075	0.165	1388215	keystroke_m	m	n/a
694.2125	0.12	1388425	keystroke_Key.space	Key.space	n/a
694.3925	0.135	1388785	keystroke_l	l	n/a
694.6475	0.075	1389295	keystroke_o	o	n/a
694.7825	0.075	1389565	keystroke_g	g	n/a
694.9325	0.075	1389865	keystroke_g	g	n/a
695.1725	0.03	1390345	keystroke_e	e	n/a
695.3075	0.06	1390615	keystroke_d	d	n/a
695.4275	0.09	1390855	keystroke_Key.space	Key.space	n/a
695.6825	0.09	1391365	keystroke_l	l	n/a
695.8325	0.09	1391665	keystroke_a	a	n/a
695.9675	0.09	1391935	keystroke_m	m	n/a
696.1625	0.09	1392325	keystroke_p	p	n/a
696.2975	0.075	1392595	keystroke_s	s	n/a
696.7025	0.105	1393405	keystroke_Key.space	Key.space	n/a
696.9425	0.09	1393885	keystroke_c	c	n/a
697.0625	0.105	1394125	keystroke_o	o	n/a
697.1375	0.09	1394275	keystroke_u	u	n/a
697.5425	0.075	1395085	keystroke_r	r	n/a
697.7225	0.09	1395445	keystroke_t	t	n/a
697.9325	0.075	1395865	keystroke_s	s	n/a
699.8375	0.09	1399675	keystroke_Key.enter	Key.enter	n/a
699.935	17.095	1399870	prompt	n/a	there're introduce restriction manufacturing\n
701.0525	0.12	1402105	keystroke_t	t	n/a
701.2325	0.09	1402465	keystroke_h	h	n/a
701.2925	0.09	1402585	keystroke_e	e	n/a
701.3525	0.12	1402705	keystroke_r	r	n/a
701.4575	0.075	1402915	keystroke_e	e	n/a
702.3575	0.075	1404715	keystroke_;	;	n/a
703.3775	0.105	1406755	keystroke_Key.backspace	Key.backspace	n/a
704.1125	0.105	1408225	keystroke_'	'	n/a
704.6075	0.09	1409215	keystroke_r	r	n/a
704.6825	0.06	1409365	keystroke_e	e	n/a
705.3275	0.09	1410655	keystroke_Key.space	Key.space	n/a
705.6125	0.075	1411225	keystroke_i	i	n/a
705.7775	0.12	1411555	keystroke_n	n	n/a
706.1975	0.09	1412395	keystroke_t	t	n/a
707.3075	0.075	1414615	keystroke_r	r	n/a
707.5025	0.06	1415005	keystroke_o	o	n/a
707.9075	0.075	1415815	keystroke_d	d	n/a
708.0275	0.075	1416055	keystroke_u	u	n/a
708.2675	0.075	1416535	keystroke_c	c	n/a
708.4625	0.06	1416925	keystroke_e	e	n/a
708.6275	0.09	1417255	keystroke_Key.space	Key.space	n/a
709.1075	0.105	1418215	keystroke_r	r	n/a
709.1975	0.075	1418395	keystroke_e	e	n/a
709.3775	0.12	1418755	keystroke_s	s	n/a
709.4675	0.105	1418935	keystroke_t	t	n/a
709.6625	0.09	1419325	keystroke_r	r	n/a
709.9025	0.09	1419805	keystroke_i	i	n/a
710.5025	0.075	1421005	keystroke_c	c	n/a
