onset	duration	sample	value	key	prompt_text
3.647	14.643	7294	prompt	n/a	the quick brown fox jumps over a lazy dog\n
5.6415	0.041	11283	keystroke	t	n/a
5.7135	0.092	11427	keystroke	h	n/a
5.7905	0.105	11581	keystroke	e	n/a
6.0155	0.105	12031	keystroke	Key.space	n/a
6.3615	0.105	12723	keystroke	q	n/a
6.5415	0.09	13083	keystroke	u	n/a
6.7365	0.075	13473	keystroke	i	n/a
6.9165	0.09	13833	keystroke	c	n/a
7.0515	0.075	14103	keystroke	k	n/a
7.3215	0.12	14643	keystroke	Key.space	n/a
7.6515	0.09	15303	keystroke	r	n/a
8.6115	0.105	17223	keystroke	Key.backspace	n/a
9.482	0.074	18964	keystroke	b	n/a
9.586	0.091	19172	keystroke	r	n/a
9.766	0.091	19532	keystroke	o	n/a
10.0065	0.091	20013	keystroke	n	n/a
10.8615	0.106	21723	keystroke	Key.backspace	n/a
11.207	0.09	22414	keystroke	w	n/a
11.432	0.075	22864	keystroke	n	n/a
11.942	0.12	23884	keystroke	Key.space	n/a
12.197	0.075	24394	keystroke	f	n/a
12.332	0.075	24664	keystroke	o	n/a
12.452	0.075	24904	keystroke	x	n/a
12.557	0.135	25114	keystroke	Key.space	n/a
12.827	0.045	25654	keystroke	j	n/a
13.037	0.09	26074	keystroke	u	n/a
13.292	0.105	26584	keystroke	m	n/a
13.532	0.105	27064	keystroke	p	n/a
13.667	0.09	27334	keystroke	s	n/a
13.8915	0.12	27783	keystroke	Key.space	n/a
14.1465	0.061	28293	keystroke	o	n/a
14.8075	0.105	29615	keystroke	v	n/a
15.0175	0.105	30035	keystroke	e	n/a
15.1075	0.089	30215	keystroke	r	n/a
15.2725	0.074	30545	keystroke	Key.space	n/a
15.3925	0.105	30785	keystroke	a	n/a
15.5265	0.09	31053	keystroke	Key.space	n/a
15.7965	0.075	31593	keystroke	l	n/a
15.9625	0.105	31925	keystroke	a	n/a
16.1715	0.076	32343	keystroke	z	n/a
16.3675	0.075	32735	keystroke	y	n/a
16.576	0.0755	33152	keystroke	Key.space	n/a
16.8175	0.089	33635	keystroke	d	n/a
16.9525	0.06	33905	keystroke	o	n/a
17.1175	0.059	34235	keystroke	g	n/a
18.1815	0.105	36363	keystroke	Key.enter	n/a
18.2965	10.598	36593	prompt	n/a	closed wide climbing pokemon\n
18.9625	0.089	37925	keystroke	c	n/a
19.1565	0.06	38313	keystroke	l	n/a
19.3515	0.06	38703	keystroke	o	n/a
19.4265	0.06	38853	keystroke	s	n/a
19.5465	0.06	39093	keystroke	e	n/a
19.7265	0.075	39453	keystroke	d	n/a
19.8915	0.105	39783	keystroke	Key.space	n/a
20.0265	0.09	40053	keystroke	w	n/a
20.2965	0.045	40593	keystroke	i	n/a
20.3565	0.09	40713	keystroke	d	n/a
20.5665	0.075	41133	keystroke	e	n/a
20.6865	0.12	41373	keystroke	Key.space	n/a
20.8665	0.075	41733	keystroke	c	n/a
21.0315	0.06	42063	keystroke	l	n/a
21.4965	0.09	42993	keystroke	i	n/a
21.8565	0.075	43713	keystroke	m	n/a
22.0965	0.06	44193	keystroke	b	n/a
22.3515	0.06	44703	keystroke	i	n/a
22.4425	0.074	44885	keystroke	n	n/a
22.5615	0.075	45123	keystroke	g	n/a
22.7715	0.09	45543	keystroke	Key.space	n/a
23.3415	0.12	46683	keystroke	p	n/a
23.7015	0.075	47403	keystroke	o	n/a
24.167	0.075	48334	keystroke	k	n/a
24.362	0.075	48724	keystroke	e	n/a
24.767	0.06	49534	keystroke	n	n/a
25.922	0.105	51844	keystroke	Key.backspace	n/a
27.6315	0.075	55263	keystroke	m	n/a
27.8715	0.105	55743	keystroke	o	n/a
28.0365	0.09	56073	keystroke	n	n/a
28.7865	0.105	57573	keystroke	Key.enter	n/a
28.9005	9.5195	57801	prompt	n/a	compound pike protecting expertise\n
29.5965	0.09	59193	keystroke	c	n/a
29.7165	0.09	59433	keystroke	o	n/a
29.9415	0.075	59883	keystroke	m	n/a
30.2265	0.105	60453	keystroke	p	n/a
30.4515	0.105	60903	keystroke	o	n/a
30.6315	0.075	61263	keystroke	u	n/a
30.8865	0.06	61773	keystroke	n	n/a
30.9915	0.075	61983	keystroke	d	n/a
31.2915	0.105	62583	keystroke	Key.space	n/a
31.5615	0.12	63123	keystroke	p	n/a
31.8615	0.06	63723	keystroke	i	n/a
32.1465	0.075	64293	keystroke	k	n/a
32.2515	0.075	64503	keystroke	e	n/a
32.7165	0.105	65433	keystroke	Key.space	n/a
33.1815	0.09	66363	keystroke	p	n/a
33.3015	0.09	66603	keystroke	r	n/a
33.5715	0.075	67143	keystroke	o	n/a
34.126	0.075	68252	keystroke	t	n/a
34.261	0.09	68522	keystroke	e	n/a
34.487	0.089	68974	keystroke	c	n/a
34.741	0.076	69482	keystroke	t	n/a
35.011	0.076	70022	keystroke	i	n/a
35.162	0.045	70324	keystroke	n	n/a
35.222	0.074	70444	keystroke	g	n/a
35.536	0.106	71072	keystroke	Key.space	n/a
35.822	0.045	71644	keystroke	e	n/a
36.017	0.059	72034	keystroke	x	n/a
36.4215	0.09	72843	keystroke	p	n/a
36.5265	0.09	73053	keystroke	e	n/a
36.6315	0.09	73263	keystroke	r	n/a
36.8865	0.075	73773	keystroke	t	n/a
37.0365	0.075	74073	keystroke	i	n/a
37.2765	0.105	74553	keystroke	s	n/a
37.4415	0.075	74883	keystroke	e	n/a
38.3115	0.105	76623	keystroke	Key.enter	n/a
38.427	13.6565	76854	prompt	n/a	newton we'd hypothetical damages\n
39.1515	0.03	78303	keystroke	r	n/a
40.2765	0.09	80553	keystroke	Key.backspace	n/a
40.7715	0.06	81543	keystroke	n	n/a
40.8465	0.135	81693	keystroke	e	n/a
40.9965	0.09	81993	keystroke	t	n/a
42.5265	0.09	85053	keystroke	Key.backspace	n/a
42.7365	0.061	85473	keystroke	w	n/a
43.5765	0.075	87153	keystroke	t	n/a
43.6965	0.12	87393	keystroke	o	n/a
43.8615	0.09	87723	keystroke	n	n/a
44.6865	0.105	89373	keystroke	Key.space	n/a
44.9415	0.09	89883	keystroke	w	n/a
45.0165	0.105	90033	keystroke	e	n/a
45.8715	0.12	91743	keystroke	'	n/a
45.9615	0.105	91923	keystroke	d	n/a
46.1265	0.12	92253	keystroke	Key.space	n/a
46.5765	0.09	93153	keystroke	h	n/a
46.7865	0.075	93573	keystroke	y	n/a
47.2515	0.135	94503	keystroke	p	n/a
47.5215	0.045	95043	keystroke	o	n/a
47.7465	0.06	95493	keystroke	t	n/a
47.8515	0.06	95703	keystroke	h	n/a
48.0765	0.0745	96153	keystroke	e	n/a
48.571	0.076	97142	keystroke	t	n/a
48.706	0.075	97412	keystroke	i	n/a
48.856	0.091	97712	keystroke	c	n/a
49.051	0.06	98102	keystroke	a	n/a
49.216	0.075	98432	keystroke	l	n/a
49.456	0.09	98912	keystroke	Key.space	n/a
50.222	0.044	100444	keystroke	d	n/a
50.417	0.09	100834	keystroke	a	n/a
50.701	0.091	101402	keystroke	m	n/a
50.881	0.18	101762	keystroke	a	n/a
51.032	0.105	102064	keystroke	g	n/a
51.226	0.09	102452	keystroke	e	n/a
51.421	0.105	102842	keystroke	s	n/a
51.961	0.12	103922	keystroke	Key.enter	n/a
52.0875	11.787	104175	prompt	n/a	opposite wesley charlotte wishlist\n
52.787	0.075	105574	keystroke	o	n/a
53.011	0.091	106022	keystroke	p	n/a
53.207	0.089	106414	keystroke	p	n/a
53.387	0.104	106774	keystroke	o	n/a
53.551	0.091	107102	keystroke	s	n/a
53.702	0.06	107404	keystroke	i	n/a
53.806	0.091	107612	keystroke	t	n/a
53.942	0.075	107884	keystroke	e	n/a
54.362	0.119	108724	keystroke	Key.space	n/a
54.857	0.089	109714	keystroke	w	n/a
54.992	0.09	109984	keystroke	e	n/a
55.202	0.075	110404	keystroke	s	n/a
55.442	0.074	110884	keystroke	l	n/a
55.577	0.075	111154	keystroke	e	n/a
55.772	0.045	111544	keystroke	y	n/a
56.476	0.12	112952	keystroke	Key.space	n/a
56.657	0.09	113314	keystroke	c	n/a
56.807	0.06	113614	keystroke	h	n/a
56.942	0.135	113884	keystroke	a	n/a
57.032	0.09	114064	keystroke	r	n/a
57.407	0.075	114814	keystroke	l	n/a
57.601	0.061	115202	keystroke	o	n/a
57.707	0.06	115414	keystroke	t	n/a
57.857	0.074	115714	keystroke	t	n/a
58.067	0.075	116134	keystroke	e	n/a
58.367	0.104	116734	keystroke	Key.space	n/a
60.812	0.105	121624	keystroke	w	n/a
60.977	0.105	121954	keystroke	i	n/a
61.142	0.105	122284	keystroke	s	n/a
61.277	0.075	122554	keystroke	h	n/a
62.522	0.105	125044	keystroke	l	n/a
62.792	0.06	125584	keystroke	i	n/a
62.9415	0.075	125883	keystroke	s	n/a
63.1065	0.075	126213	keystroke	t	n/a
63.7515	0.12	127503	keystroke	Key.enter	n/a
63.8805	8.049	127761	prompt	n/a	observe printed o'er posted\n
64.6825	0.059	129365	keystroke	o	n/a
64.8765	0.075	129753	keystroke	b	n/a
65.1165	0.105	130233	keystroke	s	n/a
65.2365	0.135	130473	keystroke	e	n/a
65.3565	0.105	130713	keystroke	r	n/a
65.6265	0.075	131253	keystroke	v	n/a
65.7915	0.075	131583	keystroke	e	n/a
66.2265	0.105	132453	keystroke	Key.space	n/a
66.6465	0.12	133293	keystroke	p	n/a
66.8265	0.09	133653	keystroke	r	n/a
66.9765	0.075	133953	keystroke	i	n/a
67.1415	0.06	134283	keystroke	n	n/a
67.2465	0.075	134493	keystroke	t	n/a
67.3965	0.09	134793	keystroke	e	n/a
67.6065	0.075	135213	keystroke	d	n/a
67.9665	0.09	135933	keystroke	Key.space	n/a
68.4315	0.09	136863	keystroke	o	n/a
69.2565	0.12	138513	keystroke	'	n/a
69.5715	0.12	139143	keystroke	e	n/a
69.6765	0.09	139353	keystroke	r	n/a
69.9765	0.12	139953	keystroke	Key.space	n/a
70.2465	0.105	140493	keystroke	p	n/a
70.4715	0.06	140943	keystroke	o	n/a
70.5915	0.105	141183	keystroke	s	n/a
70.7865	0.09	141573	keystroke	t	n/a
70.9215	0.105	141843	keystroke	e	n/a
71.1315	0.09	142263	keystroke	d	n/a
71.8215	0.105	143643	keystroke	Key.enter	n/a
71.9355	11.7235	143871	prompt	n/a	horizon lending federal statutory\n
72.6015	0.075	145203	keystroke	h	n/a
72.7365	0.105	145473	keystroke	o	n/a
72.8875	0.074	145775	keystroke	r	n/a
73.0215	0.03	146043	keystroke	i	n/a
73.1865	0.075	146373	keystroke	z	n/a
73.3065	0.12	146613	keystroke	o	n/a
73.4865	0.075	146973	keystroke	n	n/a
74.1015	0.105	148203	keystroke	Key.space	n/a
74.3865	0.09	148773	keystroke	l	n/a
74.4915	0.06	148983	keystroke	e	n/a
74.6415	0.075	149283	keystroke	n	n/a
74.7615	0.09	149523	keystroke	d	n/a
74.8965	0.045	149793	keystroke	i	n/a
74.9715	0.075	149943	keystroke	n	n/a
75.0625	0.074	150125	keystroke	g	n/a
75.4515	0.12	150903	keystroke	Key.space	n/a
75.7365	0.09	151473	keystroke	f	n/a
76.1115	0.075	152223	keystroke	e	n/a
76.3965	0.075	152793	keystroke	d	n/a
76.6215	0.075	153243	keystroke	e	n/a
76.7715	0.075	153543	keystroke	r	n/a
76.9665	0.09	153933	keystroke	a	n/a
77.1465	0.0905	154293	keystroke	l	n/a
77.356	0.105	154712	keystroke	Key.space	n/a
77.611	0.076	155222	keystroke	s	n/a
77.821	0.075	155642	keystroke	t	n/a
78.601	0.121	157202	keystroke	a	n/a
78.932	0.075	157864	keystroke	t	n/a
79.336	0.076	158672	keystroke	u	n/a
79.651	0.061	159302	keystroke	l	n/a
80.551	0.12	161102	keystroke	Key.backspace	n/a
82.366	0.076	164732	keystroke	t	n/a
82.456	0.091	164912	keystroke	o	n/a
82.592	0.075	165184	keystroke	r	n/a
82.697	0.089	165394	keystroke	y	n/a
83.5365	0.12	167073	keystroke	Key.enter	n/a
83.667	7.777	167334	prompt	n/a	less west midlands appreciate\n
84.347	0.09	168694	keystroke	l	n/a
84.497	0.075	168994	keystroke	e	n/a
84.722	0.06	169444	keystroke	s	n/a
84.887	0.075	169774	keystroke	s	n/a
85.232	0.12	170464	keystroke	Key.space	n/a
85.517	0.105	171034	keystroke	w	n/a
85.682	0.075	171364	keystroke	e	n/a
85.892	0.135	171784	keystroke	s	n/a
86.567	0.075	173134	keystroke	t	n/a
86.852	0.12	173704	keystroke	Key.space	n/a
87.122	0.075	174244	keystroke	m	n/a
87.347	0.06	174694	keystroke	i	n/a
87.467	0.075	174934	keystroke	d	n/a
88.127	0.09	176254	keystroke	l	n/a
88.277	0.12	176554	keystroke	a	n/a
88.397	0.075	176794	keystroke	n	n/a
88.517	0.06	177034	keystroke	d	n/a
88.637	0.1045	177274	keystroke	s	n/a
88.9065	0.09	177813	keystroke	Key.space	n/a
89.1465	0.09	178293	keystroke	a	n/a
89.2815	0.09	178563	keystroke	p	n/a
89.4465	0.105	178893	keystroke	p	n/a
89.6715	0.135	179343	keystroke	r	n/a
89.7915	0.12	179583	keystroke	e	n/a
90.0615	0.09	180123	keystroke	c	n/a
90.2115	0.09	180423	keystroke	i	n/a
90.3615	0.165	180723	keystroke	a	n/a
90.5265	0.09	181053	keystroke	t	n/a
90.6765	0.09	181353	keystroke	e	n/a
91.3365	0.105	182673	keystroke	Key.enter	n/a
91.45	7.3735	182900	prompt	n/a	worth rows prevention different\n
92.1615	0.105	184323	keystroke	w	n/a
92.3265	0.06	184653	keystroke	o	n/a
92.4165	0.09	184833	keystroke	r	n/a
92.6265	0.075	185253	keystroke	t	n/a
92.7165	0.09	185433	keystroke	h	n/a
93.2865	0.12	186573	keystroke	Key.space	n/a
93.5715	0.075	187143	keystroke	r	n/a
93.6765	0.09	187353	keystroke	o	n/a
93.7965	0.09	187593	keystroke	w	n/a
94.0215	0.09	188043	keystroke	s	n/a
94.5915	0.105	189183	keystroke	Key.space	n/a
94.9215	0.1195	189843	keystroke	p	n/a
95.012	0.134	190024	keystroke	r	n/a
95.116	0.12	190232	keystroke	e	n/a
95.476	0.091	190952	keystroke	v	n/a
95.701	0.075	191402	keystroke	e	n/a
95.851	0.06	191702	keystroke	n	n/a
96.017	0.06	192034	keystroke	t	n/a
96.151	0.091	192302	keystroke	i	n/a
96.302	0.104	192604	keystroke	o	n/a
96.421	0.09	192842	keystroke	n	n/a
96.707	0.104	193414	keystroke	Key.space	n/a
97.007	0.014	194014	keystroke	d	n/a
97.036	0.045	194072	keystroke	i	n/a
97.171	0.06	194342	keystroke	f	n/a
97.337	0.044	194674	keystroke	f	n/a
97.622	0.12	195244	keystroke	e	n/a
97.756	0.09	195512	keystroke	r	n/a
97.906	0.105	195812	keystroke	e	n/a
98.041	0.06	196082	keystroke	n	n/a
98.146	0.061	196292	keystroke	t	n/a
98.716	0.105	197432	keystroke	Key.enter	n/a
98.8285	7.225	197657	prompt	n/a	deluxe roses stolen vancouver\n
99.422	0.089	198844	keystroke	d	n/a
99.617	0.074	199234	keystroke	e	n/a
99.781	0.09	199562	keystroke	l	n/a
99.991	0.076	199982	keystroke	u	n/a
100.216	0.06	200432	keystroke	x	n/a
100.412	0.059	200824	keystroke	e	n/a
100.846	0.06	201692	keystroke	Key.space	n/a
101.161	0.076	202322	keystroke	r	n/a
101.267	0.075	202534	keystroke	o	n/a
101.446	0.121	202892	keystroke	s	n/a
101.551	0.076	203102	keystroke	e	n/a
101.732	0.09	203464	keystroke	s	n/a
102.016	0.135	204032	keystroke	Key.space	n/a
102.287	0.12	204574	keystroke	s	n/a
102.467	0.09	204934	keystroke	t	n/a
102.677	0.06	205354	keystroke	o	n/a
102.917	0.09	205834	keystroke	l	n/a
103.022	0.059	206044	keystroke	e	n/a
103.187	0.075	206374	keystroke	n	n/a
103.471	0.12	206942	keystroke	Key.space	n/a
103.831	0.075	207662	keystroke	v	n/a
104.027	0.105	208054	keystroke	a	n/a
104.162	0.089	208324	keystroke	n	n/a
104.312	0.104	208624	keystroke	c	n/a
104.462	0.09	208924	keystroke	o	n/a
104.791	0.06	209582	keystroke	u	n/a
104.972	0.074	209944	keystroke	v	n/a
105.166	0.135	210332	keystroke	e	n/a
105.286	0.076	210572	keystroke	r	n/a
105.931	0.12	211862	keystroke	Key.enter	n/a
106.059	8.5295	212118	prompt	n/a	at talk bowling informative\n
106.622	0.104	213244	keystroke	a	n/a
107.387	0.075	214774	keystroke	t	n/a
107.611	0.12	215222	keystroke	Key.space	n/a
107.866	0.075	215732	keystroke	t	n/a
108.016	0.121	216032	keystroke	a	n/a
108.167	0.09	216334	keystroke	l	n/a
108.347	0.075	216694	keystroke	k	n/a
108.691	0.09	217382	keystroke	Key.space	n/a
109.202	0.074	218404	keystroke	b	n/a
109.426	0.061	218852	keystroke	o	n/a
109.561	0.106	219122	keystroke	w	n/a
109.832	0.015	219664	keystroke	l	n/a
109.937	0.075	219874	keystroke	i	n/a
110.042	0.075	220084	keystroke	n	n/a
110.147	0.06	220294	keystroke	g	n/a
110.506	0.12	221012	keystroke	Key.space	n/a
110.867	0.074	221734	keystroke	i	n/a
111.002	0.09	222004	keystroke	n	n/a
111.107	0.075	222214	keystroke	f	n/a
111.227	0.105	222454	keystroke	o	n/a
111.347	0.09	222694	keystroke	r	n/a
111.632	0.105	223264	keystroke	a	n/a
112.696	0.105	225392	keystroke	Key.backspace	n/a
113.207	0.075	226414	keystroke	m	n/a
113.356	0.241	226712	keystroke	a	n/a
113.537	0.075	227074	keystroke	t	n/a
113.657	0.075	227314	keystroke	i	n/a
113.807	0.105	227614	keystroke	v	n/a
113.927	0.105	227854	keystroke	e	n/a
114.482	0.105	228964	keystroke	Key.enter	n/a
114.594	6.2195	229188	prompt	n/a	took depend strikes frost\n
115.322	0.075	230644	keystroke	t	n/a
115.457	0.06	230914	keystroke	o	n/a
115.607	0.075	231214	keystroke	o	n/a
115.802	0.06	231604	keystroke	k	n/a
116.072	0.1195	232144	keystroke	Key.space	n/a
116.3415	0.045	232683	keystroke	d	n/a
116.9265	0.075	233853	keystroke	e	n/a
117.1515	0.105	234303	keystroke	p	n/a
117.2715	0.09	234543	keystroke	e	n/a
117.4815	0.06	234963	keystroke	n	n/a
117.5715	0.06	235143	keystroke	d	n/a
117.8865	0.09	235773	keystroke	Key.space	n/a
118.0965	0.105	236193	keystroke	s	n/a
118.2165	0.105	236433	keystroke	t	n/a
118.4415	0.075	236883	keystroke	r	n/a
118.5465	0.075	237093	keystroke	i	n/a
118.7715	0.09	237543	keystroke	k	n/a
118.8465	0.075	237693	keystroke	e	n/a
119.0265	0.105	238053	keystroke	s	n/a
119.2215	0.105	238443	keystroke	Key.space	n/a
119.3565	0.09	238713	keystroke	f	n/a
119.5665	0.075	239133	keystroke	r	n/a
119.7315	0.075	239463	keystroke	o	n/a
119.8965	0.12	239793	keystroke	s	n/a
120.0615	0.015	240123	keystroke	t	n/a
120.7065	0.105	241413	keystroke	Key.enter	n/a
120.82	9.1595	241640	prompt	n/a	philosophy cells idaho page\n
121.5765	0.105	243153	keystroke	p	n/a
121.7865	0.06	243573	keystroke	h	n/a
121.8765	0.09	243753	keystroke	i	n/a
122.1165	0.075	244233	keystroke	l	n/a
122.2965	0.06	244593	keystroke	o	n/a
122.4165	0.105	244833	keystroke	s	n/a
123.0915	0.075	246183	keystroke	o	n/a
123.3765	0.105	246753	keystroke	p	n/a
123.6015	0.03	247203	keystroke	h	n/a
123.7515	0.075	247503	keystroke	y	n/a
124.0365	0.105	248073	keystroke	Key.space	n/a
124.7115	0.09	249423	keystroke	c	n/a
124.9065	0.075	249813	keystroke	e	n/a
125.1165	0.06	250233	keystroke	l	n/a
125.2665	0.075	250533	keystroke	l	n/a
125.3715	0.105	250743	keystroke	s	n/a
125.6415	0.12	251283	keystroke	Key.space	n/a
126.0465	0.06	252093	keystroke	i	n/a
126.2865	0.03	252573	keystroke	d	n/a
126.6315	0.12	253263	keystroke	a	n/a
127.4715	0.09	254943	keystroke	h	n/a
127.5765	0.09	255153	keystroke	o	n/a
127.8765	0.09	255753	keystroke	Key.space	n/a
128.1165	0.09	256233	keystroke	p	n/a
128.2665	0.165	256533	keystroke	a	n/a
128.4475	0.089	256895	keystroke	g	n/a
128.5665	0.105	257133	keystroke	e	n/a
129.8565	0.12	259713	keystroke	Key.enter	n/a
129.9855	12.128	259971	prompt	n/a	restrictions supplement termination everything\n
130.8315	0.105	261663	keystroke	r	n/a
130.9065	0.105	261813	keystroke	e	n/a
131.1315	0.105	262263	keystroke	s	n/a
131.3865	0.015	262773	keystroke	t	n/a
131.4765	0.075	262953	keystroke	r	n/a
131.6415	0.06	263283	keystroke	i	n/a
131.7165	0.09	263433	keystroke	c	n/a
131.956	0.0615	263912	keystroke	t	n/a
132.031	0.09	264062	keystroke	i	n/a
132.136	0.105	264272	keystroke	o	n/a
132.226	0.105	264452	keystroke	n	n/a
132.316	0.09	264632	keystroke	s	n/a
132.751	0.09	265502	keystroke	Key.space	n/a
133.606	0.075	267212	keystroke	s	n/a
133.862	0.09	267724	keystroke	u	n/a
134.087	0.27	268174	keystroke	p	n/a
134.611	0.091	269222	keystroke	p	n/a
134.941	0.075	269882	keystroke	l	n/a
135.062	0.074	270124	keystroke	e	n/a
135.377	0.09	270754	keystroke	m	n/a
135.452	0.06	270904	keystroke	e	n/a
135.571	0.076	271142	keystroke	n	n/a
135.662	0.09	271324	keystroke	t	n/a
136.442	0.104	272884	keystroke	Key.space	n/a
136.802	0.06	273604	keystroke	t	n/a
137.042	0.09	274084	keystroke	e	n/a
137.147	0.089	274294	keystroke	r	n/a
137.357	0.09	274714	keystroke	m	n/a
137.552	0.09	275104	keystroke	i	n/a
138.196	0.061	276392	keystroke	n	n/a
138.332	0.135	276664	keystroke	a	n/a
138.542	0.06	277084	keystroke	t	n/a
138.752	0.075	277504	keystroke	i	n/a
138.917	0.09	277834	keystroke	o	n/a
139.037	0.09	278074	keystroke	n	n/a
139.337	0.09	278674	keystroke	Key.space	n/a
139.562	0.09	279124	keystroke	e	n/a
139.787	0.09	279574	keystroke	v	n/a
139.982	0.075	279964	keystroke	e	n/a
140.042	0.09	280084	keystroke	r	n/a
140.222	0.075	280444	keystroke	y	n/a
140.447	0.075	280894	keystroke	t	n/a
140.537	0.06	281074	keystroke	h	n/a
140.867	0.06	281734	keystroke	i	n/a
141.062	0.105	282124	keystroke	n	n/a
141.152	0.075	282304	keystroke	g	n/a
142.022	0.0895	284044	keystroke	Key.enter	n/a
142.119	12.4	284238	prompt	n/a	nokia biblical consistent aviation\n
143.0415	0.09	286083	keystroke	n	n/a
143.1615	0.105	286323	keystroke	o	n/a
143.4465	0.09	286893	keystroke	k	n/a
143.6715	0.045	287343	keystroke	i	n/a
143.7615	0.09	287523	keystroke	a	n/a
144.1365	0.12	288273	keystroke	Key.space	n/a
144.7815	0.06	289563	keystroke	b	n/a
144.9765	0.045	289953	keystroke	i	n/a
145.7115	0.075	291423	keystroke	b	n/a
146.3265	0.075	292653	keystroke	i	n/a
147.6765	0.105	295353	keystroke	Key.backspace	n/a
148.3815	0.075	296763	keystroke	l	n/a
148.5315	0.075	297063	keystroke	i	n/a
148.6815	0.09	297363	keystroke	c	n/a
148.8015	0.135	297603	keystroke	a	n/a
148.9965	0.09	297993	keystroke	l	n/a
149.3865	0.09	298773	keystroke	Key.space	n/a
149.9265	0.075	299853	keystroke	c	n/a
150.1215	0.09	300243	keystroke	o	n/a
150.3315	0.075	300663	keystroke	n	n/a
150.7525	0.089	301505	keystroke	s	n/a
150.9015	0.06	301803	keystroke	i	n/a
151.0215	0.12	302043	keystroke	s	n/a
151.2165	0.09	302433	keystroke	t	n/a
151.3815	0.09	302763	keystroke	e	n/a
151.5315	0.075	303063	keystroke	n	n/a
151.6075	0.074	303215	keystroke	t	n/a
151.9815	0.105	303963	keystroke	Key.space	n/a
152.2815	0.135	304563	keystroke	a	n/a
152.4315	0.105	304863	keystroke	v	n/a
152.8965	0.06	305793	keystroke	i	n/a
153.0615	0.105	306123	keystroke	a	n/a
153.2115	0.09	306423	keystroke	t	n/a
153.3165	0.12	306633	keystroke	i	n/a
153.4515	0.12	306903	keystroke	o	n/a
153.5565	0.135	307113	keystroke	n	n/a
154.4115	0.105	308823	keystroke	Key.enter	n/a
154.5255	7.3585	309051	prompt	n/a	fault converter noise terminal\n
155.2075	0.089	310415	keystroke	f	n/a
155.4015	0.12	310803	keystroke	a	n/a
155.5815	0.075	311163	keystroke	u	n/a
155.8815	0.075	311763	keystroke	l	n/a
155.9415	0.075	311883	keystroke	t	n/a
156.2415	0.09	312483	keystroke	Key.space	n/a
156.8865	0.09	313773	keystroke	c	n/a
157.0365	0.09	314073	keystroke	o	n/a
157.1865	0.075	314373	keystroke	n	n/a
157.3515	0.075	314703	keystroke	v	n/a
157.5315	0.09	315063	keystroke	e	n/a
157.6225	0.089	315245	keystroke	r	n/a
157.8315	0.075	315663	keystroke	t	n/a
158.0265	0.105	316053	keystroke	e	n/a
158.1015	0.075	316203	keystroke	r	n/a
158.3715	0.12	316743	keystroke	Key.space	n/a
158.6265	0.09	317253	keystroke	n	n/a
158.7465	0.075	317493	keystroke	o	n/a
158.9715	0.045	317943	keystroke	i	n/a
159.0775	0.104	318155	keystroke	s	n/a
159.1665	0.09	318333	keystroke	e	n/a
159.4965	0.12	318993	keystroke	Key.space	n/a
160.0365	0.09	320073	keystroke	t	n/a
160.2165	0.15	320433	keystroke	e	n/a
160.3365	0.09	320673	keystroke	r	n/a
160.5315	0.06	321063	keystroke	m	n/a
160.7265	0.076	321453	keystroke	i	n/a
160.9365	0.045	321873	keystroke	n	n/a
161.0415	0.12	322083	keystroke	a	n/a
161.1765	0.0755	322353	keystroke	l	n/a
161.806	0.075	323612	keystroke	Key.enter	n/a
161.888	8.8755	323776	prompt	n/a	lemon range european question\n
163.021	0.075	326042	keystroke	l	n/a
163.141	0.076	326282	keystroke	e	n/a
163.366	0.06	326732	keystroke	m	n/a
163.561	0.075	327122	keystroke	o	n/a
163.681	0.075	327362	keystroke	n	n/a
164.101	0.105	328202	keystroke	Key.space	n/a
164.566	0.091	329132	keystroke	r	n/a
165.061	0.105	330122	keystroke	a	n/a
165.196	0.061	330392	keystroke	n	n/a
165.331	0.09	330662	keystroke	g	n/a
165.466	0.105	330932	keystroke	e	n/a
165.871	0.105	331742	keystroke	Key.space	n/a
166.216	0.075	332432	keystroke	e	n/a
166.441	0.06	332882	keystroke	u	n/a
166.546	0.06	333092	keystroke	r	n/a
166.637	0.104	333274	keystroke	o	n/a
166.876	0.09	333752	keystroke	p	n/a
167.011	0.09	334022	keystroke	e	n/a
167.207	0.104	334414	keystroke	a	n/a
167.327	0.045	334654	keystroke	n	n/a
167.806	0.105	335612	keystroke	Key.space	n/a
168.211	0.091	336422	keystroke	q	n/a
168.346	0.075	336692	keystroke	u	n/a
169.351	0.091	338702	keystroke	e	n/a
169.561	0.06	339122	keystroke	s	n/a
169.757	0.059	339514	keystroke	t	n/a
169.847	0.104	339694	keystroke	i	n/a
169.966	0.121	339932	keystroke	o	n/a
170.072	0.119	340144	keystroke	n	n/a
170.671	0.09	341342	keystroke	Key.enter	n/a
170.769	11.6345	341538	prompt	n/a	honduras gentle turkish charitable\n
171.497	0.06	342994	keystroke	h	n/a
171.691	0.105	343382	keystroke	o	n/a
171.811	0.075	343622	keystroke	u	n/a
172.711	0.09	345422	keystroke	Key.backspace	n/a
173.191	0.061	346382	keystroke	n	n/a
173.551	0.091	347102	keystroke	d	n/a
173.852	0.105	347704	keystroke	o	n/a
175.126	0.105	350252	keystroke	Key.backspace	n/a
175.727	0.059	351454	keystroke	u	n/a
175.877	0.089	351754	keystroke	r	n/a
176.056	0.15	352112	keystroke	a	n/a
176.176	0.09	352352	keystroke	s	n/a
176.716	0.105	353432	keystroke	Key.space	n/a
177.017	0.06	354034	keystroke	g	n/a
177.137	0.105	354274	keystroke	e	n/a
177.257	0.06	354514	keystroke	n	n/a
177.377	0.059	354754	keystroke	t	n/a
177.511	0.091	355022	keystroke	l	n/a
177.587	0.074	355174	keystroke	e	n/a
177.827	0.104	355654	keystroke	Key.space	n/a
178.397	0.105	356794	keystroke	t	n/a
178.577	0.075	357154	keystroke	u	n/a
178.681	0.061	357362	keystroke	r	n/a
178.952	0.075	357904	keystroke	k	n/a
179.146	0.076	358292	keystroke	i	n/a
179.267	0.09	358534	keystroke	s	n/a
179.372	0.06	358744	keystroke	h	n/a
179.657	0.104	359314	keystroke	Key.space	n/a
180.137	0.104	360274	keystroke	c	n/a
180.272	0.059	360544	keystroke	h	n/a
180.527	0.164	361054	keystroke	a	n/a
180.841	0.105	361682	keystroke	r	n/a
180.962	0.06	361924	keystroke	i	n/a
181.111	0.075	362222	keystroke	t	n/a
181.337	0.03	362674	keystroke	a	n/a
181.412	0.075	362824	keystroke	b	n/a
181.622	0.044	363244	keystroke	l	n/a
181.681	0.061	363362	keystroke	e	n/a
182.296	0.105	364592	keystroke	Key.enter	n/a
182.4105	10.718	364821	prompt	n/a	newport errors generally gamecube\n
183.227	0.059	366454	keystroke	n	n/a
183.347	0.18	366694	keystroke	e	n/a
183.857	0.075	367714	keystroke	w	n/a
184.292	0.09	368584	keystroke	p	n/a
184.472	0.075	368944	keystroke	o	n/a
184.547	0.06	369094	keystroke	r	n/a
184.742	0.045	369484	keystroke	t	n/a
185.117	0.06	370234	keystroke	Key.space	n/a
185.387	0.09	370774	keystroke	e	n/a
185.582	0.06	371164	keystroke	r	n/a
185.717	0.09	371434	keystroke	r	n/a
186.062	0.075	372124	keystroke	o	n/a
186.152	0.075	372304	keystroke	r	n/a
186.6915	0.09	373383	keystroke	s	n/a
186.917	0.09	373834	keystroke	Key.space	n/a
187.292	0.0745	374584	keystroke	g	n/a
187.4115	0.105	374823	keystroke	e	n/a
187.6665	0.075	375333	keystroke	n	n/a
187.7565	0.135	375513	keystroke	e	n/a
188.0265	0.09	376053	keystroke	r	n/a
188.2215	0.105	376443	keystroke	a	n/a
188.3415	0.06	376683	keystroke	l	n/a
188.4915	0.105	376983	keystroke	l	n/a
188.6415	0.09	377283	keystroke	y	n/a
189.077	0.1195	378154	keystroke	Key.space	n/a
189.5715	0.09	379143	keystroke	g	n/a
189.6915	0.12	379383	keystroke	a	n/a
189.9165	0.075	379833	keystroke	m	n/a
190.246	0.09	380492	keystroke	e	n/a
191.626	0.075	383252	keystroke	c	n/a
191.986	0.075	383972	keystroke	u	n/a
192.271	0.075	384542	keystroke	b	n/a
192.391	0.075	384782	keystroke	e	n/a
193.021	0.105	386042	keystroke	Key.enter	n/a
193.1345	7.8985	386269	prompt	n/a	name deserve hepatitis parcel\n
193.832	0.06	387664	keystroke	n	n/a
193.936	0.12	387872	keystroke	a	n/a
194.086	0.075	388172	keystroke	m	n/a
194.176	0.076	388352	keystroke	e	n/a
194.446	0.12	388892	keystroke	Key.space	n/a
194.956	0.076	389912	keystroke	d	n/a
195.137	0.089	390274	keystroke	e	n/a
195.376	0.165	390752	keystroke	s	n/a
195.542	0.104	391084	keystroke	e	n/a
195.632	0.074	391264	keystroke	r	n/a
195.872	0.105	391744	keystroke	v	n/a
195.977	0.105	391954	keystroke	e	n/a
196.546	0.09	393092	keystroke	Key.space	n/a
196.802	0.059	393604	keystroke	h	n/a
196.892	0.074	393784	keystroke	e	n/a
197.192	0.119	394384	keystroke	p	n/a
197.327	0.105	394654	keystroke	a	n/a
197.476	0.075	394952	keystroke	t	n/a
197.582	0.075	395164	keystroke	i	n/a
197.777	0.06	395554	keystroke	t	n/a
197.912	0.06	395824	keystroke	i	n/a
198.4215	0.061	396843	keystroke	s	n/a
198.7665	0.09	397533	keystroke	Key.space	n/a
199.5915	0.105	399183	keystroke	p	n/a
199.6815	0.18	399363	keystroke	a	n/a
199.7865	0.105	399573	keystroke	r	n/a
200.0565	0.075	400113	keystroke	c	n/a
200.2215	0.075	400443	keystroke	e	n/a
200.3565	0.06	400713	keystroke	l	n/a
200.9265	0.105	401853	keystroke	Key.enter	n/a
201.0385	7.8555	402077	prompt	n/a	info springer lucy continuous\n
201.7365	0.075	403473	keystroke	i	n/a
201.8565	0.09	403713	keystroke	n	n/a
201.9765	0.09	403953	keystroke	f	n/a
202.0965	0.075	404193	keystroke	o	n/a
202.2315	0.09	404463	keystroke	Key.space	n/a
202.3965	0.12	404793	keystroke	s	n/a
202.5615	0.09	405123	keystroke	p	n/a
202.6815	0.06	405363	keystroke	r	n/a
202.7865	0.075	405573	keystroke	i	n/a
203.1165	0.06	406233	keystroke	n	n/a
203.2665	0.045	406533	keystroke	g	n/a
203.4315	0.09	406863	keystroke	e	n/a
203.5065	0.09	407013	keystroke	r	n/a
204.0765	0.12	408153	keystroke	Key.space	n/a
204.4515	0.075	408903	keystroke	l	n/a
204.5865	0.075	409173	keystroke	u	n/a
204.7515	0.09	409503	keystroke	c	n/a
204.9165	0.06	409833	keystroke	y	n/a
205.2915	0.09	410583	keystroke	Key.space	n/a
205.7565	0.075	411513	keystroke	c	n/a
206.5815	0.09	413163	keystroke	o	n/a
206.7765	0.075	413553	keystroke	n	n/a
207.1665	0.075	414333	keystroke	t	n/a
207.3165	0.045	414633	keystroke	i	n/a
207.4965	0.075	414993	keystroke	n	n/a
207.8115	0.075	415623	keystroke	u	n/a
208.052	0.075	416104	keystroke	o	n/a
208.172	0.105	416344	keystroke	u	n/a
208.337	0.09	416674	keystroke	s	n/a
208.786	0.105	417572	keystroke	Key.enter	n/a
208.8985	12.0405	417797	prompt	n/a	builds views nasdaq timely\n
209.627	0.044	419254	keystroke	b	n/a
209.822	0.09	419644	keystroke	u	n/a
210.061	0.075	420122	keystroke	i	n/a
210.287	0.075	420574	keystroke	l	n/a
210.527	0.089	421054	keystroke	d	n/a
210.736	0.091	421472	keystroke	s	n/a
211.261	0.075	422522	keystroke	Key.space	n/a
211.532	0.09	423064	keystroke	v	n/a
211.681	0.046	423362	keystroke	i	n/a
211.786	0.121	423572	keystroke	e	n/a
211.922	0.03	423844	keystroke	e	n/a
211.937	0.09	423874	keystroke	w	n/a
212.147	0.105	424294	keystroke	s	n/a
212.986	0.106	425972	keystroke	Key.backspace	n/a
213.241	0.09	426482	keystroke	Key.backspace	n/a
213.481	0.09	426962	keystroke	Key.backspace	n/a
214.007	0.09	428014	keystroke	w	n/a
214.8465	0.104	429693	keystroke	s	n/a
215.566	0.0895	431132	keystroke	Key.space	n/a
215.9415	0.075	431883	keystroke	n	n/a
216.2715	0.1055	432543	keystroke	a	n/a
216.4365	0.0745	432873	keystroke	s	n/a
216.586	0.075	433172	keystroke	d	n/a
216.796	0.105	433592	keystroke	a	n/a
217.756	0.09	435512	keystroke	q	n/a
218.5515	0.119	437103	keystroke	Key.space	n/a
218.7915	0.075	437583	keystroke	t	n/a
218.9115	0.075	437823	keystroke	i	n/a
219.422	0.0735	438844	keystroke	m	n/a
219.5555	0.061	439111	keystroke	e	n/a
219.766	0.1205	439532	keystroke	l	n/a
219.9305	0.076	439861	keystroke	y	n/a
220.846	0.09	441692	keystroke	Key.enter	n/a
220.954	10.9045	441908	prompt	n/a	scheme telephony uniprotkb psychology\n
221.686	0.105	443372	keystroke	s	n/a
221.956	0.0605	443912	keystroke	c	n/a
222.0465	0.0745	444093	keystroke	h	n/a
222.301	0.075	444602	keystroke	e	n/a
222.5415	0.0595	445083	keystroke	m	n/a
222.616	0.06	445232	keystroke	e	n/a
223.081	0.06	446162	keystroke	Key.space	n/a
223.411	0.075	446822	keystroke	t	n/a
223.516	0.105	447032	keystroke	e	n/a
223.771	0.075	447542	keystroke	l	n/a
223.861	0.075	447722	keystroke	e	n/a
224.026	0.135	448052	keystroke	p	n/a
224.221	0.075	448442	keystroke	h	n/a
224.551	0.06	449102	keystroke	o	n/a
224.836	0.075	449672	keystroke	n	n/a
225.091	0.06	450182	keystroke	y	n/a
225.361	0.09	450722	keystroke	Key.space	n/a
225.796	0.06	451592	keystroke	u	n/a
226.126	0.09	452252	keystroke	n	n/a
226.381	0.06	452762	keystroke	i	n/a
226.726	0.075	453452	keystroke	p	n/a
226.876	0.06	453752	keystroke	r	n/a
227.281	0.075	454562	keystroke	o	n/a
227.416	0.06	454832	keystroke	t	n/a
227.642	0.0595	455284	keystroke	k	n/a
227.8365	0.045	455673	keystroke	b	n/a
228.4665	0.135	456933	keystroke	Key.space	n/a
228.9015	0.075	457803	keystroke	p	n/a
229.2615	0.12	458523	keystroke	s	n/a
229.4715	0.075	458943	keystroke	y	n/a
230.2365	0.09	460473	keystroke	c	n/a
230.3265	0.06	460653	keystroke	h	n/a
230.5065	0.06	461013	keystroke	o	n/a
230.7465	0.075	461493	keystroke	l	n/a
230.9265	0.06	461853	keystroke	o	n/a
231.0015	0.075	462003	keystroke	g	n/a
231.1365	0.075	462273	keystroke	y	n/a
231.7665	0.089	463533	keystroke	Key.enter	n/a
231.865	6.533	463730	prompt	n/a	conf visitor teen barbados\n
232.5765	0.075	465153	keystroke	c	n/a
232.7265	0.075	465453	keystroke	o	n/a
232.9965	0.06	465993	keystroke	n	n/a
233.1165	0.075	466233	keystroke	f	n/a
233.4615	0.12	466923	keystroke	Key.space	n/a
233.8365	0.09	467673	keystroke	v	n/a
233.956	0.06	467912	keystroke	i	n/a
234.136	0.135	468272	keystroke	s	n/a
234.256	0.06	468512	keystroke	i	n/a
234.391	0.075	468782	keystroke	t	n/a
234.616	0.075	469232	keystroke	o	n/a
234.676	0.06	469352	keystroke	r	n/a
235.201	0.105	470402	keystroke	Key.space	n/a
235.5915	0.06	471183	keystroke	t	n/a
235.7865	0.075	471573	keystroke	e	n/a
235.9215	0.09	471843	keystroke	e	n/a
236.1015	0.0895	472203	keystroke	n	n/a
236.341	0.09	472682	keystroke	Key.space	n/a
236.537	0.06	473074	keystroke	b	n/a
236.641	0.135	473282	keystroke	a	n/a
236.717	0.105	473434	keystroke	r	n/a
237.0165	0.075	474033	keystroke	b	n/a
237.2865	0.105	474573	keystroke	a	n/a
237.4365	0.09	474873	keystroke	d	n/a
237.6615	0.075	475323	keystroke	o	n/a
237.7515	0.09	475503	keystroke	s	n/a
238.2765	0.12	476553	keystroke	Key.enter	n/a
238.403	7.0755	476806	prompt	n/a	architects dock magic leslie\n
239.0265	0.18	478053	keystroke	a	n/a
239.1615	0.075	478323	keystroke	r	n/a
239.3865	0.09	478773	keystroke	c	n/a
239.5215	0.09	479043	keystroke	h	n/a
239.6415	0.075	479283	keystroke	i	n/a
239.7765	0.09	479553	keystroke	t	n/a
239.9715	0.03	479943	keystroke	e	n/a
240.1065	0.075	480213	keystroke	c	n/a
240.3465	0.06	480693	keystroke	t	n/a
240.4965	0.105	480993	keystroke	s	n/a
240.7365	0.09	481473	keystroke	Key.space	n/a
240.9615	0.075	481923	keystroke	d	n/a
241.0515	0.075	482103	keystroke	o	n/a
241.2915	0.015	482583	keystroke	c	n/a
241.3365	0.09	482673	keystroke	k	n/a
241.5915	0.09	483183	keystroke	Key.space	n/a
242.4765	0.09	484953	keystroke	m	n/a
242.6265	0.135	485253	keystroke	a	n/a
242.7765	0.09	485553	keystroke	g	n/a
242.9265	0.075	485853	keystroke	i	n/a
243.0465	0.075	486093	keystroke	c	n/a
243.3315	0.105	486663	keystroke	Key.space	n/a
243.7665	0.075	487533	keystroke	l	n/a
243.8865	0.075	487773	keystroke	e	n/a
244.0665	0.105	488133	keystroke	s	n/a
244.2465	0.075	488493	keystroke	l	n/a
244.7715	0.045	489543	keystroke	i	n/a
244.8465	0.06	489693	keystroke	e	n/a
245.3865	0.09	490773	keystroke	Key.enter	n/a
245.4825	6.3275	490965	prompt	n/a	lauren holds purposes influenced\n
246.1965	0.06	492393	keystroke	l	n/a
246.3915	0.06	492783	keystroke	a	n/a
246.4965	0.075	492993	keystroke	u	n/a
246.6315	0.06	493263	keystroke	r	n/a
246.7965	0.06	493593	keystroke	e	n/a
246.9165	0.075	493833	keystroke	n	n/a
247.1715	0.105	494343	keystroke	Key.space	n/a
247.4565	0.105	494913	keystroke	h	n/a
247.5915	0.075	495183	keystroke	o	n/a
247.8165	0.075	495633	keystroke	l	n/a
247.9065	0.075	495813	keystroke	d	n/a
248.0265	0.12	496053	keystroke	s	n/a
248.2065	0.12	496413	keystroke	Key.space	n/a
248.4615	0.09	496923	keystroke	p	n/a
248.6115	0.09	497223	keystroke	u	n/a
248.6865	0.06	497373	keystroke	r	n/a
248.9565	0.105	497913	keystroke	p	n/a
249.1665	0.0605	498333	keystroke	o	n/a
249.331	0.09	498662	keystroke	s	n/a
249.436	0.06	498872	keystroke	e	n/a
249.586	0.09	499172	keystroke	s	n/a
249.826	0.075	499652	keystroke	Key.space	n/a
249.991	0.06	499982	keystroke	i	n/a
250.096	0.075	500192	keystroke	n	n/a
250.261	0.0905	500522	keystroke	f	n/a
250.3665	0.12	500733	keystroke	l	n/a
250.5165	0.09	501033	keystroke	u	n/a
250.6665	0.075	501333	keystroke	e	n/a
250.8015	0.075	501603	keystroke	n	n/a
250.8765	0.12	501753	keystroke	c	n/a
250.9815	0.06	501963	keystroke	e	n/a
251.1165	0.09	502233	keystroke	d	n/a
251.7165	0.09	503433	keystroke	Key.enter	n/a
251.815	11.918	503630	prompt	n/a	people plumbing true highly\n
252.5115	0.09	505023	keystroke	p	n/a
252.5865	0.06	505173	keystroke	e	n/a
252.8115	0.075	505623	keystroke	o	n/a
252.8715	0.135	505743	keystroke	p	n/a
253.3065	0.075	506613	keystroke	l	n/a
253.3365	0.075	506673	keystroke	e	n/a
253.7565	0.135	507513	keystroke	Key.space	n/a
254.1015	0.105	508203	keystroke	p	n/a
254.5515	0.06	509103	keystroke	l	n/a
254.8065	0.045	509613	keystroke	u	n/a
255.0315	0.075	510063	keystroke	b	n/a
256.0965	0.105	512193	keystroke	Key.backspace	n/a
256.7115	0.06	513423	keystroke	m	n/a
256.9365	0.06	513873	keystroke	b	n/a
257.2515	0.09	514503	keystroke	i	n/a
257.4765	0.06	514953	keystroke	n	n/a
257.5665	0.075	515133	keystroke	g	n/a
258.1965	0.105	516393	keystroke	Key.space	n/a
258.7815	0.075	517563	keystroke	t	n/a
259.0065	0.09	518013	keystroke	r	n/a
259.2915	0.075	518583	keystroke	u	n/a
259.3815	0.09	518763	keystroke	e	n/a
259.5915	0.105	519183	keystroke	Key.space	n/a
259.9515	0.09	519903	keystroke	e	n/a
260.1315	0.045	520263	keystroke	i	n/a
261.1515	0.105	522303	keystroke	Key.backspace	n/a
261.6315	0.09	523263	keystroke	Key.backspace	n/a
262.3215	0.09	524643	keystroke	h	n/a
262.4415	0.075	524883	keystroke	i	n/a
262.5915	0.075	525183	keystroke	g	n/a
262.6965	0.075	525393	keystroke	h	n/a
262.8765	0.12	525753	keystroke	l	n/a
263.0115	0.075	526023	keystroke	y	n/a
263.6265	0.105	527253	keystroke	Key.enter	n/a
263.738	7.96	527476	prompt	n/a	warren neil views encoding\n
264.4815	0.06	528963	keystroke	w	n/a
264.7665	0.105	529533	keystroke	a	n/a
264.9915	0.045	529983	keystroke	r	n/a
265.1565	0.06	530313	keystroke	r	n/a
265.2915	0.09	530583	keystroke	e	n/a
265.4865	0.06	530973	keystroke	n	n/a
266.1015	0.105	532203	keystroke	Key.space	n/a
266.6255	0.061	533251	keystroke	n	n/a
266.7465	0.075	533493	keystroke	e	n/a
266.8815	0.075	533763	keystroke	i	n/a
267.1215	0.075	534243	keystroke	l	n/a
267.3305	0.105	534661	keystroke	Key.space	n/a
267.5565	0.074	535113	keystroke	v	n/a
267.7215	0.045	535443	keystroke	i	n/a
267.8115	0.15	535623	keystroke	e	n/a
267.9465	0.06	535893	keystroke	w	n/a
268.1415	0.075	536283	keystroke	s	n/a
268.3365	0.105	536673	keystroke	Key.space	n/a
269.761	0.075	539522	keystroke	e	n/a
269.866	0.075	539732	keystroke	n	n/a
270.136	0.075	540272	keystroke	c	n/a
270.271	0.045	540542	keystroke	o	n/a
270.436	0.091	540872	keystroke	d	n/a
270.631	0.06	541262	keystroke	i	n/a
270.871	0.075	541742	keystroke	n	n/a
270.961	0.06	541922	keystroke	g	n/a
271.591	0.105	543182	keystroke	Key.enter	n/a
271.7015	11.847	543403	prompt	n/a	exceptional buy penalty recipe\n
272.251	0.076	544502	keystroke	e	n/a
272.446	0.076	544892	keystroke	x	n/a
272.641	0.12	545282	keystroke	c	n/a
272.776	0.105	545552	keystroke	e	n/a
273.001	0.121	546002	keystroke	p	n/a
273.151	0.06	546302	keystroke	t	n/a
273.256	0.075	546512	keystroke	i	n/a
273.467	0.089	546934	keystroke	n	n/a
273.586	0.076	547172	keystroke	a	n/a
274.366	0.12	548732	keystroke	Key.backspace	n/a
274.756	0.075	549512	keystroke	Key.backspace	n/a
275.417	0.089	550834	keystroke	o	n/a
275.597	0.059	551194	keystroke	n	n/a
275.702	0.134	551404	keystroke	a	n/a
275.837	0.059	551674	keystroke	l	n/a
275.986	0.105	551972	keystroke	Key.space	n/a
276.391	0.075	552782	keystroke	b	n/a
276.601	0.075	553202	keystroke	u	n/a
276.796	0.061	553592	keystroke	y	n/a
277.576	0.105	555152	keystroke	Key.space	n/a
277.937	0.119	555874	keystroke	p	n/a
278.026	0.076	556052	keystroke	e	n/a
278.282	0.06	556564	keystroke	n	n/a
278.417	0.119	556834	keystroke	a	n/a
278.581	0.091	557162	keystroke	l	n/a
278.687	0.074	557374	keystroke	t	n/a
278.852	0.075	557704	keystroke	y	n/a
279.136	0.105	558272	keystroke	Key.space	n/a
279.451	0.121	558902	keystroke	r	n/a
279.541	0.091	559082	keystroke	e	n/a
279.767	0.134	559534	keystroke	c	n/a
279.872	0.1195	559744	keystroke	e	n/a
281.5065	0.09	563013	keystroke	Key.backspace	n/a
281.9415	0.075	563883	keystroke	i	n/a
282.6015	0.075	565203	keystroke	p	n/a
282.7365	0.075	565473	keystroke	e	n/a
283.456	0.09	566912	keystroke	Key.enter	n/a
283.5545	11.7685	567109	prompt	n/a	opinion photographic interventions leaders\n
284.4765	0.075	568953	keystroke	o	n/a
284.731	0.06	569462	keystroke	p	n/a
285.001	0.075	570002	keystroke	i	n/a
285.2115	0.0895	570423	keystroke	n	n/a
285.331	0.12	570662	keystroke	i	n/a
285.466	0.105	570932	keystroke	o	n/a
285.556	0.12	571112	keystroke	n	n/a
286.021	0.09	572042	keystroke	Key.space	n/a
286.636	0.105	573272	keystroke	p	n/a
286.786	0.09	573572	keystroke	h	n/a
286.936	0.075	573872	keystroke	o	n/a
287.131	0.075	574262	keystroke	t	n/a
287.266	0.09	574532	keystroke	o	n/a
287.386	0.06	574772	keystroke	g	n/a
287.536	0.075	575072	keystroke	r	n/a
287.671	0.12	575342	keystroke	a	n/a
287.851	0.12	575702	keystroke	p	n/a
288.046	0.06	576092	keystroke	h	n/a
288.196	0.075	576392	keystroke	y	n/a
289.321	0.09	578642	keystroke	Key.backspace	n/a
289.756	0.075	579512	keystroke	i	n/a
289.891	0.075	579782	keystroke	c	n/a
290.267	0.119	580534	keystroke	Key.space	n/a
290.791	0.045	581582	keystroke	i	n/a
290.881	0.075	581762	keystroke	n	n/a
291.121	0.09	582242	keystroke	t	n/a
291.4215	0.135	582843	keystroke	e	n/a
291.5255	0.106	583051	keystroke	r	n/a
291.7965	0.089	583593	keystroke	v	n/a
291.9765	0.089	583953	keystroke	e	n/a
292.1105	0.061	584221	keystroke	n	n/a
292.2465	0.09	584493	keystroke	t	n/a
292.3665	0.09	584733	keystroke	i	n/a
292.4715	0.089	584943	keystroke	o	n/a
292.5465	0.105	585093	keystroke	n	n/a
292.6365	0.09	585273	keystroke	s	n/a
293.2055	0.105	586411	keystroke	Key.space	n/a
293.5665	0.089	587133	keystroke	l	n/a
293.6715	0.06	587343	keystroke	e	n/a
293.8215	0.134	587643	keystroke	a	n/a
294.0015	0.059	588003	keystroke	d	n/a
294.1965	0.105	588393	keystroke	e	n/a
294.2855	0.09	588571	keystroke	r	n/a
294.4805	0.076	588961	keystroke	s	n/a
295.2315	0.089	590463	keystroke	Key.enter	n/a
295.3295	9.8785	590659	prompt	n/a	scholars vampire mali returning\n
295.9965	0.105	591993	keystroke	s	n/a
296.1465	0.06	592293	keystroke	c	n/a
296.2515	0.075	592503	keystroke	h	n/a
296.5065	0.06	593013	keystroke	o	n/a
296.5965	0.135	593193	keystroke	a	n/a
296.6865	0.09	593373	keystroke	r	n/a
296.8665	0.09	593733	keystroke	s	n/a
297.9615	0.074	595923	keystroke	Key.backspace	n/a
298.2615	0.09	596523	keystroke	Key.backspace	n/a
298.5155	0.09	597031	keystroke	Key.backspace	n/a
299.3715	0.075	598743	keystroke	l	n/a
299.5665	0.12	599133	keystroke	a	n/a
299.6565	0.075	599313	keystroke	r	n/a
299.8215	0.09	599643	keystroke	s	n/a
300.2115	0.09	600423	keystroke	Key.space	n/a
300.6615	0.075	601323	keystroke	v	n/a
300.7815	0.105	601563	keystroke	a	n/a
300.9315	0.09	601863	keystroke	m	n/a
301.1565	0.105	602313	keystroke	p	n/a
301.3665	0.06	602733	keystroke	i	n/a
301.4865	0.135	602973	keystroke	r	n/a
301.5915	0.09	603183	keystroke	e	n/a
301.8615	0.12	603723	keystroke	Key.space	n/a
302.5665	0.075	605133	keystroke	m	n/a
302.7015	0.12	605403	keystroke	a	n/a
302.8815	0.09	605763	keystroke	l	n/a
303.0915	0.045	606183	keystroke	i	n/a
303.3315	0.09	606663	keystroke	Key.space	n/a
303.4815	0.12	606963	keystroke	r	n/a
303.6165	0.045	607233	keystroke	e	n/a
303.7365	0.09	607473	keystroke	t	n/a
303.9015	0.045	607803	keystroke	u	n/a
303.9915	0.075	607983	keystroke	r	n/a
304.1715	0.075	608343	keystroke	n	n/a
304.3965	0.075	608793	keystroke	i	n/a
304.5015	0.09	609003	keystroke	n	n/a
304.5765	0.09	609153	keystroke	g	n/a
305.1315	0.075	610263	keystroke	Key.enter	n/a
305.2125	11.0215	610425	prompt	n/a	thrown plumbing indicates needle\n
305.8515	0.06	611703	keystroke	t	n/a
305.9415	0.045	611883	keystroke	h	n/a
306.0615	0.0745	612123	keystroke	r	n/a
306.181	0.06	612362	keystroke	o	n/a
306.256	0.075	612512	keystroke	w	n/a
307.111	0.045	614222	keystroke	n	n/a
307.336	0.09	614672	keystroke	Key.space	n/a
307.651	0.135	615302	keystroke	p	n/a
307.801	0.09	615602	keystroke	u	n/a
308.491	0.06	616982	keystroke	m	n/a
309.3155	0.09	618631	keystroke	Key.backspace	n/a
309.7205	0.075	619441	keystroke	Key.backspace	n/a
310.532	0.0745	621064	keystroke	l	n/a
310.7265	0.074	621453	keystroke	u	n/a
311.0255	0.045	622051	keystroke	m	n/a
311.1305	0.091	622261	keystroke	b	n/a
311.5055	0.06	623011	keystroke	i	n/a
311.6105	0.075	623221	keystroke	n	n/a
311.7005	0.06	623401	keystroke	g	n/a
312.1515	0.1045	624303	keystroke	Key.space	n/a
312.6465	0.0745	625293	keystroke	i	n/a
312.751	0.09	625502	keystroke	n	n/a
312.916	0.09	625832	keystroke	d	n/a
313.021	0.075	626042	keystroke	i	n/a
313.171	0.105	626342	keystroke	c	n/a
313.351	0.18	626702	keystroke	a	n/a
313.561	0.075	627122	keystroke	t	n/a
313.7115	0.0745	627423	keystroke	e	n/a
313.876	0.105	627752	keystroke	s	n/a
314.236	0.12	628472	keystroke	Key.space	n/a
314.761	0.06	629522	keystroke	n	n/a
314.881	0.06	629762	keystroke	e	n/a
315.031	0.075	630062	keystroke	e	n/a
315.226	0.075	630452	keystroke	d	n/a
315.361	0.09	630722	keystroke	l	n/a
315.466	0.06	630932	keystroke	e	n/a
316.126	0.105	632252	keystroke	Key.enter	n/a
316.2405	10.5825	632481	prompt	n/a	organisation search packets exciting\n
317.176	0.075	634352	keystroke	o	n/a
317.266	0.075	634532	keystroke	r	n/a
317.491	0.09	634982	keystroke	g	n/a
317.626	0.09	635252	keystroke	a	n/a
317.791	0.075	635582	keystroke	n	n/a
317.941	0.06	635882	keystroke	i	n/a
318.376	0.09	636752	keystroke	s	n/a
318.511	0.15	637022	keystroke	a	n/a
318.721	0.075	637442	keystroke	t	n/a
318.826	0.075	637652	keystroke	i	n/a
318.916	0.105	637832	keystroke	o	n/a
318.991	0.12	637982	keystroke	n	n/a
319.396	0.075	638792	keystroke	Key.space	n/a
319.726	0.12	639452	keystroke	s	n/a
319.891	0.09	639782	keystroke	e	n/a
320.041	0.225	640082	keystroke	a	n/a
320.251	0.06	640502	keystroke	r	n/a
320.491	0.075	640982	keystroke	c	n/a
320.611	0.06	641222	keystroke	h	n/a
323.3895	0.041	646779	keystroke	Key.space	n/a
323.5955	0.0755	647191	keystroke	p	n/a
323.7155	0.075	647431	keystroke	a	n/a
323.7465	0.12	647493	keystroke	c	n/a
323.9705	0.075	647941	keystroke	k	n/a
324.0605	0.09	648121	keystroke	e	n/a
324.1655	0.0755	648331	keystroke	t	n/a
324.3015	0.089	648603	keystroke	s	n/a
324.4955	0.09	648991	keystroke	Key.space	n/a
324.7955	0.075	649591	keystroke	e	n/a
325.0655	0.076	650131	keystroke	x	n/a
325.3355	0.06	650671	keystroke	c	n/a
325.5755	0.06	651151	keystroke	i	n/a
325.7565	0.074	651513	keystroke	t	n/a
325.8755	0.091	651751	keystroke	i	n/a
325.9805	0.09	651961	keystroke	n	n/a
326.0405	0.075	652081	keystroke	g	n/a
326.7305	0.09	653461	keystroke	Key.enter	n/a
326.8285	9.8495	653657	prompt	n/a	projector 'twas tables cookies\n
327.5705	0.105	655141	keystroke	p	n/a
327.6905	0.06	655381	keystroke	r	n/a
327.7955	0.075	655591	keystroke	o	n/a
327.9905	0.09	655981	keystroke	j	n/a
328.0355	0.076	656071	keystroke	e	n/a
328.2455	0.091	656491	keystroke	c	n/a
328.4715	0.06	656943	keystroke	t	n/a
328.5915	0.06	657183	keystroke	o	n/a
328.6665	0.075	657333	keystroke	r	n/a
329.7915	0.12	659583	keystroke	'	n/a
330.991	0.075	661982	keystroke	Key.backspace	n/a
331.201	0.12	662402	keystroke	Key.space	n/a
331.441	0.12	662882	keystroke	'	n/a
331.831	0.09	663662	keystroke	t	n/a
332.146	0.075	664292	keystroke	w	n/a
333.286	0.135	666572	keystroke	a	n/a
333.406	0.105	666812	keystroke	s	n/a
333.661	0.09	667322	keystroke	Key.space	n/a
333.826	0.075	667652	keystroke	t	n/a
333.991	0.105	667982	keystroke	a	n/a
334.081	0.045	668162	keystroke	b	n/a
334.231	0.076	668462	keystroke	l	n/a
334.321	0.06	668642	keystroke	e	n/a
334.501	0.091	669002	keystroke	s	n/a
334.726	0.12	669452	keystroke	Key.space	n/a
335.161	0.09	670322	keystroke	c	n/a
335.296	0.06	670592	keystroke	o	n/a
335.446	0.075	670892	keystroke	o	n/a
335.641	0.06	671282	keystroke	k	n/a
335.821	0.075	671642	keystroke	i	n/a
335.911	0.06	671822	keystroke	e	n/a
336.076	0.105	672152	keystroke	s	n/a
336.586	0.09	673172	keystroke	Key.enter	n/a
336.6825	7.7065	673365	prompt	n/a	knife was neil scheduled\n
337.322	0.104	674644	keystroke	k	n/a
337.516	0.09	675032	keystroke	n	n/a
337.651	0.06	675302	keystroke	i	n/a
337.801	0.075	675602	keystroke	f	n/a
337.921	0.09	675842	keystroke	e	n/a
338.491	0.105	676982	keystroke	Key.space	n/a
338.671	0.06	677342	keystroke	w	n/a
338.836	0.12	677672	keystroke	a	n/a
338.911	0.105	677822	keystroke	s	n/a
339.166	0.12	678332	keystroke	Key.space	n/a
339.451	0.075	678902	keystroke	n	n/a
339.751	0.075	679502	keystroke	e	n/a
339.901	0.075	679802	keystroke	i	n/a
340.126	0.075	680252	keystroke	l	n/a
340.426	0.12	680852	keystroke	Key.space	n/a
340.771	0.09	681542	keystroke	s	n/a
340.951	0.075	681902	keystroke	c	n/a
341.056	0.075	682112	keystroke	h	n/a
341.146	0.06	682292	keystroke	e	n/a
341.386	0.075	682772	keystroke	d	n/a
341.521	0.075	683042	keystroke	u	n/a
343.366	0.075	686732	keystroke	l	n/a
343.516	0.06	687032	keystroke	e	n/a
343.696	0.075	687392	keystroke	d	n/a
344.2815	0.105	688563	keystroke	Key.enter	n/a
344.3955	8.799	688791	prompt	n/a	hawk sequence carey disposition\n
345.1365	0.075	690273	keystroke	h	n/a
345.2715	0.12	690543	keystroke	a	n/a
345.4665	0.09	690933	keystroke	w	n/a
345.6915	0.06	691383	keystroke	k	n/a
346.0505	0.121	692101	keystroke	Key.space	n/a
346.4265	0.105	692853	keystroke	s	n/a
346.6065	0.075	693213	keystroke	e	n/a
346.7715	0.12	693543	keystroke	q	n/a
346.9815	0.075	693963	keystroke	u	n/a
347.1315	0.09	694263	keystroke	e	n/a
347.3265	0.06	694653	keystroke	n	n/a
347.4315	0.105	694863	keystroke	c	n/a
347.5215	0.09	695043	keystroke	e	n/a
347.8665	0.135	695733	keystroke	Key.space	n/a
348.3315	0.09	696663	keystroke	c	n/a
348.4965	0.21	696993	keystroke	a	n/a
348.6765	0.105	697353	keystroke	r	n/a
348.8115	0.09	697623	keystroke	e	n/a
349.0215	0.075	698043	keystroke	y	n/a
349.7865	0.105	699573	keystroke	Key.space	n/a
349.9815	0.075	699963	keystroke	d	n/a
350.1465	0.06	700293	keystroke	i	n/a
350.2215	0.1045	700443	keystroke	s	n/a
350.956	0.105	701912	keystroke	p	n/a
351.166	0.03	702332	keystroke	o	n/a
351.736	0.12	703472	keystroke	s	n/a
351.901	0.06	703802	keystroke	i	n/a
352.142	0.059	704284	keystroke	t	n/a
352.261	0.12	704522	keystroke	i	n/a
352.426	0.09	704852	keystroke	o	n/a
352.531	0.12	705062	keystroke	n	n/a
353.101	0.09	706202	keystroke	Key.enter	n/a
353.2	12.4135	706400	prompt	n/a	playstation reuters what federation\n
353.926	0.09	707852	keystroke	p	n/a
354.121	0.075	708242	keystroke	l	n/a
354.211	0.09	708422	keystroke	a	n/a
354.316	0.075	708632	keystroke	y	n/a
355.036	0.075	710072	keystroke	s	n/a
355.171	0.075	710342	keystroke	t	n/a
355.336	0.12	710672	keystroke	a	n/a
355.501	0.075	711002	keystroke	t	n/a
355.621	0.105	711242	keystroke	i	n/a
355.741	0.105	711482	keystroke	o	n/a
355.831	0.105	711662	keystroke	n	n/a
355.981	0.09	711962	keystroke	Key.space	n/a
356.191	0.105	712382	keystroke	r	n/a
356.281	0.09	712562	keystroke	e	n/a
356.401	0.06	712802	keystroke	u	n/a
356.551	0.06	713102	keystroke	t	n/a
356.746	0.105	713492	keystroke	e	n/a
356.821	0.091	713642	keystroke	r	n/a
357.061	0.076	714122	keystroke	s	n/a
359.749	0.057	719498	keystroke	Key.space	n/a
360.436	0.075	720872	keystroke	w	n/a
360.631	0.105	721262	keystroke	a	n/a
361.591	0.105	723182	keystroke	Key.backspace	n/a
362.0265	0.06	724053	keystroke	h	n/a
362.1915	0.105	724383	keystroke	a	n/a
362.2815	0.09	724563	keystroke	t	n/a
362.4915	0.105	724983	keystroke	Key.space	n/a
362.7015	0.09	725403	keystroke	f	n/a
362.8065	0.09	725613	keystroke	e	n/a
363.0015	0.045	726003	keystroke	d	n/a
363.1365	0.075	726273	keystroke	e	n/a
363.3315	0.09	726663	keystroke	a	n/a
364.0965	0.105	728193	keystroke	Key.backspace	n/a
364.2465	0.09	728493	keystroke	r	n/a
364.3965	0.135	728793	keystroke	a	n/a
364.5765	0.075	729153	keystroke	t	n/a
364.6815	0.09	729363	keystroke	i	n/a
364.8015	0.105	729603	keystroke	o	n/a
364.8915	0.105	729783	keystroke	n	n/a
365.5065	0.105	731013	keystroke	Key.enter	n/a
365.6185	7.1345	731237	prompt	n/a	tracy pleasure trends utils\n
366.241	0.06	732482	keystroke	t	n/a
366.4365	0.045	732873	keystroke	r	n/a
366.5565	0.12	733113	keystroke	a	n/a
366.7365	0.075	733473	keystroke	c	n/a
366.8715	0.06	733743	keystroke	y	n/a
367.2615	0.105	734523	keystroke	Key.space	n/a
367.7715	0.105	735543	keystroke	p	n/a
368.0415	0.075	736083	keystroke	l	n/a
368.1615	0.044	736323	keystroke	e	n/a
368.2815	0.149	736563	keystroke	a	n/a
368.6115	0.074	737223	keystroke	s	n/a
368.7765	0.06	737553	keystroke	u	n/a
368.8665	0.075	737733	keystroke	r	n/a
368.9265	0.089	737853	keystroke	e	n/a
369.1505	0.09	738301	keystroke	Key.space	n/a
369.4365	0.06	738873	keystroke	t	n/a
369.6455	0.091	739291	keystroke	r	n/a
369.8115	0.09	739623	keystroke	e	n/a
369.9915	0.06	739983	keystroke	n	n/a
370.0665	0.075	740133	keystroke	d	n/a
370.2165	0.09	740433	keystroke	s	n/a
370.3665	0.0895	740733	keystroke	Key.space	n/a
370.696	0.06	741392	keystroke	u	n/a
371.731	0.06	743462	keystroke	t	n/a
371.911	0.075	743822	keystroke	i	n/a
372.136	0.06	744272	keystroke	l	n/a
372.286	0.075	744572	keystroke	s	n/a
372.661	0.09	745322	keystroke	Key.enter	n/a
372.7575	6.7605	745515	prompt	n/a	consensus trip deborah jesse\n
373.4415	0.075	746883	keystroke	c	n/a
373.5465	0.09	747093	keystroke	o	n/a
373.7115	0.09	747423	keystroke	n	n/a
373.8615	0.105	747723	keystroke	s	n/a
373.9965	0.09	747993	keystroke	e	n/a
374.4015	0.075	748803	keystroke	n	n/a
374.6115	0.075	749223	keystroke	s	n/a
374.7465	0.075	749493	keystroke	u	n/a
374.8365	0.09	749673	keystroke	s	n/a
375.1965	0.105	750393	keystroke	Key.space	n/a
375.5715	0.06	751143	keystroke	t	n/a
375.7515	0.06	751503	keystroke	r	n/a
375.8415	0.15	751683	keystroke	i	n/a
376.0215	0.105	752043	keystroke	p	n/a
376.4415	0.06	752883	keystroke	Key.space	n/a
376.7565	0.06	753513	keystroke	d	n/a
376.9215	0.09	753843	keystroke	e	n/a
377.1015	0.06	754203	keystroke	b	n/a
377.2515	0.075	754503	keystroke	o	n/a
377.3415	0.06	754683	keystroke	r	n/a
377.4915	0.075	754983	keystroke	a	n/a
377.5665	0.075	755133	keystroke	h	n/a
377.7915	0.105	755583	keystroke	Key.space	n/a
378.0615	0.06	756123	keystroke	j	n/a
378.1365	0.075	756273	keystroke	e	n/a
378.3765	0.06	756753	keystroke	s	n/a
378.5415	0.075	757083	keystroke	s	n/a
378.7665	0.03	757533	keystroke	e	n/a
379.4265	0.09	758853	keystroke	Key.enter	n/a
379.522	14.097	759044	prompt	n/a	employment institutions geometry complexity\n
380.2815	0.075	760563	keystroke	e	n/a
380.4165	0.06	760833	keystroke	m	n/a
380.6565	0.105	761313	keystroke	p	n/a
380.8815	0.075	761763	keystroke	l	n/a
381.0765	0.09	762153	keystroke	o	n/a
381.1965	0.09	762393	keystroke	y	n/a
381.7065	0.06	763413	keystroke	m	n/a
381.8265	0.06	763653	keystroke	e	n/a
381.8865	0.06	763773	keystroke	n	n/a
381.9915	0.06	763983	keystroke	t	n/a
382.3965	0.09	764793	keystroke	Key.space	n/a
383.0565	0.075	766113	keystroke	i	n/a
383.1765	0.075	766353	keystroke	n	n/a
383.2665	0.105	766533	keystroke	s	n/a
383.7615	0.045	767523	keystroke	t	n/a
384.571	0.06	769142	keystroke	i	n/a
384.946	0.075	769892	keystroke	t	n/a
385.096	0.06	770192	keystroke	u	n/a
385.2915	0.075	770583	keystroke	t	n/a
385.3815	0.105	770763	keystroke	i	n/a
385.5015	0.09	771003	keystroke	o	n/a
385.5765	0.12	771153	keystroke	n	n/a
385.6815	0.105	771363	keystroke	a	n/a
385.8165	0.075	771633	keystroke	l	n/a
386.1615	0.075	772323	keystroke	Key.space	n/a
387.8265	0.075	775653	keystroke	Key.backspace	n/a
387.9615	0.09	775923	keystroke	Key.backspace	n/a
388.351	0.09	776702	keystroke	Key.backspace	n/a
388.591	0.105	777182	keystroke	s	n/a
388.816	0.09	777632	keystroke	Key.space	n/a
389.221	0.075	778442	keystroke	g	n/a
389.341	0.09	778682	keystroke	e	n/a
389.896	0.075	779792	keystroke	o	n/a
390.526	0.06	781052	keystroke	m	n/a
390.601	0.075	781202	keystroke	e	n/a
390.766	0.06	781532	keystroke	t	n/a
390.931	0.075	781862	keystroke	r	n/a
391.051	0.075	782102	keystroke	y	n/a
391.261	0.105	782522	keystroke	Key.space	n/a
391.411	0.09	782822	keystroke	c	n/a
391.531	0.0755	783062	keystroke	o	n/a
391.756	0.12	783512	keystroke	m	n/a
391.936	0.09	783872	keystroke	p	n/a
392.131	0.09	784262	keystroke	l	n/a
392.236	0.06	784472	keystroke	e	n/a
392.446	0.075	784892	keystroke	x	n/a
392.566	0.09	785132	keystroke	i	n/a
392.731	0.06	785462	keystroke	t	n/a
392.836	0.075	785672	keystroke	y	n/a
393.511	0.105	787022	keystroke	Key.enter	n/a
393.6265	7.611	787253	prompt	n/a	grants outline little losses\n
394.396	0.06	788792	keystroke	g	n/a
394.561	0.06	789122	keystroke	r	n/a
394.712	0.119	789424	keystroke	a	n/a
394.816	0.06	789632	keystroke	n	n/a
394.921	0.06	789842	keystroke	t	n/a
395.056	0.09	790112	keystroke	s	n/a
395.221	0.09	790442	keystroke	Key.space	n/a
395.476	0.06	790952	keystroke	o	n/a
395.551	0.09	791102	keystroke	u	n/a
395.656	0.075	791312	keystroke	t	n/a
395.881	0.075	791762	keystroke	l	n/a
396.061	0.06	792122	keystroke	i	n/a
396.136	0.075	792272	keystroke	n	n/a
396.241	0.076	792482	keystroke	e	n/a
397.381	0.105	794762	keystroke	Key.space	n/a
397.876	0.075	795752	keystroke	l	n/a
398.071	0.045	796142	keystroke	i	n/a
398.161	0.06	796322	keystroke	t	n/a
398.311	0.075	796622	keystroke	t	n/a
398.551	0.09	797102	keystroke	l	n/a
398.626	0.06	797252	keystroke	e	n/a
398.986	0.105	797972	keystroke	Key.space	n/a
399.451	0.075	798902	keystroke	l	n/a
399.661	0.075	799322	keystroke	o	n/a
400.171	0.06	800342	keystroke	s	n/a
400.306	0.09	800612	keystroke	s	n/a
400.5005	0.0455	801001	keystroke	e	n/a
400.636	0.09	801272	keystroke	s	n/a
401.146	0.09	802292	keystroke	Key.enter	n/a
401.243	10.4945	802486	prompt	n/a	seed youth conferencing beverage\n
401.8655	0.09	803731	keystroke	s	n/a
402.0465	0.059	804093	keystroke	e	n/a
402.2105	0.06	804421	keystroke	e	n/a
402.3755	0.075	804751	keystroke	d	n/a
402.5255	0.09	805051	keystroke	Key.space	n/a
402.7505	0.09	805501	keystroke	y	n/a
403.0055	0.09	806011	keystroke	u	n/a
403.8905	0.09	807781	keystroke	Key.backspace	n/a
404.2365	0.089	808473	keystroke	o	n/a
404.3865	0.089	808773	keystroke	u	n/a
404.6105	0.076	809221	keystroke	t	n/a
404.7605	0.075	809521	keystroke	h	n/a
405.2555	0.105	810511	keystroke	Key.space	n/a
405.4655	0.075	810931	keystroke	c	n/a
405.6315	0.074	811263	keystroke	o	n/a
405.8105	0.06	811621	keystroke	n	n/a
405.9605	0.09	811921	keystroke	f	n/a
406.1855	0.12	812371	keystroke	e	n/a
406.2905	0.12	812581	keystroke	r	n/a
406.3955	0.105	812791	keystroke	e	n/a
406.5755	0.075	813151	keystroke	n	n/a
406.6655	0.121	813331	keystroke	c	n/a
406.8155	0.075	813631	keystroke	e	n/a
407.0705	0.075	814141	keystroke	i	n/a
407.2205	0.075	814441	keystroke	n	n/a
407.3265	0.059	814653	keystroke	g	n/a
408.0015	0.089	816003	keystroke	Key.backspace	n/a
408.2105	0.09	816421	keystroke	Key.backspace	n/a
408.3755	0.075	816751	keystroke	Key.backspace	n/a
408.6005	0.09	817201	keystroke	Key.backspace	n/a
408.9755	0.061	817951	keystroke	i	n/a
409.1555	0.06	818311	keystroke	n	n/a
409.2455	0.075	818491	keystroke	g	n/a
409.6205	0.075	819241	keystroke	Key.space	n/a
410.1455	0.046	820291	keystroke	b	n/a
410.2055	0.09	820411	keystroke	e	n/a
410.4315	0.089	820863	keystroke	v	n/a
410.5665	0.12	821133	keystroke	e	n/a
410.6705	0.105	821341	keystroke	r	n/a
410.8965	0.12	821793	keystroke	a	n/a
411.0005	0.091	822001	keystroke	g	n/a
411.0755	0.091	822151	keystroke	e	n/a
411.631	0.105	823262	keystroke	Key.enter	n/a
411.7425	11.7705	823485	prompt	n/a	wisconsin storm boxed killer\n
412.381	0.075	824762	keystroke	w	n/a
412.636	0.06	825272	keystroke	i	n/a
412.712	0.059	825424	keystroke	s	n/a
412.906	0.075	825812	keystroke	c	n/a
413.026	0.06	826052	keystroke	o	n/a
413.161	0.045	826322	keystroke	n	n/a
413.296	0.09	826592	keystroke	s	n/a
413.401	0.06	826802	keystroke	i	n/a
413.476	0.09	826952	keystroke	n	n/a
414.046	0.09	828092	keystroke	Key.space	n/a
414.151	0.105	828302	keystroke	s	n/a
414.331	0.075	828662	keystroke	t	n/a
414.511	0.075	829022	keystroke	r	n/a
414.691	0.075	829382	keystroke	o	n/a
414.976	0.075	829952	keystroke	m	n/a
415.576	0.09	831152	keystroke	Key.space	n/a
415.906	0.075	831812	keystroke	o	n/a
416.101	0.09	832202	keystroke	x	n/a
416.926	0.09	833852	keystroke	Key.backspace	n/a
417.091	0.075	834182	keystroke	Key.backspace	n/a
418.171	0.076	836342	keystroke	Key.backspace	n/a
418.366	0.06	836732	keystroke	Key.backspace	n/a
418.546	0.06	837092	keystroke	Key.backspace	n/a
418.696	0.09	837392	keystroke	Key.backspace	n/a
419.461	0.075	838922	keystroke	o	n/a
419.596	0.045	839192	keystroke	r	n/a
420.166	0.075	840332	keystroke	m	n/a
420.436	0.09	840872	keystroke	Key.space	n/a
420.676	0.075	841352	keystroke	b	n/a
420.811	0.075	841622	keystroke	o	n/a
421.006	0.06	842012	keystroke	x	n/a
421.201	0.06	842402	keystroke	e	n/a
421.381	0.045	842762	keystroke	d	n/a
421.561	0.135	843122	keystroke	Key.space	n/a
422.101	0.06	844202	keystroke	k	n/a
422.251	0.075	844502	keystroke	i	n/a
422.476	0.06	844952	keystroke	l	n/a
422.641	0.06	845282	keystroke	l	n/a
422.746	0.105	845492	keystroke	e	n/a
422.836	0.105	845672	keystroke	r	n/a
423.421	0.09	846842	keystroke	Key.enter	n/a
423.5195	8.6635	847039	prompt	n/a	msie constraints gives up\n
424.261	0.09	848522	keystroke	m	n/a
424.576	0.105	849152	keystroke	s	n/a
424.726	0.06	849452	keystroke	i	n/a
424.876	0.06	849752	keystroke	e	n/a
425.176	0.105	850352	keystroke	Key.space	n/a
425.521	0.09	851042	keystroke	c	n/a
425.671	0.075	851342	keystroke	o	n/a
425.806	0.09	851612	keystroke	n	n/a
427.771	0.12	855542	keystroke	s	n/a
427.996	0.06	855992	keystroke	t	n/a
428.176	0.075	856352	keystroke	r	n/a
428.356	0.105	856712	keystroke	a	n/a
428.506	0.09	857012	keystroke	i	n/a
428.746	0.06	857492	keystroke	n	n/a
428.851	0.06	857702	keystroke	t	n/a
429.016	0.075	858032	keystroke	s	n/a
429.511	0.105	859022	keystroke	Key.space	n/a
430.321	0.075	860642	keystroke	g	n/a
430.501	0.06	861002	keystroke	i	n/a
430.591	0.105	861182	keystroke	v	n/a
430.756	0.09	861512	keystroke	e	n/a
430.921	0.105	861842	keystroke	s	n/a
431.071	0.105	862142	keystroke	Key.space	n/a
431.356	0.105	862712	keystroke	u	n/a
431.491	0.09	862982	keystroke	p	n/a
432.0765	0.104	864153	keystroke	Key.enter	n/a
432.1895	8.6935	864379	prompt	n/a	prefer engagement you've fibre\n
432.9315	0.089	865863	keystroke	p	n/a
433.0515	0.105	866103	keystroke	r	n/a
433.1405	0.091	866281	keystroke	e	n/a
433.4265	0.09	866853	keystroke	f	n/a
433.6065	0.105	867213	keystroke	e	n/a
433.6815	0.105	867363	keystroke	r	n/a
433.9055	0.09	867811	keystroke	Key.space	n/a
434.2065	0.09	868413	keystroke	e	n/a
434.3115	0.06	868623	keystroke	n	n/a
434.5065	0.075	869013	keystroke	g	n/a
434.6865	0.149	869373	keystroke	a	n/a
434.7765	0.135	869553	keystroke	g	n/a
434.8965	0.09	869793	keystroke	e	n/a
435.3005	0.061	870601	keystroke	m	n/a
435.4065	0.06	870813	keystroke	e	n/a
435.5255	0.016	871051	keystroke	n	n/a
435.5855	0.076	871171	keystroke	t	n/a
435.9455	0.12	871891	keystroke	Key.space	n/a
436.3815	0.059	872763	keystroke	y	n/a
436.6515	0.105	873303	keystroke	u	n/a
437.5655	0.09	875131	keystroke	Key.backspace	n/a
438.0165	0.075	876033	keystroke	o	n/a
438.1205	0.091	876241	keystroke	u	n/a
438.3915	0.105	876783	keystroke	'	n/a
438.5865	0.105	877173	keystroke	v	n/a
438.7065	0.09	877413	keystroke	e	n/a
439.3055	0.12	878611	keystroke	Key.space	n/a
439.5915	0.06	879183	keystroke	f	n/a
439.6815	0.06	879363	keystroke	i	n/a
439.966	0.045	879932	keystroke	b	n/a
440.086	0.09	880172	keystroke	r	n/a
440.161	0.105	880322	keystroke	e	n/a
440.791	0.09	881582	keystroke	Key.enter	n/a
440.888	8.591	881776	prompt	n/a	continuity year sensors county\n
441.541	0.075	883082	keystroke	c	n/a
441.826	0.075	883652	keystroke	o	n/a
441.961	0.075	883922	keystroke	n	n/a
442.186	0.06	884372	keystroke	t	n/a
442.276	0.075	884552	keystroke	i	n/a
442.531	0.075	885062	keystroke	n	n/a
442.9805	0.045	885961	keystroke	u	n/a
443.1755	0.06	886351	keystroke	i	n/a
443.3105	0.075	886621	keystroke	t	n/a
443.4455	0.06	886891	keystroke	y	n/a
443.8655	0.075	887731	keystroke	Key.space	n/a
444.3005	0.045	888601	keystroke	y	n/a
444.4505	0.03	888901	keystroke	e	n/a
444.5705	0.135	889141	keystroke	a	n/a
444.6755	0.06	889351	keystroke	r	n/a
445.516	0.105	891032	keystroke	Key.space	n/a
446.371	0.09	892742	keystroke	s	n/a
446.536	0.09	893072	keystroke	e	n/a
446.731	0.075	893462	keystroke	n	n/a
446.896	0.09	893792	keystroke	s	n/a
447.001	0.075	894002	keystroke	o	n/a
447.106	0.075	894212	keystroke	r	n/a
447.346	0.09	894692	keystroke	s	n/a
447.616	0.135	895232	keystroke	Key.space	n/a
447.886	0.075	895772	keystroke	c	n/a
447.991	0.09	895982	keystroke	o	n/a
448.216	0.06	896432	keystroke	u	n/a
448.456	0.075	896912	keystroke	n	n/a
448.696	0.06	897392	keystroke	t	n/a
448.816	0.06	897632	keystroke	y	n/a
449.416	0.06	898832	keystroke	Key.enter	n/a
449.4855	7.0425	898971	prompt	n/a	builds wing metallica facts\n
450.211	0.045	900422	keystroke	b	n/a
450.421	0.06	900842	keystroke	u	n/a
450.676	0.06	901352	keystroke	i	n/a
450.886	0.075	901772	keystroke	l	n/a
451.036	0.06	902072	keystroke	d	n/a
451.156	0.06	902312	keystroke	s	n/a
451.486	0.09	902972	keystroke	Key.space	n/a
451.741	0.075	903482	keystroke	w	n/a
451.831	0.06	903662	keystroke	i	n/a
451.966	0.075	903932	keystroke	n	n/a
452.056	0.075	904112	keystroke	g	n/a
452.356	0.105	904712	keystroke	Key.space	n/a
452.716	0.075	905432	keystroke	m	n/a
452.791	0.075	905582	keystroke	e	n/a
453.001	0.09	906002	keystroke	t	n/a
453.151	0.105	906302	keystroke	a	n/a
453.856	0.06	907712	keystroke	l	n/a
454.006	0.075	908012	keystroke	l	n/a
454.1855	0.06	908371	keystroke	i	n/a
454.2905	0.135	908581	keystroke	c	n/a
454.4105	0.091	908821	keystroke	a	n/a
454.7405	0.105	909481	keystroke	Key.space	n/a
455.191	0.06	910382	keystroke	f	n/a
455.296	0.135	910592	keystroke	a	n/a
455.461	0.075	910922	keystroke	c	n/a
455.671	0.06	911342	keystroke	t	n/a
456.046	0.06	912092	keystroke	s	n/a
456.436	0.09	912872	keystroke	Key.enter	n/a
456.5315	11.367	913063	prompt	n/a	logitech drilling payable american\n
457.501	0.06	915002	keystroke	l	n/a
457.921	0.075	915842	keystroke	o	n/a
458.0405	0.06	916081	keystroke	g	n/a
458.6255	0.075	917251	keystroke	i	n/a
458.8365	0.03	917673	keystroke	t	n/a
459.1805	0.075	918361	keystroke	e	n/a
460.3655	0.075	920731	keystroke	c	n/a
460.4855	0.06	920971	keystroke	h	n/a
460.8155	0.075	921631	keystroke	Key.space	n/a
462.4355	0.075	924871	keystroke	d	n/a
462.5715	0.089	925143	keystroke	r	n/a
462.7055	0.045	925411	keystroke	i	n/a
462.9005	0.045	925801	keystroke	l	n/a
463.0515	0.06	926103	keystroke	l	n/a
463.2005	0.075	926401	keystroke	i	n/a
463.3065	0.089	926613	keystroke	n	n/a
463.3805	0.06	926761	keystroke	g	n/a
464.1155	0.075	928231	keystroke	Key.space	n/a
464.4305	0.105	928861	keystroke	p	n/a
464.5205	0.105	929041	keystroke	a	n/a
464.8205	0.075	929641	keystroke	y	n/a
465.0765	0.074	930153	keystroke	a	n/a
465.1655	0.06	930331	keystroke	b	n/a
465.3905	0.0605	930781	keystroke	l	n/a
465.451	0.06	930902	keystroke	e	n/a
465.781	0.09	931562	keystroke	Key.space	n/a
466.201	0.135	932402	keystroke	a	n/a
466.321	0.06	932642	keystroke	m	n/a
466.621	0.135	933242	keystroke	e	n/a
466.726	0.09	933452	keystroke	r	n/a
466.876	0.06	933752	keystroke	i	n/a
467.041	0.074	934082	keystroke	c	n/a
467.101	0.09	934202	keystroke	a	n/a
467.236	0.075	934472	keystroke	n	n/a
467.821	0.075	935642	keystroke	Key.enter	n/a
467.904	8.3785	935808	prompt	n/a	august canyon noted satisfaction\n
468.661	0.09	937322	keystroke	a	n/a
469.036	0.06	938072	keystroke	u	n/a
469.201	0.06	938402	keystroke	g	n/a
469.411	0.045	938822	keystroke	u	n/a
469.486	0.09	938972	keystroke	s	n/a
469.577	0.074	939154	keystroke	t	n/a
469.965	0.06	939930	keystroke	Key.space	n/a
470.386	0.09	940772	keystroke	c	n/a
470.506	0.12	941012	keystroke	a	n/a
470.641	0.06	941282	keystroke	n	n/a
471.106	0.075	942212	keystroke	y	n/a
471.346	0.09	942692	keystroke	o	n/a
471.481	0.075	942962	keystroke	n	n/a
472.006	0.105	944012	keystroke	Key.space	n/a
472.411	0.105	944822	keystroke	n	n/a
472.531	0.075	945062	keystroke	o	n/a
472.666	0.075	945332	keystroke	t	n/a
472.816	0.075	945632	keystroke	e	n/a
473.011	0.06	946022	keystroke	d	n/a
473.236	0.105	946472	keystroke	Key.space	n/a
473.761	0.075	947522	keystroke	s	n/a
473.881	0.195	947762	keystroke	a	n/a
474.091	0.075	948182	keystroke	t	n/a
474.181	0.075	948362	keystroke	i	n/a
474.301	0.105	948602	keystroke	s	n/a
474.526	0.09	949052	keystroke	f	n/a
474.661	0.15	949322	keystroke	a	n/a
474.856	0.09	949712	keystroke	c	n/a
475.126	0.06	950252	keystroke	t	n/a
475.321	0.075	950642	keystroke	i	n/a
475.516	0.09	951032	keystroke	o	n/a
475.621	0.09	951242	keystroke	n	n/a
476.2055	0.075	952411	keystroke	Key.enter	n/a
476.288	12.1	952576	prompt	n/a	elderly shareholders czech tanks\n
477.0155	0.091	954031	keystroke	e	n/a
477.3605	0.09	954721	keystroke	l	n/a
477.5115	0.075	955023	keystroke	d	n/a
477.6905	0.121	955381	keystroke	e	n/a
477.7955	0.09	955591	keystroke	r	n/a
478.0365	0.075	956073	keystroke	l	n/a
478.186	0.0745	956372	keystroke	y	n/a
478.4855	0.075	956971	keystroke	Key.space	n/a
479.1155	0.105	958231	keystroke	s	n/a
479.5055	0.075	959011	keystroke	h	n/a
479.6405	0.12	959281	keystroke	a	n/a
479.9105	0.09	959821	keystroke	r	n/a
479.9855	0.09	959971	keystroke	e	n/a
480.8405	0.09	961681	keystroke	h	n/a
481.0065	0.074	962013	keystroke	o	n/a
481.2455	0.075	962491	keystroke	l	n/a
481.3055	0.076	962611	keystroke	d	n/a
481.5165	0.104	963033	keystroke	e	n/a
481.6055	0.09	963211	keystroke	r	n/a
482.0255	0.09	964051	keystroke	s	n/a
482.2805	0.105	964561	keystroke	Key.space	n/a
483.6605	0.06	967321	keystroke	c	n/a
483.9305	0.075	967861	keystroke	z	n/a
484.9655	0.09	969931	keystroke	e	n/a
485.1905	0.075	970381	keystroke	c	n/a
485.3105	0.06	970621	keystroke	h	n/a
485.6405	0.09	971281	keystroke	Key.space	n/a
486.0305	0.06	972061	keystroke	t	n/a
486.1955	0.09	972391	keystroke	a	n/a
486.4055	0.075	972811	keystroke	n	n/a
486.5705	0.06	973141	keystroke	k	n/a
486.8105	0.06	973621	keystroke	s	n/a
488.281	0.105	976562	keystroke	Key.enter	n/a
488.3925	11.6655	976785	prompt	n/a	synthesis kirk ukraine note\n
489.001	0.1045	978002	keystroke	s	n/a
489.1505	0.06	978301	keystroke	y	n/a
490.261	0.045	980522	keystroke	n	n/a
491.236	0.075	982472	keystroke	t	n/a
491.416	0.045	982832	keystroke	h	n/a
491.5205	0.0755	983041	keystroke	e	n/a
491.761	0.075	983522	keystroke	s	n/a
491.8805	0.06	983761	keystroke	i	n/a
492.001	0.0745	984002	keystroke	s	n/a
492.1955	0.1205	984391	keystroke	Key.space	n/a
492.7055	0.0905	985411	keystroke	l	n/a
492.916	0.0595	985832	keystroke	i	n/a
493.1255	0.0905	986251	keystroke	r	n/a
493.246	0.075	986492	keystroke	k	n/a
494.221	0.0895	988442	keystroke	Key.backspace	n/a
494.4155	0.09	988831	keystroke	Key.backspace	n/a
494.6105	0.09	989221	keystroke	Key.backspace	n/a
494.8055	0.09	989611	keystroke	Key.backspace	n/a
495.4355	0.0755	990871	keystroke	k	n/a
495.616	0.075	991232	keystroke	i	n/a
495.751	0.075	991502	keystroke	r	n/a
495.871	0.09	991742	keystroke	k	n/a
496.666	0.09	993332	keystroke	Key.space	n/a
496.921	0.075	993842	keystroke	u	n/a
497.206	0.06	994412	keystroke	k	n/a
497.491	0.06	994982	keystroke	r	n/a
497.611	0.105	995222	keystroke	a	n/a
497.791	0.075	995582	keystroke	i	n/a
498.031	0.045	996062	keystroke	n	n/a
498.106	0.06	996212	keystroke	e	n/a
498.436	0.105	996872	keystroke	Key.space	n/a
499.021	0.075	998042	keystroke	n	n/a
499.126	0.075	998252	keystroke	o	n/a
499.246	0.09	998492	keystroke	t	n/a
499.366	0.09	998732	keystroke	e	n/a
499.966	0.09	999932	keystroke	Key.enter	n/a
500.0665	24.066	1000133	prompt	n/a	cited configuring enzyme responsibility\n
501.301	0.075	1002602	keystroke	c	n/a
501.556	0.06	1003112	keystroke	i	n/a
501.751	0.06	1003502	keystroke	t	n/a
501.871	0.075	1003742	keystroke	e	n/a
502.051	0.09	1004102	keystroke	d	n/a
513.709	0.042	1027418	keystroke	Key.space	n/a
513.946	0.09	1027892	keystroke	c	n/a
514.096	0.09	1028192	keystroke	o	n/a
514.231	0.105	1028462	keystroke	n	n/a
514.411	0.105	1028822	keystroke	f	n/a
514.591	0.06	1029182	keystroke	i	n/a
514.726	0.075	1029452	keystroke	g	n/a
514.906	0.06	1029812	keystroke	u	n/a
515.026	0.075	1030052	keystroke	r	n/a
515.161	0.06	1030322	keystroke	i	n/a
515.266	0.045	1030532	keystroke	n	n/a
515.326	0.075	1030652	keystroke	g	n/a
515.821	0.12	1031642	keystroke	Key.space	n/a
516.226	0.06	1032452	keystroke	e	n/a
516.346	0.075	1032692	keystroke	n	n/a
516.841	0.09	1033682	keystroke	z	n/a
516.961	0.075	1033922	keystroke	y	n/a
517.306	0.075	1034612	keystroke	m	n/a
517.411	0.06	1034822	keystroke	e	n/a
517.936	0.09	1035872	keystroke	Key.space	n/a
518.281	0.12	1036562	keystroke	r	n/a
518.371	0.09	1036742	keystroke	e	n/a
518.566	0.09	1037132	keystroke	s	n/a
518.671	0.135	1037342	keystroke	p	n/a
518.866	0.105	1037732	keystroke	o	n/a
518.986	0.105	1037972	keystroke	n	n/a
520.141	0.09	1040282	keystroke	s	n/a
520.216	0.075	1040432	keystroke	i	n/a
520.516	0.09	1041032	keystroke	i	n/a
521.506	0.09	1043012	keystroke	Key.backspace	n/a
522.646	0.09	1045292	keystroke	b	n/a
522.781	0.09	1045562	keystroke	i	n/a
523.021	0.121	1046042	keystroke	l	n/a
523.111	0.105	1046222	keystroke	i	n/a
523.276	0.075	1046552	keystroke	t	n/a
523.366	0.075	1046732	keystroke	y	n/a
524.041	0.09	1048082	keystroke	Key.enter	n/a
524.139	11.273	1048278	prompt	n/a	glasses pathology camcorder calcium\n
524.761	0.06	1049522	keystroke	g	n/a
524.911	0.075	1049822	keystroke	l	n/a
525.016	0.105	1050032	keystroke	a	n/a
525.271	0.015	1050542	keystroke	s	n/a
525.361	0.06	1050722	keystroke	s	n/a
525.466	0.075	1050932	keystroke	e	n/a
525.646	0.075	1051292	keystroke	s	n/a
525.826	0.105	1051652	keystroke	Key.space	n/a
526.591	0.09	1053182	keystroke	p	n/a
526.726	0.105	1053452	keystroke	a	n/a
526.936	0.06	1053872	keystroke	t	n/a
527.011	0.075	1054022	keystroke	h	n/a
527.371	0.075	1054742	keystroke	o	n/a
527.596	0.075	1055192	keystroke	l	n/a
527.776	0.06	1055552	keystroke	o	n/a
527.866	0.075	1055732	keystroke	g	n/a
528.001	0.06	1056002	keystroke	y	n/a
528.406	0.105	1056812	keystroke	Key.space	n/a
528.646	0.105	1057292	keystroke	c	n/a
528.781	0.12	1057562	keystroke	a	n/a
529.141	0.06	1058282	keystroke	m	n/a
529.591	0.075	1059182	keystroke	c	n/a
529.711	0.06	1059422	keystroke	o	n/a
529.966	0.075	1059932	keystroke	r	n/a
531.796	0.09	1063592	keystroke	d	n/a
532.486	0.09	1064972	keystroke	e	n/a
532.561	0.0905	1065122	keystroke	r	n/a
533.3705	0.12	1066741	keystroke	Key.space	n/a
533.6715	0.09	1067343	keystroke	c	n/a
533.7765	0.09	1067553	keystroke	a	n/a
533.9265	0.089	1067853	keystroke	l	n/a
534.165	0.091	1068330	keystroke	c	n/a
534.2865	0.045	1068573	keystroke	i	n/a
534.481	0.06	1068962	keystroke	u	n/a
534.676	0.06	1069352	keystroke	m	n/a
535.306	0.105	1070612	keystroke	Key.enter	n/a
535.418	9.115	1070836	prompt	n/a	instances algorithm requires recently\n
536.086	0.06	1072172	keystroke	i	n/a
536.206	0.075	1072412	keystroke	n	n/a
536.431	0.09	1072862	keystroke	s	n/a
536.626	0.075	1073252	keystroke	t	n/a
536.761	0.105	1073522	keystroke	a	n/a
536.881	0.06	1073762	keystroke	n	n/a
536.986	0.105	1073972	keystroke	c	n/a
537.151	0.075	1074302	keystroke	e	n/a
537.331	0.075	1074662	keystroke	s	n/a
537.511	0.09	1075022	keystroke	Key.space	n/a
537.751	0.105	1075502	keystroke	a	n/a
537.976	0.075	1075952	keystroke	l	n/a
539.656	0.105	1079312	keystroke	g	n/a
539.791	0.045	1079582	keystroke	o	n/a
540.046	0.09	1080092	keystroke	r	n/a
540.166	0.075	1080332	keystroke	i	n/a
540.376	0.075	1080752	keystroke	t	n/a
540.496	0.06	1080992	keystroke	h	n/a
540.751	0.06	1081502	keystroke	m	n/a
541.216	0.12	1082432	keystroke	Key.space	n/a
541.486	0.105	1082972	keystroke	r	n/a
541.576	0.09	1083152	keystroke	e	n/a
541.741	0.105	1083482	keystroke	q	n/a
541.891	0.075	1083782	keystroke	u	n/a
542.116	0.06	1084232	keystroke	i	n/a
542.191	0.135	1084382	keystroke	r	n/a
542.296	0.075	1084592	keystroke	e	n/a
542.446	0.105	1084892	keystroke	s	n/a
542.716	0.105	1085432	keystroke	Key.space	n/a
542.956	0.105	1085912	keystroke	r	n/a
543.046	0.075	1086092	keystroke	e	n/a
543.286	0.135	1086572	keystroke	c	n/a
543.406	0.09	1086812	keystroke	e	n/a
543.541	0.075	1087082	keystroke	n	n/a
543.646	0.06	1087292	keystroke	t	n/a
543.766	0.09	1087532	keystroke	l	n/a
543.901	0.06	1087802	keystroke	y	n/a
544.441	0.09	1088882	keystroke	Key.enter	n/a
544.539	10.8845	1089078	prompt	n/a	extraordinary doctors beef indexes\n
545.101	0.075	1090202	keystroke	e	n/a
545.341	0.075	1090682	keystroke	x	n/a
545.5955	0.0305	1091191	keystroke	t	n/a
545.7905	0.06	1091581	keystroke	r	n/a
545.8955	0.105	1091791	keystroke	a	n/a
546.3905	0.06	1092781	keystroke	o	n/a
546.4805	0.0605	1092961	keystroke	r	n/a
546.6605	0.0755	1093321	keystroke	d	n/a
546.7505	0.06	1093501	keystroke	i	n/a
546.9005	0.075	1093801	keystroke	n	n/a
546.9605	0.135	1093921	keystroke	a	n/a
547.066	0.0595	1094132	keystroke	r	n/a
547.1405	0.075	1094281	keystroke	y	n/a
547.5005	0.09	1095001	keystroke	Key.space	n/a
547.8755	0.075	1095751	keystroke	d	n/a
548.1605	0.06	1096321	keystroke	o	n/a
548.2355	0.045	1096471	keystroke	c	n/a
548.4305	0.075	1096861	keystroke	t	n/a
548.5955	0.06	1097191	keystroke	o	n/a
548.6705	0.045	1097341	keystroke	r	n/a
549.1205	0.06	1098241	keystroke	s	n/a
549.3305	0.075	1098661	keystroke	Key.space	n/a
549.5715	0.044	1099143	keystroke	b	n/a
549.6305	0.06	1099261	keystroke	e	n/a
549.7955	0.06	1099591	keystroke	f	n/a
549.9305	0.075	1099861	keystroke	f	n/a
550.9955	0.045	1101991	keystroke	=	n/a
551.1755	0.045	1102351	keystroke	Key.backspace	n/a
552.0305	0.075	1104061	keystroke	Key.backspace	n/a
552.3455	0.06	1104691	keystroke	Key.backspace	n/a
552.6905	0.06	1105381	keystroke	e	n/a
552.8105	0.09	1105621	keystroke	f	n/a
553.3955	0.12	1106791	keystroke	Key.space	n/a
553.6505	0.075	1107301	keystroke	i	n/a
553.7855	0.06	1107571	keystroke	n	n/a
553.9355	0.075	1107871	keystroke	d	n/a
554.1455	0.06	1108291	keystroke	e	n/a
554.4005	0.06	1108801	keystroke	x	n/a
554.6255	0.06	1109251	keystroke	e	n/a
554.7755	0.075	1109551	keystroke	s	n/a
555.3305	0.09	1110661	keystroke	Key.enter	n/a
555.428	8.83	1110856	prompt	n/a	continuous effects percentage vaccine\n
556.0655	0.09	1112131	keystroke	c	n/a
556.3505	0.045	1112701	keystroke	o	n/a
556.5755	0.075	1113151	keystroke	n	n/a
556.7405	0.075	1113481	keystroke	t	n/a
556.8305	0.06	1113661	keystroke	i	n/a
557.0555	0.075	1114111	keystroke	n	n/a
557.4155	0.075	1114831	keystroke	u	n/a
557.6555	0.06	1115311	keystroke	o	n/a
557.7305	0.09	1115461	keystroke	u	n/a
557.8215	0.104	1115643	keystroke	s	n/a
558.4505	0.12	1116901	keystroke	Key.space	n/a
558.6605	0.075	1117321	keystroke	e	n/a
558.8405	0.075	1117681	keystroke	f	n/a
558.9905	0.06	1117981	keystroke	f	n/a
559.2455	0.06	1118491	keystroke	e	n/a
559.4405	0.075	1118881	keystroke	c	n/a
559.6505	0.045	1119301	keystroke	t	n/a
559.8155	0.06	1119631	keystroke	s	n/a
560.1455	0.105	1120291	keystroke	Key.space	n/a
560.4005	0.12	1120801	keystroke	p	n/a
560.4755	0.12	1120951	keystroke	e	n/a
560.5805	0.105	1121161	keystroke	r	n/a
560.8805	0.15	1121761	keystroke	c	n/a
561.0005	0.12	1122001	keystroke	e	n/a
561.1655	0.06	1122331	keystroke	n	n/a
561.3455	0.075	1122691	keystroke	t	n/a
561.5555	0.15	1123111	keystroke	a	n/a
561.7955	0.06	1123591	keystroke	g	n/a
561.9005	0.12	1123801	keystroke	e	n/a
562.5005	0.105	1125001	keystroke	Key.space	n/a
562.7255	0.075	1125451	keystroke	v	n/a
562.8455	0.12	1125691	keystroke	a	n/a
563.0405	0.09	1126081	keystroke	c	n/a
563.2205	0.06	1126441	keystroke	c	n/a
563.4005	0.075	1126801	keystroke	i	n/a
563.5355	0.105	1127071	keystroke	n	n/a
563.6255	0.06	1127251	keystroke	e	n/a
564.1505	0.105	1128301	keystroke	Key.enter	n/a
564.2645	7.163	1128529	prompt	n/a	contamination yoga newton arise\n
564.8705	0.06	1129741	keystroke	c	n/a
565.0505	0.075	1130101	keystroke	o	n/a
565.1705	0.105	1130341	keystroke	n	n/a
565.3055	0.075	1130611	keystroke	t	n/a
565.4705	0.105	1130941	keystroke	a	n/a
565.5905	0.061	1131181	keystroke	m	n/a
565.7705	0.06	1131541	keystroke	i	n/a
565.9055	0.075	1131811	keystroke	n	n/a
566.0255	0.15	1132051	keystroke	a	n/a
566.1905	0.075	1132381	keystroke	t	n/a
566.2805	0.06	1132561	keystroke	i	n/a
566.3555	0.09	1132711	keystroke	o	n/a
566.4155	0.12	1132831	keystroke	n	n/a
566.5955	0.15	1133191	keystroke	Key.space	n/a
567.0005	0.075	1134001	keystroke	y	n/a
567.4505	0.076	1134901	keystroke	o	n/a
567.6155	0.075	1135231	keystroke	g	n/a
567.7205	0.12	1135441	keystroke	a	n/a
568.2455	0.12	1136491	keystroke	Key.space	n/a
568.7405	0.075	1137481	keystroke	n	n/a
568.9955	0.106	1137991	keystroke	e	n/a
569.1455	0.09	1138291	keystroke	w	n/a
569.3555	0.06	1138711	keystroke	t	n/a
569.4605	0.075	1138921	keystroke	o	n/a
569.5655	0.075	1139131	keystroke	n	n/a
569.9255	0.105	1139851	keystroke	Key.space	n/a
570.2555	0.12	1140511	keystroke	a	n/a
570.3305	0.091	1140661	keystroke	r	n/a
570.5405	0.06	1141081	keystroke	i	n/a
570.6455	0.09	1141291	keystroke	s	n/a
570.7205	0.075	1141441	keystroke	e	n/a
571.3205	0.105	1142641	keystroke	Key.enter	n/a
571.433	10.66	1142866	prompt	n/a	wilderness locking cabinets baker\n
572.1005	0.06	1144201	keystroke	w	n/a
572.5805	0.06	1145161	keystroke	i	n/a
573.0605	0.075	1146121	keystroke	l	n/a
573.2105	0.075	1146421	keystroke	d	n/a
573.3905	0.12	1146781	keystroke	e	n/a
573.4805	0.09	1146961	keystroke	r	n/a
573.9905	0.06	1147981	keystroke	n	n/a
574.0955	0.06	1148191	keystroke	e	n/a
574.2755	0.06	1148551	keystroke	s	n/a
574.4405	0.06	1148881	keystroke	s	n/a
574.5755	0.105	1149151	keystroke	Key.space	n/a
574.8605	0.06	1149721	keystroke	l	n/a
575.0255	0.06	1150051	keystroke	o	n/a
575.1455	0.09	1150291	keystroke	c	n/a
575.3255	0.075	1150651	keystroke	k	n/a
575.5355	0.06	1151071	keystroke	i	n/a
575.6255	0.075	1151251	keystroke	n	n/a
575.8505	0.075	1151701	keystroke	Key.space	n/a
576.8705	0.09	1153741	keystroke	Key.backspace	n/a
576.9905	0.045	1153981	keystroke	g	n/a
577.4405	0.12	1154881	keystroke	Key.space	n/a
577.6355	0.12	1155271	keystroke	c	n/a
577.7405	0.09	1155481	keystroke	a	n/a
578.0255	0.075	1156051	keystroke	b	n/a
578.1455	0.09	1156291	keystroke	i	n/a
578.3255	0.06	1156651	keystroke	n	n/a
578.4005	0.12	1156801	keystroke	e	n/a
578.5355	0.06	1157071	keystroke	t	n/a
578.7005	0.075	1157401	keystroke	s	n/a
578.9255	0.075	1157851	keystroke	Key.space	n/a
579.1805	0.06	1158361	keystroke	b	n/a
579.3005	0.09	1158601	keystroke	a	n/a
579.4205	0.075	1158841	keystroke	k	n/a
579.5255	0.105	1159051	keystroke	e	n/a
579.6005	0.075	1159201	keystroke	r	n/a
582.0635	0.027	1164127	keystroke	Key.enter	n/a
582.098	9.309	1164196	prompt	n/a	journalist compared become surfaces\n
583.5305	0.075	1167061	keystroke	j	n/a
583.6805	0.075	1167361	keystroke	o	n/a
583.7855	0.09	1167571	keystroke	u	n/a
583.8305	0.09	1167661	keystroke	r	n/a
584.0105	0.06	1168021	keystroke	n	n/a
584.1155	0.09	1168231	keystroke	a	n/a
584.2505	0.075	1168501	keystroke	l	n/a
584.4605	0.045	1168921	keystroke	i	n/a
584.5505	0.135	1169101	keystroke	s	n/a
584.6555	0.075	1169311	keystroke	t	n/a
585.1955	0.12	1170391	keystroke	Key.space	n/a
585.4655	0.075	1170931	keystroke	c	n/a
585.5555	0.075	1171111	keystroke	o	n/a
585.7655	0.12	1171531	keystroke	m	n/a
585.9605	0.09	1171921	keystroke	p	n/a
586.0805	0.135	1172161	keystroke	a	n/a
586.2305	0.09	1172461	keystroke	r	n/a
586.3055	0.09	1172611	keystroke	e	n/a
586.5005	0.06	1173001	keystroke	d	n/a
587.2955	0.105	1174591	keystroke	Key.space	n/a
587.5355	0.06	1175071	keystroke	b	n/a
587.6105	0.09	1175221	keystroke	e	n/a
587.8655	0.09	1175731	keystroke	c	n/a
588.0005	0.075	1176001	keystroke	o	n/a
588.2405	0.075	1176481	keystroke	m	n/a
588.3305	0.06	1176661	keystroke	e	n/a
588.5855	0.09	1177171	keystroke	Key.space	n/a
588.8105	0.09	1177621	keystroke	s	n/a
588.9305	0.045	1177861	keystroke	u	n/a
589.1255	0.015	1178251	keystroke	r	n/a
589.2605	0.105	1178521	keystroke	f	n/a
589.4105	0.165	1178821	keystroke	a	n/a
589.5905	0.09	1179181	keystroke	c	n/a
589.8	0.061	1179600	keystroke	e	n/a
589.98	0.091	1179960	keystroke	s	n/a
591.3	0.105	1182600	keystroke	Key.enter	n/a
591.413	7.12	1182826	prompt	n/a	heads intervals blacks mardi\n
592.366	0.06	1184732	keystroke	i	n/a
592.861	0.045	1185722	keystroke	Key.backspace	n/a
593.131	0.06	1186262	keystroke	h	n/a
593.326	0.075	1186652	keystroke	e	n/a
593.506	0.12	1187012	keystroke	a	n/a
593.581	0.09	1187162	keystroke	d	n/a
593.851	0.075	1187702	keystroke	s	n/a
594.1055	0.09	1188211	keystroke	Key.space	n/a
594.4515	0.089	1188903	keystroke	i	n/a
594.6005	0.06	1189201	keystroke	n	n/a
594.6755	0.06	1189351	keystroke	t	n/a
594.7805	0.15	1189561	keystroke	e	n/a
594.8855	0.105	1189771	keystroke	r	n/a
595.1405	0.06	1190281	keystroke	v	n/a
595.2755	0.105	1190551	keystroke	a	n/a
595.4255	0.075	1190851	keystroke	l	n/a
595.5605	0.075	1191121	keystroke	s	n/a
595.7855	0.09	1191571	keystroke	Key.space	n/a
595.9805	0.06	1191961	keystroke	b	n/a
596.4015	0.074	1192803	keystroke	l	n/a
596.5205	0.15	1193041	keystroke	a	n/a
596.6405	0.075	1193281	keystroke	c	n/a
596.7305	0.075	1193461	keystroke	k	n/a
596.8655	0.09	1193731	keystroke	s	n/a
597.1055	0.09	1194211	keystroke	Key.space	n/a
597.3755	0.09	1194751	keystroke	m	n/a
597.4805	0.12	1194961	keystroke	a	n/a
597.5715	0.059	1195143	keystroke	r	n/a
597.7355	0.075	1195471	keystroke	d	n/a
597.8255	0.075	1195651	keystroke	i	n/a
598.4255	0.105	1196851	keystroke	Key.enter	n/a
598.539	9.0385	1197078	prompt	n/a	elect grenada you've serves\n
599.1455	0.09	1198291	keystroke	e	n/a
599.4605	0.075	1198921	keystroke	l	n/a
599.7905	0.075	1199581	keystroke	e	n/a
600.0155	0.09	1200031	keystroke	c	n/a
600.2555	0.09	1200511	keystroke	t	n/a
600.5105	0.09	1201021	keystroke	Key.space	n/a
600.9155	0.06	1201831	keystroke	g	n/a
601.1105	0.105	1202221	keystroke	r	n/a
601.2005	0.105	1202401	keystroke	e	n/a
601.5905	0.045	1203181	keystroke	n	n/a
601.6955	0.105	1203391	keystroke	a	n/a
601.8305	0.09	1203661	keystroke	d	n/a
601.9355	0.09	1203871	keystroke	a	n/a
602.2955	0.12	1204591	keystroke	Key.space	n/a
602.7455	0.06	1205491	keystroke	y	n/a
602.9855	0.105	1205971	keystroke	o	n/a
603.0755	0.09	1206151	keystroke	u	n/a
603.3455	0.12	1206691	keystroke	'	n/a
603.4505	0.09	1206901	keystroke	v	n/a
603.5555	0.075	1207111	keystroke	e	n/a
603.7205	0.075	1207441	keystroke	Key.space	n/a
604.0355	0.15	1208071	keystroke	s	n/a
604.1555	0.135	1208311	keystroke	e	n/a
604.2755	0.06	1208551	keystroke	r	n/a
604.4855	0.09	1208971	keystroke	v	n/a
604.6355	0.075	1209271	keystroke	i	n/a
604.8305	0.06	1209661	keystroke	e	n/a
605.7155	0.075	1211431	keystroke	Key.backspace	n/a
605.8805	0.105	1211761	keystroke	Key.backspace	n/a
606.5105	0.075	1213021	keystroke	e	n/a
606.7655	0.09	1213531	keystroke	s	n/a
607.4855	0.09	1214971	keystroke	Key.enter	n/a
607.5815	7.721	1215163	prompt	n/a	douglas simpsons dietary espn\n
608.1905	0.105	1216381	keystroke	d	n/a
608.4155	0.06	1216831	keystroke	o	n/a
608.5805	0.06	1217161	keystroke	u	n/a
608.7155	0.03	1217431	keystroke	g	n/a
608.8355	0.075	1217671	keystroke	l	n/a
608.9255	0.09	1217851	keystroke	a	n/a
608.9855	0.12	1217971	keystroke	s	n/a
609.3005	0.12	1218601	keystroke	Key.space	n/a
609.5705	0.09	1219141	keystroke	s	n/a
609.6605	0.06	1219321	keystroke	i	n/a
609.8705	0.09	1219741	keystroke	m	n/a
610.0655	0.12	1220131	keystroke	p	n/a
611.9405	0.09	1223881	keystroke	s	n/a
612.0455	0.075	1224091	keystroke	o	n/a
612.1355	0.09	1224271	keystroke	n	n/a
612.2555	0.075	1224511	keystroke	s	n/a
612.5705	0.09	1225141	keystroke	Key.space	n/a
612.8555	0.075	1225711	keystroke	d	n/a
613.1555	0.06	1226311	keystroke	i	n/a
613.2605	0.075	1226521	keystroke	e	n/a
613.5155	0.075	1227031	keystroke	t	n/a
613.6955	0.105	1227391	keystroke	a	n/a
613.7705	0.075	1227541	keystroke	r	n/a
613.8755	0.075	1227751	keystroke	y	n/a
614.0105	0.12	1228021	keystroke	Key.space	n/a
614.2055	0.075	1228411	keystroke	e	n/a
614.3855	0.09	1228771	keystroke	s	n/a
614.5055	0.12	1229011	keystroke	p	n/a
614.7005	0.075	1229401	keystroke	n	n/a
615.2255	0.075	1230451	keystroke	Key.enter	n/a
615.31	12.083	1230620	prompt	n/a	resource jessica filme slideshow\n
615.9155	0.105	1231831	keystroke	r	n/a
616.0055	0.09	1232011	keystroke	e	n/a
616.2755	0.075	1232551	keystroke	s	n/a
616.3655	0.075	1232731	keystroke	o	n/a
616.4855	0.06	1232971	keystroke	u	n/a
616.5605	0.045	1233121	keystroke	r	n/a
616.7555	0.12	1233511	keystroke	c	n/a
616.8605	0.09	1233721	keystroke	e	n/a
617.1005	0.09	1234201	keystroke	Key.space	n/a
617.6405	0.06	1235281	keystroke	j	n/a
617.7605	0.075	1235521	keystroke	e	n/a
617.9705	0.0755	1235941	keystroke	s	n/a
618.151	0.09	1236302	keystroke	s	n/a
618.361	0.0745	1236722	keystroke	i	n/a
618.601	0.09	1237202	keystroke	c	n/a
618.692	0.088	1237384	keystroke	a	n/a
620.5655	0.12	1241131	keystroke	Key.space	n/a
621.0455	0.075	1242091	keystroke	i	n/a
622.1405	0.06	1244281	keystroke	Key.backspace	n/a
622.7865	0.119	1245573	keystroke	f	n/a
622.9205	0.045	1245841	keystroke	i	n/a
623.1155	0.075	1246231	keystroke	l	n/a
623.3405	0.06	1246681	keystroke	m	n/a
623.7005	0.06	1247401	keystroke	e	n/a
624.1955	0.105	1248391	keystroke	Key.space	n/a
624.5855	0.105	1249171	keystroke	s	n/a
625.0805	0.075	1250161	keystroke	l	n/a
625.3205	0.06	1250641	keystroke	i	n/a
625.4415	0.06	1250883	keystroke	d	n/a
625.6355	0.06	1251271	keystroke	e	n/a
626.2655	0.105	1252531	keystroke	s	n/a
626.3555	0.09	1252711	keystroke	h	n/a
626.4905	0.06	1252981	keystroke	o	n/a
626.5665	0.059	1253133	keystroke	w	n/a
627.3005	0.09	1254601	keystroke	Key.enter	n/a
627.3985	9.85	1254797	prompt	n/a	expenditure cookies walker precise\n
628.1105	0.075	1256221	keystroke	e	n/a
628.321	0.045	1256642	keystroke	x	n/a
628.5155	0.09	1257031	keystroke	p	n/a
628.6355	0.075	1257271	keystroke	e	n/a
628.8005	0.06	1257601	keystroke	n	n/a
628.9505	0.03	1257901	keystroke	w	n/a
629.8055	0.09	1259611	keystroke	Key.backspace	n/a
631.8155	0.09	1263631	keystroke	d	n/a
631.9955	0.075	1263991	keystroke	i	n/a
632.1755	0.06	1264351	keystroke	t	n/a
632.2955	0.075	1264591	keystroke	u	n/a
632.3555	0.105	1264711	keystroke	r	n/a
632.4305	0.09	1264861	keystroke	e	n/a
632.7005	0.09	1265401	keystroke	Key.space	n/a
633.3305	0.09	1266661	keystroke	c	n/a
633.5105	0.06	1267021	keystroke	o	n/a
633.6605	0.075	1267321	keystroke	o	n/a
633.8865	0.089	1267773	keystroke	k	n/a
634.0955	0.045	1268191	keystroke	i	n/a
634.1555	0.06	1268311	keystroke	e	n/a
634.3355	0.09	1268671	keystroke	s	n/a
634.4855	0.105	1268971	keystroke	Key.space	n/a
634.6355	0.061	1269271	keystroke	w	n/a
634.8005	0.091	1269601	keystroke	a	n/a
634.9055	0.075	1269811	keystroke	l	n/a
635.1005	0.06	1270201	keystroke	k	n/a
635.1615	0.12	1270323	keystroke	e	n/a
635.2655	0.075	1270531	keystroke	r	n/a
635.4455	0.09	1270891	keystroke	Key.space	n/a
635.7165	0.105	1271433	keystroke	p	n/a
635.7905	0.12	1271581	keystroke	r	n/a
635.8955	0.075	1271791	keystroke	e	n/a
636.1205	0.076	1272241	keystroke	c	n/a
636.2415	0.075	1272483	keystroke	i	n/a
636.3915	0.105	1272783	keystroke	s	n/a
636.4805	0.075	1272961	keystroke	e	n/a
637.1705	0.075	1274341	keystroke	Key.enter	n/a
637.2545	7.508	1274509	prompt	n/a	peace hydrogen lodging pools\n
637.9965	0.089	1275993	keystroke	p	n/a
638.1455	0.075	1276291	keystroke	e	n/a
638.3255	0.151	1276651	keystroke	a	n/a
638.4455	0.135	1276891	keystroke	c	n/a
638.5505	0.075	1277101	keystroke	e	n/a
638.8055	0.09	1277611	keystroke	Key.space	n/a
639.1965	0.045	1278393	keystroke	h	n/a
639.4365	0.06	1278873	keystroke	y	n/a
640.1855	0.0755	1280371	keystroke	d	n/a
640.3965	0.0445	1280793	keystroke	r	n/a
640.53	0.061	1281060	keystroke	o	n/a
640.65	0.0755	1281300	keystroke	g	n/a
640.831	0.0605	1281662	keystroke	e	n/a
640.9505	0.0745	1281901	keystroke	n	n/a
641.4005	0.1195	1282801	keystroke	Key.space	n/a
641.88	0.075	1283760	keystroke	l	n/a
642.061	0.06	1284122	keystroke	o	n/a
642.1355	0.0755	1284271	keystroke	d	n/a
642.3	0.075	1284600	keystroke	g	n/a
642.48	0.075	1284960	keystroke	i	n/a
642.705	0.061	1285410	keystroke	n	n/a
642.78	0.0765	1285560	keystroke	g	n/a
643.065	0.09	1286130	keystroke	Key.space	n/a
643.381	0.09	1286762	keystroke	p	n/a
643.636	0.044	1287272	keystroke	o	n/a
643.7555	0.0605	1287511	keystroke	o	n/a
643.966	0.075	1287932	keystroke	l	n/a
644.146	0.06	1288292	keystroke	s	n/a
644.715	0.0455	1289430	keystroke	Key.enter	n/a
644.7675	6.656	1289535	prompt	n/a	sections kits logan appear\n
645.391	0.074	1290782	keystroke	s	n/a
645.511	0.105	1291022	keystroke	e	n/a
645.721	0.075	1291442	keystroke	c	n/a
645.945	0.045	1291890	keystroke	t	n/a
646.096	0.089	1292192	keystroke	i	n/a
646.305	0.09	1292610	keystroke	o	n/a
646.41	0.091	1292820	keystroke	n	n/a
646.531	0.075	1293062	keystroke	s	n/a
647.025	0.09	1294050	keystroke	Key.space	n/a
647.311	0.075	1294622	keystroke	k	n/a
647.506	0.06	1295012	keystroke	i	n/a
647.596	0.075	1295192	keystroke	t	n/a
647.82	0.076	1295640	keystroke	s	n/a
648.135	0.105	1296270	keystroke	Key.space	n/a
648.555	0.046	1297110	keystroke	l	n/a
648.691	0.045	1297382	keystroke	o	n/a
648.781	0.09	1297562	keystroke	g	n/a
648.931	0.105	1297862	keystroke	a	n/a
649.036	0.059	1298072	keystroke	n	n/a
649.245	0.105	1298490	keystroke	Key.space	n/a
649.41	0.091	1298820	keystroke	a	n/a
649.531	0.075	1299062	keystroke	p	n/a
649.771	0.015	1299542	keystroke	p	n/a
649.891	0.09	1299782	keystroke	e	n/a
650.026	0.075	1300052	keystroke	a	n/a
650.086	0.074	1300172	keystroke	r	n/a
651.345	0.076	1302690	keystroke	Key.enter	n/a
651.429	7.6885	1302858	prompt	n/a	weighted brought brothers lived\n
652.095	0.076	1304190	keystroke	w	n/a
652.231	0.074	1304462	keystroke	e	n/a
652.366	0.074	1304732	keystroke	i	n/a
652.471	0.06	1304942	keystroke	g	n/a
652.561	0.059	1305122	keystroke	h	n/a
652.651	0.045	1305302	keystroke	t	n/a
652.831	0.06	1305662	keystroke	e	n/a
652.981	0.074	1305962	keystroke	d	n/a
653.311	0.105	1306622	keystroke	Key.space	n/a
653.716	0.045	1307432	keystroke	b	n/a
653.911	0.06	1307822	keystroke	r	n/a
654.106	0.06	1308212	keystroke	o	n/a
654.241	0.06	1308482	keystroke	u	n/a
654.346	0.045	1308692	keystroke	g	n/a
654.466	0.045	1308932	keystroke	h	n/a
655.276	0.045	1310552	keystroke	t	n/a
655.546	0.089	1311092	keystroke	Key.space	n/a
656.296	0.06	1312592	keystroke	b	n/a
656.386	0.075	1312772	keystroke	r	n/a
656.536	0.045	1313072	keystroke	o	n/a
656.626	0.06	1313252	keystroke	t	n/a
656.701	0.06	1313402	keystroke	h	n/a
656.776	0.105	1313552	keystroke	e	n/a
656.851	0.09	1313702	keystroke	r	n/a
657.031	0.075	1314062	keystroke	s	n/a
657.601	0.089	1315202	keystroke	Key.space	n/a
657.855	0.046	1315710	keystroke	l	n/a
658.006	0.06	1316012	keystroke	i	n/a
658.081	0.075	1316162	keystroke	v	n/a
658.231	0.075	1316462	keystroke	e	n/a
658.381	0.075	1316762	keystroke	d	n/a
659.011	0.104	1318022	keystroke	Key.enter	n/a
659.1215	9.0565	1318243	prompt	n/a	temperature hole legislative mars\n
659.836	0.06	1319672	keystroke	t	n/a
660.076	0.075	1320152	keystroke	e	n/a
660.195	0.091	1320390	keystroke	m	n/a
660.421	0.105	1320842	keystroke	p	n/a
660.556	0.105	1321112	keystroke	e	n/a
660.646	0.105	1321292	keystroke	r	n/a
660.811	0.135	1321622	keystroke	a	n/a
660.931	0.045	1321862	keystroke	t	n/a
661.021	0.06	1322042	keystroke	u	n/a
661.095	0.091	1322190	keystroke	r	n/a
661.171	0.09	1322342	keystroke	e	n/a
661.396	0.074	1322792	keystroke	Key.space	n/a
661.696	0.075	1323392	keystroke	h	n/a
661.816	0.075	1323632	keystroke	o	n/a
662.026	0.075	1324052	keystroke	l	n/a
662.101	0.06	1324202	keystroke	e	n/a
662.296	0.09	1324592	keystroke	Key.space	n/a
662.611	0.075	1325222	keystroke	l	n/a
663.196	0.075	1326392	keystroke	e	n/a
663.421	0.075	1326842	keystroke	g	n/a
663.526	0.075	1327052	keystroke	i	n/a
663.646	0.09	1327292	keystroke	s	n/a
664.936	0.06	1329872	keystroke	l	n/a
665.041	0.105	1330082	keystroke	a	n/a
665.221	0.06	1330442	keystroke	t	n/a
665.686	0.045	1331372	keystroke	i	n/a
665.776	0.09	1331552	keystroke	v	n/a
665.926	0.09	1331852	keystroke	e	n/a
666.226	0.09	1332452	keystroke	Key.space	n/a
666.766	0.06	1333532	keystroke	m	n/a
667.246	0.09	1334492	keystroke	a	n/a
667.291	0.075	1334582	keystroke	r	n/a
667.486	0.075	1334972	keystroke	s	n/a
668.086	0.09	1336172	keystroke	Key.enter	n/a
668.184	10.644	1336368	prompt	n/a	founder failures bracelet lost\n
669.181	0.075	1338362	keystroke	f	n/a
669.272	0.089	1338544	keystroke	o	n/a
669.391	0.09	1338782	keystroke	u	n/a
669.616	0.06	1339232	keystroke	n	n/a
669.736	0.075	1339472	keystroke	d	n/a
669.931	0.105	1339862	keystroke	e	n/a
670.021	0.075	1340042	keystroke	r	n/a
670.261	0.12	1340522	keystroke	Key.space	n/a
670.456	0.09	1340912	keystroke	f	n/a
670.756	0.075	1341512	keystroke	a	n/a
670.861	0.06	1341722	keystroke	i	n/a
671.086	0.06	1342172	keystroke	l	n/a
671.461	0.045	1342922	keystroke	u	n/a
671.596	0.165	1343192	keystroke	r	n/a
671.701	0.09	1343402	keystroke	e	n/a
671.896	0.06	1343792	keystroke	s	n/a
672.031	0.105	1344062	keystroke	Key.space	n/a
672.571	0.045	1345142	keystroke	b	n/a
672.631	0.075	1345262	keystroke	r	n/a
672.796	0.165	1345592	keystroke	a	n/a
673.816	0.06	1347632	keystroke	c	n/a
673.951	0.09	1347902	keystroke	e	n/a
675.406	0.06	1350812	keystroke	l	n/a
675.511	0.105	1351022	keystroke	e	n/a
675.601	0.09	1351202	keystroke	t	n/a
675.826	0.06	1351652	keystroke	s	n/a
677.026	0.09	1354052	keystroke	Key.backspace	n/a
677.296	0.105	1354592	keystroke	Key.space	n/a
677.716	0.045	1355432	keystroke	l	n/a
677.881	0.06	1355762	keystroke	o	n/a
678.061	0.15	1356122	keystroke	s	n/a
678.196	0.0895	1356392	keystroke	t	n/a
678.7505	0.075	1357501	keystroke	Key.enter	n/a
678.834	5.889	1357668	prompt	n/a	theme training truck hunger\n
679.3955	0.075	1358791	keystroke	t	n/a
679.5455	0.06	1359091	keystroke	h	n/a
679.6955	0.06	1359391	keystroke	e	n/a
679.8755	0.06	1359751	keystroke	m	n/a
679.9505	0.0605	1359901	keystroke	e	n/a
680.265	0.09	1360530	keystroke	Key.space	n/a
680.61	0.06	1361220	keystroke	t	n/a
680.76	0.075	1361520	keystroke	r	n/a
680.94	0.075	1361880	keystroke	a	n/a
681.075	0.075	1362150	keystroke	i	n/a
681.18	0.09	1362360	keystroke	n	n/a
681.406	0.044	1362812	keystroke	i	n/a
681.465	0.09	1362930	keystroke	n	n/a
681.525	0.075	1363050	keystroke	g	n/a
681.93	0.105	1363860	keystroke	Key.space	n/a
682.17	0.045	1364340	keystroke	t	n/a
682.32	0.06	1364640	keystroke	r	n/a
682.485	0.076	1364970	keystroke	u	n/a
682.59	0.075	1365180	keystroke	c	n/a
682.741	0.074	1365482	keystroke	k	n/a
682.92	0.105	1365840	keystroke	Key.space	n/a
683.19	0.045	1366380	keystroke	h	n/a
683.355	0.045	1366710	keystroke	u	n/a
683.685	0.075	1367370	keystroke	n	n/a
683.775	0.075	1367550	keystroke	g	n/a
683.956	0.0895	1367912	keystroke	e	n/a
683.9705	0.016	1367941	keystroke	r	n/a
684.0305	0.09	1368061	keystroke	r	n/a
684.6155	0.105	1369231	keystroke	Key.enter	n/a
684.7285	9.909	1369457	prompt	n/a	irrigation barrier stability refurbished\n
685.4115	0.0435	1370823	keystroke	i	n/a
685.56	0.03	1371120	keystroke	r	n/a
685.696	0.074	1371392	keystroke	r	n/a
685.86	0.061	1371720	keystroke	i	n/a
685.935	0.0905	1371870	keystroke	g	n/a
686.1005	0.18	1372201	keystroke	a	n/a
686.2665	0.059	1372533	keystroke	t	n/a
686.3555	0.09	1372711	keystroke	i	n/a
686.4615	0.1185	1372923	keystroke	o	n/a
686.535	0.105	1373070	keystroke	n	n/a
686.805	0.09	1373610	keystroke	Key.space	n/a
687.135	0.06	1374270	keystroke	b	n/a
687.241	0.089	1374482	keystroke	a	n/a
687.36	0.06	1374720	keystroke	r	n/a
687.495	0.075	1374990	keystroke	r	n/a
687.736	0.059	1375472	keystroke	i	n/a
687.84	0.106	1375680	keystroke	e	n/a
687.93	0.076	1375860	keystroke	r	n/a
688.155	0.09	1376310	keystroke	Key.space	n/a
688.441	0.075	1376882	keystroke	s	n/a
688.576	0.09	1377152	keystroke	t	n/a
688.725	0.091	1377450	keystroke	a	n/a
688.875	0.061	1377750	keystroke	b	n/a
689.01	0.076	1378020	keystroke	i	n/a
689.22	0.121	1378440	keystroke	l	n/a
689.326	0.119	1378652	keystroke	i	n/a
689.475	0.046	1378950	keystroke	t	n/a
689.565	0.06	1379130	keystroke	y	n/a
689.91	0.09	1379820	keystroke	Key.space	n/a
690.465	0.105	1380930	keystroke	r	n/a
690.541	0.119	1381082	keystroke	e	n/a
691.335	0.09	1382670	keystroke	f	n/a
691.711	0.045	1383422	keystroke	u	n/a
691.845	0.075	1383690	keystroke	r	n/a
692.88	0.075	1385760	keystroke	b	n/a
693.046	0.059	1386092	keystroke	i	n/a
693.15	0.09	1386300	keystroke	s	n/a
693.255	0.06	1386510	keystroke	h	n/a
693.361	0.074	1386722	keystroke	e	n/a
693.871	0.044	1387742	keystroke	d	n/a
694.53	0.105	1389060	keystroke	Key.enter	n/a
694.6415	8.7265	1389283	prompt	n/a	entertaining treo avoiding critics\n
695.341	0.045	1390682	keystroke	e	n/a
695.461	0.075	1390922	keystroke	n	n/a
695.715	0.075	1391430	keystroke	t	n/a
695.85	0.12	1391700	keystroke	e	n/a
695.971	0.044	1391942	keystroke	r	n/a
696.12	0.076	1392240	keystroke	t	n/a
696.27	0.091	1392540	keystroke	a	n/a
696.376	0.104	1392752	keystroke	i	n/a
696.496	0.09	1392992	keystroke	n	n/a
696.87	0.061	1393740	keystroke	i	n/a
696.945	0.075	1393890	keystroke	n	n/a
697.036	0.09	1394072	keystroke	g	n/a
697.23	0.105	1394460	keystroke	Key.space	n/a
697.515	0.06	1395030	keystroke	t	n/a
697.711	0.075	1395422	keystroke	r	n/a
697.906	0.074	1395812	keystroke	e	n/a
698.67	0.076	1397340	keystroke	o	n/a
698.956	0.104	1397912	keystroke	Key.space	n/a
699.241	0.06	1398482	keystroke	a	n/a
699.886	0.075	1399772	keystroke	v	n/a
700.155	0.061	1400310	keystroke	o	n/a
700.396	0.059	1400792	keystroke	i	n/a
700.486	0.105	1400972	keystroke	d	n/a
700.741	0.074	1401482	keystroke	i	n/a
700.845	0.061	1401690	keystroke	n	n/a
700.936	0.06	1401872	keystroke	g	n/a
701.205	0.09	1402410	keystroke	Key.space	n/a
701.7765	0.09	1403553	keystroke	c	n/a
701.9865	0.0745	1403973	keystroke	r	n/a
702.106	0.0605	1404212	keystroke	i	n/a
702.211	0.06	1404422	keystroke	t	n/a
702.406	0.06	1404812	keystroke	i	n/a
702.511	0.075	1405022	keystroke	c	n/a
702.661	0.0905	1405322	keystroke	s	n/a
703.275	0.09	1406550	keystroke	Key.enter	n/a
703.376	5.2865	1406752	prompt	n/a	gras mills visits sake\n
703.95	0.061	1407900	keystroke	g	n/a
704.266	0.074	1408532	keystroke	r	n/a
704.476	0.105	1408952	keystroke	a	n/a
704.55	0.106	1409100	keystroke	s	n/a
704.73	0.12	1409460	keystroke	Key.space	n/a
705.016	0.075	1410032	keystroke	m	n/a
705.271	0.06	1410542	keystroke	i	n/a
705.975	0.016	1411950	keystroke	l	n/a
706.066	0.075	1412132	keystroke	l	n/a
706.171	0.075	1412342	keystroke	s	n/a
706.335	0.091	1412670	keystroke	Key.space	n/a
706.605	0.046	1413210	keystroke	v	n/a
706.786	0.06	1413572	keystroke	i	n/a
706.891	0.09	1413782	keystroke	s	n/a
707.041	0.06	1414082	keystroke	i	n/a
707.116	0.045	1414232	keystroke	t	n/a
707.221	0.09	1414442	keystroke	s	n/a
707.385	0.075	1414770	keystroke	Key.space	n/a
707.595	0.076	1415190	keystroke	s	n/a
707.761	0.105	1415522	keystroke	a	n/a
707.881	0.045	1415762	keystroke	k	n/a
707.971	0.06	1415942	keystroke	e	n/a
708.571	0.09	1417142	keystroke	Key.enter	n/a
708.668	8.154	1417336	prompt	n/a	weights depot fashion interfaces\n
