onset	duration	sample	value	key	prompt_text
1.788	12.9115	3576	prompt	n/a	the quick brown fox jumps over a lazy dog\n
3.147	0.001	6294	keystroke	t	n/a
4.4645	0.09	8929	keystroke	h	n/a
4.57	0.12	9140	keystroke	e	n/a
4.72	0.09	9440	keystroke	Key.space	n/a
4.93	0.105	9860	keystroke	q	n/a
5.29	0.1055	10580	keystroke	u	n/a
5.5755	0.0895	11151	keystroke	i	n/a
5.8005	0.075	11601	keystroke	c	n/a
5.9045	0.0755	11809	keystroke	k	n/a
6.115	0.0605	12230	keystroke	Key.space	n/a
6.2805	0.074	12561	keystroke	b	n/a
6.4	0.0755	12800	keystroke	r	n/a
6.5055	0.09	13011	keystroke	o	n/a
6.7005	0.075	13401	keystroke	w	n/a
6.8205	0.075	13641	keystroke	n	n/a
7	0.075	14000	keystroke	Key.space	n/a
7.121	0.059	14242	keystroke	f	n/a
7.195	0.105	14390	keystroke	o	n/a
7.4305	0.075	14861	keystroke	x	n/a
7.5955	0.0595	15191	keystroke	Key.space	n/a
8.4685	0.06	16937	keystroke	j	n/a
8.5885	0.09	17177	keystroke	u	n/a
8.7985	0.09	17597	keystroke	m	n/a
8.9785	0.0745	17957	keystroke	p	n/a
9.1135	0.0755	18227	keystroke	s	n/a
9.204	0.044	18408	keystroke	Key.space	n/a
9.369	0.1045	18738	keystroke	o	n/a
9.849	0.075	19698	keystroke	v	n/a
9.9835	0.1505	19967	keystroke	e	n/a
10.0885	0.1205	20177	keystroke	r	n/a
10.224	0.0595	20448	keystroke	Key.space	n/a
10.3285	0.0905	20657	keystroke	t	n/a
10.989	0.12	21978	keystroke	Key.backspace	n/a
11.154	0.075	22308	keystroke	a	n/a
11.364	0.06	22728	keystroke	Key.space	n/a
12.129	0.105	24258	keystroke	l	n/a
12.249	0.09	24498	keystroke	a	n/a
12.459	0.1195	24918	keystroke	z	n/a
12.564	0.0905	25128	keystroke	y	n/a
12.7885	0.0755	25577	keystroke	Key.space	n/a
12.939	0.1045	25878	keystroke	d	n/a
13.103	0.121	26206	keystroke	o	n/a
13.269	0.1045	26538	keystroke	f	n/a
14.394	0.06	28788	keystroke	Key.backspace	n/a
14.469	0.12	28938	keystroke	g	n/a
14.604	0.09	29208	keystroke	Key.enter	n/a
14.7045	9.9215	29409	prompt	n/a	either wasn't wanna philadelphia\n
15.6835	0.0905	31367	keystroke	e	n/a
15.819	0.0905	31638	keystroke	i	n/a
15.924	0.1045	31848	keystroke	t	n/a
16.0435	0.105	32087	keystroke	h	n/a
16.1185	0.1205	32237	keystroke	e	n/a
16.2245	0.0745	32449	keystroke	r	n/a
16.3435	0.075	32687	keystroke	Key.space	n/a
16.7635	0.105	33527	keystroke	w	n/a
16.8385	0.1955	33677	keystroke	a	n/a
17.004	0.1055	34008	keystroke	s	n/a
17.334	0.09	34668	keystroke	n	n/a
17.7535	0.075	35507	keystroke	'	n/a
17.948	0.0755	35896	keystroke	t	n/a
18.038	0.0755	36076	keystroke	Key.space	n/a
19.3435	0.09	38687	keystroke	w	n/a
19.539	0.075	39078	keystroke	a	n/a
19.689	0.0745	39378	keystroke	n	n/a
19.839	0.1195	39678	keystroke	n	n/a
19.974	0.09	39948	keystroke	a	n/a
20.274	0.0745	40548	keystroke	Key.space	n/a
21.204	0.0895	42408	keystroke	p	n/a
21.5035	0.135	43007	keystroke	h	n/a
21.624	0.1195	43248	keystroke	i	n/a
22.1195	0.12	44239	keystroke	l	n/a
22.614	0.075	45228	keystroke	a	n/a
22.973	0.1055	45946	keystroke	d	n/a
23.1385	0.0755	46277	keystroke	e	n/a
23.274	0.09	46548	keystroke	l	n/a
23.8285	0.105	47657	keystroke	p	n/a
24.039	0.105	48078	keystroke	h	n/a
24.159	0.1495	48318	keystroke	i	n/a
24.3535	0.091	48707	keystroke	a	n/a
24.5335	0.09	49067	keystroke	Key.enter	n/a
24.631	6.1755	49262	prompt	n/a	bytes guest threads belly\n
25.5085	0.09	51017	keystroke	b	n/a
25.674	0.09	51348	keystroke	y	n/a
25.914	0.06	51828	keystroke	t	n/a
26.019	0.09	52038	keystroke	e	n/a
26.214	0.075	52428	keystroke	s	n/a
26.3795	0.0745	52759	keystroke	Key.space	n/a
26.994	0.0595	53988	keystroke	g	n/a
27.1585	0.0605	54317	keystroke	u	n/a
27.324	0.0595	54648	keystroke	e	n/a
27.4885	0.09	54977	keystroke	s	n/a
27.6995	0.0745	55399	keystroke	t	n/a
27.8485	0.0755	55697	keystroke	Key.space	n/a
28.134	0.0755	56268	keystroke	t	n/a
28.314	0.075	56628	keystroke	h	n/a
28.463	0.1665	56926	keystroke	r	n/a
28.614	0.18	57228	keystroke	e	n/a
28.764	0.1505	57528	keystroke	a	n/a
29.2595	0.135	58519	keystroke	d	n/a
29.4095	0.104	58819	keystroke	s	n/a
29.619	0.075	59238	keystroke	Key.space	n/a
29.9335	0.06	59867	keystroke	b	n/a
30.159	0.015	60318	keystroke	e	n/a
30.309	0.06	60618	keystroke	l	n/a
30.474	0.0895	60948	keystroke	l	n/a
30.594	0.075	61188	keystroke	y	n/a
30.729	0.075	61458	keystroke	Key.enter	n/a
30.8115	8.4095	61623	prompt	n/a	livecam an coordinates installation\n
31.854	0.1345	63708	keystroke	l	n/a
32.139	0.0905	64278	keystroke	i	n/a
32.244	0.09	64488	keystroke	v	n/a
32.3935	0.1205	64787	keystroke	e	n/a
32.784	0.09	65568	keystroke	c	n/a
32.904	0.12	65808	keystroke	a	n/a
33.053	0.106	66106	keystroke	m	n/a
33.368	0.076	66736	keystroke	Key.space	n/a
33.6535	0.0895	67307	keystroke	a	n/a
33.924	0.075	67848	keystroke	n	n/a
34.1785	0.0755	68357	keystroke	Key.space	n/a
35.2285	0.09	70457	keystroke	c	n/a
35.469	0.0745	70938	keystroke	o	n/a
35.6185	0.106	71237	keystroke	o	n/a
35.7995	0.06	71599	keystroke	r	n/a
36.009	0.075	72018	keystroke	d	n/a
36.249	0.1195	72498	keystroke	i	n/a
36.3235	0.106	72647	keystroke	n	n/a
36.4295	0.1045	72859	keystroke	a	n/a
36.6385	0.105	73277	keystroke	t	n/a
36.7735	0.106	73547	keystroke	e	n/a
37.0135	0.0755	74027	keystroke	s	n/a
37.3285	0.0745	74657	keystroke	Key.space	n/a
37.5545	0.135	75109	keystroke	i	n/a
37.6285	0.106	75257	keystroke	n	n/a
37.7485	0.075	75497	keystroke	s	n/a
37.9445	0.089	75889	keystroke	t	n/a
38.0635	0.09	76127	keystroke	a	n/a
38.214	0.0595	76428	keystroke	l	n/a
38.319	0.12	76638	keystroke	l	n/a
38.3945	0.1045	76789	keystroke	a	n/a
38.6035	0.06	77207	keystroke	t	n/a
38.6795	0.2395	77359	keystroke	i	n/a
38.7695	0.15	77539	keystroke	o	n/a
38.8145	0.1345	77629	keystroke	n	n/a
39.1445	0.074	78289	keystroke	Key.enter	n/a
39.226	10.016	78452	prompt	n/a	counsel header requesting affiliates\n
39.9695	0.075	79939	keystroke	c	n/a
40.404	0.1505	80808	keystroke	o	n/a
40.7645	0.15	81529	keystroke	u	n/a
41.0645	0.1045	82129	keystroke	n	n/a
41.904	0.06	83808	keystroke	s	n/a
42.099	0.0745	84198	keystroke	e	n/a
42.189	0.09	84378	keystroke	l	n/a
42.474	0.06	84948	keystroke	Key.space	n/a
43.284	0.075	86568	keystroke	h	n/a
43.374	0.165	86748	keystroke	e	n/a
43.449	0.1505	86898	keystroke	a	n/a
43.6745	0.12	87349	keystroke	d	n/a
43.8395	0.1345	87679	keystroke	e	n/a
43.9445	0.105	87889	keystroke	r	n/a
44.139	0.06	88278	keystroke	Key.space	n/a
44.5145	0.1345	89029	keystroke	r	n/a
44.574	0.1205	89148	keystroke	e	n/a
45.054	0.09	90108	keystroke	q	n/a
45.264	0.075	90528	keystroke	u	n/a
45.369	0.075	90738	keystroke	e	n/a
45.564	0.06	91128	keystroke	s	n/a
45.759	0.0605	91518	keystroke	t	n/a
45.8635	0.151	91727	keystroke	i	n/a
45.9985	0.12	91997	keystroke	n	n/a
46.164	0.09	92328	keystroke	g	n/a
46.2685	0.0905	92537	keystroke	Key.space	n/a
47.0485	0.105	94097	keystroke	a	n/a
47.349	0.0595	94698	keystroke	f	n/a
47.4995	0.075	94999	keystroke	f	n/a
47.5895	0.105	95179	keystroke	i	n/a
47.9195	0.104	95839	keystroke	l	n/a
48.1885	0.076	96377	keystroke	i	n/a
48.294	0.1045	96588	keystroke	a	n/a
48.5495	0.1195	97099	keystroke	t	n/a
48.654	0.12	97308	keystroke	e	n/a
48.8935	0.075	97787	keystroke	s	n/a
49.1485	0.09	98297	keystroke	Key.enter	n/a
49.2485	8.3635	98497	prompt	n/a	distinguished tenant slight volume\n
50.1835	0.1205	100367	keystroke	d	n/a
50.4685	0.06	100937	keystroke	i	n/a
50.5595	0.0895	101119	keystroke	s	n/a
50.784	0.075	101568	keystroke	t	n/a
51.024	0.0905	102048	keystroke	i	n/a
51.369	0.075	102738	keystroke	n	n/a
51.579	0.06	103158	keystroke	g	n/a
51.7145	0.0595	103429	keystroke	u	n/a
51.909	0.09	103818	keystroke	i	n/a
52.2695	0.089	104539	keystroke	s	n/a
52.674	0.06	105348	keystroke	h	n/a
52.779	0.135	105558	keystroke	e	n/a
52.899	0.15	105798	keystroke	d	n/a
53.064	0.09	106128	keystroke	Key.space	n/a
53.529	0.105	107058	keystroke	t	n/a
53.8145	0.09	107629	keystroke	e	n/a
54.0695	0.0595	108139	keystroke	n	n/a
54.174	0.06	108348	keystroke	a	n/a
54.354	0.075	108708	keystroke	n	n/a
54.489	0.09	108978	keystroke	t	n/a
54.7145	0.09	109429	keystroke	Key.space	n/a
55.254	0.0745	110508	keystroke	s	n/a
55.434	0.1055	110868	keystroke	l	n/a
55.6595	0.105	111319	keystroke	i	n/a
55.8095	0.0745	111619	keystroke	g	n/a
55.9135	0.091	111827	keystroke	h	n/a
56.0635	0.061	112127	keystroke	t	n/a
56.2135	0.0755	112427	keystroke	Key.space	n/a
56.544	0.045	113088	keystroke	v	n/a
56.6645	0.1045	113329	keystroke	o	n/a
56.8435	0.09	113687	keystroke	l	n/a
57.0695	0.075	114139	keystroke	u	n/a
57.279	0.0905	114558	keystroke	m	n/a
57.3845	0.0595	114769	keystroke	e	n/a
57.519	0.0895	115038	keystroke	Key.enter	n/a
57.6185	9.9525	115237	prompt	n/a	blogger general ghost chemical\n
58.3745	0.059	116749	keystroke	b	n/a
58.584	0.0755	117168	keystroke	l	n/a
58.7795	0.0745	117559	keystroke	o	n/a
58.9595	0.0595	117919	keystroke	g	n/a
59.095	0.1035	118190	keystroke	g	n/a
59.335	0.1045	118670	keystroke	e	n/a
59.4245	0.075	118849	keystroke	r	n/a
59.5735	0.075	119147	keystroke	Key.space	n/a
59.89	0.119	119780	keystroke	g	n/a
59.9935	0.12	119987	keystroke	e	n/a
60.189	0.0745	120378	keystroke	n	n/a
60.3235	0.121	120647	keystroke	r	n/a
61.1945	0.1195	122389	keystroke	=	n/a
61.2545	0.209	122509	keystroke	e	n/a
61.3745	0.134	122749	keystroke	r	n/a
62.064	0.12	124128	keystroke	Key.backspace	n/a
62.1985	0.076	124397	keystroke	Key.backspace	n/a
62.3485	0.09	124697	keystroke	Key.backspace	n/a
62.949	0.075	125898	keystroke	Key.backspace	n/a
63.369	0.09	126738	keystroke	e	n/a
63.4895	0.119	126979	keystroke	r	n/a
63.684	0.0905	127368	keystroke	a	n/a
63.789	0.075	127578	keystroke	l	n/a
64.0885	0.09	128177	keystroke	Key.space	n/a
64.9595	0.0745	129919	keystroke	g	n/a
65.0795	0.075	130159	keystroke	h	n/a
65.2445	0.0895	130489	keystroke	o	n/a
65.364	0.1055	130728	keystroke	s	n/a
65.6345	0.09	131269	keystroke	t	n/a
65.784	0.0895	131568	keystroke	Key.space	n/a
66.3695	0.045	132739	keystroke	c	n/a
66.4295	0.045	132859	keystroke	h	n/a
66.4895	0.06	132979	keystroke	e	n/a
66.6095	0.1045	133219	keystroke	m	n/a
66.774	0.09	133548	keystroke	i	n/a
66.8945	0.1195	133789	keystroke	c	n/a
67.0445	0.1195	134089	keystroke	a	n/a
67.209	0.0905	134418	keystroke	l	n/a
67.4945	0.074	134989	keystroke	Key.enter	n/a
67.5785	9.1425	135157	prompt	n/a	restriction shirt infrastructure april\n
68.559	0.135	137118	keystroke	r	n/a
68.649	0.1205	137298	keystroke	e	n/a
68.8745	0.09	137749	keystroke	s	n/a
69.0845	0.09	138169	keystroke	t	n/a
69.2345	0.075	138469	keystroke	r	n/a
69.384	0.0905	138768	keystroke	i	n/a
69.6245	0.09	139249	keystroke	c	n/a
70.029	0.0745	140058	keystroke	t	n/a
70.1185	0.2405	140237	keystroke	i	n/a
70.2395	0.135	140479	keystroke	o	n/a
70.2985	0.1505	140597	keystroke	n	n/a
70.6445	0.06	141289	keystroke	Key.space	n/a
71.259	0.195	142518	keystroke	s	n/a
71.469	0.06	142938	keystroke	h	n/a
71.6195	0.074	143239	keystroke	i	n/a
71.7235	0.075	143447	keystroke	r	n/a
71.9345	0.06	143869	keystroke	t	n/a
72.0385	0.0905	144077	keystroke	Key.space	n/a
72.4295	0.104	144859	keystroke	i	n/a
72.5185	0.105	145037	keystroke	n	n/a
72.8045	0.09	145609	keystroke	f	n/a
72.9385	0.121	145877	keystroke	a	n/a
73.3145	0.06	146629	keystroke	s	n/a
73.5845	0.1195	147169	keystroke	t	n/a
73.7345	0.0895	147469	keystroke	r	n/a
73.959	0.075	147918	keystroke	u	n/a
74.169	0.075	148338	keystroke	c	n/a
74.424	0.0605	148848	keystroke	t	n/a
74.724	0.06	149448	keystroke	u	n/a
74.904	0.105	149808	keystroke	r	n/a
74.964	0.105	149928	keystroke	e	n/a
75.144	0.0905	150288	keystroke	Key.space	n/a
75.609	0.0755	151218	keystroke	a	n/a
75.7745	0.0905	151549	keystroke	p	n/a
75.9855	0.074	151971	keystroke	r	n/a
76.1035	0.075	152207	keystroke	i	n/a
76.3445	0.0895	152689	keystroke	l	n/a
76.6445	0.075	153289	keystroke	Key.enter	n/a
76.7265	5.634	153453	prompt	n/a	light holly brian mineral\n
77.7835	0.0755	155567	keystroke	l	n/a
77.9945	0.075	155989	keystroke	i	n/a
78.1295	0.075	156259	keystroke	g	n/a
78.2335	0.106	156467	keystroke	h	n/a
78.3545	0.045	156709	keystroke	t	n/a
78.459	0.075	156918	keystroke	Key.space	n/a
78.669	0.0605	157338	keystroke	h	n/a
79.134	0.075	158268	keystroke	o	n/a
79.329	0.06	158658	keystroke	l	n/a
79.463	0.076	158926	keystroke	l	n/a
79.5995	0.0595	159199	keystroke	y	n/a
79.779	0.075	159558	keystroke	Key.space	n/a
80.2435	0.06	160487	keystroke	b	n/a
80.454	0.0755	160908	keystroke	r	n/a
80.574	0.09	161148	keystroke	i	n/a
80.679	0.09	161358	keystroke	a	n/a
80.799	0.09	161598	keystroke	n	n/a
81.0385	0.075	162077	keystroke	Key.space	n/a
81.2495	0.105	162499	keystroke	m	n/a
81.384	0.135	162768	keystroke	i	n/a
81.489	0.09	162978	keystroke	n	n/a
81.6245	0.135	163249	keystroke	e	n/a
81.744	0.0905	163488	keystroke	r	n/a
81.879	0.09	163758	keystroke	a	n/a
82.0145	0.09	164029	keystroke	l	n/a
82.2985	0.061	164597	keystroke	Key.enter	n/a
82.3665	7.704	164733	prompt	n/a	iceland attempted invision creature\n
83.2145	0.06	166429	keystroke	i	n/a
83.5295	0.089	167059	keystroke	c	n/a
83.784	0.0145	167568	keystroke	e	n/a
83.904	0.0755	167808	keystroke	l	n/a
84.0085	0.1055	168017	keystroke	a	n/a
84.1285	0.075	168257	keystroke	n	n/a
84.3235	0.0755	168647	keystroke	d	n/a
84.4585	0.06	168917	keystroke	Key.space	n/a
84.969	0.105	169938	keystroke	a	n/a
85.254	0.0755	170508	keystroke	t	n/a
85.359	0.09	170718	keystroke	t	n/a
85.524	0.075	171048	keystroke	e	n/a
85.659	0.09	171318	keystroke	m	n/a
85.869	0.075	171738	keystroke	p	n/a
86.019	0.09	172038	keystroke	t	n/a
86.139	0.105	172278	keystroke	e	n/a
86.379	0.09	172758	keystroke	d	n/a
86.784	0.076	173568	keystroke	Key.space	n/a
87.234	0.105	174468	keystroke	i	n/a
87.309	0.105	174618	keystroke	n	n/a
87.624	0.0595	175248	keystroke	v	n/a
87.7885	0.075	175577	keystroke	i	n/a
87.9385	0.0755	175877	keystroke	s	n/a
88.059	0.2395	176118	keystroke	i	n/a
88.119	0.135	176238	keystroke	o	n/a
88.179	0.1355	176358	keystroke	n	n/a
88.5545	0.089	177109	keystroke	Key.space	n/a
88.7795	0.09	177559	keystroke	c	n/a
89.004	0.12	178008	keystroke	r	n/a
89.064	0.18	178128	keystroke	e	n/a
89.199	0.1055	178398	keystroke	a	n/a
89.3495	0.0745	178699	keystroke	t	n/a
89.649	0.0755	179298	keystroke	u	n/a
89.7685	0.1505	179537	keystroke	r	n/a
89.874	0.1055	179748	keystroke	e	n/a
89.994	0.075	179988	keystroke	Key.enter	n/a
90.0755	11.6955	180151	prompt	n/a	exceed blogger handhelds travelling\n
91.0445	0.0895	182089	keystroke	e	n/a
91.344	0.075	182688	keystroke	x	n/a
91.539	0.0905	183078	keystroke	c	n/a
91.7345	0.06	183469	keystroke	e	n/a
91.8695	0.1345	183739	keystroke	e	n/a
92.019	0.1645	184038	keystroke	d	n/a
92.2135	0.2105	184427	keystroke	d	n/a
92.2585	0.06	184517	keystroke	e	n/a
92.8435	0.1205	185687	keystroke	Key.backspace	n/a
93.2345	0.0895	186469	keystroke	Key.backspace	n/a
93.879	0.075	187758	keystroke	Key.space	n/a
94.344	0.105	188688	keystroke	b	n/a
94.5985	0.0605	189197	keystroke	l	n/a
94.779	0.0745	189558	keystroke	o	n/a
94.959	0.045	189918	keystroke	g	n/a
95.0785	0.0755	190157	keystroke	g	n/a
95.3045	0.0895	190609	keystroke	e	n/a
95.379	0.089	190758	keystroke	r	n/a
95.589	0.0745	191178	keystroke	Key.space	n/a
95.904	0.075	191808	keystroke	h	n/a
96.009	0.075	192018	keystroke	a	n/a
96.158	0.091	192316	keystroke	n	n/a
96.339	0.0895	192678	keystroke	d	n/a
96.5635	0.0605	193127	keystroke	e	n/a
97.2235	0.0905	194447	keystroke	Key.backspace	n/a
97.5545	0.1045	195109	keystroke	h	n/a
98.229	0.0755	196458	keystroke	e	n/a
98.364	0.0895	196728	keystroke	l	n/a
98.4985	0.1655	196997	keystroke	d	n/a
98.6495	0.074	197299	keystroke	s	n/a
99.3685	0.09	198737	keystroke	Key.space	n/a
99.6685	0.18	199337	keystroke	t	n/a
99.8195	0.104	199639	keystroke	r	n/a
100.059	0.1055	200118	keystroke	a	n/a
100.284	0.075	200568	keystroke	v	n/a
100.449	0.0755	200898	keystroke	e	n/a
100.674	0.06	201348	keystroke	l	n/a
100.794	0.075	201588	keystroke	l	n/a
101.0195	0.15	202039	keystroke	i	n/a
101.1085	0.1205	202217	keystroke	n	n/a
101.5285	0.0455	203057	keystroke	g	n/a
101.6785	0.0905	203357	keystroke	Key.enter	n/a
101.7845	11.026	203569	prompt	n/a	meetings table theories refinance\n
102.6245	0.045	205249	keystroke	m	n/a
102.6845	0.074	205369	keystroke	e	n/a
102.864	0.09	205728	keystroke	e	n/a
103.059	0.0905	206118	keystroke	t	n/a
103.209	0.105	206418	keystroke	i	n/a
103.359	0.075	206718	keystroke	g	n/a
103.494	0.12	206988	keystroke	n	n/a
103.884	0.075	207768	keystroke	Key.backspace	n/a
104.004	0.1045	208008	keystroke	Key.backspace	n/a
104.469	0.09	208938	keystroke	n	n/a
104.5895	0.0745	209179	keystroke	g	n/a
104.814	0.0905	209628	keystroke	s	n/a
105.068	0.0755	210136	keystroke	Key.space	n/a
105.5485	0.09	211097	keystroke	t	n/a
105.7295	0.104	211459	keystroke	a	n/a
105.8485	0.075	211697	keystroke	b	n/a
106.0135	0.106	212027	keystroke	l	n/a
106.1035	0.076	212207	keystroke	e	n/a
106.254	0.075	212508	keystroke	Key.space	n/a
107.364	0.06	214728	keystroke	t	n/a
107.4695	0.0745	214939	keystroke	h	n/a
107.529	0.18	215058	keystroke	e	n/a
107.724	0.0745	215448	keystroke	r	n/a
108.2635	0.09	216527	keystroke	Key.backspace	n/a
108.579	0.075	217158	keystroke	o	n/a
108.759	0.09	217518	keystroke	r	n/a
108.9085	0.0755	217817	keystroke	i	n/a
109.013	0.106	218026	keystroke	e	n/a
109.223	0.075	218446	keystroke	s	n/a
109.374	0.0745	218748	keystroke	Key.space	n/a
110.259	0.1355	220518	keystroke	r	n/a
110.3635	0.1205	220727	keystroke	e	n/a
110.5885	0.09	221177	keystroke	f	n/a
110.7685	0.09	221537	keystroke	i	n/a
111.414	0.119	222828	keystroke	n	n/a
111.744	0.074	223488	keystroke	a	n/a
111.8795	0.0745	223759	keystroke	n	n/a
112.164	0.105	224328	keystroke	c	n/a
112.329	0.105	224658	keystroke	e	n/a
112.7335	0.075	225467	keystroke	Key.enter	n/a
112.815	7.165	225630	prompt	n/a	wells least cups debug\n
113.619	0.09	227238	keystroke	w	n/a
113.754	0.1045	227508	keystroke	e	n/a
113.9345	0.074	227869	keystroke	l	n/a
114.084	0.09	228168	keystroke	l	n/a
114.2185	0.091	228437	keystroke	s	n/a
114.429	0.0745	228858	keystroke	Key.space	n/a
114.7745	0.104	229549	keystroke	l	n/a
114.8635	0.2555	229727	keystroke	e	n/a
115.134	0.15	230268	keystroke	a	n/a
115.2845	0.104	230569	keystroke	s	n/a
116.349	0.1055	232698	keystroke	y	n/a
117.1735	0.06	234347	keystroke	Key.backspace	n/a
117.3845	0.075	234769	keystroke	t	n/a
117.534	0.09	235068	keystroke	Key.space	n/a
117.789	0.075	235578	keystroke	c	n/a
117.909	0.075	235818	keystroke	u	n/a
118.149	0.09	236298	keystroke	p	n/a
118.284	0.075	236568	keystroke	s	n/a
118.479	0.0605	236958	keystroke	Key.space	n/a
119.004	0.09	238008	keystroke	d	n/a
119.154	0.09	238308	keystroke	e	n/a
119.3185	0.12	238637	keystroke	b	n/a
119.4835	0.1055	238967	keystroke	u	n/a
119.7535	0.0605	239507	keystroke	g	n/a
119.8885	0.0905	239777	keystroke	Key.enter	n/a
119.984	6.5365	239968	prompt	n/a	margaret metal wide turbo\n
120.744	0.06	241488	keystroke	m	n/a
120.7885	0.121	241577	keystroke	a	n/a
120.9845	0.134	241969	keystroke	r	n/a
121.8085	0.0905	243617	keystroke	g	n/a
121.959	0.1195	243918	keystroke	a	n/a
122.1985	0.1355	244397	keystroke	r	n/a
122.319	0.0895	244638	keystroke	e	n/a
122.5145	0.0895	245029	keystroke	t	n/a
122.724	0.0745	245448	keystroke	Key.space	n/a
123.0235	0.061	246047	keystroke	m	n/a
123.0685	0.091	246137	keystroke	e	n/a
123.234	0.105	246468	keystroke	t	n/a
123.3985	0.0755	246797	keystroke	a	n/a
123.5185	0.06	247037	keystroke	l	n/a
123.804	0.074	247608	keystroke	Key.space	n/a
124.209	0.059	248418	keystroke	w	n/a
124.359	0.06	248718	keystroke	i	n/a
124.479	0.105	248958	keystroke	d	n/a
124.644	0.074	249288	keystroke	e	n/a
124.808	0.0755	249616	keystroke	Key.space	n/a
125.333	0.076	250666	keystroke	t	n/a
125.544	0.06	251088	keystroke	u	n/a
125.649	0.089	251298	keystroke	r	n/a
125.9785	0.0755	251957	keystroke	b	n/a
126.189	0.09	252378	keystroke	o	n/a
126.4285	0.09	252857	keystroke	Key.enter	n/a
126.524	11.636	253048	prompt	n/a	advertisements writers terrace korean\n
127.2385	0.075	254477	keystroke	a	n/a
127.4795	0.089	254959	keystroke	d	n/a
127.748	0.0765	255496	keystroke	v	n/a
127.899	0.135	255798	keystroke	e	n/a
128.0195	0.0895	256039	keystroke	r	n/a
128.229	0.075	256458	keystroke	t	n/a
128.349	0.075	256698	keystroke	i	n/a
128.484	0.105	256968	keystroke	s	n/a
128.724	0.0605	257448	keystroke	e	n/a
128.904	0.09	257808	keystroke	m	n/a
129.8485	0.0755	259697	keystroke	e	n/a
129.9985	0.076	259997	keystroke	n	n/a
130.1035	0.0905	260207	keystroke	t	n/a
130.299	0.09	260598	keystroke	s	n/a
130.704	0.0745	261408	keystroke	Key.space	n/a
131.034	0.0895	262068	keystroke	w	n/a
131.709	0.075	263418	keystroke	r	n/a
131.799	0.045	263598	keystroke	i	n/a
131.874	0.1045	263748	keystroke	t	n/a
132.039	0.135	264078	keystroke	e	n/a
132.204	0.1955	264408	keystroke	r	n/a
132.519	0.12	265038	keystroke	s	n/a
133.674	0.075	267348	keystroke	Key.space	n/a
133.929	0.1055	267858	keystroke	t	n/a
134.063	0.151	268126	keystroke	e	n/a
134.199	0.1055	268398	keystroke	r	n/a
134.4845	0.105	268969	keystroke	r	n/a
134.8135	0.075	269627	keystroke	a	n/a
135.294	0.09	270588	keystroke	c	n/a
135.444	0.0905	270888	keystroke	e	n/a
135.6385	0.075	271277	keystroke	Key.space	n/a
136.0885	0.105	272177	keystroke	k	n/a
136.239	0.0755	272478	keystroke	e	n/a
136.6885	0.135	273377	keystroke	Key.backspace	n/a
137.124	0.0755	274248	keystroke	o	n/a
137.289	0.165	274578	keystroke	r	n/a
137.3645	0.209	274729	keystroke	e	n/a
137.529	0.1205	275058	keystroke	a	n/a
137.6785	0.09	275357	keystroke	n	n/a
138.0835	0.075	276167	keystroke	Key.enter	n/a
138.164	9.3565	276328	prompt	n/a	converter bank gmbh matters\n
139.0295	0.0895	278059	keystroke	c	n/a
139.1935	0.0755	278387	keystroke	o	n/a
139.4785	0.0755	278957	keystroke	n	n/a
139.6585	0.0905	279317	keystroke	v	n/a
139.8985	0.1205	279797	keystroke	e	n/a
139.989	0.149	279978	keystroke	r	n/a
140.289	0.105	280578	keystroke	t	n/a
140.439	0.165	280878	keystroke	e	n/a
140.574	0.105	281148	keystroke	r	n/a
141.009	0.09	282018	keystroke	Key.space	n/a
141.4135	0.015	282827	keystroke	b	n/a
141.504	0.045	283008	keystroke	b	n/a
141.6685	0.0905	283337	keystroke	a	n/a
142.3135	0.0905	284627	keystroke	Key.backspace	n/a
142.4785	0.09	284957	keystroke	Key.backspace	n/a
142.989	0.075	285978	keystroke	n	n/a
143.469	0.12	286938	keystroke	Key.backspace	n/a
143.799	0.075	287598	keystroke	a	n/a
143.919	0.135	287838	keystroke	n	n/a
144.039	0.1045	288078	keystroke	k	n/a
144.294	0.0595	288588	keystroke	Key.space	n/a
145.194	0.075	290388	keystroke	g	n/a
145.389	0.075	290778	keystroke	m	n/a
145.734	0.06	291468	keystroke	b	n/a
145.914	0.09	291828	keystroke	h	n/a
146.244	0.06	292488	keystroke	Key.space	n/a
146.529	0.075	293058	keystroke	m	n/a
146.619	0.105	293238	keystroke	a	n/a
146.844	0.045	293688	keystroke	t	n/a
146.9785	0.075	293957	keystroke	t	n/a
147.0385	0.105	294077	keystroke	e	n/a
147.129	0.1045	294258	keystroke	r	n/a
147.2935	0.06	294587	keystroke	s	n/a
147.444	0.0745	294888	keystroke	Key.enter	n/a
147.526	8.4095	295052	prompt	n/a	liberal occasion lovely promotional\n
148.419	0.075	296838	keystroke	l	n/a
148.629	0.09	297258	keystroke	i	n/a
148.839	0.06	297678	keystroke	b	n/a
148.914	0.075	297828	keystroke	e	n/a
149.004	0.105	298008	keystroke	r	n/a
149.184	0.06	298368	keystroke	a	n/a
149.274	0.0895	298548	keystroke	l	n/a
149.694	0.06	299388	keystroke	Key.space	n/a
150.129	0.1045	300258	keystroke	o	n/a
150.294	0.0605	300588	keystroke	c	n/a
150.428	0.106	300856	keystroke	c	n/a
150.623	0.121	301246	keystroke	a	n/a
151.119	0.0745	302238	keystroke	s	n/a
151.2685	0.225	302537	keystroke	i	n/a
151.374	0.1345	302748	keystroke	o	n/a
151.4045	0.164	302809	keystroke	n	n/a
152.018	0.0605	304036	keystroke	Key.space	n/a
152.319	0.0595	304638	keystroke	l	n/a
152.499	0.075	304998	keystroke	o	n/a
152.694	0.075	305388	keystroke	v	n/a
152.829	0.105	305658	keystroke	e	n/a
152.949	0.09	305898	keystroke	l	n/a
153.234	0.0595	306468	keystroke	y	n/a
153.429	0.0445	306858	keystroke	Key.space	n/a
154.029	0.06	308058	keystroke	p	n/a
154.2085	0.0605	308417	keystroke	r	n/a
154.3285	0.15	308657	keystroke	o	n/a
154.449	0.1495	308898	keystroke	m	n/a
154.838	0.091	309676	keystroke	o	n/a
155.0485	0.075	310097	keystroke	t	n/a
155.2735	0.195	310547	keystroke	i	n/a
155.334	0.1495	310668	keystroke	o	n/a
155.4085	0.12	310817	keystroke	n	n/a
155.8435	0.09	311687	keystroke	Key.enter	n/a
155.9415	7.494	311883	prompt	n/a	hunger permit bathrooms contributions\n
156.983	0.016	313966	keystroke	h	n/a
157.014	0.1195	314028	keystroke	u	n/a
157.224	0.075	314448	keystroke	n	n/a
157.464	0.104	314928	keystroke	g	n/a
157.5835	0.1655	315167	keystroke	e	n/a
157.734	0.105	315468	keystroke	r	n/a
157.9435	0.0595	315887	keystroke	Key.space	n/a
158.2735	0.105	316547	keystroke	p	n/a
158.394	0.075	316788	keystroke	e	n/a
158.499	0.0895	316998	keystroke	r	n/a
158.648	0.09	317296	keystroke	m	n/a
158.828	0.09	317656	keystroke	i	n/a
158.933	0.0755	317866	keystroke	t	n/a
159.113	0.09	318226	keystroke	Key.space	n/a
159.444	0.059	318888	keystroke	b	n/a
159.518	0.106	319036	keystroke	a	n/a
159.744	0.06	319488	keystroke	t	n/a
159.8485	0.0745	319697	keystroke	h	n/a
159.953	0.09	319906	keystroke	r	n/a
160.1185	0.0755	320237	keystroke	o	n/a
160.2685	0.1355	320537	keystroke	o	n/a
160.389	0.135	320778	keystroke	m	n/a
160.5985	0.15	321197	keystroke	s	n/a
160.809	0.0745	321618	keystroke	Key.space	n/a
161.109	0.0745	322218	keystroke	c	n/a
161.2285	0.1055	322457	keystroke	o	n/a
161.409	0.0595	322818	keystroke	n	n/a
161.604	0.0895	323208	keystroke	t	n/a
161.8285	0.075	323657	keystroke	r	n/a
161.949	0.09	323898	keystroke	i	n/a
162.2335	0.0745	324467	keystroke	b	n/a
162.383	0.09	324766	keystroke	u	n/a
162.594	0.12	325188	keystroke	t	n/a
162.8335	0.2405	325667	keystroke	i	n/a
162.924	0.134	325848	keystroke	o	n/a
162.998	0.135	325996	keystroke	n	n/a
163.148	0.106	326296	keystroke	s	n/a
163.3735	0.06	326747	keystroke	Key.enter	n/a
163.443	6.952	326886	prompt	n/a	witch complexity hundred others\n
164.199	0.09	328398	keystroke	w	n/a
164.3635	0.09	328727	keystroke	i	n/a
164.5135	0.0605	329027	keystroke	t	n/a
164.8135	0.09	329627	keystroke	c	n/a
164.8735	0.1055	329747	keystroke	h	n/a
165.159	0.0895	330318	keystroke	Key.space	n/a
165.4885	0.075	330977	keystroke	c	n/a
165.6085	0.1205	331217	keystroke	o	n/a
165.6985	0.12	331397	keystroke	m	n/a
165.984	0.1195	331968	keystroke	p	n/a
166.0585	0.1205	332117	keystroke	l	n/a
166.4485	0.0905	332897	keystroke	e	n/a
166.8685	0.09	333737	keystroke	x	n/a
167.0335	0.075	334067	keystroke	i	n/a
167.229	0.0895	334458	keystroke	t	n/a
167.3485	0.09	334697	keystroke	y	n/a
167.5435	0.09	335087	keystroke	Key.space	n/a
167.9935	0.09	335987	keystroke	h	n/a
168.2635	0.015	336527	keystroke	u	n/a
168.3235	0.1205	336647	keystroke	n	n/a
168.5185	0.0905	337037	keystroke	d	n/a
168.774	0.1195	337548	keystroke	r	n/a
168.8635	0.2255	337727	keystroke	e	n/a
169.0585	0.12	338117	keystroke	d	n/a
169.2985	0.0605	338597	keystroke	Key.space	n/a
169.613	0.105	339226	keystroke	o	n/a
169.763	0.12	339526	keystroke	t	n/a
169.898	0.076	339796	keystroke	h	n/a
169.9435	0.1345	339887	keystroke	e	n/a
170.033	0.151	340066	keystroke	r	n/a
170.1685	0.105	340337	keystroke	s	n/a
170.303	0.09	340606	keystroke	Key.enter	n/a
170.4	11.275	340800	prompt	n/a	discussing picnic completing autos\n
171.5935	0.0905	343187	keystroke	d	n/a
171.744	0.09	343488	keystroke	i	n/a
171.8485	0.1205	343697	keystroke	s	n/a
172.0885	0.075	344177	keystroke	c	n/a
172.254	0.06	344508	keystroke	u	n/a
172.3885	0.1045	344777	keystroke	s	n/a
172.568	0.09	345136	keystroke	s	n/a
172.673	0.2255	345346	keystroke	i	n/a
172.7485	0.105	345497	keystroke	o	n/a
172.809	0.12	345618	keystroke	n	n/a
173.6335	0.09	347267	keystroke	Key.backspace	n/a
173.7685	0.105	347537	keystroke	Key.backspace	n/a
174.4435	0.09	348887	keystroke	n	n/a
174.5485	0.075	349097	keystroke	g	n/a
174.6685	0.075	349337	keystroke	Key.space	n/a
175.554	0.0895	351108	keystroke	p	n/a
175.794	0.0595	351588	keystroke	i	n/a
175.9585	0.06	351917	keystroke	c	n/a
176.0935	0.105	352187	keystroke	n	n/a
176.3485	0.12	352697	keystroke	i	n/a
176.4385	0.105	352877	keystroke	n	n/a
176.9035	0.09	353807	keystroke	Key.backspace	n/a
177.0085	0.0905	354017	keystroke	c	n/a
177.2335	0.06	354467	keystroke	Key.space	n/a
177.8485	0.075	355697	keystroke	c	n/a
178.0285	0.0905	356057	keystroke	o	n/a
178.074	0.09	356148	keystroke	m	n/a
178.268	0.0905	356536	keystroke	p	n/a
178.298	0.12	356596	keystroke	l	n/a
178.4935	0.09	356987	keystroke	e	n/a
178.6885	0.0905	357377	keystroke	t	n/a
178.8985	0.1505	357797	keystroke	i	n/a
179.004	0.1505	358008	keystroke	n	n/a
179.214	0.12	358428	keystroke	g	n/a
179.544	0.059	359088	keystroke	Key.space	n/a
180.8485	0.09	361697	keystroke	a	n/a
180.9985	0.0745	361997	keystroke	u	n/a
181.1635	0.075	362327	keystroke	t	n/a
181.2685	0.12	362537	keystroke	o	n/a
181.494	0.0745	362988	keystroke	s	n/a
181.5835	0.09	363167	keystroke	Key.enter	n/a
181.679	10.0465	363358	prompt	n/a	parade bite thanksgiving implement\n
182.5735	0.09	365147	keystroke	p	n/a
182.619	0.1045	365238	keystroke	a	n/a
182.8135	0.09	365627	keystroke	r	n/a
182.919	0.1345	365838	keystroke	a	n/a
183.1285	0.1505	366257	keystroke	d	n/a
183.2935	0.105	366587	keystroke	e	n/a
183.4585	0.0755	366917	keystroke	Key.space	n/a
183.849	0.074	367698	keystroke	b	n/a
184.0135	0.0755	368027	keystroke	i	n/a
184.134	0.165	368268	keystroke	t	n/a
184.284	0.104	368568	keystroke	e	n/a
184.403	0.075	368806	keystroke	Key.space	n/a
184.569	0.09	369138	keystroke	t	n/a
184.689	0.075	369378	keystroke	h	n/a
184.959	0.105	369918	keystroke	a	n/a
185.154	0.03	370308	keystroke	n	n/a
185.3185	0.1205	370637	keystroke	k	n/a
185.573	0.1205	371146	keystroke	i	n/a
185.663	0.135	371326	keystroke	n	n/a
185.8135	0.1045	371627	keystroke	g	n/a
186.0385	0.075	372077	keystroke	Key.space	n/a
186.4735	0.09	372947	keystroke	Key.backspace	n/a
186.653	0.0605	373306	keystroke	Key.backspace	n/a
186.804	0.0595	373608	keystroke	Key.backspace	n/a
187.2985	0.1345	374597	keystroke	Key.backspace	n/a
187.493	0.0755	374986	keystroke	s	n/a
187.974	0.0595	375948	keystroke	g	n/a
188.064	0.105	376128	keystroke	i	n/a
188.4685	0.1055	376937	keystroke	v	n/a
188.694	0.135	377388	keystroke	i	n/a
188.83	0.1185	377660	keystroke	n	n/a
189.339	0.1205	378678	keystroke	g	n/a
190.0585	0.0745	380117	keystroke	Key.space	n/a
190.314	0.1195	380628	keystroke	i	n/a
190.3885	0.1205	380777	keystroke	m	n/a
190.6435	0.105	381287	keystroke	p	n/a
190.7035	0.105	381407	keystroke	l	n/a
190.8985	0.0755	381797	keystroke	e	n/a
191.049	0.0895	382098	keystroke	m	n/a
191.1535	0.135	382307	keystroke	e	n/a
191.3035	0.0745	382607	keystroke	n	n/a
191.394	0.09	382788	keystroke	t	n/a
191.6635	0.0595	383327	keystroke	Key.enter	n/a
191.73	10.1645	383460	prompt	n/a	token coach productive scratch\n
192.489	0.075	384978	keystroke	t	n/a
192.6835	0.0895	385367	keystroke	o	n/a
192.8935	0.105	385787	keystroke	k	n/a
193.0285	0.0755	386057	keystroke	e	n/a
193.1935	0.09	386387	keystroke	n	n/a
194.0185	0.075	388037	keystroke	Key.space	n/a
194.3635	0.1045	388727	keystroke	c	n/a
194.498	0.09	388996	keystroke	o	n/a
194.574	0.119	389148	keystroke	a	n/a
194.768	0.105	389536	keystroke	c	n/a
194.918	0.09	389836	keystroke	h	n/a
195.188	0.06	390376	keystroke	Key.space	n/a
195.774	0.0595	391548	keystroke	p	n/a
195.954	0.075	391908	keystroke	r	n/a
196.659	0.09	393318	keystroke	o	n/a
196.884	0.089	393768	keystroke	d	n/a
197.5435	0.075	395087	keystroke	u	n/a
197.6335	0.045	395267	keystroke	c	n/a
197.8135	0.0755	395627	keystroke	t	n/a
197.9335	0.0745	395867	keystroke	i	n/a
198.0985	0.12	396197	keystroke	v	n/a
198.234	0.089	396468	keystroke	e	n/a
198.308	0.075	396616	keystroke	Key.space	n/a
198.804	0.06	397608	keystroke	s	n/a
199.014	0.09	398028	keystroke	c	n/a
199.208	0.0605	398416	keystroke	r	n/a
199.403	0.09	398806	keystroke	a	n/a
199.5985	0.075	399197	keystroke	t	n/a
199.7785	0.0755	399557	keystroke	h	n/a
200.0935	0.105	400187	keystroke	c	n/a
200.6635	0.075	401327	keystroke	Key.backspace	n/a
200.7985	0.09	401597	keystroke	Key.backspace	n/a
200.978	0.09	401956	keystroke	c	n/a
201.1285	0.09	402257	keystroke	h	n/a
201.8325	0.061	403665	keystroke	Key.enter	n/a
201.899	10.841	403798	prompt	n/a	west nutten telephony poison\n
202.6585	0.0745	405317	keystroke	w	n/a
203.3925	0.061	406785	keystroke	e	n/a
203.574	0.105	407148	keystroke	s	n/a
203.7535	0.1055	407507	keystroke	t	n/a
203.9335	0.075	407867	keystroke	Key.space	n/a
204.5935	0.0755	409187	keystroke	n	n/a
204.759	0.074	409518	keystroke	u	n/a
204.863	0.075	409726	keystroke	t	n/a
204.998	0.105	409996	keystroke	t	n/a
205.118	0.1055	410236	keystroke	e	n/a
205.2235	0.09	410447	keystroke	n	n/a
205.5835	0.06	411167	keystroke	Key.space	n/a
205.8685	0.105	411737	keystroke	t	n/a
206.0185	0.135	412037	keystroke	e	n/a
206.4535	0.0905	412907	keystroke	l	n/a
206.5885	0.075	413177	keystroke	e	n/a
207.0835	0.1505	414167	keystroke	p	n/a
207.504	0.0895	415008	keystroke	h	n/a
207.668	0.1355	415336	keystroke	o	n/a
207.7585	0.1355	415517	keystroke	n	n/a
208.0885	0.06	416177	keystroke	y	n/a
208.538	0.0755	417076	keystroke	Key.space	n/a
209.0185	0.0905	418037	keystroke	p	n/a
209.244	0.0595	418488	keystroke	o	n/a
209.424	0.0735	418848	keystroke	i	n/a
209.5885	0.06	419177	keystroke	s	n/a
209.709	0.1195	419418	keystroke	i	n/a
210.0835	0.105	420167	keystroke	=	n/a
210.623	0.076	421246	keystroke	Key.backspace	n/a
210.908	0.0755	421816	keystroke	Key.backspace	n/a
212.0635	0.1045	424127	keystroke	o	n/a
212.153	0.03	424306	keystroke	n	n/a
212.648	0.0905	425296	keystroke	Key.enter	n/a
212.745	11.47	425490	prompt	n/a	model ciao vocational saudi\n
213.7285	0.0745	427457	keystroke	m	n/a
213.893	0.09	427786	keystroke	o	n/a
213.998	0.135	427996	keystroke	d	n/a
214.118	0.105	428236	keystroke	e	n/a
214.238	0.09	428476	keystroke	l	n/a
214.568	0.075	429136	keystroke	Key.space	n/a
214.9285	0.0895	429857	keystroke	c	n/a
215.0935	0.074	430187	keystroke	i	n/a
215.2135	0.075	430427	keystroke	a	n/a
215.3935	0.075	430787	keystroke	o	n/a
215.6325	0.076	431265	keystroke	Key.space	n/a
216.323	0.09	432646	keystroke	v	n/a
216.4735	0.06	432947	keystroke	a	n/a
216.848	0.1505	433696	keystroke	Key.backspace	n/a
217.268	0.1055	434536	keystroke	o	n/a
217.4935	0.105	434987	keystroke	c	n/a
217.613	0.1355	435226	keystroke	a	n/a
217.913	0.09	435826	keystroke	t	n/a
218.0335	0.225	436067	keystroke	u	n/a
218.1235	0.1205	436247	keystroke	i	n/a
218.1685	0.15	436337	keystroke	b	n/a
218.6035	0.045	437207	keystroke	=	n/a
218.7535	0.0605	437507	keystroke	=	n/a
218.9035	0.044	437807	keystroke	=	n/a
219.0675	0.075	438135	keystroke	Key.backspace	n/a
219.218	0.0745	438436	keystroke	Key.backspace	n/a
219.3525	0.2105	438705	keystroke	Key.backspace	n/a
219.6235	0.09	439247	keystroke	Key.backspace	n/a
219.773	0.1355	439546	keystroke	Key.backspace	n/a
220.238	0.105	440476	keystroke	Key.backspace	n/a
221.093	0.2555	442186	keystroke	i	n/a
221.198	0.151	442396	keystroke	o	n/a
221.303	0.1355	442606	keystroke	n	n/a
221.6785	0.135	443357	keystroke	a	n/a
221.7985	0.105	443597	keystroke	l	n/a
222.428	0.0755	444856	keystroke	Key.space	n/a
223.118	0.0905	446236	keystroke	s	n/a
223.1935	0.044	446387	keystroke	a	n/a
223.3135	0.09	446627	keystroke	u	n/a
223.7485	0.0755	447497	keystroke	d	n/a
223.839	0.105	447678	keystroke	i	n/a
224.1385	0.075	448277	keystroke	Key.enter	n/a
224.2195	10.2405	448439	prompt	n/a	sheer morocco inserted assembly\n
225.0685	0.06	450137	keystroke	s	n/a
225.189	0.074	450378	keystroke	h	n/a
225.338	0.045	450676	keystroke	e	n/a
225.488	0.09	450976	keystroke	e	n/a
225.6085	0.1045	451217	keystroke	r	n/a
225.773	0.0905	451546	keystroke	Key.space	n/a
226.0585	0.06	452117	keystroke	m	n/a
226.2385	0.15	452477	keystroke	o	n/a
227.0925	0.1365	454185	keystroke	r	n/a
227.3635	0.1045	454727	keystroke	o	n/a
227.8435	0.075	455687	keystroke	c	n/a
227.9935	0.105	455987	keystroke	c	n/a
228.1135	0.135	456227	keystroke	o	n/a
228.518	0.075	457036	keystroke	Key.space	n/a
228.8635	0.1345	457727	keystroke	i	n/a
228.9385	0.1195	457877	keystroke	n	n/a
229.073	0.106	458146	keystroke	s	n/a
229.4035	0.12	458807	keystroke	e	n/a
229.7935	0.1205	459587	keystroke	r	n/a
230.078	0.1055	460156	keystroke	t	n/a
230.304	0.1495	460608	keystroke	e	n/a
230.8285	0.105	461657	keystroke	f	n/a
231.6385	0.1195	463277	keystroke	Key.backspace	n/a
232.0435	0.0745	464087	keystroke	d	n/a
232.163	0.075	464326	keystroke	Key.space	n/a
232.3885	0.1345	464777	keystroke	a	n/a
232.6285	0.06	465257	keystroke	s	n/a
232.7935	0.089	465587	keystroke	s	n/a
233.1385	0.09	466277	keystroke	e	n/a
233.4235	0.09	466847	keystroke	m	n/a
233.723	0.075	467446	keystroke	b	n/a
233.933	0.121	467866	keystroke	l	n/a
234.1735	0.075	468347	keystroke	y	n/a
234.3535	0.105	468707	keystroke	Key.enter	n/a
234.465	12.685	468930	prompt	n/a	respectively storage identified contacting\n
235.4785	0.1195	470957	keystroke	r	n/a
235.538	0.135	471076	keystroke	e	n/a
235.7935	0.09	471587	keystroke	s	n/a
236.2135	0.105	472427	keystroke	p	n/a
236.3935	0.12	472787	keystroke	e	n/a
236.6935	0.075	473387	keystroke	c	n/a
236.918	0.075	473836	keystroke	t	n/a
237.0385	0.075	474077	keystroke	i	n/a
237.2185	0.1205	474437	keystroke	v	n/a
237.4135	0.12	474827	keystroke	e	n/a
238.3435	0.0745	476687	keystroke	l	n/a
238.5085	0.075	477017	keystroke	y	n/a
238.6435	0.075	477287	keystroke	Key.space	n/a
239.348	0.135	478696	keystroke	s	n/a
239.6335	0.09	479267	keystroke	t	n/a
239.8285	0.09	479657	keystroke	o	n/a
240.054	0.09	480108	keystroke	r	n/a
240.2785	0.12	480557	keystroke	a	n/a
240.6835	0.105	481367	keystroke	g	n/a
240.8635	0.105	481727	keystroke	e	n/a
241.4035	0.0595	482807	keystroke	Key.space	n/a
241.7785	0.0745	483557	keystroke	i	n/a
242.048	0.0155	484096	keystroke	d	n/a
242.0785	0.09	484157	keystroke	e	n/a
242.2435	0.0745	484487	keystroke	n	n/a
242.499	0.06	484998	keystroke	t	n/a
242.6635	0.1045	485327	keystroke	i	n/a
242.8585	0.059	485717	keystroke	f	n/a
243.024	0.0745	486048	keystroke	i	n/a
243.263	0.135	486526	keystroke	e	n/a
243.413	0.1355	486826	keystroke	d	n/a
244.2385	0.06	488477	keystroke	Key.space	n/a
244.7185	0.075	489437	keystroke	c	n/a
244.838	0.1205	489676	keystroke	o	n/a
244.974	0.1195	489948	keystroke	n	n/a
245.1385	0.091	490277	keystroke	t	n/a
245.3185	0.105	490637	keystroke	a	n/a
245.6335	0.075	491267	keystroke	c	n/a
246.473	0.06	492946	keystroke	t	n/a
246.713	0.135	493426	keystroke	i	n/a
246.7885	0.135	493577	keystroke	n	n/a
246.9085	0.0745	493817	keystroke	g	n/a
247.0425	0.105	494085	keystroke	Key.enter	n/a
247.1545	8.3655	494309	prompt	n/a	resolved harry regression interstate\n
247.9425	0.106	495885	keystroke	r	n/a
248.0035	0.134	496007	keystroke	e	n/a
248.2425	0.076	496485	keystroke	s	n/a
248.424	0.0745	496848	keystroke	o	n/a
248.6485	0.0755	497297	keystroke	l	n/a
248.8285	0.0755	497657	keystroke	v	n/a
249.0085	0.149	498017	keystroke	e	n/a
249.1285	0.1045	498257	keystroke	d	n/a
249.323	0.0755	498646	keystroke	Key.space	n/a
249.623	0.105	499246	keystroke	h	n/a
249.713	0.09	499426	keystroke	a	n/a
249.9085	0.045	499817	keystroke	r	n/a
250.0575	0.091	500115	keystroke	r	n/a
250.313	0.106	500626	keystroke	y	n/a
250.5985	0.09	501197	keystroke	Key.space	n/a
250.9285	0.12	501857	keystroke	r	n/a
251.0185	0.1205	502037	keystroke	e	n/a
251.2585	0.0895	502517	keystroke	g	n/a
251.4085	0.105	502817	keystroke	r	n/a
251.843	0.045	503686	keystroke	e	n/a
252.0085	0.0445	504017	keystroke	s	n/a
252.128	0.0905	504256	keystroke	s	n/a
252.2485	0.195	504497	keystroke	i	n/a
252.308	0.15	504616	keystroke	o	n/a
252.3985	0.1195	504797	keystroke	n	n/a
252.7585	0.0745	505517	keystroke	Key.space	n/a
252.998	0.1205	505996	keystroke	i	n/a
253.073	0.12	506146	keystroke	n	n/a
253.208	0.0755	506416	keystroke	s	n/a
253.4485	0.1195	506897	keystroke	t	n/a
253.5535	0.1955	507107	keystroke	e	n/a
253.689	0.119	507378	keystroke	r	n/a
253.973	0.1805	507946	keystroke	s	n/a
254.408	0.105	508816	keystroke	t	n/a
254.573	0.1205	509146	keystroke	a	n/a
254.7235	0.15	509447	keystroke	t	n/a
254.8435	0.105	509687	keystroke	e	n/a
255.4285	0.09	510857	keystroke	Key.enter	n/a
255.5245	8.4705	511049	prompt	n/a	peace respond suspension carrying\n
256.3885	0.075	512777	keystroke	p	n/a
256.4785	0.165	512957	keystroke	e	n/a
256.584	0.1645	513168	keystroke	a	n/a
256.8225	0.106	513645	keystroke	c	n/a
256.9725	0.09	513945	keystroke	e	n/a
257.1385	0.0895	514277	keystroke	Key.space	n/a
257.468	0.075	514936	keystroke	s	n/a
257.859	0.0895	515718	keystroke	Key.backspace	n/a
257.9935	0.15	515987	keystroke	r	n/a
258.0535	0.149	516107	keystroke	e	n/a
258.398	0.09	516796	keystroke	s	n/a
258.7285	0.074	517457	keystroke	p	n/a
258.908	0.105	517816	keystroke	o	n/a
259.088	0.105	518176	keystroke	n	n/a
259.268	0.1205	518536	keystroke	d	n/a
259.9585	0.0745	519917	keystroke	Key.space	n/a
260.3335	0.0745	520667	keystroke	s	n/a
260.498	0.0905	520996	keystroke	u	n/a
260.6185	0.075	521237	keystroke	s	n/a
260.873	0.1195	521746	keystroke	p	n/a
261.0685	0.075	522137	keystroke	e	n/a
261.3075	0.015	522615	keystroke	n	n/a
261.533	0.06	523066	keystroke	s	n/a
261.6375	0.2105	523275	keystroke	i	n/a
261.713	0.1205	523426	keystroke	o	n/a
261.773	0.12	523546	keystroke	n	n/a
262.0725	0.06	524145	keystroke	Key.space	n/a
262.673	0.09	525346	keystroke	c	n/a
262.8085	0.1045	525617	keystroke	a	n/a
262.9875	0.075	525975	keystroke	r	n/a
263.153	0.075	526306	keystroke	r	n/a
263.318	0.075	526636	keystroke	y	n/a
263.573	0.1205	527146	keystroke	i	n/a
263.6335	0.15	527267	keystroke	n	n/a
263.753	0.075	527506	keystroke	g	n/a
263.903	0.0895	527806	keystroke	Key.enter	n/a
263.9985	7.842	527997	prompt	n/a	severe investments insertion topics\n
264.7885	0.075	529577	keystroke	s	n/a
264.983	0.09	529966	keystroke	e	n/a
265.208	0.0755	530416	keystroke	v	n/a
265.3725	0.1205	530745	keystroke	e	n/a
265.523	0.135	531046	keystroke	r	n/a
265.628	0.1055	531256	keystroke	e	n/a
265.958	0.06	531916	keystroke	Key.space	n/a
266.318	0.12	532636	keystroke	i	n/a
266.3935	0.105	532787	keystroke	n	n/a
266.663	0.0755	533326	keystroke	v	n/a
266.8135	0.1045	533627	keystroke	e	n/a
267.0535	0.06	534107	keystroke	s	n/a
267.2635	0.0595	534527	keystroke	t	n/a
267.3985	0.09	534797	keystroke	m	n/a
267.5185	0.0895	535037	keystroke	e	n/a
267.623	0.09	535246	keystroke	n	n/a
267.698	0.09	535396	keystroke	t	n/a
267.848	0.09	535696	keystroke	s	n/a
268.0585	0.074	536117	keystroke	Key.space	n/a
268.703	0.1045	537406	keystroke	i	n/a
268.763	0.1205	537526	keystroke	n	n/a
268.8675	0.105	537735	keystroke	s	n/a
269.1685	0.1195	538337	keystroke	e	n/a
269.333	0.09	538666	keystroke	r	n/a
269.558	0.06	539116	keystroke	t	n/a
269.6935	0.1945	539387	keystroke	i	n/a
269.753	0.12	539506	keystroke	o	n/a
269.798	0.15	539596	keystroke	n	n/a
270.083	0.0755	540166	keystroke	Key.space	n/a
270.638	0.15	541276	keystroke	t	n/a
270.863	0.0755	541726	keystroke	o	n/a
271.043	0.09	542086	keystroke	p	n/a
271.313	0.0755	542626	keystroke	i	n/a
271.4785	0.075	542957	keystroke	c	n/a
271.6275	0.091	543255	keystroke	s	n/a
271.763	0.0745	543526	keystroke	Key.enter	n/a
271.8485	7.7165	543697	prompt	n/a	scripts daren't tied hybrid\n
272.5585	0.0595	545117	keystroke	s	n/a
272.738	0.0605	545476	keystroke	c	n/a
272.9035	0.06	545807	keystroke	r	n/a
273.0385	0.075	546077	keystroke	i	n/a
273.233	0.1055	546466	keystroke	p	n/a
273.3685	0.06	546737	keystroke	t	n/a
273.6835	0.104	547367	keystroke	s	n/a
273.938	0.0745	547876	keystroke	Key.space	n/a
274.5525	0.12	549105	keystroke	d	n/a
274.7325	0.09	549465	keystroke	a	n/a
275.438	0.165	550876	keystroke	r	n/a
275.5435	0.1195	551087	keystroke	e	n/a
275.693	0.075	551386	keystroke	n	n/a
275.993	0.09	551986	keystroke	'	n/a
276.1575	0.06	552315	keystroke	t	n/a
276.2775	0.0905	552555	keystroke	Key.space	n/a
277.238	0.0595	554476	keystroke	t	n/a
277.418	0.075	554836	keystroke	i	n/a
277.478	0.09	554956	keystroke	e	n/a
277.718	0.105	555436	keystroke	d	n/a
277.9125	0.06	555825	keystroke	Key.space	n/a
278.438	0.075	556876	keystroke	h	n/a
278.618	0.075	557236	keystroke	y	n/a
278.828	0.09	557656	keystroke	b	n/a
279.068	0.06	558136	keystroke	r	n/a
279.173	0.09	558346	keystroke	i	n/a
279.353	0.075	558706	keystroke	d	n/a
279.518	0.045	559036	keystroke	Key.enter	n/a
279.5705	7.479	559141	prompt	n/a	offer rendering sugar copying\n
280.4785	0.044	560957	keystroke	o	n/a
280.643	0.0605	561286	keystroke	f	n/a
280.7925	0.0905	561585	keystroke	f	n/a
280.9275	0.151	561855	keystroke	e	n/a
281.0475	0.0905	562095	keystroke	r	n/a
281.198	0.075	562396	keystroke	Key.space	n/a
281.648	0.0905	563296	keystroke	r	n/a
281.7075	0.135	563415	keystroke	e	n/a
281.9775	0.016	563955	keystroke	d	n/a
282.3985	0.0745	564797	keystroke	Key.backspace	n/a
282.7125	0.076	565425	keystroke	n	n/a
282.9085	0.074	565817	keystroke	d	n/a
282.998	0.1345	565996	keystroke	e	n/a
283.1485	0.074	566297	keystroke	r	n/a
283.3425	0.1505	566685	keystroke	i	n/a
283.4175	0.12	566835	keystroke	n	n/a
283.5235	0.089	567047	keystroke	g	n/a
283.6575	0.075	567315	keystroke	Key.space	n/a
284.453	0.0605	568906	keystroke	s	n/a
284.618	0.06	569236	keystroke	u	n/a
284.873	0.105	569746	keystroke	g	n/a
285.0525	0.105	570105	keystroke	a	n/a
285.2475	0.09	570495	keystroke	r	n/a
285.458	0.09	570916	keystroke	Key.space	n/a
285.7285	0.074	571457	keystroke	c	n/a
285.923	0.075	571846	keystroke	o	n/a
286.1185	0.0895	572237	keystroke	p	n/a
286.5085	0.075	573017	keystroke	y	n/a
286.613	0.1355	573226	keystroke	i	n/a
286.6885	0.135	573377	keystroke	n	n/a
286.8385	0.075	573677	keystroke	g	n/a
286.9585	0.0895	573917	keystroke	Key.enter	n/a
287.0565	6.3225	574113	prompt	n/a	dancing have website claims\n
287.798	0.0905	575596	keystroke	d	n/a
288.008	0.105	576016	keystroke	a	n/a
288.1875	0.0905	576375	keystroke	n	n/a
288.338	0.0905	576676	keystroke	c	n/a
288.5635	0.119	577127	keystroke	i	n/a
288.7275	0.106	577455	keystroke	n	n/a
288.863	0.06	577726	keystroke	g	n/a
288.9675	0.105	577935	keystroke	Key.space	n/a
289.8385	0.105	579677	keystroke	h	n/a
289.9275	0.106	579855	keystroke	a	n/a
290.078	0.0895	580156	keystroke	v	n/a
290.183	0.045	580366	keystroke	e	n/a
290.273	0.09	580546	keystroke	Key.space	n/a
290.498	0.06	580996	keystroke	w	n/a
290.603	0.0905	581206	keystroke	e	n/a
290.798	0.075	581596	keystroke	b	n/a
290.903	0.105	581806	keystroke	s	n/a
291.038	0.0905	582076	keystroke	i	n/a
291.188	0.1045	582376	keystroke	t	n/a
291.2775	0.12	582555	keystroke	e	n/a
291.4575	0.0755	582915	keystroke	Key.space	n/a
292.298	0.09	584596	keystroke	c	n/a
292.4925	0.0905	584985	keystroke	l	n/a
292.613	0.09	585226	keystroke	a	n/a
292.733	0.135	585466	keystroke	i	n/a
292.838	0.105	585676	keystroke	m	n/a
293.063	0.075	586126	keystroke	s	n/a
293.303	0.0745	586606	keystroke	Key.enter	n/a
293.3835	6.716	586767	prompt	n/a	chest prison december latter\n
294.233	0.0745	588466	keystroke	c	n/a
294.3375	0.0755	588675	keystroke	h	n/a
294.428	0.09	588856	keystroke	e	n/a
294.608	0.1045	589216	keystroke	s	n/a
294.833	0.0755	589666	keystroke	t	n/a
294.968	0.09	589936	keystroke	Key.space	n/a
295.628	0.09	591256	keystroke	p	n/a
295.8675	0.076	591735	keystroke	r	n/a
296.0035	0.075	592007	keystroke	i	n/a
296.1235	0.074	592247	keystroke	s	n/a
296.3625	0.151	592725	keystroke	o	n/a
296.483	0.15	592966	keystroke	n	n/a
296.783	0.075	593566	keystroke	Key.space	n/a
297.353	0.105	594706	keystroke	d	n/a
297.5185	0.134	595037	keystroke	e	n/a
297.743	0.0895	595486	keystroke	c	n/a
297.8635	0.1045	595727	keystroke	e	n/a
298.013	0.0895	596026	keystroke	m	n/a
298.2835	0.06	596567	keystroke	b	n/a
298.3275	0.121	596655	keystroke	e	n/a
298.463	0.105	596926	keystroke	r	n/a
298.628	0.09	597256	keystroke	Key.space	n/a
299.2875	0.0905	598575	keystroke	l	n/a
299.3785	0.0895	598757	keystroke	a	n/a
299.573	0.0595	599146	keystroke	t	n/a
299.693	0.09	599386	keystroke	t	n/a
299.828	0.1355	599656	keystroke	e	n/a
299.933	0.0745	599866	keystroke	r	n/a
300.0225	0.075	600045	keystroke	Key.enter	n/a
300.1045	6.5805	600209	prompt	n/a	neutral ride facts garbage\n
300.863	0.0745	601726	keystroke	n	n/a
300.9385	0.089	601877	keystroke	e	n/a
301.1325	0.075	602265	keystroke	u	n/a
301.4025	0.09	602805	keystroke	t	n/a
301.598	0.0595	603196	keystroke	r	n/a
301.7775	0.09	603555	keystroke	a	n/a
301.9275	0.106	603855	keystroke	l	n/a
302.4225	0.015	604845	keystroke	Key.space	n/a
302.7975	0.075	605595	keystroke	r	n/a
302.963	0.0755	605926	keystroke	i	n/a
303.143	0.09	606286	keystroke	d	n/a
303.263	0.105	606526	keystroke	e	n/a
303.353	0.09	606706	keystroke	Key.space	n/a
303.503	0.105	607006	keystroke	f	n/a
303.638	0.1045	607276	keystroke	a	n/a
303.878	0.09	607756	keystroke	c	n/a
304.328	0.0905	608656	keystroke	t	n/a
304.568	0.0755	609136	keystroke	s	n/a
304.687	0.0615	609374	keystroke	Key.space	n/a
304.958	0.075	609916	keystroke	g	n/a
305.0475	0.1355	610095	keystroke	a	n/a
305.228	0.09	610456	keystroke	r	n/a
305.7535	0.0595	611507	keystroke	b	n/a
305.8425	0.106	611685	keystroke	a	n/a
306.128	0.1055	612256	keystroke	g	n/a
306.218	0.1055	612436	keystroke	e	n/a
306.593	0.0895	613186	keystroke	Key.enter	n/a
306.6895	6.82	613379	prompt	n/a	pirates walking form defend\n
307.598	0.09	615196	keystroke	p	n/a
307.823	0.075	615646	keystroke	i	n/a
307.943	0.1045	615886	keystroke	r	n/a
308.078	0.12	616156	keystroke	a	n/a
308.2275	0.1205	616455	keystroke	t	n/a
308.363	0.149	616726	keystroke	e	n/a
308.7675	0.0605	617535	keystroke	s	n/a
308.978	0.075	617956	keystroke	Key.space	n/a
309.293	0.09	618586	keystroke	w	n/a
309.503	0.09	619006	keystroke	a	n/a
309.653	0.09	619306	keystroke	l	n/a
309.848	0.075	619696	keystroke	k	n/a
309.983	0.135	619966	keystroke	i	n/a
310.088	0.105	620176	keystroke	n	n/a
310.178	0.09	620356	keystroke	g	n/a
310.328	0.1045	620656	keystroke	Key.space	n/a
311.138	0.09	622276	keystroke	f	n/a
311.288	0.105	622576	keystroke	o	n/a
311.513	0.0905	623026	keystroke	r	n/a
311.663	0.105	623326	keystroke	m	n/a
311.888	0.06	623776	keystroke	Key.space	n/a
312.6225	0.105	625245	keystroke	d	n/a
312.7285	0.1045	625457	keystroke	e	n/a
312.863	0.105	625726	keystroke	f	n/a
312.9825	0.12	625965	keystroke	e	n/a
313.118	0.0595	626236	keystroke	n	n/a
313.2825	0.09	626565	keystroke	d	n/a
313.4175	0.09	626835	keystroke	Key.enter	n/a
313.513	8.3065	627026	prompt	n/a	justin served julian recognized\n
314.3185	0.0895	628637	keystroke	j	n/a
314.498	0.0895	628996	keystroke	u	n/a
314.558	0.09	629116	keystroke	s	n/a
314.7825	0.0785	629565	keystroke	t	n/a
314.861	0.147	629722	keystroke	i	n/a
314.948	0.135	629896	keystroke	n	n/a
315.217	0.076	630434	keystroke	Key.space	n/a
315.563	0.0905	631126	keystroke	s	n/a
315.788	0.09	631576	keystroke	e	n/a
315.8925	0.09	631785	keystroke	r	n/a
316.1775	0.045	632355	keystroke	v	n/a
316.2825	0.12	632565	keystroke	e	n/a
316.538	0.105	633076	keystroke	d	n/a
316.778	0.06	633556	keystroke	Key.space	n/a
317.3185	0.045	634637	keystroke	j	n/a
317.4385	0.074	634877	keystroke	u	n/a
317.7675	0.0755	635535	keystroke	l	n/a
318.009	0.044	636018	keystroke	i	n/a
318.098	0.075	636196	keystroke	a	n/a
318.218	0.12	636436	keystroke	n	n/a
318.4875	0.0755	636975	keystroke	Key.space	n/a
318.8485	0.134	637697	keystroke	r	n/a
318.9675	0.12	637935	keystroke	e	n/a
319.253	0.0895	638506	keystroke	c	n/a
319.463	0.0745	638926	keystroke	o	n/a
319.7485	0.074	639497	keystroke	g	n/a
319.928	0.0605	639856	keystroke	n	n/a
320.1075	0.075	640215	keystroke	i	n/a
320.483	0.075	640966	keystroke	z	n/a
320.9475	0.1055	641895	keystroke	e	n/a
321.2925	0.106	642585	keystroke	d	n/a
321.758	0.0595	643516	keystroke	Key.enter	n/a
321.823	11.7415	643646	prompt	n/a	pichunter vitamins eval ribbon\n
322.853	0.09	645706	keystroke	p	n/a
323.1075	0.1055	646215	keystroke	i	n/a
323.858	0.0895	647716	keystroke	c	n/a
324.008	0.135	648016	keystroke	h	n/a
324.248	0.105	648496	keystroke	u	n/a
324.698	0.0745	649396	keystroke	n	n/a
324.9975	0.1055	649995	keystroke	t	n/a
325.133	0.1645	650266	keystroke	e	n/a
325.238	0.1045	650476	keystroke	r	n/a
325.5525	0.1055	651105	keystroke	Key.space	n/a
326.318	0.0755	652636	keystroke	v	n/a
326.5135	0.0745	653027	keystroke	i	n/a
326.6175	0.09	653235	keystroke	t	n/a
326.7825	0.09	653565	keystroke	m	n/a
326.8875	0.075	653775	keystroke	a	n/a
327.3075	0.105	654615	keystroke	Key.backspace	n/a
327.6675	0.2105	655335	keystroke	i	n/a
328.1025	0.075	656205	keystroke	Key.backspace	n/a
328.448	0.0905	656896	keystroke	Key.backspace	n/a
329.018	0.0745	658036	keystroke	a	n/a
329.2725	0.0755	658545	keystroke	m	n/a
329.4075	0.1205	658815	keystroke	i	n/a
329.4975	0.105	658995	keystroke	n	n/a
329.5875	0.0905	659175	keystroke	s	n/a
329.768	0.06	659536	keystroke	Key.space	n/a
330.713	0.09	661426	keystroke	e	n/a
330.908	0.1495	661816	keystroke	v	n/a
331.3275	0.075	662655	keystroke	a	n/a
331.4325	0.106	662865	keystroke	l	n/a
332.003	0.0745	664006	keystroke	Key.space	n/a
332.408	0.045	664816	keystroke	r	n/a
332.558	0.105	665116	keystroke	i	n/a
332.798	0.0595	665596	keystroke	b	n/a
332.9175	0.09	665835	keystroke	b	n/a
333.112	0.151	666224	keystroke	o	n/a
333.203	0.1495	666406	keystroke	n	n/a
333.488	0.074	666976	keystroke	Key.enter	n/a
333.569	15.4755	667138	prompt	n/a	congressional islands discovered establishment\n
334.7185	0.0735	669437	keystroke	c	n/a
334.853	0.1045	669706	keystroke	o	n/a
335.018	0.0895	670036	keystroke	n	n/a
335.2125	0.0905	670425	keystroke	g	n/a
335.347	0.0905	670694	keystroke	r	n/a
335.663	0.0745	671326	keystroke	e	n/a
335.9025	0.0455	671805	keystroke	s	n/a
336.038	0.075	672076	keystroke	s	n/a
336.173	0.225	672346	keystroke	i	n/a
336.218	0.165	672436	keystroke	o	n/a
336.3385	0.089	672677	keystroke	n	n/a
336.3675	0.0455	672735	keystroke	b	n/a
337.058	0.09	674116	keystroke	=	n/a
337.6725	0.0595	675345	keystroke	Key.backspace	n/a
337.7925	0.1205	675585	keystroke	Key.backspace	n/a
338.228	0.0895	676456	keystroke	a	n/a
338.2725	0.1055	676545	keystroke	l	n/a
338.978	0.075	677956	keystroke	Key.space	n/a
339.3825	0.105	678765	keystroke	s	n/a
340.012	0.06	680024	keystroke	Key.backspace	n/a
340.463	0.09	680926	keystroke	i	n/a
340.568	0.075	681136	keystroke	s	n/a
340.702	0.076	681404	keystroke	l	n/a
340.763	0.105	681526	keystroke	a	n/a
340.928	0.075	681856	keystroke	n	n/a
341.078	0.135	682156	keystroke	d	n/a
341.1975	0.0905	682395	keystroke	s	n/a
341.348	0.0895	682696	keystroke	Key.space	n/a
342.083	0.09	684166	keystroke	d	n/a
342.292	0.076	684584	keystroke	i	n/a
342.503	0.09	685006	keystroke	s	n/a
342.7425	0.075	685485	keystroke	c	n/a
342.968	0.0595	685936	keystroke	o	n/a
343.2975	0.046	686595	keystroke	v	n/a
343.433	0.134	686866	keystroke	e	n/a
343.582	0.121	687164	keystroke	r	n/a
343.718	0.105	687436	keystroke	e	n/a
343.973	0.09	687946	keystroke	d	n/a
344.708	0.0745	689416	keystroke	Key.space	n/a
345.143	0.075	690286	keystroke	e	n/a
345.368	0.105	690736	keystroke	s	n/a
345.5925	0.0755	691185	keystroke	t	n/a
345.7725	0.0755	691545	keystroke	a	n/a
346.013	0.015	692026	keystroke	b	n/a
346.1325	0.075	692265	keystroke	l	n/a
346.3125	0.075	692625	keystroke	i	n/a
346.4175	0.06	692835	keystroke	s	n/a
346.613	0.0745	693226	keystroke	h	n/a
346.8525	0.0905	693705	keystroke	m	n/a
346.9725	0.09	693945	keystroke	e	n/a
347.0925	0.06	694185	keystroke	n	n/a
347.183	0.0895	694366	keystroke	t	n/a
347.8125	0.06	695625	keystroke	'	n/a
348.757	0.06	697514	keystroke	Key.backspace	n/a
348.982	0.06	697964	keystroke	Key.enter	n/a
349.05	8.7845	698100	prompt	n/a	surrounding implications top tribune\n
349.8985	0.059	699797	keystroke	s	n/a
350.0775	0.075	700155	keystroke	u	n/a
350.843	0.045	701686	keystroke	r	n/a
350.978	0.075	701956	keystroke	r	n/a
351.578	0.074	703156	keystroke	o	n/a
351.787	0.0905	703574	keystroke	u	n/a
351.8925	0.1355	703785	keystroke	n	n/a
352.0725	0.09	704145	keystroke	d	n/a
352.2525	0.1205	704505	keystroke	i	n/a
352.328	0.134	704656	keystroke	n	n/a
352.447	0.0605	704894	keystroke	g	n/a
352.597	0.06	705194	keystroke	Key.space	n/a
353.332	0.105	706664	keystroke	i	n/a
353.422	0.1805	706844	keystroke	m	n/a
353.7525	0.105	707505	keystroke	p	n/a
353.7975	0.12	707595	keystroke	l	n/a
354.038	0.075	708076	keystroke	i	n/a
354.203	0.105	708406	keystroke	c	n/a
354.353	0.135	708706	keystroke	a	n/a
354.578	0.06	709156	keystroke	t	n/a
354.653	0.21	709306	keystroke	i	n/a
354.7275	0.1205	709455	keystroke	o	n/a
354.7875	0.135	709575	keystroke	n	n/a
354.998	0.0745	709996	keystroke	s	n/a
355.1925	0.06	710385	keystroke	Key.space	n/a
355.9275	0.075	711855	keystroke	t	n/a
356.1225	0.1645	712245	keystroke	o	n/a
356.243	0.105	712486	keystroke	p	n/a
356.512	0.0755	713024	keystroke	Key.space	n/a
356.693	0.134	713386	keystroke	t	n/a
356.797	0.091	713594	keystroke	r	n/a
356.932	0.09	713864	keystroke	i	n/a
357.173	0.075	714346	keystroke	b	n/a
357.338	0.0905	714676	keystroke	u	n/a
357.533	0.135	715066	keystroke	t	n/a
357.622	0.121	715244	keystroke	e	n/a
357.758	0.075	715516	keystroke	Key.enter	n/a
357.84	9.5345	715680	prompt	n/a	flex chair oliver salvation\n
358.9275	0.09	717855	keystroke	f	n/a
359.1075	0.075	718215	keystroke	l	n/a
359.1675	0.105	718335	keystroke	e	n/a
359.453	0.075	718906	keystroke	x	n/a
359.647	0.076	719294	keystroke	Key.space	n/a
360.157	0.06	720314	keystroke	h	n/a
360.547	0.09	721094	keystroke	Key.backspace	n/a
360.682	0.121	721364	keystroke	c	n/a
360.817	0.1215	721634	keystroke	h	n/a
360.8935	0.0885	721787	keystroke	a	n/a
361.087	0.09	722174	keystroke	i	n/a
361.5825	0.0905	723165	keystroke	r	n/a
361.837	0.09	723674	keystroke	Key.space	n/a
362.3035	0.074	724607	keystroke	o	n/a
362.483	0.06	724966	keystroke	l	n/a
362.6925	0.076	725385	keystroke	i	n/a
362.827	0.076	725654	keystroke	v	n/a
363.052	0.1205	726104	keystroke	e	n/a
363.157	0.091	726314	keystroke	r	n/a
363.307	0.09	726614	keystroke	Key.space	n/a
363.7125	0.09	727425	keystroke	s	n/a
363.8925	0.0755	727785	keystroke	a	n/a
364.012	0.0905	728024	keystroke	l	n/a
364.2675	0.09	728535	keystroke	v	n/a
364.3875	0.09	728775	keystroke	a	n/a
364.5975	0.0755	729195	keystroke	t	n/a
364.7325	0.24	729465	keystroke	i	n/a
364.8675	0.165	729735	keystroke	n	n/a
364.8825	0.105	729765	keystroke	o	n/a
366.247	0.0905	732494	keystroke	Key.backspace	n/a
366.4275	0.0895	732855	keystroke	Key.backspace	n/a
367.0275	0.045	734055	keystroke	o	n/a
367.0875	0.105	734175	keystroke	n	n/a
367.2975	0.075	734595	keystroke	Key.enter	n/a
367.381	10.133	734762	prompt	n/a	encounter travelling christian respect\n
368.2575	0.105	736515	keystroke	e	n/a
368.5875	0.12	737175	keystroke	n	n/a
368.7825	0.09	737565	keystroke	c	n/a
368.8875	0.09	737775	keystroke	o	n/a
369.1125	0.0745	738225	keystroke	u	n/a
369.202	0.136	738404	keystroke	n	n/a
369.3525	0.0905	738705	keystroke	t	n/a
369.472	0.15	738944	keystroke	e	n/a
369.577	0.09	739154	keystroke	r	n/a
369.7575	0.06	739515	keystroke	Key.space	n/a
370.3425	0.12	740685	keystroke	t	n/a
370.4775	0.1045	740955	keystroke	r	n/a
370.672	0.09	741344	keystroke	a	n/a
370.8825	0.0745	741765	keystroke	v	n/a
371.0475	0.0895	742095	keystroke	e	n/a
371.2125	0.0745	742425	keystroke	l	n/a
371.3625	0.1045	742725	keystroke	l	n/a
371.6025	0.135	743205	keystroke	i	n/a
371.678	0.134	743356	keystroke	n	n/a
371.8275	0.06	743655	keystroke	g	n/a
371.9625	0.0745	743925	keystroke	Key.space	n/a
372.9375	0.06	745875	keystroke	c	n/a
373.1475	0.09	746295	keystroke	h	n/a
373.3125	0.06	746625	keystroke	r	n/a
373.4325	0.105	746865	keystroke	i	n/a
373.5525	0.105	747105	keystroke	s	n/a
373.777	0.061	747554	keystroke	t	n/a
373.9125	0.2405	747825	keystroke	i	n/a
374.137	0.105	748274	keystroke	a	n/a
374.332	0.1205	748664	keystroke	n	n/a
374.8725	0.06	749745	keystroke	Key.space	n/a
375.353	0.105	750706	keystroke	r	n/a
375.428	0.12	750856	keystroke	e	n/a
375.668	0.059	751336	keystroke	s	n/a
375.773	0.0895	751546	keystroke	p	n/a
376.883	0.1495	753766	keystroke	e	n/a
377.078	0.0895	754156	keystroke	c	n/a
377.303	0.0595	754606	keystroke	t	n/a
377.4375	0.075	754875	keystroke	Key.enter	n/a
377.519	8.485	755038	prompt	n/a	forty reduces leave travel\n
378.7575	0.0895	757515	keystroke	f	n/a
378.937	0.076	757874	keystroke	o	n/a
379.028	0.074	758056	keystroke	r	n/a
379.3585	0.074	758717	keystroke	t	n/a
379.538	0.09	759076	keystroke	y	n/a
379.823	0.0745	759646	keystroke	Key.space	n/a
380.198	0.09	760396	keystroke	r	n/a
380.258	0.165	760516	keystroke	e	n/a
380.452	0.076	760904	keystroke	d	n/a
380.6175	0.075	761235	keystroke	u	n/a
380.7675	0.0755	761535	keystroke	c	n/a
380.9925	0.09	761985	keystroke	e	n/a
381.2775	0.0905	762555	keystroke	s	n/a
382.747	0.06	765494	keystroke	Key.space	n/a
383.258	0.074	766516	keystroke	l	n/a
383.2875	0.15	766575	keystroke	e	n/a
383.3775	0.135	766755	keystroke	a	n/a
383.5575	0.12	767115	keystroke	v	n/a
383.6925	0.09	767385	keystroke	e	n/a
383.8275	0.0445	767655	keystroke	Key.space	n/a
384.4565	0.136	768913	keystroke	t	n/a
384.5325	0.21	769065	keystroke	r	n/a
384.712	0.105	769424	keystroke	a	n/a
385.3425	0.0455	770685	keystroke	v	n/a
385.552	0.09	771104	keystroke	e	n/a
385.658	0.134	771316	keystroke	l	n/a
385.927	0.075	771854	keystroke	Key.enter	n/a
386.01	9.189	772020	prompt	n/a	wikipedia appeared starts supply\n
387.0525	0.015	774105	keystroke	w	n/a
387.113	0.0895	774226	keystroke	i	n/a
387.3225	0.075	774645	keystroke	k	n/a
387.472	0.105	774944	keystroke	i	n/a
388.1775	0.075	776355	keystroke	p	n/a
388.328	0.119	776656	keystroke	e	n/a
388.5825	0.0895	777165	keystroke	d	n/a
388.7025	0.0905	777405	keystroke	i	n/a
388.838	0.074	777676	keystroke	a	n/a
389.017	0.075	778034	keystroke	Key.space	n/a
389.4525	0.075	778905	keystroke	a	n/a
389.6625	0.06	779325	keystroke	p	n/a
389.813	0.0745	779626	keystroke	p	n/a
389.8725	0.1645	779745	keystroke	e	n/a
390.022	0.1365	780044	keystroke	a	n/a
390.2175	0.1205	780435	keystroke	r	n/a
390.4875	0.15	780975	keystroke	e	n/a
390.6075	0.1505	781215	keystroke	d	n/a
391.1175	0.06	782235	keystroke	Key.space	n/a
391.6875	0.1345	783375	keystroke	s	n/a
392.0025	0.0745	784005	keystroke	t	n/a
392.0925	0.1495	784185	keystroke	a	n/a
392.243	0.1195	784486	keystroke	r	n/a
392.4825	0.09	784965	keystroke	t	n/a
392.978	0.075	785956	keystroke	s	n/a
393.127	0.09	786254	keystroke	Key.space	n/a
393.8175	0.1195	787635	keystroke	s	n/a
393.997	0.091	787994	keystroke	u	n/a
394.2535	0.0595	788507	keystroke	p	n/a
394.403	0.1195	788806	keystroke	p	n/a
394.5075	0.1205	789015	keystroke	l	n/a
394.763	0.1045	789526	keystroke	y	n/a
395.138	0.06	790276	keystroke	Key.enter	n/a
395.204	12.566	790408	prompt	n/a	those're volunteer contests closely\n
396.068	0.074	792136	keystroke	t	n/a
396.202	0.09	792404	keystroke	h	n/a
396.427	0.075	792854	keystroke	o	n/a
397.012	0.076	794024	keystroke	s	n/a
398.302	0.0755	796604	keystroke	e	n/a
398.632	0.0755	797264	keystroke	'	n/a
398.752	0.165	797504	keystroke	r	n/a
398.827	0.1505	797654	keystroke	e	n/a
399.097	0.075	798194	keystroke	Key.space	n/a
400.0575	0.075	800115	keystroke	v	n/a
400.1925	0.0895	800385	keystroke	o	n/a
400.4325	0.15	800865	keystroke	u	n/a
401.5125	0.0895	803025	keystroke	Key.backspace	n/a
401.9325	0.0595	803865	keystroke	l	n/a
402.187	0.09	804374	keystroke	u	n/a
402.367	0.105	804734	keystroke	n	n/a
402.517	0.1055	805034	keystroke	t	n/a
402.6375	0.105	805275	keystroke	e	n/a
402.8625	0.15	805725	keystroke	e	n/a
403.1025	0.105	806205	keystroke	r	n/a
403.2525	0.075	806505	keystroke	Key.space	n/a
403.988	0.0595	807976	keystroke	c	n/a
404.1525	0.135	808305	keystroke	o	n/a
404.2425	0.1355	808485	keystroke	n	n/a
404.408	0.09	808816	keystroke	t	n/a
404.5425	0.1055	809085	keystroke	e	n/a
404.7825	0.15	809565	keystroke	s	n/a
405.0225	0.09	810045	keystroke	t	n/a
405.247	0.12	810494	keystroke	s	n/a
405.457	0.0755	810914	keystroke	Key.space	n/a
405.742	0.046	811484	keystroke	c	n/a
405.8475	0.075	811695	keystroke	l	n/a
406.0425	0.0745	812085	keystroke	o	n/a
406.177	0.0755	812354	keystroke	s	n/a
406.4325	0.0595	812865	keystroke	e	n/a
406.612	0.075	813224	keystroke	l	n/a
407.542	0.0745	815084	keystroke	y	n/a
407.6775	0.09	815355	keystroke	Key.enter	n/a
407.776	5.9035	815552	prompt	n/a	notice shed remix bold\n
408.937	0.0605	817874	keystroke	n	n/a
409.1165	0.1065	818233	keystroke	o	n/a
409.252	0.076	818504	keystroke	t	n/a
409.3725	0.1045	818745	keystroke	i	n/a
409.567	0.0905	819134	keystroke	c	n/a
409.7475	0.0755	819495	keystroke	e	n/a
409.8675	0.0745	819735	keystroke	Key.space	n/a
410.542	0.0755	821084	keystroke	s	n/a
410.677	0.0905	821354	keystroke	h	n/a
410.782	0.1055	821564	keystroke	e	n/a
410.992	0.075	821984	keystroke	d	n/a
411.097	0.09	822194	keystroke	Key.space	n/a
411.6525	0.1205	823305	keystroke	r	n/a
411.7275	0.135	823455	keystroke	e	n/a
411.9375	0.0745	823875	keystroke	m	n/a
412.1175	0.09	824235	keystroke	i	n/a
412.372	0.0605	824744	keystroke	x	n/a
412.522	0.075	825044	keystroke	Key.space	n/a
412.9425	0.075	825885	keystroke	b	n/a
413.1375	0.09	826275	keystroke	o	n/a
413.347	0.0755	826694	keystroke	l	n/a
413.497	0.09	826994	keystroke	d	n/a
413.6025	0.075	827205	keystroke	Key.enter	n/a
413.6865	8.213	827373	prompt	n/a	worlds enjoy harmful dublin\n
414.4875	0.0745	828975	keystroke	w	n/a
414.6815	0.075	829363	keystroke	o	n/a
414.892	0.075	829784	keystroke	r	n/a
415.163	0.074	830326	keystroke	l	n/a
415.4175	0.06	830835	keystroke	d	n/a
415.627	0.075	831254	keystroke	s	n/a
415.9415	0.075	831883	keystroke	Key.space	n/a
416.3025	0.0595	832605	keystroke	e	n/a
416.4675	0.0905	832935	keystroke	n	n/a
416.7225	0.0745	833445	keystroke	j	n/a
416.918	0.0745	833836	keystroke	o	n/a
417.2475	0.0895	834495	keystroke	y	n/a
417.5025	0.06	835005	keystroke	Key.space	n/a
417.8775	0.09	835755	keystroke	h	n/a
418.2225	0.0905	836445	keystroke	a	n/a
418.4475	0.075	836895	keystroke	r	n/a
418.642	0.0755	837284	keystroke	m	n/a
419.1825	0.06	838365	keystroke	f	n/a
419.392	0.09	838784	keystroke	u	n/a
419.632	0.0905	839264	keystroke	l	n/a
420.352	0.06	840704	keystroke	Key.space	n/a
420.7125	0.105	841425	keystroke	d	n/a
420.922	0.0905	841844	keystroke	u	n/a
421.028	0.104	842056	keystroke	b	n/a
421.267	0.1055	842534	keystroke	l	n/a
421.5525	0.12	843105	keystroke	i	n/a
421.642	0.09	843284	keystroke	n	n/a
421.807	0.0905	843614	keystroke	Key.enter	n/a
421.9045	13.7945	843809	prompt	n/a	diesel veterans bugs cashiers\n
422.7825	0.0905	845565	keystroke	d	n/a
422.9465	0.09	845893	keystroke	i	n/a
423.0515	0.075	846103	keystroke	e	n/a
423.247	0.0745	846494	keystroke	s	n/a
423.5775	0.06	847155	keystroke	e	n/a
423.6675	0.105	847335	keystroke	l	n/a
424.3875	0.075	848775	keystroke	Key.space	n/a
424.7175	0.075	849435	keystroke	v	n/a
424.868	0.1195	849736	keystroke	e	n/a
425.1375	0.105	850275	keystroke	t	n/a
425.2575	0.1645	850515	keystroke	e	n/a
425.377	0.1055	850754	keystroke	r	n/a
425.692	0.0755	851384	keystroke	e	n/a
425.7825	0.0895	851565	keystroke	n	n/a
425.9765	0.121	851953	keystroke	s	n/a
426.112	0.075	852224	keystroke	Key.space	n/a
426.7425	0.075	853485	keystroke	Key.backspace	n/a
426.9365	0.075	853873	keystroke	Key.backspace	n/a
427.0725	0.119	854145	keystroke	Key.backspace	n/a
427.2365	0.09	854473	keystroke	Key.backspace	n/a
428.5125	0.06	857025	keystroke	e	n/a
428.6175	0.0895	857235	keystroke	n	n/a
428.722	0.0755	857444	keystroke	s	n/a
429.0815	0.075	858163	keystroke	Key.space	n/a
430.627	0.105	861254	keystroke	Key.backspace	n/a
430.822	0.0755	861644	keystroke	Key.backspace	n/a
430.9725	0.0895	861945	keystroke	Key.backspace	n/a
431.212	0.0755	862424	keystroke	Key.backspace	n/a
431.6175	0.12	863235	keystroke	a	n/a
431.768	0.1045	863536	keystroke	n	n/a
431.8875	0.075	863775	keystroke	s	n/a
432.0225	0.045	864045	keystroke	Key.space	n/a
432.7125	0.1045	865425	keystroke	b	n/a
432.908	0.119	865816	keystroke	u	n/a
433.1315	0.0905	866263	keystroke	g	n/a
433.343	0.089	866686	keystroke	s	n/a
433.462	0.075	866924	keystroke	Key.space	n/a
434.0775	0.105	868155	keystroke	c	n/a
434.2875	0.09	868575	keystroke	a	n/a
434.5425	0.0745	869085	keystroke	s	n/a
434.6625	0.1045	869325	keystroke	h	n/a
434.8425	0.09	869685	keystroke	i	n/a
435.0225	0.12	870045	keystroke	e	n/a
435.1575	0.1045	870315	keystroke	r	n/a
435.3525	0.1045	870705	keystroke	s	n/a
435.607	0.0905	871214	keystroke	Key.enter	n/a
435.7035	13.1055	871407	prompt	n/a	coaching williams interested advantages\n
436.7925	0.06	873585	keystroke	c	n/a
436.9425	0.0755	873885	keystroke	o	n/a
437.9915	0.121	875983	keystroke	c	n/a
438.157	0.0905	876314	keystroke	h	n/a
438.2765	0.18	876553	keystroke	i	n/a
438.4125	0.12	876825	keystroke	n	n/a
438.5775	0.0755	877155	keystroke	g	n/a
438.667	0.09	877334	keystroke	Key.space	n/a
439.5375	0.075	879075	keystroke	w	n/a
439.6565	0.091	879313	keystroke	i	n/a
439.898	0.0585	879796	keystroke	l	n/a
440.0175	0.06	880035	keystroke	l	n/a
440.212	0.0755	880424	keystroke	i	n/a
440.3925	0.0755	880785	keystroke	w	n/a
440.7675	0.119	881535	keystroke	Key.backspace	n/a
441.698	0.0895	883396	keystroke	a	n/a
441.817	0.09	883634	keystroke	m	n/a
441.892	0.0755	883784	keystroke	s	n/a
442.0125	0.09	884025	keystroke	Key.space	n/a
444.0965	0.1355	888193	keystroke	i	n/a
444.2925	0.105	888585	keystroke	n	n/a
444.832	0.075	889664	keystroke	t	n/a
444.937	0.15	889874	keystroke	e	n/a
445.042	0.135	890084	keystroke	r	n/a
445.1925	0.119	890385	keystroke	e	n/a
445.417	0.1195	890834	keystroke	s	n/a
445.6565	0.1355	891313	keystroke	t	n/a
445.8075	0.1795	891615	keystroke	e	n/a
445.957	0.1355	891914	keystroke	d	n/a
446.5565	0.06	893113	keystroke	Key.space	n/a
446.8125	0.045	893625	keystroke	a	n/a
447.1875	0.089	894375	keystroke	d	n/a
447.4425	0.09	894885	keystroke	v	n/a
447.5925	0.12	895185	keystroke	a	n/a
447.727	0.0905	895454	keystroke	n	n/a
447.892	0.0755	895784	keystroke	t	n/a
448.1175	0.12	896235	keystroke	a	n/a
448.297	0.12	896594	keystroke	g	n/a
448.4325	0.09	896865	keystroke	e	n/a
448.6275	0.0445	897255	keystroke	s	n/a
448.732	0.0755	897464	keystroke	Key.enter	n/a
448.815	6.564	897630	prompt	n/a	german fatal virtual female\n
449.782	0.135	899564	keystroke	g	n/a
449.992	0.1355	899984	keystroke	e	n/a
450.1125	0.074	900225	keystroke	r	n/a
450.2465	0.106	900493	keystroke	m	n/a
450.367	0.0595	900734	keystroke	a	n/a
450.472	0.09	900944	keystroke	n	n/a
450.6665	0.091	901333	keystroke	Key.space	n/a
451.132	0.1045	902264	keystroke	f	n/a
451.3425	0.18	902685	keystroke	a	n/a
451.5675	0.0905	903135	keystroke	t	n/a
451.7025	0.0895	903405	keystroke	a	n/a
451.8375	0.119	903675	keystroke	l	n/a
452.1375	0.09	904275	keystroke	Key.space	n/a
452.4675	0.075	904935	keystroke	v	n/a
452.6775	0.0745	905355	keystroke	i	n/a
452.8575	0.0745	905715	keystroke	r	n/a
453.097	0.0605	906194	keystroke	t	n/a
453.2025	0.0745	906405	keystroke	u	n/a
453.367	0.0605	906734	keystroke	a	n/a
453.4575	0.1045	906915	keystroke	l	n/a
453.7275	0.1045	907455	keystroke	Key.space	n/a
454.0275	0.0895	908055	keystroke	f	n/a
454.192	0.09	908384	keystroke	e	n/a
454.342	0.1055	908684	keystroke	m	n/a
454.432	0.1045	908864	keystroke	a	n/a
454.6425	0.105	909285	keystroke	l	n/a
454.7625	0.074	909525	keystroke	e	n/a
455.302	0.075	910604	keystroke	Key.enter	n/a
455.384	8.6545	910768	prompt	n/a	authorities minimal productive desired\n
456.3375	0.1195	912675	keystroke	a	n/a
456.4725	0.0895	912945	keystroke	u	n/a
456.6525	0.075	913305	keystroke	t	n/a
456.742	0.0905	913484	keystroke	h	n/a
456.9225	0.105	913845	keystroke	o	n/a
457.1625	0.06	914325	keystroke	r	n/a
457.3125	0.105	914625	keystroke	i	n/a
457.522	0.0605	915044	keystroke	t	n/a
457.6425	0.0895	915285	keystroke	i	n/a
457.7925	0.12	915585	keystroke	e	n/a
458.0175	0.0595	916035	keystroke	s	n/a
458.1965	0.075	916393	keystroke	Key.space	n/a
458.6175	0.09	917235	keystroke	m	n/a
458.7975	0.105	917595	keystroke	i	n/a
458.887	0.135	917774	keystroke	n	n/a
459.037	0.1205	918074	keystroke	i	n/a
459.2775	0.1045	918555	keystroke	m	n/a
459.487	0.0605	918974	keystroke	a	n/a
459.592	0.09	919184	keystroke	l	n/a
459.892	0.0595	919784	keystroke	Key.space	n/a
460.297	0.0905	920594	keystroke	p	n/a
460.477	0.075	920954	keystroke	r	n/a
460.5975	0.09	921195	keystroke	o	n/a
460.807	0.075	921614	keystroke	d	n/a
460.987	0.0605	921974	keystroke	u	n/a
461.122	0.09	922244	keystroke	c	n/a
461.362	0.06	922724	keystroke	t	n/a
461.482	0.09	922964	keystroke	i	n/a
461.677	0.0905	923354	keystroke	v	n/a
461.857	0.06	923714	keystroke	e	n/a
462.007	0.075	924014	keystroke	Key.space	n/a
462.7425	0.09	925485	keystroke	d	n/a
462.8775	0.105	925755	keystroke	e	n/a
463.1175	0.045	926235	keystroke	s	n/a
463.297	0.075	926594	keystroke	i	n/a
463.4325	0.1195	926865	keystroke	r	n/a
463.522	0.195	927044	keystroke	e	n/a
463.687	0.105	927374	keystroke	d	n/a
463.9575	0.074	927915	keystroke	Key.enter	n/a
464.0385	4.855	928077	prompt	n/a	press choice rule nice\n
464.9925	0.0595	929985	keystroke	p	n/a
465.1275	0.149	930255	keystroke	r	n/a
465.232	0.135	930464	keystroke	e	n/a
465.5315	0.061	931063	keystroke	s	n/a
465.682	0.0745	931364	keystroke	s	n/a
465.8175	0.074	931635	keystroke	Key.space	n/a
466.057	0.06	932114	keystroke	c	n/a
466.1775	0.0745	932355	keystroke	h	n/a
466.3575	0.075	932715	keystroke	o	n/a
466.5215	0.075	933043	keystroke	i	n/a
466.627	0.0895	933254	keystroke	c	n/a
466.8375	0.0745	933675	keystroke	e	n/a
466.987	0.0745	933974	keystroke	Key.space	n/a
467.3165	0.09	934633	keystroke	r	n/a
467.4815	0.06	934963	keystroke	u	n/a
467.692	0.0905	935384	keystroke	l	n/a
467.812	0.06	935624	keystroke	e	n/a
467.9015	0.0755	935803	keystroke	Key.space	n/a
468.1125	0.105	936225	keystroke	n	n/a
468.367	0.09	936734	keystroke	i	n/a
468.592	0.0745	937184	keystroke	c	n/a
468.7275	0.0745	937455	keystroke	e	n/a
468.817	0.0745	937634	keystroke	Key.enter	n/a
468.9025	13.311	937805	prompt	n/a	hospitals between israeli substantially\n
469.7325	0.059	939465	keystroke	h	n/a
469.957	0.09	939914	keystroke	o	n/a
470.152	0.09	940304	keystroke	s	n/a
470.632	0.075	941264	keystroke	p	n/a
470.962	0.06	941924	keystroke	i	n/a
471.187	0.1055	942374	keystroke	t	n/a
471.367	0.105	942734	keystroke	a	n/a
471.502	0.075	943004	keystroke	l	n/a
471.622	0.0905	943244	keystroke	s	n/a
471.862	0.06	943724	keystroke	Key.space	n/a
472.507	0.075	945014	keystroke	b	n/a
472.6425	0.105	945285	keystroke	e	n/a
472.852	0.06	945704	keystroke	t	n/a
473.002	0.09	946004	keystroke	w	n/a
473.167	0.075	946334	keystroke	e	n/a
473.302	0.0905	946604	keystroke	e	n/a
473.422	0.105	946844	keystroke	n	n/a
473.6625	0.0745	947325	keystroke	Key.space	n/a
473.917	0.1045	947834	keystroke	i	n/a
474.0375	0.09	948075	keystroke	s	n/a
474.532	0.09	949064	keystroke	r	n/a
474.637	0.12	949274	keystroke	a	n/a
475.117	0.0595	950234	keystroke	e	n/a
476.3765	0.075	952753	keystroke	l	n/a
476.587	0.075	953174	keystroke	i	n/a
477.4265	0.045	954853	keystroke	Key.space	n/a
477.5775	0.06	955155	keystroke	s	n/a
477.7265	0.0755	955453	keystroke	u	n/a
477.9225	0.059	955845	keystroke	b	n/a
478.0425	0.0895	956085	keystroke	s	n/a
478.312	0.06	956624	keystroke	t	n/a
478.432	0.105	956864	keystroke	a	n/a
478.6275	0.0745	957255	keystroke	t	n/a
479.617	0.09	959234	keystroke	n	n/a
480.0665	0.0755	960133	keystroke	Key.backspace	n/a
480.217	0.09	960434	keystroke	Key.backspace	n/a
480.727	0.075	961454	keystroke	n	n/a
480.967	0.0755	961934	keystroke	t	n/a
481.043	0.089	962086	keystroke	i	n/a
481.237	0.075	962474	keystroke	a	n/a
481.3425	0.06	962685	keystroke	l	n/a
481.4915	0.075	962983	keystroke	l	n/a
481.8515	0.076	963703	keystroke	y	n/a
482.152	0.06	964304	keystroke	Key.enter	n/a
482.2175	11.128	964435	prompt	n/a	citizen tomorrow erotica continuous\n
483.082	0.06	966164	keystroke	c	n/a
483.262	0.1045	966524	keystroke	i	n/a
483.4265	0.0605	966853	keystroke	t	n/a
483.5165	0.0905	967033	keystroke	i	n/a
483.922	0.0595	967844	keystroke	z	n/a
484.147	0.0755	968294	keystroke	e	n/a
484.2665	0.106	968533	keystroke	n	n/a
484.388	0.074	968776	keystroke	s	n/a
484.5675	0.06	969135	keystroke	Key.space	n/a
485.0175	0.06	970035	keystroke	t	n/a
485.1525	0.105	970305	keystroke	o	n/a
485.3475	0.091	970695	keystroke	m	n/a
485.4975	0.1205	970995	keystroke	o	n/a
485.708	0.104	971416	keystroke	r	n/a
485.9325	0.075	971865	keystroke	r	n/a
486.082	0.1055	972164	keystroke	o	n/a
486.682	0.12	973364	keystroke	e	n/a
487.252	0.075	974504	keystroke	Key.backspace	n/a
487.447	0.06	974894	keystroke	w	n/a
487.567	0.075	975134	keystroke	Key.space	n/a
488.407	0.09	976814	keystroke	e	n/a
488.587	0.09	977174	keystroke	r	n/a
489.4425	0.1045	978885	keystroke	o	n/a
489.622	0.0895	979244	keystroke	t	n/a
489.7715	0.09	979543	keystroke	i	n/a
489.9815	0.09	979963	keystroke	c	n/a
490.297	0.0745	980594	keystroke	a	n/a
490.4465	0.0895	980893	keystroke	Key.space	n/a
490.957	0.075	981914	keystroke	c	n/a
491.107	0.1505	982214	keystroke	o	n/a
491.182	0.18	982364	keystroke	n	n/a
491.452	0.0755	982904	keystroke	t	n/a
491.6915	0.015	983383	keystroke	i	n/a
491.797	0.09	983594	keystroke	n	n/a
491.977	0.09	983954	keystroke	u	n/a
492.2315	0.1805	984463	keystroke	o	n/a
492.712	0.075	985424	keystroke	u	n/a
492.892	0.0745	985784	keystroke	s	n/a
493.2815	0.06	986563	keystroke	Key.enter	n/a
493.35	7.779	986700	prompt	n/a	homeland solutions address gathering\n
494.1975	0.0595	988395	keystroke	h	n/a
494.3325	0.15	988665	keystroke	o	n/a
494.4675	0.12	988935	keystroke	m	n/a
494.5875	0.059	989175	keystroke	e	n/a
494.8575	0.09	989715	keystroke	l	n/a
494.9625	0.104	989925	keystroke	a	n/a
495.142	0.105	990284	keystroke	n	n/a
495.2915	0.0905	990583	keystroke	d	n/a
495.4115	0.075	990823	keystroke	Key.space	n/a
496.2075	0.0595	992415	keystroke	s	n/a
496.3875	0.089	992775	keystroke	o	n/a
496.6275	0.06	993255	keystroke	l	n/a
496.8375	0.059	993675	keystroke	u	n/a
496.9715	0.091	993943	keystroke	t	n/a
497.0915	0.27	994183	keystroke	i	n/a
497.212	0.1505	994424	keystroke	o	n/a
497.3015	0.1205	994603	keystroke	n	n/a
497.4365	0.075	994873	keystroke	s	n/a
497.617	0.0595	995234	keystroke	Key.space	n/a
497.9165	0.0755	995833	keystroke	a	n/a
498.1425	0.0445	996285	keystroke	d	n/a
498.277	0.045	996554	keystroke	d	n/a
498.472	0.105	996944	keystroke	r	n/a
498.547	0.12	997094	keystroke	e	n/a
498.8175	0.0595	997635	keystroke	s	n/a
498.9815	0.06	997963	keystroke	s	n/a
499.252	0.06	998504	keystroke	Key.space	n/a
499.5965	0.09	999193	keystroke	g	n/a
499.717	0.12	999434	keystroke	a	n/a
499.8815	0.1055	999763	keystroke	t	n/a
500.002	0.09	1000004	keystroke	h	n/a
500.107	0.1055	1000214	keystroke	e	n/a
500.182	0.105	1000364	keystroke	r	n/a
500.332	0.15	1000664	keystroke	i	n/a
500.422	0.135	1000844	keystroke	n	n/a
500.542	0.09	1001084	keystroke	g	n/a
501.052	0.075	1002104	keystroke	Key.enter	n/a
501.134	11.335	1002268	prompt	n/a	describing divine loop defence\n
502.0575	0.045	1004115	keystroke	d	n/a
502.117	0.0605	1004234	keystroke	e	n/a
502.297	0.045	1004594	keystroke	s	n/a
502.4625	0.06	1004925	keystroke	c	n/a
502.642	0.06	1005284	keystroke	r	n/a
503.182	0.09	1006364	keystroke	b	n/a
503.302	0.195	1006604	keystroke	i	n/a
503.407	0.1805	1006814	keystroke	n	n/a
503.633	0.1045	1007266	keystroke	g	n/a
503.782	0.1045	1007564	keystroke	Key.space	n/a
504.772	0.405	1009544	keystroke	=	n/a
506.0015	0.075	1012003	keystroke	Key.backspace	n/a
506.1665	0.075	1012333	keystroke	Key.backspace	n/a
506.3315	0.0755	1012663	keystroke	Key.backspace	n/a
507.022	0.12	1014044	keystroke	i	n/a
507.172	0.15	1014344	keystroke	b	n/a
507.322	0.15	1014644	keystroke	i	n/a
507.4275	0.1645	1014855	keystroke	n	n/a
507.6065	0.075	1015213	keystroke	g	n/a
507.7265	0.0905	1015453	keystroke	Key.space	n/a
508.5665	0.076	1017133	keystroke	d	n/a
508.7775	0.104	1017555	keystroke	i	n/a
508.9565	0.091	1017913	keystroke	v	n/a
509.0325	0.12	1018065	keystroke	i	n/a
509.122	0.1195	1018244	keystroke	n	n/a
509.2875	0.09	1018575	keystroke	e	n/a
509.407	0.0745	1018814	keystroke	Key.space	n/a
510.2775	0.074	1020555	keystroke	l	n/a
510.457	0.0455	1020914	keystroke	o	n/a
510.5775	0.105	1021155	keystroke	o	n/a
510.817	0.075	1021634	keystroke	p	n/a
511.072	0.075	1022144	keystroke	Key.space	n/a
511.372	0.09	1022744	keystroke	d	n/a
511.507	0.105	1023014	keystroke	e	n/a
511.657	0.105	1023314	keystroke	f	n/a
511.777	0.1055	1023554	keystroke	e	n/a
511.8825	0.0745	1023765	keystroke	n	n/a
512.122	0.075	1024244	keystroke	c	n/a
512.257	0.0905	1024514	keystroke	e	n/a
512.377	0.09	1024754	keystroke	Key.enter	n/a
512.4725	13.676	1024945	prompt	n/a	meet continuously counties generated\n
513.352	0.06	1026704	keystroke	m	n/a
513.487	0.06	1026974	keystroke	e	n/a
513.6675	0.1055	1027335	keystroke	e	n/a
513.832	0.061	1027664	keystroke	t	n/a
513.9815	0.06	1027963	keystroke	Key.space	n/a
514.597	0.06	1029194	keystroke	c	n/a
514.672	0.135	1029344	keystroke	o	n/a
514.792	0.0755	1029584	keystroke	n	n/a
515.1825	0.06	1030365	keystroke	t	n/a
515.2875	0.105	1030575	keystroke	i	n/a
515.4225	0.09	1030845	keystroke	n	n/a
516.502	0.0895	1033004	keystroke	Key.backspace	n/a
517.2975	0.09	1034595	keystroke	n	n/a
517.462	0.09	1034924	keystroke	u	n/a
518.2115	0.1065	1036423	keystroke	o	n/a
518.9325	0.12	1037865	keystroke	u	n/a
519.0675	0.045	1038135	keystroke	s	n/a
519.2625	0.105	1038525	keystroke	l	n/a
519.5025	0.1195	1039005	keystroke	t	n/a
519.9825	0.105	1039965	keystroke	Key.backspace	n/a
520.1175	0.074	1040235	keystroke	y	n/a
520.2965	0.075	1040593	keystroke	Key.space	n/a
520.777	0.06	1041554	keystroke	c	n/a
520.8965	0.1655	1041793	keystroke	o	n/a
521.077	0.045	1042154	keystroke	n	n/a
522.232	0.06	1044464	keystroke	Key.backspace	n/a
522.487	0.0745	1044974	keystroke	u	n/a
522.6815	0.076	1045363	keystroke	n	n/a
522.802	0.0895	1045604	keystroke	t	n/a
522.877	0.0755	1045754	keystroke	i	n/a
523.0115	0.121	1046023	keystroke	e	n/a
523.2665	0.075	1046533	keystroke	s	n/a
523.372	0.0745	1046744	keystroke	Key.space	n/a
524.0015	0.09	1048003	keystroke	g	n/a
524.1515	0.09	1048303	keystroke	e	n/a
524.3915	0.075	1048783	keystroke	n	n/a
524.5265	0.121	1049053	keystroke	e	n/a
524.677	0.1055	1049354	keystroke	r	n/a
524.977	0.135	1049954	keystroke	a	n/a
525.127	0.1505	1050254	keystroke	t	n/a
525.247	0.165	1050494	keystroke	e	n/a
525.487	0.105	1050974	keystroke	d	n/a
526.072	0.075	1052144	keystroke	Key.enter	n/a
526.153	9.0555	1052306	prompt	n/a	frankfurt deep flexibility kenya\n
527.437	0.09	1054874	keystroke	f	n/a
527.587	0.075	1055174	keystroke	r	n/a
527.8725	0.075	1055745	keystroke	a	n/a
528.0375	0.075	1056075	keystroke	n	n/a
528.4565	0.091	1056913	keystroke	k	n/a
528.8615	0.09	1057723	keystroke	f	n/a
529.0565	0.09	1058113	keystroke	u	n/a
529.2075	0.09	1058415	keystroke	r	n/a
529.3875	0.0895	1058775	keystroke	t	n/a
529.5375	0.089	1059075	keystroke	Key.space	n/a
530.137	0.0905	1060274	keystroke	d	n/a
530.302	0.0755	1060604	keystroke	e	n/a
530.437	0.075	1060874	keystroke	e	n/a
530.557	0.075	1061114	keystroke	p	n/a
530.7825	0.0745	1061565	keystroke	Key.space	n/a
531.2175	0.0745	1062435	keystroke	f	n/a
531.397	0.045	1062794	keystroke	l	n/a
531.487	0.105	1062974	keystroke	e	n/a
531.937	0.0755	1063874	keystroke	x	n/a
532.192	0.0905	1064384	keystroke	i	n/a
532.4625	0.075	1064925	keystroke	b	n/a
532.6425	0.075	1065285	keystroke	i	n/a
532.8975	0.075	1065795	keystroke	l	n/a
533.1075	0.074	1066215	keystroke	i	n/a
533.2565	0.0755	1066513	keystroke	t	n/a
533.4515	0.045	1066903	keystroke	y	n/a
533.5565	0.075	1067113	keystroke	Key.space	n/a
534.352	0.09	1068704	keystroke	k	n/a
534.502	0.09	1069004	keystroke	e	n/a
534.6515	0.105	1069303	keystroke	n	n/a
534.8775	0.074	1069755	keystroke	y	n/a
534.9975	0.09	1069995	keystroke	a	n/a
535.1315	0.075	1070263	keystroke	Key.enter	n/a
535.213	5.006	1070426	prompt	n/a	cell combined bass raid\n
535.9425	0.074	1071885	keystroke	c	n/a
536.122	0.0595	1072244	keystroke	e	n/a
536.3465	0.0755	1072693	keystroke	l	n/a
536.4815	0.075	1072963	keystroke	l	n/a
536.707	0.075	1073414	keystroke	Key.space	n/a
536.8575	0.09	1073715	keystroke	c	n/a
536.9325	0.135	1073865	keystroke	o	n/a
537.0225	0.1045	1074045	keystroke	m	n/a
537.262	0.075	1074524	keystroke	b	n/a
537.412	0.105	1074824	keystroke	i	n/a
537.502	0.105	1075004	keystroke	n	n/a
537.652	0.09	1075304	keystroke	e	n/a
537.8475	0.105	1075695	keystroke	d	n/a
537.997	0.06	1075994	keystroke	Key.space	n/a
538.507	0.015	1077014	keystroke	b	n/a
538.537	0.09	1077074	keystroke	a	n/a
538.717	0.06	1077434	keystroke	s	n/a
538.882	0.09	1077764	keystroke	s	n/a
539.032	0.09	1078064	keystroke	Key.space	n/a
539.332	0.15	1078664	keystroke	r	n/a
539.647	0.09	1079294	keystroke	a	n/a
539.857	0.09	1079714	keystroke	i	n/a
540.0215	0.076	1080043	keystroke	d	n/a
540.127	0.0895	1080254	keystroke	Key.enter	n/a
540.223	8.5605	1080446	prompt	n/a	sucking pulse galleries vegetation\n
540.9225	0.09	1081845	keystroke	s	n/a
541.1025	0.075	1082205	keystroke	u	n/a
541.2225	0.089	1082445	keystroke	c	n/a
541.3575	0.074	1082715	keystroke	k	n/a
541.5375	0.105	1083075	keystroke	i	n/a
541.6115	0.105	1083223	keystroke	n	n/a
541.7325	0.074	1083465	keystroke	g	n/a
541.867	0.075	1083734	keystroke	Key.space	n/a
542.1825	0.105	1084365	keystroke	p	n/a
542.4375	0.06	1084875	keystroke	u	n/a
542.6315	0.075	1085263	keystroke	l	n/a
543.007	0.06	1086014	keystroke	s	n/a
543.188	0.059	1086376	keystroke	e	n/a
543.322	0.075	1086644	keystroke	Key.space	n/a
543.622	0.075	1087244	keystroke	g	n/a
543.742	0.09	1087484	keystroke	a	n/a
543.9525	0.044	1087905	keystroke	l	n/a
544.0715	0.076	1088143	keystroke	l	n/a
544.387	0.12	1088774	keystroke	e	n/a
544.537	0.12	1089074	keystroke	r	n/a
544.942	0.105	1089884	keystroke	i	n/a
545.077	0.09	1090154	keystroke	r	n/a
545.152	0.12	1090304	keystroke	e	n/a
545.527	0.0595	1091054	keystroke	Key.backspace	n/a
545.6615	0.09	1091323	keystroke	Key.backspace	n/a
545.7075	0.2095	1091415	keystroke	e	n/a
545.8725	0.149	1091745	keystroke	d	n/a
546.457	0.09	1092914	keystroke	=	n/a
546.592	0.1055	1093184	keystroke	s	n/a
546.802	0.075	1093604	keystroke	Key.space	n/a
547.102	0.075	1094204	keystroke	v	n/a
547.252	0.105	1094504	keystroke	e	n/a
547.522	0.0755	1095044	keystroke	g	n/a
547.627	0.0905	1095254	keystroke	e	n/a
548.0165	0.0905	1096033	keystroke	t	n/a
548.1525	0.1195	1096305	keystroke	a	n/a
548.273	0.089	1096546	keystroke	t	n/a
548.3765	0.1955	1096753	keystroke	i	n/a
548.4215	0.135	1096843	keystroke	o	n/a
548.4665	0.136	1096933	keystroke	n	n/a
548.6915	0.0905	1097383	keystroke	Key.enter	n/a
548.7865	9.912	1097573	prompt	n/a	charleston major rotation endorsed\n
549.757	0.06	1099514	keystroke	c	n/a
549.8775	0.075	1099755	keystroke	h	n/a
550.552	0.105	1101104	keystroke	a	n/a
551.167	0.1945	1102334	keystroke	r	n/a
551.9015	0.076	1103803	keystroke	l	n/a
551.9465	0.09	1103893	keystroke	e	n/a
552.157	0.09	1104314	keystroke	s	n/a
552.352	0.0745	1104704	keystroke	t	n/a
552.472	0.1345	1104944	keystroke	o	n/a
552.547	0.1045	1105094	keystroke	n	n/a
552.817	0.075	1105634	keystroke	Key.space	n/a
553.2225	0.0895	1106445	keystroke	m	n/a
553.3275	0.1045	1106655	keystroke	a	n/a
553.462	0.075	1106924	keystroke	j	n/a
553.612	0.0895	1107224	keystroke	o	n/a
553.717	0.09	1107434	keystroke	r	n/a
553.852	0.0745	1107704	keystroke	Key.space	n/a
554.7515	0.106	1109503	keystroke	r	n/a
554.9475	0.0745	1109895	keystroke	o	n/a
555.052	0.105	1110104	keystroke	t	n/a
555.187	0.135	1110374	keystroke	a	n/a
555.307	0.105	1110614	keystroke	t	n/a
555.442	0.195	1110884	keystroke	i	n/a
555.502	0.1205	1111004	keystroke	o	n/a
555.562	0.12	1111124	keystroke	n	n/a
556.312	0.0745	1112624	keystroke	Key.space	n/a
556.6715	0.045	1113343	keystroke	e	n/a
556.8215	0.09	1113643	keystroke	n	n/a
557.032	0.0745	1114064	keystroke	d	n/a
557.1665	0.106	1114333	keystroke	o	n/a
557.3175	0.104	1114635	keystroke	r	n/a
557.812	0.0755	1115624	keystroke	s	n/a
558.007	0.105	1116014	keystroke	e	n/a
558.1265	0.1205	1116253	keystroke	d	n/a
558.6065	0.09	1117213	keystroke	Key.enter	n/a
558.7085	9.0345	1117417	prompt	n/a	temporary mighty jaguar hands\n
559.417	0.12	1118834	keystroke	t	n/a
559.597	0.0905	1119194	keystroke	e	n/a
559.7625	0.075	1119525	keystroke	m	n/a
560.031	0.0905	1120062	keystroke	p	n/a
560.2115	0.075	1120423	keystroke	o	n/a
560.3175	0.104	1120635	keystroke	r	n/a
560.5275	0.0445	1121055	keystroke	r	n/a
560.9315	0.135	1121863	keystroke	Key.backspace	n/a
561.0815	0.165	1122163	keystroke	a	n/a
561.1875	0.1495	1122375	keystroke	r	n/a
561.742	0.1495	1123484	keystroke	t	n/a
562.2515	0.12	1124503	keystroke	Key.backspace	n/a
562.5065	0.075	1125013	keystroke	y	n/a
562.972	0.0595	1125944	keystroke	Key.space	n/a
563.5415	0.09	1127083	keystroke	m	n/a
563.6915	0.1205	1127383	keystroke	i	n/a
563.827	0.105	1127654	keystroke	g	n/a
563.9465	0.0905	1127893	keystroke	h	n/a
564.082	0.09	1128164	keystroke	t	n/a
564.277	0.0755	1128554	keystroke	y	n/a
564.442	0.06	1128884	keystroke	Key.space	n/a
565.1175	0.0895	1130235	keystroke	j	n/a
565.222	0.09	1130444	keystroke	a	n/a
566.047	0.0745	1132094	keystroke	g	n/a
566.1815	0.06	1132363	keystroke	u	n/a
566.272	0.1045	1132544	keystroke	a	n/a
566.4365	0.105	1132873	keystroke	r	n/a
566.647	0.0745	1133294	keystroke	s	n/a
566.8115	0.075	1133623	keystroke	Key.space	n/a
567.1275	0.074	1134255	keystroke	h	n/a
567.217	0.09	1134434	keystroke	a	n/a
567.3365	0.0905	1134673	keystroke	n	n/a
567.472	0.12	1134944	keystroke	d	n/a
567.577	0.089	1135154	keystroke	s	n/a
567.682	0.059	1135364	keystroke	Key.enter	n/a
567.7495	8.124	1135499	prompt	n/a	reaches invasion wellington users\n
568.4915	0.1355	1136983	keystroke	r	n/a
568.5515	0.1655	1137103	keystroke	e	n/a
568.732	0.165	1137464	keystroke	a	n/a
569.392	0.0905	1138784	keystroke	c	n/a
569.527	0.0755	1139054	keystroke	h	n/a
569.5875	0.1795	1139175	keystroke	e	n/a
569.9015	0.1205	1139803	keystroke	d	n/a
570.682	0.12	1141364	keystroke	Key.backspace	n/a
570.8175	0.0745	1141635	keystroke	s	n/a
571.0565	0.06	1142113	keystroke	Key.space	n/a
571.2665	0.1205	1142533	keystroke	i	n/a
571.342	0.105	1142684	keystroke	n	n/a
571.612	0.075	1143224	keystroke	v	n/a
571.717	0.12	1143434	keystroke	a	n/a
572.002	0.0905	1144004	keystroke	s	n/a
572.1375	0.239	1144275	keystroke	i	n/a
572.2575	0.104	1144515	keystroke	o	n/a
572.2715	0.15	1144543	keystroke	n	n/a
572.6165	0.0755	1145233	keystroke	Key.space	n/a
573.0965	0.106	1146193	keystroke	w	n/a
573.277	0.0905	1146554	keystroke	e	n/a
573.382	0.0905	1146764	keystroke	l	n/a
573.532	0.075	1147064	keystroke	l	n/a
573.742	0.104	1147484	keystroke	i	n/a
573.802	0.105	1147604	keystroke	n	n/a
573.922	0.0755	1147844	keystroke	g	n/a
574.1325	0.029	1148265	keystroke	t	n/a
574.1765	0.1055	1148353	keystroke	o	n/a
574.3265	0.105	1148653	keystroke	n	n/a
574.7015	0.045	1149403	keystroke	Key.space	n/a
575.1825	0.0595	1150365	keystroke	u	n/a
575.287	0.045	1150574	keystroke	s	n/a
575.4515	0.12	1150903	keystroke	e	n/a
575.557	0.0905	1151114	keystroke	r	n/a
575.7065	0.0755	1151413	keystroke	s	n/a
575.7965	0.0755	1151593	keystroke	Key.enter	n/a
575.878	10.3	1151756	prompt	n/a	expectations access diversity lenses\n
576.712	0.075	1153424	keystroke	e	n/a
577.027	0.075	1154054	keystroke	x	n/a
577.222	0.0895	1154444	keystroke	p	n/a
577.401	0.106	1154802	keystroke	e	n/a
577.672	0.075	1155344	keystroke	c	n/a
577.927	0.0905	1155854	keystroke	t	n/a
578.107	0.105	1156214	keystroke	a	n/a
578.2265	0.09	1156453	keystroke	t	n/a
578.3315	0.18	1156663	keystroke	i	n/a
578.3615	0.135	1156723	keystroke	o	n/a
578.437	0.1355	1156874	keystroke	n	n/a
578.5865	0.105	1157173	keystroke	s	n/a
579.4565	0.06	1158913	keystroke	Key.space	n/a
579.6215	0.09	1159243	keystroke	a	n/a
579.937	0.0595	1159874	keystroke	c	n/a
580.0715	0.0905	1160143	keystroke	c	n/a
580.2365	0.075	1160473	keystroke	e	n/a
580.4325	0.0735	1160865	keystroke	s	n/a
580.5825	0.089	1161165	keystroke	s	n/a
580.896	0.045	1161792	keystroke	Key.space	n/a
581.2265	0.076	1162453	keystroke	d	n/a
581.4515	0.09	1162903	keystroke	i	n/a
581.8115	0.12	1163623	keystroke	v	n/a
582.0965	0.1955	1164193	keystroke	e	n/a
582.2925	0.0895	1164585	keystroke	r	n/a
582.772	0.09	1165544	keystroke	s	n/a
582.9815	0.0755	1165963	keystroke	i	n/a
583.147	0.09	1166294	keystroke	t	n/a
583.3715	0.09	1166743	keystroke	y	n/a
583.567	0.0745	1167134	keystroke	Key.space	n/a
584.137	0.0755	1168274	keystroke	l	n/a
584.2575	0.0745	1168515	keystroke	e	n/a
584.497	0.105	1168994	keystroke	s	n/a
584.887	0.075	1169774	keystroke	Key.backspace	n/a
585.217	0.1505	1170434	keystroke	n	n/a
585.412	0.09	1170824	keystroke	s	n/a
585.621	0.091	1171242	keystroke	e	n/a
585.8315	0.0755	1171663	keystroke	s	n/a
586.102	0.075	1172204	keystroke	Key.enter	n/a
586.1815	7.407	1172363	prompt	n/a	retreat ellis corners timer\n
587.002	0.165	1174004	keystroke	r	n/a
587.122	0.195	1174244	keystroke	e	n/a
587.452	0.105	1174904	keystroke	t	n/a
587.7075	0.0895	1175415	keystroke	r	n/a
587.932	0.1505	1175864	keystroke	e	n/a
588.066	0.136	1176132	keystroke	a	n/a
588.322	0.09	1176644	keystroke	t	n/a
588.862	0.059	1177724	keystroke	Key.space	n/a
589.0865	0.075	1178173	keystroke	e	n/a
589.282	0.0145	1178564	keystroke	l	n/a
589.3565	0.075	1178713	keystroke	l	n/a
590.2865	0.105	1180573	keystroke	i	n/a
590.4065	0.0905	1180813	keystroke	s	n/a
590.602	0.075	1181204	keystroke	Key.space	n/a
590.932	0.0745	1181864	keystroke	c	n/a
591.0215	0.1505	1182043	keystroke	o	n/a
591.4265	0.075	1182853	keystroke	r	n/a
591.5925	0.089	1183185	keystroke	n	n/a
591.8165	0.0905	1183633	keystroke	e	n/a
592.2365	0.105	1184473	keystroke	r	n/a
592.402	0.1055	1184804	keystroke	s	n/a
592.8365	0.075	1185673	keystroke	Key.space	n/a
593.0465	0.091	1186093	keystroke	t	n/a
593.1215	0.1355	1186243	keystroke	i	n/a
593.1965	0.1355	1186393	keystroke	m	n/a
593.287	0.135	1186574	keystroke	e	n/a
593.392	0.09	1186784	keystroke	r	n/a
593.512	0.075	1187024	keystroke	Key.enter	n/a
593.5935	11.47	1187187	prompt	n/a	australia donation product apparently\n
594.4115	0.075	1188823	keystroke	a	n/a
594.606	0.075	1189212	keystroke	u	n/a
594.817	0.105	1189634	keystroke	t	n/a
595.806	0.1055	1191612	keystroke	Key.backspace	n/a
595.912	0.105	1191824	keystroke	s	n/a
596.2715	0.1055	1192543	keystroke	t	n/a
596.4515	0.1055	1192903	keystroke	r	n/a
596.647	0.0895	1193294	keystroke	a	n/a
596.872	0.0895	1193744	keystroke	l	n/a
597.1715	0.03	1194343	keystroke	Key.backspace	n/a
597.3215	0.0745	1194643	keystroke	Key.backspace	n/a
598.102	0.09	1196204	keystroke	a	n/a
598.222	0.074	1196444	keystroke	l	n/a
598.4315	0.0905	1196863	keystroke	i	n/a
598.567	0.09	1197134	keystroke	a	n/a
598.7615	0.06	1197523	keystroke	Key.space	n/a
599.7215	0.105	1199443	keystroke	d	n/a
599.8415	0.0905	1199683	keystroke	o	n/a
600.412	0.0595	1200824	keystroke	n	n/a
600.487	0.105	1200974	keystroke	a	n/a
600.6815	0.075	1201363	keystroke	t	n/a
600.7715	0.2105	1201543	keystroke	i	n/a
600.8315	0.1205	1201663	keystroke	o	n/a
600.907	0.1195	1201814	keystroke	n	n/a
601.1915	0.075	1202383	keystroke	Key.space	n/a
601.5065	0.135	1203013	keystroke	p	n/a
601.7765	0.09	1203553	keystroke	r	n/a
601.956	0.1065	1203912	keystroke	o	n/a
602.2415	0.09	1204483	keystroke	d	n/a
602.422	0.0745	1204844	keystroke	u	n/a
602.542	0.075	1205084	keystroke	c	n/a
602.782	0.06	1205564	keystroke	t	n/a
602.902	0.089	1205804	keystroke	Key.space	n/a
603.412	0.089	1206824	keystroke	a	n/a
603.607	0.0595	1207214	keystroke	p	n/a
603.727	0.0895	1207454	keystroke	p	n/a
603.8315	0.1055	1207663	keystroke	a	n/a
604.057	0.1045	1208114	keystroke	r	n/a
604.147	0.1195	1208294	keystroke	e	n/a
604.3415	0.09	1208683	keystroke	n	n/a
604.447	0.0905	1208894	keystroke	t	n/a
604.6715	0.1045	1209343	keystroke	l	n/a
604.837	0.074	1209674	keystroke	y	n/a
605.001	0.06	1210002	keystroke	Key.enter	n/a
605.068	7.7055	1210136	prompt	n/a	bizrate implemented express devon\n
605.9015	0.075	1211803	keystroke	b	n/a
606.097	0.09	1212194	keystroke	i	n/a
606.367	0.075	1212734	keystroke	z	n/a
607.056	0.121	1214112	keystroke	r	n/a
607.162	0.104	1214324	keystroke	a	n/a
607.296	0.1215	1214592	keystroke	t	n/a
607.402	0.104	1214804	keystroke	e	n/a
607.822	0.075	1215644	keystroke	Key.space	n/a
608.017	0.105	1216034	keystroke	i	n/a
608.0765	0.135	1216153	keystroke	m	n/a
608.347	0.12	1216694	keystroke	p	n/a
608.392	0.15	1216784	keystroke	l	n/a
608.572	0.075	1217144	keystroke	e	n/a
608.737	0.09	1217474	keystroke	m	n/a
608.842	0.12	1217684	keystroke	e	n/a
608.947	0.09	1217894	keystroke	n	n/a
609.1125	0.0895	1218225	keystroke	t	n/a
609.307	0.1805	1218614	keystroke	e	n/a
609.547	0.105	1219094	keystroke	d	n/a
610.056	0.076	1220112	keystroke	Key.space	n/a
610.3115	0.09	1220623	keystroke	e	n/a
610.597	0.0745	1221194	keystroke	x	n/a
610.732	0.0595	1221464	keystroke	p	n/a
610.927	0.1045	1221854	keystroke	r	n/a
611.0465	0.1205	1222093	keystroke	e	n/a
611.3165	0.06	1222633	keystroke	s	n/a
611.4515	0.0755	1222903	keystroke	s	n/a
611.5865	0.075	1223173	keystroke	Key.space	n/a
611.812	0.09	1223624	keystroke	d	n/a
611.9465	0.1355	1223893	keystroke	e	n/a
612.1865	0.0755	1224373	keystroke	v	n/a
612.3515	0.165	1224703	keystroke	o	n/a
612.4565	0.09	1224913	keystroke	n	n/a
612.697	0.075	1225394	keystroke	Key.enter	n/a
612.778	14.02	1225556	prompt	n/a	registration duncan easily thermal\n
613.642	0.12	1227284	keystroke	r	n/a
613.717	0.12	1227434	keystroke	e	n/a
614.1215	0.0755	1228243	keystroke	g	n/a
614.3015	0.0755	1228603	keystroke	i	n/a
614.4515	0.1055	1228903	keystroke	s	n/a
614.677	0.105	1229354	keystroke	t	n/a
615.0815	0.0305	1230163	keystroke	a	n/a
615.4415	0.1505	1230883	keystroke	Key.backspace	n/a
615.577	0.12	1231154	keystroke	r	n/a
616.432	0.09	1232864	keystroke	a	n/a
616.597	0.1345	1233194	keystroke	t	n/a
616.852	0.209	1233704	keystroke	i	n/a
616.912	0.165	1233824	keystroke	o	n/a
616.986	0.121	1233972	keystroke	n	n/a
617.092	0.089	1234184	keystroke	s	n/a
617.8715	0.1205	1235743	keystroke	=	n/a
618.3065	0.0905	1236613	keystroke	Key.space	n/a
618.652	0.0895	1237304	keystroke	d	n/a
618.8765	0.12	1237753	keystroke	u	n/a
618.9825	0.089	1237965	keystroke	n	n/a
619.1925	0.12	1238385	keystroke	c	n/a
619.3275	0.1045	1238655	keystroke	a	n/a
619.447	0.09	1238894	keystroke	n	n/a
619.657	0.075	1239314	keystroke	Key.space	n/a
621.397	0.0445	1242794	keystroke	Key.backspace	n/a
621.5615	0.0605	1243123	keystroke	Key.backspace	n/a
621.7415	0.0755	1243483	keystroke	Key.backspace	n/a
623.061	0.016	1246122	keystroke	Key.space	n/a
623.106	0.1355	1246212	keystroke	e	n/a
623.226	0.181	1246452	keystroke	a	n/a
623.377	0.104	1246754	keystroke	s	n/a
623.571	0.0755	1247142	keystroke	i	n/a
623.811	0.076	1247622	keystroke	l	n/a
624.832	0.075	1249664	keystroke	y	n/a
625.087	0.075	1250174	keystroke	Key.space	n/a
625.717	0.09	1251434	keystroke	t	n/a
625.837	0.075	1251674	keystroke	h	n/a
625.927	0.15	1251854	keystroke	e	n/a
626.047	0.105	1252094	keystroke	r	n/a
626.182	0.09	1252364	keystroke	m	n/a
626.287	0.075	1252574	keystroke	a	n/a
626.422	0.09	1252844	keystroke	l	n/a
626.7365	0.06	1253473	keystroke	Key.enter	n/a
626.8015	15.4165	1253603	prompt	n/a	blow travel kruger voyuer\n
632.9035	0.013	1265807	keystroke	b	n/a
633.0515	0.121	1266103	keystroke	l	n/a
633.2615	0.075	1266523	keystroke	o	n/a
633.4425	0.074	1266885	keystroke	w	n/a
633.5615	0.075	1267123	keystroke	Key.space	n/a
634.312	0.09	1268624	keystroke	t	n/a
634.357	0.15	1268714	keystroke	r	n/a
634.477	0.0905	1268954	keystroke	a	n/a
634.791	0.106	1269582	keystroke	v	n/a
634.957	0.09	1269914	keystroke	e	n/a
635.0025	0.104	1270005	keystroke	l	n/a
635.2565	0.0755	1270513	keystroke	Key.space	n/a
636.187	0.075	1272374	keystroke	k	n/a
636.637	0.0905	1273274	keystroke	r	n/a
636.832	0.09	1273664	keystroke	u	n/a
636.9815	0.106	1273963	keystroke	g	n/a
637.0575	0.179	1274115	keystroke	e	n/a
637.2215	0.12	1274443	keystroke	r	n/a
637.3565	0.1055	1274713	keystroke	Key.space	n/a
637.912	0.0595	1275824	keystroke	v	n/a
638.167	0.1045	1276334	keystroke	o	n/a
638.5565	0.06	1277113	keystroke	y	n/a
641.6935	0	1283387	keystroke	u	n/a
641.722	0.1345	1283444	keystroke	e	n/a
641.8415	0.105	1283683	keystroke	r	n/a
642.1415	0.0745	1284283	keystroke	Key.enter	n/a
642.2225	11.486	1284445	prompt	n/a	compute outputs express basic\n
643.0725	0.0745	1286145	keystroke	c	n/a
643.191	0.121	1286382	keystroke	o	n/a
643.297	0.105	1286594	keystroke	m	n/a
643.462	0.09	1286924	keystroke	p	n/a
643.7165	0.0605	1287433	keystroke	u	n/a
643.792	0.12	1287584	keystroke	t	n/a
643.927	0.1505	1287854	keystroke	e	n/a
644.062	0.06	1288124	keystroke	r	n/a
644.932	0.1045	1289864	keystroke	Key.backspace	n/a
645.382	0.0745	1290764	keystroke	Key.space	n/a
645.892	0.0755	1291784	keystroke	o	n/a
646.1165	0.0605	1292233	keystroke	u	n/a
646.2365	0.075	1292473	keystroke	t	n/a
646.417	0.075	1292834	keystroke	p	n/a
646.657	0.09	1293314	keystroke	u	n/a
646.8225	0.1045	1293645	keystroke	t	n/a
646.972	0.1055	1293944	keystroke	s	n/a
647.107	0.09	1294214	keystroke	Key.space	n/a
647.947	0.09	1295894	keystroke	e	n/a
648.202	0.105	1296404	keystroke	x	n/a
648.427	0.09	1296854	keystroke	p	n/a
648.547	0.105	1297094	keystroke	r	n/a
648.622	0.105	1297244	keystroke	e	n/a
648.847	0.06	1297694	keystroke	s	n/a
649.012	0.06	1298024	keystroke	s	n/a
649.132	0.0895	1298264	keystroke	Key.space	n/a
649.3875	0.044	1298775	keystroke	b	n/a
649.5965	0.1355	1299193	keystroke	s	n/a
649.897	0.0895	1299794	keystroke	i	n/a
650.0025	0.075	1300005	keystroke	c	n/a
650.9465	0.105	1301893	keystroke	=	n/a
651.172	0.0745	1302344	keystroke	=	n/a
651.5475	0.0895	1303095	keystroke	Key.backspace	n/a
651.727	0.074	1303454	keystroke	Key.backspace	n/a
651.922	0.03	1303844	keystroke	Key.backspace	n/a
652.056	0.046	1304112	keystroke	Key.backspace	n/a
652.206	0.06	1304412	keystroke	Key.backspace	n/a
653.0625	0.1335	1306125	keystroke	a	n/a
653.197	0.1655	1306394	keystroke	s	n/a
653.3475	0.0895	1306695	keystroke	i	n/a
653.482	0.075	1306964	keystroke	c	n/a
653.632	0.075	1307264	keystroke	Key.enter	n/a
653.713	10.6305	1307426	prompt	n/a	fisheries hardware curves punk\n
654.892	0.0605	1309784	keystroke	f	n/a
655.147	0.045	1310294	keystroke	i	n/a
655.2965	0.0755	1310593	keystroke	s	n/a
655.4175	0.09	1310835	keystroke	h	n/a
656.707	0.149	1313414	keystroke	e	n/a
656.842	0.1195	1313684	keystroke	r	n/a
