onset	duration	sample	value	key	prompt_text
5.1795	7.5295	10359	prompt	n/a	the quick brown fox jumps over a lazy dog\n
6.873	0.057	13746	keystroke_t	t	n/a
6.945	0.09	13890	keystroke_h	h	n/a
7.036	0.119	14072	keystroke_e	e	n/a
7.125	0.075	14250	keystroke_Key.space	Key.space	n/a
7.29	0.135	14580	keystroke_q	q	n/a
7.35	0.09	14700	keystroke_u	u	n/a
7.5155	0.09	15031	keystroke_i	i	n/a
7.6655	0.136	15331	keystroke_c	c	n/a
7.7405	0.09	15481	keystroke_k	k	n/a
7.8755	0.06	15751	keystroke_Key.space	Key.space	n/a
7.9805	0.09	15961	keystroke_b	b	n/a
8.1755	0.12	16351	keystroke_r	r	n/a
8.3405	0.105	16681	keystroke_o	o	n/a
8.4605	0.1505	16921	keystroke_w	w	n/a
8.596	0.09	17192	keystroke_n	n	n/a
8.731	0.09	17462	keystroke_Key.space	Key.space	n/a
8.836	0.09	17672	keystroke_f	f	n/a
8.956	0.105	17912	keystroke_o	o	n/a
9.091	0.1055	18182	keystroke_x	x	n/a
9.2105	0.075	18421	keystroke_Key.space	Key.space	n/a
9.3615	0.074	18723	keystroke_j	j	n/a
9.5115	0.0745	19023	keystroke_u	u	n/a
9.66	0.105	19320	keystroke_m	m	n/a
9.781	0.089	19562	keystroke_p	p	n/a
9.931	0.1195	19862	keystroke_s	s	n/a
10.0355	0.06	20071	keystroke_Key.space	Key.space	n/a
10.1405	0.09	20281	keystroke_o	o	n/a
10.2455	0.105	20491	keystroke_v	v	n/a
10.4105	0.075	20821	keystroke_e	e	n/a
10.5905	0.075	21181	keystroke_r	r	n/a
10.6805	0.06	21361	keystroke_Key.space	Key.space	n/a
10.7705	0.105	21541	keystroke_a	a	n/a
10.8605	0.06	21721	keystroke_Key.space	Key.space	n/a
11.0405	0.09	22081	keystroke_l	l	n/a
11.1455	0.09	22291	keystroke_a	a	n/a
11.3105	0.135	22621	keystroke_z	z	n/a
11.475	0.0605	22950	keystroke_y	y	n/a
11.5805	0.075	23161	keystroke_Key.space	Key.space	n/a
11.7155	0.075	23431	keystroke_d	d	n/a
11.8055	0.075	23611	keystroke_o	o	n/a
11.9105	0.09	23821	keystroke_g	g	n/a
12.6455	0.06	25291	keystroke_Key.enter	Key.enter	n/a
12.716	8.767	25432	prompt	n/a	pieces redhead we're everyone\n
13.4105	0.09	26821	keystroke_p	p	n/a
13.6355	0.12	27271	keystroke_i	i	n/a
13.815	0.105	27630	keystroke_e	e	n/a
14.055	0.09	28110	keystroke_c	c	n/a
14.19	0.0755	28380	keystroke_e	e	n/a
14.3855	0.09	28771	keystroke_s	s	n/a
14.7455	0.12	29491	keystroke_Key.space	Key.space	n/a
15.301	0.135	30602	keystroke_r	r	n/a
15.376	0.105	30752	keystroke_e	e	n/a
15.482	0.164	30964	keystroke_a	a	n/a
15.691	0.09	31382	keystroke_d	d	n/a
16.41	0.075	32820	keystroke_Key.backspace	Key.backspace	n/a
16.575	0.09	33150	keystroke_Key.backspace	Key.backspace	n/a
16.696	0.105	33392	keystroke_d	d	n/a
16.876	0.09	33752	keystroke_h	h	n/a
17.011	0.09	34022	keystroke_e	e	n/a
17.071	0.119	34142	keystroke_a	a	n/a
17.221	0.105	34442	keystroke_d	d	n/a
17.386	0.09	34772	keystroke_Key.space	Key.space	n/a
17.746	0.135	35492	keystroke_w	w	n/a
18.226	0.105	36452	keystroke_e	e	n/a
18.496	0.075	36992	keystroke_'	'	n/a
18.691	0.075	37382	keystroke_r	r	n/a
18.736	0.12	37472	keystroke_e	e	n/a
18.946	0.09	37892	keystroke_Key.space	Key.space	n/a
19.231	0.045	38462	keystroke_e	e	n/a
19.486	0.0905	38972	keystroke_v	v	n/a
19.7405	0.075	39481	keystroke_e	e	n/a
19.9355	0.09	39871	keystroke_r	r	n/a
20.1305	0.09	40261	keystroke_y	y	n/a
20.3405	0.075	40681	keystroke_o	o	n/a
20.5205	0.09	41041	keystroke_n	n	n/a
20.6555	0.075	41311	keystroke_e	e	n/a
21.4055	0.0755	42811	keystroke_Key.enter	Key.enter	n/a
21.489	6.414	42978	prompt	n/a	dose challenged hadn't shark\n
22.1105	0.0905	44221	keystroke_d	d	n/a
22.231	0.105	44462	keystroke_o	o	n/a
22.306	0.12	44612	keystroke_s	s	n/a
22.4705	0.105	44941	keystroke_e	e	n/a
22.6955	0.105	45391	keystroke_Key.space	Key.space	n/a
22.9215	0.1045	45843	keystroke_c	c	n/a
23.071	0.09	46142	keystroke_h	h	n/a
23.176	0.134	46352	keystroke_a	a	n/a
23.326	0.06	46652	keystroke_l	l	n/a
23.491	0.06	46982	keystroke_l	l	n/a
23.641	0.105	47282	keystroke_e	e	n/a
23.791	0.075	47582	keystroke_n	n	n/a
23.925	0.091	47850	keystroke_g	g	n/a
24.106	0.105	48212	keystroke_e	e	n/a
24.4355	0.09	48871	keystroke_d	d	n/a
24.7505	0.12	49501	keystroke_Key.space	Key.space	n/a
25.0355	0.075	50071	keystroke_c	c	n/a
25.291	0.075	50582	keystroke_Key.backspace	Key.backspace	n/a
25.501	0.09	51002	keystroke_h	h	n/a
25.606	0.105	51212	keystroke_a	a	n/a
25.7705	0.105	51541	keystroke_d	d	n/a
25.9055	0.105	51811	keystroke_n	n	n/a
26.205	0.1055	52410	keystroke_'	'	n/a
26.5205	0.09	53041	keystroke_t	t	n/a
26.8055	0.075	53611	keystroke_Key.space	Key.space	n/a
27.0455	0.105	54091	keystroke_s	s	n/a
27.1805	0.105	54361	keystroke_h	h	n/a
27.2705	0.165	54541	keystroke_a	a	n/a
27.4205	0.12	54841	keystroke_r	r	n/a
27.5705	0.105	55141	keystroke_k	k	n/a
27.8255	0.075	55651	keystroke_Key.enter	Key.enter	n/a
27.909	5.0645	55818	prompt	n/a	prize foster album why's\n
28.561	0.09	57122	keystroke_p	p	n/a
28.681	0.09	57362	keystroke_r	r	n/a
28.801	0.105	57602	keystroke_i	i	n/a
28.891	0.135	57782	keystroke_z	z	n/a
29.041	0.09	58082	keystroke_e	e	n/a
29.206	0.09	58412	keystroke_Key.space	Key.space	n/a
29.476	0.105	58952	keystroke_f	f	n/a
29.596	0.105	59192	keystroke_o	o	n/a
29.686	0.12	59372	keystroke_s	s	n/a
29.866	0.105	59732	keystroke_t	t	n/a
30.061	0.15	60122	keystroke_e	e	n/a
30.151	0.12	60302	keystroke_r	r	n/a
30.451	0.09	60902	keystroke_Key.space	Key.space	n/a
30.781	0.135	61562	keystroke_a	a	n/a
30.9755	0.075	61951	keystroke_l	l	n/a
31.1705	0.06	62341	keystroke_b	b	n/a
31.2455	0.105	62491	keystroke_u	u	n/a
31.4705	0.09	62941	keystroke_m	m	n/a
31.5905	0.105	63181	keystroke_Key.space	Key.space	n/a
31.7555	0.12	63511	keystroke_w	w	n/a
31.8605	0.0895	63721	keystroke_h	h	n/a
32.0405	0.076	64081	keystroke_y	y	n/a
32.356	0.12	64712	keystroke_'	'	n/a
32.671	0.09	65342	keystroke_s	s	n/a
32.896	0.075	65792	keystroke_Key.enter	Key.enter	n/a
32.98	9.863	65960	prompt	n/a	equilibrium gained devices brain\n
33.751	0.105	67502	keystroke_e	e	n/a
33.916	0.15	67832	keystroke_q	q	n/a
34.126	0.09	68252	keystroke_u	u	n/a
34.351	0.045	68702	keystroke_i	i	n/a
34.561	0.09	69122	keystroke_l	l	n/a
34.801	0.0895	69602	keystroke_i	i	n/a
35.716	0.12	71432	keystroke_b	b	n/a
36.0005	0.09	72001	keystroke_r	r	n/a
36.2555	0.0755	72511	keystroke_u	u	n/a
36.7055	0.0905	73411	keystroke_Key.backspace	Key.backspace	n/a
37.2605	0.12	74521	keystroke_i	i	n/a
37.5305	0.09	75061	keystroke_u	u	n/a
37.7705	0.12	75541	keystroke_m	m	n/a
38.0405	0.105	76081	keystroke_Key.space	Key.space	n/a
38.2505	0.075	76501	keystroke_g	g	n/a
38.3555	0.18	76711	keystroke_a	a	n/a
38.6705	0.0755	77341	keystroke_i	i	n/a
38.866	0.0895	77732	keystroke_n	n	n/a
39.0305	0.09	78061	keystroke_e	e	n/a
39.2705	0.075	78541	keystroke_d	d	n/a
39.8105	0.12	79621	keystroke_Key.space	Key.space	n/a
40.0355	0.045	80071	keystroke_g	g	n/a
40.3205	0.06	80641	keystroke_Key.backspace	Key.backspace	n/a
40.426	0.0895	80852	keystroke_d	d	n/a
40.6055	0.06	81211	keystroke_e	e	n/a
40.7855	0.09	81571	keystroke_v	v	n/a
40.9205	0.06	81841	keystroke_i	i	n/a
41.0105	0.09	82021	keystroke_c	c	n/a
41.1605	0.09	82321	keystroke_e	e	n/a
41.2955	0.135	82591	keystroke_s	s	n/a
41.536	0.1045	83072	keystroke_Key.space	Key.space	n/a
41.7905	0.09	83581	keystroke_b	b	n/a
41.8955	0.075	83791	keystroke_r	r	n/a
41.9405	0.18	83881	keystroke_a	a	n/a
42.0755	0.075	84151	keystroke_i	i	n/a
42.1805	0.12	84361	keystroke_n	n	n/a
42.7805	0.06	85561	keystroke_Key.enter	Key.enter	n/a
42.8485	7.7795	85697	prompt	n/a	beaver located motherboard gardens\n
43.5755	0.105	87151	keystroke_b	b	n/a
43.6955	0.105	87391	keystroke_e	e	n/a
43.8305	0.18	87661	keystroke_a	a	n/a
44.0255	0.09	88051	keystroke_v	v	n/a
44.2205	0.09	88441	keystroke_e	e	n/a
44.4455	0.06	88891	keystroke_r	r	n/a
44.8055	0.105	89611	keystroke_Key.space	Key.space	n/a
45.0605	0.09	90121	keystroke_l	l	n/a
45.2555	0.105	90511	keystroke_o	o	n/a
45.3755	0.09	90751	keystroke_c	c	n/a
45.6305	0.18	91261	keystroke_a	a	n/a
45.8555	0.09	91711	keystroke_t	t	n/a
46.0655	0.075	92131	keystroke_e	e	n/a
46.3055	0.075	92611	keystroke_d	d	n/a
46.5005	0.09	93001	keystroke_Key.space	Key.space	n/a
46.7555	0.075	93511	keystroke_m	m	n/a
46.8605	0.135	93721	keystroke_o	o	n/a
47.1755	0.015	94351	keystroke_t	t	n/a
47.2055	0.105	94411	keystroke_h	h	n/a
47.3255	0.105	94651	keystroke_e	e	n/a
47.5505	0.105	95101	keystroke_r	r	n/a
47.9255	0.09	95851	keystroke_b	b	n/a
48.0755	0.12	96151	keystroke_o	o	n/a
48.1655	0.18	96331	keystroke_a	a	n/a
48.3155	0.075	96631	keystroke_r	r	n/a
48.5405	0.09	97081	keystroke_d	d	n/a
49.2005	0.15	98401	keystroke_Key.space	Key.space	n/a
49.3955	0.075	98791	keystroke_g	g	n/a
49.4855	0.165	98971	keystroke_a	a	n/a
49.6055	0.105	99211	keystroke_r	r	n/a
49.8155	0.045	99631	keystroke_d	d	n/a
49.9655	0.075	99931	keystroke_e	e	n/a
50.1305	0.09	100261	keystroke_n	n	n/a
50.2655	0.105	100531	keystroke_s	s	n/a
50.5655	0.06	101131	keystroke_Key.enter	Key.enter	n/a
50.633	9.731	101266	prompt	n/a	accessible transform checks moreover\n
51.2705	0.105	102541	keystroke_a	a	n/a
51.4505	0.09	102901	keystroke_c	c	n/a
51.6305	0.03	103261	keystroke_c	c	n/a
51.7505	0.09	103501	keystroke_e	e	n/a
51.8255	0.06	103651	keystroke_s	s	n/a
51.9905	0.09	103981	keystroke_s	s	n/a
52.3805	0.09	104761	keystroke_i	i	n/a
52.6355	0.105	105271	keystroke_b	b	n/a
53.2355	0.105	106471	keystroke_l	l	n/a
53.4455	0.09	106891	keystroke_e	e	n/a
53.7155	0.105	107431	keystroke_Key.space	Key.space	n/a
54.1805	0.09	108361	keystroke_t	t	n/a
54.3905	0.105	108781	keystroke_r	r	n/a
54.4655	0.15	108931	keystroke_a	a	n/a
54.6305	0.105	109261	keystroke_n	n	n/a
54.7505	0.09	109501	keystroke_s	s	n/a
54.9005	0.09	109801	keystroke_f	f	n/a
55.0505	0.09	110101	keystroke_o	o	n/a
55.1555	0.09	110311	keystroke_r	r	n/a
55.3055	0.09	110611	keystroke_m	m	n/a
55.5155	0.09	111031	keystroke_Key.space	Key.space	n/a
55.8155	0.09	111631	keystroke_c	c	n/a
55.9505	0.075	111901	keystroke_h	h	n/a
56.0105	0.105	112021	keystroke_e	e	n/a
56.2205	0.06	112441	keystroke_k	k	n/a
56.8505	0.09	113701	keystroke_Key.backspace	Key.backspace	n/a
56.9555	0.105	113911	keystroke_c	c	n/a
57.1055	0.105	114211	keystroke_k	k	n/a
57.3005	0.105	114601	keystroke_s	s	n/a
57.4205	0.12	114841	keystroke_Key.space	Key.space	n/a
57.7955	0.09	115591	keystroke_m	m	n/a
57.9155	0.09	115831	keystroke_o	o	n/a
58.0355	0.09	116071	keystroke_v	v	n/a
58.2005	0.06	116401	keystroke_e	e	n/a
58.5755	0.09	117151	keystroke_Key.backspace	Key.backspace	n/a
58.7705	0.075	117541	keystroke_Key.backspace	Key.backspace	n/a
58.8905	0.09	117781	keystroke_r	r	n/a
59.0855	0.12	118171	keystroke_e	e	n/a
59.4305	0.105	118861	keystroke_o	o	n/a
59.6255	0.09	119251	keystroke_v	v	n/a
59.8205	0.075	119641	keystroke_e	e	n/a
60.0305	0.06	120061	keystroke_r	r	n/a
60.2705	0.09	120541	keystroke_Key.enter	Key.enter	n/a
60.3725	7.0705	120745	prompt	n/a	teen gossip external heroes\n
61.1855	0.075	122371	keystroke_t	t	n/a
61.3205	0.09	122641	keystroke_e	e	n/a
61.5005	0.105	123001	keystroke_e	e	n/a
61.6655	0.09	123331	keystroke_n	n	n/a
61.8605	0.105	123721	keystroke_Key.space	Key.space	n/a
62.0705	0.105	124141	keystroke_g	g	n/a
62.2055	0.09	124411	keystroke_o	o	n/a
62.3255	0.06	124651	keystroke_s	s	n/a
62.4605	0.09	124921	keystroke_s	s	n/a
62.5955	0.075	125191	keystroke_i	i	n/a
62.7905	0.075	125581	keystroke_p	p	n/a
62.9855	0.09	125971	keystroke_Key.space	Key.space	n/a
63.2405	0.06	126481	keystroke_e	e	n/a
63.4355	0.09	126871	keystroke_x	x	n/a
63.5705	0.09	127141	keystroke_t	t	n/a
63.7355	0.105	127471	keystroke_e	e	n/a
63.9755	0.09	127951	keystroke_r	r	n/a
64.2005	0.09	128401	keystroke_n	n	n/a
64.3955	0.15	128791	keystroke_a	a	n/a
64.6355	0.075	129271	keystroke_l	l	n/a
64.8605	0.09	129721	keystroke_Key.space	Key.space	n/a
65.0855	0.105	130171	keystroke_h	h	n/a
65.1755	0.075	130351	keystroke_e	e	n/a
65.4155	0.09	130831	keystroke_r	r	n/a
65.8805	0.12	131761	keystroke_o	o	n/a
66.1355	0.075	132271	keystroke_e	e	n/a
66.3755	0.09	132751	keystroke_s	s	n/a
67.3805	0.06	134761	keystroke_Key.enter	Key.enter	n/a
67.449	5.5445	134898	prompt	n/a	louis prize a executed\n
68.0705	0.06	136141	keystroke_l	l	n/a
68.2355	0.075	136471	keystroke_o	o	n/a
68.6555	0.105	137311	keystroke_u	u	n/a
68.8805	0.09	137761	keystroke_i	i	n/a
69.1055	0.105	138211	keystroke_s	s	n/a
69.2855	0.105	138571	keystroke_Key.space	Key.space	n/a
69.6005	0.075	139201	keystroke_p	p	n/a
69.6905	0.075	139381	keystroke_r	r	n/a
69.8255	0.105	139651	keystroke_i	i	n/a
69.9155	0.105	139831	keystroke_z	z	n/a
70.0665	0.104	140133	keystroke_e	e	n/a
70.2005	0.09	140401	keystroke_Key.space	Key.space	n/a
70.3055	0.12	140611	keystroke_a	a	n/a
70.4105	0.09	140821	keystroke_Key.space	Key.space	n/a
71.0855	0.075	142171	keystroke_e	e	n/a
71.3105	0.12	142621	keystroke_x	x	n/a
71.5955	0.09	143191	keystroke_e	e	n/a
71.8355	0.105	143671	keystroke_c	c	n/a
72.1055	0.12	144211	keystroke_u	u	n/a
72.2855	0.09	144571	keystroke_t	t	n/a
72.4805	0.075	144961	keystroke_e	e	n/a
72.7055	0.075	145411	keystroke_d	d	n/a
72.9155	0.075	145831	keystroke_Key.enter	Key.enter	n/a
72.9985	10.8235	145997	prompt	n/a	congressional resort river except\n
73.7405	0.09	147481	keystroke_c	c	n/a
73.8755	0.09	147751	keystroke_o	o	n/a
74.0705	0.075	148141	keystroke_n	n	n/a
74.2055	0.09	148411	keystroke_g	g	n/a
74.3555	0.12	148711	keystroke_r	r	n/a
74.4155	0.09	148831	keystroke_e	e	n/a
74.6255	0.06	149251	keystroke_s	s	n/a
74.7605	0.105	149521	keystroke_s	s	n/a
74.8805	0.105	149761	keystroke_i	i	n/a
75.0455	0.105	150091	keystroke_o	o	n/a
75.2255	0.12	150451	keystroke_n	n	n/a
75.7655	0.15	151531	keystroke_a	a	n/a
75.9905	0.105	151981	keystroke_l	l	n/a
76.2605	0.105	152521	keystroke_Key.space	Key.space	n/a
76.6655	0.135	153331	keystroke_r	r	n/a
76.7555	0.105	153511	keystroke_e	e	n/a
76.9805	0.12	153961	keystroke_s	s	n/a
77.1155	0.105	154231	keystroke_o	o	n/a
77.2355	0.105	154471	keystroke_r	r	n/a
77.3705	0.105	154741	keystroke_t	t	n/a
77.3855	0.015	154771	keystroke_r	r	n/a
77.5355	0.12	155071	keystroke_Key.space	Key.space	n/a
77.7005	0.12	155401	keystroke_r	r	n/a
77.8655	0.15	155731	keystroke_e	e	n/a
78.0905	0.12	156181	keystroke_v	v	n/a
78.2705	0.121	156541	keystroke_i	i	n/a
78.9005	0.045	157801	keystroke_Key.backspace	Key.backspace	n/a
79.0805	0.03	158161	keystroke_Key.backspace	Key.backspace	n/a
79.2305	0.045	158461	keystroke_Key.backspace	Key.backspace	n/a
79.3805	0.06	158761	keystroke_Key.backspace	Key.backspace	n/a
79.5455	0.045	159091	keystroke_Key.backspace	Key.backspace	n/a
79.9055	0.06	159811	keystroke_Key.backspace	Key.backspace	n/a
80.1005	0.075	160201	keystroke_Key.space	Key.space	n/a
80.2805	0.105	160561	keystroke_r	r	n/a
80.4155	0.075	160831	keystroke_e	e	n/a
80.8205	0.075	161641	keystroke_Key.backspace	Key.backspace	n/a
81.0455	0.09	162091	keystroke_i	i	n/a
81.1655	0.09	162331	keystroke_v	v	n/a
81.3455	0.075	162691	keystroke_e	e	n/a
81.5405	0.075	163081	keystroke_r	r	n/a
81.6755	0.105	163351	keystroke_Key.space	Key.space	n/a
81.8555	0.061	163711	keystroke_e	e	n/a
82.0655	0.12	164131	keystroke_x	x	n/a
82.2755	0.045	164551	keystroke_p	p	n/a
82.5755	0.075	165151	keystroke_Key.backspace	Key.backspace	n/a
82.7105	0.105	165421	keystroke_c	c	n/a
82.9505	0.105	165901	keystroke_e	e	n/a
83.1305	0.105	166261	keystroke_p	p	n/a
83.2955	0.09	166591	keystroke_t	t	n/a
83.7755	0.045	167551	keystroke_Key.enter	Key.enter	n/a
83.826	5.7415	167652	prompt	n/a	spice deliver mars basin\n
84.4665	0.119	168933	keystroke_s	s	n/a
84.5705	0.075	169141	keystroke_p	p	n/a
84.7505	0.105	169501	keystroke_i	i	n/a
84.8855	0.12	169771	keystroke_c	c	n/a
84.9905	0.09	169981	keystroke_e	e	n/a
85.1255	0.09	170251	keystroke_Key.space	Key.space	n/a
85.3205	0.075	170641	keystroke_d	d	n/a
85.6655	0.075	171331	keystroke_e	e	n/a
85.8905	0.06	171781	keystroke_l	l	n/a
86.0555	0.075	172111	keystroke_i	i	n/a
86.2505	0.075	172501	keystroke_v	v	n/a
86.4305	0.09	172861	keystroke_e	e	n/a
86.6555	0.075	173311	keystroke_r	r	n/a
86.9405	0.105	173881	keystroke_Key.space	Key.space	n/a
87.2555	0.165	174511	keystroke_m	m	n/a
87.4355	0.135	174871	keystroke_a	a	n/a
87.5255	0.09	175051	keystroke_r	r	n/a
87.7805	0.09	175561	keystroke_s	s	n/a
88.0355	0.09	176071	keystroke_Key.space	Key.space	n/a
88.6505	0.075	177301	keystroke_b	b	n/a
88.7555	0.12	177511	keystroke_a	a	n/a
88.9215	0.104	177843	keystroke_s	s	n/a
89.0555	0.075	178111	keystroke_i	i	n/a
89.2665	0.089	178533	keystroke_n	n	n/a
89.4905	0.075	178981	keystroke_Key.enter	Key.enter	n/a
89.5715	6.881	179143	prompt	n/a	fuji yourself inspired became\n
90.3005	0.135	180601	keystroke_f	f	n/a
90.4665	0.104	180933	keystroke_u	u	n/a
91.0355	0.105	182071	keystroke_j	j	n/a
91.3205	0.09	182641	keystroke_i	i	n/a
91.5305	0.09	183061	keystroke_Key.space	Key.space	n/a
91.8455	0.076	183691	keystroke_y	y	n/a
92.0405	0.135	184081	keystroke_o	o	n/a
92.2205	0.135	184441	keystroke_u	u	n/a
92.4005	0.09	184801	keystroke_r	r	n/a
92.6705	0.09	185341	keystroke_s	s	n/a
92.7315	0.104	185463	keystroke_e	e	n/a
92.8955	0.135	185791	keystroke_l	l	n/a
93.0915	0.105	186183	keystroke_f	f	n/a
93.4955	0.09	186991	keystroke_Key.space	Key.space	n/a
93.7665	0.089	187533	keystroke_i	i	n/a
93.9455	0.09	187891	keystroke_n	n	n/a
94.0815	0.12	188163	keystroke_s	s	n/a
94.1865	0.059	188373	keystroke_p	p	n/a
94.3655	0.076	188731	keystroke_i	i	n/a
94.4555	0.135	188911	keystroke_r	r	n/a
94.6055	0.091	189211	keystroke_e	e	n/a
94.8465	0.105	189693	keystroke_d	d	n/a
95.1305	0.105	190261	keystroke_Key.space	Key.space	n/a
95.4015	0.089	190803	keystroke_b	b	n/a
95.5065	0.06	191013	keystroke_e	e	n/a
95.6405	0.105	191281	keystroke_c	c	n/a
95.7165	0.18	191433	keystroke_a	a	n/a
95.9115	0.074	191823	keystroke_m	m	n/a
96.0605	0.075	192121	keystroke_e	e	n/a
96.3605	0.09	192721	keystroke_Key.enter	Key.enter	n/a
96.4575	8.186	192915	prompt	n/a	costume needle sussex inquire\n
97.2015	0.12	194403	keystroke_c	c	n/a
97.3355	0.091	194671	keystroke_o	o	n/a
97.7255	0.09	195451	keystroke_s	s	n/a
97.9055	0.105	195811	keystroke_t	t	n/a
98.1165	0.089	196233	keystroke_u	u	n/a
98.3415	0.119	196683	keystroke_m	m	n/a
98.5355	0.12	197071	keystroke_e	e	n/a
98.8805	0.105	197761	keystroke_Key.space	Key.space	n/a
99.2555	0.12	198511	keystroke_n	n	n/a
99.6905	0.06	199381	keystroke_e	e	n/a
99.8565	0.074	199713	keystroke_e	e	n/a
100.0815	0.09	200163	keystroke_d	d	n/a
100.2305	0.12	200461	keystroke_l	l	n/a
100.4255	0.09	200851	keystroke_e	e	n/a
100.6205	0.105	201241	keystroke_Key.space	Key.space	n/a
100.9815	0.09	201963	keystroke_s	s	n/a
101.1155	0.09	202231	keystroke_u	u	n/a
101.3255	0.06	202651	keystroke_s	s	n/a
101.4915	0.059	202983	keystroke_s	s	n/a
101.7165	0.06	203433	keystroke_e	e	n/a
101.9705	0.12	203941	keystroke_x	x	n/a
102.1805	0.12	204361	keystroke_Key.space	Key.space	n/a
102.4215	0.089	204843	keystroke_i	i	n/a
102.6305	0.09	205261	keystroke_n	n	n/a
102.8555	0.09	205711	keystroke_q	q	n/a
102.9755	0.105	205951	keystroke_u	u	n/a
103.2005	0.09	206401	keystroke_i	i	n/a
103.3805	0.075	206761	keystroke_r	r	n/a
103.5605	0.105	207121	keystroke_e	e	n/a
104.5205	0.121	209041	keystroke_Key.enter	Key.enter	n/a
104.6545	4.4735	209309	prompt	n/a	clean lose says detailed\n
105.2865	0.089	210573	keystroke_c	c	n/a
105.4365	0.089	210873	keystroke_l	l	n/a
105.4965	0.089	210993	keystroke_e	e	n/a
105.5715	0.15	211143	keystroke_a	a	n/a
105.6765	0.104	211353	keystroke_n	n	n/a
105.7955	0.09	211591	keystroke_Key.space	Key.space	n/a
105.9315	0.06	211863	keystroke_l	l	n/a
106.1265	0.089	212253	keystroke_o	o	n/a
106.2305	0.136	212461	keystroke_s	s	n/a
106.3515	0.104	212703	keystroke_e	e	n/a
106.4705	0.09	212941	keystroke_Key.space	Key.space	n/a
106.6205	0.105	213241	keystroke_s	s	n/a
106.7405	0.166	213481	keystroke_a	a	n/a
106.8915	0.1035	213783	keystroke_y	y	n/a
107.011	0.105	214022	keystroke_s	s	n/a
107.19	0.1055	214380	keystroke_Key.space	Key.space	n/a
107.5065	0.09	215013	keystroke_d	d	n/a
107.6715	0.089	215343	keystroke_e	e	n/a
107.8665	0.075	215733	keystroke_t	t	n/a
107.9715	0.135	215943	keystroke_a	a	n/a
108.1065	0.0735	216213	keystroke_i	i	n/a
108.255	0.09	216510	keystroke_l	l	n/a
108.375	0.0915	216750	keystroke_e	e	n/a
108.601	0.059	217202	keystroke_d	d	n/a
109.0205	0.105	218041	keystroke_Key.enter	Key.enter	n/a
109.132	6.1615	218264	prompt	n/a	police solid waste implied\n
109.741	0.06	219482	keystroke_p	p	n/a
109.9205	0.0595	219841	keystroke_o	o	n/a
110.13	0.061	220260	keystroke_l	l	n/a
110.311	0.075	220622	keystroke_i	i	n/a
111.1055	0.105	222211	keystroke_c	c	n/a
111.286	0.119	222572	keystroke_e	e	n/a
111.481	0.089	222962	keystroke_Key.space	Key.space	n/a
111.616	0.15	223232	keystroke_s	s	n/a
111.766	0.09	223532	keystroke_o	o	n/a
112.02	0.076	224040	keystroke_l	l	n/a
112.201	0.075	224402	keystroke_i	i	n/a
112.336	0.12	224672	keystroke_d	d	n/a
112.605	0.09	225210	keystroke_Key.space	Key.space	n/a
112.831	0.09	225662	keystroke_w	w	n/a
112.935	0.135	225870	keystroke_a	a	n/a
113.0405	0.1205	226081	keystroke_s	s	n/a
113.236	0.0895	226472	keystroke_t	t	n/a
113.416	0.09	226832	keystroke_e	e	n/a
113.55	0.076	227100	keystroke_Key.space	Key.space	n/a
113.716	0.075	227432	keystroke_i	i	n/a
113.91	0.061	227820	keystroke_m	m	n/a
114.076	0.059	228152	keystroke_p	p	n/a
114.376	0.09	228752	keystroke_l	l	n/a
114.601	0.089	229202	keystroke_i	i	n/a
114.766	0.089	229532	keystroke_e	e	n/a
114.976	0.09	229952	keystroke_d	d	n/a
115.23	0.061	230460	keystroke_Key.enter	Key.enter	n/a
115.2985	6.0245	230597	prompt	n/a	acer moments federal meat\n
115.861	0.135	231722	keystroke_a	a	n/a
116.056	0.09	232112	keystroke_c	c	n/a
116.206	0.105	232412	keystroke_e	e	n/a
116.431	0.09	232862	keystroke_r	r	n/a
116.595	0.09	233190	keystroke_Key.space	Key.space	n/a
116.791	0.09	233582	keystroke_m	m	n/a
116.926	0.09	233852	keystroke_o	o	n/a
117.136	0.105	234272	keystroke_m	m	n/a
117.33	0.135	234660	keystroke_e	e	n/a
117.48	0.105	234960	keystroke_n	n	n/a
117.676	0.075	235352	keystroke_t	t	n/a
117.901	0.12	235802	keystroke_s	s	n/a
118.396	0.089	236792	keystroke_Key.space	Key.space	n/a
118.621	0.075	237242	keystroke_f	f	n/a
118.816	0.06	237632	keystroke_e	e	n/a
118.981	0.075	237962	keystroke_d	d	n/a
119.161	0.075	238322	keystroke_e	e	n/a
119.356	0.06	238712	keystroke_r	r	n/a
119.566	0.15	239132	keystroke_a	a	n/a
119.806	0.104	239612	keystroke_l	l	n/a
120.211	0.09	240422	keystroke_Key.space	Key.space	n/a
120.451	0.0905	240902	keystroke_m	m	n/a
120.631	0.12	241262	keystroke_e	e	n/a
120.736	0.195	241472	keystroke_a	a	n/a
120.901	0.105	241802	keystroke_t	t	n/a
121.201	0.12	242402	keystroke_Key.enter	Key.enter	n/a
121.329	6.8345	242658	prompt	n/a	alike register total entrance\n
121.996	0.165	243992	keystroke_a	a	n/a
122.176	0.09	244352	keystroke_l	l	n/a
122.386	0.075	244772	keystroke_i	i	n/a
122.596	0.105	245192	keystroke_k	k	n/a
122.746	0.09	245492	keystroke_e	e	n/a
123.09	0.09	246180	keystroke_Key.space	Key.space	n/a
123.406	0.09	246812	keystroke_r	r	n/a
123.496	0.104	246992	keystroke_e	e	n/a
123.721	0.09	247442	keystroke_g	g	n/a
123.856	0.105	247712	keystroke_i	i	n/a
123.991	0.15	247982	keystroke_s	s	n/a
124.111	0.09	248222	keystroke_t	t	n/a
124.306	0.12	248612	keystroke_e	e	n/a
124.546	0.09	249092	keystroke_r	r	n/a
124.936	0.12	249872	keystroke_Key.space	Key.space	n/a
125.251	0.105	250502	keystroke_t	t	n/a
125.401	0.104	250802	keystroke_o	o	n/a
125.746	0.135	251492	keystroke_t	t	n/a
125.941	0.165	251882	keystroke_a	a	n/a
126.196	0.075	252392	keystroke_l	l	n/a
126.405	0.091	252810	keystroke_Key.space	Key.space	n/a
126.571	0.12	253142	keystroke_e	e	n/a
126.766	0.12	253532	keystroke_n	n	n/a
126.975	0.061	253950	keystroke_t	t	n/a
127.126	0.105	254252	keystroke_r	r	n/a
127.216	0.165	254432	keystroke_a	a	n/a
127.396	0.105	254792	keystroke_n	n	n/a
127.561	0.15	255122	keystroke_c	c	n/a
127.696	0.105	255392	keystroke_e	e	n/a
128.085	0.076	256170	keystroke_Key.enter	Key.enter	n/a
128.168	7.9145	256336	prompt	n/a	thus motherboard cooperative senators\n
128.911	0.12	257822	keystroke_t	t	n/a
129.121	0.075	258242	keystroke_h	h	n/a
129.256	0.105	258512	keystroke_u	u	n/a
129.376	0.12	258752	keystroke_s	s	n/a
129.511	0.09	259022	keystroke_Key.space	Key.space	n/a
129.811	0.06	259622	keystroke_m	m	n/a
129.916	0.12	259832	keystroke_o	o	n/a
130.126	0.105	260252	keystroke_t	t	n/a
130.276	0.09	260552	keystroke_h	h	n/a
130.381	0.105	260762	keystroke_e	e	n/a
130.576	0.105	261152	keystroke_r	r	n/a
130.696	0.09	261392	keystroke_b	b	n/a
130.861	0.105	261722	keystroke_o	o	n/a
130.981	0.15	261962	keystroke_a	a	n/a
131.116	0.105	262232	keystroke_r	r	n/a
131.356	0.105	262712	keystroke_d	d	n/a
131.626	0.09	263252	keystroke_Key.space	Key.space	n/a
131.956	0.12	263912	keystroke_c	c	n/a
132.121	0.105	264242	keystroke_o	o	n/a
132.331	0.075	264662	keystroke_o	o	n/a
132.526	0.09	265052	keystroke_p	p	n/a
132.706	0.09	265412	keystroke_e	e	n/a
132.946	0.075	265892	keystroke_r	r	n/a
133.111	0.135	266222	keystroke_a	a	n/a
133.336	0.075	266672	keystroke_t	t	n/a
133.456	0.15	266912	keystroke_i	i	n/a
133.621	0.075	267242	keystroke_v	v	n/a
133.801	0.06	267602	keystroke_e	e	n/a
134.206	0.09	268412	keystroke_Key.space	Key.space	n/a
134.671	0.09	269342	keystroke_s	s	n/a
134.866	0.09	269732	keystroke_e	e	n/a
135.031	0.105	270062	keystroke_n	n	n/a
135.166	0.15	270332	keystroke_a	a	n/a
135.286	0.09	270572	keystroke_t	t	n/a
135.481	0.09	270962	keystroke_o	o	n/a
135.556	0.075	271112	keystroke_r	r	n/a
135.766	0.09	271532	keystroke_s	s	n/a
136.006	0.075	272012	keystroke_Key.enter	Key.enter	n/a
136.086	6.1925	272172	prompt	n/a	major cure limitations peter\n
136.771	0.075	273542	keystroke_m	m	n/a
136.876	0.15	273752	keystroke_a	a	n/a
137.011	0.06	274022	keystroke_j	j	n/a
137.101	0.105	274202	keystroke_o	o	n/a
137.251	0.09	274502	keystroke_r	r	n/a
137.326	0.09	274652	keystroke_Key.space	Key.space	n/a
137.536	0.09	275072	keystroke_c	c	n/a
137.656	0.09	275312	keystroke_u	u	n/a
137.806	0.075	275612	keystroke_r	r	n/a
138.001	0.12	276002	keystroke_e	e	n/a
138.181	0.105	276362	keystroke_Key.space	Key.space	n/a
138.436	0.075	276872	keystroke_l	l	n/a
138.616	0.06	277232	keystroke_i	i	n/a
138.796	0.075	277592	keystroke_m	m	n/a
138.961	0.105	277922	keystroke_i	i	n/a
139.126	0.105	278252	keystroke_t	t	n/a
139.276	0.165	278552	keystroke_a	a	n/a
139.366	0.105	278732	keystroke_t	t	n/a
139.486	0.105	278972	keystroke_i	i	n/a
139.621	0.15	279242	keystroke_o	o	n/a
139.726	0.135	279452	keystroke_n	n	n/a
139.966	0.105	279932	keystroke_s	s	n/a
140.311	0.105	280622	keystroke_Key.space	Key.space	n/a
140.536	0.105	281072	keystroke_p	p	n/a
141.031	0.105	282062	keystroke_e	e	n/a
141.271	0.09	282542	keystroke_t	t	n/a
141.556	0.105	283112	keystroke_e	e	n/a
141.826	0.09	283652	keystroke_r	r	n/a
142.201	0.075	284402	keystroke_Key.enter	Key.enter	n/a
142.2865	5.4205	284573	prompt	n/a	outer trance wish relations\n
143.0405	0.09	286081	keystroke_o	o	n/a
143.2655	0.12	286531	keystroke_u	u	n/a
143.4155	0.09	286831	keystroke_t	t	n/a
143.6405	0.09	287281	keystroke_e	e	n/a
143.8655	0.075	287731	keystroke_r	r	n/a
144.0605	0.105	288121	keystroke_Key.space	Key.space	n/a
144.2855	0.06	288571	keystroke_t	t	n/a
144.4055	0.135	288811	keystroke_r	r	n/a
144.5105	0.135	289021	keystroke_a	a	n/a
144.6905	0.135	289381	keystroke_n	n	n/a
144.8855	0.105	289771	keystroke_c	c	n/a
145.1105	0.105	290221	keystroke_e	e	n/a
145.3655	0.09	290731	keystroke_Key.space	Key.space	n/a
145.5755	0.105	291151	keystroke_w	w	n/a
145.6815	0.119	291363	keystroke_i	i	n/a
145.8455	0.12	291691	keystroke_s	s	n/a
146.0105	0.075	292021	keystroke_h	h	n/a
146.1755	0.105	292351	keystroke_Key.space	Key.space	n/a
146.5205	0.12	293041	keystroke_r	r	n/a
146.5805	0.135	293161	keystroke_e	e	n/a
146.7905	0.105	293581	keystroke_l	l	n/a
146.8805	0.165	293761	keystroke_a	a	n/a
146.9405	0.12	293881	keystroke_t	t	n/a
147.0755	0.075	294151	keystroke_i	i	n/a
147.1955	0.12	294391	keystroke_o	o	n/a
147.2705	0.105	294541	keystroke_n	n	n/a
147.4055	0.09	294811	keystroke_s	s	n/a
147.6155	0.09	295231	keystroke_Key.enter	Key.enter	n/a
147.7115	5.8155	295423	prompt	n/a	recommend tissue voices fatty\n
148.4555	0.12	296911	keystroke_r	r	n/a
148.5455	0.12	297091	keystroke_e	e	n/a
148.7405	0.105	297481	keystroke_c	c	n/a
148.9055	0.075	297811	keystroke_o	o	n/a
149.1155	0.06	298231	keystroke_m	m	n/a
149.2805	0.06	298561	keystroke_m	m	n/a
149.4155	0.09	298831	keystroke_e	e	n/a
149.5655	0.09	299131	keystroke_n	n	n/a
149.7005	0.12	299401	keystroke_d	d	n/a
149.8655	0.12	299731	keystroke_Key.space	Key.space	n/a
150.0305	0.135	300061	keystroke_t	t	n/a
150.2255	0.105	300451	keystroke_i	i	n/a
150.3755	0.06	300751	keystroke_s	s	n/a
150.5255	0.09	301051	keystroke_s	s	n/a
150.6455	0.105	301291	keystroke_u	u	n/a
150.8105	0.09	301621	keystroke_e	e	n/a
151.1105	0.12	302221	keystroke_Key.space	Key.space	n/a
151.3805	0.105	302761	keystroke_v	v	n/a
151.5455	0.075	303091	keystroke_o	o	n/a
151.7255	0.09	303451	keystroke_i	i	n/a
151.8605	0.075	303721	keystroke_c	c	n/a
152.0255	0.06	304051	keystroke_e	e	n/a
152.1905	0.105	304381	keystroke_s	s	n/a
152.4005	0.09	304801	keystroke_Key.space	Key.space	n/a
152.5805	0.105	305161	keystroke_f	f	n/a
152.6705	0.165	305341	keystroke_a	a	n/a
152.8205	0.06	305641	keystroke_t	t	n/a
152.9555	0.09	305911	keystroke_t	t	n/a
153.1805	0.06	306361	keystroke_y	y	n/a
153.4055	0.12	306811	keystroke_Key.enter	Key.enter	n/a
153.532	7.6305	307064	prompt	n/a	consisting chest situated approach\n
154.1855	0.12	308371	keystroke_c	c	n/a
154.3365	0.089	308673	keystroke_o	o	n/a
154.5305	0.105	309061	keystroke_n	n	n/a
154.6805	0.105	309361	keystroke_s	s	n/a
154.8755	0.075	309751	keystroke_i	i	n/a
155.0255	0.075	310051	keystroke_s	s	n/a
155.1905	0.09	310381	keystroke_t	t	n/a
155.4455	0.075	310891	keystroke_i	i	n/a
155.5655	0.15	311131	keystroke_n	n	n/a
155.7755	0.09	311551	keystroke_g	g	n/a
156.3155	0.09	312631	keystroke_Key.space	Key.space	n/a
156.5555	0.09	313111	keystroke_c	c	n/a
156.6905	0.075	313381	keystroke_h	h	n/a
156.7655	0.09	313531	keystroke_e	e	n/a
156.9605	0.135	313921	keystroke_s	s	n/a
157.0805	0.09	314161	keystroke_t	t	n/a
157.2155	0.09	314431	keystroke_Key.space	Key.space	n/a
157.4105	0.06	314821	keystroke_c	c	n/a
157.6805	0.075	315361	keystroke_Key.backspace	Key.backspace	n/a
157.8005	0.12	315601	keystroke_s	s	n/a
157.9805	0.06	315961	keystroke_i	i	n/a
158.0855	0.09	316171	keystroke_t	t	n/a
158.2055	0.09	316411	keystroke_u	u	n/a
158.2955	0.15	316591	keystroke_a	a	n/a
158.3855	0.105	316771	keystroke_t	t	n/a
158.5655	0.09	317131	keystroke_e	e	n/a
158.8055	0.075	317611	keystroke_d	d	n/a
159.5255	0.09	319051	keystroke_Key.space	Key.space	n/a
159.7955	0.105	319591	keystroke_a	a	n/a
159.9605	0.06	319921	keystroke_p	p	n/a
160.1255	0.06	320251	keystroke_p	p	n/a
160.2605	0.105	320521	keystroke_r	r	n/a
160.4105	0.12	320821	keystroke_o	o	n/a
160.5005	0.15	321001	keystroke_a	a	n/a
160.6205	0.12	321241	keystroke_c	c	n/a
160.7855	0.09	321571	keystroke_h	h	n/a
161.0705	0.09	322141	keystroke_Key.enter	Key.enter	n/a
161.1665	8.5455	322333	prompt	n/a	paperbacks prime basename anthropology\n
161.9105	0.105	323821	keystroke_p	p	n/a
162.0305	0.105	324061	keystroke_a	a	n/a
162.1365	0.089	324273	keystroke_p	p	n/a
162.2405	0.075	324481	keystroke_e	e	n/a
162.4055	0.075	324811	keystroke_r	r	n/a
162.6455	0.09	325291	keystroke_b	b	n/a
162.7505	0.135	325501	keystroke_a	a	n/a
162.9005	0.12	325801	keystroke_c	c	n/a
163.0805	0.075	326161	keystroke_k	k	n/a
163.2605	0.12	326521	keystroke_s	s	n/a
163.4255	0.09	326851	keystroke_Key.space	Key.space	n/a
163.6355	0.09	327271	keystroke_p	p	n/a
163.7855	0.135	327571	keystroke_r	r	n/a
163.9355	0.045	327871	keystroke_i	i	n/a
164.0705	0.105	328141	keystroke_m	m	n/a
164.2505	0.09	328501	keystroke_e	e	n/a
164.3555	0.075	328711	keystroke_Key.space	Key.space	n/a
164.6255	0.09	329251	keystroke_b	b	n/a
164.7455	0.135	329491	keystroke_a	a	n/a
164.8805	0.12	329761	keystroke_s	s	n/a
164.9855	0.09	329971	keystroke_e	e	n/a
165.2255	0.075	330451	keystroke_n	n	n/a
165.4355	0.135	330871	keystroke_a	a	n/a
165.6155	0.09	331231	keystroke_m	m	n/a
165.7955	0.09	331591	keystroke_e	e	n/a
166.8005	0.105	333601	keystroke_Key.space	Key.space	n/a
167.0405	0.15	334081	keystroke_a	a	n/a
167.2505	0.075	334501	keystroke_n	n	n/a
167.4305	0.09	334861	keystroke_t	t	n/a
167.5355	0.105	335071	keystroke_h	h	n/a
167.6855	0.105	335371	keystroke_r	r	n/a
167.8205	0.105	335641	keystroke_o	o	n/a
168.2405	0.09	336481	keystroke_p	p	n/a
168.4805	0.105	336961	keystroke_o	o	n/a
168.7355	0.075	337471	keystroke_l	l	n/a
168.9455	0.09	337891	keystroke_o	o	n/a
169.0655	0.075	338131	keystroke_g	g	n/a
169.2455	0.105	338491	keystroke_y	y	n/a
169.6355	0.075	339271	keystroke_Key.enter	Key.enter	n/a
169.718	10.374	339436	prompt	n/a	hawaiian beam constantly determines\n
170.5805	0.105	341161	keystroke_h	h	n/a
170.7605	0.135	341521	keystroke_a	a	n/a
170.9705	0.105	341941	keystroke_w	w	n/a
171.3605	0.09	342721	keystroke_a	a	n/a
171.6905	0.105	343381	keystroke_i	i	n/a
171.9155	0.075	343831	keystroke_i	i	n/a
172.2605	0.165	344521	keystroke_a	a	n/a
172.5605	0.105	345121	keystroke_n	n	n/a
172.8305	0.105	345661	keystroke_Key.space	Key.space	n/a
173.3105	0.09	346621	keystroke_b	b	n/a
173.4905	0.105	346981	keystroke_e	e	n/a
173.5655	0.165	347131	keystroke_a	a	n/a
173.8805	0.06	347761	keystroke_m	m	n/a
174.5255	0.09	349051	keystroke_Key.space	Key.space	n/a
174.6755	0.135	349351	keystroke_c	c	n/a
174.8255	0.105	349651	keystroke_o	o	n/a
175.0055	0.105	350011	keystroke_n	n	n/a
175.1705	0.09	350341	keystroke_s	s	n/a
175.3655	0.105	350731	keystroke_t	t	n/a
175.5005	0.135	351001	keystroke_a	a	n/a
175.7255	0.12	351451	keystroke_n	n	n/a
176.3105	0.105	352621	keystroke_t	t	n/a
176.5655	0.105	353131	keystroke_l	l	n/a
176.8355	0.075	353671	keystroke_y	y	n/a
177.0305	0.105	354061	keystroke_Key.space	Key.space	n/a
177.3155	0.075	354631	keystroke_d	d	n/a
177.4805	0.075	354961	keystroke_e	e	n/a
177.6605	0.075	355321	keystroke_t	t	n/a
177.8405	0.075	355681	keystroke_e	e	n/a
178.0355	0.09	356071	keystroke_r	r	n/a
178.1405	0.075	356281	keystroke_m	m	n/a
178.2755	0.12	356551	keystroke_i	i	n/a
178.4105	0.105	356821	keystroke_n	n	n/a
178.6505	0.045	357301	keystroke_s	s	n/a
179.3405	0.075	358681	keystroke_Key.backspace	Key.backspace	n/a
179.4905	0.06	358981	keystroke_e	e	n/a
179.6555	0.09	359311	keystroke_s	s	n/a
179.9705	0.12	359941	keystroke_Key.enter	Key.enter	n/a
180.097	12.91	360194	prompt	n/a	constitutes cholesterol happened queue\n
180.9305	0.12	361861	keystroke_o	o	n/a
181.2605	0.09	362521	keystroke_Key.backspace	Key.backspace	n/a
181.4705	0.12	362941	keystroke_c	c	n/a
181.6655	0.09	363331	keystroke_o	o	n/a
181.8605	0.12	363721	keystroke_n	n	n/a
182.0255	0.12	364051	keystroke_s	s	n/a
182.4005	0.135	364801	keystroke_t	t	n/a
182.6555	0.12	365311	keystroke_i	i	n/a
182.8655	0.09	365731	keystroke_t	t	n/a
183.0305	0.12	366061	keystroke_u	u	n/a
183.2405	0.09	366481	keystroke_e	e	n/a
183.9005	0.075	367801	keystroke_Key.backspace	Key.backspace	n/a
184.0205	0.09	368041	keystroke_t	t	n/a
184.2455	0.06	368491	keystroke_e	e	n/a
184.4555	0.12	368911	keystroke_s	s	n/a
184.8755	0.12	369751	keystroke_Key.space	Key.space	n/a
185.9255	0.12	371851	keystroke_c	c	n/a
186.1205	0.105	372241	keystroke_h	h	n/a
186.4205	0.105	372841	keystroke_o	o	n/a
186.6155	0.06	373231	keystroke_s	s	n/a
186.9155	0.075	373831	keystroke_Key.backspace	Key.backspace	n/a
187.1405	0.12	374281	keystroke_l	l	n/a
187.3055	0.06	374611	keystroke_e	e	n/a
187.4705	0.105	374941	keystroke_s	s	n/a
187.6355	0.105	375271	keystroke_t	t	n/a
187.9805	0.09	375961	keystroke_e	e	n/a
188.1615	0.104	376323	keystroke_r	r	n/a
188.3555	0.105	376711	keystroke_o	o	n/a
188.5955	0.105	377191	keystroke_l	l	n/a
188.8205	0.135	377641	keystroke_Key.space	Key.space	n/a
189.3155	0.105	378631	keystroke_h	h	n/a
189.4655	0.135	378931	keystroke_a	a	n/a
189.5855	0.09	379171	keystroke_p	p	n/a
189.7505	0.075	379501	keystroke_p	p	n/a
190.4705	0.12	380941	keystroke_e	e	n/a
190.7255	0.105	381451	keystroke_n	n	n/a
190.9655	0.12	381931	keystroke_e	e	n/a
191.2505	0.075	382501	keystroke_d	d	n/a
191.4755	0.12	382951	keystroke_Key.space	Key.space	n/a
191.7905	0.105	383581	keystroke_q	q	n/a
191.9555	0.15	383911	keystroke_u	u	n/a
192.2105	0.09	384421	keystroke_e	e	n/a
192.3455	0.12	384691	keystroke_u	u	n/a
192.4805	0.12	384961	keystroke_e	e	n/a
192.8705	0.135	385741	keystroke_Key.enter	Key.enter	n/a
193.0115	10.9905	386023	prompt	n/a	incidence mississippi describing converter\n
193.5905	0.09	387181	keystroke_i	i	n/a
193.8455	0.09	387691	keystroke_n	n	n/a
194.0555	0.105	388111	keystroke_c	c	n/a
194.2205	0.09	388441	keystroke_i	i	n/a
194.3255	0.0745	388651	keystroke_d	d	n/a
194.49	0.1055	388980	keystroke_e	e	n/a
194.6255	0.15	389251	keystroke_n	n	n/a
194.8205	0.105	389641	keystroke_c	c	n/a
195.03	0.1055	390060	keystroke_e	e	n/a
195.6	0.1055	391200	keystroke_Key.space	Key.space	n/a
195.7955	0.1195	391591	keystroke_m	m	n/a
195.9605	0.1045	391921	keystroke_i	i	n/a
196.0955	0.0895	392191	keystroke_s	s	n/a
196.245	0.105	392490	keystroke_s	s	n/a
196.4865	0.1495	392973	keystroke_i	i	n/a
196.935	0.045	393870	keystroke_s	s	n/a
197.085	0.09	394170	keystroke_s	s	n/a
197.85	0.1055	395700	keystroke_i	i	n/a
198.1805	0.075	396361	keystroke_p	p	n/a
198.345	0.046	396690	keystroke_p	p	n/a
198.645	0.105	397290	keystroke_i	i	n/a
199.005	0.09	398010	keystroke_Key.space	Key.space	n/a
199.2305	0.0745	398461	keystroke_d	d	n/a
199.425	0.09	398850	keystroke_e	e	n/a
199.636	0.149	399272	keystroke_s	s	n/a
199.845	0.091	399690	keystroke_c	c	n/a
200.01	0.12	400020	keystroke_r	r	n/a
200.175	0.09	400350	keystroke_i	i	n/a
200.416	0.119	400832	keystroke_b	b	n/a
200.76	0.12	401520	keystroke_i	i	n/a
201.015	0.105	402030	keystroke_n	n	n/a
201.195	0.091	402390	keystroke_g	g	n/a
201.525	0.12	403050	keystroke_Key.space	Key.space	n/a
202.185	0.105	404370	keystroke_c	c	n/a
202.32	0.075	404640	keystroke_o	o	n/a
202.486	0.089	404972	keystroke_n	n	n/a
202.635	0.075	405270	keystroke_v	v	n/a
202.845	0.075	405690	keystroke_e	e	n/a
203.04	0.09	406080	keystroke_r	r	n/a
203.235	0.091	406470	keystroke_t	t	n/a
203.43	0.09	406860	keystroke_e	e	n/a
203.625	0.09	407250	keystroke_r	r	n/a
203.925	0.075	407850	keystroke_Key.enter	Key.enter	n/a
204.007	7.06	408014	prompt	n/a	marcus gone peru experienced\n
204.736	0.089	409472	keystroke_m	m	n/a
204.87	0.135	409740	keystroke_a	a	n/a
204.975	0.075	409950	keystroke_r	r	n/a
205.155	0.09	410310	keystroke_c	c	n/a
205.29	0.09	410580	keystroke_u	u	n/a
205.425	0.105	410850	keystroke_s	s	n/a
205.545	0.09	411090	keystroke_Key.space	Key.space	n/a
205.785	0.105	411570	keystroke_g	g	n/a
205.905	0.045	411810	keystroke_o	o	n/a
206.01	0.106	412020	keystroke_n	n	n/a
206.145	0.09	412290	keystroke_e	e	n/a
206.295	0.075	412590	keystroke_Key.space	Key.space	n/a
206.385	0.075	412770	keystroke_g	g	n/a
206.685	0.075	413370	keystroke_Key.backspace	Key.backspace	n/a
206.926	0.089	413852	keystroke_p	p	n/a
207.06	0.076	414120	keystroke_e	e	n/a
207.24	0.091	414480	keystroke_r	r	n/a
207.405	0.09	414810	keystroke_u	u	n/a
207.555	0.105	415110	keystroke_s	s	n/a
208.035	0.06	416070	keystroke_Key.backspace	Key.backspace	n/a
208.38	0.09	416760	keystroke_Key.space	Key.space	n/a
208.77	0.12	417540	keystroke_e	e	n/a
209.1	0.105	418200	keystroke_x	x	n/a
209.295	0.09	418590	keystroke_p	p	n/a
209.49	0.09	418980	keystroke_e	e	n/a
209.685	0.09	419370	keystroke_r	r	n/a
209.85	0.105	419700	keystroke_i	i	n/a
210.015	0.12	420030	keystroke_e	e	n/a
210.15	0.12	420300	keystroke_n	n	n/a
210.315	0.12	420630	keystroke_c	c	n/a
210.465	0.076	420930	keystroke_e	e	n/a
210.675	0.075	421350	keystroke_d	d	n/a
210.99	0.075	421980	keystroke_Key.enter	Key.enter	n/a
211.071	8.141	422142	prompt	n/a	salvation semester system trance\n
211.86	0.09	423720	keystroke_s	s	n/a
211.98	0.165	423960	keystroke_a	a	n/a
212.19	0.105	424380	keystroke_l	l	n/a
212.4	0.091	424800	keystroke_v	v	n/a
212.58	0.136	425160	keystroke_a	a	n/a
212.746	0.134	425492	keystroke_t	t	n/a
212.925	0.091	425850	keystroke_i	i	n/a
213.135	0.075	426270	keystroke_o	o	n/a
213.195	0.121	426390	keystroke_n	n	n/a
213.705	0.09	427410	keystroke_Key.space	Key.space	n/a
214.035	0.06	428070	keystroke_s	s	n/a
214.215	0.09	428430	keystroke_e	e	n/a
214.395	0.09	428790	keystroke_m	m	n/a
214.545	0.09	429090	keystroke_e	e	n/a
214.725	0.105	429450	keystroke_s	s	n/a
214.876	0.089	429752	keystroke_t	t	n/a
215.07	0.105	430140	keystroke_e	e	n/a
215.296	0.089	430592	keystroke_r	r	n/a
215.55	0.09	431100	keystroke_Key.space	Key.space	n/a
215.685	0.106	431370	keystroke_s	s	n/a
215.866	0.074	431732	keystroke_y	y	n/a
215.985	0.135	431970	keystroke_s	s	n/a
216.24	0.121	432480	keystroke_m	m	n/a
216.525	0.075	433050	keystroke_t	t	n/a
216.885	0.06	433770	keystroke_Key.backspace	Key.backspace	n/a
217.035	0.09	434070	keystroke_Key.backspace	Key.backspace	n/a
217.155	0.075	434310	keystroke_t	t	n/a
217.365	0.105	434730	keystroke_e	e	n/a
217.59	0.09	435180	keystroke_m	m	n/a
217.86	0.075	435720	keystroke_Key.space	Key.space	n/a
218.085	0.075	436170	keystroke_t	t	n/a
218.235	0.105	436470	keystroke_r	r	n/a
218.295	0.15	436590	keystroke_a	a	n/a
218.491	0.104	436982	keystroke_n	n	n/a
218.67	0.076	437340	keystroke_c	c	n/a
218.881	0.09	437762	keystroke_e	e	n/a
219.15	0.06	438300	keystroke_Key.enter	Key.enter	n/a
219.217	6.3855	438434	prompt	n/a	latest wallace hdtv meter\n
219.931	0.089	439862	keystroke_l	l	n/a
220.035	0.15	440070	keystroke_a	a	n/a
220.17	0.105	440340	keystroke_t	t	n/a
220.32	0.12	440640	keystroke_e	e	n/a
220.515	0.12	441030	keystroke_s	s	n/a
220.71	0.09	441420	keystroke_t	t	n/a
220.98	0.105	441960	keystroke_Key.space	Key.space	n/a
221.25	0.12	442500	keystroke_w	w	n/a
221.355	0.151	442710	keystroke_a	a	n/a
221.596	0.059	443192	keystroke_l	l	n/a
221.76	0.075	443520	keystroke_l	l	n/a
221.88	0.136	443760	keystroke_a	a	n/a
222.136	0.075	444272	keystroke_c	c	n/a
222.391	0.104	444782	keystroke_e	e	n/a
222.57	0.12	445140	keystroke_Key.space	Key.space	n/a
222.946	0.089	445892	keystroke_h	h	n/a
223.08	0.09	446160	keystroke_a	a	n/a
223.44	0.075	446880	keystroke_Key.backspace	Key.backspace	n/a
223.606	0.09	447212	keystroke_d	d	n/a
223.786	0.089	447572	keystroke_t	t	n/a
224.055	0.091	448110	keystroke_v	v	n/a
224.295	0.075	448590	keystroke_Key.space	Key.space	n/a
224.521	0.104	449042	keystroke_m	m	n/a
224.685	0.091	449370	keystroke_e	e	n/a
224.896	0.074	449792	keystroke_t	t	n/a
225.105	0.09	450210	keystroke_e	e	n/a
225.316	0.059	450632	keystroke_r	r	n/a
225.54	0.06	451080	keystroke_Key.enter	Key.enter	n/a
225.606	5.9515	451212	prompt	n/a	hire alice polished stretch\n
226.32	0.076	452640	keystroke_h	h	n/a
226.47	0.121	452940	keystroke_i	i	n/a
226.606	0.134	453212	keystroke_r	r	n/a
226.726	0.075	453452	keystroke_e	e	n/a
226.815	0.075	453630	keystroke_Key.space	Key.space	n/a
226.936	0.15	453872	keystroke_a	a	n/a
227.071	0.089	454142	keystroke_l	l	n/a
227.28	0.09	454560	keystroke_i	i	n/a
227.431	0.089	454862	keystroke_c	c	n/a
227.685	0.061	455370	keystroke_e	e	n/a
227.91	0.076	455820	keystroke_Key.space	Key.space	n/a
228.076	0.104	456152	keystroke_a	a	n/a
228.36	0.075	456720	keystroke_Key.backspace	Key.backspace	n/a
228.586	0.075	457172	keystroke_p	p	n/a
228.766	0.06	457532	keystroke_o	o	n/a
228.991	0.045	457982	keystroke_l	l	n/a
229.17	0.075	458340	keystroke_i	i	n/a
229.321	0.089	458642	keystroke_s	s	n/a
229.426	0.06	458852	keystroke_h	h	n/a
229.546	0.075	459092	keystroke_e	e	n/a
229.771	0.09	459542	keystroke_d	d	n/a
229.92	0.105	459840	keystroke_Key.space	Key.space	n/a
230.161	0.12	460322	keystroke_s	s	n/a
230.371	0.075	460742	keystroke_t	t	n/a
230.506	0.135	461012	keystroke_r	r	n/a
230.611	0.12	461222	keystroke_e	e	n/a
230.776	0.09	461552	keystroke_t	t	n/a
231.046	0.075	462092	keystroke_c	c	n/a
231.21	0.09	462420	keystroke_h	h	n/a
231.466	0.089	462932	keystroke_Key.enter	Key.enter	n/a
231.5625	11.934	463125	prompt	n/a	novelty aboriginal accommodations cartoon\n
232.471	0.075	464942	keystroke_n	n	n/a
232.666	0.09	465332	keystroke_o	o	n/a
232.876	0.074	465752	keystroke_v	v	n/a
233.356	0.06	466712	keystroke_l	l	n/a
233.506	0.105	467012	keystroke_t	t	n/a
233.7755	0.09	467551	keystroke_y	y	n/a
234.0295	0.09	468059	keystroke_Key.space	Key.space	n/a
234.4205	0.029	468841	keystroke_o	o	n/a
234.6445	0.105	469289	keystroke_Key.backspace	Key.backspace	n/a
234.9905	0.015	469981	keystroke_a	a	n/a
235.0355	0.09	470071	keystroke_b	b	n/a
235.2605	0.119	470521	keystroke_o	o	n/a
235.4705	0.12	470941	keystroke_r	r	n/a
235.6495	0.121	471299	keystroke_i	i	n/a
235.8455	0.12	471691	keystroke_g	g	n/a
236.0855	0.105	472171	keystroke_i	i	n/a
236.4905	0.165	472981	keystroke_n	n	n/a
236.7905	0.135	473581	keystroke_a	a	n/a
237.1195	0.135	474239	keystroke_l	l	n/a
237.6905	0.12	475381	keystroke_Key.space	Key.space	n/a
238.1255	0.119	476251	keystroke_a	a	n/a
238.3505	0.075	476701	keystroke_c	c	n/a
238.5295	0.076	477059	keystroke_c	c	n/a
238.6655	0.105	477331	keystroke_o	o	n/a
239.1905	0.06	478381	keystroke_m	m	n/a
239.3705	0.075	478741	keystroke_m	m	n/a
239.6555	0.105	479311	keystroke_o	o	n/a
239.8945	0.091	479789	keystroke_d	d	n/a
240.2705	0.135	480541	keystroke_a	a	n/a
240.4505	0.135	480901	keystroke_t	t	n/a
240.6605	0.09	481321	keystroke_i	i	n/a
240.8405	0.105	481681	keystroke_o	o	n/a
240.9305	0.105	481861	keystroke_n	n	n/a
241.1395	0.121	482279	keystroke_s	s	n/a
241.4695	0.135	482939	keystroke_Key.space	Key.space	n/a
242.0855	0.12	484171	keystroke_c	c	n/a
242.2205	0.105	484441	keystroke_a	a	n/a
242.3855	0.089	484771	keystroke_r	r	n/a
242.5655	0.104	485131	keystroke_t	t	n/a
242.7755	0.06	485551	keystroke_o	o	n/a
242.9555	0.045	485911	keystroke_o	o	n/a
243.1505	0.06	486301	keystroke_n	n	n/a
243.4205	0.074	486841	keystroke_Key.enter	Key.enter	n/a
243.505	10.387	487010	prompt	n/a	changes highlighted explosion projected\n
244.3055	0.105	488611	keystroke_c	c	n/a
244.4705	0.09	488941	keystroke_h	h	n/a
244.5755	0.165	489151	keystroke_a	a	n/a
244.7255	0.09	489451	keystroke_n	n	n/a
244.8455	0.09	489691	keystroke_g	g	n/a
245.0705	0.075	490141	keystroke_e	e	n/a
245.2655	0.105	490531	keystroke_s	s	n/a
245.7605	0.09	491521	keystroke_Key.space	Key.space	n/a
246.2995	0.076	492599	keystroke_h	h	n/a
246.5405	0.074	493081	keystroke_i	i	n/a
246.7505	0.09	493501	keystroke_g	g	n/a
246.9455	0.075	493891	keystroke_h	h	n/a
247.2755	0.09	494551	keystroke_l	l	n/a
247.5005	0.09	495001	keystroke_i	i	n/a
247.6655	0.105	495331	keystroke_g	g	n/a
247.7995	0.091	495599	keystroke_h	h	n/a
247.9355	0.075	495871	keystroke_t	t	n/a
248.1605	0.09	496321	keystroke_e	e	n/a
248.4155	0.09	496831	keystroke_d	d	n/a
248.6855	0.089	497371	keystroke_Key.space	Key.space	n/a
249.1205	0.06	498241	keystroke_e	e	n/a
249.3605	0.105	498721	keystroke_x	x	n/a
249.5855	0.06	499171	keystroke_p	p	n/a
249.8105	0.09	499621	keystroke_l	l	n/a
250.0355	0.09	500071	keystroke_o	o	n/a
250.2605	0.09	500521	keystroke_s	s	n/a
250.4255	0.135	500851	keystroke_i	i	n/a
251.0405	0.09	502081	keystroke_o	o	n/a
251.2805	0.09	502561	keystroke_n	n	n/a
251.5655	0.09	503131	keystroke_Key.space	Key.space	n/a
251.8505	0.09	503701	keystroke_p	p	n/a
252.0155	0.105	504031	keystroke_r	r	n/a
252.2255	0.105	504451	keystroke_o	o	n/a
252.4655	0.09	504931	keystroke_j	j	n/a
252.6305	0.09	505261	keystroke_e	e	n/a
252.8255	0.105	505651	keystroke_c	c	n/a
253.0655	0.075	506131	keystroke_t	t	n/a
253.2605	0.075	506521	keystroke_e	e	n/a
253.5005	0.06	507001	keystroke_d	d	n/a
253.8005	0.09	507601	keystroke_Key.enter	Key.enter	n/a
253.896	7.811	507792	prompt	n/a	storage postal homeless acids\n
254.4755	0.105	508951	keystroke_s	s	n/a
254.9255	0.03	509851	keystroke_o	o	n/a
255.0305	0.075	510061	keystroke_t	t	n/a
255.3005	0.075	510601	keystroke_Key.backspace	Key.backspace	n/a
255.4655	0.09	510931	keystroke_Key.backspace	Key.backspace	n/a
255.6155	0.12	511231	keystroke_t	t	n/a
255.8405	0.12	511681	keystroke_o	o	n/a
256.08	0.09	512160	keystroke_r	r	n/a
256.32	0.105	512640	keystroke_a	a	n/a
256.56	0.105	513120	keystroke_g	g	n/a
256.875	0.075	513750	keystroke_e	e	n/a
257.22	0.12	514440	keystroke_Key.space	Key.space	n/a
257.625	0.06	515250	keystroke_p	p	n/a
257.82	0.09	515640	keystroke_o	o	n/a
257.955	0.09	515910	keystroke_s	s	n/a
258.166	0.089	516332	keystroke_t	t	n/a
258.315	0.135	516630	keystroke_a	a	n/a
258.585	0.105	517170	keystroke_l	l	n/a
258.9	0.09	517800	keystroke_Key.space	Key.space	n/a
259.14	0.075	518280	keystroke_h	h	n/a
259.335	0.105	518670	keystroke_o	o	n/a
259.56	0.075	519120	keystroke_m	m	n/a
259.65	0.105	519300	keystroke_e	e	n/a
259.83	0.105	519660	keystroke_l	l	n/a
259.92	0.061	519840	keystroke_e	e	n/a
260.085	0.09	520170	keystroke_s	s	n/a
260.281	0.089	520562	keystroke_s	s	n/a
260.445	0.09	520890	keystroke_Key.space	Key.space	n/a
260.58	0.15	521160	keystroke_a	a	n/a
260.775	0.12	521550	keystroke_c	c	n/a
261	0.105	522000	keystroke_i	i	n/a
261.15	0.075	522300	keystroke_d	d	n/a
261.36	0.09	522720	keystroke_s	s	n/a
261.615	0.09	523230	keystroke_Key.enter	Key.enter	n/a
261.711	8.201	523422	prompt	n/a	gates promote essential trivia\n
262.44	0.09	524880	keystroke_g	g	n/a
262.591	0.134	525182	keystroke_a	a	n/a
262.74	0.075	525480	keystroke_t	t	n/a
262.95	0.06	525900	keystroke_e	e	n/a
263.115	0.105	526230	keystroke_s	s	n/a
263.55	0.075	527100	keystroke_Key.space	Key.space	n/a
263.7	0.121	527400	keystroke_p	p	n/a
263.925	0.106	527850	keystroke_r	r	n/a
264.151	0.089	528302	keystroke_o	o	n/a
264.405	0.076	528810	keystroke_m	m	n/a
264.69	0.15	529380	keystroke_o	o	n/a
264.99	0.105	529980	keystroke_t	t	n/a
265.305	0.09	530610	keystroke_e	e	n/a
265.725	0.105	531450	keystroke_Key.space	Key.space	n/a
266.13	0.075	532260	keystroke_e	e	n/a
266.34	0.075	532680	keystroke_s	s	n/a
266.49	0.09	532980	keystroke_s	s	n/a
266.7	0.075	533400	keystroke_e	e	n/a
266.835	0.0895	533670	keystroke_n	n	n/a
266.955	0.105	533910	keystroke_t	t	n/a
267.1645	0.09	534329	keystroke_i	i	n/a
267.3145	0.151	534629	keystroke_a	a	n/a
267.5095	0.105	535019	keystroke_l	l	n/a
267.705	0.09	535410	keystroke_Key.space	Key.space	n/a
268.4995	0.09	536999	keystroke_t	t	n/a
268.7245	0.105	537449	keystroke_r	r	n/a
268.9805	0.12	537961	keystroke_i	i	n/a
269.1595	0.105	538319	keystroke_v	v	n/a
269.3105	0.104	538621	keystroke_i	i	n/a
269.4895	0.0905	538979	keystroke_a	a	n/a
269.85	0.0595	539700	keystroke_Key.enter	Key.enter	n/a
269.918	6.594	539836	prompt	n/a	shower hate senate valentine\n
270.5555	0.135	541111	keystroke_s	s	n/a
270.7195	0.09	541439	keystroke_h	h	n/a
270.8395	0.105	541679	keystroke_o	o	n/a
270.9745	0.106	541949	keystroke_w	w	n/a
271.1395	0.165	542279	keystroke_e	e	n/a
271.2595	0.105	542519	keystroke_r	r	n/a
271.4395	0.09	542879	keystroke_Key.space	Key.space	n/a
271.6645	0.09	543329	keystroke_h	h	n/a
271.7845	0.18	543569	keystroke_a	a	n/a
271.9805	0.089	543961	keystroke_t	t	n/a
272.1445	0.105	544289	keystroke_e	e	n/a
272.3545	0.09	544709	keystroke_Key.space	Key.space	n/a
272.7595	0.12	545519	keystroke_s	s	n/a
272.9845	0.075	545969	keystroke_e	e	n/a
273.1355	0.104	546271	keystroke_n	n	n/a
273.2995	0.135	546599	keystroke_a	a	n/a
273.8395	0.09	547679	keystroke_t	t	n/a
274.1995	0.075	548399	keystroke_e	e	n/a
274.5145	0.105	549029	keystroke_Key.space	Key.space	n/a
274.7545	0.075	549509	keystroke_v	v	n/a
274.9655	0.134	549931	keystroke_a	a	n/a
275.2195	0.09	550439	keystroke_l	l	n/a
275.4295	0.075	550859	keystroke_e	e	n/a
275.6095	0.09	551219	keystroke_n	n	n/a
275.7445	0.09	551489	keystroke_t	t	n/a
275.8945	0.09	551789	keystroke_i	i	n/a
276.0445	0.105	552089	keystroke_n	n	n/a
276.2095	0.075	552419	keystroke_e	e	n/a
276.4195	0.09	552839	keystroke_Key.enter	Key.enter	n/a
276.518	5.2135	553036	prompt	n/a	metal daddy oracle andy\n
277.1095	0.106	554219	keystroke_m	m	n/a
277.2605	0.074	554521	keystroke_e	e	n/a
277.3795	0.09	554759	keystroke_t	t	n/a
277.4995	0.12	554999	keystroke_a	a	n/a
277.7395	0.075	555479	keystroke_l	l	n/a
277.8895	0.09	555779	keystroke_Key.space	Key.space	n/a
278.0545	0.136	556109	keystroke_d	d	n/a
278.2645	0.151	556529	keystroke_a	a	n/a
278.6245	0.075	557249	keystroke_d	d	n/a
278.7745	0.09	557549	keystroke_d	d	n/a
279.0155	0.074	558031	keystroke_y	y	n/a
279.1645	0.075	558329	keystroke_Key.space	Key.space	n/a
279.3295	0.091	558659	keystroke_o	o	n/a
279.4645	0.105	558929	keystroke_r	r	n/a
279.7345	0.105	559469	keystroke_a	a	n/a
279.9745	0.106	559949	keystroke_c	c	n/a
280.1555	0.119	560311	keystroke_l	l	n/a
280.3945	0.075	560789	keystroke_e	e	n/a
280.5445	0.09	561089	keystroke_Key.space	Key.space	n/a
280.7245	0.12	561449	keystroke_a	a	n/a
280.9795	0.075	561959	keystroke_n	n	n/a
281.1595	0.105	562319	keystroke_d	d	n/a
281.3695	0.075	562739	keystroke_y	y	n/a
281.6395	0.09	563279	keystroke_Key.enter	Key.enter	n/a
281.737	6.31	563474	prompt	n/a	makes rotary fioricet remaining\n
282.5545	0.06	565109	keystroke_m	m	n/a
282.6595	0.105	565319	keystroke_a	a	n/a
282.7795	0.091	565559	keystroke_k	k	n/a
282.9145	0.06	565829	keystroke_e	e	n/a
283.0655	0.12	566131	keystroke_s	s	n/a
283.3045	0.06	566609	keystroke_Key.space	Key.space	n/a
283.7395	0.106	567479	keystroke_r	r	n/a
283.8905	0.089	567781	keystroke_o	o	n/a
284.0995	0.091	568199	keystroke_t	t	n/a
284.2795	0.135	568559	keystroke_a	a	n/a
284.4895	0.106	568979	keystroke_r	r	n/a
284.7745	0.076	569549	keystroke_y	y	n/a
284.9695	0.105	569939	keystroke_Key.space	Key.space	n/a
285.2545	0.106	570509	keystroke_f	f	n/a
285.4655	0.104	570931	keystroke_o	o	n/a
285.8845	0.06	571769	keystroke_Key.backspace	Key.backspace	n/a
286.1255	0.089	572251	keystroke_i	i	n/a
286.3195	0.105	572639	keystroke_o	o	n/a
286.5595	0.12	573119	keystroke_r	r	n/a
286.9945	0.15	573989	keystroke_i	i	n/a
287.2795	0.06	574559	keystroke_c	c	n/a
287.4605	0.089	574921	keystroke_e	e	n/a
287.6695	0.091	575339	keystroke_t	t	n/a
287.9545	0.09	575909	keystroke_Key.enter	Key.enter	n/a
288.0515	7.5405	576103	prompt	n/a	consultant samoa use olympus\n
289.3805	0.105	578761	keystroke_c	c	n/a
289.5145	0.075	579029	keystroke_o	o	n/a
289.7095	0.09	579419	keystroke_n	n	n/a
289.9495	0.09	579899	keystroke_s	s	n/a
290.0845	0.076	580169	keystroke_u	u	n/a
290.2795	0.09	580559	keystroke_l	l	n/a
290.3855	0.089	580771	keystroke_t	t	n/a
290.5345	0.151	581069	keystroke_a	a	n/a
290.7155	0.104	581431	keystroke_n	n	n/a
290.9545	0.121	581909	keystroke_t	t	n/a
291.4795	0.105	582959	keystroke_Key.space	Key.space	n/a
291.7045	0.106	583409	keystroke_s	s	n/a
291.9005	0.135	583801	keystroke_a	a	n/a
292.1695	0.075	584339	keystroke_m	m	n/a
292.3945	0.121	584789	keystroke_o	o	n/a
292.6945	0.121	585389	keystroke_a	a	n/a
292.9345	0.075	585869	keystroke_Key.space	Key.space	n/a
293.1745	0.076	586349	keystroke_u	u	n/a
293.3105	0.12	586621	keystroke_s	s	n/a
293.5355	0.105	587071	keystroke_e	e	n/a
293.7445	0.09	587489	keystroke_Key.space	Key.space	n/a
294.0155	0.09	588031	keystroke_o	o	n/a
294.3005	0.09	588601	keystroke_l	l	n/a
294.5855	0.059	589171	keystroke_y	y	n/a
294.8095	0.091	589619	keystroke_m	m	n/a
295.0205	0.06	590041	keystroke_p	p	n/a
295.2305	0.059	590461	keystroke_u	u	n/a
295.3495	0.106	590699	keystroke_s	s	n/a
295.5145	0.075	591029	keystroke_Key.enter	Key.enter	n/a
295.5975	9.9245	591195	prompt	n/a	discrete mixer rendering holmes\n
296.3555	0.105	592711	keystroke_d	d	n/a
296.5205	0.12	593041	keystroke_i	i	n/a
296.6855	0.105	593371	keystroke_s	s	n/a
296.8355	0.104	593671	keystroke_c	c	n/a
297.0455	0.09	594091	keystroke_r	r	n/a
297.1055	0.135	594211	keystroke_e	e	n/a
298.0055	0.105	596011	keystroke_t	t	n/a
298.2605	0.105	596521	keystroke_e	e	n/a
298.5445	0.12	597089	keystroke_Key.space	Key.space	n/a
298.9205	0.075	597841	keystroke_m	m	n/a
299.0855	0.09	598171	keystroke_i	i	n/a
299.2655	0.12	598531	keystroke_x	x	n/a
299.4905	0.09	598981	keystroke_e	e	n/a
299.7005	0.09	599401	keystroke_r	r	n/a
300.5705	0.105	601141	keystroke_Key.space	Key.space	n/a
301.1405	0.12	602281	keystroke_r	r	n/a
301.2455	0.135	602491	keystroke_e	e	n/a
301.4705	0.09	602941	keystroke_n	n	n/a
301.6055	0.105	603211	keystroke_d	d	n/a
301.7855	0.075	603571	keystroke_e	e	n/a
301.9805	0.104	603961	keystroke_r	r	n/a
302.1905	0.105	604381	keystroke_i	i	n/a
302.4305	0.15	604861	keystroke_n	n	n/a
302.6395	0.121	605279	keystroke_g	g	n/a
303.1805	0.089	606361	keystroke_Key.space	Key.space	n/a
303.4355	0.075	606871	keystroke_h	h	n/a
303.5705	0.09	607141	keystroke_o	o	n/a
303.7955	0.06	607591	keystroke_l	l	n/a
303.9595	0.105	607919	keystroke_m	m	n/a
304.1255	0.045	608251	keystroke_e	e	n/a
304.3055	0.09	608611	keystroke_s	s	n/a
305.4295	0.09	610859	keystroke_Key.enter	Key.enter	n/a
305.5255	6.281	611051	prompt	n/a	cook shareware settled lender\n
306.1205	0.105	612241	keystroke_c	c	n/a
306.2845	0.076	612569	keystroke_o	o	n/a
306.4655	0.075	612931	keystroke_o	o	n/a
306.6605	0.059	613321	keystroke_k	k	n/a
306.7945	0.106	613589	keystroke_Key.space	Key.space	n/a
306.9305	0.12	613861	keystroke_s	s	n/a
307.0955	0.075	614191	keystroke_h	h	n/a
307.1555	0.135	614311	keystroke_a	a	n/a
307.2755	0.12	614551	keystroke_r	r	n/a
307.3805	0.105	614761	keystroke_e	e	n/a
307.6045	0.091	615209	keystroke_w	w	n/a
307.7405	0.195	615481	keystroke_a	a	n/a
308.0695	0.091	616139	keystroke_r	r	n/a
308.2955	0.105	616591	keystroke_e	e	n/a
308.7455	0.09	617491	keystroke_Key.space	Key.space	n/a
308.8955	0.105	617791	keystroke_s	s	n/a
309.2705	0.09	618541	keystroke_e	e	n/a
309.4505	0.06	618901	keystroke_t	t	n/a
309.5855	0.075	619171	keystroke_t	t	n/a
309.7355	0.09	619471	keystroke_l	l	n/a
309.8555	0.075	619711	keystroke_e	e	n/a
310.0805	0.09	620161	keystroke_d	d	n/a
310.3055	0.075	620611	keystroke_Key.space	Key.space	n/a
310.6355	0.09	621271	keystroke_l	l	n/a
310.7555	0.09	621511	keystroke_e	e	n/a
310.9355	0.075	621871	keystroke_n	n	n/a
311.0405	0.075	622081	keystroke_d	d	n/a
311.2505	0.06	622501	keystroke_e	e	n/a
311.4605	0.06	622921	keystroke_r	r	n/a
311.7755	0.03	623551	keystroke_Key.enter	Key.enter	n/a
311.811	8.217	623622	prompt	n/a	produced nicholas currency walked\n
312.5705	0.06	625141	keystroke_p	p	n/a
312.6905	0.105	625381	keystroke_r	r	n/a
312.8105	0.075	625621	keystroke_o	o	n/a
312.9455	0.075	625891	keystroke_d	d	n/a
313.0655	0.075	626131	keystroke_u	u	n/a
313.2155	0.09	626431	keystroke_c	c	n/a
313.4405	0.06	626881	keystroke_e	e	n/a
313.6505	0.075	627301	keystroke_d	d	n/a
313.9655	0.089	627931	keystroke_Key.space	Key.space	n/a
314.4005	0.06	628801	keystroke_n	n	n/a
314.5655	0.105	629131	keystroke_i	i	n/a
314.73	0.1205	629460	keystroke_c	c	n/a
314.8655	0.075	629731	keystroke_h	h	n/a
315.0605	0.09	630121	keystroke_o	o	n/a
315.2855	0.105	630571	keystroke_l	l	n/a
315.4655	0.105	630931	keystroke_a	a	n/a
315.6605	0.105	631321	keystroke_s	s	n/a
315.8555	0.09	631711	keystroke_Key.space	Key.space	n/a
316.0355	0.12	632071	keystroke_c	c	n/a
316.2005	0.1045	632401	keystroke_u	u	n/a
316.365	0.075	632730	keystroke_r	r	n/a
316.53	0.06	633060	keystroke_r	r	n/a
316.635	0.15	633270	keystroke_e	e	n/a
316.8755	0.105	633751	keystroke_n	n	n/a
317.0855	0.09	634171	keystroke_c	c	n/a
317.2795	0.091	634559	keystroke_y	y	n/a
318.4505	0.135	636901	keystroke_Key.space	Key.space	n/a
318.7805	0.09	637561	keystroke_w	w	n/a
318.9305	0.15	637861	keystroke_a	a	n/a
319.0955	0.045	638191	keystroke_l	l	n/a
319.2605	0.105	638521	keystroke_k	k	n/a
319.4705	0.06	638941	keystroke_e	e	n/a
319.6505	0.075	639301	keystroke_d	d	n/a
319.9205	0.105	639841	keystroke_Key.enter	Key.enter	n/a
320.041	7.951	640082	prompt	n/a	xanax signals ultra retailer\n
320.6855	0.0895	641371	keystroke_x	x	n/a
320.895	0.1055	641790	keystroke_a	a	n/a
321.0605	0.12	642121	keystroke_n	n	n/a
321.315	0.09	642630	keystroke_a	a	n/a
321.645	0.105	643290	keystroke_x	x	n/a
321.885	0.09	643770	keystroke_Key.space	Key.space	n/a
322.08	0.075	644160	keystroke_c	c	n/a
322.38	0.09	644760	keystroke_Key.backspace	Key.backspace	n/a
322.575	0.1205	645150	keystroke_s	s	n/a
322.7555	0.09	645511	keystroke_i	i	n/a
322.905	0.105	645810	keystroke_g	g	n/a
323.085	0.09	646170	keystroke_n	n	n/a
323.25	0.12	646500	keystroke_a	a	n/a
323.415	0.1205	646830	keystroke_l	l	n/a
323.67	0.09	647340	keystroke_s	s	n/a
324.39	0.09	648780	keystroke_Key.space	Key.space	n/a
324.66	0.075	649320	keystroke_u	u	n/a
324.885	0.105	649770	keystroke_l	l	n/a
325.005	0.075	650010	keystroke_t	t	n/a
325.155	0.075	650310	keystroke_r	r	n/a
325.32	0.15	650640	keystroke_a	a	n/a
325.59	0.09	651180	keystroke_Key.space	Key.space	n/a
326.19	0.075	652380	keystroke_r	r	n/a
326.34	0.09	652680	keystroke_e	e	n/a
326.55	0.09	653100	keystroke_t	t	n/a
326.805	0.135	653610	keystroke_a	a	n/a
327.105	0.09	654210	keystroke_i	i	n/a
327.33	0.075	654660	keystroke_l	l	n/a
327.465	0.09	654930	keystroke_e	e	n/a
327.675	0.06	655350	keystroke_r	r	n/a
327.915	0.075	655830	keystroke_Key.enter	Key.enter	n/a
327.9975	7.7795	655995	prompt	n/a	raises jeremy angle deviation\n
328.62	0.075	657240	keystroke_r	r	n/a
328.905	0.12	657810	keystroke_a	a	n/a
329.085	0.105	658170	keystroke_i	i	n/a
329.265	0.105	658530	keystroke_s	s	n/a
329.475	0.06	658950	keystroke_e	e	n/a
329.655	0.105	659310	keystroke_s	s	n/a
330.075	0.105	660150	keystroke_Key.space	Key.space	n/a
330.36	0.105	660720	keystroke_j	j	n/a
330.57	0.09	661140	keystroke_e	e	n/a
330.78	0.105	661560	keystroke_r	r	n/a
331.095	0.075	662190	keystroke_e	e	n/a
331.305	0.105	662610	keystroke_m	m	n/a
331.605	0.075	663210	keystroke_y	y	n/a
331.8	0.09	663600	keystroke_Key.space	Key.space	n/a
332.13	0.1505	664260	keystroke_a	a	n/a
332.3405	0.105	664681	keystroke_n	n	n/a
332.5045	0.136	665009	keystroke_g	g	n/a
332.8055	0.105	665611	keystroke_l	l	n/a
333.0305	0.075	666061	keystroke_e	e	n/a
333.3155	0.105	666631	keystroke_Key.space	Key.space	n/a
333.8095	0.106	667619	keystroke_d	d	n/a
334.1105	0.06	668221	keystroke_e	e	n/a
334.2755	0.09	668551	keystroke_v	v	n/a
334.4405	0.09	668881	keystroke_i	i	n/a
334.5905	0.18	669181	keystroke_a	a	n/a
334.7405	0.12	669481	keystroke_t	t	n/a
334.8755	0.075	669751	keystroke_i	i	n/a
335.0255	0.135	670051	keystroke_o	o	n/a
335.1305	0.09	670261	keystroke_n	n	n/a
335.7155	0.06	671431	keystroke_Key.enter	Key.enter	n/a
335.782	8.095	671564	prompt	n/a	fabric proportion planner gathered\n
336.4805	0.09	672961	keystroke_f	f	n/a
336.6755	0.135	673351	keystroke_a	a	n/a
336.9755	0.105	673951	keystroke_b	b	n/a
337.1405	0.105	674281	keystroke_r	r	n/a
337.2605	0.105	674521	keystroke_i	i	n/a
337.4555	0.135	674911	keystroke_c	c	n/a
337.6055	0.075	675211	keystroke_Key.space	Key.space	n/a
337.8155	0.135	675631	keystroke_p	p	n/a
338.3405	0.105	676681	keystroke_r	r	n/a
338.5655	0.09	677131	keystroke_o	o	n/a
338.8505	0.105	677701	keystroke_p	p	n/a
339.1355	0.09	678271	keystroke_o	o	n/a
339.3755	0.06	678751	keystroke_r	r	n/a
339.6455	0.09	679291	keystroke_t	t	n/a
339.8105	0.09	679621	keystroke_i	i	n/a
340.0205	0.075	680041	keystroke_o	o	n/a
340.2155	0.075	680431	keystroke_n	n	n/a
340.4105	0.075	680821	keystroke_Key.space	Key.space	n/a
340.6355	0.075	681271	keystroke_p	p	n/a
340.8455	0.105	681691	keystroke_l	l	n/a
341.0105	0.135	682021	keystroke_a	a	n/a
341.1605	0.075	682321	keystroke_n	n	n/a
341.3255	0.09	682651	keystroke_n	n	n/a
341.4455	0.105	682891	keystroke_e	e	n/a
341.6705	0.09	683341	keystroke_r	r	n/a
341.8805	0.075	683761	keystroke_Key.space	Key.space	n/a
342.0455	0.075	684091	keystroke_g	g	n/a
342.1805	0.135	684361	keystroke_a	a	n/a
342.3605	0.12	684721	keystroke_t	t	n/a
342.5405	0.105	685081	keystroke_h	h	n/a
342.6905	0.105	685381	keystroke_e	e	n/a
342.9155	0.09	685831	keystroke_r	r	n/a
343.1255	0.06	686251	keystroke_e	e	n/a
343.3205	0.075	686641	keystroke_d	d	n/a
343.8005	0.075	687601	keystroke_Key.enter	Key.enter	n/a
343.882	7.87	687764	prompt	n/a	gays ongoing immune corrections\n
344.5955	0.06	689191	keystroke_g	g	n/a
344.6855	0.12	689371	keystroke_a	a	n/a
344.8655	0.09	689731	keystroke_y	y	n/a
345.0605	0.12	690121	keystroke_s	s	n/a
345.3005	0.12	690601	keystroke_Key.space	Key.space	n/a
345.7955	0.045	691591	keystroke_o	o	n/a
345.9605	0.105	691921	keystroke_n	n	n/a
346.1105	0.135	692221	keystroke_g	g	n/a
346.2605	0.105	692521	keystroke_o	o	n/a
346.4705	0.12	692941	keystroke_i	i	n/a
346.7105	0.195	693421	keystroke_n	n	n/a
346.9655	0.09	693931	keystroke_g	g	n/a
347.3105	0.09	694621	keystroke_Key.space	Key.space	n/a
347.6255	0.06	695251	keystroke_m	m	n/a
347.9105	0.075	695821	keystroke_Key.backspace	Key.backspace	n/a
348.15	0.0605	696300	keystroke_i	i	n/a
348.345	0.06	696690	keystroke_m	m	n/a
348.495	0.075	696990	keystroke_m	m	n/a
348.735	0.075	697470	keystroke_u	u	n/a
348.915	0.09	697830	keystroke_n	n	n/a
349.1105	0.0895	698221	keystroke_e	e	n/a
349.395	0.105	698790	keystroke_Key.space	Key.space	n/a
349.695	0.12	699390	keystroke_c	c	n/a
349.86	0.09	699720	keystroke_o	o	n/a
350.0255	0.0445	700051	keystroke_r	r	n/a
350.235	0.015	700470	keystroke_r	r	n/a
350.295	0.09	700590	keystroke_e	e	n/a
350.445	0.09	700890	keystroke_c	c	n/a
350.64	0.105	701280	keystroke_t	t	n/a
350.76	0.09	701520	keystroke_i	i	n/a
350.88	0.135	701760	keystroke_o	o	n/a
350.955	0.12	701910	keystroke_n	n	n/a
351.105	0.09	702210	keystroke_s	s	n/a
351.645	0.105	703290	keystroke_Key.enter	Key.enter	n/a
351.7565	8.3505	703513	prompt	n/a	daddy strength spreading seekers\n
352.485	0.075	704970	keystroke_d	d	n/a
352.62	0.135	705240	keystroke_a	a	n/a
352.725	0.105	705450	keystroke_d	d	n/a
352.905	0.09	705810	keystroke_d	d	n/a
353.13	0.075	706260	keystroke_y	y	n/a
353.25	0.09	706500	keystroke_Key.space	Key.space	n/a
353.355	0.105	706710	keystroke_s	s	n/a
353.475	0.135	706950	keystroke_t	t	n/a
353.595	0.09	707190	keystroke_r	r	n/a
353.925	0.105	707850	keystroke_e	e	n/a
354.135	0.105	708270	keystroke_n	n	n/a
354.285	0.09	708570	keystroke_g	g	n/a
354.435	0.105	708870	keystroke_h	h	n/a
354.615	0.105	709230	keystroke_t	t	n/a
355.785	0.09	711570	keystroke_Key.backspace	Key.backspace	n/a
355.98	0.075	711960	keystroke_Key.backspace	Key.backspace	n/a
356.145	0.105	712290	keystroke_t	t	n/a
356.34	0.09	712680	keystroke_h	h	n/a
356.535	0.075	713070	keystroke_Key.space	Key.space	n/a
356.655	0.12	713310	keystroke_s	s	n/a
356.835	0.12	713670	keystroke_t	t	n/a
357.135	0.09	714270	keystroke_Key.backspace	Key.backspace	n/a
357.42	0.105	714840	keystroke_p	p	n/a
357.54	0.135	715080	keystroke_r	r	n/a
357.555	0.165	715110	keystroke_e	e	n/a
357.735	0.135	715470	keystroke_a	a	n/a
357.9	0.135	715800	keystroke_d	d	n/a
358.08	0.105	716160	keystroke_i	i	n/a
358.29	0.12	716580	keystroke_n	n	n/a
358.5	0.09	717000	keystroke_g	g	n/a
358.695	0.09	717390	keystroke_Key.space	Key.space	n/a
358.815	0.09	717630	keystroke_s	s	n/a
358.995	0.075	717990	keystroke_e	e	n/a
359.16	0.075	718320	keystroke_e	e	n/a
359.295	0.06	718590	keystroke_k	k	n/a
359.4	0.075	718800	keystroke_e	e	n/a
359.58	0.075	719160	keystroke_r	r	n/a
359.79	0.09	719580	keystroke_s	s	n/a
360.015	0.09	720030	keystroke_Key.enter	Key.enter	n/a
360.112	8.95	720224	prompt	n/a	tongue notice appointment varied\n
360.78	0.09	721560	keystroke_t	t	n/a
360.9	0.075	721800	keystroke_o	o	n/a
361.095	0.09	722190	keystroke_n	n	n/a
361.245	0.075	722490	keystroke_g	g	n/a
361.395	0.12	722790	keystroke_u	u	n/a
361.62	0.105	723240	keystroke_e	e	n/a
361.89	0.09	723780	keystroke_Key.space	Key.space	n/a
362.175	0.09	724350	keystroke_n	n	n/a
362.31	0.12	724620	keystroke_o	o	n/a
362.475	0.075	724950	keystroke_t	t	n/a
362.595	0.105	725190	keystroke_i	i	n/a
362.925	0.075	725850	keystroke_e	e	n/a
363.525	0.09	727050	keystroke_Key.backspace	Key.backspace	n/a
363.69	0.075	727380	keystroke_c	c	n/a
363.93	0.09	727860	keystroke_e	e	n/a
364.065	0.09	728130	keystroke_Key.space	Key.space	n/a
364.185	0.135	728370	keystroke_a	a	n/a
364.35	0.09	728700	keystroke_p	p	n/a
364.545	0.075	729090	keystroke_p	p	n/a
364.74	0.09	729480	keystroke_o	o	n/a
364.965	0.075	729930	keystroke_i	i	n/a
365.16	0.075	730320	keystroke_n	n	n/a
365.28	0.105	730560	keystroke_t	t	n/a
365.49	0.105	730980	keystroke_m	m	n/a
365.64	0.12	731280	keystroke_e	e	n/a
365.79	0.105	731580	keystroke_n	n	n/a
366.66	0.09	733320	keystroke_t	t	n/a
367.395	0.075	734790	keystroke_Key.space	Key.space	n/a
367.59	0.09	735180	keystroke_v	v	n/a
367.8	0.09	735600	keystroke_a	a	n/a
368.1	0.135	736200	keystroke_r	r	n/a
368.355	0.105	736710	keystroke_i	i	n/a
368.52	0.075	737040	keystroke_e	e	n/a
368.745	0.075	737490	keystroke_d	d	n/a
368.955	0.105	737910	keystroke_Key.enter	Key.enter	n/a
369.0665	7.81	738133	prompt	n/a	extends entitled appreciate pray\n
369.795	0.06	739590	keystroke_e	e	n/a
370.005	0.105	740010	keystroke_x	x	n/a
370.125	0.09	740250	keystroke_t	t	n/a
370.305	0.075	740610	keystroke_e	e	n/a
370.47	0.09	740940	keystroke_n	n	n/a
370.59	0.105	741180	keystroke_d	d	n/a
370.815	0.09	741630	keystroke_s	s	n/a
371.145	0.105	742290	keystroke_Key.space	Key.space	n/a
371.295	0.105	742590	keystroke_e	e	n/a
371.565	0.105	743130	keystroke_n	n	n/a
371.745	0.105	743490	keystroke_t	t	n/a
371.97	0.12	743940	keystroke_i	i	n/a
372.18	0.09	744360	keystroke_t	t	n/a
372.33	0.15	744660	keystroke_l	l	n/a
372.525	0.06	745050	keystroke_e	e	n/a
372.72	0.105	745440	keystroke_d	d	n/a
373.365	0.075	746730	keystroke_Key.space	Key.space	n/a
373.5	0.15	747000	keystroke_a	a	n/a
373.77	0.075	747540	keystroke_p	p	n/a
373.935	0.09	747870	keystroke_p	p	n/a
374.13	0.105	748260	keystroke_r	r	n/a
374.34	0.105	748680	keystroke_e	e	n/a
374.566	0.104	749132	keystroke_c	c	n/a
374.73	0.12	749460	keystroke_i	i	n/a
374.895	0.21	749790	keystroke_a	a	n/a
375.06	0.09	750120	keystroke_t	t	n/a
375.24	0.09	750480	keystroke_e	e	n/a
375.435	0.09	750870	keystroke_Key.space	Key.space	n/a
376.02	0.09	752040	keystroke_p	p	n/a
376.185	0.09	752370	keystroke_r	r	n/a
376.32	0.12	752640	keystroke_a	a	n/a
376.5	0.075	753000	keystroke_y	y	n/a
376.77	0.105	753540	keystroke_Key.enter	Key.enter	n/a
376.882	4.765	753764	prompt	n/a	reject face leather onto\n
377.505	0.135	755010	keystroke_r	r	n/a
377.625	0.12	755250	keystroke_e	e	n/a
377.76	0.12	755520	keystroke_j	j	n/a
377.895	0.09	755790	keystroke_e	e	n/a
378	0.09	756000	keystroke_c	c	n/a
378.195	0.075	756390	keystroke_t	t	n/a
378.3	0.09	756600	keystroke_Key.space	Key.space	n/a
378.42	0.06	756840	keystroke_g	g	n/a
378.765	0.09	757530	keystroke_Key.backspace	Key.backspace	n/a
378.885	0.09	757770	keystroke_f	f	n/a
379.005	0.12	758010	keystroke_a	a	n/a
379.095	0.12	758190	keystroke_c	c	n/a
379.2	0.105	758400	keystroke_e	e	n/a
379.44	0.06	758880	keystroke_Key.space	Key.space	n/a
379.59	0.105	759180	keystroke_l	l	n/a
379.71	0.076	759420	keystroke_e	e	n/a
379.787	0.209	759574	keystroke_a	a	n/a
379.965	0.105	759930	keystroke_t	t	n/a
380.085	0.12	760170	keystroke_h	h	n/a
380.2495	0.15	760499	keystroke_e	e	n/a
380.3395	0.12	760679	keystroke_r	r	n/a
380.5195	0.075	761039	keystroke_Key.space	Key.space	n/a
380.6395	0.12	761279	keystroke_o	o	n/a
380.7295	0.12	761459	keystroke_n	n	n/a
380.8645	0.105	761729	keystroke_t	t	n/a
380.9845	0.105	761969	keystroke_o	o	n/a
381.5545	0.09	763109	keystroke_Key.enter	Key.enter	n/a
381.6535	6.698	763307	prompt	n/a	sort tripadvisor zdnet pads\n
382.4545	0.105	764909	keystroke_s	s	n/a
382.5605	0.104	765121	keystroke_o	o	n/a
382.6945	0.09	765389	keystroke_r	r	n/a
382.8445	0.105	765689	keystroke_t	t	n/a
382.9945	0.09	765989	keystroke_Key.space	Key.space	n/a
383.3095	0.045	766619	keystroke_t	t	n/a
383.4745	0.105	766949	keystroke_r	r	n/a
383.6095	0.075	767219	keystroke_i	i	n/a
383.7895	0.105	767579	keystroke_p	p	n/a
383.9845	0.105	767969	keystroke_a	a	n/a
384.2245	0.075	768449	keystroke_d	d	n/a
384.3895	0.09	768779	keystroke_v	v	n/a
384.5545	0.12	769109	keystroke_i	i	n/a
384.7195	0.12	769439	keystroke_s	s	n/a
384.8545	0.12	769709	keystroke_o	o	n/a
385.0495	0.105	770099	keystroke_r	r	n/a
385.3195	0.09	770639	keystroke_Key.space	Key.space	n/a
386.0845	0.105	772169	keystroke_z	z	n/a
386.2945	0.105	772589	keystroke_d	d	n/a
386.5495	0.105	773099	keystroke_n	n	n/a
386.7445	0.09	773489	keystroke_e	e	n/a
386.9995	0.09	773999	keystroke_t	t	n/a
387.3745	0.06	774749	keystroke_Key.space	Key.space	n/a
387.5545	0.09	775109	keystroke_p	p	n/a
387.6595	0.12	775319	keystroke_a	a	n/a
387.8245	0.09	775649	keystroke_d	d	n/a
388.0195	0.09	776039	keystroke_s	s	n/a
388.2595	0.09	776519	keystroke_Key.enter	Key.enter	n/a
388.356	9.8505	776712	prompt	n/a	curriculum evolution wealth clicking\n
389.1445	0.105	778289	keystroke_c	c	n/a
389.3245	0.09	778649	keystroke_i	i	n/a
389.4445	0.075	778889	keystroke_r	r	n/a
389.6095	0.09	779219	keystroke_r	r	n/a
389.7595	0.105	779519	keystroke_i	i	n/a
389.9845	0.105	779969	keystroke_c	c	n/a
390.2095	0.075	780419	keystroke_u	u	n/a
390.4345	0.075	780869	keystroke_l	l	n/a
390.6595	0.06	781319	keystroke_u	u	n/a
390.8695	0.09	781739	keystroke_m	m	n/a
391.0645	0.075	782129	keystroke_Key.space	Key.space	n/a
391.5295	0.105	783059	keystroke_e	e	n/a
391.7695	0.09	783539	keystroke_v	v	n/a
391.9945	0.075	783989	keystroke_o	o	n/a
392.1895	0.09	784379	keystroke_l	l	n/a
392.3995	0.105	784799	keystroke_u	u	n/a
392.5795	0.06	785159	keystroke_t	t	n/a
392.5945	0.03	785189	keystroke_r	r	n/a
392.6845	0.09	785369	keystroke_i	i	n/a
393.1795	0.075	786359	keystroke_Key.backspace	Key.backspace	n/a
393.3445	0.105	786689	keystroke_Key.backspace	Key.backspace	n/a
393.8545	0.105	787709	keystroke_i	i	n/a
394.0645	0.105	788129	keystroke_o	o	n/a
394.2895	0.09	788579	keystroke_n	n	n/a
394.5595	0.09	789119	keystroke_Key.space	Key.space	n/a
394.7845	0.09	789569	keystroke_w	w	n/a
394.9045	0.15	789809	keystroke_e	e	n/a
395.0695	0.12	790139	keystroke_a	a	n/a
395.6695	0.105	791339	keystroke_l	l	n/a
395.8495	0.105	791699	keystroke_t	t	n/a
396.0145	0.075	792029	keystroke_h	h	n/a
396.2695	0.075	792539	keystroke_Key.space	Key.space	n/a
396.5245	0.09	793049	keystroke_c	c	n/a
396.6895	0.09	793379	keystroke_l	l	n/a
396.9595	0.075	793919	keystroke_i	i	n/a
397.0795	0.135	794159	keystroke_c	c	n/a
397.2155	0.059	794431	keystroke_k	k	n/a
397.3795	0.105	794759	keystroke_i	i	n/a
397.4545	0.105	794909	keystroke_n	n	n/a
397.5895	0.075	795179	keystroke_g	g	n/a
398.1145	0.09	796229	keystroke_Key.enter	Key.enter	n/a
398.2125	6.564	796425	prompt	n/a	code surrounding how'd webcam\n
398.9245	0.12	797849	keystroke_c	c	n/a
399.0745	0.105	798149	keystroke_o	o	n/a
399.1945	0.06	798389	keystroke_d	d	n/a
399.3445	0.06	798689	keystroke_e	e	n/a
399.4495	0.075	798899	keystroke_Key.space	Key.space	n/a
399.6295	0.135	799259	keystroke_s	s	n/a
399.8395	0.09	799679	keystroke_u	u	n/a
399.9895	0.06	799979	keystroke_r	r	n/a
400.1395	0.09	800279	keystroke_r	r	n/a
400.2895	0.09	800579	keystroke_o	o	n/a
400.4995	0.075	800999	keystroke_u	u	n/a
400.7095	0.135	801419	keystroke_n	n	n/a
400.9345	0.12	801869	keystroke_d	d	n/a
401.0995	0.15	802199	keystroke_i	i	n/a
401.1895	0.165	802379	keystroke_n	n	n/a
401.3995	0.09	802799	keystroke_g	g	n/a
402.1195	0.075	804239	keystroke_Key.space	Key.space	n/a
402.2545	0.105	804509	keystroke_h	h	n/a
402.4195	0.105	804839	keystroke_o	o	n/a
402.5995	0.09	805199	keystroke_w	w	n/a
402.8095	0.105	805619	keystroke_'	'	n/a
403.1845	0.09	806369	keystroke_d	d	n/a
403.3795	0.075	806759	keystroke_Key.space	Key.space	n/a
403.6045	0.15	807209	keystroke_w	w	n/a
403.7255	0.104	807451	keystroke_e	e	n/a
403.9045	0.105	807809	keystroke_b	b	n/a
404.1295	0.09	808259	keystroke_c	c	n/a
404.1895	0.12	808379	keystroke_a	a	n/a
404.3395	0.09	808679	keystroke_m	m	n/a
404.7145	0.06	809429	keystroke_Key.enter	Key.enter	n/a
404.7845	10.702	809569	prompt	n/a	congressional locator beautiful chargers\n
405.3895	0.12	810779	keystroke_c	c	n/a
405.5245	0.075	811049	keystroke_o	o	n/a
405.7495	0.105	811499	keystroke_n	n	n/a
405.8845	0.136	811769	keystroke_g	g	n/a
406.0345	0.12	812069	keystroke_r	r	n/a
406.1095	0.075	812219	keystroke_e	e	n/a
406.3195	0.06	812639	keystroke_s	s	n/a
406.4845	0.09	812969	keystroke_s	s	n/a
406.6945	0.09	813389	keystroke_i	i	n/a
406.8745	0.09	813749	keystroke_o	o	n/a
407.0695	0.105	814139	keystroke_n	n	n/a
407.5195	0.105	815039	keystroke_a	a	n/a
407.7445	0.09	815489	keystroke_l	l	n/a
407.9995	0.09	815999	keystroke_Key.space	Key.space	n/a
408.2695	0.06	816539	keystroke_l	l	n/a
408.5545	0.075	817109	keystroke_o	o	n/a
408.7195	0.12	817439	keystroke_c	c	n/a
408.8545	0.18	817709	keystroke_a	a	n/a
408.9895	0.09	817979	keystroke_t	t	n/a
409.1545	0.105	818309	keystroke_o	o	n/a
409.3045	0.09	818609	keystroke_r	r	n/a
409.6795	0.09	819359	keystroke_Key.space	Key.space	n/a
409.949	0.0755	819898	keystroke_b	b	n/a
410.1145	0.105	820229	keystroke_e	e	n/a
410.2345	0.135	820469	keystroke_a	a	n/a
410.384	0.0755	820768	keystroke_u	u	n/a
410.984	0.136	821968	keystroke_i	i	n/a
411.494	0.0755	822988	keystroke_Key.backspace	Key.backspace	n/a
411.659	0.1055	823318	keystroke_t	t	n/a
411.869	0.0905	823738	keystroke_i	i	n/a
412.0195	0.1045	824039	keystroke_f	f	n/a
412.214	0.105	824428	keystroke_u	u	n/a
412.47	0.0895	824940	keystroke_l	l	n/a
412.7395	0.075	825479	keystroke_Key.space	Key.space	n/a
413.07	0.0895	826140	keystroke_c	c	n/a
413.219	0.0905	826438	keystroke_h	h	n/a
413.444	0.105	826888	keystroke_a	a	n/a
413.6095	0.1045	827219	keystroke_r	r	n/a
413.774	0.075	827548	keystroke_g	g	n/a
413.984	0.06	827968	keystroke_e	e	n/a
414.719	0.0755	829438	keystroke_r	r	n/a
414.929	0.091	829858	keystroke_s	s	n/a
415.394	0.09	830788	keystroke_Key.enter	Key.enter	n/a
415.491	6.4465	830982	prompt	n/a	waterproof sharp supporting hello\n
416.219	0.105	832438	keystroke_w	w	n/a
416.399	0.15	832798	keystroke_a	a	n/a
416.519	0.105	833038	keystroke_t	t	n/a
416.744	0.075	833488	keystroke_e	e	n/a
416.94	0.074	833880	keystroke_r	r	n/a
417.044	0.09	834088	keystroke_p	p	n/a
417.27	0.09	834540	keystroke_r	r	n/a
417.449	0.075	834898	keystroke_o	o	n/a
417.629	0.09	835258	keystroke_o	o	n/a
417.81	0.104	835620	keystroke_f	f	n/a
418.004	0.105	836008	keystroke_Key.space	Key.space	n/a
418.244	0.105	836488	keystroke_s	s	n/a
418.409	0.075	836818	keystroke_h	h	n/a
418.469	0.151	836938	keystroke_a	a	n/a
418.574	0.12	837148	keystroke_r	r	n/a
418.799	0.075	837598	keystroke_p	p	n/a
419.009	0.09	838018	keystroke_Key.space	Key.space	n/a
419.159	0.136	838318	keystroke_s	s	n/a
419.384	0.06	838768	keystroke_u	u	n/a
419.564	0.075	839128	keystroke_p	p	n/a
419.744	0.06	839488	keystroke_p	p	n/a
419.91	0.104	839820	keystroke_o	o	n/a
420.029	0.12	840058	keystroke_r	r	n/a
420.12	0.119	840240	keystroke_t	t	n/a
420.254	0.06	840508	keystroke_i	i	n/a
420.374	0.12	840748	keystroke_n	n	n/a
420.524	0.075	841048	keystroke_g	g	n/a
420.629	0.075	841258	keystroke_Key.space	Key.space	n/a
420.839	0.09	841678	keystroke_h	h	n/a
420.974	0.075	841948	keystroke_e	e	n/a
421.094	0.06	842188	keystroke_l	l	n/a
421.245	0.059	842490	keystroke_l	l	n/a
421.41	0.074	842820	keystroke_o	o	n/a
421.874	0.06	843748	keystroke_Key.enter	Key.enter	n/a
421.9425	5.709	843885	prompt	n/a	samples stocks equity there'd\n
422.445	0.089	844890	keystroke_s	s	n/a
422.564	0.165	845128	keystroke_a	a	n/a
422.744	0.061	845488	keystroke_m	m	n/a
422.85	0.09	845700	keystroke_p	p	n/a
423.045	0.119	846090	keystroke_l	l	n/a
423.149	0.046	846298	keystroke_e	e	n/a
423.284	0.09	846568	keystroke_s	s	n/a
423.449	0.09	846898	keystroke_Key.space	Key.space	n/a
423.554	0.091	847108	keystroke_s	s	n/a
423.7345	0.0745	847469	keystroke_t	t	n/a
423.84	0.089	847680	keystroke_o	o	n/a
423.959	0.09	847918	keystroke_c	c	n/a
424.079	0.09	848158	keystroke_k	k	n/a
424.214	0.121	848428	keystroke_s	s	n/a
424.424	0.06	848848	keystroke_Key.space	Key.space	n/a
424.635	0.074	849270	keystroke_e	e	n/a
424.799	0.12	849598	keystroke_q	q	n/a
424.934	0.0755	849868	keystroke_u	u	n/a
425.13	0.045	850260	keystroke_i	i	n/a
425.234	0.105	850468	keystroke_t	t	n/a
425.415	0.075	850830	keystroke_y	y	n/a
425.564	0.06	851128	keystroke_Key.space	Key.space	n/a
425.639	0.09	851278	keystroke_t	t	n/a
425.76	0.089	851520	keystroke_h	h	n/a
425.865	0.089	851730	keystroke_e	e	n/a
426.075	0.074	852150	keystroke_r	r	n/a
426.39	0.075	852780	keystroke_e	e	n/a
427.049	0.106	854098	keystroke_'	'	n/a
427.291	0.104	854582	keystroke_d	d	n/a
427.5595	0.0895	855119	keystroke_Key.enter	Key.enter	n/a
427.657	9.774	855314	prompt	n/a	readers pennsylvania nutrition aquatic\n
428.46	0.105	856920	keystroke_r	r	n/a
428.535	0.134	857070	keystroke_e	e	n/a
428.7	0.119	857400	keystroke_a	a	n/a
428.789	0.09	857578	keystroke_d	d	n/a
428.984	0.136	857968	keystroke_e	e	n/a
429.089	0.09	858178	keystroke_r	r	n/a
429.254	0.106	858508	keystroke_s	s	n/a
429.509	0.09	859018	keystroke_Key.space	Key.space	n/a
429.735	0.104	859470	keystroke_p	p	n/a
430.02	0.074	860040	keystroke_e	e	n/a
430.199	0.09	860398	keystroke_n	n	n/a
430.364	0.075	860728	keystroke_n	n	n/a
430.59	0.12	861180	keystroke_s	s	n/a
430.889	0.09	861778	keystroke_y	y	n/a
431.204	0.091	862408	keystroke_l	l	n/a
431.489	0.075	862978	keystroke_v	v	n/a
431.924	0.136	863848	keystroke_a	a	n/a
432.119	0.091	864238	keystroke_n	n	n/a
432.299	0.121	864598	keystroke_i	i	n/a
432.555	0.104	865110	keystroke_a	a	n/a
432.824	0.09	865648	keystroke_Key.space	Key.space	n/a
433.184	0.091	866368	keystroke_n	n	n/a
433.754	0.091	867508	keystroke_u	u	n/a
433.95	0.089	867900	keystroke_t	t	n/a
434.189	0.106	868378	keystroke_r	r	n/a
434.384	0.121	868768	keystroke_i	i	n/a
434.549	0.091	869098	keystroke_t	t	n/a
434.654	0.105	869308	keystroke_i	i	n/a
434.82	0.135	869640	keystroke_o	o	n/a
434.924	0.12	869848	keystroke_n	n	n/a
435.164	0.075	870328	keystroke_Key.space	Key.space	n/a
435.525	0.104	871050	keystroke_s	s	n/a
435.869	0.09	871738	keystroke_Key.backspace	Key.backspace	n/a
436.02	0.105	872040	keystroke_a	a	n/a
436.275	0.09	872550	keystroke_q	q	n/a
436.455	0.105	872910	keystroke_u	u	n/a
436.649	0.121	873298	keystroke_a	a	n/a
436.86	0.089	873720	keystroke_t	t	n/a
436.995	0.09	873990	keystroke_i	i	n/a
437.144	0.075	874288	keystroke_c	c	n/a
437.354	0.075	874708	keystroke_Key.enter	Key.enter	n/a
437.435	8.742	874870	prompt	n/a	asylum nurses advertise standings\n
438.225	0.119	876450	keystroke_a	a	n/a
438.51	0.105	877020	keystroke_s	s	n/a
438.795	0.089	877590	keystroke_y	y	n/a
439.08	0.09	878160	keystroke_l	l	n/a
439.455	0.059	878910	keystroke_u	u	n/a
439.694	0.075	879388	keystroke_m	m	n/a
439.935	0.089	879870	keystroke_Key.space	Key.space	n/a
440.564	0.061	881128	keystroke_n	n	n/a
440.745	0.104	881490	keystroke_u	u	n/a
440.865	0.075	881730	keystroke_r	r	n/a
441.045	0.12	882090	keystroke_s	s	n/a
441.209	0.12	882418	keystroke_e	e	n/a
441.345	0.105	882690	keystroke_s	s	n/a
441.825	0.09	883650	keystroke_Key.space	Key.space	n/a
441.915	0.089	883830	keystroke_a	a	n/a
442.095	0.09	884190	keystroke_d	d	n/a
442.26	0.105	884520	keystroke_v	v	n/a
442.545	0.075	885090	keystroke_e	e	n/a
442.725	0.075	885450	keystroke_r	r	n/a
442.965	0.104	885930	keystroke_t	t	n/a
443.175	0.12	886350	keystroke_i	i	n/a
443.37	0.135	886740	keystroke_s	s	n/a
443.474	0.091	886948	keystroke_e	e	n/a
443.805	0.089	887610	keystroke_Key.space	Key.space	n/a
444.345	0.104	888690	keystroke_s	s	n/a
444.495	0.105	888990	keystroke_t	t	n/a
444.615	0.135	889230	keystroke_a	a	n/a
444.78	0.104	889560	keystroke_n	n	n/a
444.915	0.105	889830	keystroke_d	d	n/a
445.035	0.165	890070	keystroke_i	i	n/a
445.11	0.135	890220	keystroke_n	n	n/a
445.259	0.076	890518	keystroke_g	g	n/a
445.35	0.09	890700	keystroke_s	s	n/a
446.04	0.135	892080	keystroke_Key.enter	Key.enter	n/a
446.182	8.3945	892364	prompt	n/a	citation comparable planet frequent\n
447.075	0.12	894150	keystroke_c	c	n/a
447.24	0.12	894480	keystroke_i	i	n/a
447.39	0.105	894780	keystroke_t	t	n/a
447.57	0.15	895140	keystroke_a	a	n/a
447.659	0.121	895318	keystroke_t	t	n/a
447.87	0.09	895740	keystroke_i	i	n/a
448.02	0.135	896040	keystroke_o	o	n/a
448.124	0.121	896248	keystroke_n	n	n/a
448.38	0.074	896760	keystroke_Key.space	Key.space	n/a
448.485	0.135	896970	keystroke_c	c	n/a
448.635	0.135	897270	keystroke_o	o	n/a
448.815	0.089	897630	keystroke_m	m	n/a
448.995	0.105	897990	keystroke_p	p	n/a
449.115	0.15	898230	keystroke_a	a	n/a
449.265	0.105	898530	keystroke_r	r	n/a
449.415	0.15	898830	keystroke_a	a	n/a
449.67	0.075	899340	keystroke_b	b	n/a
449.88	0.09	899760	keystroke_l	l	n/a
450.029	0.091	900058	keystroke_e	e	n/a
450.165	0.089	900330	keystroke_Key.space	Key.space	n/a
450.495	0.075	900990	keystroke_p	p	n/a
450.705	0.12	901410	keystroke_l	l	n/a
450.9	0.12	901800	keystroke_a	a	n/a
451.11	0.09	902220	keystroke_n	n	n/a
451.245	0.105	902490	keystroke_e	e	n/a
451.545	0.12	903090	keystroke_t	t	n/a
452.01	0.09	904020	keystroke_Key.space	Key.space	n/a
452.355	0.015	904710	keystroke_f	f	n/a
452.475	0.06	904950	keystroke_f	f	n/a
452.924	0.091	905848	keystroke_Key.backspace	Key.backspace	n/a
453.075	0.105	906150	keystroke_r	r	n/a
453.24	0.105	906480	keystroke_e	e	n/a
453.465	0.12	906930	keystroke_q	q	n/a
453.645	0.12	907290	keystroke_u	u	n/a
453.825	0.12	907650	keystroke_e	e	n/a
454.005	0.075	908010	keystroke_n	n	n/a
454.11	0.09	908220	keystroke_t	t	n/a
454.485	0.089	908970	keystroke_Key.enter	Key.enter	n/a
454.5815	7.3305	909163	prompt	n/a	salmon articles money terminal\n
455.325	0.105	910650	keystroke_s	s	n/a
455.46	0.18	910920	keystroke_a	a	n/a
455.655	0.09	911310	keystroke_l	l	n/a
455.895	0.075	911790	keystroke_m	m	n/a
456.075	0.075	912150	keystroke_o	o	n/a
456.3	0.09	912600	keystroke_n	n	n/a
456.54	0.105	913080	keystroke_Key.space	Key.space	n/a
456.9	0.135	913800	keystroke_a	a	n/a
457.08	0.105	914160	keystroke_r	r	n/a
457.26	0.105	914520	keystroke_t	t	n/a
457.44	0.12	914880	keystroke_i	i	n/a
457.575	0.105	915150	keystroke_c	c	n/a
457.755	0.105	915510	keystroke_l	l	n/a
457.92	0.06	915840	keystroke_e	e	n/a
458.13	0.105	916260	keystroke_s	s	n/a
458.52	0.09	917040	keystroke_Key.space	Key.space	n/a
458.79	0.06	917580	keystroke_m	m	n/a
459.195	0.09	918390	keystroke_o	o	n/a
459.45	0.075	918900	keystroke_n	n	n/a
459.63	0.09	919260	keystroke_e	e	n/a
459.84	0.09	919680	keystroke_y	y	n/a
460.05	0.09	920100	keystroke_Key.space	Key.space	n/a
460.23	0.075	920460	keystroke_t	t	n/a
460.425	0.075	920850	keystroke_e	e	n/a
460.605	0.105	921210	keystroke_r	r	n/a
460.725	0.075	921450	keystroke_m	m	n/a
460.875	0.075	921750	keystroke_i	i	n/a
461.025	0.09	922050	keystroke_n	n	n/a
461.205	0.105	922410	keystroke_a	a	n/a
461.28	0.075	922560	keystroke_l	l	n/a
461.805	0.105	923610	keystroke_Key.enter	Key.enter	n/a
461.918	6.6535	923836	prompt	n/a	classes appeals hitting shade\n
462.735	0.12	925470	keystroke_c	c	n/a
462.93	0.09	925860	keystroke_l	l	n/a
463.14	0.09	926280	keystroke_a	a	n/a
463.2	0.06	926400	keystroke_s	s	n/a
463.365	0.075	926730	keystroke_s	s	n/a
463.86	0.06	927720	keystroke_e	e	n/a
464.07	0.105	928140	keystroke_s	s	n/a
464.46	0.105	928920	keystroke_Key.space	Key.space	n/a
464.715	0.15	929430	keystroke_a	a	n/a
464.925	0.06	929850	keystroke_p	p	n/a
465.09	0.075	930180	keystroke_p	p	n/a
465.21	0.09	930420	keystroke_e	e	n/a
465.27	0.15	930540	keystroke_a	a	n/a
465.48	0.135	930960	keystroke_l	l	n/a
465.93	0.12	931860	keystroke_s	s	n/a
466.26	0.105	932520	keystroke_Key.space	Key.space	n/a
466.545	0.075	933090	keystroke_h	h	n/a
466.725	0.12	933450	keystroke_i	i	n/a
466.89	0.09	933780	keystroke_t	t	n/a
467.04	0.12	934080	keystroke_t	t	n/a
467.175	0.135	934350	keystroke_i	i	n/a
467.28	0.135	934560	keystroke_n	n	n/a
467.43	0.075	934860	keystroke_g	g	n/a
467.52	0.09	935040	keystroke_Key.space	Key.space	n/a
467.67	0.105	935340	keystroke_s	s	n/a
467.79	0.09	935580	keystroke_h	h	n/a
467.925	0.12	935850	keystroke_a	a	n/a
468.03	0.09	936060	keystroke_d	d	n/a
468.225	0.075	936450	keystroke_e	e	n/a
468.48	0.09	936960	keystroke_Key.enter	Key.enter	n/a
468.5765	9.8205	937153	prompt	n/a	enquiry wrestling livestock criticism\n
469.23	0.105	938460	keystroke_s	s	n/a
469.605	0.09	939210	keystroke_Key.backspace	Key.backspace	n/a
469.77	0.09	939540	keystroke_e	e	n/a
469.935	0.075	939870	keystroke_n	n	n/a
470.1	0.105	940200	keystroke_q	q	n/a
470.25	0.09	940500	keystroke_u	u	n/a
470.445	0.105	940890	keystroke_i	i	n/a
470.58	0.12	941160	keystroke_r	r	n/a
470.85	0.075	941700	keystroke_y	y	n/a
471.015	0.075	942030	keystroke_Key.space	Key.space	n/a
471.315	0.105	942630	keystroke_w	w	n/a
471.525	0.09	943050	keystroke_r	r	n/a
471.78	0.075	943560	keystroke_e	e	n/a
471.945	0.135	943890	keystroke_s	s	n/a
472.095	0.105	944190	keystroke_t	t	n/a
472.305	0.09	944610	keystroke_l	l	n/a
472.5	0.075	945000	keystroke_i	i	n/a
472.665	0.105	945330	keystroke_n	n	n/a
472.845	0.105	945690	keystroke_g	g	n/a
473.385	0.0895	946770	keystroke_Key.space	Key.space	n/a
473.6095	0.09	947219	keystroke_l	l	n/a
473.7145	0.105	947429	keystroke_i	i	n/a
473.8645	0.075	947729	keystroke_v	v	n/a
474.03	0.0895	948060	keystroke_e	e	n/a
474.1945	0.135	948389	keystroke_s	s	n/a
474.2845	0.09	948569	keystroke_t	t	n/a
474.4195	0.105	948839	keystroke_o	o	n/a
474.5845	0.105	949169	keystroke_c	c	n/a
474.7795	0.06	949559	keystroke_k	k	n/a
474.9145	0.09	949829	keystroke_Key.space	Key.space	n/a
475.1095	0.075	950219	keystroke_c	c	n/a
475.3045	0.09	950609	keystroke_r	r	n/a
475.4695	0.12	950939	keystroke_i	i	n/a
475.5895	0.075	951179	keystroke_t	t	n/a
475.7695	0.12	951539	keystroke_i	i	n/a
476.0995	0.105	952199	keystroke_c	c	n/a
476.3395	0.12	952679	keystroke_i	i	n/a
476.5945	0.105	953189	keystroke_s	s	n/a
476.9095	0.075	953819	keystroke_m	m	n/a
478.3045	0.09	956609	keystroke_Key.enter	Key.enter	n/a
478.4015	7.6905	956803	prompt	n/a	anime chevy agencies cadillac\n
479.0845	0.12	958169	keystroke_e	e	n/a
479.4445	0.09	958889	keystroke_Key.backspace	Key.backspace	n/a
479.6545	0.12	959309	keystroke_a	a	n/a
479.8195	0.06	959639	keystroke_n	n	n/a
479.9995	0.06	959999	keystroke_i	i	n/a
480.1645	0.105	960329	keystroke_m	m	n/a
480.3745	0.105	960749	keystroke_e	e	n/a
480.5245	0.09	961049	keystroke_Key.space	Key.space	n/a
480.6895	0.12	961379	keystroke_c	c	n/a
480.8545	0.09	961709	keystroke_h	h	n/a
481.0495	0.075	962099	keystroke_e	e	n/a
481.2145	0.105	962429	keystroke_v	v	n/a
481.4245	0.09	962849	keystroke_y	y	n/a
481.6045	0.09	963209	keystroke_Key.space	Key.space	n/a
481.7395	0.135	963479	keystroke_a	a	n/a
481.9495	0.075	963899	keystroke_g	g	n/a
482.0995	0.105	964199	keystroke_e	e	n/a
482.2945	0.075	964589	keystroke_n	n	n/a
482.4295	0.09	964859	keystroke_c	c	n/a
482.5945	0.165	965189	keystroke_i	i	n/a
482.8045	0.075	965609	keystroke_e	e	n/a
482.9395	0.12	965879	keystroke_s	s	n/a
483.1795	0.09	966359	keystroke_Key.space	Key.space	n/a
483.4045	0.09	966809	keystroke_c	c	n/a
483.5995	0.105	967199	keystroke_a	a	n/a
483.8545	0.075	967709	keystroke_d	d	n/a
484.1695	0.09	968339	keystroke_i	i	n/a
484.4245	0.09	968849	keystroke_l	l	n/a
484.6195	0.09	969239	keystroke_l	l	n/a
484.7695	0.105	969539	keystroke_a	a	n/a
484.9195	0.105	969839	keystroke_c	c	n/a
485.9995	0.09	971999	keystroke_Key.enter	Key.enter	n/a
486.098	14.5135	972196	prompt	n/a	charleston beverages checking fujitsu\n
486.7945	0.135	973589	keystroke_c	c	n/a
486.9895	0.105	973979	keystroke_h	h	n/a
487.1695	0.15	974339	keystroke_a	a	n/a
487.3045	0.105	974609	keystroke_r	r	n/a
487.4995	0.12	974999	keystroke_l	l	n/a
487.6645	0.06	975329	keystroke_e	e	n/a
487.8445	0.12	975689	keystroke_s	s	n/a
488.0395	0.105	976079	keystroke_t	t	n/a
488.2195	0.105	976439	keystroke_o	o	n/a
488.3395	0.12	976679	keystroke_n	n	n/a
489.0595	0.12	978119	keystroke_Key.space	Key.space	n/a
489.4495	0.09	978899	keystroke_b	b	n/a
489.6595	0.135	979319	keystroke_e	e	n/a
494.1775	0.027	988355	keystroke_v	v	n/a
494.2945	0.09	988589	keystroke_e	e	n/a
494.5195	0.09	989039	keystroke_r	r	n/a
494.7445	0.135	989489	keystroke_a	a	n/a
494.9395	0.09	989879	keystroke_g	g	n/a
495.1345	0.06	990269	keystroke_e	e	n/a
495.3145	0.12	990629	keystroke_s	s	n/a
495.5395	0.09	991079	keystroke_Key.space	Key.space	n/a
495.7495	0.12	991499	keystroke_c	c	n/a
495.8845	0.105	991769	keystroke_h	h	n/a
496.0205	0.059	992041	keystroke_e	e	n/a
496.1545	0.09	992309	keystroke_c	c	n/a
496.2745	0.075	992549	keystroke_k	k	n/a
496.4695	0.06	992939	keystroke_i	i	n/a
496.5895	0.12	993179	keystroke_n	n	n/a
496.7545	0.075	993509	keystroke_g	g	n/a
496.9345	0.105	993869	keystroke_Key.space	Key.space	n/a
497.2195	0.12	994439	keystroke_f	f	n/a
498.2095	0.105	996419	keystroke_u	u	n/a
498.7945	0.09	997589	keystroke_j	j	n/a
499.2895	0.105	998579	keystroke_i	i	n/a
499.5445	0.09	999089	keystroke_t	t	n/a
499.9645	0.105	999929	keystroke_s	s	n/a
500.1745	0.09	1000349	keystroke_u	u	n/a
500.5195	0.09	1001039	keystroke_Key.enter	Key.enter	n/a
500.62	6.5915	1001240	prompt	n/a	yukon proud mars flooring\n
501.4195	0.045	1002839	keystroke_y	y	n/a
501.5695	0.09	1003139	keystroke_u	u	n/a
501.8245	0.075	1003649	keystroke_k	k	n/a
502.0045	0.075	1004009	keystroke_o	o	n/a
502.2145	0.075	1004429	keystroke_n	n	n/a
502.4245	0.075	1004849	keystroke_Key.space	Key.space	n/a
502.6195	0.09	1005239	keystroke_p	p	n/a
502.7545	0.09	1005509	keystroke_r	r	n/a
502.8895	0.075	1005779	keystroke_o	o	n/a
502.9945	0.105	1005989	keystroke_d	d	n/a
503.1145	0.075	1006229	keystroke_u	u	n/a
503.6545	0.075	1007309	keystroke_Key.backspace	Key.backspace	n/a
503.8195	0.09	1007639	keystroke_Key.backspace	Key.backspace	n/a
504.0595	0.06	1008119	keystroke_u	u	n/a
504.2245	0.09	1008449	keystroke_d	d	n/a
504.4045	0.06	1008809	keystroke_Key.space	Key.space	n/a
504.5845	0.075	1009169	keystroke_m	m	n/a
504.7495	0.105	1009499	keystroke_a	a	n/a
504.8545	0.09	1009709	keystroke_r	r	n/a
505.1095	0.12	1010219	keystroke_s	s	n/a
505.3045	0.105	1010609	keystroke_Key.space	Key.space	n/a
505.4395	0.12	1010879	keystroke_f	f	n/a
505.5745	0.06	1011149	keystroke_l	l	n/a
505.7395	0.09	1011479	keystroke_o	o	n/a
505.9045	0.105	1011809	keystroke_o	o	n/a
506.0995	0.12	1012199	keystroke_r	r	n/a
506.3845	0.075	1012769	keystroke_i	i	n/a
506.6095	0.105	1013219	keystroke_n	n	n/a
506.7895	0.09	1013579	keystroke_g	g	n/a
507.1495	0.06	1014299	keystroke_Key.enter	Key.enter	n/a
507.218	6.398	1014436	prompt	n/a	feedback dishes micro dell\n
508.0045	0.09	1016009	keystroke_f	f	n/a
508.1545	0.075	1016309	keystroke_e	e	n/a
508.3195	0.06	1016639	keystroke_e	e	n/a
508.4845	0.09	1016969	keystroke_d	d	n/a
508.6495	0.09	1017299	keystroke_b	b	n/a
508.7545	0.1495	1017509	keystroke_a	a	n/a
508.8445	0.1195	1017689	keystroke_c	c	n/a
509.024	0.075	1018048	keystroke_k	k	n/a
509.219	0.09	1018438	keystroke_Key.space	Key.space	n/a
509.444	0.12	1018888	keystroke_f	f	n/a
509.639	0.045	1019278	keystroke_i	i	n/a
509.834	0.09	1019668	keystroke_Key.backspace	Key.backspace	n/a
510.059	0.075	1020118	keystroke_Key.backspace	Key.backspace	n/a
510.179	0.12	1020358	keystroke_d	d	n/a
510.359	0.09	1020718	keystroke_i	i	n/a
510.479	0.135	1020958	keystroke_s	s	n/a
510.644	0.105	1021288	keystroke_h	h	n/a
510.779	0.06	1021558	keystroke_e	e	n/a
511.004	0.12	1022008	keystroke_s	s	n/a
511.229	0.075	1022458	keystroke_Key.space	Key.space	n/a
511.484	0.075	1022968	keystroke_m	m	n/a
511.634	0.105	1023268	keystroke_i	i	n/a
511.814	0.075	1023628	keystroke_c	c	n/a
511.994	0.105	1023988	keystroke_r	r	n/a
512.189	0.09	1024378	keystroke_o	o	n/a
512.669	0.105	1025338	keystroke_Key.space	Key.space	n/a
512.804	0.075	1025608	keystroke_d	d	n/a
512.984	0.075	1025968	keystroke_e	e	n/a
513.119	0.075	1026238	keystroke_l	l	n/a
513.314	0.045	1026628	keystroke_l	l	n/a
513.539	0.075	1027078	keystroke_Key.enter	Key.enter	n/a
513.6215	9.0995	1027243	prompt	n/a	indian crawford applicants apparatus\n
514.379	0.075	1028758	keystroke_i	i	n/a
514.589	0.09	1029178	keystroke_n	n	n/a
514.724	0.105	1029448	keystroke_d	d	n/a
514.904	0.12	1029808	keystroke_i	i	n/a
515.084	0.135	1030168	keystroke_a	a	n/a
515.339	0.09	1030678	keystroke_n	n	n/a
515.654	0.09	1031308	keystroke_Key.space	Key.space	n/a
515.909	0.105	1031818	keystroke_c	c	n/a
516.104	0.06	1032208	keystroke_a	a	n/a
516.554	0.09	1033108	keystroke_Key.backspace	Key.backspace	n/a
516.689	0.09	1033378	keystroke_r	r	n/a
516.854	0.105	1033708	keystroke_a	a	n/a
517.034	0.105	1034068	keystroke_w	w	n/a
517.274	0.12	1034548	keystroke_f	f	n/a
517.454	0.12	1034908	keystroke_o	o	n/a
517.619	0.075	1035238	keystroke_r	r	n/a
517.829	0.075	1035658	keystroke_d	d	n/a
517.994	0.09	1035988	keystroke_Key.space	Key.space	n/a
518.144	0.1355	1036288	keystroke_a	a	n/a
518.309	0.075	1036618	keystroke_p	p	n/a
518.459	0.075	1036918	keystroke_p	p	n/a
518.654	0.105	1037308	keystroke_l	l	n/a
518.864	0.105	1037728	keystroke_i	i	n/a
519.044	0.12	1038088	keystroke_c	c	n/a
519.224	0.135	1038448	keystroke_a	a	n/a
519.434	0.135	1038868	keystroke_n	n	n/a
519.659	0.075	1039318	keystroke_t	t	n/a
519.914	0.106	1039828	keystroke_s	s	n/a
520.139	0.105	1040278	keystroke_Key.space	Key.space	n/a
520.304	0.135	1040608	keystroke_a	a	n/a
520.529	0.075	1041058	keystroke_p	p	n/a
520.724	0.06	1041448	keystroke_p	p	n/a
520.964	0.12	1041928	keystroke_a	a	n/a
521.504	0.09	1043008	keystroke_r	r	n/a
521.729	0.105	1043458	keystroke_a	a	n/a
521.984	0.09	1043968	keystroke_t	t	n/a
522.194	0.105	1044388	keystroke_u	u	n/a
522.329	0.105	1044658	keystroke_s	s	n/a
522.614	0.105	1045228	keystroke_Key.enter	Key.enter	n/a
522.7255	9.626	1045451	prompt	n/a	convinced origins ribbon rover\n
523.379	0.09	1046758	keystroke_c	c	n/a
523.515	0.089	1047030	keystroke_o	o	n/a
523.709	0.135	1047418	keystroke_n	n	n/a
523.874	0.105	1047748	keystroke_v	v	n/a
524.039	0.105	1048078	keystroke_i	i	n/a
524.189	0.105	1048378	keystroke_c	c	n/a
524.309	0.09	1048618	keystroke_n	n	n/a
524.459	0.09	1048918	keystroke_e	e	n/a
524.714	0.09	1049428	keystroke_d	d	n/a
525.314	0.06	1050628	keystroke_Key.backspace	Key.backspace	n/a
525.494	0.075	1050988	keystroke_Key.backspace	Key.backspace	n/a
525.689	0.045	1051378	keystroke_Key.backspace	Key.backspace	n/a
526.064	0.09	1052128	keystroke_Key.backspace	Key.backspace	n/a
526.32	0.089	1052640	keystroke_n	n	n/a
526.484	0.105	1052968	keystroke_c	c	n/a
526.724	0.075	1053448	keystroke_e	e	n/a
526.934	0.09	1053868	keystroke_d	d	n/a
527.429	0.09	1054858	keystroke_Key.space	Key.space	n/a
527.609	0.12	1055218	keystroke_o	o	n/a
527.774	0.105	1055548	keystroke_r	r	n/a
527.924	0.135	1055848	keystroke_i	i	n/a
528.074	0.09	1056148	keystroke_g	g	n/a
528.179	0.075	1056358	keystroke_i	i	n/a
528.329	0.12	1056658	keystroke_n	n	n/a
528.554	0.105	1057108	keystroke_s	s	n/a
529.079	0.12	1058158	keystroke_Key.space	Key.space	n/a
529.349	0.075	1058698	keystroke_r	r	n/a
529.634	0.09	1059268	keystroke_i	i	n/a
529.904	0.06	1059808	keystroke_b	b	n/a
530.039	0.09	1060078	keystroke_b	b	n/a
530.279	0.075	1060558	keystroke_o	o	n/a
530.49	0.074	1060980	keystroke_n	n	n/a
530.804	0.09	1061608	keystroke_Key.space	Key.space	n/a
530.984	0.12	1061968	keystroke_r	r	n/a
531.179	0.09	1062358	keystroke_o	o	n/a
531.314	0.075	1062628	keystroke_v	v	n/a
531.524	0.106	1063048	keystroke_e	e	n/a
531.749	0.075	1063498	keystroke_r	r	n/a
532.274	0.075	1064548	keystroke_Key.enter	Key.enter	n/a
532.3575	6.1435	1064715	prompt	n/a	tiles ticket holes butler\n
533.129	0.105	1066258	keystroke_t	t	n/a
533.295	0.104	1066590	keystroke_i	i	n/a
533.459	0.075	1066918	keystroke_t	t	n/a
533.804	0.09	1067608	keystroke_Key.backspace	Key.backspace	n/a
534.059	0.12	1068118	keystroke_l	l	n/a
534.239	0.09	1068478	keystroke_e	e	n/a
534.509	0.12	1069018	keystroke_s	s	n/a
534.749	0.105	1069498	keystroke_Key.space	Key.space	n/a
534.914	0.09	1069828	keystroke_t	t	n/a
535.049	0.09	1070098	keystroke_i	i	n/a
535.184	0.091	1070368	keystroke_c	c	n/a
535.289	0.12	1070578	keystroke_k	k	n/a
535.454	0.09	1070908	keystroke_e	e	n/a
535.619	0.091	1071238	keystroke_t	t	n/a
535.739	0.06	1071478	keystroke_Key.space	Key.space	n/a
535.874	0.121	1071748	keystroke_h	h	n/a
535.979	0.091	1071958	keystroke_o	o	n/a
536.189	0.135	1072378	keystroke_l	l	n/a
536.339	0.06	1072678	keystroke_e	e	n/a
536.504	0.135	1073008	keystroke_s	s	n/a
536.714	0.075	1073428	keystroke_Key.space	Key.space	n/a
536.954	0.075	1073908	keystroke_b	b	n/a
537.194	0.105	1074388	keystroke_u	u	n/a
537.494	0.12	1074988	keystroke_t	t	n/a
537.734	0.12	1075468	keystroke_l	l	n/a
537.944	0.09	1075888	keystroke_e	e	n/a
538.169	0.075	1076338	keystroke_r	r	n/a
538.394	0.105	1076788	keystroke_Key.enter	Key.enter	n/a
538.5055	6.836	1077011	prompt	n/a	trash stan insects phoenix\n
539.114	0.09	1078228	keystroke_t	t	n/a
539.385	0.029	1078770	keystroke_r	r	n/a
539.399	0.105	1078798	keystroke_a	a	n/a
539.609	0.12	1079218	keystroke_s	s	n/a
539.789	0.09	1079578	keystroke_h	h	n/a
539.969	0.09	1079938	keystroke_Key.space	Key.space	n/a
540.104	0.105	1080208	keystroke_s	s	n/a
540.239	0.12	1080478	keystroke_t	t	n/a
540.344	0.135	1080688	keystroke_a	a	n/a
540.57	0.104	1081140	keystroke_n	n	n/a
540.839	0.075	1081678	keystroke_Key.space	Key.space	n/a
541.02	0.089	1082040	keystroke_i	i	n/a
541.244	0.091	1082488	keystroke_n	n	n/a
542.039	0.121	1084078	keystroke_s	s	n/a
542.279	0.091	1084558	keystroke_e	e	n/a
542.459	0.075	1084918	keystroke_c	c	n/a
542.669	0.076	1085338	keystroke_t	t	n/a
542.849	0.121	1085698	keystroke_s	s	n/a
543.149	0.09	1086298	keystroke_Key.space	Key.space	n/a
543.344	0.075	1086688	keystroke_p	p	n/a
543.689	0.09	1087378	keystroke_h	h	n/a
544.109	0.09	1088218	keystroke_o	o	n/a
544.379	0.09	1088758	keystroke_e	e	n/a
544.574	0.075	1089148	keystroke_n	n	n/a
544.769	0.075	1089538	keystroke_i	i	n/a
544.98	0.089	1089960	keystroke_x	x	n/a
545.249	0.09	1090498	keystroke_Key.enter	Key.enter	n/a
545.3485	7.4475	1090697	prompt	n/a	assign anne consoles winds\n
546.075	0.104	1092150	keystroke_a	a	n/a
546.284	0.06	1092568	keystroke_s	s	n/a
546.449	0.105	1092898	keystroke_s	s	n/a
546.614	0.105	1093228	keystroke_i	i	n/a
546.765	0.089	1093530	keystroke_g	g	n/a
546.959	0.09	1093918	keystroke_n	n	n/a
547.154	0.105	1094308	keystroke_Key.space	Key.space	n/a
547.335	0.15	1094670	keystroke_a	a	n/a
547.529	0.09	1095058	keystroke_n	n	n/a
547.694	0.105	1095388	keystroke_n	n	n/a
547.904	0.075	1095808	keystroke_e	e	n/a
