onset	duration	sample	value	key	prompt_text
4.822	13.433	9644	prompt	n/a	the quick brown fox jumps over a lazy dog\n
7.0425	0.027	14085	keystroke_t	t	n/a
7.0845	0.089	14169	keystroke_h	h	n/a
7.2035	0.12	14407	keystroke_e	e	n/a
7.6095	0.105	15219	keystroke_Key.space	Key.space	n/a
8.3895	0.105	16779	keystroke_q	q	n/a
8.5395	0.09	17079	keystroke_u	u	n/a
8.7345	0.09	17469	keystroke_i	i	n/a
8.93	0.12	17860	keystroke_c	c	n/a
9.08	0.1355	18160	keystroke_k	k	n/a
9.2905	0.105	18581	keystroke_Key.space	Key.space	n/a
9.9645	0.105	19929	keystroke_b	b	n/a
10.0995	0.12	20199	keystroke_r	r	n/a
10.2645	0.105	20529	keystroke_o	o	n/a
10.4295	0.12	20859	keystroke_w	w	n/a
10.655	0.105	21310	keystroke_n	n	n/a
10.835	0.1055	21670	keystroke_Key.space	Key.space	n/a
11.7055	0.075	23411	keystroke_f	f	n/a
11.8405	0.12	23681	keystroke_o	o	n/a
12.1705	0.09	24341	keystroke_x	x	n/a
12.365	0.09	24730	keystroke_Key.space	Key.space	n/a
12.545	0.09	25090	keystroke_j	j	n/a
12.74	0.09	25480	keystroke_u	u	n/a
12.98	0.105	25960	keystroke_m	m	n/a
13.145	0.105	26290	keystroke_p	p	n/a
13.355	0.105	26710	keystroke_s	s	n/a
13.58	0.0905	27160	keystroke_Key.space	Key.space	n/a
13.7605	0.105	27521	keystroke_o	o	n/a
14.0755	0.105	28151	keystroke_v	v	n/a
14.9155	0.165	29831	keystroke_e	e	n/a
15.0205	0.134	30041	keystroke_r	r	n/a
15.482	0.119	30964	keystroke_Key.space	Key.space	n/a
15.6455	0.134	31291	keystroke_a	a	n/a
15.8245	0.119	31649	keystroke_Key.space	Key.space	n/a
16.243	0.0895	32486	keystroke_l	l	n/a
16.4065	0.119	32813	keystroke_a	a	n/a
16.8125	0.119	33625	keystroke_z	z	n/a
16.961	0.119	33922	keystroke_y	y	n/a
17.202	0.119	34404	keystroke_Key.space	Key.space	n/a
17.574	0.154	35148	keystroke_d	d	n/a
17.713	0.1045	35426	keystroke_o	o	n/a
17.9215	0.089	35843	keystroke_g	g	n/a
18.1595	0.093	36319	keystroke_Key.enter	Key.enter	n/a
18.259	8.574	36518	prompt	n/a	continued dirty buying morgan\n
19.3025	0.104	38605	keystroke_c	c	n/a
19.3915	0.1045	38783	keystroke_o	o	n/a
19.585	0.104	39170	keystroke_n	n	n/a
19.797	0.0745	39594	keystroke_t	t	n/a
19.9605	0.0895	39921	keystroke_i	i	n/a
20.154	0.0775	40308	keystroke_n	n	n/a
20.2925	0.089	40585	keystroke_u	u	n/a
20.4265	0.119	40853	keystroke_e	e	n/a
20.7875	0.134	41575	keystroke_d	d	n/a
20.966	0.104	41932	keystroke_Key.space	Key.space	n/a
21.4305	0.134	42861	keystroke_d	d	n/a
21.5795	0.104	43159	keystroke_i	i	n/a
21.821	0.0595	43642	keystroke_r	r	n/a
21.9995	0.06	43999	keystroke_t	t	n/a
22.208	0.0925	44416	keystroke_y	y	n/a
22.962	0.119	45924	keystroke_Key.space	Key.space	n/a
23.3045	0.078	46609	keystroke_b	b	n/a
23.457	0.104	46914	keystroke_u	u	n/a
23.6505	0.0745	47301	keystroke_y	y	n/a
23.83	0.107	47660	keystroke_i	i	n/a
24.0415	0.089	48083	keystroke_n	n	n/a
24.1905	0.089	48381	keystroke_g	g	n/a
24.417	0.074	48834	keystroke_Key.space	Key.space	n/a
25.2245	0.0895	50449	keystroke_m	m	n/a
25.392	0.1195	50784	keystroke_o	o	n/a
25.556	0.0895	51112	keystroke_r	r	n/a
25.931	0.134	51862	keystroke_g	g	n/a
26.05	0.1195	52100	keystroke_a	a	n/a
26.244	0.0915	52488	keystroke_n	n	n/a
26.784	0.047	53568	keystroke_Key.enter	Key.enter	n/a
26.8365	7.136	53673	prompt	n/a	resume seller italiano eric\n
27.818	0.109	55636	keystroke_r	r	n/a
27.912	0.134	55824	keystroke_e	e	n/a
28.1205	0.164	56241	keystroke_s	s	n/a
28.314	0.092	56628	keystroke_u	u	n/a
28.541	0.104	57082	keystroke_m	m	n/a
28.7045	0.1195	57409	keystroke_e	e	n/a
28.9165	0.104	57833	keystroke_Key.space	Key.space	n/a
29.0655	0.134	58131	keystroke_s	s	n/a
29.304	0.093	58608	keystroke_e	e	n/a
29.4715	0.0895	58943	keystroke_l	l	n/a
29.68	0.0745	59360	keystroke_l	l	n/a
29.814	0.137	59628	keystroke_e	e	n/a
30.0255	0.1045	60051	keystroke_r	r	n/a
30.234	0.0895	60468	keystroke_Key.space	Key.space	n/a
30.4465	0.0745	60893	keystroke_i	i	n/a
30.834	0.077	61668	keystroke_t	t	n/a
31.03	0.104	62060	keystroke_a	a	n/a
31.343	0.107	62686	keystroke_l	l	n/a
31.6435	0.0745	63287	keystroke_i	i	n/a
31.901	0.104	63802	keystroke_a	a	n/a
32.0945	0.075	64189	keystroke_n	n	n/a
32.3335	0.0315	64667	keystroke_o	o	n/a
32.6645	0.0895	65329	keystroke_Key.space	Key.space	n/a
33.144	0.1495	66288	keystroke_e	e	n/a
33.2185	0.1655	66437	keystroke_r	r	n/a
33.4615	0.0745	66923	keystroke_i	i	n/a
33.7	0.1345	67400	keystroke_c	c	n/a
33.911	0.0595	67822	keystroke_Key.enter	Key.enter	n/a
33.9755	8.996	67951	prompt	n/a	merge carol exterior openings\n
34.794	0.092	69588	keystroke_m	m	n/a
34.9305	0.1495	69861	keystroke_e	e	n/a
35.02	0.1345	70040	keystroke_r	r	n/a
35.7685	0.1225	71537	keystroke_g	g	n/a
35.9655	0.1195	71931	keystroke_e	e	n/a
36.1595	0.1045	72319	keystroke_Key.space	Key.space	n/a
36.3405	0.1345	72681	keystroke_c	c	n/a
36.5495	0.1195	73099	keystroke_a	a	n/a
37.1045	0.1045	74209	keystroke_r	r	n/a
37.465	0.0895	74930	keystroke_o	o	n/a
37.781	0.104	75562	keystroke_l	l	n/a
38.0495	0.1045	76099	keystroke_Key.space	Key.space	n/a
38.2905	0.0745	76581	keystroke_e	e	n/a
38.574	0.1195	77148	keystroke_x	x	n/a
38.875	0.0895	77750	keystroke_t	t	n/a
39.069	0.152	78138	keystroke_e	e	n/a
39.2355	0.1195	78471	keystroke_r	r	n/a
39.8795	0.0445	79759	keystroke_i	i	n/a
40.0435	0.0745	80087	keystroke_o	o	n/a
40.2705	0.0895	80541	keystroke_r	r	n/a
40.6585	0.106	81317	keystroke_Key.space	Key.space	n/a
41.394	0.0895	82788	keystroke_o	o	n/a
41.588	0.075	83176	keystroke_p	p	n/a
41.7855	0.0745	83571	keystroke_e	e	n/a
41.9495	0.0895	83899	keystroke_n	n	n/a
42.1435	0.077	84287	keystroke_i	i	n/a
42.325	0.0745	84650	keystroke_n	n	n/a
42.459	0.09	84918	keystroke_g	g	n/a
42.6855	0.0895	85371	keystroke_s	s	n/a
42.9245	0.0445	85849	keystroke_Key.enter	Key.enter	n/a
42.9745	9.9565	85949	prompt	n/a	developing book sudan handled\n
43.9435	0.075	87887	keystroke_d	d	n/a
44.123	0.0765	88246	keystroke_e	e	n/a
44.3935	0.0895	88787	keystroke_v	v	n/a
44.588	0.0915	89176	keystroke_e	e	n/a
44.8885	0.015	89777	keystroke_l	l	n/a
44.993	0.0745	89986	keystroke_o	o	n/a
45.264	0.0595	90528	keystroke_i	i	n/a
45.999	0.06	91998	keystroke_Key.backspace	Key.backspace	n/a
46.7055	0.1045	93411	keystroke_p	p	n/a
46.824	0.0895	93648	keystroke_i	i	n/a
47.0185	0.0895	94037	keystroke_n	n	n/a
47.1995	0.075	94399	keystroke_g	g	n/a
47.874	0.1045	95748	keystroke_Key.space	Key.space	n/a
48.22	0.0745	96440	keystroke_b	b	n/a
48.414	0.06	96828	keystroke_o	o	n/a
48.6085	0.0765	97217	keystroke_o	o	n/a
48.835	0.0895	97670	keystroke_k	k	n/a
49.059	0.1215	98118	keystroke_Key.space	Key.space	n/a
49.539	0.1215	99078	keystroke_s	s	n/a
49.705	0.075	99410	keystroke_u	u	n/a
49.9295	0.149	99859	keystroke_d	d	n/a
50.0935	0.1515	100187	keystroke_a	a	n/a
50.3195	0.1045	100639	keystroke_n	n	n/a
50.499	0.1195	100998	keystroke_Key.space	Key.space	n/a
50.799	0.075	101598	keystroke_h	h	n/a
50.9335	0.1495	101867	keystroke_a	a	n/a
51.399	0.0595	102798	keystroke_n	n	n/a
51.7455	0.014	103491	keystroke_d	d	n/a
51.864	0.0895	103728	keystroke_l	l	n/a
52.0595	0.075	104119	keystroke_e	e	n/a
52.345	0.1185	104690	keystroke_d	d	n/a
52.8685	0.06	105737	keystroke_Key.enter	Key.enter	n/a
52.934	17.683	105868	prompt	n/a	acquisition hand rebecca spies\n
54.1145	0.1045	108229	keystroke_a	a	n/a
55.1495	0.1045	110299	keystroke_c	c	n/a
56.079	0.1045	112158	keystroke_q	q	n/a
56.679	0.06	113358	keystroke_u	u	n/a
56.7845	0.089	113569	keystroke_i	i	n/a
57.069	0.0895	114138	keystroke_s	s	n/a
57.924	0.0755	115848	keystroke_i	i	n/a
58.119	0.075	116238	keystroke_t	t	n/a
58.2835	0.06	116567	keystroke_i	i	n/a
58.465	0.0745	116930	keystroke_o	o	n/a
58.6445	0.0745	117289	keystroke_n	n	n/a
62.9665	0.043	125933	keystroke_Key.space	Key.space	n/a
63.2945	0.0745	126589	keystroke_h	h	n/a
63.4	0.1335	126800	keystroke_a	a	n/a
63.5645	0.1045	127129	keystroke_n	n	n/a
63.729	0.1645	127458	keystroke_d	d	n/a
63.939	0.1195	127878	keystroke_Key.space	Key.space	n/a
64.4505	0.0895	128901	keystroke_r	r	n/a
64.615	0.1035	129230	keystroke_e	e	n/a
65.1845	0.09	130369	keystroke_b	b	n/a
65.379	0.0915	130758	keystroke_e	e	n/a
66.3695	0.061	132739	keystroke_c	c	n/a
66.5205	0.09	133041	keystroke_c	c	n/a
66.685	0.135	133370	keystroke_a	a	n/a
66.986	0.1035	133972	keystroke_Key.space	Key.space	n/a
67.36	0.1055	134720	keystroke_s	s	n/a
67.5095	0.1505	135019	keystroke_p	p	n/a
67.795	0.0745	135590	keystroke_o	o	n/a
68.0055	0.06	136011	keystroke_e	e	n/a
68.5595	0.046	137119	keystroke_Key.backspace	Key.backspace	n/a
68.7255	0.1035	137451	keystroke_Key.backspace	Key.backspace	n/a
69.745	0.075	139490	keystroke_i	i	n/a
69.881	0.105	139762	keystroke_e	e	n/a
70.1355	0.105	140271	keystroke_s	s	n/a
70.5705	0.045	141141	keystroke_Key.enter	Key.enter	n/a
70.622	9.1605	141244	prompt	n/a	current numbers lodging user\n
71.6655	0.12	143331	keystroke_c	c	n/a
71.8155	0.105	143631	keystroke_u	u	n/a
72.0255	0.075	144051	keystroke_r	r	n/a
72.22	0.0605	144440	keystroke_r	r	n/a
72.4	0.105	144800	keystroke_e	e	n/a
72.6545	0.105	145309	keystroke_n	n	n/a
72.8205	0.0745	145641	keystroke_t	t	n/a
73.165	0.121	146330	keystroke_Key.space	Key.space	n/a
73.526	0.0745	147052	keystroke_n	n	n/a
73.6905	0.0905	147381	keystroke_u	u	n/a
73.9005	0.06	147801	keystroke_m	m	n/a
74.0955	0.0595	148191	keystroke_b	b	n/a
74.215	0.18	148430	keystroke_e	e	n/a
74.3355	0.1495	148671	keystroke_r	r	n/a
74.62	0.1355	149240	keystroke_s	s	n/a
74.845	0.105	149690	keystroke_Key.space	Key.space	n/a
75.04	0.09	150080	keystroke_l	l	n/a
75.251	0.06	150502	keystroke_o	o	n/a
75.6705	0.1055	151341	keystroke_d	d	n/a
75.911	0.06	151822	keystroke_g	g	n/a
76.5855	0.0745	153171	keystroke_i	i	n/a
76.796	0.075	153592	keystroke_n	n	n/a
77.8905	0.0895	155781	keystroke_g	g	n/a
78.236	0.1195	156472	keystroke_Key.space	Key.space	n/a
78.8805	0.105	157761	keystroke_u	u	n/a
79.0455	0.21	158091	keystroke_s	s	n/a
79.196	0.1345	158392	keystroke_e	e	n/a
79.4805	0.0895	158961	keystroke_r	r	n/a
79.706	0.075	159412	keystroke_Key.enter	Key.enter	n/a
79.7855	9.611	159571	prompt	n/a	charts well matches subject\n
80.6195	0.121	161239	keystroke_c	c	n/a
80.755	0.09	161510	keystroke_h	h	n/a
80.92	0.15	161840	keystroke_a	a	n/a
81.16	0.075	162320	keystroke_r	r	n/a
81.3695	0.06	162739	keystroke_t	t	n/a
81.5795	0.1055	163159	keystroke_s	s	n/a
82.0895	0.121	164179	keystroke_Key.space	Key.space	n/a
82.3155	0.1795	164631	keystroke_w	w	n/a
82.45	0.105	164900	keystroke_e	e	n/a
82.705	0.06	165410	keystroke_l	l	n/a
82.9	0.075	165800	keystroke_l	l	n/a
83.11	0.09	166220	keystroke_Key.space	Key.space	n/a
83.29	0.09	166580	keystroke_m	m	n/a
83.44	0.1345	166880	keystroke_a	a	n/a
83.6805	0.075	167361	keystroke_t	t	n/a
83.9505	0.06	167901	keystroke_c	c	n/a
83.9655	0.03	167931	keystroke_v	v	n/a
85.0145	0.075	170029	keystroke_Key.backspace	Key.backspace	n/a
85.5695	0.06	171139	keystroke_h	h	n/a
85.719	0.135	171438	keystroke_e	e	n/a
85.959	0.105	171918	keystroke_s	s	n/a
86.215	0.0895	172430	keystroke_Key.space	Key.space	n/a
86.6795	0.12	173359	keystroke_s	s	n/a
86.8145	0.09	173629	keystroke_u	u	n/a
87.0395	0.0895	174079	keystroke_b	b	n/a
87.309	0.105	174618	keystroke_j	j	n/a
87.5335	0.075	175067	keystroke_e	e	n/a
87.909	0.105	175818	keystroke_x	x	n/a
88.691	0.06	177382	keystroke_Key.backspace	Key.backspace	n/a
88.796	0.12	177592	keystroke_c	c	n/a
89.066	0.06	178132	keystroke_t	t	n/a
89.335	0.06	178670	keystroke_Key.enter	Key.enter	n/a
89.3995	9.3125	178799	prompt	n/a	power vitamin fill newer\n
90.2655	0.105	180531	keystroke_p	p	n/a
90.4455	0.09	180891	keystroke_o	o	n/a
90.6255	0.1355	181251	keystroke_w	w	n/a
90.806	0.15	181612	keystroke_e	e	n/a
91.001	0.135	182002	keystroke_r	r	n/a
91.256	0.12	182512	keystroke_Key.space	Key.space	n/a
91.826	0.09	183652	keystroke_v	v	n/a
91.991	0.105	183982	keystroke_i	i	n/a
92.216	0.075	184432	keystroke_t	t	n/a
92.456	0.09	184912	keystroke_m	m	n/a
92.9655	0.045	185931	keystroke_Key.backspace	Key.backspace	n/a
93.131	0.105	186262	keystroke_a	a	n/a
93.296	0.105	186592	keystroke_n	n	n/a
93.5505	0.0605	187101	keystroke_i	i	n/a
94.166	0.06	188332	keystroke_Key.backspace	Key.backspace	n/a
94.466	0.075	188932	keystroke_Key.backspace	Key.backspace	n/a
94.976	0.075	189952	keystroke_m	m	n/a
95.1715	0.075	190343	keystroke_i	i	n/a
95.3665	0.075	190733	keystroke_n	n	n/a
95.876	0.075	191752	keystroke_Key.space	Key.space	n/a
96.296	0.075	192592	keystroke_f	f	n/a
96.416	0.0895	192832	keystroke_i	i	n/a
96.6415	0.06	193283	keystroke_l	l	n/a
96.8515	0.09	193703	keystroke_l	l	n/a
97.0165	0.0895	194033	keystroke_Key.space	Key.space	n/a
97.391	0.075	194782	keystroke_n	n	n/a
97.5855	0.075	195171	keystroke_e	e	n/a
97.795	0.105	195590	keystroke_w	w	n/a
98.095	0.09	196190	keystroke_e	e	n/a
98.35	0.075	196700	keystroke_r	r	n/a
98.605	0.1055	197210	keystroke_Key.enter	Key.enter	n/a
98.715	17.4135	197430	prompt	n/a	communicate kitchen polyphonic eddie\n
99.6105	0.15	199221	keystroke_c	c	n/a
99.7455	0.12	199491	keystroke_o	o	n/a
99.9855	0.105	199971	keystroke_m	m	n/a
100.2105	0.075	200421	keystroke_m	m	n/a
100.4955	0.105	200991	keystroke_u	u	n/a
100.75	0.165	201500	keystroke_n	n	n/a
100.9	0.135	201800	keystroke_i	i	n/a
101.5	0.165	203000	keystroke_c	c	n/a
101.635	0.165	203270	keystroke_a	a	n/a
101.875	0.12	203750	keystroke_t	t	n/a
102.04	0.121	204080	keystroke_e	e	n/a
102.7015	0.12	205403	keystroke_Key.space	Key.space	n/a
103.2265	0.105	206453	keystroke_k	k	n/a
103.4515	0.09	206903	keystroke_i	i	n/a
103.691	0.06	207382	keystroke_t	t	n/a
103.931	0.12	207862	keystroke_c	c	n/a
104.096	0.075	208192	keystroke_h	h	n/a
104.276	0.105	208552	keystroke_e	e	n/a
104.546	0.105	209092	keystroke_n	n	n/a
104.906	0.09	209812	keystroke_Key.space	Key.space	n/a
105.8365	0.045	211673	keystroke_o	o	n/a
106.6015	0.105	213203	keystroke_Key.backspace	Key.backspace	n/a
107.8015	0.12	215603	keystroke_p	p	n/a
108.582	0.105	217164	keystroke_o	o	n/a
108.822	0.165	217644	keystroke_l	l	n/a
110.5015	0.105	221003	keystroke_y	y	n/a
112.286	0.105	224572	keystroke_p	p	n/a
112.5115	0.105	225023	keystroke_h	h	n/a
112.7215	0.12	225443	keystroke_o	o	n/a
112.946	0.12	225892	keystroke_n	n	n/a
113.156	0.105	226312	keystroke_i	i	n/a
113.411	0.1645	226822	keystroke_c	c	n/a
114.1465	0.135	228293	keystroke_Key.space	Key.space	n/a
114.762	0.09	229524	keystroke_e	e	n/a
114.957	0.075	229914	keystroke_d	d	n/a
115.152	0.105	230304	keystroke_d	d	n/a
115.362	0.1345	230724	keystroke_i	i	n/a
115.6765	0.105	231353	keystroke_e	e	n/a
116.0065	0.12	232013	keystroke_Key.enter	Key.enter	n/a
116.1315	12.3575	232263	prompt	n/a	jacob placement stem finding\n
116.997	0.105	233994	keystroke_j	j	n/a
117.132	0.135	234264	keystroke_a	a	n/a
117.432	0.12	234864	keystroke_c	c	n/a
117.627	0.15	235254	keystroke_o	o	n/a
120.1785	0.043	240357	keystroke_b	b	n/a
121.6465	0.12	243293	keystroke_Key.space	Key.space	n/a
122.037	0.12	244074	keystroke_p	p	n/a
122.712	0.12	245424	keystroke_l	l	n/a
122.847	0.135	245694	keystroke_a	a	n/a
123.3715	0.1635	246743	keystroke_c	c	n/a
123.55	0.15	247100	keystroke_e	e	n/a
123.82	0.135	247640	keystroke_m	m	n/a
123.985	0.12	247970	keystroke_e	e	n/a
124.12	0.12	248240	keystroke_n	n	n/a
124.27	0.1205	248540	keystroke_t	t	n/a
124.946	0.12	249892	keystroke_Key.space	Key.space	n/a
125.336	0.135	250672	keystroke_s	s	n/a
125.546	0.135	251092	keystroke_t	t	n/a
125.696	0.15	251392	keystroke_e	e	n/a
125.98	0.15	251960	keystroke_m	m	n/a
126.22	0.12	252440	keystroke_Key.space	Key.space	n/a
126.7015	0.12	253403	keystroke_f	f	n/a
126.8515	0.105	253703	keystroke_i	i	n/a
127.0615	0.105	254123	keystroke_n	n	n/a
127.2565	0.135	254513	keystroke_d	d	n/a
127.4065	0.1055	254813	keystroke_i	i	n/a
127.602	0.12	255204	keystroke_n	n	n/a
127.782	0.09	255564	keystroke_g	g	n/a
128.352	0.1355	256704	keystroke_Key.enter	Key.enter	n/a
128.492	10.392	256984	prompt	n/a	races extract triangle collector\n
129.312	0.105	258624	keystroke_r	r	n/a
129.432	0.135	258864	keystroke_a	a	n/a
129.657	0.15	259314	keystroke_c	c	n/a
129.882	0.1055	259764	keystroke_e	e	n/a
130.122	0.12	260244	keystroke_s	s	n/a
130.347	0.105	260694	keystroke_Key.space	Key.space	n/a
130.7675	0.105	261535	keystroke_e	e	n/a
131.1275	0.15	262255	keystroke_x	x	n/a
131.577	0.075	263154	keystroke_t	t	n/a
131.832	0.105	263664	keystroke_r	r	n/a
132.117	0.06	264234	keystroke_a	a	n/a
132.642	0.1205	265284	keystroke_c	c	n/a
132.8825	0.0895	265765	keystroke_t	t	n/a
133.077	0.12	266154	keystroke_Key.space	Key.space	n/a
133.5725	0.09	267145	keystroke_t	t	n/a
133.7975	0.0905	267595	keystroke_r	r	n/a
134.037	0.105	268074	keystroke_i	i	n/a
134.262	0.045	268524	keystroke_c	c	n/a
134.7265	0.0755	269453	keystroke_Key.backspace	Key.backspace	n/a
134.922	0.12	269844	keystroke_a	a	n/a
135.297	0.18	270594	keystroke_n	n	n/a
136.0015	0.075	272003	keystroke_g	g	n/a
136.2265	0.1505	272453	keystroke_l	l	n/a
136.542	0.105	273084	keystroke_e	e	n/a
136.707	0.12	273414	keystroke_Key.space	Key.space	n/a
136.932	0.135	273864	keystroke_c	c	n/a
137.082	0.1055	274164	keystroke_o	o	n/a
137.3075	0.0895	274615	keystroke_l	l	n/a
137.517	0.105	275034	keystroke_l	l	n/a
137.7125	0.105	275425	keystroke_e	e	n/a
137.9665	0.0755	275933	keystroke_c	c	n/a
138.177	0.105	276354	keystroke_t	t	n/a
138.357	0.12	276714	keystroke_o	o	n/a
138.567	0.075	277134	keystroke_r	r	n/a
138.7775	0.1045	277555	keystroke_Key.enter	Key.enter	n/a
138.8875	16.8565	277775	prompt	n/a	made benefit subjects laboratory\n
139.7525	0.1195	279505	keystroke_m	m	n/a
139.917	0.12	279834	keystroke_a	a	n/a
140.157	0.0755	280314	keystroke_d	d	n/a
140.352	0.09	280704	keystroke_e	e	n/a
140.5475	0.09	281095	keystroke_Key.space	Key.space	n/a
140.9225	0.105	281845	keystroke_b	b	n/a
141.0875	0.1205	282175	keystroke_e	e	n/a
141.4925	0.09	282985	keystroke_n	n	n/a
141.822	0.105	283644	keystroke_e	e	n/a
142.1075	0.075	284215	keystroke_f	f	n/a
142.302	0.15	284604	keystroke_i	i	n/a
142.5575	0.075	285115	keystroke_t	t	n/a
142.8425	0.135	285685	keystroke_Key.space	Key.space	n/a
143.3975	0.15	286795	keystroke_s	s	n/a
143.5925	0.135	287185	keystroke_u	u	n/a
143.9525	0.105	287905	keystroke_b	b	n/a
144.3725	0.09	288745	keystroke_j	j	n/a
144.5975	0.105	289195	keystroke_e	e	n/a
144.8675	0.105	289735	keystroke_c	c	n/a
145.1225	0.075	290245	keystroke_t	t	n/a
145.3325	0.105	290665	keystroke_s	s	n/a
145.768	0.1195	291536	keystroke_Key.space	Key.space	n/a
146.1425	0.12	292285	keystroke_l	l	n/a
146.3675	0.12	292735	keystroke_a	a	n/a
146.832	0.09	293664	keystroke_b	b	n/a
147.057	0.12	294114	keystroke_o	o	n/a
147.2965	0.0905	294593	keystroke_r	r	n/a
147.522	0.075	295044	keystroke_t	t	n/a
149.864	0.028	299728	keystroke_Key.backspace	Key.backspace	n/a
150.117	0.0905	300234	keystroke_Key.backspace	Key.backspace	n/a
152.1275	0.09	304255	keystroke_r	r	n/a
152.352	0.1205	304704	keystroke_a	a	n/a
154.0175	0.1055	308035	keystroke_t	t	n/a
154.243	0.119	308486	keystroke_o	o	n/a
155.022	0.09	310044	keystroke_r	r	n/a
155.2325	0.075	310465	keystroke_y	y	n/a
155.637	0.1055	311274	keystroke_Key.enter	Key.enter	n/a
155.747	13.8125	311494	prompt	n/a	postcard friendship costume create\n
156.7025	0.045	313405	keystroke_p	p	n/a
156.838	0.1495	313676	keystroke_o	o	n/a
157.1975	0.1205	314395	keystroke_s	s	n/a
157.4975	0.0905	314995	keystroke_t	t	n/a
158.083	0.15	316166	keystroke_c	c	n/a
158.218	0.1645	316436	keystroke_a	a	n/a
158.4125	0.135	316825	keystroke_r	r	n/a
158.6975	0.12	317395	keystroke_d	d	n/a
159.0125	0.135	318025	keystroke_Key.space	Key.space	n/a
159.5825	0.09	319165	keystroke_f	f	n/a
159.7025	0.1345	319405	keystroke_r	r	n/a
159.912	0.1055	319824	keystroke_i	i	n/a
160.0775	0.12	320155	keystroke_e	e	n/a
160.303	0.1045	320606	keystroke_n	n	n/a
160.4825	0.12	320965	keystroke_d	d	n/a
160.7375	0.105	321475	keystroke_s	s	n/a
160.8875	0.105	321775	keystroke_h	h	n/a
161.038	0.135	322076	keystroke_i	i	n/a
161.263	0.119	322526	keystroke_p	p	n/a
162.7925	0.12	325585	keystroke_Key.space	Key.space	n/a
163.123	0.1495	326246	keystroke_c	c	n/a
163.3025	0.105	326605	keystroke_o	o	n/a
163.7835	0.1195	327567	keystroke_s	s	n/a
164.247	0.0905	328494	keystroke_t	t	n/a
164.7875	0.1355	329575	keystroke_i	i	n/a
165.088	0.1495	330176	keystroke_m	m	n/a
165.2675	0.105	330535	keystroke_e	e	n/a
165.7775	0.0905	331555	keystroke_Key.backspace	Key.backspace	n/a
166.063	0.075	332126	keystroke_Key.backspace	Key.backspace	n/a
166.318	0.0905	332636	keystroke_Key.backspace	Key.backspace	n/a
166.858	0.075	333716	keystroke_u	u	n/a
167.0825	0.09	334165	keystroke_m	m	n/a
167.2475	0.135	334495	keystroke_e	e	n/a
167.623	0.105	335246	keystroke_Key.space	Key.space	n/a
167.923	0.135	335846	keystroke_c	c	n/a
168.1475	0.075	336295	keystroke_r	r	n/a
168.3575	0.15	336715	keystroke_e	e	n/a
168.4625	0.1345	336925	keystroke_a	a	n/a
168.7625	0.075	337525	keystroke_t	t	n/a
169.1225	0.135	338245	keystroke_e	e	n/a
169.468	0.0895	338936	keystroke_Key.enter	Key.enter	n/a
169.562	24.944	339124	prompt	n/a	arrivals beastality terrorist bother\n
170.4135	0.1195	340827	keystroke_a	a	n/a
170.653	0.06	341306	keystroke_r	r	n/a
170.818	0.075	341636	keystroke_r	r	n/a
171.028	0.105	342056	keystroke_i	i	n/a
171.253	0.1355	342506	keystroke_v	v	n/a
171.403	0.1345	342806	keystroke_a	a	n/a
171.688	0.105	343376	keystroke_l	l	n/a
172.0025	0.12	344005	keystroke_s	s	n/a
172.1975	0.105	344395	keystroke_Key.space	Key.space	n/a
172.843	0.0905	345686	keystroke_b	b	n/a
173.113	0.1505	346226	keystroke_e	e	n/a
173.3235	0.134	346647	keystroke_a	a	n/a
173.593	0.135	347186	keystroke_s	s	n/a
173.863	0.1045	347726	keystroke_t	t	n/a
175.243	0.105	350486	keystroke_a	a	n/a
175.4075	0.1355	350815	keystroke_l	l	n/a
175.618	0.09	351236	keystroke_i	i	n/a
175.873	0.0895	351746	keystroke_t	t	n/a
176.0825	0.09	352165	keystroke_y	y	n/a
177.493	0.105	354986	keystroke_Key.space	Key.space	n/a
177.988	0.09	355976	keystroke_t	t	n/a
190.276	0.043	380552	keystroke_e	e	n/a
190.4695	0.06	380939	keystroke_r	r	n/a
190.6345	0.09	381269	keystroke_r	r	n/a
190.874	0.09	381748	keystroke_o	o	n/a
191.8345	0.075	383669	keystroke_r	r	n/a
192.0295	0.09	384059	keystroke_i	i	n/a
192.224	0.1355	384448	keystroke_s	s	n/a
192.4045	0.105	384809	keystroke_t	t	n/a
192.839	0.1355	385678	keystroke_Key.space	Key.space	n/a
193.2145	0.0595	386429	keystroke_b	b	n/a
193.379	0.09	386758	keystroke_o	o	n/a
193.5895	0.09	387179	keystroke_t	t	n/a
193.844	0.09	387688	keystroke_h	h	n/a
194.0095	0.1945	388019	keystroke_e	e	n/a
194.1295	0.1345	388259	keystroke_r	r	n/a
194.4295	0.075	388859	keystroke_Key.enter	Key.enter	n/a
194.5085	11.232	389017	prompt	n/a	beyond traveler edmonton quilt\n
195.5245	0.0895	391049	keystroke_b	b	n/a
195.659	0.1355	391318	keystroke_e	e	n/a
195.9595	0.105	391919	keystroke_y	y	n/a
196.169	0.12	392338	keystroke_o	o	n/a
196.8595	0.09	393719	keystroke_n	n	n/a
196.9945	0.1345	393989	keystroke_d	d	n/a
197.324	0.12	394648	keystroke_Key.space	Key.space	n/a
197.8635	0.1205	395727	keystroke_t	t	n/a
198.014	0.1495	396028	keystroke_r	r	n/a
198.1485	0.1055	396297	keystroke_a	a	n/a
198.554	0.0895	397108	keystroke_v	v	n/a
198.8085	0.105	397617	keystroke_e	e	n/a
199.2135	0.1205	398427	keystroke_l	l	n/a
199.529	0.1045	399058	keystroke_e	e	n/a
199.7535	0.105	399507	keystroke_r	r	n/a
200.1425	0.1055	400285	keystroke_Key.space	Key.space	n/a
200.518	0.0905	401036	keystroke_e	e	n/a
200.7435	0.105	401487	keystroke_d	d	n/a
201.1635	0.121	402327	keystroke_m	m	n/a
201.3585	0.1205	402717	keystroke_o	o	n/a
201.614	0.0745	403228	keystroke_n	n	n/a
202.064	0.1045	404128	keystroke_t	t	n/a
202.2135	0.121	404427	keystroke_o	o	n/a
202.4535	0.075	404907	keystroke_n	n	n/a
202.708	0.0905	405416	keystroke_Key.space	Key.space	n/a
203.474	0.135	406948	keystroke_q	q	n/a
203.714	0.105	407428	keystroke_u	u	n/a
204.239	0.075	408478	keystroke_i	i	n/a
204.434	0.1195	408868	keystroke_l	l	n/a
204.719	0.06	409438	keystroke_y	y	n/a
205.1535	0.09	410307	keystroke_Key.backspace	Key.backspace	n/a
205.3785	0.09	410757	keystroke_t	t	n/a
205.6335	0.105	411267	keystroke_Key.enter	Key.enter	n/a
205.745	15.6115	411490	prompt	n/a	scoring can't composition interactive\n
206.9985	0.1055	413997	keystroke_s	s	n/a
207.135	0.164	414270	keystroke_c	c	n/a
207.419	0.105	414838	keystroke_o	o	n/a
207.629	0.105	415258	keystroke_r	r	n/a
207.824	0.105	415648	keystroke_i	i	n/a
208.0345	0.089	416069	keystroke_n	n	n/a
208.199	0.105	416398	keystroke_g	g	n/a
208.379	0.1195	416758	keystroke_Key.space	Key.space	n/a
208.619	0.196	417238	keystroke_c	c	n/a
208.769	0.1495	417538	keystroke_a	a	n/a
209.279	0.0745	418558	keystroke_n	n	n/a
209.774	0.1355	419548	keystroke_'	'	n/a
209.9385	0.1355	419877	keystroke_t	t	n/a
210.4635	0.12	420927	keystroke_Key.space	Key.space	n/a
211.319	0.12	422638	keystroke_c	c	n/a
211.469	0.12	422938	keystroke_o	o	n/a
211.769	0.1055	423538	keystroke_m	m	n/a
211.964	0.105	423928	keystroke_p	p	n/a
212.219	0.105	424438	keystroke_o	o	n/a
212.924	0.121	425848	keystroke_s	s	n/a
213.104	0.1205	426208	keystroke_i	i	n/a
213.3595	0.1195	426719	keystroke_s	s	n/a
213.7495	0.12	427499	keystroke_t	t	n/a
213.989	0.1655	427978	keystroke_i	i	n/a
214.3045	0.12	428609	keystroke_o	o	n/a
214.5295	0.09	429059	keystroke_n	n	n/a
214.8595	0.1055	429719	keystroke_Key.space	Key.space	n/a
215.7	0.06	431400	keystroke_Key.backspace	Key.backspace	n/a
215.895	0.0595	431790	keystroke_Key.backspace	Key.backspace	n/a
216.0745	0.06	432149	keystroke_Key.backspace	Key.backspace	n/a
216.27	0.06	432540	keystroke_Key.backspace	Key.backspace	n/a
216.4495	0.075	432899	keystroke_Key.backspace	Key.backspace	n/a
216.6295	0.105	433259	keystroke_Key.backspace	Key.backspace	n/a
217.5145	0.105	435029	keystroke_t	t	n/a
217.89	0.1495	435780	keystroke_i	i	n/a
218.1595	0.075	436319	keystroke_o	o	n/a
218.3545	0.075	436709	keystroke_n	n	n/a
218.6245	0.09	437249	keystroke_Key.space	Key.space	n/a
219.09	0.105	438180	keystroke_i	i	n/a
219.27	0.0895	438540	keystroke_n	n	n/a
219.4495	0.12	438899	keystroke_t	t	n/a
219.6295	0.1805	439259	keystroke_e	e	n/a
219.7645	0.105	439529	keystroke_r	r	n/a
219.945	0.1495	439890	keystroke_a	a	n/a
220.2745	0.12	440549	keystroke_c	c	n/a
220.5145	0.075	441029	keystroke_t	t	n/a
220.68	0.135	441360	keystroke_i	i	n/a
220.8895	0.12	441779	keystroke_v	v	n/a
221.0845	0.075	442169	keystroke_e	e	n/a
221.2795	0.075	442559	keystroke_Key.enter	Key.enter	n/a
221.3605	14.261	442721	prompt	n/a	bookmark ecological cricket arrest\n
222.3445	0.075	444689	keystroke_b	b	n/a
222.5395	0.0755	445079	keystroke_o	o	n/a
222.75	0.075	445500	keystroke_o	o	n/a
222.9745	0.06	445949	keystroke_k	k	n/a
223.6045	0.09	447209	keystroke_m	m	n/a
223.785	0.1345	447570	keystroke_a	a	n/a
224.3545	0.075	448709	keystroke_r	r	n/a
224.55	0.15	449100	keystroke_k	k	n/a
224.8645	0.105	449729	keystroke_Key.space	Key.space	n/a
225.24	0.0895	450480	keystroke_e	e	n/a
225.675	0.1045	451350	keystroke_c	c	n/a
225.9295	0.12	451859	keystroke_o	o	n/a
226.245	0.2095	452490	keystroke_l	l	n/a
226.5295	0.1205	453059	keystroke_o	o	n/a
227.01	0.09	454020	keystroke_g	g	n/a
227.16	0.105	454320	keystroke_i	i	n/a
227.67	0.1645	455340	keystroke_c	c	n/a
227.7895	0.15	455579	keystroke_a	a	n/a
228	0.15	456000	keystroke_l	l	n/a
228.195	0.1045	456390	keystroke_Key.space	Key.space	n/a
228.5395	0.105	457079	keystroke_c	c	n/a
228.72	0.1045	457440	keystroke_r	r	n/a
228.8845	0.12	457769	keystroke_i	i	n/a
229.1245	0.1495	458249	keystroke_c	c	n/a
229.289	0.1055	458578	keystroke_k	k	n/a
229.4695	0.12	458939	keystroke_e	e	n/a
229.6945	0.0745	459389	keystroke_t	t	n/a
230.5795	0.12	461159	keystroke_Key.space	Key.space	n/a
230.7895	0.15	461579	keystroke_a	a	n/a
231.0745	0.0455	462149	keystroke_t	t	n/a
231.2545	0.06	462509	keystroke_r	r	n/a
231.8695	0.06	463739	keystroke_Key.backspace	Key.backspace	n/a
232.095	0.09	464190	keystroke_Key.backspace	Key.backspace	n/a
232.3495	0.0905	464699	keystroke_r	r	n/a
232.575	0.075	465150	keystroke_r	r	n/a
232.77	0.09	465540	keystroke_e	e	n/a
233.055	0.134	466110	keystroke_s	s	n/a
233.295	0.06	466590	keystroke_r	r	n/a
233.325	0.045	466650	keystroke_t	t	n/a
234.948	0.024	469896	keystroke_Key.backspace	Key.backspace	n/a
235.1515	0.023	470303	keystroke_Key.backspace	Key.backspace	n/a
235.335	0.0895	470670	keystroke_t	t	n/a
235.5755	0.044	471151	keystroke_Key.enter	Key.enter	n/a
235.6245	13.272	471249	prompt	n/a	quantities pavilion feature quarterly\n
237.0755	0.1045	474151	keystroke_q	q	n/a
237.359	0.136	474718	keystroke_u	u	n/a
237.6155	0.119	475231	keystroke_a	a	n/a
237.84	0.119	475680	keystroke_n	n	n/a
238.035	0.12	476070	keystroke_t	t	n/a
238.185	0.105	476370	keystroke_i	i	n/a
238.485	0.014	476970	keystroke_t	t	n/a
238.5305	0.12	477061	keystroke_i	i	n/a
238.7555	0.105	477511	keystroke_e	e	n/a
238.9505	0.12	477901	keystroke_s	s	n/a
239.5345	0.106	479069	keystroke_Key.space	Key.space	n/a
239.7455	0.105	479491	keystroke_p	p	n/a
239.9105	0.12	479821	keystroke_a	a	n/a
240.2705	0.104	480541	keystroke_v	v	n/a
240.4505	0.105	480901	keystroke_i	i	n/a
240.6755	0.1055	481351	keystroke_l	l	n/a
240.8995	0.076	481799	keystroke_i	i	n/a
241.1105	0.09	482221	keystroke_o	o	n/a
241.3505	0.09	482701	keystroke_n	n	n/a
242.0255	0.06	484051	keystroke_Key.space	Key.space	n/a
242.326	0.1045	484652	keystroke_f	f	n/a
242.4755	0.1505	484951	keystroke_e	e	n/a
242.596	0.15	485192	keystroke_a	a	n/a
242.9105	0.06	485821	keystroke_t	t	n/a
243.1205	0.09	486241	keystroke_u	u	n/a
243.2705	0.1045	486541	keystroke_r	r	n/a
243.4805	0.105	486961	keystroke_e	e	n/a
243.7505	0.105	487501	keystroke_Key.space	Key.space	n/a
244.7855	0.1195	489571	keystroke_q	q	n/a
245.0845	0.151	490169	keystroke_u	u	n/a
245.5955	0.12	491191	keystroke_a	a	n/a
245.865	0.1505	491730	keystroke_t	t	n/a
246.5705	0.075	493141	keystroke_Key.backspace	Key.backspace	n/a
246.8405	0.075	493681	keystroke_r	r	n/a
247.276	0.104	494552	keystroke_t	t	n/a
247.545	0.1055	495090	keystroke_e	e	n/a
247.8305	0.105	495661	keystroke_r	r	n/a
248.0555	0.135	496111	keystroke_l	l	n/a
248.3255	0.105	496651	keystroke_y	y	n/a
248.8205	0.075	497641	keystroke_Key.enter	Key.enter	n/a
248.8995	9.8075	497799	prompt	n/a	batman genetic comic placement\n
250.096	0.0755	500192	keystroke_b	b	n/a
250.2315	0.134	500463	keystroke_a	a	n/a
250.531	0.075	501062	keystroke_t	t	n/a
250.8005	0.105	501601	keystroke_m	m	n/a
250.9205	0.135	501841	keystroke_a	a	n/a
251.0705	0.09	502141	keystroke_n	n	n/a
251.3105	0.105	502621	keystroke_Key.space	Key.space	n/a
251.8055	0.0445	503611	keystroke_g	g	n/a
251.865	0.105	503730	keystroke_e	e	n/a
252.0605	0.09	504121	keystroke_n	n	n/a
252.2255	0.105	504451	keystroke_e	e	n/a
252.7205	0.105	505441	keystroke_t	t	n/a
252.8705	0.12	505741	keystroke_i	i	n/a
253.0655	0.135	506131	keystroke_c	c	n/a
253.5905	0.1055	507181	keystroke_Key.space	Key.space	n/a
253.8605	0.135	507721	keystroke_c	c	n/a
253.9805	0.105	507961	keystroke_o	o	n/a
254.221	0.1195	508442	keystroke_m	m	n/a
254.6555	0.09	509311	keystroke_n	n	n/a
255.1505	0.075	510301	keystroke_Key.backspace	Key.backspace	n/a
255.4805	0.09	510961	keystroke_i	i	n/a
255.6755	0.12	511351	keystroke_c	c	n/a
256.1705	0.1055	512341	keystroke_Key.space	Key.space	n/a
256.3655	0.105	512731	keystroke_p	p	n/a
256.6205	0.12	513241	keystroke_l	l	n/a
256.7555	0.15	513511	keystroke_a	a	n/a
257.101	0.135	514202	keystroke_c	c	n/a
257.296	0.12	514592	keystroke_e	e	n/a
257.8055	0.105	515611	keystroke_m	m	n/a
257.9555	0.1205	515911	keystroke_e	e	n/a
258.211	0.1045	516422	keystroke_n	n	n/a
258.4055	0.12	516811	keystroke_t	t	n/a
258.6005	0.1055	517201	keystroke_Key.enter	Key.enter	n/a
258.7095	13.228	517419	prompt	n/a	journalists visitor backup switching\n
259.951	0.075	519902	keystroke_j	j	n/a
260.131	0.105	520262	keystroke_o	o	n/a
260.3405	0.075	520681	keystroke_u	u	n/a
261.3905	0.0755	522781	keystroke_r	r	n/a
261.646	0.105	523292	keystroke_n	n	n/a
261.8105	0.135	523621	keystroke_a	a	n/a
262.0055	0.1055	524011	keystroke_l	l	n/a
262.201	0.1045	524402	keystroke_i	i	n/a
262.3655	0.15	524731	keystroke_s	s	n/a
262.576	0.12	525152	keystroke_t	t	n/a
262.8155	0.1355	525631	keystroke_s	s	n/a
263.3555	0.1355	526711	keystroke_Key.space	Key.space	n/a
263.9705	0.045	527941	keystroke_v	v	n/a
264.0305	0.105	528061	keystroke_i	i	n/a
264.241	0.1195	528482	keystroke_s	s	n/a
264.4055	0.09	528811	keystroke_i	i	n/a
265.141	0.1045	530282	keystroke_t	t	n/a
265.3055	0.1205	530611	keystroke_o	o	n/a
265.516	0.09	531032	keystroke_r	r	n/a
266.0705	0.1355	532141	keystroke_Key.space	Key.space	n/a
266.356	0.09	532712	keystroke_b	b	n/a
266.491	0.135	532982	keystroke_a	a	n/a
266.731	0.105	533462	keystroke_c	c	n/a
266.881	0.135	533762	keystroke_k	k	n/a
267.481	0.1205	534962	keystroke_u	u	n/a
267.6615	0.104	535323	keystroke_p	p	n/a
267.931	0.09	535862	keystroke_Key.space	Key.space	n/a
268.4105	0.075	536821	keystroke_s	s	n/a
268.6205	0.105	537241	keystroke_w	w	n/a
268.9055	0.1055	537811	keystroke_i	i	n/a
269.221	0.06	538442	keystroke_t	t	n/a
270.376	0.15	540752	keystroke_c	c	n/a
270.601	0.1195	541202	keystroke_h	h	n/a
270.976	0.105	541952	keystroke_i	i	n/a
271.186	0.09	542372	keystroke_n	n	n/a
271.426	0.105	542852	keystroke_g	g	n/a
271.891	0.0455	543782	keystroke_Key.enter	Key.enter	n/a
271.941	14.4115	543882	prompt	n/a	switching subscriber voyeurweb beach\n
273.0455	0.015	546091	keystroke_s	s	n/a
273.166	0.135	546332	keystroke_w	w	n/a
273.421	0.15	546842	keystroke_i	i	n/a
273.616	0.09	547232	keystroke_t	t	n/a
273.901	0.1195	547802	keystroke_c	c	n/a
274.0805	0.105	548161	keystroke_h	h	n/a
274.306	0.12	548612	keystroke_i	i	n/a
274.5605	0.12	549121	keystroke_n	n	n/a
274.741	0.12	549482	keystroke_g	g	n/a
274.951	0.1045	549902	keystroke_Key.space	Key.space	n/a
275.7155	0.135	551431	keystroke_s	s	n/a
275.9705	0.12	551941	keystroke_u	u	n/a
276.361	0.09	552722	keystroke_b	b	n/a
277.051	0.0745	554102	keystroke_s	s	n/a
277.156	0.135	554312	keystroke_c	c	n/a
277.411	0.09	554822	keystroke_r	r	n/a
277.6355	0.1205	555271	keystroke_i	i	n/a
277.891	0.09	555782	keystroke_b	b	n/a
278.0855	0.1355	556171	keystroke_e	e	n/a
278.1755	0.1355	556351	keystroke_r	r	n/a
278.6705	0.12	557341	keystroke_Key.space	Key.space	n/a
279.421	0.1055	558842	keystroke_v	v	n/a
279.6155	0.1205	559231	keystroke_o	o	n/a
280.981	0.0905	561962	keystroke_y	y	n/a
281.416	0.1355	562832	keystroke_e	e	n/a
281.821	0.105	563642	keystroke_u	u	n/a
283.396	0.09	566792	keystroke_r	r	n/a
283.726	0.18	567452	keystroke_w	w	n/a
283.876	0.135	567752	keystroke_e	e	n/a
284.221	0.105	568442	keystroke_b	b	n/a
284.881	0.1205	569762	keystroke_Key.space	Key.space	n/a
285.151	0.09	570302	keystroke_b	b	n/a
285.271	0.135	570542	keystroke_e	e	n/a
285.346	0.1505	570692	keystroke_a	a	n/a
285.6005	0.1205	571201	keystroke_c	c	n/a
285.811	0.09	571622	keystroke_h	h	n/a
286.261	0.09	572522	keystroke_Key.enter	Key.enter	n/a
286.3555	10.7675	572711	prompt	n/a	establishment resident evolution gods\n
287.4315	0.1345	574863	keystroke_e	e	n/a
287.626	0.165	575252	keystroke_s	s	n/a
288.316	0.12	576632	keystroke_t	t	n/a
288.511	0.105	577022	keystroke_a	a	n/a
288.9455	0.0905	577891	keystroke_b	b	n/a
289.261	0.12	578522	keystroke_l	l	n/a
289.4705	0.09	578941	keystroke_i	i	n/a
289.666	0.12	579332	keystroke_s	s	n/a
289.846	0.1195	579692	keystroke_h	h	n/a
290.236	0.12	580472	keystroke_m	m	n/a
290.386	0.1195	580772	keystroke_e	e	n/a
290.5355	0.12	581071	keystroke_n	n	n/a
290.7305	0.1205	581461	keystroke_t	t	n/a
290.971	0.105	581942	keystroke_Key.space	Key.space	n/a
291.406	0.12	582812	keystroke_r	r	n/a
291.616	0.135	583232	keystroke_e	e	n/a
291.856	0.105	583712	keystroke_s	s	n/a
292.066	0.105	584132	keystroke_i	i	n/a
292.381	0.09	584762	keystroke_d	d	n/a
292.591	0.12	585182	keystroke_e	e	n/a
292.756	0.105	585512	keystroke_n	n	n/a
292.951	0.09	585902	keystroke_t	t	n/a
293.401	0.105	586802	keystroke_Key.space	Key.space	n/a
293.581	0.12	587162	keystroke_e	e	n/a
293.881	0.09	587762	keystroke_v	v	n/a
294.076	0.135	588152	keystroke_o	o	n/a
294.4215	0.1195	588843	keystroke_l	l	n/a
294.736	0.09	589472	keystroke_u	u	n/a
294.961	0.09	589922	keystroke_t	t	n/a
295.186	0.0905	590372	keystroke_i	i	n/a
295.3965	0.0895	590793	keystroke_o	o	n/a
295.621	0.075	591242	keystroke_n	n	n/a
295.8315	0.1045	591663	keystroke_Key.space	Key.space	n/a
296.2815	0.09	592563	keystroke_g	g	n/a
296.476	0.12	592952	keystroke_o	o	n/a
296.6565	0.165	593313	keystroke_d	d	n/a
296.8065	0.1345	593613	keystroke_s	s	n/a
297.0165	0.105	594033	keystroke_Key.enter	Key.enter	n/a
297.126	16.182	594252	prompt	n/a	flight handbook providence wikipedia\n
298.3365	0.0745	596673	keystroke_f	f	n/a
298.486	0.12	596972	keystroke_l	l	n/a
298.6815	0.09	597363	keystroke_i	i	n/a
298.8315	0.0745	597663	keystroke_g	g	n/a
299.026	0.0755	598052	keystroke_h	h	n/a
299.1465	0.09	598293	keystroke_t	t	n/a
299.341	0.075	598682	keystroke_Key.space	Key.space	n/a
299.5515	0.076	599103	keystroke_h	h	n/a
299.7015	0.105	599403	keystroke_a	a	n/a
300.061	0.0905	600122	keystroke_n	n	n/a
300.331	0.105	600662	keystroke_d	d	n/a
300.676	0.0755	601352	keystroke_b	b	n/a
300.886	0.06	601772	keystroke_o	o	n/a
301.0515	0.075	602103	keystroke_o	o	n/a
301.261	0.09	602522	keystroke_k	k	n/a
301.456	0.105	602912	keystroke_Key.space	Key.space	n/a
301.996	0.12	603992	keystroke_p	p	n/a
302.161	0.09	604322	keystroke_r	r	n/a
302.401	0.105	604802	keystroke_o	o	n/a
302.716	0.09	605432	keystroke_v	v	n/a
302.911	0.105	605822	keystroke_i	i	n/a
303.1965	0.0895	606393	keystroke_d	d	n/a
303.391	0.09	606782	keystroke_e	e	n/a
303.526	0.1055	607052	keystroke_n	n	n/a
303.766	0.18	607532	keystroke_c	c	n/a
304.096	0.06	608192	keystroke_e	e	n/a
304.306	0.075	608612	keystroke_Key.space	Key.space	n/a
305.1615	0.105	610323	keystroke_w	w	n/a
305.3115	0.135	610623	keystroke_i	i	n/a
306.3765	0.105	612753	keystroke_k	k	n/a
306.6165	0.09	613233	keystroke_i	i	n/a
307.1265	0.09	614253	keystroke_p	p	n/a
307.291	0.1055	614582	keystroke_e	e	n/a
307.6065	0.12	615213	keystroke_d	d	n/a
307.816	0.135	615632	keystroke_i	i	n/a
309.7515	0.12	619503	keystroke_a	a	n/a
310.0065	0.12	620013	keystroke_Key.space	Key.space	n/a
313.2785	0.028	626557	keystroke_Key.enter	Key.enter	n/a
313.311	15.278	626622	prompt	n/a	portion visibility dozens sympathy\n
314.9865	0.09	629973	keystroke_p	p	n/a
315.167	0.1065	630334	keystroke_o	o	n/a
315.364	0.1215	630728	keystroke_r	r	n/a
315.5915	0.0895	631183	keystroke_t	t	n/a
315.772	0.106	631544	keystroke_i	i	n/a
315.984	0.0605	631968	keystroke_o	o	n/a
316.1505	0.09	632301	keystroke_n	n	n/a
316.392	0.0755	632784	keystroke_Key.space	Key.space	n/a
317.1475	0.09	634295	keystroke_v	v	n/a
317.283	0.1215	634566	keystroke_i	i	n/a
317.4495	0.121	634899	keystroke_s	s	n/a
317.6615	0.09	635323	keystroke_i	i	n/a
318.13	0.09	636260	keystroke_b	b	n/a
318.341	0.106	636682	keystroke_i	i	n/a
318.644	0.12	637288	keystroke_l	l	n/a
318.87	0.091	637740	keystroke_i	i	n/a
319.2025	0.0755	638405	keystroke_t	t	n/a
320.124	0.076	640248	keystroke_y	y	n/a
320.895	0.106	641790	keystroke_Key.space	Key.space	n/a
321.4395	0.0755	642879	keystroke_d	d	n/a
321.59	0.106	643180	keystroke_o	o	n/a
322.7235	0.121	645447	keystroke_Key.shift	Key.shift	n/a
322.981	0.1205	645962	keystroke_w	w	n/a
323.6305	0.0905	647261	keystroke_Key.backspace	Key.backspace	n/a
324.3255	0.106	648651	keystroke_z	z	n/a
325.172	0.121	650344	keystroke_e	e	n/a
325.338	0.136	650676	keystroke_n	n	n/a
325.61	0.121	651220	keystroke_s	s	n/a
326.275	0.121	652550	keystroke_Key.space	Key.space	n/a
326.547	0.121	653094	keystroke_s	s	n/a
326.774	0.136	653548	keystroke_y	y	n/a
327.091	0.136	654182	keystroke_m	m	n/a
327.333	0.0905	654666	keystroke_p	p	n/a
327.5145	0.136	655029	keystroke_a	a	n/a
327.862	0.1055	655724	keystroke_t	t	n/a
327.998	0.1055	655996	keystroke_h	h	n/a
328.2095	0.0905	656419	keystroke_y	y	n/a
328.4965	0.0905	656993	keystroke_Key.enter	Key.enter	n/a
328.592	12.0545	657184	prompt	n/a	wrong including tactics mexico\n
329.3125	0.136	658625	keystroke_w	w	n/a
329.509	0.121	659018	keystroke_r	r	n/a
329.675	0.106	659350	keystroke_o	o	n/a
329.8865	0.121	659773	keystroke_n	n	n/a
330.053	0.106	660106	keystroke_g	g	n/a
330.582	0.1055	661164	keystroke_Key.space	Key.space	n/a
330.8235	0.106	661647	keystroke_i	i	n/a
331.0355	0.0905	662071	keystroke_n	n	n/a
331.2465	0.1215	662493	keystroke_c	c	n/a
331.428	0.151	662856	keystroke_l	l	n/a
331.685	0.121	663370	keystroke_u	u	n/a
331.8665	0.151	663733	keystroke_d	d	n/a
332.063	0.1055	664126	keystroke_i	i	n/a
332.274	0.1065	664548	keystroke_n	n	n/a
332.456	0.1205	664912	keystroke_g	g	n/a
332.6825	0.1055	665365	keystroke_Key.space	Key.space	n/a
333.468	0.121	666936	keystroke_t	t	n/a
333.59	0.135	667180	keystroke_a	a	n/a
333.846	0.136	667692	keystroke_c	c	n/a
334.1025	0.0905	668205	keystroke_t	t	n/a
334.2685	0.0915	668537	keystroke_i	i	n/a
334.526	0.1055	669052	keystroke_c	c	n/a
334.979	0.0905	669958	keystroke_t	t	n/a
335.281	0.091	670562	keystroke_s	s	n/a
336.732	0.0605	673464	keystroke_Key.backspace	Key.backspace	n/a
337.291	0.0755	674582	keystroke_Key.backspace	Key.backspace	n/a
337.427	0.1055	674854	keystroke_s	s	n/a
337.9705	0.0905	675941	keystroke_Key.space	Key.space	n/a
338.635	0.0765	677270	keystroke_m	m	n/a
338.7565	0.0905	677513	keystroke_e	e	n/a
339.376	0.1205	678752	keystroke_x	x	n/a
339.6785	0.1355	679357	keystroke_i	i	n/a
339.98	0.1355	679960	keystroke_c	c	n/a
340.252	0.121	680504	keystroke_o	o	n/a
340.539	0.1055	681078	keystroke_Key.enter	Key.enter	n/a
340.6495	6.3865	681299	prompt	n/a	launch never press bras\n
341.4455	0.1055	682891	keystroke_l	l	n/a
341.596	0.137	683192	keystroke_a	a	n/a
341.8235	0.0905	683647	keystroke_u	u	n/a
342.0645	0.0905	684129	keystroke_n	n	n/a
342.2465	0.1505	684493	keystroke_c	c	n/a
342.4275	0.0905	684855	keystroke_h	h	n/a
342.6695	0.0905	685339	keystroke_Key.space	Key.space	n/a
343.092	0.0905	686184	keystroke_n	n	n/a
343.2285	0.0905	686457	keystroke_e	e	n/a
343.4395	0.0905	686879	keystroke_v	v	n/a
343.6505	0.1215	687301	keystroke_e	e	n/a
343.727	0.1355	687454	keystroke_r	r	n/a
344.0435	0.1055	688087	keystroke_Key.space	Key.space	n/a
344.376	0.121	688752	keystroke_p	p	n/a
344.557	0.0905	689114	keystroke_r	r	n/a
344.709	0.1205	689418	keystroke_e	e	n/a
344.95	0.0755	689900	keystroke_s	s	n/a
345.131	0.1065	690262	keystroke_s	s	n/a
345.328	0.1055	690656	keystroke_Key.space	Key.space	n/a
345.736	0.0905	691472	keystroke_b	b	n/a
345.9165	0.211	691833	keystroke_r	r	n/a
346.189	0.1055	692378	keystroke_a	a	n/a
346.415	0.0605	692830	keystroke_s	s	n/a
346.974	0.06	693948	keystroke_Key.enter	Key.enter	n/a
347.0405	11.3665	694081	prompt	n/a	translator commissions handbook payable\n
348.228	0.1505	696456	keystroke_t	t	n/a
348.3635	0.181	696727	keystroke_r	r	n/a
348.529	0.122	697058	keystroke_a	a	n/a
348.7265	0.1055	697453	keystroke_n	n	n/a
348.892	0.0905	697784	keystroke_s	s	n/a
349.118	0.137	698236	keystroke_l	l	n/a
349.27	0.1355	698540	keystroke_a	a	n/a
349.738	0.0905	699476	keystroke_t	t	n/a
349.889	0.1205	699778	keystroke_o	o	n/a
350.0855	0.0905	700171	keystroke_r	r	n/a
350.523	0.091	701046	keystroke_Key.space	Key.space	n/a
350.8705	0.1205	701741	keystroke_c	c	n/a
350.976	0.1205	701952	keystroke_o	o	n/a
351.233	0.0605	702466	keystroke_m	m	n/a
352.3355	0.0755	704671	keystroke_m	m	n/a
352.501	0.1055	705002	keystroke_i	i	n/a
352.698	0.0755	705396	keystroke_s	s	n/a
352.909	0.0905	705818	keystroke_s	s	n/a
353.0745	0.091	706149	keystroke_i	i	n/a
353.302	0.06	706604	keystroke_o	o	n/a
353.4825	0.0755	706965	keystroke_n	n	n/a
353.936	0.1205	707872	keystroke_s	s	n/a
354.177	0.0915	708354	keystroke_Key.space	Key.space	n/a
354.5545	0.1055	709109	keystroke_h	h	n/a
354.7055	0.1515	709411	keystroke_a	a	n/a
354.9025	0.1055	709805	keystroke_n	n	n/a
355.083	0.1055	710166	keystroke_d	d	n/a
355.295	0.0755	710590	keystroke_b	b	n/a
355.506	0.0755	711012	keystroke_o	o	n/a
355.702	0.0915	711404	keystroke_o	o	n/a
355.899	0.09	711798	keystroke_k	k	n/a
356.155	0.075	712310	keystroke_Key.space	Key.space	n/a
356.638	0.1075	713276	keystroke_p	p	n/a
356.805	0.1355	713610	keystroke_a	a	n/a
357.151	0.0905	714302	keystroke_y	y	n/a
357.303	0.1355	714606	keystroke_a	a	n/a
357.7095	0.092	715419	keystroke_b	b	n/a
357.8915	0.1205	715783	keystroke_l	l	n/a
358.0425	0.105	716085	keystroke_e	e	n/a
358.3145	0.0905	716629	keystroke_Key.enter	Key.enter	n/a
358.41	19.9525	716820	prompt	n/a	rebel cholesterol shelter pets\n
359.5065	0.1055	719013	keystroke_r	r	n/a
359.582	0.1505	719164	keystroke_e	e	n/a
359.9295	0.09	719859	keystroke_b	b	n/a
360.095	0.1505	720190	keystroke_l	l	n/a
360.835	0.1365	721670	keystroke_e	e	n/a
361.0005	0.1205	722001	keystroke_Key.space	Key.space	n/a
361.6495	0.0915	723299	keystroke_c	c	n/a
361.771	0.0905	723542	keystroke_h	h	n/a
361.9665	0.1205	723933	keystroke_o	o	n/a
362.857	0.0755	725714	keystroke_l	l	n/a
363.038	0.121	726076	keystroke_e	e	n/a
363.266	0.1345	726532	keystroke_s	s	n/a
363.5365	0.0895	727073	keystroke_t	t	n/a
364.845	0.1355	729690	keystroke_r	r	n/a
367.44	0.0125	734880	keystroke_Key.backspace	Key.backspace	n/a
368.3065	0.1655	736613	keystroke_e	e	n/a
368.456	0.0915	736912	keystroke_r	r	n/a
368.666	0.1195	737332	keystroke_o	o	n/a
369.7155	0.0595	739431	keystroke_;	;	n/a
370.575	0.023	741150	keystroke_Key.backspace	Key.backspace	n/a
370.929	0.0765	741858	keystroke_l	l	n/a
371.1835	0.0755	742367	keystroke_Key.space	Key.space	n/a
373.3315	0.026	746663	keystroke_Key.backspace	Key.backspace	n/a
373.582	0.0765	747164	keystroke_Key.backspace	Key.backspace	n/a
374.181	0.0745	748362	keystroke_o	o	n/a
374.3755	0.0755	748751	keystroke_l	l	n/a
374.526	0.0895	749052	keystroke_Key.space	Key.space	n/a
375.4245	0.135	750849	keystroke_s	s	n/a
375.5445	0.104	751089	keystroke_h	h	n/a
375.7085	0.1215	751417	keystroke_e	e	n/a
375.86	0.104	751720	keystroke_l	l	n/a
376.369	0.09	752738	keystroke_t	t	n/a
376.58	0.1785	753160	keystroke_e	e	n/a
376.7125	0.12	753425	keystroke_r	r	n/a
376.908	0.121	753816	keystroke_Key.space	Key.space	n/a
377.433	0.0755	754866	keystroke_p	p	n/a
377.5225	0.1945	755045	keystroke_e	e	n/a
377.702	0.1805	755404	keystroke_t	t	n/a
378.0175	0.1335	756035	keystroke_s	s	n/a
378.3	0.0605	756600	keystroke_Key.enter	Key.enter	n/a
378.3655	8.0135	756731	prompt	n/a	how're speaks about auto\n
379.3205	0.075	758641	keystroke_h	h	n/a
379.486	0.0885	758972	keystroke_o	o	n/a
379.8905	0.105	759781	keystroke_w	w	n/a
380.6385	0.105	761277	keystroke_'	'	n/a
380.7885	0.1795	761577	keystroke_r	r	n/a
380.983	0.119	761966	keystroke_e	e	n/a
381.3875	0.133	762775	keystroke_Key.space	Key.space	n/a
381.762	0.1195	763524	keystroke_s	s	n/a
381.9125	0.119	763825	keystroke_p	p	n/a
382.0765	0.15	764153	keystroke_e	e	n/a
382.2115	0.1505	764423	keystroke_a	a	n/a
382.437	0.119	764874	keystroke_k	k	n/a
382.9465	0.1035	765893	keystroke_s	s	n/a
383.2155	0.12	766431	keystroke_Key.space	Key.space	n/a
383.8155	0.12	767631	keystroke_a	a	n/a
383.9655	0.0885	767931	keystroke_b	b	n/a
384.174	0.1045	768348	keystroke_o	o	n/a
384.3395	0.09	768679	keystroke_u	u	n/a
384.5485	0.105	769097	keystroke_t	t	n/a
384.7285	0.0895	769457	keystroke_Key.space	Key.space	n/a
385.508	0.135	771016	keystroke_a	a	n/a
385.6885	0.075	771377	keystroke_u	u	n/a
385.8385	0.09	771677	keystroke_t	t	n/a
385.9875	0.105	771975	keystroke_o	o	n/a
386.288	0.089	772576	keystroke_Key.enter	Key.enter	n/a
386.382	10.9045	772764	prompt	n/a	baskets actively once finest\n
387.3225	0.09	774645	keystroke_b	b	n/a
387.503	0.1185	775006	keystroke_a	a	n/a
387.7115	0.1355	775423	keystroke_s	s	n/a
387.922	0.12	775844	keystroke_k	k	n/a
388.4315	0.164	776863	keystroke_e	e	n/a
388.5815	0.119	777163	keystroke_t	t	n/a
388.881	0.0905	777762	keystroke_s	s	n/a
389.0015	0.09	778003	keystroke_Key.space	Key.space	n/a
390.02	0.1355	780040	keystroke_a	a	n/a
390.4695	0.1205	780939	keystroke_c	c	n/a
391.1445	0.074	782289	keystroke_t	t	n/a
391.2935	0.12	782587	keystroke_i	i	n/a
391.5485	0.1055	783097	keystroke_v	v	n/a
391.6825	0.0745	783365	keystroke_i	i	n/a
392.2815	0.075	784563	keystroke_Key.backspace	Key.backspace	n/a
392.432	0.105	784864	keystroke_e	e	n/a
392.657	0.1335	785314	keystroke_l	l	n/a
392.9555	0.0755	785911	keystroke_y	y	n/a
393.6005	0.1045	787201	keystroke_Key.space	Key.space	n/a
393.81	0.1205	787620	keystroke_o	o	n/a
394.0355	0.075	788071	keystroke_n	n	n/a
394.1555	0.179	788311	keystroke_v	v	n/a
394.3195	0.15	788639	keystroke_e	e	n/a
394.6795	0.074	789359	keystroke_Key.backspace	Key.backspace	n/a
394.8585	0.105	789717	keystroke_Key.backspace	Key.backspace	n/a
394.9485	0.1805	789897	keystroke_c	c	n/a
395.084	0.1485	790168	keystroke_e	e	n/a
395.2475	0.1205	790495	keystroke_Key.space	Key.space	n/a
395.832	0.09	791664	keystroke_f	f	n/a
395.952	0.105	791904	keystroke_i	i	n/a
396.147	0.0745	792294	keystroke_n	n	n/a
396.282	0.09	792564	keystroke_e	e	n/a
396.492	0.105	792984	keystroke_s	s	n/a
396.6855	0.075	793371	keystroke_t	t	n/a
396.851	0.09	793702	keystroke_Key.space	Key.space	n/a
397.24	0.045	794480	keystroke_Key.enter	Key.enter	n/a
397.289	11.4415	794578	prompt	n/a	value summaries beverly plate\n
398.499	0.135	796998	keystroke_v	v	n/a
398.574	0.149	797148	keystroke_a	a	n/a
398.7835	0.105	797567	keystroke_l	l	n/a
398.9935	0.09	797987	keystroke_u	u	n/a
399.1285	0.149	798257	keystroke_e	e	n/a
399.413	0.105	798826	keystroke_Key.space	Key.space	n/a
400.058	0.12	800116	keystroke_s	s	n/a
400.163	0.1035	800326	keystroke_u	u	n/a
400.417	0.06	800834	keystroke_m	m	n/a
400.582	0.09	801164	keystroke_m	m	n/a
400.7755	0.135	801551	keystroke_a	a	n/a
400.9555	0.09	801911	keystroke_r	r	n/a
401.1205	0.0895	802241	keystroke_i	i	n/a
401.3005	0.18	802601	keystroke_e	e	n/a
401.4355	0.135	802871	keystroke_s	s	n/a
401.7345	0.09	803469	keystroke_Key.space	Key.space	n/a
402.0795	0.09	804159	keystroke_b	b	n/a
402.2285	0.105	804457	keystroke_e	e	n/a
402.5585	0.105	805117	keystroke_v	v	n/a
402.9025	0.03	805805	keystroke_e	e	n/a
402.9175	0.09	805835	keystroke_r	r	n/a
403.1275	0.1195	806255	keystroke_l	l	n/a
403.352	0.075	806704	keystroke_y	y	n/a
404.041	0.105	808082	keystroke_Key.space	Key.space	n/a
404.2805	0.06	808561	keystroke_p	p	n/a
404.4755	0.09	808951	keystroke_l	l	n/a
408.027	0.001	816054	keystroke_a	a	n/a
408.13	0.104	816260	keystroke_t	t	n/a
408.264	0.1205	816528	keystroke_e	e	n/a
408.6395	0.0895	817279	keystroke_Key.enter	Key.enter	n/a
408.7335	8.117	817467	prompt	n/a	zones class sheets organisms\n
409.5835	0.1335	819167	keystroke_z	z	n/a
409.687	0.1055	819374	keystroke_o	o	n/a
409.8975	0.075	819795	keystroke_n	n	n/a
410.0625	0.225	820125	keystroke_e	e	n/a
410.2425	0.105	820485	keystroke_s	s	n/a
410.4525	0.105	820905	keystroke_Key.space	Key.space	n/a
410.797	0.12	821594	keystroke_c	c	n/a
410.902	0.12	821804	keystroke_l	l	n/a
411.067	0.1195	822134	keystroke_a	a	n/a
411.4105	0.06	822821	keystroke_s	s	n/a
411.5755	0.1195	823151	keystroke_s	s	n/a
411.755	0.105	823510	keystroke_Key.space	Key.space	n/a
411.95	0.12	823900	keystroke_s	s	n/a
412.1	0.1045	824200	keystroke_h	h	n/a
412.2645	0.09	824529	keystroke_e	e	n/a
412.4745	0.09	824949	keystroke_e	e	n/a
412.64	0.089	825280	keystroke_t	t	n/a
412.879	0.105	825758	keystroke_s	s	n/a
413.044	0.105	826088	keystroke_Key.space	Key.space	n/a
413.7625	0.105	827525	keystroke_o	o	n/a
414.0025	0.105	828005	keystroke_r	r	n/a
414.587	0.0885	829174	keystroke_g	g	n/a
414.781	0.1195	829562	keystroke_a	a	n/a
415.0355	0.1045	830071	keystroke_n	n	n/a
415.2	0.15	830400	keystroke_i	i	n/a
415.5005	0.1345	831001	keystroke_s	s	n/a
416.279	0.12	832558	keystroke_m	m	n/a
416.429	0.12	832858	keystroke_s	s	n/a
416.7735	0.075	833547	keystroke_Key.enter	Key.enter	n/a
416.853	10.7075	833706	prompt	n/a	molecules vice tumor disco\n
417.6425	0.104	835285	keystroke_m	m	n/a
417.8365	0.1205	835673	keystroke_o	o	n/a
418.137	0.074	836274	keystroke_l	l	n/a
418.9155	0.12	837831	keystroke_e	e	n/a
419.9935	0.1345	839987	keystroke_c	c	n/a
420.218	0.09	840436	keystroke_u	u	n/a
420.398	0.135	840796	keystroke_l	l	n/a
420.652	0.12	841304	keystroke_s	s	n/a
421.1315	0.0905	842263	keystroke_Key.backspace	Key.backspace	n/a
421.2665	0.1955	842533	keystroke_e	e	n/a
421.447	0.12	842894	keystroke_s	s	n/a
421.671	0.105	843342	keystroke_Key.space	Key.space	n/a
422.435	0.06	844870	keystroke_v	v	n/a
422.541	0.103	845082	keystroke_i	i	n/a
422.764	0.135	845528	keystroke_c	c	n/a
422.929	0.135	845858	keystroke_e	e	n/a
423.109	0.1045	846218	keystroke_Key.space	Key.space	n/a
423.5435	0.0905	847087	keystroke_t	t	n/a
423.723	0.105	847446	keystroke_u	u	n/a
423.9935	0.09	847987	keystroke_m	m	n/a
424.2775	0.106	848555	keystroke_o	o	n/a
424.4725	0.075	848945	keystroke_r	r	n/a
425.161	0.12	850322	keystroke_Key.space	Key.space	n/a
425.566	0.0895	851132	keystroke_d	d	n/a
425.731	0.0755	851462	keystroke_i	i	n/a
426.63	0.104	853260	keystroke_s	s	n/a
426.839	0.12	853678	keystroke_c	c	n/a
427.0935	0.106	854187	keystroke_o	o	n/a
427.5285	0.03	855057	keystroke_Key.enter	Key.enter	n/a
427.5635	7.322	855127	prompt	n/a	drink twenty farmers but\n
428.3675	0.1045	856735	keystroke_d	d	n/a
428.5925	0.089	857185	keystroke_r	r	n/a
428.7715	0.106	857543	keystroke_i	i	n/a
429.0115	0.0745	858023	keystroke_n	n	n/a
429.191	0.105	858382	keystroke_k	k	n/a
429.625	0.105	859250	keystroke_Key.space	Key.space	n/a
430.1345	0.105	860269	keystroke_t	t	n/a
430.3595	0.105	860719	keystroke_w	w	n/a
430.9295	0.105	861859	keystroke_e	e	n/a
431.139	0.091	862278	keystroke_n	n	n/a
431.349	0.06	862698	keystroke_t	t	n/a
431.529	0.104	863058	keystroke_y	y	n/a
431.783	0.105	863566	keystroke_Key.space	Key.space	n/a
432.5025	0.075	865005	keystroke_f	f	n/a
432.5925	0.164	865185	keystroke_a	a	n/a
432.8775	0.089	865755	keystroke_r	r	n/a
433.1305	0.1205	866261	keystroke_m	m	n/a
433.31	0.2105	866620	keystroke_e	e	n/a
433.475	0.1355	866950	keystroke_r	r	n/a
433.7005	0.135	867401	keystroke_s	s	n/a
433.9555	0.105	867911	keystroke_Key.space	Key.space	n/a
434.2105	0.09	868421	keystroke_b	b	n/a
434.3905	0.105	868781	keystroke_u	u	n/a
434.6	0.089	869200	keystroke_t	t	n/a
434.809	0.075	869618	keystroke_Key.enter	Key.enter	n/a
434.8885	10.6155	869777	prompt	n/a	disciplines toll casual justify\n
436.202	0.075	872404	keystroke_d	d	n/a
436.427	0.135	872854	keystroke_i	i	n/a
436.7565	0.1045	873513	keystroke_s	s	n/a
437.041	0.119	874082	keystroke_c	c	n/a
437.505	0.1345	875010	keystroke_i	i	n/a
437.9245	0.119	875849	keystroke_p	p	n/a
438.1785	0.12	876357	keystroke_l	l	n/a
438.4035	0.1195	876807	keystroke_i	i	n/a
438.658	0.1045	877316	keystroke_n	n	n/a
438.8975	0.1945	877795	keystroke_e	e	n/a
439.167	0.12	878334	keystroke_s	s	n/a
439.362	0.1195	878724	keystroke_Key.space	Key.space	n/a
439.826	0.075	879652	keystroke_t	t	n/a
440.005	0.09	880010	keystroke_o	o	n/a
440.26	0.0805	880520	keystroke_l	l	n/a
440.4995	0.135	880999	keystroke_l	l	n/a
440.739	0.09	881478	keystroke_Key.space	Key.space	n/a
440.949	0.1345	881898	keystroke_c	c	n/a
441.1285	0.135	882257	keystroke_a	a	n/a
441.3385	0.1345	882677	keystroke_s	s	n/a
441.593	0.09	883186	keystroke_u	u	n/a
441.893	0.104	883786	keystroke_a	a	n/a
442.102	0.135	884204	keystroke_l	l	n/a
442.5065	0.09	885013	keystroke_Key.space	Key.space	n/a
442.9855	0.105	885971	keystroke_j	j	n/a
443.2255	0.105	886451	keystroke_u	u	n/a
443.4505	0.1495	886901	keystroke_s	s	n/a
443.7045	0.075	887409	keystroke_t	t	n/a
443.974	0.165	887948	keystroke_i	i	n/a
444.963	0.105	889926	keystroke_f	f	n/a
445.128	0.105	890256	keystroke_y	y	n/a
445.4125	0.09	890825	keystroke_Key.enter	Key.enter	n/a
445.5075	9.688	891015	prompt	n/a	mods potato spotlight damaged\n
446.297	0.104	892594	keystroke_m	m	n/a
446.461	0.12	892922	keystroke_o	o	n/a
446.656	0.135	893312	keystroke_d	d	n/a
446.865	0.135	893730	keystroke_s	s	n/a
447.12	0.105	894240	keystroke_Key.space	Key.space	n/a
447.539	0.12	895078	keystroke_p	p	n/a
447.794	0.104	895588	keystroke_o	o	n/a
448.078	0.0905	896156	keystroke_t	t	n/a
448.318	0.135	896636	keystroke_a	a	n/a
448.5725	0.0905	897145	keystroke_t	t	n/a
448.857	0.15	897714	keystroke_o	o	n/a
449.367	0.105	898734	keystroke_Key.space	Key.space	n/a
449.966	0.12	899932	keystroke_s	s	n/a
450.131	0.135	900262	keystroke_p	p	n/a
450.326	0.1045	900652	keystroke_o	o	n/a
450.625	0.105	901250	keystroke_t	t	n/a
450.835	0.1195	901670	keystroke_l	l	n/a
451.0745	0.075	902149	keystroke_i	i	n/a
451.3295	0.1045	902659	keystroke_g	g	n/a
451.509	0.09	903018	keystroke_h	h	n/a
451.674	0.105	903348	keystroke_t	t	n/a
452.1085	0.105	904217	keystroke_Key.space	Key.space	n/a
452.8715	0.12	905743	keystroke_d	d	n/a
452.9615	0.135	905923	keystroke_a	a	n/a
453.1565	0.135	906313	keystroke_m	m	n/a
453.3215	0.105	906643	keystroke_a	a	n/a
453.816	0.09	907632	keystroke_g	g	n/a
453.981	0.0895	907962	keystroke_e	e	n/a
454.2355	0.1045	908471	keystroke_d	d	n/a
455.074	0.12	910148	keystroke_Key.enter	Key.enter	n/a
455.1985	12.042	910397	prompt	n/a	located doubt vehicle fuji\n
457.6235	0.012	915247	keystroke_l	l	n/a
457.74	0.075	915480	keystroke_o	o	n/a
457.905	0.105	915810	keystroke_a	a	n/a
458.3685	0.075	916737	keystroke_Key.backspace	Key.backspace	n/a
458.4735	0.15	916947	keystroke_c	c	n/a
458.5635	0.18	917127	keystroke_a	a	n/a
459.1635	0.076	918327	keystroke_t	t	n/a
459.343	0.12	918686	keystroke_e	e	n/a
459.613	0.12	919226	keystroke_d	d	n/a
460.3615	0.105	920723	keystroke_Key.space	Key.space	n/a
461.0515	0.105	922103	keystroke_d	d	n/a
461.1575	0.104	922315	keystroke_o	o	n/a
461.366	0.075	922732	keystroke_u	u	n/a
461.591	0.0595	923182	keystroke_b	b	n/a
461.7855	0.09	923571	keystroke_t	t	n/a
462.6695	0.09	925339	keystroke_Key.space	Key.space	n/a
463.0735	0.105	926147	keystroke_c	c	n/a
463.508	0.09	927016	keystroke_Key.backspace	Key.backspace	n/a
463.658	0.135	927316	keystroke_v	v	n/a
463.808	0.1355	927616	keystroke_e	e	n/a
464.033	0.09	928066	keystroke_h	h	n/a
464.243	0.09	928486	keystroke_i	i	n/a
464.5125	0.105	929025	keystroke_c	c	n/a
464.6775	0.0895	929355	keystroke_l	l	n/a
464.872	0.075	929744	keystroke_e	e	n/a
465.022	0.105	930044	keystroke_Key.space	Key.space	n/a
466.1905	0.0895	932381	keystroke_f	f	n/a
466.355	0.09	932710	keystroke_u	u	n/a
466.625	0.075	933250	keystroke_j	j	n/a
466.8495	0.06	933699	keystroke_i	i	n/a
467.179	0.06	934358	keystroke_Key.enter	Key.enter	n/a
467.245	10.407	934490	prompt	n/a	existing detective pacific average\n
468.0625	0.075	936125	keystroke_e	e	n/a
468.3475	0.105	936695	keystroke_x	x	n/a
468.6325	0.12	937265	keystroke_i	i	n/a
468.8575	0.135	937715	keystroke_s	s	n/a
470.041	0.09	940082	keystroke_t	t	n/a
470.161	0.075	940322	keystroke_i	i	n/a
470.325	0.075	940650	keystroke_n	n	n/a
470.475	0.09	940950	keystroke_g	g	n/a
470.625	0.075	941250	keystroke_Key.space	Key.space	n/a
471.0745	0.1045	942149	keystroke_d	d	n/a
471.269	0.12	942538	keystroke_e	e	n/a
471.479	0.0895	942958	keystroke_t	t	n/a
471.7035	0.105	943407	keystroke_e	e	n/a
472.048	0.12	944096	keystroke_c	c	n/a
472.3625	0.09	944725	keystroke_t	t	n/a
472.5575	0.12	945115	keystroke_i	i	n/a
472.767	0.09	945534	keystroke_v	v	n/a
472.992	0.0745	945984	keystroke_e	e	n/a
473.1865	0.1045	946373	keystroke_Key.space	Key.space	n/a
473.546	0.1045	947092	keystroke_p	p	n/a
473.6955	0.105	947391	keystroke_a	a	n/a
474.235	0.045	948470	keystroke_c	c	n/a
474.295	0.075	948590	keystroke_i	i	n/a
474.61	0.0895	949220	keystroke_f	f	n/a
474.8195	0.105	949639	keystroke_i	i	n/a
475.6285	0.1195	951257	keystroke_c	c	n/a
475.898	0.105	951796	keystroke_Key.space	Key.space	n/a
476.2125	0.0905	952425	keystroke_a	a	n/a
476.4225	0.105	952845	keystroke_v	v	n/a
476.6325	0.18	953265	keystroke_e	e	n/a
476.7825	0.105	953565	keystroke_r	r	n/a
476.992	0.165	953984	keystroke_a	a	n/a
477.202	0.104	954404	keystroke_g	g	n/a
477.381	0.09	954762	keystroke_e	e	n/a
477.591	0.06	955182	keystroke_Key.enter	Key.enter	n/a
477.6555	8.2375	955311	prompt	n/a	up placement klein line\n
478.595	0.075	957190	keystroke_u	u	n/a
478.76	0.105	957520	keystroke_p	p	n/a
478.9845	0.09	957969	keystroke_Key.space	Key.space	n/a
479.2695	0.1045	958539	keystroke_p	p	n/a
479.479	0.09	958958	keystroke_l	l	n/a
479.644	0.12	959288	keystroke_a	a	n/a
479.9135	0.105	959827	keystroke_c	c	n/a
480.0485	0.105	960097	keystroke_e	e	n/a
480.5125	0.09	961025	keystroke_m	m	n/a
480.6325	0.12	961265	keystroke_e	e	n/a
480.7975	0.075	961595	keystroke_n	n	n/a
480.9325	0.0745	961865	keystroke_t	t	n/a
481.127	0.09	962254	keystroke_Key.space	Key.space	n/a
482.161	0.045	964322	keystroke_k	k	n/a
482.3405	0.075	964681	keystroke_l	l	n/a
482.55	0.06	965100	keystroke_i	i	n/a
482.745	0.0895	965490	keystroke_e	e	n/a
483.4795	0.045	966959	keystroke_Key.backspace	Key.backspace	n/a
483.6315	0.023	967263	keystroke_Key.backspace	Key.backspace	n/a
483.824	0.075	967648	keystroke_e	e	n/a
484.5585	0.075	969117	keystroke_i	i	n/a
484.768	0.075	969536	keystroke_n	n	n/a
484.9325	0.09	969865	keystroke_Key.space	Key.space	n/a
485.1125	0.09	970225	keystroke_l	l	n/a
485.3075	0.0745	970615	keystroke_i	i	n/a
485.457	0.09	970914	keystroke_n	n	n/a
485.652	0.1045	971304	keystroke_e	e	n/a
485.8315	0.06	971663	keystroke_Key.enter	Key.enter	n/a
485.897	8.553	971794	prompt	n/a	resistant mold diane webster\n
487.0305	0.09	974061	keystroke_r	r	n/a
487.2105	0.0895	974421	keystroke_e	e	n/a
487.375	0.105	974750	keystroke_s	s	n/a
487.5395	0.105	975079	keystroke_i	i	n/a
487.7345	0.09	975469	keystroke_s	s	n/a
487.9595	0.06	975919	keystroke_t	t	n/a
488.2445	0.1045	976489	keystroke_a	a	n/a
488.409	0.075	976818	keystroke_n	n	n/a
488.619	0.06	977238	keystroke_t	t	n/a
488.8285	0.09	977657	keystroke_Key.space	Key.space	n/a
489.0535	0.1045	978107	keystroke_m	m	n/a
489.233	0.105	978466	keystroke_o	o	n/a
489.713	0.075	979426	keystroke_l	l	n/a
489.9975	0.12	979995	keystroke_d	d	n/a
490.2225	0.1045	980445	keystroke_Key.space	Key.space	n/a
490.747	0.1195	981494	keystroke_d	d	n/a
490.8965	0.1045	981793	keystroke_i	i	n/a
491.106	0.15	982212	keystroke_a	a	n/a
491.3455	0.075	982691	keystroke_n	n	n/a
491.6005	0.09	983201	keystroke_e	e	n/a
491.7955	0.1045	983591	keystroke_Key.space	Key.space	n/a
492.5445	0.165	985089	keystroke_w	w	n/a
492.6645	0.1195	985329	keystroke_e	e	n/a
492.889	0.075	985778	keystroke_b	b	n/a
493.024	0.18	986048	keystroke_s	s	n/a
493.219	0.09	986438	keystroke_t	t	n/a
493.444	0.1945	986888	keystroke_e	e	n/a
493.6235	0.105	987247	keystroke_r	r	n/a
494.358	0.09	988716	keystroke_Key.enter	Key.enter	n/a
494.453	14.6205	988906	prompt	n/a	distribution cornwall breast diploma\n
495.6465	0.09	991293	keystroke_d	d	n/a
495.7965	0.0745	991593	keystroke_i	i	n/a
495.961	0.12	991922	keystroke_s	s	n/a
496.171	0.0895	992342	keystroke_t	t	n/a
496.3805	0.06	992761	keystroke_r	r	n/a
498.6305	0.043	997261	keystroke_i	i	n/a
498.9585	0.0745	997917	keystroke_b	b	n/a
499.123	0.09	998246	keystroke_u	u	n/a
499.288	0.09	998576	keystroke_t	t	n/a
499.4525	0.09	998905	keystroke_i	i	n/a
499.662	0.09	999324	keystroke_o	o	n/a
499.842	0.075	999684	keystroke_n	n	n/a
500.3665	0.105	1000733	keystroke_Key.space	Key.space	n/a
500.6215	0.135	1001243	keystroke_c	c	n/a
500.7715	0.1045	1001543	keystroke_o	o	n/a
500.936	0.09	1001872	keystroke_r	r	n/a
501.101	0.075	1002202	keystroke_n	n	n/a
501.4005	0.105	1002801	keystroke_w	w	n/a
501.5355	0.12	1003071	keystroke_a	a	n/a
501.715	0.075	1003430	keystroke_l	l	n/a
501.91	0.1195	1003820	keystroke_l	l	n/a
502.1795	0.09	1004359	keystroke_Key.space	Key.space	n/a
502.8385	0.0895	1005677	keystroke_b	b	n/a
502.988	0.105	1005976	keystroke_r	r	n/a
503.258	0.1195	1006516	keystroke_e	e	n/a
503.8875	0.1195	1007775	keystroke_a	a	n/a
506.2125	0.058	1012425	keystroke_s	s	n/a
506.3455	0.0895	1012691	keystroke_t	t	n/a
506.54	0.105	1013080	keystroke_Key.space	Key.space	n/a
507.184	0.075	1014368	keystroke_d	d	n/a
507.439	0.075	1014878	keystroke_i	i	n/a
507.6935	0.09	1015387	keystroke_p	p	n/a
508.083	0.105	1016166	keystroke_l	l	n/a
508.293	0.075	1016586	keystroke_o	o	n/a
508.5625	0.105	1017125	keystroke_m	m	n/a
508.7275	0.105	1017455	keystroke_a	a	n/a
508.967	0.105	1017934	keystroke_Key.enter	Key.enter	n/a
509.0765	11.3255	1018153	prompt	n/a	limousines removed verification intervals\n
510.0305	0.09	1020061	keystroke_l	l	n/a
510.2105	0.105	1020421	keystroke_i	i	n/a
510.465	0.09	1020930	keystroke_m	m	n/a
510.63	0.0895	1021260	keystroke_o	o	n/a
510.8545	0.06	1021709	keystroke_u	u	n/a
511.3045	0.1045	1022609	keystroke_s	s	n/a
511.424	0.0905	1022848	keystroke_i	i	n/a
511.6195	0.075	1023239	keystroke_n	n	n/a
511.799	0.075	1023598	keystroke_e	e	n/a
512.024	0.105	1024048	keystroke_s	s	n/a
512.219	0.1045	1024438	keystroke_Key.space	Key.space	n/a
512.938	0.12	1025876	keystroke_r	r	n/a
513.059	0.1035	1026118	keystroke_e	e	n/a
513.2225	0.12	1026445	keystroke_m	m	n/a
513.3425	0.12	1026685	keystroke_o	o	n/a
513.5075	0.105	1027015	keystroke_v	v	n/a
513.7175	0.0745	1027435	keystroke_e	e	n/a
513.987	0.0895	1027974	keystroke_d	d	n/a
514.4815	0.1045	1028963	keystroke_Key.space	Key.space	n/a
515.111	0.105	1030222	keystroke_v	v	n/a
515.261	0.1495	1030522	keystroke_e	e	n/a
515.3955	0.09	1030791	keystroke_r	r	n/a
516.2795	0.0745	1032559	keystroke_i	i	n/a
516.399	0.09	1032798	keystroke_f	f	n/a
516.594	0.09	1033188	keystroke_i	i	n/a
517.0585	0.135	1034117	keystroke_c	c	n/a
517.2385	0.15	1034477	keystroke_a	a	n/a
517.448	0.105	1034896	keystroke_t	t	n/a
517.628	0.09	1035256	keystroke_i	i	n/a
517.823	0.0895	1035646	keystroke_o	o	n/a
518.0175	0.075	1036035	keystroke_n	n	n/a
518.1975	0.0895	1036395	keystroke_Key.space	Key.space	n/a
518.6015	0.0895	1037203	keystroke_i	i	n/a
518.766	0.075	1037532	keystroke_n	n	n/a
518.9615	0.0895	1037923	keystroke_t	t	n/a
519.156	0.165	1038312	keystroke_e	e	n/a
519.306	0.105	1038612	keystroke_r	r	n/a
519.6805	0.12	1039361	keystroke_v	v	n/a
519.7855	0.135	1039571	keystroke_a	a	n/a
519.9655	0.1195	1039931	keystroke_l	l	n/a
520.115	0.135	1040230	keystroke_s	s	n/a
520.34	0.06	1040680	keystroke_Key.enter	Key.enter	n/a
520.405	9.842	1040810	prompt	n/a	easily vehicles experience nicole\n
521.209	0.18	1042418	keystroke_e	e	n/a
521.359	0.135	1042718	keystroke_a	a	n/a
521.5085	0.12	1043017	keystroke_s	s	n/a
521.6735	0.09	1043347	keystroke_i	i	n/a
521.8685	0.105	1043737	keystroke_l	l	n/a
522.0935	0.075	1044187	keystroke_y	y	n/a
522.393	0.075	1044786	keystroke_Key.space	Key.space	n/a
523.023	0.0895	1046046	keystroke_v	v	n/a
523.1575	0.105	1046315	keystroke_e	e	n/a
523.3675	0.075	1046735	keystroke_h	h	n/a
523.532	0.09	1047064	keystroke_i	i	n/a
524.102	0.105	1048204	keystroke_c	c	n/a
524.237	0.12	1048474	keystroke_l	l	n/a
524.402	0.1795	1048804	keystroke_e	e	n/a
524.5665	0.105	1049133	keystroke_s	s	n/a
524.8965	0.1045	1049793	keystroke_Key.space	Key.space	n/a
525.391	0.0895	1050782	keystroke_e	e	n/a
525.75	0.135	1051500	keystroke_x	x	n/a
525.9895	0.12	1051979	keystroke_p	p	n/a
526.2895	0.1045	1052579	keystroke_e	e	n/a
526.3645	0.1195	1052729	keystroke_r	r	n/a
526.619	0.1195	1053238	keystroke_i	i	n/a
526.8585	0.105	1053717	keystroke_e	e	n/a
527.143	0.105	1054286	keystroke_n	n	n/a
527.383	0.1495	1054766	keystroke_c	c	n/a
527.5625	0.12	1055125	keystroke_e	e	n/a
527.9975	0.105	1055995	keystroke_Key.space	Key.space	n/a
528.537	0.075	1057074	keystroke_n	n	n/a
529.1965	0.075	1058393	keystroke_i	i	n/a
529.361	0.12	1058722	keystroke_c	c	n/a
529.511	0.06	1059022	keystroke_o	o	n/a
529.706	0.0895	1059412	keystroke_l	l	n/a
529.8705	0.0895	1059741	keystroke_e	e	n/a
530.17	0.075	1060340	keystroke_Key.enter	Key.enter	n/a
530.2495	14.5935	1060499	prompt	n/a	activities secure integration resolutions\n
531.039	0.12	1062078	keystroke_a	a	n/a
531.2935	0.1205	1062587	keystroke_c	c	n/a
531.549	0.09	1063098	keystroke_t	t	n/a
531.744	0.1195	1063488	keystroke_i	i	n/a
531.9235	0.105	1063847	keystroke_v	v	n/a
532.1485	0.075	1064297	keystroke_i	i	n/a
532.388	0.075	1064776	keystroke_t	t	n/a
532.583	0.075	1065166	keystroke_i	i	n/a
532.793	0.0895	1065586	keystroke_e	e	n/a
532.9425	0.135	1065885	keystroke_s	s	n/a
533.677	0.105	1067354	keystroke_Key.space	Key.space	n/a
533.842	0.2095	1067684	keystroke_s	s	n/a
534.0065	0.12	1068013	keystroke_e	e	n/a
534.756	0.0895	1069512	keystroke_c	c	n/a
534.9055	0.09	1069811	keystroke_u	u	n/a
535.1305	0.105	1070261	keystroke_r	r	n/a
535.3105	0.105	1070621	keystroke_e	e	n/a
535.5205	0.0745	1071041	keystroke_Key.space	Key.space	n/a
536.12	0.0745	1072240	keystroke_i	i	n/a
536.3145	0.075	1072629	keystroke_n	n	n/a
536.614	0.075	1073228	keystroke_t	t	n/a
536.854	0.1495	1073708	keystroke_e	e	n/a
537.618	0.135	1075236	keystroke_g	g	n/a
537.723	0.18	1075446	keystroke_r	r	n/a
537.873	0.12	1075746	keystroke_a	a	n/a
538.1275	0.105	1076255	keystroke_t	t	n/a
538.3375	0.0745	1076675	keystroke_i	i	n/a
538.532	0.09	1077064	keystroke_o	o	n/a
538.727	0.075	1077454	keystroke_n	n	n/a
538.8765	0.105	1077753	keystroke_Key.space	Key.space	n/a
539.1465	0.18	1078293	keystroke_r	r	n/a
539.3415	0.15	1078683	keystroke_e	e	n/a
539.4315	0.165	1078863	keystroke_s	s	n/a
539.6715	0.1345	1079343	keystroke_o	o	n/a
539.911	0.09	1079822	keystroke_l	l	n/a
540.9155	0.09	1081831	keystroke_u	u	n/a
543.779	0.013	1087558	keystroke_t	t	n/a
543.852	0.075	1087704	keystroke_i	i	n/a
544.032	0.09	1088064	keystroke_o	o	n/a
544.182	0.09	1088364	keystroke_n	n	n/a
544.332	0.12	1088664	keystroke_s	s	n/a
544.7815	0.06	1089563	keystroke_Key.enter	Key.enter	n/a
544.846	14.7745	1089692	prompt	n/a	casinos emissions fisheries touched\n
545.9805	0.165	1091961	keystroke_c	c	n/a
546.0855	0.1645	1092171	keystroke_a	a	n/a
546.265	0.1355	1092530	keystroke_s	s	n/a
546.46	0.135	1092920	keystroke_i	i	n/a
546.655	0.09	1093310	keystroke_n	n	n/a
546.9845	0.09	1093969	keystroke_o	o	n/a
547.2695	0.1195	1094539	keystroke_s	s	n/a
547.464	0.105	1094928	keystroke_Key.space	Key.space	n/a
547.749	0.105	1095498	keystroke_e	e	n/a
547.884	0.1045	1095768	keystroke_m	m	n/a
548.1085	0.105	1096217	keystroke_m	m	n/a
549.4715	0.023	1098943	keystroke_Key.backspace	Key.backspace	n/a
550.5665	0.075	1101133	keystroke_m	m	n/a
551.2105	0.075	1102421	keystroke_i	i	n/a
551.735	0.09	1103470	keystroke_s	s	n/a
552.065	0.18	1104130	keystroke_s	s	n/a
552.4545	0.045	1104909	keystroke_i	i	n/a
552.6945	0.075	1105389	keystroke_o	o	n/a
552.9195	0.0595	1105839	keystroke_n	n	n/a
553.5485	0.09	1107097	keystroke_s	s	n/a
553.7135	0.105	1107427	keystroke_Key.space	Key.space	n/a
554.223	0.075	1108446	keystroke_f	f	n/a
554.3725	0.09	1108745	keystroke_i	i	n/a
554.5675	0.09	1109135	keystroke_s	s	n/a
554.7175	0.0745	1109435	keystroke_h	h	n/a
555.586	0.1505	1111172	keystroke_e	e	n/a
555.6915	0.12	1111383	keystroke_r	r	n/a
555.901	0.09	1111802	keystroke_i	i	n/a
556.471	0.075	1112942	keystroke_e	e	n/a
556.711	0.105	1113422	keystroke_s	s	n/a
557.1455	0.105	1114291	keystroke_Key.space	Key.space	n/a
557.76	0.015	1115520	keystroke_t	t	n/a
557.79	0.075	1115580	keystroke_h	h	n/a
557.97	0.09	1115940	keystroke_o	o	n/a
558.12	0.0745	1116240	keystroke_u	u	n/a
558.2995	0.09	1116599	keystroke_c	c	n/a
558.4645	0.075	1116929	keystroke_h	h	n/a
558.644	0.0755	1117288	keystroke_e	e	n/a
558.854	0.075	1117708	keystroke_d	d	n/a
559.559	0.06	1119118	keystroke_Key.enter	Key.enter	n/a
559.6235	10.069	1119247	prompt	n/a	mrna registry impaired tremendous\n
561.192	0.09	1122384	keystroke_m	m	n/a
561.327	0.105	1122654	keystroke_r	r	n/a
561.6115	0.075	1123223	keystroke_n	n	n/a
561.9865	0.1045	1123973	keystroke_a	a	n/a
562.1665	0.105	1124333	keystroke_Key.space	Key.space	n/a
562.511	0.09	1125022	keystroke_r	r	n/a
562.586	0.1205	1125172	keystroke_e	e	n/a
562.826	0.075	1125652	keystroke_g	g	n/a
562.976	0.105	1125952	keystroke_i	i	n/a
563.126	0.12	1126252	keystroke_s	s	n/a
563.3205	0.09	1126641	keystroke_t	t	n/a
563.5455	0.06	1127091	keystroke_r	r	n/a
563.7105	0.075	1127421	keystroke_y	y	n/a
563.935	0.105	1127870	keystroke_Key.space	Key.space	n/a
564.9395	0.0895	1129879	keystroke_i	i	n/a
565.134	0.09	1130268	keystroke_m	m	n/a
565.314	0.09	1130628	keystroke_p	p	n/a
565.464	0.15	1130928	keystroke_a	a	n/a
565.8835	0.075	1131767	keystroke_i	i	n/a
566.0785	0.105	1132157	keystroke_r	r	n/a
566.2435	0.1045	1132487	keystroke_e	e	n/a
566.468	0.075	1132936	keystroke_d	d	n/a
566.618	0.105	1133236	keystroke_Key.space	Key.space	n/a
567.5025	0.105	1135005	keystroke_t	t	n/a
567.6525	0.12	1135305	keystroke_r	r	n/a
567.892	0.09	1135784	keystroke_e	e	n/a
568.162	0.105	1136324	keystroke_m	m	n/a
568.327	0.075	1136654	keystroke_e	e	n/a
568.5215	0.06	1137043	keystroke_n	n	n/a
568.7615	0.09	1137523	keystroke_d	d	n/a
568.8965	0.1195	1137793	keystroke_o	o	n/a
569.061	0.09	1138122	keystroke_u	u	n/a
569.421	0.075	1138842	keystroke_s	s	n/a
569.616	0.075	1139232	keystroke_Key.enter	Key.enter	n/a
569.6955	11.5685	1139391	prompt	n/a	ricky ignore positive divide\n
570.6655	0.0745	1141331	keystroke_r	r	n/a
570.815	0.105	1141630	keystroke_i	i	n/a
570.995	0.105	1141990	keystroke_c	c	n/a
571.25	0.1045	1142500	keystroke_k	k	n/a
571.5045	0.09	1143009	keystroke_y	y	n/a
572.074	0.09	1144148	keystroke_Key.space	Key.space	n/a
572.269	0.105	1144538	keystroke_o	o	n/a
572.5535	0.09	1145107	keystroke_g	g	n/a
573.0635	0.075	1146127	keystroke_n	n	n/a
573.2285	0.09	1146457	keystroke_o	o	n/a
573.3785	0.1645	1146757	keystroke_r	r	n/a
573.528	0.12	1147056	keystroke_e	e	n/a
573.708	0.105	1147416	keystroke_Key.space	Key.space	n/a
574.053	0.12	1148106	keystroke_p	p	n/a
574.233	0.1045	1148466	keystroke_o	o	n/a
574.5925	0.105	1149185	keystroke_s	s	n/a
574.8325	0.12	1149665	keystroke_i	i	n/a
575.9715	0.075	1151943	keystroke_t	t	n/a
576.1365	0.06	1152273	keystroke_i	i	n/a
576.2865	0.105	1152573	keystroke_v	v	n/a
576.4515	0.09	1152903	keystroke_e	e	n/a
577.0805	0.12	1154161	keystroke_Key.space	Key.space	n/a
579.179	0.105	1158358	keystroke_d	d	n/a
579.359	0.075	1158718	keystroke_i	i	n/a
580.0485	0.105	1160097	keystroke_v	v	n/a
580.1835	0.105	1160367	keystroke_i	i	n/a
580.603	0.09	1161206	keystroke_d	d	n/a
580.798	0.06	1161596	keystroke_e	e	n/a
581.188	0.075	1162376	keystroke_Key.enter	Key.enter	n/a
581.269	9.5435	1162538	prompt	n/a	checking admit facilitate expedia\n
582.1325	0.135	1164265	keystroke_c	c	n/a
582.2825	0.075	1164565	keystroke_h	h	n/a
582.462	0.12	1164924	keystroke_e	e	n/a
582.687	0.105	1165374	keystroke_c	c	n/a
583.077	0.09	1166154	keystroke_k	k	n/a
583.242	0.0895	1166484	keystroke_i	i	n/a
583.4365	0.09	1166873	keystroke_n	n	n/a
583.6015	0.105	1167203	keystroke_g	g	n/a
583.7965	0.09	1167593	keystroke_Key.space	Key.space	n/a
584.306	0.075	1168612	keystroke_a	a	n/a
584.486	0.105	1168972	keystroke_d	d	n/a
584.7105	0.135	1169421	keystroke_m	m	n/a
584.8905	0.105	1169781	keystroke_i	i	n/a
585.1155	0.09	1170231	keystroke_t	t	n/a
585.52	0.105	1171040	keystroke_Key.space	Key.space	n/a
585.9995	0.135	1171999	keystroke_f	f	n/a
586.0895	0.135	1172179	keystroke_a	a	n/a
586.3295	0.09	1172659	keystroke_c	c	n/a
586.4795	0.0745	1172959	keystroke_i	i	n/a
586.659	0.09	1173318	keystroke_l	l	n/a
586.839	0.09	1173678	keystroke_i	i	n/a
587.139	0.0745	1174278	keystroke_t	t	n/a
587.3335	0.12	1174667	keystroke_a	a	n/a
587.903	0.015	1175806	keystroke_t	t	n/a
588.053	0.0895	1176106	keystroke_e	e	n/a
588.2475	0.075	1176495	keystroke_Key.space	Key.space	n/a
589.147	0.09	1178294	keystroke_e	e	n/a
589.402	0.1045	1178804	keystroke_x	x	n/a
589.6265	0.105	1179253	keystroke_p	p	n/a
589.8065	0.09	1179613	keystroke_e	e	n/a
590.0465	0.09	1180093	keystroke_d	d	n/a
590.1965	0.075	1180393	keystroke_i	i	n/a
590.3615	0.12	1180723	keystroke_a	a	n/a
590.706	0.105	1181412	keystroke_Key.enter	Key.enter	n/a
590.816	11.8275	1181632	prompt	n/a	laboratory now northern creativity\n
591.7705	0.1045	1183541	keystroke_l	l	n/a
591.9505	0.15	1183901	keystroke_a	a	n/a
592.28	0.075	1184560	keystroke_b	b	n/a
592.4905	0.075	1184981	keystroke_o	o	n/a
592.685	0.09	1185370	keystroke_r	r	n/a
592.94	0.12	1185880	keystroke_a	a	n/a
593.3895	0.06	1186779	keystroke_t	t	n/a
593.5095	0.09	1187019	keystroke_o	o	n/a
593.7345	0.0745	1187469	keystroke_r	r	n/a
593.9595	0.075	1187919	keystroke_y	y	n/a
594.304	0.06	1188608	keystroke_Key.space	Key.space	n/a
595.038	0.09	1190076	keystroke_n	n	n/a
595.203	0.12	1190406	keystroke_o	o	n/a
595.6385	0.1195	1191277	keystroke_w	w	n/a
595.788	0.09	1191576	keystroke_Key.space	Key.space	n/a
596.058	0.075	1192116	keystroke_n	n	n/a
596.208	0.105	1192416	keystroke_o	o	n/a
596.403	0.0745	1192806	keystroke_t	t	n/a
596.8225	0.0745	1193645	keystroke_Key.backspace	Key.backspace	n/a
597.077	0.075	1194154	keystroke_r	r	n/a
597.317	0.06	1194634	keystroke_t	t	n/a
597.482	0.075	1194964	keystroke_h	h	n/a
597.6315	0.105	1195263	keystroke_e	e	n/a
597.9465	0.075	1195893	keystroke_r	r	n/a
598.2015	0.09	1196403	keystroke_n	n	n/a
598.426	0.0905	1196852	keystroke_Key.space	Key.space	n/a
598.861	0.12	1197722	keystroke_c	c	n/a
599.3555	0.18	1198711	keystroke_r	r	n/a
599.5205	0.1345	1199041	keystroke_a	a	n/a
600.195	0.045	1200390	keystroke_Key.backspace	Key.backspace	n/a
600.36	0.0905	1200720	keystroke_e	e	n/a
600.54	0.12	1201080	keystroke_a	a	n/a
601.17	0.075	1202340	keystroke_t	t	n/a
601.3195	0.075	1202639	keystroke_i	i	n/a
601.5145	0.09	1203029	keystroke_v	v	n/a
601.7095	0.105	1203419	keystroke_i	i	n/a
601.8595	0.09	1203719	keystroke_t	t	n/a
602.0395	0.0745	1204079	keystroke_y	y	n/a
602.264	0.09	1204528	keystroke_Key.space	Key.space	n/a
602.609	0.03	1205218	keystroke_Key.enter	Key.enter	n/a
602.6465	9.4985	1205293	prompt	n/a	round temporarily healing swift\n
603.5085	0.075	1207017	keystroke_r	r	n/a
603.5985	0.105	1207197	keystroke_o	o	n/a
603.7935	0.06	1207587	keystroke_u	u	n/a
603.988	0.075	1207976	keystroke_n	n	n/a
604.228	0.105	1208456	keystroke_d	d	n/a
604.948	0.1045	1209896	keystroke_Key.space	Key.space	n/a
605.2175	0.165	1210435	keystroke_t	t	n/a
605.3675	0.15	1210735	keystroke_e	e	n/a
605.5475	0.1195	1211095	keystroke_m	m	n/a
605.742	0.12	1211484	keystroke_p	p	n/a
605.997	0.06	1211994	keystroke_o	o	n/a
606.7615	0.12	1213523	keystroke_r	r	n/a
607.0315	0.1195	1214063	keystroke_a	a	n/a
607.391	0.075	1214782	keystroke_r	r	n/a
607.661	0.09	1215322	keystroke_i	i	n/a
607.9305	0.105	1215861	keystroke_l	l	n/a
608.2005	0.075	1216401	keystroke_y	y	n/a
608.41	0.0905	1216820	keystroke_Key.space	Key.space	n/a
609.07	0.06	1218140	keystroke_h	h	n/a
609.175	0.165	1218350	keystroke_e	e	n/a
609.295	0.135	1218590	keystroke_a	a	n/a
609.8645	0.09	1219729	keystroke_l	l	n/a
610.0595	0.06	1220119	keystroke_i	i	n/a
610.1945	0.09	1220389	keystroke_n	n	n/a
610.344	0.075	1220688	keystroke_g	g	n/a
610.4795	0.105	1220959	keystroke_Key.space	Key.space	n/a
610.809	0.105	1221618	keystroke_s	s	n/a
611.079	0.09	1222158	keystroke_w	w	n/a
611.2735	0.135	1222547	keystroke_i	i	n/a
611.6935	0.075	1223387	keystroke_f	f	n/a
611.8885	0.075	1223777	keystroke_t	t	n/a
612.0385	0.105	1224077	keystroke_Key.enter	Key.enter	n/a
612.148	8.287	1224296	prompt	n/a	frankfurt dubai moved farmers\n
613.073	0.09	1226146	keystroke_f	f	n/a
613.178	0.1495	1226356	keystroke_r	r	n/a
613.3725	0.12	1226745	keystroke_a	a	n/a
613.5375	0.105	1227075	keystroke_n	n	n/a
613.7025	0.105	1227405	keystroke_k	k	n/a
614.182	0.06	1228364	keystroke_f	f	n/a
614.302	0.075	1228604	keystroke_u	u	n/a
614.9465	0.15	1229893	keystroke_r	r	n/a
615.0515	0.1345	1230103	keystroke_t	t	n/a
615.456	0.105	1230912	keystroke_Key.space	Key.space	n/a
616.2805	0.09	1232561	keystroke_d	d	n/a
616.4455	0.09	1232891	keystroke_u	u	n/a
616.6705	0.075	1233341	keystroke_b	b	n/a
616.8205	0.15	1233641	keystroke_a	a	n/a
617.0905	0.0895	1234181	keystroke_i	i	n/a
617.315	0.09	1234630	keystroke_Key.space	Key.space	n/a
617.795	0.1195	1235590	keystroke_m	m	n/a
617.9295	0.12	1235859	keystroke_o	o	n/a
618.1395	0.105	1236279	keystroke_v	v	n/a
618.3045	0.105	1236609	keystroke_e	e	n/a
618.5445	0.105	1237089	keystroke_d	d	n/a
618.709	0.105	1237418	keystroke_Key.space	Key.space	n/a
619.144	0.12	1238288	keystroke_f	f	n/a
619.309	0.12	1238618	keystroke_a	a	n/a
619.534	0.075	1239068	keystroke_r	r	n/a
619.714	0.105	1239428	keystroke_m	m	n/a
619.894	0.1645	1239788	keystroke_e	e	n/a
620.0135	0.105	1240027	keystroke_r	r	n/a
620.1935	0.12	1240387	keystroke_s	s	n/a
620.3585	0.075	1240717	keystroke_Key.enter	Key.enter	n/a
620.438	10.2065	1240876	prompt	n/a	consolidation darkness even canada\n
621.4375	0.135	1242875	keystroke_c	c	n/a
621.5875	0.09	1243175	keystroke_o	o	n/a
621.7675	0.075	1243535	keystroke_n	n	n/a
621.9625	0.105	1243925	keystroke_s	s	n/a
622.1275	0.135	1244255	keystroke_o	o	n/a
622.3675	0.15	1244735	keystroke_l	l	n/a
622.667	0.06	1245334	keystroke_o	o	n/a
623.147	0.045	1246294	keystroke_Key.backspace	Key.backspace	n/a
623.4315	0.075	1246863	keystroke_i	i	n/a
623.7765	0.165	1247553	keystroke_d	d	n/a
623.8815	0.165	1247763	keystroke_a	a	n/a
624.1365	0.0895	1248273	keystroke_t	t	n/a
624.286	0.06	1248572	keystroke_i	i	n/a
624.466	0.075	1248932	keystroke_o	o	n/a
624.661	0.06	1249322	keystroke_n	n	n/a
624.826	0.0895	1249652	keystroke_Key.space	Key.space	n/a
625.4255	0.105	1250851	keystroke_d	d	n/a
625.5455	0.12	1251091	keystroke_a	a	n/a
625.7855	0.0745	1251571	keystroke_r	r	n/a
625.965	0.105	1251930	keystroke_k	k	n/a
626.19	0.075	1252380	keystroke_n	n	n/a
626.355	0.09	1252710	keystroke_e	e	n/a
626.7145	0.075	1253429	keystroke_s	s	n/a
626.8945	0.12	1253789	keystroke_s	s	n/a
627.0895	0.105	1254179	keystroke_Key.space	Key.space	n/a
627.584	0.09	1255168	keystroke_e	e	n/a
627.794	0.09	1255588	keystroke_v	v	n/a
627.989	0.09	1255978	keystroke_e	e	n/a
628.184	0.0895	1256368	keystroke_n	n	n/a
628.3485	0.105	1256697	keystroke_Key.space	Key.space	n/a
628.9635	0.135	1257927	keystroke_c	c	n/a
629.039	0.1495	1258078	keystroke_a	a	n/a
629.2335	0.09	1258467	keystroke_n	n	n/a
629.6985	0.12	1259397	keystroke_a	a	n/a
630.028	0.09	1260056	keystroke_d	d	n/a
630.178	0.105	1260356	keystroke_a	a	n/a
630.553	0.09	1261106	keystroke_Key.enter	Key.enter	n/a
630.647	15.425	1261294	prompt	n/a	jazz discharge shade lambda\n
631.5875	0.06	1263175	keystroke_j	j	n/a
631.7375	0.1195	1263475	keystroke_a	a	n/a
632.0375	0.0895	1264075	keystroke_z	z	n/a
632.232	0.075	1264464	keystroke_Key.shift	Key.shift	n/a
632.397	0.12	1264794	keystroke_Key.space	Key.space	n/a
633.2515	0.075	1266503	keystroke_Key.backspace	Key.backspace	n/a
633.431	0.12	1266862	keystroke_z	z	n/a
633.701	0.105	1267402	keystroke_Key.space	Key.space	n/a
634.5705	0.09	1269141	keystroke_d	d	n/a
634.7355	0.06	1269471	keystroke_i	i	n/a
634.9455	0.105	1269891	keystroke_s	s	n/a
635.665	0.105	1271330	keystroke_c	c	n/a
635.785	0.075	1271570	keystroke_h	h	n/a
635.935	0.15	1271870	keystroke_a	a	n/a
636.175	0.075	1272350	keystroke_r	r	n/a
636.6695	0.09	1273339	keystroke_g	g	n/a
636.8345	0.105	1273669	keystroke_e	e	n/a
637.5395	0.075	1275079	keystroke_Key.space	Key.space	n/a
637.6595	0.12	1275319	keystroke_s	s	n/a
637.7945	0.09	1275589	keystroke_h	h	n/a
637.9295	0.15	1275859	keystroke_a	a	n/a
638.1995	0.075	1276399	keystroke_d	d	n/a
638.3945	0.075	1276789	keystroke_e	e	n/a
638.544	0.1055	1277088	keystroke_Key.space	Key.space	n/a
638.979	0.105	1277958	keystroke_l	l	n/a
639.099	0.15	1278198	keystroke_a	a	n/a
639.324	0.0745	1278648	keystroke_n	n	n/a
639.7885	0.075	1279577	keystroke_Key.backspace	Key.backspace	n/a
640.0435	0.075	1280087	keystroke_m	m	n/a
641.0625	0.0755	1282125	keystroke_d	d	n/a
642.2025	0.06	1284405	keystroke_Key.backspace	Key.backspace	n/a
643.7465	0.06	1287493	keystroke_b	b	n/a
643.8815	0.1495	1287763	keystroke_d	d	n/a
643.971	0.1355	1287942	keystroke_a	a	n/a
646.0255	0.045	1292051	keystroke_Key.enter	Key.enter	n/a
646.075	8.5585	1292150	prompt	n/a	deck gave instruction she's\n
647.045	0.075	1294090	keystroke_d	d	n/a
647.21	0.06	1294420	keystroke_e	e	n/a
647.405	0.09	1294810	keystroke_c	c	n/a
647.6	0.075	1295200	keystroke_k	k	n/a
647.8095	0.075	1295619	keystroke_Key.space	Key.space	n/a
648.3195	0.105	1296639	keystroke_g	g	n/a
648.4095	0.1345	1296819	keystroke_a	a	n/a
648.679	0.135	1297358	keystroke_v	v	n/a
648.799	0.105	1297598	keystroke_e	e	n/a
649.009	0.12	1298018	keystroke_Key.space	Key.space	n/a
649.489	0.09	1298978	keystroke_i	i	n/a
649.654	0.075	1299308	keystroke_n	n	n/a
649.789	0.15	1299578	keystroke_s	s	n/a
649.984	0.1345	1299968	keystroke_t	t	n/a
650.1335	0.1055	1300267	keystroke_r	r	n/a
650.3135	0.09	1300627	keystroke_u	u	n/a
650.4785	0.105	1300957	keystroke_c	c	n/a
650.7185	0.075	1301437	keystroke_t	t	n/a
650.8685	0.075	1301737	keystroke_i	i	n/a
651.0485	0.0745	1302097	keystroke_o	o	n/a
651.228	0.06	1302456	keystroke_n	n	n/a
651.423	0.075	1302846	keystroke_Key.space	Key.space	n/a
651.933	0.12	1303866	keystroke_s	s	n/a
652.083	0.0745	1304166	keystroke_h	h	n/a
652.248	0.135	1304496	keystroke_e	e	n/a
652.473	0.1045	1304946	keystroke_s	s	n/a
653.4025	0.0595	1306805	keystroke_Key.backspace	Key.backspace	n/a
653.7925	0.0895	1307585	keystroke_'	'	n/a
653.927	0.15	1307854	keystroke_s	s	n/a
654.122	0.135	1308244	keystroke_Key.space	Key.space	n/a
654.5265	0.105	1309053	keystroke_Key.enter	Key.enter	n/a
654.6365	10.4935	1309273	prompt	n/a	eliminate entrance broadcast rachel\n
655.6065	0.1045	1311213	keystroke_e	e	n/a
655.741	0.105	1311482	keystroke_l	l	n/a
655.936	0.075	1311872	keystroke_i	i	n/a
656.161	0.09	1312322	keystroke_m	m	n/a
656.371	0.06	1312742	keystroke_i	i	n/a
657.0605	0.06	1314121	keystroke_n	n	n/a
657.1655	0.21	1314331	keystroke_a	a	n/a
657.3605	0.105	1314721	keystroke_t	t	n/a
657.5405	0.12	1315081	keystroke_e	e	n/a
657.915	0.105	1315830	keystroke_Key.space	Key.space	n/a
658.65	0.09	1317300	keystroke_e	e	n/a
658.9345	0.075	1317869	keystroke_n	n	n/a
659.2795	0.135	1318559	keystroke_t	t	n/a
659.3845	0.21	1318769	keystroke_r	r	n/a
659.5505	0.15	1319101	keystroke_a	a	n/a
659.7295	0.09	1319459	keystroke_n	n	n/a
659.8945	0.165	1319789	keystroke_c	c	n/a
660.0445	0.1345	1320089	keystroke_e	e	n/a
660.194	0.12	1320388	keystroke_Key.space	Key.space	n/a
660.569	0.075	1321138	keystroke_b	b	n/a
660.704	0.09	1321408	keystroke_r	r	n/a
660.914	0.09	1321828	keystroke_o	o	n/a
661.6485	0.12	1323297	keystroke_a	a	n/a
661.8885	0.105	1323777	keystroke_d	d	n/a
662.3835	0.1495	1324767	keystroke_c	c	n/a
662.4885	0.1345	1324977	keystroke_a	a	n/a
662.683	0.135	1325366	keystroke_s	s	n/a
662.923	0.09	1325846	keystroke_t	t	n/a
663.328	0.1195	1326656	keystroke_Key.space	Key.space	n/a
663.7175	0.105	1327435	keystroke_r	r	n/a
663.8375	0.12	1327675	keystroke_a	a	n/a
664.1075	0.12	1328215	keystroke_c	c	n/a
664.2725	0.09	1328545	keystroke_h	h	n/a
664.4235	0.134	1328847	keystroke_e	e	n/a
664.6175	0.12	1329235	keystroke_l	l	n/a
665.0525	0.075	1330105	keystroke_Key.enter	Key.enter	n/a
665.1345	16.024	1330269	prompt	n/a	therapeutic hopes plot hebrew\n
666.012	0.09	1332024	keystroke_t	t	n/a
666.147	0.09	1332294	keystroke_h	h	n/a
666.357	0.1195	1332714	keystroke_e	e	n/a
666.5665	0.075	1333133	keystroke_r	r	n/a
666.7475	0.119	1333495	keystroke_a	a	n/a
667.1515	0.105	1334303	keystroke_p	p	n/a
667.3615	0.0605	1334723	keystroke_u	u	n/a
668.9355	0.061	1337871	keystroke_Key.backspace	Key.backspace	n/a
669.1305	0.105	1338261	keystroke_e	e	n/a
669.745	0.076	1339490	keystroke_u	u	n/a
670.046	0.059	1340092	keystroke_t	t	n/a
670.165	0.075	1340330	keystroke_i	i	n/a
670.346	0.1035	1340692	keystroke_c	c	n/a
671.365	0.09	1342730	keystroke_Key.space	Key.space	n/a
671.575	0.075	1343150	keystroke_h	h	n/a
671.755	0.075	1343510	keystroke_o	o	n/a
671.965	0.075	1343930	keystroke_l	l	n/a
672.4	0.09	1344800	keystroke_Key.backspace	Key.backspace	n/a
672.9845	0.06	1345969	keystroke_p	p	n/a
673.1195	0.105	1346239	keystroke_e	e	n/a
673.2845	0.1345	1346569	keystroke_s	s	n/a
673.479	0.09	1346958	keystroke_Key.space	Key.space	n/a
674.079	0.105	1348158	keystroke_p	p	n/a
674.304	0.105	1348608	keystroke_l	l	n/a
674.544	0.075	1349088	keystroke_o	o	n/a
674.559	0.015	1349118	keystroke_p	p	n/a
674.754	0.09	1349508	keystroke_t	t	n/a
674.934	0.075	1349868	keystroke_Key.space	Key.space	n/a
675.5485	0.06	1351097	keystroke_h	h	n/a
675.6685	0.105	1351337	keystroke_e	e	n/a
676.3435	0.075	1352687	keystroke_Key.backspace	Key.backspace	n/a
676.596	0.023	1353192	keystroke_Key.backspace	Key.backspace	n/a
676.84	0.023	1353680	keystroke_Key.backspace	Key.backspace	n/a
677.112	0.025	1354224	keystroke_Key.backspace	Key.backspace	n/a
678.5925	0.06	1357185	keystroke_o	o	n/a
679.027	0.09	1358054	keystroke_t	t	n/a
679.147	0.105	1358294	keystroke_Key.space	Key.space	n/a
679.942	0.09	1359884	keystroke_h	h	n/a
680.0915	0.105	1360183	keystroke_e	e	n/a
680.332	0.075	1360664	keystroke_b	b	n/a
680.5415	0.12	1361083	keystroke_r	r	n/a
680.6315	0.15	1361263	keystroke_e	e	n/a
680.8865	0.12	1361773	keystroke_w	w	n/a
681.0815	0.075	1362163	keystroke_Key.enter	Key.enter	n/a
681.1615	9.983	1362323	prompt	n/a	nicole metallic iceland affiliated\n
682.071	0.0745	1364142	keystroke_n	n	n/a
682.2205	0.09	1364441	keystroke_i	i	n/a
682.371	0.12	1364742	keystroke_c	c	n/a
682.506	0.0895	1365012	keystroke_o	o	n/a
682.6855	0.075	1365371	keystroke_l	l	n/a
682.8505	0.075	1365701	keystroke_e	e	n/a
682.9855	0.135	1365971	keystroke_Key.space	Key.space	n/a
683.3605	0.075	1366721	keystroke_m	m	n/a
683.4955	0.105	1366991	keystroke_e	e	n/a
684.0505	0.09	1368101	keystroke_t	t	n/a
684.2	0.12	1368400	keystroke_a	a	n/a
684.4555	0.0895	1368911	keystroke_l	l	n/a
684.605	0.135	1369210	keystroke_l	l	n/a
684.845	0.06	1369690	keystroke_i	i	n/a
684.995	0.12	1369990	keystroke_c	c	n/a
685.505	0.105	1371010	keystroke_Key.space	Key.space	n/a
686.3295	0.075	1372659	keystroke_i	i	n/a
686.4945	0.09	1372989	keystroke_c	c	n/a
686.6595	0.09	1373319	keystroke_e	e	n/a
687.0345	0.0745	1374069	keystroke_l	l	n/a
687.169	0.12	1374338	keystroke_a	a	n/a
687.334	0.075	1374668	keystroke_n	n	n/a
687.499	0.09	1374998	keystroke_d	d	n/a
688.054	0.105	1376108	keystroke_Key.space	Key.space	n/a
688.264	0.105	1376528	keystroke_a	a	n/a
688.5635	0.045	1377127	keystroke_f	f	n/a
688.7135	0.075	1377427	keystroke_f	f	n/a
688.9385	0.09	1377877	keystroke_i	i	n/a
689.4635	0.12	1378927	keystroke_l	l	n/a
689.673	0.075	1379346	keystroke_i	i	n/a
690.123	0.12	1380246	keystroke_a	a	n/a
690.393	0.09	1380786	keystroke_t	t	n/a
690.588	0.105	1381176	keystroke_e	e	n/a
690.798	0.105	1381596	keystroke_d	d	n/a
691.083	0.0595	1382166	keystroke_Key.enter	Key.enter	n/a
691.1495	11.5715	1382299	prompt	n/a	editors rats an husband\n
692.027	0.075	1384054	keystroke_e	e	n/a
692.222	0.105	1384444	keystroke_d	d	n/a
692.417	0.09	1384834	keystroke_i	i	n/a
692.672	0.09	1385344	keystroke_t	t	n/a
692.897	0.03	1385794	keystroke_i	i	n/a
693.3915	0.0755	1386783	keystroke_Key.backspace	Key.backspace	n/a
693.6465	0.075	1387293	keystroke_o	o	n/a
694.936	0.0905	1389872	keystroke_r	r	n/a
695.1315	0.1345	1390263	keystroke_s	s	n/a
695.311	0.12	1390622	keystroke_Key.space	Key.space	n/a
696.076	0.1345	1392152	keystroke_r	r	n/a
696.166	0.1645	1392332	keystroke_a	a	n/a
696.451	0.0745	1392902	keystroke_t	t	n/a
696.6755	0.135	1393351	keystroke_s	s	n/a
696.8255	0.105	1393651	keystroke_Key.space	Key.space	n/a
697.1855	0.135	1394371	keystroke_a	a	n/a
697.4555	0.105	1394911	keystroke_s	s	n/a
697.8905	0.075	1395781	keystroke_Key.backspace	Key.backspace	n/a
698.1455	0.075	1396291	keystroke_n	n	n/a
698.4305	0.12	1396861	keystroke_Key.space	Key.space	n/a
699.24	0.06	1398480	keystroke_h	h	n/a
699.405	0.06	1398810	keystroke_u	u	n/a
699.525	0.135	1399050	keystroke_s	s	n/a
700.095	0.09	1400190	keystroke_b	b	n/a
700.2	0.135	1400400	keystroke_a	a	n/a
701.25	0.0745	1402500	keystroke_n	n	n/a
701.3545	0.135	1402709	keystroke_d	d	n/a
701.4445	0.09	1402889	keystroke_Key.space	Key.space	n/a
702.659	0.06	1405318	keystroke_Key.enter	Key.enter	n/a
702.724	15.2925	1405448	prompt	n/a	alabama frost failures succeed\n
704.0245	0.105	1408049	keystroke_a	a	n/a
704.1745	0.105	1408349	keystroke_l	l	n/a
704.3245	0.12	1408649	keystroke_a	a	n/a
704.624	0.09	1409248	keystroke_m	m	n/a
705.149	0.075	1410298	keystroke_Key.backspace	Key.backspace	n/a
705.419	0.075	1410838	keystroke_b	b	n/a
706.4085	0.12	1412817	keystroke_a	a	n/a
706.619	0.1045	1413238	keystroke_m	m	n/a
706.9935	0.105	1413987	keystroke_a	a	n/a
707.4285	0.12	1414857	keystroke_Key.space	Key.space	n/a
707.8785	0.105	1415757	keystroke_f	f	n/a
707.9985	0.09	1415997	keystroke_r	r	n/a
708.163	0.105	1416326	keystroke_o	o	n/a
708.328	0.105	1416656	keystroke_s	s	n/a
708.538	0.075	1417076	keystroke_t	t	n/a
709.078	0.105	1418156	keystroke_Key.space	Key.space	n/a
709.498	0.15	1418996	keystroke_f	f	n/a
709.5875	0.165	1419175	keystroke_a	a	n/a
709.7825	0.09	1419565	keystroke_i	i	n/a
709.9925	0.12	1419985	keystroke_l	l	n/a
711.2525	0.075	1422505	keystroke_u	u	n/a
711.3875	0.18	1422775	keystroke_e	e	n/a
711.4925	0.135	1422985	keystroke_r	r	n/a
711.732	0.105	1423464	keystroke_s	s	n/a
711.972	0.105	1423944	keystroke_Key.space	Key.space	n/a
712.647	0.18	1425294	keystroke_Key.backspace	Key.backspace	n/a
712.842	0.015	1425684	keystroke_Key.backspace	Key.backspace	n/a
712.977	0.045	1425954	keystroke_Key.backspace	Key.backspace	n/a
713.142	0.06	1426284	keystroke_Key.backspace	Key.backspace	n/a
714.2515	0.1355	1428503	keystroke_r	r	n/a
714.357	0.165	1428714	keystroke_e	e	n/a
714.642	0.1195	1429284	keystroke_s	s	n/a
714.8815	0.105	1429763	keystroke_Key.space	Key.space	n/a
715.541	0.12	1431082	keystroke_s	s	n/a
715.691	0.09	1431382	keystroke_u	u	n/a
716.171	0.0895	1432342	keystroke_c	c	n/a
716.4255	0.105	1432851	keystroke_c	c	n/a
716.6655	0.09	1433331	keystroke_e	e	n/a
716.8905	0.075	1433781	keystroke_e	e	n/a
717.2205	0.0595	1434441	keystroke_s	s	n/a
717.67	0.045	1435340	keystroke_Key.backspace	Key.backspace	n/a
717.73	0.075	1435460	keystroke_d	d	n/a
717.925	0.09	1435850	keystroke_Key.enter	Key.enter	n/a
718.0195	7.3155	1436039	prompt	n/a	alleged command tunes parking\n
718.855	0.105	1437710	keystroke_a	a	n/a
719.005	0.075	1438010	keystroke_l	l	n/a
719.2	0.075	1438400	keystroke_l	l	n/a
719.38	0.09	1438760	keystroke_e	e	n/a
719.7995	0.09	1439599	keystroke_g	g	n/a
719.9945	0.06	1439989	keystroke_e	e	n/a
720.2345	0.105	1440469	keystroke_d	d	n/a
720.4745	0.1045	1440949	keystroke_Key.space	Key.space	n/a
720.894	0.135	1441788	keystroke_c	c	n/a
721.044	0.075	1442088	keystroke_o	o	n/a
721.224	0.06	1442448	keystroke_m	m	n/a
721.374	0.09	1442748	keystroke_m	m	n/a
721.539	0.12	1443078	keystroke_a	a	n/a
721.674	0.09	1443348	keystroke_n	n	n/a
721.839	0.09	1443678	keystroke_d	d	n/a
722.004	0.09	1444008	keystroke_Key.space	Key.space	n/a
722.709	0.1195	1445418	keystroke_t	t	n/a
722.844	0.0295	1445688	keystroke_u	u	n/a
723.009	0.075	1446018	keystroke_n	n	n/a
723.1435	0.075	1446287	keystroke_e	e	n/a
723.3685	0.105	1446737	keystroke_s	s	n/a
723.5485	0.09	1447097	keystroke_Key.space	Key.space	n/a
724.1785	0.09	1448357	keystroke_p	p	n/a
724.3135	0.135	1448627	keystroke_a	a	n/a
724.4785	0.0895	1448957	keystroke_r	r	n/a
724.598	0.09	1449196	keystroke_k	k	n/a
724.793	0.075	1449586	keystroke_i	i	n/a
724.928	0.0905	1449856	keystroke_n	n	n/a
725.078	0.075	1450156	keystroke_g	g	n/a
725.318	0.015	1450636	keystroke_Key.enter	Key.enter	n/a
725.338	13.224	1450676	prompt	n/a	lectures defined reporters bend\n
726.113	0.1045	1452226	keystroke_l	l	n/a
726.2625	0.09	1452525	keystroke_e	e	n/a
726.4725	0.09	1452945	keystroke_c	c	n/a
726.6975	0.06	1453395	keystroke_t	t	n/a
726.8625	0.075	1453725	keystroke_u	u	n/a
727.0575	0.135	1454115	keystroke_r	r	n/a
727.1925	0.105	1454385	keystroke_e	e	n/a
727.4175	0.105	1454835	keystroke_s	s	n/a
727.5975	0.09	1455195	keystroke_Key.space	Key.space	n/a
728.002	0.12	1456004	keystroke_d	d	n/a
728.272	0.06	1456544	keystroke_e	e	n/a
728.482	0.06	1456964	keystroke_f	f	n/a
728.647	0.075	1457294	keystroke_i	i	n/a
728.827	0.075	1457654	keystroke_n	n	n/a
729.097	0.06	1458194	keystroke_e	e	n/a
729.3215	0.075	1458643	keystroke_d	d	n/a
729.5165	0.1055	1459033	keystroke_Key.space	Key.space	n/a
729.9365	0.12	1459873	keystroke_r	r	n/a
730.0415	0.135	1460083	keystroke_e	e	n/a
730.2365	0.105	1460473	keystroke_p	p	n/a
731.7065	0.06	1463413	keystroke_o	o	n/a
731.9015	0.075	1463803	keystroke_r	r	n/a
732.0815	0.06	1464163	keystroke_t	t	n/a
732.2615	0.075	1464523	keystroke_e	e	n/a
732.5915	0.0745	1465183	keystroke_r	r	n/a
732.8165	0.1045	1465633	keystroke_s	s	n/a
732.981	0.09	1465962	keystroke_Key.space	Key.space	n/a
733.461	0.045	1466922	keystroke_b	b	n/a
733.476	0.031	1466952	keystroke_n	n	n/a
733.566	0.075	1467132	keystroke_e	e	n/a
733.791	0.135	1467582	keystroke_d	d	n/a
734.535	0.023	1469070	keystroke_Key.backspace	Key.backspace	n/a
734.736	0.06	1469472	keystroke_Key.backspace	Key.backspace	n/a
734.893	0.024	1469786	keystroke_Key.backspace	Key.backspace	n/a
735.036	0.0745	1470072	keystroke_e	e	n/a
735.5485	0.024	1471097	keystroke_Key.backspace	Key.backspace	n/a
736.8955	0.09	1473791	keystroke_Key.space	Key.space	n/a
737.675	0.06	1475350	keystroke_b	b	n/a
737.795	0.105	1475590	keystroke_e	e	n/a
737.99	0.075	1475980	keystroke_n	n	n/a
738.155	0.075	1476310	keystroke_d	d	n/a
738.515	0.045	1477030	keystroke_Key.enter	Key.enter	n/a
738.5655	9.1895	1477131	prompt	n/a	qualify free inbox parenting\n
740.2095	0.12	1480419	keystroke_q	q	n/a
740.405	0.105	1480810	keystroke_u	u	n/a
741.0045	0.135	1482009	keystroke_a	a	n/a
741.2595	0.105	1482519	keystroke_l	l	n/a
742.1295	0.0745	1484259	keystroke_i	i	n/a
742.294	0.09	1484588	keystroke_f	f	n/a
742.474	0.075	1484948	keystroke_y	y	n/a
742.669	0.12	1485338	keystroke_Key.space	Key.space	n/a
742.894	0.105	1485788	keystroke_f	f	n/a
743.044	0.09	1486088	keystroke_r	r	n/a
743.269	0.06	1486538	keystroke_e	e	n/a
743.449	0.09	1486898	keystroke_e	e	n/a
743.584	0.105	1487168	keystroke_Key.space	Key.space	n/a
743.7935	0.0905	1487587	keystroke_i	i	n/a
743.989	0.0895	1487978	keystroke_n	n	n/a
744.529	0.0745	1489058	keystroke_b	b	n/a
744.7235	0.075	1489447	keystroke_o	o	n/a
745.7135	0.105	1491427	keystroke_x	x	n/a
745.8785	0.105	1491757	keystroke_Key.space	Key.space	n/a
746.1185	0.105	1492237	keystroke_p	p	n/a
746.2535	0.2095	1492507	keystroke_a	a	n/a
746.448	0.12	1492896	keystroke_r	r	n/a
746.643	0.105	1493286	keystroke_e	e	n/a
746.808	0.12	1493616	keystroke_n	n	n/a
746.958	0.09	1493916	keystroke_t	t	n/a
747.123	0.105	1494246	keystroke_i	i	n/a
747.318	0.075	1494636	keystroke_n	n	n/a
747.438	0.105	1494876	keystroke_g	g	n/a
747.663	0.09	1495326	keystroke_Key.enter	Key.enter	n/a
747.7575	9.131	1495515	prompt	n/a	subscribe screenshot on amongst\n
748.668	0.12	1497336	keystroke_s	s	n/a
748.803	0.075	1497606	keystroke_u	u	n/a
749.058	0.0895	1498116	keystroke_b	b	n/a
749.5525	0.12	1499105	keystroke_s	s	n/a
749.9275	0.09	1499855	keystroke_c	c	n/a
750.1525	0.09	1500305	keystroke_r	r	n/a
750.3625	0.075	1500725	keystroke_i	i	n/a
750.6775	0.09	1501355	keystroke_b	b	n/a
751.0375	0.105	1502075	keystroke_e	e	n/a
751.3375	0.015	1502675	keystroke_Key.space	Key.space	n/a
751.5625	0.105	1503125	keystroke_s	s	n/a
751.7425	0.12	1503485	keystroke_c	c	n/a
751.997	0.105	1503994	keystroke_r	r	n/a
752.222	0.09	1504444	keystroke_e	e	n/a
752.462	0.075	1504924	keystroke_e	e	n/a
752.717	0.075	1505434	keystroke_n	n	n/a
753.107	0.135	1506214	keystroke_s	s	n/a
753.227	0.09	1506454	keystroke_h	h	n/a
753.4965	0.0155	1506993	keystroke_o	o	n/a
753.6465	0.075	1507293	keystroke_t	t	n/a
754.2015	0.12	1508403	keystroke_Key.space	Key.space	n/a
754.3965	0.105	1508793	keystroke_o	o	n/a
754.6065	0.075	1509213	keystroke_n	n	n/a
754.7565	0.105	1509513	keystroke_Key.space	Key.space	n/a
754.936	0.135	1509872	keystroke_a	a	n/a
755.116	0.12	1510232	keystroke_m	m	n/a
755.281	0.105	1510562	keystroke_o	o	n/a
755.476	0.09	1510952	keystroke_n	n	n/a
756.137	0.074	1512274	keystroke_g	g	n/a
756.346	0.105	1512692	keystroke_s	s	n/a
756.571	0.076	1513142	keystroke_t	t	n/a
756.826	0.06	1513652	keystroke_Key.enter	Key.enter	n/a
756.8915	6.445	1513783	prompt	n/a	others cursor we myrtle\n
757.696	0.105	1515392	keystroke_o	o	n/a
757.8455	0.0905	1515691	keystroke_t	t	n/a
758.011	0.075	1516022	keystroke_h	h	n/a
758.131	0.15	1516262	keystroke_e	e	n/a
758.236	0.1195	1516472	keystroke_r	r	n/a
758.4755	0.075	1516951	keystroke_s	s	n/a
758.6405	0.105	1517281	keystroke_Key.space	Key.space	n/a
759.0615	0.104	1518123	keystroke_c	c	n/a
759.1805	0.105	1518361	keystroke_u	u	n/a
759.3455	0.09	1518691	keystroke_r	r	n/a
759.6755	0.12	1519351	keystroke_s	s	n/a
759.8105	0.105	1519621	keystroke_o	o	n/a
760.0355	0.105	1520071	keystroke_r	r	n/a
760.3355	0.105	1520671	keystroke_Key.space	Key.space	n/a
760.905	0.165	1521810	keystroke_w	w	n/a
761.055	0.105	1522110	keystroke_e	e	n/a
761.22	0.12	1522440	keystroke_Key.space	Key.space	n/a
761.595	0.105	1523190	keystroke_m	m	n/a
761.835	0.075	1523670	keystroke_y	y	n/a
762.42	0.09	1524840	keystroke_r	r	n/a
762.6	0.09	1525200	keystroke_t	t	n/a
762.765	0.09	1525530	keystroke_l	l	n/a
762.945	0.12	1525890	keystroke_e	e	n/a
763.2745	0.06	1526549	keystroke_Key.enter	Key.enter	n/a
763.339	8.951	1526678	prompt	n/a	elsewhere nikon junior mails\n
764.1005	0.059	1528201	keystroke_e	e	n/a
764.2345	0.09	1528469	keystroke_l	l	n/a
764.3995	0.241	1528799	keystroke_s	s	n/a
764.5795	0.135	1529159	keystroke_e	e	n/a
765.4195	0.15	1530839	keystroke_w	w	n/a
765.5705	0.089	1531141	keystroke_h	h	n/a
765.7655	0.1485	1531531	keystroke_e	e	n/a
765.8695	0.1805	1531739	keystroke_r	r	n/a
766.05	0.104	1532100	keystroke_e	e	n/a
766.259	0.09	1532518	keystroke_Key.space	Key.space	n/a
766.739	0.015	1533478	keystroke_n	n	n/a
767.744	0.12	1535488	keystroke_i	i	n/a
767.9685	0.075	1535937	keystroke_k	k	n/a
768.1935	0.076	1536387	keystroke_o	o	n/a
768.4785	0.075	1536957	keystroke_n	n	n/a
768.7035	0.09	1537407	keystroke_Key.space	Key.space	n/a
769.1235	0.061	1538247	keystroke_j	j	n/a
769.2885	0.06	1538577	keystroke_u	u	n/a
769.4845	0.09	1538969	keystroke_n	n	n/a
769.8145	0.059	1539629	keystroke_i	i	n/a
769.994	0.0905	1539988	keystroke_o	o	n/a
770.398	0.121	1540796	keystroke_r	r	n/a
771.043	0.105	1542086	keystroke_Key.space	Key.space	n/a
