onset	duration	sample	value	key	prompt_text
8.5535	10.649	17107	prompt	n/a	the quick brown fox jumps over a lazy dog\n
10.3215	0.013	20643	keystroke_t	t	n/a
10.4095	0.0905	20819	keystroke_h	h	n/a
10.484	0.1055	20968	keystroke_e	e	n/a
10.634	0.105	21268	keystroke_Key.space	Key.space	n/a
11.069	0.091	22138	keystroke_q	q	n/a
11.31	0.074	22620	keystroke_u	u	n/a
11.3245	0.15	22649	keystroke_i	i	n/a
11.5195	0.0605	23039	keystroke_c	c	n/a
11.6095	0.15	23219	keystroke_k	k	n/a
11.7605	0.0895	23521	keystroke_Key.space	Key.space	n/a
12.24	0.06	24480	keystroke_b	b	n/a
12.4795	0.0905	24959	keystroke_r	r	n/a
12.585	0.1495	25170	keystroke_o	o	n/a
12.6745	0.105	25349	keystroke_w	w	n/a
12.7945	0.1195	25589	keystroke_n	n	n/a
12.8695	0.1045	25739	keystroke_Key.space	Key.space	n/a
13.1995	0.105	26399	keystroke_f	f	n/a
13.3345	0.1205	26669	keystroke_o	o	n/a
13.4845	0.105	26969	keystroke_x	x	n/a
13.6345	0.09	27269	keystroke_Key.space	Key.space	n/a
13.769	0.0905	27538	keystroke_j	j	n/a
13.9495	0.1055	27899	keystroke_u	u	n/a
14.399	0.1055	28798	keystroke_m	m	n/a
14.625	0.1205	29250	keystroke_p	p	n/a
14.7895	0.075	29579	keystroke_s	s	n/a
15.014	0.045	30028	keystroke_Key.space	Key.space	n/a
15.135	0.1195	30270	keystroke_o	o	n/a
15.4045	0.0605	30809	keystroke_v	v	n/a
15.5395	0.105	31079	keystroke_e	e	n/a
15.7045	0.0905	31409	keystroke_r	r	n/a
15.8095	0.0895	31619	keystroke_Key.space	Key.space	n/a
15.945	0.105	31890	keystroke_a	a	n/a
16.019	0.09	32038	keystroke_Key.space	Key.space	n/a
16.154	0.12	32308	keystroke_l	l	n/a
16.8745	0.09	33749	keystroke_a	a	n/a
17.205	0.1045	34410	keystroke_y	y	n/a
17.3245	0.1045	34649	keystroke_z	z	n/a
17.7895	0.0605	35579	keystroke_Key.backspace	Key.backspace	n/a
17.909	0.121	35818	keystroke_Key.backspace	Key.backspace	n/a
18.015	0.0895	36030	keystroke_z	z	n/a
18.2245	0.0445	36449	keystroke_y	y	n/a
18.375	0.075	36750	keystroke_Key.space	Key.space	n/a
18.57	0.0445	37140	keystroke_d	d	n/a
18.645	0.1205	37290	keystroke_o	o	n/a
18.87	0.06	37740	keystroke_g	g	n/a
19.1245	0.075	38249	keystroke_Key.enter	Key.enter	n/a
19.208	6.144	38416	prompt	n/a	couples moves wildlife hockey\n
20.07	0.09	40140	keystroke_c	c	n/a
20.535	0.105	41070	keystroke_o	o	n/a
20.8795	0.1045	41759	keystroke_u	u	n/a
21.1195	0.1055	42239	keystroke_p	p	n/a
21.33	0.1345	42660	keystroke_l	l	n/a
21.45	0.0745	42900	keystroke_e	e	n/a
21.645	0.104	43290	keystroke_s	s	n/a
21.7645	0.0755	43529	keystroke_Key.space	Key.space	n/a
21.8845	0.151	43769	keystroke_m	m	n/a
22.0045	0.1355	44009	keystroke_o	o	n/a
22.094	0.1055	44188	keystroke_v	v	n/a
22.274	0.09	44548	keystroke_e	e	n/a
22.485	0.09	44970	keystroke_s	s	n/a
22.6045	0.0905	45209	keystroke_Key.space	Key.space	n/a
22.785	0.09	45570	keystroke_w	w	n/a
22.86	0.1055	45720	keystroke_i	i	n/a
23.069	0.121	46138	keystroke_l	l	n/a
23.175	0.0755	46350	keystroke_d	d	n/a
23.3545	0.091	46709	keystroke_l	l	n/a
23.519	0.075	47038	keystroke_i	i	n/a
23.669	0.0905	47338	keystroke_f	f	n/a
23.88	0.075	47760	keystroke_e	e	n/a
24.0145	0.075	48029	keystroke_Key.space	Key.space	n/a
24.1945	0.1655	48389	keystroke_h	h	n/a
24.285	0.1805	48570	keystroke_o	o	n/a
24.525	0.075	49050	keystroke_c	c	n/a
24.645	0.149	49290	keystroke_k	k	n/a
24.825	0.0745	49650	keystroke_e	e	n/a
24.9745	0.0905	49949	keystroke_y	y	n/a
25.2595	0.0895	50519	keystroke_Key.enter	Key.enter	n/a
25.357	7.615	50714	prompt	n/a	foster access patents university\n
26.61	0.09	53220	keystroke_f	f	n/a
26.715	0.134	53430	keystroke_o	o	n/a
26.835	0.1195	53670	keystroke_s	s	n/a
27.1055	0.0595	54211	keystroke_t	t	n/a
27.27	0.105	54540	keystroke_e	e	n/a
27.48	0.09	54960	keystroke_r	r	n/a
27.6145	0.0905	55229	keystroke_Key.space	Key.space	n/a
27.78	0.1045	55560	keystroke_a	a	n/a
28.0355	0.0445	56071	keystroke_c	c	n/a
28.1395	0.0905	56279	keystroke_c	c	n/a
28.4395	0.09	56879	keystroke_e	e	n/a
28.68	0.0745	57360	keystroke_s	s	n/a
28.89	0.06	57780	keystroke_s	s	n/a
29.505	0.075	59010	keystroke_Key.space	Key.space	n/a
29.6995	0.12	59399	keystroke_p	p	n/a
29.8645	0.046	59729	keystroke_a	a	n/a
30.0745	0.0905	60149	keystroke_t	t	n/a
30.2245	0.136	60449	keystroke_e	e	n/a
30.3745	0.12	60749	keystroke_n	n	n/a
30.4955	0.0745	60991	keystroke_t	t	n/a
30.7355	0.09	61471	keystroke_s	s	n/a
30.8845	0.09	61769	keystroke_Key.space	Key.space	n/a
31.0645	0.075	62129	keystroke_u	u	n/a
31.275	0.1045	62550	keystroke_n	n	n/a
31.4095	0.1355	62819	keystroke_i	i	n/a
31.545	0.1045	63090	keystroke_v	v	n/a
31.7095	0.1345	63419	keystroke_e	e	n/a
31.92	0.089	63840	keystroke_r	r	n/a
32.145	0.12	64290	keystroke_s	s	n/a
32.25	0.09	64500	keystroke_i	i	n/a
32.43	0.09	64860	keystroke_t	t	n/a
32.58	0.075	65160	keystroke_y	y	n/a
32.88	0.09	65760	keystroke_Key.enter	Key.enter	n/a
32.977	7.81	65954	prompt	n/a	social bread hereby analyzes\n
34.035	0.074	68070	keystroke_s	s	n/a
34.095	0.104	68190	keystroke_o	o	n/a
34.26	0.105	68520	keystroke_c	c	n/a
34.349	0.106	68698	keystroke_i	i	n/a
34.5	0.1355	69000	keystroke_a	a	n/a
34.604	0.1805	69208	keystroke_l	l	n/a
34.7695	0.105	69539	keystroke_Key.space	Key.space	n/a
34.9345	0.045	69869	keystroke_b	b	n/a
34.95	0.015	69900	keystroke_v	v	n/a
35.1745	0.105	70349	keystroke_r	r	n/a
35.34	0.1045	70680	keystroke_e	e	n/a
35.4895	0.135	70979	keystroke_a	a	n/a
35.7295	0.0605	71459	keystroke_d	d	n/a
35.8195	0.09	71639	keystroke_Key.space	Key.space	n/a
36.1195	0.135	72239	keystroke_h	h	n/a
36.2695	0.091	72539	keystroke_e	e	n/a
36.4655	0.119	72931	keystroke_r	r	n/a
36.5555	0.1335	73111	keystroke_e	e	n/a
36.795	0.135	73590	keystroke_b	b	n/a
36.975	0.0895	73950	keystroke_y	y	n/a
37.8445	0.0905	75689	keystroke_Key.space	Key.space	n/a
38.0695	0.0755	76139	keystroke_a	a	n/a
38.1455	0.104	76291	keystroke_n	n	n/a
38.2645	0.09	76529	keystroke_a	a	n/a
39.12	0.1195	78240	keystroke_l	l	n/a
39.3745	0.06	78749	keystroke_y	y	n/a
39.4495	0.12	78899	keystroke_z	z	n/a
39.705	0.06	79410	keystroke_e	e	n/a
40.545	0.0745	81090	keystroke_s	s	n/a
40.6945	0.09	81389	keystroke_Key.enter	Key.enter	n/a
40.7915	6.4905	81583	prompt	n/a	morocco enter believes canon\n
41.5655	0.0895	83131	keystroke_m	m	n/a
41.759	0.106	83518	keystroke_o	o	n/a
41.9995	0.09	83999	keystroke_r	r	n/a
42.1795	0.105	84359	keystroke_o	o	n/a
42.36	0.09	84720	keystroke_c	c	n/a
42.495	0.0895	84990	keystroke_c	c	n/a
42.63	0.1345	85260	keystroke_o	o	n/a
42.795	0.105	85590	keystroke_Key.space	Key.space	n/a
43.0495	0.0905	86099	keystroke_e	e	n/a
43.1245	0.09	86249	keystroke_n	n	n/a
43.2745	0.0605	86549	keystroke_t	t	n/a
43.44	0.105	86880	keystroke_e	e	n/a
43.65	0.0745	87300	keystroke_r	r	n/a
43.74	0.1345	87480	keystroke_Key.space	Key.space	n/a
43.9495	0.0455	87899	keystroke_b	b	n/a
44.73	0.06	89460	keystroke_e	e	n/a
44.865	0.135	89730	keystroke_l	l	n/a
45.06	0.12	90120	keystroke_i	i	n/a
45.346	0.074	90692	keystroke_e	e	n/a
45.57	0.089	91140	keystroke_v	v	n/a
45.735	0.09	91470	keystroke_e	e	n/a
45.9595	0.06	91919	keystroke_s	s	n/a
46.0945	0.09	92189	keystroke_Key.space	Key.space	n/a
46.455	0.15	92910	keystroke_c	c	n/a
46.5895	0.1205	93179	keystroke_a	a	n/a
46.7245	0.105	93449	keystroke_n	n	n/a
46.845	0.1495	93690	keystroke_o	o	n/a
46.9795	0.1055	93959	keystroke_n	n	n/a
47.2045	0.0755	94409	keystroke_Key.enter	Key.enter	n/a
47.2865	8.8005	94573	prompt	n/a	complaints marion worth clarke\n
47.9545	0.075	95909	keystroke_c	c	n/a
47.9995	0.1355	95999	keystroke_o	o	n/a
48.18	0.0895	96360	keystroke_m	m	n/a
48.3145	0.105	96629	keystroke_p	p	n/a
48.539	0.09	97078	keystroke_l	l	n/a
48.615	0.09	97230	keystroke_a	a	n/a
49.065	0.0295	98130	keystroke_i	i	n/a
49.14	0.1345	98280	keystroke_n	n	n/a
49.365	0.09	98730	keystroke_t	t	n/a
50.13	0.015	100260	keystroke_s	s	n/a
50.31	0.075	100620	keystroke_Key.space	Key.space	n/a
50.6395	0.06	101279	keystroke_m	m	n/a
50.73	0.135	101460	keystroke_a	a	n/a
51.3295	0.06	102659	keystroke_r	r	n/a
51.69	0.1495	103380	keystroke_i	i	n/a
51.7795	0.135	103559	keystroke_o	o	n/a
51.9595	0.105	103919	keystroke_n	n	n/a
52.1845	0.0755	104369	keystroke_Key.space	Key.space	n/a
52.5745	0.09	105149	keystroke_w	w	n/a
52.635	0.1045	105270	keystroke_o	o	n/a
53.235	0.0595	106470	keystroke_r	r	n/a
53.4145	0.075	106829	keystroke_t	t	n/a
53.5045	0.09	107009	keystroke_h	h	n/a
53.7745	0.0755	107549	keystroke_Key.space	Key.space	n/a
54.0445	0.0905	108089	keystroke_c	c	n/a
54.24	0.119	108480	keystroke_l	l	n/a
54.345	0.075	108690	keystroke_a	a	n/a
55.02	0.045	110040	keystroke_r	r	n/a
55.575	0.06	111150	keystroke_k	k	n/a
55.799	0.06	111598	keystroke_e	e	n/a
55.995	0.09	111990	keystroke_Key.enter	Key.enter	n/a
56.092	10.09	112184	prompt	n/a	watts merger australia anger\n
56.895	0.075	113790	keystroke_w	w	n/a
57.075	0.1205	114150	keystroke_a	a	n/a
57.36	0.06	114720	keystroke_t	t	n/a
57.48	0.1055	114960	keystroke_t	t	n/a
57.765	0.105	115530	keystroke_s	s	n/a
57.96	0.0745	115920	keystroke_Key.space	Key.space	n/a
58.125	0.12	116250	keystroke_m	m	n/a
58.2155	0.104	116431	keystroke_e	e	n/a
58.4245	0.075	116849	keystroke_r	r	n/a
58.6495	0.0755	117299	keystroke_g	g	n/a
58.815	0.105	117630	keystroke_e	e	n/a
59.024	0.106	118048	keystroke_r	r	n/a
59.189	0.1055	118378	keystroke_Key.space	Key.space	n/a
59.3395	0.091	118679	keystroke_a	a	n/a
59.625	0.015	119250	keystroke_u	u	n/a
59.835	0.0905	119670	keystroke_s	s	n/a
60.1055	0.0595	120211	keystroke_t	t	n/a
60.42	0.075	120840	keystroke_r	r	n/a
60.6595	0.0905	121319	keystroke_a	a	n/a
60.9445	0.121	121889	keystroke_l	l	n/a
61.185	0.12	122370	keystroke_i	i	n/a
61.29	0.075	122580	keystroke_a	a	n/a
61.425	0.075	122850	keystroke_Key.space	Key.space	n/a
61.695	0.06	123390	keystroke_e	e	n/a
61.8	0.105	123600	keystroke_n	n	n/a
62.3545	0.06	124709	keystroke_g	g	n/a
62.8345	0.06	125669	keystroke_Key.backspace	Key.backspace	n/a
62.9845	0.075	125969	keystroke_Key.backspace	Key.backspace	n/a
63.1945	0.075	126389	keystroke_Key.backspace	Key.backspace	n/a
63.4805	0.1045	126961	keystroke_a	a	n/a
64.83	0.075	129660	keystroke_n	n	n/a
64.9945	0.0755	129989	keystroke_g	g	n/a
65.1445	0.09	130289	keystroke_e	e	n/a
65.385	0.0745	130770	keystroke_r	r	n/a
66.09	0.0895	132180	keystroke_Key.enter	Key.enter	n/a
66.188	7.089	132376	prompt	n/a	benefit create referring gras\n
67.0205	0.074	134041	keystroke_b	b	n/a
67.1545	0.105	134309	keystroke_e	e	n/a
67.275	0.12	134550	keystroke_n	n	n/a
67.3805	0.0895	134761	keystroke_e	e	n/a
67.62	0.075	135240	keystroke_f	f	n/a
67.755	0.105	135510	keystroke_i	i	n/a
67.875	0.09	135750	keystroke_t	t	n/a
68.039	0.091	136078	keystroke_Key.space	Key.space	n/a
68.25	0.0755	136500	keystroke_c	c	n/a
68.55	0.12	137100	keystroke_r	r	n/a
68.7295	0.105	137459	keystroke_e	e	n/a
68.8945	0.135	137789	keystroke_a	a	n/a
69.1655	0.0745	138331	keystroke_t	t	n/a
69.315	0.09	138630	keystroke_e	e	n/a
69.48	0.09	138960	keystroke_Key.space	Key.space	n/a
69.81	0.15	139620	keystroke_r	r	n/a
69.945	0.105	139890	keystroke_e	e	n/a
70.17	0.105	140340	keystroke_f	f	n/a
70.29	0.105	140580	keystroke_e	e	n/a
70.53	0.06	141060	keystroke_r	r	n/a
70.6495	0.09	141299	keystroke_r	r	n/a
70.7995	0.105	141599	keystroke_i	i	n/a
70.9795	0.12	141959	keystroke_n	n	n/a
71.1145	0.075	142229	keystroke_g	g	n/a
71.25	0.09	142500	keystroke_Key.space	Key.space	n/a
72.0595	0.0595	144119	keystroke_g	g	n/a
72.27	0.075	144540	keystroke_r	r	n/a
72.435	0.1055	144870	keystroke_a	a	n/a
72.8705	0.0745	145741	keystroke_s	s	n/a
73.1845	0.09	146369	keystroke_Key.enter	Key.enter	n/a
73.282	7.6295	146564	prompt	n/a	limitation made somebody chem\n
74.16	0.12	148320	keystroke_l	l	n/a
74.37	0.09	148740	keystroke_i	i	n/a
74.565	0.105	149130	keystroke_m	m	n/a
74.7145	0.076	149429	keystroke_i	i	n/a
74.955	0.0905	149910	keystroke_t	t	n/a
75.12	0.105	150240	keystroke_a	a	n/a
75.374	0.091	150748	keystroke_t	t	n/a
75.4955	0.1645	150991	keystroke_i	i	n/a
75.6	0.165	151200	keystroke_o	o	n/a
75.825	0.15	151650	keystroke_n	n	n/a
75.99	0.105	151980	keystroke_Key.space	Key.space	n/a
76.2	0.135	152400	keystroke_m	m	n/a
76.3805	0.089	152761	keystroke_a	a	n/a
76.6955	0.074	153391	keystroke_d	d	n/a
76.92	0.0595	153840	keystroke_e	e	n/a
77.0395	0.105	154079	keystroke_Key.space	Key.space	n/a
77.2195	0.105	154439	keystroke_s	s	n/a
77.2805	0.1345	154561	keystroke_o	o	n/a
77.46	0.1205	154920	keystroke_m	m	n/a
77.6405	0.0745	155281	keystroke_e	e	n/a
78.63	0.075	157260	keystroke_b	b	n/a
78.72	0.135	157440	keystroke_o	o	n/a
78.915	0.09	157830	keystroke_d	d	n/a
79.08	0.105	158160	keystroke_y	y	n/a
79.875	0.06	159750	keystroke_Key.space	Key.space	n/a
80.13	0.075	160260	keystroke_c	c	n/a
80.22	0.135	160440	keystroke_h	h	n/a
80.4	0.09	160800	keystroke_e	e	n/a
80.58	0.105	161160	keystroke_m	m	n/a
80.82	0.09	161640	keystroke_Key.enter	Key.enter	n/a
80.916	7.677	161832	prompt	n/a	johnson constant webmasters omega\n
81.6155	0.1345	163231	keystroke_j	j	n/a
81.7045	0.1355	163409	keystroke_o	o	n/a
81.9295	0.0905	163859	keystroke_h	h	n/a
82.1095	0.1055	164219	keystroke_n	n	n/a
82.425	0.0595	164850	keystroke_s	s	n/a
82.515	0.1205	165030	keystroke_o	o	n/a
82.74	0.1205	165480	keystroke_n	n	n/a
82.9045	0.09	165809	keystroke_Key.space	Key.space	n/a
83.1445	0.076	166289	keystroke_c	c	n/a
83.6255	0.104	167251	keystroke_o	o	n/a
83.8055	0.075	167611	keystroke_n	n	n/a
83.9405	0.0745	167881	keystroke_s	s	n/a
84.2695	0.076	168539	keystroke_t	t	n/a
84.4495	0.15	168899	keystroke_a	a	n/a
84.6155	0.09	169231	keystroke_n	n	n/a
85.0355	0.0445	170071	keystroke_t	t	n/a
85.1095	0.09	170219	keystroke_Key.space	Key.space	n/a
85.3645	0.12	170729	keystroke_w	w	n/a
85.5595	0.0755	171119	keystroke_e	e	n/a
85.7695	0.06	171539	keystroke_b	b	n/a
86.385	0.0905	172770	keystroke_m	m	n/a
86.4755	0.1045	172951	keystroke_a	a	n/a
86.67	0.0755	173340	keystroke_s	s	n/a
86.88	0.0745	173760	keystroke_t	t	n/a
87.045	0.105	174090	keystroke_e	e	n/a
87.285	0.075	174570	keystroke_r	r	n/a
87.375	0.09	174750	keystroke_Key.space	Key.space	n/a
87.51	0.105	175020	keystroke_o	o	n/a
87.6755	0.1345	175351	keystroke_m	m	n/a
87.825	0.075	175650	keystroke_e	e	n/a
88.08	0.0755	176160	keystroke_g	g	n/a
88.29	0.075	176580	keystroke_a	a	n/a
88.515	0.075	177030	keystroke_Key.enter	Key.enter	n/a
88.598	6.4885	177196	prompt	n/a	arbor hard gossip depression\n
89.5655	0.0445	179131	keystroke_a	a	n/a
89.7455	0.0595	179491	keystroke_r	r	n/a
89.955	0.0755	179910	keystroke_b	b	n/a
90.045	0.1345	180090	keystroke_o	o	n/a
90.24	0.089	180480	keystroke_r	r	n/a
90.374	0.0755	180748	keystroke_Key.space	Key.space	n/a
90.555	0.1045	181110	keystroke_h	h	n/a
90.644	0.1215	181288	keystroke_a	a	n/a
90.9	0.075	181800	keystroke_r	r	n/a
91.14	0.09	182280	keystroke_d	d	n/a
91.275	0.089	182550	keystroke_Key.space	Key.space	n/a
92.1305	0.0745	184261	keystroke_g	g	n/a
92.2355	0.1345	184471	keystroke_o	o	n/a
92.3845	0.09	184769	keystroke_s	s	n/a
92.58	0.09	185160	keystroke_s	s	n/a
92.7305	0.105	185461	keystroke_i	i	n/a
92.955	0.105	185910	keystroke_p	p	n/a
93.165	0.09	186330	keystroke_Key.space	Key.space	n/a
93.3295	0.075	186659	keystroke_d	d	n/a
93.525	0.0605	187050	keystroke_e	e	n/a
93.6295	0.15	187259	keystroke_p	p	n/a
93.75	0.1505	187500	keystroke_r	r	n/a
93.87	0.1045	187740	keystroke_e	e	n/a
94.1105	0.074	188221	keystroke_s	s	n/a
94.2895	0.091	188579	keystroke_s	s	n/a
94.4095	0.135	188819	keystroke_i	i	n/a
94.5145	0.18	189029	keystroke_o	o	n/a
94.7405	0.09	189481	keystroke_n	n	n/a
94.995	0.09	189990	keystroke_Key.enter	Key.enter	n/a
95.09	8.308	190180	prompt	n/a	harvest string operations zambia\n
95.88	0.12	191760	keystroke_h	h	n/a
96.255	0.1195	192510	keystroke_a	a	n/a
96.5095	0.075	193019	keystroke_r	r	n/a
96.72	0.0745	193440	keystroke_v	v	n/a
96.9905	0.059	193981	keystroke_e	e	n/a
97.1705	0.105	194341	keystroke_s	s	n/a
97.4255	0.074	194851	keystroke_t	t	n/a
97.5145	0.091	195029	keystroke_Key.space	Key.space	n/a
97.6805	0.1045	195361	keystroke_o	o	n/a
97.92	0.09	195840	keystroke_s	s	n/a
98.175	0.075	196350	keystroke_t	t	n/a
98.401	0.0735	196802	keystroke_r	r	n/a
98.5195	0.091	197039	keystroke_i	i	n/a
98.715	0.1195	197430	keystroke_n	n	n/a
98.94	0.0605	197880	keystroke_g	g	n/a
99.06	0.105	198120	keystroke_Key.space	Key.space	n/a
99.27	0.15	198540	keystroke_o	o	n/a
99.3755	0.135	198751	keystroke_p	p	n/a
99.5555	0.09	199111	keystroke_e	e	n/a
99.7795	0.075	199559	keystroke_r	r	n/a
99.945	0.1345	199890	keystroke_a	a	n/a
100.2295	0.0755	200459	keystroke_t	t	n/a
100.5295	0.151	201059	keystroke_i	i	n/a
100.6345	0.151	201269	keystroke_o	o	n/a
100.8155	0.135	201631	keystroke_n	n	n/a
101.0255	0.0895	202051	keystroke_s	s	n/a
101.2345	0.075	202469	keystroke_Key.space	Key.space	n/a
101.5795	0.09	203159	keystroke_z	z	n/a
101.775	0.105	203550	keystroke_a	a	n/a
101.8655	0.1045	203731	keystroke_m	m	n/a
102.166	0.059	204332	keystroke_b	b	n/a
102.375	0.12	204750	keystroke_i	i	n/a
102.63	0.09	205260	keystroke_a	a	n/a
103.32	0.075	206640	keystroke_Key.enter	Key.enter	n/a
103.4035	7.703	206807	prompt	n/a	proposed sponsor rough therapist\n
104.25	0.1495	208500	keystroke_p	p	n/a
104.5205	0.0745	209041	keystroke_r	r	n/a
104.61	0.09	209220	keystroke_o	o	n/a
104.82	0.15	209640	keystroke_p	p	n/a
104.94	0.12	209880	keystroke_o	o	n/a
105.15	0.105	210300	keystroke_s	s	n/a
105.36	0.075	210720	keystroke_e	e	n/a
105.6	0.06	211200	keystroke_d	d	n/a
105.75	0.09	211500	keystroke_Key.space	Key.space	n/a
105.9605	0.089	211921	keystroke_s	s	n/a
106.0645	0.09	212129	keystroke_p	p	n/a
106.1095	0.15	212219	keystroke_o	o	n/a
106.305	0.1045	212610	keystroke_n	n	n/a
106.485	0.12	212970	keystroke_s	s	n/a
106.635	0.1195	213270	keystroke_o	o	n/a
106.8455	0.0745	213691	keystroke_r	r	n/a
107.0395	0.09	214079	keystroke_Key.space	Key.space	n/a
107.2955	0.045	214591	keystroke_c	c	n/a
107.6855	0.074	215371	keystroke_Key.backspace	Key.backspace	n/a
108.299	0.0755	216598	keystroke_r	r	n/a
108.3895	0.1355	216779	keystroke_o	o	n/a
108.54	0.105	217080	keystroke_u	u	n/a
108.7205	0.1045	217441	keystroke_g	g	n/a
108.93	0.1045	217860	keystroke_h	h	n/a
109.1695	0.0755	218339	keystroke_Key.space	Key.space	n/a
109.4255	0.074	218851	keystroke_t	t	n/a
109.5895	0.076	219179	keystroke_h	h	n/a
109.6945	0.106	219389	keystroke_e	e	n/a
109.98	0.06	219960	keystroke_r	r	n/a
110.1905	0.09	220381	keystroke_a	a	n/a
110.34	0.1055	220680	keystroke_p	p	n/a
110.5055	0.1345	221011	keystroke_i	i	n/a
110.625	0.105	221250	keystroke_s	s	n/a
110.88	0.06	221760	keystroke_t	t	n/a
111.015	0.09	222030	keystroke_Key.enter	Key.enter	n/a
111.1115	11.47	222223	prompt	n/a	subsidiary entrance appointments outreach\n
111.915	0.0755	223830	keystroke_s	s	n/a
112.035	0.09	224070	keystroke_u	u	n/a
112.1855	0.0745	224371	keystroke_b	b	n/a
112.9955	0.059	225991	keystroke_s	s	n/a
113.039	0.105	226078	keystroke_i	i	n/a
113.265	0.074	226530	keystroke_d	d	n/a
113.3545	0.1045	226709	keystroke_i	i	n/a
113.4905	0.1495	226981	keystroke_a	a	n/a
113.7755	0.09	227551	keystroke_r	r	n/a
113.894	0.121	227788	keystroke_y	y	n/a
113.9845	0.1205	227969	keystroke_Key.space	Key.space	n/a
114.87	0.0905	229740	keystroke_e	e	n/a
114.9755	0.1045	229951	keystroke_n	n	n/a
115.14	0.075	230280	keystroke_t	t	n/a
115.3195	0.1205	230639	keystroke_r	r	n/a
115.4695	0.1505	230939	keystroke_a	a	n/a
115.635	0.105	231270	keystroke_n	n	n/a
115.725	0.075	231450	keystroke_c	c	n/a
115.95	0.0755	231900	keystroke_e	e	n/a
116.07	0.105	232140	keystroke_Key.space	Key.space	n/a
116.235	0.09	232470	keystroke_a	a	n/a
116.4295	0.03	232859	keystroke_p	p	n/a
116.5645	0.12	233129	keystroke_p	p	n/a
116.7145	0.1355	233429	keystroke_o	o	n/a
116.8795	0.105	233759	keystroke_i	i	n/a
117.0595	0.105	234119	keystroke_n	n	n/a
117.4955	0.0595	234991	keystroke_t	t	n/a
117.72	0.09	235440	keystroke_m	m	n/a
117.84	0.045	235680	keystroke_e	e	n/a
118.005	0.09	236010	keystroke_n	n	n/a
118.2155	0.074	236431	keystroke_t	t	n/a
118.5	0.075	237000	keystroke_s	s	n/a
118.995	0.075	237990	keystroke_Key.space	Key.space	n/a
119.4145	0.1055	238829	keystroke_o	o	n/a
119.535	0.12	239070	keystroke_u	u	n/a
119.76	0.075	239520	keystroke_t	t	n/a
120.81	0.105	241620	keystroke_r	r	n/a
121.53	0.075	243060	keystroke_e	e	n/a
121.8295	0.105	243659	keystroke_a	a	n/a
122.115	0.0745	244230	keystroke_c	c	n/a
122.2195	0.09	244439	keystroke_h	h	n/a
122.4895	0.0905	244979	keystroke_Key.enter	Key.enter	n/a
122.5855	5.5015	245171	prompt	n/a	teams your indiana vote\n
123.6145	0.0755	247229	keystroke_t	t	n/a
123.8095	0.075	247619	keystroke_e	e	n/a
124.005	0.1045	248010	keystroke_a	a	n/a
124.1845	0.1355	248369	keystroke_m	m	n/a
124.305	0.09	248610	keystroke_s	s	n/a
124.469	0.1055	248938	keystroke_Key.space	Key.space	n/a
124.754	0.075	249508	keystroke_y	y	n/a
124.86	0.2105	249720	keystroke_o	o	n/a
124.9805	0.1345	249961	keystroke_u	u	n/a
125.175	0.105	250350	keystroke_r	r	n/a
125.295	0.075	250590	keystroke_Key.space	Key.space	n/a
125.4	0.12	250800	keystroke_i	i	n/a
125.5955	0.1195	251191	keystroke_n	n	n/a
125.775	0.075	251550	keystroke_d	d	n/a
125.94	0.135	251880	keystroke_i	i	n/a
126.09	0.105	252180	keystroke_a	a	n/a
126.315	0.195	252630	keystroke_n	n	n/a
126.555	0.0755	253110	keystroke_a	a	n/a
127.035	0.075	254070	keystroke_Key.space	Key.space	n/a
127.3355	0.059	254671	keystroke_v	v	n/a
127.41	0.15	254820	keystroke_o	o	n/a
127.605	0.105	255210	keystroke_t	t	n/a
127.8	0.0745	255600	keystroke_e	e	n/a
127.9945	0.0905	255989	keystroke_Key.enter	Key.enter	n/a
128.092	10.6745	256184	prompt	n/a	maintains collaboration eddie rally\n
128.8495	0.09	257699	keystroke_m	m	n/a
129.1805	0.0895	258361	keystroke_a	a	n/a
129.3	0.09	258600	keystroke_i	i	n/a
129.495	0.09	258990	keystroke_n	n	n/a
129.78	0.09	259560	keystroke_t	t	n/a
129.975	0.0895	259950	keystroke_a	a	n/a
130.259	0.091	260518	keystroke_i	i	n/a
130.455	0.12	260910	keystroke_n	n	n/a
130.635	0.0895	261270	keystroke_s	s	n/a
130.8145	0.075	261629	keystroke_Key.space	Key.space	n/a
131.0245	0.06	262049	keystroke_c	c	n/a
131.1	0.1045	262200	keystroke_o	o	n/a
131.31	0.075	262620	keystroke_l	l	n/a
131.46	0.105	262920	keystroke_l	l	n/a
131.55	0.1045	263100	keystroke_a	a	n/a
131.8045	0.06	263609	keystroke_b	b	n/a
132.0595	0.0905	264119	keystroke_o	o	n/a
132.2995	0.075	264599	keystroke_r	r	n/a
132.4045	0.105	264809	keystroke_i	i	n/a
132.525	0.12	265050	keystroke_a	a	n/a
133.41	0.0745	266820	keystroke_Key.backspace	Key.backspace	n/a
133.5595	0.0905	267119	keystroke_Key.backspace	Key.backspace	n/a
133.695	0.09	267390	keystroke_a	a	n/a
134.34	0.075	268680	keystroke_t	t	n/a
134.43	0.1645	268860	keystroke_i	i	n/a
134.535	0.1495	269070	keystroke_o	o	n/a
134.7295	0.135	269459	keystroke_n	n	n/a
135.4045	0.075	270809	keystroke_Key.space	Key.space	n/a
135.8545	0.0755	271709	keystroke_e	e	n/a
136.065	0.075	272130	keystroke_d	d	n/a
136.215	0.06	272430	keystroke_d	d	n/a
136.9045	0.09	273809	keystroke_i	i	n/a
137.129	0.0615	274258	keystroke_e	e	n/a
137.3395	0.0905	274679	keystroke_Key.space	Key.space	n/a
137.6395	0.1055	275279	keystroke_r	r	n/a
137.79	0.1195	275580	keystroke_a	a	n/a
137.94	0.0895	275880	keystroke_l	l	n/a
138.1195	0.09	276239	keystroke_l	l	n/a
138.3595	0.075	276719	keystroke_y	y	n/a
138.674	0.09	277348	keystroke_Key.enter	Key.enter	n/a
138.771	7.7505	277542	prompt	n/a	straight packets connectivity chief\n
139.47	0.1055	278940	keystroke_s	s	n/a
139.71	0.06	279420	keystroke_t	t	n/a
139.8895	0.1205	279779	keystroke_r	r	n/a
140.1	0.12	280200	keystroke_a	a	n/a
140.31	0.105	280620	keystroke_i	i	n/a
140.535	0.06	281070	keystroke_g	g	n/a
140.655	0.1055	281310	keystroke_h	h	n/a
140.775	0.09	281550	keystroke_t	t	n/a
140.909	0.106	281818	keystroke_Key.space	Key.space	n/a
141.09	0.15	282180	keystroke_p	p	n/a
141.195	0.119	282390	keystroke_a	a	n/a
141.4055	0.074	282811	keystroke_c	c	n/a
141.5095	0.135	283019	keystroke_k	k	n/a
141.6595	0.09	283319	keystroke_e	e	n/a
141.8695	0.0905	283739	keystroke_t	t	n/a
142.1095	0.0905	284219	keystroke_s	s	n/a
142.245	0.12	284490	keystroke_Key.space	Key.space	n/a
142.4095	0.1055	284819	keystroke_c	c	n/a
142.4995	0.1205	284999	keystroke_o	o	n/a
142.7255	0.074	285451	keystroke_n	n	n/a
142.8745	0.105	285749	keystroke_n	n	n/a
142.9945	0.0905	285989	keystroke_e	e	n/a
143.265	0.0895	286530	keystroke_c	c	n/a
143.565	0.0745	287130	keystroke_t	t	n/a
143.745	0.105	287490	keystroke_i	i	n/a
143.8945	0.09	287789	keystroke_v	v	n/a
143.9995	0.135	287999	keystroke_i	i	n/a
144.2255	0.104	288451	keystroke_t	t	n/a
144.3745	0.105	288749	keystroke_y	y	n/a
144.5545	0.09	289109	keystroke_Key.space	Key.space	n/a
144.87	0.075	289740	keystroke_c	c	n/a
144.9745	0.1055	289949	keystroke_h	h	n/a
145.65	0.1195	291300	keystroke_i	i	n/a
145.7695	0.105	291539	keystroke_e	e	n/a
146.2345	0.0755	292469	keystroke_f	f	n/a
146.4295	0.09	292859	keystroke_Key.enter	Key.enter	n/a
146.526	7.916	293052	prompt	n/a	maple straight marble processor\n
147.1945	0.105	294389	keystroke_m	m	n/a
147.3445	0.105	294689	keystroke_a	a	n/a
147.48	0.1195	294960	keystroke_p	p	n/a
147.6895	0.165	295379	keystroke_l	l	n/a
147.8395	0.09	295679	keystroke_e	e	n/a
147.9895	0.09	295979	keystroke_Key.space	Key.space	n/a
148.23	0.105	296460	keystroke_s	s	n/a
148.5	0.075	297000	keystroke_t	t	n/a
148.71	0.105	297420	keystroke_r	r	n/a
148.89	0.12	297780	keystroke_a	a	n/a
149.07	0.105	298140	keystroke_i	i	n/a
149.31	0.045	298620	keystroke_g	g	n/a
149.43	0.1045	298860	keystroke_h	h	n/a
149.9405	0.029	299881	keystroke_t	t	n/a
150.4045	0.045	300809	keystroke_Key.space	Key.space	n/a
150.5695	0.1205	301139	keystroke_m	m	n/a
150.66	0.135	301320	keystroke_a	a	n/a
150.8995	0.06	301799	keystroke_r	r	n/a
151.125	0.075	302250	keystroke_b	b	n/a
151.3045	0.1205	302609	keystroke_l	l	n/a
151.44	0.06	302880	keystroke_e	e	n/a
151.545	0.104	303090	keystroke_Key.space	Key.space	n/a
151.695	0.15	303390	keystroke_p	p	n/a
151.935	0.09	303870	keystroke_r	r	n/a
152.04	0.1195	304080	keystroke_o	o	n/a
153.2095	0.0905	306419	keystroke_c	c	n/a
153.4795	0.075	306959	keystroke_e	e	n/a
153.7045	0.0755	307409	keystroke_s	s	n/a
153.855	0.105	307710	keystroke_s	s	n/a
154.005	0.135	308010	keystroke_o	o	n/a
154.1695	0.0905	308339	keystroke_r	r	n/a
154.3645	0.0755	308729	keystroke_Key.enter	Key.enter	n/a
154.4505	8.571	308901	prompt	n/a	biography southampton wrist divided\n
155.175	0.06	310350	keystroke_b	b	n/a
155.37	0.135	310740	keystroke_i	i	n/a
155.445	0.1495	310890	keystroke_o	o	n/a
155.7745	0.09	311549	keystroke_g	g	n/a
156.0445	0.0905	312089	keystroke_r	r	n/a
156.315	0.09	312630	keystroke_a	a	n/a
156.8995	0.1195	313799	keystroke_p	p	n/a
157.094	0.091	314188	keystroke_h	h	n/a
157.32	0.075	314640	keystroke_y	y	n/a
157.4845	0.1055	314969	keystroke_Key.space	Key.space	n/a
157.6945	0.135	315389	keystroke_s	s	n/a
157.77	0.105	315540	keystroke_o	o	n/a
157.8755	0.134	315751	keystroke_u	u	n/a
158.0995	0.09	316199	keystroke_t	t	n/a
158.22	0.0895	316440	keystroke_h	h	n/a
158.4895	0.105	316979	keystroke_a	a	n/a
158.7	0.0895	317400	keystroke_m	m	n/a
158.97	0.1205	317940	keystroke_p	p	n/a
159.5695	0.0755	319139	keystroke_t	t	n/a
159.6595	0.1195	319319	keystroke_o	o	n/a
159.915	0.12	319830	keystroke_n	n	n/a
160.14	0.075	320280	keystroke_Key.space	Key.space	n/a
160.41	0.0745	320820	keystroke_w	w	n/a
160.6945	0.075	321389	keystroke_r	r	n/a
160.8755	0.1045	321751	keystroke_i	i	n/a
161.0095	0.12	322019	keystroke_s	s	n/a
161.2945	0.0755	322589	keystroke_t	t	n/a
161.4295	0.0755	322859	keystroke_Key.space	Key.space	n/a
161.5945	0.0905	323189	keystroke_d	d	n/a
161.6995	0.09	323399	keystroke_i	i	n/a
161.91	0.075	323820	keystroke_v	v	n/a
162.015	0.12	324030	keystroke_i	i	n/a
162.27	0.075	324540	keystroke_d	d	n/a
162.465	0.075	324930	keystroke_e	e	n/a
162.69	0.075	325380	keystroke_d	d	n/a
162.93	0.089	325860	keystroke_Key.enter	Key.enter	n/a
163.026	11.7255	326052	prompt	n/a	dictionary passion encoding reporter\n
163.89	0.075	327780	keystroke_c	c	n/a
164.07	0.09	328140	keystroke_i	i	n/a
164.594	0.076	329188	keystroke_Key.backspace	Key.backspace	n/a
164.774	0.106	329548	keystroke_Key.backspace	Key.backspace	n/a
164.97	0.06	329940	keystroke_d	d	n/a
165.06	0.105	330120	keystroke_i	i	n/a
165.195	0.105	330390	keystroke_c	c	n/a
165.54	0.059	331080	keystroke_t	t	n/a
166.785	0.135	333570	keystroke_i	i	n/a
166.875	0.135	333750	keystroke_o	o	n/a
167.055	0.135	334110	keystroke_n	n	n/a
167.16	0.1195	334320	keystroke_a	a	n/a
167.4295	0.09	334859	keystroke_r	r	n/a
167.564	0.106	335128	keystroke_y	y	n/a
167.895	0.089	335790	keystroke_Key.space	Key.space	n/a
168.39	0.135	336780	keystroke_p	p	n/a
168.54	0.12	337080	keystroke_a	a	n/a
168.78	0.075	337560	keystroke_s	s	n/a
168.945	0.075	337890	keystroke_s	s	n/a
169.094	0.121	338188	keystroke_i	i	n/a
169.1695	0.1955	338339	keystroke_o	o	n/a
169.4095	0.166	338819	keystroke_n	n	n/a
169.59	0.06	339180	keystroke_Key.space	Key.space	n/a
169.875	0.12	339750	keystroke_n	n	n/a
170.115	0.09	340230	keystroke_e	e	n/a
170.6545	0.0455	341309	keystroke_Key.backspace	Key.backspace	n/a
170.76	0.1045	341520	keystroke_Key.backspace	Key.backspace	n/a
170.9095	0.0755	341819	keystroke_e	e	n/a
171.0145	0.121	342029	keystroke_n	n	n/a
171.405	0.09	342810	keystroke_c	c	n/a
171.51	0.12	343020	keystroke_o	o	n/a
172.2145	0.105	344429	keystroke_d	d	n/a
172.305	0.1045	344610	keystroke_i	i	n/a
172.4855	0.135	344971	keystroke_n	n	n/a
172.68	0.075	345360	keystroke_g	g	n/a
172.815	0.09	345630	keystroke_Key.space	Key.space	n/a
173.085	0.075	346170	keystroke_r	r	n/a
173.235	0.09	346470	keystroke_e	e	n/a
173.415	0.15	346830	keystroke_p	p	n/a
173.52	0.15	347040	keystroke_o	o	n/a
173.85	0.075	347700	keystroke_r	r	n/a
174.06	0.075	348120	keystroke_t	t	n/a
174.225	0.09	348450	keystroke_e	e	n/a
174.4645	0.075	348929	keystroke_r	r	n/a
174.6595	0.09	349319	keystroke_Key.enter	Key.enter	n/a
174.756	10.7805	349512	prompt	n/a	crown finding supported shaved\n
175.515	0.074	351030	keystroke_c	c	n/a
175.815	0.075	351630	keystroke_r	r	n/a
175.95	0.135	351900	keystroke_o	o	n/a
176.565	0.075	353130	keystroke_w	w	n/a
176.6695	0.1055	353339	keystroke_n	n	n/a
176.835	0.105	353670	keystroke_Key.space	Key.space	n/a
177.0745	0.076	354149	keystroke_f	f	n/a
177.21	0.12	354420	keystroke_i	i	n/a
177.8555	0.1045	355711	keystroke_n	n	n/a
178.079	0.0755	356158	keystroke_d	d	n/a
178.1845	0.105	356369	keystroke_i	i	n/a
178.3345	0.12	356669	keystroke_n	n	n/a
178.5	0.105	357000	keystroke_g	g	n/a
178.7545	0.105	357509	keystroke_Key.space	Key.space	n/a
179.3245	0.0605	358649	keystroke_s	s	n/a
179.565	0.0895	359130	keystroke_u	u	n/a
179.7445	0.075	359489	keystroke_p	p	n/a
179.865	0.1195	359730	keystroke_p	p	n/a
180.0445	0.1355	360089	keystroke_o	o	n/a
180.21	0.1055	360420	keystroke_r	r	n/a
180.4795	0.0905	360959	keystroke_t	t	n/a
180.6745	0.1045	361349	keystroke_e	e	n/a
180.885	0.0895	361770	keystroke_r	r	n/a
181.1695	0.0755	362339	keystroke_Key.space	Key.space	n/a
181.574	0.061	363148	keystroke_Key.backspace	Key.backspace	n/a
181.7245	0.105	363449	keystroke_Key.backspace	Key.backspace	n/a
181.934	0.076	363868	keystroke_d	d	n/a
182.055	0.089	364110	keystroke_Key.space	Key.space	n/a
182.7295	0.09	365459	keystroke_s	s	n/a
182.8495	0.1205	365699	keystroke_h	h	n/a
182.955	0.135	365910	keystroke_a	a	n/a
183.315	0.06	366630	keystroke_v	v	n/a
183.33	0.06	366660	keystroke_b	b	n/a
183.555	0.09	367110	keystroke_e	e	n/a
183.9745	0.075	367949	keystroke_Key.backspace	Key.backspace	n/a
184.1695	0.075	368339	keystroke_Key.backspace	Key.backspace	n/a
184.335	0.0895	368670	keystroke_v	v	n/a
184.979	0.06	369958	keystroke_Key.backspace	Key.backspace	n/a
185.055	0.0595	370110	keystroke_e	e	n/a
185.309	0.076	370618	keystroke_d	d	n/a
185.445	0.09	370890	keystroke_Key.enter	Key.enter	n/a
185.542	5.8445	371084	prompt	n/a	doll leslie songs position\n
186.3895	0.09	372779	keystroke_d	d	n/a
186.84	0.0895	373680	keystroke_o	o	n/a
187.0795	0.075	374159	keystroke_l	l	n/a
187.23	0.0895	374460	keystroke_l	l	n/a
187.3495	0.0905	374699	keystroke_Key.space	Key.space	n/a
187.53	0.135	375060	keystroke_l	l	n/a
187.679	0.09	375358	keystroke_e	e	n/a
187.949	0.09	375898	keystroke_s	s	n/a
188.085	0.104	376170	keystroke_l	l	n/a
188.265	0.104	376530	keystroke_i	i	n/a
188.475	0.105	376950	keystroke_e	e	n/a
188.625	0.09	377250	keystroke_Key.space	Key.space	n/a
188.85	0.06	377700	keystroke_s	s	n/a
188.9545	0.09	377909	keystroke_o	o	n/a
189.1195	0.135	378239	keystroke_n	n	n/a
189.2555	0.089	378511	keystroke_g	g	n/a
189.4945	0.075	378989	keystroke_s	s	n/a
189.7195	0.105	379439	keystroke_Key.space	Key.space	n/a
189.915	0.15	379830	keystroke_p	p	n/a
190.02	0.165	380040	keystroke_o	o	n/a
190.335	0.105	380670	keystroke_s	s	n/a
190.425	0.1195	380850	keystroke_i	i	n/a
190.665	0.09	381330	keystroke_t	t	n/a
190.7995	0.15	381599	keystroke_i	i	n/a
190.8745	0.18	381749	keystroke_o	o	n/a
191.07	0.1495	382140	keystroke_n	n	n/a
191.28	0.1045	382560	keystroke_Key.enter	Key.enter	n/a
191.39	6.9115	382780	prompt	n/a	consulting futures polished remove\n
192.105	0.075	384210	keystroke_c	c	n/a
192.21	0.135	384420	keystroke_o	o	n/a
192.405	0.09	384810	keystroke_n	n	n/a
192.615	0.075	385230	keystroke_s	s	n/a
192.75	0.09	385500	keystroke_u	u	n/a
192.975	0.149	385950	keystroke_l	l	n/a
193.2445	0.045	386489	keystroke_t	t	n/a
193.305	0.105	386610	keystroke_i	i	n/a
193.469	0.1505	386938	keystroke_n	n	n/a
193.665	0.0895	387330	keystroke_g	g	n/a
193.799	0.12	387598	keystroke_Key.space	Key.space	n/a
194.055	0.074	388110	keystroke_f	f	n/a
194.1745	0.1045	388349	keystroke_u	u	n/a
194.339	0.091	388678	keystroke_t	t	n/a
194.444	0.106	388888	keystroke_u	u	n/a
194.625	0.12	389250	keystroke_r	r	n/a
194.82	0.105	389640	keystroke_e	e	n/a
195.075	0.09	390150	keystroke_s	s	n/a
195.314	0.091	390628	keystroke_Key.space	Key.space	n/a
195.54	0.18	391080	keystroke_p	p	n/a
195.615	0.135	391230	keystroke_o	o	n/a
195.8405	0.0895	391681	keystroke_l	l	n/a
196.0045	0.1205	392009	keystroke_i	i	n/a
196.29	0.104	392580	keystroke_s	s	n/a
196.4245	0.1045	392849	keystroke_h	h	n/a
196.724	0.0755	393448	keystroke_e	e	n/a
196.9345	0.0905	393869	keystroke_d	d	n/a
197.0545	0.09	394109	keystroke_Key.space	Key.space	n/a
197.2795	0.1055	394559	keystroke_r	r	n/a
197.415	0.105	394830	keystroke_e	e	n/a
197.535	0.134	395070	keystroke_m	m	n/a
197.7	0.165	395400	keystroke_o	o	n/a
197.849	0.106	395698	keystroke_v	v	n/a
198.029	0.09	396058	keystroke_e	e	n/a
198.224	0.075	396448	keystroke_Key.enter	Key.enter	n/a
198.3065	8.185	396613	prompt	n/a	witnesses maldives provinces layer\n
199.0495	0.0755	398099	keystroke_w	w	n/a
199.77	0.0595	399540	keystroke_i	i	n/a
199.8895	0.075	399779	keystroke_t	t	n/a
199.9795	0.1205	399959	keystroke_h	h	n/a
200.2795	0.1055	400559	keystroke_n	n	n/a
200.4295	0.0755	400859	keystroke_e	e	n/a
200.8345	0.0605	401669	keystroke_s	s	n/a
200.9845	0.105	401969	keystroke_s	s	n/a
201.2095	0.09	402419	keystroke_e	e	n/a
201.4795	0.09	402959	keystroke_s	s	n/a
201.7645	0.075	403529	keystroke_Key.space	Key.space	n/a
201.975	0.105	403950	keystroke_m	m	n/a
202.544	0.106	405088	keystroke_a	a	n/a
202.635	0.1195	405270	keystroke_l	l	n/a
202.8895	0.0755	405779	keystroke_d	d	n/a
203.025	0.12	406050	keystroke_i	i	n/a
203.2055	0.074	406411	keystroke_v	v	n/a
203.385	0.105	406770	keystroke_e	e	n/a
203.61	0.09	407220	keystroke_s	s	n/a
203.7445	0.075	407489	keystroke_Key.space	Key.space	n/a
203.9095	0.12	407819	keystroke_p	p	n/a
204.0895	0.075	408179	keystroke_r	r	n/a
204.18	0.1345	408360	keystroke_o	o	n/a
204.3595	0.0905	408719	keystroke_v	v	n/a
204.5095	0.09	409019	keystroke_i	i	n/a
204.6745	0.15	409349	keystroke_n	n	n/a
204.81	0.06	409620	keystroke_c	c	n/a
205.0345	0.09	410069	keystroke_e	e	n/a
205.2595	0.0905	410519	keystroke_s	s	n/a
205.379	0.091	410758	keystroke_Key.space	Key.space	n/a
205.559	0.15	411118	keystroke_l	l	n/a
205.695	0.105	411390	keystroke_a	a	n/a
205.904	0.106	411808	keystroke_y	y	n/a
206.025	0.104	412050	keystroke_e	e	n/a
206.2345	0.09	412469	keystroke_r	r	n/a
206.399	0.09	412798	keystroke_Key.enter	Key.enter	n/a
206.4955	7.4955	412991	prompt	n/a	horses fiscal induced july\n
207.135	0.1345	414270	keystroke_h	h	n/a
207.224	0.151	414448	keystroke_o	o	n/a
207.42	0.104	414840	keystroke_r	r	n/a
207.659	0.106	415318	keystroke_s	s	n/a
207.8545	0.0895	415709	keystroke_e	e	n/a
208.0645	0.0905	416129	keystroke_s	s	n/a
208.199	0.09	416398	keystroke_Key.space	Key.space	n/a
208.575	0.089	417150	keystroke_f	f	n/a
208.694	0.135	417388	keystroke_i	i	n/a
208.9495	0.0755	417899	keystroke_s	s	n/a
209.159	0.0755	418318	keystroke_c	c	n/a
209.3845	0.0905	418769	keystroke_a	a	n/a
209.505	0.165	419010	keystroke_l	l	n/a
209.64	0.09	419280	keystroke_Key.space	Key.space	n/a
209.82	0.105	419640	keystroke_i	i	n/a
210.06	0.075	420120	keystroke_d	d	n/a
210.7045	0.0755	421409	keystroke_Key.backspace	Key.backspace	n/a
210.93	0.105	421860	keystroke_n	n	n/a
211.17	0.0895	422340	keystroke_d	d	n/a
211.245	0.105	422490	keystroke_u	u	n/a
211.62	0.075	423240	keystroke_c	c	n/a
211.845	0.075	423690	keystroke_e	e	n/a
212.055	0.075	424110	keystroke_d	d	n/a
212.189	0.0905	424378	keystroke_Key.space	Key.space	n/a
212.3395	0.09	424679	keystroke_j	j	n/a
212.5645	0.0905	425129	keystroke_u	u	n/a
212.7445	0.135	425489	keystroke_l	l	n/a
213.0145	0.075	426029	keystroke_y	y	n/a
213.899	0.0905	427798	keystroke_Key.enter	Key.enter	n/a
213.9955	8.066	427991	prompt	n/a	sympathy duty harm turbo\n
214.7845	0.06	429569	keystroke_s	s	n/a
214.8895	0.0905	429779	keystroke_y	y	n/a
215.129	0.121	430258	keystroke_m	m	n/a
215.7895	0.1055	431579	keystroke_p	p	n/a
217.049	0.0905	434098	keystroke_a	a	n/a
217.3495	0.0755	434699	keystroke_t	t	n/a
217.455	0.0745	434910	keystroke_h	h	n/a
217.649	0.105	435298	keystroke_y	y	n/a
217.814	0.1055	435628	keystroke_Key.space	Key.space	n/a
218.2345	0.0755	436469	keystroke_d	d	n/a
218.355	0.105	436710	keystroke_u	u	n/a
218.5795	0.0905	437159	keystroke_t	t	n/a
218.7145	0.0905	437429	keystroke_y	y	n/a
218.8495	0.105	437699	keystroke_Key.space	Key.space	n/a
219.0895	0.105	438179	keystroke_h	h	n/a
219.2545	0.09	438509	keystroke_a	a	n/a
219.5245	0.09	439049	keystroke_r	r	n/a
219.6295	0.12	439259	keystroke_m	m	n/a
219.7795	0.12	439559	keystroke_Key.space	Key.space	n/a
220.0195	0.105	440039	keystroke_t	t	n/a
220.1845	0.105	440369	keystroke_u	u	n/a
220.4845	0.0755	440969	keystroke_v	v	n/a
220.9045	0.09	441809	keystroke_Key.backspace	Key.backspace	n/a
221.0095	0.0455	442019	keystroke_r	r	n/a
221.2195	0.06	442439	keystroke_b	b	n/a
221.3245	0.105	442649	keystroke_o	o	n/a
221.9695	0.09	443939	keystroke_Key.enter	Key.enter	n/a
222.0655	13.046	444131	prompt	n/a	visual sections instrumentation september\n
222.8395	0.06	445679	keystroke_v	v	n/a
223.1845	0.105	446369	keystroke_i	i	n/a
223.364	0.0755	446728	keystroke_s	s	n/a
223.454	0.105	446908	keystroke_u	u	n/a
223.694	0.105	447388	keystroke_a	a	n/a
223.829	0.12	447658	keystroke_l	l	n/a
223.9795	0.09	447959	keystroke_Key.space	Key.space	n/a
224.1755	0.104	448351	keystroke_s	s	n/a
224.354	0.045	448708	keystroke_e	e	n/a
224.579	0.06	449158	keystroke_c	c	n/a
225.4345	0.0745	450869	keystroke_t	t	n/a
225.5545	0.1345	451109	keystroke_i	i	n/a
225.6295	0.15	451259	keystroke_o	o	n/a
225.8095	0.1205	451619	keystroke_n	n	n/a
225.9745	0.09	451949	keystroke_s	s	n/a
226.0945	0.075	452189	keystroke_Key.space	Key.space	n/a
226.2145	0.1205	452429	keystroke_i	i	n/a
226.395	0.1345	452790	keystroke_n	n	n/a
226.5445	0.105	453089	keystroke_s	s	n/a
226.7695	0.0755	453539	keystroke_t	t	n/a
226.9645	0.075	453929	keystroke_r	r	n/a
227.069	0.0905	454138	keystroke_u	u	n/a
227.3095	0.12	454619	keystroke_m	m	n/a
227.4445	0.12	454889	keystroke_e	e	n/a
227.5945	0.105	455189	keystroke_n	n	n/a
227.7445	0.0905	455489	keystroke_t	t	n/a
227.9395	0.12	455879	keystroke_a	a	n/a
228.2845	0.0905	456569	keystroke_t	t	n/a
228.4645	0.165	456929	keystroke_i	i	n/a
228.5695	0.15	457139	keystroke_o	o	n/a
228.7345	0.105	457469	keystroke_n	n	n/a
228.884	0.09	457768	keystroke_Key.space	Key.space	n/a
229.0945	0.09	458189	keystroke_s	s	n/a
229.2445	0.12	458489	keystroke_p	p	n/a
229.394	0.0755	458788	keystroke_e	e	n/a
229.6495	0.06	459299	keystroke_b	b	n/a
230.6845	0.0745	461369	keystroke_Key.backspace	Key.backspace	n/a
230.8645	0.0745	461729	keystroke_Key.backspace	Key.backspace	n/a
231.074	0.0905	462148	keystroke_Key.backspace	Key.backspace	n/a
231.4345	0.06	462869	keystroke_e	e	n/a
231.8095	0.0755	463619	keystroke_p	p	n/a
232.3795	0.075	464759	keystroke_t	t	n/a
232.5445	0.045	465089	keystroke_e	e	n/a
233.7745	0.0605	467549	keystroke_m	m	n/a
234.3135	0.0615	468627	keystroke_b	b	n/a
234.5085	0.076	469017	keystroke_e	e	n/a
234.735	0.06	469470	keystroke_r	r	n/a
235.0345	0.0755	470069	keystroke_Key.enter	Key.enter	n/a
235.116	6.8205	470232	prompt	n/a	turning globe irish willing\n
236.3395	0.06	472679	keystroke_t	t	n/a
236.4145	0.045	472829	keystroke_u	u	n/a
236.519	0.0755	473038	keystroke_r	r	n/a
236.6395	0.0895	473279	keystroke_n	n	n/a
236.7745	0.1205	473549	keystroke_i	i	n/a
236.94	0.12	473880	keystroke_n	n	n/a
237.104	0.076	474208	keystroke_g	g	n/a
237.3295	0.075	474659	keystroke_Key.space	Key.space	n/a
237.659	0.075	475318	keystroke_g	g	n/a
238.215	0.075	476430	keystroke_l	l	n/a
238.395	0.1045	476790	keystroke_o	o	n/a
238.44	0.0735	476880	keystroke_d	d	n/a
238.8445	0.104	477689	keystroke_Key.backspace	Key.backspace	n/a
238.9345	0.0595	477869	keystroke_b	b	n/a
239.145	0.0745	478290	keystroke_e	e	n/a
239.6095	0.075	479219	keystroke_Key.space	Key.space	n/a
239.8195	0.105	479639	keystroke_i	i	n/a
240.089	0.076	480178	keystroke_r	r	n/a
240.165	0.119	480330	keystroke_i	i	n/a
240.344	0.1055	480688	keystroke_s	s	n/a
240.464	0.076	480928	keystroke_h	h	n/a
240.5845	0.09	481169	keystroke_Key.space	Key.space	n/a
240.825	0.089	481650	keystroke_w	w	n/a
240.915	0.09	481830	keystroke_i	i	n/a
241.1695	0.0155	482339	keystroke_l	l	n/a
241.2295	0.0745	482459	keystroke_l	l	n/a
241.35	0.074	482700	keystroke_i	i	n/a
241.499	0.136	482998	keystroke_n	n	n/a
241.665	0.09	483330	keystroke_g	g	n/a
241.8595	0.0745	483719	keystroke_Key.enter	Key.enter	n/a
241.941	7.75	483882	prompt	n/a	innocent fighting hourly explorer\n
242.6695	0.0905	485339	keystroke_i	i	n/a
242.8345	0.06	485669	keystroke_n	n	n/a
242.955	0.0895	485910	keystroke_n	n	n/a
243.1195	0.135	486239	keystroke_o	o	n/a
243.2395	0.075	486479	keystroke_c	c	n/a
243.4645	0.075	486929	keystroke_e	e	n/a
243.5545	0.105	487109	keystroke_n	n	n/a
243.7195	0.09	487439	keystroke_t	t	n/a
243.8395	0.105	487679	keystroke_Key.space	Key.space	n/a
244.0345	0.075	488069	keystroke_f	f	n/a
244.1245	0.12	488249	keystroke_i	i	n/a
244.3195	0.075	488639	keystroke_g	g	n/a
245.01	0.105	490020	keystroke_h	h	n/a
245.309	0.06	490618	keystroke_t	t	n/a
245.4	0.104	490800	keystroke_i	i	n/a
245.565	0.134	491130	keystroke_n	n	n/a
245.7595	0.06	491519	keystroke_g	g	n/a
245.924	0.09	491848	keystroke_Key.space	Key.space	n/a
246.1945	0.06	492389	keystroke_h	h	n/a
246.269	0.1505	492538	keystroke_o	o	n/a
246.4195	0.09	492839	keystroke_u	u	n/a
246.5695	0.09	493139	keystroke_r	r	n/a
246.7495	0.12	493499	keystroke_l	l	n/a
246.9895	0.0755	493979	keystroke_y	y	n/a
247.1235	0.106	494247	keystroke_Key.space	Key.space	n/a
248.0695	0.0455	496139	keystroke_e	e	n/a
248.2945	0.075	496589	keystroke_x	x	n/a
248.4145	0.105	496829	keystroke_p	p	n/a
248.6095	0.12	497219	keystroke_l	l	n/a
248.8045	0.12	497609	keystroke_o	o	n/a
248.9695	0.12	497939	keystroke_r	r	n/a
249.1045	0.105	498209	keystroke_e	e	n/a
249.3295	0.075	498659	keystroke_r	r	n/a
249.5995	0.09	499199	keystroke_Key.enter	Key.enter	n/a
249.6955	7.0605	499391	prompt	n/a	cornwall ciao throw oman\n
250.4695	0.105	500939	keystroke_c	c	n/a
250.7095	0.135	501419	keystroke_o	o	n/a
250.9495	0.06	501899	keystroke_r	r	n/a
251.6245	0.06	503249	keystroke_n	n	n/a
251.805	0.1045	503610	keystroke_m	m	n/a
252.164	0.1055	504328	keystroke_Key.backspace	Key.backspace	n/a
252.254	0.09	504508	keystroke_w	w	n/a
252.4645	0.1195	504929	keystroke_a	a	n/a
252.659	0.0755	505318	keystroke_l	l	n/a
252.809	0.09	505618	keystroke_l	l	n/a
252.9295	0.105	505859	keystroke_Key.space	Key.space	n/a
253.289	0.09	506578	keystroke_c	c	n/a
253.38	0.1195	506760	keystroke_i	i	n/a
253.53	0.119	507060	keystroke_a	a	n/a
253.769	0.09	507538	keystroke_o	o	n/a
254.309	0.09	508618	keystroke_Key.space	Key.space	n/a
254.6545	0.06	509309	keystroke_t	t	n/a
254.9245	0.09	509849	keystroke_h	h	n/a
255.1795	0.075	510359	keystroke_r	r	n/a
255.2695	0.105	510539	keystroke_o	o	n/a
255.4195	0.09	510839	keystroke_w	w	n/a
255.6445	0.075	511289	keystroke_Key.space	Key.space	n/a
255.9595	0.105	511919	keystroke_o	o	n/a
256.1255	0.119	512251	keystroke_m	m	n/a
256.3345	0.09	512669	keystroke_a	a	n/a
256.4395	0.09	512879	keystroke_n	n	n/a
256.6795	0.075	513359	keystroke_Key.enter	Key.enter	n/a
256.7625	11.6935	513525	prompt	n/a	older destiny shareholders disciplinary\n
257.669	0.0755	515338	keystroke_o	o	n/a
257.849	0.105	515698	keystroke_l	l	n/a
257.9695	0.0745	515939	keystroke_d	d	n/a
258.179	0.06	516358	keystroke_e	e	n/a
258.329	0.0755	516658	keystroke_r	r	n/a
258.419	0.09	516838	keystroke_Key.space	Key.space	n/a
258.5995	0.105	517199	keystroke_d	d	n/a
258.7345	0.105	517469	keystroke_i	i	n/a
258.8845	0.12	517769	keystroke_s	s	n/a
259.1995	0.09	518399	keystroke_t	t	n/a
259.3635	0.106	518727	keystroke_i	i	n/a
259.5295	0.0905	519059	keystroke_n	n	n/a
259.7995	0.1045	519599	keystroke_y	y	n/a
259.9795	0.0895	519959	keystroke_Key.space	Key.space	n/a
260.144	0.0905	520288	keystroke_s	s	n/a
260.204	0.1055	520408	keystroke_h	h	n/a
260.474	0.105	520948	keystroke_r	r	n/a
261.15	0.06	522300	keystroke_e	e	n/a
261.4795	0.06	522959	keystroke_Key.backspace	Key.backspace	n/a
261.6145	0.105	523229	keystroke_Key.backspace	Key.backspace	n/a
261.7205	0.074	523441	keystroke_a	a	n/a
262.1845	0.1205	524369	keystroke_r	r	n/a
262.2895	0.1205	524579	keystroke_e	e	n/a
262.5	0.1195	525000	keystroke_h	h	n/a
262.5595	0.105	525119	keystroke_o	o	n/a
262.7845	0.105	525569	keystroke_l	l	n/a
263.2495	0.059	526499	keystroke_d	d	n/a
263.4295	0.0905	526859	keystroke_e	e	n/a
263.625	0.0745	527250	keystroke_r	r	n/a
263.8345	0.105	527669	keystroke_s	s	n/a
263.999	0.0605	527998	keystroke_Key.space	Key.space	n/a
264.134	0.105	528268	keystroke_d	d	n/a
264.224	0.075	528448	keystroke_i	i	n/a
265.649	0.045	531298	keystroke_s	s	n/a
266.144	0.06	532288	keystroke_c	c	n/a
266.25	0.0895	532500	keystroke_i	i	n/a
266.4145	0.105	532829	keystroke_p	p	n/a
266.6245	0.105	533249	keystroke_l	l	n/a
267.3445	0.0905	534689	keystroke_i	i	n/a
267.5395	0.09	535079	keystroke_n	n	n/a
267.7945	0.09	535589	keystroke_a	a	n/a
268.0485	0.0755	536097	keystroke_r	r	n/a
268.139	0.076	536278	keystroke_y	y	n/a
268.365	0.0895	536730	keystroke_Key.enter	Key.enter	n/a
268.46	8.186	536920	prompt	n/a	tricks checklist popularity guards\n
269.2045	0.0595	538409	keystroke_t	t	n/a
269.3985	0.076	538797	keystroke_r	r	n/a
269.459	0.12	538918	keystroke_i	i	n/a
269.655	0.0895	539310	keystroke_c	c	n/a
269.759	0.15	539518	keystroke_k	k	n/a
270.014	0.0755	540028	keystroke_s	s	n/a
270.1795	0.075	540359	keystroke_Key.space	Key.space	n/a
270.419	0.075	540838	keystroke_c	c	n/a
270.509	0.1355	541018	keystroke_h	h	n/a
270.7045	0.075	541409	keystroke_e	e	n/a
270.944	0.0755	541888	keystroke_c	c	n/a
271.064	0.09	542128	keystroke_k	k	n/a
271.229	0.1055	542458	keystroke_l	l	n/a
271.3795	0.0895	542759	keystroke_i	i	n/a
271.5295	0.09	543059	keystroke_s	s	n/a
271.77	0.074	543540	keystroke_t	t	n/a
271.8595	0.0895	543719	keystroke_Key.space	Key.space	n/a
272.069	0.1355	544138	keystroke_p	p	n/a
272.174	0.1655	544348	keystroke_o	o	n/a
272.6095	0.105	545219	keystroke_p	p	n/a
272.9545	0.1055	545909	keystroke_u	u	n/a
273.4795	0.1055	546959	keystroke_l	l	n/a
273.569	0.09	547138	keystroke_a	a	n/a
273.9745	0.0595	547949	keystroke_r	r	n/a
274.064	0.105	548128	keystroke_i	i	n/a
274.2	0.0895	548400	keystroke_t	t	n/a
274.3345	0.12	548669	keystroke_y	y	n/a
274.499	0.09	548998	keystroke_Key.space	Key.space	n/a
274.8445	0.029	549689	keystroke_g	g	n/a
275.039	0.091	550078	keystroke_u	u	n/a
275.3545	0.105	550709	keystroke_a	a	n/a
275.9845	0.0895	551969	keystroke_r	r	n/a
276.209	0.076	552418	keystroke_d	d	n/a
276.389	0.075	552778	keystroke_s	s	n/a
276.569	0.075	553138	keystroke_Key.enter	Key.enter	n/a
276.65	6.116	553300	prompt	n/a	else inkjet quilt reset\n
277.7845	0.015	555569	keystroke_e	e	n/a
277.8145	0.165	555629	keystroke_l	l	n/a
277.9945	0.105	555989	keystroke_s	s	n/a
278.2195	0.075	556439	keystroke_e	e	n/a
278.4285	0.09	556857	keystroke_Key.space	Key.space	n/a
278.6245	0.105	557249	keystroke_i	i	n/a
278.8345	0.104	557669	keystroke_n	n	n/a
279.0445	0.1045	558089	keystroke_k	k	n/a
279.3295	0.1195	558659	keystroke_j	j	n/a
279.435	0.0895	558870	keystroke_e	e	n/a
279.6745	0.0745	559349	keystroke_t	t	n/a
279.824	0.09	559648	keystroke_Key.space	Key.space	n/a
280.2145	0.089	560429	keystroke_q	q	n/a
280.4695	0.135	560939	keystroke_u	u	n/a
280.5295	0.149	561059	keystroke_i	i	n/a
280.7235	0.166	561447	keystroke_l	l	n/a
280.9485	0.105	561897	keystroke_t	t	n/a
281.1435	0.09	562287	keystroke_Key.space	Key.space	n/a
281.459	0.105	562918	keystroke_r	r	n/a
281.5785	0.106	563157	keystroke_e	e	n/a
281.789	0.09	563578	keystroke_s	s	n/a
281.9995	0.0895	563999	keystroke_e	e	n/a
282.2095	0.06	564419	keystroke_t	t	n/a
282.6885	0.075	565377	keystroke_Key.enter	Key.enter	n/a
282.771	8.785	565542	prompt	n/a	throws colleagues insert rhode\n
283.4995	0.06	566999	keystroke_t	t	n/a
284.2195	0.09	568439	keystroke_h	h	n/a
284.3995	0.09	568799	keystroke_r	r	n/a
284.5195	0.135	569039	keystroke_o	o	n/a
284.6395	0.105	569279	keystroke_w	w	n/a
285.1945	0.045	570389	keystroke_s	s	n/a
285.3895	0.09	570779	keystroke_Key.space	Key.space	n/a
285.8545	0.075	571709	keystroke_c	c	n/a
285.9595	0.09	571919	keystroke_o	o	n/a
286.1395	0.0745	572279	keystroke_l	l	n/a
286.274	0.121	572548	keystroke_l	l	n/a
286.41	0.0895	572820	keystroke_e	e	n/a
286.5745	0.1495	573149	keystroke_a	a	n/a
286.89	0.074	573780	keystroke_g	g	n/a
287.489	0.075	574978	keystroke_u	u	n/a
287.849	0.0605	575698	keystroke_e	e	n/a
288.059	0.06	576118	keystroke_s	s	n/a
288.224	0.075	576448	keystroke_Key.space	Key.space	n/a
288.374	0.075	576748	keystroke_i	i	n/a
288.5395	0.135	577079	keystroke_n	n	n/a
289.1695	0.09	578339	keystroke_s	s	n/a
289.364	0.0755	578728	keystroke_e	e	n/a
289.559	0.0605	579118	keystroke_r	r	n/a
289.739	0.076	579478	keystroke_t	t	n/a
289.9045	0.09	579809	keystroke_Key.space	Key.space	n/a
290.8045	0.06	581609	keystroke_r	r	n/a
290.9095	0.105	581819	keystroke_h	h	n/a
290.9545	0.194	581909	keystroke_o	o	n/a
291.0595	0.0745	582119	keystroke_d	d	n/a
291.2685	0.076	582537	keystroke_e	e	n/a
291.4795	0.075	582959	keystroke_Key.enter	Key.enter	n/a
291.56	9.881	583120	prompt	n/a	though christopher may stylish\n
292.3645	0.075	584729	keystroke_t	t	n/a
292.4995	0.105	584999	keystroke_h	h	n/a
292.6195	0.15	585239	keystroke_o	o	n/a
292.7695	0.12	585539	keystroke_u	u	n/a
293.0995	0.06	586199	keystroke_g	g	n/a
293.2345	0.105	586469	keystroke_h	h	n/a
293.4745	0.09	586949	keystroke_Key.space	Key.space	n/a
293.8345	0.0905	587669	keystroke_c	c	n/a
294.059	0.106	588118	keystroke_h	h	n/a
294.179	0.075	588358	keystroke_r	r	n/a
294.284	0.135	588568	keystroke_i	i	n/a
294.4795	0.09	588959	keystroke_s	s	n/a
295.0045	0.045	590009	keystroke_t	t	n/a
295.11	0.0895	590220	keystroke_i	i	n/a
295.7545	0.0895	591509	keystroke_Key.backspace	Key.backspace	n/a
295.98	0.104	591960	keystroke_p	p	n/a
296.684	0.105	593368	keystroke_Key.backspace	Key.backspace	n/a
297.1195	0.105	594239	keystroke_o	o	n/a
297.3295	0.0905	594659	keystroke_p	p	n/a
297.555	0.0895	595110	keystroke_h	h	n/a
297.72	0.0745	595440	keystroke_e	e	n/a
297.9145	0.09	595829	keystroke_r	r	n/a
298.169	0.075	596338	keystroke_Key.space	Key.space	n/a
298.469	0.105	596938	keystroke_m	m	n/a
298.6345	0.0895	597269	keystroke_a	a	n/a
298.769	0.09	597538	keystroke_y	y	n/a
298.994	0.09	597988	keystroke_Key.space	Key.space	n/a
299.325	0.105	598650	keystroke_s	s	n/a
299.5635	0.09	599127	keystroke_t	t	n/a
299.6695	0.074	599339	keystroke_y	y	n/a
299.879	0.0895	599758	keystroke_l	l	n/a
300.6445	0.09	601289	keystroke_i	i	n/a
301.0635	0.0615	602127	keystroke_s	s	n/a
301.1395	0.0905	602279	keystroke_h	h	n/a
301.3495	0.0895	602699	keystroke_Key.enter	Key.enter	n/a
301.446	9.145	602892	prompt	n/a	engaged attraction sarah simulations\n
302.924	0.09	605848	keystroke_e	e	n/a
303.03	0.1045	606060	keystroke_n	n	n/a
303.224	0.12	606448	keystroke_g	g	n/a
303.3295	0.135	606659	keystroke_a	a	n/a
303.5395	0.0905	607079	keystroke_g	g	n/a
303.674	0.1055	607348	keystroke_e	e	n/a
303.944	0.0755	607888	keystroke_d	d	n/a
304.1695	0.0745	608339	keystroke_Key.space	Key.space	n/a
304.574	0.0905	609148	keystroke_a	a	n/a
304.8445	0.0595	609689	keystroke_t	t	n/a
304.949	0.0905	609898	keystroke_t	t	n/a
305.2045	0.0905	610409	keystroke_r	r	n/a
305.384	0.1205	610768	keystroke_a	a	n/a
305.654	0.075	611308	keystroke_c	c	n/a
306.149	0.06	612298	keystroke_t	t	n/a
306.4645	0.135	612929	keystroke_i	i	n/a
306.5395	0.164	613079	keystroke_o	o	n/a
306.7635	0.105	613527	keystroke_n	n	n/a
307.0035	0.091	614007	keystroke_Key.space	Key.space	n/a
307.2745	0.0905	614549	keystroke_s	s	n/a
307.409	0.135	614818	keystroke_a	a	n/a
307.664	0.15	615328	keystroke_r	r	n/a
307.784	0.136	615568	keystroke_a	a	n/a
307.979	0.12	615958	keystroke_h	h	n/a
308.0845	0.1195	616169	keystroke_Key.space	Key.space	n/a
308.3245	0.0895	616649	keystroke_s	s	n/a
308.399	0.105	616798	keystroke_i	i	n/a
308.6095	0.09	617219	keystroke_m	m	n/a
308.789	0.1205	617578	keystroke_l	l	n/a
308.8945	0.09	617789	keystroke_a	a	n/a
309.6445	0.075	619289	keystroke_t	t	n/a
309.7645	0.135	619529	keystroke_i	i	n/a
309.839	0.1355	619678	keystroke_o	o	n/a
310.0045	0.12	620009	keystroke_n	n	n/a
310.2595	0.074	620519	keystroke_s	s	n/a
310.5145	0.074	621029	keystroke_Key.enter	Key.enter	n/a
310.5955	7.9455	621191	prompt	n/a	animals warehouse abandoned senegal\n
311.3545	0.105	622709	keystroke_a	a	n/a
311.4745	0.09	622949	keystroke_n	n	n/a
311.6095	0.09	623219	keystroke_i	i	n/a
311.7895	0.105	623579	keystroke_m	m	n/a
311.9245	0.105	623849	keystroke_a	a	n/a
311.9995	0.1205	623999	keystroke_l	l	n/a
312.1945	0.09	624389	keystroke_s	s	n/a
312.3295	0.1045	624659	keystroke_Key.space	Key.space	n/a
312.66	0.089	625320	keystroke_w	w	n/a
312.78	0.149	625560	keystroke_a	a	n/a
313.0645	0.12	626129	keystroke_r	r	n/a
313.1695	0.12	626339	keystroke_e	e	n/a
313.365	0.0745	626730	keystroke_h	h	n/a
313.4245	0.165	626849	keystroke_o	o	n/a
313.6045	0.105	627209	keystroke_u	u	n/a
313.739	0.1055	627478	keystroke_s	s	n/a
313.935	0.0745	627870	keystroke_e	e	n/a
314.0395	0.12	628079	keystroke_Key.space	Key.space	n/a
314.2195	0.135	628439	keystroke_a	a	n/a
314.429	0.135	628858	keystroke_b	b	n/a
315.3145	0.075	630629	keystroke_a	a	n/a
315.4795	0.09	630959	keystroke_n	n	n/a
315.644	0.0895	631288	keystroke_d	d	n/a
315.8995	0.105	631799	keystroke_o	o	n/a
316.1235	0.106	632247	keystroke_n	n	n/a
316.2445	0.0755	632489	keystroke_e	e	n/a
316.454	0.075	632908	keystroke_d	d	n/a
316.5895	0.105	633179	keystroke_Key.space	Key.space	n/a
316.8745	0.0895	633749	keystroke_s	s	n/a
317.249	0.075	634498	keystroke_e	e	n/a
317.4595	0.15	634919	keystroke_n	n	n/a
317.58	0.06	635160	keystroke_e	e	n/a
317.8645	0.09	635729	keystroke_g	g	n/a
318.045	0.104	636090	keystroke_a	a	n/a
318.195	0.12	636390	keystroke_l	l	n/a
318.4635	0.0755	636927	keystroke_Key.enter	Key.enter	n/a
318.5455	7.3905	637091	prompt	n/a	jamie commented fight rolls\n
319.4245	0.09	638849	keystroke_j	j	n/a
319.53	0.1045	639060	keystroke_a	a	n/a
319.664	0.1055	639328	keystroke_m	m	n/a
319.844	0.1205	639688	keystroke_i	i	n/a
320.0095	0.075	640019	keystroke_e	e	n/a
320.129	0.0895	640258	keystroke_Key.space	Key.space	n/a
320.384	0.0905	640768	keystroke_c	c	n/a
320.52	0.0895	641040	keystroke_o	o	n/a
320.744	0.0755	641488	keystroke_m	m	n/a
320.8945	0.09	641789	keystroke_m	m	n/a
321.059	0.0905	642118	keystroke_e	e	n/a
321.2095	0.1195	642419	keystroke_n	n	n/a
321.3895	0.0905	642779	keystroke_t	t	n/a
321.569	0.0755	643138	keystroke_e	e	n/a
321.7945	0.1045	643589	keystroke_d	d	n/a
321.9145	0.0895	643829	keystroke_Key.space	Key.space	n/a
322.544	0.0755	645088	keystroke_f	f	n/a
322.634	0.135	645268	keystroke_i	i	n/a
322.9795	0.06	645959	keystroke_g	g	n/a
323.0995	0.1195	646199	keystroke_h	h	n/a
323.204	0.09	646408	keystroke_t	t	n/a
323.474	0.09	646948	keystroke_Key.space	Key.space	n/a
323.819	0.0755	647638	keystroke_r	r	n/a
323.9395	0.0745	647879	keystroke_o	o	n/a
324.1195	0.0905	648239	keystroke_l	l	n/a
324.2695	0.105	648539	keystroke_l	l	n/a
324.434	0.0605	648868	keystroke_e	e	n/a
325.26	0.0895	650520	keystroke_Key.backspace	Key.backspace	n/a
325.6495	0.0605	651299	keystroke_s	s	n/a
325.8595	0.075	651719	keystroke_Key.enter	Key.enter	n/a
325.9405	9.1905	651881	prompt	n/a	dinner emails issues awarded\n
327.179	0.0605	654358	keystroke_d	d	n/a
327.2545	0.105	654509	keystroke_i	i	n/a
327.4345	0.076	654869	keystroke_n	n	n/a
327.5845	0.105	655169	keystroke_n	n	n/a
327.7045	0.105	655409	keystroke_e	e	n/a
327.9145	0.09	655829	keystroke_r	r	n/a
328.0495	0.0895	656099	keystroke_Key.space	Key.space	n/a
328.6345	0.06	657269	keystroke_e	e	n/a
328.7995	0.0895	657599	keystroke_m	m	n/a
329.009	0.09	658018	keystroke_a	a	n/a
329.1295	0.09	658259	keystroke_i	i	n/a
329.3095	0.1195	658619	keystroke_l	l	n/a
329.4145	0.075	658829	keystroke_s	s	n/a
329.5945	0.09	659189	keystroke_Key.space	Key.space	n/a
329.8345	0.0745	659669	keystroke_u	u	n/a
330.4495	0.075	660899	keystroke_Key.backspace	Key.backspace	n/a
330.6595	0.105	661319	keystroke_i	i	n/a
330.854	0.06	661708	keystroke_s	s	n/a
331.0195	0.0905	662039	keystroke_s	s	n/a
331.1695	0.105	662339	keystroke_u	u	n/a
331.4545	0.0905	662909	keystroke_e	e	n/a
331.829	0.075	663658	keystroke_s	s	n/a
332.505	0.074	665010	keystroke_Key.space	Key.space	n/a
332.7745	0.105	665549	keystroke_a	a	n/a
333.029	0.09	666058	keystroke_w	w	n/a
333.269	0.12	666538	keystroke_a	a	n/a
333.9295	0.0745	667859	keystroke_r	r	n/a
334.139	0.075	668278	keystroke_d	d	n/a
334.334	0.06	668668	keystroke_e	e	n/a
334.7535	0.076	669507	keystroke_d	d	n/a
335.0535	0.075	670107	keystroke_Key.enter	Key.enter	n/a
335.1355	8.0955	670271	prompt	n/a	churches finances janet promising\n
335.9395	0.075	671879	keystroke_c	c	n/a
336.0895	0.0595	672179	keystroke_h	h	n/a
336.2695	0.0745	672539	keystroke_u	u	n/a
336.419	0.075	672838	keystroke_r	r	n/a
336.974	0.075	673948	keystroke_c	c	n/a
337.199	0.1195	674398	keystroke_h	h	n/a
337.2895	0.09	674579	keystroke_e	e	n/a
337.514	0.1045	675028	keystroke_s	s	n/a
337.7085	0.0755	675417	keystroke_Key.space	Key.space	n/a
338.1735	0.0755	676347	keystroke_f	f	n/a
338.2635	0.1055	676527	keystroke_i	i	n/a
338.4585	0.121	676917	keystroke_n	n	n/a
338.6995	0.105	677399	keystroke_a	a	n/a
339.014	0.105	678028	keystroke_n	n	n/a
339.1345	0.0595	678269	keystroke_c	c	n/a
339.374	0.075	678748	keystroke_e	e	n/a
339.5845	0.0895	679169	keystroke_s	s	n/a
339.7645	0.0745	679529	keystroke_Key.space	Key.space	n/a
339.929	0.0905	679858	keystroke_j	j	n/a
340.034	0.15	680068	keystroke_a	a	n/a
340.1695	0.1345	680339	keystroke_n	n	n/a
340.3795	0.089	680759	keystroke_t	t	n/a
341.0095	0.104	682019	keystroke_Key.backspace	Key.backspace	n/a
341.0995	0.09	682199	keystroke_e	e	n/a
341.309	0.09	682618	keystroke_t	t	n/a
341.474	0.09	682948	keystroke_Key.space	Key.space	n/a
341.684	0.106	683368	keystroke_p	p	n/a
341.894	0.1045	683788	keystroke_r	r	n/a
341.9395	0.149	683879	keystroke_o	o	n/a
342.119	0.135	684238	keystroke_m	m	n/a
342.314	0.1355	684628	keystroke_i	i	n/a
342.509	0.1205	685018	keystroke_s	s	n/a
342.584	0.12	685168	keystroke_i	i	n/a
342.779	0.1355	685558	keystroke_n	n	n/a
342.9585	0.075	685917	keystroke_g	g	n/a
342.9735	0.061	685947	keystroke_f	f	n/a
343.1235	0.1055	686247	keystroke_Key.enter	Key.enter	n/a
343.2385	14.8275	686477	prompt	n/a	penny replication screenshots centuries\n
344.2945	0.119	688589	keystroke_p	p	n/a
344.4595	0.075	688919	keystroke_e	e	n/a
344.5945	0.0595	689189	keystroke_n	n	n/a
344.7295	0.0745	689459	keystroke_n	n	n/a
344.9845	0.0745	689969	keystroke_y	y	n/a
345.134	0.105	690268	keystroke_Key.space	Key.space	n/a
345.2845	0.12	690569	keystroke_p	p	n/a
345.4795	0.1345	690959	keystroke_r	r	n/a
345.599	0.12	691198	keystroke_e	e	n/a
346.499	0.075	692998	keystroke_Key.backspace	Key.backspace	n/a
346.679	0.09	693358	keystroke_Key.backspace	Key.backspace	n/a
346.889	0.09	693778	keystroke_Key.backspace	Key.backspace	n/a
347.279	0.1345	694558	keystroke_r	r	n/a
347.3685	0.1355	694737	keystroke_e	e	n/a
347.49	0.134	694980	keystroke_p	p	n/a
347.714	0.1055	695428	keystroke_l	l	n/a
348.1495	0.089	696299	keystroke_i	i	n/a
348.3745	0.089	696749	keystroke_c	c	n/a
348.5235	0.1055	697047	keystroke_a	a	n/a
348.809	0.0745	697618	keystroke_t	t	n/a
348.9295	0.1645	697859	keystroke_i	i	n/a
349.034	0.1505	698068	keystroke_o	o	n/a
349.214	0.135	698428	keystroke_n	n	n/a
349.454	0.075	698908	keystroke_Key.space	Key.space	n/a
349.664	0.075	699328	keystroke_c	c	n/a
350.0685	0.09	700137	keystroke_Key.backspace	Key.backspace	n/a
350.174	0.0905	700348	keystroke_s	s	n/a
350.399	0.0745	700798	keystroke_c	c	n/a
350.6235	0.091	701247	keystroke_h	h	n/a
350.8645	0.104	701729	keystroke_r	r	n/a
351.0435	0.091	702087	keystroke_e	e	n/a
351.1935	0.1055	702387	keystroke_e	e	n/a
351.344	0.12	702688	keystroke_n	n	n/a
351.524	0.0905	703048	keystroke_s	s	n/a
352.8595	0.135	705719	keystroke_h	h	n/a
352.9345	0.149	705869	keystroke_o	o	n/a
353.2335	0.091	706467	keystroke_t	t	n/a
353.4595	0.105	706919	keystroke_s	s	n/a
353.6085	0.075	707217	keystroke_Key.space	Key.space	n/a
353.7445	0.075	707489	keystroke_c	c	n/a
356.311	0.013	712622	keystroke_e	e	n/a
356.339	0.105	712678	keystroke_n	n	n/a
356.5195	0.074	713039	keystroke_t	t	n/a
357.1485	0.09	714297	keystroke_u	u	n/a
357.2695	0.1045	714539	keystroke_r	r	n/a
357.4045	0.1495	714809	keystroke_i	i	n/a
357.5095	0.0895	715019	keystroke_e	e	n/a
357.7495	0.0895	715499	keystroke_s	s	n/a
357.974	0.0905	715948	keystroke_Key.enter	Key.enter	n/a
358.0705	7.466	716141	prompt	n/a	cables fridge overhead highways\n
358.829	0.09	717658	keystroke_c	c	n/a
359.0845	0.0745	718169	keystroke_a	a	n/a
359.2935	0.076	718587	keystroke_b	b	n/a
359.414	0.1345	718828	keystroke_l	l	n/a
359.534	0.106	719068	keystroke_e	e	n/a
359.7585	0.121	719517	keystroke_s	s	n/a
359.924	0.1195	719848	keystroke_Key.space	Key.space	n/a
360.2695	0.06	720539	keystroke_f	f	n/a
360.4645	0.075	720929	keystroke_r	r	n/a
360.659	0.12	721318	keystroke_i	i	n/a
360.809	0.105	721618	keystroke_d	d	n/a
361.049	0.075	722098	keystroke_g	g	n/a
361.229	0.1055	722458	keystroke_e	e	n/a
361.364	0.09	722728	keystroke_Key.space	Key.space	n/a
361.529	0.135	723058	keystroke_o	o	n/a
361.769	0.09	723538	keystroke_v	v	n/a
361.964	0.105	723928	keystroke_e	e	n/a
362.1435	0.091	724287	keystroke_r	r	n/a
362.309	0.1045	724618	keystroke_h	h	n/a
362.5045	0.0895	725009	keystroke_e	e	n/a
363.059	0.105	726118	keystroke_a	a	n/a
363.269	0.0745	726538	keystroke_d	d	n/a
363.4185	0.105	726837	keystroke_Key.space	Key.space	n/a
363.7785	0.09	727557	keystroke_h	h	n/a
363.8835	0.151	727767	keystroke_i	i	n/a
364.109	0.075	728218	keystroke_g	g	n/a
364.2145	0.1195	728429	keystroke_h	h	n/a
364.664	0.075	729328	keystroke_w	w	n/a
364.844	0.1205	729688	keystroke_a	a	n/a
365.0395	0.105	730079	keystroke_y	y	n/a
365.2195	0.09	730439	keystroke_s	s	n/a
365.4595	0.075	730919	keystroke_Key.enter	Key.enter	n/a
365.541	8.6195	731082	prompt	n/a	organizing undergraduate villa wagner\n
366.494	0.135	732988	keystroke_o	o	n/a
366.614	0.06	733228	keystroke_r	r	n/a
366.824	0.1205	733648	keystroke_g	g	n/a
366.959	0.1355	733918	keystroke_a	a	n/a
367.0645	0.1045	734129	keystroke_n	n	n/a
367.199	0.15	734398	keystroke_i	i	n/a
367.3645	0.09	734729	keystroke_z	z	n/a
367.5895	0.135	735179	keystroke_i	i	n/a
367.8295	0.105	735659	keystroke_n	n	n/a
367.9785	0.0905	735957	keystroke_g	g	n/a
368.1285	0.0905	736257	keystroke_Key.space	Key.space	n/a
368.339	0.09	736678	keystroke_u	u	n/a
368.579	0.12	737158	keystroke_n	n	n/a
368.714	0.09	737428	keystroke_d	d	n/a
368.969	0.075	737938	keystroke_r	r	n/a
369.284	0.09	738568	keystroke_g	g	n/a
370.094	0.0895	740188	keystroke_r	r	n/a
370.3185	0.121	740637	keystroke_a	a	n/a
370.814	0.06	741628	keystroke_d	d	n/a
370.8885	0.1205	741777	keystroke_u	u	n/a
371.024	0.1345	742048	keystroke_a	a	n/a
371.309	0.0755	742618	keystroke_t	t	n/a
371.474	0.09	742948	keystroke_e	e	n/a
371.609	0.0895	743218	keystroke_Key.space	Key.space	n/a
371.8795	0.0745	743759	keystroke_v	v	n/a
371.9695	0.09	743939	keystroke_i	i	n/a
372.1645	0.0895	744329	keystroke_l	l	n/a
372.329	0.12	744658	keystroke_l	l	n/a
372.4785	0.136	744957	keystroke_a	a	n/a
372.5985	0.075	745197	keystroke_Key.space	Key.space	n/a
372.7945	0.09	745589	keystroke_w	w	n/a
372.944	0.1345	745888	keystroke_a	a	n/a
373.244	0.09	746488	keystroke_g	g	n/a
373.4845	0.15	746969	keystroke_n	n	n/a
373.589	0.105	747178	keystroke_e	e	n/a
373.8145	0.104	747629	keystroke_r	r	n/a
374.0835	0.075	748167	keystroke_Key.enter	Key.enter	n/a
374.1645	5.621	748329	prompt	n/a	serves global some cancer\n
375.179	0.03	750358	keystroke_s	s	n/a
375.314	0.165	750628	keystroke_e	e	n/a
375.494	0.075	750988	keystroke_r	r	n/a
375.719	0.1055	751438	keystroke_v	v	n/a
375.9135	0.091	751827	keystroke_e	e	n/a
376.1395	0.105	752279	keystroke_s	s	n/a
376.3035	0.0905	752607	keystroke_Key.space	Key.space	n/a
376.6035	0.076	753207	keystroke_g	g	n/a
376.7095	0.074	753419	keystroke_l	l	n/a
376.9045	0.135	753809	keystroke_o	o	n/a
377.0245	0.0895	754049	keystroke_b	b	n/a
377.294	0.105	754588	keystroke_a	a	n/a
377.4745	0.135	754949	keystroke_l	l	n/a
377.6395	0.119	755279	keystroke_Key.space	Key.space	n/a
377.8495	0.09	755699	keystroke_s	s	n/a
377.8945	0.135	755789	keystroke_o	o	n/a
378.0895	0.15	756179	keystroke_m	m	n/a
378.2695	0.09	756539	keystroke_e	e	n/a
378.4195	0.0895	756839	keystroke_Key.space	Key.space	n/a
378.644	0.1055	757288	keystroke_c	c	n/a
378.8245	0.119	757649	keystroke_a	a	n/a
378.9745	0.12	757949	keystroke_n	n	n/a
379.064	0.0905	758128	keystroke_c	c	n/a
379.289	0.0905	758578	keystroke_e	e	n/a
379.4845	0.089	758969	keystroke_r	r	n/a
379.6935	0.09	759387	keystroke_Key.enter	Key.enter	n/a
379.7885	10.6925	759577	prompt	n/a	english organizations quality responsibility\n
380.7295	0.045	761459	keystroke_e	e	n/a
380.8495	0.09	761699	keystroke_n	n	n/a
381.5995	0.074	763199	keystroke_g	g	n/a
381.6895	0.12	763379	keystroke_l	l	n/a
381.8695	0.135	763739	keystroke_i	i	n/a
382.1095	0.075	764219	keystroke_s	s	n/a
382.2745	0.0895	764549	keystroke_h	h	n/a
382.454	0.075	764908	keystroke_Key.space	Key.space	n/a
382.6045	0.105	765209	keystroke_o	o	n/a
382.7545	0.06	765509	keystroke_r	r	n/a
382.9495	0.105	765899	keystroke_g	g	n/a
383.1145	0.135	766229	keystroke_a	a	n/a
383.2945	0.075	766589	keystroke_n	n	n/a
383.4595	0.105	766919	keystroke_i	i	n/a
383.6095	0.09	767219	keystroke_z	z	n/a
383.9095	0.075	767819	keystroke_a	a	n/a
384.3445	0.09	768689	keystroke_t	t	n/a
384.4795	0.165	768959	keystroke_i	i	n/a
384.5995	0.135	769199	keystroke_o	o	n/a
384.7795	0.15	769559	keystroke_n	n	n/a
384.9745	0.09	769949	keystroke_s	s	n/a
385.1245	0.12	770249	keystroke_Key.space	Key.space	n/a
385.889	0.1055	771778	keystroke_q	q	n/a
386.0695	0.1195	772139	keystroke_u	u	n/a
386.2045	0.1045	772409	keystroke_a	a	n/a
386.369	0.12	772738	keystroke_l	l	n/a
386.549	0.1055	773098	keystroke_i	i	n/a
386.729	0.075	773458	keystroke_t	t	n/a
386.834	0.105	773668	keystroke_y	y	n/a
386.954	0.09	773908	keystroke_Key.space	Key.space	n/a
387.194	0.1645	774388	keystroke_r	r	n/a
387.3435	0.106	774687	keystroke_e	e	n/a
387.5845	0.1045	775169	keystroke_s	s	n/a
387.749	0.165	775498	keystroke_p	p	n/a
387.8695	0.179	775739	keystroke_o	o	n/a
388.0635	0.151	776127	keystroke_n	n	n/a
388.3345	0.09	776669	keystroke_s	s	n/a
388.4385	0.15	776877	keystroke_i	i	n/a
389.3845	0.075	778769	keystroke_b	b	n/a
389.4745	0.09	778949	keystroke_i	i	n/a
389.654	0.165	779308	keystroke_l	l	n/a
389.774	0.135	779548	keystroke_i	i	n/a
389.969	0.105	779938	keystroke_t	t	n/a
390.1195	0.0895	780239	keystroke_y	y	n/a
390.3745	0.1045	780749	keystroke_Key.enter	Key.enter	n/a
390.4855	10.9605	780971	prompt	n/a	directors medications paris font\n
391.2445	0.06	782489	keystroke_d	d	n/a
391.499	0.09	782998	keystroke_e	e	n/a
391.754	0.135	783508	keystroke_r	r	n/a
391.859	0.135	783718	keystroke_e	e	n/a
392.4135	0.0605	784827	keystroke_Key.backspace	Key.backspace	n/a
392.579	0.075	785158	keystroke_Key.backspace	Key.backspace	n/a
392.774	0.09	785548	keystroke_Key.backspace	Key.backspace	n/a
393.029	0.1045	786058	keystroke_i	i	n/a
393.2095	0.09	786419	keystroke_e	e	n/a
393.7495	0.1045	787499	keystroke_Key.backspace	Key.backspace	n/a
393.8695	0.1045	787739	keystroke_r	r	n/a
393.959	0.09	787918	keystroke_e	e	n/a
394.364	0.09	788728	keystroke_c	c	n/a
394.634	0.06	789268	keystroke_t	t	n/a
394.724	0.151	789448	keystroke_o	o	n/a
394.86	0.0735	789720	keystroke_r	r	n/a
395.144	0.09	790288	keystroke_s	s	n/a
395.4145	0.0745	790829	keystroke_Key.space	Key.space	n/a
395.5945	0.12	791189	keystroke_m	m	n/a
395.7285	0.0755	791457	keystroke_e	e	n/a
395.9245	0.09	791849	keystroke_d	d	n/a
396.0285	0.105	792057	keystroke_i	i	n/a
396.119	0.12	792238	keystroke_a	a	n/a
396.329	0.0895	792658	keystroke_c	c	n/a
397.304	0.06	794608	keystroke_Key.backspace	Key.backspace	n/a
397.454	0.09	794908	keystroke_Key.backspace	Key.backspace	n/a
397.559	0.075	795118	keystroke_c	c	n/a
397.619	0.18	795238	keystroke_a	a	n/a
398.414	0.09	796828	keystroke_t	t	n/a
398.534	0.15	797068	keystroke_i	i	n/a
398.609	0.165	797218	keystroke_o	o	n/a
398.804	0.12	797608	keystroke_n	n	n/a
398.984	0.06	797968	keystroke_e	e	n/a
399.239	0.075	798478	keystroke_s	s	n/a
399.359	0.09	798718	keystroke_Key.space	Key.space	n/a
399.6735	0.1205	799347	keystroke_p	p	n/a
399.764	0.1195	799528	keystroke_a	a	n/a
400.034	0.09	800068	keystroke_r	r	n/a
400.109	0.12	800218	keystroke_i	i	n/a
400.319	0.09	800638	keystroke_s	s	n/a
400.439	0.09	800878	keystroke_Key.space	Key.space	n/a
400.739	0.075	801478	keystroke_f	f	n/a
400.815	0.134	801630	keystroke_o	o	n/a
400.994	0.15	801988	keystroke_n	n	n/a
401.174	0.09	802348	keystroke_t	t	n/a
401.354	0.09	802708	keystroke_Key.enter	Key.enter	n/a
401.451	9.8345	802902	prompt	n/a	philippines they've para randy\n
402.209	0.12	804418	keystroke_p	p	n/a
402.4495	0.0895	804899	keystroke_h	h	n/a
402.6885	0.135	805377	keystroke_l	l	n/a
402.9295	0.105	805859	keystroke_i	i	n/a
404.159	0.06	808318	keystroke_Key.backspace	Key.backspace	n/a
404.3085	0.106	808617	keystroke_Key.backspace	Key.backspace	n/a
404.534	0.105	809068	keystroke_i	i	n/a
404.744	0.15	809488	keystroke_l	l	n/a
405.014	0.09	810028	keystroke_i	i	n/a
405.674	0.1355	811348	keystroke_p	p	n/a
405.9895	0.12	811979	keystroke_p	p	n/a
406.2895	0.105	812579	keystroke_i	i	n/a
406.5145	0.15	813029	keystroke_n	n	n/a
406.6795	0.075	813359	keystroke_e	e	n/a
406.8885	0.105	813777	keystroke_s	s	n/a
407.054	0.1045	814108	keystroke_Key.space	Key.space	n/a
407.369	0.0895	814738	keystroke_t	t	n/a
407.4735	0.106	814947	keystroke_h	h	n/a
407.5945	0.119	815189	keystroke_e	e	n/a
407.759	0.0745	815518	keystroke_y	y	n/a
407.9985	0.1055	815997	keystroke_'	'	n/a
408.584	0.075	817168	keystroke_v	v	n/a
408.779	0.09	817558	keystroke_e	e	n/a
408.899	0.075	817798	keystroke_Key.space	Key.space	n/a
409.094	0.105	818188	keystroke_p	p	n/a
409.184	0.12	818368	keystroke_a	a	n/a
409.4545	0.105	818909	keystroke_r	r	n/a
409.664	0.1045	819328	keystroke_a	a	n/a
409.8735	0.09	819747	keystroke_Key.space	Key.space	n/a
410.1295	0.135	820259	keystroke_r	r	n/a
410.2345	0.1495	820469	keystroke_a	a	n/a
410.459	0.1045	820918	keystroke_n	n	n/a
410.7445	0.09	821489	keystroke_d	d	n/a
410.9695	0.09	821939	keystroke_y	y	n/a
411.209	0.075	822418	keystroke_Key.enter	Key.enter	n/a
411.2975	9.3355	822595	prompt	n/a	eminem computed bracelets ringtone\n
412.3195	0.0895	824639	keystroke_e	e	n/a
412.394	0.09	824788	keystroke_m	m	n/a
412.529	0.105	825058	keystroke_i	i	n/a
412.694	0.1355	825388	keystroke_n	n	n/a
412.919	0.06	825838	keystroke_e	e	n/a
413.084	0.12	826168	keystroke_m	m	n/a
413.294	0.075	826588	keystroke_Key.space	Key.space	n/a
413.924	0.075	827848	keystroke_c	c	n/a
414.029	0.135	828058	keystroke_o	o	n/a
414.2385	0.1055	828477	keystroke_m	m	n/a
414.5385	0.105	829077	keystroke_p	p	n/a
414.8685	0.075	829737	keystroke_u	u	n/a
415.514	0.12	831028	keystroke_t	t	n/a
415.694	0.0755	831388	keystroke_e	e	n/a
415.919	0.0755	831838	keystroke_d	d	n/a
416.054	0.089	832108	keystroke_Key.space	Key.space	n/a
416.2945	0.06	832589	keystroke_b	b	n/a
416.534	0.1495	833068	keystroke_r	r	n/a
416.6695	0.134	833339	keystroke_a	a	n/a
416.9085	0.075	833817	keystroke_c	c	n/a
417.1185	0.061	834237	keystroke_e	e	n/a
417.2235	0.1505	834447	keystroke_l	l	n/a
417.3585	0.09	834717	keystroke_e	e	n/a
417.584	0.09	835168	keystroke_t	t	n/a
417.809	0.135	835618	keystroke_s	s	n/a
417.974	0.0905	835948	keystroke_Key.space	Key.space	n/a
418.2135	0.0755	836427	keystroke_r	r	n/a
418.319	0.105	836638	keystroke_i	i	n/a
419.0235	0.105	838047	keystroke_n	n	n/a
419.159	0.075	838318	keystroke_g	g	n/a
419.549	0.075	839098	keystroke_t	t	n/a
419.684	0.135	839368	keystroke_o	o	n/a
420.314	0.06	840628	keystroke_n	n	n/a
420.359	0.075	840718	keystroke_e	e	n/a
420.539	0.09	841078	keystroke_Key.enter	Key.enter	n/a
420.637	7.3135	841274	prompt	n/a	irish what'll child kelly\n
421.604	0.1345	843208	keystroke_i	i	n/a
421.874	0.0745	843748	keystroke_r	r	n/a
421.9795	0.134	843959	keystroke_i	i	n/a
422.249	0.09	844498	keystroke_s	s	n/a
422.354	0.09	844708	keystroke_h	h	n/a
422.504	0.09	845008	keystroke_Key.space	Key.space	n/a
422.789	0.09	845578	keystroke_w	w	n/a
422.909	0.15	845818	keystroke_h	h	n/a
422.999	0.135	845998	keystroke_a	a	n/a
423.8685	0.0605	847737	keystroke_t	t	n/a
424.0185	0.1205	848037	keystroke_'	'	n/a
424.2735	0.09	848547	keystroke_l	l	n/a
424.4245	0.105	848849	keystroke_l	l	n/a
424.7985	0.0755	849597	keystroke_Key.space	Key.space	n/a
425.324	0.0745	850648	keystroke_c	c	n/a
425.4435	0.105	850887	keystroke_h	h	n/a
425.5335	0.075	851067	keystroke_i	i	n/a
426.4335	0.0155	852867	keystroke_l	l	n/a
426.464	0.09	852928	keystroke_d	d	n/a
426.6135	0.09	853227	keystroke_Key.space	Key.space	n/a
426.8545	0.119	853709	keystroke_k	k	n/a
426.9885	0.0755	853977	keystroke_e	e	n/a
427.1985	0.075	854397	keystroke_l	l	n/a
427.3635	0.075	854727	keystroke_l	l	n/a
427.5895	0.0745	855179	keystroke_y	y	n/a
427.859	0.09	855718	keystroke_Key.enter	Key.enter	n/a
427.9565	5.4995	855913	prompt	n/a	sega made shut uniform\n
428.699	0.105	857398	keystroke_s	s	n/a
428.909	0.06	857818	keystroke_e	e	n/a
429.119	0.105	858238	keystroke_g	g	n/a
429.329	0.119	858658	keystroke_a	a	n/a
429.464	0.09	858928	keystroke_Key.space	Key.space	n/a
429.6745	0.1195	859349	keystroke_m	m	n/a
429.779	0.105	859558	keystroke_a	a	n/a
429.989	0.06	859978	keystroke_d	d	n/a
430.2145	0.0745	860429	keystroke_e	e	n/a
430.334	0.104	860668	keystroke_Key.space	Key.space	n/a
430.4835	0.12	860967	keystroke_s	s	n/a
430.5885	0.0755	861177	keystroke_h	h	n/a
430.7845	0.0895	861569	keystroke_u	u	n/a
431.039	0.0895	862078	keystroke_t	t	n/a
431.1885	0.09	862377	keystroke_Key.space	Key.space	n/a
431.5195	0.1045	863039	keystroke_u	u	n/a
431.7585	0.09	863517	keystroke_n	n	n/a
431.9835	0.1055	863967	keystroke_i	i	n/a
432.734	0.075	865468	keystroke_f	f	n/a
432.824	0.135	865648	keystroke_o	o	n/a
432.974	0.105	865948	keystroke_r	r	n/a
433.109	0.12	866218	keystroke_m	m	n/a
433.363	0.091	866726	keystroke_Key.enter	Key.enter	n/a
433.4605	11.0515	866921	prompt	n/a	forgotten smallest evanescence removal\n
434.5035	0.075	869007	keystroke_f	f	n/a
434.6235	0.15	869247	keystroke_o	o	n/a
434.7435	0.0755	869487	keystroke_r	r	n/a
435.434	0.0595	870868	keystroke_g	g	n/a
435.509	0.1195	871018	keystroke_o	o	n/a
435.719	0.075	871438	keystroke_t	t	n/a
435.8535	0.105	871707	keystroke_t	t	n/a
436.094	0.0745	872188	keystroke_e	e	n/a
436.2585	0.1055	872517	keystroke_n	n	n/a
436.454	0.105	872908	keystroke_Key.space	Key.space	n/a
436.6785	0.091	873357	keystroke_s	s	n/a
436.784	0.105	873568	keystroke_m	m	n/a
436.889	0.1045	873778	keystroke_a	a	n/a
437.024	0.0745	874048	keystroke_l	l	n/a
437.188	0.1055	874376	keystroke_l	l	n/a
437.309	0.09	874618	keystroke_e	e	n/a
437.519	0.119	875038	keystroke_s	s	n/a
437.789	0.0745	875578	keystroke_t	t	n/a
437.9685	0.075	875937	keystroke_Key.space	Key.space	n/a
438.254	0.06	876508	keystroke_e	e	n/a
438.464	0.1495	876928	keystroke_v	v	n/a
438.5685	0.1355	877137	keystroke_a	a	n/a
439.0935	0.105	878187	keystroke_n	n	n/a
439.2135	0.0905	878427	keystroke_c	c	n/a
440.158	0.0755	880316	keystroke_Key.backspace	Key.backspace	n/a
440.249	0.06	880498	keystroke_e	e	n/a
441.434	0.075	882868	keystroke_s	s	n/a
441.643	0.076	883286	keystroke_c	c	n/a
441.868	0.0605	883736	keystroke_e	e	n/a
442.033	0.121	884066	keystroke_n	n	n/a
442.138	0.0605	884276	keystroke_c	c	n/a
442.379	0.06	884758	keystroke_e	e	n/a
442.5435	0.0755	885087	keystroke_Key.space	Key.space	n/a
442.769	0.105	885538	keystroke_r	r	n/a
442.904	0.105	885808	keystroke_e	e	n/a
443.324	0.09	886648	keystroke_m	m	n/a
443.519	0.12	887038	keystroke_o	o	n/a
443.654	0.09	887308	keystroke_v	v	n/a
443.9385	0.0905	887877	keystroke_a	a	n/a
444.1485	0.09	888297	keystroke_l	l	n/a
444.4335	0.0755	888867	keystroke_Key.enter	Key.enter	n/a
444.5205	8.721	889041	prompt	n/a	reviewer dining minnesota vocal\n
445.679	0.075	891358	keystroke_r	r	n/a
445.768	0.091	891536	keystroke_e	e	n/a
446.009	0.075	892018	keystroke_v	v	n/a
446.204	0.12	892408	keystroke_i	i	n/a
446.309	0.09	892618	keystroke_e	e	n/a
447.704	0.0895	895408	keystroke_w	w	n/a
447.884	0.09	895768	keystroke_e	e	n/a
448.139	0.075	896278	keystroke_r	r	n/a
448.349	0.09	896698	keystroke_Key.space	Key.space	n/a
448.559	0.075	897118	keystroke_d	d	n/a
448.664	0.12	897328	keystroke_i	i	n/a
448.874	0.1355	897748	keystroke_n	n	n/a
449.024	0.12	898048	keystroke_i	i	n/a
449.204	0.105	898408	keystroke_n	n	n/a
449.4435	0.06	898887	keystroke_g	g	n/a
449.6235	0.075	899247	keystroke_Key.space	Key.space	n/a
450.1185	0.075	900237	keystroke_m	m	n/a
450.599	0.0745	901198	keystroke_i	i	n/a
450.7935	0.0455	901587	keystroke_n	n	n/a
450.929	0.0895	901858	keystroke_n	n	n/a
451.124	0.0745	902248	keystroke_e	e	n/a
451.3635	0.105	902727	keystroke_s	s	n/a
451.6485	0.0905	903297	keystroke_o	o	n/a
451.8435	0.09	903687	keystroke_t	t	n/a
452.008	0.136	904016	keystroke_a	a	n/a
452.188	0.061	904376	keystroke_Key.space	Key.space	n/a
452.3235	0.0755	904647	keystroke_v	v	n/a
452.414	0.12	904828	keystroke_o	o	n/a
452.564	0.1045	905128	keystroke_c	c	n/a
452.7585	0.1055	905517	keystroke_a	a	n/a
452.8935	0.1055	905787	keystroke_l	l	n/a
453.1635	0.076	906327	keystroke_Key.enter	Key.enter	n/a
453.247	7.5705	906494	prompt	n/a	alcohol ctrl punch hadn't\n
454.1085	0.12	908217	keystroke_a	a	n/a
454.2135	0.09	908427	keystroke_l	l	n/a
454.4835	0.075	908967	keystroke_c	c	n/a
454.6035	0.1055	909207	keystroke_o	o	n/a
454.814	0.1195	909628	keystroke_h	h	n/a
454.874	0.1345	909748	keystroke_o	o	n/a
455.128	0.121	910256	keystroke_l	l	n/a
455.308	0.09	910616	keystroke_Key.space	Key.space	n/a
455.519	0.074	911038	keystroke_c	c	n/a
456.284	0.059	912568	keystroke_t	t	n/a
456.4635	0.1045	912927	keystroke_r	r	n/a
456.5835	0.106	913167	keystroke_l	l	n/a
456.884	0.089	913768	keystroke_Key.space	Key.space	n/a
457.349	0.0755	914698	keystroke_p	p	n/a
457.544	0.06	915088	keystroke_u	u	n/a
457.874	0.105	915748	keystroke_n	n	n/a
458.084	0.0755	916168	keystroke_c	c	n/a
458.203	0.105	916406	keystroke_h	h	n/a
458.4135	0.0745	916827	keystroke_Key.space	Key.space	n/a
458.878	0.091	917756	keystroke_h	h	n/a
458.984	0.1055	917968	keystroke_a	a	n/a
459.7495	0.0745	919499	keystroke_d	d	n/a
459.944	0.105	919888	keystroke_n	n	n/a
460.1685	0.1205	920337	keystroke_'	'	n/a
460.349	0.06	920698	keystroke_t	t	n/a
460.754	0.06	921508	keystroke_Key.enter	Key.enter	n/a
460.822	8.7085	921644	prompt	n/a	autos viewed principles sandwich\n
461.6245	0.1195	923249	keystroke_a	a	n/a
461.774	0.09	923548	keystroke_u	u	n/a
461.984	0.0905	923968	keystroke_t	t	n/a
462.0595	0.1345	924119	keystroke_o	o	n/a
462.3895	0.0895	924779	keystroke_s	s	n/a
462.554	0.105	925108	keystroke_Key.space	Key.space	n/a
462.854	0.075	925708	keystroke_v	v	n/a
462.959	0.119	925918	keystroke_i	i	n/a
463.1835	0.09	926367	keystroke_e	e	n/a
463.424	0.1055	926848	keystroke_w	w	n/a
464.2935	0.061	928587	keystroke_e	e	n/a
464.519	0.075	929038	keystroke_d	d	n/a
464.6835	0.09	929367	keystroke_Key.space	Key.space	n/a
464.9385	0.09	929877	keystroke_p	p	n/a
465.1335	0.075	930267	keystroke_r	r	n/a
465.254	0.075	930508	keystroke_i	i	n/a
465.809	0.075	931618	keystroke_n	n	n/a
466.124	0.06	932248	keystroke_c	c	n/a
466.214	0.105	932428	keystroke_i	i	n/a
466.394	0.12	932788	keystroke_p	p	n/a
466.6185	0.136	933237	keystroke_l	l	n/a
466.7695	0.09	933539	keystroke_e	e	n/a
466.9935	0.09	933987	keystroke_s	s	n/a
467.0835	0.105	934167	keystroke_Key.space	Key.space	n/a
467.3395	0.149	934679	keystroke_s	s	n/a
467.4435	0.1505	934887	keystroke_a	a	n/a
467.669	0.045	935338	keystroke_n	n	n/a
468.374	0.06	936748	keystroke_d	d	n/a
468.809	0.0745	937618	keystroke_w	w	n/a
468.929	0.1195	937858	keystroke_i	i	n/a
469.079	0.09	938158	keystroke_c	c	n/a
469.1985	0.1055	938397	keystroke_h	h	n/a
469.4385	0.0895	938877	keystroke_Key.enter	Key.enter	n/a
469.534	8.2165	939068	prompt	n/a	profile coaching tractor agenda\n
470.159	0.105	940318	keystroke_p	p	n/a
470.369	0.075	940738	keystroke_r	r	n/a
470.459	0.135	940918	keystroke_o	o	n/a
470.8045	0.0895	941609	keystroke_f	f	n/a
470.909	0.1045	941818	keystroke_i	i	n/a
471.224	0.1195	942448	keystroke_l	l	n/a
471.524	0.06	943048	keystroke_e	e	n/a
471.779	0.0745	943558	keystroke_Key.space	Key.space	n/a
472.409	0.059	944818	keystroke_d	d	n/a
472.769	0.09	945538	keystroke_Key.backspace	Key.backspace	n/a
472.934	0.075	945868	keystroke_c	c	n/a
473.054	0.119	946108	keystroke_o	o	n/a
473.189	0.12	946378	keystroke_a	a	n/a
473.594	0.075	947188	keystroke_c	c	n/a
473.7885	0.0905	947577	keystroke_h	h	n/a
473.894	0.105	947788	keystroke_i	i	n/a
474.059	0.134	948118	keystroke_n	n	n/a
474.239	0.074	948478	keystroke_g	g	n/a
474.358	0.091	948716	keystroke_Key.space	Key.space	n/a
474.524	0.074	949048	keystroke_t	t	n/a
474.719	0.09	949438	keystroke_r	r	n/a
474.884	0.1055	949768	keystroke_a	a	n/a
475.108	0.09	950216	keystroke_c	c	n/a
475.4535	0.075	950907	keystroke_t	t	n/a
475.5735	0.1355	951147	keystroke_o	o	n/a
475.6935	0.105	951387	keystroke_r	r	n/a
475.844	0.0895	951688	keystroke_Key.space	Key.space	n/a
476.0535	0.1355	952107	keystroke_a	a	n/a
476.324	0.075	952648	keystroke_g	g	n/a
476.489	0.0895	952978	keystroke_e	e	n/a
476.7885	0.1055	953577	keystroke_n	n	n/a
477.134	0.075	954268	keystroke_d	d	n/a
477.404	0.09	954808	keystroke_a	a	n/a
477.674	0.075	955348	keystroke_Key.enter	Key.enter	n/a
477.7545	9.0105	955509	prompt	n/a	lighting fairly working spirituality\n
478.4985	0.105	956997	keystroke_l	l	n/a
478.6485	0.105	957297	keystroke_i	i	n/a
478.8135	0.0905	957627	keystroke_g	g	n/a
478.9345	0.1045	957869	keystroke_h	h	n/a
479.1295	0.074	958259	keystroke_t	t	n/a
479.309	0.105	958618	keystroke_i	i	n/a
479.519	0.105	959038	keystroke_n	n	n/a
479.699	0.09	959398	keystroke_g	g	n/a
479.879	0.09	959758	keystroke_Key.space	Key.space	n/a
480.329	0.045	960658	keystroke_f	f	n/a
480.389	0.06	960778	keystroke_a	a	n/a
480.554	0.105	961108	keystroke_i	i	n/a
480.689	0.105	961378	keystroke_r	r	n/a
480.794	0.105	961588	keystroke_l	l	n/a
481.079	0.09	962158	keystroke_y	y	n/a
481.319	0.06	962638	keystroke_Key.space	Key.space	n/a
482.069	0.09	964138	keystroke_w	w	n/a
482.1735	0.1205	964347	keystroke_o	o	n/a
482.5935	0.075	965187	keystroke_r	r	n/a
482.6985	0.09	965397	keystroke_k	k	n/a
482.9235	0.0755	965847	keystroke_i	i	n/a
483.0735	0.1205	966147	keystroke_n	n	n/a
483.314	0.0745	966628	keystroke_g	g	n/a
483.4335	0.1045	966867	keystroke_Key.space	Key.space	n/a
483.659	0.105	967318	keystroke_s	s	n/a
483.733	0.121	967466	keystroke_p	p	n/a
483.899	0.105	967798	keystroke_i	i	n/a
484.124	0.0745	968248	keystroke_r	r	n/a
484.244	0.12	968488	keystroke_i	i	n/a
484.529	0.0895	969058	keystroke_t	t	n/a
484.6035	0.1055	969207	keystroke_u	u	n/a
484.784	0.105	969568	keystroke_a	a	n/a
485.968	0.1655	971936	keystroke_l	l	n/a
486.1485	0.105	972297	keystroke_i	i	n/a
486.329	0.09	972658	keystroke_t	t	n/a
486.4335	0.075	972867	keystroke_y	y	n/a
486.674	0.0895	973348	keystroke_Key.enter	Key.enter	n/a
486.7695	5.426	973539	prompt	n/a	ruby prostate kids fold\n
487.679	0.075	975358	keystroke_r	r	n/a
487.739	0.12	975478	keystroke_u	u	n/a
487.934	0.105	975868	keystroke_b	b	n/a
488.084	0.1045	976168	keystroke_y	y	n/a
488.249	0.105	976498	keystroke_Key.space	Key.space	n/a
488.444	0.105	976888	keystroke_p	p	n/a
488.624	0.105	977248	keystroke_r	r	n/a
488.744	0.09	977488	keystroke_o	o	n/a
488.879	0.1495	977758	keystroke_s	s	n/a
489.134	0.1195	978268	keystroke_t	t	n/a
489.314	0.1495	978628	keystroke_a	a	n/a
489.5835	0.0905	979167	keystroke_t	t	n/a
489.809	0.075	979618	keystroke_e	e	n/a
489.9735	0.105	979947	keystroke_Key.space	Key.space	n/a
490.319	0.089	980638	keystroke_k	k	n/a
490.5435	0.1045	981087	keystroke_i	i	n/a
490.9185	0.03	981837	keystroke_d	d	n/a
491.128	0.0605	982256	keystroke_s	s	n/a
491.278	0.091	982556	keystroke_Key.space	Key.space	n/a
491.5035	0.0745	983007	keystroke_f	f	n/a
491.5635	0.09	983127	keystroke_o	o	n/a
491.7585	0.135	983517	keystroke_l	l	n/a
491.9385	0.091	983877	keystroke_d	d	n/a
492.1035	0.09	984207	keystroke_Key.enter	Key.enter	n/a
492.1995	6.491	984399	prompt	n/a	rope nancy trouble greece\n
493.334	0.074	986668	keystroke_r	r	n/a
493.454	0.105	986908	keystroke_o	o	n/a
493.589	0.18	987178	keystroke_p	p	n/a
493.784	0.075	987568	keystroke_e	e	n/a
493.904	0.09	987808	keystroke_Key.space	Key.space	n/a
494.114	0.1045	988228	keystroke_n	n	n/a
494.429	0.1045	988858	keystroke_a	a	n/a
494.6985	0.1205	989397	keystroke_n	n	n/a
494.834	0.0895	989668	keystroke_c	c	n/a
495.029	0.09	990058	keystroke_y	y	n/a
495.2085	0.075	990417	keystroke_Key.space	Key.space	n/a
495.4785	0.0605	990957	keystroke_t	t	n/a
495.6735	0.09	991347	keystroke_r	r	n/a
495.7935	0.136	991587	keystroke_o	o	n/a
495.9135	0.105	991827	keystroke_u	u	n/a
496.1685	0.09	992337	keystroke_b	b	n/a
496.334	0.1195	992668	keystroke_l	l	n/a
496.5285	0.0755	993057	keystroke_e	e	n/a
496.6485	0.09	993297	keystroke_Key.space	Key.space	n/a
497.4285	0.06	994857	keystroke_g	g	n/a
497.609	0.09	995218	keystroke_r	r	n/a
497.7585	0.09	995517	keystroke_e	e	n/a
497.8935	0.09	995787	keystroke_e	e	n/a
498.1335	0.075	996267	keystroke_c	c	n/a
498.373	0.0755	996746	keystroke_e	e	n/a
498.6135	0.075	997227	keystroke_Key.enter	Key.enter	n/a
498.695	8.515	997390	prompt	n/a	andrews zoloft cologne breaking\n
499.5135	0.105	999027	keystroke_a	a	n/a
499.7385	0.09	999477	keystroke_d	d	n/a
500.0385	0.0905	1000077	keystroke_r	r	n/a
500.219	0.1195	1000438	keystroke_e	e	n/a
500.534	0.0895	1001068	keystroke_w	w	n/a
501.5235	0.0755	1003047	keystroke_s	s	n/a
501.6735	0.0755	1003347	keystroke_Key.space	Key.space	n/a
501.929	0.105	1003858	keystroke_z	z	n/a
502.0485	0.105	1004097	keystroke_o	o	n/a
502.2735	0.075	1004547	keystroke_l	l	n/a
502.454	0.105	1004908	keystroke_o	o	n/a
502.6635	0.0755	1005327	keystroke_f	f	n/a
502.903	0.0905	1005806	keystroke_t	t	n/a
503.0535	0.0895	1006107	keystroke_Key.space	Key.space	n/a
503.279	0.06	1006558	keystroke_c	c	n/a
503.384	0.12	1006768	keystroke_o	o	n/a
503.594	0.09	1007188	keystroke_l	l	n/a
503.789	0.09	1007578	keystroke_o	o	n/a
504.3435	0.09	1008687	keystroke_g	g	n/a
504.509	0.1195	1009018	keystroke_n	n	n/a
504.6135	0.09	1009227	keystroke_e	e	n/a
504.7935	0.0905	1009587	keystroke_Key.space	Key.space	n/a
505.2735	0.06	1010547	keystroke_b	b	n/a
505.5285	0.135	1011057	keystroke_r	r	n/a
505.6645	0.134	1011329	keystroke_e	e	n/a
505.8735	0.12	1011747	keystroke_a	a	n/a
506.039	0.075	1012078	keystroke_k	k	n/a
506.2335	0.075	1012467	keystroke_i	i	n/a
506.3835	0.15	1012767	keystroke_n	n	n/a
506.5485	0.0895	1013097	keystroke_g	g	n/a
507.133	0.075	1014266	keystroke_Key.enter	Key.enter	n/a
507.2135	7.497	1014427	prompt	n/a	roses layer fashion angela\n
507.959	0.0895	1015918	keystroke_r	r	n/a
508.1085	0.12	1016217	keystroke_o	o	n/a
508.2735	0.1045	1016547	keystroke_s	s	n/a
508.483	0.0905	1016966	keystroke_e	e	n/a
508.7085	0.09	1017417	keystroke_s	s	n/a
508.8585	0.09	1017717	keystroke_Key.space	Key.space	n/a
509.0385	0.1505	1018077	keystroke_l	l	n/a
509.173	0.1205	1018346	keystroke_a	a	n/a
509.3685	0.1355	1018737	keystroke_y	y	n/a
509.5785	0.12	1019157	keystroke_e	e	n/a
509.8185	0.0755	1019637	keystroke_r	r	n/a
509.939	0.1045	1019878	keystroke_Key.space	Key.space	n/a
510.1485	0.105	1020297	keystroke_f	f	n/a
510.2385	0.1505	1020477	keystroke_a	a	n/a
510.5385	0.091	1021077	keystroke_s	s	n/a
512.3535	0.09	1024707	keystroke_h	h	n/a
512.564	0.12	1025128	keystroke_i	i	n/a
512.6385	0.1795	1025277	keystroke_o	o	n/a
512.879	0.119	1025758	keystroke_n	n	n/a
513.088	0.09	1026176	keystroke_Key.space	Key.space	n/a
513.358	0.1205	1026716	keystroke_a	a	n/a
513.4185	0.0905	1026837	keystroke_n	n	n/a
513.6135	0.0755	1027227	keystroke_g	g	n/a
514.1685	0.075	1028337	keystroke_e	e	n/a
514.2585	0.1505	1028517	keystroke_l	l	n/a
514.4235	0.12	1028847	keystroke_a	a	n/a
514.6335	0.075	1029267	keystroke_Key.enter	Key.enter	n/a
514.715	8.6355	1029430	prompt	n/a	discussion her transferred katrina\n
515.384	0.0745	1030768	keystroke_d	d	n/a
516.059	0.0595	1032118	keystroke_i	i	n/a
516.584	0.06	1033168	keystroke_s	s	n/a
516.809	0.075	1033618	keystroke_c	c	n/a
516.929	0.09	1033858	keystroke_u	u	n/a
517.154	0.075	1034308	keystroke_s	s	n/a
517.334	0.075	1034668	keystroke_s	s	n/a
517.484	0.165	1034968	keystroke_i	i	n/a
517.588	0.151	1035176	keystroke_o	o	n/a
517.7985	0.1195	1035597	keystroke_n	n	n/a
518.488	0.09	1036976	keystroke_Key.space	Key.space	n/a
518.7735	0.105	1037547	keystroke_h	h	n/a
518.894	0.075	1037788	keystroke_e	e	n/a
519.104	0.09	1038208	keystroke_r	r	n/a
519.239	0.09	1038478	keystroke_Key.space	Key.space	n/a
519.388	0.091	1038776	keystroke_t	t	n/a
519.599	0.1045	1039198	keystroke_r	r	n/a
519.7785	0.135	1039557	keystroke_a	a	n/a
519.959	0.1045	1039918	keystroke_n	n	n/a
520.1535	0.0905	1040307	keystroke_s	s	n/a
520.4235	0.1205	1040847	keystroke_f	f	n/a
520.6035	0.09	1041207	keystroke_e	e	n/a
520.829	0.09	1041658	keystroke_r	r	n/a
520.9935	0.0905	1041987	keystroke_r	r	n/a
521.2185	0.09	1042437	keystroke_e	e	n/a
521.4735	0.0605	1042947	keystroke_d	d	n/a
521.6385	0.075	1043277	keystroke_Key.space	Key.space	n/a
521.7885	0.105	1043577	keystroke_k	k	n/a
522.1035	0.105	1044207	keystroke_a	a	n/a
522.3735	0.075	1044747	keystroke_t	t	n/a
522.5835	0.09	1045167	keystroke_r	r	n/a
522.689	0.1195	1045378	keystroke_i	i	n/a
522.8685	0.135	1045737	keystroke_n	n	n/a
523.064	0.1045	1046128	keystroke_a	a	n/a
523.273	0.0755	1046546	keystroke_Key.enter	Key.enter	n/a
523.354	10.406	1046708	prompt	n/a	terrorist could've seriously nervous\n
524.099	0.0745	1048198	keystroke_t	t	n/a
524.308	0.09	1048616	keystroke_e	e	n/a
524.549	0.0595	1049098	keystroke_r	r	n/a
524.654	0.1045	1049308	keystroke_r	r	n/a
524.863	0.09	1049726	keystroke_o	o	n/a
525.6135	0.1945	1051227	keystroke_r	r	n/a
525.823	0.016	1051646	keystroke_i	i	n/a
525.854	0.014	1051708	keystroke_s	s	n/a
525.988	0.076	1051976	keystroke_t	t	n/a
526.123	0.1055	1052246	keystroke_Key.space	Key.space	n/a
526.3785	0.075	1052757	keystroke_c	c	n/a
526.619	0.1345	1053238	keystroke_o	o	n/a
526.7685	0.09	1053537	keystroke_u	u	n/a
526.979	0.135	1053958	keystroke_l	l	n/a
527.174	0.075	1054348	keystroke_d	d	n/a
527.353	0.106	1054706	keystroke_'	'	n/a
527.699	0.09	1055398	keystroke_v	v	n/a
527.924	0.0745	1055848	keystroke_e	e	n/a
528.073	0.075	1056146	keystroke_Key.space	Key.space	n/a
528.433	0.0905	1056866	keystroke_s	s	n/a
528.6435	0.075	1057287	keystroke_e	e	n/a
528.8835	0.105	1057767	keystroke_r	r	n/a
528.9735	0.195	1057947	keystroke_o	o	n/a
529.154	0.1195	1058308	keystroke_u	u	n/a
529.8735	0.075	1059747	keystroke_Key.backspace	Key.backspace	n/a
530.0685	0.105	1060137	keystroke_Key.backspace	Key.backspace	n/a
530.7285	0.0755	1061457	keystroke_i	i	n/a
530.8785	0.12	1061757	keystroke_o	o	n/a
531.0145	0.074	1062029	keystroke_u	u	n/a
531.3435	0.075	1062687	keystroke_s	s	n/a
531.4485	0.09	1062897	keystroke_l	l	n/a
532.0785	0.075	1064157	keystroke_y	y	n/a
532.2735	0.075	1064547	keystroke_Key.space	Key.space	n/a
532.469	0.09	1064938	keystroke_n	n	n/a
532.574	0.089	1065148	keystroke_e	e	n/a
532.769	0.0595	1065538	keystroke_r	r	n/a
532.979	0.089	1065958	keystroke_v	v	n/a
533.098	0.166	1066196	keystroke_o	o	n/a
533.249	0.1345	1066498	keystroke_u	u	n/a
533.4735	0.075	1066947	keystroke_s	s	n/a
533.6685	0.09	1067337	keystroke_Key.enter	Key.enter	n/a
533.765	8.1555	1067530	prompt	n/a	this implement responded reasonably\n
534.4335	0.075	1068867	keystroke_t	t	n/a
534.6285	0.135	1069257	keystroke_h	h	n/a
534.7185	0.165	1069437	keystroke_i	i	n/a
534.944	0.0895	1069888	keystroke_s	s	n/a
535.0185	0.105	1070037	keystroke_Key.space	Key.space	n/a
535.7085	0.045	1071417	keystroke_i	i	n/a
535.8135	0.105	1071627	keystroke_m	m	n/a
535.9635	0.12	1071927	keystroke_p	p	n/a
536.1735	0.165	1072347	keystroke_l	l	n/a
536.3535	0.075	1072707	keystroke_e	e	n/a
536.4735	0.15	1072947	keystroke_m	m	n/a
536.6535	0.09	1073307	keystroke_e	e	n/a
536.8035	0.12	1073607	keystroke_n	n	n/a
536.984	0.0895	1073968	keystroke_t	t	n/a
537.119	0.0895	1074238	keystroke_Key.space	Key.space	n/a
537.2985	0.135	1074597	keystroke_r	r	n/a
537.4185	0.09	1074837	keystroke_e	e	n/a
537.659	0.09	1075318	keystroke_s	s	n/a
537.839	0.1795	1075678	keystroke_p	p	n/a
537.944	0.1645	1075888	keystroke_o	o	n/a
538.1985	0.105	1076397	keystroke_n	n	n/a
538.3635	0.075	1076727	keystroke_d	d	n/a
538.5885	0.075	1077177	keystroke_e	e	n/a
538.7985	0.075	1077597	keystroke_d	d	n/a
538.9035	0.09	1077807	keystroke_Key.space	Key.space	n/a
539.5935	0.09	1079187	keystroke_r	r	n/a
539.7435	0.12	1079487	keystroke_e	e	n/a
539.9685	0.1205	1079937	keystroke_a	a	n/a
540.629	0.014	1081258	keystroke_s	s	n/a
540.658	0.061	1081316	keystroke_o	o	n/a
540.809	0.149	1081618	keystroke_n	n	n/a
540.973	0.106	1081946	keystroke_a	a	n/a
541.259	0.075	1082518	keystroke_b	b	n/a
541.469	0.12	1082938	keystroke_l	l	n/a
541.604	0.075	1083208	keystroke_e	e	n/a
541.844	0.075	1083688	keystroke_Key.enter	Key.enter	n/a
541.9285	8.5265	1083857	prompt	n/a	maximum recognized updates does\n
542.9235	0.18	1085847	keystroke_m	m	n/a
543.0435	0.135	1086087	keystroke_a	a	n/a
543.434	0.0885	1086868	keystroke_x	x	n/a
543.5685	0.105	1087137	keystroke_i	i	n/a
543.7485	0.105	1087497	keystroke_m	m	n/a
544.004	0.1195	1088008	keystroke_u	u	n/a
544.3785	0.09	1088757	keystroke_m	m	n/a
544.5885	0.105	1089177	keystroke_Key.space	Key.space	n/a
544.799	0.135	1089598	keystroke_r	r	n/a
544.9035	0.12	1089807	keystroke_e	e	n/a
545.2185	0.075	1090437	keystroke_c	c	n/a
545.3535	0.12	1090707	keystroke_o	o	n/a
545.9985	0.0595	1091997	keystroke_g	g	n/a
546.103	0.1505	1092206	keystroke_n	n	n/a
546.2385	0.15	1092477	keystroke_i	i	n/a
546.3735	0.105	1092747	keystroke_z	z	n/a
547.139	0.0595	1094278	keystroke_e	e	n/a
547.3785	0.0595	1094757	keystroke_d	d	n/a
547.498	0.0755	1094996	keystroke_Key.space	Key.space	n/a
547.7685	0.09	1095537	keystroke_u	u	n/a
547.9335	0.135	1095867	keystroke_p	p	n/a
548.1735	0.135	1096347	keystroke_d	d	n/a
548.2785	0.15	1096557	keystroke_a	a	n/a
548.5635	0.075	1097127	keystroke_t	t	n/a
548.7435	0.105	1097487	keystroke_e	e	n/a
548.9985	0.0905	1097997	keystroke_s	s	n/a
549.2225	0.106	1098445	keystroke_Key.space	Key.space	n/a
549.4335	0.0755	1098867	keystroke_d	d	n/a
549.5835	0.135	1099167	keystroke_o	o	n/a
549.869	0.0595	1099738	keystroke_e	e	n/a
550.1085	0.075	1100217	keystroke_s	s	n/a
550.3635	0.09	1100727	keystroke_Key.enter	Key.enter	n/a
550.46	8.0055	1100920	prompt	n/a	doug committee humans hottest\n
551.279	0.0745	1102558	keystroke_d	d	n/a
551.369	0.1495	1102738	keystroke_o	o	n/a
551.5035	0.135	1103007	keystroke_u	u	n/a
551.758	0.0755	1103516	keystroke_g	g	n/a
551.998	0.09	1103996	keystroke_Key.space	Key.space	n/a
552.268	0.075	1104536	keystroke_c	c	n/a
552.358	0.12	1104716	keystroke_o	o	n/a
552.5835	0.0745	1105167	keystroke_m	m	n/a
552.718	0.0755	1105436	keystroke_m	m	n/a
552.9585	0.0895	1105917	keystroke_i	i	n/a
553.2135	0.06	1106427	keystroke_t	t	n/a
553.409	0.075	1106818	keystroke_t	t	n/a
553.664	0.075	1107328	keystroke_e	e	n/a
553.829	0.089	1107658	keystroke_e	e	n/a
554.083	0.075	1108166	keystroke_Key.space	Key.space	n/a
554.279	0.074	1108558	keystroke_h	h	n/a
554.459	0.074	1108918	keystroke_u	u	n/a
554.713	0.12	1109426	keystroke_m	m	n/a
554.939	0.0745	1109878	keystroke_a	a	n/a
555.539	0.074	1111078	keystroke_n	n	n/a
555.7785	0.0755	1111557	keystroke_s	s	n/a
555.9885	0.09	1111977	keystroke_Key.space	Key.space	n/a
556.6485	0.1205	1113297	keystroke_h	h	n/a
556.7085	0.1805	1113417	keystroke_o	o	n/a
556.9035	0.075	1113807	keystroke_t	t	n/a
557.0385	0.105	1114077	keystroke_t	t	n/a
557.279	0.1045	1114558	keystroke_e	e	n/a
557.5185	0.12	1115037	keystroke_s	s	n/a
558.0735	0.045	1116147	keystroke_t	t	n/a
558.388	0.0755	1116776	keystroke_Key.enter	Key.enter	n/a
558.4715	6.6535	1116943	prompt	n/a	robot wildlife possibly cliff\n
559.169	0.075	1118338	keystroke_r	r	n/a
559.318	0.135	1118636	keystroke_o	o	n/a
559.588	0.091	1119176	keystroke_b	b	n/a
559.753	0.12	1119506	keystroke_o	o	n/a
559.948	0.0905	1119896	keystroke_t	t	n/a
560.068	0.12	1120136	keystroke_Key.space	Key.space	n/a
560.3535	0.09	1120707	keystroke_w	w	n/a
560.459	0.089	1120918	keystroke_i	i	n/a
560.6535	0.1345	1121307	keystroke_l	l	n/a
560.7735	0.0595	1121547	keystroke_d	d	n/a
560.9835	0.0895	1121967	keystroke_l	l	n/a
561.133	0.12	1122266	keystroke_i	i	n/a
561.373	0.09	1122746	keystroke_f	f	n/a
561.6285	0.0605	1123257	keystroke_e	e	n/a
561.8085	0.075	1123617	keystroke_Key.space	Key.space	n/a
562.0485	0.09	1124097	keystroke_p	p	n/a
562.1985	0.12	1124397	keystroke_o	o	n/a
562.529	0.06	1125058	keystroke_s	s	n/a
562.6635	0.105	1125327	keystroke_s	s	n/a
562.7985	0.12	1125597	keystroke_i	i	n/a
562.9935	0.09	1125987	keystroke_b	b	n/a
563.0985	0.135	1126197	keystroke_l	l	n/a
563.3835	0.105	1126767	keystroke_y	y	n/a
563.5485	0.09	1127097	keystroke_Key.space	Key.space	n/a
563.878	0.0755	1127756	keystroke_c	c	n/a
564.268	0.1055	1128536	keystroke_l	l	n/a
564.4935	0.0895	1128987	keystroke_i	i	n/a
564.703	0.075	1129406	keystroke_f	f	n/a
564.838	0.1055	1129676	keystroke_f	f	n/a
565.033	0.09	1130066	keystroke_Key.enter	Key.enter	n/a
565.13	8.17	1130260	prompt	n/a	sport protein teachers reliability\n
565.8885	0.09	1131777	keystroke_s	s	n/a
566.0985	0.1205	1132197	keystroke_p	p	n/a
566.3085	0.1205	1132617	keystroke_o	o	n/a
566.5935	0.075	1133187	keystroke_r	r	n/a
566.774	0.0895	1133548	keystroke_t	t	n/a
566.938	0.1055	1133876	keystroke_Key.space	Key.space	n/a
567.193	0.12	1134386	keystroke_p	p	n/a
567.4335	0.075	1134867	keystroke_r	r	n/a
567.493	0.1655	1134986	keystroke_o	o	n/a
567.7335	0.075	1135467	keystroke_t	t	n/a
567.9435	0.1045	1135887	keystroke_e	e	n/a
568.063	0.105	1136126	keystroke_i	i	n/a
568.2885	0.1055	1136577	keystroke_n	n	n/a
568.483	0.09	1136966	keystroke_Key.space	Key.space	n/a
568.6935	0.0755	1137387	keystroke_t	t	n/a
568.9025	0.076	1137805	keystroke_e	e	n/a
569.113	0.1355	1138226	keystroke_a	a	n/a
569.3985	0.09	1138797	keystroke_c	c	n/a
569.519	0.1195	1139038	keystroke_h	h	n/a
569.6985	0.105	1139397	keystroke_e	e	n/a
569.9385	0.075	1139877	keystroke_r	r	n/a
570.149	0.1195	1140298	keystroke_s	s	n/a
570.2835	0.089	1140567	keystroke_Key.space	Key.space	n/a
570.509	0.0895	1141018	keystroke_r	r	n/a
570.943	0.075	1141886	keystroke_e	e	n/a
571.124	0.1045	1142248	keystroke_l	l	n/a
571.363	0.09	1142726	keystroke_i	i	n/a
571.484	0.105	1142968	keystroke_a	a	n/a
571.8285	0.0455	1143657	keystroke_b	b	n/a
571.919	0.09	1143838	keystroke_i	i	n/a
572.0985	0.105	1144197	keystroke_l	l	n/a
572.2635	0.1195	1144527	keystroke_i	i	n/a
572.8035	0.09	1145607	keystroke_t	t	n/a
572.9535	0.075	1145907	keystroke_y	y	n/a
573.2085	0.09	1146417	keystroke_Key.enter	Key.enter	n/a
573.3055	6.235	1146611	prompt	n/a	tales precious scanned tones\n
573.9885	0.09	1147977	keystroke_t	t	n/a
574.199	0.12	1148398	keystroke_a	a	n/a
574.364	0.12	1148728	keystroke_l	l	n/a
574.528	0.075	1149056	keystroke_e	e	n/a
574.753	0.091	1149506	keystroke_s	s	n/a
574.8585	0.09	1149717	keystroke_Key.space	Key.space	n/a
575.039	0.1045	1150078	keystroke_p	p	n/a
575.1885	0.1355	1150377	keystroke_r	r	n/a
575.308	0.121	1150616	keystroke_e	e	n/a
575.653	0.09	1151306	keystroke_c	c	n/a
575.818	0.1205	1151636	keystroke_i	i	n/a
575.9535	0.1345	1151907	keystroke_o	o	n/a
576.089	0.134	1152178	keystroke_u	u	n/a
576.388	0.076	1152776	keystroke_s	s	n/a
576.568	0.0755	1153136	keystroke_Key.space	Key.space	n/a
576.824	0.09	1153648	keystroke_s	s	n/a
577.049	0.089	1154098	keystroke_c	c	n/a
577.243	0.1055	1154486	keystroke_a	a	n/a
577.408	0.0455	1154816	keystroke_n	n	n/a
577.529	0.104	1155058	keystroke_n	n	n/a
577.663	0.091	1155326	keystroke_e	e	n/a
577.873	0.09	1155746	keystroke_d	d	n/a
577.993	0.1055	1155986	keystroke_Key.space	Key.space	n/a
578.2185	0.09	1156437	keystroke_t	t	n/a
578.353	0.12	1156706	keystroke_o	o	n/a
578.5485	0.1355	1157097	keystroke_n	n	n/a
