onset	duration	sample	value	key	prompt_text
1.371	6.512	2742	prompt	n/a	the quick brown fox jumps over a lazy dog\n
3.4185	0.012	6837	keystroke_t	t	n/a
3.4315	0.075	6863	keystroke_h	h	n/a
3.521	0.075	7042	keystroke_e	e	n/a
3.611	0.09	7222	keystroke_Key.space	Key.space	n/a
3.731	0.105	7462	keystroke_q	q	n/a
3.851	0.09	7702	keystroke_u	u	n/a
3.896	0.09	7792	keystroke_i	i	n/a
4.031	0.09	8062	keystroke_c	c	n/a
4.091	0.09	8182	keystroke_k	k	n/a
4.166	0.045	8332	keystroke_Key.space	Key.space	n/a
4.301	0.075	8602	keystroke_b	b	n/a
4.406	0.075	8812	keystroke_r	r	n/a
4.511	0.06	9022	keystroke_o	o	n/a
4.616	0.09	9232	keystroke_w	w	n/a
4.721	0.06	9442	keystroke_n	n	n/a
4.766	0.09	9532	keystroke_Key.space	Key.space	n/a
4.871	0.075	9742	keystroke_f	f	n/a
4.961	0.075	9922	keystroke_o	o	n/a
5.066	0.0895	10132	keystroke_x	x	n/a
5.1705	0.075	10341	keystroke_Key.space	Key.space	n/a
5.2605	0.045	10521	keystroke_j	j	n/a
5.396	0.075	10792	keystroke_u	u	n/a
5.585	0.059	11170	keystroke_m	m	n/a
5.764	0.075	11528	keystroke_p	p	n/a
5.854	0.105	11708	keystroke_s	s	n/a
5.974	0.0765	11948	keystroke_Key.space	Key.space	n/a
5.989	0.121	11978	keystroke_o	o	n/a
6.0955	0.0595	12191	keystroke_v	v	n/a
6.2905	0.0745	12581	keystroke_e	e	n/a
6.3355	0.09	12671	keystroke_r	r	n/a
6.455	0.0895	12910	keystroke_Key.space	Key.space	n/a
6.5745	0.075	13149	keystroke_a	a	n/a
6.6495	0.09	13299	keystroke_Key.space	Key.space	n/a
6.6945	0.12	13389	keystroke_l	l	n/a
6.7845	0.0895	13569	keystroke_a	a	n/a
6.979	0.121	13958	keystroke_z	z	n/a
7.07	0.09	14140	keystroke_y	y	n/a
7.13	0.09	14260	keystroke_Key.space	Key.space	n/a
7.221	0.089	14442	keystroke_d	d	n/a
7.34	0.06	14680	keystroke_o	o	n/a
7.445	0.06	14890	keystroke_g	g	n/a
7.8055	0.0745	15611	keystroke_Key.enter	Key.enter	n/a
7.8875	4.016	15775	prompt	n/a	loss finish constantly traffic\n
8.541	0.075	17082	keystroke_l	l	n/a
8.676	0.09	17352	keystroke_o	o	n/a
8.751	0.06	17502	keystroke_s	s	n/a
8.901	0.06	17802	keystroke_s	s	n/a
8.976	0.09	17952	keystroke_Key.space	Key.space	n/a
9.036	0.09	18072	keystroke_f	f	n/a
9.096	0.06	18192	keystroke_i	i	n/a
9.231	0.06	18462	keystroke_n	n	n/a
9.351	0.075	18702	keystroke_i	i	n/a
9.456	0.045	18912	keystroke_s	s	n/a
9.516	0.075	19032	keystroke_h	h	n/a
9.561	0.075	19122	keystroke_Key.space	Key.space	n/a
9.681	0.105	19362	keystroke_c	c	n/a
9.771	0.0595	19542	keystroke_o	o	n/a
9.906	0.06	19812	keystroke_n	n	n/a
9.981	0.075	19962	keystroke_s	s	n/a
10.191	0.075	20382	keystroke_t	t	n/a
10.311	0.09	20622	keystroke_a	a	n/a
10.491	0.06	20982	keystroke_n	n	n/a
10.596	0.075	21192	keystroke_t	t	n/a
10.701	0.06	21402	keystroke_l	l	n/a
10.881	0.12	21762	keystroke_y	y	n/a
10.956	0.09	21912	keystroke_Key.space	Key.space	n/a
11.061	0.075	22122	keystroke_t	t	n/a
11.241	0.06	22482	keystroke_r	r	n/a
11.256	0.09	22512	keystroke_a	a	n/a
11.4205	0.046	22841	keystroke_f	f	n/a
11.5255	0.105	23051	keystroke_f	f	n/a
11.6155	0.061	23231	keystroke_i	i	n/a
11.721	0.105	23442	keystroke_c	c	n/a
11.811	0.09	23622	keystroke_Key.enter	Key.enter	n/a
11.9095	4.4035	23819	prompt	n/a	issue approve removable remaining\n
12.606	0.075	25212	keystroke_i	i	n/a
12.6955	0.045	25391	keystroke_s	s	n/a
12.8315	0.06	25663	keystroke_s	s	n/a
12.9065	0.0895	25813	keystroke_u	u	n/a
12.981	0.0595	25962	keystroke_e	e	n/a
13.0565	0.075	26113	keystroke_Key.space	Key.space	n/a
13.146	0.0595	26292	keystroke_a	a	n/a
13.2205	0.045	26441	keystroke_p	p	n/a
13.3105	0.09	26621	keystroke_p	p	n/a
13.4155	0.045	26831	keystroke_r	r	n/a
13.4755	0.0755	26951	keystroke_o	o	n/a
13.611	0.1205	27222	keystroke_v	v	n/a
13.701	0.0895	27402	keystroke_e	e	n/a
13.8055	0.1055	27611	keystroke_Key.space	Key.space	n/a
13.956	0.1045	27912	keystroke_r	r	n/a
14.0305	0.09	28061	keystroke_e	e	n/a
14.1355	0.06	28271	keystroke_m	m	n/a
14.2855	0.09	28571	keystroke_o	o	n/a
14.3605	0.105	28721	keystroke_v	v	n/a
14.4505	0.0755	28901	keystroke_a	a	n/a
14.541	0.06	29082	keystroke_b	b	n/a
14.706	0.075	29412	keystroke_l	l	n/a
14.796	0.06	29592	keystroke_e	e	n/a
14.916	0.09	29832	keystroke_Key.space	Key.space	n/a
15.1565	0.1045	30313	keystroke_r	r	n/a
15.231	0.09	30462	keystroke_e	e	n/a
15.396	0.09	30792	keystroke_m	m	n/a
15.531	0.075	31062	keystroke_a	a	n/a
15.636	0.0605	31272	keystroke_i	i	n/a
15.7865	0.06	31573	keystroke_n	n	n/a
15.9065	0.06	31813	keystroke_i	i	n/a
16.0565	0.045	32113	keystroke_n	n	n/a
16.1465	0.045	32293	keystroke_g	g	n/a
16.221	0.0905	32442	keystroke_Key.enter	Key.enter	n/a
16.3165	4.5865	32633	prompt	n/a	directory distributor levy regard\n
16.956	0.06	33912	keystroke_d	d	n/a
17.076	0.075	34152	keystroke_i	i	n/a
17.121	0.105	34242	keystroke_r	r	n/a
17.196	0.09	34392	keystroke_e	e	n/a
17.391	0.045	34782	keystroke_c	c	n/a
17.5405	0.075	35081	keystroke_t	t	n/a
17.6455	0.06	35291	keystroke_o	o	n/a
17.7205	0.075	35441	keystroke_r	r	n/a
17.8255	0.105	35651	keystroke_y	y	n/a
17.9005	0.09	35801	keystroke_Key.space	Key.space	n/a
18.0505	0.061	36101	keystroke_d	d	n/a
18.1265	0.074	36253	keystroke_i	i	n/a
18.2315	0.059	36463	keystroke_s	s	n/a
18.4105	0.06	36821	keystroke_t	t	n/a
18.5605	0.075	37121	keystroke_r	r	n/a
18.6655	0.06	37331	keystroke_i	i	n/a
18.7705	0.075	37541	keystroke_b	b	n/a
18.8755	0.106	37751	keystroke_u	u	n/a
19.0255	0.105	38051	keystroke_t	t	n/a
19.1155	0.09	38231	keystroke_o	o	n/a
19.2355	0.075	38471	keystroke_r	r	n/a
19.3405	0.09	38681	keystroke_Key.space	Key.space	n/a
19.6105	0.076	39221	keystroke_l	l	n/a
19.7005	0.0455	39401	keystroke_e	e	n/a
19.866	0.075	39732	keystroke_v	v	n/a
19.956	0.09	39912	keystroke_y	y	n/a
20.001	0.09	40002	keystroke_Key.space	Key.space	n/a
20.106	0.09	40212	keystroke_r	r	n/a
20.166	0.075	40332	keystroke_e	e	n/a
20.316	0.0905	40632	keystroke_g	g	n/a
20.4505	0.091	40901	keystroke_a	a	n/a
20.5115	0.09	41023	keystroke_r	r	n/a
20.7055	0.09	41411	keystroke_d	d	n/a
20.8105	0.09	41621	keystroke_Key.enter	Key.enter	n/a
20.906	5.637	41812	prompt	n/a	americas successful magical charity\n
21.546	0.09	43092	keystroke_a	a	n/a
21.636	0.09	43272	keystroke_m	m	n/a
21.7565	0.075	43513	keystroke_e	e	n/a
21.8015	0.09	43603	keystroke_r	r	n/a
21.9515	0.105	43903	keystroke_i	i	n/a
22.0865	0.105	44173	keystroke_c	c	n/a
22.1765	0.09	44353	keystroke_a	a	n/a
22.3565	0.075	44713	keystroke_s	s	n/a
22.4615	0.089	44923	keystroke_Key.space	Key.space	n/a
22.5365	0.09	45073	keystroke_s	s	n/a
22.6565	0.119	45313	keystroke_u	u	n/a
22.8215	0.014	45643	keystroke_c	c	n/a
22.8805	0.076	45761	keystroke_c	c	n/a
23.046	0.06	46092	keystroke_e	e	n/a
23.2255	0.045	46451	keystroke_s	s	n/a
23.3615	0.059	46723	keystroke_s	s	n/a
23.5105	0.075	47021	keystroke_f	f	n/a
23.6005	0.046	47201	keystroke_u	u	n/a
23.886	0.1045	47772	keystroke_Key.space	Key.space	n/a
24.3505	0.0755	48701	keystroke_Key.backspace	Key.backspace	n/a
24.576	0.075	49152	keystroke_l	l	n/a
24.636	0.105	49272	keystroke_Key.space	Key.space	n/a
24.756	0.075	49512	keystroke_m	m	n/a
24.876	0.045	49752	keystroke_a	a	n/a
25.026	0.09	50052	keystroke_g	g	n/a
25.401	0.09	50802	keystroke_i	i	n/a
25.566	0.075	51132	keystroke_c	c	n/a
25.626	0.075	51252	keystroke_a	a	n/a
25.686	0.075	51372	keystroke_l	l	n/a
25.731	0.09	51462	keystroke_Key.space	Key.space	n/a
25.851	0.075	51702	keystroke_c	c	n/a
25.986	0.03	51972	keystroke_h	h	n/a
26.031	0.075	52062	keystroke_a	a	n/a
26.076	0.06	52152	keystroke_r	r	n/a
26.181	0.045	52362	keystroke_i	i	n/a
26.241	0.075	52482	keystroke_t	t	n/a
26.301	0.0905	52602	keystroke_y	y	n/a
26.4505	0.09	52901	keystroke_Key.enter	Key.enter	n/a
26.546	4.0475	53092	prompt	n/a	kinds beans francis follows\n
27.336	0.06	54672	keystroke_k	k	n/a
27.486	0.045	54972	keystroke_i	i	n/a
27.6365	0.045	55273	keystroke_n	n	n/a
27.726	0.09	55452	keystroke_d	d	n/a
27.831	0.105	55662	keystroke_s	s	n/a
27.921	0.06	55842	keystroke_Key.space	Key.space	n/a
28.026	0.09	56052	keystroke_b	b	n/a
28.101	0.09	56202	keystroke_e	e	n/a
28.161	0.105	56322	keystroke_a	a	n/a
28.281	0.06	56562	keystroke_n	n	n/a
28.371	0.06	56742	keystroke_s	s	n/a
28.461	0.09	56922	keystroke_Key.space	Key.space	n/a
28.671	0.06	57342	keystroke_f	f	n/a
28.836	0.075	57672	keystroke_r	r	n/a
28.881	0.105	57762	keystroke_a	a	n/a
28.971	0.075	57942	keystroke_n	n	n/a
29.106	0.09	58212	keystroke_c	c	n/a
29.197	0.089	58394	keystroke_i	i	n/a
29.331	0.075	58662	keystroke_s	s	n/a
29.421	0.075	58842	keystroke_Key.space	Key.space	n/a
29.616	0.03	59232	keystroke_f	f	n/a
29.721	0.09	59442	keystroke_o	o	n/a
30.0055	0.03	60011	keystroke_l	l	n/a
30.1265	0.06	60253	keystroke_l	l	n/a
30.231	0.12	60462	keystroke_o	o	n/a
30.3055	0.0605	60611	keystroke_w	w	n/a
30.456	0.0745	60912	keystroke_s	s	n/a
30.5155	0.075	61031	keystroke_Key.enter	Key.enter	n/a
30.597	7.121	61194	prompt	n/a	bonds framing posts interventions\n
31.2365	0.075	62473	keystroke_b	b	n/a
31.4165	0.06	62833	keystroke_o	o	n/a
31.5815	0.045	63163	keystroke_n	n	n/a
31.6415	0.1195	63283	keystroke_d	d	n/a
31.716	0.12	63432	keystroke_s	s	n/a
31.851	0.075	63702	keystroke_Key.space	Key.space	n/a
31.911	0.06	63822	keystroke_f	f	n/a
32.076	0.06	64152	keystroke_r	r	n/a
32.106	0.105	64212	keystroke_a	a	n/a
32.196	0.105	64392	keystroke_m	m	n/a
32.391	0.045	64782	keystroke_k	k	n/a
32.496	0.045	64992	keystroke_i	i	n/a
32.646	0.0455	65292	keystroke_n	n	n/a
32.7365	0.06	65473	keystroke_g	g	n/a
32.8265	0.12	65653	keystroke_Key.space	Key.space	n/a
32.9315	0.105	65863	keystroke_p	p	n/a
32.9915	0.06	65983	keystroke_o	o	n/a
33.3665	0.075	66733	keystroke_Key.backspace	Key.backspace	n/a
33.5165	0.06	67033	keystroke_Key.backspace	Key.backspace	n/a
33.6515	0.06	67303	keystroke_Key.backspace	Key.backspace	n/a
33.801	0.045	67602	keystroke_Key.backspace	Key.backspace	n/a
33.921	0.06	67842	keystroke_Key.backspace	Key.backspace	n/a
34.191	0.075	68382	keystroke_Key.backspace	Key.backspace	n/a
34.701	0.06	69402	keystroke_Key.backspace	Key.backspace	n/a
35.001	0.06	70002	keystroke_i	i	n/a
35.196	0.03	70392	keystroke_n	n	n/a
35.241	0.09	70482	keystroke_g	g	n/a
35.361	0.09	70722	keystroke_Key.space	Key.space	n/a
35.466	0.106	70932	keystroke_p	p	n/a
35.511	0.091	71022	keystroke_o	o	n/a
35.617	0.0595	71234	keystroke_s	s	n/a
35.7815	0.06	71563	keystroke_t	t	n/a
35.9615	0.06	71923	keystroke_s	s	n/a
36.0365	0.09	72073	keystroke_Key.space	Key.space	n/a
36.1565	0.06	72313	keystroke_i	i	n/a
36.321	0.06	72642	keystroke_n	n	n/a
36.366	0.06	72732	keystroke_t	t	n/a
36.501	0.09	73002	keystroke_e	e	n/a
36.561	0.075	73122	keystroke_r	r	n/a
36.816	0.09	73632	keystroke_v	v	n/a
36.891	0.09	73782	keystroke_e	e	n/a
36.951	0.06	73902	keystroke_n	n	n/a
37.086	0.09	74172	keystroke_t	t	n/a
37.191	0.12	74382	keystroke_i	i	n/a
37.251	0.09	74502	keystroke_o	o	n/a
37.4315	0.09	74863	keystroke_n	n	n/a
37.5065	0.075	75013	keystroke_s	s	n/a
37.6715	0.0445	75343	keystroke_Key.enter	Key.enter	n/a
37.724	4.749	75448	prompt	n/a	depends unable friday exposed\n
38.301	0.06	76602	keystroke_d	d	n/a
38.466	0.045	76932	keystroke_e	e	n/a
38.556	0.075	77112	keystroke_p	p	n/a
38.616	0.06	77232	keystroke_e	e	n/a
38.736	0.075	77472	keystroke_n	n	n/a
38.826	0.12	77652	keystroke_d	d	n/a
38.931	0.105	77862	keystroke_s	s	n/a
39.021	0.09	78042	keystroke_Key.space	Key.space	n/a
39.156	0.06	78312	keystroke_u	u	n/a
39.726	0.075	79452	keystroke_n	n	n/a
39.891	0.09	79782	keystroke_a	a	n/a
39.996	0.045	79992	keystroke_b	b	n/a
40.191	0.09	80382	keystroke_l	l	n/a
40.296	0.045	80592	keystroke_e	e	n/a
40.446	0.045	80892	keystroke_Key.space	Key.space	n/a
40.521	0.06	81042	keystroke_f	f	n/a
40.686	0.075	81372	keystroke_r	r	n/a
40.791	0.075	81582	keystroke_i	i	n/a
40.941	0.1055	81882	keystroke_d	d	n/a
41.0315	0.09	82063	keystroke_a	a	n/a
41.1365	0.09	82273	keystroke_y	y	n/a
41.1965	0.105	82393	keystroke_Key.space	Key.space	n/a
41.3165	0.045	82633	keystroke_e	e	n/a
41.5715	0.075	83143	keystroke_x	x	n/a
41.7815	0.105	83563	keystroke_p	p	n/a
41.8265	0.09	83653	keystroke_o	o	n/a
41.9465	0.06	83893	keystroke_s	s	n/a
42.0965	0.045	84193	keystroke_e	e	n/a
42.2615	0.0905	84523	keystroke_d	d	n/a
42.4115	0.06	84823	keystroke_Key.enter	Key.enter	n/a
42.4765	6.4915	84953	prompt	n/a	marilyn carlos pichunter mainstream\n
43.1615	0.09	86323	keystroke_m	m	n/a
43.371	0.09	86742	keystroke_a	a	n/a
43.446	0.06	86892	keystroke_r	r	n/a
44.166	0.046	88332	keystroke_i	i	n/a
44.346	0.075	88692	keystroke_l	l	n/a
44.571	0.075	89142	keystroke_y	y	n/a
44.781	0.105	89562	keystroke_n	n	n/a
44.856	0.12	89712	keystroke_Key.space	Key.space	n/a
45.006	0.121	90012	keystroke_c	c	n/a
45.111	0.06	90222	keystroke_a	a	n/a
45.396	0.03	90792	keystroke_r	r	n/a
45.666	0.0605	91332	keystroke_l	l	n/a
45.8015	0.075	91603	keystroke_o	o	n/a
45.9065	0.075	91813	keystroke_s	s	n/a
46.0415	0.075	92083	keystroke_Key.space	Key.space	n/a
46.2365	0.1345	92473	keystroke_p	p	n/a
46.326	0.105	92652	keystroke_i	i	n/a
46.476	0.045	92952	keystroke_c	c	n/a
46.642	0.045	93284	keystroke_h	h	n/a
46.821	0.046	93642	keystroke_u	u	n/a
47.062	0.089	94124	keystroke_n	n	n/a
47.196	0.06	94392	keystroke_t	t	n/a
47.376	0.075	94752	keystroke_e	e	n/a
47.406	0.091	94812	keystroke_r	r	n/a
47.541	0.075	95082	keystroke_Key.space	Key.space	n/a
47.602	0.089	95204	keystroke_m	m	n/a
47.736	0.091	95472	keystroke_a	a	n/a
47.857	0.059	95714	keystroke_i	i	n/a
48.022	0.059	96044	keystroke_n	n	n/a
48.112	0.074	96224	keystroke_s	s	n/a
48.291	0.075	96582	keystroke_t	t	n/a
48.4715	0.075	96943	keystroke_r	r	n/a
48.5165	0.09	97033	keystroke_e	e	n/a
48.5915	0.075	97183	keystroke_a	a	n/a
48.6815	0.09	97363	keystroke_m	m	n/a
48.9065	0.06	97813	keystroke_Key.enter	Key.enter	n/a
48.971	5.982	97942	prompt	n/a	association exam mine monitor\n
49.5515	0.06	99103	keystroke_a	a	n/a
49.7015	0.06	99403	keystroke_s	s	n/a
49.8515	0.075	99703	keystroke_s	s	n/a
49.9415	0.075	99883	keystroke_o	o	n/a
50.0315	0.075	100063	keystroke_c	c	n/a
50.1215	0.075	100243	keystroke_i	i	n/a
50.2565	0.045	100513	keystroke_a	a	n/a
50.3165	0.1045	100633	keystroke_t	t	n/a
50.436	0.075	100872	keystroke_i	i	n/a
50.466	0.09	100932	keystroke_o	o	n/a
50.646	0.075	101292	keystroke_n	n	n/a
50.706	0.09	101412	keystroke_Key.space	Key.space	n/a
50.751	0.06	101502	keystroke_e	e	n/a
50.991	0.12	101982	keystroke_d	d	n/a
51.096	0.12	102192	keystroke_a	a	n/a
51.531	0.045	103062	keystroke_m	m	n/a
51.636	0.1055	103272	keystroke_Key.space	Key.space	n/a
52.1015	0.045	104203	keystroke_Key.backspace	Key.backspace	n/a
52.2665	0.075	104533	keystroke_Key.backspace	Key.backspace	n/a
52.4465	0.075	104893	keystroke_Key.backspace	Key.backspace	n/a
52.6265	0.075	105253	keystroke_Key.backspace	Key.backspace	n/a
52.7315	0.09	105463	keystroke_x	x	n/a
52.9415	0.075	105883	keystroke_a	a	n/a
53.0465	0.075	106093	keystroke_m	m	n/a
53.1365	0.09	106273	keystroke_Key.space	Key.space	n/a
53.2415	0.075	106483	keystroke_m	m	n/a
53.4665	0.045	106933	keystroke_i	i	n/a
53.6165	0.045	107233	keystroke_n	n	n/a
53.6915	0.0745	107383	keystroke_e	e	n/a
53.781	0.09	107562	keystroke_Key.space	Key.space	n/a
53.886	0.075	107772	keystroke_m	m	n/a
54.037	0.059	108074	keystroke_o	o	n/a
54.216	0.046	108432	keystroke_n	n	n/a
54.381	0.045	108762	keystroke_i	i	n/a
54.5015	0.06	109003	keystroke_t	t	n/a
54.6215	0.075	109243	keystroke_o	o	n/a
54.7265	0.075	109453	keystroke_r	r	n/a
54.8765	0.075	109753	keystroke_Key.enter	Key.enter	n/a
54.956	4.3925	109912	prompt	n/a	grave atlantic seem returning\n
55.5965	0.075	111193	keystroke_g	g	n/a
55.7465	0.075	111493	keystroke_r	r	n/a
55.8065	0.105	111613	keystroke_a	a	n/a
56.1365	0.09	112273	keystroke_v	v	n/a
56.2275	0.104	112455	keystroke_e	e	n/a
56.4665	0.09	112933	keystroke_Key.space	Key.space	n/a
56.5715	0.075	113143	keystroke_a	a	n/a
56.7065	0.105	113413	keystroke_t	t	n/a
56.8265	0.06	113653	keystroke_l	l	n/a
56.9315	0.06	113863	keystroke_a	a	n/a
57.0065	0.06	114013	keystroke_n	n	n/a
57.1265	0.0745	114253	keystroke_t	t	n/a
57.232	0.06	114464	keystroke_i	i	n/a
57.337	0.09	114674	keystroke_c	c	n/a
57.441	0.061	114882	keystroke_Key.space	Key.space	n/a
57.547	0.045	115094	keystroke_s	s	n/a
57.651	0.046	115302	keystroke_e	e	n/a
57.787	0.059	115574	keystroke_e	e	n/a
57.862	0.09	115724	keystroke_m	m	n/a
57.936	0.075	115872	keystroke_Key.space	Key.space	n/a
58.191	0.121	116382	keystroke_r	r	n/a
58.282	0.075	116564	keystroke_e	e	n/a
58.477	0.075	116954	keystroke_t	t	n/a
58.597	0.059	117194	keystroke_u	u	n/a
58.672	0.074	117344	keystroke_r	r	n/a
58.776	0.09	117552	keystroke_n	n	n/a
58.911	0.076	117822	keystroke_i	i	n/a
59.061	0.076	118122	keystroke_n	n	n/a
59.151	0.1055	118302	keystroke_g	g	n/a
59.2415	0.105	118483	keystroke_Key.enter	Key.enter	n/a
59.3525	5.9355	118705	prompt	n/a	indigenous cuisine alleged equity\n
59.9765	0.075	119953	keystroke_i	i	n/a
60.1565	0.075	120313	keystroke_n	n	n/a
60.2165	0.105	120433	keystroke_d	d	n/a
60.3365	0.06	120673	keystroke_i	i	n/a
60.4115	0.075	120823	keystroke_g	g	n/a
60.5315	0.09	121063	keystroke_e	e	n/a
60.6515	0.075	121303	keystroke_n	n	n/a
60.8315	0.105	121663	keystroke_o	o	n/a
60.9065	0.09	121813	keystroke_u	u	n/a
61.0265	0.06	122053	keystroke_s	s	n/a
61.1315	0.105	122263	keystroke_Key.space	Key.space	n/a
61.2665	0.0745	122533	keystroke_c	c	n/a
61.386	0.12	122772	keystroke_u	u	n/a
61.491	0.136	122982	keystroke_i	i	n/a
61.656	0.0905	123312	keystroke_s	s	n/a
61.7315	0.06	123463	keystroke_i	i	n/a
61.8965	0.075	123793	keystroke_n	n	n/a
62.0015	0.06	124003	keystroke_e	e	n/a
62.1065	0.105	124213	keystroke_Key.space	Key.space	n/a
62.2265	0.09	124453	keystroke_a	a	n/a
62.3315	0.06	124663	keystroke_l	l	n/a
62.4515	0.1045	124903	keystroke_l	l	n/a
62.661	0.06	125322	keystroke_e	e	n/a
62.826	0.09	125652	keystroke_g	g	n/a
62.871	0.09	125742	keystroke_e	e	n/a
63.066	0.075	126132	keystroke_d	d	n/a
63.156	0.075	126312	keystroke_Key.space	Key.space	n/a
63.741	0.045	127482	keystroke_e	e	n/a
64.0715	0.075	128143	keystroke_q	q	n/a
64.6115	0.045	129223	keystroke_u	u	n/a
64.7615	0.09	129523	keystroke_i	i	n/a
64.8815	0.09	129763	keystroke_t	t	n/a
64.9565	0.075	129913	keystroke_y	y	n/a
65.2115	0.075	130423	keystroke_Key.enter	Key.enter	n/a
65.291	5.832	130582	prompt	n/a	clearing continuous preparing paying\n
66.0215	0.06	132043	keystroke_c	c	n/a
66.1115	0.09	132223	keystroke_l	l	n/a
66.2465	0.135	132493	keystroke_e	e	n/a
66.3665	0.135	132733	keystroke_a	a	n/a
66.4565	0.09	132913	keystroke_r	r	n/a
66.6065	0.045	133213	keystroke_i	i	n/a
66.757	0.06	133514	keystroke_n	n	n/a
66.817	0.06	133634	keystroke_g	g	n/a
66.922	0.105	133844	keystroke_Key.space	Key.space	n/a
67.087	0.09	134174	keystroke_c	c	n/a
67.192	0.045	134384	keystroke_o	o	n/a
67.342	0.06	134684	keystroke_n	n	n/a
67.477	0.075	134954	keystroke_t	t	n/a
67.597	0.03	135194	keystroke_i	i	n/a
67.7465	0.075	135493	keystroke_n	n	n/a
68.0165	0.075	136033	keystroke_u	u	n/a
68.2115	0.135	136423	keystroke_o	o	n/a
68.3615	0.045	136723	keystroke_u	u	n/a
68.5865	0.09	137173	keystroke_s	s	n/a
68.7815	0.06	137563	keystroke_Key.space	Key.space	n/a
68.9315	0.12	137863	keystroke_p	p	n/a
69.0365	0.135	138073	keystroke_r	r	n/a
69.1265	0.09	138253	keystroke_e	e	n/a
69.2465	0.105	138493	keystroke_p	p	n/a
69.651	0.0905	139302	keystroke_a	a	n/a
69.7865	0.075	139573	keystroke_r	r	n/a
69.8915	0.045	139783	keystroke_i	i	n/a
70.0415	0.0755	140083	keystroke_n	n	n/a
70.132	0.03	140264	keystroke_g	g	n/a
70.222	0.09	140444	keystroke_Key.space	Key.space	n/a
70.252	0.105	140504	keystroke_p	p	n/a
70.372	0.075	140744	keystroke_a	a	n/a
70.477	0.075	140954	keystroke_y	y	n/a
70.642	0.075	141284	keystroke_i	i	n/a
70.807	0.075	141614	keystroke_n	n	n/a
70.897	0.075	141794	keystroke_g	g	n/a
71.062	0.06	142124	keystroke_Key.enter	Key.enter	n/a
71.126	4.572	142252	prompt	n/a	dispatch bonds have slideshow\n
71.797	0.059	143594	keystroke_d	d	n/a
71.901	0.045	143802	keystroke_i	i	n/a
71.961	0.106	143922	keystroke_s	s	n/a
72.081	0.075	144162	keystroke_p	p	n/a
72.2015	0.105	144403	keystroke_a	a	n/a
72.2615	0.075	144523	keystroke_t	t	n/a
72.5315	0.06	145063	keystroke_c	c	n/a
72.5765	0.075	145153	keystroke_h	h	n/a
72.6965	0.075	145393	keystroke_Key.space	Key.space	n/a
72.9065	0.0605	145813	keystroke_b	b	n/a
73.087	0.075	146174	keystroke_o	o	n/a
73.237	0.0895	146474	keystroke_n	n	n/a
73.357	0.15	146714	keystroke_d	d	n/a
73.4615	0.105	146923	keystroke_s	s	n/a
73.5815	0.1055	147163	keystroke_Key.space	Key.space	n/a
73.6715	0.0755	147343	keystroke_h	h	n/a
73.717	0.12	147434	keystroke_a	a	n/a
73.8665	0.045	147733	keystroke_v	v	n/a
74.182	0.075	148364	keystroke_e	e	n/a
74.377	0.075	148754	keystroke_Key.space	Key.space	n/a
74.482	0.09	148964	keystroke_s	s	n/a
74.587	0.06	149174	keystroke_l	l	n/a
74.737	0.075	149474	keystroke_i	i	n/a
74.797	0.075	149594	keystroke_d	d	n/a
74.977	0.06	149954	keystroke_e	e	n/a
75.127	0.105	150254	keystroke_s	s	n/a
75.187	0.1195	150374	keystroke_h	h	n/a
75.2615	0.121	150523	keystroke_o	o	n/a
75.3825	0.059	150765	keystroke_w	w	n/a
75.6215	0.075	151243	keystroke_Key.enter	Key.enter	n/a
75.7015	6.0565	151403	prompt	n/a	accordance specifies issued bunch\n
76.3865	0.06	152773	keystroke_a	a	n/a
76.5965	0.09	153193	keystroke_c	c	n/a
76.7615	0.075	153523	keystroke_c	c	n/a
76.9115	0.075	153823	keystroke_o	o	n/a
77.0015	0.06	154003	keystroke_r	r	n/a
77.1815	0.09	154363	keystroke_d	d	n/a
77.3165	0.105	154633	keystroke_a	a	n/a
77.4365	0.075	154873	keystroke_n	n	n/a
77.5565	0.105	155113	keystroke_c	c	n/a
77.6165	0.105	155233	keystroke_e	e	n/a
77.7665	0.075	155533	keystroke_Key.space	Key.space	n/a
78.022	0.075	156044	keystroke_s	s	n/a
78.127	0.045	156254	keystroke_p	p	n/a
78.217	0.06	156434	keystroke_e	e	n/a
78.472	0.12	156944	keystroke_c	c	n/a
78.712	0.06	157424	keystroke_f	f	n/a
79.192	0.029	158384	keystroke_Key.backspace	Key.backspace	n/a
79.462	0.06	158924	keystroke_i	i	n/a
79.536	0.075	159072	keystroke_f	f	n/a
79.642	0.074	159284	keystroke_i	i	n/a
79.731	0.03	159462	keystroke_e	e	n/a
79.881	0.075	159762	keystroke_d	d	n/a
79.986	0.105	159972	keystroke_Key.space	Key.space	n/a
80.121	0.075	160242	keystroke_i	i	n/a
80.241	0.045	160482	keystroke_s	s	n/a
80.346	0.075	160692	keystroke_s	s	n/a
80.436	0.0755	160872	keystroke_u	u	n/a
80.5565	0.06	161113	keystroke_e	e	n/a
80.7215	0.075	161443	keystroke_d	d	n/a
80.7665	0.075	161533	keystroke_Key.space	Key.space	n/a
80.9315	0.045	161863	keystroke_b	b	n/a
81.0965	0.045	162193	keystroke_u	u	n/a
81.2915	0.09	162583	keystroke_n	n	n/a
81.4565	0.09	162913	keystroke_c	c	n/a
81.5165	0.06	163033	keystroke_h	h	n/a
81.6965	0.0595	163393	keystroke_Key.enter	Key.enter	n/a
81.7615	5.0665	163523	prompt	n/a	production twins knee junk\n
82.492	0.09	164984	keystroke_p	p	n/a
82.627	0.029	165254	keystroke_r	r	n/a
82.671	0.09	165342	keystroke_o	o	n/a
82.791	0.09	165582	keystroke_d	d	n/a
82.897	0.059	165794	keystroke_u	u	n/a
82.986	0.061	165972	keystroke_c	c	n/a
83.1965	0.06	166393	keystroke_t	t	n/a
83.2865	0.09	166573	keystroke_i	i	n/a
83.3465	0.09	166693	keystroke_o	o	n/a
83.5565	0.15	167113	keystroke_n	n	n/a
83.6615	0.0895	167323	keystroke_Key.space	Key.space	n/a
83.812	0.014	167624	keystroke_t	t	n/a
83.916	0.105	167832	keystroke_w	w	n/a
84.037	0.06	168074	keystroke_i	i	n/a
84.202	0.059	168404	keystroke_n	n	n/a
84.292	0.06	168584	keystroke_s	s	n/a
84.352	0.149	168704	keystroke_Key.space	Key.space	n/a
84.486	0.105	168972	keystroke_k	k	n/a
84.621	0.135	169242	keystroke_n	n	n/a
84.771	0.06	169542	keystroke_e	e	n/a
84.936	0.06	169872	keystroke_e	e	n/a
85.071	0.06	170142	keystroke_Key.space	Key.space	n/a
85.176	0.06	170352	keystroke_j	j	n/a
85.611	0.045	171222	keystroke_Key.backspace	Key.backspace	n/a
86.106	0.06	172212	keystroke_j	j	n/a
86.316	0.015	172632	keystroke_u	u	n/a
86.451	0.1355	172902	keystroke_n	n	n/a
86.5415	0.12	173083	keystroke_k	k	n/a
86.7515	0.075	173503	keystroke_Key.enter	Key.enter	n/a
86.8305	5.8475	173661	prompt	n/a	silly organisations pieces bomb\n
87.4715	0.09	174943	keystroke_s	s	n/a
87.5465	0.06	175093	keystroke_i	i	n/a
87.7415	0.045	175483	keystroke_l	l	n/a
87.8465	0.0745	175693	keystroke_l	l	n/a
88.056	0.09	176112	keystroke_y	y	n/a
88.131	0.105	176262	keystroke_Key.space	Key.space	n/a
88.326	0.105	176652	keystroke_o	o	n/a
88.446	0.045	176892	keystroke_r	r	n/a
88.641	0.075	177282	keystroke_g	g	n/a
88.821	0.09	177642	keystroke_a	a	n/a
89.316	0.06	178632	keystroke_n	n	n/a
89.481	0.075	178962	keystroke_i	i	n/a
89.8415	0.09	179683	keystroke_s	s	n/a
90.2315	0.075	180463	keystroke_a	a	n/a
90.4115	0.09	180823	keystroke_t	t	n/a
90.5315	0.105	181063	keystroke_i	i	n/a
90.5765	0.09	181153	keystroke_o	o	n/a
90.7715	0.105	181543	keystroke_n	n	n/a
90.8615	0.06	181723	keystroke_s	s	n/a
90.981	0.135	181962	keystroke_Key.space	Key.space	n/a
91.147	0.134	182294	keystroke_p	p	n/a
91.206	0.105	182412	keystroke_i	i	n/a
91.386	0.061	182772	keystroke_e	e	n/a
91.5815	0.12	183163	keystroke_c	c	n/a
91.6715	0.06	183343	keystroke_e	e	n/a
91.8965	0.06	183793	keystroke_s	s	n/a
91.9715	0.09	183943	keystroke_Key.space	Key.space	n/a
92.0915	0.075	184183	keystroke_b	b	n/a
92.1665	0.045	184333	keystroke_o	o	n/a
92.3165	0.075	184633	keystroke_m	m	n/a
92.4215	0.015	184843	keystroke_b	b	n/a
92.6165	0.06	185233	keystroke_Key.enter	Key.enter	n/a
92.681	4.992	185362	prompt	n/a	cook crawford keyword cluster\n
93.3365	0.06	186673	keystroke_c	c	n/a
93.4115	0.06	186823	keystroke_o	o	n/a
93.5315	0.06	187063	keystroke_o	o	n/a
93.6965	0.075	187393	keystroke_k	k	n/a
93.7565	0.0895	187513	keystroke_Key.space	Key.space	n/a
93.831	0.045	187662	keystroke_c	c	n/a
94.0265	0.12	188053	keystroke_r	r	n/a
94.1165	0.135	188233	keystroke_a	a	n/a
94.3115	0.06	188623	keystroke_w	w	n/a
94.5215	0.075	189043	keystroke_f	f	n/a
94.6415	0.06	189283	keystroke_o	o	n/a
94.7165	0.03	189433	keystroke_r	r	n/a
94.8965	0.045	189793	keystroke_d	d	n/a
94.9565	0.09	189913	keystroke_Key.space	Key.space	n/a
95.0465	0.12	190093	keystroke_k	k	n/a
95.1815	0.045	190363	keystroke_e	e	n/a
95.2865	0.0595	190573	keystroke_y	y	n/a
95.481	0.0905	190962	keystroke_w	w	n/a
95.5865	0.09	191173	keystroke_o	o	n/a
95.6465	0.06	191293	keystroke_r	r	n/a
95.916	0.075	191832	keystroke_Key.space	Key.space	n/a
96.351	0.031	192702	keystroke_Key.backspace	Key.backspace	n/a
96.472	0.0595	192944	keystroke_d	d	n/a
96.5915	0.075	193183	keystroke_Key.space	Key.space	n/a
96.6815	0.0755	193363	keystroke_c	c	n/a
96.786	0.061	193572	keystroke_l	l	n/a
96.981	0.12	193962	keystroke_u	u	n/a
97.102	0.059	194204	keystroke_s	s	n/a
97.281	0.075	194562	keystroke_e	e	n/a
97.326	0.076	194652	keystroke_r	r	n/a
97.596	0.075	195192	keystroke_Key.enter	Key.enter	n/a
97.676	4.947	195352	prompt	n/a	indicated ultram char martin\n
98.2565	0.045	196513	keystroke_i	i	n/a
98.3915	0.075	196783	keystroke_n	n	n/a
98.4515	0.075	196903	keystroke_d	d	n/a
98.5865	0.06	197173	keystroke_i	i	n/a
98.6765	0.09	197353	keystroke_c	c	n/a
98.7815	0.105	197563	keystroke_a	a	n/a
98.9165	0.105	197833	keystroke_t	t	n/a
99.0065	0.075	198013	keystroke_e	e	n/a
99.1865	0.105	198373	keystroke_d	d	n/a
99.2765	0.105	198553	keystroke_Key.space	Key.space	n/a
99.3965	0.06	198793	keystroke_u	u	n/a
99.6065	0.09	199213	keystroke_l	l	n/a
99.6815	0.06	199363	keystroke_t	t	n/a
99.8615	0.075	199723	keystroke_r	r	n/a
99.9065	0.09	199813	keystroke_a	a	n/a
100.0115	0.075	200023	keystroke_m	m	n/a
100.0715	0.075	200143	keystroke_Key.space	Key.space	n/a
100.2065	0.105	200413	keystroke_c	c	n/a
100.3715	0.075	200743	keystroke_h	h	n/a
100.5215	0.075	201043	keystroke_a	a	n/a
101.677	0.0595	203354	keystroke_r	r	n/a
101.7665	0.075	203533	keystroke_Key.space	Key.space	n/a
101.9165	0.075	203833	keystroke_m	m	n/a
102.0065	0.09	204013	keystroke_a	a	n/a
102.0515	0.075	204103	keystroke_r	r	n/a
102.2315	0.076	204463	keystroke_t	t	n/a
102.2915	0.045	204583	keystroke_i	i	n/a
102.4265	0.045	204853	keystroke_n	n	n/a
102.5465	0.075	205093	keystroke_Key.enter	Key.enter	n/a
102.628	4.18	205256	prompt	n/a	jimmy been indicated cities\n
103.2665	0.06	206533	keystroke_j	j	n/a
103.4915	0.0755	206983	keystroke_i	i	n/a
103.732	0.045	207464	keystroke_m	m	n/a
103.851	0.061	207702	keystroke_m	m	n/a
104.092	0.1045	208184	keystroke_y	y	n/a
104.181	0.0905	208362	keystroke_Key.space	Key.space	n/a
104.377	0.06	208754	keystroke_b	b	n/a
104.497	0.045	208994	keystroke_e	e	n/a
104.617	0.105	209234	keystroke_e	e	n/a
104.707	0.09	209414	keystroke_n	n	n/a
104.752	0.09	209504	keystroke_Key.space	Key.space	n/a
104.902	0.06	209804	keystroke_i	i	n/a
105.037	0.105	210074	keystroke_n	n	n/a
105.157	0.045	210314	keystroke_d	d	n/a
105.232	0.0595	210464	keystroke_i	i	n/a
105.352	0.09	210704	keystroke_c	c	n/a
105.442	0.105	210884	keystroke_a	a	n/a
105.592	0.12	211184	keystroke_t	t	n/a
105.697	0.0745	211394	keystroke_e	e	n/a
105.8765	0.075	211753	keystroke_d	d	n/a
105.9815	0.09	211963	keystroke_Key.space	Key.space	n/a
106.0865	0.075	212173	keystroke_c	c	n/a
106.1915	0.0905	212383	keystroke_i	i	n/a
106.311	0.06	212622	keystroke_t	t	n/a
106.4165	0.06	212833	keystroke_i	i	n/a
106.4615	0.045	212923	keystroke_e	e	n/a
106.6265	0.0755	213253	keystroke_s	s	n/a
106.732	0.075	213464	keystroke_Key.enter	Key.enter	n/a
106.811	3.8075	213622	prompt	n/a	mirror died smith emotional\n
107.512	0.075	215024	keystroke_m	m	n/a
107.662	0.09	215324	keystroke_i	i	n/a
107.767	0.06	215534	keystroke_r	r	n/a
107.887	0.075	215774	keystroke_r	r	n/a
107.977	0.06	215954	keystroke_o	o	n/a
108.022	0.075	216044	keystroke_r	r	n/a
108.217	0.075	216434	keystroke_Key.space	Key.space	n/a
108.337	0.1045	216674	keystroke_d	d	n/a
108.4715	0.075	216943	keystroke_i	i	n/a
108.5465	0.045	217093	keystroke_e	e	n/a
108.7115	0.075	217423	keystroke_d	d	n/a
108.8165	0.03	217633	keystroke_Key.space	Key.space	n/a
108.8915	0.105	217783	keystroke_s	s	n/a
108.9965	0.06	217993	keystroke_m	m	n/a
109.1615	0.045	218323	keystroke_i	i	n/a
109.2515	0.075	218503	keystroke_t	t	n/a
109.3115	0.09	218623	keystroke_h	h	n/a
109.3865	0.075	218773	keystroke_Key.space	Key.space	n/a
109.5215	0.075	219043	keystroke_e	e	n/a
109.6115	0.06	219223	keystroke_m	m	n/a
109.791	0.075	219582	keystroke_o	o	n/a
109.896	0.09	219792	keystroke_t	t	n/a
109.971	0.105	219942	keystroke_i	i	n/a
110.031	0.105	220062	keystroke_o	o	n/a
110.196	0.075	220392	keystroke_n	n	n/a
110.316	0.091	220632	keystroke_a	a	n/a
110.392	0.075	220784	keystroke_l	l	n/a
110.542	0.075	221084	keystroke_Key.enter	Key.enter	n/a
110.6215	5.7715	221243	prompt	n/a	open rehabilitation dubai confirmed\n
111.411	0.121	222822	keystroke_o	o	n/a
111.5465	0.09	223093	keystroke_p	p	n/a
111.7265	0.075	223453	keystroke_e	e	n/a
111.8165	0.105	223633	keystroke_n	n	n/a
111.8765	0.105	223753	keystroke_Key.space	Key.space	n/a
112.0565	0.075	224113	keystroke_r	r	n/a
112.2215	0.075	224443	keystroke_e	e	n/a
112.761	0.06	225522	keystroke_h	h	n/a
112.941	0.075	225882	keystroke_a	a	n/a
113.031	0.045	226062	keystroke_b	b	n/a
113.211	0.046	226422	keystroke_i	i	n/a
113.376	0.06	226752	keystroke_l	l	n/a
113.556	0.06	227112	keystroke_i	i	n/a
113.706	0.0905	227412	keystroke_t	t	n/a
113.8865	0.09	227773	keystroke_a	a	n/a
113.9315	0.09	227863	keystroke_t	t	n/a
114.0665	0.105	228133	keystroke_i	i	n/a
114.1565	0.075	228313	keystroke_o	o	n/a
114.3215	0.09	228643	keystroke_n	n	n/a
114.441	0.06	228882	keystroke_Key.space	Key.space	n/a
114.516	0.075	229032	keystroke_d	d	n/a
114.651	0.0455	229302	keystroke_u	u	n/a
114.816	0.06	229632	keystroke_b	b	n/a
114.921	0.1055	229842	keystroke_a	a	n/a
115.027	0.045	230054	keystroke_i	i	n/a
115.162	0.09	230324	keystroke_Key.space	Key.space	n/a
115.387	0.09	230774	keystroke_c	c	n/a
115.462	0.045	230924	keystroke_o	o	n/a
115.582	0.06	231164	keystroke_n	n	n/a
115.732	0.045	231464	keystroke_f	f	n/a
115.792	0.0445	231584	keystroke_i	i	n/a
115.8815	0.075	231763	keystroke_r	r	n/a
115.9715	0.105	231943	keystroke_m	m	n/a
116.0465	0.045	232093	keystroke_e	e	n/a
116.2115	0.09	232423	keystroke_d	d	n/a
116.3465	0.045	232693	keystroke_Key.enter	Key.enter	n/a
116.396	4.1525	232792	prompt	n/a	ordinance fighting aviation female\n
117.052	0.09	234104	keystroke_o	o	n/a
117.112	0.075	234224	keystroke_r	r	n/a
117.277	0.105	234554	keystroke_d	d	n/a
117.352	0.045	234704	keystroke_i	i	n/a
117.502	0.06	235004	keystroke_n	n	n/a
117.607	0.06	235214	keystroke_a	a	n/a
117.7115	0.045	235423	keystroke_n	n	n/a
117.8015	0.09	235603	keystroke_c	c	n/a
117.8765	0.0595	235753	keystroke_e	e	n/a
117.981	0.075	235962	keystroke_Key.space	Key.space	n/a
118.057	0.074	236114	keystroke_f	f	n/a
118.146	0.06	236292	keystroke_i	i	n/a
118.236	0.046	236472	keystroke_g	g	n/a
118.296	0.075	236592	keystroke_h	h	n/a
118.416	0.045	236832	keystroke_t	t	n/a
118.476	0.046	236952	keystroke_i	i	n/a
118.597	0.059	237194	keystroke_n	n	n/a
118.671	0.061	237342	keystroke_g	g	n/a
118.776	0.075	237552	keystroke_Key.space	Key.space	n/a
118.836	0.06	237672	keystroke_a	a	n/a
119.002	0.059	238004	keystroke_v	v	n/a
119.076	0.06	238152	keystroke_i	i	n/a
119.181	0.106	238362	keystroke_a	a	n/a
119.301	0.06	238602	keystroke_t	t	n/a
119.421	0.105	238842	keystroke_i	i	n/a
119.496	0.075	238992	keystroke_o	o	n/a
119.692	0.1195	239384	keystroke_n	n	n/a
119.7965	0.075	239593	keystroke_Key.space	Key.space	n/a
119.8415	0.075	239683	keystroke_f	f	n/a
120.0215	0.06	240043	keystroke_e	e	n/a
120.1115	0.09	240223	keystroke_m	m	n/a
120.2165	0.06	240433	keystroke_a	a	n/a
120.2915	0.06	240583	keystroke_l	l	n/a
120.3665	0.06	240733	keystroke_e	e	n/a
120.4715	0.0755	240943	keystroke_Key.enter	Key.enter	n/a
120.553	6.34	241106	prompt	n/a	shakira power dollar immunology\n
121.2515	0.045	242503	keystroke_s	s	n/a
121.3115	0.06	242623	keystroke_h	h	n/a
121.4315	0.075	242863	keystroke_a	a	n/a
121.6115	0.075	243223	keystroke_k	k	n/a
121.762	0.074	243524	keystroke_i	i	n/a
121.866	0.09	243732	keystroke_r	r	n/a
121.912	0.104	243824	keystroke_a	a	n/a
122.031	0.105	244062	keystroke_Key.space	Key.space	n/a
122.121	0.1355	244242	keystroke_p	p	n/a
122.2415	0.09	244483	keystroke_o	o	n/a
122.4215	0.075	244843	keystroke_w	w	n/a
122.4665	0.06	244933	keystroke_e	e	n/a
122.4815	0.09	244963	keystroke_r	r	n/a
122.6465	0.0905	245293	keystroke_Key.space	Key.space	n/a
122.797	0.1045	245594	keystroke_d	d	n/a
122.857	0.0745	245714	keystroke_o	o	n/a
123.052	0.06	246104	keystroke_l	l	n/a
123.157	0.0745	246314	keystroke_l	l	n/a
123.2765	0.075	246553	keystroke_a	a	n/a
123.3065	0.075	246613	keystroke_r	r	n/a
123.4415	0.06	246883	keystroke_Key.space	Key.space	n/a
124.297	0.045	248594	keystroke_i	i	n/a
124.537	0.045	249074	keystroke_m	m	n/a
124.672	0.06	249344	keystroke_m	m	n/a
124.8965	0.03	249793	keystroke_u	u	n/a
125.0615	0.075	250123	keystroke_n	n	n/a
125.2565	0.045	250513	keystroke_o	o	n/a
125.5565	0.06	251113	keystroke_o	o	n/a
126.0365	0.06	252073	keystroke_Key.backspace	Key.backspace	n/a
126.2615	0.06	252523	keystroke_l	l	n/a
126.4115	0.06	252823	keystroke_o	o	n/a
126.561	0.061	253122	keystroke_g	g	n/a
126.607	0.074	253214	keystroke_y	y	n/a
126.802	0.09	253604	keystroke_Key.enter	Key.enter	n/a
126.8965	4.632	253793	prompt	n/a	little viewpicture rocks routine\n
127.537	0.06	255074	keystroke_l	l	n/a
127.702	0.0595	255404	keystroke_i	i	n/a
127.7625	0.044	255525	keystroke_t	t	n/a
127.8815	0.09	255763	keystroke_t	t	n/a
127.9565	0.06	255913	keystroke_l	l	n/a
128.0315	0.075	256063	keystroke_e	e	n/a
128.1365	0.105	256273	keystroke_Key.space	Key.space	n/a
128.2565	0.045	256513	keystroke_v	v	n/a
128.3765	0.06	256753	keystroke_i	i	n/a
128.4665	0.105	256933	keystroke_e	e	n/a
128.5715	0.075	257143	keystroke_w	w	n/a
129.2615	0.12	258523	keystroke_p	p	n/a
129.3065	0.12	258613	keystroke_i	i	n/a
129.4565	0.06	258913	keystroke_c	c	n/a
129.6965	0.015	259393	keystroke_t	t	n/a
129.7265	0.06	259453	keystroke_u	u	n/a
129.8015	0.135	259603	keystroke_r	r	n/a
129.9215	0.075	259843	keystroke_e	e	n/a
130.0265	0.09	260053	keystroke_Key.space	Key.space	n/a
130.1015	0.0605	260203	keystroke_r	r	n/a
130.237	0.059	260474	keystroke_o	o	n/a
130.311	0.09	260622	keystroke_c	c	n/a
130.431	0.045	260862	keystroke_k	k	n/a
130.491	0.06	260982	keystroke_s	s	n/a
130.626	0.06	261252	keystroke_Key.space	Key.space	n/a
130.731	0.091	261462	keystroke_r	r	n/a
130.866	0.075	261732	keystroke_o	o	n/a
130.896	0.091	261792	keystroke_u	u	n/a
131.016	0.075	262032	keystroke_t	t	n/a
131.106	0.045	262212	keystroke_i	i	n/a
131.211	0.091	262422	keystroke_n	n	n/a
131.286	0.076	262572	keystroke_e	e	n/a
131.466	0.06	262932	keystroke_Key.enter	Key.enter	n/a
131.5315	4.947	263063	prompt	n/a	beauty productions xhtml sells\n
132.1565	0.0445	264313	keystroke_b	b	n/a
132.231	0.12	264462	keystroke_e	e	n/a
132.291	0.106	264582	keystroke_a	a	n/a
132.427	0.0745	264854	keystroke_u	u	n/a
132.5165	0.06	265033	keystroke_t	t	n/a
132.6215	0.0605	265243	keystroke_y	y	n/a
132.9965	0.0755	265993	keystroke_Key.space	Key.space	n/a
133.162	0.0745	266324	keystroke_p	p	n/a
133.2515	0.075	266503	keystroke_r	r	n/a
133.3565	0.09	266713	keystroke_o	o	n/a
133.4615	0.075	266923	keystroke_d	d	n/a
133.5965	0.06	267193	keystroke_u	u	n/a
133.6715	0.09	267343	keystroke_c	c	n/a
133.9115	0.075	267823	keystroke_t	t	n/a
134.0015	0.09	268003	keystroke_i	i	n/a
134.0765	0.06	268153	keystroke_o	o	n/a
134.2265	0.09	268453	keystroke_n	n	n/a
134.3315	0.0605	268663	keystroke_s	s	n/a
134.437	0.075	268874	keystroke_Key.space	Key.space	n/a
134.9615	0.075	269923	keystroke_x	x	n/a
135.1865	0.045	270373	keystroke_h	h	n/a
135.3665	0.06	270733	keystroke_t	t	n/a
135.4865	0.06	270973	keystroke_m	m	n/a
135.6515	0.045	271303	keystroke_l	l	n/a
135.817	0.075	271634	keystroke_Key.space	Key.space	n/a
135.907	0.06	271814	keystroke_s	s	n/a
136.042	0.09	272084	keystroke_e	e	n/a
136.117	0.045	272234	keystroke_l	l	n/a
136.222	0.075	272444	keystroke_l	l	n/a
136.312	0.075	272624	keystroke_s	s	n/a
136.4015	0.075	272803	keystroke_Key.enter	Key.enter	n/a
136.483	4.45	272966	prompt	n/a	consists church oaks markers\n
137.107	0.075	274214	keystroke_c	c	n/a
137.167	0.045	274334	keystroke_o	o	n/a
137.302	0.06	274604	keystroke_n	n	n/a
137.377	0.075	274754	keystroke_s	s	n/a
137.482	0.06	274964	keystroke_i	i	n/a
137.557	0.045	275114	keystroke_s	s	n/a
137.7065	0.0605	275413	keystroke_t	t	n/a
137.872	0.075	275744	keystroke_s	s	n/a
137.992	0.075	275984	keystroke_Key.space	Key.space	n/a
138.082	0.075	276164	keystroke_c	c	n/a
138.172	0.045	276344	keystroke_h	h	n/a
138.322	0.06	276644	keystroke_u	u	n/a
138.367	0.059	276734	keystroke_r	r	n/a
138.562	0.09	277124	keystroke_c	c	n/a
138.652	0.089	277304	keystroke_h	h	n/a
138.756	0.061	277512	keystroke_Key.space	Key.space	n/a
139.1315	0.075	278263	keystroke_o	o	n/a
139.2965	0.105	278593	keystroke_a	a	n/a
139.7915	0.09	279583	keystroke_k	k	n/a
139.9265	0.09	279853	keystroke_s	s	n/a
140.0615	0.075	280123	keystroke_Key.space	Key.space	n/a
140.2565	0.075	280513	keystroke_m	m	n/a
140.3615	0.075	280723	keystroke_a	a	n/a
140.4065	0.075	280813	keystroke_r	r	n/a
140.4965	0.06	280993	keystroke_k	k	n/a
140.5575	0.089	281115	keystroke_e	e	n/a
140.6315	0.06	281263	keystroke_r	r	n/a
140.797	0.09	281594	keystroke_s	s	n/a
140.872	0.06	281744	keystroke_Key.enter	Key.enter	n/a
140.936	3.987	281872	prompt	n/a	a celebrity explaining remember\n
141.577	0.0745	283154	keystroke_a	a	n/a
141.6965	0.075	283393	keystroke_Key.space	Key.space	n/a
141.8765	0.12	283753	keystroke_c	c	n/a
141.9815	0.091	283963	keystroke_e	e	n/a
142.086	0.06	284172	keystroke_l	l	n/a
142.161	0.091	284322	keystroke_e	e	n/a
142.267	0.06	284534	keystroke_b	b	n/a
142.342	0.074	284684	keystroke_r	r	n/a
142.447	0.0745	284894	keystroke_i	i	n/a
142.5365	0.06	285073	keystroke_t	t	n/a
142.6265	0.075	285253	keystroke_y	y	n/a
142.7165	0.075	285433	keystroke_Key.space	Key.space	n/a
142.7765	0.045	285553	keystroke_e	e	n/a
143.0015	0.06	286003	keystroke_x	x	n/a
143.077	0.0595	286154	keystroke_p	p	n/a
143.212	0.075	286424	keystroke_l	l	n/a
143.332	0.0895	286664	keystroke_a	a	n/a
143.4365	0.0455	286873	keystroke_i	i	n/a
143.5715	0.075	287143	keystroke_n	n	n/a
143.722	0.045	287444	keystroke_i	i	n/a
143.842	0.09	287684	keystroke_n	n	n/a
143.917	0.0595	287834	keystroke_g	g	n/a
144.0215	0.075	288043	keystroke_Key.space	Key.space	n/a
144.0815	0.105	288163	keystroke_r	r	n/a
144.1715	0.075	288343	keystroke_e	e	n/a
144.2765	0.06	288553	keystroke_m	m	n/a
144.3515	0.0755	288703	keystroke_e	e	n/a
144.4115	0.0755	288823	keystroke_m	m	n/a
144.607	0.075	289214	keystroke_b	b	n/a
144.637	0.075	289274	keystroke_e	e	n/a
144.697	0.06	289394	keystroke_r	r	n/a
144.832	0.09	289664	keystroke_Key.enter	Key.enter	n/a
144.926	6.3875	289852	prompt	n/a	nepal index elizabeth compression\n
145.612	0.075	291224	keystroke_n	n	n/a
145.702	0.045	291404	keystroke_e	e	n/a
145.8815	0.06	291763	keystroke_p	p	n/a
145.9715	0.105	291943	keystroke_a	a	n/a
146.0915	0.075	292183	keystroke_l	l	n/a
146.1815	0.09	292363	keystroke_Key.space	Key.space	n/a
146.3165	0.06	292633	keystroke_i	i	n/a
146.4665	0.075	292933	keystroke_n	n	n/a
146.5265	0.06	293053	keystroke_d	d	n/a
146.692	0.075	293384	keystroke_e	e	n/a
147.411	0.016	294822	keystroke_x	x	n/a
147.531	0.076	295062	keystroke_Key.space	Key.space	n/a
147.772	0.06	295544	keystroke_l	l	n/a
148.2965	0.03	296593	keystroke_Key.backspace	Key.backspace	n/a
148.4615	0.045	296923	keystroke_e	e	n/a
148.5515	0.045	297103	keystroke_l	l	n/a
148.7015	0.075	297403	keystroke_i	i	n/a
148.7915	0.075	297583	keystroke_z	z	n/a
148.9715	0.075	297943	keystroke_a	a	n/a
149.0615	0.06	298123	keystroke_b	b	n/a
149.1365	0.075	298273	keystroke_e	e	n/a
149.3015	0.091	298603	keystroke_t	t	n/a
149.3765	0.045	298753	keystroke_h	h	n/a
149.5115	0.075	299023	keystroke_Key.space	Key.space	n/a
149.6015	0.075	299203	keystroke_c	c	n/a
149.6915	0.0605	299383	keystroke_o	o	n/a
149.842	0.0445	299684	keystroke_m	m	n/a
150.0215	0.09	300043	keystroke_p	p	n/a
150.0965	0.09	300193	keystroke_r	r	n/a
150.1715	0.045	300343	keystroke_e	e	n/a
150.352	0.045	300704	keystroke_s	s	n/a
150.457	0.075	300914	keystroke_s	s	n/a
150.547	0.06	301094	keystroke_i	i	n/a
150.922	0.06	301844	keystroke_o	o	n/a
151.072	0.06	302144	keystroke_n	n	n/a
151.252	0.06	302504	keystroke_Key.enter	Key.enter	n/a
151.317	5.5915	302634	prompt	n/a	conclusions marijuana apparatus libraries\n
151.942	0.105	303884	keystroke_c	c	n/a
152.032	0.045	304064	keystroke_o	o	n/a
152.152	0.045	304304	keystroke_n	n	n/a
152.227	0.075	304454	keystroke_c	c	n/a
152.317	0.075	304634	keystroke_l	l	n/a
152.482	0.045	304964	keystroke_u	u	n/a
152.557	0.09	305114	keystroke_s	s	n/a
152.662	0.12	305324	keystroke_i	i	n/a
152.767	0.045	305534	keystroke_o	o	n/a
152.887	0.045	305774	keystroke_n	n	n/a
152.977	0.075	305954	keystroke_s	s	n/a
153.067	0.075	306134	keystroke_Key.space	Key.space	n/a
153.277	0.045	306554	keystroke_m	m	n/a
153.412	0.09	306824	keystroke_a	a	n/a
153.517	0.09	307034	keystroke_r	r	n/a
153.592	0.059	307184	keystroke_i	i	n/a
153.7565	0.075	307513	keystroke_j	j	n/a
153.9065	0.0605	307813	keystroke_u	u	n/a
154.042	0.075	308084	keystroke_a	a	n/a
154.132	0.06	308264	keystroke_n	n	n/a
154.222	0.075	308444	keystroke_a	a	n/a
154.327	0.075	308654	keystroke_Key.space	Key.space	n/a
154.462	0.105	308924	keystroke_a	a	n/a
154.552	0.06	309104	keystroke_p	p	n/a
154.642	0.12	309284	keystroke_p	p	n/a
154.777	0.06	309554	keystroke_a	a	n/a
154.957	0.09	309914	keystroke_r	r	n/a
155.017	0.09	310034	keystroke_a	a	n/a
155.227	0.09	310454	keystroke_t	t	n/a
155.332	0.045	310664	keystroke_u	u	n/a
155.452	0.09	310904	keystroke_s	s	n/a
155.572	0.105	311144	keystroke_Key.space	Key.space	n/a
155.722	0.075	311444	keystroke_l	l	n/a
155.887	0.03	311774	keystroke_i	i	n/a
155.992	0.06	311984	keystroke_b	b	n/a
156.232	0.105	312464	keystroke_r	r	n/a
156.322	0.105	312644	keystroke_a	a	n/a
156.442	0.09	312884	keystroke_r	r	n/a
156.517	0.09	313034	keystroke_i	i	n/a
156.592	0.06	313184	keystroke_e	e	n/a
156.742	0.105	313484	keystroke_s	s	n/a
156.832	0.075	313664	keystroke_Key.enter	Key.enter	n/a
156.913	7.0005	313826	prompt	n/a	discretion prepared appears investigator\n
157.552	0.075	315104	keystroke_d	d	n/a
157.7315	0.075	315463	keystroke_e	e	n/a
158.242	0.089	316484	keystroke_Key.backspace	Key.backspace	n/a
158.497	0.06	316994	keystroke_i	i	n/a
158.617	0.075	317234	keystroke_s	s	n/a
159.5465	0.06	319093	keystroke_c	c	n/a
159.741	0.106	319482	keystroke_r	r	n/a
159.787	0.104	319574	keystroke_e	e	n/a
159.966	0.0905	319932	keystroke_t	t	n/a
160.042	0.06	320084	keystroke_i	i	n/a
160.0715	0.0745	320143	keystroke_o	o	n/a
160.2365	0.0605	320473	keystroke_n	n	n/a
160.3115	0.1045	320623	keystroke_Key.space	Key.space	n/a
160.431	0.076	320862	keystroke_p	p	n/a
160.476	0.105	320952	keystroke_r	r	n/a
160.551	0.046	321102	keystroke_e	e	n/a
160.626	0.105	321252	keystroke_p	p	n/a
160.747	0.1195	321494	keystroke_a	a	n/a
160.852	0.119	321704	keystroke_r	r	n/a
160.9265	0.105	321853	keystroke_e	e	n/a
161.1515	0.075	322303	keystroke_d	d	n/a
161.2415	0.0895	322483	keystroke_Key.space	Key.space	n/a
161.376	0.076	322752	keystroke_a	a	n/a
161.466	0.0455	322932	keystroke_p	p	n/a
161.5715	0.1045	323143	keystroke_p	p	n/a
161.661	0.121	323322	keystroke_e	e	n/a
161.737	0.135	323474	keystroke_a	a	n/a
161.887	0.0745	323774	keystroke_r	r	n/a
162.0515	0.0905	324103	keystroke_s	s	n/a
162.157	0.09	324314	keystroke_Key.space	Key.space	n/a
162.232	0.075	324464	keystroke_i	i	n/a
162.397	0.075	324794	keystroke_n	n	n/a
162.487	0.09	324974	keystroke_v	v	n/a
162.682	0.06	325364	keystroke_e	e	n/a
162.892	0.03	325784	keystroke_s	s	n/a
163.0265	0.105	326053	keystroke_t	t	n/a
163.1165	0.075	326233	keystroke_i	i	n/a
163.2365	0.09	326473	keystroke_g	g	n/a
163.3565	0.075	326713	keystroke_a	a	n/a
163.4765	0.09	326953	keystroke_t	t	n/a
163.5965	0.09	327193	keystroke_o	o	n/a
163.6875	0.119	327375	keystroke_r	r	n/a
163.8215	0.09	327643	keystroke_Key.enter	Key.enter	n/a
163.9165	5.382	327833	prompt	n/a	alumni reveals textiles provinces\n
164.5115	0.075	329023	keystroke_a	a	n/a
164.6015	0.075	329203	keystroke_l	l	n/a
164.7965	0.06	329593	keystroke_u	u	n/a
165.007	0.045	330014	keystroke_m	m	n/a
165.142	0.075	330284	keystroke_n	n	n/a
165.307	0.06	330614	keystroke_i	i	n/a
165.427	0.09	330854	keystroke_Key.space	Key.space	n/a
165.502	0.09	331004	keystroke_r	r	n/a
165.562	0.09	331124	keystroke_e	e	n/a
165.7865	0.075	331573	keystroke_v	v	n/a
165.9665	0.09	331933	keystroke_e	e	n/a
166.0865	0.105	332173	keystroke_a	a	n/a
166.1615	0.0905	332323	keystroke_l	l	n/a
166.282	0.09	332564	keystroke_s	s	n/a
166.387	0.09	332774	keystroke_Key.space	Key.space	n/a
166.492	0.09	332984	keystroke_t	t	n/a
166.627	0.075	333254	keystroke_e	e	n/a
166.897	0.075	333794	keystroke_x	x	n/a
167.122	0.09	334244	keystroke_t	t	n/a
167.197	0.06	334394	keystroke_i	i	n/a
167.377	0.105	334754	keystroke_l	l	n/a
167.422	0.075	334844	keystroke_e	e	n/a
167.572	0.09	335144	keystroke_s	s	n/a
167.647	0.075	335294	keystroke_Key.space	Key.space	n/a
167.707	0.075	335414	keystroke_p	p	n/a
167.767	0.075	335534	keystroke_r	r	n/a
167.872	0.075	335744	keystroke_o	o	n/a
167.992	0.12	335984	keystroke_v	v	n/a
168.592	0.075	337184	keystroke_i	i	n/a
168.757	0.06	337514	keystroke_n	n	n/a
168.847	0.105	337694	keystroke_c	c	n/a
168.937	0.06	337874	keystroke_e	e	n/a
169.102	0.0905	338204	keystroke_s	s	n/a
169.2065	0.09	338413	keystroke_Key.enter	Key.enter	n/a
169.302	5.3065	338604	prompt	n/a	holiday commodities proudly dutch\n
169.9265	0.06	339853	keystroke_h	h	n/a
170.0765	0.06	340153	keystroke_o	o	n/a
170.2565	0.03	340513	keystroke_l	l	n/a
170.3915	0.045	340783	keystroke_i	i	n/a
170.527	0.105	341054	keystroke_d	d	n/a
170.602	0.09	341204	keystroke_a	a	n/a
170.647	0.12	341294	keystroke_y	y	n/a
170.707	0.09	341414	keystroke_Key.space	Key.space	n/a
170.842	0.06	341684	keystroke_c	c	n/a
170.932	0.06	341864	keystroke_o	o	n/a
171.142	0.03	342284	keystroke_m	m	n/a
171.262	0.06	342524	keystroke_m	m	n/a
171.442	0.075	342884	keystroke_o	o	n/a
171.562	0.105	343124	keystroke_d	d	n/a
171.682	0.06	343364	keystroke_i	i	n/a
172.147	0.09	344294	keystroke_t	t	n/a
172.222	0.075	344444	keystroke_i	i	n/a
172.312	0.0595	344624	keystroke_e	e	n/a
172.477	0.1045	344954	keystroke_s	s	n/a
172.567	0.0895	345134	keystroke_Key.space	Key.space	n/a
172.642	0.15	345284	keystroke_p	p	n/a
172.7165	0.0905	345433	keystroke_r	r	n/a
172.852	0.1495	345704	keystroke_o	o	n/a
172.9565	0.1355	345913	keystroke_u	u	n/a
173.0465	0.075	346093	keystroke_d	d	n/a
173.1665	0.075	346333	keystroke_l	l	n/a
173.3615	0.0905	346723	keystroke_y	y	n/a
173.4215	0.09	346843	keystroke_Key.space	Key.space	n/a
173.587	0.0895	347174	keystroke_d	d	n/a
174.0065	0.076	348013	keystroke_u	u	n/a
174.0965	0.046	348193	keystroke_t	t	n/a
174.3065	0.09	348613	keystroke_c	c	n/a
174.3815	0.06	348763	keystroke_h	h	n/a
174.5165	0.09	349033	keystroke_Key.enter	Key.enter	n/a
174.6115	4.887	349223	prompt	n/a	vitamin blocks myth sweet\n
175.2975	0.104	350595	keystroke_v	v	n/a
175.3565	0.075	350713	keystroke_i	i	n/a
175.4925	0.089	350985	keystroke_t	t	n/a
175.5675	0.104	351135	keystroke_a	a	n/a
175.6565	0.075	351313	keystroke_m	m	n/a
175.8365	0.045	351673	keystroke_i	i	n/a
175.9865	0.09	351973	keystroke_n	n	n/a
176.0465	0.075	352093	keystroke_Key.space	Key.space	n/a
176.1815	0.075	352363	keystroke_b	b	n/a
176.3915	0.045	352783	keystroke_l	l	n/a
176.5115	0.09	353023	keystroke_o	o	n/a
176.5865	0.09	353173	keystroke_c	c	n/a
176.7065	0.075	353413	keystroke_k	k	n/a
176.7965	0.09	353593	keystroke_s	s	n/a
176.8715	0.12	353743	keystroke_Key.space	Key.space	n/a
176.9765	0.09	353953	keystroke_m	m	n/a
177.1865	0.105	354373	keystroke_u	u	n/a
177.3215	0.06	354643	keystroke_t	t	n/a
178.102	0.06	356204	keystroke_Key.backspace	Key.backspace	n/a
178.237	0.06	356474	keystroke_Key.backspace	Key.backspace	n/a
178.462	0.0745	356924	keystroke_y	y	n/a
178.5515	0.075	357103	keystroke_t	t	n/a
178.6415	0.105	357283	keystroke_h	h	n/a
178.7165	0.09	357433	keystroke_Key.space	Key.space	n/a
178.7615	0.06	357523	keystroke_s	s	n/a
178.9115	0.075	357823	keystroke_w	w	n/a
178.9715	0.075	357943	keystroke_e	e	n/a
179.1065	0.06	358213	keystroke_e	e	n/a
179.2715	0.09	358543	keystroke_t	t	n/a
179.3765	0.12	358753	keystroke_Key.enter	Key.enter	n/a
179.5015	4.362	359003	prompt	n/a	unlike assisted tablet warcraft\n
180.157	0.075	360314	keystroke_u	u	n/a
180.337	0.045	360674	keystroke_n	n	n/a
180.487	0.06	360974	keystroke_l	l	n/a
180.622	0.045	361244	keystroke_i	i	n/a
180.742	0.06	361484	keystroke_k	k	n/a
180.787	0.075	361574	keystroke_e	e	n/a
180.892	0.105	361784	keystroke_Key.space	Key.space	n/a
180.982	0.06	361964	keystroke_a	a	n/a
181.132	0.06	362264	keystroke_s	s	n/a
181.267	0.0605	362534	keystroke_s	s	n/a
181.342	0.06	362684	keystroke_i	i	n/a
181.402	0.075	362804	keystroke_s	s	n/a
181.582	0.06	363164	keystroke_t	t	n/a
181.6725	0.1045	363345	keystroke_e	e	n/a
181.837	0.1055	363674	keystroke_d	d	n/a
181.9575	0.104	363915	keystroke_Key.space	Key.space	n/a
182.0475	0.0745	364095	keystroke_t	t	n/a
182.107	0.1205	364214	keystroke_a	a	n/a
182.1975	0.0445	364395	keystroke_b	b	n/a
182.3475	0.0745	364695	keystroke_l	l	n/a
182.392	0.045	364784	keystroke_e	e	n/a
182.542	0.075	365084	keystroke_t	t	n/a
182.632	0.09	365264	keystroke_Key.space	Key.space	n/a
182.752	0.12	365504	keystroke_w	w	n/a
182.827	0.105	365654	keystroke_a	a	n/a
182.887	0.09	365774	keystroke_r	r	n/a
183.127	0.075	366254	keystroke_c	c	n/a
183.322	0.075	366644	keystroke_r	r	n/a
183.382	0.135	366764	keystroke_a	a	n/a
183.532	0.06	367064	keystroke_f	f	n/a
183.697	0.09	367394	keystroke_t	t	n/a
183.757	0.105	367514	keystroke_Key.enter	Key.enter	n/a
183.8665	5.562	367733	prompt	n/a	projection projected vienna boards\n
184.4615	0.09	368923	keystroke_p	p	n/a
184.5665	0.09	369133	keystroke_r	r	n/a
184.6265	0.09	369253	keystroke_o	o	n/a
184.987	0.09	369974	keystroke_j	j	n/a
185.122	0.075	370244	keystroke_e	e	n/a
185.302	0.0455	370604	keystroke_c	c	n/a
185.4825	0.044	370965	keystroke_t	t	n/a
185.5875	0.075	371175	keystroke_i	i	n/a
185.6325	0.0895	371265	keystroke_o	o	n/a
185.842	0.06	371684	keystroke_n	n	n/a
185.977	0.105	371954	keystroke_Key.space	Key.space	n/a
186.067	0.12	372134	keystroke_p	p	n/a
186.202	0.075	372404	keystroke_r	r	n/a
186.292	0.075	372584	keystroke_o	o	n/a
186.427	0.105	372854	keystroke_j	j	n/a
186.547	0.12	373094	keystroke_e	e	n/a
186.712	0.075	373424	keystroke_c	c	n/a
186.937	0.06	373874	keystroke_t	t	n/a
187.087	0.075	374174	keystroke_e	e	n/a
187.342	0.105	374684	keystroke_d	d	n/a
187.582	0.09	375164	keystroke_Key.space	Key.space	n/a
187.702	0.0745	375404	keystroke_v	v	n/a
187.7915	0.09	375583	keystroke_i	i	n/a
187.9415	0.105	375883	keystroke_e	e	n/a
188.0765	0.045	376153	keystroke_n	n	n/a
188.1965	0.075	376393	keystroke_n	n	n/a
188.3015	0.09	376603	keystroke_a	a	n/a
188.4065	0.03	376813	keystroke_Key.space	Key.space	n/a
188.4965	0.061	376993	keystroke_b	b	n/a
188.6475	0.089	377295	keystroke_o	o	n/a
188.7665	0.12	377533	keystroke_a	a	n/a
188.7965	0.105	377593	keystroke_r	r	n/a
189.0515	0.105	378103	keystroke_d	d	n/a
189.2015	0.105	378403	keystroke_s	s	n/a
189.3365	0.0905	378673	keystroke_Key.enter	Key.enter	n/a
189.4315	4.797	378863	prompt	n/a	implement funk pets search\n
190.072	0.06	380144	keystroke_i	i	n/a
190.267	0.075	380534	keystroke_m	m	n/a
190.4465	0.06	380893	keystroke_p	p	n/a
190.5965	0.06	381193	keystroke_l	l	n/a
190.7015	0.075	381403	keystroke_e	e	n/a
190.942	0.09	381884	keystroke_m	m	n/a
191.077	0.1195	382154	keystroke_e	e	n/a
191.2115	0.045	382423	keystroke_n	n	n/a
191.3015	0.075	382603	keystroke_t	t	n/a
191.4065	0.075	382813	keystroke_Key.space	Key.space	n/a
191.5265	0.105	383053	keystroke_f	f	n/a
191.6165	0.03	383233	keystroke_u	u	n/a
191.7825	0.195	383565	keystroke_n	n	n/a
191.9025	0.12	383805	keystroke_k	k	n/a
192.0365	0.091	384073	keystroke_Key.space	Key.space	n/a
192.337	0.015	384674	keystroke_p	p	n/a
192.352	0.06	384704	keystroke_e	e	n/a
192.487	0.09	384974	keystroke_t	t	n/a
192.667	0.075	385334	keystroke_s	s	n/a
192.772	0.09	385544	keystroke_Key.space	Key.space	n/a
192.892	0.06	385784	keystroke_s	s	n/a
193.282	0.045	386564	keystroke_e	e	n/a
193.507	0.09	387014	keystroke_a	a	n/a
193.582	0.06	387164	keystroke_r	r	n/a
193.8225	0.06	387645	keystroke_c	c	n/a
193.9125	0.0745	387825	keystroke_h	h	n/a
194.137	0.09	388274	keystroke_Key.enter	Key.enter	n/a
194.2315	5.202	388463	prompt	n/a	variables comic slave kill\n
194.887	0.09	389774	keystroke_v	v	n/a
195.0815	0.075	390163	keystroke_a	a	n/a
195.1575	0.104	390315	keystroke_r	r	n/a
195.3065	0.075	390613	keystroke_i	i	n/a
195.7865	0.12	391573	keystroke_a	a	n/a
195.8615	0.06	391723	keystroke_b	b	n/a
196.0265	0.09	392053	keystroke_l	l	n/a
196.0715	0.046	392143	keystroke_e	e	n/a
196.402	0.09	392804	keystroke_Key.space	Key.space	n/a
196.8665	0.075	393733	keystroke_Key.backspace	Key.backspace	n/a
197.0025	0.074	394005	keystroke_s	s	n/a
197.0915	0.06	394183	keystroke_Key.space	Key.space	n/a
197.1975	0.06	394395	keystroke_c	c	n/a
197.2715	0.045	394543	keystroke_o	o	n/a
197.4525	0.074	394905	keystroke_m	m	n/a
197.6315	0.06	395263	keystroke_i	i	n/a
197.752	0.06	395504	keystroke_c	c	n/a
197.827	0.0895	395654	keystroke_Key.space	Key.space	n/a
198.0365	0.045	396073	keystroke_s	s	n/a
198.0975	0.075	396195	keystroke_l	l	n/a
198.2615	0.045	396523	keystroke_a	a	n/a
198.3215	0.105	396643	keystroke_v	v	n/a
198.3825	0.1195	396765	keystroke_e	e	n/a
198.517	0.105	397034	keystroke_Key.space	Key.space	n/a
198.637	0.045	397274	keystroke_k	k	n/a
198.757	0.06	397514	keystroke_i	i	n/a
199.0565	0.06	398113	keystroke_l	l	n/a
199.1765	0.09	398353	keystroke_l	l	n/a
199.3265	0.105	398653	keystroke_Key.enter	Key.enter	n/a
199.436	5.0075	398872	prompt	n/a	simply forestry her paperback\n
200.092	0.03	400184	keystroke_s	s	n/a
200.167	0.045	400334	keystroke_i	i	n/a
200.3315	0.075	400663	keystroke_m	m	n/a
200.4975	0.06	400995	keystroke_p	p	n/a
200.6625	0.06	401325	keystroke_l	l	n/a
200.8725	0.09	401745	keystroke_y	y	n/a
200.9475	0.119	401895	keystroke_Key.space	Key.space	n/a
201.1425	0.075	402285	keystroke_f	f	n/a
201.2325	0.075	402465	keystroke_o	o	n/a
201.982	0.135	403964	keystroke_r	r	n/a
202.057	0.09	404114	keystroke_e	e	n/a
202.342	0.06	404684	keystroke_s	s	n/a
202.5215	0.061	405043	keystroke_t	t	n/a
202.6865	0.076	405373	keystroke_r	r	n/a
202.7325	0.09	405465	keystroke_y	y	n/a
202.7915	0.09	405583	keystroke_Key.space	Key.space	n/a
202.927	0.075	405854	keystroke_h	h	n/a
203.0475	0.075	406095	keystroke_e	e	n/a
203.1065	0.075	406213	keystroke_r	r	n/a
203.2865	0.105	406573	keystroke_Key.space	Key.space	n/a
203.3765	0.0905	406753	keystroke_p	p	n/a
203.512	0.06	407024	keystroke_a	a	n/a
203.587	0.075	407174	keystroke_p	p	n/a
203.707	0.06	407414	keystroke_e	e	n/a
203.752	0.09	407504	keystroke_r	r	n/a
203.947	0.075	407894	keystroke_b	b	n/a
204.067	0.105	408134	keystroke_a	a	n/a
204.127	0.09	408254	keystroke_c	c	n/a
204.202	0.06	408404	keystroke_k	k	n/a
204.382	0.0595	408764	keystroke_Key.enter	Key.enter	n/a
204.447	8.4265	408894	prompt	n/a	linear seniors queens architect\n
205.1615	0.075	410323	keystroke_l	l	n/a
205.3715	0.045	410743	keystroke_i	i	n/a
205.5215	0.075	411043	keystroke_n	n	n/a
205.6715	0.106	411343	keystroke_e	e	n/a
205.7615	0.105	411523	keystroke_a	a	n/a
205.8965	0.06	411793	keystroke_r	r	n/a
206.0015	0.105	412003	keystroke_Key.space	Key.space	n/a
206.1215	0.09	412243	keystroke_s	s	n/a
206.3315	0.06	412663	keystroke_e	e	n/a
206.4065	0.06	412813	keystroke_n	n	n/a
206.7065	0.03	413413	keystroke_i	i	n/a
206.7215	0.12	413443	keystroke_o	o	n/a
206.8265	0.06	413653	keystroke_r	r	n/a
207.0215	0.09	414043	keystroke_s	s	n/a
207.1265	0.0755	414253	keystroke_Key.space	Key.space	n/a
207.262	0.06	414524	keystroke_q	q	n/a
207.352	0.075	414704	keystroke_u	u	n/a
207.472	0.045	414944	keystroke_e	e	n/a
207.592	0.075	415184	keystroke_e	e	n/a
207.682	0.0745	415364	keystroke_n	n	n/a
207.7865	0.06	415573	keystroke_s	s	n/a
207.8765	0.075	415753	keystroke_Key.space	Key.space	n/a
207.9815	0.09	415963	keystroke_a	a	n/a
208.0725	0.044	416145	keystroke_r	r	n/a
208.2215	0.075	416443	keystroke_t	t	n/a
208.3115	0.06	416623	keystroke_h	h	n/a
210.2015	0.09	420403	keystroke_Key.backspace	Key.backspace	n/a
210.4115	0.045	420823	keystroke_Key.backspace	Key.backspace	n/a
210.682	0.06	421364	keystroke_c	c	n/a
210.727	0.06	421454	keystroke_h	h	n/a
210.847	0.09	421694	keystroke_i	i	n/a
210.952	0.075	421904	keystroke_t	t	n/a
211.072	0.105	422144	keystroke_e	e	n/a
211.4015	0.091	422803	keystroke_x	x	n/a
212.077	0.09	424154	keystroke_Key.backspace	Key.backspace	n/a
212.287	0.075	424574	keystroke_c	c	n/a
212.557	0.0595	425114	keystroke_t	t	n/a
212.8265	0.045	425653	keystroke_Key.enter	Key.enter	n/a
212.878	5.7705	425756	prompt	n/a	generally disposition appreciate luck\n
213.5165	0.09	427033	keystroke_g	g	n/a
213.6515	0.105	427303	keystroke_e	e	n/a
213.7565	0.0605	427513	keystroke_n	n	n/a
213.922	0.12	427844	keystroke_e	e	n/a
213.997	0.105	427994	keystroke_r	r	n/a
214.207	0.105	428414	keystroke_a	a	n/a
214.327	0.045	428654	keystroke_l	l	n/a
214.447	0.0605	428894	keystroke_l	l	n/a
214.6725	0.0895	429345	keystroke_y	y	n/a
214.717	0.105	429434	keystroke_Key.space	Key.space	n/a
214.852	0.075	429704	keystroke_d	d	n/a
214.987	0.045	429974	keystroke_i	i	n/a
215.047	0.06	430094	keystroke_s	s	n/a
215.4975	0.075	430995	keystroke_p	p	n/a
215.5875	0.105	431175	keystroke_o	o	n/a
215.7675	0.09	431535	keystroke_s	s	n/a
215.9025	0.06	431805	keystroke_i	i	n/a
216.0075	0.105	432015	keystroke_t	t	n/a
216.0975	0.12	432195	keystroke_i	i	n/a
216.1725	0.09	432345	keystroke_o	o	n/a
216.3525	0.09	432705	keystroke_n	n	n/a
216.4125	0.12	432825	keystroke_Key.space	Key.space	n/a
216.5775	0.075	433155	keystroke_a	a	n/a
216.667	0.09	433334	keystroke_p	p	n/a
216.787	0.12	433574	keystroke_p	p	n/a
216.877	0.105	433754	keystroke_r	r	n/a
216.952	0.075	433904	keystroke_e	e	n/a
217.282	0.0895	434564	keystroke_c	c	n/a
217.3875	0.104	434775	keystroke_i	i	n/a
217.5965	0.075	435193	keystroke_a	a	n/a
217.7325	0.074	435465	keystroke_t	t	n/a
217.8375	0.09	435675	keystroke_e	e	n/a
217.9275	0.1195	435855	keystroke_Key.space	Key.space	n/a
218.0025	0.0895	436005	keystroke_l	l	n/a
218.182	0.09	436364	keystroke_u	u	n/a
218.302	0.09	436604	keystroke_c	c	n/a
218.392	0.105	436784	keystroke_k	k	n/a
218.557	0.09	437114	keystroke_Key.enter	Key.enter	n/a
218.654	3.745	437308	prompt	n/a	received judy farming says\n
219.337	0.1045	438674	keystroke_r	r	n/a
219.4275	0.075	438855	keystroke_e	e	n/a
219.6215	0.1205	439243	keystroke_c	c	n/a
219.727	0.09	439454	keystroke_e	e	n/a
219.832	0.075	439664	keystroke_i	i	n/a
219.997	0.06	439994	keystroke_v	v	n/a
220.012	0.12	440024	keystroke_e	e	n/a
220.252	0.06	440504	keystroke_d	d	n/a
220.372	0.075	440744	keystroke_Key.space	Key.space	n/a
220.522	0.06	441044	keystroke_j	j	n/a
220.687	0.075	441374	keystroke_u	u	n/a
220.7765	0.105	441553	keystroke_d	d	n/a
220.8965	0.075	441793	keystroke_y	y	n/a
220.9565	0.075	441913	keystroke_Key.space	Key.space	n/a
221.0765	0.075	442153	keystroke_f	f	n/a
221.2115	0.09	442423	keystroke_a	a	n/a
221.2865	0.09	442573	keystroke_r	r	n/a
221.3475	0.074	442695	keystroke_m	m	n/a
221.5265	0.03	443053	keystroke_i	i	n/a
221.6465	0.0755	443293	keystroke_n	n	n/a
221.7065	0.0755	443413	keystroke_g	g	n/a
221.797	0.09	443594	keystroke_Key.space	Key.space	n/a
221.902	0.06	443804	keystroke_s	s	n/a
222.007	0.075	444014	keystroke_a	a	n/a
222.112	0.09	444224	keystroke_y	y	n/a
222.187	0.075	444374	keystroke_s	s	n/a
222.292	0.1045	444584	keystroke_Key.enter	Key.enter	n/a
222.4015	5.457	444803	prompt	n/a	expanded on describes felt\n
223.0725	0.045	446145	keystroke_e	e	n/a
223.3125	0.089	446625	keystroke_x	x	n/a
223.4165	0.06	446833	keystroke_p	p	n/a
223.5365	0.105	447073	keystroke_a	a	n/a
223.6265	0.075	447253	keystroke_n	n	n/a
223.747	0.075	447494	keystroke_d	d	n/a
224.452	0.135	448904	keystroke_e	e	n/a
224.647	0.105	449294	keystroke_d	d	n/a
224.797	0.03	449594	keystroke_Key.space	Key.space	n/a
224.932	0.075	449864	keystroke_o	o	n/a
225.097	0.105	450194	keystroke_n	n	n/a
225.157	0.105	450314	keystroke_Key.space	Key.space	n/a
225.247	0.06	450494	keystroke_d	d	n/a
225.427	0.045	450854	keystroke_e	e	n/a
225.592	0.1045	451184	keystroke_s	s	n/a
225.7715	0.06	451543	keystroke_c	c	n/a
225.9815	0.06	451963	keystroke_r	r	n/a
226.0265	0.0455	452053	keystroke_i	i	n/a
226.192	0.0305	452384	keystroke_b	b	n/a
226.207	0.0455	452414	keystroke_e	e	n/a
226.3875	0.075	452775	keystroke_s	s	n/a
226.4765	0.09	452953	keystroke_Key.space	Key.space	n/a
226.7175	0.045	453435	keystroke_e	e	n/a
227.1225	0.06	454245	keystroke_Key.backspace	Key.backspace	n/a
227.3175	0.1045	454635	keystroke_f	f	n/a
227.437	0.045	454874	keystroke_e	e	n/a
227.542	0.075	455084	keystroke_l	l	n/a
227.632	0.075	455264	keystroke_t	t	n/a
227.7675	0.09	455535	keystroke_Key.enter	Key.enter	n/a
227.862	4.4365	455724	prompt	n/a	digital chaos noble borough\n
228.5625	0.045	457125	keystroke_d	d	n/a
228.6525	0.06	457305	keystroke_i	i	n/a
228.7425	0.059	457485	keystroke_g	g	n/a
228.8035	0.089	457607	keystroke_i	i	n/a
228.9075	0.075	457815	keystroke_t	t	n/a
228.9675	0.105	457935	keystroke_a	a	n/a
229.0725	0.09	458145	keystroke_l	l	n/a
229.1325	0.12	458265	keystroke_Key.space	Key.space	n/a
229.2675	0.075	458535	keystroke_c	c	n/a
229.3575	0.075	458715	keystroke_h	h	n/a
229.4625	0.09	458925	keystroke_a	a	n/a
229.5675	0.075	459135	keystroke_o	o	n/a
229.6725	0.074	459345	keystroke_s	s	n/a
229.867	0.09	459734	keystroke_Key.space	Key.space	n/a
230.077	0.045	460154	keystroke_n	n	n/a
230.227	0.06	460454	keystroke_o	o	n/a
230.377	0.06	460754	keystroke_b	b	n/a
230.542	0.09	461084	keystroke_l	l	n/a
230.6465	0.045	461293	keystroke_e	e	n/a
230.7365	0.075	461473	keystroke_Key.space	Key.space	n/a
230.9015	0.06	461803	keystroke_b	b	n/a
231.5915	0.09	463183	keystroke_o	o	n/a
231.7265	0.075	463453	keystroke_r	r	n/a
231.8165	0.12	463633	keystroke_o	o	n/a
231.8765	0.09	463753	keystroke_u	u	n/a
231.9815	0.075	463963	keystroke_g	g	n/a
232.0715	0.045	464143	keystroke_h	h	n/a
232.222	0.075	464444	keystroke_Key.enter	Key.enter	n/a
232.3015	6.072	464603	prompt	n/a	advanced boxes chairs webcam\n
232.9425	0.075	465885	keystroke_a	a	n/a
233.1215	0.061	466243	keystroke_d	d	n/a
233.2715	0.105	466543	keystroke_v	v	n/a
233.4215	0.121	466843	keystroke_a	a	n/a
233.6015	0.075	467203	keystroke_n	n	n/a
233.797	0.15	467594	keystroke_c	c	n/a
233.917	0.075	467834	keystroke_e	e	n/a
234.112	0.075	468224	keystroke_d	d	n/a
234.232	0.045	468464	keystroke_Key.space	Key.space	n/a
234.382	0.03	468764	keystroke_b	b	n/a
234.517	0.09	469034	keystroke_o	o	n/a
234.592	0.06	469184	keystroke_x	x	n/a
234.832	0.075	469664	keystroke_e	e	n/a
235.297	0.075	470594	keystroke_s	s	n/a
235.432	0.12	470864	keystroke_Key.space	Key.space	n/a
235.537	0.12	471074	keystroke_c	c	n/a
235.672	0.075	471344	keystroke_h	h	n/a
235.927	0.105	471854	keystroke_a	a	n/a
236.047	0.105	472094	keystroke_i	i	n/a
236.182	0.075	472364	keystroke_r	r	n/a
236.482	0.06	472964	keystroke_s	s	n/a
236.902	0.105	473804	keystroke_Key.space	Key.space	n/a
237.067	0.1345	474134	keystroke_w	w	n/a
237.1565	0.09	474313	keystroke_e	e	n/a
237.7715	0.015	475543	keystroke_b	b	n/a
237.937	0.105	475874	keystroke_c	c	n/a
238.027	0.09	476054	keystroke_a	a	n/a
238.102	0.075	476204	keystroke_m	m	n/a
238.282	0.09	476564	keystroke_Key.enter	Key.enter	n/a
238.3765	5.052	476753	prompt	n/a	shareware subcommittee after fuji\n
239.062	0.0755	478124	keystroke_s	s	n/a
239.1515	0.106	478303	keystroke_h	h	n/a
239.3025	0.06	478605	keystroke_a	a	n/a
239.3175	0.12	478635	keystroke_r	r	n/a
239.4075	0.105	478815	keystroke_e	e	n/a
239.617	0.1195	479234	keystroke_w	w	n/a
239.632	0.1205	479264	keystroke_a	a	n/a
239.707	0.1055	479414	keystroke_r	r	n/a
239.7815	0.106	479563	keystroke_e	e	n/a
239.9465	0.105	479893	keystroke_Key.space	Key.space	n/a
240.0815	0.075	480163	keystroke_s	s	n/a
240.1725	0.059	480345	keystroke_u	u	n/a
240.3515	0.045	480703	keystroke_b	b	n/a
240.7715	0.075	481543	keystroke_c	c	n/a
240.8765	0.046	481753	keystroke_o	o	n/a
241.0565	0.045	482113	keystroke_m	m	n/a
241.1615	0.0605	482323	keystroke_m	m	n/a
241.327	0.075	482654	keystroke_i	i	n/a
241.417	0.0605	482834	keystroke_t	t	n/a
241.5375	0.074	483075	keystroke_t	t	n/a
241.7465	0.06	483493	keystroke_e	e	n/a
241.9115	0.06	483823	keystroke_e	e	n/a
242.0015	0.105	484003	keystroke_Key.space	Key.space	n/a
242.0915	0.12	484183	keystroke_a	a	n/a
242.1825	0.09	484365	keystroke_f	f	n/a
242.3615	0.076	484723	keystroke_t	t	n/a
242.5125	0.059	485025	keystroke_e	e	n/a
242.5565	0.075	485113	keystroke_r	r	n/a
242.6615	0.0905	485323	keystroke_Key.space	Key.space	n/a
242.767	0.12	485534	keystroke_f	f	n/a
242.842	0.09	485684	keystroke_u	u	n/a
243.067	0.105	486134	keystroke_j	j	n/a
243.187	0.075	486374	keystroke_i	i	n/a
243.352	0.075	486704	keystroke_Key.enter	Key.enter	n/a
243.432	3.7465	486864	prompt	n/a	packing wifi stream curve\n
244.072	0.105	488144	keystroke_p	p	n/a
244.207	0.09	488414	keystroke_a	a	n/a
244.252	0.09	488504	keystroke_c	c	n/a
244.327	0.06	488654	keystroke_k	k	n/a
244.477	0.03	488954	keystroke_i	i	n/a
244.6115	0.0605	489223	keystroke_n	n	n/a
244.6565	0.075	489313	keystroke_g	g	n/a
244.7465	0.09	489493	keystroke_Key.space	Key.space	n/a
244.8215	0.0755	489643	keystroke_w	w	n/a
244.912	0.0895	489824	keystroke_i	i	n/a
245.0165	0.06	490033	keystroke_f	f	n/a
245.062	0.0895	490124	keystroke_i	i	n/a
245.1965	0.1055	490393	keystroke_Key.space	Key.space	n/a
245.377	0.06	490754	keystroke_s	s	n/a
245.542	0.06	491084	keystroke_t	t	n/a
245.677	0.135	491354	keystroke_r	r	n/a
245.752	0.105	491504	keystroke_e	e	n/a
245.797	0.12	491594	keystroke_a	a	n/a
245.872	0.075	491744	keystroke_m	m	n/a
245.902	0.12	491804	keystroke_Key.space	Key.space	n/a
246.082	0.045	492164	keystroke_c	c	n/a
246.187	0.09	492374	keystroke_u	u	n/a
246.517	0.075	493034	keystroke_r	r	n/a
246.8015	0.091	493603	keystroke_v	v	n/a
246.8765	0.105	493753	keystroke_e	e	n/a
247.0865	0.09	494173	keystroke_Key.enter	Key.enter	n/a
247.1815	6.957	494363	prompt	n/a	awful distributors reliability ordered\n
247.8065	0.075	495613	keystroke_a	a	n/a
247.9865	0.075	495973	keystroke_w	w	n/a
248.1215	0.1205	496243	keystroke_f	f	n/a
248.1815	0.0755	496363	keystroke_u	u	n/a
248.377	0.1045	496754	keystroke_l	l	n/a
248.4515	0.105	496903	keystroke_Key.space	Key.space	n/a
248.7215	0.075	497443	keystroke_d	d	n/a
248.8415	0.075	497683	keystroke_i	i	n/a
248.9615	0.045	497923	keystroke_s	s	n/a
249.1415	0.06	498283	keystroke_t	t	n/a
249.3065	0.045	498613	keystroke_r	r	n/a
249.3815	0.09	498763	keystroke_i	i	n/a
249.5015	0.045	499003	keystroke_b	b	n/a
249.5765	0.09	499153	keystroke_u	u	n/a
249.7265	0.075	499453	keystroke_t	t	n/a
249.8165	0.076	499633	keystroke_o	o	n/a
249.9075	0.06	499815	keystroke_r	r	n/a
250.0875	0.045	500175	keystroke_s	s	n/a
250.1465	0.075	500293	keystroke_Key.space	Key.space	n/a
250.2675	0.12	500535	keystroke_r	r	n/a
250.3575	0.09	500715	keystroke_e	e	n/a
250.8975	0.0895	501795	keystroke_l	l	n/a
251.212	0.06	502424	keystroke_i	i	n/a
251.5275	0.03	503055	keystroke_a	a	n/a
251.827	0.045	503654	keystroke_b	b	n/a
252.007	0.075	504014	keystroke_i	i	n/a
252.232	0.06	504464	keystroke_l	l	n/a
252.427	0.0905	504854	keystroke_i	i	n/a
252.5915	0.0755	505183	keystroke_t	t	n/a
252.712	0.075	505424	keystroke_y	y	n/a
252.862	0.075	505724	keystroke_Key.space	Key.space	n/a
253.027	0.075	506054	keystroke_o	o	n/a
253.087	0.0595	506174	keystroke_r	r	n/a
253.2665	0.045	506533	keystroke_d	d	n/a
253.4615	0.0755	506923	keystroke_e	e	n/a
253.522	0.165	507044	keystroke_r	r	n/a
253.642	0.09	507284	keystroke_e	e	n/a
253.852	0.09	507704	keystroke_d	d	n/a
254.062	0.0745	508124	keystroke_Key.enter	Key.enter	n/a
254.144	5.77	508288	prompt	n/a	continuous resolutions messenger ground\n
254.872	0.06	509744	keystroke_c	c	n/a
255.007	0.045	510014	keystroke_o	o	n/a
255.172	0.06	510344	keystroke_n	n	n/a
255.262	0.09	510524	keystroke_t	t	n/a
255.367	0.045	510734	keystroke_i	i	n/a
255.502	0.045	511004	keystroke_n	n	n/a
255.757	0.09	511514	keystroke_u	u	n/a
256.3125	0.135	512625	keystroke_o	o	n/a
256.3725	0.105	512745	keystroke_u	u	n/a
256.4925	0.105	512985	keystroke_s	s	n/a
256.6565	0.076	513313	keystroke_Key.space	Key.space	n/a
256.7775	0.12	513555	keystroke_r	r	n/a
256.8675	0.06	513735	keystroke_e	e	n/a
257.0775	0.09	514155	keystroke_s	s	n/a
257.1375	0.075	514275	keystroke_o	o	n/a
257.3175	0.06	514635	keystroke_l	l	n/a
257.497	0.075	514994	keystroke_u	u	n/a
257.587	0.075	515174	keystroke_t	t	n/a
257.722	0.09	515444	keystroke_i	i	n/a
257.767	0.075	515534	keystroke_o	o	n/a
257.932	0.045	515864	keystroke_n	n	n/a
258.022	0.0595	516044	keystroke_s	s	n/a
258.0665	0.12	516133	keystroke_Key.space	Key.space	n/a
258.1565	0.075	516313	keystroke_m	m	n/a
258.2175	0.06	516435	keystroke_e	e	n/a
258.3975	0.03	516795	keystroke_s	s	n/a
258.517	0.045	517034	keystroke_s	s	n/a
258.652	0.09	517304	keystroke_e	e	n/a
258.757	0.09	517514	keystroke_n	n	n/a
258.862	0.06	517724	keystroke_g	g	n/a
259.012	0.075	518024	keystroke_e	e	n/a
259.072	0.045	518144	keystroke_r	r	n/a
259.1465	0.12	518293	keystroke_Key.space	Key.space	n/a
259.2215	0.075	518443	keystroke_g	g	n/a
259.3875	0.06	518775	keystroke_r	r	n/a
259.4325	0.134	518865	keystroke_o	o	n/a
259.4915	0.09	518983	keystroke_u	u	n/a
259.6565	0.06	519313	keystroke_n	n	n/a
259.7015	0.075	519403	keystroke_d	d	n/a
259.8215	0.091	519643	keystroke_Key.enter	Key.enter	n/a
259.918	5.351	519836	prompt	n/a	catalog zoloft juice molecules\n
260.662	0.075	521324	keystroke_c	c	n/a
260.872	0.075	521744	keystroke_a	a	n/a
261.052	0.03	522104	keystroke_t	t	n/a
261.067	0.105	522134	keystroke_a	a	n/a
261.217	0.075	522434	keystroke_l	l	n/a
261.367	0.06	522734	keystroke_o	o	n/a
261.442	0.075	522884	keystroke_g	g	n/a
261.562	0.075	523124	keystroke_Key.space	Key.space	n/a
261.682	0.105	523364	keystroke_z	z	n/a
261.772	0.06	523544	keystroke_o	o	n/a
261.967	0.045	523934	keystroke_l	l	n/a
262.1025	0.06	524205	keystroke_o	o	n/a
262.5975	0.045	525195	keystroke_f	f	n/a
262.6715	0.106	525343	keystroke_t	t	n/a
262.7925	0.089	525585	keystroke_Key.space	Key.space	n/a
262.8975	0.06	525795	keystroke_j	j	n/a
263.0475	0.105	526095	keystroke_u	u	n/a
263.1675	0.09	526335	keystroke_i	i	n/a
263.2875	0.1045	526575	keystroke_c	c	n/a
263.3625	0.0895	526725	keystroke_e	e	n/a
263.467	0.075	526934	keystroke_Key.space	Key.space	n/a
263.632	0.045	527264	keystroke_m	m	n/a
263.8115	0.045	527623	keystroke_o	o	n/a
264.3365	0.0605	528673	keystroke_l	l	n/a
264.442	0.09	528884	keystroke_e	e	n/a
264.637	0.09	529274	keystroke_c	c	n/a
264.712	0.045	529424	keystroke_u	u	n/a
264.892	0.075	529784	keystroke_l	l	n/a
264.952	0.06	529904	keystroke_e	e	n/a
265.1165	0.045	530233	keystroke_s	s	n/a
265.207	0.06	530414	keystroke_Key.enter	Key.enter	n/a
265.2725	4.3015	530545	prompt	n/a	contacting week charts hottest\n
265.9575	0.075	531915	keystroke_c	c	n/a
266.0625	0.045	532125	keystroke_o	o	n/a
266.1975	0.075	532395	keystroke_n	n	n/a
266.2575	0.105	532515	keystroke_t	t	n/a
266.3775	0.06	532755	keystroke_a	a	n/a
266.5125	0.075	533025	keystroke_c	c	n/a
266.7225	0.09	533445	keystroke_t	t	n/a
266.7825	0.045	533565	keystroke_i	i	n/a
266.9025	0.09	533805	keystroke_n	n	n/a
266.9775	0.09	533955	keystroke_g	g	n/a
267.0825	0.105	534165	keystroke_Key.space	Key.space	n/a
267.1725	0.0895	534345	keystroke_w	w	n/a
267.2325	0.075	534465	keystroke_e	e	n/a
267.3675	0.105	534735	keystroke_e	e	n/a
267.442	0.0905	534884	keystroke_k	k	n/a
267.4875	0.105	534975	keystroke_Key.space	Key.space	n/a
267.6075	0.06	535215	keystroke_c	c	n/a
267.697	0.0905	535394	keystroke_h	h	n/a
267.742	0.1055	535484	keystroke_a	a	n/a
267.8175	0.075	535635	keystroke_r	r	n/a
268.3575	0.06	536715	keystroke_t	t	n/a
268.537	0.09	537074	keystroke_s	s	n/a
268.612	0.105	537224	keystroke_Key.space	Key.space	n/a
268.702	0.09	537404	keystroke_h	h	n/a
268.762	0.09	537524	keystroke_o	o	n/a
268.822	0.045	537644	keystroke_t	t	n/a
268.9575	0.0595	537915	keystroke_t	t	n/a
269.092	0.075	538184	keystroke_e	e	n/a
269.257	0.06	538514	keystroke_s	s	n/a
269.407	0.1045	538814	keystroke_t	t	n/a
269.482	0.0895	538964	keystroke_Key.enter	Key.enter	n/a
269.5775	5.336	539155	prompt	n/a	lexmark contributing resolutions enemy\n
270.2775	0.09	540555	keystroke_l	l	n/a
270.3225	0.09	540645	keystroke_e	e	n/a
270.5625	0.105	541125	keystroke_x	x	n/a
270.6825	0.09	541365	keystroke_m	m	n/a
270.7875	0.105	541575	keystroke_a	a	n/a
270.8475	0.09	541695	keystroke_r	r	n/a
270.9075	0.12	541815	keystroke_k	k	n/a
270.9825	0.105	541965	keystroke_Key.space	Key.space	n/a
271.1025	0.06	542205	keystroke_c	c	n/a
271.1775	0.0595	542355	keystroke_o	o	n/a
271.312	0.09	542624	keystroke_n	n	n/a
271.357	0.06	542714	keystroke_t	t	n/a
271.492	0.075	542984	keystroke_r	r	n/a
271.582	0.075	543164	keystroke_i	i	n/a
271.7175	0.06	543435	keystroke_b	b	n/a
271.7925	0.075	543585	keystroke_u	u	n/a
271.9275	0.09	543855	keystroke_t	t	n/a
271.9725	0.075	543945	keystroke_i	i	n/a
272.1375	0.045	544275	keystroke_n	n	n/a
272.1975	0.059	544395	keystroke_g	g	n/a
272.3025	0.09	544605	keystroke_Key.space	Key.space	n/a
272.5275	0.105	545055	keystroke_r	r	n/a
272.6175	0.045	545235	keystroke_e	e	n/a
272.977	0.06	545954	keystroke_s	s	n/a
273.052	0.09	546104	keystroke_o	o	n/a
273.232	0.045	546464	keystroke_l	l	n/a
273.397	0.06	546794	keystroke_u	u	n/a
273.472	0.105	546944	keystroke_t	t	n/a
273.592	0.12	547184	keystroke_i	i	n/a
273.667	0.09	547334	keystroke_o	o	n/a
273.817	0.06	547634	keystroke_n	n	n/a
273.922	0.075	547844	keystroke_s	s	n/a
274.027	0.075	548054	keystroke_Key.space	Key.space	n/a
274.117	0.09	548234	keystroke_e	e	n/a
274.222	0.0605	548444	keystroke_n	n	n/a
274.2975	0.06	548595	keystroke_e	e	n/a
274.4175	0.06	548835	keystroke_m	m	n/a
274.6425	0.075	549285	keystroke_y	y	n/a
274.8075	0.105	549615	keystroke_Key.enter	Key.enter	n/a
274.92	5.169	549840	prompt	n/a	immune regression reads comfortable\n
275.5125	0.06	551025	keystroke_i	i	n/a
275.7075	0.045	551415	keystroke_m	m	n/a
275.8425	0.045	551685	keystroke_m	m	n/a
276.0225	0.06	552045	keystroke_u	u	n/a
276.3675	0.075	552735	keystroke_n	n	n/a
276.5775	0.075	553155	keystroke_e	e	n/a
276.6825	0.09	553365	keystroke_Key.space	Key.space	n/a
276.7875	0.075	553575	keystroke_r	r	n/a
276.8325	0.075	553665	keystroke_e	e	n/a
276.9825	0.06	553965	keystroke_g	g	n/a
277.1325	0.09	554265	keystroke_r	r	n/a
277.2075	0.045	554415	keystroke_e	e	n/a
277.3725	0.03	554745	keystroke_s	s	n/a
277.5225	0.06	555045	keystroke_s	s	n/a
277.5975	0.0745	555195	keystroke_i	i	n/a
277.657	0.06	555314	keystroke_o	o	n/a
277.792	0.09	555584	keystroke_n	n	n/a
277.852	0.105	555704	keystroke_Key.space	Key.space	n/a
277.942	0.075	555884	keystroke_r	r	n/a
277.972	0.105	555944	keystroke_e	e	n/a
278.122	0.09	556244	keystroke_a	a	n/a
278.302	0.09	556604	keystroke_d	d	n/a
278.422	0.03	556844	keystroke_s	s	n/a
278.437	0.105	556874	keystroke_Key.space	Key.space	n/a
278.872	0.06	557744	keystroke_c	c	n/a
278.917	0.045	557834	keystroke_o	o	n/a
279.067	0.045	558134	keystroke_m	m	n/a
279.142	0.075	558284	keystroke_f	f	n/a
279.232	0.09	558464	keystroke_o	o	n/a
279.337	0.015	558674	keystroke_r	r	n/a
279.442	0.09	558884	keystroke_t	t	n/a
279.502	0.09	559004	keystroke_a	a	n/a
279.577	0.03	559154	keystroke_b	b	n/a
279.727	0.09	559454	keystroke_l	l	n/a
279.802	0.06	559604	keystroke_e	e	n/a
279.997	0.09	559994	keystroke_Key.enter	Key.enter	n/a
280.0935	5.9355	560187	prompt	n/a	encouraged radio configuration responses\n
280.672	0.105	561344	keystroke_e	e	n/a
280.972	0.06	561944	keystroke_n	n	n/a
281.107	0.075	562214	keystroke_c	c	n/a
281.167	0.105	562334	keystroke_o	o	n/a
281.242	0.09	562484	keystroke_u	u	n/a
281.347	0.105	562694	keystroke_r	r	n/a
281.422	0.105	562844	keystroke_a	a	n/a
281.587	0.105	563174	keystroke_g	g	n/a
281.662	0.09	563324	keystroke_e	e	n/a
281.947	0.105	563894	keystroke_Key.space	Key.space	n/a
282.352	0.075	564704	keystroke_Key.backspace	Key.backspace	n/a
282.472	0.075	564944	keystroke_d	d	n/a
282.562	0.075	565124	keystroke_Key.space	Key.space	n/a
282.682	0.09	565364	keystroke_r	r	n/a
282.742	0.09	565484	keystroke_a	a	n/a
282.922	0.09	565844	keystroke_d	d	n/a
282.997	0.105	565994	keystroke_i	i	n/a
283.057	0.105	566114	keystroke_o	o	n/a
283.132	0.09	566264	keystroke_Key.space	Key.space	n/a
283.237	0.075	566474	keystroke_c	c	n/a
283.313	0.0595	566626	keystroke_o	o	n/a
283.4325	0.045	566865	keystroke_n	n	n/a
283.8225	0.075	567645	keystroke_f	f	n/a
283.8975	0.075	567795	keystroke_i	i	n/a
284.0175	0.075	568035	keystroke_g	g	n/a
284.1075	0.075	568215	keystroke_u	u	n/a
284.2275	0.105	568455	keystroke_r	r	n/a
284.3175	0.089	568635	keystroke_a	a	n/a
284.4365	0.105	568873	keystroke_t	t	n/a
284.4975	0.12	568995	keystroke_i	i	n/a
284.5875	0.045	569175	keystroke_o	o	n/a
284.6925	0.09	569385	keystroke_n	n	n/a
284.7675	0.089	569535	keystroke_Key.space	Key.space	n/a
284.8115	0.09	569623	keystroke_r	r	n/a
284.8725	0.059	569745	keystroke_e	e	n/a
285.0065	0.105	570013	keystroke_s	s	n/a
285.0815	0.075	570163	keystroke_p	p	n/a
285.1275	0.045	570255	keystroke_o	o	n/a
285.2775	0.06	570555	keystroke_n	n	n/a
285.3225	0.059	570645	keystroke_s	s	n/a
285.4875	0.059	570975	keystroke_e	e	n/a
285.6665	0.076	571333	keystroke_s	s	n/a
285.9365	0.091	571873	keystroke_Key.enter	Key.enter	n/a
286.0325	4.647	572065	prompt	n/a	receipt dress circuits judges\n
286.6875	0.12	573375	keystroke_r	r	n/a
286.7625	0.09	573525	keystroke_e	e	n/a
287.2125	0.105	574425	keystroke_c	c	n/a
287.3025	0.09	574605	keystroke_e	e	n/a
287.6175	0.075	575235	keystroke_i	i	n/a
287.7525	0.075	575505	keystroke_p	p	n/a
287.8425	0.045	575685	keystroke_t	t	n/a
287.9325	0.09	575865	keystroke_Key.space	Key.space	n/a
288.0375	0.045	576075	keystroke_d	d	n/a
288.187	0.105	576374	keystroke_r	r	n/a
288.247	0.075	576494	keystroke_e	e	n/a
288.4275	0.045	576855	keystroke_s	s	n/a
288.5625	0.09	577125	keystroke_s	s	n/a
288.6375	0.104	577275	keystroke_Key.space	Key.space	n/a
288.7125	0.059	577425	keystroke_c	c	n/a
288.8165	0.075	577633	keystroke_i	i	n/a
288.8765	0.0605	577753	keystroke_r	r	n/a
289.057	0.06	578114	keystroke_c	c	n/a
289.132	0.09	578264	keystroke_u	u	n/a
289.297	0.09	578594	keystroke_i	i	n/a
289.372	0.0605	578744	keystroke_t	t	n/a
289.5825	0.06	579165	keystroke_s	s	n/a
289.7175	0.06	579435	keystroke_Key.space	Key.space	n/a
289.8375	0.045	579675	keystroke_j	j	n/a
289.9575	0.09	579915	keystroke_u	u	n/a
290.0325	0.075	580065	keystroke_d	d	n/a
290.1975	0.075	580395	keystroke_g	g	n/a
290.3325	0.075	580665	keystroke_e	e	n/a
290.4825	0.105	580965	keystroke_s	s	n/a
290.5875	0.09	581175	keystroke_Key.enter	Key.enter	n/a
290.683	6.6445	581366	prompt	n/a	anonymous philadelphia males dimensional\n
291.4425	0.075	582885	keystroke_a	a	n/a
291.5325	0.06	583065	keystroke_n	n	n/a
291.6825	0.045	583365	keystroke_o	o	n/a
291.8025	0.075	583605	keystroke_n	n	n/a
291.982	0.09	583964	keystroke_y	y	n/a
292.207	0.06	584414	keystroke_m	m	n/a
292.387	0.1345	584774	keystroke_o	o	n/a
292.447	0.1045	584894	keystroke_u	u	n/a
292.5365	0.105	585073	keystroke_s	s	n/a
292.6265	0.12	585253	keystroke_Key.space	Key.space	n/a
292.7025	0.105	585405	keystroke_p	p	n/a
292.8525	0.044	585705	keystroke_h	h	n/a
293.167	0.015	586334	keystroke_l	l	n/a
293.647	0.0755	587294	keystroke_Key.backspace	Key.backspace	n/a
293.8125	0.06	587625	keystroke_i	i	n/a
293.9475	0.09	587895	keystroke_l	l	n/a
294.0675	0.075	588135	keystroke_a	a	n/a
294.2175	0.06	588435	keystroke_d	d	n/a
294.3675	0.06	588735	keystroke_e	e	n/a
294.4425	0.06	588885	keystroke_l	l	n/a
294.6075	0.045	589215	keystroke_p	p	n/a
294.7575	0.075	589515	keystroke_h	h	n/a
294.8775	0.075	589755	keystroke_i	i	n/a
295.0275	0.12	590055	keystroke_a	a	n/a
295.222	0.06	590444	keystroke_Key.space	Key.space	n/a
295.402	0.06	590804	keystroke_m	m	n/a
295.507	0.06	591014	keystroke_a	a	n/a
295.582	0.09	591164	keystroke_l	l	n/a
295.642	0.06	591284	keystroke_e	e	n/a
295.777	0.09	591554	keystroke_s	s	n/a
295.882	0.09	591764	keystroke_Key.space	Key.space	n/a
296.002	0.075	592004	keystroke_d	d	n/a
296.092	0.045	592184	keystroke_i	i	n/a
296.257	0.045	592514	keystroke_m	m	n/a
296.332	0.06	592664	keystroke_e	e	n/a
296.407	0.06	592814	keystroke_n	n	n/a
296.557	0.06	593114	keystroke_s	s	n/a
296.632	0.105	593264	keystroke_i	i	n/a
296.707	0.075	593414	keystroke_o	o	n/a
296.842	0.0605	593684	keystroke_n	n	n/a
296.9475	0.09	593895	keystroke_a	a	n/a
297.0225	0.045	594045	keystroke_l	l	n/a
297.2325	0.09	594465	keystroke_Key.enter	Key.enter	n/a
297.3355	4.833	594671	prompt	n/a	hawaii projects target book\n
298.087	0.09	596174	keystroke_h	h	n/a
298.178	0.059	596356	keystroke_a	a	n/a
298.312	0.12	596624	keystroke_w	w	n/a
298.372	0.135	596744	keystroke_a	a	n/a
298.447	0.061	596894	keystroke_i	i	n/a
298.567	0.09	597134	keystroke_i	i	n/a
298.657	0.105	597314	keystroke_Key.space	Key.space	n/a
298.777	0.09	597554	keystroke_p	p	n/a
298.957	0.12	597914	keystroke_r	r	n/a
299.092	0.075	598184	keystroke_o	o	n/a
299.272	0.09	598544	keystroke_j	j	n/a
299.377	0.12	598754	keystroke_e	e	n/a
299.572	0.06	599144	keystroke_c	c	n/a
299.782	0.0895	599564	keystroke_t	t	n/a
300.0075	0.104	600015	keystroke_s	s	n/a
300.2015	0.121	600403	keystroke_Key.space	Key.space	n/a
300.5475	0.075	601095	keystroke_t	t	n/a
300.6825	0.09	601365	keystroke_a	a	n/a
300.7425	0.075	601485	keystroke_r	r	n/a
300.9225	0.06	601845	keystroke_g	g	n/a
301.0725	0.075	602145	keystroke_e	e	n/a
301.237	0.075	602474	keystroke_t	t	n/a
301.327	0.06	602654	keystroke_Key.space	Key.space	n/a
301.477	0.06	602954	keystroke_b	b	n/a
301.672	0.03	603344	keystroke_o	o	n/a
301.762	0.06	603524	keystroke_o	o	n/a
301.912	0.06	603824	keystroke_k	k	n/a
302.092	0.075	604184	keystroke_Key.enter	Key.enter	n/a
302.1715	5.1275	604343	prompt	n/a	constructed essays morgan adult\n
302.812	0.09	605624	keystroke_c	c	n/a
302.887	0.06	605774	keystroke_o	o	n/a
303.037	0.0455	606074	keystroke_n	n	n/a
303.1275	0.045	606255	keystroke_s	s	n/a
303.2625	0.075	606525	keystroke_t	t	n/a
303.4275	0.045	606855	keystroke_r	r	n/a
303.5025	0.09	607005	keystroke_u	u	n/a
303.982	0.09	607964	keystroke_c	c	n/a
304.207	0.09	608414	keystroke_t	t	n/a
304.387	0.045	608774	keystroke_e	e	n/a
304.552	0.075	609104	keystroke_d	d	n/a
304.642	0.09	609284	keystroke_Key.space	Key.space	n/a
304.717	0.045	609434	keystroke_e	e	n/a
304.852	0.0905	609704	keystroke_s	s	n/a
304.9575	0.105	609915	keystroke_s	s	n/a
305.542	0.09	611084	keystroke_a	a	n/a
305.647	0.075	611294	keystroke_y	y	n/a
305.737	0.09	611474	keystroke_s	s	n/a
305.842	0.06	611684	keystroke_Key.space	Key.space	n/a
305.992	0.045	611984	keystroke_m	m	n/a
306.142	0.09	612284	keystroke_o	o	n/a
306.217	0.045	612434	keystroke_r	r	n/a
306.382	0.105	612764	keystroke_g	g	n/a
306.472	0.09	612944	keystroke_a	a	n/a
306.517	0.075	613034	keystroke_n	n	n/a
306.577	0.0755	613154	keystroke_Key.space	Key.space	n/a
306.6525	0.075	613305	keystroke_a	a	n/a
306.8175	0.09	613635	keystroke_d	d	n/a
306.8625	0.06	613725	keystroke_u	u	n/a
307.0425	0.06	614085	keystroke_l	l	n/a
307.1175	0.09	614235	keystroke_t	t	n/a
307.2525	0.045	614505	keystroke_Key.enter	Key.enter	n/a
307.302	5.052	614604	prompt	n/a	reductions norwegian reviews hats\n
307.9275	0.09	615855	keystroke_r	r	n/a
307.9875	0.045	615975	keystroke_e	e	n/a
308.167	0.06	616334	keystroke_d	d	n/a
308.212	0.075	616424	keystroke_u	u	n/a
308.377	0.075	616754	keystroke_c	c	n/a
308.587	0.06	617174	keystroke_t	t	n/a
308.632	0.09	617264	keystroke_i	i	n/a
308.692	0.06	617384	keystroke_o	o	n/a
308.842	0.06	617684	keystroke_n	n	n/a
308.917	0.09	617834	keystroke_s	s	n/a
308.992	0.09	617984	keystroke_Key.space	Key.space	n/a
309.083	0.104	618166	keystroke_n	n	n/a
309.157	0.075	618314	keystroke_o	o	n/a
309.247	0.06	618494	keystroke_r	r	n/a
309.427	0.075	618854	keystroke_w	w	n/a
309.892	0.06	619784	keystroke_e	e	n/a
310.102	0.061	620204	keystroke_g	g	n/a
310.537	0.075	621074	keystroke_i	i	n/a
310.672	0.0905	621344	keystroke_a	a	n/a
310.7475	0.09	621495	keystroke_n	n	n/a
310.8225	0.09	621645	keystroke_Key.space	Key.space	n/a
310.9275	0.1045	621855	keystroke_r	r	n/a
310.9725	0.1045	621945	keystroke_e	e	n/a
311.182	0.075	622364	keystroke_v	v	n/a
311.272	0.045	622544	keystroke_i	i	n/a
311.377	0.12	622754	keystroke_e	e	n/a
311.452	0.09	622904	keystroke_w	w	n/a
311.647	0.0905	623294	keystroke_s	s	n/a
311.7525	0.09	623505	keystroke_Key.space	Key.space	n/a
311.8275	0.06	623655	keystroke_h	h	n/a
311.9025	0.06	623805	keystroke_a	a	n/a
312.0075	0.075	624015	keystroke_t	t	n/a
312.1725	0.09	624345	keystroke_s	s	n/a
312.2775	0.075	624555	keystroke_Key.enter	Key.enter	n/a
312.357	5.982	624714	prompt	n/a	journals globe continuously orleans\n
313.0275	0.075	626055	keystroke_j	j	n/a
313.2075	0.12	626415	keystroke_o	o	n/a
313.2365	0.106	626473	keystroke_u	u	n/a
313.3875	0.0895	626775	keystroke_r	r	n/a
313.492	0.06	626984	keystroke_n	n	n/a
313.627	0.045	627254	keystroke_a	a	n/a
313.687	0.075	627374	keystroke_l	l	n/a
313.807	0.015	627614	keystroke_s	s	n/a
313.882	0.075	627764	keystroke_Key.space	Key.space	n/a
314.017	0.09	628034	keystroke_g	g	n/a
314.137	0.015	628274	keystroke_l	l	n/a
314.317	0.015	628634	keystroke_o	o	n/a
314.4675	0.045	628935	keystroke_b	b	n/a
314.5425	0.09	629085	keystroke_e	e	n/a
314.7375	0.105	629475	keystroke_Key.space	Key.space	n/a
314.9175	0.06	629835	keystroke_c	c	n/a
315.1425	0.045	630285	keystroke_o	o	n/a
315.307	0.03	630614	keystroke_n	n	n/a
315.502	0.075	631004	keystroke_t	t	n/a
315.5925	0.0295	631185	keystroke_i	i	n/a
315.7425	0.06	631485	keystroke_n	n	n/a
315.9375	0.075	631875	keystroke_u	u	n/a
316.6125	0.15	633225	keystroke_o	o	n/a
316.6725	0.09	633345	keystroke_u	u	n/a
316.7775	0.09	633555	keystroke_s	s	n/a
316.9275	0.06	633855	keystroke_l	l	n/a
317.1525	0.09	634305	keystroke_y	y	n/a
317.2125	0.09	634425	keystroke_Key.space	Key.space	n/a
317.3925	0.075	634785	keystroke_o	o	n/a
317.5725	0.06	635145	keystroke_r	r	n/a
317.752	0.06	635504	keystroke_l	l	n/a
317.827	0.09	635654	keystroke_e	e	n/a
317.947	0.09	635894	keystroke_a	a	n/a
318.038	0.074	636076	keystroke_n	n	n/a
318.127	0.09	636254	keystroke_s	s	n/a
318.262	0.075	636524	keystroke_Key.enter	Key.enter	n/a
318.342	3.597	636684	prompt	n/a	fact loss september runs\n
319.132	0.15	638264	keystroke_f	f	n/a
319.2525	0.1045	638505	keystroke_a	a	n/a
319.417	0.06	638834	keystroke_c	c	n/a
319.628	0.075	639256	keystroke_t	t	n/a
319.703	0.1345	639406	keystroke_Key.space	Key.space	n/a
319.8225	0.075	639645	keystroke_l	l	n/a
319.9425	0.09	639885	keystroke_o	o	n/a
320.0025	0.075	640005	keystroke_s	s	n/a
320.1675	0.075	640335	keystroke_s	s	n/a
320.2575	0.0895	640515	keystroke_Key.space	Key.space	n/a
320.317	0.1355	640634	keystroke_s	s	n/a
320.572	0.09	641144	keystroke_e	e	n/a
320.707	0.045	641414	keystroke_p	p	n/a
320.767	0.06	641534	keystroke_t	t	n/a
320.902	0.09	641804	keystroke_e	e	n/a
320.962	0.075	641924	keystroke_m	m	n/a
321.127	0.075	642254	keystroke_b	b	n/a
321.187	0.075	642374	keystroke_e	e	n/a
321.247	0.075	642494	keystroke_r	r	n/a
321.337	0.09	642674	keystroke_Key.space	Key.space	n/a
321.412	0.09	642824	keystroke_r	r	n/a
321.517	0.045	643034	keystroke_u	u	n/a
321.667	0.06	643334	keystroke_n	n	n/a
321.742	0.075	643484	keystroke_s	s	n/a
321.862	0.075	643724	keystroke_Key.enter	Key.enter	n/a
321.9435	4.0305	643887	prompt	n/a	aerial real tanks sounds\n
322.657	0.09	645314	keystroke_a	a	n/a
322.852	0.045	645704	keystroke_r	r	n/a
323.332	0.075	646664	keystroke_Key.backspace	Key.backspace	n/a
323.587	0.075	647174	keystroke_e	e	n/a
323.782	0.09	647564	keystroke_r	r	n/a
323.842	0.06	647684	keystroke_i	i	n/a
323.992	0.12	647984	keystroke_a	a	n/a
324.067	0.12	648134	keystroke_l	l	n/a
324.157	0.09	648314	keystroke_Key.space	Key.space	n/a
324.232	0.09	648464	keystroke_r	r	n/a
324.292	0.1205	648584	keystroke_e	e	n/a
324.4125	0.105	648825	keystroke_a	a	n/a
324.5025	0.135	649005	keystroke_l	l	n/a
324.5775	0.09	649155	keystroke_Key.space	Key.space	n/a
324.6825	0.075	649365	keystroke_t	t	n/a
324.7725	0.135	649545	keystroke_a	a	n/a
324.8925	0.15	649785	keystroke_n	n	n/a
324.9825	0.105	649965	keystroke_k	k	n/a
325.0875	0.06	650175	keystroke_s	s	n/a
325.1925	0.075	650385	keystroke_Key.space	Key.space	n/a
325.2975	0.075	650595	keystroke_s	s	n/a
325.3875	0.09	650775	keystroke_o	o	n/a
325.4175	0.105	650835	keystroke_u	u	n/a
325.5975	0.06	651195	keystroke_n	n	n/a
325.6725	0.1345	651345	keystroke_d	d	n/a
325.747	0.12	651494	keystroke_s	s	n/a
325.882	0.09	651764	keystroke_Key.enter	Key.enter	n/a
325.9765	5.0975	651953	prompt	n/a	available reliance shades plastic\n
326.6625	0.06	653325	keystroke_a	a	n/a
326.9475	0.105	653895	keystroke_v	v	n/a
327.142	0.106	654284	keystroke_a	a	n/a
327.262	0.09	654524	keystroke_i	i	n/a
327.443	0.09	654886	keystroke_l	l	n/a
327.578	0.09	655156	keystroke_a	a	n/a
327.713	0.044	655426	keystroke_b	b	n/a
327.8925	0.075	655785	keystroke_l	l	n/a
327.9825	0.09	655965	keystroke_e	e	n/a
328.1025	0.075	656205	keystroke_Key.space	Key.space	n/a
328.2825	0.105	656565	keystroke_r	r	n/a
328.3575	0.075	656715	keystroke_e	e	n/a
328.477	0.045	656954	keystroke_l	l	n/a
328.672	0.06	657344	keystroke_i	i	n/a
328.777	0.091	657554	keystroke_a	a	n/a
328.913	0.044	657826	keystroke_n	n	n/a
329.018	0.15	658036	keystroke_c	c	n/a
329.092	0.09	658184	keystroke_e	e	n/a
329.197	0.075	658394	keystroke_Key.space	Key.space	n/a
329.302	0.06	658604	keystroke_s	s	n/a
329.393	0.029	658786	keystroke_h	h	n/a
329.467	0.061	658934	keystroke_a	a	n/a
329.617	0.06	659234	keystroke_d	d	n/a
329.782	0.031	659564	keystroke_e	e	n/a
329.9175	0.105	659835	keystroke_s	s	n/a
329.9925	0.105	659985	keystroke_Key.space	Key.space	n/a
330.1125	0.03	660225	keystroke_p	p	n/a
330.2475	0.0745	660495	keystroke_l	l	n/a
330.307	0.075	660614	keystroke_a	a	n/a
330.472	0.075	660944	keystroke_s	s	n/a
330.652	0.075	661304	keystroke_t	t	n/a
330.772	0.03	661544	keystroke_i	i	n/a
330.862	0.105	661724	keystroke_c	c	n/a
330.9825	0.09	661965	keystroke_Key.enter	Key.enter	n/a
331.077	4.062	662154	prompt	n/a	swift austin services mailman\n
331.658	0.074	663316	keystroke_s	s	n/a
331.837	0.091	663674	keystroke_w	w	n/a
331.943	0.074	663886	keystroke_i	i	n/a
332.003	0.075	664006	keystroke_f	f	n/a
332.168	0.09	664336	keystroke_t	t	n/a
332.273	0.059	664546	keystroke_Key.space	Key.space	n/a
332.348	0.06	664696	keystroke_a	a	n/a
332.453	0.044	664906	keystroke_u	u	n/a
332.512	0.06	665024	keystroke_s	s	n/a
332.692	0.1055	665384	keystroke_t	t	n/a
332.722	0.06	665444	keystroke_i	i	n/a
332.872	0.0905	665744	keystroke_n	n	n/a
332.9325	0.0895	665865	keystroke_Key.space	Key.space	n/a
332.9925	0.0445	665985	keystroke_s	s	n/a
333.1275	0.09	666255	keystroke_e	e	n/a
333.187	0.0605	666374	keystroke_r	r	n/a
333.3675	0.0905	666735	keystroke_v	v	n/a
333.473	0.045	666946	keystroke_i	i	n/a
333.623	0.09	667246	keystroke_c	c	n/a
333.848	0.075	667696	keystroke_e	e	n/a
334.043	0.09	668086	keystroke_s	s	n/a
334.118	0.074	668236	keystroke_Key.space	Key.space	n/a
334.253	0.075	668506	keystroke_m	m	n/a
334.358	0.075	668716	keystroke_a	a	n/a
334.447	0.076	668894	keystroke_i	i	n/a
334.628	0.06	669256	keystroke_l	l	n/a
334.763	0.075	669526	keystroke_m	m	n/a
334.868	0.09	669736	keystroke_a	a	n/a
334.927	0.06	669854	keystroke_n	n	n/a
335.063	0.074	670126	keystroke_Key.enter	Key.enter	n/a
335.1435	4.7505	670287	prompt	n/a	honors timothy oxford memory\n
335.753	0.075	671506	keystroke_h	h	n/a
335.873	0.09	671746	keystroke_o	o	n/a
336.008	0.075	672016	keystroke_n	n	n/a
336.098	0.12	672196	keystroke_o	o	n/a
336.128	0.06	672256	keystroke_r	r	n/a
336.278	0.09	672556	keystroke_s	s	n/a
336.368	0.12	672736	keystroke_Key.space	Key.space	n/a
336.503	0.075	673006	keystroke_t	t	n/a
336.6675	0.045	673335	keystroke_i	i	n/a
336.8325	0.075	673665	keystroke_m	m	n/a
336.983	0.105	673966	keystroke_o	o	n/a
337.118	0.075	674236	keystroke_t	t	n/a
337.208	0.044	674416	keystroke_h	h	n/a
337.357	0.1055	674714	keystroke_y	y	n/a
337.4175	0.12	674835	keystroke_Key.space	Key.space	n/a
337.852	0.09	675704	keystroke_o	o	n/a
337.927	0.105	675854	keystroke_x	x	n/a
338.392	0.06	676784	keystroke_f	f	n/a
338.467	0.076	676934	keystroke_o	o	n/a
338.557	0.075	677114	keystroke_r	r	n/a
338.992	0.091	677984	keystroke_d	d	n/a
339.067	0.12	678134	keystroke_Key.space	Key.space	n/a
339.173	0.059	678346	keystroke_m	m	n/a
339.262	0.1205	678524	keystroke_e	e	n/a
339.337	0.0905	678674	keystroke_m	m	n/a
339.487	0.0605	678974	keystroke_o	o	n/a
339.562	0.09	679124	keystroke_r	r	n/a
339.667	0.06	679334	keystroke_y	y	n/a
339.802	0.09	679604	keystroke_Key.enter	Key.enter	n/a
339.897	3.687	679794	prompt	n/a	running his victor headlines\n
340.492	0.075	680984	keystroke_r	r	n/a
340.537	0.06	681074	keystroke_u	u	n/a
340.7325	0.03	681465	keystroke_n	n	n/a
340.8375	0.075	681675	keystroke_n	n	n/a
340.9575	0.06	681915	keystroke_i	i	n/a
341.0925	0.075	682185	keystroke_n	n	n/a
341.1525	0.09	682305	keystroke_g	g	n/a
341.2275	0.15	682455	keystroke_Key.space	Key.space	n/a
341.317	0.1055	682634	keystroke_h	h	n/a
341.3785	0.074	682757	keystroke_i	i	n/a
341.4375	0.075	682875	keystroke_s	s	n/a
341.5275	0.075	683055	keystroke_Key.space	Key.space	n/a
341.6175	0.06	683235	keystroke_v	v	n/a
341.6925	0.075	683385	keystroke_i	i	n/a
341.7975	0.045	683595	keystroke_c	c	n/a
342.0525	0.09	684105	keystroke_t	t	n/a
342.1575	0.045	684315	keystroke_o	o	n/a
342.2775	0.0895	684555	keystroke_r	r	n/a
342.383	0.075	684766	keystroke_Key.space	Key.space	n/a
342.533	0.09	685066	keystroke_h	h	n/a
342.608	0.09	685216	keystroke_e	e	n/a
342.713	0.045	685426	keystroke_a	a	n/a
342.832	0.106	685664	keystroke_d	d	n/a
342.908	0.045	685816	keystroke_l	l	n/a
343.042	0.061	686084	keystroke_i	i	n/a
343.193	0.075	686386	keystroke_n	n	n/a
343.208	0.075	686416	keystroke_e	e	n/a
343.402	0.091	686804	keystroke_s	s	n/a
343.507	0.075	687014	keystroke_Key.enter	Key.enter	n/a
343.587	6.117	687174	prompt	n/a	renewable punishment epic gabriel\n
344.287	0.075	688574	keystroke_r	r	n/a
344.377	0.06	688754	keystroke_e	e	n/a
344.4975	0.03	688995	keystroke_n	n	n/a
344.5725	0.09	689145	keystroke_e	e	n/a
344.6775	0.09	689355	keystroke_a	a	n/a
345.487	0.06	690974	keystroke_Key.backspace	Key.backspace	n/a
345.622	0.105	691244	keystroke_w	w	n/a
345.742	0.1055	691484	keystroke_a	a	n/a
346.2525	0.06	692505	keystroke_b	b	n/a
346.4475	0.06	692895	keystroke_l	l	n/a
346.5225	0.075	693045	keystroke_e	e	n/a
346.6125	0.105	693225	keystroke_Key.space	Key.space	n/a
346.7325	0.105	693465	keystroke_p	p	n/a
346.8225	0.09	693645	keystroke_u	u	n/a
347.0325	0.045	694065	keystroke_n	n	n/a
347.1825	0.06	694365	keystroke_i	i	n/a
347.2425	0.105	694485	keystroke_s	s	n/a
347.3325	0.045	694665	keystroke_h	h	n/a
347.5125	0.03	695025	keystroke_m	m	n/a
347.5875	0.075	695175	keystroke_e	e	n/a
347.6775	0.0605	695355	keystroke_n	n	n/a
347.768	0.075	695536	keystroke_t	t	n/a
347.858	0.104	695716	keystroke_Key.space	Key.space	n/a
347.948	0.089	695896	keystroke_e	e	n/a
348.053	0.104	696106	keystroke_p	p	n/a
348.128	0.06	696256	keystroke_i	i	n/a
348.217	0.0755	696434	keystroke_c	c	n/a
348.3225	0.075	696645	keystroke_Key.space	Key.space	n/a
348.4425	0.06	696885	keystroke_g	g	n/a
348.7725	0.09	697545	keystroke_a	a	n/a
349.0425	0.075	698085	keystroke_b	b	n/a
349.1925	0.09	698385	keystroke_r	r	n/a
349.2675	0.06	698535	keystroke_i	i	n/a
349.4025	0.09	698805	keystroke_e	e	n/a
349.4625	0.075	698925	keystroke_l	l	n/a
349.6125	0.09	699225	keystroke_Key.enter	Key.enter	n/a
349.707	4.917	699414	prompt	n/a	medications lexmark tribal websites\n
350.3625	0.06	700725	keystroke_m	m	n/a
350.4075	0.06	700815	keystroke_e	e	n/a
350.5725	0.06	701145	keystroke_d	d	n/a
350.6175	0.09	701235	keystroke_i	i	n/a
350.7375	0.105	701475	keystroke_c	c	n/a
350.8125	0.105	701625	keystroke_a	a	n/a
350.9785	0.074	701957	keystroke_t	t	n/a
351.0375	0.06	702075	keystroke_i	i	n/a
351.0675	0.075	702135	keystroke_o	o	n/a
351.218	0.06	702436	keystroke_n	n	n/a
351.293	0.089	702586	keystroke_s	s	n/a
351.353	0.119	702706	keystroke_Key.space	Key.space	n/a
351.413	0.12	702826	keystroke_l	l	n/a
351.488	0.06	702976	keystroke_e	e	n/a
351.698	0.09	703396	keystroke_x	x	n/a
351.832	0.061	703664	keystroke_m	m	n/a
351.908	0.105	703816	keystroke_a	a	n/a
351.968	0.105	703936	keystroke_r	r	n/a
352.058	0.09	704116	keystroke_k	k	n/a
352.103	0.105	704206	keystroke_Key.space	Key.space	n/a
352.193	0.09	704386	keystroke_t	t	n/a
352.343	0.075	704686	keystroke_r	r	n/a
352.388	0.0595	704776	keystroke_i	i	n/a
352.537	0.06	705074	keystroke_b	b	n/a
352.702	0.105	705404	keystroke_a	a	n/a
352.792	0.06	705584	keystroke_l	l	n/a
352.867	0.075	705734	keystroke_Key.space	Key.space	n/a
353.0175	0.1055	706035	keystroke_w	w	n/a
353.078	0.0895	706156	keystroke_e	e	n/a
353.2125	0.075	706425	keystroke_b	b	n/a
353.618	0.075	707236	keystroke_s	s	n/a
353.7375	0.09	707475	keystroke_i	i	n/a
353.8425	0.06	707685	keystroke_t	t	n/a
353.9925	0.06	707985	keystroke_e	e	n/a
354.3525	0.15	708705	keystroke_s	s	n/a
354.5625	0.06	709125	keystroke_Key.enter	Key.enter	n/a
354.627	8.892	709254	prompt	n/a	struck assumed closest calculated\n
355.4925	0.045	710985	keystroke_t	t	n/a
355.8975	0.075	711795	keystroke_Key.backspace	Key.backspace	n/a
355.9735	0.074	711947	keystroke_s	s	n/a
356.1525	0.075	712305	keystroke_t	t	n/a
356.3025	0.06	712605	keystroke_r	r	n/a
356.3635	0.059	712727	keystroke_u	u	n/a
356.4975	0.105	712995	keystroke_c	c	n/a
356.5875	0.06	713175	keystroke_k	k	n/a
356.6325	0.105	713265	keystroke_Key.space	Key.space	n/a
356.7385	0.029	713477	keystroke_a	a	n/a
356.8725	0.06	713745	keystroke_s	s	n/a
356.9925	0.0905	713985	keystroke_s	s	n/a
357.0675	0.0455	714135	keystroke_u	u	n/a
357.2475	0.045	714495	keystroke_m	m	n/a
357.2925	0.06	714585	keystroke_e	e	n/a
357.5175	0.0895	715035	keystroke_d	d	n/a
357.787	0.09	715574	keystroke_Key.space	Key.space	n/a
357.952	0.1055	715904	keystroke_c	c	n/a
358.0275	0.045	716055	keystroke_o	o	n/a
358.1625	0.045	716325	keystroke_n	n	n/a
358.2375	0.075	716475	keystroke_s	s	n/a
358.3275	0.09	716655	keystroke_l	l	n/a
358.4625	0.0445	716925	keystroke_s	s	n/a
358.627	0.0605	717254	keystroke_e	e	n/a
358.822	0.045	717644	keystroke_t	t	n/a
359.467	0.105	718934	keystroke_Key.backspace	Key.backspace	n/a
359.6475	0.075	719295	keystroke_Key.backspace	Key.backspace	n/a
359.8125	0.0745	719625	keystroke_Key.backspace	Key.backspace	n/a
360.052	0.06	720104	keystroke_Key.backspace	Key.backspace	n/a
360.247	0.06	720494	keystroke_Key.backspace	Key.backspace	n/a
360.427	0.06	720854	keystroke_Key.backspace	Key.backspace	n/a
360.682	0.015	721364	keystroke_Key.backspace	Key.backspace	n/a
360.968	0.044	721936	keystroke_l	l	n/a
361.163	0.075	722326	keystroke_o	o	n/a
361.313	0.074	722626	keystroke_s	s	n/a
361.478	0.059	722956	keystroke_e	e	n/a
361.642	0.075	723284	keystroke_s	s	n/a
361.853	0.06	723706	keystroke_t	t	n/a
361.957	0.105	723914	keystroke_Key.space	Key.space	n/a
362.197	0.061	724394	keystroke_c	c	n/a
362.347	0.106	724694	keystroke_a	a	n/a
362.467	0.076	724934	keystroke_l	l	n/a
362.5875	0.075	725175	keystroke_c	c	n/a
362.6775	0.045	725355	keystroke_u	u	n/a
362.8425	0.12	725685	keystroke_l	l	n/a
362.9475	0.12	725895	keystroke_a	a	n/a
363.0375	0.12	726075	keystroke_t	t	n/a
363.1725	0.06	726345	keystroke_e	e	n/a
363.322	0.09	726644	keystroke_d	d	n/a
363.487	0.03	726974	keystroke_Key.enter	Key.enter	n/a
363.522	4.6475	727044	prompt	n/a	defence medium murphy budgets\n
364.1625	0.0755	728325	keystroke_d	d	n/a
364.372	0.046	728744	keystroke_e	e	n/a
364.5375	0.09	729075	keystroke_f	f	n/a
364.6425	0.105	729285	keystroke_e	e	n/a
364.8075	0.06	729615	keystroke_n	n	n/a
365.003	0.09	730006	keystroke_c	c	n/a
