onset	duration	sample	value	key	prompt_text
115.099	0.1015	230198	keystroke_j	j	n/a
115.257	0.168	230514	keystroke_s	s	n/a
115.369	0.101	230738	keystroke_e	e	n/a
115.5605	0.079	231121	keystroke_e	e	n/a
115.628	0.1465	231256	keystroke_l	l	n/a
115.729	0.1125	231458	keystroke_y	y	n/a
115.8865	0.1365	231773	keystroke_Key.tab	Key.tab	n/a
116.3595	0.1165	232719	keystroke_Key.down	Key.down	n/a
116.574	0.1	233148	keystroke_Key.down	Key.down	n/a
116.8765	0.015	233753	keystroke_Key.down	Key.down	n/a
117.0455	0.0675	234091	keystroke_Key.enter	Key.enter	n/a
117.376	0.1195	234752	keystroke_Key.tab	Key.tab	n/a
118.002	0.123	236004	keystroke_o	o	n/a
118.0805	0.09	236161	keystroke_n	n	n/a
118.2465	0.1835	236493	keystroke_Key.shift	Key.shift	n/a
118.294	0.1015	236588	keystroke__	_	n/a
118.5305	0.079	237061	keystroke_k	k	n/a
118.609	0.0905	237218	keystroke_e	e	n/a
118.733	0.091	237466	keystroke_y	y	n/a
118.857	0.1235	237714	keystroke_b	b	n/a
118.992	0.135	237984	keystroke_o	o	n/a
119.1155	0.1125	238231	keystroke_a	a	n/a
119.183	0.18	238366	keystroke_r	r	n/a
119.2845	0.1235	238569	keystroke_d	d	n/a
119.3635	0.1455	238727	keystroke_Key.space	Key.space	n/a
119.498	0.112	238996	keystroke_p	p	n/a
119.623	0.0885	239246	keystroke_r	r	n/a
119.7005	0.124	239401	keystroke_o	o	n/a
119.8695	0.146	239739	keystroke_t	t	n/a
120.027	0.079	240054	keystroke_o	o	n/a
120.2295	0.1005	240459	keystroke_c	c	n/a
120.3195	0.112	240639	keystroke_o	o	n/a
120.559	0.143	241118	keystroke_l	l	n/a
120.6115	0.124	241223	keystroke_Key.space	Key.space	n/a
121.253	0.106	242506	keystroke_6	6	n/a
121.399	0.159	242798	keystroke_.	.	n/a
121.658	0.09	243316	keystroke_3	3	n/a
127.766	9.409	255532	prompt	n/a	the quick brown fox jumps over a lazy dog\n
130.208	0.101	260416	keystroke_t	t	n/a
130.358	0.086	260716	keystroke_h	h	n/a
130.4555	0.09	260911	keystroke_e	e	n/a
130.6015	0.1375	261203	keystroke_Key.space	Key.space	n/a
130.907	0.0995	261814	keystroke_q	q	n/a
131.0515	0.1465	262103	keystroke_u	u	n/a
131.119	0.1465	262238	keystroke_i	i	n/a
131.333	0.0785	262666	keystroke_c	c	n/a
131.4905	0.1235	262981	keystroke_k	k	n/a
131.558	0.135	263116	keystroke_Key.space	Key.space	n/a
131.749	0.1015	263498	keystroke_b	b	n/a
131.985	0.1015	263970	keystroke_r	r	n/a
132.076	0.123	264152	keystroke_o	o	n/a
132.2215	0.079	264443	keystroke_w	w	n/a
132.3115	0.135	264623	keystroke_n	n	n/a
132.6265	0.0795	265253	keystroke_f	f	n/a
133.0315	0.1125	266063	keystroke_Key.backspace	Key.backspace	n/a
133.4815	0.135	266963	keystroke_Key.space	Key.space	n/a
133.8565	0.0995	267713	keystroke_f	f	n/a
133.943	0.1015	267886	keystroke_o	o	n/a
134.078	0.1015	268156	keystroke_x	x	n/a
134.1905	0.158	268381	keystroke_Key.space	Key.space	n/a
134.348	0.1015	268696	keystroke_j	j	n/a
134.5505	0.09	269101	keystroke_u	u	n/a
134.753	0.124	269506	keystroke_m	m	n/a
134.843	0.1235	269686	keystroke_p	p	n/a
135.0005	0.124	270001	keystroke_s	s	n/a
135.091	0.168	270182	keystroke_Key.space	Key.space	n/a
135.241	0.1535	270482	keystroke_o	o	n/a
135.4055	0.0565	270811	keystroke_v	v	n/a
135.5515	0.113	271103	keystroke_e	e	n/a
135.6305	0.101	271261	keystroke_r	r	n/a
135.6895	0.11	271379	keystroke_Key.space	Key.space	n/a
135.8445	0.09	271689	keystroke_a	a	n/a
135.935	0.1795	271870	keystroke_Key.space	Key.space	n/a
136.058	0.1465	272116	keystroke_l	l	n/a
136.1705	0.106	272341	keystroke_a	a	n/a
136.4405	0.124	272881	keystroke_z	z	n/a
136.5305	0.1125	273061	keystroke_y	y	n/a
136.591	0.1195	273182	keystroke_Key.space	Key.space	n/a
136.699	0.1015	273398	keystroke_d	d	n/a
136.8115	0.113	273623	keystroke_o	o	n/a
136.9355	0.103	273871	keystroke_g	g	n/a
137.0715	0.1005	274143	keystroke_Key.enter	Key.enter	n/a
137.179	4.072	274358	prompt	n/a	nice divisions profit related\n
137.8695	0.1025	275739	keystroke_n	n	n/a
137.9485	0.1235	275897	keystroke_i	i	n/a
138.0605	0.079	276121	keystroke_c	c	n/a
138.2635	0.0445	276527	keystroke_e	e	n/a
138.376	0.148	276752	keystroke_Key.space	Key.space	n/a
138.533	0.079	277066	keystroke_d	d	n/a
138.612	0.09	277224	keystroke_i	i	n/a
138.7355	0.1465	277471	keystroke_v	v	n/a
138.8715	0.0555	277743	keystroke_i	i	n/a
138.983	0.135	277966	keystroke_s	s	n/a
139.1295	0.2275	278259	keystroke_i	i	n/a
139.2195	0.1715	278439	keystroke_o	o	n/a
139.291	0.1195	278582	keystroke_n	n	n/a
139.3995	0.101	278799	keystroke_s	s	n/a
139.478	0.18	278956	keystroke_Key.space	Key.space	n/a
139.568	0.1125	279136	keystroke_p	p	n/a
139.693	0.1	279386	keystroke_r	r	n/a
139.805	0.101	279610	keystroke_o	o	n/a
139.9285	0.101	279857	keystroke_f	f	n/a
140.018	0.101	280036	keystroke_i	i	n/a
140.1555	0.0545	280311	keystroke_t	t	n/a
140.21	0.1455	280420	keystroke_Key.space	Key.space	n/a
140.367	0.101	280734	keystroke_r	r	n/a
140.4345	0.0905	280869	keystroke_e	e	n/a
140.575	0.13	281150	keystroke_l	l	n/a
140.648	0.127	281296	keystroke_a	a	n/a
140.741	0.1095	281482	keystroke_t	t	n/a
140.806	0.101	281612	keystroke_e	e	n/a
141.0195	0.1025	282039	keystroke_d	d	n/a
141.132	0.1125	282264	keystroke_Key.enter	Key.enter	n/a
141.2525	4.1785	282505	prompt	n/a	univ ride inventory foods\n
141.908	0.0675	283816	keystroke_u	u	n/a
142.0995	0.09	284199	keystroke_n	n	n/a
142.178	0.116	284356	keystroke_i	i	n/a
142.294	0.098	284588	keystroke_v	v	n/a
142.3815	0.16	284763	keystroke_Key.space	Key.space	n/a
142.527	0.1145	285054	keystroke_r	r	n/a
142.63	0.099	285260	keystroke_i	i	n/a
142.7185	0.101	285437	keystroke_d	d	n/a
142.91	0.102	285820	keystroke_e	e	n/a
142.9995	0.1125	285999	keystroke_Key.space	Key.space	n/a
143.079	0.168	286158	keystroke_i	i	n/a
143.1685	0.146	286337	keystroke_n	n	n/a
143.2695	0.079	286539	keystroke_v	v	n/a
143.382	0.1125	286764	keystroke_e	e	n/a
143.506	0.1125	287012	keystroke_n	n	n/a
143.629	0.068	287258	keystroke_s	s	n/a
143.99	0.067	287980	keystroke_Key.backspace	Key.backspace	n/a
144.1475	0.1475	288295	keystroke_t	t	n/a
144.282	0.09	288564	keystroke_o	o	n/a
144.419	0.1105	288838	keystroke_r	r	n/a
144.518	0.1385	289036	keystroke_y	y	n/a
144.608	0.09	289216	keystroke_Key.space	Key.space	n/a
144.7215	0.089	289443	keystroke_f	f	n/a
144.822	0.069	289644	keystroke_o	o	n/a
145.013	0.092	290026	keystroke_o	o	n/a
145.1045	0.1675	290209	keystroke_d	d	n/a
145.2155	0.1265	290431	keystroke_s	s	n/a
145.328	0.1015	290656	keystroke_Key.enter	Key.enter	n/a
145.435	5.7785	290870	prompt	n/a	antigua depth adipex adequate\n
146.172	0.135	292344	keystroke_a	a	n/a
146.352	0.1045	292704	keystroke_n	n	n/a
146.4755	0.1155	292951	keystroke_t	t	n/a
146.5995	0.101	293199	keystroke_i	i	n/a
146.802	0.0675	293604	keystroke_g	g	n/a
146.9595	0.1015	293919	keystroke_u	u	n/a
147.2745	0.135	294549	keystroke_a	a	n/a
147.423	0.1105	294846	keystroke_Key.space	Key.space	n/a
147.59	0.0895	295180	keystroke_d	d	n/a
147.792	0.0795	295584	keystroke_e	e	n/a
147.893	0.113	295786	keystroke_p	p	n/a
148.017	0.09	296034	keystroke_t	t	n/a
148.096	0.1515	296192	keystroke_h	h	n/a
148.1855	0.1465	296371	keystroke_Key.space	Key.space	n/a
148.276	0.0805	296552	keystroke_d	d	n/a
148.6585	0.09	297317	keystroke_Key.backspace	Key.backspace	n/a
148.782	0.135	297564	keystroke_a	a	n/a
148.9735	0.112	297947	keystroke_d	d	n/a
149.0745	0.09	298149	keystroke_i	i	n/a
149.289	0.123	298578	keystroke_p	p	n/a
149.3785	0.101	298757	keystroke_e	e	n/a
149.606	0.087	299212	keystroke_x	x	n/a
149.716	0.157	299432	keystroke_Key.space	Key.space	n/a
149.862	0.124	299724	keystroke_a	a	n/a
149.9635	0.1125	299927	keystroke_d	d	n/a
150.189	0.101	300378	keystroke_e	e	n/a
150.4135	0.0945	300827	keystroke_q	q	n/a
150.541	0.1325	301082	keystroke_u	u	n/a
150.706	0.146	301412	keystroke_a	a	n/a
150.863	0.1465	301726	keystroke_t	t	n/a
150.9645	0.1015	301929	keystroke_e	e	n/a
151.0995	0.1125	302199	keystroke_Key.enter	Key.enter	n/a
151.2185	5.676	302437	prompt	n/a	phases gothic automobile maldives\n
151.9995	0.135	303999	keystroke_p	p	n/a
152.2245	0.115	304449	keystroke_h	h	n/a
152.382	0.18	304764	keystroke_a	a	n/a
152.517	0.1245	305034	keystroke_s	s	n/a
152.6075	0.2355	305215	keystroke_e	e	n/a
152.788	0.1005	305576	keystroke_s	s	n/a
152.8995	0.0785	305799	keystroke_Key.space	Key.space	n/a
153.2145	0.094	306429	keystroke_g	g	n/a
153.3085	0.131	306617	keystroke_o	o	n/a
153.4505	0.1015	306901	keystroke_t	t	n/a
153.541	0.1135	307082	keystroke_h	h	n/a
153.631	0.1235	307262	keystroke_i	i	n/a
153.7435	0.101	307487	keystroke_c	c	n/a
153.856	0.1235	307712	keystroke_Key.space	Key.space	n/a
154.002	0.18	308004	keystroke_a	a	n/a
154.2045	0.1355	308409	keystroke_u	u	n/a
154.3735	0.101	308747	keystroke_t	t	n/a
154.4635	0.113	308927	keystroke_o	o	n/a
154.6995	0.135	309399	keystroke_m	m	n/a
154.846	0.1465	309692	keystroke_o	o	n/a
155.0395	0.11	310079	keystroke_b	b	n/a
155.127	0.214	310254	keystroke_i	i	n/a
155.2845	0.1365	310569	keystroke_l	l	n/a
155.4085	0.09	310817	keystroke_e	e	n/a
155.5095	0.18	311019	keystroke_Key.space	Key.space	n/a
155.622	0.135	311244	keystroke_m	m	n/a
155.7685	0.1575	311537	keystroke_a	a	n/a
155.8245	0.1475	311649	keystroke_l	l	n/a
156.1285	0.157	312257	keystroke_d	d	n/a
156.2745	0.1015	312549	keystroke_i	i	n/a
156.3985	0.1575	312797	keystroke_v	v	n/a
156.5335	0.1685	313067	keystroke_e	e	n/a
156.6235	0.157	313247	keystroke_s	s	n/a
156.7585	0.135	313517	keystroke_Key.enter	Key.enter	n/a
156.8985	5.7995	313797	prompt	n/a	situation petite alternatively engineers\n
157.9845	0.079	315969	keystroke_s	s	n/a
158.0185	0.1125	316037	keystroke_i	i	n/a
158.221	0.135	316442	keystroke_t	t	n/a
158.3225	0.1005	316645	keystroke_u	u	n/a
158.4345	0.1575	316869	keystroke_a	a	n/a
158.525	0.115	317050	keystroke_t	t	n/a
158.6055	0.201	317211	keystroke_i	i	n/a
158.6935	0.1015	317387	keystroke_o	o	n/a
158.7275	0.146	317455	keystroke_n	n	n/a
158.773	0.168	317546	keystroke_Key.space	Key.space	n/a
158.954	0.0665	317908	keystroke_p	p	n/a
158.997	0.1575	317994	keystroke_e	e	n/a
159.1095	0.124	318219	keystroke_t	t	n/a
159.256	0.135	318512	keystroke_i	i	n/a
159.402	0.17	318804	keystroke_t	t	n/a
159.5485	0.135	319097	keystroke_e	e	n/a
159.695	0.1125	319390	keystroke_Key.space	Key.space	n/a
159.921	0.111	319842	keystroke_a	a	n/a
160.167	0.146	320334	keystroke_l	l	n/a
160.302	0.1125	320604	keystroke_t	t	n/a
160.4595	0.148	320919	keystroke_e	e	n/a
160.5605	0.124	321121	keystroke_r	r	n/a
160.696	0.135	321392	keystroke_n	n	n/a
160.808	0.158	321616	keystroke_a	a	n/a
160.888	0.101	321776	keystroke_t	t	n/a
160.977	0.09	321954	keystroke_i	i	n/a
161.112	0.135	322224	keystroke_v	v	n/a
161.1905	0.1195	322381	keystroke_e	e	n/a
161.281	0.1885	322562	keystroke_l	l	n/a
161.3485	0.1235	322697	keystroke_y	y	n/a
161.416	0.092	322832	keystroke_Key.space	Key.space	n/a
161.517	0.1125	323034	keystroke_e	e	n/a
161.641	0.09	323282	keystroke_n	n	n/a
161.742	0.1015	323484	keystroke_g	g	n/a
161.821	0.135	323642	keystroke_i	i	n/a
161.877	0.1465	323754	keystroke_n	n	n/a
161.9895	0.09	323979	keystroke_e	e	n/a
162.1815	0.1005	324363	keystroke_e	e	n/a
162.2485	0.2135	324497	keystroke_r	r	n/a
162.417	0.135	324834	keystroke_s	s	n/a
162.5525	0.135	325105	keystroke_Key.enter	Key.enter	n/a
162.6985	5.0645	325397	prompt	n/a	chassis illness edited rental\n
163.454	0.122	326908	keystroke_c	c	n/a
163.554	0.1235	327108	keystroke_h	h	n/a
163.6885	0.146	327377	keystroke_a	a	n/a
163.756	0.09	327512	keystroke_s	s	n/a
163.9585	0.09	327917	keystroke_s	s	n/a
164.0725	0.0995	328145	keystroke_i	i	n/a
164.1725	0.135	328345	keystroke_s	s	n/a
164.3185	0.102	328637	keystroke_Key.space	Key.space	n/a
164.454	0.1455	328908	keystroke_i	i	n/a
164.577	0.1015	329154	keystroke_l	l	n/a
164.7795	0.0675	329559	keystroke_l	l	n/a
164.926	0.135	329852	keystroke_n	n	n/a
165.016	0.1685	330032	keystroke_e	e	n/a
165.1285	0.1125	330257	keystroke_s	s	n/a
165.355	0.055	330710	keystroke_s	s	n/a
165.421	0.135	330842	keystroke_Key.space	Key.space	n/a
165.556	0.1125	331112	keystroke_e	e	n/a
165.7925	0.1015	331585	keystroke_d	d	n/a
165.939	0.146	331878	keystroke_i	i	n/a
166.0625	0.146	332125	keystroke_t	t	n/a
166.1635	0.096	332327	keystroke_e	e	n/a
166.366	0.0675	332732	keystroke_d	d	n/a
166.4785	0.135	332957	keystroke_Key.space	Key.space	n/a
166.5795	0.158	333159	keystroke_r	r	n/a
166.681	0.1125	333362	keystroke_e	e	n/a
166.782	0.128	333564	keystroke_n	n	n/a
166.895	0.146	333790	keystroke_t	t	n/a
167.052	0.1575	334104	keystroke_a	a	n/a
167.367	0.135	334734	keystroke_l	l	n/a
167.6485	0.113	335297	keystroke_Key.enter	Key.enter	n/a
167.767	6.492	335534	prompt	n/a	voyuer retail expensive solaris\n
168.573	0.1105	337146	keystroke_v	v	n/a
168.751	0.191	337502	keystroke_o	o	n/a
168.8635	0.1125	337727	keystroke_y	y	n/a
169.145	0.1125	338290	keystroke_u	u	n/a
169.28	0.1795	338560	keystroke_e	e	n/a
169.4375	0.135	338875	keystroke_r	r	n/a
169.5725	0.157	339145	keystroke_Key.space	Key.space	n/a
169.787	0.134	339574	keystroke_r	r	n/a
169.9095	0.1465	339819	keystroke_e	e	n/a
170.0785	0.1465	340157	keystroke_t	t	n/a
170.2135	0.124	340427	keystroke_a	a	n/a
170.326	0.135	340652	keystroke_i	i	n/a
170.3935	0.146	340787	keystroke_l	l	n/a
170.6185	0.1575	341237	keystroke_Key.space	Key.space	n/a
170.731	0.0785	341462	keystroke_e	e	n/a
170.9445	0.1595	341889	keystroke_x	x	n/a
171.1135	0.146	342227	keystroke_p	p	n/a
171.327	0.18	342654	keystroke_a	a	n/a
171.5415	0.168	343083	keystroke_n	n	n/a
172.025	0.0785	344050	keystroke_Key.backspace	Key.backspace	n/a
172.2455	0.094	344491	keystroke_Key.backspace	Key.backspace	n/a
172.385	0.137	344770	keystroke_e	e	n/a
172.5765	0.123	345153	keystroke_n	n	n/a
172.711	0.101	345422	keystroke_s	s	n/a
172.824	0.1005	345648	keystroke_i	i	n/a
172.937	0.145	345874	keystroke_v	v	n/a
173.0265	0.1005	346053	keystroke_e	e	n/a
173.1045	0.1575	346209	keystroke_Key.space	Key.space	n/a
173.273	0.1355	346546	keystroke_s	s	n/a
173.397	0.0675	346794	keystroke_o	o	n/a
173.5775	0.1345	347155	keystroke_l	l	n/a
173.667	0.1365	347334	keystroke_a	a	n/a
173.746	0.135	347492	keystroke_r	r	n/a
173.859	0.123	347718	keystroke_i	i	n/a
173.971	0.146	347942	keystroke_s	s	n/a
174.1515	0.106	348303	keystroke_Key.enter	Key.enter	n/a
174.263	5.3345	348526	prompt	n/a	solid exotic naval coordinated\n
174.882	0.135	349764	keystroke_s	s	n/a
174.9725	0.09	349945	keystroke_o	o	n/a
175.197	0.1595	350394	keystroke_l	l	n/a
175.2985	0.1125	350597	keystroke_i	i	n/a
175.389	0.112	350778	keystroke_d	d	n/a
175.5345	0.1575	351069	keystroke_Key.space	Key.space	n/a
175.6135	0.0675	351227	keystroke_e	e	n/a
175.816	0.113	351632	keystroke_x	x	n/a
175.9285	0.135	351857	keystroke_o	o	n/a
176.0975	0.1235	352195	keystroke_t	t	n/a
176.1875	0.112	352375	keystroke_i	i	n/a
176.3445	0.113	352689	keystroke_c	c	n/a
176.4795	0.169	352959	keystroke_Key.space	Key.space	n/a
176.956	0.12	353912	keystroke_n	n	n/a
177.0555	0.1445	354111	keystroke_a	a	n/a
177.189	0.1345	354378	keystroke_v	v	n/a
177.3575	0.1575	354715	keystroke_a	a	n/a
177.4585	0.147	354917	keystroke_l	l	n/a
177.5485	0.1235	355097	keystroke_Key.space	Key.space	n/a
177.6835	0.1125	355367	keystroke_c	c	n/a
177.7845	0.0715	355569	keystroke_o	o	n/a
177.956	0.1105	355912	keystroke_o	o	n/a
178.1	0.09	356200	keystroke_r	r	n/a
178.19	0.135	356380	keystroke_d	d	n/a
178.7865	0.157	357573	keystroke_i	i	n/a
178.856	0.155	357712	keystroke_n	n	n/a
178.9885	0.124	357977	keystroke_a	a	n/a
179.09	0.135	358180	keystroke_t	t	n/a
179.172	0.1	358344	keystroke_e	e	n/a
179.372	0.1005	358744	keystroke_d	d	n/a
179.4835	0.1125	358967	keystroke_Key.enter	Key.enter	n/a
179.601	5.441	359202	prompt	n/a	virtually vertex emerald enhancing\n
180.3385	0.0795	360677	keystroke_v	v	n/a
180.4175	0.1045	360835	keystroke_i	i	n/a
180.5575	0.066	361115	keystroke_r	r	n/a
180.723	0.1005	361446	keystroke_t	t	n/a
180.811	0.101	361622	keystroke_u	u	n/a
180.937	0.11	361874	keystroke_a	a	n/a
181.037	0.0665	362074	keystroke_l	l	n/a
181.2495	0.1465	362499	keystroke_l	l	n/a
181.2835	0.137	362567	keystroke_y	y	n/a
181.351	0.1695	362702	keystroke_Key.space	Key.space	n/a
181.5085	0.068	363017	keystroke_v	v	n/a
181.6545	0.135	363309	keystroke_e	e	n/a
181.756	0.0675	363512	keystroke_r	r	n/a
181.9245	0.124	363849	keystroke_t	t	n/a
181.981	0.09	363962	keystroke_e	e	n/a
182.1945	0.09	364389	keystroke_x	x	n/a
182.321	0.1095	364642	keystroke_Key.space	Key.space	n/a
182.4515	0.0805	364903	keystroke_e	e	n/a
182.543	0.124	365086	keystroke_m	m	n/a
182.656	0.135	365312	keystroke_e	e	n/a
182.736	0.111	365472	keystroke_r	r	n/a
183.1735	0.09	366347	keystroke_a	a	n/a
183.288	0.133	366576	keystroke_l	l	n/a
183.443	0.113	366886	keystroke_d	d	n/a
183.567	0.113	367134	keystroke_Key.space	Key.space	n/a
183.7135	0.1015	367427	keystroke_e	e	n/a
183.8035	0.0785	367607	keystroke_n	n	n/a
184.017	0.1125	368034	keystroke_h	h	n/a
184.1525	0.056	368305	keystroke_a	a	n/a
184.2985	0.135	368597	keystroke_n	n	n/a
184.4785	0.101	368957	keystroke_c	c	n/a
184.591	0.1125	369182	keystroke_i	i	n/a
184.647	0.135	369294	keystroke_n	n	n/a
184.76	0.0895	369520	keystroke_g	g	n/a
184.8945	0.1465	369789	keystroke_Key.enter	Key.enter	n/a
185.045	3.7545	370090	prompt	n/a	zope are ellis summer\n
185.862	0.158	371724	keystroke_z	z	n/a
186.2445	0.158	372489	keystroke_o	o	n/a
186.346	0.146	372692	keystroke_p	p	n/a
186.481	0.101	372962	keystroke_e	e	n/a
186.627	0.146	373254	keystroke_Key.space	Key.space	n/a
186.7285	0.1125	373457	keystroke_a	a	n/a
186.8205	0.144	373641	keystroke_r	r	n/a
186.897	0.1125	373794	keystroke_e	e	n/a
186.9985	0.09	373997	keystroke_Key.space	Key.space	n/a
187.1335	0.1575	374267	keystroke_e	e	n/a
187.3245	0.09	374649	keystroke_l	l	n/a
187.5385	0.1575	375077	keystroke_l	l	n/a
187.6395	0.114	375279	keystroke_i	i	n/a
187.763	0.079	375526	keystroke_s	s	n/a
187.865	0.112	375730	keystroke_Key.space	Key.space	n/a
187.988	0.0905	375976	keystroke_s	s	n/a
188.056	0.0785	376112	keystroke_u	u	n/a
188.27	0.045	376540	keystroke_m	m	n/a
188.416	0.1045	376832	keystroke_m	m	n/a
188.506	0.135	377012	keystroke_e	e	n/a
188.596	0.1125	377192	keystroke_r	r	n/a
188.687	0.111	377374	keystroke_Key.enter	Key.enter	n/a
188.802	4.936	377604	prompt	n/a	specializing hose queries yield\n
189.507	0.114	379014	keystroke_s	s	n/a
189.676	0.146	379352	keystroke_p	p	n/a
189.777	0.09	379554	keystroke_e	e	n/a
190.002	0.09	380004	keystroke_c	c	n/a
190.0695	0.124	380139	keystroke_i	i	n/a
190.216	0.1125	380432	keystroke_a	a	n/a
190.317	0.1575	380634	keystroke_l	l	n/a
190.3965	0.127	380793	keystroke_i	i	n/a
190.532	0.145	381064	keystroke_z	z	n/a
190.632	0.1465	381264	keystroke_i	i	n/a
190.711	0.101	381422	keystroke_n	n	n/a
190.801	0.1125	381602	keystroke_g	g	n/a
190.8795	0.192	381759	keystroke_Key.space	Key.space	n/a
190.947	0.1465	381894	keystroke_h	h	n/a
191.049	0.168	382098	keystroke_o	o	n/a
191.161	0.135	382322	keystroke_s	s	n/a
191.2395	0.081	382479	keystroke_e	e	n/a
191.273	0.148	382546	keystroke_Key.space	Key.space	n/a
191.6445	0.1125	383289	keystroke_q	q	n/a
191.77	0.1335	383540	keystroke_u	u	n/a
191.9485	0.1575	383897	keystroke_e	e	n/a
192.2745	0.1015	384549	keystroke_r	r	n/a
192.4435	0.135	384887	keystroke_i	i	n/a
192.5445	0.1915	385089	keystroke_e	e	n/a
192.6705	0.144	385341	keystroke_s	s	n/a
192.8035	0.0785	385607	keystroke_Key.space	Key.space	n/a
192.927	0.1465	385854	keystroke_y	y	n/a
193.087	0.144	386174	keystroke_i	i	n/a
193.242	0.1015	386484	keystroke_e	e	n/a
193.355	0.1235	386710	keystroke_l	l	n/a
193.467	0.135	386934	keystroke_d	d	n/a
193.647	0.09	387294	keystroke_Key.enter	Key.enter	n/a
193.741	3.991	387482	prompt	n/a	cyber factor told cloud\n
194.5135	0.101	389027	keystroke_c	c	n/a
194.626	0.09	389252	keystroke_y	y	n/a
194.7495	0.1125	389499	keystroke_b	b	n/a
194.9635	0.146	389927	keystroke_e	e	n/a
195.0645	0.1015	390129	keystroke_r	r	n/a
195.1545	0.1575	390309	keystroke_Key.space	Key.space	n/a
195.2785	0.158	390557	keystroke_f	f	n/a
195.4135	0.101	390827	keystroke_a	a	n/a
195.549	0.112	391098	keystroke_c	c	n/a
195.752	0.089	391504	keystroke_t	t	n/a
195.841	0.1125	391682	keystroke_o	o	n/a
195.9645	0.1015	391929	keystroke_r	r	n/a
196.0885	0.1125	392177	keystroke_Key.space	Key.space	n/a
196.237	0.11	392474	keystroke_t	t	n/a
196.302	0.0905	392604	keystroke_o	o	n/a
196.516	0.124	393032	keystroke_l	l	n/a
196.6285	0.092	393257	keystroke_d	d	n/a
196.73	0.1575	393460	keystroke_Key.space	Key.space	n/a
196.876	0.1125	393752	keystroke_c	c	n/a
196.977	0.09	393954	keystroke_l	l	n/a
197.191	0.1575	394382	keystroke_o	o	n/a
197.293	0.135	394586	keystroke_u	u	n/a
197.4275	0.1125	394855	keystroke_d	d	n/a
197.5865	0.1445	395173	keystroke_Key.enter	Key.enter	n/a
197.7355	4.0805	395471	prompt	n/a	profits does attempting parker\n
198.496	0.124	396992	keystroke_p	p	n/a
198.6085	0.1015	397217	keystroke_r	r	n/a
198.721	0.1015	397442	keystroke_o	o	n/a
198.8335	0.1015	397667	keystroke_f	f	n/a
198.957	0.0905	397914	keystroke_i	i	n/a
199.0585	0.146	398117	keystroke_t	t	n/a
199.1485	0.1015	398297	keystroke_s	s	n/a
199.2725	0.147	398545	keystroke_Key.space	Key.space	n/a
199.441	0.09	398882	keystroke_d	d	n/a
199.5425	0.1235	399085	keystroke_o	o	n/a
199.621	0.1685	399242	keystroke_e	e	n/a
199.711	0.1125	399422	keystroke_s	s	n/a
199.79	0.1685	399580	keystroke_Key.space	Key.space	n/a
200.0035	0.1685	400007	keystroke_a	a	n/a
200.161	0.079	400322	keystroke_t	t	n/a
200.341	0.1125	400682	keystroke_t	t	n/a
200.42	0.101	400840	keystroke_e	e	n/a
200.51	0.1235	401020	keystroke_m	m	n/a
200.6225	0.101	401245	keystroke_p	p	n/a
200.7125	0.101	401425	keystroke_t	t	n/a
200.8245	0.113	401649	keystroke_i	i	n/a
200.8925	0.112	401785	keystroke_n	n	n/a
200.971	0.09	401942	keystroke_g	g	n/a
201.05	0.1355	402100	keystroke_Key.space	Key.space	n/a
201.117	0.136	402234	keystroke_p	p	n/a
201.2075	0.135	402415	keystroke_a	a	n/a
201.2635	0.124	402527	keystroke_r	r	n/a
201.365	0.1345	402730	keystroke_k	k	n/a
201.477	0.1465	402954	keystroke_e	e	n/a
201.556	0.135	403112	keystroke_r	r	n/a
201.703	0.112	403406	keystroke_Key.enter	Key.enter	n/a
201.8195	4.89	403639	prompt	n/a	are mailto connect universities\n
202.4335	0.1365	404867	keystroke_a	a	n/a
202.6475	0.191	405295	keystroke_r	r	n/a
202.771	0.124	405542	keystroke_e	e	n/a
202.906	0.124	405812	keystroke_Key.space	Key.space	n/a
202.9625	0.1345	405925	keystroke_m	m	n/a
203.1875	0.146	406375	keystroke_a	a	n/a
203.2325	0.1705	406465	keystroke_i	i	n/a
203.3445	0.1125	406689	keystroke_l	l	n/a
203.4695	0.1345	406939	keystroke_t	t	n/a
203.6035	0.124	407207	keystroke_o	o	n/a
203.671	0.147	407342	keystroke_Key.space	Key.space	n/a
204.0085	0.1235	408017	keystroke_c	c	n/a
204.0645	0.124	408129	keystroke_o	o	n/a
204.1435	0.09	408287	keystroke_n	n	n/a
204.3125	0.1235	408625	keystroke_n	n	n/a
204.403	0.1005	408806	keystroke_e	e	n/a
204.6275	0.067	409255	keystroke_c	c	n/a
204.8075	0.0785	409615	keystroke_t	t	n/a
204.9085	0.18	409817	keystroke_Key.space	Key.space	n/a
205.0775	0.1255	410155	keystroke_u	u	n/a
205.325	0.135	410650	keystroke_n	n	n/a
205.4265	0.1235	410853	keystroke_i	i	n/a
205.5165	0.078	411033	keystroke_v	v	n/a
205.674	0.101	411348	keystroke_e	e	n/a
205.7525	0.1685	411505	keystroke_r	r	n/a
205.91	0.1125	411820	keystroke_s	s	n/a
206.0225	0.09	412045	keystroke_i	i	n/a
206.1575	0.101	412315	keystroke_t	t	n/a
206.27	0.112	412540	keystroke_i	i	n/a
206.371	0.169	412742	keystroke_e	e	n/a
206.4725	0.1345	412945	keystroke_s	s	n/a
206.596	0.1125	413192	keystroke_Key.enter	Key.enter	n/a
206.7125	4.3405	413425	prompt	n/a	reset want tamil strand\n
207.406	0.169	414812	keystroke_r	r	n/a
207.4735	0.18	414947	keystroke_e	e	n/a
207.597	0.203	415194	keystroke_s	s	n/a
207.7435	0.214	415487	keystroke_e	e	n/a
207.89	0.135	415780	keystroke_t	t	n/a
208.07	0.1575	416140	keystroke_Key.space	Key.space	n/a
208.2835	0.18	416567	keystroke_w	w	n/a
208.43	0.1685	416860	keystroke_a	a	n/a
208.5425	0.1125	417085	keystroke_n	n	n/a
208.666	0.1035	417332	keystroke_t	t	n/a
208.756	0.1465	417512	keystroke_Key.space	Key.space	n/a
208.9135	0.09	417827	keystroke_a	a	n/a
209.285	0.09	418570	keystroke_Key.backspace	Key.backspace	n/a
209.4085	0.1465	418817	keystroke_t	t	n/a
209.5665	0.1025	419133	keystroke_a	a	n/a
209.669	0.1335	419338	keystroke_m	m	n/a
209.8135	0.1575	419627	keystroke_i	i	n/a
209.8925	0.18	419785	keystroke_l	l	n/a
210.039	0.146	420078	keystroke_Key.space	Key.space	n/a
210.1965	0.135	420393	keystroke_s	s	n/a
210.3085	0.0565	420617	keystroke_t	t	n/a
210.4775	0.1465	420955	keystroke_r	r	n/a
210.5785	0.1015	421157	keystroke_a	a	n/a
210.68	0.112	421360	keystroke_n	n	n/a
210.781	0.124	421562	keystroke_d	d	n/a
210.9385	0.113	421877	keystroke_Key.enter	Key.enter	n/a
211.056	5.228	422112	prompt	n/a	sapphire users exact evening\n
211.7715	0.112	423543	keystroke_s	s	n/a
211.9625	0.1235	423925	keystroke_a	a	n/a
212.0525	0.0785	424105	keystroke_p	p	n/a
212.255	0.1145	424510	keystroke_p	p	n/a
212.311	0.169	424622	keystroke_h	h	n/a
212.446	0.1125	424892	keystroke_i	i	n/a
212.525	0.135	425050	keystroke_r	r	n/a
212.5925	0.1235	425185	keystroke_e	e	n/a
212.6935	0.1465	425387	keystroke_Key.space	Key.space	n/a
212.8285	0.124	425657	keystroke_u	u	n/a
212.9525	0.135	425905	keystroke_s	s	n/a
213.031	0.24	426062	keystroke_e	e	n/a
213.121	0.215	426242	keystroke_r	r	n/a
213.2365	0.155	426473	keystroke_s	s	n/a
213.661	0.124	427322	keystroke_Key.space	Key.space	n/a
213.8975	0.09	427795	keystroke_e	e	n/a
214.1785	0.0585	428357	keystroke_x	x	n/a
214.46	0.135	428920	keystroke_a	a	n/a
214.6625	0.101	429325	keystroke_c	c	n/a
214.876	0.0675	429752	keystroke_t	t	n/a
214.9885	0.124	429977	keystroke_Key.space	Key.space	n/a
215.1025	0.111	430205	keystroke_e	e	n/a
215.3155	0.123	430631	keystroke_v	v	n/a
215.506	0.1125	431012	keystroke_e	e	n/a
215.63	0.135	431260	keystroke_n	n	n/a
215.7875	0.148	431575	keystroke_i	i	n/a
215.8775	0.135	431755	keystroke_n	n	n/a
216.0025	0.1115	432005	keystroke_g	g	n/a
216.1475	0.135	432295	keystroke_Key.enter	Key.enter	n/a
216.287	5.8915	432574	prompt	n/a	valentine robinson club apollo\n
217.0925	0.101	434185	keystroke_v	v	n/a
217.5425	0.169	435085	keystroke_a	a	n/a
217.7	0.1575	435400	keystroke_l	l	n/a
217.869	0.1235	435738	keystroke_e	e	n/a
217.993	0.1345	435986	keystroke_n	n	n/a
218.1385	0.124	436277	keystroke_t	t	n/a
218.253	0.133	436506	keystroke_i	i	n/a
218.319	0.146	436638	keystroke_n	n	n/a
218.4425	0.09	436885	keystroke_e	e	n/a
218.555	0.1575	437110	keystroke_Key.space	Key.space	n/a
218.78	0.09	437560	keystroke_r	r	n/a
218.881	0.135	437762	keystroke_o	o	n/a
219.0385	0.0675	438077	keystroke_b	b	n/a
219.1175	0.135	438235	keystroke_i	i	n/a
219.186	0.1225	438372	keystroke_n	n	n/a
219.2975	0.1465	438595	keystroke_s	s	n/a
219.489	0.146	438978	keystroke_o	o	n/a
219.5675	0.169	439135	keystroke_n	n	n/a
219.68	0.1575	439360	keystroke_Key.space	Key.space	n/a
220.04	0.101	440080	keystroke_c	c	n/a
220.3325	0.18	440665	keystroke_l	l	n/a
220.4225	0.135	440845	keystroke_u	u	n/a
220.5465	0.101	441093	keystroke_b	b	n/a
220.681	0.1015	441362	keystroke_Key.space	Key.space	n/a
220.8165	0.1125	441633	keystroke_a	a	n/a
220.974	0.191	441948	keystroke_p	p	n/a
221.154	0.1235	442308	keystroke_o	o	n/a
221.424	0.09	442848	keystroke_l	l	n/a
221.6265	0.0785	443253	keystroke_l	l	n/a
221.84	0.079	443680	keystroke_o	o	n/a
222.0765	0.101	444153	keystroke_Key.enter	Key.enter	n/a
222.1835	5.2715	444367	prompt	n/a	stays upset occupied republic\n
222.8525	0.1575	445705	keystroke_s	s	n/a
223.055	0.1465	446110	keystroke_t	t	n/a
223.168	0.1005	446336	keystroke_a	a	n/a
223.2575	0.1125	446515	keystroke_y	y	n/a
223.3925	0.1125	446785	keystroke_s	s	n/a
223.4715	0.1685	446943	keystroke_Key.space	Key.space	n/a
223.5615	0.18	447123	keystroke_u	u	n/a
223.6855	0.157	447371	keystroke_p	p	n/a
223.8315	0.18	447663	keystroke_s	s	n/a
223.9775	0.18	447955	keystroke_e	e	n/a
224.09	0.1125	448180	keystroke_t	t	n/a
224.225	0.1125	448450	keystroke_Key.space	Key.space	n/a
224.42	0.0415	448840	keystroke_c	c	n/a
224.7425	0.101	449485	keystroke_Key.backspace	Key.backspace	n/a
225.0465	0.135	450093	keystroke_o	o	n/a
225.215	0.1035	450430	keystroke_c	c	n/a
225.4185	0.067	450837	keystroke_c	c	n/a
225.496	0.1465	450992	keystroke_u	u	n/a
225.6315	0.136	451263	keystroke_p	p	n/a
225.8115	0.1575	451623	keystroke_i	i	n/a
225.924	0.101	451848	keystroke_e	e	n/a
226.138	0.0785	452276	keystroke_d	d	n/a
226.2515	0.1675	452503	keystroke_Key.space	Key.space	n/a
226.363	0.1345	452726	keystroke_r	r	n/a
226.4525	0.146	452905	keystroke_e	e	n/a
226.588	0.1475	453176	keystroke_p	p	n/a
226.633	0.1345	453266	keystroke_u	u	n/a
226.8015	0.112	453603	keystroke_b	b	n/a
226.903	0.18	453806	keystroke_l	l	n/a
226.9925	0.135	453985	keystroke_i	i	n/a
227.0825	0.113	454165	keystroke_c	c	n/a
227.3075	0.146	454615	keystroke_Key.enter	Key.enter	n/a
227.4575	5.24	454915	prompt	n/a	beneficial pontiac sizes fighting\n
228.1625	0.1125	456325	keystroke_b	b	n/a
228.3765	0.0785	456753	keystroke_e	e	n/a
228.5025	0.1215	457005	keystroke_n	n	n/a
228.6125	0.09	457225	keystroke_e	e	n/a
228.7925	0.1245	457585	keystroke_f	f	n/a
228.8825	0.09	457765	keystroke_i	i	n/a
229.029	0.1235	458058	keystroke_c	c	n/a
229.153	0.101	458306	keystroke_i	i	n/a
229.2875	0.124	458575	keystroke_a	a	n/a
229.4015	0.111	458803	keystroke_l	l	n/a
229.479	0.1465	458958	keystroke_Key.space	Key.space	n/a
229.6365	0.169	459273	keystroke_p	p	n/a
229.7605	0.169	459521	keystroke_o	o	n/a
229.851	0.1345	459702	keystroke_n	n	n/a
229.997	0.123	459994	keystroke_t	t	n/a
230.0865	0.1355	460173	keystroke_i	i	n/a
230.1995	0.123	460399	keystroke_a	a	n/a
230.4125	0.09	460825	keystroke_c	c	n/a
230.537	0.1455	461074	keystroke_Key.space	Key.space	n/a
230.7525	0.1	461505	keystroke_s	s	n/a
230.84	0.135	461680	keystroke_i	i	n/a
231.0315	0.1125	462063	keystroke_z	z	n/a
231.2005	0.214	462401	keystroke_e	e	n/a
231.3355	0.1345	462671	keystroke_s	s	n/a
231.482	0.1455	462964	keystroke_Key.space	Key.space	n/a
231.639	0.0795	463278	keystroke_f	f	n/a
231.7405	0.1015	463481	keystroke_i	i	n/a
231.8525	0.102	463705	keystroke_g	g	n/a
231.965	0.1025	463930	keystroke_h	h	n/a
232.0775	0.1125	464155	keystroke_t	t	n/a
232.2015	0.1575	464403	keystroke_i	i	n/a
232.28	0.135	464560	keystroke_n	n	n/a
232.3925	0.1125	464785	keystroke_g	g	n/a
232.5615	0.135	465123	keystroke_Key.enter	Key.enter	n/a
232.7005	6.534	465401	prompt	n/a	filling consult confirmation thoroughly\n
233.439	0.135	466878	keystroke_f	f	n/a
233.5855	0.1575	467171	keystroke_i	i	n/a
233.6975	0.0905	467395	keystroke_l	l	n/a
233.9115	0.2135	467823	keystroke_l	l	n/a
234.024	0.135	468048	keystroke_i	i	n/a
234.0915	0.135	468183	keystroke_n	n	n/a
234.2155	0.1235	468431	keystroke_g	g	n/a
234.328	0.1575	468656	keystroke_Key.space	Key.space	n/a
235.52	0.09	471040	keystroke_c	c	n/a
235.599	0.1575	471198	keystroke_o	o	n/a
235.689	0.101	471378	keystroke_n	n	n/a
235.779	0.1235	471558	keystroke_s	s	n/a
235.914	0.146	471828	keystroke_u	u	n/a
235.9925	0.135	471985	keystroke_l	l	n/a
236.118	0.0775	472236	keystroke_t	t	n/a
236.2065	0.124	472413	keystroke_Key.space	Key.space	n/a
236.319	0.1015	472638	keystroke_c	c	n/a
236.3865	0.1575	472773	keystroke_o	o	n/a
236.4765	0.1125	472953	keystroke_n	n	n/a
236.6005	0.101	473201	keystroke_f	f	n/a
236.69	0.09	473380	keystroke_i	i	n/a
236.825	0.1125	473650	keystroke_r	r	n/a
236.915	0.124	473830	keystroke_m	m	n/a
237.0615	0.135	474123	keystroke_a	a	n/a
237.129	0.135	474258	keystroke_t	t	n/a
237.2075	0.2595	474415	keystroke_i	i	n/a
237.2865	0.1685	474573	keystroke_o	o	n/a
237.354	0.1575	474708	keystroke_n	n	n/a
237.4215	0.146	474843	keystroke_Key.space	Key.space	n/a
237.579	0.113	475158	keystroke_t	t	n/a
237.68	0.1245	475360	keystroke_h	h	n/a
237.815	0.1575	475630	keystroke_o	o	n/a
238.029	0.135	476058	keystroke_r	r	n/a
238.175	0.1925	476350	keystroke_o	o	n/a
238.355	0.079	476710	keystroke_u	u	n/a
238.4675	0.1125	476935	keystroke_g	g	n/a
238.5805	0.09	477161	keystroke_h	h	n/a
238.7515	0.1775	477503	keystroke_l	l	n/a
238.839	0.124	477678	keystroke_y	y	n/a
239.1205	0.113	478241	keystroke_Key.enter	Key.enter	n/a
239.237	6.859	478474	prompt	n/a	enlargement webmasters absolutely norfolk\n
240.009	0.135	480018	keystroke_e	e	n/a
240.155	0.135	480310	keystroke_n	n	n/a
240.38	0.135	480760	keystroke_l	l	n/a
240.5375	0.124	481075	keystroke_a	a	n/a
240.6055	0.0895	481211	keystroke_r	r	n/a
240.819	0.09	481638	keystroke_g	g	n/a
240.9875	0.135	481975	keystroke_e	e	n/a
241.136	0.0765	482272	keystroke_m	m	n/a
241.2575	0.1015	482515	keystroke_e	e	n/a
241.3475	0.1035	482695	keystroke_n	n	n/a
241.46	0.102	482920	keystroke_t	t	n/a
241.552	0.167	483104	keystroke_Key.space	Key.space	n/a
241.7075	0.1015	483415	keystroke_w	w	n/a
241.7415	0.1125	483483	keystroke_e	e	n/a
241.978	0.09	483956	keystroke_b	b	n/a
242.1805	0.157	484361	keystroke_m	m	n/a
242.349	0.169	484698	keystroke_a	a	n/a
242.452	0.1555	484904	keystroke_s	s	n/a
242.5745	0.123	485149	keystroke_t	t	n/a
242.7205	0.1575	485441	keystroke_e	e	n/a
242.81	0.225	485620	keystroke_r	r	n/a
242.945	0.1695	485890	keystroke_s	s	n/a
243.137	0.157	486274	keystroke_Key.space	Key.space	n/a
243.284	0.1005	486568	keystroke_a	a	n/a
243.4625	0.09	486925	keystroke_b	b	n/a
243.643	0.124	487286	keystroke_s	s	n/a
243.755	0.0795	487510	keystroke_o	o	n/a
243.9695	0.157	487939	keystroke_l	l	n/a
244.0475	0.1355	488095	keystroke_u	u	n/a
244.138	0.146	488276	keystroke_t	t	n/a
244.239	0.1235	488478	keystroke_e	e	n/a
244.329	0.1685	488658	keystroke_l	l	n/a
244.408	0.101	488816	keystroke_y	y	n/a
244.464	0.09	488928	keystroke_Key.space	Key.space	n/a
244.644	0.1125	489288	keystroke_n	n	n/a
244.7115	0.1235	489423	keystroke_o	o	n/a
244.813	0.1235	489626	keystroke_r	r	n/a
245.1955	0.1125	490391	keystroke_f	f	n/a
245.319	0.0785	490638	keystroke_o	o	n/a
245.5215	0.1125	491043	keystroke_l	l	n/a
245.7465	0.1125	491493	keystroke_k	k	n/a
245.994	0.101	491988	keystroke_Key.enter	Key.enter	n/a
246.099	5.926	492198	prompt	n/a	jonathan omaha equity material\n
246.7255	0.126	493451	keystroke_n	n	n/a
246.8265	0.1575	493653	keystroke_o	o	n/a
247.3215	0.09	494643	keystroke_Key.backspace	Key.backspace	n/a
247.535	0.079	495070	keystroke_Key.backspace	Key.backspace	n/a
247.76	0.1245	495520	keystroke_j	j	n/a
247.8955	0.146	495791	keystroke_o	o	n/a
247.986	0.1455	495972	keystroke_n	n	n/a
248.188	0.146	496376	keystroke_a	a	n/a
248.4015	0.124	496803	keystroke_t	t	n/a
248.4915	0.102	496983	keystroke_h	h	n/a
248.6385	0.089	497277	keystroke_a	a	n/a
248.694	0.124	497388	keystroke_n	n	n/a
248.795	0.1015	497590	keystroke_Key.space	Key.space	n/a
248.9305	0.191	497861	keystroke_o	o	n/a
249.0435	0.123	498087	keystroke_m	m	n/a
249.2005	0.101	498401	keystroke_a	a	n/a
249.358	0.1235	498716	keystroke_h	h	n/a
249.504	0.1135	499008	keystroke_a	a	n/a
249.6175	0.134	499235	keystroke_Key.space	Key.space	n/a
249.8415	0.1125	499683	keystroke_e	e	n/a
250.179	0.1015	500358	keystroke_q	q	n/a
250.269	0.1575	500538	keystroke_u	u	n/a
250.3815	0.1355	500763	keystroke_i	i	n/a
250.539	0.102	501078	keystroke_t	t	n/a
250.674	0.1235	501348	keystroke_y	y	n/a
250.7755	0.112	501551	keystroke_Key.space	Key.space	n/a
250.9555	0.1685	501911	keystroke_m	m	n/a
251.0685	0.1345	502137	keystroke_a	a	n/a
251.158	0.101	502316	keystroke_t	t	n/a
251.3265	0.1235	502653	keystroke_e	e	n/a
251.394	0.1245	502788	keystroke_r	r	n/a
251.4955	0.1125	502991	keystroke_i	i	n/a
251.6415	0.1015	503283	keystroke_a	a	n/a
251.7315	0.09	503463	keystroke_l	l	n/a
251.9345	0.0895	503869	keystroke_Key.enter	Key.enter	n/a
252.029	4.9685	504058	prompt	n/a	apparel cyber cooper performing\n
252.654	0.135	505308	keystroke_a	a	n/a
252.8455	0.0785	505691	keystroke_p	p	n/a
253.0365	0.135	506073	keystroke_p	p	n/a
253.2165	0.1465	506433	keystroke_a	a	n/a
253.329	0.169	506658	keystroke_r	r	n/a
253.453	0.135	506906	keystroke_e	e	n/a
253.601	0.144	507202	keystroke_l	l	n/a
253.7005	0.1125	507401	keystroke_Key.space	Key.space	n/a
253.9365	0.0795	507873	keystroke_c	c	n/a
254.027	0.1125	508054	keystroke_y	y	n/a
254.173	0.0785	508346	keystroke_b	b	n/a
254.353	0.135	508706	keystroke_e	e	n/a
254.454	0.114	508908	keystroke_r	r	n/a
254.544	0.124	509088	keystroke_Key.space	Key.space	n/a
254.69	0.113	509380	keystroke_c	c	n/a
254.758	0.1015	509516	keystroke_o	o	n/a
254.983	0.1915	509966	keystroke_o	o	n/a
255.118	0.1125	510236	keystroke_p	p	n/a
255.2415	0.1125	510483	keystroke_e	e	n/a
255.3205	0.1135	510641	keystroke_r	r	n/a
255.4105	0.146	510821	keystroke_Key.space	Key.space	n/a
255.5455	0.1345	511091	keystroke_p	p	n/a
255.6465	0.135	511293	keystroke_e	e	n/a
255.714	0.1125	511428	keystroke_r	r	n/a
255.9615	0.09	511923	keystroke_f	f	n/a
256.0405	0.113	512081	keystroke_o	o	n/a
256.175	0.1015	512350	keystroke_r	r	n/a
256.254	0.1575	512508	keystroke_m	m	n/a
256.524	0.124	513048	keystroke_i	i	n/a
256.5915	0.125	513183	keystroke_n	n	n/a
256.738	0.113	513476	keystroke_g	g	n/a
256.873	0.1235	513746	keystroke_Key.enter	Key.enter	n/a
257.0015	5.6675	514003	prompt	n/a	trouble survive dutch essentially\n
257.694	0.09	515388	keystroke_t	t	n/a
257.8965	0.1015	515793	keystroke_r	r	n/a
258.009	0.158	516018	keystroke_o	o	n/a
258.1105	0.1255	516221	keystroke_u	u	n/a
258.223	0.101	516446	keystroke_b	b	n/a
258.3015	0.124	516603	keystroke_l	l	n/a
258.448	0.102	516896	keystroke_e	e	n/a
258.538	0.1465	517076	keystroke_Key.space	Key.space	n/a
258.662	0.146	517324	keystroke_s	s	n/a
258.8195	0.1475	517639	keystroke_u	u	n/a
258.9205	0.09	517841	keystroke_r	r	n/a
259.157	0.09	518314	keystroke_v	v	n/a
259.2805	0.09	518561	keystroke_i	i	n/a
259.3705	0.1125	518741	keystroke_v	v	n/a
259.674	0.09	519348	keystroke_e	e	n/a
259.8205	0.1575	519641	keystroke_Key.space	Key.space	n/a
260.012	0.101	520024	keystroke_d	d	n/a
260.147	0.136	520294	keystroke_u	u	n/a
260.2705	0.1125	520541	keystroke_t	t	n/a
260.5065	0.09	521013	keystroke_c	c	n/a
260.608	0.1685	521216	keystroke_h	h	n/a
260.7205	0.135	521441	keystroke_Key.space	Key.space	n/a
260.8015	0.1335	521603	keystroke_e	e	n/a
260.979	0.1015	521958	keystroke_s	s	n/a
261.2165	0.134	522433	keystroke_s	s	n/a
261.2605	0.124	522521	keystroke_e	e	n/a
261.3955	0.1355	522791	keystroke_n	n	n/a
261.609	0.1355	523218	keystroke_t	t	n/a
261.744	0.102	523488	keystroke_i	i	n/a
261.868	0.1235	523736	keystroke_a	a	n/a
261.981	0.078	523962	keystroke_l	l	n/a
262.1945	0.1575	524389	keystroke_l	l	n/a
262.2845	0.1015	524569	keystroke_y	y	n/a
262.5675	0.1	525135	keystroke_Key.enter	Key.enter	n/a
262.672	4.4965	525344	prompt	n/a	films sage something employed\n
263.3415	0.1125	526683	keystroke_f	f	n/a
263.4765	0.1575	526953	keystroke_i	i	n/a
263.8705	0.18	527741	keystroke_l	l	n/a
263.983	0.1465	527966	keystroke_m	m	n/a
264.163	0.1125	528326	keystroke_s	s	n/a
264.253	0.181	528506	keystroke_Key.space	Key.space	n/a
264.4215	0.124	528843	keystroke_s	s	n/a
264.557	0.146	529114	keystroke_a	a	n/a
264.6915	0.1245	529383	keystroke_g	g	n/a
264.759	0.079	529518	keystroke_e	e	n/a
264.8495	0.146	529699	keystroke_Key.space	Key.space	n/a
264.984	0.1015	529968	keystroke_s	s	n/a
265.063	0.1735	530126	keystroke_o	o	n/a
265.131	0.137	530262	keystroke_m	m	n/a
265.2205	0.1235	530441	keystroke_e	e	n/a
265.322	0.146	530644	keystroke_t	t	n/a
265.4005	0.1125	530801	keystroke_h	h	n/a
265.5015	0.1475	531003	keystroke_i	i	n/a
265.5915	0.102	531183	keystroke_n	n	n/a
265.659	0.1015	531318	keystroke_g	g	n/a
265.7495	0.1465	531499	keystroke_Key.space	Key.space	n/a
265.862	0.1015	531724	keystroke_e	e	n/a
265.974	0.1465	531948	keystroke_m	m	n/a
266.0755	0.1125	532151	keystroke_p	p	n/a
266.312	0.067	532624	keystroke_l	l	n/a
266.4915	0.1915	532983	keystroke_o	o	n/a
266.5935	0.146	533187	keystroke_y	y	n/a
266.694	0.113	533388	keystroke_e	e	n/a
266.931	0.1015	533862	keystroke_d	d	n/a
267.054	0.1135	534108	keystroke_Key.enter	Key.enter	n/a
267.1715	4.6315	534343	prompt	n/a	thank chorus hotel handheld\n
267.8415	0.1255	535683	keystroke_t	t	n/a
267.934	0.0875	535868	keystroke_h	h	n/a
268.0555	0.1575	536111	keystroke_a	a	n/a
268.1345	0.1235	536269	keystroke_n	n	n/a
268.2135	0.146	536427	keystroke_k	k	n/a
268.3595	0.112	536719	keystroke_Key.space	Key.space	n/a
268.4175	0.088	536835	keystroke_c	c	n/a
268.5175	0.1455	537035	keystroke_h	h	n/a
268.663	0.079	537326	keystroke_o	o	n/a
268.6855	0.2025	537371	keystroke_r	r	n/a
269.338	0.1125	538676	keystroke_u	u	n/a
269.484	0.113	538968	keystroke_s	s	n/a
269.5975	0.1015	539195	keystroke_Key.space	Key.space	n/a
269.7995	0.101	539599	keystroke_h	h	n/a
269.8895	0.112	539779	keystroke_o	o	n/a
269.9905	0.1465	539981	keystroke_t	t	n/a
270.0695	0.1125	540139	keystroke_e	e	n/a
270.193	0.192	540386	keystroke_l	l	n/a
270.373	0.1575	540746	keystroke_Key.space	Key.space	n/a
270.7105	0.09	541421	keystroke_h	h	n/a
270.8345	0.1125	541669	keystroke_a	a	n/a
270.9245	0.101	541849	keystroke_n	n	n/a
271.017	0.101	542034	keystroke_d	d	n/a
271.2055	0.113	542411	keystroke_h	h	n/a
271.318	0.1125	542636	keystroke_e	e	n/a
271.442	0.101	542884	keystroke_l	l	n/a
271.5545	0.1235	543109	keystroke_d	d	n/a
271.7005	0.1015	543401	keystroke_Key.enter	Key.enter	n/a
271.8055	4.1035	543611	prompt	n/a	gang searched sake they've\n
272.578	0.1125	545156	keystroke_g	g	n/a
272.7245	0.1465	545449	keystroke_a	a	n/a
272.8365	0.0905	545673	keystroke_n	n	n/a
272.9495	0.124	545899	keystroke_g	g	n/a
273.051	0.1575	546102	keystroke_Key.space	Key.space	n/a
273.1855	0.1355	546371	keystroke_s	s	n/a
273.2645	0.2025	546529	keystroke_e	e	n/a
273.4335	0.157	546867	keystroke_a	a	n/a
273.534	0.102	547068	keystroke_r	r	n/a
273.737	0.113	547474	keystroke_c	c	n/a
273.8605	0.113	547721	keystroke_h	h	n/a
273.9735	0.0675	547947	keystroke_e	e	n/a
274.1645	0.09	548329	keystroke_d	d	n/a
274.311	0.1345	548622	keystroke_Key.space	Key.space	n/a
274.3895	0.101	548779	keystroke_s	s	n/a
274.5015	0.1485	549003	keystroke_a	a	n/a
274.617	0.121	549234	keystroke_k	k	n/a
274.727	0.101	549454	keystroke_e	e	n/a
274.8505	0.09	549701	keystroke_Key.space	Key.space	n/a
274.9295	0.1125	549859	keystroke_t	t	n/a
275.042	0.067	550084	keystroke_h	h	n/a
275.132	0.1235	550264	keystroke_e	e	n/a
275.233	0.0565	550466	keystroke_y	y	n/a
275.402	0.101	550804	keystroke_'	'	n/a
275.5375	0.168	551075	keystroke_v	v	n/a
275.638	0.1125	551276	keystroke_e	e	n/a
275.7955	0.1125	551591	keystroke_Key.enter	Key.enter	n/a
275.912	4.947	551824	prompt	n/a	file disclose equipment perfect\n
276.6505	0.0675	553301	keystroke_f	f	n/a
276.6955	0.1575	553391	keystroke_i	i	n/a
276.797	0.112	553594	keystroke_l	l	n/a
276.899	0.089	553798	keystroke_e	e	n/a
276.999	0.158	553998	keystroke_Key.space	Key.space	n/a
277.1345	0.1235	554269	keystroke_d	d	n/a
277.247	0.1235	554494	keystroke_i	i	n/a
277.3595	0.079	554719	keystroke_s	s	n/a
277.551	0.1235	555102	keystroke_c	c	n/a
277.652	0.1125	555304	keystroke_l	l	n/a
277.877	0.09	555754	keystroke_o	o	n/a
277.9895	0.1465	555979	keystroke_s	s	n/a
278.068	0.1015	556136	keystroke_e	e	n/a
278.147	0.1575	556294	keystroke_Key.space	Key.space	n/a
278.4285	0.146	556857	keystroke_e	e	n/a
278.699	0.0895	557398	keystroke_q	q	n/a
278.7995	0.1235	557599	keystroke_u	u	n/a
278.867	0.2025	557734	keystroke_i	i	n/a
279.0245	0.124	558049	keystroke_p	p	n/a
279.2605	0.079	558521	keystroke_m	m	n/a
279.351	0.1125	558702	keystroke_e	e	n/a
279.4745	0.0915	558949	keystroke_n	n	n/a
279.5755	0.1125	559151	keystroke_t	t	n/a
279.677	0.1465	559354	keystroke_Key.space	Key.space	n/a
279.767	0.146	559534	keystroke_p	p	n/a
279.834	0.1485	559668	keystroke_e	e	n/a
279.936	0.09	559872	keystroke_r	r	n/a
280.1605	0.1575	560321	keystroke_f	f	n/a
280.228	0.1125	560456	keystroke_e	e	n/a
280.4655	0.0775	560931	keystroke_c	c	n/a
280.6555	0.0675	561311	keystroke_t	t	n/a
280.7455	0.1125	561491	keystroke_Key.enter	Key.enter	n/a
280.862	4.7335	561724	prompt	n/a	otherwise just become operational\n
281.601	0.0785	563202	keystroke_o	o	n/a
281.6905	0.1125	563381	keystroke_t	t	n/a
281.8165	0.1005	563633	keystroke_h	h	n/a
281.8835	0.122	563767	keystroke_e	e	n/a
281.9505	0.145	563901	keystroke_r	r	n/a
282.107	0.101	564214	keystroke_w	w	n/a
282.2305	0.1015	564461	keystroke_i	i	n/a
282.343	0.1465	564686	keystroke_s	s	n/a
282.422	0.1125	564844	keystroke_e	e	n/a
282.5455	0.135	565091	keystroke_Key.space	Key.space	n/a
282.7155	0.0775	565431	keystroke_j	j	n/a
282.9055	0.079	565811	keystroke_u	u	n/a
282.996	0.101	565992	keystroke_s	s	n/a
283.0745	0.0785	566149	keystroke_t	t	n/a
283.142	0.169	566284	keystroke_Key.space	Key.space	n/a
283.2995	0.0785	566599	keystroke_b	b	n/a
283.4905	0.0455	566981	keystroke_e	e	n/a
283.671	0.146	567342	keystroke_c	c	n/a
283.8285	0.1125	567657	keystroke_a	a	n/a
283.919	0.1005	567838	keystroke_m	m	n/a
284.0325	0.088	568065	keystroke_e	e	n/a
284.1095	0.1575	568219	keystroke_Key.space	Key.space	n/a
284.188	0.18	568376	keystroke_o	o	n/a
284.3005	0.1575	568601	keystroke_p	p	n/a
284.413	0.124	568826	keystroke_e	e	n/a
284.503	0.124	569006	keystroke_r	r	n/a
284.672	0.135	569344	keystroke_a	a	n/a
284.762	0.135	569524	keystroke_t	t	n/a
284.8745	0.2025	569749	keystroke_i	i	n/a
284.9335	0.166	569867	keystroke_o	o	n/a
285.021	0.124	570042	keystroke_n	n	n/a
285.122	0.113	570244	keystroke_a	a	n/a
285.2455	0.1015	570491	keystroke_l	l	n/a
285.5045	0.09	571009	keystroke_Key.enter	Key.enter	n/a
285.5985	4.936	571197	prompt	n/a	gold columnists camping grill\n
286.35	0.1105	572700	keystroke_g	g	n/a
286.4385	0.0785	572877	keystroke_o	o	n/a
286.641	0.091	573282	keystroke_l	l	n/a
286.7425	0.1125	573485	keystroke_d	d	n/a
286.8435	0.157	573687	keystroke_Key.space	Key.space	n/a
287.0125	0.1125	574025	keystroke_c	c	n/a
287.057	0.113	574114	keystroke_o	o	n/a
287.284	0.1345	574568	keystroke_l	l	n/a
287.3835	0.1015	574767	keystroke_u	u	n/a
287.586	0.0565	575172	keystroke_m	m	n/a
287.755	0.112	575510	keystroke_n	n	n/a
287.8445	0.124	575689	keystroke_i	i	n/a
288.0135	0.146	576027	keystroke_s	s	n/a
288.137	0.2025	576274	keystroke_t	t	n/a
288.2945	0.1125	576589	keystroke_s	s	n/a
288.452	0.1135	576904	keystroke_Key.space	Key.space	n/a
288.722	0.135	577444	keystroke_c	c	n/a
288.868	0.148	577736	keystroke_a	a	n/a
288.97	0.1345	577940	keystroke_m	m	n/a
289.1165	0.1005	578233	keystroke_p	p	n/a
289.285	0.1465	578570	keystroke_i	i	n/a
289.3635	0.1125	578727	keystroke_n	n	n/a
289.465	0.09	578930	keystroke_g	g	n/a
289.5435	0.135	579087	keystroke_Key.space	Key.space	n/a
289.69	0.067	579380	keystroke_g	g	n/a
289.883	0.1	579766	keystroke_r	r	n/a
289.9495	0.1225	579899	keystroke_i	i	n/a
290.0385	0.0785	580077	keystroke_l	l	n/a
290.23	0.0685	580460	keystroke_l	l	n/a
290.4435	0.09	580887	keystroke_Key.enter	Key.enter	n/a
290.5395	5.3385	581079	prompt	n/a	designing initiatives mines venues\n
291.186	0.101	582372	keystroke_d	d	n/a
291.411	0.146	582822	keystroke_e	e	n/a
291.4785	0.1575	582957	keystroke_s	s	n/a
291.636	0.1125	583272	keystroke_i	i	n/a
291.771	0.1125	583542	keystroke_g	g	n/a
291.872	0.1125	583744	keystroke_n	n	n/a
292.007	0.1465	584014	keystroke_i	i	n/a
292.097	0.1015	584194	keystroke_n	n	n/a
292.1535	0.116	584307	keystroke_g	g	n/a
292.2545	0.124	584509	keystroke_Key.space	Key.space	n/a
292.3895	0.135	584779	keystroke_i	i	n/a
292.4685	0.135	584937	keystroke_n	n	n/a
292.65	0.1335	585300	keystroke_i	i	n/a
293.0195	0.1015	586039	keystroke_t	t	n/a
293.2335	0.135	586467	keystroke_i	i	n/a
293.5035	0.135	587007	keystroke_a	a	n/a
293.661	0.09	587322	keystroke_t	t	n/a
293.762	0.136	587524	keystroke_i	i	n/a
293.9085	0.191	587817	keystroke_v	v	n/a
294.0885	0.135	588177	keystroke_e	e	n/a
294.122	0.135	588244	keystroke_s	s	n/a
294.2355	0.134	588471	keystroke_Key.space	Key.space	n/a
294.3135	0.1235	588627	keystroke_m	m	n/a
294.4715	0.1345	588943	keystroke_i	i	n/a
294.5495	0.124	589099	keystroke_n	n	n/a
294.617	0.1915	589234	keystroke_e	e	n/a
294.7295	0.1035	589459	keystroke_s	s	n/a
294.7865	0.1905	589573	keystroke_Key.space	Key.space	n/a
295.0115	0.078	590023	keystroke_v	v	n/a
295.1465	0.1045	590293	keystroke_e	e	n/a
295.2365	0.09	590473	keystroke_n	n	n/a
295.472	0.0675	590944	keystroke_u	u	n/a
295.5735	0.1685	591147	keystroke_e	e	n/a
295.6745	0.135	591349	keystroke_s	s	n/a
295.776	0.101	591552	keystroke_Key.enter	Key.enter	n/a
295.881	5.724	591762	prompt	n/a	strain barnes representative performance\n
296.586	0.1465	593172	keystroke_s	s	n/a
296.6985	0.1015	593397	keystroke_t	t	n/a
296.901	0.1575	593802	keystroke_r	r	n/a
296.991	0.146	593982	keystroke_a	a	n/a
297.0495	0.144	594099	keystroke_i	i	n/a
297.1165	0.1445	594233	keystroke_n	n	n/a
297.205	0.135	594410	keystroke_Key.space	Key.space	n/a
297.3285	0.101	594657	keystroke_b	b	n/a
297.52	0.135	595040	keystroke_a	a	n/a
297.576	0.1125	595152	keystroke_r	r	n/a
297.7	0.1345	595400	keystroke_n	n	n/a
297.801	0.1575	595602	keystroke_e	e	n/a
297.8795	0.124	595759	keystroke_s	s	n/a
297.97	0.1685	595940	keystroke_Key.space	Key.space	n/a
298.1495	0.1125	596299	keystroke_r	r	n/a
298.2175	0.1235	596435	keystroke_e	e	n/a
298.3745	0.1465	596749	keystroke_p	p	n/a
298.4535	0.169	596907	keystroke_r	r	n/a
298.5435	0.146	597087	keystroke_e	e	n/a
298.6335	0.2155	597267	keystroke_s	s	n/a
298.7685	0.101	597537	keystroke_e	e	n/a
298.8585	0.146	597717	keystroke_n	n	n/a
299.2075	0.1345	598415	keystroke_t	t	n/a
299.387	0.1575	598774	keystroke_a	a	n/a
299.477	0.1245	598954	keystroke_t	t	n/a
299.6345	0.1575	599269	keystroke_i	i	n/a
299.7925	0.112	599585	keystroke_v	v	n/a
299.8595	0.09	599719	keystroke_e	e	n/a
300.017	0.1915	600034	keystroke_Key.space	Key.space	n/a
300.1975	0.101	600395	keystroke_p	p	n/a
300.2195	0.147	600439	keystroke_e	e	n/a
300.2985	0.1125	600597	keystroke_r	r	n/a
300.524	0.112	601048	keystroke_f	f	n/a
300.6245	0.1015	601249	keystroke_o	o	n/a
300.737	0.102	601474	keystroke_r	r	n/a
300.839	0.09	601678	keystroke_m	m	n/a
300.9515	0.1155	601903	keystroke_a	a	n/a
301.052	0.09	602104	keystroke_n	n	n/a
301.167	0.1	602334	keystroke_c	c	n/a
301.3895	0.079	602779	keystroke_e	e	n/a
301.502	0.102	603004	keystroke_Key.enter	Key.enter	n/a
301.608	4.6655	603216	prompt	n/a	expenses cool major february\n
302.189	0.1005	604378	keystroke_e	e	n/a
302.391	0.124	604782	keystroke_x	x	n/a
302.537	0.113	605074	keystroke_p	p	n/a
302.616	0.146	605232	keystroke_e	e	n/a
302.7515	0.1145	605503	keystroke_n	n	n/a
302.8525	0.114	605705	keystroke_s	s	n/a
302.954	0.1905	605908	keystroke_e	e	n/a
303.0665	0.1455	606133	keystroke_s	s	n/a
303.201	0.1125	606402	keystroke_Key.space	Key.space	n/a
303.3245	0.135	606649	keystroke_c	c	n/a
303.426	0.101	606852	keystroke_o	o	n/a
303.6285	0.09	607257	keystroke_o	o	n/a
303.842	0.1125	607684	keystroke_l	l	n/a
303.932	0.1465	607864	keystroke_Key.space	Key.space	n/a
304.0225	0.101	608045	keystroke_m	m	n/a
304.146	0.1465	608292	keystroke_a	a	n/a
304.2385	0.1325	608477	keystroke_j	j	n/a
304.315	0.1125	608630	keystroke_o	o	n/a
304.416	0.101	608832	keystroke_r	r	n/a
304.506	0.18	609012	keystroke_Key.space	Key.space	n/a
304.7535	0.1125	609507	keystroke_f	f	n/a
304.8775	0.09	609755	keystroke_e	e	n/a
305.091	0.0785	610182	keystroke_b	b	n/a
305.316	0.1125	610632	keystroke_r	r	n/a
305.44	0.1125	610880	keystroke_u	u	n/a
305.6655	0.157	611331	keystroke_a	a	n/a
305.766	0.135	611532	keystroke_r	r	n/a
305.9125	0.102	611825	keystroke_y	y	n/a
306.171	0.1015	612342	keystroke_Key.enter	Key.enter	n/a
306.276	3.9125	612552	prompt	n/a	foam colonial lessons pins\n
306.8685	0.1125	613737	keystroke_f	f	n/a
306.9925	0.1125	613985	keystroke_o	o	n/a
307.1275	0.1125	614255	keystroke_a	a	n/a
307.2285	0.1575	614457	keystroke_m	m	n/a
307.3075	0.146	614615	keystroke_Key.space	Key.space	n/a
307.566	0.0675	615132	keystroke_c	c	n/a
307.5775	0.1125	615155	keystroke_o	o	n/a
307.8145	0.067	615629	keystroke_l	l	n/a
307.9935	0.1465	615987	keystroke_o	o	n/a
308.1285	0.1465	616257	keystroke_n	n	n/a
308.286	0.1015	616572	keystroke_i	i	n/a
308.399	0.1345	616798	keystroke_a	a	n/a
308.5	0.135	617000	keystroke_l	l	n/a
308.59	0.1345	617180	keystroke_Key.space	Key.space	n/a
308.748	0.146	617496	keystroke_l	l	n/a
308.8715	0.1345	617743	keystroke_e	e	n/a
308.9495	0.1015	617899	keystroke_s	s	n/a
309.1655	0.1	618331	keystroke_s	s	n/a
309.232	0.1345	618464	keystroke_o	o	n/a
309.287	0.135	618574	keystroke_n	n	n/a
309.3885	0.0905	618777	keystroke_s	s	n/a
309.49	0.1575	618980	keystroke_Key.space	Key.space	n/a
309.6025	0.124	619205	keystroke_p	p	n/a
309.7375	0.157	619475	keystroke_i	i	n/a
309.8165	0.135	619633	keystroke_n	n	n/a
309.917	0.135	619834	keystroke_s	s	n/a
310.075	0.1125	620150	keystroke_Key.enter	Key.enter	n/a
310.191	5.4985	620382	prompt	n/a	remain woman authorization sexuality\n
310.952	0.1355	621904	keystroke_r	r	n/a
311.0995	0.0445	622199	keystroke_o	o	n/a
311.47	0.0675	622940	keystroke_Key.backspace	Key.backspace	n/a
311.5825	0.135	623165	keystroke_e	e	n/a
311.729	0.1455	623458	keystroke_m	m	n/a
311.909	0.1235	623818	keystroke_a	a	n/a
311.999	0.146	623998	keystroke_i	i	n/a
312.089	0.1345	624178	keystroke_n	n	n/a
312.156	0.1465	624312	keystroke_Key.space	Key.space	n/a
312.325	0.124	624650	keystroke_w	w	n/a
312.415	0.135	624830	keystroke_o	o	n/a
312.4595	0.124	624919	keystroke_m	m	n/a
312.606	0.113	625212	keystroke_a	a	n/a
312.7075	0.146	625415	keystroke_n	n	n/a
312.7995	0.1445	625599	keystroke_Key.space	Key.space	n/a
312.9665	0.146	625933	keystroke_a	a	n/a
313.079	0.067	626158	keystroke_u	u	n/a
313.2145	0.1115	626429	keystroke_t	t	n/a
313.27	0.101	626540	keystroke_h	h	n/a
313.3715	0.1345	626743	keystroke_o	o	n/a
313.5175	0.0895	627035	keystroke_r	r	n/a
313.6185	0.1015	627237	keystroke_i	i	n/a
313.7535	0.0795	627507	keystroke_z	z	n/a
313.945	0.1575	627890	keystroke_a	a	n/a
314.035	0.146	628070	keystroke_t	t	n/a
314.1245	0.214	628249	keystroke_i	i	n/a
314.17	0.18	628340	keystroke_o	o	n/a
314.238	0.168	628476	keystroke_n	n	n/a
314.328	0.1575	628656	keystroke_Key.space	Key.space	n/a
314.406	0.135	628812	keystroke_s	s	n/a
314.496	0.1125	628992	keystroke_e	e	n/a
314.71	0.0785	629420	keystroke_x	x	n/a
314.8	0.1235	629600	keystroke_u	u	n/a
314.935	0.135	629870	keystroke_a	a	n/a
315.025	0.1685	630050	keystroke_l	l	n/a
315.126	0.1125	630252	keystroke_i	i	n/a
315.2725	0.101	630545	keystroke_t	t	n/a
315.3845	0.0805	630769	keystroke_y	y	n/a
315.5985	0.09	631197	keystroke_Key.enter	Key.enter	n/a
315.692	5.375	631384	prompt	n/a	lucas drinking compatibility signal\n
316.3185	0.1575	632637	keystroke_l	l	n/a
316.42	0.146	632840	keystroke_u	u	n/a
316.51	0.1235	633020	keystroke_c	c	n/a
316.69	0.135	633380	keystroke_a	a	n/a
316.7575	0.1235	633515	keystroke_s	s	n/a
316.9035	0.1465	633807	keystroke_Key.space	Key.space	n/a
317.016	0.1015	634032	keystroke_d	d	n/a
317.196	0.1355	634392	keystroke_r	r	n/a
317.286	0.113	634572	keystroke_i	i	n/a
317.376	0.1915	634752	keystroke_n	n	n/a
317.556	0.034	635112	keystroke_k	k	n/a
317.7025	0.1125	635405	keystroke_i	i	n/a
317.7585	0.124	635517	keystroke_n	n	n/a
317.838	0.1115	635676	keystroke_g	g	n/a
317.9275	0.169	635855	keystroke_Key.space	Key.space	n/a
318.096	0.09	636192	keystroke_c	c	n/a
318.153	0.2245	636306	keystroke_o	o	n/a
318.2085	0.1575	636417	keystroke_m	m	n/a
318.3105	0.1455	636621	keystroke_p	p	n/a
318.3885	0.124	636777	keystroke_a	a	n/a
318.4785	0.1025	636957	keystroke_t	t	n/a
318.625	0.1125	637250	keystroke_i	i	n/a
318.771	0.135	637542	keystroke_b	b	n/a
318.8835	0.115	637767	keystroke_i	i	n/a
319.0075	0.18	638015	keystroke_l	l	n/a
319.1085	0.1245	638217	keystroke_i	i	n/a
319.2435	0.102	638487	keystroke_t	t	n/a
319.3455	0.157	638691	keystroke_y	y	n/a
319.4355	0.146	638871	keystroke_Key.space	Key.space	n/a
319.966	0.0875	639932	keystroke_s	s	n/a
320.065	0.1125	640130	keystroke_i	i	n/a
320.166	0.1125	640332	keystroke_g	g	n/a
320.29	0.146	640580	keystroke_n	n	n/a
320.516	0.1675	641032	keystroke_a	a	n/a
320.718	0.146	641436	keystroke_l	l	n/a
320.9875	0.0785	641975	keystroke_Key.enter	Key.enter	n/a
321.07	4.5195	642140	prompt	n/a	socket cdna richards fighting\n
321.697	0.134	643394	keystroke_s	s	n/a
321.8985	0.102	643797	keystroke_o	o	n/a
322.045	0.1125	644090	keystroke_c	c	n/a
322.1485	0.134	644297	keystroke_k	k	n/a
322.2925	0.146	644585	keystroke_e	e	n/a
322.3935	0.124	644787	keystroke_t	t	n/a
322.5285	0.1575	645057	keystroke_Key.space	Key.space	n/a
322.833	0.078	645666	keystroke_c	c	n/a
323.035	0.0805	646070	keystroke_d	d	n/a
323.181	0.1125	646362	keystroke_n	n	n/a
323.3275	0.1235	646655	keystroke_a	a	n/a
323.44	0.1575	646880	keystroke_Key.space	Key.space	n/a
323.62	0.101	647240	keystroke_r	r	n/a
323.7435	0.102	647487	keystroke_i	i	n/a
323.845	0.09	647690	keystroke_c	c	n/a
323.9575	0.124	647915	keystroke_h	h	n/a
324.059	0.1125	648118	keystroke_a	a	n/a
324.1375	0.2025	648275	keystroke_r	r	n/a
324.239	0.146	648478	keystroke_d	d	n/a
324.3285	0.079	648657	keystroke_s	s	n/a
324.4185	0.1125	648837	keystroke_Key.space	Key.space	n/a
324.5425	0.101	649085	keystroke_f	f	n/a
324.655	0.09	649310	keystroke_i	i	n/a
324.756	0.1015	649512	keystroke_g	g	n/a
324.8485	0.155	649697	keystroke_h	h	n/a
324.9925	0.1125	649985	keystroke_t	t	n/a
325.1275	0.1235	650255	keystroke_i	i	n/a
325.195	0.136	650390	keystroke_n	n	n/a
325.331	0.0775	650662	keystroke_g	g	n/a
325.476	0.1125	650952	keystroke_Key.enter	Key.enter	n/a
325.5925	4.497	651185	prompt	n/a	powered police such commonly\n
326.331	0.1245	652662	keystroke_p	p	n/a
326.4325	0.18	652865	keystroke_o	o	n/a
326.5455	0.1365	653091	keystroke_w	w	n/a
326.6235	0.147	653247	keystroke_e	e	n/a
326.7255	0.202	653451	keystroke_r	r	n/a
326.86	0.1125	653720	keystroke_e	e	n/a
327.098	0.043	654196	keystroke_d	d	n/a
327.2085	0.135	654417	keystroke_Key.space	Key.space	n/a
327.2985	0.1575	654597	keystroke_p	p	n/a
327.3885	0.09	654777	keystroke_o	o	n/a
327.6025	0.203	655205	keystroke_l	l	n/a
327.715	0.135	655430	keystroke_i	i	n/a
327.8385	0.09	655677	keystroke_c	c	n/a
328.0305	0.09	656061	keystroke_e	e	n/a
328.1875	0.0795	656375	keystroke_Key.space	Key.space	n/a
328.3335	0.135	656667	keystroke_s	s	n/a
328.4805	0.09	656961	keystroke_u	u	n/a
328.6035	0.124	657207	keystroke_c	c	n/a
328.7055	0.1345	657411	keystroke_h	h	n/a
328.8175	0.09	657635	keystroke_Key.space	Key.space	n/a
328.9185	0.113	657837	keystroke_c	c	n/a
329.0205	0.112	658041	keystroke_o	o	n/a
329.076	0.1015	658152	keystroke_m	m	n/a
329.268	0.08	658536	keystroke_m	m	n/a
329.391	0.124	658782	keystroke_o	o	n/a
329.481	0.1015	658962	keystroke_n	n	n/a
329.661	0.1465	659322	keystroke_l	l	n/a
329.751	0.1015	659502	keystroke_y	y	n/a
329.9985	0.09	659997	keystroke_Key.enter	Key.enter	n/a
330.0925	6.657	660185	prompt	n/a	retrieved that's conjunction marilyn\n
330.82	0.09	661640	keystroke_r	r	n/a
330.989	0.146	661978	keystroke_e	e	n/a
331.2025	0.1015	662405	keystroke_t	t	n/a
331.405	0.135	662810	keystroke_r	r	n/a
331.664	0.1235	663328	keystroke_i	i	n/a
331.81	0.135	663620	keystroke_e	e	n/a
332.035	0.135	664070	keystroke_v	v	n/a
332.1815	0.068	664363	keystroke_e	e	n/a
332.361	0.0565	664722	keystroke_d	d	n/a
332.519	0.0785	665038	keystroke_Key.space	Key.space	n/a
332.575	0.124	665150	keystroke_t	t	n/a
332.699	0.1125	665398	keystroke_h	h	n/a
332.755	0.169	665510	keystroke_a	a	n/a
332.8335	0.1485	665667	keystroke_t	t	n/a
332.969	0.0795	665938	keystroke_'	'	n/a
333.07	0.09	666140	keystroke_s	s	n/a
333.1825	0.135	666365	keystroke_Key.space	Key.space	n/a
333.3285	0.09	666657	keystroke_c	c	n/a
333.3735	0.124	666747	keystroke_o	o	n/a
333.4415	0.101	666883	keystroke_n	n	n/a
333.6665	0.067	667333	keystroke_j	j	n/a
333.848	0.0545	667696	keystroke_u	u	n/a
334.026	0.09	668052	keystroke_n	n	n/a
334.195	0.09	668390	keystroke_c	c	n/a
334.3975	0.09	668795	keystroke_t	t	n/a
334.4875	0.227	668975	keystroke_i	i	n/a
334.555	0.1595	669110	keystroke_o	o	n/a
334.6345	0.123	669269	keystroke_n	n	n/a
334.724	0.1125	669448	keystroke_Key.space	Key.space	n/a
334.848	0.1345	669696	keystroke_m	m	n/a
335.016	0.1915	670032	keystroke_a	a	n/a
335.241	0.135	670482	keystroke_r	r	n/a
335.7585	0.135	671517	keystroke_i	i	n/a
335.995	0.1125	671990	keystroke_l	l	n/a
336.243	0.09	672486	keystroke_y	y	n/a
336.4335	0.1015	672867	keystroke_n	n	n/a
336.6705	0.078	673341	keystroke_Key.enter	Key.enter	n/a
336.7525	4.047	673505	prompt	n/a	choose aged gradually morris\n
337.491	0.102	674982	keystroke_c	c	n/a
337.548	0.101	675096	keystroke_h	h	n/a
337.615	0.0905	675230	keystroke_o	o	n/a
337.8065	0.101	675613	keystroke_o	o	n/a
337.897	0.1115	675794	keystroke_s	s	n/a
337.941	0.09	675882	keystroke_e	e	n/a
338.0535	0.158	676107	keystroke_Key.space	Key.space	n/a
338.1325	0.1235	676265	keystroke_a	a	n/a
338.2115	0.137	676423	keystroke_g	g	n/a
338.3575	0.0905	676715	keystroke_e	e	n/a
338.549	0.079	677098	keystroke_d	d	n/a
338.706	0.135	677412	keystroke_Key.space	Key.space	n/a
338.764	0.089	677528	keystroke_g	g	n/a
338.9535	0.124	677907	keystroke_r	r	n/a
339.066	0.135	678132	keystroke_a	a	n/a
339.145	0.1125	678290	keystroke_d	d	n/a
339.2685	0.09	678537	keystroke_u	u	n/a
339.393	0.1005	678786	keystroke_a	a	n/a
339.471	0.0795	678942	keystroke_l	l	n/a
339.674	0.157	679348	keystroke_l	l	n/a
339.73	0.1235	679460	keystroke_y	y	n/a
339.8205	0.123	679641	keystroke_Key.space	Key.space	n/a
339.9555	0.135	679911	keystroke_m	m	n/a
340.0335	0.135	680067	keystroke_o	o	n/a
340.18	0.079	680360	keystroke_r	r	n/a
340.36	0.0905	680720	keystroke_r	r	n/a
340.4505	0.1005	680901	keystroke_i	i	n/a
340.5645	0.101	681129	keystroke_s	s	n/a
340.686	0.1125	681372	keystroke_Key.enter	Key.enter	n/a
340.8025	3.88	681605	prompt	n/a	mass sword milk currently\n
341.4645	0.1105	682929	keystroke_m	m	n/a
341.565	0.1225	683130	keystroke_a	a	n/a
341.62	0.09	683240	keystroke_s	s	n/a
341.8115	0.112	683623	keystroke_s	s	n/a
341.914	0.168	683828	keystroke_Key.space	Key.space	n/a
342.0585	0.068	684117	keystroke_s	s	n/a
342.239	0.1345	684478	keystroke_w	w	n/a
342.385	0.1125	684770	keystroke_o	o	n/a
342.475	0.1685	684950	keystroke_r	r	n/a
342.576	0.1015	685152	keystroke_d	d	n/a
342.666	0.135	685332	keystroke_Key.space	Key.space	n/a
342.745	0.18	685490	keystroke_m	m	n/a
342.9025	0.1465	685805	keystroke_i	i	n/a
343.0375	0.2365	686075	keystroke_l	l	n/a
343.195	0.1575	686390	keystroke_k	k	n/a
343.3305	0.1235	686661	keystroke_Key.space	Key.space	n/a
343.476	0.0905	686952	keystroke_c	c	n/a
343.5775	0.09	687155	keystroke_u	u	n/a
343.69	0.079	687380	keystroke_r	r	n/a
343.8925	0.1015	687785	keystroke_r	r	n/a
343.949	0.101	687898	keystroke_e	e	n/a
344.039	0.1125	688078	keystroke_n	n	n/a
344.1625	0.1125	688325	keystroke_t	t	n/a
344.2415	0.1685	688483	keystroke_l	l	n/a
344.3425	0.1015	688685	keystroke_y	y	n/a
344.581	0.1	689162	keystroke_Key.enter	Key.enter	n/a
344.6855	6.003	689371	prompt	n/a	bridal municipality present featuring\n
345.4335	0.0805	690867	keystroke_b	b	n/a
345.6365	0.1125	691273	keystroke_r	r	n/a
345.7605	0.1005	691521	keystroke_i	i	n/a
345.8505	0.1575	691701	keystroke_d	d	n/a
345.9965	0.135	691993	keystroke_a	a	n/a
346.0975	0.1125	692195	keystroke_l	l	n/a
346.1425	0.158	692285	keystroke_Key.space	Key.space	n/a
346.278	0.103	692556	keystroke_m	m	n/a
346.5145	0.0555	693029	keystroke_u	u	n/a
346.6825	0.135	693365	keystroke_n	n	n/a
346.8295	0.0895	693659	keystroke_i	i	n/a
347.0765	0.1125	694153	keystroke_c	c	n/a
347.2115	0.1235	694423	keystroke_i	i	n/a
347.4365	0.1235	694873	keystroke_p	p	n/a
347.605	0.169	695210	keystroke_a	a	n/a
347.74	0.169	695480	keystroke_l	l	n/a
347.8525	0.1015	695705	keystroke_i	i	n/a
348.01	0.124	696020	keystroke_t	t	n/a
348.1	0.124	696200	keystroke_y	y	n/a
348.179	0.146	696358	keystroke_Key.space	Key.space	n/a
348.539	0.135	697078	keystroke_p	p	n/a
348.6065	0.1575	697213	keystroke_r	r	n/a
348.685	0.1465	697370	keystroke_e	e	n/a
348.843	0.2135	697686	keystroke_s	s	n/a
348.9665	0.124	697933	keystroke_e	e	n/a
349.114	0.1225	698228	keystroke_n	n	n/a
349.2495	0.077	698499	keystroke_t	t	n/a
349.315	0.181	698630	keystroke_Key.space	Key.space	n/a
349.4615	0.147	698923	keystroke_f	f	n/a
349.563	0.1235	699126	keystroke_e	e	n/a
349.664	0.1915	699328	keystroke_a	a	n/a
349.7765	0.1235	699553	keystroke_t	t	n/a
349.934	0.135	699868	keystroke_u	u	n/a
350.0915	0.1465	700183	keystroke_r	r	n/a
350.2265	0.146	700453	keystroke_i	i	n/a
350.294	0.146	700588	keystroke_n	n	n/a
350.431	0.1105	700862	keystroke_g	g	n/a
350.575	0.1125	701150	keystroke_Key.enter	Key.enter	n/a
350.6915	4.24	701383	prompt	n/a	lots tribune reaction barbie\n
351.3065	0.1015	702613	keystroke_l	l	n/a
351.5315	0.09	703063	keystroke_o	o	n/a
351.644	0.1355	703288	keystroke_t	t	n/a
351.723	0.112	703446	keystroke_s	s	n/a
351.7905	0.1795	703581	keystroke_Key.space	Key.space	n/a
351.9365	0.1015	703873	keystroke_t	t	n/a
352.139	0.1015	704278	keystroke_r	r	n/a
352.235	0.096	704470	keystroke_i	i	n/a
352.3755	0.1235	704751	keystroke_b	b	n/a
352.4765	0.101	704953	keystroke_u	u	n/a
352.6905	0.101	705381	keystroke_n	n	n/a
352.78	0.0905	705560	keystroke_e	e	n/a
352.904	0.1465	705808	keystroke_Key.space	Key.space	n/a
353.0055	0.1685	706011	keystroke_r	r	n/a
353.0725	0.1465	706145	keystroke_e	e	n/a
353.185	0.1015	706370	keystroke_a	a	n/a
353.365	0.113	706730	keystroke_c	c	n/a
353.546	0.123	707092	keystroke_t	t	n/a
353.6575	0.2255	707315	keystroke_i	i	n/a
353.7365	0.169	707473	keystroke_o	o	n/a
353.7925	0.18	707585	keystroke_n	n	n/a
353.8715	0.159	707743	keystroke_Key.space	Key.space	n/a
353.984	0.09	707968	keystroke_b	b	n/a
354.2205	0.067	708441	keystroke_a	a	n/a
354.2355	0.086	708471	keystroke_r	r	n/a
354.4455	0.112	708891	keystroke_b	b	n/a
354.569	0.1125	709138	keystroke_i	i	n/a
354.704	0.079	709408	keystroke_e	e	n/a
354.8165	0.114	709633	keystroke_Key.enter	Key.enter	n/a
354.9345	5.058	709869	prompt	n/a	created copyrighted dylan plug\n
355.9075	0.079	711815	keystroke_c	c	n/a
356.11	0.169	712220	keystroke_r	r	n/a
356.2	0.135	712400	keystroke_e	e	n/a
356.346	0.124	712692	keystroke_a	a	n/a
356.414	0.146	712828	keystroke_t	t	n/a
356.4925	0.1015	712985	keystroke_e	e	n/a
356.7065	0.0915	713413	keystroke_d	d	n/a
356.8865	0.1125	713773	keystroke_Key.space	Key.space	n/a
356.9425	0.1465	713885	keystroke_c	c	n/a
357.0665	0.1355	714133	keystroke_o	o	n/a
357.224	0.1575	714448	keystroke_p	p	n/a
357.314	0.1125	714628	keystroke_y	y	n/a
357.505	0.135	715010	keystroke_r	r	n/a
357.674	0.101	715348	keystroke_i	i	n/a
357.764	0.1125	715528	keystroke_g	g	n/a
357.8875	0.1235	715775	keystroke_h	h	n/a
358	0.124	716000	keystroke_t	t	n/a
358.0795	0.0895	716159	keystroke_e	e	n/a
358.27	0.0905	716540	keystroke_d	d	n/a
358.383	0.1145	716766	keystroke_Key.space	Key.space	n/a
358.5305	0.1	717061	keystroke_d	d	n/a
358.6415	0.101	717283	keystroke_y	y	n/a
358.844	0.102	717688	keystroke_l	l	n/a
358.9565	0.1235	717913	keystroke_a	a	n/a
359.069	0.1235	718138	keystroke_n	n	n/a
359.159	0.135	718318	keystroke_Key.space	Key.space	n/a
359.305	0.1015	718610	keystroke_p	p	n/a
359.5305	0.146	719061	keystroke_l	l	n/a
359.632	0.112	719264	keystroke_u	u	n/a
359.755	0.0905	719510	keystroke_g	g	n/a
359.879	0.1125	719758	keystroke_Key.enter	Key.enter	n/a
359.9955	3.698	719991	prompt	n/a	ring comm hugh prepared\n
360.7675	0.135	721535	keystroke_r	r	n/a
360.959	0.191	721918	keystroke_i	i	n/a
361.072	0.1345	722144	keystroke_n	n	n/a
361.184	0.09	722368	keystroke_g	g	n/a
361.285	0.1465	722570	keystroke_Key.space	Key.space	n/a
361.42	0.1125	722840	keystroke_c	c	n/a
361.499	0.1135	722998	keystroke_o	o	n/a
361.5775	0.0685	723155	keystroke_m	m	n/a
361.7465	0.135	723493	keystroke_m	m	n/a
361.904	0.1125	723808	keystroke_Key.space	Key.space	n/a
362.0635	0.1105	724127	keystroke_h	h	n/a
362.2525	0.0905	724505	keystroke_u	u	n/a
362.399	0.09	724798	keystroke_g	g	n/a
362.479	0.1115	724958	keystroke_h	h	n/a
362.5675	0.1125	725135	keystroke_Key.space	Key.space	n/a
362.669	0.101	725338	keystroke_p	p	n/a
362.748	0.1235	725496	keystroke_r	r	n/a
362.8265	0.1375	725653	keystroke_e	e	n/a
362.939	0.1465	725878	keystroke_p	p	n/a
363.074	0.124	726148	keystroke_a	a	n/a
363.153	0.157	726306	keystroke_r	r	n/a
363.2315	0.1235	726463	keystroke_e	e	n/a
363.4565	0.1235	726913	keystroke_d	d	n/a
363.569	0.1235	727138	keystroke_Key.enter	Key.enter	n/a
363.697	5.217	727394	prompt	n/a	factors declaration sample maximize\n
364.4465	0.158	728893	keystroke_f	f	n/a
364.593	0.1125	729186	keystroke_a	a	n/a
364.739	0.135	729478	keystroke_c	c	n/a
364.964	0.0675	729928	keystroke_t	t	n/a
365.065	0.1015	730130	keystroke_o	o	n/a
365.144	0.146	730288	keystroke_r	r	n/a
365.2225	0.135	730445	keystroke_s	s	n/a
365.324	0.135	730648	keystroke_Key.space	Key.space	n/a
365.4025	0.09	730805	keystroke_d	d	n/a
365.594	0.069	731188	keystroke_e	e	n/a
365.774	0.09	731548	keystroke_c	c	n/a
365.8865	0.146	731773	keystroke_l	l	n/a
365.999	0.1235	731998	keystroke_a	a	n/a
366.0665	0.135	732133	keystroke_r	r	n/a
366.2465	0.146	732493	keystroke_a	a	n/a
366.359	0.1235	732718	keystroke_t	t	n/a
366.4715	0.2365	732943	keystroke_i	i	n/a
366.539	0.1465	733078	keystroke_o	o	n/a
366.6065	0.135	733213	keystroke_n	n	n/a
366.697	0.112	733394	keystroke_Key.space	Key.space	n/a
366.764	0.146	733528	keystroke_s	s	n/a
366.9215	0.124	733843	keystroke_a	a	n/a
366.989	0.135	733978	keystroke_m	m	n/a
367.068	0.101	734136	keystroke_p	p	n/a
367.2705	0.101	734541	keystroke_l	l	n/a
367.405	0.1015	734810	keystroke_e	e	n/a
367.5065	0.1575	735013	keystroke_Key.space	Key.space	n/a
367.7425	0.137	735485	keystroke_m	m	n/a
367.889	0.0785	735778	keystroke_a	a	n/a
368.0915	0.124	736183	keystroke_x	x	n/a
368.182	0.123	736364	keystroke_i	i	n/a
368.272	0.18	736544	keystroke_m	m	n/a
368.4065	0.146	736813	keystroke_i	i	n/a
368.5415	0.1575	737083	keystroke_z	z	n/a
368.6425	0.1245	737285	keystroke_e	e	n/a
368.7895	0.123	737579	keystroke_Key.enter	Key.enter	n/a
368.9165	5.6675	737833	prompt	n/a	instantly rely seriously yesterday\n
369.633	0.1345	739266	keystroke_i	i	n/a
369.6895	0.146	739379	keystroke_n	n	n/a
369.982	0.135	739964	keystroke_s	s	n/a
370.094	0.1235	740188	keystroke_t	t	n/a
370.2405	0.1795	740481	keystroke_a	a	n/a
370.432	0.149	740864	keystroke_n	n	n/a
370.5895	0.1005	741179	keystroke_t	t	n/a
370.7805	0.1795	741561	keystroke_l	l	n/a
370.8595	0.1125	741719	keystroke_y	y	n/a
371.1065	0.1915	742213	keystroke_Key.space	Key.space	n/a
371.2865	0.135	742573	keystroke_r	r	n/a
371.3655	0.1145	742731	keystroke_e	e	n/a
371.489	0.1915	742978	keystroke_l	l	n/a
371.5675	0.1465	743135	keystroke_y	y	n/a
371.658	0.112	743316	keystroke_Key.space	Key.space	n/a
372.063	0.191	744126	keystroke_s	s	n/a
372.164	0.1685	744328	keystroke_e	e	n/a
372.3215	0.1685	744643	keystroke_r	r	n/a
372.5015	0.214	745003	keystroke_i	i	n/a
372.569	0.1575	745138	keystroke_o	o	n/a
372.659	0.124	745318	keystroke_u	u	n/a
372.794	0.1125	745588	keystroke_s	s	n/a
372.884	0.169	745768	keystroke_l	l	n/a
372.963	0.124	745926	keystroke_y	y	n/a
373.019	0.1235	746038	keystroke_Key.space	Key.space	n/a
373.233	0.1135	746466	keystroke_y	y	n/a
373.3135	0.178	746627	keystroke_e	e	n/a
373.4355	0.1685	746871	keystroke_s	s	n/a
373.5595	0.1235	747119	keystroke_t	t	n/a
373.6955	0.1445	747391	keystroke_e	e	n/a
373.8065	0.203	747613	keystroke_r	r	n/a
373.9755	0.1575	747951	keystroke_d	d	n/a
374.0765	0.1575	748153	keystroke_a	a	n/a
374.2005	0.1125	748401	keystroke_y	y	n/a
374.4475	0.1355	748895	keystroke_Key.enter	Key.enter	n/a
374.5885	5.2155	749177	prompt	n/a	who newfoundland resolved science\n
375.483	0.09	750966	keystroke_w	w	n/a
375.517	0.146	751034	keystroke_h	h	n/a
375.618	0.124	751236	keystroke_o	o	n/a
375.697	0.135	751394	keystroke_Key.space	Key.space	n/a
375.945	0.123	751890	keystroke_n	n	n/a
376.0345	0.202	752069	keystroke_e	e	n/a
376.1465	0.135	752293	keystroke_w	w	n/a
376.383	0.1235	752766	keystroke_f	f	n/a
376.462	0.1235	752924	keystroke_o	o	n/a
376.53	0.112	753060	keystroke_u	u	n/a
376.732	0.1005	753464	keystroke_n	n	n/a
376.8215	0.113	753643	keystroke_d	d	n/a
376.9455	0.1125	753891	keystroke_l	l	n/a
377.069	0.1125	754138	keystroke_a	a	n/a
377.1705	0.112	754341	keystroke_n	n	n/a
377.249	0.09	754498	keystroke_d	d	n/a
377.373	0.146	754746	keystroke_Key.space	Key.space	n/a
377.508	0.146	755016	keystroke_r	r	n/a
377.5865	0.1585	755173	keystroke_e	e	n/a
377.6765	0.124	755353	keystroke_s	s	n/a
377.789	0.1015	755578	keystroke_o	o	n/a
378.014	0.135	756028	keystroke_l	l	n/a
378.093	0.1405	756186	keystroke_v	v	n/a
378.1715	0.0905	756343	keystroke_e	e	n/a
378.363	0.1125	756726	keystroke_d	d	n/a
378.509	0.1125	757018	keystroke_Key.space	Key.space	n/a
378.6105	0.0785	757221	keystroke_s	s	n/a
378.8015	0.1125	757603	keystroke_c	c	n/a
378.9365	0.1015	757873	keystroke_i	i	n/a
379.049	0.101	758098	keystroke_e	e	n/a
379.139	0.1465	758278	keystroke_n	n	n/a
379.2975	0.134	758595	keystroke_c	c	n/a
379.545	0.09	759090	keystroke_e	e	n/a
379.668	0.135	759336	keystroke_Key.enter	Key.enter	n/a
379.8065	4.3735	759613	prompt	n/a	attack years today beautifully\n
380.4555	0.1465	760911	keystroke_a	a	n/a
380.5905	0.0785	761181	keystroke_t	t	n/a
380.793	0.1125	761586	keystroke_t	t	n/a
380.8495	0.1235	761699	keystroke_a	a	n/a
381.1645	0.0225	762329	keystroke_c	c	n/a
381.1755	0.1125	762351	keystroke_k	k	n/a
381.2545	0.146	762509	keystroke_Key.space	Key.space	n/a
381.4125	0.112	762825	keystroke_y	y	n/a
381.4795	0.1345	762959	keystroke_e	e	n/a
381.6255	0.1575	763251	keystroke_a	a	n/a
381.7155	0.1575	763431	keystroke_r	r	n/a
381.795	0.1455	763590	keystroke_s	s	n/a
381.974	0.0905	763948	keystroke_Key.space	Key.space	n/a
382.0305	0.135	764061	keystroke_t	t	n/a
382.1765	0.137	764353	keystroke_o	o	n/a
382.2795	0.1335	764559	keystroke_d	d	n/a
382.368	0.146	764736	keystroke_a	a	n/a
382.4805	0.1125	764961	keystroke_y	y	n/a
382.548	0.1125	765096	keystroke_Key.space	Key.space	n/a
382.649	0.0795	765298	keystroke_b	b	n/a
382.8065	0.1465	765613	keystroke_e	e	n/a
382.908	0.124	765816	keystroke_a	a	n/a
383.009	0.1015	766018	keystroke_u	u	n/a
383.1465	0.11	766293	keystroke_t	t	n/a
383.2455	0.0905	766491	keystroke_i	i	n/a
383.3805	0.113	766761	keystroke_f	f	n/a
383.4485	0.123	766897	keystroke_u	u	n/a
383.549	0.102	767098	keystroke_l	l	n/a
383.763	0.1235	767526	keystroke_l	l	n/a
383.8305	0.113	767661	keystroke_y	y	n/a
384.089	0.09	768178	keystroke_Key.enter	Key.enter	n/a
384.183	5.163	768366	prompt	n/a	preliminary bottles plates operated\n
384.8765	0.1365	769753	keystroke_p	p	n/a
385.023	0.18	770046	keystroke_r	r	n/a
385.1465	0.1355	770293	keystroke_e	e	n/a
385.3945	0.146	770789	keystroke_l	l	n/a
385.4955	0.146	770991	keystroke_i	i	n/a
385.5965	0.1465	771193	keystroke_m	m	n/a
385.754	0.18	771508	keystroke_i	i	n/a
385.8455	0.156	771691	keystroke_n	n	n/a
386.047	0.146	772094	keystroke_a	a	n/a
386.1365	0.1265	772273	keystroke_r	r	n/a
386.2155	0.135	772431	keystroke_y	y	n/a
386.328	0.101	772656	keystroke_Key.space	Key.space	n/a
386.463	0.1125	772926	keystroke_b	b	n/a
386.564	0.1125	773128	keystroke_o	o	n/a
386.7115	0.078	773423	keystroke_t	t	n/a
386.9015	0.0675	773803	keystroke_t	t	n/a
386.9805	0.1235	773961	keystroke_l	l	n/a
387.0705	0.18	774141	keystroke_e	e	n/a
387.183	0.1465	774366	keystroke_s	s	n/a
387.2955	0.135	774591	keystroke_Key.space	Key.space	n/a
387.487	0.101	774974	keystroke_p	p	n/a
387.6665	0.1465	775333	keystroke_l	l	n/a
387.7905	0.0675	775581	keystroke_a	a	n/a
387.8465	0.203	775693	keystroke_t	t	n/a
387.948	0.1805	775896	keystroke_e	e	n/a
388.027	0.1235	776054	keystroke_s	s	n/a
388.1395	0.146	776279	keystroke_Key.space	Key.space	n/a
388.233	0.1985	776466	keystroke_o	o	n/a
388.3415	0.1575	776683	keystroke_p	p	n/a
388.4205	0.159	776841	keystroke_e	e	n/a
388.513	0.1555	777026	keystroke_r	r	n/a
388.6685	0.1455	777337	keystroke_a	a	n/a
388.7695	0.1685	777539	keystroke_t	t	n/a
388.8705	0.091	777741	keystroke_e	e	n/a
389.084	0.1015	778168	keystroke_d	d	n/a
389.2305	0.1125	778461	keystroke_Key.enter	Key.enter	n/a
389.349	5.4175	778698	prompt	n/a	reasonable extremely fighter shopping\n
390.153	0.1595	780306	keystroke_r	r	n/a
390.2205	0.1255	780441	keystroke_e	e	n/a
390.346	0.167	780692	keystroke_a	a	n/a
390.4565	0.124	780913	keystroke_s	s	n/a
390.569	0.169	781138	keystroke_o	o	n/a
390.648	0.135	781296	keystroke_n	n	n/a
390.749	0.1125	781498	keystroke_a	a	n/a
390.8505	0.1235	781701	keystroke_b	b	n/a
390.9745	0.135	781949	keystroke_l	l	n/a
391.109	0.069	782218	keystroke_e	e	n/a
391.188	0.1685	782376	keystroke_Key.space	Key.space	n/a
391.334	0.0675	782668	keystroke_e	e	n/a
391.503	0.146	783006	keystroke_x	x	n/a
391.6615	0.1	783323	keystroke_t	t	n/a
391.886	0.1595	783772	keystroke_r	r	n/a
391.9865	0.1125	783973	keystroke_e	e	n/a
392.1215	0.113	784243	keystroke_m	m	n/a
392.2465	0.1115	784493	keystroke_e	e	n/a
392.3465	0.18	784693	keystroke_l	l	n/a
392.4255	0.137	784851	keystroke_y	y	n/a
392.493	0.09	784986	keystroke_Key.space	Key.space	n/a
392.6055	0.1125	785211	keystroke_f	f	n/a
392.729	0.079	785458	keystroke_i	i	n/a
392.819	0.09	785638	keystroke_g	g	n/a
392.9095	0.1235	785819	keystroke_h	h	n/a
393.0215	0.113	786043	keystroke_t	t	n/a
393.18	0.1455	786360	keystroke_e	e	n/a
393.258	0.1465	786516	keystroke_r	r	n/a
393.4615	0.134	786923	keystroke_Key.space	Key.space	n/a
393.5955	0.1235	787191	keystroke_s	s	n/a
393.6965	0.1355	787393	keystroke_h	h	n/a
393.798	0.18	787596	keystroke_o	o	n/a
393.9455	0.1	787891	keystroke_p	p	n/a
394.169	0.1465	788338	keystroke_p	p	n/a
394.304	0.169	788608	keystroke_i	i	n/a
394.383	0.1465	788766	keystroke_n	n	n/a
394.4965	0.1115	788993	keystroke_g	g	n/a
394.642	0.1235	789284	keystroke_Key.enter	Key.enter	n/a
394.7695	4.171	789539	prompt	n/a	applies published image pdas\n
395.4065	0.124	790813	keystroke_a	a	n/a
395.5195	0.09	791039	keystroke_p	p	n/a
395.7125	0.0995	791425	keystroke_p	p	n/a
395.936	0.1915	791872	keystroke_l	l	n/a
396.0255	0.1575	792051	keystroke_i	i	n/a
396.138	0.1575	792276	keystroke_e	e	n/a
396.2335	0.1185	792467	keystroke_s	s	n/a
396.3405	0.1235	792681	keystroke_Key.space	Key.space	n/a
396.453	0.1685	792906	keystroke_p	p	n/a
396.554	0.125	793108	keystroke_u	u	n/a
396.7005	0.101	793401	keystroke_b	b	n/a
396.7905	0.18	793581	keystroke_l	l	n/a
396.8915	0.124	793783	keystroke_i	i	n/a
397.0275	0.1005	794055	keystroke_s	s	n/a
397.1395	0.1235	794279	keystroke_h	h	n/a
397.2405	0.09	794481	keystroke_e	e	n/a
397.443	0.09	794886	keystroke_d	d	n/a
397.545	0.1345	795090	keystroke_Key.space	Key.space	n/a
397.6345	0.1685	795269	keystroke_i	i	n/a
397.713	0.1575	795426	keystroke_m	m	n/a
397.8145	0.101	795629	keystroke_a	a	n/a
397.9045	0.1465	795809	keystroke_g	g	n/a
397.9945	0.112	795989	keystroke_e	e	n/a
398.118	0.1465	796236	keystroke_Key.space	Key.space	n/a
398.3095	0.1465	796619	keystroke_p	p	n/a
398.446	0.1	796892	keystroke_d	d	n/a
398.5795	0.146	797159	keystroke_a	a	n/a
398.6695	0.1235	797339	keystroke_s	s	n/a
398.828	0.1115	797656	keystroke_Key.enter	Key.enter	n/a
398.9435	4.835	797887	prompt	n/a	jerry residence mysterious pocket\n
399.6255	0.135	799251	keystroke_j	j	n/a
399.772	0.1345	799544	keystroke_e	e	n/a
399.8505	0.101	799701	keystroke_r	r	n/a
400.042	0.1125	800084	keystroke_r	r	n/a
400.145	0.1105	800290	keystroke_y	y	n/a
400.2105	0.1125	800421	keystroke_Key.space	Key.space	n/a
400.29	0.179	800580	keystroke_r	r	n/a
400.368	0.1575	800736	keystroke_e	e	n/a
400.458	0.1235	800916	keystroke_s	s	n/a
400.5705	0.135	801141	keystroke_i	i	n/a
400.6965	0.0995	801393	keystroke_d	d	n/a
400.897	0.079	801794	keystroke_e	e	n/a
400.987	0.1125	801974	keystroke_n	n	n/a
401.133	0.0675	802266	keystroke_c	c	n/a
401.3245	0.056	802649	keystroke_e	e	n/a
401.403	0.135	802806	keystroke_Key.space	Key.space	n/a
401.4705	0.1015	802941	keystroke_m	m	n/a
401.73	0.1005	803460	keystroke_y	y	n/a
401.7855	0.18	803571	keystroke_s	s	n/a
401.9325	0.1345	803865	keystroke_t	t	n/a
402.0895	0.2025	804179	keystroke_e	e	n/a
402.2025	0.1345	804405	keystroke_r	r	n/a
402.348	0.225	804696	keystroke_i	i	n/a
402.483	0.1575	804966	keystroke_o	o	n/a
402.5505	0.146	805101	keystroke_u	u	n/a
402.6745	0.1125	805349	keystroke_s	s	n/a
402.7755	0.1355	805551	keystroke_Key.space	Key.space	n/a
402.8445	0.145	805689	keystroke_p	p	n/a
403.0005	0.1575	806001	keystroke_o	o	n/a
403.1695	0.113	806339	keystroke_c	c	n/a
403.296	0.1325	806592	keystroke_k	k	n/a
403.4395	0.1685	806879	keystroke_e	e	n/a
403.552	0.1345	807104	keystroke_t	t	n/a
403.6755	0.102	807351	keystroke_Key.enter	Key.enter	n/a
403.7815	5.4755	807563	prompt	n/a	advertise lakes rotation trademarks\n
404.418	0.0675	808836	keystroke_a	a	n/a
404.801	0.09	809602	keystroke_d	d	n/a
404.992	0.0785	809984	keystroke_v	v	n/a
405.1285	0.122	810257	keystroke_e	e	n/a
405.217	0.09	810434	keystroke_r	r	n/a
405.5105	0.01	811021	keystroke_t	t	n/a
405.532	0.0785	811064	keystroke_i	i	n/a
405.622	0.135	811244	keystroke_s	s	n/a
405.701	0.101	811402	keystroke_e	e	n/a
405.768	0.18	811536	keystroke_Key.space	Key.space	n/a
405.8805	0.181	811761	keystroke_l	l	n/a
406.0045	0.0675	812009	keystroke_i	i	n/a
406.3645	0.101	812729	keystroke_Key.backspace	Key.backspace	n/a
406.5445	0.1125	813089	keystroke_a	a	n/a
406.646	0.112	813292	keystroke_k	k	n/a
406.736	0.1795	813472	keystroke_e	e	n/a
406.837	0.125	813674	keystroke_s	s	n/a
406.9285	0.1445	813857	keystroke_Key.space	Key.space	n/a
407.0955	0.0905	814191	keystroke_r	r	n/a
407.197	0.1015	814394	keystroke_o	o	n/a
407.3095	0.1125	814619	keystroke_t	t	n/a
407.456	0.157	814912	keystroke_a	a	n/a
407.5345	0.1235	815069	keystroke_t	t	n/a
407.6245	0.191	815249	keystroke_i	i	n/a
407.6805	0.124	815361	keystroke_o	o	n/a
407.737	0.192	815474	keystroke_n	n	n/a
407.795	0.167	815590	keystroke_Key.space	Key.space	n/a
407.9055	0.09	815811	keystroke_t	t	n/a
408.0975	0.112	816195	keystroke_r	r	n/a
408.176	0.135	816352	keystroke_a	a	n/a
408.288	0.09	816576	keystroke_d	d	n/a
408.48	0.078	816960	keystroke_e	e	n/a
408.5695	0.126	817139	keystroke_m	m	n/a
408.705	0.1345	817410	keystroke_a	a	n/a
408.783	0.135	817566	keystroke_r	r	n/a
408.8505	0.1125	817701	keystroke_k	k	n/a
409.008	0.137	818016	keystroke_s	s	n/a
409.1545	0.101	818309	keystroke_Key.enter	Key.enter	n/a
409.26	5.1605	818520	prompt	n/a	specifications these missions sustainable\n
409.886	0.135	819772	keystroke_s	s	n/a
410.0325	0.1345	820065	keystroke_p	p	n/a
410.122	0.0785	820244	keystroke_e	e	n/a
410.313	0.09	820626	keystroke_c	c	n/a
410.4255	0.09	820851	keystroke_i	i	n/a
410.5605	0.069	821121	keystroke_f	f	n/a
410.662	0.09	821324	keystroke_i	i	n/a
410.7855	0.09	821571	keystroke_c	c	n/a
410.944	0.134	821888	keystroke_a	a	n/a
411.0225	0.1125	822045	keystroke_t	t	n/a
411.1005	0.2025	822201	keystroke_i	i	n/a
411.18	0.1345	822360	keystroke_o	o	n/a
411.225	0.136	822450	keystroke_n	n	n/a
411.3255	0.1125	822651	keystroke_s	s	n/a
411.4285	0.122	822857	keystroke_Key.space	Key.space	n/a
411.483	0.0795	822966	keystroke_t	t	n/a
411.63	0.123	823260	keystroke_h	h	n/a
411.686	0.169	823372	keystroke_e	e	n/a
411.8205	0.2255	823641	keystroke_s	s	n/a
411.9675	0.123	823935	keystroke_e	e	n/a
412.0795	0.1235	824159	keystroke_Key.space	Key.space	n/a
412.1355	0.169	824271	keystroke_m	m	n/a
412.248	0.116	824496	keystroke_i	i	n/a
412.338	0.0675	824676	keystroke_s	s	n/a
412.518	0.09	825036	keystroke_s	s	n/a
412.597	0.2135	825194	keystroke_i	i	n/a
412.653	0.169	825306	keystroke_o	o	n/a
412.7205	0.135	825441	keystroke_n	n	n/a
412.7995	0.0785	825599	keystroke_s	s	n/a
412.912	0.1125	825824	keystroke_Key.space	Key.space	n/a
413.0135	0.067	826027	keystroke_s	s	n/a
413.1145	0.1235	826229	keystroke_u	u	n/a
413.2045	0.135	826409	keystroke_s	s	n/a
413.3285	0.146	826657	keystroke_t	t	n/a
413.4855	0.125	826971	keystroke_a	a	n/a
413.577	0.156	827154	keystroke_i	i	n/a
413.644	0.1455	827288	keystroke_n	n	n/a
413.7785	0.0785	827557	keystroke_a	a	n/a
413.9135	0.0445	827827	keystroke_b	b	n/a
413.9805	0.1145	827961	keystroke_l	l	n/a
414.1385	0.093	828277	keystroke_e	e	n/a
414.2845	0.135	828569	keystroke_Key.enter	Key.enter	n/a
414.423	4.1395	828846	prompt	n/a	spies little appears ultra\n
414.982	0.1125	829964	keystroke_s	s	n/a
415.0835	0.146	830167	keystroke_p	p	n/a
415.207	0.1235	830414	keystroke_i	i	n/a
415.3085	0.146	830617	keystroke_e	e	n/a
415.399	0.089	830798	keystroke_s	s	n/a
415.477	0.169	830954	keystroke_Key.space	Key.space	n/a
415.5785	0.1575	831157	keystroke_l	l	n/a
415.6795	0.09	831359	keystroke_i	i	n/a
415.747	0.056	831494	keystroke_t	t	n/a
415.9165	0.0555	831833	keystroke_t	t	n/a
415.9835	0.1235	831967	keystroke_l	l	n/a
416.073	0.1015	832146	keystroke_e	e	n/a
416.208	0.1025	832416	keystroke_Key.space	Key.space	n/a
416.287	0.1125	832574	keystroke_a	a	n/a
416.422	0.0675	832844	keystroke_p	p	n/a
416.602	0.101	833204	keystroke_p	p	n/a
416.6585	0.247	833317	keystroke_e	e	n/a
416.917	0.169	833834	keystroke_a	a	n/a
417.063	0.1575	834126	keystroke_r	r	n/a
417.3335	0.1345	834667	keystroke_s	s	n/a
417.536	0.1015	835072	keystroke_Key.space	Key.space	n/a
417.795	0.168	835590	keystroke_u	u	n/a
417.907	0.135	835814	keystroke_l	l	n/a
417.9975	0.1135	835995	keystroke_t	t	n/a
418.211	0.1685	836422	keystroke_r	r	n/a
418.323	0.1465	836646	keystroke_a	a	n/a
418.447	0.1145	836894	keystroke_Key.enter	Key.enter	n/a
418.5655	5.0575	837131	prompt	n/a	chubby stop handbags alaska\n
419.088	0.102	838176	keystroke_s	s	n/a
419.427	0.0555	838854	keystroke_Key.backspace	Key.backspace	n/a
419.6505	0.147	839301	keystroke_c	c	n/a
419.786	0.057	839572	keystroke_h	h	n/a
419.966	0.09	839932	keystroke_u	u	n/a
420.09	0.078	840180	keystroke_b	b	n/a
420.2805	0.0805	840561	keystroke_b	b	n/a
420.3705	0.091	840741	keystroke_y	y	n/a
420.405	0.135	840810	keystroke_Key.space	Key.space	n/a
420.5505	0.18	841101	keystroke_s	s	n/a
420.8995	0.1015	841799	keystroke_t	t	n/a
421.0455	0.192	842091	keystroke_o	o	n/a
421.1585	0.146	842317	keystroke_p	p	n/a
421.282	0.1575	842564	keystroke_Key.space	Key.space	n/a
421.473	0.1125	842946	keystroke_h	h	n/a
421.6195	0.1125	843239	keystroke_a	a	n/a
421.698	0.113	843396	keystroke_n	n	n/a
421.7995	0.079	843599	keystroke_d	d	n/a
422.002	0.135	844004	keystroke_b	b	n/a
422.2045	0.1245	844409	keystroke_a	a	n/a
422.2835	0.157	844567	keystroke_g	g	n/a
422.4295	0.09	844859	keystroke_s	s	n/a
422.5535	0.112	845107	keystroke_Key.space	Key.space	n/a
422.6785	0.111	845357	keystroke_a	a	n/a
422.7785	0.146	845557	keystroke_l	l	n/a
422.947	0.135	845894	keystroke_a	a	n/a
423.1045	0.101	846209	keystroke_s	s	n/a
423.217	0.135	846434	keystroke_k	k	n/a
423.3635	0.101	846727	keystroke_a	a	n/a
423.4985	0.1235	846997	keystroke_Key.enter	Key.enter	n/a
423.626	4.711	847252	prompt	n/a	brighton hong advert flood\n
424.1625	0.056	848325	keystroke_s	s	n/a
424.466	0.0785	848932	keystroke_Key.backspace	Key.backspace	n/a
424.5785	0.0895	849157	keystroke_b	b	n/a
424.8145	0.09	849629	keystroke_r	r	n/a
424.938	0.079	849876	keystroke_i	i	n/a
425.028	0.1015	850056	keystroke_g	g	n/a
425.1405	0.104	850281	keystroke_h	h	n/a
425.2535	0.1125	850507	keystroke_t	t	n/a
425.388	0.169	850776	keystroke_o	o	n/a
425.4445	0.124	850889	keystroke_n	n	n/a
425.5795	0.1575	851159	keystroke_Key.space	Key.space	n/a
425.681	0.135	851362	keystroke_h	h	n/a
425.8045	0.1575	851609	keystroke_o	o	n/a
425.8945	0.124	851789	keystroke_n	n	n/a
426.041	0.103	852082	keystroke_g	g	n/a
426.1195	0.203	852239	keystroke_Key.space	Key.space	n/a
426.322	0.135	852644	keystroke_a	a	n/a
426.4345	0.1585	852869	keystroke_d	d	n/a
426.6145	0.135	853229	keystroke_v	v	n/a
426.862	0.135	853724	keystroke_e	e	n/a
426.964	0.1125	853928	keystroke_r	r	n/a
427.177	0.1015	854354	keystroke_t	t	n/a
427.2895	0.1575	854579	keystroke_Key.space	Key.space	n/a
427.493	0.1115	854986	keystroke_f	f	n/a
427.6155	0.0565	855231	keystroke_l	l	n/a
427.796	0.056	855592	keystroke_o	o	n/a
427.9765	0.067	855953	keystroke_o	o	n/a
428.0545	0.135	856109	keystroke_d	d	n/a
428.2235	0.1125	856447	keystroke_Key.enter	Key.enter	n/a
428.3405	7.995	856681	prompt	n/a	landing divine inappropriate usual\n
428.9885	0.18	857977	keystroke_l	l	n/a
429.2695	0.1125	858539	keystroke_a	a	n/a
429.337	0.146	858674	keystroke_n	n	n/a
429.461	0.101	858922	keystroke_d	d	n/a
429.5735	0.124	859147	keystroke_i	i	n/a
429.63	0.135	859260	keystroke_n	n	n/a
429.6975	0.113	859395	keystroke_g	g	n/a
429.8105	0.134	859621	keystroke_Key.space	Key.space	n/a
429.9335	0.09	859867	keystroke_d	d	n/a
430.035	0.092	860070	keystroke_i	i	n/a
430.1475	0.1235	860295	keystroke_v	v	n/a
430.2625	0.1435	860525	keystroke_i	i	n/a
430.3275	0.146	860655	keystroke_n	n	n/a
430.5745	0.0905	861149	keystroke_e	e	n/a
430.6875	0.1685	861375	keystroke_Key.space	Key.space	n/a
430.867	0.0905	861734	keystroke_a	a	n/a
430.9685	0.0575	861937	keystroke_p	p	n/a
431.16	0.0445	862320	keystroke_p	p	n/a
431.4295	0.079	862859	keystroke_Key.backspace	Key.backspace	n/a
431.644	0.0675	863288	keystroke_Key.backspace	Key.backspace	n/a
431.8235	0.0675	863647	keystroke_Key.backspace	Key.backspace	n/a
432.0715	0.1455	864143	keystroke_i	i	n/a
432.15	0.1235	864300	keystroke_n	n	n/a
432.2845	0.1125	864569	keystroke_a	a	n/a
432.4195	0.0345	864839	keystroke_p	p	n/a
432.566	0.1235	865132	keystroke_p	p	n/a
432.7685	0.1125	865537	keystroke_r	r	n/a
432.8695	0.1465	865739	keystroke_o	o	n/a
433.1285	0.1125	866257	keystroke_p	p	n/a
433.511	0.1125	867022	keystroke_r	r	n/a
433.613	0.1455	867226	keystroke_i	i	n/a
433.8035	0.1465	867607	keystroke_a	a	n/a
433.9385	0.1685	867877	keystroke_t	t	n/a
434.0285	0.1575	868057	keystroke_e	e	n/a
434.344	0.1345	868688	keystroke_Key.space	Key.space	n/a
434.648	0.123	869296	keystroke_a	a	n/a
435.3115	0.067	870623	keystroke_Key.backspace	Key.backspace	n/a
435.536	0.09	871072	keystroke_u	u	n/a
435.671	0.1125	871342	keystroke_s	s	n/a
435.772	0.09	871544	keystroke_u	u	n/a
435.907	0.1245	871814	keystroke_a	a	n/a
435.997	0.113	871994	keystroke_l	l	n/a
436.2445	0.09	872489	keystroke_Key.enter	Key.enter	n/a
436.3385	5.3075	872677	prompt	n/a	lessons silly checkout happening\n
436.9645	0.113	873929	keystroke_l	l	n/a
437.066	0.1685	874132	keystroke_e	e	n/a
437.1675	0.1125	874335	keystroke_s	s	n/a
437.393	0.078	874786	keystroke_s	s	n/a
437.4485	0.124	874897	keystroke_o	o	n/a
437.505	0.1345	875010	keystroke_n	n	n/a
437.606	0.1125	875212	keystroke_s	s	n/a
437.707	0.137	875414	keystroke_Key.space	Key.space	n/a
437.831	0.1235	875662	keystroke_s	s	n/a
437.9435	0.1575	875887	keystroke_i	i	n/a
438.056	0.0785	876112	keystroke_l	l	n/a
438.247	0.1575	876494	keystroke_l	l	n/a
438.3485	0.1125	876697	keystroke_y	y	n/a
438.416	0.1125	876832	keystroke_Key.space	Key.space	n/a
438.5845	0.079	877169	keystroke_c	c	n/a
438.652	0.1255	877304	keystroke_h	h	n/a
438.787	0.079	877574	keystroke_e	e	n/a
438.9895	0.135	877979	keystroke_c	c	n/a
439.237	0.0675	878474	keystroke_o	o	n/a
439.5775	0.0875	879155	keystroke_Key.backspace	Key.backspace	n/a
439.856	0.0795	879712	keystroke_k	k	n/a
440.0475	0.146	880095	keystroke_o	o	n/a
440.126	0.1125	880252	keystroke_u	u	n/a
440.25	0.1235	880500	keystroke_t	t	n/a
440.3285	0.135	880657	keystroke_Key.space	Key.space	n/a
440.407	0.124	880814	keystroke_h	h	n/a
440.5535	0.1465	881107	keystroke_a	a	n/a
440.6325	0.0785	881265	keystroke_p	p	n/a
440.801	0.1125	881602	keystroke_p	p	n/a
440.9025	0.126	881805	keystroke_e	e	n/a
440.993	0.123	881986	keystroke_n	n	n/a
441.172	0.1465	882344	keystroke_i	i	n/a
441.251	0.1355	882502	keystroke_n	n	n/a
441.364	0.113	882728	keystroke_g	g	n/a
441.5095	0.135	883019	keystroke_Key.enter	Key.enter	n/a
441.649	5.251	883298	prompt	n/a	seeking bearing reviewing victorian\n
442.32	0.0785	884640	keystroke_s	s	n/a
442.511	0.0675	885022	keystroke_e	e	n/a
442.691	0.1125	885382	keystroke_e	e	n/a
442.781	0.0785	885562	keystroke_k	k	n/a
442.961	0.1125	885922	keystroke_i	i	n/a
443.006	0.1125	886012	keystroke_n	n	n/a
443.1185	0.1125	886237	keystroke_g	g	n/a
443.1975	0.191	886395	keystroke_Key.space	Key.space	n/a
443.3885	0.0785	886777	keystroke_b	b	n/a
443.5685	0.191	887137	keystroke_e	e	n/a
443.7485	0.191	887497	keystroke_a	a	n/a
443.8945	0.1015	887789	keystroke_r	r	n/a
443.9735	0.1125	887947	keystroke_i	i	n/a
444.041	0.1025	888082	keystroke_n	n	n/a
444.131	0.101	888262	keystroke_g	g	n/a
444.221	0.158	888442	keystroke_Key.space	Key.space	n/a
444.3895	0.1125	888779	keystroke_r	r	n/a
444.4575	0.112	888915	keystroke_e	e	n/a
444.682	0.09	889364	keystroke_v	v	n/a
444.8065	0.1235	889613	keystroke_i	i	n/a
444.919	0.2025	889838	keystroke_e	e	n/a
445.0195	0.1465	890039	keystroke_w	w	n/a
445.132	0.1465	890264	keystroke_i	i	n/a
445.1995	0.135	890399	keystroke_n	n	n/a
445.2895	0.1025	890579	keystroke_g	g	n/a
445.402	0.1355	890804	keystroke_Key.space	Key.space	n/a
445.5375	0.1465	891075	keystroke_v	v	n/a
445.6725	0.112	891345	keystroke_i	i	n/a
445.796	0.0905	891592	keystroke_c	c	n/a
446.01	0.101	892020	keystroke_t	t	n/a
446.122	0.102	892244	keystroke_o	o	n/a
446.2345	0.1355	892469	keystroke_r	r	n/a
446.381	0.0785	892762	keystroke_i	i	n/a
446.4715	0.123	892943	keystroke_a	a	n/a
446.5835	0.0785	893167	keystroke_n	n	n/a
446.7865	0.1125	893573	keystroke_Key.enter	Key.enter	n/a
446.903	4.3955	893806	prompt	n/a	located allen journey turning\n
447.5175	0.09	895035	keystroke_l	l	n/a
447.731	0.079	895462	keystroke_o	o	n/a
447.8435	0.1125	895687	keystroke_c	c	n/a
448.0125	0.147	896025	keystroke_a	a	n/a
448.114	0.135	896228	keystroke_t	t	n/a
448.2035	0.079	896407	keystroke_e	e	n/a
448.3945	0.0905	896789	keystroke_d	d	n/a
448.507	0.113	897014	keystroke_Key.space	Key.space	n/a
448.6315	0.123	897263	keystroke_a	a	n/a
448.7105	0.0665	897421	keystroke_l	l	n/a
448.9015	0.0675	897803	keystroke_l	l	n/a
448.9795	0.1015	897959	keystroke_e	e	n/a
449.07	0.1125	898140	keystroke_n	n	n/a
449.2045	0.135	898409	keystroke_Key.space	Key.space	n/a
449.3065	0.112	898613	keystroke_j	j	n/a
449.4765	0.1335	898953	keystroke_o	o	n/a
449.554	0.1005	899108	keystroke_u	u	n/a
449.677	0.1355	899354	keystroke_r	r	n/a
449.7675	0.1125	899535	keystroke_n	n	n/a
449.9475	0.112	899895	keystroke_e	e	n/a
450.0485	0.1125	900097	keystroke_y	y	n/a
450.1385	0.1125	900277	keystroke_Key.space	Key.space	n/a
450.3185	0.1265	900637	keystroke_t	t	n/a
450.431	0.1015	900862	keystroke_u	u	n/a
450.566	0.1465	901132	keystroke_r	r	n/a
450.656	0.1125	901312	keystroke_n	n	n/a
450.8025	0.1585	901605	keystroke_i	i	n/a
450.8925	0.1235	901785	keystroke_n	n	n/a
450.9935	0.124	901987	keystroke_g	g	n/a
451.185	0.1125	902370	keystroke_Key.enter	Key.enter	n/a
451.3015	6.3085	902603	prompt	n/a	assist champion emperor complex\n
451.961	0.1575	903922	keystroke_a	a	n/a
452.0625	0.0905	904125	keystroke_s	s	n/a
452.2535	0.0675	904507	keystroke_s	s	n/a
452.366	0.135	904732	keystroke_i	i	n/a
452.5125	0.1575	905025	keystroke_s	s	n/a
452.636	0.1125	905272	keystroke_t	t	n/a
452.771	0.079	905542	keystroke_Key.space	Key.space	n/a
452.9285	0.1015	905857	keystroke_c	c	n/a
453.0185	0.1125	906037	keystroke_h	h	n/a
453.165	0.1235	906330	keystroke_a	a	n/a
453.3	0.146	906600	keystroke_m	m	n/a
453.4685	0.1015	906937	keystroke_p	p	n/a
453.671	0.1015	907342	keystroke_i	i	n/a
453.885	0.18	907770	keystroke_o	o	n/a
453.9975	0.1575	907995	keystroke_n	n	n/a
454.087	0.1355	908174	keystroke_Key.space	Key.space	n/a
454.2485	0.098	908497	keystroke_e	e	n/a
454.5035	0.169	909007	keystroke_m	m	n/a
454.684	0.146	909368	keystroke_p	p	n/a
455.0885	0.158	910177	keystroke_e	e	n/a
455.2015	0.1685	910403	keystroke_r	r	n/a
455.516	0.1355	911032	keystroke_o	o	n/a
455.64	0.135	911280	keystroke_r	r	n/a
455.854	0.1685	911708	keystroke_Key.space	Key.space	n/a
456.034	0.0895	912068	keystroke_e	e	n/a
456.3715	0.0785	912743	keystroke_Key.backspace	Key.backspace	n/a
456.5175	0.135	913035	keystroke_c	c	n/a
456.7315	0.2135	913463	keystroke_o	o	n/a
456.8325	0.1235	913665	keystroke_m	m	n/a
456.9	0.09	913800	keystroke_p	p	n/a
457.08	0.1235	914160	keystroke_l	l	n/a
457.1475	0.09	914295	keystroke_e	e	n/a
457.3725	0.101	914745	keystroke_x	x	n/a
457.5075	0.1015	915015	keystroke_Key.enter	Key.enter	n/a
457.6145	4.5855	915229	prompt	n/a	patterns garcia timer cloudy\n
458.3175	0.1125	916635	keystroke_p	p	n/a
458.3515	0.1685	916703	keystroke_a	a	n/a
458.4525	0.1015	916905	keystroke_t	t	n/a
458.6665	0.067	917333	keystroke_t	t	n/a
458.7675	0.159	917535	keystroke_e	e	n/a
458.8685	0.1465	917737	keystroke_r	r	n/a
458.9475	0.1125	917895	keystroke_n	n	n/a
459.0825	0.1015	918165	keystroke_s	s	n/a
459.1725	0.18	918345	keystroke_Key.space	Key.space	n/a
459.3425	0.1	918685	keystroke_g	g	n/a
459.4875	0.1575	918975	keystroke_a	a	n/a
459.5775	0.1235	919155	keystroke_r	r	n/a
460.016	0.09	920032	keystroke_c	c	n/a
460.1285	0.1175	920257	keystroke_i	i	n/a
460.2635	0.124	920527	keystroke_a	a	n/a
460.3765	0.1345	920753	keystroke_Key.space	Key.space	n/a
460.5	0.135	921000	keystroke_t	t	n/a
460.6015	0.1345	921203	keystroke_i	i	n/a
460.68	0.135	921360	keystroke_m	m	n/a
460.781	0.147	921562	keystroke_e	e	n/a
460.8825	0.101	921765	keystroke_r	r	n/a
460.9505	0.112	921901	keystroke_Key.space	Key.space	n/a
461.1085	0.112	922217	keystroke_c	c	n/a
461.1635	0.09	922327	keystroke_l	l	n/a
461.366	0.2145	922732	keystroke_o	o	n/a
461.468	0.168	922936	keystroke_u	u	n/a
461.715	0.146	923430	keystroke_d	d	n/a
461.873	0.1005	923746	keystroke_y	y	n/a
462.098	0.101	924196	keystroke_Key.enter	Key.enter	n/a
462.203	3.574	924406	prompt	n/a	angel pack grad savage\n
462.9185	0.135	925837	keystroke_a	a	n/a
463.0205	0.1125	926041	keystroke_n	n	n/a
463.099	0.09	926198	keystroke_g	g	n/a
463.2335	0.09	926467	keystroke_e	e	n/a
463.313	0.1465	926626	keystroke_l	l	n/a
463.4135	0.1125	926827	keystroke_Key.space	Key.space	n/a
463.571	0.124	927142	keystroke_p	p	n/a
463.6385	0.09	927277	keystroke_a	a	n/a
463.842	0.1005	927684	keystroke_c	c	n/a
463.931	0.1575	927862	keystroke_k	k	n/a
464.01	0.1685	928020	keystroke_Key.space	Key.space	n/a
464.145	0.115	928290	keystroke_g	g	n/a
464.37	0.1125	928740	keystroke_r	r	n/a
464.46	0.158	928920	keystroke_a	a	n/a
464.573	0.1015	929146	keystroke_d	d	n/a
464.7305	0.123	929461	keystroke_Key.space	Key.space	n/a
464.8315	0.1015	929663	keystroke_s	s	n/a
465	0.1265	930000	keystroke_a	a	n/a
465.101	0.135	930202	keystroke_v	v	n/a
465.2595	0.1565	930519	keystroke_a	a	n/a
465.428	0.1005	930856	keystroke_g	g	n/a
465.518	0.1125	931036	keystroke_e	e	n/a
465.6415	0.1345	931283	keystroke_Key.enter	Key.enter	n/a
465.7805	4.4185	931561	prompt	n/a	confirmation truth placement bonds\n
466.475	0.089	932950	keystroke_c	c	n/a
466.586	0.214	933172	keystroke_o	o	n/a
466.699	0.146	933398	keystroke_n	n	n/a
466.8225	0.124	933645	keystroke_f	f	n/a
466.9595	0.1	933919	keystroke_i	i	n/a
467.07	0.1125	934140	keystroke_r	r	n/a
467.171	0.124	934342	keystroke_m	m	n/a
467.284	0.146	934568	keystroke_a	a	n/a
467.3625	0.1125	934725	keystroke_t	t	n/a
467.4185	0.2255	934837	keystroke_i	i	n/a
467.4865	0.146	934973	keystroke_o	o	n/a
467.5425	0.146	935085	keystroke_n	n	n/a
467.6215	0.1235	935243	keystroke_Key.space	Key.space	n/a
467.711	0.1015	935422	keystroke_t	t	n/a
467.926	0.0895	935852	keystroke_r	r	n/a
468.0155	0.0895	936031	keystroke_u	u	n/a
468.1275	0.1015	936255	keystroke_t	t	n/a
468.2175	0.124	936435	keystroke_h	h	n/a
468.2735	0.135	936547	keystroke_Key.space	Key.space	n/a
468.375	0.1015	936750	keystroke_p	p	n/a
468.566	0.1465	937132	keystroke_l	l	n/a
468.6785	0.09	937357	keystroke_a	a	n/a
468.836	0.079	937672	keystroke_c	c	n/a
469.0275	0.068	938055	keystroke_e	e	n/a
469.1175	0.091	938235	keystroke_m	m	n/a
469.2185	0.079	938437	keystroke_e	e	n/a
469.3205	0.1005	938641	keystroke_n	n	n/a
469.4105	0.1005	938821	keystroke_t	t	n/a
469.5	0.1125	939000	keystroke_Key.space	Key.space	n/a
469.6265	0.0875	939253	keystroke_b	b	n/a
469.693	0.156	939386	keystroke_o	o	n/a
469.77	0.124	939540	keystroke_n	n	n/a
469.8715	0.1465	939743	keystroke_d	d	n/a
469.9615	0.1465	939923	keystroke_s	s	n/a
470.108	0.09	940216	keystroke_Key.enter	Key.enter	n/a
470.202	4.497	940404	prompt	n/a	begin favorites publishing stress\n
470.9065	0.0785	941813	keystroke_b	b	n/a
471.064	0.0675	942128	keystroke_e	e	n/a
471.2445	0.089	942489	keystroke_g	g	n/a
471.3225	0.1355	942645	keystroke_i	i	n/a
471.39	0.1575	942780	keystroke_n	n	n/a
471.4915	0.135	942983	keystroke_Key.space	Key.space	n/a
471.6265	0.135	943253	keystroke_f	f	n/a
471.7725	0.1125	943545	keystroke_a	a	n/a
471.8755	0.088	943751	keystroke_v	v	n/a
471.9975	0.1125	943995	keystroke_o	o	n/a
472.121	0.1015	944242	keystroke_r	r	n/a
472.2335	0.1245	944467	keystroke_i	i	n/a
472.3465	0.146	944693	keystroke_t	t	n/a
472.425	0.124	944850	keystroke_e	e	n/a
472.5035	0.068	945007	keystroke_s	s	n/a
472.5825	0.1015	945165	keystroke_Key.space	Key.space	n/a
472.8095	0.1215	945619	keystroke_p	p	n/a
472.8525	0.135	945705	keystroke_u	u	n/a
472.9765	0.101	945953	keystroke_b	b	n/a
473.1115	0.1465	946223	keystroke_l	l	n/a
473.19	0.124	946380	keystroke_i	i	n/a
473.3365	0.1125	946673	keystroke_s	s	n/a
473.4265	0.1235	946853	keystroke_h	h	n/a
473.5725	0.124	947145	keystroke_i	i	n/a
473.64	0.1025	947280	keystroke_n	n	n/a
473.73	0.079	947460	keystroke_g	g	n/a
473.82	0.191	947640	keystroke_Key.space	Key.space	n/a
473.9215	0.1235	947843	keystroke_s	s	n/a
473.989	0.101	947978	keystroke_t	t	n/a
474.1915	0.146	948383	keystroke_r	r	n/a
474.2475	0.135	948495	keystroke_e	e	n/a
474.326	0.0905	948652	keystroke_s	s	n/a
474.506	0.0905	949012	keystroke_s	s	n/a
474.608	0.09	949216	keystroke_Key.enter	Key.enter	n/a
474.702	5.2405	949404	prompt	n/a	worldcat stakeholders killing larry\n
475.5865	0.1235	951173	keystroke_w	w	n/a
475.6875	0.09	951375	keystroke_o	o	n/a
475.811	0.147	951622	keystroke_r	r	n/a
475.9465	0.157	951893	keystroke_l	l	n/a
476.0925	0.09	952185	keystroke_d	d	n/a
476.329	0.101	952658	keystroke_c	c	n/a
476.52	0.146	953040	keystroke_a	a	n/a
476.5875	0.1125	953175	keystroke_t	t	n/a
476.7225	0.1365	953445	keystroke_Key.space	Key.space	n/a
476.869	0.1235	953738	keystroke_s	s	n/a
476.9595	0.134	953919	keystroke_t	t	n/a
477.0825	0.1125	954165	keystroke_a	a	n/a
