onset	duration	sample	value	key	prompt_text
9.528	14.8755	19056	prompt	n/a	the quick brown fox jumps over a lazy dog\n
12.9715	0.12	25943	keystroke_t	t	n/a
13.1665	0.135	26333	keystroke_h	h	n/a
13.3315	0.15	26663	keystroke_e	e	n/a
13.826	0.135	27652	keystroke_Key.space	Key.space	n/a
14.861	0.135	29722	keystroke_q	q	n/a
15.056	0.1955	30112	keystroke_u	u	n/a
15.1615	0.195	30323	keystroke_i	i	n/a
15.3865	0.165	30773	keystroke_c	c	n/a
15.5965	0.2095	31193	keystroke_k	k	n/a
15.761	0.1355	31522	keystroke_Key.space	Key.space	n/a
16.2565	0.15	32513	keystroke_b	b	n/a
16.4215	0.105	32843	keystroke_r	r	n/a
16.5865	0.18	33173	keystroke_o	o	n/a
16.7815	0.1495	33563	keystroke_w	w	n/a
16.961	0.2405	33922	keystroke_n	n	n/a
17.1415	0.1495	34283	keystroke_Key.space	Key.space	n/a
17.9065	0.105	35813	keystroke_f	f	n/a
18.0715	0.1495	36143	keystroke_o	o	n/a
18.281	0.1355	36562	keystroke_x	x	n/a
18.4615	0.135	36923	keystroke_Key.space	Key.space	n/a
18.851	0.165	37702	keystroke_j	j	n/a
19.031	0.165	38062	keystroke_u	u	n/a
19.2415	0.2695	38483	keystroke_m	m	n/a
19.466	0.15	38932	keystroke_p	p	n/a
19.886	0.1205	39772	keystroke_s	s	n/a
20.0665	0.135	40133	keystroke_Key.space	Key.space	n/a
20.4865	0.12	40973	keystroke_o	o	n/a
20.7565	0.12	41513	keystroke_v	v	n/a
21.0265	0.1195	42053	keystroke_e	e	n/a
21.296	0.09	42592	keystroke_r	r	n/a
21.4915	0.12	42983	keystroke_Key.space	Key.space	n/a
21.761	0.1355	43522	keystroke_a	a	n/a
21.9715	0.12	43943	keystroke_Key.space	Key.space	n/a
22.3315	0.135	44663	keystroke_l	l	n/a
22.4815	0.165	44963	keystroke_a	a	n/a
23.066	0.135	46132	keystroke_z	z	n/a
23.2455	0.2105	46491	keystroke_y	y	n/a
23.396	0.1045	46792	keystroke_Key.space	Key.space	n/a
23.6065	0.1195	47213	keystroke_d	d	n/a
23.771	0.135	47542	keystroke_o	o	n/a
23.921	0.12	47842	keystroke_g	g	n/a
24.281	0.12	48562	keystroke_Key.enter	Key.enter	n/a
24.4075	11.6055	48815	prompt	n/a	vendor uruguay table bullet\n
25.391	0.105	50782	keystroke_v	v	n/a
25.586	0.12	51172	keystroke_e	e	n/a
25.946	0.135	51892	keystroke_n	n	n/a
26.141	0.12	52282	keystroke_d	d	n/a
26.276	0.165	52552	keystroke_o	o	n/a
26.486	0.15	52972	keystroke_r	r	n/a
26.621	0.1205	53242	keystroke_Key.space	Key.space	n/a
27.266	0.09	54532	keystroke_u	u	n/a
27.386	0.15	54772	keystroke_r	r	n/a
27.551	0.105	55102	keystroke_u	u	n/a
27.716	0.091	55432	keystroke_g	g	n/a
28.0015	0.105	56003	keystroke_u	u	n/a
28.1665	0.18	56333	keystroke_a	a	n/a
28.3615	0.18	56723	keystroke_y	y	n/a
28.4965	0.15	56993	keystroke_Key.space	Key.space	n/a
30.884	0.0275	61768	keystroke_t	t	n/a
31.2865	0.165	62573	keystroke_a	a	n/a
31.5565	0.135	63113	keystroke_b	b	n/a
31.6615	0.195	63323	keystroke_l	l	n/a
31.8715	0.105	63743	keystroke_e	e	n/a
32.096	0.135	64192	keystroke_Key.space	Key.space	n/a
32.816	0.195	65632	keystroke_b	b	n/a
32.996	0.09	65992	keystroke_u	u	n/a
33.2665	0.015	66533	keystroke_l	l	n/a
33.3265	0.12	66653	keystroke_l	l	n/a
33.4615	0.09	66923	keystroke_e	e	n/a
33.7315	0.09	67463	keystroke_t	t	n/a
35.909	0.102	71818	keystroke_Key.enter	Key.enter	n/a
36.016	9.657	72032	prompt	n/a	lighting substantial artists monster\n
37.3915	0.1045	74783	keystroke_l	l	n/a
37.5865	0.09	75173	keystroke_i	i	n/a
37.7215	0.12	75443	keystroke_g	g	n/a
37.8565	0.135	75713	keystroke_h	h	n/a
38.0215	0.135	76043	keystroke_t	t	n/a
38.1715	0.18	76343	keystroke_i	i	n/a
38.2915	0.1655	76583	keystroke_n	n	n/a
38.4265	0.1505	76853	keystroke_g	g	n/a
38.591	0.12	77182	keystroke_Key.space	Key.space	n/a
39.1015	0.15	78203	keystroke_s	s	n/a
39.2365	0.195	78473	keystroke_u	u	n/a
39.3715	0.15	78743	keystroke_b	b	n/a
39.4915	0.15	78983	keystroke_s	s	n/a
39.776	0.105	79552	keystroke_t	t	n/a
40.121	0.105	80242	keystroke_a	a	n/a
40.256	0.135	80512	keystroke_n	n	n/a
40.496	0.1055	80992	keystroke_t	t	n/a
40.6165	0.135	81233	keystroke_i	i	n/a
40.9165	0.165	81833	keystroke_a	a	n/a
41.1715	0.1795	82343	keystroke_l	l	n/a
41.306	0.12	82612	keystroke_Key.space	Key.space	n/a
41.921	0.1355	83842	keystroke_a	a	n/a
42.266	0.09	84532	keystroke_r	r	n/a
42.4615	0.09	84923	keystroke_t	t	n/a
42.6415	0.12	85283	keystroke_i	i	n/a
42.8065	0.105	85613	keystroke_s	s	n/a
43.0615	0.0895	86123	keystroke_t	t	n/a
43.332	0.164	86664	keystroke_s	s	n/a
43.481	0.15	86962	keystroke_Key.space	Key.space	n/a
43.751	0.15	87502	keystroke_m	m	n/a
43.886	0.165	87772	keystroke_o	o	n/a
44.036	0.15	88072	keystroke_n	n	n/a
44.4265	0.12	88853	keystroke_s	s	n/a
44.9215	0.015	89843	keystroke_t	t	n/a
45.0415	0.0905	90083	keystroke_e	e	n/a
45.2065	0.1055	90413	keystroke_r	r	n/a
45.552	0.1195	91104	keystroke_Key.enter	Key.enter	n/a
45.676	8.337	91352	prompt	n/a	sports professionals builds boundaries\n
46.3765	0.12	92753	keystroke_s	s	n/a
46.7065	0.195	93413	keystroke_p	p	n/a
46.8415	0.15	93683	keystroke_o	o	n/a
46.9615	0.075	93923	keystroke_r	r	n/a
47.1415	0.09	94283	keystroke_t	t	n/a
47.4415	0.12	94883	keystroke_s	s	n/a
47.636	0.105	95272	keystroke_Key.space	Key.space	n/a
47.951	0.1355	95902	keystroke_p	p	n/a
48.1315	0.105	96263	keystroke_r	r	n/a
48.2515	0.09	96503	keystroke_o	o	n/a
48.3565	0.1045	96713	keystroke_f	f	n/a
48.567	0.089	97134	keystroke_e	e	n/a
48.791	0.075	97582	keystroke_s	s	n/a
48.956	0.12	97912	keystroke_s	s	n/a
49.061	0.136	98122	keystroke_i	i	n/a
49.151	0.226	98302	keystroke_o	o	n/a
49.302	0.195	98604	keystroke_n	n	n/a
49.451	0.15	98902	keystroke_a	a	n/a
49.6315	0.135	99263	keystroke_l	l	n/a
49.7965	0.135	99593	keystroke_s	s	n/a
49.9165	0.105	99833	keystroke_Key.space	Key.space	n/a
50.1265	0.255	100253	keystroke_b	b	n/a
50.2315	0.24	100463	keystroke_u	u	n/a
50.3965	0.135	100793	keystroke_i	i	n/a
50.6665	0.105	101333	keystroke_l	l	n/a
50.9365	0.105	101873	keystroke_d	d	n/a
51.1615	0.105	102323	keystroke_s	s	n/a
51.3265	0.12	102653	keystroke_Key.space	Key.space	n/a
51.9715	0.24	103943	keystroke_b	b	n/a
52.1065	0.225	104213	keystroke_o	o	n/a
52.2265	0.18	104453	keystroke_u	u	n/a
52.3465	0.1645	104693	keystroke_n	n	n/a
52.496	0.105	104992	keystroke_d	d	n/a
52.752	0.09	105504	keystroke_a	a	n/a
53.007	0.09	106014	keystroke_r	r	n/a
53.112	0.12	106224	keystroke_i	i	n/a
53.291	0.121	106582	keystroke_e	e	n/a
53.546	0.136	107092	keystroke_s	s	n/a
53.906	0.105	107812	keystroke_Key.enter	Key.enter	n/a
54.0155	9.3725	108031	prompt	n/a	prot releases startup friendly\n
54.7165	0.135	109433	keystroke_p	p	n/a
54.8815	0.12	109763	keystroke_r	r	n/a
55.0165	0.12	110033	keystroke_o	o	n/a
55.2565	0.12	110513	keystroke_t	t	n/a
55.4365	0.12	110873	keystroke_Key.space	Key.space	n/a
55.7515	0.105	111503	keystroke_r	r	n/a
55.9465	0.105	111893	keystroke_e	e	n/a
56.1565	0.105	112313	keystroke_l	l	n/a
56.3365	0.12	112673	keystroke_a	a	n/a
56.7265	0.0745	113453	keystroke_t	t	n/a
57.102	0.0745	114204	keystroke_Key.backspace	Key.backspace	n/a
57.252	0.1195	114504	keystroke_Key.backspace	Key.backspace	n/a
57.4615	0.1055	114923	keystroke_e	e	n/a
57.717	0.09	115434	keystroke_a	a	n/a
58.1665	0.09	116333	keystroke_s	s	n/a
58.3765	0.09	116753	keystroke_e	e	n/a
58.6015	0.105	117203	keystroke_s	s	n/a
58.7365	0.135	117473	keystroke_Key.space	Key.space	n/a
59.3065	0.045	118613	keystroke_s	s	n/a
59.666	0.0605	119332	keystroke_t	t	n/a
59.9215	0.12	119843	keystroke_a	a	n/a
60.1765	0.075	120353	keystroke_r	r	n/a
60.3565	0.09	120713	keystroke_t	t	n/a
60.5515	0.1945	121103	keystroke_u	u	n/a
60.701	0.165	121402	keystroke_p	p	n/a
60.941	0.12	121882	keystroke_Key.space	Key.space	n/a
61.5415	0.0605	123083	keystroke_f	f	n/a
61.707	0.09	123414	keystroke_r	r	n/a
61.827	0.1045	123654	keystroke_i	i	n/a
61.9615	0.1205	123923	keystroke_e	e	n/a
62.112	0.135	124224	keystroke_n	n	n/a
62.262	0.105	124524	keystroke_d	d	n/a
62.4115	0.12	124823	keystroke_l	l	n/a
62.8615	0.105	125723	keystroke_y	y	n/a
63.2815	0.105	126563	keystroke_Key.enter	Key.enter	n/a
63.391	8.3825	126782	prompt	n/a	counts strap specification morning\n
64.2115	0.105	128423	keystroke_c	c	n/a
64.5115	0.18	129023	keystroke_o	o	n/a
64.6015	0.2095	129203	keystroke_u	u	n/a
64.7365	0.1795	129473	keystroke_n	n	n/a
64.871	0.12	129742	keystroke_t	t	n/a
65.1715	0.135	130343	keystroke_s	s	n/a
65.3965	0.12	130793	keystroke_Key.space	Key.space	n/a
65.7265	0.105	131453	keystroke_s	s	n/a
66.1315	0.0595	132263	keystroke_t	t	n/a
66.281	0.09	132562	keystroke_r	r	n/a
66.5365	0.1205	133073	keystroke_a	a	n/a
66.762	0.15	133524	keystroke_p	p	n/a
66.897	0.12	133794	keystroke_Key.space	Key.space	n/a
67.302	0.105	134604	keystroke_s	s	n/a
67.7365	0.12	135473	keystroke_p	p	n/a
67.9915	0.09	135983	keystroke_e	e	n/a
68.2315	0.105	136463	keystroke_c	c	n/a
68.3665	0.12	136733	keystroke_i	i	n/a
68.5915	0.105	137183	keystroke_f	f	n/a
68.7415	0.09	137483	keystroke_i	i	n/a
68.8915	0.09	137783	keystroke_c	c	n/a
69.131	0.105	138262	keystroke_a	a	n/a
69.416	0.075	138832	keystroke_t	t	n/a
69.536	0.1955	139072	keystroke_i	i	n/a
69.7015	0.21	139403	keystroke_o	o	n/a
69.8665	0.225	139733	keystroke_n	n	n/a
70.0465	0.15	140093	keystroke_Key.space	Key.space	n/a
70.3465	0.15	140693	keystroke_m	m	n/a
70.4665	0.165	140933	keystroke_o	o	n/a
70.6465	0.135	141293	keystroke_r	r	n/a
70.7665	0.225	141533	keystroke_n	n	n/a
70.9165	0.225	141833	keystroke_i	i	n/a
71.0965	0.15	142193	keystroke_n	n	n/a
71.2615	0.12	142523	keystroke_g	g	n/a
71.6665	0.105	143333	keystroke_Key.enter	Key.enter	n/a
71.7765	10.9015	143553	prompt	n/a	pharmaceutical charter collector grid\n
72.5215	0.1055	145043	keystroke_p	p	n/a
72.791	0.121	145582	keystroke_h	h	n/a
72.987	0.104	145974	keystroke_a	a	n/a
73.257	0.09	146514	keystroke_r	r	n/a
73.4215	0.135	146843	keystroke_m	m	n/a
73.601	0.12	147202	keystroke_a	a	n/a
73.916	0.075	147832	keystroke_c	c	n/a
74.141	0.105	148282	keystroke_e	e	n/a
74.276	0.135	148552	keystroke_u	u	n/a
74.456	0.105	148912	keystroke_t	t	n/a
74.636	0.15	149272	keystroke_i	i	n/a
74.876	0.105	149752	keystroke_c	c	n/a
75.176	0.12	150352	keystroke_a	a	n/a
75.371	0.195	150742	keystroke_l	l	n/a
75.521	0.1355	151042	keystroke_Key.space	Key.space	n/a
76.2115	0.0895	152423	keystroke_c	c	n/a
76.361	0.12	152722	keystroke_h	h	n/a
76.511	0.105	153022	keystroke_a	a	n/a
76.751	0.09	153502	keystroke_r	r	n/a
76.901	0.09	153802	keystroke_t	t	n/a
77.081	0.105	154162	keystroke_e	e	n/a
77.291	0.105	154582	keystroke_r	r	n/a
77.471	0.12	154942	keystroke_Key.space	Key.space	n/a
77.816	0.12	155632	keystroke_c	c	n/a
77.951	0.075	155902	keystroke_o	o	n/a
78.146	0.075	156292	keystroke_l	l	n/a
78.281	0.1205	156562	keystroke_l	l	n/a
78.4165	0.105	156833	keystroke_e	e	n/a
78.6415	0.105	157283	keystroke_c	c	n/a
78.9115	0.045	157823	keystroke_t	t	n/a
78.9265	0.015	157853	keystroke_r	r	n/a
79.0165	0.105	158033	keystroke_o	o	n/a
79.5415	0.06	159083	keystroke_Key.backspace	Key.backspace	n/a
79.7215	0.105	159443	keystroke_Key.backspace	Key.backspace	n/a
80.0065	0.105	160013	keystroke_o	o	n/a
80.1265	0.12	160253	keystroke_r	r	n/a
80.3365	0.105	160673	keystroke_Key.space	Key.space	n/a
81.0265	0.135	162053	keystroke_g	g	n/a
81.1465	0.105	162293	keystroke_r	r	n/a
81.641	0.151	163282	keystroke_i	i	n/a
81.837	0.12	163674	keystroke_d	d	n/a
82.5715	0.105	165143	keystroke_Key.enter	Key.enter	n/a
82.682	8.6965	165364	prompt	n/a	brunswick graph depends dense\n
83.4565	0.12	166913	keystroke_b	b	n/a
83.6065	0.165	167213	keystroke_r	r	n/a
83.8015	0.105	167603	keystroke_u	u	n/a
83.9665	0.15	167933	keystroke_n	n	n/a
84.1465	0.105	168293	keystroke_s	s	n/a
84.4765	0.09	168953	keystroke_w	w	n/a
84.5965	0.12	169193	keystroke_i	i	n/a
84.8065	0.135	169613	keystroke_c	c	n/a
84.9715	0.12	169943	keystroke_k	k	n/a
85.1365	0.135	170273	keystroke_Key.space	Key.space	n/a
86.3065	0.135	172613	keystroke_g	g	n/a
86.4565	0.0895	172913	keystroke_r	r	n/a
86.727	0.119	173454	keystroke_a	a	n/a
86.966	0.165	173932	keystroke_p	p	n/a
87.101	0.12	174202	keystroke_h	h	n/a
87.386	0.09	174772	keystroke_Key.space	Key.space	n/a
88.136	0.06	176272	keystroke_d	d	n/a
88.3165	0.12	176633	keystroke_e	e	n/a
88.4215	0.12	176843	keystroke_p	p	n/a
88.5565	0.12	177113	keystroke_e	e	n/a
88.6915	0.15	177383	keystroke_n	n	n/a
88.8115	0.105	177623	keystroke_d	d	n/a
89.0515	0.15	178103	keystroke_s	s	n/a
89.2315	0.1355	178463	keystroke_Key.space	Key.space	n/a
89.757	0.06	179514	keystroke_d	d	n/a
89.937	0.075	179874	keystroke_e	e	n/a
90.057	0.12	180114	keystroke_n	n	n/a
90.192	0.12	180384	keystroke_s	s	n/a
90.417	0.12	180834	keystroke_e	e	n/a
91.2715	0.105	182543	keystroke_Key.enter	Key.enter	n/a
91.381	8.607	182762	prompt	n/a	oils airports cork next\n
92.3815	0.18	184763	keystroke_o	o	n/a
92.5015	0.135	185003	keystroke_i	i	n/a
92.7265	0.12	185453	keystroke_l	l	n/a
92.9215	0.12	185843	keystroke_s	s	n/a
93.0865	0.12	186173	keystroke_Key.space	Key.space	n/a
93.761	0.121	187522	keystroke_a	a	n/a
94.257	0.105	188514	keystroke_i	i	n/a
94.407	0.12	188814	keystroke_r	r	n/a
94.661	0.1205	189322	keystroke_p	p	n/a
94.8415	0.12	189683	keystroke_o	o	n/a
95.0815	0.0895	190163	keystroke_r	r	n/a
95.546	0.105	191092	keystroke_r	r	n/a
96.071	0.12	192142	keystroke_Key.backspace	Key.backspace	n/a
96.267	0.119	192534	keystroke_t	t	n/a
96.656	0.151	193312	keystroke_s	s	n/a
97.076	0.12	194152	keystroke_Key.space	Key.space	n/a
97.586	0.12	195172	keystroke_c	c	n/a
97.736	0.15	195472	keystroke_o	o	n/a
97.931	0.105	195862	keystroke_r	r	n/a
98.171	0.151	196342	keystroke_k	k	n/a
98.3665	0.1355	196733	keystroke_Key.space	Key.space	n/a
98.6815	0.12	197363	keystroke_n	n	n/a
98.862	0.09	197724	keystroke_e	e	n/a
99.102	0.105	198204	keystroke_x	x	n/a
99.417	0.105	198834	keystroke_t	t	n/a
99.882	0.105	199764	keystroke_Key.enter	Key.enter	n/a
99.991	7.4675	199982	prompt	n/a	located developed proc dragon\n
100.707	0.105	201414	keystroke_l	l	n/a
100.917	0.105	201834	keystroke_o	o	n/a
101.067	0.105	202134	keystroke_c	c	n/a
101.292	0.15	202584	keystroke_a	a	n/a
101.5615	0.105	203123	keystroke_t	t	n/a
101.787	0.12	203574	keystroke_e	e	n/a
102.0565	0.135	204113	keystroke_d	d	n/a
102.2365	0.12	204473	keystroke_Key.space	Key.space	n/a
102.5965	0.105	205193	keystroke_d	d	n/a
102.8365	0.105	205673	keystroke_e	e	n/a
103.2265	0.075	206453	keystroke_v	v	n/a
103.4665	0.12	206933	keystroke_e	e	n/a
103.602	0.12	207204	keystroke_l	l	n/a
103.827	0.225	207654	keystroke_o	o	n/a
104.022	0.165	208044	keystroke_p	p	n/a
104.172	0.1495	208344	keystroke_e	e	n/a
104.3965	0.195	208793	keystroke_d	d	n/a
104.5765	0.12	209153	keystroke_Key.space	Key.space	n/a
104.8765	0.135	209753	keystroke_p	p	n/a
105.0415	0.1195	210083	keystroke_r	r	n/a
105.221	0.135	210442	keystroke_o	o	n/a
105.401	0.18	210802	keystroke_c	c	n/a
105.596	0.1205	211192	keystroke_Key.space	Key.space	n/a
106.0315	0.09	212063	keystroke_d	d	n/a
106.2265	0.09	212453	keystroke_r	r	n/a
106.4665	0.1205	212933	keystroke_a	a	n/a
106.587	0.12	213174	keystroke_g	g	n/a
106.842	0.1795	213684	keystroke_o	o	n/a
106.9915	0.12	213983	keystroke_n	n	n/a
107.3365	0.12	214673	keystroke_Key.enter	Key.enter	n/a
107.461	7.302	214922	prompt	n/a	sacramento nick donna enrolled\n
108.207	0.12	216414	keystroke_s	s	n/a
108.477	0.12	216954	keystroke_a	a	n/a
108.747	0.075	217494	keystroke_c	c	n/a
108.957	0.09	217914	keystroke_r	r	n/a
109.1965	0.135	218393	keystroke_a	a	n/a
109.3615	0.135	218723	keystroke_m	m	n/a
109.6315	0.1205	219263	keystroke_e	e	n/a
109.7965	0.15	219593	keystroke_n	n	n/a
109.9615	0.12	219923	keystroke_t	t	n/a
110.1265	0.195	220253	keystroke_o	o	n/a
110.276	0.1205	220552	keystroke_Key.space	Key.space	n/a
110.5015	0.21	221003	keystroke_n	n	n/a
110.651	0.1505	221302	keystroke_i	i	n/a
110.8315	0.15	221663	keystroke_c	c	n/a
111.0265	0.255	222053	keystroke_k	k	n/a
111.1915	0.135	222383	keystroke_Key.space	Key.space	n/a
111.506	0.105	223012	keystroke_d	d	n/a
111.641	0.165	223282	keystroke_o	o	n/a
111.776	0.09	223552	keystroke_n	n	n/a
111.971	0.09	223942	keystroke_n	n	n/a
112.091	0.15	224182	keystroke_a	a	n/a
112.286	0.12	224572	keystroke_Key.space	Key.space	n/a
112.707	0.119	225414	keystroke_e	e	n/a
112.871	0.09	225742	keystroke_n	n	n/a
113.172	0.089	226344	keystroke_r	r	n/a
113.276	0.09	226552	keystroke_o	o	n/a
113.501	0.075	227002	keystroke_l	l	n/a
113.6365	0.1045	227273	keystroke_l	l	n/a
113.8015	0.1055	227603	keystroke_e	e	n/a
114.0415	0.1205	228083	keystroke_d	d	n/a
114.6715	0.09	229343	keystroke_Key.enter	Key.enter	n/a
114.7675	8.5005	229535	prompt	n/a	slot dominican ships units\n
116.307	0.12	232614	keystroke_s	s	n/a
116.442	0.104	232884	keystroke_l	l	n/a
116.667	0.105	233334	keystroke_o	o	n/a
116.846	0.135	233692	keystroke_t	t	n/a
117.011	0.105	234022	keystroke_Key.space	Key.space	n/a
117.596	0.106	235192	keystroke_d	d	n/a
117.747	0.224	235494	keystroke_o	o	n/a
117.926	0.211	235852	keystroke_m	m	n/a
118.106	0.1955	236212	keystroke_i	i	n/a
118.2565	0.21	236513	keystroke_n	n	n/a
118.4365	0.165	236873	keystroke_i	i	n/a
118.5865	0.135	237173	keystroke_c	c	n/a
118.886	0.135	237772	keystroke_a	a	n/a
119.081	0.241	238162	keystroke_n	n	n/a
119.262	0.135	238524	keystroke_Key.space	Key.space	n/a
119.487	0.1495	238974	keystroke_s	s	n/a
119.847	0.225	239694	keystroke_h	h	n/a
119.9965	0.2405	239993	keystroke_i	i	n/a
120.162	0.15	240324	keystroke_p	p	n/a
120.312	0.15	240624	keystroke_s	s	n/a
120.522	0.12	241044	keystroke_Key.space	Key.space	n/a
122.082	0.135	244164	keystroke_u	u	n/a
122.172	0.225	244344	keystroke_n	n	n/a
122.352	0.165	244704	keystroke_i	i	n/a
122.472	0.135	244944	keystroke_t	t	n/a
122.787	0.12	245574	keystroke_s	s	n/a
123.147	0.12	246294	keystroke_Key.enter	Key.enter	n/a
123.2715	10.452	246543	prompt	n/a	opera instrumental incentives fairfield\n
124.0465	0.151	248093	keystroke_o	o	n/a
124.1215	0.18	248243	keystroke_p	p	n/a
124.2865	0.105	248573	keystroke_e	e	n/a
124.4815	0.09	248963	keystroke_r	r	n/a
124.7365	0.135	249473	keystroke_a	a	n/a
124.8865	0.12	249773	keystroke_Key.space	Key.space	n/a
125.382	0.24	250764	keystroke_i	i	n/a
125.532	0.165	251064	keystroke_n	n	n/a
125.727	0.12	251454	keystroke_s	s	n/a
126.042	0.09	252084	keystroke_t	t	n/a
126.237	0.135	252474	keystroke_r	r	n/a
126.387	0.09	252774	keystroke_u	u	n/a
126.642	0.12	253284	keystroke_m	m	n/a
126.837	0.12	253674	keystroke_e	e	n/a
126.987	0.12	253974	keystroke_n	n	n/a
127.137	0.105	254274	keystroke_t	t	n/a
127.422	0.15	254844	keystroke_a	a	n/a
127.602	0.24	255204	keystroke_l	l	n/a
127.782	0.255	255564	keystroke_Key.space	Key.space	n/a
128.007	0.165	256014	keystroke_i	i	n/a
128.112	0.1795	256224	keystroke_n	n	n/a
128.232	0.1045	256464	keystroke_c	c	n/a
128.4865	0.09	256973	keystroke_e	e	n/a
128.6365	0.12	257273	keystroke_n	n	n/a
128.7715	0.09	257543	keystroke_t	t	n/a
128.921	0.091	257842	keystroke_i	i	n/a
129.026	0.09	258052	keystroke_v	v	n/a
129.266	0.121	258532	keystroke_e	e	n/a
129.567	0.1345	259134	keystroke_s	s	n/a
129.7165	0.12	259433	keystroke_Key.space	Key.space	n/a
130.1815	0.105	260363	keystroke_d	d	n/a
130.6615	0.09	261323	keystroke_Key.backspace	Key.backspace	n/a
130.8865	0.105	261773	keystroke_f	f	n/a
131.1715	0.105	262343	keystroke_a	a	n/a
131.3515	0.12	262703	keystroke_i	i	n/a
131.5015	0.12	263003	keystroke_r	r	n/a
131.7415	0.12	263483	keystroke_f	f	n/a
131.9815	0.12	263963	keystroke_i	i	n/a
132.1315	0.105	264263	keystroke_e	e	n/a
132.3265	0.105	264653	keystroke_l	l	n/a
132.5815	0.075	265163	keystroke_s	s	n/a
133.0165	0.075	266033	keystroke_Key.backspace	Key.backspace	n/a
133.1365	0.12	266273	keystroke_d	d	n/a
133.6165	0.105	267233	keystroke_Key.enter	Key.enter	n/a
133.726	14.202	267452	prompt	n/a	symantec sake knife certificate\n
134.592	0.1645	269184	keystroke_s	s	n/a
134.7715	0.105	269543	keystroke_y	y	n/a
135.0115	0.12	270023	keystroke_m	m	n/a
135.2065	0.15	270413	keystroke_e	e	n/a
135.3415	0.105	270683	keystroke_n	n	n/a
135.5365	0.1055	271073	keystroke_t	t	n/a
135.822	0.075	271644	keystroke_e	e	n/a
136.152	0.105	272304	keystroke_c	c	n/a
136.452	0.12	272904	keystroke_Key.space	Key.space	n/a
136.962	0.09	273924	keystroke_Key.backspace	Key.backspace	n/a
137.202	0.075	274404	keystroke_Key.backspace	Key.backspace	n/a
137.382	0.06	274764	keystroke_Key.backspace	Key.backspace	n/a
137.592	0.0745	275184	keystroke_Key.backspace	Key.backspace	n/a
137.8465	0.045	275693	keystroke_Key.backspace	Key.backspace	n/a
138.0865	0.045	276173	keystroke_Key.backspace	Key.backspace	n/a
138.342	0.105	276684	keystroke_a	a	n/a
138.837	0.105	277674	keystroke_n	n	n/a
139.062	0.0895	278124	keystroke_t	t	n/a
139.2865	0.075	278573	keystroke_e	e	n/a
139.5115	0.075	279023	keystroke_c	c	n/a
139.661	0.105	279322	keystroke_Key.space	Key.space	n/a
141.0415	0.1055	282083	keystroke_s	s	n/a
141.252	0.12	282504	keystroke_a	a	n/a
141.432	0.105	282864	keystroke_k	k	n/a
141.552	0.105	283104	keystroke_e	e	n/a
141.717	0.1345	283434	keystroke_Key.space	Key.space	n/a
142.4215	0.18	284843	keystroke_k	k	n/a
142.5715	0.21	285143	keystroke_n	n	n/a
142.7215	0.165	285443	keystroke_i	i	n/a
143.352	0.075	286704	keystroke_f	f	n/a
143.562	0.105	287124	keystroke_e	e	n/a
143.726	0.12	287452	keystroke_Key.space	Key.space	n/a
144.431	0.06	288862	keystroke_c	c	n/a
144.626	0.075	289252	keystroke_e	e	n/a
144.791	0.076	289582	keystroke_r	r	n/a
144.972	0.105	289944	keystroke_t	t	n/a
145.152	0.1195	290304	keystroke_i	i	n/a
145.3015	0.15	290603	keystroke_f	f	n/a
145.4815	0.135	290963	keystroke_i	i	n/a
145.7365	0.12	291473	keystroke_r	r	n/a
146.1715	0.12	292343	keystroke_Key.backspace	Key.backspace	n/a
146.2925	0.104	292585	keystroke_c	c	n/a
146.5465	0.12	293093	keystroke_a	a	n/a
146.8315	0.15	293663	keystroke_t	t	n/a
147.0865	0.09	294173	keystroke_e	e	n/a
147.822	0.1045	295644	keystroke_Key.enter	Key.enter	n/a
147.931	8.6075	295862	prompt	n/a	aware effect printed instances\n
148.6765	0.135	297353	keystroke_a	a	n/a
148.9015	0.135	297803	keystroke_w	w	n/a
149.1415	0.12	298283	keystroke_a	a	n/a
149.3965	0.09	298793	keystroke_r	r	n/a
149.6065	0.135	299213	keystroke_e	e	n/a
149.7715	0.12	299543	keystroke_Key.space	Key.space	n/a
150.0715	0.09	300143	keystroke_e	e	n/a
150.3565	0.0745	300713	keystroke_f	f	n/a
150.476	0.105	300952	keystroke_f	f	n/a
150.716	0.075	301432	keystroke_e	e	n/a
150.911	0.106	301822	keystroke_c	c	n/a
151.152	0.105	302304	keystroke_t	t	n/a
151.317	0.135	302634	keystroke_Key.space	Key.space	n/a
151.722	0.03	303444	keystroke_r	r	n/a
152.3215	0.12	304643	keystroke_Key.backspace	Key.backspace	n/a
152.847	0.09	305694	keystroke_p	p	n/a
152.997	0.165	305994	keystroke_r	r	n/a
153.147	0.18	306294	keystroke_i	i	n/a
153.282	0.15	306564	keystroke_n	n	n/a
153.417	0.1195	306834	keystroke_t	t	n/a
153.6565	0.12	307313	keystroke_e	e	n/a
153.8965	0.165	307793	keystroke_d	d	n/a
154.0765	0.105	308153	keystroke_Key.space	Key.space	n/a
154.4515	0.18	308903	keystroke_i	i	n/a
154.5715	0.165	309143	keystroke_n	n	n/a
154.7375	0.134	309475	keystroke_s	s	n/a
154.9465	0.135	309893	keystroke_t	t	n/a
155.1265	0.105	310253	keystroke_a	a	n/a
155.2765	0.1655	310553	keystroke_n	n	n/a
155.457	0.09	310914	keystroke_c	c	n/a
155.682	0.105	311364	keystroke_e	e	n/a
155.937	0.09	311874	keystroke_s	s	n/a
156.4165	0.12	312833	keystroke_Key.enter	Key.enter	n/a
156.5415	9.4615	313083	prompt	n/a	ericsson salem attraction object\n
157.362	0.0895	314724	keystroke_e	e	n/a
157.5865	0.075	315173	keystroke_r	r	n/a
157.8115	0.1355	315623	keystroke_i	i	n/a
157.977	0.09	315954	keystroke_c	c	n/a
158.277	0.075	316554	keystroke_s	s	n/a
158.427	0.135	316854	keystroke_s	s	n/a
158.697	0.225	317394	keystroke_o	o	n/a
158.862	0.255	317724	keystroke_n	n	n/a
159.072	0.135	318144	keystroke_Key.space	Key.space	n/a
160.332	0.1045	320664	keystroke_s	s	n/a
160.6615	0.12	321323	keystroke_a	a	n/a
160.7815	0.135	321563	keystroke_l	l	n/a
160.9465	0.195	321893	keystroke_e	e	n/a
161.097	0.2395	322194	keystroke_m	m	n/a
161.2765	0.12	322553	keystroke_Key.space	Key.space	n/a
161.637	0.105	323274	keystroke_a	a	n/a
161.982	0.06	323964	keystroke_t	t	n/a
162.102	0.1045	324204	keystroke_t	t	n/a
162.3415	0.09	324683	keystroke_r	r	n/a
162.6415	0.105	325283	keystroke_a	a	n/a
162.897	0.075	325794	keystroke_c	c	n/a
163.1365	0.075	326273	keystroke_t	t	n/a
163.2715	0.195	326543	keystroke_i	i	n/a
163.4365	0.21	326873	keystroke_o	o	n/a
163.5865	0.18	327173	keystroke_n	n	n/a
163.7065	0.105	327413	keystroke_Key.space	Key.space	n/a
163.9165	0.195	327833	keystroke_o	o	n/a
164.0965	0.24	328193	keystroke_b	b	n/a
164.2765	0.21	328553	keystroke_j	j	n/a
164.4115	0.12	328823	keystroke_e	e	n/a
164.6665	0.18	329333	keystroke_c	c	n/a
164.8315	0.12	329663	keystroke_t	t	n/a
165.927	0.075	331854	keystroke_Key.enter	Key.enter	n/a
166.0065	11.9965	332013	prompt	n/a	maryland strain lithuania regarded\n
166.902	0.15	333804	keystroke_m	m	n/a
167.082	0.1495	334164	keystroke_a	a	n/a
167.3815	0.09	334763	keystroke_r	r	n/a
167.5015	0.105	335003	keystroke_y	y	n/a
167.7115	0.165	335423	keystroke_l	l	n/a
167.8615	0.135	335723	keystroke_a	a	n/a
168.0115	0.1205	336023	keystroke_n	n	n/a
168.177	0.135	336354	keystroke_d	d	n/a
168.342	0.135	336684	keystroke_Key.space	Key.space	n/a
168.5965	0.105	337193	keystroke_s	s	n/a
168.8965	0.075	337793	keystroke_t	t	n/a
169.0465	0.09	338093	keystroke_r	r	n/a
169.3615	0.105	338723	keystroke_a	a	n/a
169.6165	0.24	339233	keystroke_i	i	n/a
169.7665	0.225	339533	keystroke_n	n	n/a
169.9315	0.12	339863	keystroke_Key.space	Key.space	n/a
170.1865	0.12	340373	keystroke_l	l	n/a
170.6065	0.09	341213	keystroke_i	i	n/a
170.9665	0.105	341933	keystroke_t	t	n/a
171.1315	0.21	342263	keystroke_h	h	n/a
171.2815	0.18	342563	keystroke_u	u	n/a
171.4765	0.18	342953	keystroke_a	a	n/a
171.6865	0.21	343373	keystroke_n	n	n/a
171.8365	0.165	343673	keystroke_i	i	n/a
172.0165	0.165	344033	keystroke_a	a	n/a
172.3165	0.1205	344633	keystroke_Key.space	Key.space	n/a
172.737	0.09	345474	keystroke_r	r	n/a
172.917	0.12	345834	keystroke_e	e	n/a
173.082	0.105	346164	keystroke_g	g	n/a
173.217	0.105	346434	keystroke_a	a	n/a
173.937	0.135	347874	keystroke_r	r	n/a
174.237	0.105	348474	keystroke_d	d	n/a
174.552	0.105	349104	keystroke_e	e	n/a
174.927	0.12	349854	keystroke_d	d	n/a
177.959	0.043	355918	keystroke_Key.enter	Key.enter	n/a
178.0065	9.237	356013	prompt	n/a	accessed determining puzzles cleanup\n
178.797	0.105	357594	keystroke_a	a	n/a
179.052	0.06	358104	keystroke_c	c	n/a
179.172	0.09	358344	keystroke_c	c	n/a
179.412	0.135	358824	keystroke_e	e	n/a
179.637	0.12	359274	keystroke_s	s	n/a
179.772	0.12	359544	keystroke_s	s	n/a
180.057	0.105	360114	keystroke_e	e	n/a
180.252	0.12	360504	keystroke_d	d	n/a
180.447	0.135	360894	keystroke_Key.space	Key.space	n/a
181.062	0.09	362124	keystroke_d	d	n/a
181.227	0.09	362454	keystroke_e	e	n/a
181.452	0.09	362904	keystroke_t	t	n/a
181.692	0.075	363384	keystroke_e	e	n/a
181.842	0.12	363684	keystroke_r	r	n/a
181.947	0.18	363894	keystroke_m	m	n/a
182.082	0.2095	364164	keystroke_i	i	n/a
182.2765	0.195	364553	keystroke_n	n	n/a
182.4265	0.1655	364853	keystroke_i	i	n/a
182.532	0.15	365064	keystroke_n	n	n/a
182.652	0.135	365304	keystroke_g	g	n/a
182.802	0.12	365604	keystroke_Key.space	Key.space	n/a
183.117	0.12	366234	keystroke_p	p	n/a
183.3415	0.135	366683	keystroke_u	u	n/a
183.7465	0.09	367493	keystroke_z	z	n/a
183.8965	0.12	367793	keystroke_z	z	n/a
184.1365	0.18	368273	keystroke_l	l	n/a
184.2865	0.105	368573	keystroke_e	e	n/a
184.5265	0.09	369053	keystroke_s	s	n/a
184.6465	0.12	369293	keystroke_Key.space	Key.space	n/a
184.9915	0.09	369983	keystroke_d	d	n/a
185.487	0.09	370974	keystroke_Key.backspace	Key.backspace	n/a
185.592	0.09	371184	keystroke_c	c	n/a
185.787	0.135	371574	keystroke_l	l	n/a
185.907	0.105	371814	keystroke_e	e	n/a
186.1615	0.15	372323	keystroke_a	a	n/a
186.2965	0.12	372593	keystroke_n	n	n/a
186.6115	0.1655	373223	keystroke_u	u	n/a
186.7165	0.1505	373433	keystroke_p	p	n/a
187.122	0.12	374244	keystroke_Key.enter	Key.enter	n/a
187.249	15.49	374498	prompt	n/a	probe zimbabwe imaging columnists\n
187.9165	0.165	375833	keystroke_p	p	n/a
188.1265	0.15	376253	keystroke_r	r	n/a
188.3515	0.09	376703	keystroke_o	o	n/a
188.5765	0.12	377153	keystroke_b	b	n/a
188.7115	0.135	377423	keystroke_e	e	n/a
188.8615	0.12	377723	keystroke_Key.space	Key.space	n/a
189.2515	0.1205	378503	keystroke_s	s	n/a
189.627	0.165	379254	keystroke_i	i	n/a
189.807	0.135	379614	keystroke_m	m	n/a
190.062	0.135	380124	keystroke_b	b	n/a
190.227	0.15	380454	keystroke_a	a	n/a
190.6765	0.075	381353	keystroke_Key.backspace	Key.backspace	n/a
190.9015	0.075	381803	keystroke_Key.backspace	Key.backspace	n/a
191.0965	0.09	382193	keystroke_Key.backspace	Key.backspace	n/a
191.3215	0.075	382643	keystroke_Key.backspace	Key.backspace	n/a
191.577	0.0895	383154	keystroke_Key.backspace	Key.backspace	n/a
194.9245	0.058	389849	keystroke_s	s	n/a
195.2365	0.105	390473	keystroke_Key.backspace	Key.backspace	n/a
195.4325	0.134	390865	keystroke_z	z	n/a
195.612	0.1945	391224	keystroke_i	i	n/a
195.7465	0.12	391493	keystroke_m	m	n/a
196.002	0.12	392004	keystroke_b	b	n/a
196.137	0.165	392274	keystroke_a	a	n/a
196.317	0.105	392634	keystroke_b	b	n/a
196.527	0.135	393054	keystroke_w	w	n/a
196.752	0.135	393504	keystroke_e	e	n/a
196.902	0.1195	393804	keystroke_Key.space	Key.space	n/a
198.402	0.21	396804	keystroke_i	i	n/a
198.582	0.15	397164	keystroke_m	m	n/a
198.747	0.15	397494	keystroke_a	a	n/a
198.957	0.165	397914	keystroke_g	g	n/a
199.137	0.2255	398274	keystroke_i	i	n/a
199.287	0.1955	398574	keystroke_n	n	n/a
199.4365	0.136	398873	keystroke_g	g	n/a
199.5865	0.1505	399173	keystroke_Key.space	Key.space	n/a
200.142	0.12	400284	keystroke_c	c	n/a
200.277	0.09	400554	keystroke_o	o	n/a
200.442	0.105	400884	keystroke_l	l	n/a
200.682	0.105	401364	keystroke_u	u	n/a
200.892	0.12	401784	keystroke_m	m	n/a
201.102	0.195	402204	keystroke_n	n	n/a
201.237	0.165	402474	keystroke_i	i	n/a
201.447	0.105	402894	keystroke_s	s	n/a
201.702	0.105	403404	keystroke_t	t	n/a
202.017	0.1195	404034	keystroke_s	s	n/a
202.617	0.12	405234	keystroke_Key.enter	Key.enter	n/a
202.7425	7.7205	405485	prompt	n/a	luke driven ignored boat\n
203.5475	0.06	407095	keystroke_l	l	n/a
204.462	0.105	408924	keystroke_u	u	n/a
204.687	0.12	409374	keystroke_k	k	n/a
204.822	0.12	409644	keystroke_e	e	n/a
205.002	0.135	410004	keystroke_Key.space	Key.space	n/a
205.3765	0.09	410753	keystroke_d	d	n/a
205.5725	0.105	411145	keystroke_r	r	n/a
205.7065	0.12	411413	keystroke_i	i	n/a
205.8715	0.105	411743	keystroke_v	v	n/a
206.1715	0.121	412343	keystroke_e	e	n/a
206.3515	0.21	412703	keystroke_n	n	n/a
206.4865	0.12	412973	keystroke_Key.space	Key.space	n/a
206.9815	0.1355	413963	keystroke_i	i	n/a
207.147	0.12	414294	keystroke_g	g	n/a
207.342	0.195	414684	keystroke_n	n	n/a
207.462	0.18	414924	keystroke_o	o	n/a
207.612	0.12	415224	keystroke_r	r	n/a
207.852	0.18	415704	keystroke_e	e	n/a
208.092	0.135	416184	keystroke_d	d	n/a
208.272	0.105	416544	keystroke_Key.space	Key.space	n/a
208.7365	0.165	417473	keystroke_b	b	n/a
208.8415	0.15	417683	keystroke_o	o	n/a
208.9765	0.1505	417953	keystroke_a	a	n/a
209.262	0.12	418524	keystroke_r	r	n/a
209.7865	0.09	419573	keystroke_Key.backspace	Key.backspace	n/a
209.8915	0.135	419783	keystroke_t	t	n/a
210.3565	0.105	420713	keystroke_Key.enter	Key.enter	n/a
210.466	9.2675	420932	prompt	n/a	food conferences reflected texas\n
211.2865	0.09	422573	keystroke_f	f	n/a
211.4365	0.09	422873	keystroke_o	o	n/a
211.6465	0.12	423293	keystroke_o	o	n/a
211.7815	0.1655	423563	keystroke_d	d	n/a
211.962	0.135	423924	keystroke_Key.space	Key.space	n/a
212.427	0.105	424854	keystroke_c	c	n/a
212.502	0.195	425004	keystroke_o	o	n/a
212.667	0.165	425334	keystroke_n	n	n/a
212.817	0.1045	425634	keystroke_f	f	n/a
213.0415	0.105	426083	keystroke_e	e	n/a
213.2515	0.09	426503	keystroke_r	r	n/a
213.4915	0.09	426983	keystroke_e	e	n/a
213.6415	0.105	427283	keystroke_n	n	n/a
213.7915	0.105	427583	keystroke_c	c	n/a
214.0315	0.105	428063	keystroke_e	e	n/a
214.2715	0.135	428543	keystroke_s	s	n/a
214.4665	0.105	428933	keystroke_Key.space	Key.space	n/a
215.367	0.06	430734	keystroke_r	r	n/a
215.532	0.105	431064	keystroke_e	e	n/a
215.772	0.075	431544	keystroke_f	f	n/a
215.982	0.1195	431964	keystroke_l	l	n/a
216.087	0.0895	432174	keystroke_e	e	n/a
216.3115	0.075	432623	keystroke_c	c	n/a
216.522	0.0895	433044	keystroke_t	t	n/a
216.747	0.09	433494	keystroke_e	e	n/a
216.9115	0.15	433823	keystroke_d	d	n/a
217.0465	0.105	434093	keystroke_Key.space	Key.space	n/a
217.422	0.12	434844	keystroke_t	t	n/a
218.082	0.075	436164	keystroke_e	e	n/a
218.397	0.09	436794	keystroke_x	x	n/a
218.7725	0.075	437545	keystroke_a	a	n/a
218.9525	0.12	437905	keystroke_s	s	n/a
219.6265	0.105	439253	keystroke_Key.enter	Key.enter	n/a
219.736	11.0075	439472	prompt	n/a	theft mustang adapter extremely\n
220.5275	0.1045	441055	keystroke_t	t	n/a
220.6625	0.12	441325	keystroke_h	h	n/a
220.7975	0.12	441595	keystroke_e	e	n/a
220.9925	0.105	441985	keystroke_f	f	n/a
221.2475	0.105	442495	keystroke_t	t	n/a
221.3375	0.15	442675	keystroke_Key.space	Key.space	n/a
221.6675	0.119	443335	keystroke_m	m	n/a
221.907	0.105	443814	keystroke_u	u	n/a
222.042	0.105	444084	keystroke_s	s	n/a
222.282	0.09	444564	keystroke_t	t	n/a
222.5825	0.134	445165	keystroke_a	a	n/a
222.7015	0.105	445403	keystroke_n	n	n/a
222.9415	0.2255	445883	keystroke_g	g	n/a
223.0915	0.1355	446183	keystroke_Key.space	Key.space	n/a
223.7365	0.09	447473	keystroke_a	a	n/a
223.9615	0.09	447923	keystroke_d	d	n/a
224.1865	0.105	448373	keystroke_a	a	n/a
224.3515	0.15	448703	keystroke_p	p	n/a
224.5465	0.1055	449093	keystroke_t	t	n/a
224.787	0.105	449574	keystroke_e	e	n/a
224.967	0.12	449934	keystroke_r	r	n/a
225.102	0.105	450204	keystroke_Key.space	Key.space	n/a
225.402	0.09	450804	keystroke_e	e	n/a
225.672	0.09	451344	keystroke_x	x	n/a
225.957	0.075	451914	keystroke_t	t	n/a
226.002	0.045	452004	keystroke_r	r	n/a
226.137	0.105	452274	keystroke_r	r	n/a
227.2315	0.09	454463	keystroke_Key.backspace	Key.backspace	n/a
227.4415	0.06	454883	keystroke_Key.backspace	Key.backspace	n/a
228.057	0.09	456114	keystroke_r	r	n/a
228.297	0.135	456594	keystroke_e	e	n/a
228.477	0.1645	456954	keystroke_m	m	n/a
228.6115	0.165	457223	keystroke_e	e	n/a
228.8365	0.135	457673	keystroke_l	l	n/a
229.6025	0.0895	459205	keystroke_y	y	n/a
230.6215	0.12	461243	keystroke_Key.enter	Key.enter	n/a
230.746	11.1125	461492	prompt	n/a	detected conscious evidence calculations\n
231.5075	0.075	463015	keystroke_d	d	n/a
231.6875	0.074	463375	keystroke_e	e	n/a
231.8975	0.074	463795	keystroke_t	t	n/a
232.1225	0.089	464245	keystroke_e	e	n/a
232.3165	0.0905	464633	keystroke_c	c	n/a
232.542	0.09	465084	keystroke_t	t	n/a
232.797	0.075	465594	keystroke_e	e	n/a
232.977	0.105	465954	keystroke_d	d	n/a
233.0965	0.12	466193	keystroke_Key.space	Key.space	n/a
233.7265	0.09	467453	keystroke_c	c	n/a
233.8015	0.18	467603	keystroke_o	o	n/a
233.9515	0.15	467903	keystroke_n	n	n/a
234.1025	0.104	468205	keystroke_s	s	n/a
234.957	0.09	469914	keystroke_c	c	n/a
235.227	0.135	470454	keystroke_i	i	n/a
235.332	0.195	470664	keystroke_o	o	n/a
235.467	0.195	470934	keystroke_u	u	n/a
235.632	0.105	471264	keystroke_s	s	n/a
235.782	0.105	471564	keystroke_Key.space	Key.space	n/a
236.442	0.15	472884	keystroke_e	e	n/a
236.607	0.105	473214	keystroke_v	v	n/a
236.802	0.12	473604	keystroke_i	i	n/a
236.892	0.105	473784	keystroke_d	d	n/a
237.1625	0.075	474325	keystroke_a	a	n/a
237.5675	0.09	475135	keystroke_Key.backspace	Key.backspace	n/a
237.6725	0.12	475345	keystroke_e	e	n/a
237.867	0.12	475734	keystroke_n	n	n/a
238.002	0.09	476004	keystroke_c	c	n/a
238.242	0.105	476484	keystroke_e	e	n/a
238.362	0.12	476724	keystroke_Key.space	Key.space	n/a
239.0825	0.09	478165	keystroke_c	c	n/a
239.3365	0.12	478673	keystroke_a	a	n/a
239.4865	0.151	478973	keystroke_l	l	n/a
239.6525	0.1045	479305	keystroke_c	c	n/a
239.817	0.195	479634	keystroke_u	u	n/a
239.997	0.165	479994	keystroke_l	l	n/a
240.132	0.105	480264	keystroke_a	a	n/a
240.417	0.12	480834	keystroke_t	t	n/a
240.567	0.165	481134	keystroke_i	i	n/a
240.747	0.24	481494	keystroke_o	o	n/a
240.912	0.12	481824	keystroke_n	n	n/a
241.047	0.12	482094	keystroke_s	s	n/a
241.7675	0.089	483535	keystroke_Key.enter	Key.enter	n/a
241.861	7.8725	483722	prompt	n/a	good oklahoma spine paris\n
242.8025	0.09	485605	keystroke_g	g	n/a
242.9065	0.106	485813	keystroke_o	o	n/a
243.1015	0.135	486203	keystroke_o	o	n/a
243.2515	0.1205	486503	keystroke_d	d	n/a
243.462	0.12	486924	keystroke_Key.space	Key.space	n/a
243.762	0.1045	487524	keystroke_o	o	n/a
244.0165	0.09	488033	keystroke_k	k	n/a
244.1665	0.15	488333	keystroke_l	l	n/a
244.3465	0.12	488693	keystroke_a	a	n/a
244.4965	0.165	488993	keystroke_h	h	n/a
244.6315	0.225	489263	keystroke_o	o	n/a
244.7965	0.21	489593	keystroke_m	m	n/a
245.0215	0.135	490043	keystroke_a	a	n/a
245.2615	0.12	490523	keystroke_Key.space	Key.space	n/a
246.0575	0.134	492115	keystroke_s	s	n/a
246.1765	0.196	492353	keystroke_p	p	n/a
246.3265	0.136	492653	keystroke_i	i	n/a
246.5975	0.12	493195	keystroke_n	n	n/a
246.7325	0.135	493465	keystroke_e	e	n/a
246.9265	0.135	493853	keystroke_Key.space	Key.space	n/a
248.262	0.18	496524	keystroke_p	p	n/a
248.427	0.105	496854	keystroke_a	a	n/a
248.712	0.0755	497424	keystroke_r	r	n/a
248.8175	0.119	497635	keystroke_i	i	n/a
248.9975	0.1045	497995	keystroke_s	s	n/a
249.627	0.105	499254	keystroke_Key.enter	Key.enter	n/a
249.7365	7.227	499473	prompt	n/a	didn't former originally feel\n
250.6315	0.105	501263	keystroke_d	d	n/a
250.7965	0.1055	501593	keystroke_i	i	n/a
250.917	0.165	501834	keystroke_d	d	n/a
251.037	0.21	502074	keystroke_n	n	n/a
251.172	0.165	502344	keystroke_'	'	n/a
251.367	0.1505	502734	keystroke_t	t	n/a
251.5325	0.134	503065	keystroke_Key.space	Key.space	n/a
252.0425	0.12	504085	keystroke_f	f	n/a
252.1325	0.165	504265	keystroke_o	o	n/a
252.3275	0.12	504655	keystroke_r	r	n/a
252.4625	0.15	504925	keystroke_m	m	n/a
252.5975	0.09	505195	keystroke_e	e	n/a
252.7915	0.091	505583	keystroke_r	r	n/a
252.9425	0.105	505885	keystroke_Key.space	Key.space	n/a
253.1965	0.121	506393	keystroke_o	o	n/a
253.3475	0.12	506695	keystroke_r	r	n/a
253.5125	0.1195	507025	keystroke_i	i	n/a
253.647	0.105	507294	keystroke_g	g	n/a
253.767	0.18	507534	keystroke_i	i	n/a
253.872	0.18	507744	keystroke_n	n	n/a
254.082	0.135	508164	keystroke_a	a	n/a
254.232	0.075	508464	keystroke_l	l	n/a
254.3665	0.135	508733	keystroke_l	l	n/a
254.9665	0.09	509933	keystroke_y	y	n/a
255.1165	0.12	510233	keystroke_Key.space	Key.space	n/a
255.3565	0.09	510713	keystroke_f	f	n/a
255.627	0.06	511254	keystroke_e	e	n/a
255.777	0.105	511554	keystroke_e	e	n/a
256.017	0.105	512034	keystroke_l	l	n/a
256.857	0.105	513714	keystroke_Key.enter	Key.enter	n/a
256.966	8.6825	513932	prompt	n/a	involvement grenada connecting hurt\n
257.7115	0.225	515423	keystroke_i	i	n/a
257.8315	0.18	515663	keystroke_n	n	n/a
257.9965	0.105	515993	keystroke_v	v	n/a
258.1315	0.105	516263	keystroke_o	o	n/a
258.3265	0.105	516653	keystroke_l	l	n/a
258.5065	0.105	517013	keystroke_v	v	n/a
258.7165	0.12	517433	keystroke_e	e	n/a
258.8515	0.09	517703	keystroke_m	m	n/a
258.9565	0.1505	517913	keystroke_e	e	n/a
259.0765	0.1055	518153	keystroke_n	n	n/a
259.257	0.12	518514	keystroke_t	t	n/a
259.377	0.12	518754	keystroke_Key.space	Key.space	n/a
260.0375	0.12	520075	keystroke_g	g	n/a
260.1725	0.09	520345	keystroke_r	r	n/a
260.3525	0.12	520705	keystroke_e	e	n/a
260.4875	0.12	520975	keystroke_n	n	n/a
260.6525	0.105	521305	keystroke_a	a	n/a
260.8775	0.09	521755	keystroke_d	d	n/a
261.147	0.135	522294	keystroke_a	a	n/a
261.297	0.105	522594	keystroke_Key.space	Key.space	n/a
261.747	0.09	523494	keystroke_c	c	n/a
261.852	0.18	523704	keystroke_o	o	n/a
262.002	0.105	524004	keystroke_n	n	n/a
262.1825	0.1045	524365	keystroke_n	n	n/a
262.4365	0.09	524873	keystroke_e	e	n/a
262.6465	0.106	525293	keystroke_c	c	n/a
262.8875	0.104	525775	keystroke_t	t	n/a
263.0815	0.18	526163	keystroke_i	i	n/a
263.2015	0.135	526403	keystroke_n	n	n/a
263.3215	0.135	526643	keystroke_g	g	n/a
263.5015	0.12	527003	keystroke_Key.space	Key.space	n/a
264.7015	0.2255	529403	keystroke_h	h	n/a
264.8515	0.1655	529703	keystroke_u	u	n/a
264.987	0.105	529974	keystroke_r	r	n/a
265.182	0.12	530364	keystroke_t	t	n/a
265.527	0.12	531054	keystroke_Key.enter	Key.enter	n/a
265.6515	9.717	531303	prompt	n/a	pillow toyota sculpture frame\n
266.3815	0.12	532763	keystroke_p	p	n/a
266.6515	0.12	533303	keystroke_i	i	n/a
266.8465	0.09	533693	keystroke_l	l	n/a
267.0115	0.091	534023	keystroke_l	l	n/a
267.207	0.12	534414	keystroke_o	o	n/a
267.342	0.2105	534684	keystroke_w	w	n/a
267.5075	0.1045	535015	keystroke_Key.space	Key.space	n/a
268.3775	0.1045	536755	keystroke_t	t	n/a
268.467	0.12	536934	keystroke_o	o	n/a
268.647	0.09	537294	keystroke_y	y	n/a
268.797	0.12	537594	keystroke_o	o	n/a
268.902	0.09	537804	keystroke_t	t	n/a
269.2325	0.12	538465	keystroke_a	a	n/a
269.3675	0.105	538735	keystroke_Key.space	Key.space	n/a
269.8625	0.105	539725	keystroke_s	s	n/a
270.1625	0.12	540325	keystroke_c	c	n/a
270.342	0.135	540684	keystroke_u	u	n/a
270.8225	0.105	541645	keystroke_l	l	n/a
271.0625	0.0895	542125	keystroke_p	p	n/a
271.3325	0.09	542665	keystroke_t	t	n/a
272.1125	0.105	544225	keystroke_u	u	n/a
272.2325	0.09	544465	keystroke_r	r	n/a
272.4425	0.15	544885	keystroke_e	e	n/a
272.6075	0.12	545215	keystroke_Key.space	Key.space	n/a
273.2075	0.075	546415	keystroke_d	d	n/a
273.5675	0.09	547135	keystroke_Key.backspace	Key.backspace	n/a
273.6425	0.09	547285	keystroke_f	f	n/a
273.8525	0.075	547705	keystroke_r	r	n/a
274.1525	0.09	548305	keystroke_a	a	n/a
274.3475	0.12	548695	keystroke_m	m	n/a
274.4975	0.105	548995	keystroke_e	e	n/a
275.2925	0.075	550585	keystroke_Key.enter	Key.enter	n/a
275.3715	7.306	550743	prompt	n/a	laugh examines situation insurance\n
275.9825	0.135	551965	keystroke_l	l	n/a
276.1775	0.135	552355	keystroke_a	a	n/a
276.3275	0.12	552655	keystroke_u	u	n/a
276.5525	0.135	553105	keystroke_g	g	n/a
276.7025	0.18	553405	keystroke_h	h	n/a
276.8075	0.135	553615	keystroke_Key.space	Key.space	n/a
277.227	0.105	554454	keystroke_e	e	n/a
277.482	0.09	554964	keystroke_x	x	n/a
277.6925	0.135	555385	keystroke_a	a	n/a
277.8275	0.18	555655	keystroke_m	m	n/a
277.9775	0.225	555955	keystroke_i	i	n/a
278.1125	0.195	556225	keystroke_n	n	n/a
278.2475	0.15	556495	keystroke_e	e	n/a
278.5025	0.18	557005	keystroke_s	s	n/a
278.6075	0.1495	557215	keystroke_Key.space	Key.space	n/a
278.982	0.1505	557964	keystroke_s	s	n/a
279.1175	0.135	558235	keystroke_i	i	n/a
279.2965	0.106	558593	keystroke_t	t	n/a
279.4315	0.106	558863	keystroke_u	u	n/a
279.6275	0.09	559255	keystroke_a	a	n/a
279.8975	0.075	559795	keystroke_t	t	n/a
280.0025	0.225	560005	keystroke_i	i	n/a
280.1825	0.2545	560365	keystroke_o	o	n/a
280.347	0.21	560694	keystroke_n	n	n/a
280.512	0.135	561024	keystroke_Key.space	Key.space	n/a
280.842	0.225	561684	keystroke_i	i	n/a
280.992	0.15	561984	keystroke_n	n	n/a
281.157	0.1355	562314	keystroke_s	s	n/a
281.2925	0.12	562585	keystroke_u	u	n/a
281.4575	0.105	562915	keystroke_r	r	n/a
281.7125	0.09	563425	keystroke_a	a	n/a
281.8625	0.105	563725	keystroke_n	n	n/a
281.9825	0.075	563965	keystroke_c	c	n/a
282.2075	0.105	564415	keystroke_e	e	n/a
282.5675	0.105	565135	keystroke_Key.enter	Key.enter	n/a
282.6775	6.266	565355	prompt	n/a	invite kinase services suse\n
283.2715	0.226	566543	keystroke_i	i	n/a
283.4215	0.165	566843	keystroke_n	n	n/a
283.5265	0.121	567053	keystroke_v	v	n/a
283.677	0.15	567354	keystroke_i	i	n/a
283.827	0.1055	567654	keystroke_t	t	n/a
284.067	0.1355	568134	keystroke_e	e	n/a
284.2325	0.105	568465	keystroke_Key.space	Key.space	n/a
284.4875	0.105	568975	keystroke_k	k	n/a
284.6825	0.165	569365	keystroke_i	i	n/a
284.7725	0.15	569545	keystroke_n	n	n/a
284.8925	0.12	569785	keystroke_a	a	n/a
285.147	0.09	570294	keystroke_s	s	n/a
285.3575	0.1195	570715	keystroke_e	e	n/a
285.492	0.15	570984	keystroke_Key.space	Key.space	n/a
285.672	0.105	571344	keystroke_s	s	n/a
285.852	0.09	571704	keystroke_e	e	n/a
286.017	0.105	572034	keystroke_r	r	n/a
286.242	0.09	572484	keystroke_v	v	n/a
286.377	0.135	572754	keystroke_i	i	n/a
286.527	0.075	573054	keystroke_c	c	n/a
286.737	0.09	573474	keystroke_e	e	n/a
286.947	0.12	573894	keystroke_s	s	n/a
287.1115	0.076	574223	keystroke_Key.space	Key.space	n/a
287.787	0.15	575574	keystroke_s	s	n/a
287.952	0.09	575904	keystroke_u	u	n/a
288.057	0.09	576114	keystroke_s	s	n/a
288.252	0.1355	576504	keystroke_e	e	n/a
288.8375	0.105	577675	keystroke_Key.enter	Key.enter	n/a
288.9465	9.837	577893	prompt	n/a	cycling breeding infrastructure mills\n
289.767	0.0905	579534	keystroke_c	c	n/a
289.9625	0.12	579925	keystroke_y	y	n/a
290.0675	0.135	580135	keystroke_c	c	n/a
290.2475	0.195	580495	keystroke_l	l	n/a
290.3975	0.255	580795	keystroke_i	i	n/a
290.5175	0.18	581035	keystroke_n	n	n/a
290.7275	0.165	581455	keystroke_g	g	n/a
290.9675	0.135	581935	keystroke_Key.space	Key.space	n/a
291.3275	0.135	582655	keystroke_b	b	n/a
291.4925	0.12	582985	keystroke_r	r	n/a
291.7175	0.09	583435	keystroke_e	e	n/a
291.8675	0.09	583735	keystroke_e	e	n/a
292.0475	0.105	584095	keystroke_d	d	n/a
292.1975	0.195	584395	keystroke_i	i	n/a
292.3325	0.2245	584665	keystroke_n	n	n/a
292.4525	0.1495	584905	keystroke_g	g	n/a
292.617	0.12	585234	keystroke_Key.space	Key.space	n/a
292.962	0.1955	585924	keystroke_i	i	n/a
293.0965	0.15	586193	keystroke_n	n	n/a
293.3065	0.091	586613	keystroke_f	f	n/a
293.4865	0.091	586973	keystroke_r	r	n/a
293.7725	0.105	587545	keystroke_a	a	n/a
293.9975	0.075	587995	keystroke_s	s	n/a
294.2975	0.09	588595	keystroke_t	t	n/a
294.4775	0.075	588955	keystroke_r	r	n/a
294.6875	0.09	589375	keystroke_u	u	n/a
294.8075	0.075	589615	keystroke_c	c	n/a
295.0175	0.0895	590035	keystroke_t	t	n/a
295.137	0.105	590274	keystroke_u	u	n/a
295.257	0.075	590514	keystroke_r	r	n/a
295.4375	0.135	590875	keystroke_e	e	n/a
295.7825	0.105	591565	keystroke_Key.space	Key.space	n/a
295.9475	0.225	591895	keystroke_m	m	n/a
296.0975	0.135	592195	keystroke_u	u	n/a
296.3525	0.105	592705	keystroke_l	l	n/a
296.7275	0.075	593455	keystroke_Key.backspace	Key.backspace	n/a
296.9525	0.075	593905	keystroke_Key.backspace	Key.backspace	n/a
297.6575	0.075	595315	keystroke_i	i	n/a
297.8525	0.075	595705	keystroke_l	l	n/a
298.0175	0.105	596035	keystroke_l	l	n/a
298.1375	0.105	596275	keystroke_s	s	n/a
298.6625	0.12	597325	keystroke_Key.enter	Key.enter	n/a
298.786	8.653	597572	prompt	n/a	enclosure drink expressed defining\n
299.517	0.105	599034	keystroke_e	e	n/a
299.682	0.135	599364	keystroke_n	n	n/a
299.847	0.105	599694	keystroke_c	c	n/a
299.967	0.105	599934	keystroke_l	l	n/a
300.147	0.12	600294	keystroke_o	o	n/a
300.372	0.105	600744	keystroke_s	s	n/a
300.492	0.1055	600984	keystroke_u	u	n/a
300.6275	0.089	601255	keystroke_r	r	n/a
300.8225	0.12	601645	keystroke_e	e	n/a
300.9715	0.09	601943	keystroke_Key.space	Key.space	n/a
301.167	0.09	602334	keystroke_d	d	n/a
301.362	0.15	602724	keystroke_r	r	n/a
301.467	0.135	602934	keystroke_i	i	n/a
301.602	0.375	603204	keystroke_n	n	n/a
301.752	0.255	603504	keystroke_k	k	n/a
301.962	0.21	603924	keystroke_Key.space	Key.space	n/a
302.262	0.09	604524	keystroke_e	e	n/a
302.487	0.135	604974	keystroke_x	x	n/a
302.607	0.135	605214	keystroke_p	p	n/a
302.757	0.075	605514	keystroke_r	r	n/a
302.907	0.105	605814	keystroke_e	e	n/a
303.162	0.075	606324	keystroke_s	s	n/a
303.2975	0.105	606595	keystroke_s	s	n/a
303.5375	0.075	607075	keystroke_e	e	n/a
303.7175	0.18	607435	keystroke_d	d	n/a
303.8825	0.105	607765	keystroke_Key.space	Key.space	n/a
304.1675	0.075	608335	keystroke_d	d	n/a
304.3475	0.09	608695	keystroke_e	e	n/a
304.5725	0.09	609145	keystroke_f	f	n/a
304.6775	0.195	609355	keystroke_i	i	n/a
304.8425	0.225	609685	keystroke_n	n	n/a
305.0225	0.2245	610045	keystroke_i	i	n/a
305.232	0.1955	610464	keystroke_n	n	n/a
305.4125	0.105	610825	keystroke_f	f	n/a
306.0725	0.105	612145	keystroke_Key.backspace	Key.backspace	n/a
306.1925	0.12	612385	keystroke_g	g	n/a
307.347	0.0905	614694	keystroke_Key.enter	Key.enter	n/a
307.441	9.7775	614882	prompt	n/a	thinks multiple corp newspaper\n
308.2175	0.075	616435	keystroke_t	t	n/a
308.3225	0.195	616645	keystroke_h	h	n/a
308.5025	0.135	617005	keystroke_i	i	n/a
308.6075	0.255	617215	keystroke_n	n	n/a
308.8325	0.119	617665	keystroke_k	k	n/a
308.9065	0.151	617813	keystroke_s	s	n/a
309.1025	0.1945	618205	keystroke_Key.space	Key.space	n/a
309.342	0.195	618684	keystroke_m	m	n/a
309.5525	0.0895	619105	keystroke_u	u	n/a
309.777	0.1355	619554	keystroke_l	l	n/a
309.9575	0.15	619915	keystroke_t	t	n/a
310.1075	0.165	620215	keystroke_i	i	n/a
310.2275	0.24	620455	keystroke_p	p	n/a
310.4375	0.225	620875	keystroke_l	l	n/a
310.6175	0.165	621235	keystroke_e	e	n/a
310.7825	0.15	621565	keystroke_Key.space	Key.space	n/a
310.9925	0.12	621985	keystroke_c	c	n/a
311.2325	0.135	622465	keystroke_r	r	n/a
311.3375	0.09	622675	keystroke_o	o	n/a
311.6225	0.075	623245	keystroke_Key.backspace	Key.backspace	n/a
311.8175	0.09	623635	keystroke_Key.backspace	Key.backspace	n/a
312.0275	0.135	624055	keystroke_o	o	n/a
312.1325	0.105	624265	keystroke_r	r	n/a
312.2825	0.105	624565	keystroke_p	p	n/a
312.4625	0.12	624925	keystroke_Key.space	Key.space	n/a
313.1525	0.12	626305	keystroke_n	n	n/a
313.3025	0.12	626605	keystroke_e	e	n/a
313.4975	0.1195	626995	keystroke_r	r	n/a
313.827	0.12	627654	keystroke_s	s	n/a
314.337	0.06	628674	keystroke_Key.backspace	Key.backspace	n/a
314.517	0.105	629034	keystroke_Key.backspace	Key.backspace	n/a
314.652	0.165	629304	keystroke_w	w	n/a
315.3125	0.15	630625	keystroke_s	s	n/a
315.9425	0.12	631885	keystroke_p	p	n/a
316.0475	0.1495	632095	keystroke_a	a	n/a
316.182	0.12	632364	keystroke_p	p	n/a
316.362	0.09	632724	keystroke_e	e	n/a
316.527	0.135	633054	keystroke_r	r	n/a
317.1125	0.105	634225	keystroke_Key.enter	Key.enter	n/a
317.223	6.2055	634446	prompt	n/a	listed boxing macro leaving\n
317.8915	0.18	635783	keystroke_l	l	n/a
318.0415	0.165	636083	keystroke_i	i	n/a
318.1615	0.105	636323	keystroke_s	s	n/a
318.4175	0.09	636835	keystroke_t	t	n/a
318.672	0.075	637344	keystroke_e	e	n/a
318.867	0.12	637734	keystroke_d	d	n/a
318.957	0.105	637914	keystroke_Key.space	Key.space	n/a
319.257	0.195	638514	keystroke_b	b	n/a
319.362	0.165	638724	keystroke_o	o	n/a
319.6775	0.09	639355	keystroke_x	x	n/a
319.8425	0.24	639685	keystroke_i	i	n/a
319.9925	0.195	639985	keystroke_n	n	n/a
320.1275	0.165	640255	keystroke_g	g	n/a
320.3075	0.12	640615	keystroke_Key.space	Key.space	n/a
320.5925	0.135	641185	keystroke_m	m	n/a
320.7425	0.09	641485	keystroke_a	a	n/a
320.9825	0.075	641965	keystroke_c	c	n/a
321.1925	0.12	642385	keystroke_r	r	n/a
321.2975	0.21	642595	keystroke_o	o	n/a
321.4475	0.135	642895	keystroke_Key.space	Key.space	n/a
321.732	0.12	643464	keystroke_l	l	n/a
321.822	0.105	643644	keystroke_e	e	n/a
322.077	0.09	644154	keystroke_a	a	n/a
322.317	0.105	644634	keystroke_v	v	n/a
322.452	0.24	644904	keystroke_i	i	n/a
322.587	0.15	645174	keystroke_n	n	n/a
322.677	0.12	645354	keystroke_g	g	n/a
323.3375	0.09	646675	keystroke_Key.enter	Key.enter	n/a
323.431	12.8975	646862	prompt	n/a	beverly coastal departments designers\n
324.2375	0.12	648475	keystroke_b	b	n/a
324.4775	0.18	648955	keystroke_e	e	n/a
324.9725	0.12	649945	keystroke_v	v	n/a
325.317	0.105	650634	keystroke_e	e	n/a
325.482	0.135	650964	keystroke_r	r	n/a
325.632	0.075	651264	keystroke_y	y	n/a
326.4575	0.06	652915	keystroke_Key.backspace	Key.backspace	n/a
326.7425	0.105	653485	keystroke_l	l	n/a
326.9075	0.089	653815	keystroke_y	y	n/a
327.432	0.105	654864	keystroke_Key.space	Key.space	n/a
327.8665	0.121	655733	keystroke_c	c	n/a
327.9715	0.195	655943	keystroke_o	o	n/a
328.1065	0.166	656213	keystroke_u	u	n/a
328.602	0.09	657204	keystroke_Key.backspace	Key.backspace	n/a
328.722	0.1655	657444	keystroke_a	a	n/a
329.067	0.12	658134	keystroke_t	t	n/a
329.7415	0.09	659483	keystroke_Key.backspace	Key.backspace	n/a
329.862	0.1195	659724	keystroke_s	s	n/a
330.1465	0.106	660293	keystroke_t	t	n/a
330.4325	0.1345	660865	keystroke_a	a	n/a
330.5515	0.1955	661103	keystroke_l	l	n/a
330.702	0.12	661404	keystroke_Key.space	Key.space	n/a
331.422	0.075	662844	keystroke_d	d	n/a
331.587	0.135	663174	keystroke_e	e	n/a
331.737	0.135	663474	keystroke_p	p	n/a
332.0075	0.12	664015	keystroke_a	a	n/a
332.3075	0.075	664615	keystroke_r	r	n/a
332.4875	0.09	664975	keystroke_t	t	n/a
332.6525	0.12	665305	keystroke_m	m	n/a
332.7875	0.135	665575	keystroke_e	e	n/a
332.9525	0.12	665905	keystroke_n	n	n/a
333.0575	0.105	666115	keystroke_t	t	n/a
333.3875	0.195	666775	keystroke_s	s	n/a
333.6275	0.135	667255	keystroke_Key.space	Key.space	n/a
334.347	0.09	668694	keystroke_d	d	n/a
334.542	0.0905	669084	keystroke_e	e	n/a
334.7825	0.12	669565	keystroke_s	s	n/a
334.9325	0.105	669865	keystroke_i	i	n/a
335.0975	0.1195	670195	keystroke_g	g	n/a
335.232	0.12	670464	keystroke_n	n	n/a
335.397	0.09	670794	keystroke_e	e	n/a
335.562	0.105	671124	keystroke_r	r	n/a
335.847	0.105	671694	keystroke_s	s	n/a
336.237	0.09	672474	keystroke_Key.enter	Key.enter	n/a
336.331	8.563	672662	prompt	n/a	weeks editors pump parliamentary\n
336.957	0.09	673914	keystroke_w	w	n/a
337.152	0.09	674304	keystroke_e	e	n/a
337.333	0.104	674666	keystroke_e	e	n/a
337.543	0.119	675086	keystroke_k	k	n/a
337.737	0.151	675474	keystroke_s	s	n/a
337.872	0.106	675744	keystroke_Key.space	Key.space	n/a
338.473	0.0895	676946	keystroke_e	e	n/a
338.6975	0.0905	677395	keystroke_d	d	n/a
338.848	0.089	677696	keystroke_i	i	n/a
338.997	0.12	677994	keystroke_t	t	n/a
339.162	0.12	678324	keystroke_o	o	n/a
339.297	0.105	678594	keystroke_r	r	n/a
339.552	0.1955	679104	keystroke_s	s	n/a
339.6725	0.12	679345	keystroke_Key.space	Key.space	n/a
339.9275	0.105	679855	keystroke_p	p	n/a
340.1375	0.09	680275	keystroke_u	u	n/a
340.3475	0.21	680695	keystroke_m	m	n/a
340.5125	0.24	681025	keystroke_p	p	n/a
340.7375	0.12	681475	keystroke_Key.space	Key.space	n/a
341.608	0.1345	683216	keystroke_p	p	n/a
341.7725	0.135	683545	keystroke_a	a	n/a
342.1325	0.09	684265	keystroke_r	r	n/a
342.2675	0.135	684535	keystroke_l	l	n/a
342.3725	0.15	684745	keystroke_i	i	n/a
342.5825	0.15	685165	keystroke_a	a	n/a
342.7775	0.12	685555	keystroke_m	m	n/a
343.197	0.12	686394	keystroke_e	e	n/a
343.348	0.149	686696	keystroke_n	n	n/a
343.573	0.1045	687146	keystroke_t	t	n/a
343.917	0.09	687834	keystroke_a	a	n/a
344.142	0.0905	688284	keystroke_r	r	n/a
344.3075	0.12	688615	keystroke_y	y	n/a
344.7575	0.135	689515	keystroke_Key.enter	Key.enter	n/a
344.8965	8.3525	689793	prompt	n/a	procurement shadows decrease i'm\n
345.747	0.15	691494	keystroke_p	p	n/a
345.927	0.135	691854	keystroke_r	r	n/a
346.392	0.105	692784	keystroke_o	o	n/a
346.603	0.1045	693206	keystroke_c	c	n/a
347.1425	0.1045	694285	keystroke_u	u	n/a
347.337	0.121	694674	keystroke_r	r	n/a
347.6825	0.015	695365	keystroke_e	e	n/a
347.7125	0.105	695425	keystroke_m	m	n/a
347.8625	0.165	695725	keystroke_e	e	n/a
347.9525	0.135	695905	keystroke_n	n	n/a
348.1475	0.15	696295	keystroke_t	t	n/a
348.2825	0.09	696565	keystroke_Key.space	Key.space	n/a
348.6275	0.12	697255	keystroke_s	s	n/a
348.7625	0.105	697525	keystroke_h	h	n/a
348.9125	0.105	697825	keystroke_a	a	n/a
349.182	0.09	698364	keystroke_d	d	n/a
349.287	0.135	698574	keystroke_o	o	n/a
349.467	0.105	698934	keystroke_w	w	n/a
349.692	0.15	699384	keystroke_s	s	n/a
349.827	0.12	699654	keystroke_Key.space	Key.space	n/a
350.487	0.0905	700974	keystroke_d	d	n/a
350.6825	0.09	701365	keystroke_e	e	n/a
350.9225	0.045	701845	keystroke_c	c	n/a
351.102	0.06	702204	keystroke_r	r	n/a
351.267	0.09	702534	keystroke_e	e	n/a
351.552	0.06	703104	keystroke_a	a	n/a
351.717	0.075	703434	keystroke_s	s	n/a
351.882	0.105	703764	keystroke_e	e	n/a
352.032	0.105	704064	keystroke_Key.space	Key.space	n/a
352.362	0.105	704724	keystroke_i	i	n/a
352.602	0.12	705204	keystroke_'	'	n/a
352.767	0.15	705534	keystroke_m	m	n/a
353.1575	0.09	706315	keystroke_Key.enter	Key.enter	n/a
353.2515	6.777	706503	prompt	n/a	levitra bored twelve overall\n
353.9525	0.135	707905	keystroke_l	l	n/a
354.1175	0.135	708235	keystroke_e	e	n/a
354.3275	0.165	708655	keystroke_v	v	n/a
354.5225	0.21	709045	keystroke_i	i	n/a
354.7025	0.105	709405	keystroke_t	t	n/a
354.8975	0.09	709795	keystroke_r	r	n/a
355.1975	0.135	710395	keystroke_a	a	n/a
355.3475	0.105	710695	keystroke_Key.space	Key.space	n/a
355.6625	0.165	711325	keystroke_b	b	n/a
355.7975	0.135	711595	keystroke_o	o	n/a
355.9475	0.12	711895	keystroke_r	r	n/a
356.1575	0.09	712315	keystroke_e	e	n/a
356.3825	0.12	712765	keystroke_d	d	n/a
356.4875	0.12	712975	keystroke_Key.space	Key.space	n/a
356.863	0.075	713726	keystroke_t	t	n/a
357.163	0.06	714326	keystroke_w	w	n/a
357.313	0.089	714626	keystroke_e	e	n/a
357.448	0.105	714896	keystroke_l	l	n/a
357.568	0.09	715136	keystroke_v	v	n/a
357.837	0.121	715674	keystroke_e	e	n/a
357.972	0.121	715944	keystroke_Key.space	Key.space	n/a
358.212	0.121	716424	keystroke_o	o	n/a
358.678	0.09	717356	keystroke_v	v	n/a
358.888	0.075	717776	keystroke_e	e	n/a
359.068	0.09	718136	keystroke_r	r	n/a
359.3225	0.09	718645	keystroke_a	a	n/a
359.4875	0.09	718975	keystroke_l	l	n/a
359.6675	0.105	719335	keystroke_l	l	n/a
359.9525	0.075	719905	keystroke_Key.enter	Key.enter	n/a
360.032	6.882	720064	prompt	n/a	tonight drives vaccine appears\n
360.7925	0.12	721585	keystroke_t	t	n/a
360.8975	0.18	721795	keystroke_o	o	n/a
361.0475	0.1655	722095	keystroke_n	n	n/a
361.138	0.18	722276	keystroke_i	i	n/a
361.3025	0.1355	722605	keystroke_g	g	n/a
361.4525	0.1505	722905	keystroke_h	h	n/a
361.588	0.1195	723176	keystroke_t	t	n/a
361.7375	0.15	723475	keystroke_Key.space	Key.space	n/a
362.0375	0.09	724075	keystroke_d	d	n/a
362.2175	0.105	724435	keystroke_r	r	n/a
362.3525	0.1355	724705	keystroke_i	i	n/a
362.473	0.075	724946	keystroke_v	v	n/a
362.698	0.09	725396	keystroke_e	e	n/a
362.908	0.12	725816	keystroke_s	s	n/a
363.013	0.09	726026	keystroke_Key.space	Key.space	n/a
363.6275	0.09	727255	keystroke_v	v	n/a
363.9425	0.09	727885	keystroke_a	a	n/a
364.2125	0.09	728425	keystroke_c	c	n/a
364.3325	0.12	728665	keystroke_c	c	n/a
364.5875	0.2405	729175	keystroke_i	i	n/a
364.753	0.18	729506	keystroke_n	n	n/a
364.918	0.1795	729836	keystroke_e	e	n/a
365.1125	0.105	730225	keystroke_Key.space	Key.space	n/a
365.3225	0.105	730645	keystroke_a	a	n/a
365.4425	0.09	730885	keystroke_p	p	n/a
365.5925	0.135	731185	keystroke_p	p	n/a
365.7125	0.105	731425	keystroke_e	e	n/a
365.997	0.105	731994	keystroke_a	a	n/a
366.267	0.075	732534	keystroke_r	r	n/a
366.507	0.09	733014	keystroke_s	s	n/a
366.837	0.075	733674	keystroke_Key.enter	Key.enter	n/a
366.917	7.137	733834	prompt	n/a	gays ending director cotton\n
367.8725	0.09	735745	keystroke_g	g	n/a
368.0525	0.1195	736105	keystroke_a	a	n/a
368.157	0.09	736314	keystroke_y	y	n/a
368.307	0.1505	736614	keystroke_s	s	n/a
368.458	0.135	736916	keystroke_Key.space	Key.space	n/a
368.668	0.18	737336	keystroke_e	e	n/a
368.833	0.15	737666	keystroke_n	n	n/a
369.0425	0.1655	738085	keystroke_d	d	n/a
369.268	0.225	738536	keystroke_i	i	n/a
369.418	0.3445	738836	keystroke_n	n	n/a
369.5825	0.225	739165	keystroke_g	g	n/a
369.7475	0.135	739495	keystroke_Key.space	Key.space	n/a
370.437	0.165	740874	keystroke_d	d	n/a
370.588	0.15	741176	keystroke_i	i	n/a
370.752	0.076	741504	keystroke_r	r	n/a
370.902	0.106	741804	keystroke_e	e	n/a
371.142	0.105	742284	keystroke_c	c	n/a
371.427	0.121	742854	keystroke_t	t	n/a
371.622	0.1055	743244	keystroke_o	o	n/a
371.877	0.09	743754	keystroke_r	r	n/a
372.042	0.135	744084	keystroke_Key.space	Key.space	n/a
372.717	0.1055	745434	keystroke_c	c	n/a
372.8525	0.105	745705	keystroke_o	o	n/a
373.0625	0.0905	746125	keystroke_t	t	n/a
373.213	0.149	746426	keystroke_t	t	n/a
373.497	0.12	746994	keystroke_o	o	n/a
373.677	0.105	747354	keystroke_n	n	n/a
373.947	0.105	747894	keystroke_Key.enter	Key.enter	n/a
374.0585	7.4505	748117	prompt	n/a	last religious tune video\n
374.667	0.15	749334	keystroke_l	l	n/a
374.862	0.09	749724	keystroke_a	a	n/a
375.042	0.15	750084	keystroke_s	s	n/a
375.267	0.15	750534	keystroke_t	t	n/a
375.387	0.105	750774	keystroke_Key.space	Key.space	n/a
376.032	0.09	752064	keystroke_r	r	n/a
376.212	0.105	752424	keystroke_e	e	n/a
376.362	0.21	752724	keystroke_l	l	n/a
376.557	0.151	753114	keystroke_i	i	n/a
376.692	0.106	753384	keystroke_g	g	n/a
376.842	0.1655	753684	keystroke_i	i	n/a
376.9925	0.1955	753985	keystroke_o	o	n/a
377.112	0.21	754224	keystroke_u	u	n/a
377.262	0.18	754524	keystroke_s	s	n/a
377.427	0.135	754854	keystroke_Key.space	Key.space	n/a
377.833	0.09	755666	keystroke_t	t	n/a
377.938	0.21	755876	keystroke_u	u	n/a
378.088	0.195	756176	keystroke_n	n	n/a
378.268	0.1345	756536	keystroke_w	w	n/a
378.268	0.1495	756536	keystroke_e	e	n/a
378.4325	0.135	756865	keystroke_Key.space	Key.space	n/a
378.8675	0.075	757735	keystroke_Key.backspace	Key.backspace	n/a
379.0625	0.075	758125	keystroke_Key.backspace	Key.backspace	n/a
379.2875	0.0905	758575	keystroke_Key.backspace	Key.backspace	n/a
379.438	0.12	758876	keystroke_e	e	n/a
379.693	0.104	759386	keystroke_Key.space	Key.space	n/a
380.263	0.09	760526	keystroke_v	v	n/a
380.368	0.12	760736	keystroke_i	i	n/a
380.518	0.09	761036	keystroke_d	d	n/a
380.728	0.135	761456	keystroke_e	e	n/a
380.878	0.119	761756	keystroke_o	o	n/a
381.418	0.09	762836	keystroke_Key.enter	Key.enter	n/a
381.512	8.427	763024	prompt	n/a	vsnet qualified opened nasty\n
382.722	0.105	765444	keystroke_v	v	n/a
382.872	0.135	765744	keystroke_s	s	n/a
383.052	0.1205	766104	keystroke_n	n	n/a
383.2025	0.12	766405	keystroke_e	e	n/a
383.4575	0.12	766915	keystroke_t	t	n/a
383.6075	0.1205	767215	keystroke_Key.space	Key.space	n/a
383.878	0.21	767756	keystroke_o	o	n/a
384.028	0.18	768056	keystroke_p	p	n/a
384.643	0.06	769286	keystroke_Key.backspace	Key.backspace	n/a
384.838	0.09	769676	keystroke_Key.backspace	Key.backspace	n/a
385.6325	0.105	771265	keystroke_q	q	n/a
385.7225	0.135	771445	keystroke_u	u	n/a
385.8875	0.135	771775	keystroke_a	a	n/a
386.0825	0.18	772165	keystroke_l	l	n/a
386.2175	0.15	772435	keystroke_i	i	n/a
386.3525	0.1355	772705	keystroke_f	f	n/a
386.518	0.135	773036	keystroke_i	i	n/a
386.683	0.09	773366	keystroke_e	e	n/a
386.878	0.12	773756	keystroke_d	d	n/a
386.998	0.1195	773996	keystroke_Key.space	Key.space	n/a
387.2375	0.255	774475	keystroke_o	o	n/a
387.4175	0.15	774835	keystroke_p	p	n/a
387.5825	0.135	775165	keystroke_e	e	n/a
387.7475	0.18	775495	keystroke_n	n	n/a
387.8225	0.165	775645	keystroke_e	e	n/a
388.0925	0.135	776185	keystroke_d	d	n/a
388.3025	0.09	776605	keystroke_Key.space	Key.space	n/a
388.7525	0.135	777505	keystroke_n	n	n/a
388.9475	0.09	777895	keystroke_a	a	n/a
389.0975	0.165	778195	keystroke_s	s	n/a
389.2325	0.105	778465	keystroke_t	t	n/a
389.4425	0.075	778885	keystroke_y	y	n/a
389.8325	0.105	779665	keystroke_Key.enter	Key.enter	n/a
389.9435	9.3555	779887	prompt	n/a	portraits quest aviation tourism\n
390.6725	0.105	781345	keystroke_p	p	n/a
391.1225	0.12	782245	keystroke_o	o	n/a
391.2725	0.105	782545	keystroke_r	r	n/a
391.4675	0.105	782935	keystroke_t	t	n/a
391.7825	0.06	783565	keystroke_y	y	n/a
392.322	0.075	784644	keystroke_Key.backspace	Key.backspace	n/a
392.563	0.0895	785126	keystroke_r	r	n/a
392.9375	0.105	785875	keystroke_a	a	n/a
393.0725	0.12	786145	keystroke_i	i	n/a
393.2825	0.105	786565	keystroke_t	t	n/a
393.583	0.15	787166	keystroke_s	s	n/a
393.778	0.105	787556	keystroke_Key.space	Key.space	n/a
394.423	0.105	788846	keystroke_q	q	n/a
394.558	0.12	789116	keystroke_u	u	n/a
394.723	0.09	789446	keystroke_e	e	n/a
394.933	0.105	789866	keystroke_s	s	n/a
395.2025	0.0905	790405	keystroke_t	t	n/a
395.3075	0.12	790615	keystroke_Key.space	Key.space	n/a
395.818	0.06	791636	keystroke_a	a	n/a
396.0725	0.09	792145	keystroke_v	v	n/a
396.2225	0.12	792445	keystroke_i	i	n/a
396.4175	0.09	792835	keystroke_a	a	n/a
396.6875	0.105	793375	keystroke_t	t	n/a
396.8075	0.21	793615	keystroke_i	i	n/a
397.0025	0.255	794005	keystroke_o	o	n/a
397.1825	0.2555	794365	keystroke_n	n	n/a
397.378	0.135	794756	keystroke_Key.space	Key.space	n/a
397.768	0.09	795536	keystroke_t	t	n/a
397.903	0.21	795806	keystroke_o	o	n/a
398.068	0.15	796136	keystroke_u	u	n/a
398.233	0.135	796466	keystroke_r	r	n/a
398.383	0.135	796766	keystroke_i	i	n/a
398.593	0.1345	797186	keystroke_s	s	n/a
398.7875	0.12	797575	keystroke_m	m	n/a
399.2075	0.09	798415	keystroke_Key.enter	Key.enter	n/a
399.302	8.2625	798604	prompt	n/a	judge wrestling gains findings\n
400.047	0.211	800094	keystroke_j	j	n/a
400.1825	0.165	800365	keystroke_u	u	n/a
400.3625	0.09	800725	keystroke_s	s	n/a
400.6925	0.105	801385	keystroke_Key.backspace	Key.backspace	n/a
400.8275	0.12	801655	keystroke_d	d	n/a
401.0075	0.105	802015	keystroke_g	g	n/a
401.1725	0.12	802345	keystroke_e	e	n/a
401.3525	0.09	802705	keystroke_Key.space	Key.space	n/a
402.0875	0.09	804175	keystroke_w	w	n/a
402.3275	0.075	804655	keystroke_r	r	n/a
402.4775	0.09	804955	keystroke_e	e	n/a
402.6875	0.09	805375	keystroke_s	s	n/a
402.8975	0.135	805795	keystroke_t	t	n/a
403.0625	0.2245	806125	keystroke_l	l	n/a
403.212	0.255	806424	keystroke_i	i	n/a
403.362	0.21	806724	keystroke_n	n	n/a
403.542	0.1505	807084	keystroke_g	g	n/a
403.7525	0.1055	807505	keystroke_Key.space	Key.space	n/a
404.023	0.135	808046	keystroke_g	g	n/a
404.188	0.18	808376	keystroke_a	a	n/a
404.353	0.27	808706	keystroke_i	i	n/a
404.503	0.18	809006	keystroke_n	n	n/a
404.668	0.12	809336	keystroke_s	s	n/a
404.893	0.105	809786	keystroke_Key.space	Key.space	n/a
405.4925	0.12	810985	keystroke_f	f	n/a
405.7175	0.255	811435	keystroke_i	i	n/a
405.8825	0.21	811765	keystroke_n	n	n/a
406.0775	0.12	812155	keystroke_d	d	n/a
406.2725	0.225	812545	keystroke_i	i	n/a
406.4225	0.18	812845	keystroke_n	n	n/a
406.5875	0.135	813175	keystroke_g	g	n/a
406.9325	0.15	813865	keystroke_s	s	n/a
407.4575	0.1045	814915	keystroke_Key.enter	Key.enter	n/a
407.5665	7.858	815133	prompt	n/a	julia editing applied expenditures\n
408.388	0.09	816776	keystroke_j	j	n/a
408.718	0.09	817436	keystroke_u	u	n/a
408.913	0.09	817826	keystroke_l	l	n/a
409.093	0.105	818186	keystroke_i	i	n/a
409.258	0.12	818516	keystroke_a	a	n/a
409.468	0.09	818936	keystroke_Key.space	Key.space	n/a
409.7675	0.09	819535	keystroke_e	e	n/a
409.9625	0.1205	819925	keystroke_d	d	n/a
410.128	0.134	820256	keystroke_i	i	n/a
410.308	0.119	820616	keystroke_t	t	n/a
410.473	0.24	820946	keystroke_i	i	n/a
410.623	0.165	821246	keystroke_n	n	n/a
410.803	0.105	821606	keystroke_g	g	n/a
410.938	0.135	821876	keystroke_Key.space	Key.space	n/a
411.2075	0.12	822415	keystroke_a	a	n/a
411.2975	0.09	822595	keystroke_p	p	n/a
411.4925	0.21	822985	keystroke_p	p	n/a
411.6575	0.12	823315	keystroke_l	l	n/a
411.9125	0.12	823825	keystroke_i	i	n/a
412.0175	0.1045	824035	keystroke_e	e	n/a
412.227	0.1505	824454	keystroke_d	d	n/a
412.4825	0.105	824965	keystroke_Key.space	Key.space	n/a
412.9175	0.09	825835	keystroke_e	e	n/a
413.1725	0.105	826345	keystroke_x	x	n/a
413.3075	0.135	826615	keystroke_p	p	n/a
413.4875	0.12	826975	keystroke_e	e	n/a
413.6675	0.12	827335	keystroke_n	n	n/a
413.8025	0.12	827605	keystroke_d	d	n/a
413.9825	0.135	827965	keystroke_i	i	n/a
414.1775	0.12	828355	keystroke_t	t	n/a
414.3275	0.105	828655	keystroke_u	u	n/a
414.4475	0.09	828895	keystroke_r	r	n/a
414.6575	0.075	829315	keystroke_e	e	n/a
414.8675	0.105	829735	keystroke_s	s	n/a
415.3175	0.105	830635	keystroke_Key.enter	Key.enter	n/a
415.4275	9.7765	830855	prompt	n/a	departmental perhaps thats finnish\n
416.1725	0.09	832345	keystroke_d	d	n/a
416.3375	0.12	832675	keystroke_e	e	n/a
416.5325	0.15	833065	keystroke_p	p	n/a
416.7275	0.1055	833455	keystroke_a	a	n/a
417.013	0.09	834026	keystroke_r	r	n/a
417.163	0.0895	834326	keystroke_t	t	n/a
417.3425	0.12	834685	keystroke_m	m	n/a
417.5375	0.105	835075	keystroke_e	e	n/a
417.583	0.0295	835166	keystroke_w	w	n/a
417.6875	0.1055	835375	keystroke_n	n	n/a
417.853	0.075	835706	keystroke_t	t	n/a
418.273	0.075	836546	keystroke_Key.backspace	Key.backspace	n/a
418.453	0.075	836906	keystroke_Key.backspace	Key.backspace	n/a
418.633	0.12	837266	keystroke_Key.backspace	Key.backspace	n/a
418.948	0.105	837896	keystroke_n	n	n/a
419.263	0.105	838526	keystroke_t	t	n/a
419.563	0.12	839126	keystroke_a	a	n/a
419.698	0.18	839396	keystroke_l	l	n/a
419.848	0.1345	839696	keystroke_Key.space	Key.space	n/a
420.0725	0.135	840145	keystroke_p	p	n/a
420.1775	0.105	840355	keystroke_e	e	n/a
420.4175	0.105	840835	keystroke_r	r	n/a
420.8525	0.105	841705	keystroke_h	h	n/a
421.0175	0.12	842035	keystroke_a	a	n/a
421.1525	0.105	842305	keystroke_p	p	n/a
421.3475	0.135	842695	keystroke_s	s	n/a
421.4975	0.135	842995	keystroke_Key.space	Key.space	n/a
421.7975	0.1055	843595	keystroke_t	t	n/a
421.948	0.12	843896	keystroke_h	h	n/a
422.158	0.075	844316	keystroke_a	a	n/a
422.4125	0.09	844825	keystroke_t	t	n/a
422.7125	0.105	845425	keystroke_s	s	n/a
422.8325	0.12	845665	keystroke_Key.space	Key.space	n/a
423.852	0.091	847704	keystroke_f	f	n/a
423.988	0.1795	847976	keystroke_i	i	n/a
424.1225	0.09	848245	keystroke_n	n	n/a
424.3025	0.18	848605	keystroke_n	n	n/a
424.4525	0.18	848905	keystroke_i	i	n/a
424.6025	0.15	849205	keystroke_s	s	n/a
424.7825	0.135	849565	keystroke_h	h	n/a
425.0975	0.1045	850195	keystroke_Key.enter	Key.enter	n/a
425.207	5.487	850414	prompt	n/a	belly week adapted argue\n
425.922	0.105	851844	keystroke_b	b	n/a
426.057	0.121	852114	keystroke_e	e	n/a
426.207	0.075	852414	keystroke_l	l	n/a
426.342	0.12	852684	keystroke_l	l	n/a
426.612	0.165	853224	keystroke_y	y	n/a
426.733	0.1195	853466	keystroke_Key.space	Key.space	n/a
426.8825	0.105	853765	keystroke_w	w	n/a
427.122	0.09	854244	keystroke_e	e	n/a
427.287	0.1355	854574	keystroke_e	e	n/a
427.4675	0.195	854935	keystroke_k	k	n/a
427.602	0.1205	855204	keystroke_Key.space	Key.space	n/a
427.9175	0.0895	855835	keystroke_a	a	n/a
428.143	0.089	856286	keystroke_d	d	n/a
428.3675	0.105	856735	keystroke_a	a	n/a
428.5025	0.1495	857005	keystroke_p	p	n/a
428.713	0.09	857426	keystroke_t	t	n/a
428.938	0.09	857876	keystroke_e	e	n/a
429.133	0.105	858266	keystroke_d	d	n/a
429.238	0.12	858476	keystroke_Key.space	Key.space	n/a
429.448	0.105	858896	keystroke_a	a	n/a
429.733	0.075	859466	keystroke_r	r	n/a
429.913	0.1945	859826	keystroke_g	g	n/a
430.033	0.1795	860066	keystroke_u	u	n/a
430.1975	0.135	860395	keystroke_e	e	n/a
430.5875	0.105	861175	keystroke_Key.enter	Key.enter	n/a
430.6975	6.0565	861395	prompt	n/a	realized woman isolated songs\n
431.428	0.075	862856	keystroke_r	r	n/a
431.5775	0.105	863155	keystroke_e	e	n/a
431.8625	0.075	863725	keystroke_a	a	n/a
431.9825	0.18	863965	keystroke_l	l	n/a
432.1025	0.18	864205	keystroke_i	i	n/a
432.2375	0.105	864475	keystroke_z	z	n/a
432.4925	0.075	864985	keystroke_e	e	n/a
432.6725	0.1055	865345	keystroke_d	d	n/a
432.808	0.135	865616	keystroke_Key.space	Key.space	n/a
432.988	0.12	865976	keystroke_w	w	n/a
433.153	0.225	866306	keystroke_o	o	n/a
433.303	0.15	866606	keystroke_m	m	n/a
433.423	0.2245	866846	keystroke_a	a	n/a
433.6025	0.24	867205	keystroke_n	n	n/a
433.7525	0.195	867505	keystroke_Key.space	Key.space	n/a
433.9175	0.21	867835	keystroke_i	i	n/a
434.0675	0.1645	868135	keystroke_s	s	n/a
434.247	0.105	868494	keystroke_o	o	n/a
434.412	0.15	868824	keystroke_l	l	n/a
434.517	0.106	869034	keystroke_a	a	n/a
434.8175	0.1045	869635	keystroke_t	t	n/a
435.027	0.09	870054	keystroke_e	e	n/a
435.222	0.121	870444	keystroke_d	d	n/a
435.477	0.1205	870954	keystroke_Key.space	Key.space	n/a
435.6725	0.105	871345	keystroke_s	s	n/a
435.8375	0.195	871675	keystroke_o	o	n/a
435.9875	0.135	871975	keystroke_n	n	n/a
436.0925	0.09	872185	keystroke_g	g	n/a
436.3775	0.105	872755	keystroke_s	s	n/a
436.6625	0.09	873325	keystroke_Key.enter	Key.enter	n/a
436.757	7.197	873514	prompt	n/a	meyer steps excitement vegetable\n
437.4125	0.12	874825	keystroke_m	m	n/a
437.5925	0.135	875185	keystroke_e	e	n/a
437.7425	0.091	875485	keystroke_y	y	n/a
437.8475	0.106	875695	keystroke_e	e	n/a
438.0435	0.104	876087	keystroke_r	r	n/a
438.1775	0.1055	876355	keystroke_Key.space	Key.space	n/a
438.418	0.06	876836	keystroke_s	s	n/a
438.6275	0.09	877255	keystroke_t	t	n/a
438.8375	0.105	877675	keystroke_e	e	n/a
438.9725	0.12	877945	keystroke_p	p	n/a
439.123	0.135	878246	keystroke_s	s	n/a
439.288	0.15	878576	keystroke_Key.space	Key.space	n/a
439.528	0.075	879056	keystroke_e	e	n/a
440.1275	0.075	880255	keystroke_x	x	n/a
440.2925	0.09	880585	keystroke_c	c	n/a
440.5325	0.135	881065	keystroke_i	i	n/a
440.6975	0.105	881395	keystroke_t	t	n/a
440.9825	0.105	881965	keystroke_e	e	n/a
441.1325	0.12	882265	keystroke_m	m	n/a
441.283	0.12	882566	keystroke_e	e	n/a
441.448	0.105	882896	keystroke_n	n	n/a
441.568	0.105	883136	keystroke_t	t	n/a
441.703	0.12	883406	keystroke_Key.space	Key.space	n/a
442.288	0.119	884576	keystroke_v	v	n/a
442.422	0.12	884844	keystroke_e	e	n/a
442.618	0.119	885236	keystroke_g	g	n/a
442.767	0.105	885534	keystroke_e	e	n/a
442.903	0.119	885806	keystroke_t	t	n/a
443.112	0.1505	886224	keystroke_a	a	n/a
443.2775	0.255	886555	keystroke_b	b	n/a
443.4425	0.195	886885	keystroke_l	l	n/a
443.6075	0.1195	887215	keystroke_e	e	n/a
443.877	0.075	887754	keystroke_Key.enter	Key.enter	n/a
443.957	9.162	887914	prompt	n/a	wrapping conditioning update smithsonian\n
444.793	0.09	889586	keystroke_w	w	n/a
444.988	0.09	889976	keystroke_r	r	n/a
445.2575	0.12	890515	keystroke_a	a	n/a
445.4075	0.09	890815	keystroke_p	p	n/a
445.5575	0.105	891115	keystroke_p	p	n/a
445.7675	0.15	891535	keystroke_i	i	n/a
445.9185	0.179	891837	keystroke_n	n	n/a
446.1125	0.1355	892225	keystroke_g	g	n/a
446.263	0.12	892526	keystroke_Key.space	Key.space	n/a
446.847	0.09	893694	keystroke_c	c	n/a
446.938	0.2095	893876	keystroke_o	o	n/a
447.087	0.1805	894174	keystroke_n	n	n/a
447.2525	0.12	894505	keystroke_d	d	n/a
447.4025	0.12	894805	keystroke_i	i	n/a
447.5675	0.09	895135	keystroke_t	t	n/a
447.6725	0.1655	895345	keystroke_i	i	n/a
447.808	0.21	895616	keystroke_o	o	n/a
447.943	0.165	895886	keystroke_n	n	n/a
448.123	0.225	896246	keystroke_i	i	n/a
448.228	0.21	896456	keystroke_n	n	n/a
448.393	0.165	896786	keystroke_g	g	n/a
448.588	0.12	897176	keystroke_Key.space	Key.space	n/a
449.3525	0.15	898705	keystroke_u	u	n/a
449.4425	0.165	898885	keystroke_p	p	n/a
449.6085	0.119	899217	keystroke_d	d	n/a
449.8475	0.105	899695	keystroke_a	a	n/a
449.9675	0.12	899935	keystroke_t	t	n/a
450.1325	0.105	900265	keystroke_e	e	n/a
450.2825	0.12	900565	keystroke_Key.space	Key.space	n/a
450.8825	0.09	901765	keystroke_s	s	n/a
450.9725	0.1955	901945	keystroke_m	m	n/a
451.123	0.165	902246	keystroke_i	i	n/a
451.303	0.09	902606	keystroke_t	t	n/a
451.453	0.12	902906	keystroke_h	h	n/a
451.603	0.105	903206	keystroke_s	s	n/a
451.723	0.1795	903446	keystroke_o	o	n/a
451.8725	0.21	903745	keystroke_n	n	n/a
452.0075	0.195	904015	keystroke_i	i	n/a
452.1725	0.18	904345	keystroke_a	a	n/a
452.3375	0.12	904675	keystroke_n	n	n/a
453.028	0.0895	906056	keystroke_Key.enter	Key.enter	n/a
453.122	6.043	906244	prompt	n/a	carol purchasing trial pics\n
453.9875	0.075	907975	keystroke_c	c	n/a
454.2425	0.09	908485	keystroke_a	a	n/a
454.4675	0.105	908935	keystroke_r	r	n/a
454.5875	0.12	909175	keystroke_o	o	n/a
454.7975	0.21	909595	keystroke_l	l	n/a
454.9475	0.12	909895	keystroke_Key.space	Key.space	n/a
455.1585	0.119	910317	keystroke_p	p	n/a
455.4125	0.09	910825	keystroke_u	u	n/a
455.5335	0.104	911067	keystroke_r	r	n/a
455.7425	0.091	911485	keystroke_c	c	n/a
455.8935	0.1045	911787	keystroke_h	h	n/a
456.058	0.075	912116	keystroke_a	a	n/a
456.223	0.105	912446	keystroke_s	s	n/a
456.373	0.21	912746	keystroke_i	i	n/a
456.493	0.195	912986	keystroke_n	n	n/a
456.673	0.1645	913346	keystroke_g	g	n/a
456.8675	0.105	913735	keystroke_Key.space	Key.space	n/a
457.123	0.09	914246	keystroke_t	t	n/a
457.318	0.0895	914636	keystroke_r	r	n/a
457.4975	0.12	914995	keystroke_i	i	n/a
457.7075	0.151	915415	keystroke_a	a	n/a
457.8725	0.21	915745	keystroke_l	l	n/a
458.0375	0.1205	916075	keystroke_Key.space	Key.space	n/a
458.188	0.21	916376	keystroke_p	p	n/a
458.383	0.165	916766	keystroke_i	i	n/a
458.518	0.105	917036	keystroke_c	c	n/a
458.788	0.12	917576	keystroke_s	s	n/a
459.073	0.0895	918146	keystroke_Key.enter	Key.enter	n/a
459.1695	8.0045	918339	prompt	n/a	newton paypal networking repairs\n
459.868	0.12	919736	keystroke_n	n	n/a
460.0475	0.12	920095	keystroke_e	e	n/a
460.2125	0.1205	920425	keystroke_w	w	n/a
460.483	0.105	920966	keystroke_t	t	n/a
460.648	0.24	921296	keystroke_o	o	n/a
460.783	0.21	921566	keystroke_n	n	n/a
460.963	0.1795	921926	keystroke_Key.space	Key.space	n/a
461.0975	0.135	922195	keystroke_p	p	n/a
461.2625	0.1505	922525	keystroke_a	a	n/a
461.3835	0.1045	922767	keystroke_y	y	n/a
461.5925	0.15	923185	keystroke_p	p	n/a
461.6825	0.225	923365	keystroke_a	a	n/a
461.9375	0.24	923875	keystroke_l	l	n/a
462.1175	0.135	924235	keystroke_Key.space	Key.space	n/a
462.3275	0.135	924655	keystroke_n	n	n/a
462.5825	0.09	925165	keystroke_w	w	n/a
463.1525	0.105	926305	keystroke_Key.backspace	Key.backspace	n/a
463.3175	0.09	926635	keystroke_e	e	n/a
463.738	0.09	927476	keystroke_t	t	n/a
464.038	0.135	928076	keystroke_w	w	n/a
464.143	0.135	928286	keystroke_o	o	n/a
464.323	0.1195	928646	keystroke_r	r	n/a
464.4585	0.09	928917	keystroke_k	k	n/a
464.6685	0.2245	929337	keystroke_i	i	n/a
464.8035	0.135	929607	keystroke_n	n	n/a
464.923	0.1205	929846	keystroke_g	g	n/a
465.0575	0.1205	930115	keystroke_Key.space	Key.space	n/a
465.6425	0.075	931285	keystroke_r	r	n/a
465.7925	0.09	931585	keystroke_e	e	n/a
465.9725	0.135	931945	keystroke_p	p	n/a
466.1225	0.09	932245	keystroke_a	a	n/a
466.2735	0.09	932547	keystroke_i	i	n/a
466.4075	0.105	932815	keystroke_r	r	n/a
466.6475	0.105	933295	keystroke_s	s	n/a
467.053	0.1195	934106	keystroke_Key.enter	Key.enter	n/a
467.1775	11.4715	934355	prompt	n/a	digital political exploring general\n
468.553	0.105	937106	keystroke_d	d	n/a
468.718	0.12	937436	keystroke_i	i	n/a
468.853	0.105	937706	keystroke_g	g	n/a
468.973	0.135	937946	keystroke_i	i	n/a
469.093	0.075	938186	keystroke_t	t	n/a
469.393	0.15	938786	keystroke_s	s	n/a
469.543	0.1955	939086	keystroke_l	l	n/a
469.6625	0.135	939325	keystroke_Key.space	Key.space	n/a
470.1275	0.075	940255	keystroke_Key.backspace	Key.backspace	n/a
470.3225	0.075	940645	keystroke_Key.backspace	Key.backspace	n/a
470.4725	0.09	940945	keystroke_Key.backspace	Key.backspace	n/a
471.2975	0.12	942595	keystroke_a	a	n/a
471.4925	0.18	942985	keystroke_l	l	n/a
471.6425	0.12	943285	keystroke_Key.space	Key.space	n/a
471.8525	0.1955	943705	keystroke_p	p	n/a
472.018	0.165	944036	keystroke_o	o	n/a
472.258	0.12	944516	keystroke_l	l	n/a
472.483	0.075	944966	keystroke_o	o	n/a
472.918	0.075	945836	keystroke_Key.backspace	Key.backspace	n/a
473.128	0.135	946256	keystroke_i	i	n/a
473.233	0.12	946466	keystroke_t	t	n/a
473.413	0.135	946826	keystroke_i	i	n/a
473.698	0.075	947396	keystroke_c	c	n/a
474.013	0.18	948026	keystroke_a	a	n/a
474.178	0.1795	948356	keystroke_l	l	n/a
474.3125	0.135	948625	keystroke_Key.space	Key.space	n/a
475.1825	0.09	950365	keystroke_e	e	n/a
475.4225	0.12	950845	keystroke_x	x	n/a
475.5275	0.195	951055	keystroke_p	p	n/a
475.6475	0.12	951295	keystroke_l	l	n/a
475.8725	0.12	951745	keystroke_o	o	n/a
476.0075	0.105	952015	keystroke_r	r	n/a
476.1425	0.225	952285	keystroke_i	i	n/a
476.2925	0.18	952585	keystroke_n	n	n/a
476.4125	0.12	952825	keystroke_g	g	n/a
476.5625	0.12	953125	keystroke_Key.space	Key.space	n/a
477.163	0.12	954326	keystroke_g	g	n/a
477.328	0.135	954656	keystroke_e	e	n/a
477.493	0.105	954986	keystroke_n	n	n/a
477.583	0.12	955166	keystroke_e	e	n/a
477.778	0.105	955556	keystroke_r	r	n/a
478.018	0.15	956036	keystroke_a	a	n/a
478.183	0.12	956366	keystroke_l	l	n/a
478.573	0.075	957146	keystroke_Key.enter	Key.enter	n/a
478.6525	10.932	957305	prompt	n/a	scientific protocol statistics portugal\n
479.353	0.105	958706	keystroke_s	s	n/a
479.563	0.12	959126	keystroke_c	c	n/a
479.698	0.09	959396	keystroke_i	i	n/a
479.833	0.1045	959666	keystroke_e	e	n/a
479.9825	0.12	959965	keystroke_n	n	n/a
480.1325	0.12	960265	keystroke_t	t	n/a
480.2825	0.12	960565	keystroke_i	i	n/a
480.7325	0.105	961465	keystroke_f	f	n/a
480.8975	0.15	961795	keystroke_i	i	n/a
481.0775	0.09	962155	keystroke_c	c	n/a
481.2725	0.15	962545	keystroke_Key.space	Key.space	n/a
481.6625	0.15	963325	keystroke_p	p	n/a
481.7975	0.1355	963595	keystroke_r	r	n/a
481.948	0.135	963896	keystroke_o	o	n/a
482.098	0.105	964196	keystroke_t	t	n/a
482.233	0.12	964466	keystroke_o	o	n/a
482.398	0.105	964796	keystroke_c	c	n/a
482.563	0.105	965126	keystroke_o	o	n/a
482.743	0.165	965486	keystroke_l	l	n/a
482.863	0.135	965726	keystroke_Key.space	Key.space	n/a
483.433	0.0895	966866	keystroke_s	s	n/a
483.6725	0.075	967345	keystroke_t	t	n/a
483.943	0.0895	967886	keystroke_a	a	n/a
484.183	0.075	968366	keystroke_t	t	n/a
484.318	0.1045	968636	keystroke_i	i	n/a
484.4675	0.12	968935	keystroke_s	s	n/a
484.7075	0.0755	969415	keystroke_i	i	n/a
484.8285	0.0895	969657	keystroke_t	t	n/a
485.248	0.045	970496	keystroke_Key.backspace	Key.backspace	n/a
485.398	0.09	970796	keystroke_Key.backspace	Key.backspace	n/a
485.548	0.09	971096	keystroke_t	t	n/a
485.713	0.12	971426	keystroke_i	i	n/a
485.848	0.09	971696	keystroke_c	c	n/a
486.0585	0.119	972117	keystroke_s	s	n/a
486.2225	0.12	972445	keystroke_Key.space	Key.space	n/a
486.7925	0.12	973585	keystroke_p	p	n/a
487.108	0.15	974216	keystroke_o	o	n/a
487.3025	0.105	974605	keystroke_r	r	n/a
487.4975	0.09	974995	keystroke_u	u	n/a
488.0375	0.06	976075	keystroke_Key.backspace	Key.backspace	n/a
488.1575	0.105	976315	keystroke_t	t	n/a
488.3225	0.12	976645	keystroke_u	u	n/a
488.6075	0.1055	977215	keystroke_g	g	n/a
488.758	0.12	977516	keystroke_a	a	n/a
488.923	0.135	977846	keystroke_l	l	n/a
489.493	0.09	978986	keystroke_Key.enter	Key.enter	n/a
489.587	6.1475	979174	prompt	n/a	nevada managed norton nokia\n
490.3035	0.12	980607	keystroke_n	n	n/a
490.4525	0.15	980905	keystroke_e	e	n/a
490.6175	0.12	981235	keystroke_v	v	n/a
490.8435	0.074	981687	keystroke_a	a	n/a
491.0535	0.0745	982107	keystroke_d	d	n/a
491.263	0.105	982526	keystroke_a	a	n/a
491.413	0.12	982826	keystroke_Key.space	Key.space	n/a
491.653	0.1195	983306	keystroke_m	m	n/a
491.833	0.12	983666	keystroke_a	a	n/a
491.998	0.105	983996	keystroke_n	n	n/a
492.178	0.105	984356	keystroke_a	a	n/a
492.328	0.09	984656	keystroke_g	g	n/a
492.508	0.075	985016	keystroke_e	e	n/a
492.688	0.1195	985376	keystroke_d	d	n/a
492.8225	0.09	985645	keystroke_Key.space	Key.space	n/a
493.363	0.21	986726	keystroke_n	n	n/a
493.513	0.1495	987026	keystroke_o	o	n/a
493.6325	0.09	987265	keystroke_r	r	n/a
493.8275	0.09	987655	keystroke_t	t	n/a
493.9925	0.271	987985	keystroke_o	o	n/a
494.1885	0.18	988377	keystroke_n	n	n/a
494.3235	0.12	988647	keystroke_Key.space	Key.space	n/a
494.5185	0.21	989037	keystroke_n	n	n/a
494.6385	0.255	989277	keystroke_o	o	n/a
494.8335	0.12	989667	keystroke_k	k	n/a
495.0285	0.12	990057	keystroke_i	i	n/a
495.1785	0.12	990357	keystroke_a	a	n/a
495.613	0.12	991226	keystroke_Key.enter	Key.enter	n/a
495.7365	7.393	991473	prompt	n/a	collecting joke laptops protocol\n
496.438	0.075	992876	keystroke_c	c	n/a
496.573	0.105	993146	keystroke_o	o	n/a
496.798	0.06	993596	keystroke_l	l	n/a
496.948	0.12	993896	keystroke_l	l	n/a
497.038	0.09	994076	keystroke_e	e	n/a
497.248	0.09	994496	keystroke_c	c	n/a
497.443	0.105	994886	keystroke_t	t	n/a
497.578	0.27	995156	keystroke_i	i	n/a
497.758	0.165	995516	keystroke_n	n	n/a
497.893	0.135	995786	keystroke_g	g	n/a
498.043	0.105	996086	keystroke_Key.space	Key.space	n/a
498.298	0.135	996596	keystroke_j	j	n/a
499.033	0.1345	998066	keystroke_o	o	n/a
499.1525	0.15	998305	keystroke_k	k	n/a
499.3175	0.165	998635	keystroke_e	e	n/a
499.5275	0.1205	999055	keystroke_Key.space	Key.space	n/a
499.9635	0.1345	999927	keystroke_l	l	n/a
500.1135	0.1345	1000227	keystroke_a	a	n/a
500.278	0.12	1000556	keystroke_p	p	n/a
500.578	0.105	1001156	keystroke_t	t	n/a
500.713	0.225	1001426	keystroke_o	o	n/a
500.878	0.15	1001756	keystroke_p	p	n/a
501.013	0.1805	1002026	keystroke_s	s	n/a
501.2085	0.105	1002417	keystroke_Key.space	Key.space	n/a
501.5385	0.135	1003077	keystroke_p	p	n/a
501.7035	0.12	1003407	keystroke_r	r	n/a
501.8685	0.12	1003737	keystroke_o	o	n/a
502.0035	0.105	1004007	keystroke_t	t	n/a
502.1685	0.135	1004337	keystroke_o	o	n/a
502.2885	0.105	1004577	keystroke_c	c	n/a
502.4385	0.09	1004877	keystroke_o	o	n/a
502.6335	0.09	1005267	keystroke_l	l	n/a
503.023	0.105	1006046	keystroke_Key.enter	Key.enter	n/a
503.132	8.5625	1006264	prompt	n/a	rising highways reuters publisher\n
503.9685	0.104	1007937	keystroke_r	r	n/a
504.0885	0.134	1008177	keystroke_i	i	n/a
504.3575	0.09	1008715	keystroke_s	s	n/a
504.4785	0.194	1008957	keystroke_i	i	n/a
504.6135	0.149	1009227	keystroke_n	n	n/a
504.7635	0.149	1009527	keystroke_g	g	n/a
504.9425	0.105	1009885	keystroke_Key.space	Key.space	n/a
505.3025	0.181	1010605	keystroke_h	h	n/a
505.4075	0.15	1010815	keystroke_i	i	n/a
505.5135	0.105	1011027	keystroke_g	g	n/a
505.6925	0.106	1011385	keystroke_h	h	n/a
505.8435	0.12	1011687	keystroke_w	w	n/a
506.038	0.12	1012076	keystroke_a	a	n/a
506.203	0.12	1012406	keystroke_y	y	n/a
506.323	0.1505	1012646	keystroke_s	s	n/a
506.4875	0.12	1012975	keystroke_Key.space	Key.space	n/a
507.0125	0.075	1014025	keystroke_r	r	n/a
507.178	0.105	1014356	keystroke_e	e	n/a
507.328	0.105	1014656	keystroke_u	u	n/a
507.463	0.09	1014926	keystroke_t	t	n/a
507.778	0.075	1015556	keystroke_e	e	n/a
507.928	0.09	1015856	keystroke_r	r	n/a
508.198	0.105	1016396	keystroke_s	s	n/a
508.318	0.105	1016636	keystroke_Key.space	Key.space	n/a
509.878	0.105	1019756	keystroke_p	p	n/a
510.103	0.15	1020206	keystroke_u	u	n/a
510.268	0.135	1020536	keystroke_b	b	n/a
510.448	0.1655	1020896	keystroke_l	l	n/a
510.5835	0.15	1021167	keystroke_i	i	n/a
510.7485	0.09	1021497	keystroke_s	s	n/a
510.8685	0.105	1021737	keystroke_h	h	n/a
510.9885	0.105	1021977	keystroke_e	e	n/a
511.1835	0.105	1022367	keystroke_r	r	n/a
511.5885	0.105	1023177	keystroke_Key.enter	Key.enter	n/a
511.6975	5.772	1023395	prompt	n/a	yearly doing crude tags\n
512.4885	0.105	1024977	keystroke_y	y	n/a
512.6085	0.09	1025217	keystroke_e	e	n/a
512.8485	0.105	1025697	keystroke_a	a	n/a
513.1035	0.075	1026207	keystroke_r	r	n/a
513.238	0.09	1026476	keystroke_l	l	n/a
513.568	0.135	1027136	keystroke_y	y	n/a
513.673	0.12	1027346	keystroke_Key.space	Key.space	n/a
514.333	0.09	1028666	keystroke_d	d	n/a
514.453	0.27	1028906	keystroke_o	o	n/a
514.633	0.27	1029266	keystroke_i	i	n/a
514.798	0.255	1029596	keystroke_n	n	n/a
514.933	0.135	1029866	keystroke_g	g	n/a
515.083	0.1495	1030166	keystroke_Key.space	Key.space	n/a
515.3375	0.091	1030675	keystroke_c	c	n/a
515.5485	0.09	1031097	keystroke_r	r	n/a
515.6975	0.091	1031395	keystroke_u	u	n/a
515.8035	0.09	1031607	keystroke_d	d	n/a
515.9975	0.15	1031995	keystroke_e	e	n/a
516.1335	0.1045	1032267	keystroke_Key.space	Key.space	n/a
516.523	0.09	1033046	keystroke_t	t	n/a
516.853	0.075	1033706	keystroke_a	a	n/a
516.958	0.09	1033916	keystroke_g	g	n/a
517.063	0.12	1034126	keystroke_s	s	n/a
517.3625	0.105	1034725	keystroke_Key.enter	Key.enter	n/a
517.4725	10.902	1034945	prompt	n/a	soccer broadcast legally packets\n
518.2325	0.12	1036465	keystroke_s	s	n/a
518.3825	0.12	1036765	keystroke_o	o	n/a
518.5325	0.075	1037065	keystroke_c	c	n/a
518.6685	0.075	1037337	keystroke_c	c	n/a
518.8935	0.075	1037787	keystroke_e	e	n/a
519.0585	0.09	1038117	keystroke_r	r	n/a
519.1935	0.09	1038387	keystroke_Key.space	Key.space	n/a
519.4485	0.135	1038897	keystroke_b	b	n/a
519.5975	0.0755	1039195	keystroke_r	r	n/a
519.718	0.12	1039436	keystroke_o	o	n/a
519.958	0.075	1039916	keystroke_a	a	n/a
520.138	0.09	1040276	keystroke_d	d	n/a
520.333	0.0905	1040666	keystroke_c	c	n/a
520.5585	0.075	1041117	keystroke_a	a	n/a
520.7085	0.18	1041417	keystroke_s	s	n/a
520.8735	0.18	1041747	keystroke_t	t	n/a
521.0085	0.134	1042017	keystroke_Key.space	Key.space	n/a
521.2325	0.135	1042465	keystroke_k	k	n/a
521.3825	0.12	1042765	keystroke_e	e	n/a
521.5775	0.1055	1043155	keystroke_g	g	n/a
521.713	0.105	1043426	keystroke_a	a	n/a
521.878	0.09	1043756	keystroke_k	k	n/a
522.058	0.075	1044116	keystroke_k	k	n/a
522.703	0.09	1045406	keystroke_Key.backspace	Key.backspace	n/a
522.883	0.06	1045766	keystroke_Key.backspace	Key.backspace	n/a
523.1085	0.059	1046217	keystroke_Key.backspace	Key.backspace	n/a
523.3025	0.06	1046605	keystroke_Key.backspace	Key.backspace	n/a
523.5135	0.059	1047027	keystroke_Key.backspace	Key.backspace	n/a
523.753	0.03	1047506	keystroke_Key.backspace	Key.backspace	n/a
524.4425	0.1205	1048885	keystroke_l	l	n/a
524.563	0.105	1049126	keystroke_e	e	n/a
524.728	0.105	1049456	keystroke_g	g	n/a
524.848	0.105	1049696	keystroke_a	a	n/a
524.983	0.09	1049966	keystroke_l	l	n/a
525.118	0.105	1050236	keystroke_l	l	n/a
525.358	0.18	1050716	keystroke_y	y	n/a
525.493	0.135	1050986	keystroke_Key.space	Key.space	n/a
526.003	0.09	1052006	keystroke_p	p	n/a
526.888	0.105	1053776	keystroke_a	a	n/a
527.143	0.09	1054286	keystroke_c	c	n/a
527.263	0.1045	1054526	keystroke_k	k	n/a
527.3975	0.1055	1054795	keystroke_e	e	n/a
527.5925	0.1055	1055185	keystroke_t	t	n/a
527.878	0.09	1055756	keystroke_s	s	n/a
528.2525	0.12	1056505	keystroke_Key.enter	Key.enter	n/a
528.377	10.723	1056754	prompt	n/a	furthermore compilation frankfurt midnight\n
529.1685	0.12	1058337	keystroke_f	f	n/a
529.3185	0.105	1058637	keystroke_u	u	n/a
529.4535	0.09	1058907	keystroke_r	r	n/a
529.6335	0.1345	1059267	keystroke_t	t	n/a
529.798	0.12	1059596	keystroke_h	h	n/a
529.948	0.075	1059896	keystroke_e	e	n/a
530.128	0.105	1060256	keystroke_r	r	n/a
530.278	0.195	1060556	keystroke_m	m	n/a
530.398	0.165	1060796	keystroke_o	o	n/a
530.548	0.12	1061096	keystroke_r	r	n/a
530.758	0.15	1061516	keystroke_e	e	n/a
530.923	0.135	1061846	keystroke_Key.space	Key.space	n/a
531.178	0.075	1062356	keystroke_p	p	n/a
531.6135	0.074	1063227	keystroke_Key.backspace	Key.backspace	n/a
531.7475	0.136	1063495	keystroke_c	c	n/a
531.9735	0.15	1063947	keystroke_o	o	n/a
532.0935	0.239	1064187	keystroke_m	m	n/a
532.2585	0.149	1064517	keystroke_p	p	n/a
532.6025	0.121	1065205	keystroke_i	i	n/a
532.8285	0.105	1065657	keystroke_l	l	n/a
532.9635	0.105	1065927	keystroke_a	a	n/a
533.233	0.135	1066466	keystroke_t	t	n/a
533.383	0.195	1066766	keystroke_i	i	n/a
533.548	0.27	1067096	keystroke_o	o	n/a
533.743	0.15	1067486	keystroke_n	n	n/a
533.848	0.135	1067696	keystroke_Key.space	Key.space	n/a
534.178	0.075	1068356	keystroke_f	f	n/a
534.358	0.09	1068716	keystroke_r	r	n/a
534.598	0.105	1069196	keystroke_a	a	n/a
534.733	0.21	1069466	keystroke_n	n	n/a
534.868	0.15	1069736	keystroke_k	k	n/a
535.063	0.12	1070126	keystroke_f	f	n/a
535.273	0.12	1070546	keystroke_u	u	n/a
535.423	0.06	1070846	keystroke_r	r	n/a
535.573	0.12	1071146	keystroke_t	t	n/a
535.708	0.12	1071416	keystroke_Key.space	Key.space	n/a
536.008	0.135	1072016	keystroke_m	m	n/a
537.553	0.12	1075106	keystroke_i	i	n/a
537.703	0.12	1075406	keystroke_d	d	n/a
537.838	0.18	1075676	keystroke_n	n	n/a
537.928	0.165	1075856	keystroke_i	i	n/a
538.108	0.12	1076216	keystroke_g	g	n/a
538.273	0.075	1076546	keystroke_h	h	n/a
538.4385	0.09	1076877	keystroke_t	t	n/a
538.9785	0.12	1077957	keystroke_Key.enter	Key.enter	n/a
539.1025	5.757	1078205	prompt	n/a	needn't priced chat titles\n
539.8035	0.12	1079607	keystroke_n	n	n/a
539.9535	0.105	1079907	keystroke_e	e	n/a
540.1335	0.12	1080267	keystroke_e	e	n/a
540.3285	0.12	1080657	keystroke_d	d	n/a
540.553	0.18	1081106	keystroke_n	n	n/a
540.658	0.21	1081316	keystroke_'	'	n/a
540.793	0.135	1081586	keystroke_t	t	n/a
541.3485	0.105	1082697	keystroke_Key.space	Key.space	n/a
541.7385	0.12	1083477	keystroke_p	p	n/a
541.8885	0.105	1083777	keystroke_r	r	n/a
542.0375	0.135	1084075	keystroke_i	i	n/a
542.1885	0.09	1084377	keystroke_c	c	n/a
542.4125	0.075	1084825	keystroke_e	e	n/a
542.6075	0.105	1085215	keystroke_d	d	n/a
542.7275	0.15	1085455	keystroke_Key.space	Key.space	n/a
542.9525	0.09	1085905	keystroke_c	c	n/a
543.0725	0.105	1086145	keystroke_h	h	n/a
543.2235	0.135	1086447	keystroke_a	a	n/a
543.3885	0.1345	1086777	keystroke_t	t	n/a
543.4935	0.1345	1086987	keystroke_Key.space	Key.space	n/a
543.688	0.12	1087376	keystroke_t	t	n/a
543.823	0.135	1087646	keystroke_i	i	n/a
543.943	0.15	1087886	keystroke_t	t	n/a
544.123	0.165	1088246	keystroke_l	l	n/a
544.273	0.105	1088546	keystroke_e	e	n/a
544.483	0.12	1088966	keystroke_s	s	n/a
544.768	0.09	1089536	keystroke_Key.enter	Key.enter	n/a
544.8625	8.142	1089725	prompt	n/a	master disclaimer scared volleyball\n
545.488	0.12	1090976	keystroke_m	m	n/a
545.623	0.09	1091246	keystroke_a	a	n/a
545.803	0.105	1091606	keystroke_s	s	n/a
545.9685	0.105	1091937	keystroke_t	t	n/a
546.1035	0.09	1092207	keystroke_e	e	n/a
546.2835	0.105	1092567	keystroke_r	r	n/a
546.4485	0.15	1092897	keystroke_Key.space	Key.space	n/a
546.6585	0.105	1093317	keystroke_d	d	n/a
546.7935	0.12	1093587	keystroke_i	i	n/a
546.9585	0.105	1093917	keystroke_s	s	n/a
547.1685	0.06	1094337	keystroke_a	a	n/a
547.5735	0.089	1095147	keystroke_Key.backspace	Key.backspace	n/a
547.7085	0.105	1095417	keystroke_c	c	n/a
547.9485	0.12	1095897	keystroke_l	l	n/a
548.0835	0.105	1096167	keystroke_a	a	n/a
548.2785	0.09	1096557	keystroke_i	i	n/a
548.4435	0.105	1096887	keystroke_m	m	n/a
548.5935	0.105	1097187	keystroke_e	e	n/a
548.7735	0.12	1097547	keystroke_r	r	n/a
548.9235	0.12	1097847	keystroke_Key.space	Key.space	n/a
549.1935	0.09	1098387	keystroke_s	s	n/a
549.4185	0.06	1098837	keystroke_c	c	n/a
549.613	0.09	1099226	keystroke_a	a	n/a
549.883	0.09	1099766	keystroke_r	r	n/a
550.063	0.105	1100126	keystroke_e	e	n/a
550.273	0.105	1100546	keystroke_d	d	n/a
550.408	0.135	1100816	keystroke_Key.space	Key.space	n/a
550.858	0.075	1101716	keystroke_v	v	n/a
550.948	0.12	1101896	keystroke_o	o	n/a
551.1885	0.075	1102377	keystroke_l	l	n/a
551.3235	0.105	1102647	keystroke_l	l	n/a
551.4885	0.1495	1102977	keystroke_e	e	n/a
551.668	0.12	1103336	keystroke_y	y	n/a
551.863	0.1505	1103726	keystroke_b	b	n/a
552.1485	0.105	1104297	keystroke_a	a	n/a
552.2985	0.09	1104597	keystroke_l	l	n/a
552.4935	0.12	1104987	keystroke_l	l	n/a
552.913	0.09	1105826	keystroke_Key.enter	Key.enter	n/a
553.0095	7.105	1106019	prompt	n/a	prot stamps fashion directories\n
553.6625	0.12	1107325	keystroke_p	p	n/a
553.7975	0.135	1107595	keystroke_r	r	n/a
553.9475	0.12	1107895	keystroke_o	o	n/a
554.1275	0.105	1108255	keystroke_t	t	n/a
554.263	0.12	1108526	keystroke_Key.space	Key.space	n/a
554.578	0.105	1109156	keystroke_s	s	n/a
554.833	0.09	1109666	keystroke_t	t	n/a
555.103	0.1195	1110206	keystroke_a	a	n/a
555.2685	0.239	1110537	keystroke_m	m	n/a
555.4475	0.195	1110895	keystroke_p	p	n/a
555.6285	0.179	1111257	keystroke_s	s	n/a
555.7925	0.1205	1111585	keystroke_Key.space	Key.space	n/a
556.213	0.075	1112426	keystroke_f	f	n/a
556.438	0.105	1112876	keystroke_a	a	n/a
556.633	0.105	1113266	keystroke_s	s	n/a
556.768	0.225	1113536	keystroke_h	h	n/a
556.888	0.27	1113776	keystroke_i	i	n/a
557.083	0.285	1114166	keystroke_o	o	n/a
557.278	0.21	1114556	keystroke_n	n	n/a
557.428	0.12	1114856	keystroke_Key.space	Key.space	n/a
557.9075	0.12	1115815	keystroke_d	d	n/a
558.0575	0.1355	1116115	keystroke_i	i	n/a
558.223	0.09	1116446	keystroke_r	r	n/a
558.388	0.105	1116776	keystroke_e	e	n/a
558.6125	0.09	1117225	keystroke_c	c	n/a
558.8385	0.09	1117677	keystroke_t	t	n/a
558.9585	0.12	1117917	keystroke_o	o	n/a
559.0935	0.12	1118187	keystroke_r	r	n/a
559.2425	0.106	1118485	keystroke_i	i	n/a
559.3625	0.091	1118725	keystroke_e	e	n/a
559.6025	0.091	1119205	keystroke_s	s	n/a
560.0385	0.075	1120077	keystroke_Key.enter	Key.enter	n/a
560.1175	8.142	1120235	prompt	n/a	desert intimate clothing playback\n
560.8185	0.075	1121637	keystroke_d	d	n/a
560.9985	0.09	1121997	keystroke_e	e	n/a
561.2385	0.075	1122477	keystroke_s	s	n/a
561.4035	0.074	1122807	keystroke_e	e	n/a
561.5525	0.181	1123105	keystroke_r	r	n/a
561.7175	0.196	1123435	keystroke_t	t	n/a
561.8975	0.15	1123795	keystroke_Key.space	Key.space	n/a
562.1825	0.256	1124365	keystroke_i	i	n/a
562.3475	0.166	1124695	keystroke_n	n	n/a
562.4825	0.121	1124965	keystroke_t	t	n/a
562.6925	0.151	1125385	keystroke_i	i	n/a
562.9625	0.135	1125925	keystroke_m	m	n/a
563.1575	0.09	1126315	keystroke_a	a	n/a
563.4875	0.075	1126975	keystroke_t	t	n/a
563.7285	0.135	1127457	keystroke_e	e	n/a
563.8785	0.1045	1127757	keystroke_Key.space	Key.space	n/a
564.3585	0.0895	1128717	keystroke_c	c	n/a
564.4635	0.105	1128927	keystroke_l	l	n/a
564.673	0.1355	1129346	keystroke_o	o	n/a
564.823	0.1355	1129646	keystroke_t	t	n/a
564.9735	0.149	1129947	keystroke_h	h	n/a
565.0785	0.284	1130157	keystroke_i	i	n/a
565.2875	0.24	1130575	keystroke_n	n	n/a
565.4085	0.104	1130817	keystroke_g	g	n/a
565.5425	0.15	1131085	keystroke_Key.space	Key.space	n/a
565.7535	0.15	1131507	keystroke_p	p	n/a
566.2185	0.12	1132437	keystroke_l	l	n/a
566.3685	0.119	1132737	keystroke_a	a	n/a
566.9835	0.09	1133967	keystroke_y	y	n/a
567.178	0.12	1134356	keystroke_b	b	n/a
567.283	0.12	1134566	keystroke_a	a	n/a
567.538	0.12	1135076	keystroke_c	c	n/a
567.703	0.0895	1135406	keystroke_k	k	n/a
568.1675	0.09	1136335	keystroke_Key.enter	Key.enter	n/a
568.2625	7.917	1136525	prompt	n/a	commodity households electron billing\n
568.9775	0.075	1137955	keystroke_c	c	n/a
569.0985	0.135	1138197	keystroke_o	o	n/a
569.3235	0.075	1138647	keystroke_m	m	n/a
569.4885	0.1345	1138977	keystroke_m	m	n/a
569.578	0.165	1139156	keystroke_o	o	n/a
569.758	0.12	1139516	keystroke_d	d	n/a
569.893	0.165	1139786	keystroke_i	i	n/a
570.103	0.105	1140206	keystroke_t	t	n/a
570.298	0.12	1140596	keystroke_y	y	n/a
570.403	0.12	1140806	keystroke_Key.space	Key.space	n/a
570.793	0.24	1141586	keystroke_h	h	n/a
570.913	0.1955	1141826	keystroke_o	o	n/a
571.0625	0.136	1142125	keystroke_u	u	n/a
571.1235	0.105	1142247	keystroke_s	s	n/a
571.3335	0.135	1142667	keystroke_e	e	n/a
571.4835	0.18	1142967	keystroke_h	h	n/a
571.5885	0.135	1143177	keystroke_o	o	n/a
571.7985	0.135	1143597	keystroke_l	l	n/a
571.9035	0.105	1143807	keystroke_d	d	n/a
572.098	0.15	1144196	keystroke_s	s	n/a
572.233	0.12	1144466	keystroke_Key.space	Key.space	n/a
573.1025	0.09	1146205	keystroke_e	e	n/a
573.2235	0.149	1146447	keystroke_l	l	n/a
573.3275	0.1055	1146655	keystroke_e	e	n/a
573.553	0.105	1147106	keystroke_c	c	n/a
573.793	0.075	1147586	keystroke_t	t	n/a
573.973	0.12	1147946	keystroke_r	r	n/a
574.138	0.24	1148276	keystroke_o	o	n/a
574.333	0.2245	1148666	keystroke_n	n	n/a
574.513	0.1045	1149026	keystroke_Key.space	Key.space	n/a
574.7825	0.226	1149565	keystroke_b	b	n/a
574.9475	0.1505	1149895	keystroke_i	i	n/a
575.128	0.105	1150256	keystroke_l	l	n/a
575.308	0.15	1150616	keystroke_l	l	n/a
575.398	0.24	1150796	keystroke_i	i	n/a
575.563	0.18	1151126	keystroke_n	n	n/a
575.728	0.105	1151456	keystroke_g	g	n/a
576.073	0.105	1152146	keystroke_Key.enter	Key.enter	n/a
576.1825	11.0375	1152365	prompt	n/a	ottawa implement renaissance forecast\n
576.9435	0.1195	1153887	keystroke_o	o	n/a
577.0785	0.06	1154157	keystroke_t	t	n/a
577.198	0.12	1154396	keystroke_t	t	n/a
577.543	0.135	1155086	keystroke_a	a	n/a
578.023	0.12	1156046	keystroke_w	w	n/a
578.248	0.135	1156496	keystroke_a	a	n/a
578.398	0.12	1156796	keystroke_Key.space	Key.space	n/a
578.9085	0.165	1157817	keystroke_i	i	n/a
579.0135	0.345	1158027	keystroke_m	m	n/a
579.2235	0.165	1158447	keystroke_p	p	n/a
579.3135	0.21	1158627	keystroke_l	l	n/a
579.4635	0.165	1158927	keystroke_e	e	n/a
579.6135	0.12	1159227	keystroke_m	m	n/a
579.7485	0.15	1159497	keystroke_e	e	n/a
579.8535	0.135	1159707	keystroke_n	n	n/a
580.018	0.15	1160036	keystroke_t	t	n/a
580.153	0.105	1160306	keystroke_Key.space	Key.space	n/a
580.724	0.074	1161448	keystroke_r	r	n/a
580.888	0.105	1161776	keystroke_e	e	n/a
581.008	0.135	1162016	keystroke_n	n	n/a
581.338	0.09	1162676	keystroke_a	a	n/a
581.578	0.1055	1163156	keystroke_i	i	n/a
582.3435	0.09	1164687	keystroke_s	s	n/a
582.5085	0.105	1165017	keystroke_s	s	n/a
582.748	0.075	1165496	keystroke_a	a	n/a
582.883	0.12	1165766	keystroke_n	n	n/a
583.018	0.0905	1166036	keystroke_c	c	n/a
583.2425	0.1055	1166485	keystroke_e	e	n/a
583.3625	0.12	1166725	keystroke_Key.space	Key.space	n/a
584.2035	0.09	1168407	keystroke_d	d	n/a
584.7885	0.105	1169577	keystroke_Key.backspace	Key.backspace	n/a
584.9235	0.165	1169847	keystroke_f	f	n/a
585.133	0.165	1170266	keystroke_o	o	n/a
585.283	0.105	1170566	keystroke_r	r	n/a
585.5835	0.015	1171167	keystroke_e	e	n/a
585.7335	0.075	1171467	keystroke_c	c	n/a
586.0035	0.09	1172007	keystroke_a	a	n/a
586.1985	0.12	1172397	keystroke_s	s	n/a
586.6485	0.06	1173297	keystroke_t	t	n/a
587.113	0.105	1174226	keystroke_Key.enter	Key.enter	n/a
587.223	6.567	1174446	prompt	n/a	trace porter governance hull\n
587.953	0.105	1175906	keystroke_t	t	n/a
588.178	0.09	1176356	keystroke_r	r	n/a
588.478	0.105	1176956	keystroke_a	a	n/a
588.658	0.12	1177316	keystroke_c	c	n/a
588.808	0.135	1177616	keystroke_e	e	n/a
589.003	0.12	1178006	keystroke_Key.space	Key.space	n/a
589.348	0.21	1178696	keystroke_p	p	n/a
589.513	0.1805	1179026	keystroke_o	o	n/a
589.648	0.105	1179296	keystroke_r	r	n/a
589.843	0.105	1179686	keystroke_t	t	n/a
590.0835	0.089	1180167	keystroke_e	e	n/a
590.278	0.12	1180556	keystroke_r	r	n/a
590.4125	0.12	1180825	keystroke_Key.space	Key.space	n/a
590.9075	0.09	1181815	keystroke_g	g	n/a
591.0425	0.136	1182085	keystroke_o	o	n/a
591.3735	0.075	1182747	keystroke_v	v	n/a
591.5835	0.075	1183167	keystroke_e	e	n/a
591.7485	0.09	1183497	keystroke_r	r	n/a
591.9585	0.105	1183917	keystroke_n	n	n/a
592.0935	0.09	1184187	keystroke_a	a	n/a
592.2285	0.12	1184457	keystroke_n	n	n/a
592.3485	0.09	1184697	keystroke_c	c	n/a
592.5585	0.1945	1185117	keystroke_e	e	n/a
592.6935	0.1045	1185387	keystroke_Key.space	Key.space	n/a
592.888	0.211	1185776	keystroke_h	h	n/a
593.038	0.12	1186076	keystroke_u	u	n/a
