onset	duration	sample	value	key	prompt_text
3.7505	26.2665	7501	prompt	n/a	the quick brown fox jumps over a lazy dog\n
16.8915	0.028	33783	keystroke_t	t	n/a
17.0845	0.09	34169	keystroke_g	g	n/a
18.5385	0.136	37077	keystroke_Key.backspace	Key.backspace	n/a
19.0795	0.12	38159	keystroke_h	h	n/a
19.2295	0.105	38459	keystroke_e	e	n/a
19.574	0.1205	39148	keystroke_Key.space	Key.space	n/a
19.7845	0.1045	39569	keystroke_q	q	n/a
19.934	0.15	39868	keystroke_u	u	n/a
20.1745	0.15	40349	keystroke_i	i	n/a
20.3845	0.12	40769	keystroke_c	c	n/a
20.5195	0.135	41039	keystroke_k	k	n/a
20.8045	0.12	41609	keystroke_Key.space	Key.space	n/a
20.9695	0.0895	41939	keystroke_b	b	n/a
21.2395	0.105	42479	keystroke_r	r	n/a
21.3745	0.2395	42749	keystroke_o	o	n/a
21.824	0.12	43648	keystroke_w	w	n/a
21.989	0.135	43978	keystroke_n	n	n/a
22.229	0.1495	44458	keystroke_Key.space	Key.space	n/a
22.499	0.12	44998	keystroke_f	f	n/a
22.679	0.105	45358	keystroke_o	o	n/a
22.904	0.105	45808	keystroke_x	x	n/a
23.129	0.12	46258	keystroke_Key.space	Key.space	n/a
23.474	0.09	46948	keystroke_j	j	n/a
23.669	0.12	47338	keystroke_u	u	n/a
23.954	0.225	47908	keystroke_m	m	n/a
24.254	0.15	48508	keystroke_p	p	n/a
24.419	0.1195	48838	keystroke_s	s	n/a
24.5835	0.09	49167	keystroke_Key.space	Key.space	n/a
24.7935	0.075	49587	keystroke_v	v	n/a
24.8235	0.15	49647	keystroke_o	o	n/a
25.1685	0.121	50337	keystroke_e	e	n/a
25.3345	0.09	50669	keystroke_r	r	n/a
25.7535	0.0605	51507	keystroke_Key.backspace	Key.backspace	n/a
26.054	0.09	52108	keystroke_Key.backspace	Key.backspace	n/a
26.219	0.09	52438	keystroke_Key.backspace	Key.backspace	n/a
26.354	0.045	52708	keystroke_Key.backspace	Key.backspace	n/a
26.879	0.18	53758	keystroke_o	o	n/a
27.044	0.075	54088	keystroke_v	v	n/a
27.2235	0.1345	54447	keystroke_e	e	n/a
27.388	0.0905	54776	keystroke_r	r	n/a
27.5235	0.15	55047	keystroke_Key.space	Key.space	n/a
27.7335	0.0905	55467	keystroke_a	a	n/a
27.869	0.12	55738	keystroke_Key.space	Key.space	n/a
28.094	0.1495	56188	keystroke_l	l	n/a
28.2585	0.09	56517	keystroke_a	a	n/a
28.5885	0.135	57177	keystroke_z	z	n/a
28.7835	0.135	57567	keystroke_y	y	n/a
28.9635	0.135	57927	keystroke_Key.space	Key.space	n/a
29.2935	0.106	58587	keystroke_d	d	n/a
29.4595	0.09	58919	keystroke_o	o	n/a
29.5945	0.0745	59189	keystroke_g	g	n/a
29.924	0.09	59848	keystroke_Key.enter	Key.enter	n/a
30.0225	9.4425	60045	prompt	n/a	ballet himself streaming scotland\n
30.629	0.075	61258	keystroke_b	b	n/a
30.764	0.12	61528	keystroke_a	a	n/a
30.914	0.105	61828	keystroke_l	l	n/a
31.079	0.105	62158	keystroke_l	l	n/a
31.229	0.105	62458	keystroke_e	e	n/a
31.439	0.075	62878	keystroke_t	t	n/a
31.589	0.075	63178	keystroke_Key.space	Key.space	n/a
31.799	0.135	63598	keystroke_h	h	n/a
31.979	0.12	63958	keystroke_i	i	n/a
32.204	0.075	64408	keystroke_m	m	n/a
32.399	0.0595	64798	keystroke_s	s	n/a
32.6385	0.09	65277	keystroke_e	e	n/a
32.8035	0.135	65607	keystroke_l	l	n/a
34.0485	0.105	68097	keystroke_f	f	n/a
34.7685	0.105	69537	keystroke_Key.space	Key.space	n/a
34.9635	0.12	69927	keystroke_s	s	n/a
35.1735	0.075	70347	keystroke_t	t	n/a
35.3835	0.135	70767	keystroke_r	r	n/a
35.5785	0.105	71157	keystroke_e	e	n/a
35.8335	0.12	71667	keystroke_a	a	n/a
35.9385	0.12	71877	keystroke_m	m	n/a
36.1485	0.135	72297	keystroke_i	i	n/a
36.2685	0.1355	72537	keystroke_n	n	n/a
36.509	0.09	73018	keystroke_g	g	n/a
36.718	0.091	73436	keystroke_Key.space	Key.space	n/a
36.914	0.075	73828	keystroke_s	s	n/a
37.139	0.135	74278	keystroke_c	c	n/a
37.424	0.12	74848	keystroke_o	o	n/a
37.694	0.105	75388	keystroke_t	t	n/a
37.904	0.12	75808	keystroke_l	l	n/a
38.639	0.12	77278	keystroke_a	a	n/a
38.804	0.1045	77608	keystroke_n	n	n/a
38.9685	0.105	77937	keystroke_d	d	n/a
39.3585	0.105	78717	keystroke_Key.enter	Key.enter	n/a
39.469	10.526	78938	prompt	n/a	recently bold directly lawyers\n
40.1235	0.1045	80247	keystroke_r	r	n/a
40.273	0.106	80546	keystroke_e	e	n/a
40.574	0.075	81148	keystroke_c	c	n/a
40.784	0.075	81568	keystroke_e	e	n/a
40.873	0.1205	81746	keystroke_n	n	n/a
41.0525	0.076	82105	keystroke_t	t	n/a
41.1885	0.149	82377	keystroke_l	l	n/a
41.504	0.1495	83008	keystroke_y	y	n/a
41.6825	0.105	83365	keystroke_Key.space	Key.space	n/a
41.9075	0.075	83815	keystroke_b	b	n/a
42.0125	0.121	84025	keystroke_o	o	n/a
42.3585	0.0895	84717	keystroke_d	d	n/a
42.7475	0.075	85495	keystroke_l	l	n/a
43.1225	0.015	86245	keystroke_Key.backspace	Key.backspace	n/a
43.2425	0.0905	86485	keystroke_Key.backspace	Key.backspace	n/a
43.7825	0.105	87565	keystroke_l	l	n/a
43.9175	0.105	87835	keystroke_d	d	n/a
44.1425	0.135	88285	keystroke_Key.space	Key.space	n/a
44.3375	0.12	88675	keystroke_d	d	n/a
44.5025	0.12	89005	keystroke_i	i	n/a
44.6675	0.09	89335	keystroke_r	r	n/a
44.8025	0.105	89605	keystroke_e	e	n/a
45.103	0.09	90206	keystroke_c	c	n/a
45.403	0.195	90806	keystroke_l	l	n/a
46.573	0.105	93146	keystroke_Key.backspace	Key.backspace	n/a
46.708	0.09	93416	keystroke_t	t	n/a
46.963	0.165	93926	keystroke_l	l	n/a
47.4275	0.135	94855	keystroke_y	y	n/a
47.653	0.15	95306	keystroke_Key.space	Key.space	n/a
47.983	0.135	95966	keystroke_l	l	n/a
48.478	0.105	96956	keystroke_a	a	n/a
48.7775	0.135	97555	keystroke_w	w	n/a
49.002	0.105	98004	keystroke_y	y	n/a
49.167	0.1355	98334	keystroke_e	e	n/a
49.3925	0.09	98785	keystroke_r	r	n/a
49.6775	0.105	99355	keystroke_s	s	n/a
49.8575	0.135	99715	keystroke_Key.enter	Key.enter	n/a
50.0015	30.968	100003	prompt	n/a	mercy receptor desktops constitutional\n
50.6075	0.09	101215	keystroke_m	m	n/a
51.0425	0.12	102085	keystroke_e	e	n/a
51.2225	0.09	102445	keystroke_r	r	n/a
51.5075	0.105	103015	keystroke_c	c	n/a
51.7475	0.135	103495	keystroke_y	y	n/a
51.8975	0.105	103795	keystroke_Key.space	Key.space	n/a
52.1225	0.12	104245	keystroke_r	r	n/a
52.2575	0.105	104515	keystroke_e	e	n/a
52.768	0.06	105536	keystroke_e	e	n/a
53.308	0.135	106616	keystroke_Key.backspace	Key.backspace	n/a
54.058	0.09	108116	keystroke_c	c	n/a
54.223	0.21	108446	keystroke_p	p	n/a
54.418	0.09	108836	keystroke_e	e	n/a
54.703	0.075	109406	keystroke_t	t	n/a
54.838	0.1195	109676	keystroke_o	o	n/a
55.453	0.075	110906	keystroke_Key.backspace	Key.backspace	n/a
55.6025	0.075	111205	keystroke_Key.backspace	Key.backspace	n/a
55.7375	0.075	111475	keystroke_Key.backspace	Key.backspace	n/a
56.083	0.09	112166	keystroke_Key.backspace	Key.backspace	n/a
56.998	0.12	113996	keystroke_e	e	n/a
57.223	0.15	114446	keystroke_p	p	n/a
57.388	0.06	114776	keystroke_t	t	n/a
57.613	0.06	115226	keystroke_r	r	n/a
58.393	0.1345	116786	keystroke_Key.backspace	Key.backspace	n/a
58.7825	0.135	117565	keystroke_o	o	n/a
58.9325	0.105	117865	keystroke_r	r	n/a
59.0975	0.1345	118195	keystroke_Key.space	Key.space	n/a
59.397	0.075	118794	keystroke_d	d	n/a
59.652	0.12	119304	keystroke_e	e	n/a
60.012	0.105	120024	keystroke_s	s	n/a
60.177	0.12	120354	keystroke_k	k	n/a
60.642	0.105	121284	keystroke_t	t	n/a
60.822	0.135	121644	keystroke_o	o	n/a
61.392	0.18	122784	keystroke_p	p	n/a
61.932	0.105	123864	keystroke_s	s	n/a
62.3825	0.075	124765	keystroke_Key.space	Key.space	n/a
62.7725	0.075	125545	keystroke_c	c	n/a
62.8775	0.135	125755	keystroke_o	o	n/a
62.9975	0.12	125995	keystroke_n	n	n/a
63.1175	0.09	126235	keystroke_s	s	n/a
63.3725	0.09	126745	keystroke_t	t	n/a
63.5075	0.105	127015	keystroke_i	i	n/a
63.6725	0.0895	127345	keystroke_t	t	n/a
63.822	0.1505	127644	keystroke_u	u	n/a
65.1265	0.09	130253	keystroke_t	t	n/a
65.3365	0.135	130673	keystroke_u	u	n/a
65.5765	0.195	131153	keystroke_i	i	n/a
66.011	0.1055	132022	keystroke_n	n	n/a
66.4905	0.075	132981	keystroke_Key.backspace	Key.backspace	n/a
66.671	0.06	133342	keystroke_Key.backspace	Key.backspace	n/a
67.016	0.135	134032	keystroke_n	n	n/a
67.166	0.12	134332	keystroke_a	a	n/a
67.361	0.105	134722	keystroke_l	l	n/a
69.25	0.1345	138500	keystroke_Key.backspace	Key.backspace	n/a
69.4595	0.0895	138919	keystroke_Key.backspace	Key.backspace	n/a
70.7255	0.136	141451	keystroke_Key.backspace	Key.backspace	n/a
71.041	0.0895	142082	keystroke_Key.backspace	Key.backspace	n/a
71.8515	0.135	143703	keystroke_Key.backspace	Key.backspace	n/a
78.3445	0.042	156689	keystroke_t	t	n/a
79.078	0.06	158156	keystroke_i	i	n/a
79.393	0.135	158786	keystroke_o	o	n/a
79.723	0.15	159446	keystroke_n	n	n/a
79.903	0.105	159806	keystroke_a	a	n/a
79.978	0.1795	159956	keystroke_l	l	n/a
80.848	0.12	161696	keystroke_Key.enter	Key.enter	n/a
80.9735	6.534	161947	prompt	n/a	advances serum lane lopez\n
81.628	0.0745	163256	keystroke_a	a	n/a
81.7775	0.105	163555	keystroke_d	d	n/a
82.0175	0.09	164035	keystroke_v	v	n/a
82.1825	0.105	164365	keystroke_a	a	n/a
82.3025	0.135	164605	keystroke_n	n	n/a
82.4525	0.105	164905	keystroke_c	c	n/a
82.6925	0.0895	165385	keystroke_e	e	n/a
82.932	0.1055	165864	keystroke_s	s	n/a
83.052	0.12	166104	keystroke_Key.space	Key.space	n/a
83.3065	0.0745	166613	keystroke_s	s	n/a
83.517	0.135	167034	keystroke_e	e	n/a
83.7115	0.12	167423	keystroke_r	r	n/a
83.951	0.121	167902	keystroke_u	u	n/a
84.2215	0.105	168443	keystroke_m	m	n/a
84.4765	0.106	168953	keystroke_Key.space	Key.space	n/a
84.672	0.1495	169344	keystroke_l	l	n/a
84.8065	0.164	169613	keystroke_a	a	n/a
85.0155	0.121	170031	keystroke_n	n	n/a
85.1965	0.1345	170393	keystroke_e	e	n/a
85.436	0.135	170872	keystroke_Key.space	Key.space	n/a
85.751	0.12	171502	keystroke_l	l	n/a
86.066	0.105	172132	keystroke_o	o	n/a
86.456	0.195	172912	keystroke_p	p	n/a
86.651	0.15	173302	keystroke_e	e	n/a
87.1165	0.105	174233	keystroke_z	z	n/a
87.3565	0.1495	174713	keystroke_Key.enter	Key.enter	n/a
87.5125	6.2095	175025	prompt	n/a	plans cheese bikes titled\n
88.166	0.12	176332	keystroke_p	p	n/a
88.391	0.15	176782	keystroke_l	l	n/a
88.556	0.135	177112	keystroke_a	a	n/a
88.766	0.15	177532	keystroke_n	n	n/a
88.931	0.15	177862	keystroke_s	s	n/a
89.126	0.075	178252	keystroke_Key.space	Key.space	n/a
89.3065	0.12	178613	keystroke_c	c	n/a
89.4565	0.15	178913	keystroke_h	h	n/a
89.696	0.09	179392	keystroke_e	e	n/a
89.936	0.1445	179872	keystroke_e	e	n/a
90.26	0.106	180520	keystroke_s	s	n/a
90.4855	0.105	180971	keystroke_e	e	n/a
90.739	0.1195	181478	keystroke_Key.space	Key.space	n/a
91.085	0.1045	182170	keystroke_b	b	n/a
91.2215	0.0845	182443	keystroke_i	i	n/a
91.4405	0.1495	182881	keystroke_k	k	n/a
91.575	0.09	183150	keystroke_e	e	n/a
91.815	0.105	183630	keystroke_s	s	n/a
91.904	0.1355	183808	keystroke_Key.space	Key.space	n/a
92.1455	0.1195	184291	keystroke_t	t	n/a
92.28	0.119	184560	keystroke_i	i	n/a
92.535	0.1345	185070	keystroke_l	l	n/a
92.6245	0.135	185249	keystroke_t	t	n/a
92.9845	0.121	185969	keystroke_e	e	n/a
93.2855	0.105	186571	keystroke_d	d	n/a
93.5995	0.1205	187199	keystroke_Key.enter	Key.enter	n/a
93.7275	14.288	187455	prompt	n/a	qualified grab startup canadian\n
94.8455	0.1495	189691	keystroke_q	q	n/a
95.025	0.12	190050	keystroke_u	u	n/a
95.2355	0.15	190471	keystroke_a	a	n/a
95.3705	0.135	190741	keystroke_l	l	n/a
95.5805	0.105	191161	keystroke_i	i	n/a
95.8805	0.1195	191761	keystroke_f	f	n/a
96.045	0.105	192090	keystroke_i	i	n/a
96.375	0.12	192750	keystroke_e	e	n/a
96.645	0.105	193290	keystroke_d	d	n/a
96.885	0.15	193770	keystroke_Key.space	Key.space	n/a
97.23	0.075	194460	keystroke_g	g	n/a
97.425	0.09	194850	keystroke_r	r	n/a
97.9945	0.1355	195989	keystroke_a	a	n/a
98.355	0.105	196710	keystroke_b	b	n/a
98.835	0.12	197670	keystroke_Key.space	Key.space	n/a
99.03	0.1495	198060	keystroke_s	s	n/a
99.81	0.045	199620	keystroke_t	t	n/a
100.455	0.15	200910	keystroke_a	a	n/a
100.68	0.0905	201360	keystroke_r	r	n/a
100.8905	0.09	201781	keystroke_t	t	n/a
101.101	0.105	202202	keystroke_u	u	n/a
101.476	0.15	202952	keystroke_p	p	n/a
102.1505	0.0895	204301	keystroke_Key.space	Key.space	n/a
102.51	0.12	205020	keystroke_c	c	n/a
102.705	0.135	205410	keystroke_a	a	n/a
102.81	0.12	205620	keystroke_n	n	n/a
103.5595	0.12	207119	keystroke_n	n	n/a
103.755	0.09	207510	keystroke_a	a	n/a
104.265	0.105	208530	keystroke_Key.backspace	Key.backspace	n/a
104.445	0.12	208890	keystroke_a	a	n/a
104.835	0.12	209670	keystroke_d	d	n/a
105.1645	0.045	210329	keystroke_Key.backspace	Key.backspace	n/a
105.315	0.06	210630	keystroke_Key.backspace	Key.backspace	n/a
106.004	0.105	212008	keystroke_Key.backspace	Key.backspace	n/a
106.184	0.105	212368	keystroke_a	a	n/a
106.4395	0.1345	212879	keystroke_d	d	n/a
106.7685	0.09	213537	keystroke_i	i	n/a
107.084	0.075	214168	keystroke_a	a	n/a
107.549	0.075	215098	keystroke_n	n	n/a
107.8935	0.1205	215787	keystroke_Key.enter	Key.enter	n/a
108.0255	9.693	216051	prompt	n/a	syracuse shoppers usual penguin\n
108.688	0.165	217376	keystroke_s	s	n/a
108.9125	0.106	217825	keystroke_y	y	n/a
109.153	0.12	218306	keystroke_r	r	n/a
109.483	0.0605	218966	keystroke_a	a	n/a
109.723	0.15	219446	keystroke_c	c	n/a
109.843	0.12	219686	keystroke_u	u	n/a
110.098	0.09	220196	keystroke_s	s	n/a
110.293	0.135	220586	keystroke_e	e	n/a
110.443	0.149	220886	keystroke_Key.space	Key.space	n/a
110.653	0.03	221306	keystroke_s	s	n/a
111.177	0.135	222354	keystroke_Key.backspace	Key.backspace	n/a
111.838	0.119	223676	keystroke_Key.space	Key.space	n/a
112.033	0.105	224066	keystroke_s	s	n/a
112.183	0.194	224366	keystroke_h	h	n/a
112.347	0.151	224694	keystroke_o	o	n/a
112.872	0.12	225744	keystroke_p	p	n/a
113.0965	0.15	226193	keystroke_p	p	n/a
113.2765	0.15	226553	keystroke_e	e	n/a
113.4415	0.135	226883	keystroke_r	r	n/a
113.7265	0.1055	227453	keystroke_s	s	n/a
113.952	0.1355	227904	keystroke_Key.space	Key.space	n/a
114.1475	0.1355	228295	keystroke_u	u	n/a
114.2985	0.1345	228597	keystroke_s	s	n/a
114.673	0.105	229346	keystroke_u	u	n/a
115.123	0.1045	230246	keystroke_a	a	n/a
115.2875	0.15	230575	keystroke_l	l	n/a
115.513	0.12	231026	keystroke_Key.space	Key.space	n/a
115.7675	0.211	231535	keystroke_p	p	n/a
115.9475	0.12	231895	keystroke_e	e	n/a
116.1125	0.165	232225	keystroke_n	n	n/a
116.2625	0.15	232525	keystroke_g	g	n/a
116.5775	0.18	233155	keystroke_q	q	n/a
116.7425	0.151	233485	keystroke_u	u	n/a
117.013	0.134	234026	keystroke_i	i	n/a
117.192	0.1195	234384	keystroke_n	n	n/a
117.5965	0.12	235193	keystroke_Key.enter	Key.enter	n/a
117.7215	18.934	235443	prompt	n/a	finder architects gage cache\n
118.29	0.081	236580	keystroke_f	f	n/a
118.355	0.139	236710	keystroke_i	i	n/a
118.4855	0.1285	236971	keystroke_n	n	n/a
118.5995	0.089	237199	keystroke_d	d	n/a
118.774	0.089	237548	keystroke_e	e	n/a
118.878	0.0895	237756	keystroke_r	r	n/a
118.9685	0.135	237937	keystroke_Key.space	Key.space	n/a
119.2385	0.0895	238477	keystroke_a	a	n/a
119.514	0.125	239028	keystroke_c	c	n/a
119.909	0.105	239818	keystroke_r	r	n/a
120.5685	0.12	241137	keystroke_Key.backspace	Key.backspace	n/a
121.108	0.1205	242216	keystroke_h	h	n/a
121.813	0.09	243626	keystroke_i	i	n/a
122.354	0.12	244708	keystroke_t	t	n/a
122.579	0.1055	245158	keystroke_e	e	n/a
122.8975	0.135	245795	keystroke_c	c	n/a
123.1975	0.09	246395	keystroke_t	t	n/a
123.573	0.12	247146	keystroke_s	s	n/a
123.7985	0.09	247597	keystroke_Key.space	Key.space	n/a
123.9785	0.1055	247957	keystroke_g	g	n/a
124.2045	0.181	248409	keystroke_a	a	n/a
128.7075	0	257415	keystroke_Key.left	Key.left	n/a
128.794	0.045	257588	keystroke_Key.left	Key.left	n/a
128.944	0.0295	257888	keystroke_Key.left	Key.left	n/a
129.0335	0.0755	258067	keystroke_Key.left	Key.left	n/a
129.17	0.0745	258340	keystroke_Key.left	Key.left	n/a
129.3045	0.06	258609	keystroke_Key.left	Key.left	n/a
129.4395	0.0595	258879	keystroke_Key.left	Key.left	n/a
129.5735	0.045	259147	keystroke_Key.left	Key.left	n/a
129.6945	0.028	259389	keystroke_Key.left	Key.left	n/a
129.9595	0.0745	259919	keystroke_Key.left	Key.left	n/a
130.1535	0.017	260307	keystroke_Key.left	Key.left	n/a
130.5465	0.075	261093	keystroke_r	r	n/a
131.8245	0.0595	263649	keystroke_Key.right	Key.right	n/a
131.944	0.06	263888	keystroke_Key.right	Key.right	n/a
132.064	0.06	264128	keystroke_Key.right	Key.right	n/a
132.1835	0.06	264367	keystroke_Key.right	Key.right	n/a
132.3035	0.06	264607	keystroke_Key.right	Key.right	n/a
132.409	0.075	264818	keystroke_Key.right	Key.right	n/a
132.544	0.06	265088	keystroke_Key.right	Key.right	n/a
132.679	0.0595	265358	keystroke_Key.right	Key.right	n/a
132.7985	0.075	265597	keystroke_Key.right	Key.right	n/a
133.1445	0.06	266289	keystroke_Key.right	Key.right	n/a
133.2795	0.06	266559	keystroke_Key.right	Key.right	n/a
134.644	0.105	269288	keystroke_g	g	n/a
134.8685	0.105	269737	keystroke_e	e	n/a
135.0485	0.104	270097	keystroke_Key.space	Key.space	n/a
135.288	0.1055	270576	keystroke_c	c	n/a
135.4835	0.09	270967	keystroke_a	a	n/a
135.7085	0.12	271417	keystroke_c	c	n/a
135.8585	0.105	271717	keystroke_h	h	n/a
136.054	0.1045	272108	keystroke_e	e	n/a
136.519	0.1345	273038	keystroke_Key.enter	Key.enter	n/a
136.6585	8.079	273317	prompt	n/a	anywhere recreational paste occasions\n
137.2235	0.1205	274447	keystroke_a	a	n/a
137.359	0.105	274718	keystroke_n	n	n/a
137.7335	0.1045	275467	keystroke_y	y	n/a
138	0.084	276000	keystroke_w	w	n/a
138.099	0.1495	276198	keystroke_h	h	n/a
138.1735	0.196	276347	keystroke_e	e	n/a
138.37	0.112	276740	keystroke_r	r	n/a
138.47	0.117	276940	keystroke_e	e	n/a
138.602	0.1495	277204	keystroke_Key.space	Key.space	n/a
139.1725	0.135	278345	keystroke_r	r	n/a
139.3375	0.135	278675	keystroke_e	e	n/a
139.6965	0.0905	279393	keystroke_c	c	n/a
139.9515	0.12	279903	keystroke_r	r	n/a
140.0865	0.111	280173	keystroke_e	e	n/a
140.348	0.12	280696	keystroke_a	a	n/a
140.6475	0.12	281295	keystroke_t	t	n/a
140.7825	0.1355	281565	keystroke_i	i	n/a
140.888	0.194	281776	keystroke_o	o	n/a
141.0525	0.18	282105	keystroke_n	n	n/a
141.2475	0.12	282495	keystroke_a	a	n/a
141.3975	0.135	282795	keystroke_l	l	n/a
141.5475	0.1345	283095	keystroke_Key.space	Key.space	n/a
141.7865	0.164	283573	keystroke_p	p	n/a
141.9055	0.091	283811	keystroke_a	a	n/a
142.116	0.1345	284232	keystroke_s	s	n/a
142.3855	0.1345	284771	keystroke_t	t	n/a
142.611	0.1195	285222	keystroke_e	e	n/a
142.7155	0.1465	285431	keystroke_Key.space	Key.space	n/a
142.922	0.088	285844	keystroke_o	o	n/a
143.025	0.0945	286050	keystroke_c	c	n/a
143.297	0.015	286594	keystroke_c	c	n/a
143.522	0.106	287044	keystroke_a	a	n/a
143.807	0.0925	287614	keystroke_s	s	n/a
143.9295	0.1005	287859	keystroke_i	i	n/a
144.03	0.197	288060	keystroke_o	o	n/a
144.214	0.118	288428	keystroke_n	n	n/a
144.317	0.1045	288634	keystroke_s	s	n/a
144.6455	0.09	289291	keystroke_Key.enter	Key.enter	n/a
144.7405	9.7645	289481	prompt	n/a	yesterday burst worried handled\n
145.1975	0.1305	290395	keystroke_y	y	n/a
145.313	0.1115	290626	keystroke_e	e	n/a
145.5175	0.0585	291035	keystroke_s	s	n/a
145.6935	0.1415	291387	keystroke_t	t	n/a
145.91	0.1495	291820	keystroke_e	e	n/a
146.0895	0.09	292179	keystroke_r	r	n/a
147.2885	0.1205	294577	keystroke_d	d	n/a
147.574	0.18	295148	keystroke_a	a	n/a
147.784	0.105	295568	keystroke_y	y	n/a
147.919	0.135	295838	keystroke_Key.space	Key.space	n/a
148.174	0.105	296348	keystroke_b	b	n/a
148.324	0.1495	296648	keystroke_u	u	n/a
148.5335	0.09	297067	keystroke_r	r	n/a
149.598	0.0755	299196	keystroke_s	s	n/a
149.8195	0.081	299639	keystroke_t	t	n/a
149.963	0.1215	299926	keystroke_Key.space	Key.space	n/a
150.159	0.1345	300318	keystroke_w	w	n/a
150.264	0.1145	300528	keystroke_o	o	n/a
150.3935	0.0745	300787	keystroke_r	r	n/a
150.539	0.059	301078	keystroke_r	r	n/a
150.7395	0.12	301479	keystroke_i	i	n/a
150.8735	0.083	301747	keystroke_e	e	n/a
151.177	0.164	302354	keystroke_d	d	n/a
151.626	0.06	303252	keystroke_Key.space	Key.space	n/a
152.423	0.12	304846	keystroke_h	h	n/a
152.9815	0.1955	305963	keystroke_a	a	n/a
153.162	0.1215	306324	keystroke_n	n	n/a
153.389	0.15	306778	keystroke_d	d	n/a
153.5995	0.12	307199	keystroke_l	l	n/a
153.7965	0.105	307593	keystroke_e	e	n/a
154.0365	0.1355	308073	keystroke_d	d	n/a
154.353	0.1505	308706	keystroke_Key.enter	Key.enter	n/a
154.508	8.263	309016	prompt	n/a	selling product publications intake\n
155.029	0.105	310058	keystroke_s	s	n/a
155.239	0.075	310478	keystroke_e	e	n/a
155.3735	0.0895	310747	keystroke_l	l	n/a
155.538	0.1055	311076	keystroke_l	l	n/a
155.7185	0.165	311437	keystroke_i	i	n/a
155.8685	0.1795	311737	keystroke_n	n	n/a
156.003	0.1355	312006	keystroke_g	g	n/a
156.1235	0.135	312247	keystroke_Key.space	Key.space	n/a
156.5425	0.18	313085	keystroke_p	p	n/a
156.7075	0.12	313415	keystroke_r	r	n/a
156.8425	0.12	313685	keystroke_o	o	n/a
157.0075	0.15	314015	keystroke_d	d	n/a
157.1875	0.12	314375	keystroke_u	u	n/a
157.3525	0.1495	314705	keystroke_c	c	n/a
157.667	0.0905	315334	keystroke_t	t	n/a
157.937	0.015	315874	keystroke_Key.space	Key.space	n/a
158.79	0.1345	317580	keystroke_p	p	n/a
159.0475	0.12	318095	keystroke_u	u	n/a
159.1525	0.1195	318305	keystroke_b	b	n/a
159.385	0.1145	318770	keystroke_l	l	n/a
159.5745	0.121	319149	keystroke_i	i	n/a
159.6805	0.0765	319361	keystroke_c	c	n/a
159.817	0.1195	319634	keystroke_a	a	n/a
160.0715	0.1205	320143	keystroke_t	t	n/a
160.192	0.1495	320384	keystroke_i	i	n/a
160.327	0.1905	320654	keystroke_o	o	n/a
160.5055	0.1315	321011	keystroke_n	n	n/a
160.757	0.1345	321514	keystroke_s	s	n/a
160.9215	0.0635	321843	keystroke_Key.space	Key.space	n/a
161.076	0.0915	322152	keystroke_i	i	n/a
161.162	0.123	322324	keystroke_n	n	n/a
161.3745	0.12	322749	keystroke_t	t	n/a
161.9445	0.09	323889	keystroke_a	a	n/a
162.124	0.165	324248	keystroke_k	k	n/a
162.304	0.1355	324608	keystroke_e	e	n/a
162.6495	0.12	325299	keystroke_Key.enter	Key.enter	n/a
162.774	9.6995	325548	prompt	n/a	pest semi residents acid\n
163.444	0.1285	326888	keystroke_p	p	n/a
163.6175	0.104	327235	keystroke_e	e	n/a
163.785	0.0915	327570	keystroke_s	s	n/a
164.028	0.0745	328056	keystroke_t	t	n/a
164.1775	0.1345	328355	keystroke_Key.space	Key.space	n/a
164.3335	0.082	328667	keystroke_s	s	n/a
164.4975	0.1195	328995	keystroke_e	e	n/a
164.602	0.165	329204	keystroke_m	m	n/a
164.8255	0.098	329651	keystroke_i	i	n/a
164.984	0.0775	329968	keystroke_Key.space	Key.space	n/a
165.1405	0.085	330281	keystroke_r	r	n/a
165.333	0.12	330666	keystroke_e	e	n/a
165.7085	0.105	331417	keystroke_s	s	n/a
165.933	0.1205	331866	keystroke_d	d	n/a
166.0535	0.1345	332107	keystroke_i	i	n/a
166.244	0.09	332488	keystroke_e	e	n/a
166.364	0.1195	332728	keystroke_n	n	n/a
166.7085	0.09	333417	keystroke_t	t	n/a
167.068	0.03	334136	keystroke_s	s	n/a
167.353	0.105	334706	keystroke_Key.space	Key.space	n/a
167.488	0.1195	334976	keystroke_a	a	n/a
168.0875	0.12	336175	keystroke_Key.backspace	Key.backspace	n/a
168.2825	0.0745	336565	keystroke_Key.backspace	Key.backspace	n/a
168.416	0.067	336832	keystroke_Key.backspace	Key.backspace	n/a
168.543	0.0895	337086	keystroke_Key.backspace	Key.backspace	n/a
168.679	0.075	337358	keystroke_Key.backspace	Key.backspace	n/a
168.8435	0.045	337687	keystroke_Key.backspace	Key.backspace	n/a
168.9485	0.09	337897	keystroke_Key.backspace	Key.backspace	n/a
169.419	0.09	338838	keystroke_Key.backspace	Key.backspace	n/a
170.0455	0.1145	340091	keystroke_i	i	n/a
170.145	0.1205	340290	keystroke_d	d	n/a
170.3405	0.1135	340681	keystroke_e	e	n/a
170.394	0.153	340788	keystroke_n	n	n/a
170.586	0.0685	341172	keystroke_t	t	n/a
171.015	0.135	342030	keystroke_s	s	n/a
171.195	0.105	342390	keystroke_Key.space	Key.space	n/a
171.464	0.089	342928	keystroke_a	a	n/a
171.6665	0.083	343333	keystroke_c	c	n/a
172.0115	0.12	344023	keystroke_i	i	n/a
172.1465	0.103	344293	keystroke_d	d	n/a
172.3985	0.075	344797	keystroke_Key.enter	Key.enter	n/a
172.474	6.671	344948	prompt	n/a	harder consumers emotions rely\n
172.9525	0.1415	345905	keystroke_h	h	n/a
173.0815	0.1325	346163	keystroke_a	a	n/a
173.3185	0.086	346637	keystroke_r	r	n/a
173.536	0.1005	347072	keystroke_d	d	n/a
173.7015	0.1035	347403	keystroke_e	e	n/a
173.822	0.0695	347644	keystroke_r	r	n/a
173.922	0.083	347844	keystroke_Key.space	Key.space	n/a
174.148	0.1055	348296	keystroke_c	c	n/a
174.214	0.0745	348428	keystroke_o	o	n/a
174.3185	0.1195	348637	keystroke_n	n	n/a
174.483	0.0865	348966	keystroke_s	s	n/a
174.5815	0.069	349163	keystroke_u	u	n/a
174.746	0.029	349492	keystroke_m	m	n/a
175.3585	0.133	350717	keystroke_e	e	n/a
175.558	0.07	351116	keystroke_r	r	n/a
175.8275	0.066	351655	keystroke_s	s	n/a
175.938	0.1225	351876	keystroke_Key.space	Key.space	n/a
176.192	0.105	352384	keystroke_e	e	n/a
176.4375	0.1515	352875	keystroke_m	m	n/a
176.689	0.0905	353378	keystroke_o	o	n/a
176.985	0.1195	353970	keystroke_t	t	n/a
177.1345	0.0515	354269	keystroke_i	i	n/a
177.232	0.1015	354464	keystroke_o	o	n/a
177.274	0.138	354548	keystroke_n	n	n/a
177.472	0.1195	354944	keystroke_s	s	n/a
177.6395	0.0865	355279	keystroke_Key.space	Key.space	n/a
177.8555	0.0995	355711	keystroke_r	r	n/a
177.981	0.129	355962	keystroke_e	e	n/a
178.2215	0.136	356443	keystroke_l	l	n/a
178.626	0.0965	357252	keystroke_y	y	n/a
178.9785	0.165	357957	keystroke_Key.enter	Key.enter	n/a
179.148	9.5655	358296	prompt	n/a	edmonton add bool vulnerable\n
179.73	0.12	359460	keystroke_e	e	n/a
180.105	0.1045	360210	keystroke_m	m	n/a
180.564	0.127	361128	keystroke_Key.backspace	Key.backspace	n/a
180.736	0.1645	361472	keystroke_d	d	n/a
181.006	0.105	362012	keystroke_m	m	n/a
181.246	0.1495	362492	keystroke_o	o	n/a
181.3805	0.12	362761	keystroke_n	n	n/a
181.5375	0.12	363075	keystroke_t	t	n/a
181.7025	0.1645	363405	keystroke_o	o	n/a
181.897	0.119	363794	keystroke_n	n	n/a
182.076	0.105	364152	keystroke_Key.space	Key.space	n/a
182.346	0.12	364692	keystroke_a	a	n/a
182.601	0.12	365202	keystroke_d	d	n/a
182.826	0.1055	365652	keystroke_d	d	n/a
184.1965	0.1065	368393	keystroke_Key.space	Key.space	n/a
184.393	0.1355	368786	keystroke_b	b	n/a
184.5435	0.03	369087	keystroke_o	o	n/a
184.664	0.105	369328	keystroke_o	o	n/a
185.3235	0.12	370647	keystroke_l	l	n/a
185.5635	0.1045	371127	keystroke_Key.space	Key.space	n/a
185.8475	0.135	371695	keystroke_v	v	n/a
186.0125	0.1345	372025	keystroke_u	u	n/a
186.327	0.077	372654	keystroke_l	l	n/a
187.0175	0.1195	374035	keystroke_n	n	n/a
187.287	0.135	374574	keystroke_e	e	n/a
187.467	0.105	374934	keystroke_r	r	n/a
187.707	0.165	375414	keystroke_a	a	n/a
188.0065	0.12	376013	keystroke_b	b	n/a
188.1415	0.1495	376283	keystroke_l	l	n/a
188.336	0.0755	376672	keystroke_e	e	n/a
188.61	0.1035	377220	keystroke_Key.enter	Key.enter	n/a
188.714	14.309	377428	prompt	n/a	degree commissioners distributor violent\n
189.1015	0.111	378203	keystroke_d	d	n/a
189.375	0.0595	378750	keystroke_r	r	n/a
189.788	0.135	379576	keystroke_Key.backspace	Key.backspace	n/a
189.908	0.135	379816	keystroke_e	e	n/a
190.2375	0.12	380475	keystroke_g	g	n/a
190.5075	0.09	381015	keystroke_r	r	n/a
190.7175	0.075	381435	keystroke_e	e	n/a
190.8675	0.12	381735	keystroke_e	e	n/a
191.092	0.1355	382184	keystroke_Key.space	Key.space	n/a
191.3325	0.1655	382665	keystroke_c	c	n/a
191.438	0.1935	382876	keystroke_o	o	n/a
191.603	0.1335	383206	keystroke_m	m	n/a
192.036	0.1205	384072	keystroke_m	m	n/a
192.3455	0.084	384691	keystroke_i	i	n/a
192.904	0.135	385808	keystroke_s	s	n/a
193.6685	0.15	387337	keystroke_s	s	n/a
193.8785	0.165	387757	keystroke_i	i	n/a
194.088	0.2335	388176	keystroke_o	o	n/a
194.3085	0.1025	388617	keystroke_n	n	n/a
194.474	0.102	388948	keystroke_e	e	n/a
194.6355	0.09	389271	keystroke_r	r	n/a
194.883	0.0585	389766	keystroke_s	s	n/a
194.962	0.101	389924	keystroke_Key.space	Key.space	n/a
195.3435	0.12	390687	keystroke_d	d	n/a
195.718	0.1355	391436	keystroke_i	i	n/a
195.9915	0.1495	391983	keystroke_s	s	n/a
196.2855	0.0405	392571	keystroke_t	t	n/a
196.421	0.1045	392842	keystroke_r	r	n/a
197.3195	0.0885	394639	keystroke_i	i	n/a
197.5385	0.12	395077	keystroke_g	g	n/a
198.174	0.1105	396348	keystroke_Key.backspace	Key.backspace	n/a
199.1775	0.135	398355	keystroke_b	b	n/a
199.3725	0.105	398745	keystroke_u	u	n/a
199.537	0.09	399074	keystroke_t	t	n/a
200.3785	0.105	400757	keystroke_o	o	n/a
200.5135	0.1195	401027	keystroke_r	r	n/a
200.723	0.123	401446	keystroke_Key.space	Key.space	n/a
201.114	0.1115	402228	keystroke_v	v	n/a
201.2405	0.067	402481	keystroke_i	i	n/a
201.867	0.12	403734	keystroke_o	o	n/a
202.122	0.172	404244	keystroke_l	l	n/a
202.266	0.1415	404532	keystroke_e	e	n/a
202.3815	0.138	404763	keystroke_n	n	n/a
202.5565	0.12	405113	keystroke_t	t	n/a
202.871	0.15	405742	keystroke_Key.enter	Key.enter	n/a
203.026	13.116	406052	prompt	n/a	newfoundland advisory y'all grab\n
203.651	0.1645	407302	keystroke_n	n	n/a
203.8305	0.12	407661	keystroke_e	e	n/a
204.0555	0.105	408111	keystroke_w	w	n/a
204.325	0.105	408650	keystroke_f	f	n/a
204.415	0.131	408830	keystroke_o	o	n/a
204.6005	0.0805	409201	keystroke_u	u	n/a
204.8075	0.11	409615	keystroke_n	n	n/a
204.999	0.116	409998	keystroke_d	d	n/a
205.308	0.24	410616	keystroke_l	l	n/a
205.7435	0.135	411487	keystroke_a	a	n/a
205.9085	0.15	411817	keystroke_n	n	n/a
206.0735	0.15	412147	keystroke_d	d	n/a
206.2535	0.1205	412507	keystroke_Key.space	Key.space	n/a
206.448	0.135	412896	keystroke_a	a	n/a
206.688	0.1505	413376	keystroke_d	d	n/a
207.0175	0.1345	414035	keystroke_v	v	n/a
207.317	0.0985	414634	keystroke_i	i	n/a
207.4305	0.11	414861	keystroke_s	s	n/a
207.701	0.161	415402	keystroke_r	r	n/a
207.9265	0.1075	415853	keystroke_o	o	n/a
208.246	0.091	416492	keystroke_y	y	n/a
208.787	0.0665	417574	keystroke_Key.backspace	Key.backspace	n/a
208.9255	0.0205	417851	keystroke_Key.backspace	Key.backspace	n/a
208.977	0.046	417954	keystroke_Key.backspace	Key.backspace	n/a
209.5405	0.195	419081	keystroke_o	o	n/a
209.9155	0.1355	419831	keystroke_r	r	n/a
210.3375	0.1805	420675	keystroke_y	y	n/a
211.2785	0.1205	422557	keystroke_Key.space	Key.space	n/a
211.61	0.1215	423220	keystroke_y	y	n/a
212.3325	0.135	424665	keystroke_'	'	n/a
212.7665	0.109	425533	keystroke_a	a	n/a
212.9015	0.148	425803	keystroke_l	l	n/a
213.0895	0.078	426179	keystroke_l	l	n/a
213.272	0.062	426544	keystroke_Key.space	Key.space	n/a
213.43	0.09	426860	keystroke_g	g	n/a
213.6245	0.12	427249	keystroke_r	r	n/a
214.6245	0.1055	429249	keystroke_r	r	n/a
215.2395	0.043	430479	keystroke_Key.backspace	Key.backspace	n/a
215.2815	0.1195	430563	keystroke_a	a	n/a
215.557	0.0745	431114	keystroke_b	b	n/a
215.9985	0.142	431997	keystroke_Key.enter	Key.enter	n/a
216.1445	8.5115	432289	prompt	n/a	activists transaction slot repair\n
216.7	0.116	433400	keystroke_a	a	n/a
216.9165	0.161	433833	keystroke_c	c	n/a
217.1495	0.0525	434299	keystroke_t	t	n/a
217.217	0.108	434434	keystroke_i	i	n/a
217.3555	0.1005	434711	keystroke_v	v	n/a
217.4935	0.049	434987	keystroke_i	i	n/a
218.5905	0.0915	437181	keystroke_s	s	n/a
218.8995	0.0585	437799	keystroke_t	t	n/a
219.2175	0.0685	438435	keystroke_s	s	n/a
219.37	0.082	438740	keystroke_Key.space	Key.space	n/a
219.6435	0.09	439287	keystroke_t	t	n/a
219.8685	0.09	439737	keystroke_r	r	n/a
220.213	0.105	440426	keystroke_a	a	n/a
220.3635	0.15	440727	keystroke_n	n	n/a
220.5285	0.1195	441057	keystroke_s	s	n/a
220.862	0.1185	441724	keystroke_a	a	n/a
221.167	0.08	442334	keystroke_c	c	n/a
221.409	0.075	442818	keystroke_t	t	n/a
221.499	0.12	442998	keystroke_i	i	n/a
221.589	0.255	443178	keystroke_o	o	n/a
221.799	0.18	443598	keystroke_n	n	n/a
221.994	0.12	443988	keystroke_Key.space	Key.space	n/a
222.1585	0.135	444317	keystroke_s	s	n/a
222.3235	0.0715	444647	keystroke_l	l	n/a
222.507	0.0835	445014	keystroke_o	o	n/a
222.658	0.0985	445316	keystroke_t	t	n/a
222.809	0.15	445618	keystroke_Key.space	Key.space	n/a
223.109	0.105	446218	keystroke_r	r	n/a
223.289	0.12	446578	keystroke_e	e	n/a
223.424	0.15	446848	keystroke_p	p	n/a
223.9035	0.0755	447807	keystroke_a	a	n/a
224.084	0.1205	448168	keystroke_i	i	n/a
224.2795	0.1345	448559	keystroke_r	r	n/a
224.5645	0.09	449129	keystroke_Key.enter	Key.enter	n/a
224.6605	17.6435	449321	prompt	n/a	numerous academics formatting soon\n
225.4035	0.087	450807	keystroke_m	m	n/a
225.617	0.041	451234	keystroke_u	u	n/a
225.8145	0.12	451629	keystroke_m	m	n/a
225.9945	0.135	451989	keystroke_e	e	n/a
226.1895	0.12	452379	keystroke_r	r	n/a
226.46	0.119	452920	keystroke_o	o	n/a
226.654	0.135	453308	keystroke_u	u	n/a
226.799	0.1305	453598	keystroke_s	s	n/a
226.9745	0.111	453949	keystroke_Key.space	Key.space	n/a
227.1985	0.135	454397	keystroke_a	a	n/a
227.538	0.1305	455076	keystroke_c	c	n/a
229.5915	0.045	459183	keystroke_Key.left	Key.left	n/a
229.7565	0.045	459513	keystroke_Key.left	Key.left	n/a
229.8825	0.045	459765	keystroke_Key.left	Key.left	n/a
230.0475	0.03	460095	keystroke_Key.left	Key.left	n/a
230.1825	0.0445	460365	keystroke_Key.left	Key.left	n/a
230.3175	0.045	460635	keystroke_Key.left	Key.left	n/a
230.4525	0.06	460905	keystroke_Key.left	Key.left	n/a
230.6025	0.06	461205	keystroke_Key.left	Key.left	n/a
230.782	0.045	461564	keystroke_Key.left	Key.left	n/a
231.8325	0.0905	463665	keystroke_Key.left	Key.left	n/a
232.6615	0.0905	465323	keystroke_Key.backspace	Key.backspace	n/a
233.1165	0.075	466233	keystroke_n	n	n/a
233.78	0.045	467560	keystroke_Key.right	Key.right	n/a
233.945	0.046	467890	keystroke_Key.right	Key.right	n/a
234.081	0.0445	468162	keystroke_Key.right	Key.right	n/a
234.2315	0.0595	468463	keystroke_Key.right	Key.right	n/a
234.366	0.06	468732	keystroke_Key.right	Key.right	n/a
234.5155	0.061	469031	keystroke_Key.right	Key.right	n/a
234.652	0.06	469304	keystroke_Key.right	Key.right	n/a
234.7875	0.075	469575	keystroke_Key.right	Key.right	n/a
235.0115	0.105	470023	keystroke_Key.right	Key.right	n/a
235.3725	0.059	470745	keystroke_Key.right	Key.right	n/a
236.69	0.1365	473380	keystroke_a	a	n/a
236.8865	0.105	473773	keystroke_d	d	n/a
237.0945	0.1205	474189	keystroke_e	e	n/a
237.2	0.1505	474400	keystroke_m	m	n/a
237.7415	0.1355	475483	keystroke_i	i	n/a
237.861	0.121	475722	keystroke_c	c	n/a
238.161	0.12	476322	keystroke_s	s	n/a
238.3865	0.121	476773	keystroke_Key.space	Key.space	n/a
238.5825	0.1345	477165	keystroke_f	f	n/a
238.7475	0.105	477495	keystroke_o	o	n/a
238.898	0.09	477796	keystroke_r	r	n/a
239.003	0.149	478006	keystroke_m	m	n/a
239.2125	0.09	478425	keystroke_a	a	n/a
239.993	0.0905	479986	keystroke_t	t	n/a
240.338	0.075	480676	keystroke_t	t	n/a
240.533	0.1645	481066	keystroke_i	i	n/a
240.6985	0.1495	481397	keystroke_n	n	n/a
240.8175	0.1355	481635	keystroke_g	g	n/a
240.954	0.1195	481908	keystroke_Key.space	Key.space	n/a
241.328	0.1355	482656	keystroke_s	s	n/a
241.4935	0.09	482987	keystroke_o	o	n/a
241.6585	0.12	483317	keystroke_o	o	n/a
241.8385	0.18	483677	keystroke_n	n	n/a
242.184	0.1185	484368	keystroke_Key.enter	Key.enter	n/a
242.307	9.762	484614	prompt	n/a	adjustments inkjet checking suggestion\n
242.933	0.105	485866	keystroke_a	a	n/a
243.1285	0.194	486257	keystroke_d	d	n/a
243.2925	0.12	486585	keystroke_j	j	n/a
243.518	0.12	487036	keystroke_u	u	n/a
243.578	0.1205	487156	keystroke_s	s	n/a
243.847	0.165	487694	keystroke_t	t	n/a
244.462	0.06	488924	keystroke_m	m	n/a
244.552	0.15	489104	keystroke_e	e	n/a
244.687	0.1505	489374	keystroke_n	n	n/a
244.8225	0.104	489645	keystroke_t	t	n/a
245.107	0.105	490214	keystroke_s	s	n/a
245.197	0.1355	490394	keystroke_Key.space	Key.space	n/a
245.4665	0.1505	490933	keystroke_i	i	n/a
245.602	0.1805	491204	keystroke_n	n	n/a
245.8725	0.1335	491745	keystroke_k	k	n/a
246.307	0.1655	492614	keystroke_j	j	n/a
246.4575	0.1335	492915	keystroke_e	e	n/a
246.7265	0.1055	493453	keystroke_t	t	n/a
246.907	0.1355	493814	keystroke_Key.space	Key.space	n/a
247.1615	0.1805	494323	keystroke_c	c	n/a
247.357	0.105	494714	keystroke_h	h	n/a
247.7615	0.0905	495523	keystroke_e	e	n/a
248.0325	0.164	496065	keystroke_c	c	n/a
248.2115	0.09	496423	keystroke_k	k	n/a
248.422	0.1495	496844	keystroke_i	i	n/a
248.5575	0.1795	497115	keystroke_n	n	n/a
248.752	0.1355	497504	keystroke_g	g	n/a
248.9025	0.1355	497805	keystroke_Key.space	Key.space	n/a
249.1565	0.1205	498313	keystroke_s	s	n/a
249.307	0.136	498614	keystroke_u	u	n/a
249.488	0.105	498976	keystroke_g	g	n/a
249.607	0.09	499214	keystroke_g	g	n/a
250.132	0.105	500264	keystroke_e	e	n/a
250.463	0.12	500926	keystroke_s	s	n/a
250.762	0.12	501524	keystroke_t	t	n/a
250.897	0.1805	501794	keystroke_i	i	n/a
251.0475	0.2095	502095	keystroke_o	o	n/a
251.1965	0.211	502393	keystroke_n	n	n/a
251.9625	0.1055	503925	keystroke_Key.enter	Key.enter	n/a
252.072	16.4085	504144	prompt	n/a	favorite zealand exclusively tomatoes\n
252.6525	0.119	505305	keystroke_f	f	n/a
252.877	0.105	505754	keystroke_a	a	n/a
253.0575	0.135	506115	keystroke_v	v	n/a
254.0475	0.15	508095	keystroke_o	o	n/a
254.303	0.1195	508606	keystroke_r	r	n/a
254.4375	0.135	508875	keystroke_i	i	n/a
254.648	0.12	509296	keystroke_t	t	n/a
254.9025	0.12	509805	keystroke_e	e	n/a
255.098	0.105	510196	keystroke_Key.space	Key.space	n/a
256.598	0.1355	513196	keystroke_z	z	n/a
257.3035	0.09	514607	keystroke_e	e	n/a
257.543	0.1505	515086	keystroke_a	a	n/a
257.7085	0.1505	515417	keystroke_l	l	n/a
258.9085	0.12	517817	keystroke_a	a	n/a
259.0885	0.1795	518177	keystroke_n	n	n/a
259.224	0.135	518448	keystroke_d	d	n/a
259.373	0.0915	518746	keystroke_Key.space	Key.space	n/a
259.644	0.09	519288	keystroke_e	e	n/a
262.8855	0.0885	525771	keystroke_x	x	n/a
263.3035	0.1655	526607	keystroke_c	c	n/a
263.499	0.1655	526998	keystroke_l	l	n/a
263.8135	0.1505	527627	keystroke_u	u	n/a
263.979	0.1505	527958	keystroke_s	s	n/a
264.1595	0.149	528319	keystroke_i	i	n/a
264.3535	0.136	528707	keystroke_v	v	n/a
264.6235	0.1065	529247	keystroke_e	e	n/a
264.759	0.15	529518	keystroke_l	l	n/a
265.0895	0.1205	530179	keystroke_y	y	n/a
265.239	0.119	530478	keystroke_Key.space	Key.space	n/a
265.4795	0.12	530959	keystroke_t	t	n/a
265.5845	0.1355	531169	keystroke_o	o	n/a
265.823	0.1665	531646	keystroke_m	m	n/a
266.244	0.12	532488	keystroke_a	a	n/a
266.4835	0.1205	532967	keystroke_t	t	n/a
266.6345	0.12	533269	keystroke_i	i	n/a
267.1295	0.12	534259	keystroke_Key.backspace	Key.backspace	n/a
267.459	0.15	534918	keystroke_o	o	n/a
267.7595	0.1045	535519	keystroke_e	e	n/a
267.999	0.1055	535998	keystroke_s	s	n/a
268.36	0.119	536720	keystroke_Key.enter	Key.enter	n/a
268.4835	9.6585	536967	prompt	n/a	attacks banking checkout courses\n
269.034	0.1205	538068	keystroke_a	a	n/a
269.3345	0.045	538669	keystroke_t	t	n/a
269.454	0.1055	538908	keystroke_t	t	n/a
269.6795	0.1055	539359	keystroke_a	a	n/a
269.935	0.149	539870	keystroke_c	c	n/a
270.6995	0.09	541399	keystroke_k	k	n/a
270.8495	0.1355	541699	keystroke_s	s	n/a
271.014	0.135	542028	keystroke_Key.space	Key.space	n/a
271.345	0.1055	542690	keystroke_b	b	n/a
271.5545	0.1805	543109	keystroke_a	a	n/a
271.6595	0.1355	543319	keystroke_n	n	n/a
271.87	0.1355	543740	keystroke_k	k	n/a
272.1245	0.1355	544249	keystroke_i	i	n/a
272.26	0.195	544520	keystroke_n	n	n/a
272.6195	0.1205	545239	keystroke_g	g	n/a
272.815	0.1195	545630	keystroke_Key.space	Key.space	n/a
273.099	0.1505	546198	keystroke_c	c	n/a
273.2645	0.15	546529	keystroke_h	h	n/a
273.4445	0.1055	546889	keystroke_e	e	n/a
273.8345	0.15	547669	keystroke_c	c	n/a
274.5695	0.1345	549139	keystroke_k	k	n/a
274.9445	0.105	549889	keystroke_o	o	n/a
275.1545	0.1195	550309	keystroke_u	u	n/a
275.349	0.1205	550698	keystroke_t	t	n/a
275.4845	0.1505	550969	keystroke_Key.space	Key.space	n/a
275.965	0.165	551930	keystroke_c	c	n/a
276.3095	0.1505	552619	keystroke_o	o	n/a
276.61	0.165	553220	keystroke_u	u	n/a
276.8195	0.1055	553639	keystroke_r	r	n/a
277.18	0.1055	554360	keystroke_s	s	n/a
277.435	0.09	554870	keystroke_e	e	n/a
277.6755	0.09	555351	keystroke_s	s	n/a
278.005	0.135	556010	keystroke_Key.enter	Key.enter	n/a
278.1445	9.1765	556289	prompt	n/a	treat acids revisions patches\n
278.74	0.0905	557480	keystroke_t	t	n/a
278.935	0.12	557870	keystroke_r	r	n/a
279.16	0.1205	558320	keystroke_e	e	n/a
279.475	0.15	558950	keystroke_a	a	n/a
279.7305	0.09	559461	keystroke_t	t	n/a
279.88	0.165	559760	keystroke_Key.space	Key.space	n/a
280.06	0.1355	560120	keystroke_a	a	n/a
280.375	0.135	560750	keystroke_c	c	n/a
280.5555	0.1505	561111	keystroke_i	i	n/a
280.751	0.09	561502	keystroke_d	d	n/a
281.095	0.1505	562190	keystroke_s	s	n/a
281.2605	0.15	562521	keystroke_Key.space	Key.space	n/a
281.56	0.1205	563120	keystroke_r	r	n/a
281.8005	0.135	563601	keystroke_e	e	n/a
282.1305	0.135	564261	keystroke_v	v	n/a
282.2955	0.1195	564591	keystroke_i	i	n/a
282.4755	0.1195	564951	keystroke_s	s	n/a
282.655	0.15	565310	keystroke_i	i	n/a
282.85	0.21	565700	keystroke_o	o	n/a
283.075	0.105	566150	keystroke_n	n	n/a
283.165	0.1345	566330	keystroke_s	s	n/a
283.4345	0.1505	566869	keystroke_Key.space	Key.space	n/a
283.6755	0.1795	567351	keystroke_p	p	n/a
283.75	0.15	567500	keystroke_a	a	n/a
284.0355	0.12	568071	keystroke_t	t	n/a
284.5305	0.12	569061	keystroke_h	h	n/a
284.6655	0.105	569331	keystroke_e	e	n/a
285.355	0.059	570710	keystroke_Key.backspace	Key.backspace	n/a
285.7145	0.075	571429	keystroke_Key.backspace	Key.backspace	n/a
286.1495	0.165	572299	keystroke_c	c	n/a
286.3745	0.15	572749	keystroke_h	h	n/a
286.5545	0.105	573109	keystroke_e	e	n/a
286.7945	0.105	573589	keystroke_s	s	n/a
287.185	0.1345	574370	keystroke_Key.enter	Key.enter	n/a
287.3235	12.329	574647	prompt	n/a	cemetery neighbor quiet wolf\n
288.4155	0.105	576831	keystroke_c	c	n/a
288.6555	0.105	577311	keystroke_e	e	n/a
288.775	0.135	577550	keystroke_m	m	n/a
288.88	0.134	577760	keystroke_e	e	n/a
289.149	0.105	578298	keystroke_t	t	n/a
289.5555	0.119	579111	keystroke_e	e	n/a
290.485	0.1355	580970	keystroke_r	r	n/a
290.7705	0.12	581541	keystroke_y	y	n/a
290.9205	0.165	581841	keystroke_Key.space	Key.space	n/a
291.2955	0.12	582591	keystroke_n	n	n/a
291.506	0.1195	583012	keystroke_e	e	n/a
291.6855	0.135	583371	keystroke_i	i	n/a
291.8805	0.135	583761	keystroke_g	g	n/a
292.6755	0.09	585351	keystroke_h	h	n/a
293.4555	0.135	586911	keystroke_b	b	n/a
293.5755	0.15	587151	keystroke_o	o	n/a
293.8605	0.12	587721	keystroke_r	r	n/a
294.0255	0.165	588051	keystroke_Key.space	Key.space	n/a
294.505	0.1955	589010	keystroke_q	q	n/a
294.7455	0.165	589491	keystroke_u	u	n/a
295.0305	0.135	590061	keystroke_i	i	n/a
295.2405	0.1195	590481	keystroke_t	t	n/a
296.336	0.1645	592672	keystroke_Key.backspace	Key.backspace	n/a
296.5155	0.15	593031	keystroke_e	e	n/a
296.786	0.09	593572	keystroke_t	t	n/a
296.9805	0.1505	593961	keystroke_Key.space	Key.space	n/a
297.4015	0.1495	594803	keystroke_w	w	n/a
297.536	0.1355	595072	keystroke_o	o	n/a
297.9715	0.1495	595943	keystroke_l	l	n/a
298.3015	0.1205	596603	keystroke_k	k	n/a
298.9315	0.1055	597863	keystroke_Key.backspace	Key.backspace	n/a
299.0965	0.105	598193	keystroke_f	f	n/a
299.5015	0.1495	599003	keystroke_Key.enter	Key.enter	n/a
299.6555	9.8525	599311	prompt	n/a	minute thesaurus depend czech\n
300.5665	0.18	601133	keystroke_m	m	n/a
300.8065	0.165	601613	keystroke_i	i	n/a
301.122	0.1045	602244	keystroke_n	n	n/a
301.392	0.12	602784	keystroke_u	u	n/a
301.632	0.1195	603264	keystroke_t	t	n/a
301.842	0.165	603684	keystroke_e	e	n/a
302.1265	0.105	604253	keystroke_Key.space	Key.space	n/a
302.4115	0.105	604823	keystroke_t	t	n/a
302.562	0.1505	605124	keystroke_h	h	n/a
302.7275	0.1195	605455	keystroke_e	e	n/a
303.1025	0.06	606205	keystroke_s	s	n/a
303.372	0.1805	606744	keystroke_a	a	n/a
303.6575	0.1495	607315	keystroke_u	u	n/a
303.9425	0.12	607885	keystroke_r	r	n/a
304.2875	0.12	608575	keystroke_u	u	n/a
304.5875	0.135	609175	keystroke_s	s	n/a
304.7525	0.135	609505	keystroke_Key.space	Key.space	n/a
305.0225	0.075	610045	keystroke_d	d	n/a
305.2625	0.0895	610525	keystroke_e	e	n/a
305.472	0.165	610944	keystroke_p	p	n/a
305.847	0.12	611694	keystroke_e	e	n/a
305.997	0.15	611994	keystroke_n	n	n/a
306.297	0.12	612594	keystroke_d	d	n/a
306.507	0.135	613014	keystroke_Key.space	Key.space	n/a
306.853	0.1495	613706	keystroke_c	c	n/a
307.827	0.24	615654	keystroke_z	z	n/a
308.547	0.105	617094	keystroke_e	e	n/a
308.817	0.15	617634	keystroke_c	c	n/a
308.982	0.1345	617964	keystroke_h	h	n/a
309.387	0.1195	618774	keystroke_Key.enter	Key.enter	n/a
309.5115	6.311	619023	prompt	n/a	chart our additional area\n
310.212	0.12	620424	keystroke_c	c	n/a
310.392	0.1495	620784	keystroke_h	h	n/a
310.4815	0.135	620963	keystroke_a	a	n/a
310.737	0.0895	621474	keystroke_r	r	n/a
310.9315	0.105	621863	keystroke_t	t	n/a
311.0505	0.1815	622101	keystroke_Key.space	Key.space	n/a
311.2615	0.15	622523	keystroke_o	o	n/a
311.4705	0.1505	622941	keystroke_u	u	n/a
311.636	0.12	623272	keystroke_r	r	n/a
311.8015	0.1495	623603	keystroke_Key.space	Key.space	n/a
312.071	0.0905	624142	keystroke_a	a	n/a
312.2965	0.075	624593	keystroke_d	d	n/a
312.4465	0.135	624893	keystroke_d	d	n/a
312.6555	0.165	625311	keystroke_i	i	n/a
312.8515	0.105	625703	keystroke_t	t	n/a
312.9855	0.091	625971	keystroke_i	i	n/a
313.1065	0.375	626213	keystroke_o	o	n/a
313.4055	0.166	626811	keystroke_n	n	n/a
313.9	0.151	627800	keystroke_a	a	n/a
314.066	0.15	628132	keystroke_l	l	n/a
314.276	0.1495	628552	keystroke_Key.space	Key.space	n/a
314.6805	0.15	629361	keystroke_a	a	n/a
314.95	0.165	629900	keystroke_r	r	n/a
315.13	0.15	630260	keystroke_e	e	n/a
315.4305	0.18	630861	keystroke_a	a	n/a
315.656	0.165	631312	keystroke_Key.enter	Key.enter	n/a
315.8265	10.347	631653	prompt	n/a	versus foods construct specifics\n
316.5265	0.1195	633053	keystroke_v	v	n/a
316.766	0.18	633532	keystroke_e	e	n/a
316.961	0.1055	633922	keystroke_r	r	n/a
317.216	0.135	634432	keystroke_s	s	n/a
317.4115	0.105	634823	keystroke_u	u	n/a
317.621	0.1495	635242	keystroke_s	s	n/a
317.816	0.15	635632	keystroke_Key.space	Key.space	n/a
317.996	0.166	635992	keystroke_f	f	n/a
318.162	0.134	636324	keystroke_o	o	n/a
318.386	0.1205	636772	keystroke_o	o	n/a
318.7615	0.12	637523	keystroke_d	d	n/a
319.046	0.18	638092	keystroke_s	s	n/a
319.196	0.135	638392	keystroke_Key.space	Key.space	n/a
319.451	0.15	638902	keystroke_c	c	n/a
319.556	0.15	639112	keystroke_o	o	n/a
319.721	0.135	639442	keystroke_n	n	n/a
319.871	0.165	639742	keystroke_s	s	n/a
320.141	0.1205	640282	keystroke_t	t	n/a
320.366	0.15	640732	keystroke_r	r	n/a
320.5315	0.1205	641063	keystroke_u	u	n/a
320.802	0.18	641604	keystroke_c	c	n/a
321.477	0.15	642954	keystroke_t	t	n/a
321.7165	0.135	643433	keystroke_Key.space	Key.space	n/a
321.9715	0.105	643943	keystroke_s	s	n/a
322.0915	0.2255	644183	keystroke_p	p	n/a
322.272	0.105	644544	keystroke_e	e	n/a
322.5865	0.12	645173	keystroke_c	c	n/a
322.752	0.105	645504	keystroke_i	i	n/a
323.457	0.0895	646914	keystroke_i	i	n/a
323.6815	0.135	647363	keystroke_f	f	n/a
324.1615	0.09	648323	keystroke_Key.backspace	Key.backspace	n/a
324.3265	0.06	648653	keystroke_Key.backspace	Key.backspace	n/a
324.4765	0.105	648953	keystroke_f	f	n/a
324.7165	0.075	649433	keystroke_i	i	n/a
325.407	0.15	650814	keystroke_c	c	n/a
325.7965	0.1355	651593	keystroke_s	s	n/a
326.037	0.1345	652074	keystroke_Key.enter	Key.enter	n/a
326.1765	12.7485	652353	prompt	n/a	programmes raises describes betting\n
326.9515	0.15	653903	keystroke_p	p	n/a
327.0865	0.135	654173	keystroke_r	r	n/a
327.2515	0.135	654503	keystroke_o	o	n/a
327.4015	0.1195	654803	keystroke_g	g	n/a
327.641	0.09	655282	keystroke_r	r	n/a
327.8965	0.1795	655793	keystroke_a	a	n/a
328.046	0.12	656092	keystroke_m	m	n/a
328.2705	0.0905	656541	keystroke_m	m	n/a
328.511	0.1345	657022	keystroke_e	e	n/a
329.0795	0.1045	658159	keystroke_s	s	n/a
329.6365	0.105	659273	keystroke_Key.space	Key.space	n/a
329.9825	0.1345	659965	keystroke_r	r	n/a
332.714	0.1035	665428	keystroke_a	a	n/a
332.8475	0.195	665695	keystroke_i	i	n/a
333.0125	0.12	666025	keystroke_s	s	n/a
333.2825	0.105	666565	keystroke_e	e	n/a
333.5525	0.12	667105	keystroke_s	s	n/a
333.6875	0.15	667375	keystroke_Key.space	Key.space	n/a
333.9425	0.075	667885	keystroke_d	d	n/a
334.153	0.0895	668306	keystroke_e	e	n/a
334.3925	0.105	668785	keystroke_s	s	n/a
334.633	0.1495	669266	keystroke_c	c	n/a
334.948	0.15	669896	keystroke_r	r	n/a
335.143	0.105	670286	keystroke_i	i	n/a
335.518	0.105	671036	keystroke_b	b	n/a
336.388	0.105	672776	keystroke_e	e	n/a
336.7035	0.12	673407	keystroke_s	s	n/a
336.8685	0.1345	673737	keystroke_Key.space	Key.space	n/a
337.1535	0.105	674307	keystroke_b	b	n/a
337.438	0.1355	674876	keystroke_e	e	n/a
337.7235	0.045	675447	keystroke_t	t	n/a
337.8285	0.075	675657	keystroke_t	t	n/a
338.1435	0.18	676287	keystroke_i	i	n/a
338.3385	0.1955	676677	keystroke_n	n	n/a
338.458	0.181	676916	keystroke_g	g	n/a
338.819	0.1045	677638	keystroke_Key.enter	Key.enter	n/a
338.9295	11.0955	677859	prompt	n/a	patrol emerald quotes azerbaijan\n
339.6285	0.105	679257	keystroke_p	p	n/a
339.7035	0.12	679407	keystroke_a	a	n/a
339.944	0.0745	679888	keystroke_t	t	n/a
340.1395	0.12	680279	keystroke_r	r	n/a
340.4245	0.1045	680849	keystroke_o	o	n/a
340.7085	0.151	681417	keystroke_l	l	n/a
340.9045	0.104	681809	keystroke_Key.space	Key.space	n/a
341.548	0.121	683096	keystroke_e	e	n/a
341.774	0.134	683548	keystroke_m	m	n/a
342.073	0.135	684146	keystroke_e	e	n/a
342.2835	0.105	684567	keystroke_r	r	n/a
342.5685	0.181	685137	keystroke_a	a	n/a
342.7645	0.134	685529	keystroke_l	l	n/a
342.974	0.1355	685948	keystroke_d	d	n/a
343.5445	0.1045	687089	keystroke_Key.space	Key.space	n/a
343.949	0.18	687898	keystroke_q	q	n/a
344.1145	0.1645	688229	keystroke_u	u	n/a
344.594	0.15	689188	keystroke_o	o	n/a
344.789	0.12	689578	keystroke_t	t	n/a
345.0145	0.12	690029	keystroke_e	e	n/a
345.3445	0.12	690689	keystroke_s	s	n/a
345.5245	0.135	691049	keystroke_Key.space	Key.space	n/a
345.959	0.12	691918	keystroke_a	a	n/a
346.424	0.15	692848	keystroke_z	z	n/a
346.769	0.165	693538	keystroke_e	e	n/a
347.1735	0.165	694347	keystroke_r	r	n/a
347.6535	0.06	695307	keystroke_b	b	n/a
348.0885	0.195	696177	keystroke_a	a	n/a
348.4485	0.15	696897	keystroke_i	i	n/a
348.853	0.1955	697706	keystroke_j	j	n/a
349.1385	0.1055	698277	keystroke_a	a	n/a
349.409	0.1195	698818	keystroke_n	n	n/a
349.9185	0.105	699837	keystroke_Key.enter	Key.enter	n/a
350.028	10.316	700056	prompt	n/a	courts autos indigenous multiple\n
350.654	0.18	701308	keystroke_c	c	n/a
350.789	0.135	701578	keystroke_o	o	n/a
350.984	0.165	701968	keystroke_u	u	n/a
351.134	0.1195	702268	keystroke_r	r	n/a
351.3585	0.09	702717	keystroke_t	t	n/a
351.6135	0.12	703227	keystroke_s	s	n/a
351.7485	0.1655	703497	keystroke_Key.space	Key.space	n/a
351.959	0.1495	703918	keystroke_a	a	n/a
352.1095	0.1495	704219	keystroke_u	u	n/a
352.484	0.135	704968	keystroke_t	t	n/a
352.709	0.075	705418	keystroke_o	o	n/a
353.039	0.12	706078	keystroke_s	s	n/a
353.219	0.165	706438	keystroke_Key.space	Key.space	n/a
353.819	0.1195	707638	keystroke_i	i	n/a
353.9985	0.135	707997	keystroke_n	n	n/a
354.1485	0.1655	708297	keystroke_d	d	n/a
354.374	0.12	708748	keystroke_i	i	n/a
354.6595	0.1045	709319	keystroke_g	g	n/a
355.004	0.09	710008	keystroke_e	e	n/a
355.154	0.12	710308	keystroke_n	n	n/a
355.8885	0.1205	711777	keystroke_o	o	n/a
356.129	0.105	712258	keystroke_u	u	n/a
356.3535	0.15	712707	keystroke_s	s	n/a
356.518	0.165	713036	keystroke_Key.space	Key.space	n/a
357.238	0.135	714476	keystroke_m	m	n/a
357.658	0.12	715316	keystroke_u	u	n/a
357.9425	0.151	715885	keystroke_l	l	n/a
358.1975	0.1195	716395	keystroke_t	t	n/a
358.783	0.1355	717566	keystroke_i	i	n/a
359.098	0.135	718196	keystroke_p	p	n/a
359.5175	0.1055	719035	keystroke_l	l	n/a
359.8025	0.15	719605	keystroke_e	e	n/a
360.222	0.12	720444	keystroke_Key.enter	Key.enter	n/a
360.3475	8.593	720695	prompt	n/a	detection adobe regression johns\n
360.8975	0.12	721795	keystroke_d	d	n/a
361.1375	0.1205	722275	keystroke_e	e	n/a
361.453	0.015	722906	keystroke_t	t	n/a
361.513	0.1355	723026	keystroke_e	e	n/a
361.8575	0.106	723715	keystroke_c	c	n/a
362.113	0.12	724226	keystroke_t	t	n/a
362.248	0.1355	724496	keystroke_i	i	n/a
362.3685	0.2245	724737	keystroke_o	o	n/a
362.578	0.165	725156	keystroke_n	n	n/a
362.758	0.12	725516	keystroke_Key.space	Key.space	n/a
363.0735	0.15	726147	keystroke_a	a	n/a
363.3135	0.18	726627	keystroke_d	d	n/a
363.5685	0.12	727137	keystroke_o	o	n/a
363.809	0.1195	727618	keystroke_b	b	n/a
364.0785	0.1355	728157	keystroke_e	e	n/a
364.259	0.165	728518	keystroke_Key.space	Key.space	n/a
364.589	0.1045	729178	keystroke_r	r	n/a
364.829	0.1345	729658	keystroke_e	e	n/a
365.1885	0.1055	730377	keystroke_g	g	n/a
365.4735	0.0905	730947	keystroke_r	r	n/a
365.669	0.135	731338	keystroke_e	e	n/a
366.0445	0.06	732089	keystroke_s	s	n/a
366.2095	0.09	732419	keystroke_s	s	n/a
366.4195	0.12	732839	keystroke_i	i	n/a
366.5695	0.18	733139	keystroke_o	o	n/a
366.7195	0.1495	733439	keystroke_n	n	n/a
367.034	0.1205	734068	keystroke_Key.space	Key.space	n/a
367.289	0.18	734578	keystroke_j	j	n/a
367.544	0.1655	735088	keystroke_o	o	n/a
367.8895	0.1195	735779	keystroke_h	h	n/a
368.189	0.105	736378	keystroke_n	n	n/a
368.429	0.135	736858	keystroke_s	s	n/a
368.789	0.15	737578	keystroke_Key.enter	Key.enter	n/a
368.944	11.4475	737888	prompt	n/a	evolution prefers flags essentially\n
369.6295	0.12	739259	keystroke_e	e	n/a
369.9145	0.18	739829	keystroke_v	v	n/a
370.1545	0.1195	740309	keystroke_o	o	n/a
370.4245	0.15	740849	keystroke_l	l	n/a
370.7095	0.1345	741419	keystroke_u	u	n/a
370.979	0.12	741958	keystroke_t	t	n/a
371.189	0.12	742378	keystroke_i	i	n/a
371.354	0.195	742708	keystroke_o	o	n/a
371.564	0.194	743128	keystroke_n	n	n/a
372.0135	0.1195	744027	keystroke_Key.space	Key.space	n/a
372.3885	0.1505	744777	keystroke_p	p	n/a
372.606	0.1335	745212	keystroke_r	r	n/a
372.7995	0.1355	745599	keystroke_e	e	n/a
373.0845	0.105	746169	keystroke_f	f	n/a
373.3095	0.1355	746619	keystroke_e	e	n/a
373.5645	0.105	747129	keystroke_r	r	n/a
373.895	0.15	747790	keystroke_s	s	n/a
374.09	0.1495	748180	keystroke_Key.space	Key.space	n/a
374.3445	0.1505	748689	keystroke_f	f	n/a
374.525	0.18	749050	keystroke_l	l	n/a
375.3645	0.135	750729	keystroke_a	a	n/a
375.6495	0.105	751299	keystroke_g	g	n/a
375.9795	0.12	751959	keystroke_s	s	n/a
376.1445	0.1345	752289	keystroke_Key.space	Key.space	n/a
376.399	0.1205	752798	keystroke_e	e	n/a
376.7295	0.075	753459	keystroke_s	s	n/a
377.0295	0.12	754059	keystroke_s	s	n/a
377.3445	0.105	754689	keystroke_e	e	n/a
377.6295	0.15	755259	keystroke_n	n	n/a
378.214	0.12	756428	keystroke_t	t	n/a
378.5445	0.12	757089	keystroke_i	i	n/a
378.9645	0.1205	757929	keystroke_a	a	n/a
379.2195	0.09	758439	keystroke_l	l	n/a
379.4445	0.12	758889	keystroke_l	l	n/a
379.8195	0.12	759639	keystroke_y	y	n/a
380.27	0.1205	760540	keystroke_Key.enter	Key.enter	n/a
380.395	15.8085	760790	prompt	n/a	wheat environments panasonic demo\n
380.96	0.12	761920	keystroke_w	w	n/a
381.155	0.15	762310	keystroke_h	h	n/a
381.305	0.135	762610	keystroke_e	e	n/a
381.6045	0.12	763209	keystroke_a	a	n/a
381.875	0.09	763750	keystroke_t	t	n/a
382.01	0.15	764020	keystroke_Key.space	Key.space	n/a
382.2955	0.1495	764591	keystroke_e	e	n/a
382.58	0.09	765160	keystroke_n	n	n/a
382.8355	0.1345	765671	keystroke_v	v	n/a
383	0.165	766000	keystroke_i	i	n/a
383.3305	0.1345	766661	keystroke_r	r	n/a
384.081	0.195	768162	keystroke_o	o	n/a
384.4715	0.1195	768943	keystroke_n	n	n/a
384.8605	0.1205	769721	keystroke_m	m	n/a
385.0405	0.135	770081	keystroke_e	e	n/a
385.1455	0.165	770291	keystroke_n	n	n/a
385.371	0.105	770742	keystroke_t	t	n/a
385.7005	0.15	771401	keystroke_s	s	n/a
385.971	0.2245	771942	keystroke_Key.space	Key.space	n/a
386.3465	0.165	772693	keystroke_p	p	n/a
386.5265	0.1495	773053	keystroke_a	a	n/a
386.691	0.195	773382	keystroke_n	n	n/a
386.886	0.15	773772	keystroke_a	a	n/a
387.966	0.1355	775932	keystroke_s	s	n/a
388.161	0.15	776322	keystroke_o	o	n/a
388.371	0.09	776742	keystroke_n	n	n/a
388.596	0.165	777192	keystroke_i	i	n/a
388.776	0.135	777552	keystroke_c	c	n/a
389.751	0.1495	779502	keystroke_Key.space	Key.space	n/a
389.976	0.1205	779952	keystroke_d	d	n/a
390.3065	0.18	780613	keystroke_e	e	n/a
390.6815	0.105	781363	keystroke_m	m	n/a
391.2665	0.12	782533	keystroke_o	o	n/a
396.0985	0.103	792197	keystroke_Key.enter	Key.enter	n/a
396.206	13.7975	792412	prompt	n/a	whom'st avon iowa banners\n
397.0565	0.1805	794113	keystroke_w	w	n/a
397.2815	0.195	794563	keystroke_h	h	n/a
397.4915	0.165	794983	keystroke_o	o	n/a
398.4665	0.1785	796933	keystroke_'	'	n/a
398.691	0.1505	797382	keystroke_s	s	n/a
399.021	0.134	798042	keystroke_t	t	n/a
399.4585	0.105	798917	keystroke_Key.backspace	Key.backspace	n/a
399.758	0.0595	799516	keystroke_Key.backspace	Key.backspace	n/a
400.0285	0.1045	800057	keystroke_Key.backspace	Key.backspace	n/a
400.3725	0.136	800745	keystroke_m	m	n/a
401.422	0.1195	802844	keystroke_'	'	n/a
401.871	0.1505	803742	keystroke_s	s	n/a
402.1865	0.135	804373	keystroke_t	t	n/a
402.486	0.1355	804972	keystroke_Key.space	Key.space	n/a
402.697	0.149	805394	keystroke_a	a	n/a
402.906	0.1355	805812	keystroke_v	v	n/a
403.1765	0.1495	806353	keystroke_a	a	n/a
404.271	0.075	808542	keystroke_Key.backspace	Key.backspace	n/a
404.5565	0.1795	809113	keystroke_o	o	n/a
404.751	0.1495	809502	keystroke_n	n	n/a
404.931	0.15	809862	keystroke_Key.space	Key.space	n/a
405.3205	0.12	810641	keystroke_i	i	n/a
405.6055	0.1205	811211	keystroke_o	o	n/a
405.8605	0.1345	811721	keystroke_w	w	n/a
406.161	0.2015	812322	keystroke_a	a	n/a
407.0235	0.146	814047	keystroke_Key.space	Key.space	n/a
407.29	0.12	814580	keystroke_b	b	n/a
407.4995	0.1825	814999	keystroke_a	a	n/a
407.683	0.0675	815366	keystroke_n	n	n/a
407.834	0.0905	815668	keystroke_n	n	n/a
408.4045	0.105	816809	keystroke_e	e	n/a
408.629	0.1145	817258	keystroke_r	r	n/a
409.643	0.0955	819286	keystroke_s	s	n/a
409.8865	0.116	819773	keystroke_Key.enter	Key.enter	n/a
410.0075	8.7335	820015	prompt	n/a	scope exam interactive poison\n
410.6535	0.09	821307	keystroke_s	s	n/a
410.848	0.2665	821696	keystroke_c	c	n/a
411.0845	0.1795	822169	keystroke_o	o	n/a
411.361	0.2105	822722	keystroke_p	p	n/a
411.7065	0.1645	823413	keystroke_e	e	n/a
411.9855	0.144	823971	keystroke_Key.space	Key.space	n/a
412.234	0.089	824468	keystroke_e	e	n/a
412.601	0.1335	825202	keystroke_c	c	n/a
413.082	0.085	826164	keystroke_Key.backspace	Key.backspace	n/a
413.2715	0.1645	826543	keystroke_x	x	n/a
413.7385	0.1945	827477	keystroke_a	a	n/a
413.963	0.1655	827926	keystroke_m	m	n/a
414.1885	0.1495	828377	keystroke_Key.space	Key.space	n/a
414.458	0.1655	828916	keystroke_i	i	n/a
414.6535	0.1495	829307	keystroke_n	n	n/a
414.818	0.135	829636	keystroke_t	t	n/a
414.998	0.15	829996	keystroke_e	e	n/a
415.163	0.12	830326	keystroke_r	r	n/a
415.449	0.12	830898	keystroke_a	a	n/a
415.704	0.15	831408	keystroke_c	c	n/a
416.0035	0.09	832007	keystroke_t	t	n/a
416.1385	0.18	832277	keystroke_i	i	n/a
416.3335	0.1195	832667	keystroke_v	v	n/a
416.573	0.1345	833146	keystroke_e	e	n/a
416.678	0.1805	833356	keystroke_Key.space	Key.space	n/a
417.008	0.1345	834016	keystroke_p	p	n/a
417.2775	0.1415	834555	keystroke_o	o	n/a
417.7915	0.096	835583	keystroke_i	i	n/a
417.914	0.15	835828	keystroke_s	s	n/a
418.0935	0.1505	836187	keystroke_o	o	n/a
418.2295	0.1355	836459	keystroke_n	n	n/a
418.6045	0.1345	837209	keystroke_Key.enter	Key.enter	n/a
418.7435	8.774	837487	prompt	n/a	slow lips desperate monroe\n
419.2625	0.075	838525	keystroke_s	s	n/a
419.5925	0.12	839185	keystroke_l	l	n/a
419.832	0.1505	839664	keystroke_o	o	n/a
420.0275	0.1195	840055	keystroke_w	w	n/a
420.207	0.138	840414	keystroke_Key.space	Key.space	n/a
420.388	0.157	840776	keystroke_l	l	n/a
420.5995	0.097	841199	keystroke_i	i	n/a
421.1295	0.115	842259	keystroke_p	p	n/a
421.352	0.1135	842704	keystroke_s	s	n/a
422.1285	0.1345	844257	keystroke_Key.space	Key.space	n/a
422.458	0.12	844916	keystroke_d	d	n/a
422.8035	0.105	845607	keystroke_e	e	n/a
423.0885	0.075	846177	keystroke_s	s	n/a
423.2685	0.18	846537	keystroke_p	p	n/a
424.2895	0.1055	848579	keystroke_e	e	n/a
424.575	0.1355	849150	keystroke_r	r	n/a
424.935	0.135	849870	keystroke_a	a	n/a
425.206	0.12	850412	keystroke_t	t	n/a
425.461	0.15	850922	keystroke_e	e	n/a
425.7615	0.1045	851523	keystroke_Key.space	Key.space	n/a
426.031	0.12	852062	keystroke_m	m	n/a
426.286	0.1645	852572	keystroke_o	o	n/a
426.4805	0.135	852961	keystroke_n	n	n/a
426.7205	0.136	853441	keystroke_r	r	n/a
426.916	0.1355	853832	keystroke_o	o	n/a
427.0965	0.15	854193	keystroke_e	e	n/a
427.412	0.1045	854824	keystroke_Key.enter	Key.enter	n/a
427.5205	8.563	855041	prompt	n/a	planning respected bidding anti\n
428.131	0.1655	856262	keystroke_p	p	n/a
428.4315	0.18	856863	keystroke_l	l	n/a
428.6415	0.165	857283	keystroke_a	a	n/a
428.8665	0.105	857733	keystroke_n	n	n/a
429.106	0.091	858212	keystroke_n	n	n/a
429.362	0.18	858724	keystroke_i	i	n/a
429.557	0.21	859114	keystroke_n	n	n/a
429.782	0.165	859564	keystroke_g	g	n/a
429.932	0.165	859864	keystroke_Key.space	Key.space	n/a
430.2165	0.1355	860433	keystroke_r	r	n/a
430.412	0.135	860824	keystroke_e	e	n/a
430.7265	0.135	861453	keystroke_s	s	n/a
430.9515	0.1945	861903	keystroke_p	p	n/a
431.116	0.1355	862232	keystroke_e	e	n/a
431.836	0.18	863672	keystroke_c	c	n/a
432.2415	0.1195	864483	keystroke_t	t	n/a
432.436	0.195	864872	keystroke_e	e	n/a
432.7955	0.18	865591	keystroke_d	d	n/a
433.0355	0.1495	866071	keystroke_Key.space	Key.space	n/a
433.29	0.1805	866580	keystroke_b	b	n/a
433.5305	0.1055	867061	keystroke_i	i	n/a
433.7405	0.1205	867481	keystroke_d	d	n/a
433.996	0.1645	867992	keystroke_d	d	n/a
434.1755	0.1795	868351	keystroke_i	i	n/a
434.401	0.2005	868802	keystroke_n	n	n/a
434.5715	0.1335	869143	keystroke_g	g	n/a
434.72	0.1365	869440	keystroke_Key.space	Key.space	n/a
434.9475	0.2095	869895	keystroke_a	a	n/a
435.1125	0.205	870225	keystroke_n	n	n/a
435.3625	0.1355	870725	keystroke_t	t	n/a
435.58	0.1115	871160	keystroke_i	i	n/a
435.962	0.1195	871924	keystroke_Key.enter	Key.enter	n/a
436.087	11.7365	872174	prompt	n/a	tucson appeals moment administration\n
436.7665	0.12	873533	keystroke_t	t	n/a
437.0215	0.135	874043	keystroke_u	u	n/a
437.4405	0.1505	874881	keystroke_c	c	n/a
437.741	0.135	875482	keystroke_s	s	n/a
437.936	0.165	875872	keystroke_o	o	n/a
438.176	0.1795	876352	keystroke_n	n	n/a
438.3855	0.15	876771	keystroke_Key.space	Key.space	n/a
438.5805	0.15	877161	keystroke_a	a	n/a
438.8055	0.135	877611	keystroke_p	p	n/a
439.0905	0.1355	878181	keystroke_p	p	n/a
439.301	0.12	878602	keystroke_e	e	n/a
439.6155	0.1055	879231	keystroke_a	a	n/a
440.0655	0.1355	880131	keystroke_s	s	n/a
440.725	0.073	881450	keystroke_Key.backspace	Key.backspace	n/a
441.0045	0.1795	882009	keystroke_l	l	n/a
441.199	0.121	882398	keystroke_s	s	n/a
441.3645	0.12	882729	keystroke_Key.space	Key.space	n/a
441.664	0.151	883328	keystroke_m	m	n/a
441.9195	0.165	883839	keystroke_o	o	n/a
442.219	0.1205	884438	keystroke_m	m	n/a
442.4145	0.122	884829	keystroke_e	e	n/a
442.5515	0.165	885103	keystroke_n	n	n/a
442.7465	0.135	885493	keystroke_t	t	n/a
442.9115	0.1495	885823	keystroke_Key.space	Key.space	n/a
443.256	0.1355	886512	keystroke_a	a	n/a
443.4965	0.1645	886993	keystroke_d	d	n/a
443.826	0.165	887652	keystroke_m	m	n/a
444.201	0.135	888402	keystroke_i	i	n/a
444.456	0.1355	888912	keystroke_n	n	n/a
445.5165	0.1355	891033	keystroke_i	i	n/a
445.7415	0.11	891483	keystroke_s	s	n/a
445.9935	0.1055	891987	keystroke_t	t	n/a
446.205	0.105	892410	keystroke_r	r	n/a
446.4885	0.1665	892977	keystroke_a	a	n/a
446.804	0.136	893608	keystroke_t	t	n/a
446.984	0.18	893968	keystroke_i	i	n/a
447.119	0.24	894238	keystroke_o	o	n/a
447.329	0.1655	894658	keystroke_n	n	n/a
447.704	0.1175	895408	keystroke_Key.enter	Key.enter	n/a
447.828	8.5605	895656	prompt	n/a	jimmy social webcams mechanical\n
448.618	0.1205	897236	keystroke_j	j	n/a
448.8735	0.1095	897747	keystroke_i	i	n/a
449.1095	0.09	898219	keystroke_m	m	n/a
449.41	0.015	898820	keystroke_m	m	n/a
449.634	0.076	899268	keystroke_y	y	n/a
449.735	0.095	899470	keystroke_Key.space	Key.space	n/a
449.8775	0.132	899755	keystroke_s	s	n/a
449.9985	0.083	899997	keystroke_o	o	n/a
450.106	0.131	900212	keystroke_c	c	n/a
450.23	0.142	900460	keystroke_i	i	n/a
450.417	0.1655	900834	keystroke_a	a	n/a
450.5675	0.2265	901135	keystroke_l	l	n/a
451.431	0.18	902862	keystroke_Key.space	Key.space	n/a
451.8365	0.105	903673	keystroke_w	w	n/a
452.0315	0.1355	904063	keystroke_e	e	n/a
452.3475	0.1345	904695	keystroke_b	b	n/a
452.677	0.1355	905354	keystroke_c	c	n/a
452.9025	0.226	905805	keystroke_a	a	n/a
453.2035	0.15	906407	keystroke_m	m	n/a
453.414	0.165	906828	keystroke_s	s	n/a
453.594	0.1495	907188	keystroke_Key.space	Key.space	n/a
453.879	0.1795	907758	keystroke_m	m	n/a
454.0435	0.165	908087	keystroke_e	e	n/a
454.5085	0.1955	909017	keystroke_c	c	n/a
454.779	0.106	909558	keystroke_h	h	n/a
454.9	0.18	909800	keystroke_a	a	n/a
455.08	0.1655	910160	keystroke_n	n	n/a
455.3655	0.1355	910731	keystroke_i	i	n/a
455.741	0.0155	911482	keystroke_c	c	n/a
455.8015	0.1655	911603	keystroke_a	a	n/a
456.267	0.12	912534	keystroke_Key.enter	Key.enter	n/a
456.3925	10.685	912785	prompt	n/a	fired scheduled tournament quickly\n
457.3765	0.12	914753	keystroke_f	f	n/a
457.5115	0.1645	915023	keystroke_i	i	n/a
457.691	0.1055	915382	keystroke_r	r	n/a
457.8265	0.135	915653	keystroke_e	e	n/a
458.2015	0.135	916403	keystroke_d	d	n/a
458.471	0.1195	916942	keystroke_Key.space	Key.space	n/a
458.85	0.0395	917700	keystroke_s	s	n/a
459.035	0.225	918070	keystroke_c	c	n/a
459.275	0.1355	918550	keystroke_h	h	n/a
459.5005	0.105	919001	keystroke_e	e	n/a
459.741	0.18	919482	keystroke_d	d	n/a
459.906	0.12	919812	keystroke_u	u	n/a
460.2205	0.15	920441	keystroke_l	l	n/a
460.401	0.12	920802	keystroke_e	e	n/a
460.686	0.166	921372	keystroke_d	d	n/a
460.8055	0.165	921611	keystroke_Key.space	Key.space	n/a
461.3465	0.1495	922693	keystroke_t	t	n/a
461.5715	0.135	923143	keystroke_o	o	n/a
461.8565	0.1495	923713	keystroke_u	u	n/a
462.0665	0.12	924133	keystroke_r	r	n/a
462.7705	0.07	925541	keystroke_n	n	n/a
462.982	0.1555	925964	keystroke_a	a	n/a
463.1535	0.0975	926307	keystroke_m	m	n/a
463.266	0.129	926532	keystroke_e	e	n/a
463.354	0.161	926708	keystroke_n	n	n/a
463.6055	0.135	927211	keystroke_t	t	n/a
464.1705	0.116	928341	keystroke_Key.space	Key.space	n/a
464.4365	0.1795	928873	keystroke_q	q	n/a
464.646	0.135	929292	keystroke_u	u	n/a
465.1115	0.1345	930223	keystroke_i	i	n/a
465.276	0.195	930552	keystroke_c	c	n/a
465.501	0.1055	931002	keystroke_k	k	n/a
466.146	0.15	932292	keystroke_l	l	n/a
466.491	0.105	932982	keystroke_y	y	n/a
466.941	0.135	933882	keystroke_Key.enter	Key.enter	n/a
467.081	22.7465	934162	prompt	n/a	itunes podcast sperm successful\n
467.766	0.135	935532	keystroke_i	i	n/a
468.036	0.1655	936072	keystroke_t	t	n/a
468.2315	0.135	936463	keystroke_u	u	n/a
468.5315	0.18	937063	keystroke_n	n	n/a
468.7265	0.1355	937453	keystroke_e	e	n/a
469.0565	0.135	938113	keystroke_s	s	n/a
469.2215	0.1805	938443	keystroke_Key.space	Key.space	n/a
469.6115	0.2705	939223	keystroke_p	p	n/a
470.4665	0.1495	940933	keystroke_o	o	n/a
470.661	0.135	941322	keystroke_d	d	n/a
470.9605	0.1195	941921	keystroke_c	c	n/a
471.185	0.09	942370	keystroke_a	a	n/a
471.425	0.1655	942850	keystroke_s	s	n/a
472.16	0.105	944320	keystroke_Key.space	Key.space	n/a
472.475	0.2255	944950	keystroke_s	s	n/a
472.7155	0.27	945431	keystroke_p	p	n/a
472.9395	0.165	945879	keystroke_e	e	n/a
473.1805	0.104	946361	keystroke_r	r	n/a
473.5405	0.134	947081	keystroke_m	m	n/a
473.7495	0.105	947499	keystroke_Key.space	Key.space	n/a
474.0495	0.135	948099	keystroke_s	s	n/a
474.2745	0.1205	948549	keystroke_u	u	n/a
474.529	0.105	949058	keystroke_c	c	n/a
474.7395	0.0755	949479	keystroke_c	c	n/a
474.978	0.0685	949956	keystroke_e	e	n/a
475.1915	0.091	950383	keystroke_s	s	n/a
475.4025	0.1345	950805	keystroke_s	s	n/a
475.627	0.1955	951254	keystroke_f	f	n/a
475.8525	0.1345	951705	keystroke_u	u	n/a
476.197	0.18	952394	keystroke_l	l	n/a
478.089	0.075	956178	keystroke_Key.left	Key.left	n/a
478.2995	0.0595	956599	keystroke_Key.left	Key.left	n/a
478.4645	0.06	956929	keystroke_Key.left	Key.left	n/a
478.629	0.06	957258	keystroke_Key.left	Key.left	n/a
478.794	0.075	957588	keystroke_Key.left	Key.left	n/a
478.959	0.075	957918	keystroke_Key.left	Key.left	n/a
479.124	0.075	958248	keystroke_Key.left	Key.left	n/a
479.2735	0.059	958547	keystroke_Key.left	Key.left	n/a
479.4435	0.045	958887	keystroke_Key.left	Key.left	n/a
479.579	0.075	959158	keystroke_Key.left	Key.left	n/a
479.7695	0.045	959539	keystroke_Key.left	Key.left	n/a
479.8895	0.075	959779	keystroke_Key.left	Key.left	n/a
480.055	0.09	960110	keystroke_Key.left	Key.left	n/a
480.22	0.06	960440	keystroke_Key.left	Key.left	n/a
480.37	0.06	960740	keystroke_Key.left	Key.left	n/a
480.715	0.09	961430	keystroke_Key.left	Key.left	n/a
480.97	0.0305	961940	keystroke_Key.left	Key.left	n/a
481.8855	0.105	963771	keystroke_t	t	n/a
485.9275	0.001	971855	keystroke_Key.left	Key.left	n/a
486.0305	0.06	972061	keystroke_Key.left	Key.left	n/a
486.211	0.045	972422	keystroke_Key.left	Key.left	n/a
486.45	0.075	972900	keystroke_Key.left	Key.left	n/a
486.6005	0.09	973201	keystroke_Key.left	Key.left	n/a
486.7355	0.0755	973471	keystroke_Key.left	Key.left	n/a
486.9005	0.06	973801	keystroke_Key.left	Key.left	n/a
487.0505	0.0755	974101	keystroke_Key.left	Key.left	n/a
487.231	0.1955	974462	keystroke_Key.left	Key.left	n/a
487.5455	0.1205	975091	keystroke_Key.left	Key.left	n/a
487.996	0.06	975992	keystroke_Key.left	Key.left	n/a
488.1615	0.06	976323	keystroke_Key.left	Key.left	n/a
488.3415	0.0905	976683	keystroke_Key.left	Key.left	n/a
488.521	0.06	977042	keystroke_Key.left	Key.left	n/a
488.9265	0.1645	977853	keystroke_Key.left	Key.left	n/a
489.721	0.1055	979442	keystroke_Key.enter	Key.enter	n/a
489.83	6.658	979660	prompt	n/a	busy chest yang guild\n
490.636	0.12	981272	keystroke_b	b	n/a
490.876	0.135	981752	keystroke_u	u	n/a
491.056	0.1195	982112	keystroke_s	s	n/a
491.2355	0.12	982471	keystroke_y	y	n/a
491.4155	0.1655	982831	keystroke_Key.space	Key.space	n/a
492.2245	0.075	984449	keystroke_c	c	n/a
492.3145	0.1495	984629	keystroke_h	h	n/a
492.5385	0.119	985077	keystroke_e	e	n/a
492.7845	0.1205	985569	keystroke_s	s	n/a
493.1	0.1355	986200	keystroke_t	t	n/a
493.2805	0.135	986561	keystroke_Key.space	Key.space	n/a
493.566	0.105	987132	keystroke_y	y	n/a
493.701	0.2245	987402	keystroke_a	a	n/a
493.9555	0.12	987911	keystroke_n	n	n/a
494.1805	0.15	988361	keystroke_g	g	n/a
494.3605	0.1645	988721	keystroke_Key.space	Key.space	n/a
494.6605	0.135	989321	keystroke_g	g	n/a
495.0205	0.131	990041	keystroke_u	u	n/a
495.301	0.15	990602	keystroke_i	i	n/a
495.7065	0.12	991413	keystroke_l	l	n/a
495.9165	0.135	991833	keystroke_d	d	n/a
496.3815	0.1055	992763	keystroke_Key.enter	Key.enter	n/a
496.491	11.639	992982	prompt	n/a	generate discusses formal artists\n
497.1465	0.075	994293	keystroke_g	g	n/a
497.356	0.09	994712	keystroke_r	r	n/a
497.536	0.18	995072	keystroke_e	e	n/a
497.731	0.1355	995462	keystroke_n	n	n/a
497.8215	0.15	995643	keystroke_e	e	n/a
498.4965	0.12	996993	keystroke_r	r	n/a
498.7965	0.15	997593	keystroke_a	a	n/a
499.3815	0.09	998763	keystroke_Key.backspace	Key.backspace	n/a
499.6215	0.0905	999243	keystroke_Key.backspace	Key.backspace	n/a
499.8615	0.09	999723	keystroke_Key.backspace	Key.backspace	n/a
500.0865	0.09	1000173	keystroke_Key.backspace	Key.backspace	n/a
500.386	0.015	1000772	keystroke_Key.backspace	Key.backspace	n/a
500.461	0.105	1000922	keystroke_Key.backspace	Key.backspace	n/a
500.851	0.15	1001702	keystroke_e	e	n/a
501.121	0.1655	1002242	keystroke_n	n	n/a
501.3015	0.135	1002603	keystroke_e	e	n/a
501.5265	0.135	1003053	keystroke_r	r	n/a
501.827	0.1345	1003654	keystroke_a	a	n/a
502.0815	0.1205	1004163	keystroke_t	t	n/a
502.307	0.1355	1004614	keystroke_e	e	n/a
502.4725	0.1195	1004945	keystroke_Key.space	Key.space	n/a
502.712	0.1355	1005424	keystroke_d	d	n/a
502.9075	0.1195	1005815	keystroke_i	i	n/a
503.042	0.105	1006084	keystroke_s	s	n/a
503.387	0.195	1006774	keystroke_c	c	n/a
503.567	0.15	1007134	keystroke_u	u	n/a
503.777	0.0905	1007554	keystroke_s	s	n/a
503.9425	0.09	1007885	keystroke_s	s	n/a
504.167	0.12	1008334	keystroke_e	e	n/a
504.437	0.0905	1008874	keystroke_s	s	n/a
504.587	0.1655	1009174	keystroke_Key.space	Key.space	n/a
504.8275	0.1955	1009655	keystroke_f	f	n/a
505.098	0.1195	1010196	keystroke_o	o	n/a
505.3675	0.1355	1010735	keystroke_r	r	n/a
505.563	0.1945	1011126	keystroke_m	m	n/a
505.7725	0.1955	1011545	keystroke_a	a	n/a
505.938	0.165	1011876	keystroke_l	l	n/a
506.088	0.1345	1012176	keystroke_Key.space	Key.space	n/a
506.2825	0.135	1012565	keystroke_a	a	n/a
506.568	0.06	1013136	keystroke_r	r	n/a
506.7625	0.1205	1013525	keystroke_t	t	n/a
507.2125	0.0455	1014425	keystroke_i	i	n/a
507.303	0.015	1014606	keystroke_s	s	n/a
507.453	0.1055	1014906	keystroke_t	t	n/a
507.7235	0.1045	1015447	keystroke_s	s	n/a
508.0085	0.12	1016017	keystroke_Key.enter	Key.enter	n/a
508.135	10.8255	1016270	prompt	n/a	containing nutten fell mason\n
508.7435	0.1945	1017487	keystroke_c	c	n/a
508.9075	0.1505	1017815	keystroke_o	o	n/a
509.059	0.1795	1018118	keystroke_n	n	n/a
509.2535	0.089	1018507	keystroke_t	t	n/a
509.508	0.1505	1019016	keystroke_a	a	n/a
509.6735	0.1645	1019347	keystroke_i	i	n/a
509.898	0.15	1019796	keystroke_n	n	n/a
510.558	0.21	1021116	keystroke_i	i	n/a
510.9175	0.1805	1021835	keystroke_n	n	n/a
511.1135	0.15	1022227	keystroke_g	g	n/a
511.2785	0.1645	1022557	keystroke_Key.space	Key.space	n/a
511.7285	0.12	1023457	keystroke_n	n	n/a
511.998	0.1205	1023996	keystroke_u	u	n/a
512.2235	0.075	1024447	keystroke_t	t	n/a
512.4035	0.09	1024807	keystroke_t	t	n/a
512.6285	0.18	1025257	keystroke_e	e	n/a
512.8235	0.1505	1025647	keystroke_n	n	n/a
513.138	0.075	1026276	keystroke_Key.space	Key.space	n/a
513.618	0.1205	1027236	keystroke_f	f	n/a
514.0985	0.1345	1028197	keystroke_e	e	n/a
514.338	0.105	1028676	keystroke_l	l	n/a
514.5335	0.1045	1029067	keystroke_l	l	n/a
517.0115	0.028	1034023	keystroke_Key.space	Key.space	n/a
517.2045	0.1795	1034409	keystroke_m	m	n/a
517.339	0.1655	1034678	keystroke_a	a	n/a
517.5945	0.12	1035189	keystroke_s	s	n/a
518.284	0.1805	1036568	keystroke_o	o	n/a
518.4795	0.21	1036959	keystroke_n	n	n/a
518.8395	0.12	1037679	keystroke_Key.enter	Key.enter	n/a
518.963	14.326	1037926	prompt	n/a	albuquerque vulnerability hacker launches\n
519.695	0.2695	1039390	keystroke_a	a	n/a
519.9045	0.15	1039809	keystroke_l	l	n/a
520.1145	0.1355	1040229	keystroke_b	b	n/a
520.295	0.1495	1040590	keystroke_u	u	n/a
521.0145	0.1805	1042029	keystroke_q	q	n/a
521.3895	0.18	1042779	keystroke_u	u	n/a
521.705	0.1495	1043410	keystroke_e	e	n/a
521.9145	0.12	1043829	keystroke_r	r	n/a
522.275	0.15	1044550	keystroke_q	q	n/a
522.5305	0.18	1045061	keystroke_u	u	n/a
522.7255	0.1505	1045451	keystroke_e	e	n/a
523.0255	0.135	1046051	keystroke_Key.space	Key.space	n/a
523.356	0.1485	1046712	keystroke_v	v	n/a
523.656	0.1495	1047312	keystroke_u	u	n/a
526.2075	0.1185	1052415	keystroke_l	l	n/a
526.446	0.15	1052892	keystroke_n	n	n/a
526.611	0.12	1053222	keystroke_e	e	n/a
526.866	0.105	1053732	keystroke_r	r	n/a
527.121	0.105	1054242	keystroke_a	a	n/a
527.346	0.12	1054692	keystroke_b	b	n/a
527.5415	0.12	1055083	keystroke_i	i	n/a
527.766	0.165	1055532	keystroke_l	l	n/a
527.976	0.1805	1055952	keystroke_i	i	n/a
528.1865	0.1345	1056373	keystroke_t	t	n/a
528.4115	0.15	1056823	keystroke_y	y	n/a
528.5915	0.1345	1057183	keystroke_Key.space	Key.space	n/a
528.831	0.165	1057662	keystroke_h	h	n/a
528.982	0.164	1057964	keystroke_a	a	n/a
529.3115	0.195	1058623	keystroke_c	c	n/a
529.5065	0.165	1059013	keystroke_k	k	n/a
529.7315	0.165	1059463	keystroke_e	e	n/a
529.9565	0.135	1059913	keystroke_r	r	n/a
530.1065	0.165	1060213	keystroke_Key.space	Key.space	n/a
530.4065	0.21	1060813	keystroke_l	l	n/a
530.6315	0.1655	1061263	keystroke_a	a	n/a
530.9615	0.1355	1061923	keystroke_u	u	n/a
532.102	0.0605	1064204	keystroke_n	n	n/a
532.1915	0.1805	1064383	keystroke_c	c	n/a
532.357	0.166	1064714	keystroke_h	h	n/a
532.5665	0.091	1065133	keystroke_e	e	n/a
532.822	0.135	1065644	keystroke_s	s	n/a
533.122	0.165	1066244	keystroke_Key.enter	Key.enter	n/a
533.2935	19.5425	1066587	prompt	n/a	homepage simply who mysimon\n
534.0685	0.1635	1068137	keystroke_h	h	n/a
534.262	0.165	1068524	keystroke_o	o	n/a
534.502	0.33	1069004	keystroke_m	m	n/a
534.697	0.105	1069394	keystroke_e	e	n/a
535.342	0.2405	1070684	keystroke_p	p	n/a
535.492	0.1655	1070984	keystroke_a	a	n/a
535.6875	0.1195	1071375	keystroke_g	g	n/a
535.8825	0.165	1071765	keystroke_e	e	n/a
536.0325	0.165	1072065	keystroke_Key.space	Key.space	n/a
536.2875	0.18	1072575	keystroke_s	s	n/a
536.4225	0.15	1072845	keystroke_i	i	n/a
536.708	0.1795	1073416	keystroke_m	m	n/a
537.2625	0.1495	1074525	keystroke_p	p	n/a
537.532	0.225	1075064	keystroke_l	l	n/a
537.952	0.165	1075904	keystroke_y	y	n/a
538.132	0.15	1076264	keystroke_Key.space	Key.space	n/a
538.3725	0.1345	1076745	keystroke_w	w	n/a
538.522	0.1505	1077044	keystroke_h	h	n/a
539.107	0.135	1078214	keystroke_Key.space	Key.space	n/a
539.467	0.135	1078934	keystroke_m	m	n/a
539.812	0.135	1079624	keystroke_y	y	n/a
539.977	0.18	1079954	keystroke_s	s	n/a
540.187	0.1945	1080374	keystroke_i	i	n/a
540.5315	0.135	1081063	keystroke_m	m	n/a
540.7865	0.1805	1081573	keystroke_o	o	n/a
540.997	0.1345	1081994	keystroke_n	n	n/a
542.6775	0.075	1085355	keystroke_Key.left	Key.left	n/a
542.8875	0.0905	1085775	keystroke_Key.left	Key.left	n/a
543.097	0.06	1086194	keystroke_Key.left	Key.left	n/a
543.277	0.075	1086554	keystroke_Key.left	Key.left	n/a
543.4575	0.075	1086915	keystroke_Key.left	Key.left	n/a
543.637	0.0755	1087274	keystroke_Key.left	Key.left	n/a
543.7875	0.09	1087575	keystroke_Key.left	Key.left	n/a
543.9675	0.0905	1087935	keystroke_Key.left	Key.left	n/a
545.258	0.075	1090516	keystroke_0	0	n/a
546.8635	0.105	1093727	keystroke_Key.backspace	Key.backspace	n/a
547.3585	0.0905	1094717	keystroke_o	o	n/a
550.0765	0.013	1100153	keystroke_Key.right	Key.right	n/a
550.2245	0.06	1100449	keystroke_Key.right	Key.right	n/a
550.3895	0.045	1100779	keystroke_Key.right	Key.right	n/a
550.5095	0.075	1101019	keystroke_Key.right	Key.right	n/a
550.6445	0.075	1101289	keystroke_Key.right	Key.right	n/a
550.7945	0.075	1101589	keystroke_Key.right	Key.right	n/a
550.9445	0.075	1101889	keystroke_Key.right	Key.right	n/a
551.304	0.105	1102608	keystroke_Key.right	Key.right	n/a
551.994	0.075	1103988	keystroke_Key.right	Key.right	n/a
552.7445	0.09	1105489	keystroke_Key.enter	Key.enter	n/a
552.839	12.036	1105678	prompt	n/a	safe vancouver drew expensive\n
553.8995	0.105	1107799	keystroke_s	s	n/a
554.1395	0.135	1108279	keystroke_a	a	n/a
554.335	0.135	1108670	keystroke_f	f	n/a
554.53	0.135	1109060	keystroke_e	e	n/a
554.68	0.15	1109360	keystroke_Key.space	Key.space	n/a
555.5495	0.284	1111099	keystroke_n	n	n/a
556.306	0.1525	1112612	keystroke_Key.backspace	Key.backspace	n/a
556.4735	0.1795	1112947	keystroke_v	v	n/a
556.699	0.18	1113398	keystroke_a	a	n/a
556.894	0.165	1113788	keystroke_n	n	n/a
557.1785	0.1505	1114357	keystroke_c	c	n/a
557.284	0.195	1114568	keystroke_o	o	n/a
557.5985	0.135	1115197	keystroke_u	u	n/a
558.0035	0.1335	1116007	keystroke_v	v	n/a
558.274	0.1645	1116548	keystroke_e	e	n/a
558.4685	0.134	1116937	keystroke_r	r	n/a
558.6325	0.1805	1117265	keystroke_Key.space	Key.space	n/a
558.828	0.12	1117656	keystroke_d	d	n/a
559.083	0.1345	1118166	keystroke_r	r	n/a
559.2325	0.1505	1118465	keystroke_e	e	n/a
562.175	0.088	1124350	keystroke_w	w	n/a
562.368	0.135	1124736	keystroke_Key.space	Key.space	n/a
562.653	0.135	1125306	keystroke_e	e	n/a
563.0585	0.1645	1126117	keystroke_x	x	n/a
563.238	0.195	1126476	keystroke_p	p	n/a
563.418	0.18	1126836	keystroke_e	e	n/a
563.643	0.15	1127286	keystroke_n	n	n/a
563.823	0.135	1127646	keystroke_s	s	n/a
563.988	0.15	1127976	keystroke_i	i	n/a
564.153	0.15	1128306	keystroke_v	v	n/a
564.408	0.1355	1128816	keystroke_e	e	n/a
564.7685	0.105	1129537	keystroke_Key.enter	Key.enter	n/a
564.8775	10.0335	1129755	prompt	n/a	followed post half destruction\n
565.8485	0.1795	1131697	keystroke_f	f	n/a
566.073	0.1205	1132146	keystroke_o	o	n/a
566.3735	0.0745	1132747	keystroke_l	l	n/a
566.568	0.0755	1133136	keystroke_l	l	n/a
566.7935	0.165	1133587	keystroke_o	o	n/a
567.3785	0.135	1134757	keystroke_w	w	n/a
567.6035	0.135	1135207	keystroke_e	e	n/a
567.874	0.2095	1135748	keystroke_d	d	n/a
568.2185	0.1655	1136437	keystroke_Key.space	Key.space	n/a
568.579	0.15	1137158	keystroke_p	p	n/a
568.819	0.165	1137638	keystroke_o	o	n/a
568.999	0.1355	1137998	keystroke_s	s	n/a
569.2845	0.12	1138569	keystroke_t	t	n/a
569.4645	0.15	1138929	keystroke_Key.space	Key.space	n/a
569.794	0.18	1139588	keystroke_h	h	n/a
570.394	0.39	1140788	keystroke_a	a	n/a
571.084	0.15	1142168	keystroke_l	l	n/a
571.354	0.1505	1142708	keystroke_f	f	n/a
571.9545	0.15	1143909	keystroke_Key.space	Key.space	n/a
572.284	0.0905	1144568	keystroke_d	d	n/a
572.5095	0.06	1145019	keystroke_e	e	n/a
572.7045	0.12	1145409	keystroke_s	s	n/a
572.9445	0.105	1145889	keystroke_t	t	n/a
573.1255	0.135	1146251	keystroke_r	r	n/a
573.305	0.165	1146610	keystroke_u	u	n/a
573.545	0.1505	1147090	keystroke_c	c	n/a
573.86	0.12	1147720	keystroke_t	t	n/a
574.01	0.1955	1148020	keystroke_i	i	n/a
574.1755	0.2995	1148351	keystroke_o	o	n/a
574.4	0.165	1148800	keystroke_n	n	n/a
574.82	0.09	1149640	keystroke_Key.enter	Key.enter	n/a
574.9145	6.851	1149829	prompt	n/a	death bridge velvet pads\n
575.5245	0.075	1151049	keystroke_d	d	n/a
575.7345	0.075	1151469	keystroke_e	e	n/a
575.9745	0.135	1151949	keystroke_a	a	n/a
576.2745	0.12	1152549	keystroke_t	t	n/a
576.5595	0.15	1153119	keystroke_h	h	n/a
576.7395	0.1655	1153479	keystroke_Key.space	Key.space	n/a
576.92	0.1045	1153840	keystroke_b	b	n/a
577.1895	0.12	1154379	keystroke_r	r	n/a
577.415	0.119	1154830	keystroke_i	i	n/a
577.564	0.1655	1155128	keystroke_d	d	n/a
577.8045	0.105	1155609	keystroke_g	g	n/a
577.9845	0.165	1155969	keystroke_e	e	n/a
578.1935	0.166	1156387	keystroke_Key.space	Key.space	n/a
578.4345	0.1205	1156869	keystroke_v	v	n/a
578.6595	0.15	1157319	keystroke_e	e	n/a
578.8845	0.1505	1157769	keystroke_l	l	n/a
579.065	0.1345	1158130	keystroke_v	v	n/a
579.2745	0.135	1158549	keystroke_e	e	n/a
579.53	0.1195	1159060	keystroke_t	t	n/a
579.6935	0.18	1159387	keystroke_Key.space	Key.space	n/a
579.935	0.2245	1159870	keystroke_p	p	n/a
580.1	0.165	1160200	keystroke_a	a	n/a
581.119	0.135	1162238	keystroke_d	d	n/a
581.344	0.135	1162688	keystroke_s	s	n/a
581.614	0.15	1163228	keystroke_Key.enter	Key.enter	n/a
581.7705	9.9255	1163541	prompt	n/a	force floor terminology kind\n
582.529	0.045	1165058	keystroke_f	f	n/a
582.589	0.09	1165178	keystroke_o	o	n/a
582.664	0.105	1165328	keystroke_r	r	n/a
582.9495	0.1195	1165899	keystroke_c	c	n/a
583.2335	0.135	1166467	keystroke_e	e	n/a
583.3535	0.18	1166707	keystroke_Key.space	Key.space	n/a
583.5495	0.1335	1167099	keystroke_f	f	n/a
583.743	0.1355	1167486	keystroke_l	l	n/a
583.9995	0.089	1167999	keystroke_o	o	n/a
584.329	0.1055	1168658	keystroke_o	o	n/a
584.569	0.135	1169138	keystroke_r	r	n/a
584.719	0.1645	1169438	keystroke_Key.space	Key.space	n/a
584.9735	0.105	1169947	keystroke_t	t	n/a
585.439	0.1645	1170878	keystroke_e	e	n/a
585.6785	0.135	1171357	keystroke_r	r	n/a
586.0545	0.1495	1172109	keystroke_m	m	n/a
586.474	0.1655	1172948	keystroke_i	i	n/a
586.7445	0.135	1173489	keystroke_n	n	n/a
586.9845	0.15	1173969	keystroke_o	o	n/a
588.2295	0.135	1176459	keystroke_l	l	n/a
588.5145	0.1495	1177029	keystroke_o	o	n/a
589.6995	0.12	1179399	keystroke_g	g	n/a
589.8795	0.135	1179759	keystroke_y	y	n/a
590.0895	0.15	1180179	keystroke_Key.space	Key.space	n/a
590.4495	0.1345	1180899	keystroke_k	k	n/a
590.719	0.1055	1181438	keystroke_i	i	n/a
590.8695	0.21	1181739	keystroke_n	n	n/a
591.0945	0.165	1182189	keystroke_d	d	n/a
591.575	0.12	1183150	keystroke_Key.enter	Key.enter	n/a
591.699	9.7695	1183398	prompt	n/a	ecuador stability tells shift\n
592.355	0.105	1184710	keystroke_e	e	n/a
592.685	0.1955	1185370	keystroke_c	c	n/a
593.45	0.165	1186900	keystroke_u	u	n/a
593.6745	0.18	1187349	keystroke_a	a	n/a
593.975	0.195	1187950	keystroke_d	d	n/a
594.185	0.15	1188370	keystroke_o	o	n/a
594.41	0.135	1188820	keystroke_r	r	n/a
594.575	0.165	1189150	keystroke_Key.space	Key.space	n/a
594.86	0.135	1189720	keystroke_s	s	n/a
595.19	0.15	1190380	keystroke_t	t	n/a
596.492	0.114	1192984	keystroke_a	a	n/a
596.712	0.1355	1193424	keystroke_b	b	n/a
596.8775	0.135	1193755	keystroke_i	i	n/a
597.117	0.1505	1194234	keystroke_l	l	n/a
597.3275	0.165	1194655	keystroke_i	i	n/a
597.5075	0.18	1195015	keystroke_t	t	n/a
597.7625	0.15	1195525	keystroke_y	y	n/a
597.9275	0.12	1195855	keystroke_Key.space	Key.space	n/a
598.138	0.12	1196276	keystroke_t	t	n/a
598.363	0.21	1196726	keystroke_e	e	n/a
599.143	0.075	1198286	keystroke_l	l	n/a
599.368	0.06	1198736	keystroke_l	l	n/a
599.548	0.15	1199096	keystroke_s	s	n/a
599.713	0.105	1199426	keystroke_Key.space	Key.space	n/a
599.9675	0.1505	1199935	keystroke_s	s	n/a
600.148	0.165	1200296	keystroke_h	h	n/a
600.388	0.1495	1200776	keystroke_i	i	n/a
600.6725	0.15	1201345	keystroke_f	f	n/a
601.017	0.105	1202034	keystroke_t	t	n/a
601.362	0.105	1202724	keystroke_Key.enter	Key.enter	n/a
601.471	12.689	1202942	prompt	n/a	polish fitted assault dominican\n
602.1415	0.1505	1204283	keystroke_p	p	n/a
602.457	0.1345	1204914	keystroke_o	o	n/a
603.326	0.135	1206652	keystroke_i	i	n/a
603.521	0.195	1207042	keystroke_s	s	n/a
603.8505	0.1555	1207701	keystroke_h	h	n/a
604.2865	0.0725	1208573	keystroke_Key.backspace	Key.backspace	n/a
604.509	0.1045	1209018	keystroke_Key.backspace	Key.backspace	n/a
604.7495	0.075	1209499	keystroke_Key.backspace	Key.backspace	n/a
605.079	0.1505	1210158	keystroke_l	l	n/a
605.364	0.1375	1210728	keystroke_i	i	n/a
605.5465	0.1495	1211093	keystroke_s	s	n/a
605.681	0.1815	1211362	keystroke_h	h	n/a
605.8775	0.1645	1211755	keystroke_Key.space	Key.space	n/a
606.072	0.1495	1212144	keystroke_f	f	n/a
606.2365	0.136	1212473	keystroke_i	i	n/a
606.447	0.06	1212894	keystroke_t	t	n/a
606.627	0.12	1213254	keystroke_t	t	n/a
606.8525	0.1345	1213705	keystroke_e	e	n/a
607.1225	0.15	1214245	keystroke_d	d	n/a
607.287	0.15	1214574	keystroke_Key.space	Key.space	n/a
607.6475	0.1505	1215295	keystroke_a	a	n/a
607.9325	0.105	1215865	keystroke_s	s	n/a
608.1575	0.1505	1216315	keystroke_s	s	n/a
608.623	0.135	1217246	keystroke_u	u	n/a
608.818	0.165	1217636	keystroke_a	a	n/a
610.033	0.0905	1220066	keystroke_Key.backspace	Key.backspace	n/a
610.2285	0.1645	1220457	keystroke_Key.backspace	Key.backspace	n/a
610.438	0.1505	1220876	keystroke_a	a	n/a
610.6035	0.135	1221207	keystroke_u	u	n/a
611.0085	0.165	1222017	keystroke_l	l	n/a
611.2785	0.1355	1222557	keystroke_t	t	n/a
611.414	0.1945	1222828	keystroke_Key.space	Key.space	n/a
611.638	0.1505	1223276	keystroke_d	d	n/a
611.8035	0.135	1223607	keystroke_o	o	n/a
612.073	0.12	1224146	keystroke_m	m	n/a
612.358	0.1955	1224716	keystroke_i	i	n/a
612.7935	0.135	1225587	keystroke_n	n	n/a
613.034	0.1345	1226068	keystroke_i	i	n/a
613.2735	0.135	1226547	keystroke_c	c	n/a
613.4835	0.195	1226967	keystroke_a	a	n/a
613.619	0.1495	1227238	keystroke_n	n	n/a
614.0235	0.135	1228047	keystroke_Key.enter	Key.enter	n/a
614.164	9.282	1228328	prompt	n/a	basename eyed cases eagle\n
614.817	0.1195	1229634	keystroke_b	b	n/a
615.0265	0.1615	1230053	keystroke_a	a	n/a
615.278	0.12	1230556	keystroke_s	s	n/a
615.5475	0.1505	1231095	keystroke_e	e	n/a
615.803	0.105	1231606	keystroke_n	n	n/a
616.043	0.1795	1232086	keystroke_a	a	n/a
616.2375	0.15	1232475	keystroke_m	m	n/a
616.4175	0.135	1232835	keystroke_e	e	n/a
616.5975	0.075	1233195	keystroke_Key.space	Key.space	n/a
616.808	0.1195	1233616	keystroke_e	e	n/a
617.1225	0.1345	1234245	keystroke_y	y	n/a
617.3475	0.105	1234695	keystroke_e	e	n/a
618.187	0.12	1236374	keystroke_e	e	n/a
619.117	0.1305	1238234	keystroke_Key.backspace	Key.backspace	n/a
619.2995	0.1605	1238599	keystroke_d	d	n/a
619.476	0.1145	1238952	keystroke_Key.space	Key.space	n/a
619.893	0.15	1239786	keystroke_c	c	n/a
620.089	0.1345	1240178	keystroke_a	a	n/a
620.323	0.1045	1240646	keystroke_s	s	n/a
620.577	0.225	1241154	keystroke_e	e	n/a
621.4205	0.135	1242841	keystroke_s	s	n/a
621.691	0.12	1243382	keystroke_Key.space	Key.space	n/a
622.0355	0.1505	1244071	keystroke_e	e	n/a
622.3505	0.18	1244701	keystroke_a	a	n/a
622.575	0.135	1245150	keystroke_g	g	n/a
622.8005	0.179	1245601	keystroke_l	l	n/a
622.9945	0.105	1245989	keystroke_e	e	n/a
623.325	0.1195	1246650	keystroke_Key.enter	Key.enter	n/a
623.449	8.4805	1246898	prompt	n/a	fallen between korea accidents\n
624.0215	0.1195	1248043	keystroke_f	f	n/a
624.261	0.18	1248522	keystroke_a	a	n/a
624.4265	0.0925	1248853	keystroke_l	l	n/a
624.624	0.1495	1249248	keystroke_l	l	n/a
624.7885	0.2065	1249577	keystroke_e	e	n/a
624.954	0.072	1249908	keystroke_n	n	n/a
625.0345	0.161	1250069	keystroke_Key.space	Key.space	n/a
625.3	0.136	1250600	keystroke_b	b	n/a
625.597	0.135	1251194	keystroke_e	e	n/a
626.422	0.105	1252844	keystroke_t	t	n/a
626.737	0.09	1253474	keystroke_w	w	n/a
626.9315	0.091	1253863	keystroke_e	e	n/a
627.1125	0.135	1254225	keystroke_e	e	n/a
627.2925	0.1505	1254585	keystroke_n	n	n/a
627.488	0.18	1254976	keystroke_Key.space	Key.space	n/a
627.818	0.15	1255636	keystroke_k	k	n/a
628.1475	0.135	1256295	keystroke_o	o	n/a
628.4025	0.105	1256805	keystroke_r	r	n/a
628.6125	0.21	1257225	keystroke_e	e	n/a
629.003	0.1945	1258006	keystroke_a	a	n/a
629.1825	0.15	1258365	keystroke_Key.space	Key.space	n/a
629.4075	0.15	1258815	keystroke_a	a	n/a
629.7675	0.165	1259535	keystroke_c	c	n/a
630.2475	0.195	1260495	keystroke_c	c	n/a
630.4575	0.1655	1260915	keystroke_i	i	n/a
630.653	0.1195	1261306	keystroke_d	d	n/a
630.8925	0.15	1261785	keystroke_e	e	n/a
631.0125	0.165	1262025	keystroke_n	n	n/a
631.207	0.0905	1262414	keystroke_t	t	n/a
631.5075	0.135	1263015	keystroke_s	s	n/a
631.8225	0.105	1263645	keystroke_Key.enter	Key.enter	n/a
631.9325	10.477	1263865	prompt	n/a	compensation terrorist laptops annual\n
632.573	0.299	1265146	keystroke_c	c	n/a
632.7675	0.1495	1265535	keystroke_o	o	n/a
633.037	0.18	1266074	keystroke_m	m	n/a
633.277	0.19	1266554	keystroke_p	p	n/a
633.497	0.165	1266994	keystroke_e	e	n/a
633.932	0.135	1267864	keystroke_n	n	n/a
634.3205	0.1215	1268641	keystroke_s	s	n/a
634.801	0.12	1269602	keystroke_a	a	n/a
635.0865	0.12	1270173	keystroke_t	t	n/a
635.2215	0.165	1270443	keystroke_i	i	n/a
635.3415	0.195	1270683	keystroke_o	o	n/a
635.491	0.1805	1270982	keystroke_n	n	n/a
635.6865	0.1805	1271373	keystroke_Key.space	Key.space	n/a
635.942	0.1495	1271884	keystroke_t	t	n/a
636.212	0.1345	1272424	keystroke_e	e	n/a
636.4515	0.076	1272903	keystroke_r	r	n/a
636.6015	0.12	1273203	keystroke_r	r	n/a
636.9615	0.1055	1273923	keystroke_o	o	n/a
637.143	0.1185	1274286	keystroke_r	r	n/a
637.3665	0.12	1274733	keystroke_i	i	n/a
637.5615	0.15	1275123	keystroke_s	s	n/a
637.922	0.15	1275844	keystroke_t	t	n/a
638.117	0.195	1276234	keystroke_Key.space	Key.space	n/a
638.387	0.165	1276774	keystroke_l	l	n/a
638.537	0.2705	1277074	keystroke_a	a	n/a
638.837	0.18	1277674	keystroke_p	p	n/a
639.107	0.15	1278214	keystroke_t	t	n/a
639.317	0.12	1278634	keystroke_o	o	n/a
639.5725	0.2245	1279145	keystroke_p	p	n/a
639.842	0.1505	1279684	keystroke_s	s	n/a
640.0225	0.15	1280045	keystroke_Key.space	Key.space	n/a
640.2475	0.165	1280495	keystroke_a	a	n/a
640.4275	0.12	1280855	keystroke_n	n	n/a
640.6075	0.1055	1281215	keystroke_n	n	n/a
640.7875	0.3	1281575	keystroke_a	a	n/a
641.0885	0.1345	1282177	keystroke_u	u	n/a
641.658	0.105	1283316	keystroke_l	l	n/a
642.2575	0.1505	1284515	keystroke_Key.enter	Key.enter	n/a
642.412	8.8635	1284824	prompt	n/a	madison malpractice tries cast\n
643.0975	0.1505	1286195	keystroke_m	m	n/a
643.263	0.2395	1286526	keystroke_a	a	n/a
643.458	0.18	1286916	keystroke_d	d	n/a
643.653	0.135	1287306	keystroke_i	i	n/a
643.818	0.15	1287636	keystroke_s	s	n/a
643.938	0.24	1287876	keystroke_o	o	n/a
644.103	0.18	1288206	keystroke_n	n	n/a
644.298	0.195	1288596	keystroke_Key.space	Key.space	n/a
644.6435	0.165	1289287	keystroke_m	m	n/a
645.303	0.1805	1290606	keystroke_l	l	n/a
645.7535	0.21	1291507	keystroke_p	p	n/a
646.0835	0.12	1292167	keystroke_r	r	n/a
646.4285	0.15	1292857	keystroke_a	a	n/a
647.2385	0.1495	1294477	keystroke_c	c	n/a
647.6285	0.1495	1295257	keystroke_t	t	n/a
647.793	0.135	1295586	keystroke_i	i	n/a
648.063	0.1205	1296126	keystroke_c	c	n/a
648.3335	0.105	1296667	keystroke_e	e	n/a
648.5135	0.15	1297027	keystroke_Key.space	Key.space	n/a
648.7235	0.1045	1297447	keystroke_t	t	n/a
648.9335	0.12	1297867	keystroke_r	r	n/a
649.1585	0.135	1298317	keystroke_i	i	n/a
649.3235	0.135	1298647	keystroke_e	e	n/a
649.6535	0.1505	1299307	keystroke_s	s	n/a
649.8635	0.12	1299727	keystroke_Key.space	Key.space	n/a
650.043	0.165	1300086	keystroke_c	c	n/a
650.268	0.1355	1300536	keystroke_a	a	n/a
650.5235	0.135	1301047	keystroke_s	s	n/a
650.8235	0.135	1301647	keystroke_t	t	n/a
651.1385	0.1355	1302277	keystroke_Key.enter	Key.enter	n/a
651.28	13.4595	1302560	prompt	n/a	prizes reductions advertisement commands\n
652.1295	0.194	1304259	keystroke_p	p	n/a
652.2785	0.12	1304557	keystroke_r	r	n/a
652.519	0.1645	1305038	keystroke_i	i	n/a
653.275	0.138	1306550	keystroke_z	z	n/a
653.6845	0.12	1307369	keystroke_e	e	n/a
654.1495	0.1185	1308299	keystroke_s	s	n/a
654.6885	0.15	1309377	keystroke_Key.space	Key.space	n/a
654.9895	0.1345	1309979	keystroke_r	r	n/a
655.139	0.15	1310278	keystroke_e	e	n/a
655.439	0.135	1310878	keystroke_d	d	n/a
655.6945	0.149	1311389	keystroke_u	u	n/a
655.7995	0.149	1311599	keystroke_c	c	n/a
656.1	0.1335	1312200	keystroke_t	t	n/a
656.2485	0.1805	1312497	keystroke_i	i	n/a
656.444	0.2255	1312888	keystroke_o	o	n/a
656.6545	0.18	1313309	keystroke_n	n	n/a
656.8945	0.12	1313789	keystroke_s	s	n/a
657.165	0.1495	1314330	keystroke_Key.space	Key.space	n/a
657.5695	0.18	1315139	keystroke_a	a	n/a
657.7795	0.15	1315559	keystroke_d	d	n/a
658.0645	0.1495	1316129	keystroke_v	v	n/a
658.334	0.1505	1316668	keystroke_e	e	n/a
658.4995	0.1345	1316999	keystroke_r	r	n/a
658.754	0.1055	1317508	keystroke_t	t	n/a
658.9495	0.15	1317899	keystroke_i	i	n/a
659.2345	0.1355	1318469	keystroke_s	s	n/a
660.135	0.12	1320270	keystroke_e	e	n/a
660.3	0.135	1320600	keystroke_m	m	n/a
660.645	0.15	1321290	keystroke_e	e	n/a
660.81	0.165	1321620	keystroke_n	n	n/a
661.005	0.135	1322010	keystroke_t	t	n/a
661.83	0.1805	1323660	keystroke_Key.space	Key.space	n/a
662.1145	0.1805	1324229	keystroke_c	c	n/a
662.265	0.135	1324530	keystroke_o	o	n/a
662.445	0.09	1324890	keystroke_m	m	n/a
662.61	0.1345	1325220	keystroke_m	m	n/a
662.7595	0.21	1325519	keystroke_a	a	n/a
662.9245	0.135	1325849	keystroke_n	n	n/a
663.1045	0.135	1326209	keystroke_d	d	n/a
664.153	0.12	1328306	keystroke_s	s	n/a
664.6035	0.1345	1329207	keystroke_Key.enter	Key.enter	n/a
664.7425	18.3455	1329485	prompt	n/a	natural preserve revised additionally\n
665.443	0.1495	1330886	keystroke_n	n	n/a
665.5475	0.135	1331095	keystroke_a	a	n/a
665.832	0.136	1331664	keystroke_t	t	n/a
666.058	0.135	1332116	keystroke_u	u	n/a
666.253	0.135	1332506	keystroke_r	r	n/a
666.584	0.21	1333168	keystroke_a	a	n/a
666.779	0.1645	1333558	keystroke_l	l	n/a
667.004	0.135	1334008	keystroke_Key.space	Key.space	n/a
667.289	0.2095	1334578	keystroke_p	p	n/a
667.5285	0.135	1335057	keystroke_r	r	n/a
667.7235	0.135	1335447	keystroke_e	e	n/a
668.024	0.09	1336048	keystroke_s	s	n/a
668.219	0.1345	1336438	keystroke_e	e	n/a
668.4285	0.12	1336857	keystroke_r	r	n/a
668.7585	0.1355	1337517	keystroke_v	v	n/a
669.0435	0.15	1338087	keystroke_e	e	n/a
669.239	0.18	1338478	keystroke_Key.space	Key.space	n/a
669.5385	0.1205	1339077	keystroke_r	r	n/a
669.779	0.15	1339558	keystroke_e	e	n/a
670.6045	0.15	1341209	keystroke_i	i	n/a
671.01	0.1195	1342020	keystroke_s	s	n/a
671.37	0.075	1342740	keystroke_e	e	n/a
671.6095	0.1505	1343219	keystroke_d	d	n/a
671.805	0.18	1343610	keystroke_Key.space	Key.space	n/a
671.97	0.12	1343940	keystroke_a	a	n/a
672.21	0.09	1344420	keystroke_d	d	n/a
672.39	0.12	1344780	keystroke_d	d	n/a
672.66	0.135	1345320	keystroke_i	i	n/a
672.81	0.135	1345620	keystroke_t	t	n/a
672.975	0.1805	1345950	keystroke_i	i	n/a
673.215	0.3	1346430	keystroke_o	o	n/a
673.47	0.18	1346940	keystroke_n	n	n/a
673.74	0.18	1347480	keystroke_a	a	n/a
674.0105	0.105	1348021	keystroke_l	l	n/a
674.2055	0.1195	1348411	keystroke_l	l	n/a
674.5505	0.135	1349101	keystroke_y	y	n/a
677.178	0	1354356	keystroke_Key.left	Key.left	n/a
677.28	0.075	1354560	keystroke_Key.left	Key.left	n/a
677.4455	0.045	1354891	keystroke_Key.left	Key.left	n/a
677.595	0.03	1355190	keystroke_Key.left	Key.left	n/a
677.715	0.045	1355430	keystroke_Key.left	Key.left	n/a
677.8505	0.045	1355701	keystroke_Key.left	Key.left	n/a
678.0005	0.045	1356001	keystroke_Key.left	Key.left	n/a
678.1205	0.06	1356241	keystroke_Key.left	Key.left	n/a
678.2405	0.0605	1356481	keystroke_Key.left	Key.left	n/a
678.361	0.06	1356722	keystroke_Key.left	Key.left	n/a
678.481	0.0605	1356962	keystroke_Key.left	Key.left	n/a
678.6	0.09	1357200	keystroke_Key.left	Key.left	n/a
678.7505	0.06	1357501	keystroke_Key.left	Key.left	n/a
680.6415	0.134	1361283	keystroke_Key.left	Key.left	n/a
680.896	0.135	1361792	keystroke_Key.left	Key.left	n/a
681.4505	0.105	1362901	keystroke_Key.left	Key.left	n/a
681.721	0.12	1363442	keystroke_Key.left	Key.left	n/a
681.976	0.135	1363952	keystroke_v	v	n/a
682.951	0.135	1365902	keystroke_Key.enter	Key.enter	n/a
683.091	9.478	1366182	prompt	n/a	appropriations answer freight clean\n
683.776	0.165	1367552	keystroke_a	a	n/a
683.971	0.18	1367942	keystroke_p	p	n/a
684.166	0.165	1368332	keystroke_p	p	n/a
685.081	0.1505	1370162	keystroke_r	r	n/a
685.337	0.075	1370674	keystroke_o	o	n/a
685.5315	0.195	1371063	keystroke_p	p	n/a
685.7115	0.1655	1371423	keystroke_r	r	n/a
685.892	0.1645	1371784	keystroke_i	i	n/a
686.1015	0.135	1372203	keystroke_a	a	n/a
686.3865	0.135	1372773	keystroke_t	t	n/a
686.5065	0.18	1373013	keystroke_i	i	n/a
686.6565	0.21	1373313	keystroke_o	o	n/a
686.8515	0.18	1373703	keystroke_n	n	n/a
687.2715	0.15	1374543	keystroke_s	s	n/a
687.5115	0.165	1375023	keystroke_Key.space	Key.space	n/a
687.722	0.18	1375444	keystroke_a	a	n/a
687.887	0.1345	1375774	keystroke_n	n	n/a
688.112	0.105	1376224	keystroke_s	s	n/a
688.367	0.135	1376734	keystroke_w	w	n/a
688.562	0.195	1377124	keystroke_e	e	n/a
688.772	0.1805	1377544	keystroke_r	r	n/a
688.9825	0.12	1377965	keystroke_Key.space	Key.space	n/a
689.2525	0.135	1378505	keystroke_f	f	n/a
689.5375	0.15	1379075	keystroke_r	r	n/a
689.7475	0.1955	1379495	keystroke_e	e	n/a
690.003	0.119	1380006	keystroke_i	i	n/a
690.182	0.1205	1380364	keystroke_g	g	n/a
690.3175	0.195	1380635	keystroke_h	h	n/a
690.5575	0.135	1381115	keystroke_t	t	n/a
690.7225	0.15	1381445	keystroke_Key.space	Key.space	n/a
691.0075	0.15	1382015	keystroke_c	c	n/a
691.1725	0.165	1382345	keystroke_l	l	n/a
691.5025	0.12	1383005	keystroke_e	e	n/a
691.787	0.166	1383574	keystroke_a	a	n/a
692.087	0.1205	1384174	keystroke_n	n	n/a
692.4625	0.105	1384925	keystroke_Key.enter	Key.enter	n/a
692.574	10.66	1385148	prompt	n/a	related collectibles israel shoes\n
693.1975	0.1345	1386395	keystroke_r	r	n/a
693.3925	0.15	1386785	keystroke_e	e	n/a
693.6325	0.165	1387265	keystroke_l	l	n/a
693.7825	0.1345	1387565	keystroke_a	a	n/a
694.037	0.12	1388074	keystroke_t	t	n/a
694.217	0.1355	1388434	keystroke_e	e	n/a
694.472	0.165	1388944	keystroke_d	d	n/a
694.652	0.1055	1389304	keystroke_Key.space	Key.space	n/a
694.892	0.18	1389784	keystroke_c	c	n/a
695.072	0.075	1390144	keystroke_o	o	n/a
695.342	0.075	1390684	keystroke_l	l	n/a
695.522	0.09	1391044	keystroke_l	l	n/a
695.6425	0.1345	1391285	keystroke_e	e	n/a
695.9565	0.1655	1391913	keystroke_c	c	n/a
696.317	0.045	1392634	keystroke_t	t	n/a
696.407	0.1045	1392814	keystroke_i	i	n/a
696.617	0.135	1393234	keystroke_b	b	n/a
696.753	0.194	1393506	keystroke_l	l	n/a
697.007	0.15	1394014	keystroke_e	e	n/a
697.337	0.12	1394674	keystroke_s	s	n/a
697.532	0.12	1395064	keystroke_Key.space	Key.space	n/a
697.862	0.121	1395724	keystroke_i	i	n/a
697.952	0.165	1395904	keystroke_s	s	n/a
699.287	0.1205	1398574	keystroke_r	r	n/a
699.6175	0.165	1399235	keystroke_a	a	n/a
700.128	0.12	1400256	keystroke_e	e	n/a
700.443	0.15	1400886	keystroke_l	l	n/a
700.668	0.135	1401336	keystroke_Key.space	Key.space	n/a
700.848	0.15	1401696	keystroke_s	s	n/a
701.013	0.12	1402026	keystroke_h	h	n/a
701.163	0.165	1402326	keystroke_o	o	n/a
701.358	0.12	1402716	keystroke_e	e	n/a
701.643	0.1055	1403286	keystroke_s	s	n/a
703.1425	0.09	1406285	keystroke_Key.enter	Key.enter	n/a
703.237	10.468	1406474	prompt	n/a	advised explicit know contacting\n
703.847	0.1205	1407694	keystroke_a	a	n/a
703.9975	0.135	1407995	keystroke_d	d	n/a
704.2225	0.1655	1408445	keystroke_v	v	n/a
704.403	0.15	1408806	keystroke_i	i	n/a
704.523	0.12	1409046	keystroke_s	s	n/a
704.733	0.1055	1409466	keystroke_e	e	n/a
704.9435	0.1495	1409887	keystroke_d	d	n/a
705.063	0.12	1410126	keystroke_Key.space	Key.space	n/a
705.2875	0.105	1410575	keystroke_e	e	n/a
705.6175	0.21	1411235	keystroke_x	x	n/a
705.8125	0.15	1411625	keystroke_p	p	n/a
706.0525	0.18	1412105	keystroke_l	l	n/a
706.2925	0.12	1412585	keystroke_i	i	n/a
706.4725	0.1495	1412945	keystroke_c	c	n/a
706.6825	0.165	1413365	keystroke_i	i	n/a
706.8925	0.1205	1413785	keystroke_t	t	n/a
707.148	0.12	1414296	keystroke_y	y	n/a
708.0935	0.15	1416187	keystroke_Key.backspace	Key.backspace	n/a
708.7235	0.1205	1417447	keystroke_Key.space	Key.space	n/a
709.009	0.195	1418018	keystroke_k	k	n/a
709.234	0.1795	1418468	keystroke_n	n	n/a
709.3985	0.195	1418797	keystroke_o	o	n/a
709.5785	0.1505	1419157	keystroke_w	w	n/a
709.699	0.075	1419398	keystroke_Key.space	Key.space	n/a
709.969	0.135	1419938	keystroke_c	c	n/a
710.194	0.135	1420388	keystroke_n	n	n/a
710.929	0.06	1421858	keystroke_Key.backspace	Key.backspace	n/a
711.274	0.135	1422548	keystroke_o	o	n/a
711.484	0.15	1422968	keystroke_n	n	n/a
711.679	0.1055	1423358	keystroke_t	t	n/a
711.919	0.1355	1423838	keystroke_a	a	n/a
712.159	0.135	1424318	keystroke_c	c	n/a
712.429	0.1205	1424858	keystroke_t	t	n/a
712.5335	0.18	1425067	keystroke_i	i	n/a
712.6995	0.225	1425399	keystroke_o	o	n/a
712.8345	0.15	1425669	keystroke_n	n	n/a
713.553	0.151	1427106	keystroke_Key.enter	Key.enter	n/a
