onset	duration	sample	value	key	prompt_text
3.3155	14.79	6631	prompt	n/a	the quick brown fox jumps over a lazy dog\n
11.5945	0.043	23189	keystroke_t	t	n/a
11.6225	0.12	23245	keystroke_h	h	n/a
11.7115	0.181	23423	keystroke_e	e	n/a
11.8325	0.1495	23665	keystroke_Key.space	Key.space	n/a
11.9975	0.1345	23995	keystroke_q	q	n/a
12.1475	0.15	24295	keystroke_u	u	n/a
12.3125	0.09	24625	keystroke_i	i	n/a
12.4925	0.119	24985	keystroke_c	c	n/a
12.628	0.0895	25256	keystroke_k	k	n/a
12.7325	0.12	25465	keystroke_Key.space	Key.space	n/a
13.048	0.0745	26096	keystroke_b	b	n/a
13.243	0.0895	26486	keystroke_r	r	n/a
13.408	0.1045	26816	keystroke_o	o	n/a
13.5275	0.1045	27055	keystroke_w	w	n/a
13.6925	0.12	27385	keystroke_n	n	n/a
13.8425	0.135	27685	keystroke_Key.space	Key.space	n/a
13.9625	0.09	27925	keystroke_f	f	n/a
14.0815	0.106	28163	keystroke_o	o	n/a
14.218	0.1195	28436	keystroke_x	x	n/a
14.412	0.15	28824	keystroke_Key.space	Key.space	n/a
14.563	0.0595	29126	keystroke_j	j	n/a
14.7115	0.091	29423	keystroke_u	u	n/a
14.9225	0.09	29845	keystroke_m	m	n/a
15.087	0.1055	30174	keystroke_p	p	n/a
15.3275	0.15	30655	keystroke_s	s	n/a
15.4775	0.15	30955	keystroke_Key.space	Key.space	n/a
15.6425	0.12	31285	keystroke_o	o	n/a
15.7475	0.105	31495	keystroke_v	v	n/a
15.9575	0.165	31915	keystroke_e	e	n/a
16.062	0.1355	32124	keystroke_r	r	n/a
16.1825	0.15	32365	keystroke_Key.space	Key.space	n/a
16.3175	0.135	32635	keystroke_a	a	n/a
16.437	0.12	32874	keystroke_Key.space	Key.space	n/a
16.5425	0.12	33085	keystroke_l	l	n/a
16.7075	0.1045	33415	keystroke_a	a	n/a
17.052	0.105	34104	keystroke_z	z	n/a
17.2335	0.0885	34467	keystroke_y	y	n/a
17.3825	0.15	34765	keystroke_Key.space	Key.space	n/a
17.517	0.1055	35034	keystroke_d	d	n/a
17.653	0.1495	35306	keystroke_o	o	n/a
17.818	0.0895	35636	keystroke_g	g	n/a
18.0125	0.09	36025	keystroke_Key.enter	Key.enter	n/a
18.112	9.8325	36224	prompt	n/a	proposal curriculum abraham encountered\n
18.808	0.105	37616	keystroke_p	p	n/a
18.898	0.12	37796	keystroke_r	r	n/a
19.048	0.1495	38096	keystroke_o	o	n/a
19.2135	0.1195	38427	keystroke_p	p	n/a
19.4525	0.075	38905	keystroke_o	o	n/a
19.6175	0.105	39235	keystroke_s	s	n/a
19.8425	0.1505	39685	keystroke_a	a	n/a
20.008	0.0895	40016	keystroke_l	l	n/a
20.157	0.135	40314	keystroke_Key.space	Key.space	n/a
20.473	0.1045	40946	keystroke_c	c	n/a
20.607	0.1205	41214	keystroke_u	u	n/a
20.743	0.075	41486	keystroke_r	r	n/a
20.892	0.0905	41784	keystroke_r	r	n/a
21.0275	0.135	42055	keystroke_i	i	n/a
21.237	0.12	42474	keystroke_c	c	n/a
21.388	0.089	42776	keystroke_u	u	n/a
21.5525	0.0745	43105	keystroke_l	l	n/a
21.793	0.089	43586	keystroke_u	u	n/a
22.0325	0.1045	44065	keystroke_m	m	n/a
22.212	0.1355	44424	keystroke_Key.space	Key.space	n/a
22.4075	0.09	44815	keystroke_b	b	n/a
22.7675	0.0895	45535	keystroke_Key.backspace	Key.backspace	n/a
22.8875	0.1795	45775	keystroke_a	a	n/a
23.037	0.0905	46074	keystroke_b	b	n/a
23.203	0.105	46406	keystroke_m	m	n/a
23.562	0.0905	47124	keystroke_Key.backspace	Key.backspace	n/a
23.7725	0.1055	47545	keystroke_r	r	n/a
24.762	0.15	49524	keystroke_a	a	n/a
24.9725	0.0905	49945	keystroke_h	h	n/a
25.0775	0.12	50155	keystroke_a	a	n/a
25.2275	0.1195	50455	keystroke_m	m	n/a
25.647	0.1205	51294	keystroke_Key.space	Key.space	n/a
25.8575	0.1355	51715	keystroke_e	e	n/a
25.978	0.104	51956	keystroke_n	n	n/a
26.1725	0.1195	52345	keystroke_c	c	n/a
26.3075	0.1955	52615	keystroke_o	o	n/a
26.4125	0.105	52825	keystroke_u	u	n/a
26.6375	0.0755	53275	keystroke_n	n	n/a
26.742	0.0755	53484	keystroke_t	t	n/a
26.9375	0.1195	53875	keystroke_e	e	n/a
26.998	0.1495	53996	keystroke_r	r	n/a
27.223	0.1345	54446	keystroke_e	e	n/a
27.6725	0.03	55345	keystroke_d	d	n/a
27.8525	0.09	55705	keystroke_Key.enter	Key.enter	n/a
27.9485	10.016	55897	prompt	n/a	syndicate exception victory district\n
28.7375	0.1655	57475	keystroke_s	s	n/a
28.888	0.0895	57776	keystroke_y	y	n/a
29.157	0.105	58314	keystroke_n	n	n/a
29.338	0.0745	58676	keystroke_c	c	n/a
29.697	0.0755	59394	keystroke_Key.backspace	Key.backspace	n/a
29.8025	0.12	59605	keystroke_d	d	n/a
29.968	0.0745	59936	keystroke_i	i	n/a
30.1475	0.105	60295	keystroke_c	c	n/a
30.327	0.1355	60654	keystroke_a	a	n/a
30.5075	0.09	61015	keystroke_t	t	n/a
30.6875	0.135	61375	keystroke_e	e	n/a
30.792	0.165	61584	keystroke_Key.space	Key.space	n/a
30.927	0.106	61854	keystroke_e	e	n/a
31.168	0.089	62336	keystroke_x	x	n/a
31.483	0.105	62966	keystroke_c	c	n/a
31.6775	0.105	63355	keystroke_e	e	n/a
31.888	0.1195	63776	keystroke_p	p	n/a
32.0225	0.075	64045	keystroke_t	t	n/a
32.158	0.179	64316	keystroke_i	i	n/a
32.322	0.1955	64644	keystroke_o	o	n/a
32.4875	0.105	64975	keystroke_n	n	n/a
32.6225	0.165	65245	keystroke_Key.space	Key.space	n/a
32.9525	0.075	65905	keystroke_v	v	n/a
33.357	0.196	66714	keystroke_i	i	n/a
33.5375	0.0905	67075	keystroke_c	c	n/a
34.018	0.0595	68036	keystroke_o	o	n/a
34.4675	0.075	68935	keystroke_Key.backspace	Key.backspace	n/a
34.6035	0.1045	69207	keystroke_t	t	n/a
34.7675	0.09	69535	keystroke_o	o	n/a
34.918	0.1045	69836	keystroke_r	r	n/a
35.0825	0.0755	70165	keystroke_y	y	n/a
35.382	0.135	70764	keystroke_Key.space	Key.space	n/a
35.773	0.0745	71546	keystroke_d	d	n/a
35.8775	0.1355	71755	keystroke_i	i	n/a
36.027	0.091	72054	keystroke_s	s	n/a
36.222	0.0755	72444	keystroke_t	t	n/a
36.628	0.12	73256	keystroke_r	r	n/a
36.853	0.1045	73706	keystroke_i	i	n/a
37.0025	0.105	74005	keystroke_c	c	n/a
37.603	0.045	75206	keystroke_t	t	n/a
37.8575	0.105	75715	keystroke_Key.enter	Key.enter	n/a
37.969	9.0855	75938	prompt	n/a	creativity egypt casino fever\n
41.0105	0.057	82021	keystroke_c	c	n/a
41.1725	0.1205	82345	keystroke_r	r	n/a
41.3225	0.1345	82645	keystroke_e	e	n/a
41.4725	0.165	82945	keystroke_a	a	n/a
41.6075	0.1055	83215	keystroke_t	t	n/a
41.7725	0.105	83545	keystroke_i	i	n/a
41.9225	0.06	83845	keystroke_v	v	n/a
42.0425	0.09	84085	keystroke_v	v	n/a
42.627	0.0905	85254	keystroke_Key.backspace	Key.backspace	n/a
42.8825	0.0755	85765	keystroke_i	i	n/a
43.0035	0.1045	86007	keystroke_t	t	n/a
43.183	0.09	86366	keystroke_y	y	n/a
43.3765	0.106	86753	keystroke_Key.space	Key.space	n/a
43.588	0.104	87176	keystroke_e	e	n/a
43.8725	0.09	87745	keystroke_g	g	n/a
44.0525	0.105	88105	keystroke_y	y	n/a
44.2175	0.12	88435	keystroke_p	p	n/a
44.443	0.0595	88886	keystroke_t	t	n/a
44.6825	0.1345	89365	keystroke_Key.space	Key.space	n/a
44.8625	0.105	89725	keystroke_c	c	n/a
45.043	0.1495	90086	keystroke_a	a	n/a
45.2375	0.135	90475	keystroke_s	s	n/a
45.3725	0.1495	90745	keystroke_i	i	n/a
45.553	0.09	91106	keystroke_n	n	n/a
45.7625	0.0745	91525	keystroke_o	o	n/a
45.897	0.1805	91794	keystroke_Key.space	Key.space	n/a
46.0625	0.12	92125	keystroke_f	f	n/a
46.3025	0.0905	92605	keystroke_e	e	n/a
46.497	0.075	92994	keystroke_v	v	n/a
46.6775	0.0895	93355	keystroke_e	e	n/a
46.737	0.1055	93474	keystroke_r	r	n/a
46.962	0.0905	93924	keystroke_Key.enter	Key.enter	n/a
47.0595	6.9995	94119	prompt	n/a	tables guarantee fixes architectural\n
47.7125	0.09	95425	keystroke_t	t	n/a
47.893	0.105	95786	keystroke_a	a	n/a
48.013	0.089	96026	keystroke_b	b	n/a
48.1925	0.09	96385	keystroke_l	l	n/a
48.2675	0.105	96535	keystroke_e	e	n/a
48.4325	0.12	96865	keystroke_s	s	n/a
48.5375	0.18	97075	keystroke_Key.space	Key.space	n/a
48.6725	0.1055	97345	keystroke_g	g	n/a
48.898	0.12	97796	keystroke_u	u	n/a
49.093	0.135	98186	keystroke_a	a	n/a
49.318	0.104	98636	keystroke_r	r	n/a
49.497	0.151	98994	keystroke_a	a	n/a
49.618	0.1345	99236	keystroke_n	n	n/a
49.7825	0.1045	99565	keystroke_t	t	n/a
49.963	0.089	99926	keystroke_e	e	n/a
50.127	0.0905	100254	keystroke_e	e	n/a
50.292	0.211	100584	keystroke_Key.space	Key.space	n/a
50.488	0.12	100976	keystroke_f	f	n/a
50.638	0.135	101276	keystroke_i	i	n/a
50.758	0.09	101516	keystroke_x	x	n/a
50.9975	0.0755	101995	keystroke_e	e	n/a
51.1625	0.1355	102325	keystroke_s	s	n/a
51.312	0.15	102624	keystroke_Key.space	Key.space	n/a
51.478	0.18	102956	keystroke_a	a	n/a
51.628	0.075	103256	keystroke_r	r	n/a
51.883	0.105	103766	keystroke_c	c	n/a
52.018	0.135	104036	keystroke_h	h	n/a
52.168	0.135	104336	keystroke_i	i	n/a
52.423	0.09	104846	keystroke_t	t	n/a
52.6175	0.0895	105235	keystroke_e	e	n/a
52.8425	0.0595	105685	keystroke_c	c	n/a
53.0825	0.0595	106165	keystroke_t	t	n/a
53.2625	0.1055	106525	keystroke_u	u	n/a
53.412	0.076	106824	keystroke_r	r	n/a
53.607	0.0905	107214	keystroke_a	a	n/a
53.7575	0.09	107515	keystroke_l	l	n/a
53.9825	0.075	107965	keystroke_Key.enter	Key.enter	n/a
54.063	5.802	108126	prompt	n/a	suggested luke proven ferrari\n
54.6575	0.1205	109315	keystroke_s	s	n/a
54.7925	0.12	109585	keystroke_u	u	n/a
54.9275	0.06	109855	keystroke_g	g	n/a
55.078	0.0895	110156	keystroke_g	g	n/a
55.2575	0.09	110515	keystroke_e	e	n/a
55.423	0.164	110846	keystroke_s	s	n/a
55.572	0.09	111144	keystroke_t	t	n/a
55.708	0.09	111416	keystroke_e	e	n/a
55.918	0.0895	111836	keystroke_d	d	n/a
55.9925	0.1655	111985	keystroke_Key.space	Key.space	n/a
56.143	0.1645	112286	keystroke_l	l	n/a
56.2775	0.0905	112555	keystroke_u	u	n/a
56.4875	0.09	112975	keystroke_k	k	n/a
56.638	0.1345	113276	keystroke_e	e	n/a
56.8775	0.105	113755	keystroke_Key.space	Key.space	n/a
57.013	0.1045	114026	keystroke_p	p	n/a
57.1325	0.1055	114265	keystroke_r	r	n/a
57.253	0.1345	114506	keystroke_o	o	n/a
57.403	0.1045	114806	keystroke_v	v	n/a
57.613	0.09	115226	keystroke_e	e	n/a
57.823	0.09	115646	keystroke_n	n	n/a
57.988	0.149	115976	keystroke_Key.space	Key.space	n/a
58.2875	0.0755	116575	keystroke_f	f	n/a
58.543	0.15	117086	keystroke_e	e	n/a
58.708	0.09	117416	keystroke_r	r	n/a
58.873	0.1045	117746	keystroke_r	r	n/a
59.2025	0.151	118405	keystroke_a	a	n/a
59.3375	0.1045	118675	keystroke_r	r	n/a
59.533	0.09	119066	keystroke_i	i	n/a
59.772	0.09	119544	keystroke_Key.enter	Key.enter	n/a
59.87	6.2195	119740	prompt	n/a	classified tapes many liverpool\n
60.583	0.1045	121166	keystroke_c	c	n/a
60.718	0.1045	121436	keystroke_l	l	n/a
60.883	0.1795	121766	keystroke_a	a	n/a
61.0475	0.075	122095	keystroke_s	s	n/a
61.1975	0.1205	122395	keystroke_s	s	n/a
61.333	0.1045	122666	keystroke_i	i	n/a
61.4675	0.1205	122935	keystroke_f	f	n/a
61.633	0.105	123266	keystroke_i	i	n/a
61.768	0.1055	123536	keystroke_e	e	n/a
62.008	0.135	124016	keystroke_d	d	n/a
62.1575	0.135	124315	keystroke_Key.space	Key.space	n/a
62.263	0.134	124526	keystroke_t	t	n/a
62.443	0.15	124886	keystroke_a	a	n/a
62.623	0.105	125246	keystroke_p	p	n/a
62.758	0.09	125516	keystroke_e	e	n/a
62.908	0.1655	125816	keystroke_s	s	n/a
63.013	0.15	126026	keystroke_Key.space	Key.space	n/a
63.148	0.134	126296	keystroke_m	m	n/a
63.313	0.1205	126626	keystroke_a	a	n/a
63.4485	0.074	126897	keystroke_n	n	n/a
63.6575	0.075	127315	keystroke_y	y	n/a
63.823	0.1045	127646	keystroke_Key.space	Key.space	n/a
64.0025	0.1355	128005	keystroke_l	l	n/a
64.123	0.1045	128246	keystroke_i	i	n/a
64.7525	0.09	129505	keystroke_v	v	n/a
64.9325	0.165	129865	keystroke_e	e	n/a
65.068	0.0895	130136	keystroke_r	r	n/a
65.202	0.2105	130404	keystroke_p	p	n/a
65.383	0.0895	130766	keystroke_o	o	n/a
65.5625	0.0905	131125	keystroke_o	o	n/a
65.7725	0.0905	131545	keystroke_l	l	n/a
66.0125	0.0755	132025	keystroke_Key.enter	Key.enter	n/a
66.096	10.6735	132192	prompt	n/a	probably opens electronics derived\n
66.763	0.12	133526	keystroke_p	p	n/a
66.867	0.105	133734	keystroke_r	r	n/a
66.987	0.121	133974	keystroke_o	o	n/a
67.152	0.1055	134304	keystroke_v	v	n/a
67.317	0.181	134634	keystroke_a	a	n/a
67.798	0.1345	135596	keystroke_v	v	n/a
68.068	0.09	136136	keystroke_l	l	n/a
68.2335	0.089	136467	keystroke_y	y	n/a
68.7575	0.0595	137515	keystroke_Key.backspace	Key.backspace	n/a
68.907	0.075	137814	keystroke_Key.backspace	Key.backspace	n/a
69.0725	0.0745	138145	keystroke_Key.backspace	Key.backspace	n/a
69.433	0.09	138866	keystroke_Key.backspace	Key.backspace	n/a
69.6275	0.105	139255	keystroke_Key.backspace	Key.backspace	n/a
70.018	0.134	140036	keystroke_b	b	n/a
70.213	0.165	140426	keystroke_a	a	n/a
70.3475	0.1045	140695	keystroke_b	b	n/a
70.513	0.105	141026	keystroke_l	l	n/a
70.738	0.075	141476	keystroke_y	y	n/a
70.843	0.105	141686	keystroke_Key.space	Key.space	n/a
71.203	0.1645	142406	keystroke_o	o	n/a
71.383	0.104	142766	keystroke_p	p	n/a
71.548	0.119	143096	keystroke_e	e	n/a
71.697	0.121	143394	keystroke_n	n	n/a
71.908	0.119	143816	keystroke_s	s	n/a
72.057	0.136	144114	keystroke_Key.space	Key.space	n/a
72.313	0.1045	144626	keystroke_e	e	n/a
72.4775	0.12	144955	keystroke_l	l	n/a
72.5825	0.09	145165	keystroke_e	e	n/a
72.793	0.0595	145586	keystroke_c	c	n/a
72.988	0.075	145976	keystroke_t	t	n/a
73.152	0.091	146304	keystroke_r	r	n/a
73.3625	0.195	146725	keystroke_o	o	n/a
73.5425	0.09	147085	keystroke_n	n	n/a
73.7225	0.12	147445	keystroke_i	i	n/a
74.338	0.1045	148676	keystroke_c	c	n/a
74.5475	0.105	149095	keystroke_s	s	n/a
74.7575	0.18	149515	keystroke_Key.space	Key.space	n/a
74.9525	0.075	149905	keystroke_d	d	n/a
75.1325	0.0905	150265	keystroke_e	e	n/a
75.6275	0.1055	151255	keystroke_r	r	n/a
75.808	0.15	151616	keystroke_i	i	n/a
75.9425	0.06	151885	keystroke_v	v	n/a
76.243	0.0745	152486	keystroke_e	e	n/a
76.4375	0.0745	152875	keystroke_d	d	n/a
76.662	0.105	153324	keystroke_Key.enter	Key.enter	n/a
76.776	4.8235	153552	prompt	n/a	sounds horn parent dodge\n
77.472	0.1505	154944	keystroke_s	s	n/a
77.608	0.195	155216	keystroke_o	o	n/a
77.727	0.1055	155454	keystroke_u	u	n/a
77.9375	0.06	155875	keystroke_n	n	n/a
78.0125	0.09	156025	keystroke_d	d	n/a
78.192	0.1505	156384	keystroke_s	s	n/a
78.297	0.151	156594	keystroke_Key.space	Key.space	n/a
78.418	0.135	156836	keystroke_h	h	n/a
78.568	0.12	157136	keystroke_o	o	n/a
78.673	0.1045	157346	keystroke_r	r	n/a
78.808	0.1195	157616	keystroke_n	n	n/a
78.9725	0.15	157945	keystroke_Key.space	Key.space	n/a
79.167	0.105	158334	keystroke_p	p	n/a
79.302	0.181	158604	keystroke_a	a	n/a
79.452	0.121	158904	keystroke_r	r	n/a
79.588	0.15	159176	keystroke_e	e	n/a
79.7085	0.119	159417	keystroke_n	n	n/a
79.857	0.136	159714	keystroke_t	t	n/a
80.008	0.225	160016	keystroke_Key.space	Key.space	n/a
80.1875	0.1205	160375	keystroke_d	d	n/a
80.3525	0.09	160705	keystroke_o	o	n/a
80.4575	0.12	160915	keystroke_d	d	n/a
80.6675	0.09	161335	keystroke_g	g	n/a
80.8625	0.06	161725	keystroke_s	s	n/a
81.2075	0.09	162415	keystroke_Key.backspace	Key.backspace	n/a
81.3275	0.0755	162655	keystroke_e	e	n/a
81.4925	0.1045	162985	keystroke_Key.enter	Key.enter	n/a
81.6025	7.8115	163205	prompt	n/a	photo declaration threatening ohio\n
82.288	0.1195	164576	keystroke_p	p	n/a
82.6025	0.12	165205	keystroke_h	h	n/a
82.7825	0.105	165565	keystroke_o	o	n/a
83.007	0.105	166014	keystroke_t	t	n/a
83.173	0.1045	166346	keystroke_o	o	n/a
83.3675	0.195	166735	keystroke_Key.space	Key.space	n/a
83.548	0.09	167096	keystroke_d	d	n/a
83.848	0.1345	167696	keystroke_e	e	n/a
84.163	0.09	168326	keystroke_c	c	n/a
84.328	0.105	168656	keystroke_l	l	n/a
84.4775	0.15	168955	keystroke_a	a	n/a
84.6425	0.1055	169285	keystroke_r	r	n/a
84.8075	0.135	169615	keystroke_a	a	n/a
84.957	0.0755	169914	keystroke_t	t	n/a
85.107	0.166	170214	keystroke_i	i	n/a
85.258	0.1495	170516	keystroke_o	o	n/a
85.3925	0.12	170785	keystroke_n	n	n/a
85.5275	0.18	171055	keystroke_Key.space	Key.space	n/a
85.6925	0.1055	171385	keystroke_t	t	n/a
85.8575	0.12	171715	keystroke_h	h	n/a
86.0525	0.135	172105	keystroke_r	r	n/a
86.233	0.0895	172466	keystroke_e	e	n/a
86.4125	0.1805	172825	keystroke_a	a	n/a
86.5625	0.09	173125	keystroke_t	t	n/a
86.6975	0.1205	173395	keystroke_e	e	n/a
86.8185	0.1035	173637	keystroke_n	n	n/a
87.058	0.1345	174116	keystroke_i	i	n/a
87.178	0.1195	174356	keystroke_n	n	n/a
87.3425	0.15	174685	keystroke_g	g	n/a
87.5075	0.1505	175015	keystroke_Key.space	Key.space	n/a
87.733	0.09	175466	keystroke_o	o	n/a
88.1675	0.1055	176335	keystroke_h	h	n/a
88.3325	0.0595	176665	keystroke_o	o	n/a
88.677	0.06	177354	keystroke_Key.backspace	Key.backspace	n/a
88.887	0.075	177774	keystroke_i	i	n/a
89.0525	0.06	178105	keystroke_o	o	n/a
89.3075	0.104	178615	keystroke_Key.enter	Key.enter	n/a
89.4175	7.7665	178835	prompt	n/a	presently reform aggressive thank\n
90.253	0.134	180506	keystroke_p	p	n/a
90.432	0.1205	180864	keystroke_r	r	n/a
90.5525	0.105	181105	keystroke_e	e	n/a
90.853	0.149	181706	keystroke_s	s	n/a
90.9875	0.1505	181975	keystroke_e	e	n/a
91.138	0.105	182276	keystroke_n	n	n/a
91.288	0.09	182576	keystroke_t	t	n/a
91.662	0.106	183324	keystroke_l	l	n/a
91.903	0.075	183806	keystroke_y	y	n/a
92.3225	0.1195	184645	keystroke_Key.space	Key.space	n/a
92.517	0.06	185034	keystroke_f	f	n/a
93.087	0.106	186174	keystroke_Key.backspace	Key.backspace	n/a
93.238	0.105	186476	keystroke_r	r	n/a
93.373	0.1195	186746	keystroke_e	e	n/a
93.5675	0.1205	187135	keystroke_f	f	n/a
93.7025	0.135	187405	keystroke_o	o	n/a
93.853	0.09	187706	keystroke_r	r	n/a
94.002	0.136	188004	keystroke_m	m	n/a
94.1525	0.1195	188305	keystroke_Key.space	Key.space	n/a
94.3775	0.1205	188755	keystroke_a	a	n/a
94.573	0.09	189146	keystroke_g	g	n/a
94.798	0.105	189596	keystroke_g	g	n/a
95.173	0.105	190346	keystroke_r	r	n/a
95.3375	0.075	190675	keystroke_e	e	n/a
95.548	0.09	191096	keystroke_s	s	n/a
95.713	0.104	191426	keystroke_s	s	n/a
95.833	0.1345	191666	keystroke_i	i	n/a
95.9375	0.075	191875	keystroke_v	v	n/a
96.0875	0.1355	192175	keystroke_e	e	n/a
96.1925	0.195	192385	keystroke_Key.space	Key.space	n/a
96.2985	0.134	192597	keystroke_t	t	n/a
96.4175	0.1055	192835	keystroke_h	h	n/a
96.5375	0.1505	193075	keystroke_a	a	n/a
96.658	0.105	193316	keystroke_n	n	n/a
96.9425	0.015	193885	keystroke_k	k	n/a
97.063	0.1195	194126	keystroke_Key.enter	Key.enter	n/a
97.188	4.466	194376	prompt	n/a	point button share margin\n
97.903	0.15	195806	keystroke_p	p	n/a
98.0375	0.195	196075	keystroke_o	o	n/a
98.157	0.1805	196314	keystroke_i	i	n/a
98.278	0.1495	196556	keystroke_n	n	n/a
98.4425	0.135	196885	keystroke_t	t	n/a
98.5625	0.1495	197125	keystroke_Key.space	Key.space	n/a
98.802	0.0905	197604	keystroke_b	b	n/a
98.952	0.1205	197904	keystroke_u	u	n/a
99.102	0.0755	198204	keystroke_t	t	n/a
99.2525	0.12	198505	keystroke_t	t	n/a
99.3875	0.15	198775	keystroke_o	o	n/a
99.5075	0.1055	199015	keystroke_n	n	n/a
99.5975	0.15	199195	keystroke_Key.space	Key.space	n/a
99.7925	0.1655	199585	keystroke_s	s	n/a
99.9125	0.1645	199825	keystroke_h	h	n/a
100.0925	0.1805	200185	keystroke_a	a	n/a
100.273	0.1045	200546	keystroke_r	r	n/a
100.408	0.1195	200816	keystroke_e	e	n/a
100.512	0.1655	201024	keystroke_Key.space	Key.space	n/a
100.603	0.18	201206	keystroke_m	m	n/a
100.768	0.1645	201536	keystroke_a	a	n/a
100.873	0.09	201746	keystroke_r	r	n/a
101.068	0.09	202136	keystroke_g	g	n/a
101.187	0.181	202374	keystroke_i	i	n/a
101.323	0.104	202646	keystroke_n	n	n/a
101.5475	0.105	203095	keystroke_Key.enter	Key.enter	n/a
101.658	8.6665	203316	prompt	n/a	urban tablets brunswick worldcat\n
102.448	0.149	204896	keystroke_u	u	n/a
103.213	0.0595	206426	keystroke_r	r	n/a
103.408	0.119	206816	keystroke_b	b	n/a
103.588	0.1795	207176	keystroke_a	a	n/a
103.753	0.1345	207506	keystroke_n	n	n/a
103.902	0.18	207804	keystroke_Key.space	Key.space	n/a
104.143	0.12	208286	keystroke_t	t	n/a
104.383	0.135	208766	keystroke_a	a	n/a
104.788	0.09	209576	keystroke_b	b	n/a
105.042	0.12	210084	keystroke_l	l	n/a
105.193	0.104	210386	keystroke_e	e	n/a
105.553	0.105	211106	keystroke_t	t	n/a
105.822	0.1505	211644	keystroke_s	s	n/a
105.912	0.1655	211824	keystroke_Key.space	Key.space	n/a
106.318	0.09	212636	keystroke_b	b	n/a
106.5425	0.0445	213085	keystroke_r	r	n/a
106.6775	0.075	213355	keystroke_u	u	n/a
106.873	0.0745	213746	keystroke_n	n	n/a
107.0375	0.105	214075	keystroke_s	s	n/a
107.5625	0.12	215125	keystroke_w	w	n/a
107.7575	0.0905	215515	keystroke_i	i	n/a
107.9075	0.1205	215815	keystroke_c	c	n/a
108.058	0.105	216116	keystroke_k	k	n/a
108.237	0.1355	216474	keystroke_Key.space	Key.space	n/a
108.583	0.15	217166	keystroke_w	w	n/a
108.6725	0.1505	217345	keystroke_o	o	n/a
108.808	0.0895	217616	keystroke_r	r	n/a
109.1375	0.09	218275	keystroke_l	l	n/a
109.303	0.1195	218606	keystroke_d	d	n/a
109.5725	0.1355	219145	keystroke_c	c	n/a
109.7675	0.135	219535	keystroke_a	a	n/a
109.9475	0.075	219895	keystroke_t	t	n/a
110.1875	0.135	220375	keystroke_Key.enter	Key.enter	n/a
110.3285	7.4955	220657	prompt	n/a	licenses christianity belle dodge\n
111.103	0.179	222206	keystroke_l	l	n/a
111.253	0.044	222506	keystroke_i	i	n/a
111.5375	0.105	223075	keystroke_c	c	n/a
111.7175	0.12	223435	keystroke_e	e	n/a
111.8675	0.1205	223735	keystroke_n	n	n/a
112.1675	0.1645	224335	keystroke_s	s	n/a
112.317	0.1055	224634	keystroke_e	e	n/a
112.5125	0.1355	225025	keystroke_s	s	n/a
112.632	0.15	225264	keystroke_Key.space	Key.space	n/a
112.8875	0.105	225775	keystroke_c	c	n/a
113.008	0.119	226016	keystroke_h	h	n/a
113.3675	0.1045	226735	keystroke_r	r	n/a
113.532	0.1055	227064	keystroke_i	i	n/a
113.682	0.1205	227364	keystroke_s	s	n/a
113.923	0.089	227846	keystroke_t	t	n/a
114.087	0.1205	228174	keystroke_i	i	n/a
114.253	0.1345	228506	keystroke_a	a	n/a
114.358	0.12	228716	keystroke_n	n	n/a
114.567	0.1055	229134	keystroke_i	i	n/a
114.777	0.0755	229554	keystroke_t	t	n/a
114.942	0.076	229884	keystroke_y	y	n/a
115.0625	0.135	230125	keystroke_Key.space	Key.space	n/a
115.722	0.105	231444	keystroke_b	b	n/a
116.0525	0.09	232105	keystroke_e	e	n/a
116.307	0.061	232614	keystroke_l	l	n/a
116.472	0.1355	232944	keystroke_l	l	n/a
116.5925	0.0895	233185	keystroke_e	e	n/a
116.727	0.15	233454	keystroke_Key.space	Key.space	n/a
116.9075	0.1195	233815	keystroke_d	d	n/a
117.058	0.134	234116	keystroke_o	o	n/a
117.177	0.09	234354	keystroke_d	d	n/a
117.3575	0.0755	234715	keystroke_g	g	n/a
117.5675	0.075	235135	keystroke_e	e	n/a
117.7475	0.075	235495	keystroke_Key.enter	Key.enter	n/a
117.8285	5.366	235657	prompt	n/a	winter oracle points friendly\n
118.557	0.0905	237114	keystroke_w	w	n/a
118.632	0.135	237264	keystroke_i	i	n/a
118.753	0.1345	237506	keystroke_n	n	n/a
118.8575	0.075	237715	keystroke_t	t	n/a
119.112	0.061	238224	keystroke_e	e	n/a
119.1275	0.135	238255	keystroke_r	r	n/a
119.232	0.1655	238464	keystroke_Key.space	Key.space	n/a
119.3825	0.105	238765	keystroke_o	o	n/a
119.5025	0.105	239005	keystroke_r	r	n/a
119.6825	0.1505	239365	keystroke_a	a	n/a
119.8925	0.105	239785	keystroke_c	c	n/a
120.058	0.1045	240116	keystroke_l	l	n/a
120.1775	0.15	240355	keystroke_e	e	n/a
120.2975	0.165	240595	keystroke_Key.space	Key.space	n/a
120.5075	0.1795	241015	keystroke_p	p	n/a
120.673	0.21	241346	keystroke_o	o	n/a
120.853	0.18	241706	keystroke_i	i	n/a
121.018	0.105	242036	keystroke_n	n	n/a
121.168	0.1045	242336	keystroke_t	t	n/a
121.4075	0.135	242815	keystroke_s	s	n/a
121.6025	0.15	243205	keystroke_Key.space	Key.space	n/a
121.903	0.0745	243806	keystroke_f	f	n/a
122.068	0.0745	244136	keystroke_r	r	n/a
122.1725	0.1205	244345	keystroke_i	i	n/a
122.2785	0.1195	244557	keystroke_e	e	n/a
122.4125	0.135	244825	keystroke_n	n	n/a
122.5625	0.12	245125	keystroke_d	d	n/a
122.7275	0.09	245455	keystroke_l	l	n/a
122.8775	0.09	245755	keystroke_y	y	n/a
123.088	0.1045	246176	keystroke_Key.enter	Key.enter	n/a
123.199	5.89	246398	prompt	n/a	reviews donate lookup little\n
123.9725	0.12	247945	keystroke_r	r	n/a
124.1375	0.075	248275	keystroke_e	e	n/a
124.7075	0.1055	249415	keystroke_v	v	n/a
125.008	0.0895	250016	keystroke_i	i	n/a
125.158	0.149	250316	keystroke_e	e	n/a
125.4125	0.105	250825	keystroke_w	w	n/a
125.728	0.12	251456	keystroke_s	s	n/a
125.862	0.1505	251724	keystroke_Key.space	Key.space	n/a
126.028	0.15	252056	keystroke_d	d	n/a
126.1925	0.1195	252385	keystroke_o	o	n/a
126.2975	0.1345	252595	keystroke_n	n	n/a
126.4625	0.15	252925	keystroke_a	a	n/a
126.567	0.1355	253134	keystroke_t	t	n/a
126.777	0.1505	253554	keystroke_e	e	n/a
126.882	0.1355	253764	keystroke_Key.space	Key.space	n/a
127.0025	0.0605	254005	keystroke_l	l	n/a
127.198	0.0595	254396	keystroke_o	o	n/a
127.3475	0.12	254695	keystroke_o	o	n/a
127.5575	0.09	255115	keystroke_k	k	n/a
127.7975	0.105	255595	keystroke_u	u	n/a
127.9175	0.105	255835	keystroke_p	p	n/a
128.0975	0.12	256195	keystroke_Key.space	Key.space	n/a
128.2325	0.1505	256465	keystroke_l	l	n/a
128.353	0.1045	256706	keystroke_i	i	n/a
128.4425	0.0755	256885	keystroke_t	t	n/a
128.5925	0.105	257185	keystroke_t	t	n/a
128.7125	0.135	257425	keystroke_l	l	n/a
128.8175	0.09	257635	keystroke_e	e	n/a
128.9825	0.105	257965	keystroke_Key.enter	Key.enter	n/a
129.0935	6.9255	258187	prompt	n/a	lycos alternate legitimate lang\n
129.7025	0.136	259405	keystroke_l	l	n/a
129.9425	0.1055	259885	keystroke_y	y	n/a
130.1375	0.12	260275	keystroke_c	c	n/a
130.3025	0.105	260605	keystroke_o	o	n/a
130.528	0.1345	261056	keystroke_s	s	n/a
130.6175	0.1645	261235	keystroke_Key.space	Key.space	n/a
130.827	0.1805	261654	keystroke_a	a	n/a
130.978	0.0895	261956	keystroke_l	l	n/a
131.1425	0.09	262285	keystroke_t	t	n/a
131.337	0.105	262674	keystroke_e	e	n/a
131.412	0.1205	262824	keystroke_r	r	n/a
131.548	0.1195	263096	keystroke_n	n	n/a
131.698	0.1495	263396	keystroke_a	a	n/a
131.8325	0.0895	263665	keystroke_t	t	n/a
132.012	0.0905	264024	keystroke_e	e	n/a
132.0575	0.18	264115	keystroke_Key.space	Key.space	n/a
132.2225	0.135	264445	keystroke_l	l	n/a
132.3275	0.12	264655	keystroke_e	e	n/a
132.6275	0.0595	265255	keystroke_g	g	n/a
133.1525	0.1345	266305	keystroke_i	i	n/a
133.303	0.104	266606	keystroke_t	t	n/a
133.482	0.0905	266964	keystroke_i	i	n/a
133.708	0.1195	267416	keystroke_m	m	n/a
133.828	0.1495	267656	keystroke_a	a	n/a
134.053	0.089	268106	keystroke_t	t	n/a
134.323	0.135	268646	keystroke_e	e	n/a
134.5925	0.135	269185	keystroke_Key.space	Key.space	n/a
134.773	0.15	269546	keystroke_l	l	n/a
134.908	0.15	269816	keystroke_a	a	n/a
135.0275	0.1355	270055	keystroke_n	n	n/a
135.268	0.06	270536	keystroke_d	d	n/a
135.6425	0.075	271285	keystroke_Key.backspace	Key.backspace	n/a
135.7475	0.0905	271495	keystroke_g	g	n/a
135.9425	0.075	271885	keystroke_Key.enter	Key.enter	n/a
136.0235	7.4205	272047	prompt	n/a	yields exposed practical schedule\n
136.978	0.105	273956	keystroke_y	y	n/a
137.187	0.09	274374	keystroke_i	i	n/a
137.457	0.0905	274914	keystroke_e	e	n/a
137.562	0.1355	275124	keystroke_l	l	n/a
137.772	0.106	275544	keystroke_d	d	n/a
137.9525	0.165	275905	keystroke_s	s	n/a
138.1025	0.1795	276205	keystroke_Key.space	Key.space	n/a
138.297	0.0905	276594	keystroke_e	e	n/a
138.5075	0.1205	277015	keystroke_x	x	n/a
138.642	0.1655	277284	keystroke_p	p	n/a
138.8225	0.1055	277645	keystroke_o	o	n/a
138.9875	0.1355	277975	keystroke_s	s	n/a
139.303	0.1045	278606	keystroke_e	e	n/a
139.527	0.1055	279054	keystroke_d	d	n/a
139.633	0.164	279266	keystroke_Key.space	Key.space	n/a
139.918	0.134	279836	keystroke_p	p	n/a
140.0685	0.119	280137	keystroke_r	r	n/a
140.277	0.136	280554	keystroke_a	a	n/a
140.428	0.09	280856	keystroke_c	c	n/a
140.637	0.0605	281274	keystroke_t	t	n/a
140.742	0.121	281484	keystroke_i	i	n/a
141.2075	0.12	282415	keystroke_c	c	n/a
141.387	0.151	282774	keystroke_a	a	n/a
141.583	0.105	283166	keystroke_l	l	n/a
141.7325	0.15	283465	keystroke_Key.space	Key.space	n/a
142.1075	0.12	284215	keystroke_s	s	n/a
142.2875	0.12	284575	keystroke_c	c	n/a
142.4375	0.1355	284875	keystroke_h	h	n/a
142.5575	0.09	285115	keystroke_e	e	n/a
142.7525	0.075	285505	keystroke_d	d	n/a
142.8575	0.09	285715	keystroke_u	u	n/a
142.9625	0.1505	285925	keystroke_l	l	n/a
143.0975	0.075	286195	keystroke_e	e	n/a
143.3225	0.12	286645	keystroke_Key.enter	Key.enter	n/a
143.449	9.0255	286898	prompt	n/a	she'll manufactured identifies garbage\n
144.133	0.0895	288266	keystroke_s	s	n/a
144.2075	0.1505	288415	keystroke_h	h	n/a
144.343	0.1045	288686	keystroke_e	e	n/a
144.5225	0.1505	289045	keystroke_'	'	n/a
144.6425	0.0905	289285	keystroke_l	l	n/a
144.9275	0.15	289855	keystroke_l	l	n/a
145.228	0.1045	290456	keystroke_Key.space	Key.space	n/a
145.3625	0.135	290725	keystroke_m	m	n/a
145.5425	0.1355	291085	keystroke_a	a	n/a
145.8425	0.09	291685	keystroke_m	m	n/a
146.2325	0.09	292465	keystroke_u	u	n/a
146.6675	0.105	293335	keystroke_f	f	n/a
146.848	0.164	293696	keystroke_a	a	n/a
146.9675	0.075	293935	keystroke_c	c	n/a
147.177	0.0605	294354	keystroke_t	t	n/a
147.328	0.12	294656	keystroke_u	u	n/a
147.4625	0.09	294925	keystroke_r	r	n/a
147.613	0.1045	295226	keystroke_e	e	n/a
147.837	0.12	295674	keystroke_d	d	n/a
147.958	0.134	295916	keystroke_Key.space	Key.space	n/a
148.198	0.165	296396	keystroke_i	i	n/a
148.468	0.1195	296936	keystroke_d	d	n/a
148.7225	0.1055	297445	keystroke_e	e	n/a
148.8725	0.1345	297745	keystroke_n	n	n/a
149.052	0.0905	298104	keystroke_t	t	n/a
149.833	0.1495	299666	keystroke_i	i	n/a
149.997	0.0605	299994	keystroke_f	f	n/a
150.267	0.136	300534	keystroke_i	i	n/a
150.418	0.104	300836	keystroke_e	e	n/a
150.703	0.1195	301406	keystroke_s	s	n/a
150.792	0.165	301584	keystroke_Key.space	Key.space	n/a
151.017	0.09	302034	keystroke_g	g	n/a
151.213	0.165	302426	keystroke_a	a	n/a
151.318	0.074	302636	keystroke_r	r	n/a
151.5125	0.0745	303025	keystroke_b	b	n/a
151.678	0.135	303356	keystroke_a	a	n/a
151.932	0.06	303864	keystroke_g	g	n/a
152.128	0.075	304256	keystroke_e	e	n/a
152.352	0.12	304704	keystroke_Key.enter	Key.enter	n/a
152.4805	6.8345	304961	prompt	n/a	online ordinary meetings reasoning\n
153.1325	0.12	306265	keystroke_o	o	n/a
153.4475	0.105	306895	keystroke_n	n	n/a
153.6425	0.1505	307285	keystroke_l	l	n/a
153.7475	0.165	307495	keystroke_i	i	n/a
153.8825	0.12	307765	keystroke_n	n	n/a
153.9725	0.15	307945	keystroke_e	e	n/a
154.093	0.149	308186	keystroke_Key.space	Key.space	n/a
154.227	0.12	308454	keystroke_o	o	n/a
154.363	0.075	308726	keystroke_r	r	n/a
154.6775	0.12	309355	keystroke_d	d	n/a
154.8425	0.135	309685	keystroke_i	i	n/a
154.933	0.1345	309866	keystroke_n	n	n/a
155.1275	0.1655	310255	keystroke_a	a	n/a
155.278	0.105	310556	keystroke_r	r	n/a
155.5025	0.075	311005	keystroke_y	y	n/a
155.6225	0.1495	311245	keystroke_Key.space	Key.space	n/a
155.833	0.1495	311666	keystroke_m	m	n/a
155.9525	0.105	311905	keystroke_e	e	n/a
156.1325	0.135	312265	keystroke_e	e	n/a
156.3425	0.0755	312685	keystroke_t	t	n/a
156.493	0.1645	312986	keystroke_i	i	n/a
156.613	0.15	313226	keystroke_n	n	n/a
156.7175	0.09	313435	keystroke_g	g	n/a
156.943	0.12	313886	keystroke_s	s	n/a
157.0325	0.1645	314065	keystroke_Key.space	Key.space	n/a
157.258	0.135	314516	keystroke_r	r	n/a
157.5125	0.06	315025	keystroke_a	a	n/a
157.8575	0.09	315715	keystroke_Key.backspace	Key.backspace	n/a
157.978	0.105	315956	keystroke_e	e	n/a
158.2025	0.15	316405	keystroke_a	a	n/a
158.3375	0.1345	316675	keystroke_s	s	n/a
158.458	0.165	316916	keystroke_o	o	n/a
158.578	0.12	317156	keystroke_n	n	n/a
158.758	0.134	317516	keystroke_i	i	n/a
158.8625	0.1495	317725	keystroke_n	n	n/a
158.953	0.09	317906	keystroke_g	g	n/a
159.208	0.105	318416	keystroke_Key.enter	Key.enter	n/a
159.319	4.27	318638	prompt	n/a	miss tool bottles lucky\n
159.988	0.165	319976	keystroke_m	m	n/a
160.138	0.105	320276	keystroke_i	i	n/a
160.213	0.0755	320426	keystroke_s	s	n/a
160.3775	0.1655	320755	keystroke_s	s	n/a
160.5125	0.18	321025	keystroke_Key.space	Key.space	n/a
160.6935	0.1045	321387	keystroke_t	t	n/a
160.8125	0.09	321625	keystroke_o	o	n/a
160.963	0.1195	321926	keystroke_o	o	n/a
161.1725	0.0905	322345	keystroke_l	l	n/a
161.3075	0.165	322615	keystroke_Key.space	Key.space	n/a
161.4575	0.09	322915	keystroke_b	b	n/a
161.608	0.165	323216	keystroke_o	o	n/a
161.7435	0.0895	323487	keystroke_t	t	n/a
161.893	0.119	323786	keystroke_t	t	n/a
162.058	0.165	324116	keystroke_l	l	n/a
162.178	0.1045	324356	keystroke_e	e	n/a
162.3875	0.105	324775	keystroke_s	s	n/a
162.433	0.165	324866	keystroke_Key.space	Key.space	n/a
162.598	0.1195	325196	keystroke_l	l	n/a
162.7475	0.12	325495	keystroke_u	u	n/a
162.8975	0.1205	325795	keystroke_c	c	n/a
163.048	0.0895	326096	keystroke_k	k	n/a
163.2575	0.075	326515	keystroke_y	y	n/a
163.482	0.105	326964	keystroke_Key.enter	Key.enter	n/a
163.593	7.1215	327186	prompt	n/a	trademark resulted hudson proceed\n
164.278	0.105	328556	keystroke_t	t	n/a
164.4725	0.0905	328945	keystroke_r	r	n/a
164.683	0.135	329366	keystroke_a	a	n/a
164.893	0.075	329786	keystroke_d	d	n/a
165.058	0.09	330116	keystroke_e	e	n/a
165.238	0.149	330476	keystroke_m	m	n/a
165.358	0.195	330716	keystroke_a	a	n/a
165.523	0.09	331046	keystroke_r	r	n/a
165.718	0.105	331436	keystroke_k	k	n/a
165.913	0.135	331826	keystroke_Key.space	Key.space	n/a
166.288	0.12	332576	keystroke_r	r	n/a
166.438	0.105	332876	keystroke_e	e	n/a
166.708	0.1045	333416	keystroke_s	s	n/a
166.8725	0.1205	333745	keystroke_u	u	n/a
166.978	0.15	333956	keystroke_l	l	n/a
167.188	0.105	334376	keystroke_t	t	n/a
167.368	0.075	334736	keystroke_e	e	n/a
167.563	0.12	335126	keystroke_d	d	n/a
167.667	0.18	335334	keystroke_Key.space	Key.space	n/a
167.833	0.09	335666	keystroke_h	h	n/a
168.027	0.0905	336054	keystroke_u	u	n/a
168.208	0.0895	336416	keystroke_d	d	n/a
168.523	0.12	337046	keystroke_s	s	n/a
168.6275	0.1655	337255	keystroke_o	o	n/a
168.748	0.1345	337496	keystroke_n	n	n/a
168.958	0.135	337916	keystroke_Key.space	Key.space	n/a
169.138	0.0895	338276	keystroke_p	p	n/a
169.303	0.105	338606	keystroke_r	r	n/a
169.513	0.1345	339026	keystroke_o	o	n/a
169.8275	0.09	339655	keystroke_c	c	n/a
170.023	0.09	340046	keystroke_e	e	n/a
170.173	0.09	340346	keystroke_e	e	n/a
170.383	0.0745	340766	keystroke_d	d	n/a
170.6075	0.1055	341215	keystroke_Key.enter	Key.enter	n/a
170.7175	8.1115	341435	prompt	n/a	proportion analog forward organize\n
171.4925	0.1205	342985	keystroke_p	p	n/a
171.6275	0.075	343255	keystroke_r	r	n/a
171.733	0.194	343466	keystroke_o	o	n/a
171.867	0.075	343734	keystroke_p	p	n/a
172.603	0.12	345206	keystroke_o	o	n/a
172.7975	0.105	345595	keystroke_r	r	n/a
173.023	0.105	346046	keystroke_t	t	n/a
173.248	0.119	346496	keystroke_i	i	n/a
173.323	0.15	346646	keystroke_o	o	n/a
173.428	0.1345	346856	keystroke_n	n	n/a
173.578	0.1495	347156	keystroke_Key.space	Key.space	n/a
173.788	0.12	347576	keystroke_a	a	n/a
173.863	0.1495	347726	keystroke_n	n	n/a
174.0425	0.1055	348085	keystroke_a	a	n/a
174.178	0.09	348356	keystroke_l	l	n/a
174.4475	0.12	348895	keystroke_o	o	n/a
174.7175	0.0905	349435	keystroke_g	g	n/a
174.883	0.194	349766	keystroke_Key.space	Key.space	n/a
175.108	0.105	350216	keystroke_f	f	n/a
175.3175	0.1205	350635	keystroke_o	o	n/a
175.498	0.12	350996	keystroke_r	r	n/a
175.918	0.165	351836	keystroke_w	w	n/a
176.068	0.18	352136	keystroke_a	a	n/a
176.233	0.105	352466	keystroke_r	r	n/a
176.443	0.12	352886	keystroke_d	d	n/a
176.5475	0.165	353095	keystroke_Key.space	Key.space	n/a
176.7275	0.1205	353455	keystroke_o	o	n/a
176.788	0.1045	353576	keystroke_r	r	n/a
177.0125	0.06	354025	keystroke_a	a	n/a
177.3575	0.0895	354715	keystroke_Key.backspace	Key.backspace	n/a
177.477	0.076	354954	keystroke_g	g	n/a
177.883	0.0745	355766	keystroke_a	a	n/a
177.973	0.1195	355946	keystroke_n	n	n/a
178.1075	0.12	356215	keystroke_i	i	n/a
178.2725	0.1055	356545	keystroke_z	z	n/a
178.528	0.0595	357056	keystroke_e	e	n/a
178.738	0.0895	357476	keystroke_Key.enter	Key.enter	n/a
178.8325	10.047	357665	prompt	n/a	velocity lone thought republicans\n
179.593	0.075	359186	keystroke_v	v	n/a
179.7725	0.0905	359545	keystroke_e	e	n/a
179.9975	0.1055	359995	keystroke_l	l	n/a
180.1925	0.1205	360385	keystroke_o	o	n/a
180.3725	0.1205	360745	keystroke_c	c	n/a
180.538	0.12	361076	keystroke_i	i	n/a
180.838	0.075	361676	keystroke_t	t	n/a
180.988	0.09	361976	keystroke_y	y	n/a
181.122	0.121	362244	keystroke_Key.space	Key.space	n/a
181.273	0.09	362546	keystroke_l	l	n/a
181.453	0.165	362906	keystroke_o	o	n/a
181.587	0.151	363174	keystroke_n	n	n/a
181.7075	0.1805	363415	keystroke_e	e	n/a
181.828	0.165	363656	keystroke_Key.space	Key.space	n/a
182.233	0.06	364466	keystroke_t	t	n/a
182.323	0.15	364646	keystroke_h	h	n/a
182.863	0.195	365726	keystroke_o	o	n/a
183.0285	0.1195	366057	keystroke_u	u	n/a
183.223	0.105	366446	keystroke_g	g	n/a
183.598	0.12	367196	keystroke_h	h	n/a
183.778	0.105	367556	keystroke_t	t	n/a
183.913	0.09	367826	keystroke_Key.space	Key.space	n/a
184.138	0.1195	368276	keystroke_r	r	n/a
184.302	0.1355	368604	keystroke_e	e	n/a
184.4825	0.165	368965	keystroke_p	p	n/a
184.6175	0.09	369235	keystroke_o	o	n/a
185.0375	0.045	370075	keystroke_Key.backspace	Key.backspace	n/a
185.232	0.075	370464	keystroke_u	u	n/a
185.517	0.061	371034	keystroke_l	l	n/a
185.743	0.0895	371486	keystroke_b	b	n/a
185.907	0.09	371814	keystroke_i	i	n/a
186.2825	0.075	372565	keystroke_Key.backspace	Key.backspace	n/a
186.4325	0.0895	372865	keystroke_Key.backspace	Key.backspace	n/a
186.807	0.1055	373614	keystroke_Key.backspace	Key.backspace	n/a
187.752	0.1205	375504	keystroke_b	b	n/a
187.9025	0.135	375805	keystroke_l	l	n/a
188.008	0.165	376016	keystroke_i	i	n/a
188.1275	0.1055	376255	keystroke_c	c	n/a
188.2925	0.1505	376585	keystroke_a	a	n/a
188.4125	0.135	376825	keystroke_n	n	n/a
188.5625	0.09	377125	keystroke_s	s	n/a
188.7575	0.12	377515	keystroke_Key.enter	Key.enter	n/a
188.884	6.9705	377768	prompt	n/a	console challenges launches ambassador\n
189.688	0.12	379376	keystroke_c	c	n/a
189.868	0.15	379736	keystroke_o	o	n/a
190.003	0.1505	380006	keystroke_n	n	n/a
190.198	0.12	380396	keystroke_s	s	n/a
190.333	0.09	380666	keystroke_o	o	n/a
190.527	0.106	381054	keystroke_l	l	n/a
190.678	0.15	381356	keystroke_e	e	n/a
190.812	0.196	381624	keystroke_Key.space	Key.space	n/a
190.978	0.12	381956	keystroke_c	c	n/a
191.128	0.105	382256	keystroke_h	h	n/a
191.2335	0.1495	382467	keystroke_a	a	n/a
191.368	0.06	382736	keystroke_l	l	n/a
191.518	0.105	383036	keystroke_l	l	n/a
191.593	0.12	383186	keystroke_e	e	n/a
191.728	0.1495	383456	keystroke_n	n	n/a
191.863	0.09	383726	keystroke_g	g	n/a
192.0435	0.089	384087	keystroke_e	e	n/a
192.193	0.149	384386	keystroke_s	s	n/a
192.298	0.134	384596	keystroke_Key.space	Key.space	n/a
192.433	0.1505	384866	keystroke_l	l	n/a
192.5985	0.12	385197	keystroke_a	a	n/a
192.7035	0.0895	385407	keystroke_u	u	n/a
192.9125	0.075	385825	keystroke_n	n	n/a
193.0625	0.12	386125	keystroke_c	c	n/a
193.228	0.12	386456	keystroke_h	h	n/a
193.333	0.105	386666	keystroke_e	e	n/a
193.528	0.1195	387056	keystroke_s	s	n/a
193.618	0.165	387236	keystroke_Key.space	Key.space	n/a
193.798	0.1495	387596	keystroke_a	a	n/a
193.933	0.135	387866	keystroke_m	m	n/a
194.188	0.12	388376	keystroke_g	g	n/a
194.427	0.121	388854	keystroke_a	a	n/a
194.608	0.105	389216	keystroke_s	s	n/a
194.803	0.075	389606	keystroke_s	s	n/a
194.953	0.18	389906	keystroke_a	a	n/a
195.118	0.105	390236	keystroke_d	d	n/a
195.268	0.18	390536	keystroke_o	o	n/a
195.493	0.075	390986	keystroke_r	r	n/a
195.7325	0.12	391465	keystroke_Key.enter	Key.enter	n/a
195.8585	7.091	391717	prompt	n/a	eddie cant lookup briefly\n
196.618	0.105	393236	keystroke_e	e	n/a
196.873	0.0755	393746	keystroke_d	d	n/a
197.068	0.0745	394136	keystroke_d	d	n/a
197.353	0.105	394706	keystroke_i	i	n/a
197.518	0.0905	395036	keystroke_e	e	n/a
197.728	0.1495	395456	keystroke_Key.space	Key.space	n/a
197.9075	0.1045	395815	keystroke_c	c	n/a
198.028	0.12	396056	keystroke_a	a	n/a
198.148	0.135	396296	keystroke_n	n	n/a
198.5075	0.105	397015	keystroke_t	t	n/a
198.7175	0.12	397435	keystroke_Key.space	Key.space	n/a
198.853	0.09	397706	keystroke_l	l	n/a
199.048	0.0755	398096	keystroke_o	o	n/a
199.468	0.12	398936	keystroke_o	o	n/a
199.7075	0.0905	399415	keystroke_k	k	n/a
199.9175	0.121	399835	keystroke_u	u	n/a
200.0535	0.119	400107	keystroke_p	p	n/a
200.308	0.105	400616	keystroke_b	b	n/a
200.773	0.105	401546	keystroke_Key.backspace	Key.backspace	n/a
200.9375	0.1655	401875	keystroke_Key.space	Key.space	n/a
201.088	0.06	402176	keystroke_b	b	n/a
201.343	0.075	402686	keystroke_r	r	n/a
201.4775	0.1055	402955	keystroke_i	i	n/a
201.613	0.105	403226	keystroke_e	e	n/a
202.1075	0.105	404215	keystroke_f	f	n/a
202.378	0.0745	404756	keystroke_l	l	n/a
202.603	0.0745	405206	keystroke_y	y	n/a
202.843	0.105	405686	keystroke_Key.enter	Key.enter	n/a
202.954	7.691	405908	prompt	n/a	equivalent contemporary trap threatened\n
203.773	0.105	407546	keystroke_e	e	n/a
204.0875	0.12	408175	keystroke_q	q	n/a
204.238	0.12	408476	keystroke_u	u	n/a
204.3725	0.12	408745	keystroke_i	i	n/a
204.628	0.12	409256	keystroke_v	v	n/a
204.853	0.1045	409706	keystroke_a	a	n/a
204.973	0.135	409946	keystroke_l	l	n/a
205.138	0.0755	410276	keystroke_e	e	n/a
205.318	0.15	410636	keystroke_n	n	n/a
205.453	0.135	410906	keystroke_t	t	n/a
205.573	0.105	411146	keystroke_Key.space	Key.space	n/a
205.782	0.136	411564	keystroke_c	c	n/a
205.978	0.119	411956	keystroke_o	o	n/a
206.038	0.1345	412076	keystroke_n	n	n/a
206.248	0.09	412496	keystroke_t	t	n/a
206.503	0.105	413006	keystroke_e	e	n/a
206.623	0.15	413246	keystroke_m	m	n/a
206.848	0.1795	413696	keystroke_p	p	n/a
206.983	0.1505	413966	keystroke_o	o	n/a
207.1185	0.1045	414237	keystroke_r	r	n/a
207.328	0.165	414656	keystroke_a	a	n/a
207.448	0.1195	414896	keystroke_r	r	n/a
207.5975	0.1055	415195	keystroke_y	y	n/a
207.718	0.18	415436	keystroke_Key.space	Key.space	n/a
207.853	0.105	415706	keystroke_t	t	n/a
208.048	0.09	416096	keystroke_r	r	n/a
208.228	0.1505	416456	keystroke_a	a	n/a
208.363	0.1205	416726	keystroke_p	p	n/a
208.528	0.195	417056	keystroke_Key.space	Key.space	n/a
208.678	0.12	417356	keystroke_t	t	n/a
208.783	0.135	417566	keystroke_h	h	n/a
208.963	0.12	417926	keystroke_r	r	n/a
209.1435	0.0745	418287	keystroke_e	e	n/a
209.3525	0.1505	418705	keystroke_a	a	n/a
209.473	0.1195	418946	keystroke_t	t	n/a
209.6375	0.12	419275	keystroke_e	e	n/a
209.788	0.1345	419576	keystroke_n	n	n/a
209.9835	0.119	419967	keystroke_e	e	n/a
210.238	0.09	420476	keystroke_d	d	n/a
210.538	0.105	421076	keystroke_Key.enter	Key.enter	n/a
210.6485	4.556	421297	prompt	n/a	devon windows sunny thanks\n
211.333	0.105	422666	keystroke_d	d	n/a
211.4975	0.075	422995	keystroke_e	e	n/a
211.7075	0.075	423415	keystroke_v	v	n/a
211.8435	0.1645	423687	keystroke_o	o	n/a
211.963	0.1345	423926	keystroke_n	n	n/a
212.0675	0.18	424135	keystroke_Key.space	Key.space	n/a
212.218	0.12	424436	keystroke_w	w	n/a
212.3525	0.136	424705	keystroke_i	i	n/a
212.4725	0.1055	424945	keystroke_n	n	n/a
212.5635	0.119	425127	keystroke_d	d	n/a
212.7275	0.121	425455	keystroke_o	o	n/a
212.863	0.09	425726	keystroke_w	w	n/a
213.073	0.105	426146	keystroke_s	s	n/a
213.148	0.18	426296	keystroke_Key.space	Key.space	n/a
213.298	0.18	426596	keystroke_s	s	n/a
213.4335	0.0895	426867	keystroke_u	u	n/a
213.657	0.046	427314	keystroke_n	n	n/a
213.868	0.015	427736	keystroke_n	n	n/a
214.0025	0.0295	428005	keystroke_y	y	n/a
214.108	0.119	428216	keystroke_Key.space	Key.space	n/a
214.2725	0.1055	428545	keystroke_t	t	n/a
214.378	0.09	428756	keystroke_h	h	n/a
214.483	0.15	428966	keystroke_a	a	n/a
214.603	0.12	429206	keystroke_n	n	n/a
214.723	0.105	429446	keystroke_k	k	n/a
214.873	0.09	429746	keystroke_s	s	n/a
215.053	0.15	430106	keystroke_Key.enter	Key.enter	n/a
215.208	5.171	430416	prompt	n/a	grounds grows becomes spots\n
215.818	0.0745	431636	keystroke_g	g	n/a
215.983	0.075	431966	keystroke_r	r	n/a
216.0875	0.165	432175	keystroke_o	o	n/a
216.1925	0.1205	432385	keystroke_u	u	n/a
216.433	0.09	432866	keystroke_n	n	n/a
216.583	0.075	433166	keystroke_d	d	n/a
216.7625	0.121	433525	keystroke_s	s	n/a
216.853	0.1945	433706	keystroke_Key.space	Key.space	n/a
217.003	0.09	434006	keystroke_g	g	n/a
217.183	0.075	434366	keystroke_r	r	n/a
217.3185	0.1195	434637	keystroke_o	o	n/a
217.4535	0.1045	434907	keystroke_w	w	n/a
217.678	0.105	435356	keystroke_s	s	n/a
217.753	0.21	435506	keystroke_Key.space	Key.space	n/a
217.948	0.075	435896	keystroke_b	b	n/a
218.203	0.075	436406	keystroke_e	e	n/a
218.3985	0.0895	436797	keystroke_c	c	n/a
218.533	0.1645	437066	keystroke_o	o	n/a
218.668	0.1345	437336	keystroke_m	m	n/a
218.728	0.1055	437456	keystroke_e	e	n/a
218.908	0.135	437816	keystroke_s	s	n/a
219.0125	0.1805	438025	keystroke_Key.space	Key.space	n/a
219.193	0.15	438386	keystroke_s	s	n/a
219.373	0.1495	438746	keystroke_p	p	n/a
219.5525	0.1205	439105	keystroke_o	o	n/a
219.853	0.09	439706	keystroke_t	t	n/a
220.063	0.105	440126	keystroke_s	s	n/a
220.2575	0.1205	440515	keystroke_Key.enter	Key.enter	n/a
220.3825	6.642	440765	prompt	n/a	align cult suddenly segments\n
221.038	0.1505	442076	keystroke_a	a	n/a
221.1585	0.135	442317	keystroke_l	l	n/a
221.3085	0.1195	442617	keystroke_i	i	n/a
221.458	0.105	442916	keystroke_g	g	n/a
221.773	0.075	443546	keystroke_n	n	n/a
221.908	0.135	443816	keystroke_Key.space	Key.space	n/a
222.103	0.105	444206	keystroke_c	c	n/a
222.2375	0.1055	444475	keystroke_u	u	n/a
222.4185	0.135	444837	keystroke_l	l	n/a
222.5975	0.1355	445195	keystroke_t	t	n/a
222.7175	0.091	445435	keystroke_Key.space	Key.space	n/a
222.9275	0.1205	445855	keystroke_s	s	n/a
223.123	0.075	446246	keystroke_u	u	n/a
223.3025	0.105	446605	keystroke_d	d	n/a
223.4825	0.0755	446965	keystroke_d	d	n/a
223.6625	0.061	447325	keystroke_e	e	n/a
223.7385	0.104	447477	keystroke_n	n	n/a
223.8585	0.074	447717	keystroke_t	t	n/a
224.4125	0.06	448825	keystroke_Key.backspace	Key.backspace	n/a
224.623	0.075	449246	keystroke_l	l	n/a
224.8175	0.06	449635	keystroke_y	y	n/a
225.148	0.15	450296	keystroke_Key.space	Key.space	n/a
225.388	0.12	450776	keystroke_s	s	n/a
225.613	0.1045	451226	keystroke_e	e	n/a
225.958	0.0755	451916	keystroke_g	g	n/a
226.1535	0.1345	452307	keystroke_m	m	n/a
226.2435	0.134	452487	keystroke_e	e	n/a
226.3625	0.105	452725	keystroke_n	n	n/a
226.4825	0.075	452965	keystroke_t	t	n/a
226.678	0.1055	453356	keystroke_s	s	n/a
226.918	0.1045	453836	keystroke_Key.enter	Key.enter	n/a
227.031	6.4885	454062	prompt	n/a	divisions honda decreased andrea\n
227.6825	0.09	455365	keystroke_d	d	n/a
227.8035	0.149	455607	keystroke_i	i	n/a
228.0125	0.1205	456025	keystroke_v	v	n/a
228.252	0.061	456504	keystroke_i	i	n/a
228.3735	0.12	456747	keystroke_s	s	n/a
228.538	0.18	457076	keystroke_i	i	n/a
228.703	0.135	457406	keystroke_o	o	n/a
228.913	0.105	457826	keystroke_n	n	n/a
229.3025	0.15	458605	keystroke_s	s	n/a
229.4375	0.15	458875	keystroke_Key.space	Key.space	n/a
229.7075	0.135	459415	keystroke_h	h	n/a
229.8275	0.135	459655	keystroke_o	o	n/a
229.9925	0.1055	459985	keystroke_n	n	n/a
230.128	0.105	460256	keystroke_d	d	n/a
230.323	0.1355	460646	keystroke_a	a	n/a
230.4425	0.1655	460885	keystroke_Key.space	Key.space	n/a
230.5935	0.074	461187	keystroke_d	d	n/a
230.743	0.0905	461486	keystroke_e	e	n/a
230.952	0.0765	461904	keystroke_c	c	n/a
231.1485	0.0885	462297	keystroke_r	r	n/a
231.2835	0.1195	462567	keystroke_e	e	n/a
231.478	0.21	462956	keystroke_a	a	n/a
231.673	0.135	463346	keystroke_s	s	n/a
231.823	0.0905	463646	keystroke_e	e	n/a
232.018	0.12	464036	keystroke_d	d	n/a
232.1225	0.165	464245	keystroke_Key.space	Key.space	n/a
232.273	0.1495	464546	keystroke_a	a	n/a
232.4075	0.1205	464815	keystroke_n	n	n/a
232.6185	0.1345	465237	keystroke_d	d	n/a
232.8885	0.09	465777	keystroke_r	r	n/a
233.0375	0.105	466075	keystroke_e	e	n/a
233.2035	0.1195	466407	keystroke_a	a	n/a
233.3825	0.1355	466765	keystroke_Key.enter	Key.enter	n/a
233.5235	7.646	467047	prompt	n/a	magnitude pleased tuesday messages\n
234.2085	0.075	468417	keystroke_m	m	n/a
234.3125	0.151	468625	keystroke_a	a	n/a
234.5235	0.0895	469047	keystroke_g	g	n/a
234.7635	0.1195	469527	keystroke_n	n	n/a
234.913	0.1195	469826	keystroke_i	i	n/a
235.093	0.1055	470186	keystroke_t	t	n/a
235.3025	0.135	470605	keystroke_u	u	n/a
235.558	0.0905	471116	keystroke_d	d	n/a
235.7375	0.091	471475	keystroke_e	e	n/a
235.8585	0.1645	471717	keystroke_Key.space	Key.space	n/a
236.038	0.1205	472076	keystroke_p	p	n/a
236.248	0.0905	472496	keystroke_l	l	n/a
236.353	0.12	472706	keystroke_e	e	n/a
236.548	0.27	473096	keystroke_a	a	n/a
236.728	0.15	473456	keystroke_s	s	n/a
236.968	0.0895	473936	keystroke_e	e	n/a
237.178	0.12	474356	keystroke_d	d	n/a
237.2525	0.195	474505	keystroke_Key.space	Key.space	n/a
237.418	0.135	474836	keystroke_t	t	n/a
237.688	0.105	475376	keystroke_h	h	n/a
238.288	0.06	476576	keystroke_Key.backspace	Key.backspace	n/a
238.4835	0.0745	476967	keystroke_u	u	n/a
238.588	0.1055	477176	keystroke_e	e	n/a
238.828	0.105	477656	keystroke_s	s	n/a
239.008	0.1045	478016	keystroke_d	d	n/a
239.1435	0.18	478287	keystroke_a	a	n/a
239.3235	0.074	478647	keystroke_y	y	n/a
239.428	0.15	478856	keystroke_Key.space	Key.space	n/a
239.6075	0.15	479215	keystroke_m	m	n/a
239.7425	0.12	479485	keystroke_e	e	n/a
239.923	0.09	479846	keystroke_s	s	n/a
240.103	0.0905	480206	keystroke_s	s	n/a
240.2385	0.135	480477	keystroke_a	a	n/a
240.343	0.12	480686	keystroke_g	g	n/a
240.5535	0.0895	481107	keystroke_e	e	n/a
240.733	0.12	481466	keystroke_s	s	n/a
241.078	0.09	482156	keystroke_Key.enter	Key.enter	n/a
241.1745	7.045	482349	prompt	n/a	collective ivory challenge battlefield\n
241.858	0.135	483716	keystroke_c	c	n/a
242.008	0.1055	484016	keystroke_o	o	n/a
242.203	0.06	484406	keystroke_l	l	n/a
242.368	0.0905	484736	keystroke_l	l	n/a
242.4735	0.0895	484947	keystroke_e	e	n/a
242.668	0.06	485336	keystroke_c	c	n/a
242.8635	0.0595	485727	keystroke_t	t	n/a
243.013	0.105	486026	keystroke_i	i	n/a
243.163	0.0755	486326	keystroke_v	v	n/a
243.3585	0.1495	486717	keystroke_e	e	n/a
243.478	0.151	486956	keystroke_Key.space	Key.space	n/a
243.673	0.1355	487346	keystroke_i	i	n/a
243.958	0.12	487916	keystroke_v	v	n/a
244.1685	0.135	488337	keystroke_o	o	n/a
244.3185	0.09	488637	keystroke_r	r	n/a
244.4835	0.075	488967	keystroke_y	y	n/a
244.5875	0.1355	489175	keystroke_Key.space	Key.space	n/a
244.768	0.1195	489536	keystroke_c	c	n/a
244.9035	0.12	489807	keystroke_h	h	n/a
245.0535	0.164	490107	keystroke_a	a	n/a
245.2035	0.074	490407	keystroke_l	l	n/a
245.368	0.135	490736	keystroke_l	l	n/a
245.488	0.105	490976	keystroke_e	e	n/a
245.638	0.1205	491276	keystroke_n	n	n/a
245.773	0.09	491546	keystroke_g	g	n/a
245.9535	0.1195	491907	keystroke_e	e	n/a
246.058	0.165	492116	keystroke_Key.space	Key.space	n/a
246.2685	0.0745	492537	keystroke_b	b	n/a
246.4485	0.1345	492897	keystroke_a	a	n/a
246.613	0.09	493226	keystroke_t	t	n/a
246.778	0.12	493556	keystroke_t	t	n/a
246.973	0.105	493946	keystroke_l	l	n/a
247.093	0.105	494186	keystroke_e	e	n/a
247.333	0.1055	494666	keystroke_f	f	n/a
247.4825	0.105	494965	keystroke_i	i	n/a
247.6185	0.119	495237	keystroke_e	e	n/a
247.7525	0.136	495505	keystroke_l	l	n/a
247.903	0.1055	495806	keystroke_d	d	n/a
248.1125	0.1055	496225	keystroke_Key.enter	Key.enter	n/a
248.223	6.912	496446	prompt	n/a	indie administration nursery echo\n
248.908	0.09	497816	keystroke_i	i	n/a
249.043	0.105	498086	keystroke_n	n	n/a
249.163	0.1505	498326	keystroke_d	d	n/a
249.343	0.1055	498686	keystroke_i	i	n/a
249.4935	0.1495	498987	keystroke_e	e	n/a
249.6125	0.1655	499225	keystroke_Key.space	Key.space	n/a
249.838	0.15	499676	keystroke_a	a	n/a
249.973	0.105	499946	keystroke_d	d	n/a
250.108	0.1355	500216	keystroke_m	m	n/a
250.288	0.1195	500576	keystroke_i	i	n/a
250.4085	0.135	500817	keystroke_n	n	n/a
250.558	0.1055	501116	keystroke_i	i	n/a
250.8575	0.121	501715	keystroke_s	s	n/a
251.0835	0.059	502167	keystroke_t	t	n/a
251.233	0.075	502466	keystroke_r	r	n/a
251.383	0.1205	502766	keystroke_i	i	n/a
251.5785	0.1645	503157	keystroke_a	a	n/a
251.728	0.0745	503456	keystroke_t	t	n/a
251.8485	0.1645	503697	keystroke_i	i	n/a
251.9975	0.106	503995	keystroke_o	o	n/a
252.1925	0.0905	504385	keystroke_n	n	n/a
252.343	0.165	504686	keystroke_Key.space	Key.space	n/a
252.628	0.09	505256	keystroke_n	n	n/a
252.809	0.075	505618	keystroke_u	u	n/a
252.958	0.1045	505916	keystroke_r	r	n/a
253.1525	0.151	506305	keystroke_s	s	n/a
253.2725	0.1655	506545	keystroke_e	e	n/a
253.708	0.135	507416	keystroke_r	r	n/a
253.888	0.09	507776	keystroke_y	y	n/a
254.068	0.15	508136	keystroke_Key.space	Key.space	n/a
254.203	0.0905	508406	keystroke_e	e	n/a
254.443	0.09	508886	keystroke_c	c	n/a
254.563	0.1055	509126	keystroke_h	h	n/a
254.803	0.0905	509606	keystroke_o	o	n/a
255.028	0.105	510056	keystroke_Key.enter	Key.enter	n/a
255.139	6.1755	510278	prompt	n/a	everywhere sending miniature drove\n
255.7635	0.089	511527	keystroke_e	e	n/a
255.9575	0.076	511915	keystroke_v	v	n/a
256.1385	0.1195	512277	keystroke_e	e	n/a
256.1985	0.135	512397	keystroke_r	r	n/a
256.378	0.1055	512756	keystroke_y	y	n/a
256.5135	0.1795	513027	keystroke_w	w	n/a
256.6625	0.1055	513325	keystroke_h	h	n/a
256.783	0.135	513566	keystroke_e	e	n/a
256.918	0.15	513836	keystroke_r	r	n/a
257.053	0.1055	514106	keystroke_e	e	n/a
257.263	0.135	514526	keystroke_Key.space	Key.space	n/a
257.4885	0.1195	514977	keystroke_s	s	n/a
257.5785	0.1345	515157	keystroke_e	e	n/a
257.743	0.12	515486	keystroke_n	n	n/a
257.864	0.104	515728	keystroke_d	d	n/a
258.028	0.15	516056	keystroke_i	i	n/a
258.148	0.105	516296	keystroke_n	n	n/a
258.238	0.1205	516476	keystroke_g	g	n/a
258.313	0.12	516626	keystroke_Key.space	Key.space	n/a
258.448	0.1355	516896	keystroke_m	m	n/a
258.6275	0.136	517255	keystroke_i	i	n/a
258.7485	0.105	517497	keystroke_n	n	n/a
259.048	0.1055	518096	keystroke_i	i	n/a
259.2735	0.1495	518547	keystroke_a	a	n/a
259.4675	0.09	518935	keystroke_t	t	n/a
259.603	0.1345	519206	keystroke_u	u	n/a
259.7225	0.1055	519445	keystroke_r	r	n/a
259.8725	0.105	519745	keystroke_e	e	n/a
260.0675	0.1955	520135	keystroke_Key.space	Key.space	n/a
260.233	0.1505	520466	keystroke_d	d	n/a
260.3525	0.1205	520705	keystroke_r	r	n/a
260.6825	0.136	521365	keystroke_o	o	n/a
260.803	0.0745	521606	keystroke_v	v	n/a
261.013	0.0595	522026	keystroke_e	e	n/a
261.2225	0.09	522445	keystroke_Key.enter	Key.enter	n/a
261.3175	6.9575	522635	prompt	n/a	feedback colon referral sending\n
261.8675	0.106	523735	keystroke_f	f	n/a
262.063	0.06	524126	keystroke_e	e	n/a
262.213	0.09	524426	keystroke_e	e	n/a
262.423	0.075	524846	keystroke_d	d	n/a
262.6475	0.046	525295	keystroke_b	b	n/a
262.843	0.1505	525686	keystroke_a	a	n/a
263.0375	0.106	526075	keystroke_c	c	n/a
263.2035	0.0745	526407	keystroke_k	k	n/a
263.3225	0.1655	526645	keystroke_Key.space	Key.space	n/a
263.5485	0.119	527097	keystroke_c	c	n/a
263.6985	0.12	527397	keystroke_o	o	n/a
263.923	0.075	527846	keystroke_l	l	n/a
264.103	0.09	528206	keystroke_o	o	n/a
264.313	0.0755	528626	keystroke_n	n	n/a
264.4175	0.1355	528835	keystroke_g	g	n/a
264.538	0.0295	529076	keystroke_Key.space	Key.space	n/a
264.8985	0.1345	529797	keystroke_r	r	n/a
265.063	0.12	530126	keystroke_e	e	n/a
265.273	0.105	530546	keystroke_f	f	n/a
265.4825	0.136	530965	keystroke_e	e	n/a
265.5735	0.104	531147	keystroke_r	r	n/a
265.783	0.1205	531566	keystroke_r	r	n/a
266.4285	0.134	532857	keystroke_a	a	n/a
266.593	0.1355	533186	keystroke_l	l	n/a
266.6835	0.179	533367	keystroke_Key.space	Key.space	n/a
267.0135	0.195	534027	keystroke_s	s	n/a
267.2235	0.105	534447	keystroke_e	e	n/a
267.3735	0.1045	534747	keystroke_n	n	n/a
267.508	0.1045	535016	keystroke_d	d	n/a
267.6725	0.1505	535345	keystroke_i	i	n/a
267.7925	0.1205	535585	keystroke_n	n	n/a
267.8985	0.12	535797	keystroke_g	g	n/a
268.1375	0.135	536275	keystroke_Key.enter	Key.enter	n/a
268.2795	6.73	536559	prompt	n/a	pools coins settled influences\n
268.9325	0.165	537865	keystroke_p	p	n/a
269.083	0.09	538166	keystroke_o	o	n/a
269.2775	0.09	538555	keystroke_o	o	n/a
269.473	0.105	538946	keystroke_l	l	n/a
269.638	0.12	539276	keystroke_s	s	n/a
269.728	0.18	539456	keystroke_Key.space	Key.space	n/a
270.298	0.135	540596	keystroke_c	c	n/a
270.448	0.195	540896	keystroke_o	o	n/a
270.568	0.18	541136	keystroke_i	i	n/a
270.733	0.105	541466	keystroke_n	n	n/a
270.9435	0.1195	541887	keystroke_s	s	n/a
271.078	0.18	542156	keystroke_Key.space	Key.space	n/a
271.363	0.1505	542726	keystroke_s	s	n/a
271.4985	0.119	542997	keystroke_e	e	n/a
271.7075	0.075	543415	keystroke_t	t	n/a
271.8425	0.121	543685	keystroke_t	t	n/a
271.9935	0.1495	543987	keystroke_l	l	n/a
272.0975	0.091	544195	keystroke_e	e	n/a
272.308	0.09	544616	keystroke_d	d	n/a
272.368	0.165	544736	keystroke_Key.space	Key.space	n/a
272.518	0.1505	545036	keystroke_i	i	n/a
272.638	0.1055	545276	keystroke_n	n	n/a
272.788	0.12	545576	keystroke_c	c	n/a
272.953	0.105	545906	keystroke_l	l	n/a
273.178	0.076	546356	keystroke_u	u	n/a
273.3585	0.134	546717	keystroke_e	e	n/a
273.5075	0.1205	547015	keystroke_n	n	n/a
273.7485	0.1045	547497	keystroke_c	c	n/a
273.943	0.12	547886	keystroke_e	e	n/a
274.1525	0.1205	548305	keystroke_s	s	n/a
274.903	0.1045	549806	keystroke_Key.enter	Key.enter	n/a
275.014	5.0355	550028	prompt	n/a	pizza jersey donate failing\n
275.713	0.1495	551426	keystroke_p	p	n/a
275.848	0.135	551696	keystroke_i	i	n/a
276.013	0.075	552026	keystroke_z	z	n/a
276.1925	0.076	552385	keystroke_z	z	n/a
276.3875	0.075	552775	keystroke_a	a	n/a
276.493	0.1345	552986	keystroke_Key.space	Key.space	n/a
276.794	0.1195	553588	keystroke_j	j	n/a
276.9275	0.136	553855	keystroke_e	e	n/a
277.0185	0.105	554037	keystroke_r	r	n/a
277.228	0.1505	554456	keystroke_s	s	n/a
277.3485	0.134	554697	keystroke_e	e	n/a
277.4985	0.09	554997	keystroke_y	y	n/a
277.6025	0.165	555205	keystroke_Key.space	Key.space	n/a
277.7525	0.135	555505	keystroke_d	d	n/a
277.8725	0.1505	555745	keystroke_o	o	n/a
277.9785	0.134	555957	keystroke_n	n	n/a
278.143	0.1495	556286	keystroke_a	a	n/a
278.2625	0.09	556525	keystroke_t	t	n/a
278.4275	0.1355	556855	keystroke_e	e	n/a
278.5325	0.195	557065	keystroke_Key.space	Key.space	n/a
278.698	0.105	557396	keystroke_f	f	n/a
278.923	0.1505	557846	keystroke_a	a	n/a
279.1025	0.15	558205	keystroke_i	i	n/a
279.2375	0.195	558475	keystroke_l	l	n/a
279.4025	0.09	558805	keystroke_i	i	n/a
279.613	0.075	559226	keystroke_n	n	n/a
279.7175	0.105	559435	keystroke_g	g	n/a
279.928	0.1195	559856	keystroke_Key.enter	Key.enter	n/a
280.054	9.476	560108	prompt	n/a	discussion nirvana livecam springfield\n
280.708	0.12	561416	keystroke_d	d	n/a
280.843	0.18	561686	keystroke_i	i	n/a
280.978	0.105	561956	keystroke_s	s	n/a
281.1585	0.1195	562317	keystroke_c	c	n/a
281.2935	0.1195	562587	keystroke_u	u	n/a
281.428	0.0755	562856	keystroke_s	s	n/a
281.593	0.105	563186	keystroke_s	s	n/a
281.713	0.12	563426	keystroke_i	i	n/a
281.8485	0.1345	563697	keystroke_o	o	n/a
281.9685	0.1045	563937	keystroke_n	n	n/a
282.103	0.1495	564206	keystroke_Key.space	Key.space	n/a
282.2825	0.1055	564565	keystroke_n	n	n/a
282.478	0.105	564956	keystroke_o	o	n/a
282.928	0.0755	565856	keystroke_Key.backspace	Key.backspace	n/a
283.1385	0.075	566277	keystroke_i	i	n/a
283.2585	0.1045	566517	keystroke_r	r	n/a
283.618	0.12	567236	keystroke_v	v	n/a
283.814	0.149	567628	keystroke_a	a	n/a
283.9485	0.134	567897	keystroke_n	n	n/a
284.143	0.1195	568286	keystroke_a	a	n/a
284.3825	0.135	568765	keystroke_Key.space	Key.space	n/a
284.5935	0.15	569187	keystroke_l	l	n/a
284.8925	0.106	569785	keystroke_i	i	n/a
285.0435	0.0895	570087	keystroke_v	v	n/a
285.238	0.0895	570476	keystroke_e	e	n/a
285.448	0.09	570896	keystroke_c	c	n/a
285.6125	0.166	571225	keystroke_a	a	n/a
285.748	0.1345	571496	keystroke_m	m	n/a
286.1075	0.135	572215	keystroke_Key.space	Key.space	n/a
286.3785	0.0895	572757	keystroke_s	s	n/a
286.5275	0.136	573055	keystroke_p	p	n/a
286.693	0.09	573386	keystroke_r	r	n/a
286.828	0.12	573656	keystroke_i	i	n/a
286.963	0.0455	573926	keystroke_i	i	n/a
286.9925	0.105	573985	keystroke_n	n	n/a
287.1125	0.106	574225	keystroke_g	g	n/a
287.533	0.0305	575066	keystroke_d	d	n/a
288.238	0.09	576476	keystroke_Key.backspace	Key.backspace	n/a
288.658	0.0905	577316	keystroke_f	f	n/a
288.853	0.09	577706	keystroke_i	i	n/a
288.9585	0.1045	577917	keystroke_e	e	n/a
289.093	0.1205	578186	keystroke_l	l	n/a
289.228	0.075	578456	keystroke_d	d	n/a
289.438	0.0895	578876	keystroke_Key.enter	Key.enter	n/a
289.541	7.9085	579082	prompt	n/a	island possibilities casting irrigation\n
290.2035	0.12	580407	keystroke_i	i	n/a
290.3685	0.1345	580737	keystroke_s	s	n/a
290.623	0.1055	581246	keystroke_l	l	n/a
290.7285	0.135	581457	keystroke_a	a	n/a
290.8335	0.105	581667	keystroke_n	n	n/a
290.9675	0.136	581935	keystroke_d	d	n/a
291.058	0.18	582116	keystroke_Key.space	Key.space	n/a
291.2235	0.1345	582447	keystroke_p	p	n/a
291.3135	0.165	582627	keystroke_o	o	n/a
291.5375	0.09	583075	keystroke_s	s	n/a
291.7035	0.1045	583407	keystroke_s	s	n/a
291.823	0.105	583646	keystroke_i	i	n/a
292.3485	0.0145	584697	keystroke_b	b	n/a
292.438	0.1655	584876	keystroke_i	i	n/a
292.6485	0.195	585297	keystroke_l	l	n/a
292.8135	0.09	585627	keystroke_i	i	n/a
292.9325	0.091	585865	keystroke_t	t	n/a
293.1435	0.105	586287	keystroke_i	i	n/a
293.7425	0.105	587485	keystroke_e	e	n/a
293.9385	0.135	587877	keystroke_s	s	n/a
294.0285	0.2395	588057	keystroke_Key.space	Key.space	n/a
294.208	0.1355	588416	keystroke_c	c	n/a
294.373	0.2105	588746	keystroke_a	a	n/a
294.568	0.075	589136	keystroke_s	s	n/a
294.808	0.015	589616	keystroke_t	t	n/a
294.913	0.1805	589826	keystroke_i	i	n/a
295.0485	0.1195	590097	keystroke_n	n	n/a
295.1535	0.1195	590307	keystroke_g	g	n/a
295.243	0.135	590486	keystroke_Key.space	Key.space	n/a
295.453	0.135	590906	keystroke_i	i	n/a
295.603	0.075	591206	keystroke_r	r	n/a
295.753	0.12	591506	keystroke_r	r	n/a
295.9935	0.1195	591987	keystroke_i	i	n/a
296.3075	0.09	592615	keystroke_g	g	n/a
296.5775	0.1355	593155	keystroke_a	a	n/a
296.7285	0.059	593457	keystroke_t	t	n/a
296.8625	0.1505	593725	keystroke_i	i	n/a
296.9975	0.18	593995	keystroke_o	o	n/a
297.1475	0.09	594295	keystroke_n	n	n/a
297.373	0.0755	594746	keystroke_Key.enter	Key.enter	n/a
297.456	6.3985	594912	prompt	n/a	focal councils validation rock\n
298.0485	0.149	596097	keystroke_f	f	n/a
298.2125	0.09	596425	keystroke_o	o	n/a
298.2875	0.1055	596575	keystroke_c	c	n/a
298.4825	0.165	596965	keystroke_a	a	n/a
298.6325	0.105	597265	keystroke_l	l	n/a
298.7685	0.209	597537	keystroke_Key.space	Key.space	n/a
298.9785	0.1195	597957	keystroke_c	c	n/a
299.1125	0.1505	598225	keystroke_o	o	n/a
299.2185	0.089	598437	keystroke_u	u	n/a
299.473	0.015	598946	keystroke_n	n	n/a
299.563	0.12	599126	keystroke_c	c	n/a
299.7435	0.1045	599487	keystroke_i	i	n/a
299.8785	0.12	599757	keystroke_l	l	n/a
300.0585	0.1645	600117	keystroke_s	s	n/a
300.178	0.225	600356	keystroke_Key.space	Key.space	n/a
300.7785	0.1045	601557	keystroke_v	v	n/a
300.988	0.1355	601976	keystroke_a	a	n/a
301.318	0.12	602636	keystroke_l	l	n/a
301.558	0.106	603116	keystroke_i	i	n/a
301.678	0.12	603356	keystroke_d	d	n/a
301.8735	0.1195	603747	keystroke_a	a	n/a
302.023	0.09	604046	keystroke_t	t	n/a
302.2335	0.089	604467	keystroke_i	i	n/a
302.3235	0.195	604647	keystroke_o	o	n/a
302.533	0.0905	605066	keystroke_n	n	n/a
302.6085	0.195	605217	keystroke_Key.space	Key.space	n/a
302.7735	0.12	605547	keystroke_r	r	n/a
303.0885	0.09	606177	keystroke_o	o	n/a
303.3585	0.1345	606717	keystroke_c	c	n/a
303.5235	0.1195	607047	keystroke_k	k	n/a
303.763	0.09	607526	keystroke_Key.enter	Key.enter	n/a
303.859	6.401	607718	prompt	n/a	corpus resort abuse olive\n
304.559	0.104	609118	keystroke_c	c	n/a
304.708	0.105	609416	keystroke_o	o	n/a
304.8285	0.06	609657	keystroke_r	r	n/a
305.023	0.12	610046	keystroke_p	p	n/a
305.173	0.0905	610346	keystroke_u	u	n/a
305.323	0.15	610646	keystroke_s	s	n/a
305.443	0.135	610886	keystroke_Key.space	Key.space	n/a
305.683	0.09	611366	keystroke_r	r	n/a
305.818	0.075	611636	keystroke_e	e	n/a
306.073	0.1355	612146	keystroke_s	s	n/a
306.3125	0.091	612625	keystroke_o	o	n/a
306.5985	0.09	613197	keystroke_r	r	n/a
306.8235	0.0745	613647	keystroke_t	t	n/a
306.973	0.15	613946	keystroke_Key.space	Key.space	n/a
307.2425	0.18	614485	keystroke_a	a	n/a
307.3925	0.091	614785	keystroke_b	b	n/a
307.5585	0.1045	615117	keystroke_u	u	n/a
307.693	0.15	615386	keystroke_s	s	n/a
307.8285	0.12	615657	keystroke_e	e	n/a
307.978	0.15	615956	keystroke_Key.space	Key.space	n/a
308.248	0.105	616496	keystroke_o	o	n/a
308.4735	0.1795	616947	keystroke_l	l	n/a
308.638	0.135	617276	keystroke_i	i	n/a
308.728	0.105	617456	keystroke_c	c	n/a
309.013	0.0755	618026	keystroke_e	e	n/a
309.4935	0.0445	618987	keystroke_Key.backspace	Key.backspace	n/a
309.643	0.075	619286	keystroke_Key.backspace	Key.backspace	n/a
309.734	0.059	619468	keystroke_v	v	n/a
309.8985	0.0595	619797	keystroke_e	e	n/a
310.198	0.0605	620396	keystroke_Key.enter	Key.enter	n/a
310.2635	7.5715	620527	prompt	n/a	suite supporters goto project\n
310.9785	0.12	621957	keystroke_s	s	n/a
311.1735	0.09	622347	keystroke_u	u	n/a
311.3385	0.1045	622677	keystroke_i	i	n/a
311.4735	0.0895	622947	keystroke_t	t	n/a
311.6685	0.1045	623337	keystroke_e	e	n/a
311.758	0.1655	623516	keystroke_Key.space	Key.space	n/a
311.9235	0.0895	623847	keystroke_s	s	n/a
312.103	0.0895	624206	keystroke_u	u	n/a
312.2385	0.0905	624477	keystroke_p	p	n/a
312.4185	0.195	624837	keystroke_p	p	n/a
312.5835	0.1195	625167	keystroke_o	o	n/a
312.7185	0.075	625437	keystroke_r	r	n/a
312.8835	0.089	625767	keystroke_t	t	n/a
313.1085	0.135	626217	keystroke_e	e	n/a
313.2135	0.105	626427	keystroke_r	r	n/a
313.4535	0.1055	626907	keystroke_s	s	n/a
313.574	0.164	627148	keystroke_Key.space	Key.space	n/a
313.7985	0.09	627597	keystroke_g	g	n/a
313.933	0.106	627866	keystroke_o	o	n/a
314.069	0.089	628138	keystroke_t	t	n/a
314.233	0.1205	628466	keystroke_o	o	n/a
314.383	0.105	628766	keystroke_Key.space	Key.space	n/a
314.563	0.1205	629126	keystroke_p	p	n/a
314.728	0.09	629456	keystroke_r	r	n/a
314.8785	0.1195	629757	keystroke_o	o	n/a
315.298	0.0605	630596	keystroke_f	f	n/a
315.988	0.0755	631976	keystroke_Key.backspace	Key.backspace	n/a
316.2285	0.06	632457	keystroke_j	j	n/a
317.083	0.09	634166	keystroke_e	e	n/a
317.248	0.0905	634496	keystroke_c	c	n/a
317.473	0.06	634946	keystroke_t	t	n/a
317.728	0.1055	635456	keystroke_Key.enter	Key.enter	n/a
317.84	6.2795	635680	prompt	n/a	drainage tuning bookmark herbal\n
318.4925	0.091	636985	keystroke_d	d	n/a
318.7185	0.09	637437	keystroke_r	r	n/a
318.9125	0.121	637825	keystroke_a	a	n/a
319.0185	0.165	638037	keystroke_i	i	n/a
319.1685	0.105	638337	keystroke_n	n	n/a
319.3335	0.105	638667	keystroke_a	a	n/a
319.4535	0.105	638907	keystroke_g	g	n/a
319.738	0.0905	639476	keystroke_e	e	n/a
319.873	0.1505	639746	keystroke_Key.space	Key.space	n/a
320.1425	0.09	640285	keystroke_t	t	n/a
320.2785	0.12	640557	keystroke_u	u	n/a
320.5935	0.105	641187	keystroke_n	n	n/a
320.8025	0.12	641605	keystroke_i	i	n/a
320.8925	0.121	641785	keystroke_n	n	n/a
321.0575	0.121	642115	keystroke_g	g	n/a
321.1625	0.1655	642325	keystroke_Key.space	Key.space	n/a
321.418	0.105	642836	keystroke_b	b	n/a
321.538	0.0755	643076	keystroke_o	o	n/a
321.688	0.135	643376	keystroke_o	o	n/a
321.883	0.0905	643766	keystroke_k	k	n/a
322.168	0.12	644336	keystroke_m	m	n/a
322.303	0.1505	644606	keystroke_a	a	n/a
322.468	0.09	644936	keystroke_r	r	n/a
322.648	0.0905	645296	keystroke_k	k	n/a
322.783	0.15	645566	keystroke_Key.space	Key.space	n/a
322.948	0.121	645896	keystroke_h	h	n/a
323.0985	0.1645	646197	keystroke_e	e	n/a
323.204	0.104	646408	keystroke_r	r	n/a
323.4585	0.0895	646917	keystroke_b	b	n/a
323.653	0.1055	647306	keystroke_a	a	n/a
323.8035	0.0895	647607	keystroke_l	l	n/a
323.998	0.12	647996	keystroke_Key.enter	Key.enter	n/a
324.1225	5.472	648245	prompt	n/a	hilton bedding supply vocal\n
324.7625	0.1505	649525	keystroke_h	h	n/a
324.8985	0.1645	649797	keystroke_i	i	n/a
325.003	0.15	650006	keystroke_l	l	n/a
325.168	0.09	650336	keystroke_t	t	n/a
325.348	0.1505	650696	keystroke_o	o	n/a
325.468	0.106	650936	keystroke_n	n	n/a
325.618	0.18	651236	keystroke_Key.space	Key.space	n/a
325.768	0.09	651536	keystroke_b	b	n/a
325.9785	0.0745	651957	keystroke_e	e	n/a
326.1735	0.06	652347	keystroke_d	d	n/a
326.3085	0.0895	652617	keystroke_d	d	n/a
326.428	0.1205	652856	keystroke_i	i	n/a
326.518	0.1205	653036	keystroke_n	n	n/a
326.6235	0.12	653247	keystroke_g	g	n/a
326.7285	0.24	653457	keystroke_Key.space	Key.space	n/a
326.9235	0.135	653847	keystroke_s	s	n/a
327.0885	0.105	654177	keystroke_u	u	n/a
327.2235	0.105	654447	keystroke_p	p	n/a
327.388	0.1355	654776	keystroke_p	p	n/a
327.6135	0.105	655227	keystroke_l	l	n/a
327.8085	0.089	655617	keystroke_y	y	n/a
327.9735	0.15	655947	keystroke_Key.space	Key.space	n/a
328.1685	0.12	656337	keystroke_v	v	n/a
328.6035	0.12	657207	keystroke_o	o	n/a
328.7535	0.105	657507	keystroke_c	c	n/a
328.9485	0.12	657897	keystroke_a	a	n/a
329.2635	0.0895	658527	keystroke_l	l	n/a
329.4875	0.1055	658975	keystroke_Key.enter	Key.enter	n/a
329.5975	5.9225	659195	prompt	n/a	republic impose receipt based\n
330.2835	0.1045	660567	keystroke_r	r	n/a
330.4485	0.135	660897	keystroke_e	e	n/a
330.6285	0.18	661257	keystroke_p	p	n/a
330.7785	0.12	661557	keystroke_u	u	n/a
330.9585	0.1195	661917	keystroke_b	b	n/a
331.138	0.1355	662276	keystroke_l	l	n/a
331.2435	0.165	662487	keystroke_i	i	n/a
331.3785	0.105	662757	keystroke_c	c	n/a
331.4985	0.165	662997	keystroke_Key.space	Key.space	n/a
331.6485	0.105	663297	keystroke_i	i	n/a
331.843	0.105	663686	keystroke_m	m	n/a
332.0535	0.15	664107	keystroke_p	p	n/a
332.1585	0.135	664317	keystroke_o	o	n/a
332.3385	0.1495	664677	keystroke_s	s	n/a
332.473	0.1655	664946	keystroke_e	e	n/a
332.608	0.1805	665216	keystroke_Key.space	Key.space	n/a
332.8785	0.105	665757	keystroke_r	r	n/a
333.029	0.0895	666058	keystroke_e	e	n/a
333.223	0.1205	666446	keystroke_c	c	n/a
333.463	0.12	666926	keystroke_e	e	n/a
333.6275	0.106	667255	keystroke_i	i	n/a
333.8235	0.12	667647	keystroke_p	p	n/a
334.0785	0.075	668157	keystroke_t	t	n/a
334.2285	0.195	668457	keystroke_Key.space	Key.space	n/a
334.499	0.1045	668998	keystroke_b	b	n/a
334.7385	0.165	669477	keystroke_a	a	n/a
334.8885	0.1805	669777	keystroke_s	s	n/a
335.0535	0.09	670107	keystroke_e	e	n/a
335.2485	0.09	670497	keystroke_d	d	n/a
335.4435	0.075	670887	keystroke_Key.enter	Key.enter	n/a
335.524	6.671	671048	prompt	n/a	zshops bought ease agencies\n
336.733	0.135	673466	keystroke_z	z	n/a
337.1835	0.12	674367	keystroke_s	s	n/a
337.424	0.1345	674848	keystroke_h	h	n/a
337.5885	0.1795	675177	keystroke_o	o	n/a
337.783	0.106	675566	keystroke_p	p	n/a
337.9185	0.1345	675837	keystroke_s	s	n/a
338.023	0.1955	676046	keystroke_Key.space	Key.space	n/a
338.1885	0.1205	676377	keystroke_b	b	n/a
338.5035	0.135	677007	keystroke_o	o	n/a
338.743	0.09	677486	keystroke_u	u	n/a
338.9835	0.0745	677967	keystroke_g	g	n/a
339.1035	0.12	678207	keystroke_h	h	n/a
339.2535	0.1195	678507	keystroke_t	t	n/a
339.3585	0.24	678717	keystroke_Key.space	Key.space	n/a
339.5235	0.1045	679047	keystroke_e	e	n/a
339.7935	0.1645	679587	keystroke_a	a	n/a
339.959	0.1645	679918	keystroke_s	s	n/a
340.199	0.1495	680398	keystroke_e	e	n/a
340.3785	0.18	680757	keystroke_Key.space	Key.space	n/a
340.6935	0.1655	681387	keystroke_a	a	n/a
340.8435	0.09	681687	keystroke_g	g	n/a
341.0535	0.1055	682107	keystroke_e	e	n/a
341.1885	0.12	682377	keystroke_n	n	n/a
341.354	0.1045	682708	keystroke_c	c	n/a
341.5035	0.12	683007	keystroke_i	i	n/a
341.6535	0.105	683307	keystroke_e	e	n/a
341.8335	0.135	683667	keystroke_s	s	n/a
342.0885	0.105	684177	keystroke_Key.enter	Key.enter	n/a
342.1995	6.9855	684399	prompt	n/a	competitors limits standard voting\n
342.9585	0.03	685917	keystroke_c	c	n/a
342.9725	0.151	685945	keystroke_o	o	n/a
343.1535	0.135	686307	keystroke_m	m	n/a
343.3485	0.12	686697	keystroke_e	e	n/a
343.6335	0.075	687267	keystroke_t	t	n/a
343.7985	0.1345	687597	keystroke_i	i	n/a
343.919	0.089	687838	keystroke_t	t	n/a
344.0835	0.1495	688167	keystroke_o	o	n/a
344.2785	0.105	688557	keystroke_r	r	n/a
344.563	0.12	689126	keystroke_s	s	n/a
344.668	0.15	689336	keystroke_Key.space	Key.space	n/a
344.863	0.196	689726	keystroke_l	l	n/a
345.0285	0.0895	690057	keystroke_i	i	n/a
345.254	0.104	690508	keystroke_m	m	n/a
345.4485	0.1045	690897	keystroke_i	i	n/a
345.583	0.09	691166	keystroke_t	t	n/a
345.8385	0.135	691677	keystroke_s	s	n/a
345.943	0.1505	691886	keystroke_Key.space	Key.space	n/a
346.153	0.1505	692306	keystroke_s	s	n/a
346.304	0.089	692608	keystroke_t	t	n/a
346.648	0.0305	693296	keystroke_a	a	n/a
346.663	0.1205	693326	keystroke_n	n	n/a
346.8135	0.09	693627	keystroke_d	d	n/a
346.9785	0.165	693957	keystroke_a	a	n/a
347.1285	0.1055	694257	keystroke_r	r	n/a
347.758	0.0905	695516	keystroke_d	d	n/a
347.863	0.1655	695726	keystroke_Key.space	Key.space	n/a
348.1335	0.12	696267	keystroke_v	v	n/a
348.3585	0.105	696717	keystroke_o	o	n/a
348.479	0.0745	696958	keystroke_t	t	n/a
348.6585	0.135	697317	keystroke_i	i	n/a
348.7785	0.15	697557	keystroke_n	n	n/a
348.9435	0.045	697887	keystroke_g	g	n/a
349.0935	0.09	698187	keystroke_Key.enter	Key.enter	n/a
349.1885	6.1915	698377	prompt	n/a	mirrors cradle garage curtis\n
349.873	0.1655	699746	keystroke_m	m	n/a
350.0235	0.134	700047	keystroke_i	i	n/a
350.324	0.0895	700648	keystroke_r	r	n/a
350.4735	0.1055	700947	keystroke_r	r	n/a
350.609	0.1195	701218	keystroke_o	o	n/a
350.743	0.076	701486	keystroke_r	r	n/a
350.9385	0.1055	701877	keystroke_s	s	n/a
351.0585	0.165	702117	keystroke_Key.space	Key.space	n/a
351.2535	0.105	702507	keystroke_c	c	n/a
351.4635	0.0605	702927	keystroke_r	r	n/a
351.6285	0.105	703257	keystroke_a	a	n/a
351.8085	0.09	703617	keystroke_d	d	n/a
351.9735	0.105	703947	keystroke_l	l	n/a
352.0935	0.075	704187	keystroke_e	e	n/a
352.3185	0.21	704637	keystroke_Key.space	Key.space	n/a
352.5285	0.0895	705057	keystroke_g	g	n/a
352.7535	0.18	705507	keystroke_a	a	n/a
352.888	0.1055	705776	keystroke_r	r	n/a
353.0985	0.1055	706197	keystroke_a	a	n/a
353.2185	0.09	706437	keystroke_g	g	n/a
353.399	0.105	706798	keystroke_e	e	n/a
353.5485	0.165	707097	keystroke_Key.space	Key.space	n/a
353.6835	0.09	707367	keystroke_c	c	n/a
353.849	0.1045	707698	keystroke_u	u	n/a
354.0435	0.0755	708087	keystroke_t	t	n/a
354.4635	0.0905	708927	keystroke_Key.backspace	Key.backspace	n/a
354.584	0.0595	709168	keystroke_r	r	n/a
354.7335	0.0755	709467	keystroke_t	t	n/a
354.8385	0.12	709677	keystroke_i	i	n/a
355.0935	0.09	710187	keystroke_s	s	n/a
355.2735	0.105	710547	keystroke_Key.enter	Key.enter	n/a
355.3835	5.8915	710767	prompt	n/a	starting increasing mesh steam\n
355.978	0.1355	711956	keystroke_s	s	n/a
356.1435	0.075	712287	keystroke_t	t	n/a
356.323	0.1205	712646	keystroke_a	a	n/a
356.428	0.075	712856	keystroke_r	r	n/a
356.608	0.075	713216	keystroke_t	t	n/a
356.743	0.18	713486	keystroke_i	i	n/a
356.878	0.135	713756	keystroke_n	n	n/a
356.968	0.121	713936	keystroke_g	g	n/a
357.043	0.195	714086	keystroke_Key.space	Key.space	n/a
357.208	0.1805	714416	keystroke_i	i	n/a
357.328	0.1355	714656	keystroke_n	n	n/a
357.4485	0.09	714897	keystroke_c	c	n/a
357.793	0.045	715586	keystroke_r	r	n/a
357.9135	0.0895	715827	keystroke_e	e	n/a
358.093	0.136	716186	keystroke_a	a	n/a
358.199	0.15	716398	keystroke_s	s	n/a
358.363	0.1805	716726	keystroke_i	i	n/a
358.4985	0.1345	716997	keystroke_n	n	n/a
358.603	0.1055	717206	keystroke_g	g	n/a
358.678	0.18	717356	keystroke_Key.space	Key.space	n/a
358.873	0.15	717746	keystroke_m	m	n/a
359.008	0.1055	718016	keystroke_e	e	n/a
359.188	0.135	718376	keystroke_s	s	n/a
359.3385	0.1205	718677	keystroke_h	h	n/a
359.578	0.18	719156	keystroke_Key.space	Key.space	n/a
359.894	0.1345	719788	keystroke_s	s	n/a
360.2525	0.1055	720505	keystroke_t	t	n/a
360.479	0.104	720958	keystroke_e	e	n/a
360.689	0.1345	721378	keystroke_a	a	n/a
360.869	0.1195	721738	keystroke_m	m	n/a
361.138	0.135	722276	keystroke_Key.enter	Key.enter	n/a
361.2805	8.7845	722561	prompt	n/a	none disturbed awareness zshops\n
362.0835	0.15	724167	keystroke_n	n	n/a
362.2185	0.1795	724437	keystroke_o	o	n/a
362.3835	0.1195	724767	keystroke_n	n	n/a
362.504	0.1495	725008	keystroke_e	e	n/a
362.623	0.1645	725246	keystroke_Key.space	Key.space	n/a
362.909	0.134	725818	keystroke_d	d	n/a
363.058	0.151	726116	keystroke_i	i	n/a
363.194	0.089	726388	keystroke_s	s	n/a
363.388	0.09	726776	keystroke_t	t	n/a
363.553	0.0755	727106	keystroke_r	r	n/a
363.6885	0.1195	727377	keystroke_u	u	n/a
364.1085	0.0145	728217	keystroke_e	e	n/a
364.4385	0.09	728877	keystroke_Key.backspace	Key.backspace	n/a
364.5135	0.09	729027	keystroke_b	b	n/a
364.709	0.0895	729418	keystroke_e	e	n/a
364.9185	0.1055	729837	keystroke_d	d	n/a
365.128	0.1355	730256	keystroke_Key.space	Key.space	n/a
366.2985	0.135	732597	keystroke_a	a	n/a
366.5835	0.12	733167	keystroke_w	w	n/a
366.7185	0.1505	733437	keystroke_a	a	n/a
366.9135	0.1195	733827	keystroke_r	r	n/a
367.078	0.0905	734156	keystroke_e	e	n/a
367.2885	0.1195	734577	keystroke_n	n	n/a
367.3785	0.1055	734757	keystroke_e	e	n/a
367.559	0.0895	735118	keystroke_s	s	n/a
367.7385	0.105	735477	keystroke_s	s	n/a
367.8885	0.12	735777	keystroke_Key.space	Key.space	n/a
368.369	0.1195	736738	keystroke_z	z	n/a
369.193	0.12	738386	keystroke_s	s	n/a
369.344	0.149	738688	keystroke_h	h	n/a
369.478	0.1505	738956	keystroke_o	o	n/a
369.658	0.1205	739316	keystroke_p	p	n/a
369.7935	0.09	739587	keystroke_s	s	n/a
369.9585	0.1045	739917	keystroke_Key.enter	Key.enter	n/a
370.0715	7.179	740143	prompt	n/a	transfer lips highways nebraska\n
370.7985	0.0905	741597	keystroke_t	t	n/a
370.979	0.074	741958	keystroke_r	r	n/a
371.1135	0.1645	742227	keystroke_a	a	n/a
371.249	0.105	742498	keystroke_n	n	n/a
371.368	0.106	742736	keystroke_s	s	n/a
371.564	0.1045	743128	keystroke_f	f	n/a
371.7735	0.1355	743547	keystroke_e	e	n/a
371.879	0.1345	743758	keystroke_r	r	n/a
372.0735	0.1795	744147	keystroke_Key.space	Key.space	n/a
372.2685	0.15	744537	keystroke_l	l	n/a
372.3885	0.1655	744777	keystroke_i	i	n/a
372.5685	0.1205	745137	keystroke_p	p	n/a
372.7335	0.135	745467	keystroke_s	s	n/a
372.8085	0.179	745617	keystroke_Key.space	Key.space	n/a
372.973	0.1055	745946	keystroke_h	h	n/a
373.109	0.12	746218	keystroke_i	i	n/a
373.244	0.0895	746488	keystroke_g	g	n/a
373.3485	0.135	746697	keystroke_h	h	n/a
373.5585	0.09	747117	keystroke_w	w	n/a
373.7085	0.15	747417	keystroke_a	a	n/a
373.8735	0.0895	747747	keystroke_y	y	n/a
373.9785	0.1645	747957	keystroke_s	s	n/a
374.098	0.15	748196	keystroke_Key.space	Key.space	n/a
374.263	0.1505	748526	keystroke_n	n	n/a
374.4285	0.1045	748857	keystroke_e	e	n/a
375.313	0.1205	750626	keystroke_b	b	n/a
375.839	0.119	751678	keystroke_r	r	n/a
376.078	0.166	752156	keystroke_a	a	n/a
376.2585	0.15	752517	keystroke_s	s	n/a
376.4835	0.1355	752967	keystroke_k	k	n/a
376.679	0.119	753358	keystroke_a	a	n/a
377.113	0.1355	754226	keystroke_Key.enter	Key.enter	n/a
377.2545	6.5355	754509	prompt	n/a	motels instruments relay sealed\n
377.8935	0.135	755787	keystroke_m	m	n/a
378.043	0.136	756086	keystroke_o	o	n/a
378.1635	0.09	756327	keystroke_t	t	n/a
378.343	0.09	756686	keystroke_e	e	n/a
378.614	0.119	757228	keystroke_l	l	n/a
378.8385	0.12	757677	keystroke_s	s	n/a
378.9585	0.1495	757917	keystroke_Key.space	Key.space	n/a
379.154	0.164	758308	keystroke_i	i	n/a
379.3335	0.1205	758667	keystroke_n	n	n/a
379.513	0.1955	759026	keystroke_s	s	n/a
379.663	0.0755	759326	keystroke_t	t	n/a
379.813	0.09	759626	keystroke_r	r	n/a
379.933	0.075	759866	keystroke_u	u	n/a
380.1435	0.0745	760287	keystroke_m	m	n/a
380.233	0.135	760466	keystroke_e	e	n/a
380.3385	0.09	760677	keystroke_n	n	n/a
380.458	0.09	760916	keystroke_t	t	n/a
380.6535	0.12	761307	keystroke_s	s	n/a
380.7275	0.166	761455	keystroke_Key.space	Key.space	n/a
380.9985	0.135	761997	keystroke_r	r	n/a
381.1635	0.1055	762327	keystroke_e	e	n/a
381.3135	0.12	762627	keystroke_l	l	n/a
381.479	0.1345	762958	keystroke_a	a	n/a
381.989	0.0895	763978	keystroke_y	y	n/a
382.3335	0.12	764667	keystroke_Key.space	Key.space	n/a
382.6335	0.12	765267	keystroke_s	s	n/a
382.8585	0.12	765717	keystroke_e	e	n/a
383.009	0.1645	766018	keystroke_a	a	n/a
383.1585	0.1505	766317	keystroke_l	l	n/a
383.3235	0.1045	766647	keystroke_e	e	n/a
383.533	0.09	767066	keystroke_d	d	n/a
383.683	0.105	767366	keystroke_Key.enter	Key.enter	n/a
383.7935	6.3115	767587	prompt	n/a	continuous google oxford single\n
384.493	0.105	768986	keystroke_c	c	n/a
384.583	0.1355	769166	keystroke_o	o	n/a
384.689	0.12	769378	keystroke_n	n	n/a
384.9285	0.075	769857	keystroke_t	t	n/a
385.1085	0.1505	770217	keystroke_i	i	n/a
385.2435	0.09	770487	keystroke_n	n	n/a
385.6185	0.0905	771237	keystroke_u	u	n/a
385.8585	0.165	771717	keystroke_o	o	n/a
386.009	0.0895	772018	keystroke_u	u	n/a
386.1885	0.1195	772377	keystroke_s	s	n/a
386.323	0.165	772646	keystroke_Key.space	Key.space	n/a
386.638	0.106	773276	keystroke_g	g	n/a
386.758	0.06	773516	keystroke_o	o	n/a
386.9085	0.1205	773817	keystroke_o	o	n/a
387.044	0.074	774088	keystroke_g	g	n/a
387.1635	0.1195	774327	keystroke_l	l	n/a
387.268	0.105	774536	keystroke_e	e	n/a
387.4325	0.181	774865	keystroke_Key.space	Key.space	n/a
387.6875	0.151	775375	keystroke_o	o	n/a
387.8535	0.1195	775707	keystroke_x	x	n/a
388.1535	0.0745	776307	keystroke_f	f	n/a
388.514	0.105	777028	keystroke_o	o	n/a
388.678	0.0755	777356	keystroke_r	r	n/a
388.8885	0.12	777777	keystroke_d	d	n/a
388.978	0.195	777956	keystroke_Key.space	Key.space	n/a
389.189	0.104	778378	keystroke_s	s	n/a
389.278	0.166	778556	keystroke_i	i	n/a
389.413	0.1355	778826	keystroke_n	n	n/a
389.5335	0.0895	779067	keystroke_g	g	n/a
389.698	0.1055	779396	keystroke_l	l	n/a
389.788	0.076	779576	keystroke_e	e	n/a
389.998	0.105	779996	keystroke_Key.enter	Key.enter	n/a
390.115	6.89	780230	prompt	n/a	musician spouse partner twice\n
390.718	0.105	781436	keystroke_m	m	n/a
390.929	0.074	781858	keystroke_u	u	n/a
391.048	0.15	782096	keystroke_s	s	n/a
391.183	0.0905	782366	keystroke_i	i	n/a
391.3335	0.1205	782667	keystroke_c	c	n/a
391.4985	0.1195	782997	keystroke_i	i	n/a
391.843	0.166	783686	keystroke_a	a	n/a
392.009	0.0745	784018	keystroke_n	n	n/a
392.1735	0.1945	784347	keystroke_Key.space	Key.space	n/a
392.3835	0.0895	784767	keystroke_s	s	n/a
392.593	0.1205	785186	keystroke_p	p	n/a
393.028	0.105	786056	keystroke_o	o	n/a
393.2685	0.09	786537	keystroke_u	u	n/a
393.523	0.181	787046	keystroke_s	s	n/a
393.689	0.1345	787378	keystroke_e	e	n/a
393.838	0.1505	787676	keystroke_Key.space	Key.space	n/a
394.1235	0.105	788247	keystroke_p	p	n/a
394.259	0.164	788518	keystroke_a	a	n/a
394.3785	0.0895	788757	keystroke_r	r	n/a
394.5435	0.1045	789087	keystroke_t	t	n/a
394.723	0.105	789446	keystroke_n	n	n/a
394.859	0.15	789718	keystroke_e	e	n/a
394.9785	0.0905	789957	keystroke_r	r	n/a
395.0835	0.21	790167	keystroke_Key.space	Key.space	n/a
395.263	0.135	790526	keystroke_t	t	n/a
395.5185	0.075	791037	keystroke_w	w	n/a
395.6385	0.15	791277	keystroke_i	i	n/a
396.0435	0.09	792087	keystroke_e	e	n/a
396.433	0.09	792866	keystroke_Key.backspace	Key.backspace	n/a
396.509	0.09	793018	keystroke_c	c	n/a
396.689	0.06	793378	keystroke_e	e	n/a
396.9285	0.0745	793857	keystroke_Key.enter	Key.enter	n/a
397.009	8.5455	794018	prompt	n/a	sake considers prerequisite million\n
397.618	0.12	795236	keystroke_s	s	n/a
397.8135	0.15	795627	keystroke_a	a	n/a
397.9335	0.119	795867	keystroke_k	k	n/a
398.039	0.164	796078	keystroke_e	e	n/a
398.173	0.195	796346	keystroke_Key.space	Key.space	n/a
398.6085	0.1205	797217	keystroke_c	c	n/a
398.743	0.1505	797486	keystroke_o	o	n/a
398.8485	0.1195	797697	keystroke_n	n	n/a
398.999	0.119	797998	keystroke_s	s	n/a
399.119	0.12	798238	keystroke_i	i	n/a
399.2235	0.09	798447	keystroke_d	d	n/a
399.403	0.136	798806	keystroke_e	e	n/a
399.5235	0.1795	799047	keystroke_r	r	n/a
399.6885	0.09	799377	keystroke_e	e	n/a
400.2735	0.075	800547	keystroke_Key.backspace	Key.backspace	n/a
400.364	0.0895	800728	keystroke_s	s	n/a
400.6935	0.15	801387	keystroke_Key.space	Key.space	n/a
401.368	0.0755	802736	keystroke_p	p	n/a
401.669	0.1495	803338	keystroke_r	r	n/a
401.9835	0.135	803967	keystroke_e	e	n/a
402.2685	0.1045	804537	keystroke_r	r	n/a
402.4335	0.1195	804867	keystroke_e	e	n/a
402.673	0.1355	805346	keystroke_q	q	n/a
402.7935	0.1055	805587	keystroke_u	u	n/a
402.959	0.1045	805918	keystroke_i	i	n/a
403.1685	0.105	806337	keystroke_s	s	n/a
403.319	0.0895	806638	keystroke_i	i	n/a
403.514	0.0745	807028	keystroke_t	t	n/a
403.7085	0.12	807417	keystroke_e	e	n/a
403.843	0.1355	807686	keystroke_Key.space	Key.space	n/a
403.9935	0.15	807987	keystroke_m	m	n/a
404.1285	0.1345	808257	keystroke_i	i	n/a
404.5335	0.0745	809067	keystroke_l	l	n/a
404.683	0.18	809366	keystroke_l	l	n/a
404.8485	0.195	809697	keystroke_i	i	n/a
405.028	0.151	810056	keystroke_o	o	n/a
405.2235	0.0895	810447	keystroke_n	n	n/a
405.4785	0.075	810957	keystroke_Key.enter	Key.enter	n/a
405.558	4.632	811116	prompt	n/a	tiles apparently makes info\n
406.2135	0.105	812427	keystroke_t	t	n/a
406.3335	0.165	812667	keystroke_i	i	n/a
406.4535	0.1645	812907	keystroke_l	l	n/a
406.6035	0.135	813207	keystroke_e	e	n/a
406.7835	0.1195	813567	keystroke_s	s	n/a
406.858	0.1655	813716	keystroke_Key.space	Key.space	n/a
407.039	0.164	814078	keystroke_a	a	n/a
407.1585	0.075	814317	keystroke_p	p	n/a
407.3235	0.1195	814647	keystroke_p	p	n/a
407.473	0.165	814946	keystroke_a	a	n/a
407.6235	0.12	815247	keystroke_r	r	n/a
407.7585	0.135	815517	keystroke_e	e	n/a
407.894	0.1045	815788	keystroke_n	n	n/a
407.9985	0.1055	815997	keystroke_t	t	n/a
408.133	0.0905	816266	keystroke_l	l	n/a
408.3435	0.045	816687	keystroke_y	y	n/a
408.418	0.165	816836	keystroke_Key.space	Key.space	n/a
408.598	0.1055	817196	keystroke_m	m	n/a
408.718	0.15	817436	keystroke_a	a	n/a
408.853	0.1205	817706	keystroke_k	k	n/a
408.9435	0.1045	817887	keystroke_e	e	n/a
409.1535	0.1195	818307	keystroke_s	s	n/a
409.2285	0.1805	818457	keystroke_Key.space	Key.space	n/a
409.409	0.134	818818	keystroke_i	i	n/a
409.5585	0.105	819117	keystroke_n	n	n/a
409.6785	0.135	819357	keystroke_f	f	n/a
409.843	0.1055	819686	keystroke_o	o	n/a
410.0685	0.12	820137	keystroke_Key.enter	Key.enter	n/a
410.193	7.707	820386	prompt	n/a	clark stereo electronic accountability\n
410.8485	0.105	821697	keystroke_c	c	n/a
410.968	0.135	821936	keystroke_l	l	n/a
411.1185	0.255	822237	keystroke_a	a	n/a
411.3285	0.075	822657	keystroke_r	r	n/a
411.4935	0.1055	822987	keystroke_k	k	n/a
411.643	0.18	823286	keystroke_Key.space	Key.space	n/a
411.808	0.135	823616	keystroke_s	s	n/a
411.959	0.089	823918	keystroke_t	t	n/a
412.2435	0.1355	824487	keystroke_e	e	n/a
412.333	0.1655	824666	keystroke_r	r	n/a
412.514	0.12	825028	keystroke_e	e	n/a
412.7385	0.1205	825477	keystroke_o	o	n/a
412.918	0.165	825836	keystroke_Key.space	Key.space	n/a
413.113	0.0605	826226	keystroke_s	s	n/a
413.3835	0.0905	826767	keystroke_Key.backspace	Key.backspace	n/a
413.5335	0.105	827067	keystroke_e	e	n/a
413.6985	0.09	827397	keystroke_l	l	n/a
413.804	0.1045	827608	keystroke_e	e	n/a
414.0435	0.0755	828087	keystroke_c	c	n/a
414.269	0.0745	828538	keystroke_t	t	n/a
414.4185	0.0905	828837	keystroke_r	r	n/a
414.5535	0.135	829107	keystroke_o	o	n/a
414.764	0.075	829528	keystroke_n	n	n/a
414.899	0.09	829798	keystroke_i	i	n/a
415.139	0.135	830278	keystroke_c	c	n/a
415.3335	0.1645	830667	keystroke_Key.space	Key.space	n/a
415.513	0.1655	831026	keystroke_a	a	n/a
415.6335	0.105	831267	keystroke_c	c	n/a
415.8285	0.1205	831657	keystroke_c	c	n/a
415.9635	0.2095	831927	keystroke_o	o	n/a
416.0835	0.1045	832167	keystroke_u	u	n/a
416.2785	0.105	832557	keystroke_n	n	n/a
416.399	0.1045	832798	keystroke_t	t	n/a
416.5785	0.135	833157	keystroke_a	a	n/a
416.7585	0.105	833517	keystroke_b	b	n/a
416.909	0.1495	833818	keystroke_i	i	n/a
417.0435	0.15	834087	keystroke_l	l	n/a
417.164	0.1495	834328	keystroke_i	i	n/a
417.2985	0.09	834597	keystroke_t	t	n/a
417.4785	0.09	834957	keystroke_y	y	n/a
417.7785	0.12	835557	keystroke_Key.enter	Key.enter	n/a
417.9045	10.585	835809	prompt	n/a	above creature myanmar webcast\n
418.5285	0.15	837057	keystroke_a	a	n/a
418.6635	0.105	837327	keystroke_b	b	n/a
418.8135	0.1795	837627	keystroke_o	o	n/a
419.443	0.136	838886	keystroke_c	c	n/a
419.6835	0.1495	839367	keystroke_e	e	n/a
420.0875	0.0755	840175	keystroke_Key.backspace	Key.backspace	n/a
420.2385	0.105	840477	keystroke_Key.backspace	Key.backspace	n/a
420.3585	0.09	840717	keystroke_b	b	n/a
420.9135	0.09	841827	keystroke_Key.backspace	Key.backspace	n/a
420.9885	0.0755	841977	keystroke_v	v	n/a
421.5585	0.12	843117	keystroke_e	e	n/a
421.9035	0.1345	843807	keystroke_Key.space	Key.space	n/a
422.143	0.0605	844286	keystroke_c	c	n/a
422.309	0.1045	844618	keystroke_r	r	n/a
422.4435	0.15	844887	keystroke_e	e	n/a
422.6085	0.135	845217	keystroke_a	a	n/a
422.788	0.1205	845576	keystroke_t	t	n/a
422.9985	0.0895	845997	keystroke_u	u	n/a
423.089	0.1045	846178	keystroke_r	r	n/a
423.253	0.136	846506	keystroke_e	e	n/a
423.403	0.135	846806	keystroke_Key.space	Key.space	n/a
423.6585	0.1045	847317	keystroke_m	m	n/a
423.9285	0.0895	847857	keystroke_y	y	n/a
424.303	0.1505	848606	keystroke_a	a	n/a
424.513	0.106	849026	keystroke_n	n	n/a
424.9635	0.15	849927	keystroke_m	m	n/a
425.354	0.165	850708	keystroke_a	a	n/a
425.5345	0.119	851069	keystroke_r	r	n/a
425.7285	0.15	851457	keystroke_Key.space	Key.space	n/a
425.954	0.1195	851908	keystroke_w	w	n/a
426.0885	0.135	852177	keystroke_e	e	n/a
426.3435	0.09	852687	keystroke_b	b	n/a
426.7935	0.105	853587	keystroke_c	c	n/a
426.9585	0.1345	853917	keystroke_a	a	n/a
427.138	0.135	854276	keystroke_s	s	n/a
427.423	0.0755	854846	keystroke_e	e	n/a
427.9785	0.06	855957	keystroke_Key.backspace	Key.backspace	n/a
428.0685	0.075	856137	keystroke_t	t	n/a
428.353	0.135	856706	keystroke_Key.enter	Key.enter	n/a
428.495	9.5065	856990	prompt	n/a	graduated officially witnesses arkansas\n
429.268	0.09	858536	keystroke_g	g	n/a
429.4485	0.0745	858897	keystroke_r	r	n/a
429.613	0.1355	859226	keystroke_a	a	n/a
429.779	0.104	859558	keystroke_d	d	n/a
429.928	0.121	859856	keystroke_u	u	n/a
430.0335	0.1505	860067	keystroke_a	a	n/a
430.199	0.104	860398	keystroke_t	t	n/a
430.453	0.1205	860906	keystroke_e	e	n/a
430.7235	0.0905	861447	keystroke_d	d	n/a
430.8735	0.12	861747	keystroke_Key.space	Key.space	n/a
431.323	0.135	862646	keystroke_o	o	n/a
431.413	0.0905	862826	keystroke_f	f	n/a
431.5785	0.1045	863157	keystroke_f	f	n/a
431.789	0.105	863578	keystroke_i	i	n/a
431.923	0.12	863846	keystroke_c	c	n/a
432.073	0.106	864146	keystroke_i	i	n/a
432.193	0.1355	864386	keystroke_a	a	n/a
432.284	0.0895	864568	keystroke_l	l	n/a
432.464	0.0745	864928	keystroke_l	l	n/a
432.5985	0.09	865197	keystroke_y	y	n/a
432.7325	0.1355	865465	keystroke_Key.space	Key.space	n/a
432.8985	0.0905	865797	keystroke_w	w	n/a
433.003	0.12	866006	keystroke_i	i	n/a
433.2585	0.105	866517	keystroke_n	n	n/a
433.618	0.0745	867236	keystroke_Key.backspace	Key.backspace	n/a
433.7385	0.1045	867477	keystroke_t	t	n/a
433.904	0.089	867808	keystroke_n	n	n/a
434.0385	0.09	868077	keystroke_e	e	n/a
434.219	0.089	868438	keystroke_s	s	n/a
434.4135	0.105	868827	keystroke_s	s	n/a
434.6685	0.1355	869337	keystroke_e	e	n/a
434.9985	0.1345	869997	keystroke_s	s	n/a
435.268	0.1205	870536	keystroke_Key.space	Key.space	n/a
435.5985	0.165	871197	keystroke_a	a	n/a
435.7485	0.12	871497	keystroke_r	r	n/a
435.9135	0.1205	871827	keystroke_k	k	n/a
436.049	0.104	872098	keystroke_a	a	n/a
436.1385	0.105	872277	keystroke_n	n	n/a
436.348	0.15	872696	keystroke_s	s	n/a
436.558	0.105	873116	keystroke_e	e	n/a
437.023	0.075	874046	keystroke_Key.backspace	Key.backspace	n/a
437.143	0.1205	874286	keystroke_a	a	n/a
437.5935	0.045	875187	keystroke_s	s	n/a
437.9085	0.09	875817	keystroke_Key.enter	Key.enter	n/a
438.006	5.4535	876012	prompt	n/a	comfort aids avoiding several\n
438.823	0.135	877646	keystroke_c	c	n/a
438.9435	0.1495	877887	keystroke_o	o	n/a
439.063	0.1205	878126	keystroke_m	m	n/a
439.2585	0.135	878517	keystroke_f	f	n/a
439.438	0.105	878876	keystroke_o	o	n/a
439.5285	0.0745	879057	keystroke_r	r	n/a
439.723	0.1205	879446	keystroke_t	t	n/a
439.8285	0.1945	879657	keystroke_Key.space	Key.space	n/a
440.0385	0.1645	880077	keystroke_a	a	n/a
440.1735	0.105	880347	keystroke_i	i	n/a
440.308	0.105	880616	keystroke_d	d	n/a
440.593	0.1205	881186	keystroke_s	s	n/a
440.7735	0.12	881547	keystroke_Key.space	Key.space	n/a
440.9085	0.135	881817	keystroke_a	a	n/a
441.0585	0.105	882117	keystroke_v	v	n/a
441.2235	0.18	882447	keystroke_o	o	n/a
441.374	0.104	882748	keystroke_i	i	n/a
441.523	0.12	883046	keystroke_d	d	n/a
441.6585	0.1645	883317	keystroke_i	i	n/a
441.808	0.1205	883616	keystroke_n	n	n/a
441.943	0.0895	883886	keystroke_g	g	n/a
442.0175	0.195	884035	keystroke_Key.space	Key.space	n/a
442.1985	0.165	884397	keystroke_s	s	n/a
442.3335	0.105	884667	keystroke_e	e	n/a
442.5135	0.075	885027	keystroke_v	v	n/a
442.6935	0.12	885387	keystroke_e	e	n/a
442.7685	0.135	885537	keystroke_r	r	n/a
442.9485	0.135	885897	keystroke_a	a	n/a
443.1285	0.06	886257	keystroke_l	l	n/a
443.3535	0.105	886707	keystroke_Key.enter	Key.enter	n/a
443.465	4.48	886930	prompt	n/a	skin hearing attack milk\n
444.0735	0.1345	888147	keystroke_s	s	n/a
444.179	0.0745	888358	keystroke_k	k	n/a
444.3585	0.1495	888717	keystroke_i	i	n/a
444.478	0.105	888956	keystroke_n	n	n/a
444.6435	0.15	889287	keystroke_Key.space	Key.space	n/a
444.8085	0.135	889617	keystroke_h	h	n/a
444.9285	0.105	889857	keystroke_e	e	n/a
445.0485	0.165	890097	keystroke_a	a	n/a
445.1685	0.12	890337	keystroke_r	r	n/a
445.3035	0.195	890607	keystroke_i	i	n/a
445.454	0.1195	890908	keystroke_n	n	n/a
445.559	0.1035	891118	keystroke_g	g	n/a
445.6335	0.18	891267	keystroke_Key.space	Key.space	n/a
445.7835	0.18	891567	keystroke_a	a	n/a
445.919	0.0895	891838	keystroke_t	t	n/a
446.0985	0.1045	892197	keystroke_t	t	n/a
446.263	0.166	892526	keystroke_a	a	n/a
446.413	0.106	892826	keystroke_c	c	n/a
446.578	0.0905	893156	keystroke_k	k	n/a
446.8035	0.15	893607	keystroke_Key.space	Key.space	n/a
446.9385	0.1795	893877	keystroke_m	m	n/a
447.103	0.15	894206	keystroke_i	i	n/a
447.283	0.136	894566	keystroke_l	l	n/a
447.478	0.0755	894956	keystroke_k	k	n/a
447.8235	0.1195	895647	keystroke_Key.enter	Key.enter	n/a
447.949	7.031	895898	prompt	n/a	average detail equation stephanie\n
448.6785	0.0905	897357	keystroke_a	a	n/a
448.7535	0.06	897507	keystroke_v	v	n/a
448.9935	0.165	897987	keystroke_e	e	n/a
449.1135	0.1205	898227	keystroke_r	r	n/a
449.3385	0.1505	898677	keystroke_a	a	n/a
449.473	0.06	898946	keystroke_b	b	n/a
449.863	0.0905	899726	keystroke_Key.backspace	Key.backspace	n/a
449.954	0.0745	899908	keystroke_g	g	n/a
450.1485	0.12	900297	keystroke_e	e	n/a
450.3285	0.135	900657	keystroke_Key.space	Key.space	n/a
450.6435	0.06	901287	keystroke_d	d	n/a
450.779	0.1045	901558	keystroke_e	e	n/a
450.9885	0.09	901977	keystroke_t	t	n/a
451.1835	0.135	902367	keystroke_a	a	n/a
451.379	0.1495	902758	keystroke_i	i	n/a
451.4835	0.1645	902967	keystroke_l	l	n/a
451.6335	0.1505	903267	keystroke_Key.space	Key.space	n/a
451.903	0.165	903806	keystroke_e	e	n/a
452.143	0.136	904286	keystroke_q	q	n/a
452.2935	0.12	904587	keystroke_u	u	n/a
452.4585	0.15	904917	keystroke_a	a	n/a
452.5785	0.09	905157	keystroke_t	t	n/a
452.7285	0.15	905457	keystroke_i	i	n/a
452.8635	0.135	905727	keystroke_o	o	n/a
452.9685	0.105	905937	keystroke_n	n	n/a
453.0435	0.18	906087	keystroke_Key.space	Key.space	n/a
453.239	0.135	906478	keystroke_s	s	n/a
453.434	0.089	906868	keystroke_t	t	n/a
453.6735	0.1045	907347	keystroke_e	e	n/a
453.928	0.136	907856	keystroke_p	p	n/a
454.0785	0.0745	908157	keystroke_h	h	n/a
454.2585	0.15	908517	keystroke_a	a	n/a
454.3335	0.105	908667	keystroke_n	n	n/a
454.4985	0.1055	908997	keystroke_i	i	n/a
454.6185	0.09	909237	keystroke_e	e	n/a
454.8585	0.12	909717	keystroke_Key.enter	Key.enter	n/a
454.984	7.526	909968	prompt	n/a	tribes christ extremely francis\n
455.669	0.0445	911338	keystroke_t	t	n/a
455.7885	0.09	911577	keystroke_r	r	n/a
455.924	0.1495	911848	keystroke_i	i	n/a
456.238	0.1505	912476	keystroke_b	b	n/a
456.508	0.091	913016	keystroke_e	e	n/a
456.674	0.1345	913348	keystroke_s	s	n/a
456.7785	0.15	913557	keystroke_Key.space	Key.space	n/a
457.0185	0.1055	914037	keystroke_c	c	n/a
457.1385	0.1345	914277	keystroke_h	h	n/a
457.334	0.06	914668	keystroke_r	r	n/a
457.514	0.105	915028	keystroke_i	i	n/a
457.634	0.149	915268	keystroke_s	s	n/a
457.784	0.134	915568	keystroke_t	t	n/a
457.9035	0.1945	915807	keystroke_Key.space	Key.space	n/a
458.039	0.1045	916078	keystroke_e	e	n/a
458.2635	0.1045	916527	keystroke_x	x	n/a
458.489	0.104	916978	keystroke_t	t	n/a
458.6835	0.09	917367	keystroke_r	r	n/a
458.939	0.105	917878	keystroke_e	e	n/a
459.119	0.1195	918238	keystroke_m	m	n/a
459.253	0.1055	918506	keystroke_e	e	n/a
459.3885	0.0755	918777	keystroke_m	m	n/a
459.958	0.075	919916	keystroke_Key.backspace	Key.backspace	n/a
460.1685	0.0745	920337	keystroke_l	l	n/a
460.364	0.074	920728	keystroke_y	y	n/a
460.813	0.1055	921626	keystroke_Key.space	Key.space	n/a
461.2635	0.091	922527	keystroke_f	f	n/a
461.428	0.075	922856	keystroke_r	r	n/a
461.563	0.166	923126	keystroke_a	a	n/a
461.653	0.105	923306	keystroke_n	n	n/a
461.819	0.0895	923638	keystroke_c	c	n/a
461.953	0.091	923906	keystroke_i	i	n/a
462.119	0.1045	924238	keystroke_s	s	n/a
462.4035	0.105	924807	keystroke_Key.enter	Key.enter	n/a
462.514	6.9415	925028	prompt	n/a	phentermine instructor leon self\n
463.4535	0.09	926907	keystroke_p	p	n/a
463.589	0.0895	927178	keystroke_h	h	n/a
463.7535	0.1495	927507	keystroke_e	e	n/a
463.8885	0.12	927777	keystroke_n	n	n/a
464.143	0.0755	928286	keystroke_t	t	n/a
464.3235	0.135	928647	keystroke_e	e	n/a
464.413	0.1205	928826	keystroke_r	r	n/a
464.6085	0.105	929217	keystroke_m	m	n/a
464.7585	0.1805	929517	keystroke_i	i	n/a
464.893	0.1505	929786	keystroke_n	n	n/a
465.029	0.134	930058	keystroke_e	e	n/a
465.0885	0.1945	930177	keystroke_Key.space	Key.space	n/a
465.374	0.1795	930748	keystroke_i	i	n/a
465.523	0.1205	931046	keystroke_n	n	n/a
465.689	0.1795	931378	keystroke_s	s	n/a
465.854	0.1045	931708	keystroke_t	t	n/a
466.033	0.1055	932066	keystroke_r	r	n/a
466.1985	0.12	932397	keystroke_u	u	n/a
466.3635	0.105	932727	keystroke_c	c	n/a
466.5895	0.059	933179	keystroke_t	t	n/a
466.7385	0.1205	933477	keystroke_o	o	n/a
466.8735	0.1205	933747	keystroke_r	r	n/a
467.353	0.135	934706	keystroke_Key.space	Key.space	n/a
467.548	0.076	935096	keystroke_l	l	n/a
467.654	0.1195	935308	keystroke_e	e	n/a
467.863	0.1805	935726	keystroke_o	o	n/a
468.0285	0.105	936057	keystroke_n	n	n/a
468.1635	0.15	936327	keystroke_Key.space	Key.space	n/a
468.5535	0.15	937107	keystroke_s	s	n/a
468.6585	0.165	937317	keystroke_e	e	n/a
468.8835	0.135	937767	keystroke_l	l	n/a
469.0495	0.0895	938099	keystroke_f	f	n/a
469.3335	0.12	938667	keystroke_Key.enter	Key.enter	n/a
469.46	6.355	938920	prompt	n/a	science chamber rule attorney\n
470.0235	0.15	940047	keystroke_s	s	n/a
470.2635	0.1205	940527	keystroke_c	c	n/a
470.4135	0.1355	940827	keystroke_i	i	n/a
470.5635	0.12	941127	keystroke_e	e	n/a
470.6985	0.1205	941397	keystroke_n	n	n/a
470.8335	0.0905	941667	keystroke_c	c	n/a
470.999	0.134	941998	keystroke_e	e	n/a
471.1185	0.165	942237	keystroke_Key.space	Key.space	n/a
471.344	0.134	942688	keystroke_c	c	n/a
471.464	0.089	942928	keystroke_h	h	n/a
471.583	0.18	943166	keystroke_a	a	n/a
471.718	0.091	943436	keystroke_n	n	n/a
472.093	0.0755	944186	keystroke_Key.backspace	Key.backspace	n/a
472.348	0.075	944696	keystroke_m	m	n/a
472.5435	0.0305	945087	keystroke_b	b	n/a
472.9635	0.21	945927	keystroke_e	e	n/a
473.114	0.1345	946228	keystroke_r	r	n/a
473.2335	0.165	946467	keystroke_Key.space	Key.space	n/a
473.4735	0.12	946947	keystroke_r	r	n/a
473.6085	0.1355	947217	keystroke_u	u	n/a
473.759	0.135	947518	keystroke_l	l	n/a
473.924	0.149	947848	keystroke_e	e	n/a
474.044	0.18	948088	keystroke_Key.space	Key.space	n/a
474.209	0.165	948418	keystroke_a	a	n/a
474.359	0.09	948718	keystroke_t	t	n/a
474.524	0.105	949048	keystroke_t	t	n/a
474.884	0.135	949768	keystroke_o	o	n/a
475.004	0.09	950008	keystroke_r	r	n/a
475.254	0.094	950508	keystroke_n	n	n/a
475.363	0.121	950726	keystroke_e	e	n/a
475.4995	0.0735	950999	keystroke_y	y	n/a
475.708	0.1055	951416	keystroke_Key.enter	Key.enter	n/a
475.819	5.5165	951638	prompt	n/a	copy learners nasa behalf\n
476.519	0.135	953038	keystroke_c	c	n/a
476.684	0.165	953368	keystroke_o	o	n/a
476.879	0.12	953758	keystroke_p	p	n/a
477.074	0.0895	954148	keystroke_y	y	n/a
477.2385	0.12	954477	keystroke_Key.space	Key.space	n/a
477.4035	0.1205	954807	keystroke_l	l	n/a
477.509	0.1495	955018	keystroke_e	e	n/a
477.6885	0.1505	955377	keystroke_a	a	n/a
477.8085	0.135	955617	keystroke_r	r	n/a
477.989	0.1045	955978	keystroke_n	n	n/a
478.1385	0.21	956277	keystroke_e	e	n/a
478.3035	0.105	956607	keystroke_r	r	n/a
478.5585	0.1205	957117	keystroke_s	s	n/a
478.6635	0.15	957327	keystroke_Key.space	Key.space	n/a
478.964	0.1045	957928	keystroke_n	n	n/a
479.114	0.15	958228	keystroke_a	a	n/a
479.294	0.105	958588	keystroke_s	s	n/a
479.534	0.119	959068	keystroke_a	a	n/a
479.638	0.2105	959276	keystroke_Key.space	Key.space	n/a
479.8185	0.09	959637	keystroke_b	b	n/a
480.0285	0.075	960057	keystroke_e	e	n/a
480.179	0.104	960358	keystroke_h	h	n/a
480.359	0.119	960718	keystroke_a	a	n/a
480.479	0.134	960958	keystroke_l	l	n/a
480.943	0.0755	961886	keystroke_f	f	n/a
481.229	0.1045	962458	keystroke_Key.enter	Key.enter	n/a
481.3395	4.676	962679	prompt	n/a	file tuesday race battery\n
481.889	0.12	963778	keystroke_f	f	n/a
482.054	0.18	964108	keystroke_i	i	n/a
482.2035	0.1505	964407	keystroke_l	l	n/a
482.519	0.119	965038	keystroke_e	e	n/a
482.623	0.151	965246	keystroke_Key.space	Key.space	n/a
482.8335	0.0895	965667	keystroke_t	t	n/a
482.953	0.121	965906	keystroke_u	u	n/a
483.164	0.105	966328	keystroke_e	e	n/a
483.329	0.1045	966658	keystroke_s	s	n/a
483.5385	0.0905	967077	keystroke_d	d	n/a
483.6585	0.18	967317	keystroke_a	a	n/a
483.8085	0.09	967617	keystroke_y	y	n/a
483.9135	0.2255	967827	keystroke_Key.space	Key.space	n/a
484.0785	0.09	968157	keystroke_r	r	n/a
484.2285	0.12	968457	keystroke_a	a	n/a
484.3635	0.0895	968727	keystroke_c	c	n/a
484.528	0.121	969056	keystroke_e	e	n/a
484.633	0.1955	969266	keystroke_Key.space	Key.space	n/a
484.799	0.0895	969598	keystroke_b	b	n/a
484.979	0.15	969958	keystroke_a	a	n/a
485.1135	0.075	970227	keystroke_t	t	n/a
485.2635	0.0895	970527	keystroke_t	t	n/a
485.429	0.105	970858	keystroke_e	e	n/a
485.504	0.135	971008	keystroke_r	r	n/a
485.699	0.0745	971398	keystroke_y	y	n/a
