onset	duration	sample	value	key	prompt_text
3.8505	10.8205	7701	prompt	n/a	the quick brown fox jumps over a lazy dog\n
6.002	0.027	12004	keystroke_t	t	n/a
6.044	0.1195	12088	keystroke_h	h	n/a
6.134	0.134	12268	keystroke_i	i	n/a
6.8525	0.075	13705	keystroke_Key.backspace	Key.backspace	n/a
7.0035	0.1045	14007	keystroke_e	e	n/a
7.123	0.0595	14246	keystroke_Key.space	Key.space	n/a
7.4535	0.1055	14907	keystroke_q	q	n/a
7.5285	0.1055	15057	keystroke_u	u	n/a
7.6635	0.1505	15327	keystroke_i	i	n/a
7.829	0.0895	15658	keystroke_c	c	n/a
7.964	0.1045	15928	keystroke_k	k	n/a
8.1295	0.0735	16259	keystroke_Key.space	Key.space	n/a
8.414	0.045	16828	keystroke_b	b	n/a
8.564	0.0745	17128	keystroke_r	r	n/a
8.684	0.0905	17368	keystroke_o	o	n/a
8.849	0.09	17698	keystroke_w	w	n/a
8.909	0.1045	17818	keystroke_n	n	n/a
9.0585	0.075	18117	keystroke_Key.space	Key.space	n/a
10.123	0.1055	20246	keystroke_g	g	n/a
10.6035	0.075	21207	keystroke_Key.backspace	Key.backspace	n/a
10.799	0.075	21598	keystroke_f	f	n/a
10.9035	0.1055	21807	keystroke_o	o	n/a
11.024	0.089	22048	keystroke_x	x	n/a
11.1435	0.09	22287	keystroke_Key.space	Key.space	n/a
11.293	0.0755	22586	keystroke_j	j	n/a
11.4585	0.0595	22917	keystroke_u	u	n/a
11.6085	0.09	23217	keystroke_m	m	n/a
11.7435	0.1205	23487	keystroke_p	p	n/a
11.9535	0.06	23907	keystroke_s	s	n/a
12.058	0.105	24116	keystroke_Key.space	Key.space	n/a
12.269	0.09	24538	keystroke_o	o	n/a
12.3735	0.075	24747	keystroke_v	v	n/a
12.5085	0.12	25017	keystroke_e	e	n/a
12.5985	0.105	25197	keystroke_r	r	n/a
12.7185	0.09	25437	keystroke_Key.space	Key.space	n/a
12.838	0.1055	25676	keystroke_a	a	n/a
12.9285	0.09	25857	keystroke_Key.space	Key.space	n/a
13.229	0.106	26458	keystroke_l	l	n/a
13.379	0.09	26758	keystroke_a	a	n/a
13.754	0.105	27508	keystroke_z	z	n/a
13.874	0.105	27748	keystroke_y	y	n/a
14.0085	0.06	28017	keystroke_Key.space	Key.space	n/a
14.218	0.061	28436	keystroke_d	d	n/a
14.2935	0.075	28587	keystroke_o	o	n/a
14.4285	0.0905	28857	keystroke_g	g	n/a
14.564	0.1045	29128	keystroke_Key.enter	Key.enter	n/a
14.6885	5.847	29377	prompt	n/a	inventory harper newbie fixes\n
15.4335	0.0605	30867	keystroke_i	i	n/a
15.5385	0.1205	31077	keystroke_n	n	n/a
15.7035	0.0895	31407	keystroke_v	v	n/a
15.9135	0.075	31827	keystroke_e	e	n/a
16.0045	0.104	32009	keystroke_n	n	n/a
16.214	0.06	32428	keystroke_t	t	n/a
16.379	0.0745	32758	keystroke_o	o	n/a
16.4985	0.06	32997	keystroke_r	r	n/a
16.589	0.12	33178	keystroke_y	y	n/a
16.663	0.0755	33326	keystroke_Key.space	Key.space	n/a
16.873	0.0755	33746	keystroke_h	h	n/a
16.9785	0.1055	33957	keystroke_a	a	n/a
17.0385	0.1205	34077	keystroke_r	r	n/a
17.293	0.1055	34586	keystroke_p	p	n/a
17.3835	0.106	34767	keystroke_e	e	n/a
17.4595	0.1185	34919	keystroke_r	r	n/a
17.5635	0.075	35127	keystroke_Key.space	Key.space	n/a
17.773	0.1055	35546	keystroke_n	n	n/a
17.9675	0.0905	35935	keystroke_e	e	n/a
18.1185	0.075	36237	keystroke_i	i	n/a
18.5835	0.075	37167	keystroke_Key.backspace	Key.backspace	n/a
18.7485	0.074	37497	keystroke_w	w	n/a
19.003	0.091	38006	keystroke_b	b	n/a
19.1235	0.09	38247	keystroke_i	i	n/a
19.229	0.0745	38458	keystroke_e	e	n/a
19.3935	0.075	38787	keystroke_Key.space	Key.space	n/a
19.5735	0.0895	39147	keystroke_f	f	n/a
19.6785	0.09	39357	keystroke_i	i	n/a
19.8135	0.105	39627	keystroke_x	x	n/a
20.0235	0.0755	40047	keystroke_e	e	n/a
20.249	0.0745	40498	keystroke_s	s	n/a
20.4285	0.105	40857	keystroke_Key.enter	Key.enter	n/a
20.542	7.8535	41084	prompt	n/a	float hawk conscious family\n
21.2225	0.091	42445	keystroke_f	f	n/a
21.3285	0.075	42657	keystroke_l	l	n/a
21.5085	0.0755	43017	keystroke_o	o	n/a
21.688	0.105	43376	keystroke_a	a	n/a
21.8985	0.06	43797	keystroke_t	t	n/a
22.018	0.061	44036	keystroke_Key.space	Key.space	n/a
22.3185	0.0895	44637	keystroke_h	h	n/a
22.4385	0.1195	44877	keystroke_a	a	n/a
22.573	0.075	45146	keystroke_r	r	n/a
23.0225	0.091	46045	keystroke_Key.backspace	Key.backspace	n/a
23.1735	0.105	46347	keystroke_w	w	n/a
23.4435	0.105	46887	keystroke_k	k	n/a
23.5935	0.0595	47187	keystroke_Key.space	Key.space	n/a
23.7885	0.0905	47577	keystroke_c	c	n/a
23.8635	0.1495	47727	keystroke_o	o	n/a
23.9535	0.1655	47907	keystroke_n	n	n/a
24.2085	0.09	48417	keystroke_s	s	n/a
24.479	0.0745	48958	keystroke_c	c	n/a
24.6435	0.0905	49287	keystroke_o	o	n/a
25.094	0.0595	50188	keystroke_i	i	n/a
26.1135	0.06	52227	keystroke_Key.backspace	Key.backspace	n/a
26.2635	0.06	52527	keystroke_Key.backspace	Key.backspace	n/a
26.5035	0.0755	53007	keystroke_i	i	n/a
26.729	0.0905	53458	keystroke_o	o	n/a
26.7885	0.15	53577	keystroke_u	u	n/a
26.954	0.1045	53908	keystroke_s	s	n/a
27.1935	0.09	54387	keystroke_Key.space	Key.space	n/a
27.3735	0.09	54747	keystroke_f	f	n/a
27.4935	0.105	54987	keystroke_a	a	n/a
27.6135	0.105	55227	keystroke_m	m	n/a
27.7485	0.1505	55497	keystroke_i	i	n/a
27.8685	0.165	55737	keystroke_l	l	n/a
28.0035	0.149	56007	keystroke_y	y	n/a
28.2885	0.105	56577	keystroke_Key.enter	Key.enter	n/a
28.4005	6.52	56801	prompt	n/a	marc flickr document ecommerce\n
29.158	0.09	58316	keystroke_m	m	n/a
29.309	0.12	58618	keystroke_a	a	n/a
29.4135	0.12	58827	keystroke_r	r	n/a
29.6835	0.105	59367	keystroke_c	c	n/a
29.818	0.0905	59636	keystroke_Key.space	Key.space	n/a
30.0725	0.0755	60145	keystroke_f	f	n/a
30.1635	0.12	60327	keystroke_l	l	n/a
30.253	0.15	60506	keystroke_i	i	n/a
30.448	0.075	60896	keystroke_c	c	n/a
30.7485	0.09	61497	keystroke_k	k	n/a
31.0935	0.075	62187	keystroke_r	r	n/a
31.3335	0.075	62667	keystroke_Key.space	Key.space	n/a
31.5735	0.075	63147	keystroke_d	d	n/a
31.6635	0.105	63327	keystroke_o	o	n/a
31.8885	0.0755	63777	keystroke_c	c	n/a
31.9785	0.075	63957	keystroke_u	u	n/a
32.1735	0.09	64347	keystroke_m	m	n/a
32.309	0.09	64618	keystroke_e	e	n/a
32.384	0.09	64768	keystroke_n	n	n/a
32.489	0.075	64978	keystroke_t	t	n/a
32.5785	0.09	65157	keystroke_Key.space	Key.space	n/a
32.8335	0.0745	65667	keystroke_e	e	n/a
33.1485	0.105	66297	keystroke_c	c	n/a
33.3135	0.105	66627	keystroke_o	o	n/a
33.7185	0.045	67437	keystroke_m	m	n/a
33.868	0.075	67736	keystroke_m	m	n/a
34.048	0.0905	68096	keystroke_e	e	n/a
34.123	0.12	68246	keystroke_r	r	n/a
34.4535	0.075	68907	keystroke_c	c	n/a
34.6485	0.06	69297	keystroke_e	e	n/a
34.8285	0.09	69657	keystroke_Key.enter	Key.enter	n/a
34.926	7.135	69852	prompt	n/a	display elite greeting enter\n
35.7885	0.075	71577	keystroke_d	d	n/a
35.8785	0.09	71757	keystroke_i	i	n/a
36.2835	0.09	72567	keystroke_p	p	n/a
36.4785	0.1045	72957	keystroke_l	l	n/a
36.598	0.106	73196	keystroke_a	a	n/a
36.7185	0.09	73437	keystroke_y	y	n/a
37.049	0.045	74098	keystroke_e	e	n/a
37.6325	0.076	75265	keystroke_Key.backspace	Key.backspace	n/a
37.873	0.0305	75746	keystroke_Key.backspace	Key.backspace	n/a
38.593	0.09	77186	keystroke_y	y	n/a
38.758	0.075	77516	keystroke_Key.space	Key.space	n/a
39.073	0.075	78146	keystroke_e	e	n/a
39.223	0.091	78446	keystroke_l	l	n/a
39.3435	0.105	78687	keystroke_i	i	n/a
39.509	0.0895	79018	keystroke_t	t	n/a
39.629	0.09	79258	keystroke_e	e	n/a
39.7625	0.076	79525	keystroke_Key.space	Key.space	n/a
39.9885	0.06	79977	keystroke_g	g	n/a
40.1535	0.075	80307	keystroke_r	r	n/a
40.3035	0.061	80607	keystroke_e	e	n/a
40.4685	0.06	80937	keystroke_e	e	n/a
40.6035	0.075	81207	keystroke_t	t	n/a
40.7985	0.135	81597	keystroke_i	i	n/a
40.8735	0.165	81747	keystroke_n	n	n/a
40.9485	0.105	81897	keystroke_g	g	n/a
41.0235	0.105	82047	keystroke_Key.space	Key.space	n/a
41.2335	0.0605	82467	keystroke_e	e	n/a
41.3685	0.09	82737	keystroke_n	n	n/a
41.4735	0.0755	82947	keystroke_t	t	n/a
41.639	0.0895	83278	keystroke_e	e	n/a
41.713	0.1205	83426	keystroke_r	r	n/a
41.9685	0.0895	83937	keystroke_Key.enter	Key.enter	n/a
42.0665	7.4045	84133	prompt	n/a	save earl perception thereafter\n
43.0185	0.09	86037	keystroke_s	s	n/a
43.1385	0.0905	86277	keystroke_a	a	n/a
43.274	0.104	86548	keystroke_v	v	n/a
43.393	0.0755	86786	keystroke_e	e	n/a
43.483	0.075	86966	keystroke_Key.space	Key.space	n/a
43.709	0.075	87418	keystroke_e	e	n/a
43.8435	0.1045	87687	keystroke_a	a	n/a
43.903	0.136	87806	keystroke_r	r	n/a
44.1585	0.15	88317	keystroke_l	l	n/a
44.2785	0.1205	88557	keystroke_y	y	n/a
44.4285	0.0605	88857	keystroke_Key.space	Key.space	n/a
44.8785	0.105	89757	keystroke_p	p	n/a
44.9685	0.0755	89937	keystroke_e	e	n/a
45.2235	0.075	90447	keystroke_r	r	n/a
45.5235	0.09	91047	keystroke_c	c	n/a
45.7335	0.0605	91467	keystroke_e	e	n/a
45.899	0.104	91798	keystroke_p	p	n/a
46.064	0.06	92128	keystroke_t	t	n/a
46.139	0.135	92278	keystroke_i	i	n/a
46.228	0.181	92456	keystroke_o	o	n/a
46.3485	0.196	92697	keystroke_n	n	n/a
46.454	0.074	92908	keystroke_Key.space	Key.space	n/a
46.634	0.075	93268	keystroke_t	t	n/a
46.7535	0.09	93507	keystroke_h	h	n/a
46.9185	0.09	93837	keystroke_e	e	n/a
47.2785	0.09	94557	keystroke_r	r	n/a
47.6535	0.075	95307	keystroke_e	e	n/a
47.878	0.106	95756	keystroke_a	a	n/a
48.4485	0.105	96897	keystroke_f	f	n/a
48.8985	0.06	97797	keystroke_t	t	n/a
49.0485	0.1045	98097	keystroke_e	e	n/a
49.1385	0.075	98277	keystroke_r	r	n/a
49.3935	0.075	98787	keystroke_Key.enter	Key.enter	n/a
49.478	4.538	98956	prompt	n/a	binary systems cuts of\n
50.234	0.075	100468	keystroke_b	b	n/a
50.413	0.076	100826	keystroke_i	i	n/a
50.579	0.105	101158	keystroke_n	n	n/a
50.744	0.12	101488	keystroke_a	a	n/a
50.834	0.104	101668	keystroke_r	r	n/a
50.9835	0.09	101967	keystroke_y	y	n/a
51.104	0.074	102208	keystroke_Key.space	Key.space	n/a
51.2845	0.0895	102569	keystroke_s	s	n/a
51.404	0.089	102808	keystroke_y	y	n/a
51.509	0.075	103018	keystroke_s	s	n/a
51.644	0.1045	103288	keystroke_t	t	n/a
51.7785	0.075	103557	keystroke_e	e	n/a
51.8985	0.105	103797	keystroke_m	m	n/a
52.0185	0.105	104037	keystroke_Key.space	Key.space	n/a
52.3045	0.074	104609	keystroke_c	c	n/a
52.4085	0.0755	104817	keystroke_u	u	n/a
52.5585	0.061	105117	keystroke_t	t	n/a
52.7235	0.091	105447	keystroke_s	s	n/a
52.874	0.0595	105748	keystroke_Key.space	Key.space	n/a
53.1885	0.0755	106377	keystroke_o	o	n/a
53.309	0.09	106618	keystroke_f	f	n/a
53.3835	0.0745	106767	keystroke_Key.space	Key.space	n/a
53.924	0.0895	107848	keystroke_Key.enter	Key.enter	n/a
54.0245	6.066	108049	prompt	n/a	executed entirely photos note\n
55.7235	0.075	111447	keystroke_e	e	n/a
55.9485	0.09	111897	keystroke_x	x	n/a
56.2485	0.0605	112497	keystroke_e	e	n/a
56.639	0.105	113278	keystroke_c	c	n/a
56.774	0.0895	113548	keystroke_u	u	n/a
56.8935	0.075	113787	keystroke_t	t	n/a
57.0285	0.075	114057	keystroke_e	e	n/a
57.2085	0.075	114417	keystroke_d	d	n/a
57.3135	0.09	114627	keystroke_Key.space	Key.space	n/a
57.5085	0.075	115017	keystroke_e	e	n/a
57.644	0.1045	115288	keystroke_n	n	n/a
57.7645	0.074	115529	keystroke_t	t	n/a
57.8695	0.09	115739	keystroke_i	i	n/a
57.9615	0.0875	115923	keystroke_r	r	n/a
58.139	0.074	116278	keystroke_e	e	n/a
58.289	0.135	116578	keystroke_l	l	n/a
58.394	0.12	116788	keystroke_y	y	n/a
58.498	0.075	116996	keystroke_Key.space	Key.space	n/a
58.6795	0.1045	117359	keystroke_p	p	n/a
58.798	0.12	117596	keystroke_h	h	n/a
58.8735	0.135	117747	keystroke_o	o	n/a
59.0235	0.075	118047	keystroke_t	t	n/a
59.114	0.1045	118228	keystroke_o	o	n/a
59.234	0.09	118468	keystroke_s	s	n/a
59.354	0.0745	118708	keystroke_Key.space	Key.space	n/a
59.519	0.1195	119038	keystroke_n	n	n/a
59.624	0.1345	119248	keystroke_o	o	n/a
59.7285	0.105	119457	keystroke_t	t	n/a
59.8485	0.075	119697	keystroke_e	e	n/a
59.9835	0.105	119967	keystroke_Key.enter	Key.enter	n/a
60.0985	5.7685	120197	prompt	n/a	recorded somerset table bringing\n
60.809	0.075	121618	keystroke_r	r	n/a
60.899	0.075	121798	keystroke_e	e	n/a
61.063	0.091	122126	keystroke_c	c	n/a
61.155	0.103	122310	keystroke_o	o	n/a
61.273	0.061	122546	keystroke_r	r	n/a
61.469	0.0905	122938	keystroke_d	d	n/a
61.6335	0.0745	123267	keystroke_e	e	n/a
62.0385	0.06	124077	keystroke_d	d	n/a
62.188	0.09	124376	keystroke_Key.space	Key.space	n/a
62.384	0.075	124768	keystroke_s	s	n/a
62.489	0.089	124978	keystroke_o	o	n/a
62.608	0.106	125216	keystroke_m	m	n/a
62.759	0.075	125518	keystroke_e	e	n/a
62.969	0.09	125938	keystroke_r	r	n/a
63.239	0.0895	126478	keystroke_s	s	n/a
63.4035	0.075	126807	keystroke_e	e	n/a
63.5385	0.0745	127077	keystroke_t	t	n/a
63.659	0.074	127318	keystroke_Key.space	Key.space	n/a
63.8985	0.075	127797	keystroke_t	t	n/a
64.019	0.0905	128038	keystroke_a	a	n/a
64.1685	0.075	128337	keystroke_b	b	n/a
64.3335	0.105	128667	keystroke_l	l	n/a
64.4235	0.09	128847	keystroke_e	e	n/a
64.5285	0.075	129057	keystroke_Key.space	Key.space	n/a
64.7535	0.09	129507	keystroke_b	b	n/a
64.9495	0.075	129899	keystroke_r	r	n/a
65.084	0.15	130168	keystroke_i	i	n/a
65.189	0.105	130378	keystroke_n	n	n/a
65.3245	0.0895	130649	keystroke_g	g	n/a
65.399	0.12	130798	keystroke_i	i	n/a
65.474	0.15	130948	keystroke_n	n	n/a
65.579	0.09	131158	keystroke_g	g	n/a
65.759	0.1045	131518	keystroke_Key.enter	Key.enter	n/a
65.876	9.111	131752	prompt	n/a	applicants repeat problem protecting\n
66.4935	0.105	132987	keystroke_a	a	n/a
66.6285	0.075	133257	keystroke_p	p	n/a
66.7795	0.09	133559	keystroke_p	p	n/a
66.9135	0.1355	133827	keystroke_l	l	n/a
67.064	0.075	134128	keystroke_i	i	n/a
67.184	0.09	134368	keystroke_c	c	n/a
67.275	0.104	134550	keystroke_a	a	n/a
67.499	0.09	134998	keystroke_n	n	n/a
67.619	0.09	135238	keystroke_t	t	n/a
67.784	0.09	135568	keystroke_s	s	n/a
67.903	0.0605	135806	keystroke_Key.space	Key.space	n/a
68.084	0.089	136168	keystroke_r	r	n/a
68.158	0.076	136316	keystroke_e	e	n/a
68.338	0.1055	136676	keystroke_p	p	n/a
68.4585	0.0445	136917	keystroke_a	a	n/a
68.549	0.075	137098	keystroke_e	e	n/a
68.864	0.105	137728	keystroke_a	a	n/a
69.134	0.09	138268	keystroke_r	r	n/a
69.434	0.06	138868	keystroke_Key.backspace	Key.backspace	n/a
69.5985	0.06	139197	keystroke_Key.backspace	Key.backspace	n/a
69.7645	0.059	139529	keystroke_Key.backspace	Key.backspace	n/a
69.9285	0.06	139857	keystroke_Key.backspace	Key.backspace	n/a
70.469	0.015	140938	keystroke_e	e	n/a
70.4985	0.03	140997	keystroke_a	a	n/a
70.5135	0.031	141027	keystroke_r	r	n/a
71.0085	0.045	142017	keystroke_Key.backspace	Key.backspace	n/a
71.0985	0.09	142197	keystroke_t	t	n/a
71.2185	0.09	142437	keystroke_Key.space	Key.space	n/a
71.578	0.09	143156	keystroke_p	p	n/a
71.6535	0.091	143307	keystroke_r	r	n/a
71.7745	0.09	143549	keystroke_o	o	n/a
71.954	0.09	143908	keystroke_b	b	n/a
72.1035	0.105	144207	keystroke_l	l	n/a
72.3585	0.06	144717	keystroke_e	e	n/a
72.449	0.09	144898	keystroke_m	m	n/a
72.568	0.09	145136	keystroke_Key.space	Key.space	n/a
72.779	0.09	145558	keystroke_p	p	n/a
72.8835	0.075	145767	keystroke_r	r	n/a
73.319	0.0745	146638	keystroke_o	o	n/a
73.5585	0.0755	147117	keystroke_t	t	n/a
73.7235	0.06	147447	keystroke_e	e	n/a
74.008	0.091	148016	keystroke_c	c	n/a
74.203	0.0605	148406	keystroke_t	t	n/a
74.354	0.089	148708	keystroke_i	i	n/a
74.594	0.0895	149188	keystroke_n	n	n/a
74.699	0.0895	149398	keystroke_g	g	n/a
74.8935	0.09	149787	keystroke_Key.enter	Key.enter	n/a
74.993	9.997	149986	prompt	n/a	beautiful bristol temperatures additional\n
75.6745	0.0735	151349	keystroke_b	b	n/a
75.8235	0.075	151647	keystroke_e	e	n/a
75.989	0.0895	151978	keystroke_a	a	n/a
76.2735	0.061	152547	keystroke_t	t	n/a
76.3635	0.09	152727	keystroke_i	i	n/a
76.5585	0.076	153117	keystroke_f	f	n/a
76.6485	0.09	153297	keystroke_u	u	n/a
77.084	0.0895	154168	keystroke_l	l	n/a
77.3685	0.075	154737	keystroke_Key.space	Key.space	n/a
77.6385	0.075	155277	keystroke_b	b	n/a
77.9535	0.06	155907	keystroke_r	r	n/a
78.389	0.0595	156778	keystroke_i	i	n/a
79.139	0.09	158278	keystroke_s	s	n/a
79.303	0.076	158606	keystroke_t	t	n/a
79.4395	0.089	158879	keystroke_o	o	n/a
79.678	0.0755	159356	keystroke_Key.space	Key.space	n/a
79.6935	0.105	159387	keystroke_l	l	n/a
80.3835	0.044	160767	keystroke_Key.backspace	Key.backspace	n/a
80.5185	0.06	161037	keystroke_Key.backspace	Key.backspace	n/a
80.7285	0.09	161457	keystroke_l	l	n/a
80.8785	0.06	161757	keystroke_Key.space	Key.space	n/a
81.4635	0.075	162927	keystroke_t	t	n/a
81.5985	0.0755	163197	keystroke_e	e	n/a
81.7335	0.12	163467	keystroke_m	m	n/a
81.928	0.105	163856	keystroke_p	p	n/a
82.0785	0.0905	164157	keystroke_e	e	n/a
82.214	0.0895	164428	keystroke_r	r	n/a
82.3635	0.105	164727	keystroke_a	a	n/a
82.604	0.06	165208	keystroke_t	t	n/a
82.6935	0.091	165387	keystroke_u	u	n/a
82.7855	0.1335	165571	keystroke_r	r	n/a
82.874	0.09	165748	keystroke_e	e	n/a
83.0845	0.0895	166169	keystroke_s	s	n/a
83.2335	0.075	166467	keystroke_Key.space	Key.space	n/a
83.4295	0.089	166859	keystroke_a	a	n/a
83.624	0.0605	167248	keystroke_d	d	n/a
83.7885	0.0455	167577	keystroke_d	d	n/a
83.9535	0.06	167907	keystroke_i	i	n/a
84.1035	0.0755	168207	keystroke_t	t	n/a
84.164	0.12	168328	keystroke_i	i	n/a
84.254	0.164	168508	keystroke_o	o	n/a
84.373	0.135	168746	keystroke_n	n	n/a
84.463	0.151	168926	keystroke_a	a	n/a
84.628	0.1055	169256	keystroke_l	l	n/a
84.9135	0.075	169827	keystroke_Key.enter	Key.enter	n/a
84.9945	6.2075	169989	prompt	n/a	situations removal anyway details\n
85.7685	0.12	171537	keystroke_s	s	n/a
85.904	0.06	171808	keystroke_i	i	n/a
86.204	0.0895	172408	keystroke_t	t	n/a
86.3235	0.075	172647	keystroke_u	u	n/a
86.4435	0.12	172887	keystroke_a	a	n/a
86.6835	0.075	173367	keystroke_t	t	n/a
86.7285	0.151	173457	keystroke_i	i	n/a
86.8335	0.165	173667	keystroke_o	o	n/a
86.939	0.1795	173878	keystroke_n	n	n/a
87.0735	0.0905	174147	keystroke_s	s	n/a
87.2085	0.09	174417	keystroke_Key.space	Key.space	n/a
87.3885	0.12	174777	keystroke_r	r	n/a
87.4935	0.09	174987	keystroke_e	e	n/a
87.6595	0.105	175319	keystroke_m	m	n/a
87.8235	0.0895	175647	keystroke_o	o	n/a
87.9585	0.09	175917	keystroke_v	v	n/a
88.1535	0.1195	176307	keystroke_a	a	n/a
88.288	0.105	176576	keystroke_l	l	n/a
88.3785	0.0895	176757	keystroke_Key.space	Key.space	n/a
88.589	0.1045	177178	keystroke_a	a	n/a
88.663	0.135	177326	keystroke_n	n	n/a
88.979	0.075	177958	keystroke_y	y	n/a
89.323	0.076	178646	keystroke_w	w	n/a
89.444	0.105	178888	keystroke_a	a	n/a
89.579	0.09	179158	keystroke_y	y	n/a
89.758	0.0755	179516	keystroke_Key.space	Key.space	n/a
90.1035	0.075	180207	keystroke_d	d	n/a
90.2835	0.0445	180567	keystroke_e	e	n/a
90.389	0.089	180778	keystroke_t	t	n/a
90.523	0.106	181046	keystroke_a	a	n/a
90.643	0.136	181286	keystroke_i	i	n/a
90.749	0.165	181498	keystroke_l	l	n/a
90.854	0.09	181708	keystroke_s	s	n/a
91.093	0.106	182186	keystroke_Key.enter	Key.enter	n/a
91.213	8.3725	182426	prompt	n/a	platinum sports portfolio reducing\n
91.919	0.09	183838	keystroke_p	p	n/a
92.159	0.105	184318	keystroke_l	l	n/a
92.324	0.12	184648	keystroke_a	a	n/a
92.789	0.075	185578	keystroke_t	t	n/a
92.865	0.0735	185730	keystroke_i	i	n/a
92.9835	0.12	185967	keystroke_n	n	n/a
93.254	0.06	186508	keystroke_u	u	n/a
93.434	0.105	186868	keystroke_m	m	n/a
93.628	0.06	187256	keystroke_Key.space	Key.space	n/a
93.8535	0.1055	187707	keystroke_s	s	n/a
94.004	0.075	188008	keystroke_p	p	n/a
94.183	0.076	188366	keystroke_o	o	n/a
94.289	0.0755	188578	keystroke_r	r	n/a
94.4685	0.06	188937	keystroke_t	t	n/a
94.5735	0.105	189147	keystroke_s	s	n/a
94.709	0.0745	189418	keystroke_Key.space	Key.space	n/a
94.9935	0.0755	189987	keystroke_p	p	n/a
95.1285	0.105	190257	keystroke_o	o	n/a
95.264	0.0895	190528	keystroke_r	r	n/a
95.5345	0.075	191069	keystroke_t	t	n/a
95.7435	0.105	191487	keystroke_o	o	n/a
96.4635	0.0755	192927	keystroke_Key.backspace	Key.backspace	n/a
96.6885	0.076	193377	keystroke_f	f	n/a
96.8385	0.075	193677	keystroke_o	o	n/a
97.0335	0.0755	194067	keystroke_l	l	n/a
97.244	0.104	194488	keystroke_i	i	n/a
97.424	0.09	194848	keystroke_o	o	n/a
97.663	0.075	195326	keystroke_Key.space	Key.space	n/a
97.8435	0.12	195687	keystroke_r	r	n/a
97.9485	0.09	195897	keystroke_e	e	n/a
98.1735	0.105	196347	keystroke_d	d	n/a
98.2935	0.09	196587	keystroke_u	u	n/a
98.4585	0.09	196917	keystroke_c	c	n/a
99.0285	0.12	198057	keystroke_i	i	n/a
99.1185	0.18	198237	keystroke_n	n	n/a
99.2085	0.121	198417	keystroke_g	g	n/a
99.4785	0.105	198957	keystroke_Key.enter	Key.enter	n/a
99.5895	7.2425	199179	prompt	n/a	place france countries politicians\n
100.274	0.09	200548	keystroke_p	p	n/a
100.439	0.105	200878	keystroke_l	l	n/a
100.559	0.0895	201118	keystroke_a	a	n/a
100.723	0.091	201446	keystroke_c	c	n/a
100.919	0.06	201838	keystroke_e	e	n/a
101.008	0.075	202016	keystroke_Key.space	Key.space	n/a
101.143	0.105	202286	keystroke_f	f	n/a
101.3385	0.06	202677	keystroke_r	r	n/a
101.5185	0.105	203037	keystroke_a	a	n/a
101.789	0.0895	203578	keystroke_n	n	n/a
101.9535	0.09	203907	keystroke_c	c	n/a
102.1335	0.075	204267	keystroke_e	e	n/a
102.2535	0.075	204507	keystroke_Key.space	Key.space	n/a
102.5235	0.0755	205047	keystroke_c	c	n/a
102.644	0.119	205288	keystroke_o	o	n/a
102.748	0.091	205496	keystroke_u	u	n/a
102.944	0.1045	205888	keystroke_n	n	n/a
103.2135	0.0755	206427	keystroke_t	t	n/a
103.4085	0.09	206817	keystroke_r	r	n/a
103.544	0.0745	207088	keystroke_i	i	n/a
103.6485	0.075	207297	keystroke_e	e	n/a
103.859	0.0745	207718	keystroke_d	d	n/a
104.2635	0.075	208527	keystroke_Key.backspace	Key.backspace	n/a
104.3985	0.09	208797	keystroke_s	s	n/a
104.5035	0.09	209007	keystroke_Key.space	Key.space	n/a
104.684	0.0895	209368	keystroke_p	p	n/a
104.8635	0.091	209727	keystroke_o	o	n/a
105.1185	0.0755	210237	keystroke_l	l	n/a
105.2985	0.075	210597	keystroke_i	i	n/a
105.704	0.075	211408	keystroke_t	t	n/a
105.8385	0.09	211677	keystroke_i	i	n/a
106.048	0.1055	212096	keystroke_c	c	n/a
106.1685	0.075	212337	keystroke_i	i	n/a
106.2585	0.12	212517	keystroke_a	a	n/a
106.3635	0.1205	212727	keystroke_n	n	n/a
106.5735	0.0905	213147	keystroke_s	s	n/a
106.7235	0.105	213447	keystroke_Key.enter	Key.enter	n/a
106.844	4.906	213688	prompt	n/a	pulled linking approval tabs\n
107.4585	0.0905	214917	keystroke_p	p	n/a
107.594	0.09	215188	keystroke_u	u	n/a
107.789	0.06	215578	keystroke_l	l	n/a
107.924	0.075	215848	keystroke_l	l	n/a
108.014	0.0895	216028	keystroke_e	e	n/a
108.1785	0.09	216357	keystroke_d	d	n/a
108.2835	0.075	216567	keystroke_Key.space	Key.space	n/a
108.4485	0.075	216897	keystroke_l	l	n/a
108.5835	0.09	217167	keystroke_i	i	n/a
108.7035	0.15	217407	keystroke_n	n	n/a
108.8685	0.105	217737	keystroke_k	k	n/a
109.0785	0.12	218157	keystroke_i	i	n/a
109.1685	0.15	218337	keystroke_n	n	n/a
109.2595	0.119	218519	keystroke_g	g	n/a
109.3635	0.074	218727	keystroke_Key.space	Key.space	n/a
109.5285	0.12	219057	keystroke_a	a	n/a
109.6635	0.075	219327	keystroke_p	p	n/a
109.7975	0.0755	219595	keystroke_p	p	n/a
109.918	0.0905	219836	keystroke_r	r	n/a
110.024	0.09	220048	keystroke_o	o	n/a
110.3095	0.0895	220619	keystroke_v	v	n/a
110.444	0.105	220888	keystroke_a	a	n/a
110.564	0.135	221128	keystroke_l	l	n/a
110.7585	0.075	221517	keystroke_Key.space	Key.space	n/a
110.9985	0.0755	221997	keystroke_t	t	n/a
111.1335	0.075	222267	keystroke_a	a	n/a
111.2685	0.09	222537	keystroke_b	b	n/a
111.4485	0.105	222897	keystroke_s	s	n/a
111.6585	0.09	223317	keystroke_Key.enter	Key.enter	n/a
111.7565	6.279	223513	prompt	n/a	attending committees prefix sheet\n
112.4385	0.105	224877	keystroke_a	a	n/a
112.619	0.0745	225238	keystroke_t	t	n/a
112.7685	0.06	225537	keystroke_t	t	n/a
112.9035	0.075	225807	keystroke_e	e	n/a
113.0385	0.105	226077	keystroke_n	n	n/a
113.1735	0.09	226347	keystroke_d	d	n/a
113.2935	0.15	226587	keystroke_i	i	n/a
113.3835	0.1655	226767	keystroke_n	n	n/a
113.459	0.1495	226918	keystroke_g	g	n/a
113.5935	0.06	227187	keystroke_Key.space	Key.space	n/a
113.7735	0.0905	227547	keystroke_c	c	n/a
113.8785	0.1345	227757	keystroke_o	o	n/a
113.9985	0.0895	227997	keystroke_m	m	n/a
114.208	0.0905	228416	keystroke_m	m	n/a
114.4185	0.0745	228837	keystroke_i	i	n/a
114.599	0.0595	229198	keystroke_t	t	n/a
114.7635	0.06	229527	keystroke_t	t	n/a
114.9885	0.06	229977	keystroke_e	e	n/a
115.1835	0.0455	230367	keystroke_e	e	n/a
115.7085	0.045	231417	keystroke_s	s	n/a
115.9635	0.075	231927	keystroke_Key.space	Key.space	n/a
116.174	0.105	232348	keystroke_p	p	n/a
116.2795	0.104	232559	keystroke_r	r	n/a
116.369	0.0745	232738	keystroke_e	e	n/a
116.5935	0.0755	233187	keystroke_f	f	n/a
116.714	0.0895	233428	keystroke_i	i	n/a
116.8635	0.105	233727	keystroke_x	x	n/a
117.0735	0.075	234147	keystroke_Key.space	Key.space	n/a
117.2535	0.09	234507	keystroke_s	s	n/a
117.3585	0.09	234717	keystroke_h	h	n/a
117.5085	0.0605	235017	keystroke_e	e	n/a
117.6735	0.045	235347	keystroke_e	e	n/a
117.7335	0.0905	235467	keystroke_t	t	n/a
117.943	0.0905	235886	keystroke_Key.enter	Key.enter	n/a
118.0445	7.913	236089	prompt	n/a	researcher kurt operations americas\n
118.6935	0.075	237387	keystroke_r	r	n/a
118.8285	0.076	237657	keystroke_e	e	n/a
119.0535	0.105	238107	keystroke_s	s	n/a
119.2635	0.0745	238527	keystroke_e	e	n/a
119.428	0.106	238856	keystroke_a	a	n/a
119.504	0.105	239008	keystroke_r	r	n/a
119.789	0.089	239578	keystroke_c	c	n/a
119.894	0.105	239788	keystroke_h	h	n/a
120.074	0.09	240148	keystroke_e	e	n/a
120.18	0.1045	240360	keystroke_r	r	n/a
120.3885	0.075	240777	keystroke_Key.space	Key.space	n/a
121.064	0.135	242128	keystroke_k	k	n/a
121.244	0.0895	242488	keystroke_u	u	n/a
121.4085	0.075	242817	keystroke_r	r	n/a
121.633	0.1055	243266	keystroke_t	t	n/a
121.814	0.0595	243628	keystroke_Key.space	Key.space	n/a
122.0985	0.09	244197	keystroke_o	o	n/a
122.4885	0.1055	244977	keystroke_p	p	n/a
122.654	0.09	245308	keystroke_e	e	n/a
122.8195	0.074	245639	keystroke_r	r	n/a
122.969	0.105	245938	keystroke_a	a	n/a
123.149	0.0745	246298	keystroke_t	t	n/a
123.2085	0.1355	246417	keystroke_i	i	n/a
123.314	0.165	246628	keystroke_o	o	n/a
123.4185	0.1655	246837	keystroke_n	n	n/a
123.5235	0.0905	247047	keystroke_s	s	n/a
123.644	0.1045	247288	keystroke_Key.space	Key.space	n/a
123.8535	0.12	247707	keystroke_a	a	n/a
124.0485	0.1055	248097	keystroke_m	m	n/a
124.274	0.0895	248548	keystroke_e	e	n/a
124.3485	0.1055	248697	keystroke_r	r	n/a
124.709	0.075	249418	keystroke_i	i	n/a
125.234	0.105	250468	keystroke_c	c	n/a
125.444	0.105	250888	keystroke_a	a	n/a
125.654	0.075	251308	keystroke_s	s	n/a
125.8635	0.09	251727	keystroke_Key.enter	Key.enter	n/a
125.963	6.457	251926	prompt	n/a	exceed grateful seasonal mesh\n
126.7045	0.089	253409	keystroke_e	e	n/a
126.929	0.1195	253858	keystroke_x	x	n/a
127.499	0.075	254998	keystroke_c	c	n/a
127.678	0.06	255356	keystroke_e	e	n/a
127.844	0.074	255688	keystroke_e	e	n/a
128.009	0.0745	256018	keystroke_d	d	n/a
128.1135	0.09	256227	keystroke_Key.space	Key.space	n/a
128.4285	0.0605	256857	keystroke_g	g	n/a
128.579	0.06	257158	keystroke_r	r	n/a
128.699	0.105	257398	keystroke_a	a	n/a
128.864	0.0905	257728	keystroke_t	t	n/a
128.984	0.1055	257968	keystroke_e	e	n/a
129.2685	0.1055	258537	keystroke_f	f	n/a
129.3885	0.09	258777	keystroke_u	u	n/a
129.6285	0.105	259257	keystroke_l	l	n/a
129.854	0.0595	259708	keystroke_Key.space	Key.space	n/a
130.124	0.0745	260248	keystroke_s	s	n/a
130.2585	0.09	260517	keystroke_e	e	n/a
130.3785	0.12	260757	keystroke_a	a	n/a
130.6935	0.075	261387	keystroke_s	s	n/a
130.7985	0.1505	261597	keystroke_o	o	n/a
130.8885	0.165	261777	keystroke_n	n	n/a
131.0685	0.105	262137	keystroke_a	a	n/a
131.1885	0.12	262377	keystroke_l	l	n/a
131.2785	0.09	262557	keystroke_Key.space	Key.space	n/a
131.578	0.09	263156	keystroke_m	m	n/a
131.7285	0.0605	263457	keystroke_e	e	n/a
131.9235	0.0905	263847	keystroke_s	s	n/a
132.0285	0.075	264057	keystroke_h	h	n/a
132.3285	0.0895	264657	keystroke_Key.enter	Key.enter	n/a
132.427	7.298	264854	prompt	n/a	recorders therapeutic credit ratings\n
133.079	0.09	266158	keystroke_r	r	n/a
133.154	0.089	266308	keystroke_e	e	n/a
133.4535	0.0895	266907	keystroke_c	c	n/a
133.559	0.1045	267118	keystroke_o	o	n/a
133.6935	0.0905	267387	keystroke_r	r	n/a
133.9345	0.0585	267869	keystroke_d	d	n/a
134.1135	0.0905	268227	keystroke_e	e	n/a
134.2185	0.0905	268437	keystroke_r	r	n/a
134.429	0.089	268858	keystroke_s	s	n/a
134.548	0.0605	269096	keystroke_Key.space	Key.space	n/a
134.7285	0.0755	269457	keystroke_t	t	n/a
134.819	0.12	269638	keystroke_h	h	n/a
134.969	0.105	269938	keystroke_e	e	n/a
135.224	0.075	270448	keystroke_r	r	n/a
135.359	0.119	270718	keystroke_a	a	n/a
135.7485	0.1195	271497	keystroke_p	p	n/a
135.913	0.106	271826	keystroke_e	e	n/a
136.304	0.075	272608	keystroke_u	u	n/a
136.678	0.076	273356	keystroke_t	t	n/a
136.784	0.075	273568	keystroke_i	i	n/a
136.9185	0.0895	273837	keystroke_c	c	n/a
137.068	0.0905	274136	keystroke_Key.space	Key.space	n/a
137.3845	0.075	274769	keystroke_c	c	n/a
137.5785	0.06	275157	keystroke_r	r	n/a
137.6995	0.089	275399	keystroke_e	e	n/a
138.0285	0.0755	276057	keystroke_d	d	n/a
138.119	0.09	276238	keystroke_i	i	n/a
138.238	0.0755	276476	keystroke_t	t	n/a
138.343	0.09	276686	keystroke_Key.space	Key.space	n/a
138.569	0.075	277138	keystroke_r	r	n/a
138.704	0.104	277408	keystroke_a	a	n/a
138.884	0.075	277768	keystroke_t	t	n/a
139.0645	0.1335	278129	keystroke_i	i	n/a
139.139	0.194	278278	keystroke_n	n	n/a
139.258	0.105	278516	keystroke_g	g	n/a
139.4385	0.105	278877	keystroke_s	s	n/a
139.618	0.1055	279236	keystroke_Key.enter	Key.enter	n/a
139.736	5.749	279472	prompt	n/a	roster corpus host safety\n
140.503	0.0755	281006	keystroke_r	r	n/a
140.608	0.105	281216	keystroke_o	o	n/a
140.833	0.0905	281666	keystroke_s	s	n/a
141.148	0.076	282296	keystroke_t	t	n/a
141.313	0.09	282626	keystroke_e	e	n/a
141.389	0.105	282778	keystroke_r	r	n/a
141.598	0.06	283196	keystroke_Key.space	Key.space	n/a
141.8385	0.09	283677	keystroke_c	c	n/a
142.229	0.1045	284458	keystroke_o	o	n/a
142.438	0.076	284876	keystroke_r	r	n/a
142.693	0.076	285386	keystroke_p	p	n/a
142.814	0.105	285628	keystroke_u	u	n/a
142.919	0.0895	285838	keystroke_s	s	n/a
143.0535	0.075	286107	keystroke_Key.space	Key.space	n/a
143.3235	0.0755	286647	keystroke_h	h	n/a
143.459	0.105	286918	keystroke_o	o	n/a
143.579	0.09	287158	keystroke_s	s	n/a
143.728	0.076	287456	keystroke_t	t	n/a
143.9235	0.0755	287847	keystroke_Key.space	Key.space	n/a
144.104	0.0895	288208	keystroke_s	s	n/a
144.2535	0.105	288507	keystroke_a	a	n/a
144.5085	0.09	289017	keystroke_f	f	n/a
144.689	0.0745	289378	keystroke_e	e	n/a
144.974	0.0745	289948	keystroke_t	t	n/a
145.094	0.0745	290188	keystroke_y	y	n/a
145.3785	0.104	290757	keystroke_Key.enter	Key.enter	n/a
145.4895	7.212	290979	prompt	n/a	feedback discretion speed hepatitis\n
146.189	0.075	292378	keystroke_f	f	n/a
146.369	0.059	292738	keystroke_e	e	n/a
146.534	0.06	293068	keystroke_e	e	n/a
146.7135	0.0755	293427	keystroke_d	d	n/a
146.9385	0.0605	293877	keystroke_b	b	n/a
147.104	0.059	294208	keystroke_a	a	n/a
147.2535	0.075	294507	keystroke_c	c	n/a
147.389	0.09	294778	keystroke_k	k	n/a
147.463	0.09	294926	keystroke_Key.space	Key.space	n/a
147.674	0.0745	295348	keystroke_d	d	n/a
147.8385	0.0605	295677	keystroke_i	i	n/a
148.004	0.075	296008	keystroke_s	s	n/a
148.2285	0.0755	296457	keystroke_c	c	n/a
148.408	0.075	296816	keystroke_r	r	n/a
148.558	0.076	297116	keystroke_e	e	n/a
148.738	0.06	297476	keystroke_t	t	n/a
148.858	0.1505	297716	keystroke_i	i	n/a
148.9785	0.165	297957	keystroke_o	o	n/a
149.1135	0.15	298227	keystroke_n	n	n/a
149.2485	0.06	298497	keystroke_Key.space	Key.space	n/a
149.4135	0.09	298827	keystroke_s	s	n/a
149.579	0.1045	299158	keystroke_p	p	n/a
149.7285	0.075	299457	keystroke_e	e	n/a
149.894	0.074	299788	keystroke_e	e	n/a
150.118	0.075	300236	keystroke_k	k	n/a
150.449	0.0745	300898	keystroke_Key.backspace	Key.backspace	n/a
150.6135	0.0745	301227	keystroke_d	d	n/a
150.748	0.0755	301496	keystroke_Key.space	Key.space	n/a
151.0035	0.075	302007	keystroke_h	h	n/a
151.1985	0.06	302397	keystroke_e	e	n/a
151.4835	0.09	302967	keystroke_p	p	n/a
151.6035	0.1205	303207	keystroke_a	a	n/a
151.843	0.076	303686	keystroke_t	t	n/a
151.948	0.075	303896	keystroke_i	i	n/a
152.144	0.075	304288	keystroke_t	t	n/a
152.249	0.075	304498	keystroke_i	i	n/a
152.369	0.105	304738	keystroke_s	s	n/a
152.563	0.135	305126	keystroke_Key.enter	Key.enter	n/a
152.725	7.49	305450	prompt	n/a	table beijing descending hidden\n
153.3285	0.06	306657	keystroke_t	t	n/a
153.4485	0.0895	306897	keystroke_a	a	n/a
153.583	0.0895	307166	keystroke_b	b	n/a
153.703	0.1205	307406	keystroke_l	l	n/a
153.8085	0.0905	307617	keystroke_e	e	n/a
153.9275	0.075	307855	keystroke_Key.space	Key.space	n/a
154.1685	0.0755	308337	keystroke_g	g	n/a
154.9335	0.06	309867	keystroke_Key.backspace	Key.backspace	n/a
155.113	0.076	310226	keystroke_b	b	n/a
155.308	0.0755	310616	keystroke_e	e	n/a
156.164	0.075	312328	keystroke_i	i	n/a
156.464	0.0905	312928	keystroke_j	j	n/a
156.628	0.075	313256	keystroke_i	i	n/a
156.718	0.165	313436	keystroke_n	n	n/a
156.868	0.0905	313736	keystroke_g	g	n/a
157.0035	0.09	314007	keystroke_Key.space	Key.space	n/a
157.2885	0.09	314577	keystroke_d	d	n/a
157.4685	0.0605	314937	keystroke_e	e	n/a
157.6335	0.09	315267	keystroke_s	s	n/a
157.874	0.09	315748	keystroke_c	c	n/a
158.1435	0.06	316287	keystroke_e	e	n/a
158.2645	0.104	316529	keystroke_n	n	n/a
158.3985	0.1055	316797	keystroke_d	d	n/a
158.61	0.1335	317220	keystroke_i	i	n/a
158.684	0.1785	317368	keystroke_n	n	n/a
158.7885	0.104	317577	keystroke_g	g	n/a
158.8785	0.09	317757	keystroke_Key.space	Key.space	n/a
159.0885	0.09	318177	keystroke_h	h	n/a
159.2235	0.105	318447	keystroke_i	i	n/a
159.3735	0.0905	318747	keystroke_d	d	n/a
159.5385	0.075	319077	keystroke_d	d	n/a
159.719	0.045	319438	keystroke_e	e	n/a
159.839	0.09	319678	keystroke_n	n	n/a
160.1235	0.0895	320247	keystroke_Key.enter	Key.enter	n/a
160.2195	6.1005	320439	prompt	n/a	budgets famous choosing iraq\n
160.994	0.075	321988	keystroke_b	b	n/a
161.098	0.0755	322196	keystroke_u	u	n/a
161.2335	0.0905	322467	keystroke_d	d	n/a
161.4585	0.0605	322917	keystroke_g	g	n/a
161.609	0.044	323218	keystroke_e	e	n/a
161.699	0.104	323398	keystroke_t	t	n/a
161.848	0.106	323696	keystroke_s	s	n/a
161.9835	0.0745	323967	keystroke_Key.space	Key.space	n/a
162.178	0.09	324356	keystroke_f	f	n/a
162.329	0.1045	324658	keystroke_a	a	n/a
162.493	0.106	324986	keystroke_m	m	n/a
162.733	0.12	325466	keystroke_o	o	n/a
162.824	0.119	325648	keystroke_u	u	n/a
162.944	0.075	325888	keystroke_r	r	n/a
163.1385	0.0905	326277	keystroke_s	s	n/a
163.319	0.074	326638	keystroke_Key.space	Key.space	n/a
163.829	0.0895	327658	keystroke_c	c	n/a
163.9335	0.0745	327867	keystroke_h	h	n/a
164.159	0.075	328318	keystroke_o	o	n/a
164.324	0.0745	328648	keystroke_o	o	n/a
164.474	0.0895	328948	keystroke_s	s	n/a
164.743	0.106	329486	keystroke_i	i	n/a
164.8345	0.1645	329669	keystroke_n	n	n/a
164.893	0.136	329786	keystroke_g	g	n/a
165.015	0.073	330030	keystroke_Key.space	Key.space	n/a
165.4185	0.075	330837	keystroke_i	i	n/a
165.569	0.0745	331138	keystroke_r	r	n/a
165.764	0.105	331528	keystroke_a	a	n/a
165.9435	0.0905	331887	keystroke_d	d	n/a
166.2135	0.1045	332427	keystroke_Key.enter	Key.enter	n/a
166.324	9.2515	332648	prompt	n/a	aboriginal packets below normal\n
167.3535	0.1055	334707	keystroke_a	a	n/a
167.564	0.089	335128	keystroke_b	b	n/a
168.7185	0.105	337437	keystroke_o	o	n/a
169.2585	0.0905	338517	keystroke_r	r	n/a
169.439	0.075	338878	keystroke_i	i	n/a
169.603	0.0755	339206	keystroke_g	g	n/a
169.709	0.0895	339418	keystroke_i	i	n/a
169.9335	0.09	339867	keystroke_a	a	n/a
170.0385	0.105	340077	keystroke_n	n	n/a
170.4885	0.075	340977	keystroke_Key.backspace	Key.backspace	n/a
171.073	0.0605	342146	keystroke_Key.backspace	Key.backspace	n/a
171.629	0.075	343258	keystroke_n	n	n/a
171.719	0.1195	343438	keystroke_a	a	n/a
171.8395	0.09	343679	keystroke_l	l	n/a
171.944	0.0895	343888	keystroke_Key.space	Key.space	n/a
172.3035	0.0905	344607	keystroke_p	p	n/a
172.4085	0.105	344817	keystroke_a	a	n/a
172.5885	0.09	345177	keystroke_c	c	n/a
172.6945	0.104	345389	keystroke_k	k	n/a
172.9485	0.0755	345897	keystroke_e	e	n/a
173.1285	0.075	346257	keystroke_t	t	n/a
173.2785	0.09	346557	keystroke_s	s	n/a
173.4135	0.0755	346827	keystroke_Key.space	Key.space	n/a
173.654	0.0745	347308	keystroke_b	b	n/a
173.804	0.0745	347608	keystroke_e	e	n/a
173.924	0.089	347848	keystroke_l	l	n/a
174.119	0.074	348238	keystroke_o	o	n/a
174.208	0.09	348416	keystroke_w	w	n/a
174.3285	0.0745	348657	keystroke_Key.space	Key.space	n/a
174.5085	0.0905	349017	keystroke_n	n	n/a
174.673	0.1055	349346	keystroke_o	o	n/a
174.824	0.074	349648	keystroke_r	r	n/a
174.973	0.091	349946	keystroke_m	m	n/a
175.079	0.105	350158	keystroke_a	a	n/a
175.199	0.119	350398	keystroke_l	l	n/a
175.4835	0.0895	350967	keystroke_Key.enter	Key.enter	n/a
175.5795	5.3955	351159	prompt	n/a	violent gratis alloy gear\n
176.2935	0.075	352587	keystroke_v	v	n/a
176.414	0.0895	352828	keystroke_i	i	n/a
176.6085	0.09	353217	keystroke_o	o	n/a
176.8635	0.12	353727	keystroke_l	l	n/a
176.9985	0.089	353997	keystroke_e	e	n/a
177.2085	0.09	354417	keystroke_n	n	n/a
177.3285	0.075	354657	keystroke_t	t	n/a
177.4335	0.0755	354867	keystroke_Key.space	Key.space	n/a
177.7485	0.0755	355497	keystroke_g	g	n/a
177.928	0.061	355856	keystroke_r	r	n/a
178.094	0.1045	356188	keystroke_a	a	n/a
178.4385	0.075	356877	keystroke_t	t	n/a
178.5585	0.09	357117	keystroke_i	i	n/a
178.6945	0.089	357389	keystroke_s	s	n/a
178.8285	0.1045	357657	keystroke_Key.space	Key.space	n/a
179.054	0.12	358108	keystroke_a	a	n/a
179.249	0.044	358498	keystroke_l	l	n/a
179.384	0.0745	358768	keystroke_l	l	n/a
179.5635	0.075	359127	keystroke_o	o	n/a
179.6835	0.09	359367	keystroke_y	y	n/a
179.8785	0.075	359757	keystroke_Key.space	Key.space	n/a
180.0285	0.075	360057	keystroke_g	g	n/a
180.3435	0.06	360687	keystroke_e	e	n/a
180.4635	0.12	360927	keystroke_a	a	n/a
180.5685	0.105	361137	keystroke_r	r	n/a
180.8835	0.09	361767	keystroke_Key.enter	Key.enter	n/a
180.979	6.821	361958	prompt	n/a	relate velocity relief word\n
181.663	0.09	363326	keystroke_r	r	n/a
181.768	0.091	363536	keystroke_e	e	n/a
182.0535	0.015	364107	keystroke_l	l	n/a
182.0695	0.104	364139	keystroke_a	a	n/a
182.1435	0.12	364287	keystroke_t	t	n/a
182.2935	0.09	364587	keystroke_e	e	n/a
182.5785	0.075	365157	keystroke_Key.space	Key.space	n/a
183.419	0.09	366838	keystroke_v	v	n/a
183.9135	0.0895	367827	keystroke_e	e	n/a
184.349	0.074	368698	keystroke_l	l	n/a
184.544	0.09	369088	keystroke_o	o	n/a
184.798	0.0755	369596	keystroke_c	c	n/a
184.904	0.0745	369808	keystroke_i	i	n/a
184.9935	0.0745	369987	keystroke_t	t	n/a
185.0985	0.0895	370197	keystroke_y	y	n/a
185.218	0.09	370436	keystroke_Key.space	Key.space	n/a
185.398	0.12	370796	keystroke_r	r	n/a
185.5335	0.0755	371067	keystroke_e	e	n/a
185.774	0.149	371548	keystroke_l	l	n/a
185.9085	0.1055	371817	keystroke_i	i	n/a
186.029	0.06	372058	keystroke_e	e	n/a
186.238	0.091	372476	keystroke_f	f	n/a
186.433	0.105	372866	keystroke_Key.space	Key.space	n/a
186.9135	0.1055	373827	keystroke_w	w	n/a
187.109	0.09	374218	keystroke_o	o	n/a
187.274	0.075	374548	keystroke_r	r	n/a
187.454	0.0895	374908	keystroke_d	d	n/a
187.6935	0.105	375387	keystroke_Key.enter	Key.enter	n/a
187.8055	7.1645	375611	prompt	n/a	pray wordpress lite shoppers\n
188.6235	0.105	377247	keystroke_p	p	n/a
188.699	0.1045	377398	keystroke_a	a	n/a
188.7885	0.075	377577	keystroke_r	r	n/a
189.1335	0.09	378267	keystroke_Key.backspace	Key.backspace	n/a
189.4785	0.075	378957	keystroke_Key.backspace	Key.backspace	n/a
189.7185	0.075	379437	keystroke_r	r	n/a
190.0485	0.1055	380097	keystroke_a	a	n/a
190.168	0.091	380336	keystroke_y	y	n/a
190.333	0.09	380666	keystroke_Key.space	Key.space	n/a
190.6335	0.09	381267	keystroke_w	w	n/a
190.7535	0.09	381507	keystroke_o	o	n/a
190.859	0.1045	381718	keystroke_r	r	n/a
191.1135	0.0895	382227	keystroke_d	d	n/a
191.459	0.12	382918	keystroke_p	p	n/a
191.549	0.12	383098	keystroke_r	r	n/a
191.683	0.075	383366	keystroke_e	e	n/a
191.9085	0.075	383817	keystroke_s	s	n/a
192.0735	0.0755	384147	keystroke_s	s	n/a
192.2085	0.075	384417	keystroke_Key.space	Key.space	n/a
192.4185	0.09	384837	keystroke_l	l	n/a
192.584	0.104	385168	keystroke_i	i	n/a
192.8985	0.075	385797	keystroke_t	t	n/a
193.1385	0.1055	386277	keystroke_e	e	n/a
193.3185	0.089	386637	keystroke_Key.space	Key.space	n/a
193.5435	0.105	387087	keystroke_s	s	n/a
193.6635	0.0755	387327	keystroke_h	h	n/a
193.843	0.076	387686	keystroke_o	o	n/a
194.039	0.074	388078	keystroke_p	p	n/a
194.2185	0.0905	388437	keystroke_p	p	n/a
194.3685	0.1055	388737	keystroke_e	e	n/a
194.459	0.1045	388918	keystroke_r	r	n/a
194.6985	0.09	389397	keystroke_s	s	n/a
194.8785	0.09	389757	keystroke_Key.enter	Key.enter	n/a
194.9755	7.7345	389951	prompt	n/a	bubble where publish mumbai\n
195.719	0.0745	391438	keystroke_b	b	n/a
195.809	0.045	391618	keystroke_u	u	n/a
196.153	0.076	392306	keystroke_b	b	n/a
196.4985	0.09	392997	keystroke_b	b	n/a
196.784	0.09	393568	keystroke_l	l	n/a
196.904	0.075	393808	keystroke_e	e	n/a
197.024	0.074	394048	keystroke_Key.space	Key.space	n/a
197.384	0.104	394768	keystroke_w	w	n/a
197.504	0.074	395008	keystroke_h	h	n/a
197.623	0.091	395246	keystroke_e	e	n/a
197.699	0.2095	395398	keystroke_r	r	n/a
197.8335	0.12	395667	keystroke_e	e	n/a
197.9835	0.09	395967	keystroke_Key.space	Key.space	n/a
198.2085	0.09	396417	keystroke_p	p	n/a
198.3435	0.0905	396687	keystroke_u	u	n/a
198.5225	0.121	397045	keystroke_l	l	n/a
198.779	0.0895	397558	keystroke_b	b	n/a
199.1235	0.06	398247	keystroke_Key.backspace	Key.backspace	n/a
199.2885	0.075	398577	keystroke_Key.backspace	Key.backspace	n/a
199.439	0.104	398878	keystroke_b	b	n/a
199.574	0.12	399148	keystroke_l	l	n/a
199.8135	0.075	399627	keystroke_i	i	n/a
200.1735	0.09	400347	keystroke_s	s	n/a
200.309	0.0445	400618	keystroke_h	h	n/a
200.3835	0.075	400767	keystroke_Key.space	Key.space	n/a
200.6985	0.09	401397	keystroke_m	m	n/a
201.0885	0.0595	402177	keystroke_u	u	n/a
201.4335	0.0745	402867	keystroke_m	m	n/a
201.7185	0.0755	403437	keystroke_b	b	n/a
201.988	0.12	403976	keystroke_a	a	n/a
202.334	0.06	404668	keystroke_i	i	n/a
202.618	0.0905	405236	keystroke_Key.enter	Key.enter	n/a
202.714	12.779	405428	prompt	n/a	digital appointed iowa signing\n
203.548	0.09	407096	keystroke_d	d	n/a
203.9385	0.075	407877	keystroke_i	i	n/a
204.1635	0.09	408327	keystroke_g	g	n/a
204.2835	0.105	408567	keystroke_i	i	n/a
204.4335	0.09	408867	keystroke_t	t	n/a
204.6885	0.12	409377	keystroke_l	l	n/a
204.8095	0.074	409619	keystroke_Key.space	Key.space	n/a
204.9885	0.12	409977	keystroke_a	a	n/a
205.2285	0.06	410457	keystroke_p	p	n/a
205.3785	0.1055	410757	keystroke_p	p	n/a
208.411	0.001	416822	keystroke_Key.backspace	Key.backspace	n/a
208.5735	0.06	417147	keystroke_Key.backspace	Key.backspace	n/a
208.7835	0.075	417567	keystroke_Key.backspace	Key.backspace	n/a
208.994	0.075	417988	keystroke_Key.backspace	Key.backspace	n/a
209.2335	0.0445	418467	keystroke_Key.backspace	Key.backspace	n/a
209.8785	0.12	419757	keystroke_a	a	n/a
210.148	0.091	420296	keystroke_l	l	n/a
210.313	0.06	420626	keystroke_Key.space	Key.space	n/a
210.493	0.091	420986	keystroke_a	a	n/a
210.629	0.0595	421258	keystroke_p	p	n/a
210.763	0.1055	421526	keystroke_p	p	n/a
210.989	0.0595	421978	keystroke_o	o	n/a
211.138	0.076	422276	keystroke_i	i	n/a
211.274	0.105	422548	keystroke_n	n	n/a
211.439	0.075	422878	keystroke_t	t	n/a
211.558	0.075	423116	keystroke_e	e	n/a
211.739	0.075	423478	keystroke_d	d	n/a
211.8585	0.06	423717	keystroke_Key.space	Key.space	n/a
212.2635	0.0605	424527	keystroke_i	i	n/a
212.4585	0.09	424917	keystroke_o	o	n/a
212.6835	0.105	425367	keystroke_w	w	n/a
212.8635	0.1055	425727	keystroke_a	a	n/a
213.0135	0.075	426027	keystroke_Key.space	Key.space	n/a
213.2385	0.1055	426477	keystroke_s	s	n/a
213.3885	0.06	426777	keystroke_i	i	n/a
213.5235	0.105	427047	keystroke_n	n	n/a
214.2125	0.0605	428425	keystroke_Key.backspace	Key.backspace	n/a
214.364	0.074	428728	keystroke_g	g	n/a
214.498	0.09	428996	keystroke_n	n	n/a
214.7235	0.135	429447	keystroke_i	i	n/a
214.8435	0.1355	429687	keystroke_n	n	n/a
214.979	0.1045	429958	keystroke_g	g	n/a
215.3835	0.105	430767	keystroke_Key.enter	Key.enter	n/a
215.5035	10.591	431007	prompt	n/a	unnecessary although transcripts gratuit\n
216.2985	0.045	432597	keystroke_u	u	n/a
216.4635	0.105	432927	keystroke_n	n	n/a
216.7785	0.09	433557	keystroke_n	n	n/a
217.0485	0.0905	434097	keystroke_e	e	n/a
217.6635	0.0895	435327	keystroke_c	c	n/a
217.874	0.074	435748	keystroke_e	e	n/a
218.084	0.075	436168	keystroke_s	s	n/a
218.234	0.074	436468	keystroke_s	s	n/a
218.354	0.119	436708	keystroke_a	a	n/a
218.444	0.105	436888	keystroke_r	r	n/a
218.579	0.104	437158	keystroke_y	y	n/a
218.714	0.075	437428	keystroke_Key.space	Key.space	n/a
218.849	0.119	437698	keystroke_a	a	n/a
218.983	0.105	437966	keystroke_l	l	n/a
219.5685	0.075	439137	keystroke_t	t	n/a
219.6735	0.075	439347	keystroke_h	h	n/a
219.9135	0.075	439827	keystroke_o	o	n/a
220.0635	0.091	440127	keystroke_u	u	n/a
220.1985	0.075	440397	keystroke_g	g	n/a
220.2885	0.12	440577	keystroke_h	h	n/a
220.4385	0.09	440877	keystroke_Key.space	Key.space	n/a
220.6635	0.075	441327	keystroke_t	t	n/a
220.7835	0.09	441567	keystroke_h	h	n/a
220.9485	0.09	441897	keystroke_r	r	n/a
221.2635	0.105	442527	keystroke_a	a	n/a
221.518	0.091	443036	keystroke_n	n	n/a
221.7135	0.09	443427	keystroke_s	s	n/a
221.9845	0.089	443969	keystroke_c	c	n/a
222.2235	0.0595	444447	keystroke_r	r	n/a
222.3285	0.0895	444657	keystroke_i	i	n/a
222.494	0.105	444988	keystroke_p	p	n/a
222.6285	0.075	445257	keystroke_t	t	n/a
222.7785	0.105	445557	keystroke_s	s	n/a
223.093	0.0605	446186	keystroke_Key.space	Key.space	n/a
223.334	0.045	446668	keystroke_a	a	n/a
223.648	0.0755	447296	keystroke_Key.backspace	Key.backspace	n/a
223.799	0.06	447598	keystroke_g	g	n/a
223.9635	0.075	447927	keystroke_r	r	n/a
224.099	0.1345	448198	keystroke_a	a	n/a
225.0135	0.09	450027	keystroke_t	t	n/a
225.3885	0.0605	450777	keystroke_u	u	n/a
225.5235	0.091	451047	keystroke_i	i	n/a
225.779	0.075	451558	keystroke_t	t	n/a
225.9885	0.1045	451977	keystroke_Key.enter	Key.enter	n/a
226.111	7.2445	452222	prompt	n/a	classroom partnership finger senate\n
226.9035	0.105	453807	keystroke_c	c	n/a
227.0235	0.1055	454047	keystroke_l	l	n/a
227.1435	0.121	454287	keystroke_a	a	n/a
227.3835	0.045	454767	keystroke_s	s	n/a
227.5035	0.0755	455007	keystroke_s	s	n/a
227.728	0.06	455456	keystroke_r	r	n/a
227.8485	0.0595	455697	keystroke_o	o	n/a
228.014	0.059	456028	keystroke_o	o	n/a
228.1185	0.1195	456237	keystroke_m	m	n/a
228.268	0.075	456536	keystroke_Key.space	Key.space	n/a
228.479	0.09	456958	keystroke_p	p	n/a
228.5835	0.1195	457167	keystroke_a	a	n/a
228.764	0.09	457528	keystroke_r	r	n/a
229.064	0.075	458128	keystroke_t	t	n/a
229.349	0.09	458698	keystroke_n	n	n/a
229.484	0.105	458968	keystroke_e	e	n/a
229.574	0.1195	459148	keystroke_r	r	n/a
229.829	0.105	459658	keystroke_s	s	n/a
229.904	0.06	459808	keystroke_h	h	n/a
230.024	0.0895	460048	keystroke_i	i	n/a
230.144	0.105	460288	keystroke_p	p	n/a
230.2925	0.076	460585	keystroke_Key.space	Key.space	n/a
230.803	0.09	461606	keystroke_f	f	n/a
230.938	0.045	461876	keystroke_i	i	n/a
231.028	0.135	462056	keystroke_n	n	n/a
231.2985	0.0745	462597	keystroke_g	g	n/a
231.464	0.104	462928	keystroke_e	e	n/a
231.554	0.1195	463108	keystroke_r	r	n/a
231.703	0.0755	463406	keystroke_Key.space	Key.space	n/a
231.9885	0.09	463977	keystroke_s	s	n/a
232.3635	0.09	464727	keystroke_e	e	n/a
232.649	0.09	465298	keystroke_n	n	n/a
232.8435	0.105	465687	keystroke_a	a	n/a
232.9185	0.12	465837	keystroke_t	t	n/a
233.054	0.089	466108	keystroke_e	e	n/a
233.2635	0.09	466527	keystroke_Key.enter	Key.enter	n/a
233.3645	6.5005	466729	prompt	n/a	brothers neutral fotos minus\n
234.7785	0.0755	469557	keystroke_b	b	n/a
235.1985	0.075	470397	keystroke_r	r	n/a
235.3185	0.091	470637	keystroke_o	o	n/a
235.4385	0.075	470877	keystroke_t	t	n/a
235.5585	0.105	471117	keystroke_h	h	n/a
235.6335	0.105	471267	keystroke_e	e	n/a
235.7235	0.1055	471447	keystroke_r	r	n/a
235.9785	0.09	471957	keystroke_s	s	n/a
236.114	0.0595	472228	keystroke_Key.space	Key.space	n/a
236.4285	0.09	472857	keystroke_n	n	n/a
236.5635	0.09	473127	keystroke_e	e	n/a
236.789	0.0745	473578	keystroke_u	u	n/a
237.0885	0.06	474177	keystroke_t	t	n/a
237.2535	0.06	474507	keystroke_r	r	n/a
237.3735	0.105	474747	keystroke_a	a	n/a
237.5235	0.12	475047	keystroke_l	l	n/a
237.6285	0.075	475257	keystroke_Key.space	Key.space	n/a
237.9285	0.075	475857	keystroke_f	f	n/a
238.094	0.075	476188	keystroke_o	o	n/a
238.3335	0.075	476667	keystroke_t	t	n/a
238.4685	0.0755	476937	keystroke_o	o	n/a
238.5885	0.09	477177	keystroke_s	s	n/a
238.7075	0.075	477415	keystroke_Key.space	Key.space	n/a
238.903	0.09	477806	keystroke_m	m	n/a
239.0535	0.0745	478107	keystroke_i	i	n/a
239.203	0.0905	478406	keystroke_n	n	n/a
239.383	0.091	478766	keystroke_u	u	n/a
239.5185	0.1055	479037	keystroke_s	s	n/a
239.773	0.09	479546	keystroke_Key.enter	Key.enter	n/a
239.8945	6.4055	479789	prompt	n/a	initial july gamma broadband\n
240.5385	0.0755	481077	keystroke_i	i	n/a
240.6885	0.09	481377	keystroke_n	n	n/a
240.869	0.0745	481738	keystroke_i	i	n/a
241.3335	0.06	482667	keystroke_t	t	n/a
241.4385	0.075	482877	keystroke_i	i	n/a
241.5295	0.1195	483059	keystroke_a	a	n/a
241.649	0.1345	483298	keystroke_l	l	n/a
241.769	0.09	483538	keystroke_Key.space	Key.space	n/a
242.009	0.074	484018	keystroke_j	j	n/a
242.234	0.075	484468	keystroke_u	u	n/a
242.504	0.105	485008	keystroke_l	l	n/a
242.639	0.09	485278	keystroke_y	y	n/a
242.819	0.06	485638	keystroke_Key.space	Key.space	n/a
243.029	0.0895	486058	keystroke_g	g	n/a
243.193	0.12	486386	keystroke_a	a	n/a
243.449	0.075	486898	keystroke_m	m	n/a
243.599	0.09	487198	keystroke_m	m	n/a
243.719	0.12	487438	keystroke_a	a	n/a
243.884	0.119	487768	keystroke_Key.space	Key.space	n/a
244.244	0.075	488488	keystroke_b	b	n/a
244.439	0.075	488878	keystroke_r	r	n/a
244.588	0.091	489176	keystroke_o	o	n/a
244.739	0.12	489478	keystroke_a	a	n/a
244.964	0.0745	489928	keystroke_d	d	n/a
245.3695	0.074	490739	keystroke_b	b	n/a
245.6235	0.105	491247	keystroke_a	a	n/a
245.8185	0.0895	491637	keystroke_n	n	n/a
245.998	0.0605	491996	keystroke_d	d	n/a
246.2085	0.0895	492417	keystroke_Key.enter	Key.enter	n/a
246.3045	6.8205	492609	prompt	n/a	gabriel dare mountain double\n
247.064	0.0745	494128	keystroke_g	g	n/a
247.3195	0.119	494639	keystroke_a	a	n/a
248.219	0.075	496438	keystroke_b	b	n/a
248.4735	0.06	496947	keystroke_r	r	n/a
248.624	0.09	497248	keystroke_i	i	n/a
248.758	0.076	497516	keystroke_e	e	n/a
248.879	0.12	497758	keystroke_l	l	n/a
248.984	0.09	497968	keystroke_Key.space	Key.space	n/a
249.2535	0.0755	498507	keystroke_d	d	n/a
249.419	0.119	498838	keystroke_a	a	n/a
249.494	0.12	498988	keystroke_r	r	n/a
249.6895	0.104	499379	keystroke_e	e	n/a
249.8385	0.06	499677	keystroke_Key.space	Key.space	n/a
250.034	0.1045	500068	keystroke_m	m	n/a
250.259	0.0595	500518	keystroke_o	o	n/a
250.424	0.0745	500848	keystroke_u	u	n/a
250.6185	0.105	501237	keystroke_n	n	n/a
251.159	0.075	502318	keystroke_t	t	n/a
251.414	0.09	502828	keystroke_a	a	n/a
251.519	0.135	503038	keystroke_i	i	n/a
251.608	0.1515	503216	keystroke_n	n	n/a
251.774	0.074	503548	keystroke_Key.space	Key.space	n/a
252.0585	0.0905	504117	keystroke_d	d	n/a
252.164	0.119	504328	keystroke_o	o	n/a
252.238	0.136	504476	keystroke_u	u	n/a
252.5835	0.0755	505167	keystroke_b	b	n/a
252.7035	0.105	505407	keystroke_l	l	n/a
252.7945	0.0745	505589	keystroke_e	e	n/a
253.0335	0.09	506067	keystroke_Key.enter	Key.enter	n/a
253.1305	5.2915	506261	prompt	n/a	fate official somalia basis\n
253.9335	0.105	507867	keystroke_f	f	n/a
254.084	0.12	508168	keystroke_a	a	n/a
254.2485	0.0745	508497	keystroke_t	t	n/a
254.384	0.074	508768	keystroke_e	e	n/a
254.4885	0.0745	508977	keystroke_Key.space	Key.space	n/a
254.744	0.0905	509488	keystroke_o	o	n/a
254.923	0.0755	509846	keystroke_f	f	n/a
255.058	0.0905	510116	keystroke_f	f	n/a
255.2085	0.0895	510417	keystroke_i	i	n/a
255.434	0.09	510868	keystroke_c	c	n/a
255.539	0.0745	511078	keystroke_i	i	n/a
255.6435	0.1045	511287	keystroke_a	a	n/a
255.763	0.135	511526	keystroke_l	l	n/a
255.883	0.075	511766	keystroke_Key.space	Key.space	n/a
256.1385	0.0905	512277	keystroke_s	s	n/a
256.273	0.09	512546	keystroke_o	o	n/a
256.468	0.09	512936	keystroke_m	m	n/a
256.618	0.12	513236	keystroke_a	a	n/a
256.889	0.12	513778	keystroke_l	l	n/a
256.9635	0.1195	513927	keystroke_i	i	n/a
257.0985	0.1195	514197	keystroke_a	a	n/a
257.2935	0.1045	514587	keystroke_Key.space	Key.space	n/a
257.5795	0.074	515159	keystroke_b	b	n/a
257.6835	0.1355	515367	keystroke_a	a	n/a
257.909	0.0895	515818	keystroke_s	s	n/a
258.015	0.0885	516030	keystroke_i	i	n/a
258.1185	0.09	516237	keystroke_s	s	n/a
258.2985	0.12	516597	keystroke_Key.enter	Key.enter	n/a
258.436	6.7045	516872	prompt	n/a	remained gospel seven considering\n
259.304	0.06	518608	keystroke_r	r	n/a
259.409	0.075	518818	keystroke_e	e	n/a
259.619	0.105	519238	keystroke_m	m	n/a
259.889	0.1495	519778	keystroke_a	a	n/a
260.0235	0.075	520047	keystroke_i	i	n/a
260.1135	0.165	520227	keystroke_n	n	n/a
260.3985	0.06	520797	keystroke_e	e	n/a
260.5635	0.075	521127	keystroke_d	d	n/a
260.6535	0.105	521307	keystroke_Key.space	Key.space	n/a
260.9985	0.075	521997	keystroke_g	g	n/a
261.1335	0.09	522267	keystroke_o	o	n/a
261.299	0.1045	522598	keystroke_s	s	n/a
261.5535	0.1205	523107	keystroke_p	p	n/a
261.6885	0.0755	523377	keystroke_e	e	n/a
261.869	0.1195	523738	keystroke_l	l	n/a
262.0035	0.075	524007	keystroke_Key.space	Key.space	n/a
262.2435	0.09	524487	keystroke_s	s	n/a
262.4085	0.075	524817	keystroke_e	e	n/a
262.6035	0.075	525207	keystroke_v	v	n/a
262.7385	0.09	525477	keystroke_e	e	n/a
262.9035	0.105	525807	keystroke_n	n	n/a
263.0535	0.09	526107	keystroke_Key.space	Key.space	n/a
263.4885	0.0905	526977	keystroke_c	c	n/a
263.5635	0.1505	527127	keystroke_o	o	n/a
263.6835	0.1355	527367	keystroke_n	n	n/a
263.9235	0.12	527847	keystroke_s	s	n/a
264.0735	0.09	528147	keystroke_i	i	n/a
264.2085	0.075	528417	keystroke_d	d	n/a
264.3895	0.104	528779	keystroke_e	e	n/a
264.479	0.105	528958	keystroke_r	r	n/a
264.5985	0.135	529197	keystroke_i	i	n/a
264.6885	0.18	529377	keystroke_n	n	n/a
264.8085	0.09	529617	keystroke_g	g	n/a
265.0335	0.1045	530067	keystroke_Key.enter	Key.enter	n/a
265.1455	6.8795	530291	prompt	n/a	tournaments incorporated music shaw\n
265.8735	0.091	531747	keystroke_t	t	n/a
266.0235	0.12	532047	keystroke_o	o	n/a
266.1285	0.135	532257	keystroke_u	u	n/a
266.3985	0.075	532797	keystroke_r	r	n/a
266.6985	0.0905	533397	keystroke_n	n	n/a
266.8345	0.119	533669	keystroke_a	a	n/a
267.059	0.0895	534118	keystroke_m	m	n/a
267.1785	0.0755	534357	keystroke_e	e	n/a
267.2685	0.09	534537	keystroke_n	n	n/a
267.374	0.074	534748	keystroke_t	t	n/a
267.5385	0.075	535077	keystroke_s	s	n/a
267.6585	0.075	535317	keystroke_Key.space	Key.space	n/a
267.8535	0.075	535707	keystroke_i	i	n/a
268.0045	0.089	536009	keystroke_n	n	n/a
268.2585	0.075	536517	keystroke_c	c	n/a
268.409	0.0895	536818	keystroke_o	o	n/a
268.7235	0.075	537447	keystroke_r	r	n/a
268.9635	0.091	537927	keystroke_p	p	n/a
269.1435	0.0905	538287	keystroke_o	o	n/a
269.3085	0.075	538617	keystroke_r	r	n/a
269.4435	0.1365	538887	keystroke_a	a	n/a
269.5495	0.104	539099	keystroke_t	t	n/a
269.684	0.0745	539368	keystroke_e	e	n/a
269.863	0.076	539726	keystroke_d	d	n/a
269.968	0.075	539936	keystroke_Key.space	Key.space	n/a
270.163	0.076	540326	keystroke_m	m	n/a
270.344	0.059	540688	keystroke_u	u	n/a
270.539	0.0895	541078	keystroke_s	s	n/a
270.6735	0.075	541347	keystroke_i	i	n/a
270.7785	0.09	541557	keystroke_c	c	n/a
270.9285	0.09	541857	keystroke_Key.space	Key.space	n/a
271.1385	0.105	542277	keystroke_s	s	n/a
271.259	0.0895	542518	keystroke_h	h	n/a
271.3635	0.1055	542727	keystroke_a	a	n/a
271.7085	0.075	543417	keystroke_w	w	n/a
271.9185	0.1045	543837	keystroke_Key.enter	Key.enter	n/a
272.039	7.156	544078	prompt	n/a	latter bosnia companion howard\n
272.728	0.091	545456	keystroke_l	l	n/a
272.834	0.1055	545668	keystroke_a	a	n/a
273.0135	0.0755	546027	keystroke_t	t	n/a
273.1785	0.0605	546357	keystroke_t	t	n/a
273.2835	0.12	546567	keystroke_e	e	n/a
273.3885	0.105	546777	keystroke_r	r	n/a
273.6435	0.06	547287	keystroke_Key.space	Key.space	n/a
274.6485	0.0905	549297	keystroke_b	b	n/a
274.7985	0.09	549597	keystroke_o	o	n/a
275.2185	0.1055	550437	keystroke_s	s	n/a
275.549	0.0745	551098	keystroke_n	n	n/a
275.7135	0.075	551427	keystroke_i	i	n/a
275.8035	0.12	551607	keystroke_a	a	n/a
275.9535	0.09	551907	keystroke_Key.space	Key.space	n/a
276.179	0.0895	552358	keystroke_c	c	n/a
276.3285	0.12	552657	keystroke_o	o	n/a
276.4335	0.1355	552867	keystroke_m	m	n/a
276.6885	0.105	553377	keystroke_p	p	n/a
276.8385	0.12	553677	keystroke_a	a	n/a
277.0185	0.0605	554037	keystroke_n	n	n/a
277.139	0.18	554278	keystroke_i	i	n/a
277.259	0.134	554518	keystroke_o	o	n/a
277.363	0.15	554726	keystroke_n	n	n/a
277.529	0.089	555058	keystroke_Key.space	Key.space	n/a
277.889	0.0595	555778	keystroke_h	h	n/a
278.0385	0.09	556077	keystroke_o	o	n/a
278.2185	0.075	556437	keystroke_w	w	n/a
278.4735	0.121	556947	keystroke_a	a	n/a
278.6095	0.119	557219	keystroke_r	r	n/a
278.8335	0.105	557667	keystroke_d	d	n/a
279.0735	0.12	558147	keystroke_Key.enter	Key.enter	n/a
279.202	13.028	558404	prompt	n/a	usually chevy tobago mortgages\n
279.9135	0.06	559827	keystroke_u	u	n/a
280.034	0.09	560068	keystroke_s	s	n/a
280.154	0.089	560308	keystroke_u	u	n/a
280.259	0.12	560518	keystroke_a	a	n/a
280.424	0.075	560848	keystroke_l	l	n/a
280.5735	0.0755	561147	keystroke_l	l	n/a
280.679	0.12	561358	keystroke_y	y	n/a
280.814	0.0745	561628	keystroke_Key.space	Key.space	n/a
281.1585	0.06	562317	keystroke_v	v	n/a
281.6085	0.075	563217	keystroke_Key.backspace	Key.backspace	n/a
281.7885	0.0905	563577	keystroke_c	c	n/a
281.9235	0.0905	563847	keystroke_h	h	n/a
282.1335	0.0905	564267	keystroke_e	e	n/a
282.823	0.121	565646	keystroke_b	b	n/a
282.959	0.045	565918	keystroke_y	y	n/a
284.1135	0.045	568227	keystroke_Key.backspace	Key.backspace	n/a
284.2485	0.0605	568497	keystroke_Key.backspace	Key.backspace	n/a
284.4135	0.09	568827	keystroke_v	v	n/a
284.5635	0.075	569127	keystroke_y	y	n/a
284.8635	0.06	569727	keystroke_Key.space	Key.space	n/a
285.2985	0.0745	570597	keystroke_t	t	n/a
285.418	0.091	570836	keystroke_o	o	n/a
285.5385	0.09	571077	keystroke_b	b	n/a
285.674	0.1195	571348	keystroke_a	a	n/a
285.9295	0.06	571859	keystroke_f	f	n/a
285.9435	0.03	571887	keystroke_g	g	n/a
286.2285	0.09	572457	keystroke_o	o	n/a
286.6635	0.06	573327	keystroke_Key.backspace	Key.backspace	n/a
286.8285	0.06	573657	keystroke_Key.backspace	Key.backspace	n/a
287.0085	0.09	574017	keystroke_Key.backspace	Key.backspace	n/a
288.0435	0.0905	576087	keystroke_g	g	n/a
288.1635	0.09	576327	keystroke_o	o	n/a
288.6285	0.075	577257	keystroke_Key.space	Key.space	n/a
289.0485	0.09	578097	keystroke_m	m	n/a
289.3785	0.09	578757	keystroke_o	o	n/a
289.9035	0.09	579807	keystroke_r	r	n/a
290.2785	0.075	580557	keystroke_g	g	n/a
290.7885	0.03	581577	keystroke_Key.backspace	Key.backspace	n/a
290.9235	0.06	581847	keystroke_t	t	n/a
291.2535	0.076	582507	keystroke_g	g	n/a
291.4335	0.105	582867	keystroke_a	a	n/a
291.6285	0.075	583257	keystroke_g	g	n/a
291.7485	0.09	583497	keystroke_e	e	n/a
291.9135	0.105	583827	keystroke_s	s	n/a
292.1385	0.09	584277	keystroke_Key.enter	Key.enter	n/a
292.2375	8.063	584475	prompt	n/a	ethernet afford facial collector\n
292.919	0.0905	585838	keystroke_e	e	n/a
293.1585	0.0755	586317	keystroke_t	t	n/a
293.2485	0.1055	586497	keystroke_h	h	n/a
293.429	0.105	586858	keystroke_e	e	n/a
294.9745	0.089	589949	keystroke_r	r	n/a
295.2585	0.09	590517	keystroke_n	n	n/a
295.4085	0.06	590817	keystroke_e	e	n/a
295.4985	0.0905	590997	keystroke_t	t	n/a
295.6485	0.075	591297	keystroke_Key.space	Key.space	n/a
295.904	0.075	591808	keystroke_f	f	n/a
296.308	0.0755	592616	keystroke_Key.backspace	Key.backspace	n/a
296.489	0.104	592978	keystroke_a	a	n/a
296.713	0.061	593426	keystroke_f	f	n/a
296.849	0.075	593698	keystroke_f	f	n/a
296.984	0.105	593968	keystroke_o	o	n/a
297.074	0.089	594148	keystroke_r	r	n/a
297.269	0.089	594538	keystroke_d	d	n/a
297.4635	0.0755	594927	keystroke_Key.space	Key.space	n/a
297.704	0.074	595408	keystroke_f	f	n/a
297.8235	0.09	595647	keystroke_a	a	n/a
298.0485	0.09	596097	keystroke_c	c	n/a
298.1535	0.09	596307	keystroke_i	i	n/a
298.2735	0.1045	596547	keystroke_a	a	n/a
298.3935	0.1345	596787	keystroke_l	l	n/a
298.513	0.075	597026	keystroke_Key.space	Key.space	n/a
298.783	0.091	597566	keystroke_c	c	n/a
298.919	0.075	597838	keystroke_o	o	n/a
299.129	0.075	598258	keystroke_l	l	n/a
299.279	0.09	598558	keystroke_l	l	n/a
299.369	0.075	598738	keystroke_e	e	n/a
299.564	0.075	599128	keystroke_c	c	n/a
299.744	0.061	599488	keystroke_t	t	n/a
299.8785	0.0745	599757	keystroke_o	o	n/a
299.954	0.0895	599908	keystroke_r	r	n/a
300.2085	0.09	600417	keystroke_Key.enter	Key.enter	n/a
300.308	6.487	600616	prompt	n/a	male passes goto ruby\n
301.019	0.1195	602038	keystroke_m	m	n/a
301.1235	0.12	602247	keystroke_a	a	n/a
301.2585	0.105	602517	keystroke_k	k	n/a
301.3935	0.135	602787	keystroke_e	e	n/a
301.8285	0.06	603657	keystroke_Key.backspace	Key.backspace	n/a
301.9785	0.0895	603957	keystroke_Key.backspace	Key.backspace	n/a
302.309	0.105	604618	keystroke_l	l	n/a
302.429	0.074	604858	keystroke_e	e	n/a
302.563	0.0755	605126	keystroke_Key.space	Key.space	n/a
303.0285	0.09	606057	keystroke_p	p	n/a
303.164	0.1345	606328	keystroke_a	a	n/a
303.4485	0.0755	606897	keystroke_s	s	n/a
303.6135	0.075	607227	keystroke_s	s	n/a
303.8835	0.1055	607767	keystroke_a	a	n/a
304.3635	0.075	608727	keystroke_Key.backspace	Key.backspace	n/a
304.4835	0.0755	608967	keystroke_e	e	n/a
304.604	0.1045	609208	keystroke_s	s	n/a
304.7535	0.075	609507	keystroke_Key.space	Key.space	n/a
305.189	0.0745	610378	keystroke_g	g	n/a
305.2935	0.091	610587	keystroke_o	o	n/a
305.3995	0.104	610799	keystroke_t	t	n/a
305.5185	0.0905	611037	keystroke_o	o	n/a
305.6235	0.06	611247	keystroke_Key.space	Key.space	n/a
305.893	0.0755	611786	keystroke_r	r	n/a
306.013	0.091	612026	keystroke_u	u	n/a
306.224	0.089	612448	keystroke_b	b	n/a
306.373	0.091	612746	keystroke_y	y	n/a
306.673	0.1205	613346	keystroke_Key.enter	Key.enter	n/a
306.802	9.6685	613604	prompt	n/a	entrepreneurs walker yours francis\n
307.5595	0.104	615119	keystroke_e	e	n/a
307.7235	0.12	615447	keystroke_n	n	n/a
307.934	0.0745	615868	keystroke_t	t	n/a
308.129	0.09	616258	keystroke_r	r	n/a
308.294	0.074	616588	keystroke_e	e	n/a
308.6835	0.1205	617367	keystroke_p	p	n/a
308.849	0.1045	617698	keystroke_r	r	n/a
308.9685	0.09	617937	keystroke_e	e	n/a
309.3585	0.105	618717	keystroke_n	n	n/a
309.838	0.091	619676	keystroke_e	e	n/a
310.1985	0.09	620397	keystroke_u	u	n/a
310.4085	0.09	620817	keystroke_r	r	n/a
310.6495	0.089	621299	keystroke_s	s	n/a
310.7835	0.09	621567	keystroke_Key.space	Key.space	n/a
311.0235	0.075	622047	keystroke_w	w	n/a
311.1585	0.1045	622317	keystroke_a	a	n/a
311.338	0.105	622676	keystroke_l	l	n/a
311.548	0.075	623096	keystroke_k	k	n/a
311.668	0.0905	623336	keystroke_e	e	n/a
311.7435	0.135	623487	keystroke_r	r	n/a
311.8635	0.1045	623727	keystroke_Key.space	Key.space	n/a
312.913	0.06	625826	keystroke_y	y	n/a
313.019	0.12	626038	keystroke_o	o	n/a
313.094	0.1495	626188	keystroke_u	u	n/a
313.228	0.09	626456	keystroke_r	r	n/a
313.394	0.1345	626788	keystroke_s	s	n/a
313.543	0.0755	627086	keystroke_Key.space	Key.space	n/a
313.7385	0.09	627477	keystroke_f	f	n/a
313.9035	0.075	627807	keystroke_a	a	n/a
314.5485	0.1195	629097	keystroke_Key.backspace	Key.backspace	n/a
315.223	0.075	630446	keystroke_r	r	n/a
315.509	0.12	631018	keystroke_a	a	n/a
315.659	0.0895	631318	keystroke_n	n	n/a
315.8985	0.075	631797	keystroke_c	c	n/a
315.989	0.0745	631978	keystroke_i	i	n/a
316.0785	0.12	632157	keystroke_s	s	n/a
316.3635	0.105	632727	keystroke_Key.enter	Key.enter	n/a
316.4855	5.2345	632971	prompt	n/a	scale cells pump videos\n
317.294	0.0895	634588	keystroke_s	s	n/a
317.5185	0.105	635037	keystroke_c	c	n/a
317.7885	0.1045	635577	keystroke_a	a	n/a
317.939	0.1195	635878	keystroke_l	l	n/a
318.0735	0.075	636147	keystroke_e	e	n/a
318.1635	0.075	636327	keystroke_Key.space	Key.space	n/a
318.5835	0.0755	637167	keystroke_c	c	n/a
318.809	0.044	637618	keystroke_e	e	n/a
318.973	0.0605	637946	keystroke_l	l	n/a
319.108	0.09	638216	keystroke_l	l	n/a
319.258	0.1065	638516	keystroke_s	s	n/a
319.4235	0.0895	638847	keystroke_Key.space	Key.space	n/a
319.618	0.0905	639236	keystroke_p	p	n/a
319.769	0.075	639538	keystroke_u	u	n/a
319.9335	0.1045	639867	keystroke_m	m	n/a
320.158	0.091	640316	keystroke_p	p	n/a
320.339	0.074	640678	keystroke_Key.space	Key.space	n/a
320.698	0.0915	641396	keystroke_v	v	n/a
320.8335	0.075	641667	keystroke_i	i	n/a
321.029	0.075	642058	keystroke_d	d	n/a
321.194	0.074	642388	keystroke_e	e	n/a
321.314	0.119	642628	keystroke_o	o	n/a
321.419	0.09	642838	keystroke_s	s	n/a
321.628	0.09	643256	keystroke_Key.enter	Key.enter	n/a
321.7245	7.1815	643449	prompt	n/a	shoppers estates drama religion\n
322.603	0.105	645206	keystroke_s	s	n/a
322.723	0.075	645446	keystroke_h	h	n/a
322.874	0.1045	645748	keystroke_o	o	n/a
323.069	0.074	646138	keystroke_p	p	n/a
323.218	0.075	646436	keystroke_p	p	n/a
323.279	0.104	646558	keystroke_e	e	n/a
323.368	0.135	646736	keystroke_r	r	n/a
324.119	0.0895	648238	keystroke_s	s	n/a
324.253	0.0755	648506	keystroke_Key.space	Key.space	n/a
324.4785	0.09	648957	keystroke_e	e	n/a
324.6585	0.075	649317	keystroke_s	s	n/a
324.8835	0.075	649767	keystroke_t	t	n/a
325.0035	0.1055	650007	keystroke_a	a	n/a
325.154	0.0895	650308	keystroke_t	t	n/a
325.2585	0.12	650517	keystroke_e	e	n/a
325.9785	0.12	651957	keystroke_s	s	n/a
326.1135	0.015	652227	keystroke_Key.space	Key.space	n/a
326.264	0.0745	652528	keystroke_d	d	n/a
326.3985	0.09	652797	keystroke_r	r	n/a
326.534	0.1195	653068	keystroke_a	a	n/a
326.8335	0.075	653667	keystroke_m	m	n/a
326.924	0.1195	653848	keystroke_a	a	n/a
327.209	0.0895	654418	keystroke_r	r	n/a
327.4635	0.0755	654927	keystroke_e	e	n/a
327.824	0.0895	655648	keystroke_l	l	n/a
327.9735	0.0905	655947	keystroke_i	i	n/a
328.1835	0.09	656367	keystroke_g	g	n/a
328.2885	0.135	656577	keystroke_i	i	n/a
328.3935	0.135	656787	keystroke_o	o	n/a
328.4985	0.166	656997	keystroke_n	n	n/a
328.8135	0.09	657627	keystroke_Key.enter	Key.enter	n/a
328.911	8.5135	657822	prompt	n/a	regulations counsel protective kodak\n
329.563	0.091	659126	keystroke_r	r	n/a
329.6385	0.1055	659277	keystroke_e	e	n/a
329.8635	0.09	659727	keystroke_g	g	n/a
329.999	0.0745	659998	keystroke_u	u	n/a
330.2235	0.1045	660447	keystroke_l	l	n/a
330.299	0.164	660598	keystroke_a	a	n/a
330.598	0.0755	661196	keystroke_t	t	n/a
330.674	0.1195	661348	keystroke_i	i	n/a
330.7635	0.1645	661527	keystroke_o	o	n/a
330.8685	0.1655	661737	keystroke_n	n	n/a
330.973	0.1205	661946	keystroke_s	s	n/a
331.1085	0.0745	662217	keystroke_Key.space	Key.space	n/a
331.469	0.0745	662938	keystroke_c	c	n/a
331.5585	0.135	663117	keystroke_o	o	n/a
331.6635	0.15	663327	keystroke_n	n	n/a
332.369	0.0595	664738	keystroke_Key.backspace	Key.backspace	n/a
332.6685	0.0755	665337	keystroke_u	u	n/a
332.9235	0.075	665847	keystroke_n	n	n/a
333.299	0.09	666598	keystroke_s	s	n/a
333.494	0.06	666988	keystroke_e	e	n/a
333.6135	0.0905	667227	keystroke_l	l	n/a
333.733	0.075	667466	keystroke_Key.space	Key.space	n/a
334.003	0.076	668006	keystroke_p	p	n/a
334.094	0.0745	668188	keystroke_r	r	n/a
334.2435	0.0755	668487	keystroke_o	o	n/a
334.694	0.091	669388	keystroke_t	t	n/a
334.859	0.06	669718	keystroke_e	e	n/a
335.053	0.106	670106	keystroke_c	c	n/a
335.249	0.059	670498	keystroke_t	t	n/a
335.353	0.09	670706	keystroke_i	i	n/a
335.458	0.075	670916	keystroke_v	v	n/a
335.594	0.059	671188	keystroke_e	e	n/a
335.6685	0.0895	671337	keystroke_Key.space	Key.space	n/a
336.224	0.239	672448	keystroke_k	k	n/a
336.4785	0.0145	672957	keystroke_o	o	n/a
336.6585	0.09	673317	keystroke_d	d	n/a
336.883	0.1055	673766	keystroke_a	a	n/a
337.0635	0.075	674127	keystroke_k	k	n/a
337.3335	0.0895	674667	keystroke_Key.enter	Key.enter	n/a
337.436	7.189	674872	prompt	n/a	hired broken televisions certainly\n
338.2185	0.0595	676437	keystroke_h	h	n/a
338.368	0.076	676736	keystroke_i	i	n/a
338.5335	0.075	677067	keystroke_r	r	n/a
338.6535	0.09	677307	keystroke_e	e	n/a
338.8785	0.075	677757	keystroke_d	d	n/a
338.9835	0.075	677967	keystroke_Key.space	Key.space	n/a
339.1785	0.06	678357	keystroke_b	b	n/a
339.359	0.0745	678718	keystroke_r	r	n/a
339.5235	0.0905	679047	keystroke_o	o	n/a
340.0785	0.074	680157	keystroke_k	k	n/a
340.618	0.1795	681236	keystroke_e	e	n/a
340.8435	0.0155	681687	keystroke_n	n	n/a
340.873	0.075	681746	keystroke_Key.space	Key.space	n/a
341.0835	0.075	682167	keystroke_t	t	n/a
341.2485	0.0605	682497	keystroke_e	e	n/a
341.3685	0.1055	682737	keystroke_l	l	n/a
341.5185	0.06	683037	keystroke_e	e	n/a
341.7885	0.075	683577	keystroke_v	v	n/a
341.9235	0.075	683847	keystroke_i	i	n/a
342.1035	0.075	684207	keystroke_s	s	n/a
342.1635	0.12	684327	keystroke_i	i	n/a
342.2385	0.164	684477	keystroke_o	o	n/a
342.3585	0.165	684717	keystroke_n	n	n/a
342.4935	0.1055	684987	keystroke_s	s	n/a
342.658	0.105	685316	keystroke_Key.space	Key.space	n/a
342.8985	0.1055	685797	keystroke_c	c	n/a
343.1385	0.105	686277	keystroke_e	e	n/a
343.2585	0.09	686517	keystroke_r	r	n/a
343.5435	0.061	687087	keystroke_t	t	n/a
343.7385	0.12	687477	keystroke_a	a	n/a
343.8135	0.1205	687627	keystroke_i	i	n/a
343.9185	0.12	687837	keystroke_n	n	n/a
344.0985	0.18	688197	keystroke_l	l	n/a
344.2195	0.134	688439	keystroke_y	y	n/a
344.519	0.1045	689038	keystroke_Key.enter	Key.enter	n/a
344.6335	7.177	689267	prompt	n/a	successful flickr shade denver\n
345.2995	0.089	690599	keystroke_s	s	n/a
345.419	0.0895	690838	keystroke_u	u	n/a
345.7485	0.105	691497	keystroke_c	c	n/a
346.0335	0.0905	692067	keystroke_c	c	n/a
346.2585	0.0755	692517	keystroke_e	e	n/a
346.484	0.075	692968	keystroke_s	s	n/a
346.6335	0.09	693267	keystroke_s	s	n/a
346.904	0.0745	693808	keystroke_f	f	n/a
347.0085	0.075	694017	keystroke_u	u	n/a
347.1735	0.12	694347	keystroke_l	l	n/a
347.3085	0.06	694617	keystroke_Key.space	Key.space	n/a
347.565	0.0735	695130	keystroke_f	f	n/a
347.6535	0.1205	695307	keystroke_l	l	n/a
347.7435	0.15	695487	keystroke_i	i	n/a
347.9685	0.105	695937	keystroke_c	c	n/a
348.1035	0.1045	696207	keystroke_k	k	n/a
348.403	0.0905	696806	keystroke_r	r	n/a
348.613	0.0605	697226	keystroke_Key.space	Key.space	n/a
348.794	0.104	697588	keystroke_s	s	n/a
348.914	0.074	697828	keystroke_h	h	n/a
349.034	0.104	698068	keystroke_a	a	n/a
349.123	0.0455	698246	keystroke_r	r	n/a
349.8285	0.09	699657	keystroke_Key.backspace	Key.backspace	n/a
350.0385	0.09	700077	keystroke_d	d	n/a
350.2035	0.09	700407	keystroke_e	e	n/a
350.3385	0.075	700677	keystroke_Key.space	Key.space	n/a
350.5485	0.105	701097	keystroke_d	d	n/a
350.744	0.0595	701488	keystroke_e	e	n/a
350.8785	0.105	701757	keystroke_n	n	n/a
351.1935	0.09	702387	keystroke_v	v	n/a
351.3885	0.09	702777	keystroke_e	e	n/a
351.4635	0.105	702927	keystroke_r	r	n/a
351.719	0.09	703438	keystroke_Key.enter	Key.enter	n/a
351.8155	7.9745	703631	prompt	n/a	discovered dakota breach foreign\n
352.5285	0.0905	705057	keystroke_d	d	n/a
352.6335	0.105	705267	keystroke_i	i	n/a
352.7685	0.09	705537	keystroke_s	s	n/a
353.0385	0.0755	706077	keystroke_c	c	n/a
353.1585	0.09	706317	keystroke_o	o	n/a
353.3085	0.1045	706617	keystroke_v	v	n/a
353.519	0.089	707038	keystroke_e	e	n/a
353.593	0.106	707186	keystroke_r	r	n/a
353.819	0.075	707638	keystroke_e	e	n/a
353.983	0.075	707966	keystroke_d	d	n/a
354.1185	0.0595	708237	keystroke_Key.space	Key.space	n/a
354.388	0.061	708776	keystroke_d	d	n/a
354.538	0.105	709076	keystroke_a	a	n/a
354.718	0.0905	709436	keystroke_k	k	n/a
355.259	0.0745	710518	keystroke_o	o	n/a
355.604	0.0595	711208	keystroke_t	t	n/a
355.7535	0.0905	711507	keystroke_a	a	n/a
355.963	0.075	711926	keystroke_Key.space	Key.space	n/a
356.1735	0.0755	712347	keystroke_b	b	n/a
356.354	0.09	712708	keystroke_r	r	n/a
356.503	0.09	713006	keystroke_e	e	n/a
356.788	0.09	713576	keystroke_a	a	n/a
357.043	0.09	714086	keystroke_c	c	n/a
357.1485	0.0905	714297	keystroke_h	h	n/a
357.268	0.09	714536	keystroke_Key.space	Key.space	n/a
357.5085	0.09	715017	keystroke_f	f	n/a
357.6585	0.09	715317	keystroke_o	o	n/a
357.7935	0.0905	715587	keystroke_r	r	n/a
358.0935	0.0755	716187	keystroke_e	e	n/a
358.348	0.076	716696	keystroke_i	i	n/a
358.544	0.0745	717088	keystroke_g	g	n/a
358.633	0.06	717266	keystroke_h	h	n/a
359.2185	0.06	718437	keystroke_Key.backspace	Key.backspace	n/a
359.459	0.074	718918	keystroke_n	n	n/a
359.713	0.0755	719426	keystroke_Key.enter	Key.enter	n/a
359.803	13.4275	719606	prompt	n/a	colleagues briefing convenience explosion\n
360.6585	0.0905	721317	keystroke_c	c	n/a
360.8085	0.0755	721617	keystroke_o	o	n/a
361.0185	0.061	722037	keystroke_l	l	n/a
361.1685	0.075	722337	keystroke_l	l	n/a
361.2885	0.075	722577	keystroke_e	e	n/a
361.4685	0.1055	722937	keystroke_a	a	n/a
361.708	0.0905	723416	keystroke_g	g	n/a
361.858	0.09	723716	keystroke_u	u	n/a
362.0085	0.0905	724017	keystroke_r	r	n/a
362.7585	0.09	725517	keystroke_Key.backspace	Key.backspace	n/a
363.3285	0.09	726657	keystroke_e	e	n/a
363.823	0.09	727646	keystroke_s	s	n/a
363.958	0.075	727916	keystroke_Key.space	Key.space	n/a
364.2285	0.06	728457	keystroke_b	b	n/a
364.409	0.059	728818	keystroke_r	r	n/a
364.529	0.0895	729058	keystroke_i	i	n/a
364.783	0.091	729566	keystroke_e	e	n/a
365.098	0.0905	730196	keystroke_f	f	n/a
365.474	0.1195	730948	keystroke_i	i	n/a
365.548	0.166	731096	keystroke_n	n	n/a
365.623	0.106	731246	keystroke_g	g	n/a
365.759	0.09	731518	keystroke_Key.space	Key.space	n/a
366.014	0.089	732028	keystroke_c	c	n/a
366.133	0.076	732266	keystroke_o	o	n/a
366.314	0.075	732628	keystroke_v	v	n/a
366.494	0.09	732988	keystroke_e	e	n/a
366.569	0.104	733138	keystroke_r	r	n/a
367.4985	0.0745	734997	keystroke_Key.backspace	Key.backspace	n/a
368.4585	0.105	736917	keystroke_n	n	n/a
368.8635	0.075	737727	keystroke_i	i	n/a
369.1485	0.075	738297	keystroke_e	e	n/a
369.2685	0.1055	738537	keystroke_n	n	n/a
369.3885	0.0905	738777	keystroke_c	c	n/a
369.5985	0.0755	739197	keystroke_e	e	n/a
369.838	0.06	739676	keystroke_Key.space	Key.space	n/a
370.0485	0.0745	740097	keystroke_e	e	n/a
370.349	0.09	740698	keystroke_x	x	n/a
370.739	0.09	741478	keystroke_p	p	n/a
370.918	0.0905	741836	keystroke_l	l	n/a
371.2785	0.09	742557	keystroke_o	o	n/a
371.5485	0.105	743097	keystroke_s	s	n/a
371.7135	0.075	743427	keystroke_i	i	n/a
372.7485	0.105	745497	keystroke_o	o	n/a
372.8385	0.135	745677	keystroke_n	n	n/a
373.1385	0.09	746277	keystroke_Key.enter	Key.enter	n/a
373.234	7.526	746468	prompt	n/a	bottom serving builder determination\n
374.0995	0.089	748199	keystroke_b	b	n/a
374.2185	0.075	748437	keystroke_o	o	n/a
374.4435	0.0605	748887	keystroke_t	t	n/a
374.5935	0.076	749187	keystroke_t	t	n/a
374.7285	0.135	749457	keystroke_o	o	n/a
374.8185	0.195	749637	keystroke_m	m	n/a
375.2535	0.0755	750507	keystroke_Key.space	Key.space	n/a
375.464	0.0895	750928	keystroke_s	s	n/a
375.6435	0.105	751287	keystroke_e	e	n/a
375.734	0.105	751468	keystroke_r	r	n/a
375.989	0.09	751978	keystroke_v	v	n/a
376.424	0.12	752848	keystroke_i	i	n/a
376.499	0.164	752998	keystroke_n	n	n/a
376.588	0.09	753176	keystroke_g	g	n/a
376.693	0.09	753386	keystroke_Key.space	Key.space	n/a
377.0385	0.0745	754077	keystroke_b	b	n/a
377.203	0.075	754406	keystroke_u	u	n/a
377.473	0.0605	754946	keystroke_i	i	n/a
377.7135	0.0895	755427	keystroke_l	l	n/a
377.863	0.105	755726	keystroke_d	d	n/a
378.073	0.105	756146	keystroke_e	e	n/a
378.148	0.15	756296	keystroke_r	r	n/a
378.313	0.0745	756626	keystroke_Key.space	Key.space	n/a
378.5685	0.0895	757137	keystroke_d	d	n/a
378.7635	0.045	757527	keystroke_e	e	n/a
378.8985	0.075	757797	keystroke_t	t	n/a
379.109	0.0895	758218	keystroke_e	e	n/a
379.184	0.105	758368	keystroke_r	r	n/a
379.468	0.075	758936	keystroke_m	m	n/a
379.6485	0.0605	759297	keystroke_i	i	n/a
379.7985	0.0745	759597	keystroke_n	n	n/a
379.904	0.1195	759808	keystroke_a	a	n/a
380.009	0.09	760018	keystroke_t	t	n/a
380.1285	0.1505	760257	keystroke_i	i	n/a
380.2335	0.1495	760467	keystroke_o	o	n/a
380.3535	0.1495	760707	keystroke_n	n	n/a
380.653	0.1055	761306	keystroke_Key.enter	Key.enter	n/a
380.7645	5.382	761529	prompt	n/a	poll caused must butler\n
381.434	0.0895	762868	keystroke_p	p	n/a
381.599	0.075	763198	keystroke_o	o	n/a
381.808	0.045	763616	keystroke_l	l	n/a
381.928	0.09	763856	keystroke_l	l	n/a
382.0785	0.075	764157	keystroke_Key.space	Key.space	n/a
382.2585	0.0905	764517	keystroke_c	c	n/a
382.408	0.1065	764816	keystroke_a	a	n/a
382.634	0.089	765268	keystroke_s	s	n/a
382.769	0.09	765538	keystroke_e	e	n/a
382.964	0.074	765928	keystroke_d	d	n/a
383.0835	0.0755	766167	keystroke_Key.space	Key.space	n/a
383.474	0.09	766948	keystroke_m	m	n/a
383.668	0.076	767336	keystroke_u	u	n/a
383.804	0.09	767608	keystroke_s	s	n/a
383.939	0.075	767878	keystroke_t	t	n/a
384.0735	0.0755	768147	keystroke_Key.space	Key.space	n/a
384.463	0.075	768926	keystroke_b	b	n/a
384.614	0.06	769228	keystroke_u	u	n/a
385.2585	0.0905	770517	keystroke_t	t	n/a
385.603	0.09	771206	keystroke_l	l	n/a
385.7085	0.075	771417	keystroke_e	e	n/a
385.768	0.1055	771536	keystroke_r	r	n/a
386.0535	0.09	772107	keystroke_Key.enter	Key.enter	n/a
386.157	6.813	772314	prompt	n/a	georgia challenging errors open\n
387.0295	0.044	774059	keystroke_g	g	n/a
387.1485	0.0755	774297	keystroke_e	e	n/a
387.3135	0.105	774627	keystroke_o	o	n/a
387.629	0.074	775258	keystroke_r	r	n/a
387.8685	0.09	775737	keystroke_g	g	n/a
388.0785	0.0755	776157	keystroke_i	i	n/a
388.184	0.1045	776368	keystroke_a	a	n/a
388.3335	0.09	776667	keystroke_Key.space	Key.space	n/a
388.6635	0.09	777327	keystroke_c	c	n/a
388.7685	0.0755	777537	keystroke_h	h	n/a
388.904	0.12	777808	keystroke_a	a	n/a
389.2485	0.075	778497	keystroke_l	l	n/a
389.384	0.0745	778768	keystroke_l	l	n/a
389.5035	0.075	779007	keystroke_e	e	n/a
389.6085	0.105	779217	keystroke_n	n	n/a
389.7885	0.075	779577	keystroke_g	g	n/a
390.1485	0.1195	780297	keystroke_i	i	n/a
390.224	0.1645	780448	keystroke_n	n	n/a
390.3285	0.104	780657	keystroke_g	g	n/a
390.418	0.0895	780836	keystroke_Key.space	Key.space	n/a
390.6285	0.0755	781257	keystroke_e	e	n/a
390.8085	0.0605	781617	keystroke_r	r	n/a
390.959	0.0745	781918	keystroke_r	r	n/a
391.0795	0.0895	782159	keystroke_o	o	n/a
391.214	0.09	782428	keystroke_r	r	n/a
391.7095	0.089	783419	keystroke_s	s	n/a
392.0685	0.061	784137	keystroke_Key.space	Key.space	n/a
392.2635	0.0905	784527	keystroke_o	o	n/a
392.3845	0.105	784769	keystroke_p	p	n/a
392.4905	0.073	784981	keystroke_e	e	n/a
392.5935	0.09	785187	keystroke_n	n	n/a
392.8635	0.1045	785727	keystroke_Key.enter	Key.enter	n/a
392.9775	6.4575	785955	prompt	n/a	hill disclose checkout thesis\n
393.628	0.0755	787256	keystroke_h	h	n/a
393.764	0.075	787528	keystroke_i	i	n/a
393.929	0.059	787858	keystroke_l	l	n/a
394.078	0.061	788156	keystroke_l	l	n/a
394.184	0.089	788368	keystroke_Key.space	Key.space	n/a
394.3785	0.105	788757	keystroke_d	d	n/a
394.5135	0.075	789027	keystroke_i	i	n/a
394.7535	0.091	789507	keystroke_s	s	n/a
395.0385	0.09	790077	keystroke_c	c	n/a
395.159	0.0745	790318	keystroke_l	l	n/a
395.3385	0.0745	790677	keystroke_o	o	n/a
395.474	0.09	790948	keystroke_s	s	n/a
395.5485	0.104	791097	keystroke_e	e	n/a
395.7725	0.076	791545	keystroke_Key.space	Key.space	n/a
396.1185	0.09	792237	keystroke_c	c	n/a
396.2385	0.0755	792477	keystroke_h	h	n/a
396.3435	0.075	792687	keystroke_e	e	n/a
396.5535	0.0905	793107	keystroke_c	c	n/a
396.7035	0.075	793407	keystroke_k	k	n/a
396.9735	0.075	793947	keystroke_o	o	n/a
397.0485	0.12	794097	keystroke_u	u	n/a
397.1535	0.09	794307	keystroke_t	t	n/a
397.2735	0.0755	794547	keystroke_Key.space	Key.space	n/a
397.454	0.075	794908	keystroke_t	t	n/a
397.559	0.09	795118	keystroke_h	h	n/a
397.709	0.0895	795418	keystroke_e	e	n/a
398.0235	0.09	796047	keystroke_s	s	n/a
398.1585	0.0745	796317	keystroke_e	e	n/a
398.7285	0.075	797457	keystroke_Key.backspace	Key.backspace	n/a
398.984	0.0745	797968	keystroke_i	i	n/a
399.1035	0.105	798207	keystroke_s	s	n/a
399.3435	0.09	798687	keystroke_Key.enter	Key.enter	n/a
399.448	7.142	798896	prompt	n/a	o'clock href presentations login\n
400.2735	0.075	800547	keystroke_o	o	n/a
400.709	0.105	801418	keystroke_'	'	n/a
401.174	0.075	802348	keystroke_c	c	n/a
401.264	0.075	802528	keystroke_l	l	n/a
401.443	0.061	802886	keystroke_o	o	n/a
401.624	0.09	803248	keystroke_c	c	n/a
401.744	0.089	803488	keystroke_k	k	n/a
401.848	0.09	803696	keystroke_Key.space	Key.space	n/a
402.1185	0.0605	804237	keystroke_h	h	n/a
402.554	0.06	805108	keystroke_r	r	n/a
402.793	0.06	805586	keystroke_e	e	n/a
402.943	0.0605	805886	keystroke_f	f	n/a
403.1235	0.0745	806247	keystroke_Key.space	Key.space	n/a
403.363	0.09	806726	keystroke_p	p	n/a
403.454	0.119	806908	keystroke_r	r	n/a
403.5585	0.09	807117	keystroke_e	e	n/a
403.8435	0.1205	807687	keystroke_s	s	n/a
404.264	0.075	808528	keystroke_e	e	n/a
404.398	0.1055	808796	keystroke_n	n	n/a
404.5935	0.0595	809187	keystroke_t	t	n/a
404.714	0.09	809428	keystroke_a	a	n/a
404.759	0.105	809518	keystroke_t	t	n/a
404.849	0.135	809698	keystroke_i	i	n/a
404.953	0.165	809906	keystroke_o	o	n/a
405.028	0.196	810056	keystroke_n	n	n/a
405.194	0.105	810388	keystroke_s	s	n/a
405.329	0.075	810658	keystroke_Key.space	Key.space	n/a
405.539	0.0895	811078	keystroke_l	l	n/a
405.7185	0.0745	811437	keystroke_o	o	n/a
405.9585	0.075	811917	keystroke_g	g	n/a
406.079	0.1195	812158	keystroke_i	i	n/a
406.184	0.135	812368	keystroke_n	n	n/a
406.4835	0.105	812967	keystroke_Key.enter	Key.enter	n/a
406.5975	10.9295	813195	prompt	n/a	locale tiffany salvador immigrants\n
407.384	0.075	814768	keystroke_l	l	n/a
407.623	0.0905	815246	keystroke_o	o	n/a
407.893	0.09	815786	keystroke_c	c	n/a
408.133	0.1055	816266	keystroke_a	a	n/a
408.464	0.0895	816928	keystroke_l	l	n/a
408.5985	0.09	817197	keystroke_e	e	n/a
408.7175	0.091	817435	keystroke_Key.space	Key.space	n/a
409.0045	0.074	818009	keystroke_t	t	n/a
409.1385	0.09	818277	keystroke_i	i	n/a
409.3635	0.0605	818727	keystroke_f	f	n/a
409.499	0.0745	818998	keystroke_f	f	n/a
409.739	0.135	819478	keystroke_a	a	n/a
409.963	0.09	819926	keystroke_n	n	n/a
410.278	0.09	820556	keystroke_c	c	n/a
410.383	0.091	820766	keystroke_y	y	n/a
411.1335	0.06	822267	keystroke_Key.backspace	Key.backspace	n/a
411.2985	0.06	822597	keystroke_Key.backspace	Key.backspace	n/a
411.6735	0.0755	823347	keystroke_y	y	n/a
412.078	0.0155	824156	keystroke_Key.space	Key.space	n/a
412.319	0.09	824638	keystroke_s	s	n/a
412.5435	0.105	825087	keystroke_a	a	n/a
412.7535	0.09	825507	keystroke_l	l	n/a
412.9935	0.09	825987	keystroke_v	v	n/a
413.1885	0.09	826377	keystroke_a	a	n/a
413.759	0.074	827518	keystroke_d	d	n/a
413.909	0.09	827818	keystroke_o	o	n/a
414.3585	0.06	828717	keystroke_r	r	n/a
414.883	0.06	829766	keystroke_Key.space	Key.space	n/a
415.4685	0.0755	830937	keystroke_i	i	n/a
415.7985	0.06	831597	keystroke_m	m	n/a
415.9335	0.075	831867	keystroke_m	m	n/a
416.1135	0.0595	832227	keystroke_i	i	n/a
416.3535	0.0595	832707	keystroke_g	g	n/a
416.504	0.0595	833008	keystroke_r	r	n/a
416.6235	0.1055	833247	keystroke_a	a	n/a
416.879	0.09	833758	keystroke_n	n	n/a
417.043	0.0755	834086	keystroke_t	t	n/a
417.268	0.076	834536	keystroke_s	s	n/a
417.418	0.106	834836	keystroke_Key.enter	Key.enter	n/a
417.5385	8.447	835077	prompt	n/a	reviewed fundamentals discover absolute\n
418.3785	0.0905	836757	keystroke_r	r	n/a
418.483	0.076	836966	keystroke_e	e	n/a
418.7235	0.1055	837447	keystroke_v	v	n/a
418.844	0.09	837688	keystroke_i	i	n/a
418.964	0.0895	837928	keystroke_e	e	n/a
419.069	0.12	838138	keystroke_w	w	n/a
419.3085	0.075	838617	keystroke_e	e	n/a
419.4735	0.075	838947	keystroke_d	d	n/a
419.563	0.0755	839126	keystroke_Key.space	Key.space	n/a
419.8935	0.09	839787	keystroke_f	f	n/a
419.9985	0.06	839997	keystroke_u	u	n/a
420.148	0.106	840296	keystroke_n	n	n/a
420.449	0.09	840898	keystroke_d	d	n/a
420.6585	0.12	841317	keystroke_a	a	n/a
421.063	0.09	842126	keystroke_m	m	n/a
421.184	0.09	842368	keystroke_e	e	n/a
421.289	0.089	842578	keystroke_n	n	n/a
421.424	0.044	842848	keystroke_t	t	n/a
421.573	0.135	843146	keystroke_a	a	n/a
421.693	0.1055	843386	keystroke_l	l	n/a
421.858	0.09	843716	keystroke_s	s	n/a
422.0385	0.104	844077	keystroke_Key.space	Key.space	n/a
422.3675	0.075	844735	keystroke_d	d	n/a
422.4575	0.076	844915	keystroke_i	i	n/a
422.6385	0.089	845277	keystroke_s	s	n/a
422.9235	0.105	845847	keystroke_c	c	n/a
423.1035	0.09	846207	keystroke_o	o	n/a
423.268	0.09	846536	keystroke_v	v	n/a
423.448	0.1055	846896	keystroke_e	e	n/a
423.538	0.12	847076	keystroke_r	r	n/a
423.673	0.0755	847346	keystroke_Key.space	Key.space	n/a
423.8685	0.105	847737	keystroke_a	a	n/a
424.259	0.0745	848518	keystroke_b	b	n/a
424.8435	0.09	849687	keystroke_s	s	n/a
424.9785	0.105	849957	keystroke_o	o	n/a
425.1435	0.0895	850287	keystroke_l	l	n/a
425.3385	0.06	850677	keystroke_u	u	n/a
425.4435	0.09	850887	keystroke_t	t	n/a
425.6235	0.0755	851247	keystroke_e	e	n/a
425.893	0.09	851786	keystroke_Key.enter	Key.enter	n/a
425.992	5.8875	851984	prompt	n/a	analyze handed bread portal\n
426.7175	0.1065	853435	keystroke_a	a	n/a
426.839	0.12	853678	keystroke_n	n	n/a
426.9435	0.1355	853887	keystroke_a	a	n/a
427.3335	0.0905	854667	keystroke_l	l	n/a
427.4825	0.091	854965	keystroke_y	y	n/a
427.948	0.121	855896	keystroke_z	z	n/a
428.1885	0.0605	856377	keystroke_e	e	n/a
428.3685	0.075	856737	keystroke_Key.space	Key.space	n/a
428.699	0.0745	857398	keystroke_h	h	n/a
428.8185	0.105	857637	keystroke_a	a	n/a
428.9385	0.105	857877	keystroke_n	n	n/a
429.0585	0.075	858117	keystroke_d	d	n/a
429.2385	0.075	858477	keystroke_e	e	n/a
429.4035	0.075	858807	keystroke_d	d	n/a
429.5235	0.075	859047	keystroke_Key.space	Key.space	n/a
429.7485	0.075	859497	keystroke_b	b	n/a
429.9285	0.0755	859857	keystroke_r	r	n/a
430.0485	0.075	860097	keystroke_e	e	n/a
430.184	0.104	860368	keystroke_a	a	n/a
430.378	0.075	860756	keystroke_d	d	n/a
430.513	0.075	861026	keystroke_Key.space	Key.space	n/a
430.7235	0.0905	861447	keystroke_p	p	n/a
430.9035	0.09	861807	keystroke_o	o	n/a
431.0385	0.09	862077	keystroke_r	r	n/a
431.2485	0.0605	862497	keystroke_t	t	n/a
431.3525	0.1205	862705	keystroke_a	a	n/a
431.503	0.1055	863006	keystroke_l	l	n/a
431.7885	0.089	863577	keystroke_Key.enter	Key.enter	n/a
431.8835	7.736	863767	prompt	n/a	buildings dylan throwing laos\n
432.674	0.0745	865348	keystroke_b	b	n/a
432.763	0.0755	865526	keystroke_u	u	n/a
432.898	0.09	865796	keystroke_i	i	n/a
433.078	0.0905	866156	keystroke_l	l	n/a
433.2135	0.0895	866427	keystroke_d	d	n/a
433.3185	0.12	866637	keystroke_i	i	n/a
433.409	0.1495	866818	keystroke_n	n	n/a
433.5435	0.09	867087	keystroke_g	g	n/a
433.6935	0.12	867387	keystroke_s	s	n/a
433.8285	0.075	867657	keystroke_Key.space	Key.space	n/a
434.1435	0.0905	868287	keystroke_d	d	n/a
434.3835	0.075	868767	keystroke_y	y	n/a
434.6535	0.104	869307	keystroke_l	l	n/a
434.803	0.121	869606	keystroke_a	a	n/a
434.9385	0.105	869877	keystroke_n	n	n/a
435.028	0.0895	870056	keystroke_Key.space	Key.space	n/a
435.2685	0.075	870537	keystroke_t	t	n/a
435.389	0.089	870778	keystroke_h	h	n/a
435.553	0.0905	871106	keystroke_r	r	n/a
435.7925	0.091	871585	keystroke_o	o	n/a
436.018	0.1055	872036	keystroke_w	w	n/a
436.2735	0.075	872547	keystroke_n	n	n/a
436.4985	0.195	872997	keystroke_i	i	n/a
436.6185	0.06	873237	keystroke_n	n	n/a
436.9035	0.06	873807	keystroke_Key.backspace	Key.backspace	n/a
437.0685	0.075	874137	keystroke_Key.backspace	Key.backspace	n/a
437.6235	0.06	875247	keystroke_Key.backspace	Key.backspace	n/a
437.9235	0.135	875847	keystroke_i	i	n/a
437.9985	0.195	875997	keystroke_n	n	n/a
438.1185	0.12	876237	keystroke_g	g	n/a
438.2235	0.09	876447	keystroke_Key.space	Key.space	n/a
438.479	0.09	876958	keystroke_l	l	n/a
438.6285	0.12	877257	keystroke_a	a	n/a
438.8235	0.0895	877647	keystroke_o	o	n/a
439.228	0.091	878456	keystroke_s	s	n/a
439.5125	0.105	879025	keystroke_Key.enter	Key.enter	n/a
439.6235	7.6165	879247	prompt	n/a	competition refine offered recommendation\n
440.4285	0.12	880857	keystroke_c	c	n/a
440.534	0.1195	881068	keystroke_o	o	n/a
440.6235	0.15	881247	keystroke_m	m	n/a
440.8935	0.0905	881787	keystroke_p	p	n/a
441.0435	0.1055	882087	keystroke_e	e	n/a
441.418	0.0905	882836	keystroke_t	t	n/a
441.644	0.089	883288	keystroke_i	i	n/a
441.9735	0.0745	883947	keystroke_t	t	n/a
442.0335	0.12	884067	keystroke_i	i	n/a
442.1085	0.18	884217	keystroke_o	o	n/a
442.2285	0.18	884457	keystroke_n	n	n/a
442.3935	0.06	884787	keystroke_Key.space	Key.space	n/a
442.5585	0.12	885117	keystroke_r	r	n/a
442.6935	0.06	885387	keystroke_e	e	n/a
442.9035	0.09	885807	keystroke_f	f	n/a
443.009	0.119	886018	keystroke_i	i	n/a
443.0825	0.196	886165	keystroke_n	n	n/a
443.3085	0.0905	886617	keystroke_e	e	n/a
443.504	0.074	887008	keystroke_Key.space	Key.space	n/a
443.8035	0.0745	887607	keystroke_o	o	n/a
444.028	0.015	888056	keystroke_f	f	n/a
444.118	0.0755	888236	keystroke_f	f	n/a
444.268	0.105	888536	keystroke_e	e	n/a
444.358	0.135	888716	keystroke_r	r	n/a
444.508	0.1055	889016	keystroke_e	e	n/a
444.749	0.0895	889498	keystroke_d	d	n/a
444.928	0.075	889856	keystroke_Key.space	Key.space	n/a
445.138	0.105	890276	keystroke_r	r	n/a
445.2585	0.0745	890517	keystroke_e	e	n/a
445.4685	0.0895	890937	keystroke_c	c	n/a
445.573	0.12	891146	keystroke_o	o	n/a
445.664	0.104	891328	keystroke_m	m	n/a
445.8585	0.0905	891717	keystroke_m	m	n/a
445.9935	0.075	891987	keystroke_e	e	n/a
446.0985	0.12	892197	keystroke_n	n	n/a
446.2785	0.09	892557	keystroke_d	d	n/a
446.4435	0.105	892887	keystroke_a	a	n/a
446.504	0.1195	893008	keystroke_t	t	n/a
446.5935	0.1495	893187	keystroke_i	i	n/a
446.728	0.136	893456	keystroke_o	o	n/a
446.804	0.164	893608	keystroke_n	n	n/a
447.1485	0.089	894297	keystroke_Key.enter	Key.enter	n/a
447.253	6.302	894506	prompt	n/a	usgs weapons funded link\n
448.019	0.075	896038	keystroke_u	u	n/a
448.183	0.091	896366	keystroke_s	s	n/a
448.543	0.06	897086	keystroke_g	g	n/a
448.843	0.0905	897686	keystroke_s	s	n/a
448.9935	0.105	897987	keystroke_Key.space	Key.space	n/a
449.234	0.0895	898468	keystroke_w	w	n/a
449.3985	0.09	898797	keystroke_e	e	n/a
449.5485	0.12	899097	keystroke_a	a	n/a
449.8485	0.1055	899697	keystroke_p	p	n/a
450.4485	0.075	900897	keystroke_o	o	n/a
450.599	0.0895	901198	keystroke_n	n	n/a
450.8685	0.075	901737	keystroke_s	s	n/a
451.0185	0.09	902037	keystroke_Key.space	Key.space	n/a
451.2585	0.09	902517	keystroke_f	f	n/a
451.363	0.076	902726	keystroke_u	u	n/a
451.543	0.1055	903086	keystroke_n	n	n/a
451.709	0.0895	903418	keystroke_d	d	n/a
451.903	0.0755	903806	keystroke_e	e	n/a
452.3535	0.105	904707	keystroke_d	d	n/a
452.5635	0.074	905127	keystroke_Key.space	Key.space	n/a
452.7435	0.09	905487	keystroke_l	l	n/a
452.8785	0.105	905757	keystroke_i	i	n/a
453.0135	0.1645	906027	keystroke_n	n	n/a
453.148	0.135	906296	keystroke_k	k	n/a
453.4785	0.075	906957	keystroke_Key.enter	Key.enter	n/a
453.5605	9.519	907121	prompt	n/a	visitors me accommodations gauge\n
454.5735	0.0755	909147	keystroke_v	v	n/a
454.6935	0.075	909387	keystroke_i	i	n/a
454.8435	0.105	909687	keystroke_s	s	n/a
454.9625	0.0755	909925	keystroke_i	i	n/a
455.188	0.0605	910376	keystroke_t	t	n/a
455.2785	0.1055	910557	keystroke_o	o	n/a
455.3535	0.105	910707	keystroke_r	r	n/a
455.5935	0.0895	911187	keystroke_s	s	n/a
455.728	0.075	911456	keystroke_Key.space	Key.space	n/a
455.954	0.09	911908	keystroke_m	m	n/a
456.0735	0.0895	912147	keystroke_e	e	n/a
456.358	0.075	912716	keystroke_Key.space	Key.space	n/a
456.719	0.0745	913438	keystroke_c	c	n/a
457.1835	0.045	914367	keystroke_Key.backspace	Key.backspace	n/a
457.3185	0.12	914637	keystroke_a	a	n/a
457.6035	0.075	915207	keystroke_c	c	n/a
457.7835	0.09	915567	keystroke_c	c	n/a
457.9635	0.165	915927	keystroke_o	o	n/a
458.1135	0.15	916227	keystroke_m	m	n/a
458.9535	0.09	917907	keystroke_m	m	n/a
459.4635	0.06	918927	keystroke_o	o	n/a
460.8135	0.0895	921627	keystroke_d	d	n/a
461.023	0.1055	922046	keystroke_a	a	n/a
461.2335	0.075	922467	keystroke_t	t	n/a
461.324	0.1045	922648	keystroke_i	i	n/a
461.3985	0.18	922797	keystroke_o	o	n/a
461.5035	0.1795	923007	keystroke_n	n	n/a
461.6235	0.09	923247	keystroke_s	s	n/a
461.728	0.1055	923456	keystroke_Key.space	Key.space	n/a
462.0585	0.09	924117	keystroke_g	g	n/a
462.299	0.1195	924598	keystroke_a	a	n/a
462.4335	0.0895	924867	keystroke_u	u	n/a
462.659	0.074	925318	keystroke_g	g	n/a
462.763	0.106	925526	keystroke_e	e	n/a
462.9735	0.104	925947	keystroke_Key.enter	Key.enter	n/a
463.0835	8.2035	926167	prompt	n/a	proposition arena curious groundwater\n
463.829	0.1045	927658	keystroke_p	p	n/a
463.9475	0.0905	927895	keystroke_r	r	n/a
464.053	0.091	928106	keystroke_o	o	n/a
464.264	0.089	928528	keystroke_p	p	n/a
464.443	0.075	928886	keystroke_o	o	n/a
464.6085	0.12	929217	keystroke_s	s	n/a
464.774	0.075	929548	keystroke_i	i	n/a
464.999	0.075	929998	keystroke_t	t	n/a
465.088	0.1205	930176	keystroke_i	i	n/a
465.1935	0.15	930387	keystroke_o	o	n/a
465.2835	0.1655	930567	keystroke_n	n	n/a
465.4785	0.074	930957	keystroke_Key.space	Key.space	n/a
465.884	0.1045	931768	keystroke_a	a	n/a
466.0035	0.105	932007	keystroke_r	r	n/a
466.0935	0.09	932187	keystroke_e	e	n/a
466.244	0.1185	932488	keystroke_a	a	n/a
466.8885	0.075	933777	keystroke_Key.backspace	Key.backspace	n/a
467.1585	0.0905	934317	keystroke_n	n	n/a
467.2635	0.12	934527	keystroke_a	a	n/a
467.4135	0.1045	934827	keystroke_Key.space	Key.space	n/a
467.789	0.074	935578	keystroke_c	c	n/a
467.909	0.105	935818	keystroke_u	u	n/a
468.074	0.09	936148	keystroke_r	r	n/a
468.374	0.075	936748	keystroke_i	i	n/a
468.554	0.105	937108	keystroke_o	o	n/a
468.629	0.1345	937258	keystroke_u	u	n/a
468.749	0.09	937498	keystroke_s	s	n/a
468.898	0.09	937796	keystroke_Key.space	Key.space	n/a
469.199	0.0895	938398	keystroke_g	g	n/a
469.4235	0.09	938847	keystroke_r	r	n/a
469.633	0.1365	939266	keystroke_o	o	n/a
469.7085	0.1205	939417	keystroke_u	u	n/a
469.933	0.106	939866	keystroke_n	n	n/a
470.084	0.09	940168	keystroke_d	d	n/a
470.354	0.075	940708	keystroke_w	w	n/a
470.488	0.121	940976	keystroke_a	a	n/a
470.609	0.105	941218	keystroke_t	t	n/a
470.744	0.135	941488	keystroke_e	e	n/a
470.863	0.121	941726	keystroke_r	r	n/a
471.193	0.09	942386	keystroke_Key.enter	Key.enter	n/a
471.291	5.889	942582	prompt	n/a	former soup smoking yesterday\n
471.973	0.1055	943946	keystroke_f	f	n/a
472.4395	0.015	944879	keystroke_o	o	n/a
472.4685	0.09	944937	keystroke_r	r	n/a
472.6635	0.105	945327	keystroke_m	m	n/a
472.7835	0.105	945567	keystroke_e	e	n/a
472.8735	0.105	945747	keystroke_r	r	n/a
472.979	0.0895	945958	keystroke_Key.space	Key.space	n/a
473.1885	0.105	946377	keystroke_s	s	n/a
473.3085	0.12	946617	keystroke_o	o	n/a
473.3985	0.12	946797	keystroke_u	u	n/a
473.564	0.1195	947128	keystroke_p	p	n/a
473.7435	0.0745	947487	keystroke_Key.space	Key.space	n/a
473.953	0.105	947906	keystroke_s	s	n/a
474.164	0.074	948328	keystroke_m	m	n/a
474.373	0.091	948746	keystroke_o	o	n/a
474.614	0.074	949228	keystroke_k	k	n/a
474.809	0.1345	949618	keystroke_i	i	n/a
474.8835	0.1655	949767	keystroke_n	n	n/a
474.9725	0.106	949945	keystroke_g	g	n/a
475.0785	0.074	950157	keystroke_Key.space	Key.space	n/a
475.303	0.0755	950606	keystroke_y	y	n/a
475.4685	0.09	950937	keystroke_e	e	n/a
475.769	0.105	951538	keystroke_s	s	n/a
476.099	0.06	952198	keystroke_t	t	n/a
476.2635	0.0905	952527	keystroke_e	e	n/a
476.339	0.105	952678	keystroke_r	r	n/a
476.564	0.075	953128	keystroke_d	d	n/a
476.668	0.1195	953336	keystroke_a	a	n/a
476.804	0.0885	953608	keystroke_y	y	n/a
477.0885	0.089	954177	keystroke_Key.enter	Key.enter	n/a
477.189	8.286	954378	prompt	n/a	melissa principle corporation legs\n
477.899	0.0895	955798	keystroke_m	m	n/a
478.1985	0.09	956397	keystroke_e	e	n/a
478.5585	0.105	957117	keystroke_l	l	n/a
478.7535	0.0755	957507	keystroke_i	i	n/a
478.9485	0.06	957897	keystroke_s	s	n/a
479.0985	0.09	958197	keystroke_s	s	n/a
479.1895	0.1345	958379	keystroke_a	a	n/a
479.8485	0.06	959697	keystroke_Key.space	Key.space	n/a
480.1035	0.09	960207	keystroke_p	p	n/a
480.1785	0.1345	960357	keystroke_r	r	n/a
480.613	0.06	961226	keystroke_i	i	n/a
480.733	0.12	961466	keystroke_n	n	n/a
481.063	0.106	962126	keystroke_c	c	n/a
481.184	0.075	962368	keystroke_i	i	n/a
481.363	0.0615	962726	keystroke_l	l	n/a
481.888	0.03	963776	keystroke_Key.backspace	Key.backspace	n/a
482.1285	0.09	964257	keystroke_p	p	n/a
482.3385	0.09	964677	keystroke_l	l	n/a
482.5785	0.1055	965157	keystroke_e	e	n/a
482.7135	0.0595	965427	keystroke_Key.space	Key.space	n/a
482.9835	0.09	965967	keystroke_c	c	n/a
483.1335	0.0905	966267	keystroke_o	o	n/a
483.329	0.0745	966658	keystroke_r	r	n/a
483.6585	0.09	967317	keystroke_p	p	n/a
483.823	0.09	967646	keystroke_o	o	n/a
484.0185	0.0595	968037	keystroke_r	r	n/a
484.124	0.134	968248	keystroke_a	a	n/a
484.214	0.09	968428	keystroke_t	t	n/a
484.318	0.1205	968636	keystroke_i	i	n/a
484.408	0.135	968816	keystroke_o	o	n/a
484.513	0.15	969026	keystroke_n	n	n/a
484.6485	0.0745	969297	keystroke_Key.space	Key.space	n/a
484.813	0.106	969626	keystroke_l	l	n/a
484.904	0.089	969808	keystroke_e	e	n/a
485.0085	0.1055	970017	keystroke_g	g	n/a
485.174	0.1045	970348	keystroke_s	s	n/a
485.3685	0.1045	970737	keystroke_Key.enter	Key.enter	n/a
485.4825	6.7735	970965	prompt	n/a	literary holdem blind albert\n
486.193	0.06	972386	keystroke_l	l	n/a
486.314	0.09	972628	keystroke_i	i	n/a
486.509	0.06	973018	keystroke_t	t	n/a
486.674	0.075	973348	keystroke_e	e	n/a
486.898	0.076	973796	keystroke_r	r	n/a
487.063	0.121	974126	keystroke_a	a	n/a
487.168	0.105	974336	keystroke_r	r	n/a
487.3185	0.09	974637	keystroke_y	y	n/a
487.8135	0.06	975627	keystroke_Key.space	Key.space	n/a
487.9935	0.06	975987	keystroke_h	h	n/a
488.1435	0.075	976287	keystroke_o	o	n/a
488.3235	0.09	976647	keystroke_l	l	n/a
488.4585	0.09	976917	keystroke_d	d	n/a
488.8185	0.09	977637	keystroke_e	e	n/a
488.9385	0.105	977877	keystroke_m	m	n/a
489.3135	0.075	978627	keystroke_Key.space	Key.space	n/a
489.929	0.0745	979858	keystroke_b	b	n/a
490.033	0.1205	980066	keystroke_l	l	n/a
490.108	0.1205	980216	keystroke_i	i	n/a
490.288	0.12	980576	keystroke_n	n	n/a
490.619	0.089	981238	keystroke_d	d	n/a
490.768	0.0905	981536	keystroke_Key.space	Key.space	n/a
490.994	0.1045	981988	keystroke_a	a	n/a
491.114	0.105	982228	keystroke_l	l	n/a
491.3985	0.0905	982797	keystroke_b	b	n/a
491.624	0.074	983248	keystroke_e	e	n/a
491.683	0.105	983366	keystroke_r	r	n/a
491.9085	0.0755	983817	keystroke_t	t	n/a
492.163	0.09	984326	keystroke_Key.enter	Key.enter	n/a
492.26	8.396	984520	prompt	n/a	depend santa adults qualify\n
492.914	0.09	985828	keystroke_d	d	n/a
493.094	0.074	986188	keystroke_e	e	n/a
493.2435	0.1045	986487	keystroke_p	p	n/a
493.379	0.074	986758	keystroke_e	e	n/a
493.514	0.1045	987028	keystroke_n	n	n/a
493.6335	0.1055	987267	keystroke_d	d	n/a
493.8135	0.09	987627	keystroke_Key.space	Key.space	n/a
494.0535	0.075	988107	keystroke_s	s	n/a
494.2335	0.105	988467	keystroke_a	a	n/a
494.4135	0.105	988827	keystroke_n	n	n/a
494.5935	0.0755	989187	keystroke_t	t	n/a
494.7135	0.1355	989427	keystroke_a	a	n/a
494.833	0.105	989666	keystroke_t	t	n/a
495.058	0.075	990116	keystroke_Key.space	Key.space	n/a
495.283	0.121	990566	keystroke_a	a	n/a
495.674	0.09	991348	keystroke_d	d	n/a
495.9735	0.075	991947	keystroke_u	u	n/a
496.1685	0.105	992337	keystroke_l	l	n/a
496.2895	0.074	992579	keystroke_t	t	n/a
496.4685	0.09	992937	keystroke_s	s	n/a
496.6025	0.06	993205	keystroke_Key.space	Key.space	n/a
497.0535	0.075	994107	keystroke_q	q	n/a
497.173	0.09	994346	keystroke_u	u	n/a
497.549	0.1345	995098	keystroke_a	a	n/a
497.7285	0.105	995457	keystroke_l	l	n/a
497.8785	0.075	995757	keystroke_i	i	n/a
497.9685	0.09	995937	keystroke_t	t	n/a
498.0885	0.0905	996177	keystroke_y	y	n/a
498.5985	0.075	997197	keystroke_Key.backspace	Key.backspace	n/a
498.8085	0.076	997617	keystroke_f	f	n/a
498.9285	0.09	997857	keystroke_y	y	n/a
499.438	0.06	998876	keystroke_Key.backspace	Key.backspace	n/a
500.264	0.059	1000528	keystroke_y	y	n/a
500.563	0.0905	1001126	keystroke_Key.enter	Key.enter	n/a
500.6605	11.7995	1001321	prompt	n/a	inspection collectors glasgow intel\n
501.4035	0.06	1002807	keystroke_i	i	n/a
501.5235	0.105	1003047	keystroke_n	n	n/a
501.674	0.1045	1003348	keystroke_s	s	n/a
501.839	0.089	1003678	keystroke_p	p	n/a
501.974	0.0895	1003948	keystroke_e	e	n/a
502.1835	0.075	1004367	keystroke_c	c	n/a
502.3485	0.06	1004697	keystroke_y	y	n/a
502.3935	0.1355	1004787	keystroke_i	i	n/a
502.4985	0.165	1004997	keystroke_o	o	n/a
502.6185	0.15	1005237	keystroke_n	n	n/a
502.814	0.0745	1005628	keystroke_Key.space	Key.space	n/a
503.159	0.0745	1006318	keystroke_c	c	n/a
503.4585	0.06	1006917	keystroke_Key.backspace	Key.backspace	n/a
503.6235	0.045	1007247	keystroke_Key.backspace	Key.backspace	n/a
503.773	0.0605	1007546	keystroke_Key.backspace	Key.backspace	n/a
503.923	0.06	1007846	keystroke_Key.backspace	Key.backspace	n/a
504.0735	0.06	1008147	keystroke_Key.backspace	Key.backspace	n/a
504.224	0.0595	1008448	keystroke_Key.backspace	Key.backspace	n/a
505.1235	0.075	1010247	keystroke_Key.backspace	Key.backspace	n/a
507.3915	0.001	1014783	keystroke_c	c	n/a
507.4935	0.0755	1014987	keystroke_t	t	n/a
507.569	0.1045	1015138	keystroke_i	i	n/a
507.6585	0.15	1015317	keystroke_o	o	n/a
507.7785	0.135	1015557	keystroke_n	n	n/a
507.8835	0.075	1015767	keystroke_Key.space	Key.space	n/a
508.1085	0.09	1016217	keystroke_c	c	n/a
508.2435	0.0605	1016487	keystroke_o	o	n/a
508.4385	0.046	1016877	keystroke_l	l	n/a
508.5735	0.075	1017147	keystroke_l	l	n/a
508.679	0.075	1017358	keystroke_e	e	n/a
508.873	0.091	1017746	keystroke_c	c	n/a
509.233	0.075	1018466	keystroke_t	t	n/a
509.323	0.1055	1018646	keystroke_o	o	n/a
509.4435	0.0905	1018887	keystroke_r	r	n/a
