onset	duration	sample	value	key	prompt_text
15.7485	8.431	31497	prompt	n/a	the quick brown fox jumps over a lazy dog\n
16.8735	0.028	33747	keystroke_t	t	n/a
16.916	0.076	33832	keystroke_h	h	n/a
16.9615	0.1505	33923	keystroke_e	e	n/a
17.0665	0.1345	34133	keystroke_Key.space	Key.space	n/a
17.246	0.1355	34492	keystroke_q	q	n/a
17.622	0.119	35244	keystroke_u	u	n/a
18.102	0.1045	36204	keystroke_i	i	n/a
18.2665	0.1055	36533	keystroke_c	c	n/a
18.431	0.105	36862	keystroke_k	k	n/a
18.521	0.105	37042	keystroke_Key.space	Key.space	n/a
18.792	0.0595	37584	keystroke_b	b	n/a
18.986	0.0755	37972	keystroke_r	r	n/a
19.106	0.1355	38212	keystroke_o	o	n/a
19.196	0.0755	38392	keystroke_w	w	n/a
19.376	0.15	38752	keystroke_n	n	n/a
19.4365	0.1195	38873	keystroke_Key.space	Key.space	n/a
19.632	0.09	39264	keystroke_f	f	n/a
19.796	0.1355	39592	keystroke_o	o	n/a
19.9465	0.119	39893	keystroke_x	x	n/a
20.096	0.1195	40192	keystroke_Key.space	Key.space	n/a
20.336	0.0745	40672	keystroke_j	j	n/a
20.5165	0.074	41033	keystroke_u	u	n/a
20.7115	0.1345	41423	keystroke_m	m	n/a
20.817	0.119	41634	keystroke_p	p	n/a
20.981	0.1055	41962	keystroke_s	s	n/a
21.0715	0.1195	42143	keystroke_Key.space	Key.space	n/a
21.221	0.135	42442	keystroke_o	o	n/a
21.341	0.061	42682	keystroke_v	v	n/a
21.491	0.15	42982	keystroke_e	e	n/a
21.596	0.1955	43192	keystroke_r	r	n/a
21.8365	0.12	43673	keystroke_Key.space	Key.space	n/a
22.0015	0.1505	44003	keystroke_a	a	n/a
22.166	0.0905	44332	keystroke_Key.space	Key.space	n/a
22.361	0.105	44722	keystroke_l	l	n/a
22.886	0.105	45772	keystroke_a	a	n/a
23.1265	0.0895	46253	keystroke_z	z	n/a
23.2765	0.105	46553	keystroke_y	y	n/a
23.442	0.1045	46884	keystroke_Key.space	Key.space	n/a
23.651	0.075	47302	keystroke_d	d	n/a
23.771	0.1205	47542	keystroke_o	o	n/a
23.892	0.059	47784	keystroke_g	g	n/a
24.0705	0.1055	48141	keystroke_Key.enter	Key.enter	n/a
24.186	8.1225	48372	prompt	n/a	expired george wave biodiversity\n
24.866	0.0605	49732	keystroke_e	e	n/a
25.0615	0.105	50123	keystroke_x	x	n/a
25.1815	0.1645	50363	keystroke_p	p	n/a
25.361	0.09	50722	keystroke_i	i	n/a
25.451	0.1355	50902	keystroke_r	r	n/a
25.541	0.1045	51082	keystroke_e	e	n/a
25.766	0.0755	51532	keystroke_d	d	n/a
25.8865	0.105	51773	keystroke_Key.space	Key.space	n/a
26.067	0.06	52134	keystroke_g	g	n/a
26.2175	0.149	52435	keystroke_e	e	n/a
26.3965	0.18	52793	keystroke_a	a	n/a
26.9215	0.0895	53843	keystroke_Key.backspace	Key.backspace	n/a
27.072	0.105	54144	keystroke_o	o	n/a
27.1615	0.0745	54323	keystroke_r	r	n/a
27.4015	0.0595	54803	keystroke_g	g	n/a
27.5365	0.0895	55073	keystroke_e	e	n/a
27.6865	0.105	55373	keystroke_Key.space	Key.space	n/a
28.121	0.09	56242	keystroke_w	w	n/a
28.2415	0.1505	56483	keystroke_a	a	n/a
28.436	0.06	56872	keystroke_v	v	n/a
28.541	0.09	57082	keystroke_e	e	n/a
28.661	0.0905	57322	keystroke_Key.space	Key.space	n/a
29.3515	0.06	58703	keystroke_d	d	n/a
29.7265	0.09	59453	keystroke_Key.backspace	Key.backspace	n/a
29.8615	0.0745	59723	keystroke_b	b	n/a
30.027	0.149	60054	keystroke_i	i	n/a
30.297	0.104	60594	keystroke_o	o	n/a
30.7015	0.0745	61403	keystroke_d	d	n/a
30.806	0.1055	61612	keystroke_i	i	n/a
30.972	0.06	61944	keystroke_v	v	n/a
31.1365	0.12	62273	keystroke_e	e	n/a
31.2115	0.12	62423	keystroke_r	r	n/a
31.482	0.0895	62964	keystroke_s	s	n/a
31.602	0.1045	63204	keystroke_i	i	n/a
31.752	0.0895	63504	keystroke_t	t	n/a
31.9015	0.09	63803	keystroke_y	y	n/a
32.2315	0.075	64463	keystroke_Key.enter	Key.enter	n/a
32.3135	8.9055	64627	prompt	n/a	abortion cabinet what'd elimination\n
32.9215	0.15	65843	keystroke_a	a	n/a
33.0855	0.106	66171	keystroke_b	b	n/a
33.2065	0.12	66413	keystroke_o	o	n/a
33.3555	0.061	66711	keystroke_r	r	n/a
33.5365	0.075	67073	keystroke_t	t	n/a
33.8515	0.15	67703	keystroke_i	i	n/a
33.9715	0.165	67943	keystroke_o	o	n/a
34.1065	0.1345	68213	keystroke_n	n	n/a
34.226	0.105	68452	keystroke_Key.space	Key.space	n/a
34.707	0.059	69414	keystroke_c	c	n/a
34.8715	0.15	69743	keystroke_a	a	n/a
35.0365	0.0745	70073	keystroke_b	b	n/a
35.246	0.1205	70492	keystroke_i	i	n/a
35.7715	0.105	71543	keystroke_n	n	n/a
36.072	0.1345	72144	keystroke_e	e	n/a
36.2215	0.105	72443	keystroke_t	t	n/a
36.372	0.0895	72744	keystroke_Key.space	Key.space	n/a
36.581	0.09	73162	keystroke_w	w	n/a
37.0315	0.0745	74063	keystroke_h	h	n/a
37.121	0.15	74242	keystroke_a	a	n/a
37.226	0.105	74452	keystroke_t	t	n/a
37.5715	0.12	75143	keystroke_'	'	n/a
37.8115	0.105	75623	keystroke_d	d	n/a
38.3065	0.12	76613	keystroke_Key.space	Key.space	n/a
38.5015	0.06	77003	keystroke_e	e	n/a
38.592	0.1345	77184	keystroke_l	l	n/a
38.787	0.1645	77574	keystroke_m	m	n/a
38.9365	0.21	77873	keystroke_i	i	n/a
39.446	0.075	78892	keystroke_Key.backspace	Key.backspace	n/a
39.596	0.09	79192	keystroke_Key.backspace	Key.backspace	n/a
39.807	0.105	79614	keystroke_i	i	n/a
39.941	0.12	79882	keystroke_m	m	n/a
40.092	0.105	80184	keystroke_i	i	n/a
40.211	0.105	80422	keystroke_n	n	n/a
40.361	0.151	80722	keystroke_a	a	n/a
40.482	0.12	80964	keystroke_t	t	n/a
40.587	0.2545	81174	keystroke_i	i	n/a
40.7065	0.15	81413	keystroke_o	o	n/a
40.8265	0.1345	81653	keystroke_n	n	n/a
41.126	0.0905	82252	keystroke_Key.enter	Key.enter	n/a
41.2235	6.625	82447	prompt	n/a	heads thinks hood bureau\n
41.952	0.1045	83904	keystroke_h	h	n/a
42.0415	0.0905	84083	keystroke_e	e	n/a
42.132	0.164	84264	keystroke_a	a	n/a
42.281	0.076	84562	keystroke_d	d	n/a
42.507	0.089	85014	keystroke_s	s	n/a
42.656	0.105	85312	keystroke_Key.space	Key.space	n/a
43.136	0.075	86272	keystroke_t	t	n/a
43.151	0.106	86302	keystroke_h	h	n/a
43.272	0.12	86544	keystroke_i	i	n/a
43.376	0.166	86752	keystroke_n	n	n/a
43.722	0.074	87444	keystroke_g	g	n/a
44.277	0.105	88554	keystroke_Key.backspace	Key.backspace	n/a
44.472	0.12	88944	keystroke_k	k	n/a
44.592	0.09	89184	keystroke_s	s	n/a
44.696	0.1355	89392	keystroke_Key.space	Key.space	n/a
44.921	0.106	89842	keystroke_h	h	n/a
45.042	0.1045	90084	keystroke_o	o	n/a
45.2065	0.09	90413	keystroke_o	o	n/a
45.4915	0.15	90983	keystroke_d	d	n/a
45.627	0.1195	91254	keystroke_Key.space	Key.space	n/a
45.9565	0.075	91913	keystroke_b	b	n/a
46.4515	0.075	92903	keystroke_u	u	n/a
46.5715	0.09	93143	keystroke_r	r	n/a
46.7365	0.09	93473	keystroke_e	e	n/a
47.0065	0.1345	94013	keystroke_a	a	n/a
47.307	0.0895	94614	keystroke_u	u	n/a
47.7565	0.09	95513	keystroke_Key.enter	Key.enter	n/a
47.8535	9.4605	95707	prompt	n/a	growing championships licking greenhouse\n
48.762	0.075	97524	keystroke_g	g	n/a
48.9565	0.09	97913	keystroke_r	r	n/a
49.0915	0.105	98183	keystroke_o	o	n/a
49.2115	0.0895	98423	keystroke_w	w	n/a
49.346	0.1205	98692	keystroke_n	n	n/a
49.4965	0.1345	98993	keystroke_i	i	n/a
49.946	0.0455	99892	keystroke_Key.backspace	Key.backspace	n/a
50.081	0.0755	100162	keystroke_Key.backspace	Key.backspace	n/a
50.247	0.105	100494	keystroke_i	i	n/a
50.337	0.12	100674	keystroke_n	n	n/a
50.427	0.12	100854	keystroke_g	g	n/a
50.532	0.134	101064	keystroke_Key.space	Key.space	n/a
51.042	0.09	102084	keystroke_c	c	n/a
51.1325	0.0735	102265	keystroke_h	h	n/a
51.222	0.149	102444	keystroke_a	a	n/a
51.356	0.166	102712	keystroke_m	m	n/a
51.507	0.119	103014	keystroke_p	p	n/a
51.852	0.21	103704	keystroke_i	i	n/a
52.016	0.196	104032	keystroke_o	o	n/a
52.197	0.12	104394	keystroke_n	n	n/a
52.377	0.075	104754	keystroke_s	s	n/a
52.497	0.15	104994	keystroke_h	h	n/a
52.587	0.195	105174	keystroke_i	i	n/a
52.722	0.165	105444	keystroke_p	p	n/a
53.067	0.105	106134	keystroke_s	s	n/a
53.1865	0.12	106373	keystroke_Key.space	Key.space	n/a
53.367	0.1195	106734	keystroke_l	l	n/a
53.547	0.1045	107094	keystroke_i	i	n/a
53.7415	0.075	107483	keystroke_c	c	n/a
53.8765	0.1205	107753	keystroke_k	k	n/a
54.102	0.12	108204	keystroke_i	i	n/a
54.177	0.164	108354	keystroke_n	n	n/a
54.356	0.1505	108712	keystroke_g	g	n/a
54.4915	0.135	108983	keystroke_Key.space	Key.space	n/a
54.852	0.0595	109704	keystroke_g	g	n/a
55.0315	0.0895	110063	keystroke_r	r	n/a
55.091	0.1055	110182	keystroke_e	e	n/a
55.2865	0.09	110573	keystroke_e	e	n/a
55.4215	0.1205	110843	keystroke_n	n	n/a
55.707	0.1345	111414	keystroke_h	h	n/a
55.8565	0.165	111713	keystroke_o	o	n/a
56.0365	0.12	112073	keystroke_u	u	n/a
56.2315	0.21	112463	keystroke_s	s	n/a
56.412	0.0895	112824	keystroke_e	e	n/a
57.2065	0.105	114413	keystroke_Key.enter	Key.enter	n/a
57.319	9.2205	114638	prompt	n/a	sucking inkjet nasa secretariat\n
57.912	0.105	115824	keystroke_s	s	n/a
58.0315	0.06	116063	keystroke_h	h	n/a
58.406	0.136	116812	keystroke_Key.backspace	Key.backspace	n/a
58.617	0.06	117234	keystroke_u	u	n/a
58.722	0.09	117444	keystroke_c	c	n/a
59.277	0.104	118554	keystroke_k	k	n/a
59.5015	0.1345	119003	keystroke_i	i	n/a
59.606	0.1355	119212	keystroke_n	n	n/a
59.7265	0.105	119453	keystroke_g	g	n/a
59.8015	0.135	119603	keystroke_Key.space	Key.space	n/a
60.1765	0.09	120353	keystroke_i	i	n/a
60.2815	0.2245	120563	keystroke_n	n	n/a
60.4615	0.1345	120923	keystroke_k	k	n/a
61.107	0.0745	122214	keystroke_j	j	n/a
61.2865	0.15	122573	keystroke_e	e	n/a
61.4215	0.1195	122843	keystroke_t	t	n/a
61.556	0.12	123112	keystroke_Key.space	Key.space	n/a
61.7665	0.105	123533	keystroke_n	n	n/a
61.8565	0.12	123713	keystroke_a	a	n/a
62.1265	0.105	124253	keystroke_s	s	n/a
62.4565	0.1195	124913	keystroke_a	a	n/a
62.711	0.135	125422	keystroke_Key.space	Key.space	n/a
63.3265	0.0595	126653	keystroke_s	s	n/a
63.5815	0.0745	127163	keystroke_e	e	n/a
63.7915	0.075	127583	keystroke_c	c	n/a
63.9865	0.12	127973	keystroke_r	r	n/a
64.0765	0.12	128153	keystroke_e	e	n/a
64.3615	0.105	128723	keystroke_t	t	n/a
64.7215	0.15	129443	keystroke_a	a	n/a
64.8415	0.1055	129683	keystroke_r	r	n/a
65.0215	0.0895	130043	keystroke_i	i	n/a
65.247	0.135	130494	keystroke_a	a	n/a
65.4865	0.09	130973	keystroke_t	t	n/a
66.431	0.105	132862	keystroke_Key.enter	Key.enter	n/a
66.5455	6.9675	133091	prompt	n/a	expensive extend absent cubic\n
67.2115	0.06	134423	keystroke_e	e	n/a
67.407	0.09	134814	keystroke_x	x	n/a
67.5715	0.1205	135143	keystroke_p	p	n/a
67.7215	0.06	135443	keystroke_e	e	n/a
67.9615	0.0905	135923	keystroke_n	n	n/a
68.4415	0.0905	136883	keystroke_s	s	n/a
68.621	0.1055	137242	keystroke_i	i	n/a
68.741	0.0755	137482	keystroke_v	v	n/a
68.9065	0.0905	137813	keystroke_e	e	n/a
69.011	0.105	138022	keystroke_Key.space	Key.space	n/a
69.3265	0.06	138653	keystroke_e	e	n/a
69.5065	0.105	139013	keystroke_x	x	n/a
69.6565	0.09	139313	keystroke_t	t	n/a
69.7615	0.105	139523	keystroke_e	e	n/a
69.9565	0.0905	139913	keystroke_n	n	n/a
70.0165	0.075	140033	keystroke_d	d	n/a
70.301	0.12	140602	keystroke_Key.space	Key.space	n/a
70.706	0.1355	141412	keystroke_a	a	n/a
70.8715	0.0755	141743	keystroke_b	b	n/a
71.1265	0.09	142253	keystroke_s	s	n/a
71.3065	0.09	142613	keystroke_e	e	n/a
71.531	0.105	143062	keystroke_n	n	n/a
71.6515	0.105	143303	keystroke_t	t	n/a
71.7865	0.105	143573	keystroke_Key.space	Key.space	n/a
72.1015	0.0445	144203	keystroke_c	c	n/a
72.356	0.0455	144712	keystroke_u	u	n/a
72.851	0.076	145702	keystroke_b	b	n/a
73.002	0.119	146004	keystroke_i	i	n/a
73.196	0.0905	146392	keystroke_c	c	n/a
73.4215	0.089	146843	keystroke_Key.enter	Key.enter	n/a
73.521	5.617	147042	prompt	n/a	meditation brick height wage\n
74.202	0.1195	148404	keystroke_m	m	n/a
74.2765	0.075	148553	keystroke_e	e	n/a
74.4565	0.0745	148913	keystroke_d	d	n/a
74.517	0.075	149034	keystroke_i	i	n/a
74.6965	0.0895	149393	keystroke_t	t	n/a
74.831	0.1805	149662	keystroke_a	a	n/a
74.9365	0.135	149873	keystroke_t	t	n/a
75.0725	0.254	150145	keystroke_i	i	n/a
75.2065	0.15	150413	keystroke_o	o	n/a
75.2965	0.165	150593	keystroke_n	n	n/a
75.5965	0.09	151193	keystroke_Key.space	Key.space	n/a
75.9415	0.0605	151883	keystroke_b	b	n/a
76.1365	0.075	152273	keystroke_r	r	n/a
76.2715	0.09	152543	keystroke_i	i	n/a
76.4665	0.09	152933	keystroke_c	c	n/a
76.6465	0.0905	153293	keystroke_k	k	n/a
76.7215	0.105	153443	keystroke_Key.space	Key.space	n/a
77.0065	0.09	154013	keystroke_h	h	n/a
77.0815	0.1045	154163	keystroke_e	e	n/a
77.306	0.09	154612	keystroke_i	i	n/a
77.397	0.0895	154794	keystroke_g	g	n/a
77.5615	0.075	155123	keystroke_h	h	n/a
77.652	0.104	155304	keystroke_t	t	n/a
78.131	0.15	156262	keystroke_Key.space	Key.space	n/a
78.296	0.105	156592	keystroke_w	w	n/a
78.416	0.1055	156832	keystroke_a	a	n/a
78.4915	0.1055	156983	keystroke_g	g	n/a
78.611	0.0755	157222	keystroke_e	e	n/a
79.046	0.0905	158092	keystroke_Key.enter	Key.enter	n/a
79.143	10.72	158286	prompt	n/a	spectacular files monsters develops\n
79.7065	0.105	159413	keystroke_s	s	n/a
79.841	0.091	159682	keystroke_p	p	n/a
79.932	0.074	159864	keystroke_e	e	n/a
80.126	0.091	160252	keystroke_c	c	n/a
80.3215	0.09	160643	keystroke_t	t	n/a
80.4715	0.15	160943	keystroke_a	a	n/a
80.7415	0.09	161483	keystroke_c	c	n/a
80.9815	0.075	161963	keystroke_u	u	n/a
81.1915	0.105	162383	keystroke_l	l	n/a
81.5665	0.1645	163133	keystroke_a	a	n/a
81.7165	0.1045	163433	keystroke_r	r	n/a
81.9715	0.119	163943	keystroke_Key.space	Key.space	n/a
82.9015	0.075	165803	keystroke_f	f	n/a
83.0365	0.15	166073	keystroke_i	i	n/a
83.1715	0.135	166343	keystroke_l	l	n/a
83.2915	0.135	166583	keystroke_e	e	n/a
83.3665	0.15	166733	keystroke_s	s	n/a
83.4715	0.15	166943	keystroke_Key.space	Key.space	n/a
83.682	0.1345	167364	keystroke_m	m	n/a
83.7865	0.165	167573	keystroke_o	o	n/a
83.9665	0.09	167933	keystroke_m	m	n/a
84.5815	0.09	169163	keystroke_Key.backspace	Key.backspace	n/a
84.7915	0.1195	169583	keystroke_n	n	n/a
84.911	0.151	169822	keystroke_s	s	n/a
85.0315	0.09	170063	keystroke_t	t	n/a
85.211	0.09	170422	keystroke_o	o	n/a
85.661	0.09	171322	keystroke_Key.backspace	Key.backspace	n/a
85.7665	0.18	171533	keystroke_e	e	n/a
85.8565	0.1505	171713	keystroke_r	r	n/a
85.977	0.1195	171954	keystroke_s	s	n/a
86.516	0.12	173032	keystroke_Key.space	Key.space	n/a
86.6815	0.0755	173363	keystroke_d	d	n/a
86.8615	0.075	173723	keystroke_e	e	n/a
87.042	0.09	174084	keystroke_v	v	n/a
87.1165	0.09	174233	keystroke_e	e	n/a
87.1915	0.1495	174383	keystroke_l	l	n/a
87.401	0.135	174802	keystroke_p	p	n/a
87.6565	0.0895	175313	keystroke_s	s	n/a
88.361	0.0905	176722	keystroke_Key.backspace	Key.backspace	n/a
88.5255	0.105	177051	keystroke_Key.backspace	Key.backspace	n/a
88.722	0.2235	177444	keystroke_o	o	n/a
88.9015	0.165	177803	keystroke_p	p	n/a
89.2615	0.1045	178523	keystroke_s	s	n/a
89.7715	0.09	179543	keystroke_Key.enter	Key.enter	n/a
89.8675	5.8305	179735	prompt	n/a	aimed bedrooms added along\n
90.521	0.09	181042	keystroke_a	a	n/a
90.7465	0.135	181493	keystroke_i	i	n/a
90.8815	0.1345	181763	keystroke_m	m	n/a
91.032	0.0585	182064	keystroke_e	e	n/a
91.2265	0.09	182453	keystroke_d	d	n/a
91.3605	0.135	182721	keystroke_Key.space	Key.space	n/a
91.8415	0.06	183683	keystroke_b	b	n/a
92.0365	0.075	184073	keystroke_e	e	n/a
92.2465	0.075	184493	keystroke_d	d	n/a
92.4265	0.0895	184853	keystroke_r	r	n/a
92.5765	0.09	185153	keystroke_o	o	n/a
92.7415	0.105	185483	keystroke_o	o	n/a
92.8615	0.12	185723	keystroke_m	m	n/a
93.0415	0.1345	186083	keystroke_s	s	n/a
93.161	0.135	186322	keystroke_Key.space	Key.space	n/a
93.6865	0.135	187373	keystroke_a	a	n/a
93.881	0.09	187762	keystroke_d	d	n/a
94.0465	0.0595	188093	keystroke_d	d	n/a
94.212	0.0745	188424	keystroke_e	e	n/a
94.391	0.09	188782	keystroke_d	d	n/a
94.511	0.12	189022	keystroke_Key.space	Key.space	n/a
94.7515	0.12	189503	keystroke_a	a	n/a
94.901	0.0905	189802	keystroke_l	l	n/a
95.1115	0.135	190223	keystroke_o	o	n/a
95.2165	0.1495	190433	keystroke_n	n	n/a
95.3365	0.0895	190673	keystroke_g	g	n/a
95.591	0.105	191182	keystroke_Key.enter	Key.enter	n/a
95.703	10.3	191406	prompt	n/a	front urge sandra fioricet\n
96.296	0.0605	192592	keystroke_f	f	n/a
96.462	0.089	192924	keystroke_r	r	n/a
96.552	0.1635	193104	keystroke_o	o	n/a
96.671	0.1195	193342	keystroke_n	n	n/a
96.747	0.09	193494	keystroke_t	t	n/a
96.8515	0.119	193703	keystroke_Key.space	Key.space	n/a
97.136	0.0755	194272	keystroke_u	u	n/a
97.226	0.09	194452	keystroke_r	r	n/a
97.4515	0.06	194903	keystroke_g	g	n/a
97.5415	0.12	195083	keystroke_e	e	n/a
97.736	0.105	195472	keystroke_Key.space	Key.space	n/a
98.0065	0.0745	196013	keystroke_s	s	n/a
98.1715	0.135	196343	keystroke_a	a	n/a
98.9215	0.135	197843	keystroke_n	n	n/a
99.1315	0.1195	198263	keystroke_d	d	n/a
99.2965	0.1195	198593	keystroke_s	s	n/a
99.7915	0.1195	199583	keystroke_Key.backspace	Key.backspace	n/a
99.926	0.12	199852	keystroke_r	r	n/a
100.061	0.06	200122	keystroke_s	s	n/a
100.511	0.0905	201022	keystroke_Key.backspace	Key.backspace	n/a
100.6465	0.105	201293	keystroke_a	a	n/a
101.2915	0.135	202583	keystroke_Key.space	Key.space	n/a
101.486	0.1205	202972	keystroke_f	f	n/a
101.8765	0.1345	203753	keystroke_i	i	n/a
102.1915	0.1045	204383	keystroke_o	o	n/a
102.506	0.0905	205012	keystroke_r	r	n/a
102.761	0.135	205522	keystroke_i	i	n/a
102.956	0.075	205912	keystroke_c	c	n/a
103.182	0.074	206364	keystroke_e	e	n/a
103.4965	0.1045	206993	keystroke_t	t	n/a
105.973	0.028	211946	keystroke_Key.enter	Key.enter	n/a
106.0075	5.68	212015	prompt	n/a	reflect industrial diving self\n
106.6615	0.105	213323	keystroke_r	r	n/a
106.737	0.1045	213474	keystroke_e	e	n/a
106.9615	0.09	213923	keystroke_f	f	n/a
107.1115	0.1345	214223	keystroke_l	l	n/a
107.201	0.06	214402	keystroke_e	e	n/a
107.396	0.0755	214792	keystroke_c	c	n/a
107.606	0.105	215212	keystroke_t	t	n/a
107.756	0.105	215512	keystroke_Key.space	Key.space	n/a
108.056	0.1205	216112	keystroke_i	i	n/a
108.146	0.15	216292	keystroke_n	n	n/a
108.3415	0.074	216683	keystroke_d	d	n/a
108.5215	0.075	217043	keystroke_u	u	n/a
108.6555	0.1205	217311	keystroke_s	s	n/a
108.8065	0.0745	217613	keystroke_t	t	n/a
108.986	0.0755	217972	keystroke_r	r	n/a
109.1065	0.105	218213	keystroke_i	i	n/a
109.2715	0.135	218543	keystroke_a	a	n/a
109.4515	0.135	218903	keystroke_l	l	n/a
109.5715	0.1195	219143	keystroke_Key.space	Key.space	n/a
109.8565	0.075	219713	keystroke_d	d	n/a
110.051	0.105	220102	keystroke_i	i	n/a
110.157	0.0595	220314	keystroke_v	v	n/a
110.3065	0.165	220613	keystroke_i	i	n/a
110.4555	0.1805	220911	keystroke_n	n	n/a
110.6515	0.09	221303	keystroke_g	g	n/a
110.726	0.1195	221452	keystroke_Key.space	Key.space	n/a
110.891	0.135	221782	keystroke_s	s	n/a
111.0405	0.076	222081	keystroke_e	e	n/a
111.2205	0.121	222441	keystroke_l	l	n/a
111.3715	0.105	222743	keystroke_f	f	n/a
111.5965	0.09	223193	keystroke_Key.enter	Key.enter	n/a
111.6915	7.3765	223383	prompt	n/a	duration douglas tiny how'd\n
112.3005	0.09	224601	keystroke_d	d	n/a
112.4805	0.076	224961	keystroke_u	u	n/a
112.571	0.0755	225142	keystroke_r	r	n/a
112.706	0.1805	225412	keystroke_a	a	n/a
112.856	0.1205	225712	keystroke_t	t	n/a
113.0215	0.2995	226043	keystroke_i	i	n/a
113.141	0.195	226282	keystroke_o	o	n/a
113.306	0.165	226612	keystroke_n	n	n/a
113.456	0.105	226912	keystroke_Key.space	Key.space	n/a
113.5915	0.1045	227183	keystroke_d	d	n/a
113.7705	0.196	227541	keystroke_o	o	n/a
113.9215	0.12	227843	keystroke_u	u	n/a
114.1015	0.134	228203	keystroke_g	g	n/a
114.3115	0.105	228623	keystroke_h	h	n/a
115.211	0.09	230422	keystroke_Key.backspace	Key.backspace	n/a
115.4365	0.1345	230873	keystroke_l	l	n/a
115.5565	0.1945	231113	keystroke_a	a	n/a
115.706	0.135	231412	keystroke_s	s	n/a
115.886	0.135	231772	keystroke_Key.space	Key.space	n/a
116.066	0.0905	232132	keystroke_t	t	n/a
116.111	0.165	232222	keystroke_i	i	n/a
116.246	0.15	232492	keystroke_n	n	n/a
116.381	0.0755	232762	keystroke_e	e	n/a
116.831	0.12	233662	keystroke_Key.backspace	Key.backspace	n/a
117.101	0.0905	234202	keystroke_y	y	n/a
117.5055	0.1355	235011	keystroke_Key.space	Key.space	n/a
117.7905	0.105	235581	keystroke_h	h	n/a
117.941	0.15	235882	keystroke_o	o	n/a
118.1065	0.06	236213	keystroke_w	w	n/a
118.3905	0.091	236781	keystroke_'	'	n/a
118.6015	0.075	237203	keystroke_d	d	n/a
118.9615	0.1045	237923	keystroke_Key.enter	Key.enter	n/a
119.073	7.87	238146	prompt	n/a	amount turned significantly donate\n
119.816	0.135	239632	keystroke_a	a	n/a
119.966	0.135	239932	keystroke_m	m	n/a
120.102	0.134	240204	keystroke_o	o	n/a
120.221	0.09	240442	keystroke_u	u	n/a
120.431	0.1045	240862	keystroke_n	n	n/a
120.5055	0.12	241011	keystroke_t	t	n/a
120.6105	0.105	241221	keystroke_Key.space	Key.space	n/a
120.8205	0.09	241641	keystroke_t	t	n/a
121.0305	0.0905	242061	keystroke_u	u	n/a
121.181	0.105	242362	keystroke_r	r	n/a
121.301	0.0905	242602	keystroke_n	n	n/a
121.4065	0.0895	242813	keystroke_e	e	n/a
121.6165	0.0895	243233	keystroke_d	d	n/a
121.721	0.135	243442	keystroke_Key.space	Key.space	n/a
121.901	0.106	243802	keystroke_s	s	n/a
122.111	0.12	244222	keystroke_i	i	n/a
122.2915	0.104	244583	keystroke_g	g	n/a
122.6815	0.194	245363	keystroke_n	n	n/a
122.846	0.105	245692	keystroke_i	i	n/a
123.011	0.09	246022	keystroke_f	f	n/a
123.116	0.09	246232	keystroke_i	i	n/a
123.327	0.0745	246654	keystroke_c	c	n/a
123.4315	0.18	246863	keystroke_a	a	n/a
123.8515	0.195	247703	keystroke_n	n	n/a
124.3165	0.105	248633	keystroke_t	t	n/a
124.7815	0.149	249563	keystroke_l	l	n/a
125.0965	0.014	250193	keystroke_y	y	n/a
125.1255	0.135	250251	keystroke_Key.space	Key.space	n/a
125.321	0.09	250642	keystroke_d	d	n/a
125.5615	0.1645	251123	keystroke_o	o	n/a
125.681	0.1205	251362	keystroke_n	n	n/a
125.786	0.1495	251572	keystroke_a	a	n/a
125.906	0.135	251812	keystroke_t	t	n/a
126.0115	0.105	252023	keystroke_e	e	n/a
126.8655	0.076	253731	keystroke_Key.enter	Key.enter	n/a
126.948	7.18	253896	prompt	n/a	warriors love loan mutual\n
127.436	0.09	254872	keystroke_a	a	n/a
127.826	0.105	255652	keystroke_Key.backspace	Key.backspace	n/a
127.901	0.15	255802	keystroke_w	w	n/a
128.036	0.195	256072	keystroke_a	a	n/a
128.216	0.09	256432	keystroke_r	r	n/a
128.381	0.09	256762	keystroke_r	r	n/a
128.681	0.12	257362	keystroke_i	i	n/a
128.876	0.1205	257752	keystroke_o	o	n/a
128.981	0.1205	257962	keystroke_r	r	n/a
129.1305	0.1655	258261	keystroke_s	s	n/a
129.356	0.135	258712	keystroke_Key.space	Key.space	n/a
129.716	0.075	259432	keystroke_b	b	n/a
130.1505	0.106	260301	keystroke_Key.backspace	Key.backspace	n/a
130.3915	0.089	260783	keystroke_l	l	n/a
130.586	0.1045	261172	keystroke_o	o	n/a
130.706	0.105	261412	keystroke_v	v	n/a
130.7815	0.1495	261563	keystroke_e	e	n/a
130.901	0.1045	261802	keystroke_Key.space	Key.space	n/a
131.3215	0.1045	262643	keystroke_l	l	n/a
131.6065	0.03	263213	keystroke_o	o	n/a
131.6215	0.105	263243	keystroke_a	a	n/a
131.741	0.1055	263482	keystroke_n	n	n/a
131.8905	0.121	263781	keystroke_Key.space	Key.space	n/a
132.5805	0.105	265161	keystroke_m	m	n/a
132.8365	0.075	265673	keystroke_u	u	n/a
132.9565	0.09	265913	keystroke_t	t	n/a
133.0605	0.09	266121	keystroke_u	u	n/a
133.1655	0.136	266331	keystroke_a	a	n/a
133.3465	0.1195	266693	keystroke_l	l	n/a
134.036	0.09	268072	keystroke_Key.enter	Key.enter	n/a
134.1335	7.3295	268267	prompt	n/a	maximize babes occupation lover\n
134.771	0.1495	269542	keystroke_m	m	n/a
134.8765	0.104	269753	keystroke_a	a	n/a
135.131	0.09	270262	keystroke_x	x	n/a
135.281	0.15	270562	keystroke_i	i	n/a
135.416	0.135	270832	keystroke_m	m	n/a
136.436	0.135	272872	keystroke_i	i	n/a
136.541	0.195	273082	keystroke_z	z	n/a
136.706	0.12	273412	keystroke_e	e	n/a
137.1565	0.119	274313	keystroke_Key.space	Key.space	n/a
137.471	0.0745	274942	keystroke_b	b	n/a
137.592	0.164	275184	keystroke_a	a	n/a
137.741	0.075	275482	keystroke_b	b	n/a
137.891	0.135	275782	keystroke_e	e	n/a
137.996	0.105	275992	keystroke_s	s	n/a
138.116	0.105	276232	keystroke_Key.space	Key.space	n/a
138.431	0.1045	276862	keystroke_o	o	n/a
138.566	0.0445	277132	keystroke_c	c	n/a
138.7005	0.075	277401	keystroke_c	c	n/a
138.821	0.0905	277642	keystroke_u	u	n/a
139.211	0.105	278422	keystroke_p	p	n/a
139.331	0.18	278662	keystroke_a	a	n/a
139.466	0.135	278932	keystroke_t	t	n/a
139.602	0.254	279204	keystroke_i	i	n/a
139.706	0.1355	279412	keystroke_o	o	n/a
139.811	0.15	279622	keystroke_n	n	n/a
139.976	0.105	279952	keystroke_Key.space	Key.space	n/a
140.2165	0.104	280433	keystroke_l	l	n/a
140.4405	0.1355	280881	keystroke_o	o	n/a
140.606	0.075	281212	keystroke_v	v	n/a
140.771	0.135	281542	keystroke_e	e	n/a
140.876	0.135	281752	keystroke_r	r	n/a
141.371	0.09	282742	keystroke_Key.enter	Key.enter	n/a
141.467	8.5455	282934	prompt	n/a	thumb nightlife eden earthquake\n
142.152	0.089	284304	keystroke_t	t	n/a
142.242	0.149	284484	keystroke_h	h	n/a
142.496	0.12	284992	keystroke_u	u	n/a
142.751	0.165	285502	keystroke_m	m	n/a
142.9465	0.0895	285893	keystroke_b	b	n/a
143.4255	0.1205	286851	keystroke_Key.space	Key.space	n/a
143.951	0.1205	287902	keystroke_n	n	n/a
144.1155	0.1055	288231	keystroke_i	i	n/a
144.2355	0.0765	288471	keystroke_g	g	n/a
144.341	0.1045	288682	keystroke_h	h	n/a
144.4305	0.1055	288861	keystroke_t	t	n/a
144.6705	0.1805	289341	keystroke_l	l	n/a
144.821	0.1195	289642	keystroke_i	i	n/a
145.001	0.1355	290002	keystroke_f	f	n/a
145.106	0.1205	290212	keystroke_e	e	n/a
145.736	0.1195	291472	keystroke_Key.space	Key.space	n/a
145.8555	0.075	291711	keystroke_e	e	n/a
146.0505	0.06	292101	keystroke_d	d	n/a
146.2615	0.074	292523	keystroke_e	e	n/a
146.411	0.12	292822	keystroke_n	n	n/a
146.8755	0.1205	293751	keystroke_Key.space	Key.space	n/a
147.191	0.0895	294382	keystroke_e	e	n/a
147.3265	0.1645	294653	keystroke_a	a	n/a
147.461	0.0895	294922	keystroke_r	r	n/a
147.656	0.12	295312	keystroke_t	t	n/a
147.8205	0.105	295641	keystroke_h	h	n/a
148.2405	0.135	296481	keystroke_q	q	n/a
148.406	0.075	296812	keystroke_u	u	n/a
148.5415	0.164	297083	keystroke_a	a	n/a
148.766	0.1655	297532	keystroke_k	k	n/a
148.8865	0.105	297773	keystroke_e	e	n/a
149.921	0.09	299842	keystroke_Key.enter	Key.enter	n/a
150.017	8.1855	300034	prompt	n/a	soldiers plane compete trackback\n
150.6865	0.09	301373	keystroke_s	s	n/a
150.821	0.1045	301642	keystroke_o	o	n/a
151.031	0.15	302062	keystroke_l	l	n/a
151.2405	0.09	302481	keystroke_d	d	n/a
151.391	0.1045	302782	keystroke_i	i	n/a
151.5855	0.165	303171	keystroke_e	e	n/a
151.7355	0.106	303471	keystroke_r	r	n/a
152.0205	0.09	304041	keystroke_s	s	n/a
152.351	0.075	304702	keystroke_Key.space	Key.space	n/a
152.8765	0.134	305753	keystroke_p	p	n/a
153.026	0.1345	306052	keystroke_l	l	n/a
153.1455	0.1205	306291	keystroke_a	a	n/a
153.3255	0.12	306651	keystroke_n	n	n/a
153.581	0.0895	307162	keystroke_e	e	n/a
153.7305	0.1205	307461	keystroke_Key.space	Key.space	n/a
154.181	0.1045	308362	keystroke_c	c	n/a
154.2705	0.196	308541	keystroke_o	o	n/a
154.3915	0.1945	308783	keystroke_m	m	n/a
154.541	0.135	309082	keystroke_p	p	n/a
154.826	0.12	309652	keystroke_e	e	n/a
154.916	0.135	309832	keystroke_t	t	n/a
155.051	0.0895	310102	keystroke_e	e	n/a
155.606	0.09	311212	keystroke_Key.space	Key.space	n/a
155.996	0.06	311992	keystroke_t	t	n/a
156.1605	0.105	312321	keystroke_r	r	n/a
156.2805	0.106	312561	keystroke_a	a	n/a
156.4305	0.0905	312861	keystroke_c	c	n/a
156.551	0.135	313102	keystroke_k	k	n/a
156.776	0.06	313552	keystroke_b	b	n/a
156.896	0.15	313792	keystroke_a	a	n/a
157.691	0.0905	315382	keystroke_c	c	n/a
157.826	0.1205	315652	keystroke_k	k	n/a
158.1105	0.09	316221	keystroke_Key.enter	Key.enter	n/a
158.2065	12.851	316413	prompt	n/a	kate statutory medicare prices\n
158.8155	0.105	317631	keystroke_k	k	n/a
159.0415	0.135	318083	keystroke_a	a	n/a
159.1305	0.1355	318261	keystroke_t	t	n/a
159.2355	0.1205	318471	keystroke_e	e	n/a
159.4005	0.105	318801	keystroke_Key.space	Key.space	n/a
159.6405	0.06	319281	keystroke_s	s	n/a
159.7455	0.105	319491	keystroke_t	t	n/a
159.9855	0.18	319971	keystroke_a	a	n/a
160.151	0.1195	320302	keystroke_t	t	n/a
160.3155	0.09	320631	keystroke_u	u	n/a
160.4505	0.091	320901	keystroke_r	r	n/a
160.811	0.1195	321622	keystroke_o	o	n/a
160.946	0.1055	321892	keystroke_r	r	n/a
161.1255	0.0905	322251	keystroke_y	y	n/a
161.756	0.104	323512	keystroke_Key.backspace	Key.backspace	n/a
161.981	0.06	323962	keystroke_Key.backspace	Key.backspace	n/a
162.116	0.09	324232	keystroke_Key.backspace	Key.backspace	n/a
162.311	0.045	324622	keystroke_Key.backspace	Key.backspace	n/a
163.6905	0.105	327381	keystroke_t	t	n/a
163.871	0.1045	327742	keystroke_o	o	n/a
163.9905	0.075	327981	keystroke_r	r	n/a
164.2755	0.075	328551	keystroke_y	y	n/a
165.296	0.1495	330592	keystroke_Key.space	Key.space	n/a
165.626	0.1795	331252	keystroke_m	m	n/a
165.746	0.075	331492	keystroke_e	e	n/a
165.9255	0.06	331851	keystroke_d	d	n/a
166.001	0.1495	332002	keystroke_i	i	n/a
166.181	0.059	332362	keystroke_c	c	n/a
166.316	0.165	332632	keystroke_a	a	n/a
166.4655	0.1055	332931	keystroke_r	r	n/a
166.7505	0.0905	333501	keystroke_e	e	n/a
167.111	0.1195	334222	keystroke_Key.space	Key.space	n/a
167.621	0.045	335242	keystroke_;	;	n/a
167.651	0.06	335302	keystroke_p	p	n/a
167.696	0.09	335392	keystroke_r	r	n/a
167.861	0.105	335722	keystroke_i	i	n/a
167.981	0.06	335962	keystroke_c	c	n/a
168.146	0.09	336292	keystroke_e	e	n/a
168.5355	0.09	337071	keystroke_Key.backspace	Key.backspace	n/a
168.701	0.09	337402	keystroke_Key.backspace	Key.backspace	n/a
168.866	0.0755	337732	keystroke_Key.backspace	Key.backspace	n/a
169.016	0.0745	338032	keystroke_Key.backspace	Key.backspace	n/a
169.18	0.1055	338360	keystroke_Key.backspace	Key.backspace	n/a
169.691	0.09	339382	keystroke_Key.backspace	Key.backspace	n/a
169.9755	0.105	339951	keystroke_p	p	n/a
170.0955	0.061	340191	keystroke_r	r	n/a
170.2155	0.09	340431	keystroke_i	i	n/a
170.336	0.0595	340672	keystroke_c	c	n/a
170.531	0.1195	341062	keystroke_e	e	n/a
170.6055	0.105	341211	keystroke_s	s	n/a
170.981	0.0745	341962	keystroke_Key.enter	Key.enter	n/a
171.065	8.0925	342130	prompt	n/a	thanksgiving moved right common\n
171.686	0.09	343372	keystroke_t	t	n/a
171.761	0.075	343522	keystroke_h	h	n/a
171.851	0.12	343702	keystroke_a	a	n/a
171.956	0.165	343912	keystroke_n	n	n/a
172.106	0.09	344212	keystroke_s	s	n/a
172.751	0.105	345502	keystroke_Key.backspace	Key.backspace	n/a
172.9315	0.134	345863	keystroke_k	k	n/a
173.5605	0.105	347121	keystroke_s	s	n/a
173.861	0.09	347722	keystroke_g	g	n/a
173.9955	0.076	347991	keystroke_i	i	n/a
174.1155	0.075	348231	keystroke_v	v	n/a
174.205	0.136	348410	keystroke_i	i	n/a
174.326	0.1345	348652	keystroke_n	n	n/a
174.505	0.106	349010	keystroke_g	g	n/a
174.971	0.09	349942	keystroke_Key.space	Key.space	n/a
175.256	0.15	350512	keystroke_m	m	n/a
175.376	0.12	350752	keystroke_o	o	n/a
175.526	0.0895	351052	keystroke_v	v	n/a
175.6605	0.0905	351321	keystroke_e	e	n/a
175.8705	0.076	351741	keystroke_d	d	n/a
176.2305	0.0895	352461	keystroke_Key.space	Key.space	n/a
176.6205	0.105	353241	keystroke_r	r	n/a
176.8155	0.1055	353631	keystroke_i	i	n/a
176.9505	0.06	353901	keystroke_g	g	n/a
177.0855	0.105	354171	keystroke_h	h	n/a
177.2055	0.09	354411	keystroke_t	t	n/a
177.821	0.1045	355642	keystroke_Key.space	Key.space	n/a
178.1205	0.0755	356241	keystroke_c	c	n/a
178.181	0.1345	356362	keystroke_o	o	n/a
178.2855	0.075	356571	keystroke_m	m	n/a
178.436	0.075	356872	keystroke_m	m	n/a
178.676	0.165	357352	keystroke_o	o	n/a
178.811	0.12	357622	keystroke_n	n	n/a
179.0805	0.075	358161	keystroke_Key.enter	Key.enter	n/a
179.162	10.781	358324	prompt	n/a	hindu so're santa pending\n
179.6955	0.06	359391	keystroke_t	t	n/a
180.0705	0.09	360141	keystroke_Key.backspace	Key.backspace	n/a
180.311	0.0745	360622	keystroke_h	h	n/a
180.5055	0.075	361011	keystroke_u	u	n/a
180.7155	0.105	361431	keystroke_n	n	n/a
181.481	0.06	362962	keystroke_Key.backspace	Key.backspace	n/a
181.631	0.0895	363262	keystroke_Key.backspace	Key.backspace	n/a
181.826	0.135	363652	keystroke_i	i	n/a
181.9455	0.1055	363891	keystroke_n	n	n/a
182.081	0.075	364162	keystroke_d	d	n/a
182.291	0.06	364582	keystroke_u	u	n/a
182.8155	0.1195	365631	keystroke_Key.space	Key.space	n/a
183.101	0.09	366202	keystroke_s	s	n/a
183.2505	0.12	366501	keystroke_o	o	n/a
183.686	0.1055	367372	keystroke_'	'	n/a
184.1655	0.1345	368331	keystroke_r	r	n/a
184.2555	0.1055	368511	keystroke_e	e	n/a
185.4255	0.045	370851	keystroke_Key.space	Key.space	n/a
186.0705	0.105	372141	keystroke_s	s	n/a
186.2055	0.1505	372411	keystroke_a	a	n/a
186.2955	0.106	372591	keystroke_n	n	n/a
186.431	0.09	372862	keystroke_t	t	n/a
186.536	0.15	373072	keystroke_a	a	n/a
186.971	0.12	373942	keystroke_Key.space	Key.space	n/a
187.3905	0.09	374781	keystroke_p	p	n/a
187.5115	0.0745	375023	keystroke_e	e	n/a
187.6155	0.1205	375231	keystroke_n	n	n/a
187.7205	0.075	375441	keystroke_d	d	n/a
187.931	0.075	375862	keystroke_e	e	n/a
188.3655	0.12	376731	keystroke_Key.backspace	Key.backspace	n/a
188.5605	0.0455	377121	keystroke_i	i	n/a
189.491	0.1045	378982	keystroke_n	n	n/a
189.641	0.09	379282	keystroke_g	g	n/a
189.8355	0.1045	379671	keystroke_Key.enter	Key.enter	n/a
189.9475	9.88	379895	prompt	n/a	instruction scroll streets though\n
190.571	0.104	381142	keystroke_i	i	n/a
190.676	0.104	381352	keystroke_n	n	n/a
190.81	0.135	381620	keystroke_s	s	n/a
190.93	0.0755	381860	keystroke_t	t	n/a
191.096	0.089	382192	keystroke_r	r	n/a
191.201	0.0895	382402	keystroke_u	u	n/a
191.336	0.09	382672	keystroke_c	c	n/a
191.486	0.105	382972	keystroke_t	t	n/a
191.591	0.27	383182	keystroke_i	i	n/a
191.696	0.165	383392	keystroke_o	o	n/a
191.816	0.15	383632	keystroke_n	n	n/a
192.1305	0.1045	384261	keystroke_Key.space	Key.space	n/a
192.596	0.075	385192	keystroke_s	s	n/a
192.82	0.061	385640	keystroke_c	c	n/a
193.001	0.06	386002	keystroke_r	r	n/a
193.0455	0.09	386091	keystroke_o	o	n/a
193.226	0.089	386452	keystroke_o	o	n/a
193.735	0.075	387470	keystroke_Key.backspace	Key.backspace	n/a
193.976	0.09	387952	keystroke_l	l	n/a
194.186	0.105	388372	keystroke_l	l	n/a
194.666	0.12	389332	keystroke_Key.space	Key.space	n/a
194.936	0.104	389872	keystroke_s	s	n/a
195.071	0.105	390142	keystroke_t	t	n/a
195.265	0.166	390530	keystroke_r	r	n/a
195.415	0.105	390830	keystroke_e	e	n/a
196.121	0.075	392242	keystroke_e	e	n/a
196.286	0.0595	392572	keystroke_e	e	n/a
196.916	0.089	393832	keystroke_Key.backspace	Key.backspace	n/a
197.036	0.074	394072	keystroke_t	t	n/a
197.171	0.075	394342	keystroke_s	s	n/a
197.5455	0.105	395091	keystroke_Key.space	Key.space	n/a
197.876	0.09	395752	keystroke_t	t	n/a
197.981	0.104	395962	keystroke_h	h	n/a
198.926	0.149	397852	keystroke_o	o	n/a
199.06	0.09	398120	keystroke_u	u	n/a
199.196	0.09	398392	keystroke_g	g	n/a
199.316	0.075	398632	keystroke_h	h	n/a
199.75	0.076	399500	keystroke_Key.enter	Key.enter	n/a
199.8315	7.856	399663	prompt	n/a	treating feed apply technologies\n
200.4855	0.075	400971	keystroke_t	t	n/a
200.6955	0.12	401391	keystroke_r	r	n/a
200.771	0.1205	401542	keystroke_e	e	n/a
200.8455	0.165	401691	keystroke_a	a	n/a
200.9665	0.1185	401933	keystroke_t	t	n/a
201.071	0.1045	402142	keystroke_i	i	n/a
201.146	0.135	402292	keystroke_n	n	n/a
201.311	0.1195	402622	keystroke_g	g	n/a
201.401	0.135	402802	keystroke_Key.space	Key.space	n/a
201.595	0.091	403190	keystroke_f	f	n/a
201.776	0.06	403552	keystroke_e	e	n/a
201.911	0.06	403822	keystroke_e	e	n/a
202.121	0.06	404242	keystroke_d	d	n/a
202.196	0.12	404392	keystroke_Key.space	Key.space	n/a
202.5855	0.1055	405171	keystroke_a	a	n/a
202.721	0.06	405442	keystroke_p	p	n/a
202.856	0.09	405712	keystroke_p	p	n/a
203.036	0.135	406072	keystroke_l	l	n/a
203.231	0.105	406462	keystroke_y	y	n/a
203.321	0.135	406642	keystroke_Key.space	Key.space	n/a
203.711	0.105	407422	keystroke_t	t	n/a
203.846	0.06	407692	keystroke_e	e	n/a
204.416	0.105	408832	keystroke_c	c	n/a
204.611	0.104	409222	keystroke_h	h	n/a
204.881	0.135	409762	keystroke_n	n	n/a
205.0605	0.12	410121	keystroke_o	o	n/a
205.3305	0.105	410661	keystroke_l	l	n/a
205.5555	0.0905	411111	keystroke_o	o	n/a
205.691	0.0745	411382	keystroke_g	g	n/a
205.8255	0.135	411651	keystroke_i	i	n/a
205.9755	0.12	411951	keystroke_e	e	n/a
206.0505	0.12	412101	keystroke_s	s	n/a
207.581	0.105	415162	keystroke_Key.enter	Key.enter	n/a
207.692	7.2255	415384	prompt	n/a	pages protecting reliable trees\n
208.3605	0.0905	416721	keystroke_p	p	n/a
208.4355	0.1505	416871	keystroke_a	a	n/a
208.571	0.12	417142	keystroke_g	g	n/a
208.676	0.15	417352	keystroke_e	e	n/a
208.781	0.12	417562	keystroke_s	s	n/a
208.856	0.165	417712	keystroke_Key.space	Key.space	n/a
209.0955	0.105	418191	keystroke_p	p	n/a
209.2015	0.074	418403	keystroke_r	r	n/a
209.2905	0.135	418581	keystroke_o	o	n/a
209.4855	0.105	418971	keystroke_t	t	n/a
209.6355	0.075	419271	keystroke_e	e	n/a
209.846	0.075	419692	keystroke_c	c	n/a
210.085	0.1205	420170	keystroke_t	t	n/a
210.221	0.149	420442	keystroke_i	i	n/a
210.3555	0.1345	420711	keystroke_n	n	n/a
210.5355	0.1495	421071	keystroke_g	g	n/a
211.105	0.1505	422210	keystroke_Key.space	Key.space	n/a
211.3005	0.105	422601	keystroke_r	r	n/a
211.3755	0.12	422751	keystroke_e	e	n/a
211.5405	0.1805	423081	keystroke_l	l	n/a
211.6905	0.135	423381	keystroke_i	i	n/a
211.946	0.105	423892	keystroke_a	a	n/a
212.411	0.09	424822	keystroke_b	b	n/a
212.6205	0.12	425241	keystroke_l	l	n/a
212.7255	0.105	425451	keystroke_e	e	n/a
213.3405	0.12	426681	keystroke_Key.space	Key.space	n/a
213.5655	0.06	427131	keystroke_t	t	n/a
213.746	0.1195	427492	keystroke_r	r	n/a
213.8355	0.1055	427671	keystroke_e	e	n/a
214.196	0.09	428392	keystroke_e	e	n/a
214.511	0.075	429022	keystroke_s	s	n/a
214.826	0.0895	429652	keystroke_Key.enter	Key.enter	n/a
214.922	5.0655	429844	prompt	n/a	fiber plant worth rover\n
215.561	0.09	431122	keystroke_f	f	n/a
215.711	0.09	431422	keystroke_i	i	n/a
215.816	0.075	431632	keystroke_b	b	n/a
215.981	0.105	431962	keystroke_e	e	n/a
216.041	0.165	432082	keystroke_r	r	n/a
216.191	0.104	432382	keystroke_Key.space	Key.space	n/a
216.536	0.134	433072	keystroke_p	p	n/a
216.685	0.135	433370	keystroke_l	l	n/a
216.8055	0.135	433611	keystroke_a	a	n/a
216.955	0.136	433910	keystroke_n	n	n/a
217.061	0.104	434122	keystroke_Key.space	Key.space	n/a
217.51	0.105	435020	keystroke_Key.backspace	Key.backspace	n/a
217.661	0.119	435322	keystroke_t	t	n/a
217.795	0.106	435590	keystroke_Key.space	Key.space	n/a
218.201	0.089	436402	keystroke_w	w	n/a
218.275	0.106	436550	keystroke_o	o	n/a
218.41	0.0905	436820	keystroke_r	r	n/a
218.6655	0.09	437331	keystroke_t	t	n/a
218.8155	0.0905	437631	keystroke_h	h	n/a
218.906	0.1195	437812	keystroke_Key.space	Key.space	n/a
219.1305	0.06	438261	keystroke_r	r	n/a
219.16	0.135	438320	keystroke_o	o	n/a
219.3705	0.0745	438741	keystroke_v	v	n/a
219.49	0.135	438980	keystroke_e	e	n/a
219.596	0.09	439192	keystroke_r	r	n/a
219.8955	0.0905	439791	keystroke_Key.enter	Key.enter	n/a
219.9915	11.621	439983	prompt	n/a	functional raise brunswick everywhere\n
220.631	0.1195	441262	keystroke_f	f	n/a
220.7955	0.075	441591	keystroke_u	u	n/a
220.9905	0.1505	441981	keystroke_n	n	n/a
221.1105	0.1195	442221	keystroke_c	c	n/a
221.29	0.1055	442580	keystroke_t	t	n/a
221.3505	0.195	442701	keystroke_i	i	n/a
221.471	0.134	442942	keystroke_o	o	n/a
221.5605	0.1345	443121	keystroke_n	n	n/a
221.6205	0.1045	443241	keystroke_a	a	n/a
221.8605	0.165	443721	keystroke_l	l	n/a
222.2055	0.1205	444411	keystroke_Key.space	Key.space	n/a
222.5365	0.074	445073	keystroke_r	r	n/a
222.8355	0.105	445671	keystroke_a	a	n/a
223.121	0.075	446242	keystroke_s	s	n/a
223.8705	0.09	447741	keystroke_Key.backspace	Key.backspace	n/a
224.0355	0.09	448071	keystroke_i	i	n/a
224.1255	0.09	448251	keystroke_s	s	n/a
224.3205	0.09	448641	keystroke_e	e	n/a
224.635	0.09	449270	keystroke_Key.space	Key.space	n/a
225.086	0.0745	450172	keystroke_b	b	n/a
225.2655	0.075	450531	keystroke_u	u	n/a
225.3555	0.06	450711	keystroke_r	r	n/a
225.475	0.1205	450950	keystroke_n	n	n/a
225.626	0.074	451252	keystroke_s	s	n/a
226.3005	0.0595	452601	keystroke_Key.backspace	Key.backspace	n/a
226.45	0.075	452900	keystroke_Key.backspace	Key.backspace	n/a
226.6005	0.075	453201	keystroke_Key.backspace	Key.backspace	n/a
226.75	0.09	453500	keystroke_Key.backspace	Key.backspace	n/a
226.8855	0.075	453771	keystroke_r	r	n/a
227.0355	0.09	454071	keystroke_u	u	n/a
227.2905	0.105	454581	keystroke_n	n	n/a
227.501	0.1045	455002	keystroke_s	s	n/a
227.7705	0.105	455541	keystroke_w	w	n/a
227.9805	0.105	455961	keystroke_i	i	n/a
228.1755	0.09	456351	keystroke_c	c	n/a
228.3855	0.1055	456771	keystroke_k	k	n/a
228.6255	0.12	457251	keystroke_Key.space	Key.space	n/a
228.821	0.0745	457642	keystroke_e	e	n/a
229.211	0.0595	458422	keystroke_v	v	n/a
229.3305	0.135	458661	keystroke_e	e	n/a
229.4355	0.135	458871	keystroke_r	r	n/a
229.6305	0.105	459261	keystroke_y	y	n/a
230.1705	0.105	460341	keystroke_w	w	n/a
230.3205	0.075	460641	keystroke_h	h	n/a
230.3805	0.165	460761	keystroke_e	e	n/a
230.4855	0.166	460971	keystroke_r	r	n/a
230.6205	0.105	461241	keystroke_e	e	n/a
231.52	0.0905	463040	keystroke_Key.enter	Key.enter	n/a
231.617	8.8605	463234	prompt	n/a	equal everybody fleece aberdeen\n
232.4955	0.0445	464991	keystroke_e	e	n/a
232.63	0.1205	465260	keystroke_q	q	n/a
232.81	0.061	465620	keystroke_u	u	n/a
232.915	0.136	465830	keystroke_a	a	n/a
233.0955	0.135	466191	keystroke_l	l	n/a
233.4105	0.09	466821	keystroke_Key.space	Key.space	n/a
234.0705	0.075	468141	keystroke_e	e	n/a
234.2805	0.0605	468561	keystroke_v	v	n/a
234.3555	0.135	468711	keystroke_e	e	n/a
234.4755	0.105	468951	keystroke_r	r	n/a
234.6395	0.1065	469279	keystroke_y	y	n/a
235.2255	0.075	470451	keystroke_b	b	n/a
235.3605	0.12	470721	keystroke_o	o	n/a
235.5255	0.105	471051	keystroke_d	d	n/a
235.676	0.089	471352	keystroke_y	y	n/a
235.7805	0.105	471561	keystroke_Key.space	Key.space	n/a
236.365	0.09	472730	keystroke_f	f	n/a
236.501	0.1495	473002	keystroke_l	l	n/a
236.6655	0.0745	473331	keystroke_e	e	n/a
236.83	0.105	473660	keystroke_e	e	n/a
237.2955	0.06	474591	keystroke_c	c	n/a
237.5205	0.06	475041	keystroke_e	e	n/a
237.5955	0.12	475191	keystroke_Key.space	Key.space	n/a
238.016	0.134	476032	keystroke_a	a	n/a
238.33	0.061	476660	keystroke_b	b	n/a
238.541	0.1345	477082	keystroke_e	e	n/a
238.63	0.091	477260	keystroke_r	r	n/a
238.9755	0.075	477951	keystroke_d	d	n/a
239.201	0.059	478402	keystroke_e	e	n/a
239.335	0.09	478670	keystroke_e	e	n/a
239.5155	0.0745	479031	keystroke_n	n	n/a
240.4005	0.075	480801	keystroke_Key.enter	Key.enter	n/a
240.4815	10.4205	480963	prompt	n/a	chamber permitted diameter missile\n
241.1205	0.09	482241	keystroke_c	c	n/a
241.2405	0.09	482481	keystroke_h	h	n/a
241.346	0.135	482692	keystroke_a	a	n/a
241.826	0.1645	483652	keystroke_m	m	n/a
242.231	0.06	484462	keystroke_b	b	n/a
242.381	0.149	484762	keystroke_e	e	n/a
242.501	0.105	485002	keystroke_r	r	n/a
242.62	0.0905	485240	keystroke_Key.space	Key.space	n/a
243.041	0.0295	486082	keystroke_[	[	n/a
243.1305	0.09	486261	keystroke_e	e	n/a
243.175	0.135	486350	keystroke_r	r	n/a
243.835	0.09	487670	keystroke_Key.backspace	Key.backspace	n/a
244	0.09	488000	keystroke_Key.backspace	Key.backspace	n/a
244.165	0.105	488330	keystroke_Key.backspace	Key.backspace	n/a
245.411	0.104	490822	keystroke_p	p	n/a
245.53	0.136	491060	keystroke_e	e	n/a
245.62	0.105	491240	keystroke_r	r	n/a
245.771	0.1495	491542	keystroke_m	m	n/a
245.8905	0.135	491781	keystroke_i	i	n/a
246.0855	0.0755	492171	keystroke_t	t	n/a
246.2355	0.09	492471	keystroke_t	t	n/a
246.5805	0.0595	493161	keystroke_e	e	n/a
246.761	0.1045	493522	keystroke_d	d	n/a
246.925	0.105	493850	keystroke_Key.space	Key.space	n/a
247.1955	0.0745	494391	keystroke_d	d	n/a
247.361	0.104	494722	keystroke_i	i	n/a
247.511	0.12	495022	keystroke_a	a	n/a
247.646	0.105	495292	keystroke_m	m	n/a
247.796	0.165	495592	keystroke_e	e	n/a
248.0355	0.1045	496071	keystroke_t	t	n/a
248.245	0.195	496490	keystroke_e	e	n/a
248.65	0.076	497300	keystroke_r	r	n/a
249.04	0.0905	498080	keystroke_Key.space	Key.space	n/a
249.3255	0.165	498651	keystroke_m	m	n/a
249.4455	0.105	498891	keystroke_i	i	n/a
249.6105	0.03	499221	keystroke_s	s	n/a
249.746	0.0895	499492	keystroke_s	s	n/a
250.045	0.091	500090	keystroke_i	i	n/a
250.315	0.1055	500630	keystroke_l	l	n/a
250.4505	0.09	500901	keystroke_e	e	n/a
250.7955	0.1045	501591	keystroke_Key.enter	Key.enter	n/a
250.905	9.477	501810	prompt	n/a	incorrect stays maldives trivia\n
251.6655	0.15	503331	keystroke_i	i	n/a
251.8005	0.12	503601	keystroke_n	n	n/a
251.9955	0.105	503991	keystroke_c	c	n/a
252.4005	0.12	504801	keystroke_o	o	n/a
252.6405	0.09	505281	keystroke_r	r	n/a
252.8355	0.075	505671	keystroke_r	r	n/a
253.045	0.0755	506090	keystroke_e	e	n/a
253.2705	0.06	506541	keystroke_c	c	n/a
253.5105	0.075	507021	keystroke_t	t	n/a
253.675	0.09	507350	keystroke_Key.space	Key.space	n/a
253.8855	0.0755	507771	keystroke_s	s	n/a
254.245	0.06	508490	keystroke_t	t	n/a
254.411	0.1195	508822	keystroke_a	a	n/a
254.6505	0.06	509301	keystroke_y	y	n/a
254.7855	0.1195	509571	keystroke_s	s	n/a
254.921	0.134	509842	keystroke_Key.space	Key.space	n/a
255.205	0.106	510410	keystroke_m	m	n/a
255.356	0.135	510712	keystroke_a	a	n/a
255.656	0.135	511312	keystroke_l	l	n/a
257.0805	0.09	514161	keystroke_d	d	n/a
257.471	0.074	514942	keystroke_i	i	n/a
257.62	0.06	515240	keystroke_v	v	n/a
257.755	0.1955	515510	keystroke_e	e	n/a
257.891	0.1495	515782	keystroke_s	s	n/a
258.0855	0.12	516171	keystroke_Key.space	Key.space	n/a
258.2655	0.075	516531	keystroke_t	t	n/a
258.4605	0.09	516921	keystroke_r	r	n/a
258.91	0.09	517820	keystroke_i	i	n/a
259.091	0.075	518182	keystroke_v	v	n/a
259.2405	0.105	518481	keystroke_i	i	n/a
259.391	0.135	518782	keystroke_a	a	n/a
260.26	0.1205	520520	keystroke_Key.enter	Key.enter	n/a
260.3865	11.291	520773	prompt	n/a	notices basketball owned barbara\n
261.0855	0.1195	522171	keystroke_n	n	n/a
261.265	0.12	522530	keystroke_o	o	n/a
261.46	0.105	522920	keystroke_t	t	n/a
261.6105	0.105	523221	keystroke_i	i	n/a
261.7605	0.09	523521	keystroke_c	c	n/a
262.0005	0.1205	524001	keystroke_e	e	n/a
262.2855	0.12	524571	keystroke_s	s	n/a
262.5405	0.135	525081	keystroke_Key.space	Key.space	n/a
263.0055	0.0605	526011	keystroke_b	b	n/a
263.1255	0.1345	526251	keystroke_a	a	n/a
263.38	0.0305	526760	keystroke_c	c	n/a
263.786	0.0895	527572	keystroke_Key.backspace	Key.backspace	n/a
263.935	0.075	527870	keystroke_s	s	n/a
264.04	0.106	528080	keystroke_k	k	n/a
264.22	0.1805	528440	keystroke_e	e	n/a
264.4155	0.09	528831	keystroke_t	t	n/a
264.8205	0.06	529641	keystroke_b	b	n/a
264.9405	0.135	529881	keystroke_a	a	n/a
265.091	0.09	530182	keystroke_l	l	n/a
265.27	0.09	530540	keystroke_l	l	n/a
265.33	0.105	530660	keystroke_Key.space	Key.space	n/a
265.496	0.105	530992	keystroke_o	o	n/a
265.601	0.1195	531202	keystroke_w	w	n/a
265.7805	0.12	531561	keystroke_n	n	n/a
265.8705	0.105	531741	keystroke_e	e	n/a
266.1105	0.106	532221	keystroke_d	d	n/a
266.2755	0.12	532551	keystroke_Key.space	Key.space	n/a
266.516	0.0895	533032	keystroke_b	b	n/a
266.6505	0.195	533301	keystroke_a	a	n/a
266.8155	0.045	533631	keystroke_g	g	n/a
266.8755	0.075	533751	keystroke_a	a	n/a
267.5805	0.075	535161	keystroke_Key.backspace	Key.backspace	n/a
267.7305	0.105	535461	keystroke_Key.backspace	Key.backspace	n/a
267.851	0.1045	535702	keystroke_r	r	n/a
269.7105	0.1055	539421	keystroke_b	b	n/a
270.701	0.1495	541402	keystroke_a	a	n/a
270.865	0.105	541730	keystroke_r	r	n/a
270.986	0.1195	541972	keystroke_a	a	n/a
271.585	0.09	543170	keystroke_Key.enter	Key.enter	n/a
271.6845	6.2325	543369	prompt	n/a	enhancements impacts chad hans\n
272.231	0.075	544462	keystroke_e	e	n/a
272.335	0.1055	544670	keystroke_n	n	n/a
272.6205	0.075	545241	keystroke_h	h	n/a
272.7255	0.12	545451	keystroke_a	a	n/a
272.8455	0.105	545691	keystroke_n	n	n/a
272.9955	0.06	545991	keystroke_c	c	n/a
273.175	0.076	546350	keystroke_e	e	n/a
273.3105	0.075	546621	keystroke_m	m	n/a
273.4005	0.09	546801	keystroke_e	e	n/a
273.5355	0.09	547071	keystroke_n	n	n/a
273.6105	0.09	547221	keystroke_t	t	n/a
273.8505	0.105	547701	keystroke_s	s	n/a
273.9855	0.12	547971	keystroke_Key.space	Key.space	n/a
274.2405	0.1055	548481	keystroke_i	i	n/a
274.3305	0.21	548661	keystroke_m	m	n/a
274.5105	0.1205	549021	keystroke_p	p	n/a
274.6755	0.105	549351	keystroke_a	a	n/a
274.8855	0.045	549771	keystroke_c	c	n/a
275.0645	0.091	550129	keystroke_t	t	n/a
275.216	0.1045	550432	keystroke_s	s	n/a
275.305	0.105	550610	keystroke_Key.space	Key.space	n/a
275.53	0.091	551060	keystroke_c	c	n/a
275.725	0.061	551450	keystroke_h	h	n/a
275.771	0.165	551542	keystroke_a	a	n/a
275.965	0.09	551930	keystroke_d	d	n/a
276.1	0.1205	552200	keystroke_Key.space	Key.space	n/a
276.9255	0.09	553851	keystroke_h	h	n/a
277.0605	0.1355	554121	keystroke_a	a	n/a
277.1505	0.105	554301	keystroke_n	n	n/a
277.361	0.1045	554722	keystroke_s	s	n/a
277.8255	0.089	555651	keystroke_Key.enter	Key.enter	n/a
277.922	7.42	555844	prompt	n/a	jpeg grace treatment specify\n
278.74	0.165	557480	keystroke_j	j	n/a
279.0555	0.1195	558111	keystroke_p	p	n/a
279.2205	0.075	558441	keystroke_e	e	n/a
279.431	0.06	558862	keystroke_c	c	n/a
279.8055	0.1195	559611	keystroke_Key.backspace	Key.backspace	n/a
279.94	0.105	559880	keystroke_g	g	n/a
280.0605	0.1195	560121	keystroke_Key.space	Key.space	n/a
280.315	0.091	560630	keystroke_g	g	n/a
280.526	0.1195	561052	keystroke_r	r	n/a
280.6605	0.135	561321	keystroke_a	a	n/a
280.8555	0.09	561711	keystroke_c	c	n/a
281.0355	0.12	562071	keystroke_e	e	n/a
281.1405	0.105	562281	keystroke_Key.space	Key.space	n/a
281.2755	0.105	562551	keystroke_t	t	n/a
281.4705	0.12	562941	keystroke_r	r	n/a
281.5455	0.12	563091	keystroke_e	e	n/a
281.6205	0.165	563241	keystroke_a	a	n/a
281.7255	0.12	563451	keystroke_t	t	n/a
281.9055	0.075	563811	keystroke_m	m	n/a
282.011	0.1045	564022	keystroke_e	e	n/a
282.1305	0.075	564261	keystroke_n	n	n/a
282.2055	0.1355	564411	keystroke_t	t	n/a
282.3705	0.105	564741	keystroke_Key.space	Key.space	n/a
282.6255	0.09	565251	keystroke_s	s	n/a
282.7305	0.09	565461	keystroke_p	p	n/a
282.8205	0.09	565641	keystroke_e	e	n/a
283.0155	0.09	566031	keystroke_c	c	n/a
283.181	0.0895	566362	keystroke_i	i	n/a
283.2555	0.0895	566511	keystroke_f	f	n/a
283.376	0.0895	566752	keystroke_i	i	n/a
284.1545	0.106	568309	keystroke_Key.backspace	Key.backspace	n/a
284.4105	0.09	568821	keystroke_y	y	n/a
285.265	0.075	570530	keystroke_Key.enter	Key.enter	n/a
285.346	8.396	570692	prompt	n/a	horrible combines filters scenario\n
286	0.1205	572000	keystroke_h	h	n/a
286.1505	0.1205	572301	keystroke_o	o	n/a
286.2555	0.075	572511	keystroke_r	r	n/a
286.4055	0.0895	572811	keystroke_r	r	n/a
286.5105	0.0755	573021	keystroke_i	i	n/a
286.6605	0.075	573321	keystroke_b	b	n/a
286.8555	0.12	573711	keystroke_l	l	n/a
286.9605	0.105	573921	keystroke_e	e	n/a
287.0345	0.166	574069	keystroke_Key.space	Key.space	n/a
287.5455	0.09	575091	keystroke_c	c	n/a
287.5905	0.195	575181	keystroke_o	o	n/a
287.6955	0.18	575391	keystroke_m	m	n/a
287.8305	0.24	575661	keystroke_p	p	n/a
288.5205	0.089	577041	keystroke_Key.backspace	Key.backspace	n/a
288.6255	0.075	577251	keystroke_b	b	n/a
288.7455	0.12	577491	keystroke_i	i	n/a
288.8205	0.105	577641	keystroke_n	n	n/a
289.421	0.1795	578842	keystroke_e	e	n/a
289.525	0.1655	579050	keystroke_s	s	n/a
289.6755	0.12	579351	keystroke_Key.space	Key.space	n/a
290.006	0.1045	580012	keystroke_f	f	n/a
290.1405	0.1205	580281	keystroke_i	i	n/a
290.291	0.12	580582	keystroke_l	l	n/a
290.5605	0.09	581121	keystroke_t	t	n/a
290.6805	0.285	581361	keystroke_e	e	n/a
290.8005	0.15	581601	keystroke_r	r	n/a
290.921	0.1645	581842	keystroke_s	s	n/a
291.07	0.1205	582140	keystroke_Key.space	Key.space	n/a
291.4605	0.045	582921	keystroke_s	s	n/a
291.6105	0.06	583221	keystroke_c	c	n/a
292.061	0.075	584122	keystroke_e	e	n/a
292.256	0.119	584512	keystroke_n	n	n/a
292.39	0.165	584780	keystroke_a	a	n/a
292.54	0.105	585080	keystroke_r	r	n/a
292.6605	0.09	585321	keystroke_i	i	n/a
292.9755	0.119	585951	keystroke_o	o	n/a
293.6655	0.075	587331	keystroke_Key.enter	Key.enter	n/a
293.7465	8.381	587493	prompt	n/a	suites collective candidates styles\n
294.3405	0.105	588681	keystroke_s	s	n/a
294.5355	0.105	589071	keystroke_u	u	n/a
294.6855	0.135	589371	keystroke_i	i	n/a
294.8355	0.15	589671	keystroke_t	t	n/a
294.9255	0.18	589851	keystroke_e	e	n/a
295.0455	0.18	590091	keystroke_s	s	n/a
295.2105	0.0895	590421	keystroke_Key.space	Key.space	n/a
295.4355	0.09	590871	keystroke_c	c	n/a
295.5105	0.1055	591021	keystroke_o	o	n/a
295.7505	0.0745	591501	keystroke_l	l	n/a
295.915	0.09	591830	keystroke_l	l	n/a
295.96	0.091	591920	keystroke_e	e	n/a
296.17	0.0905	592340	keystroke_c	c	n/a
296.335	0.105	592670	keystroke_t	t	n/a
296.3955	0.1195	592791	keystroke_i	i	n/a
296.605	0.1055	593210	keystroke_v	v	n/a
296.6955	0.1495	593391	keystroke_e	e	n/a
296.83	0.12	593660	keystroke_Key.space	Key.space	n/a
297.625	0.075	595250	keystroke_c	c	n/a
297.685	0.15	595370	keystroke_a	a	n/a
297.836	0.1045	595672	keystroke_n	n	n/a
297.9555	0.075	595911	keystroke_d	d	n/a
298.1505	0.105	596301	keystroke_i	i	n/a
298.2705	0.1355	596541	keystroke_d	d	n/a
298.7355	0.2095	597471	keystroke_a	a	n/a
299.29	0.1505	598580	keystroke_t	t	n/a
299.426	0.1485	598852	keystroke_e	e	n/a
299.5145	0.1655	599029	keystroke_s	s	n/a
300.1745	0.1355	600349	keystroke_Key.space	Key.space	n/a
300.3255	0.09	600651	keystroke_s	s	n/a
300.671	0.0745	601342	keystroke_t	t	n/a
300.955	0.076	601910	keystroke_y	y	n/a
301.166	0.1345	602332	keystroke_l	l	n/a
301.4055	0.195	602811	keystroke_e	e	n/a
301.5405	0.15	603081	keystroke_s	s	n/a
302.0355	0.09	604071	keystroke_Key.enter	Key.enter	n/a
302.132	8.305	604264	prompt	n/a	laboratories whom'st sofa inform\n
302.7255	0.12	605451	keystroke_l	l	n/a
302.8305	0.15	605661	keystroke_a	a	n/a
303.0105	0.105	606021	keystroke_b	b	n/a
303.1605	0.135	606321	keystroke_o	o	n/a
303.2955	0.09	606591	keystroke_r	r	n/a
303.6405	0.149	607281	keystroke_a	a	n/a
303.8805	0.09	607761	keystroke_t	t	n/a
304.075	0.1205	608150	keystroke_o	o	n/a
304.2105	0.09	608421	keystroke_r	r	n/a
304.3455	0.09	608691	keystroke_i	i	n/a
304.4805	0.165	608961	keystroke_e	e	n/a
304.6005	0.165	609201	keystroke_s	s	n/a
305.2005	0.105	610401	keystroke_Key.space	Key.space	n/a
305.3505	0.105	610701	keystroke_w	w	n/a
305.5305	0.18	611061	keystroke_h	h	n/a
305.696	0.1945	611392	keystroke_o	o	n/a
305.891	0.1495	611782	keystroke_m	m	n/a
306.2505	0.12	612501	keystroke_'	'	n/a
306.5055	0.18	613011	keystroke_s	s	n/a
306.7005	0.12	613401	keystroke_t	t	n/a
307.0305	0.09	614061	keystroke_Key.space	Key.space	n/a
307.3455	0.105	614691	keystroke_s	s	n/a
307.4805	0.135	614961	keystroke_o	o	n/a
307.6005	0.105	615201	keystroke_f	f	n/a
307.7655	0.18	615531	keystroke_a	a	n/a
307.93	0.1205	615860	keystroke_Key.space	Key.space	n/a
308.1855	0.1205	616371	keystroke_i	i	n/a
308.291	0.12	616582	keystroke_n	n	n/a
308.396	0.089	616792	keystroke_f	f	n/a
308.5	0.166	617000	keystroke_o	o	n/a
308.8605	0.0755	617721	keystroke_r	r	n/a
309.056	0.1345	618112	keystroke_m	m	n/a
310.3445	0.0905	620689	keystroke_Key.enter	Key.enter	n/a
310.4405	6.731	620881	prompt	n/a	reason census lounge leaf\n
311.0805	0.1645	622161	keystroke_r	r	n/a
311.185	0.165	622370	keystroke_e	e	n/a
311.3205	0.165	622641	keystroke_a	a	n/a
311.455	0.1055	622910	keystroke_s	s	n/a
311.5445	0.2105	623089	keystroke_o	o	n/a
311.681	0.164	623362	keystroke_n	n	n/a
311.83	0.1055	623660	keystroke_Key.space	Key.space	n/a
312.115	0.0455	624230	keystroke_c	c	n/a
312.28	0.09	624560	keystroke_e	e	n/a
312.385	0.1055	624770	keystroke_n	n	n/a
312.475	0.1055	624950	keystroke_s	s	n/a
312.7605	0.09	625521	keystroke_u	u	n/a
313.21	0.12	626420	keystroke_s	s	n/a
313.435	0.1355	626870	keystroke_Key.space	Key.space	n/a
313.75	0.1055	627500	keystroke_l	l	n/a
313.9905	0.1045	627981	keystroke_o	o	n/a
314.0805	0.12	628161	keystroke_u	u	n/a
314.335	0.1355	628670	keystroke_n	n	n/a
314.501	0.1045	629002	keystroke_g	g	n/a
314.9505	0.105	629901	keystroke_e	e	n/a
315.0995	0.166	630199	keystroke_Key.space	Key.space	n/a
315.5505	0.09	631101	keystroke_l	l	n/a
315.6105	0.1195	631221	keystroke_e	e	n/a
315.715	0.18	631430	keystroke_a	a	n/a
315.88	0.135	631760	keystroke_f	f	n/a
317.08	0.09	634160	keystroke_Key.enter	Key.enter	n/a
317.1745	11.4125	634349	prompt	n/a	homeless madagascar desirable surveys\n
317.995	0.105	635990	keystroke_h	h	n/a
318.115	0.135	636230	keystroke_o	o	n/a
318.296	0.119	636592	keystroke_m	m	n/a
318.73	0.12	637460	keystroke_e	e	n/a
319.015	0.1355	638030	keystroke_l	l	n/a
319.2255	0.18	638451	keystroke_e	e	n/a
319.3605	0.105	638721	keystroke_s	s	n/a
319.5555	0.105	639111	keystroke_s	s	n/a
319.6755	0.15	639351	keystroke_Key.space	Key.space	n/a
320.1705	0.15	640341	keystroke_m	m	n/a
320.3355	0.12	640671	keystroke_a	a	n/a
320.4855	0.1195	640971	keystroke_d	d	n/a
320.65	0.15	641300	keystroke_a	a	n/a
321.6395	0.106	643279	keystroke_g	g	n/a
321.8355	0.165	643671	keystroke_a	a	n/a
321.9855	0.165	643971	keystroke_s	s	n/a
322.4505	0.1195	644901	keystroke_c	c	n/a
322.585	0.195	645170	keystroke_a	a	n/a
322.72	0.165	645440	keystroke_r	r	n/a
323.8455	0.135	647691	keystroke_Key.space	Key.space	n/a
324.2805	0.075	648561	keystroke_d	d	n/a
324.445	0.09	648890	keystroke_e	e	n/a
324.595	0.12	649190	keystroke_s	s	n/a
324.76	0.09	649520	keystroke_i	i	n/a
324.865	0.105	649730	keystroke_r	r	n/a
324.94	0.06	649880	keystroke_e	e	n/a
325.4945	0.106	650989	keystroke_Key.backspace	Key.backspace	n/a
325.7205	0.135	651441	keystroke_a	a	n/a
325.8855	0.0895	651771	keystroke_b	b	n/a
326.0495	0.15	652099	keystroke_l	l	n/a
326.185	0.105	652370	keystroke_e	e	n/a
326.785	0.1355	653570	keystroke_Key.space	Key.space	n/a
327.0255	0.105	654051	keystroke_s	s	n/a
327.31	0.09	654620	keystroke_u	u	n/a
327.385	0.0755	654770	keystroke_r	r	n/a
327.58	0.09	655160	keystroke_v	v	n/a
327.6555	0.1195	655311	keystroke_e	e	n/a
327.8355	0.0745	655671	keystroke_y	y	n/a
328.1355	0.1055	656271	keystroke_s	s	n/a
328.48	0.105	656960	keystroke_Key.enter	Key.enter	n/a
328.591	6.446	657182	prompt	n/a	rental jury horrible fundamental\n
329.4405	0.135	658881	keystroke_r	r	n/a
329.546	0.1045	659092	keystroke_e	e	n/a
329.6655	0.105	659331	keystroke_n	n	n/a
329.8005	0.09	659601	keystroke_t	t	n/a
329.9055	0.135	659811	keystroke_a	a	n/a
330.0255	0.105	660051	keystroke_l	l	n/a
330.1155	0.105	660231	keystroke_Key.space	Key.space	n/a
330.2955	0.09	660591	keystroke_j	j	n/a
330.5055	0.075	661011	keystroke_u	u	n/a
330.5655	0.105	661131	keystroke_r	r	n/a
331.0605	0.09	662121	keystroke_y	y	n/a
331.27	0.135	662540	keystroke_Key.space	Key.space	n/a
331.615	0.1205	663230	keystroke_h	h	n/a
331.9455	0.015	663891	keystroke_o	o	n/a
332.0655	0.045	664131	keystroke_r	r	n/a
332.2145	0.075	664429	keystroke_r	r	n/a
332.3205	0.105	664641	keystroke_i	i	n/a
332.47	0.0755	664940	keystroke_b	b	n/a
332.6205	0.1495	665241	keystroke_l	l	n/a
332.8	0.0905	665600	keystroke_e	e	n/a
332.935	0.1205	665870	keystroke_Key.space	Key.space	n/a
333.1755	0.09	666351	keystroke_f	f	n/a
333.2955	0.09	666591	keystroke_u	u	n/a
333.5045	0.105	667009	keystroke_n	n	n/a
333.5805	0.105	667161	keystroke_d	d	n/a
333.7005	0.1495	667401	keystroke_a	a	n/a
334.015	0.121	668030	keystroke_m	m	n/a
334.18	0.09	668360	keystroke_e	e	n/a
334.285	0.1055	668570	keystroke_n	n	n/a
334.405	0.075	668810	keystroke_t	t	n/a
334.5245	0.151	669049	keystroke_a	a	n/a
334.6595	0.1205	669319	keystroke_l	l	n/a
334.96	0.075	669920	keystroke_Key.enter	Key.enter	n/a
335.0425	9.8195	670085	prompt	n/a	guarantee closed aurora production\n
335.6355	0.09	671271	keystroke_g	g	n/a
335.8745	0.091	671749	keystroke_u	u	n/a
336.0395	0.151	672079	keystroke_a	a	n/a
336.2055	0.104	672411	keystroke_n	n	n/a
336.88	0.12	673760	keystroke_Key.backspace	Key.backspace	n/a
337.0155	0.1195	674031	keystroke_r	r	n/a
337.1195	0.1355	674239	keystroke_a	a	n/a
337.2705	0.1045	674541	keystroke_n	n	n/a
337.465	0.0755	674930	keystroke_t	t	n/a
337.855	0.0755	675710	keystroke_e	e	n/a
338.0345	0.106	676069	keystroke_e	e	n/a
338.1695	0.121	676339	keystroke_Key.space	Key.space	n/a
338.4105	0.1045	676821	keystroke_c	c	n/a
338.5305	0.074	677061	keystroke_l	l	n/a
338.7255	0.09	677451	keystroke_o	o	n/a
338.8005	0.195	677601	keystroke_s	s	n/a
338.9655	0.09	677931	keystroke_e	e	n/a
339.175	0.1205	678350	keystroke_d	d	n/a
339.2805	0.15	678561	keystroke_Key.space	Key.space	n/a
339.7005	0.12	679401	keystroke_a	a	n/a
339.9545	0.105	679909	keystroke_u	u	n/a
340.1655	0.104	680331	keystroke_r	r	n/a
340.3745	0.105	680749	keystroke_o	o	n/a
340.4645	0.15	680929	keystroke_r	r	n/a
340.5995	0.151	681199	keystroke_a	a	n/a
341.2	0.1195	682400	keystroke_Key.space	Key.space	n/a
341.62	0.1045	683240	keystroke_p	p	n/a
341.7255	0.09	683451	keystroke_r	r	n/a
342.1755	0.15	684351	keystroke_o	o	n/a
342.4745	0.0755	684949	keystroke_d	d	n/a
342.715	0.0905	685430	keystroke_u	u	n/a
342.8795	0.0905	685759	keystroke_c	c	n/a
343.6145	0.1355	687229	keystroke_t	t	n/a
343.7345	0.241	687469	keystroke_i	i	n/a
343.87	0.1955	687740	keystroke_o	o	n/a
343.931	0.1795	687862	keystroke_n	n	n/a
344.815	0.045	689630	keystroke_Key.enter	Key.enter	n/a
344.8665	10.6155	689733	prompt	n/a	raleigh mandatory stockings composition\n
345.6255	0.1195	691251	keystroke_r	r	n/a
345.895	0.135	691790	keystroke_a	a	n/a
346.075	0.135	692150	keystroke_l	l	n/a
346.2545	0.06	692509	keystroke_e	e	n/a
346.466	0.1185	692932	keystroke_i	i	n/a
346.6145	0.091	693229	keystroke_g	g	n/a
346.7505	0.1045	693501	keystroke_h	h	n/a
346.8695	0.09	693739	keystroke_t	t	n/a
347.74	0.09	695480	keystroke_Key.backspace	Key.backspace	n/a
348.1	0.09	696200	keystroke_Key.space	Key.space	n/a
348.4305	0.1045	696861	keystroke_m	m	n/a
348.64	0.135	697280	keystroke_a	a	n/a
348.8345	0.106	697669	keystroke_n	n	n/a
348.955	0.075	697910	keystroke_d	d	n/a
349.1055	0.18	698211	keystroke_a	a	n/a
349.3445	0.151	698689	keystroke_t	t	n/a
349.6605	0.12	699321	keystroke_o	o	n/a
349.7655	0.135	699531	keystroke_r	r	n/a
350.035	0.0905	700070	keystroke_y	y	n/a
350.77	0.1345	701540	keystroke_Key.space	Key.space	n/a
351.2355	0.135	702471	keystroke_s	s	n/a
351.4005	0.1045	702801	keystroke_t	t	n/a
351.49	0.1205	702980	keystroke_o	o	n/a
351.6545	0.12	703309	keystroke_c	c	n/a
351.7755	0.09	703551	keystroke_k	k	n/a
351.9555	0.1495	703911	keystroke_i	i	n/a
352.0455	0.1945	704091	keystroke_n	n	n/a
352.225	0.1205	704450	keystroke_g	g	n/a
352.6605	0.104	705321	keystroke_s	s	n/a
352.915	0.105	705830	keystroke_Key.space	Key.space	n/a
353.2905	0.074	706581	keystroke_c	c	n/a
353.38	0.1805	706760	keystroke_o	o	n/a
353.4995	0.181	706999	keystroke_m	m	n/a
353.6055	0.15	707211	keystroke_p	p	n/a
353.8	0.1495	707600	keystroke_o	o	n/a
354.01	0.1055	708020	keystroke_s	s	n/a
354.205	0.09	708410	keystroke_i	i	n/a
354.3105	0.1045	708621	keystroke_t	t	n/a
354.37	0.3155	708740	keystroke_i	i	n/a
354.505	0.21	709010	keystroke_o	o	n/a
354.64	0.21	709280	keystroke_n	n	n/a
355.375	0.1045	710750	keystroke_Key.enter	Key.enter	n/a
355.4875	13.2695	710975	prompt	n/a	marker donor battlefield lifetime\n
356.3355	0.1045	712671	keystroke_m	m	n/a
356.4405	0.1495	712881	keystroke_a	a	n/a
356.53	0.1055	713060	keystroke_r	r	n/a
356.68	0.105	713360	keystroke_k	k	n/a
356.74	0.1505	713480	keystroke_e	e	n/a
356.8455	0.119	713691	keystroke_r	r	n/a
356.9795	0.1205	713959	keystroke_Key.space	Key.space	n/a
357.235	0.06	714470	keystroke_d	d	n/a
357.3555	0.1345	714711	keystroke_o	o	n/a
357.475	0.135	714950	keystroke_n	n	n/a
357.7	0.15	715400	keystroke_e	e	n/a
357.775	0.21	715550	keystroke_r	r	n/a
358.5245	0.105	717049	keystroke_Key.backspace	Key.backspace	n/a
358.7345	0.0755	717469	keystroke_Key.backspace	Key.backspace	n/a
358.9905	0.134	717981	keystroke_o	o	n/a
359.1095	0.1505	718219	keystroke_r	r	n/a
359.3495	0.1805	718699	keystroke_Key.space	Key.space	n/a
364.077	0.013	728154	keystroke_b	b	n/a
364.15	0.1655	728300	keystroke_a	a	n/a
364.2995	0.0755	728599	keystroke_t	t	n/a
364.45	0.075	728900	keystroke_t	t	n/a
364.5105	0.119	729021	keystroke_l	l	n/a
364.645	0.0745	729290	keystroke_e	e	n/a
364.975	0.1045	729950	keystroke_f	f	n/a
365.1555	0.149	730311	keystroke_i	i	n/a
365.365	0.1355	730730	keystroke_l	l	n/a
365.485	0.0895	730970	keystroke_e	e	n/a
366.0395	0.0905	732079	keystroke_Key.backspace	Key.backspace	n/a
366.1895	0.105	732379	keystroke_Key.backspace	Key.backspace	n/a
366.2795	0.091	732559	keystroke_e	e	n/a
366.43	0.135	732860	keystroke_l	l	n/a
366.55	0.0755	733100	keystroke_d	d	n/a
366.79	0.0895	733580	keystroke_Key.space	Key.space	n/a
367.2855	0.12	734571	keystroke_l	l	n/a
367.48	0.09	734960	keystroke_i	i	n/a
367.585	0.12	735170	keystroke_f	f	n/a
367.7195	0.09	735439	keystroke_e	e	n/a
368.02	0.0905	736040	keystroke_t	t	n/a
368.1845	0.121	736369	keystroke_i	i	n/a
368.245	0.1805	736490	keystroke_m	m	n/a
368.4405	0.075	736881	keystroke_e	e	n/a
368.6645	0.0905	737329	keystroke_Key.enter	Key.enter	n/a
368.7625	7.5095	737525	prompt	n/a	myanmar girls porcelain ministers\n
369.6105	0.089	739221	keystroke_m	m	n/a
369.8795	0.075	739759	keystroke_y	y	n/a
370.03	0.1355	740060	keystroke_a	a	n/a
370.1805	0.09	740361	keystroke_n	n	n/a
370.525	0.105	741050	keystroke_m	m	n/a
370.645	0.15	741290	keystroke_a	a	n/a
370.7645	0.1205	741529	keystroke_r	r	n/a
370.9445	0.1055	741889	keystroke_Key.space	Key.space	n/a
371.2005	0.075	742401	keystroke_g	g	n/a
371.3205	0.09	742641	keystroke_i	i	n/a
371.4705	0.075	742941	keystroke_r	r	n/a
371.5905	0.134	743181	keystroke_l	l	n/a
371.7555	0.1195	743511	keystroke_s	s	n/a
371.8605	0.134	743721	keystroke_Key.space	Key.space	n/a
372.22	0.105	744440	keystroke_p	p	n/a
372.4145	0.136	744829	keystroke_o	o	n/a
372.5505	0.06	745101	keystroke_r	r	n/a
372.9845	0.06	745969	keystroke_c	c	n/a
373.1795	0.06	746359	keystroke_e	e	n/a
373.3155	0.1195	746631	keystroke_l	l	n/a
373.585	0.135	747170	keystroke_a	a	n/a
373.78	0.15	747560	keystroke_i	i	n/a
373.9	0.1505	747800	keystroke_n	n	n/a
374.425	0.1195	748850	keystroke_Key.space	Key.space	n/a
374.725	0.105	749450	keystroke_m	m	n/a
374.8455	0.1495	749691	keystroke_i	i	n/a
374.9805	0.1045	749961	keystroke_n	n	n/a
375.0705	0.119	750141	keystroke_i	i	n/a
375.22	0.1355	750440	keystroke_s	s	n/a
375.34	0.1055	750680	keystroke_t	t	n/a
375.685	0.2095	751370	keystroke_e	e	n/a
375.7755	0.135	751551	keystroke_r	r	n/a
375.8955	0.104	751791	keystroke_s	s	n/a
376.1795	0.091	752359	keystroke_Key.enter	Key.enter	n/a
376.2765	7.0455	752553	prompt	n/a	threats idol jennifer productions\n
376.8845	0.1055	753769	keystroke_t	t	n/a
377.0045	0.0605	754009	keystroke_h	h	n/a
377.08	0.15	754160	keystroke_r	r	n/a
377.155	0.15	754310	keystroke_e	e	n/a
377.26	0.21	754520	keystroke_a	a	n/a
377.425	0.105	754850	keystroke_t	t	n/a
377.634	0.106	755268	keystroke_s	s	n/a
377.755	0.12	755510	keystroke_Key.space	Key.space	n/a
377.935	0.0895	755870	keystroke_i	i	n/a
378.0555	0.06	756111	keystroke_d	d	n/a
378.4	0.0905	756800	keystroke_o	o	n/a
378.6255	0.105	757251	keystroke_l	l	n/a
378.745	0.12	757490	keystroke_Key.space	Key.space	n/a
379.2705	0.104	758541	keystroke_j	j	n/a
379.4645	0.0605	758929	keystroke_e	e	n/a
379.6455	0.105	759291	keystroke_n	n	n/a
379.8845	0.091	759769	keystroke_n	n	n/a
380.1255	0.1045	760251	keystroke_i	i	n/a
380.2745	0.091	760549	keystroke_f	f	n/a
380.4255	0.1495	760851	keystroke_e	e	n/a
380.53	0.135	761060	keystroke_r	r	n/a
381.04	0.0895	762080	keystroke_Key.space	Key.space	n/a
381.3105	0.09	762621	keystroke_p	p	n/a
381.4305	0.089	762861	keystroke_r	r	n/a
381.5055	0.1345	763011	keystroke_o	o	n/a
381.685	0.06	763370	keystroke_d	d	n/a
381.85	0.09	763700	keystroke_u	u	n/a
381.97	0.06	763940	keystroke_c	c	n/a
382.1655	0.0895	764331	keystroke_t	t	n/a
382.2405	0.2245	764481	keystroke_i	i	n/a
382.33	0.1655	764660	keystroke_o	o	n/a
382.45	0.135	764900	keystroke_n	n	n/a
382.66	0.105	765320	keystroke_s	s	n/a
383.2145	0.105	766429	keystroke_Key.enter	Key.enter	n/a
383.3265	9.1155	766653	prompt	n/a	reliable repeated corporations students\n
383.9495	0.1355	767899	keystroke_r	r	n/a
384.0255	0.134	768051	keystroke_e	e	n/a
384.565	0.105	769130	keystroke_l	l	n/a
384.88	0.0895	769760	keystroke_i	i	n/a
384.9845	0.1205	769969	keystroke_a	a	n/a
385.165	0.0605	770330	keystroke_n	n	n/a
385.54	0.09	771080	keystroke_Key.backspace	Key.backspace	n/a
385.66	0.09	771320	keystroke_b	b	n/a
385.795	0.135	771590	keystroke_l	l	n/a
385.914	0.076	771828	keystroke_e	e	n/a
386.335	0.104	772670	keystroke_Key.space	Key.space	n/a
386.635	0.1205	773270	keystroke_r	r	n/a
386.71	0.105	773420	keystroke_e	e	n/a
386.9205	0.09	773841	keystroke_p	p	n/a
387.025	0.12	774050	keystroke_e	e	n/a
387.28	0.165	774560	keystroke_a	a	n/a
387.43	0.12	774860	keystroke_t	t	n/a
387.535	0.09	775070	keystroke_e	e	n/a
387.775	0.15	775550	keystroke_d	d	n/a
387.939	0.121	775878	keystroke_Key.space	Key.space	n/a
388.2995	0.0605	776599	keystroke_c	c	n/a
388.36	0.12	776720	keystroke_o	o	n/a
388.5105	0.075	777021	keystroke_r	r	n/a
388.66	0.1055	777320	keystroke_p	p	n/a
388.855	0.0905	777710	keystroke_o	o	n/a
388.975	0.09	777950	keystroke_r	r	n/a
389.155	0.15	778310	keystroke_a	a	n/a
389.275	0.1355	778550	keystroke_t	t	n/a
389.425	0.195	778850	keystroke_i	i	n/a
389.5155	0.135	779031	keystroke_o	o	n/a
389.59	0.151	779180	keystroke_n	n	n/a
389.7845	0.1655	779569	keystroke_s	s	n/a
389.9345	0.12	779869	keystroke_Key.space	Key.space	n/a
390.2205	0.1195	780441	keystroke_s	s	n/a
390.325	0.09	780650	keystroke_t	t	n/a
390.459	0.076	780918	keystroke_u	u	n/a
390.61	0.0755	781220	keystroke_d	d	n/a
390.76	0.06	781520	keystroke_y	y	n/a
391.195	0.1045	782390	keystroke_Key.backspace	Key.backspace	n/a
391.3155	0.09	782631	keystroke_e	e	n/a
391.4655	0.089	782931	keystroke_n	n	n/a
391.5695	0.09	783139	keystroke_t	t	n/a
391.7345	0.0905	783469	keystroke_s	s	n/a
392.35	0.09	784700	keystroke_Key.enter	Key.enter	n/a
392.446	8.4105	784892	prompt	n/a	suggesting easter multimedia unlock\n
393.2805	0.09	786561	keystroke_s	s	n/a
393.445	0.0905	786890	keystroke_u	u	n/a
393.519	0.0765	787038	keystroke_g	g	n/a
393.715	0.0455	787430	keystroke_g	g	n/a
393.85	0.1205	787700	keystroke_e	e	n/a
393.925	0.18	787850	keystroke_s	s	n/a
394.045	0.105	788090	keystroke_t	t	n/a
394.09	0.165	788180	keystroke_i	i	n/a
394.2105	0.1645	788421	keystroke_n	n	n/a
394.3595	0.09	788719	keystroke_g	g	n/a
394.4195	0.1355	788839	keystroke_Key.space	Key.space	n/a
395.0645	0.091	790129	keystroke_e	e	n/a
395.14	0.165	790280	keystroke_a	a	n/a
395.26	0.1505	790520	keystroke_s	s	n/a
395.6355	0.0745	791271	keystroke_t	t	n/a
395.785	0.09	791570	keystroke_e	e	n/a
395.86	0.09	791720	keystroke_r	r	n/a
396.325	0.135	792650	keystroke_Key.space	Key.space	n/a
396.655	0.105	793310	keystroke_m	m	n/a
396.91	0.09	793820	keystroke_u	u	n/a
397.21	0.135	794420	keystroke_l	l	n/a
397.4205	0.1045	794841	keystroke_t	t	n/a
397.6455	0.1495	795291	keystroke_i	i	n/a
398.215	0.1355	796430	keystroke_m	m	n/a
398.3205	0.074	796641	keystroke_e	e	n/a
398.5155	0.074	797031	keystroke_d	d	n/a
398.6795	0.135	797359	keystroke_i	i	n/a
398.8305	0.15	797661	keystroke_a	a	n/a
399.055	0.135	798110	keystroke_Key.space	Key.space	n/a
399.28	0.12	798560	keystroke_u	u	n/a
399.505	0.1655	799010	keystroke_n	n	n/a
399.685	0.135	799370	keystroke_l	l	n/a
399.955	0.1205	799910	keystroke_o	o	n/a
400.09	0.1055	800180	keystroke_c	c	n/a
400.2545	0.135	800509	keystroke_k	k	n/a
400.78	0.075	801560	keystroke_Key.enter	Key.enter	n/a
400.861	9.6405	801722	prompt	n/a	absolute germany abraham beijing\n
401.395	0.09	802790	keystroke_s	s	n/a
402.0695	0.0755	804139	keystroke_Key.backspace	Key.backspace	n/a
402.1895	0.15	804379	keystroke_a	a	n/a
402.3545	0.106	804709	keystroke_b	b	n/a
402.67	0.075	805340	keystroke_s	s	n/a
402.7745	0.105	805549	keystroke_o	o	n/a
403.0155	0.089	806031	keystroke_l	l	n/a
403.1495	0.0905	806299	keystroke_u	u	n/a
403.255	0.1345	806510	keystroke_t	t	n/a
403.3605	0.135	806721	keystroke_e	e	n/a
403.7795	0.12	807559	keystroke_Key.space	Key.space	n/a
404.0505	0.074	808101	keystroke_g	g	n/a
404.185	0.1355	808370	keystroke_e	e	n/a
404.29	0.0895	808580	keystroke_r	r	n/a
404.3495	0.076	808699	keystroke_m	m	n/a
404.455	0.12	808910	keystroke_a	a	n/a
404.59	0.075	809180	keystroke_n	n	n/a
404.98	0.075	809960	keystroke_y	y	n/a
405.205	0.135	810410	keystroke_Key.space	Key.space	n/a
405.46	0.1355	810920	keystroke_a	a	n/a
405.64	0.09	811280	keystroke_b	b	n/a
405.865	0.105	811730	keystroke_r	r	n/a
405.985	0.1355	811970	keystroke_a	a	n/a
406.2545	0.105	812509	keystroke_h	h	n/a
406.435	0.12	812870	keystroke_a	a	n/a
406.525	0.135	813050	keystroke_m	m	n/a
407.0045	0.0905	814009	keystroke_Key.space	Key.space	n/a
407.5595	0.075	815119	keystroke_b	b	n/a
407.77	0.0745	815540	keystroke_e	e	n/a
408.085	0.135	816170	keystroke_i	i	n/a
408.385	0.09	816770	keystroke_j	j	n/a
408.535	0.105	817070	keystroke_a	a	n/a
408.9545	0.12	817909	keystroke_Key.backspace	Key.backspace	n/a
409.1805	0.1035	818361	keystroke_i	i	n/a
409.27	0.1345	818540	keystroke_n	n	n/a
409.36	0.1345	818720	keystroke_g	g	n/a
410.41	0.09	820820	keystroke_Key.enter	Key.enter	n/a
410.5065	7.6905	821013	prompt	n/a	craig drag highlights tissue\n
411.19	0.075	822380	keystroke_c	c	n/a
411.385	0.1205	822770	keystroke_r	r	n/a
411.475	0.165	822950	keystroke_a	a	n/a
411.595	0.105	823190	keystroke_i	i	n/a
411.745	0.09	823490	keystroke_g	g	n/a
412.12	0.12	824240	keystroke_Key.space	Key.space	n/a
412.57	0.075	825140	keystroke_d	d	n/a
412.72	0.105	825440	keystroke_r	r	n/a
412.84	0.1355	825680	keystroke_a	a	n/a
413.0195	0.0905	826039	keystroke_g	g	n/a
413.6195	0.09	827239	keystroke_Key.space	Key.space	n/a
413.9195	0.076	827839	keystroke_h	h	n/a
414.07	0.105	828140	keystroke_i	i	n/a
414.235	0.105	828470	keystroke_g	g	n/a
414.3545	0.1355	828709	keystroke_h	h	n/a
414.6995	0.135	829399	keystroke_l	l	n/a
415.1045	0.121	830209	keystroke_i	i	n/a
415.2705	0.09	830541	keystroke_g	g	n/a
415.3895	0.1205	830779	keystroke_h	h	n/a
415.54	0.09	831080	keystroke_t	t	n/a
415.7955	0.089	831591	keystroke_s	s	n/a
416.455	0.09	832910	keystroke_Key.space	Key.space	n/a
416.98	0.1055	833960	keystroke_t	t	n/a
417.2195	0.105	834439	keystroke_i	i	n/a
417.4145	0.0455	834829	keystroke_s	s	n/a
417.5495	0.0755	835099	keystroke_s	s	n/a
417.6545	0.09	835309	keystroke_u	u	n/a
417.7755	0.104	835551	keystroke_e	e	n/a
418.1045	0.09	836209	keystroke_Key.enter	Key.enter	n/a
418.202	8.5445	836404	prompt	n/a	updates favors pages liable\n
419.17	0.12	838340	keystroke_u	u	n/a
419.3805	0.119	838761	keystroke_p	p	n/a
419.545	0.104	839090	keystroke_d	d	n/a
419.65	0.149	839300	keystroke_a	a	n/a
419.77	0.105	839540	keystroke_t	t	n/a
419.8455	0.105	839691	keystroke_e	e	n/a
420.9855	0.075	841971	keystroke_s	s	n/a
421.15	0.09	842300	keystroke_Key.space	Key.space	n/a
421.435	0.06	842870	keystroke_f	f	n/a
421.57	0.09	843140	keystroke_o	o	n/a
421.99	0.09	843980	keystroke_Key.backspace	Key.backspace	n/a
422.065	0.135	844130	keystroke_a	a	n/a
422.215	0.0755	844430	keystroke_v	v	n/a
422.275	0.0895	844550	keystroke_o	o	n/a
422.5145	0.075	845029	keystroke_r	r	n/a
422.995	0.09	845990	keystroke_s	s	n/a
423.115	0.1045	846230	keystroke_Key.space	Key.space	n/a
423.4455	0.1195	846891	keystroke_p	p	n/a
423.5345	0.1505	847069	keystroke_a	a	n/a
423.6545	0.0755	847309	keystroke_g	g	n/a
423.7755	0.149	847551	keystroke_e	e	n/a
423.88	0.1195	847760	keystroke_s	s	n/a
424.075	0.09	848150	keystroke_Key.space	Key.space	n/a
424.8395	0.135	849679	keystroke_l	l	n/a
425.035	0.09	850070	keystroke_i	i	n/a
425.2	0.15	850400	keystroke_a	a	n/a
425.394	0.0905	850788	keystroke_b	b	n/a
425.5595	0.12	851119	keystroke_l	l	n/a
425.665	0.09	851330	keystroke_e	e	n/a
425.7695	0.1055	851539	keystroke_Key.space	Key.space	n/a
426.34	0.089	852680	keystroke_Key.backspace	Key.backspace	n/a
426.6695	0.075	853339	keystroke_Key.enter	Key.enter	n/a
426.751	11.4105	853502	prompt	n/a	software praise strategy france\n
427.465	0.09	854930	keystroke_s	s	n/a
427.6	0.1205	855200	keystroke_o	o	n/a
427.735	0.0605	855470	keystroke_f	f	n/a
427.9295	0.0755	855859	keystroke_t	t	n/a
428.2595	0.0605	856519	keystroke_e	e	n/a
428.3945	0.015	856789	keystroke_r	r	n/a
428.83	0.089	857660	keystroke_Key.backspace	Key.backspace	n/a
429.01	0.09	858020	keystroke_Key.backspace	Key.backspace	n/a
429.13	0.09	858260	keystroke_w	w	n/a
429.6545	0.135	859309	keystroke_a	a	n/a
429.8345	0.1055	859669	keystroke_r	r	n/a
429.8945	0.1205	859789	keystroke_e	e	n/a
430.03	0.105	860060	keystroke_Key.space	Key.space	n/a
430.75	0.075	861500	keystroke_p	p	n/a
430.87	0.075	861740	keystroke_r	r	n/a
431.035	0.12	862070	keystroke_a	a	n/a
431.4395	0.105	862879	keystroke_i	i	n/a
431.7095	0.121	863419	keystroke_s	s	n/a
431.8595	0.09	863719	keystroke_e	e	n/a
432.01	0.12	864020	keystroke_Key.space	Key.space	n/a
432.25	0.135	864500	keystroke_s	s	n/a
432.4	0.09	864800	keystroke_t	t	n/a
432.595	0.0895	865190	keystroke_r	r	n/a
432.82	0.1205	865640	keystroke_a	a	n/a
433.015	0.09	866030	keystroke_g	g	n/a
433.554	0.106	867108	keystroke_Key.backspace	Key.backspace	n/a
433.78	0.075	867560	keystroke_t	t	n/a
433.96	0.134	867920	keystroke_e	e	n/a
434.29	0.089	868580	keystroke_g	g	n/a
434.6945	0.0755	869389	keystroke_y	y	n/a
435.4145	0.09	870829	keystroke_Key.space	Key.space	n/a
436.015	0.075	872030	keystroke_f	f	n/a
436.2095	0.091	872419	keystroke_r	r	n/a
436.2845	0.135	872569	keystroke_a	a	n/a
436.4645	0.1355	872929	keystroke_n	n	n/a
436.6295	0.075	873259	keystroke_c	c	n/a
436.96	0.1045	873920	keystroke_y	y	n/a
437.68	0.105	875360	keystroke_Key.backspace	Key.backspace	n/a
437.786	0.074	875572	keystroke_e	e	n/a
438.085	0.075	876170	keystroke_Key.enter	Key.enter	n/a
438.165	8.0215	876330	prompt	n/a	that're lover damaged environmental\n
438.865	0.0895	877730	keystroke_t	t	n/a
439	0.105	878000	keystroke_h	h	n/a
439.0595	0.18	878119	keystroke_a	a	n/a
439.2245	0.105	878449	keystroke_t	t	n/a
439.3745	0.12	878749	keystroke_'	'	n/a
439.63	0.1195	879260	keystroke_r	r	n/a
439.7045	0.1205	879409	keystroke_e	e	n/a
440.23	0.09	880460	keystroke_Key.space	Key.space	n/a
440.4105	0.1195	880821	keystroke_l	l	n/a
440.6345	0.105	881269	keystroke_o	o	n/a
440.7545	0.075	881509	keystroke_v	v	n/a
440.8745	0.15	881749	keystroke_e	e	n/a
440.9795	0.12	881959	keystroke_r	r	n/a
441.0545	0.135	882109	keystroke_Key.space	Key.space	n/a
441.264	0.075	882528	keystroke_d	d	n/a
441.565	0.12	883130	keystroke_a	a	n/a
441.715	0.105	883430	keystroke_m	m	n/a
441.955	0.135	883910	keystroke_a	a	n/a
442.12	0.09	884240	keystroke_g	g	n/a
442.285	0.075	884570	keystroke_e	e	n/a
442.479	0.076	884958	keystroke_d	d	n/a
442.57	0.105	885140	keystroke_Key.space	Key.space	n/a
442.719	0.091	885438	keystroke_e	e	n/a
443.1395	0.105	886279	keystroke_n	n	n/a
443.38	0.089	886760	keystroke_v	v	n/a
443.68	0.104	887360	keystroke_i	i	n/a
444.279	0.0755	888558	keystroke_r	r	n/a
444.489	0.18	888978	keystroke_o	o	n/a
444.6395	0.12	889279	keystroke_n	n	n/a
444.9095	0.0895	889819	keystroke_m	m	n/a
445.029	0.136	890058	keystroke_e	e	n/a
445.1795	0.075	890359	keystroke_n	n	n/a
445.2245	0.1055	890449	keystroke_t	t	n/a
445.3745	0.1655	890749	keystroke_a	a	n/a
445.541	0.1035	891082	keystroke_l	l	n/a
446.125	0.0595	892250	keystroke_Key.enter	Key.enter	n/a
446.1915	9.97	892383	prompt	n/a	camcorder paypal kitty smithsonian\n
446.9045	0.075	893809	keystroke_c	c	n/a
447.0545	0.135	894109	keystroke_a	a	n/a
447.2645	0.12	894529	keystroke_m	m	n/a
447.595	0.075	895190	keystroke_c	c	n/a
447.7595	0.105	895519	keystroke_o	o	n/a
447.9095	0.09	895819	keystroke_r	r	n/a
448.06	0.09	896120	keystroke_d	d	n/a
448.2545	0.12	896509	keystroke_e	e	n/a
448.3295	0.165	896659	keystroke_r	r	n/a
448.4645	0.1055	896929	keystroke_Key.space	Key.space	n/a
448.6445	0.09	897289	keystroke_p	p	n/a
448.7495	0.12	897499	keystroke_a	a	n/a
448.9445	0.105	897889	keystroke_y	y	n/a
449.185	0.135	898370	keystroke_p	p	n/a
449.3345	0.1355	898669	keystroke_a	a	n/a
449.6345	0.075	899269	keystroke_Key.backspace	Key.backspace	n/a
450.16	0.12	900320	keystroke_a	a	n/a
450.43	0.135	900860	keystroke_l	l	n/a
450.64	0.105	901280	keystroke_Key.space	Key.space	n/a
451.15	0.059	902300	keystroke_k	k	n/a
451.33	0.0745	902660	keystroke_i	i	n/a
451.4195	0.075	902839	keystroke_t	t	n/a
451.5695	0.09	903139	keystroke_t	t	n/a
451.6745	0.12	903349	keystroke_y	y	n/a
451.8095	0.105	903619	keystroke_Key.space	Key.space	n/a
452.0495	0.075	904099	keystroke_s	s	n/a
452.1545	0.1795	904309	keystroke_m	m	n/a
452.29	0.135	904580	keystroke_i	i	n/a
452.4995	0.12	904999	keystroke_t	t	n/a
452.7095	0.135	905419	keystroke_h	h	n/a
453.22	0.105	906440	keystroke_s	s	n/a
453.43	0.1195	906860	keystroke_o	o	n/a
454.1045	0.135	908209	keystroke_n	n	n/a
454.4645	0.105	908929	keystroke_i	i	n/a
454.6145	0.1205	909229	keystroke_a	a	n/a
455.1545	0.09	910309	keystroke_n	n	n/a
456.0695	0.0895	912139	keystroke_Key.enter	Key.enter	n/a
456.1665	12.9705	912333	prompt	n/a	establish lets classifieds accompanied\n
456.834	0.121	913668	keystroke_e	e	n/a
457.12	0.195	914240	keystroke_s	s	n/a
457.2845	0.105	914569	keystroke_t	t	n/a
457.4045	0.15	914809	keystroke_a	a	n/a
457.5695	0.09	915139	keystroke_b	b	n/a
457.7195	0.18	915439	keystroke_l	l	n/a
457.87	0.105	915740	keystroke_i	i	n/a
457.9895	0.12	915979	keystroke_s	s	n/a
458.1105	0.104	916221	keystroke_h	h	n/a
458.1845	0.15	916369	keystroke_Key.space	Key.space	n/a
458.41	0.135	916820	keystroke_l	l	n/a
458.499	0.105	916998	keystroke_e	e	n/a
458.7095	0.1055	917419	keystroke_t	t	n/a
458.935	0.1195	917870	keystroke_s	s	n/a
459.025	0.1495	918050	keystroke_Key.space	Key.space	n/a
459.6095	0.075	919219	keystroke_c	c	n/a
459.7445	0.165	919489	keystroke_a	a	n/a
459.88	0.1195	919760	keystroke_l	l	n/a
460.105	0.0745	920210	keystroke_s	s	n/a
460.2995	0.105	920599	keystroke_s	s	n/a
460.4795	0.09	920959	keystroke_i	i	n/a
460.5845	0.0905	921169	keystroke_f	f	n/a
460.7345	0.105	921469	keystroke_i	i	n/a
460.8545	0.0595	921709	keystroke_e	e	n/a
461.0495	0.1055	922099	keystroke_d	d	n/a
461.799	0.0905	923598	keystroke_Key.backspace	Key.backspace	n/a
461.964	0.0755	923928	keystroke_Key.backspace	Key.backspace	n/a
462.1145	0.09	924229	keystroke_Key.backspace	Key.backspace	n/a
462.2795	0.09	924559	keystroke_Key.backspace	Key.backspace	n/a
462.445	0.074	924890	keystroke_Key.backspace	Key.backspace	n/a
462.5945	0.0895	925189	keystroke_Key.backspace	Key.backspace	n/a
462.775	0.059	925550	keystroke_Key.backspace	Key.backspace	n/a
462.939	0.076	925878	keystroke_Key.backspace	Key.backspace	n/a
463.3595	0.06	926719	keystroke_Key.backspace	Key.backspace	n/a
463.6445	0.165	927289	keystroke_l	l	n/a
463.765	0.1495	927530	keystroke_a	a	n/a
463.885	0.1045	927770	keystroke_s	s	n/a
464.0945	0.09	928189	keystroke_s	s	n/a
464.2145	0.09	928429	keystroke_i	i	n/a
464.3495	0.075	928699	keystroke_f	f	n/a
464.4545	0.09	928909	keystroke_i	i	n/a
464.5595	0.075	929119	keystroke_e	e	n/a
464.74	0.089	929480	keystroke_d	d	n/a
465.715	0.105	931430	keystroke_s	s	n/a
466.314	0.09	932628	keystroke_Key.space	Key.space	n/a
466.5995	0.1055	933199	keystroke_a	a	n/a
466.824	0.06	933648	keystroke_c	c	n/a
466.989	0.091	933978	keystroke_c	c	n/a
467.139	0.1655	934278	keystroke_o	o	n/a
467.2895	0.1805	934579	keystroke_m	m	n/a
467.47	0.12	934940	keystroke_p	p	n/a
467.605	0.105	935210	keystroke_a	a	n/a
467.74	0.135	935480	keystroke_n	n	n/a
467.905	0.12	935810	keystroke_i	i	n/a
468.055	0.105	936110	keystroke_e	e	n/a
468.324	0.106	936648	keystroke_d	d	n/a
469.044	0.091	938088	keystroke_Key.enter	Key.enter	n/a
469.142	6.8945	938284	prompt	n/a	years return companies grass\n
469.959	0.075	939918	keystroke_y	y	n/a
470.0195	0.1355	940039	keystroke_e	e	n/a
470.0795	0.165	940159	keystroke_a	a	n/a
470.184	0.12	940368	keystroke_r	r	n/a
470.4995	0.0145	940999	keystroke_s	s	n/a
470.5295	0.1345	941059	keystroke_Key.space	Key.space	n/a
470.709	0.12	941418	keystroke_r	r	n/a
470.7845	0.1055	941569	keystroke_e	e	n/a
470.9645	0.0905	941929	keystroke_t	t	n/a
471.1145	0.0755	942229	keystroke_u	u	n/a
471.2045	0.105	942409	keystroke_r	r	n/a
471.3395	0.12	942679	keystroke_n	n	n/a
471.4445	0.12	942889	keystroke_Key.space	Key.space	n/a
471.6995	0.075	943399	keystroke_c	c	n/a
471.7745	0.2105	943549	keystroke_o	o	n/a
471.91	0.18	943820	keystroke_m	m	n/a
472.5095	0.105	945019	keystroke_p	p	n/a
472.6295	0.12	945259	keystroke_a	a	n/a
472.78	0.12	945560	keystroke_n	n	n/a
472.975	0.134	945950	keystroke_i	i	n/a
473.124	0.1655	946248	keystroke_e	e	n/a
473.215	0.164	946430	keystroke_s	s	n/a
473.5295	0.12	947059	keystroke_Key.space	Key.space	n/a
474.16	0.075	948320	keystroke_g	g	n/a
474.355	0.12	948710	keystroke_r	r	n/a
474.43	0.06	948860	keystroke_e	e	n/a
474.909	0.09	949818	keystroke_Key.backspace	Key.backspace	n/a
475.029	0.1505	950058	keystroke_a	a	n/a
475.1495	0.105	950299	keystroke_s	s	n/a
475.3445	0.0905	950689	keystroke_s	s	n/a
476.0195	0.015	952039	keystroke_Key.enter	Key.enter	n/a
476.045	5.3915	952090	prompt	n/a	punk votes empty away\n
476.785	0.1495	953570	keystroke_p	p	n/a
476.9495	0.075	953899	keystroke_u	u	n/a
477.16	0.134	954320	keystroke_n	n	n/a
477.384	0.12	954768	keystroke_k	k	n/a
477.505	0.1195	955010	keystroke_Key.space	Key.space	n/a
477.699	0.0905	955398	keystroke_v	v	n/a
477.775	0.12	955550	keystroke_o	o	n/a
477.9845	0.1495	955969	keystroke_t	t	n/a
478.09	0.1795	956180	keystroke_e	e	n/a
478.224	0.1205	956448	keystroke_s	s	n/a
478.4495	0.1195	956899	keystroke_Key.space	Key.space	n/a
478.599	0.09	957198	keystroke_e	e	n/a
478.734	0.1955	957468	keystroke_m	m	n/a
479.2145	0.12	958429	keystroke_p	p	n/a
479.4095	0.09	958819	keystroke_t	t	n/a
479.575	0.0895	959150	keystroke_y	y	n/a
479.9795	0.12	959959	keystroke_Key.space	Key.space	n/a
480.325	0.1495	960650	keystroke_a	a	n/a
480.5045	0.15	961009	keystroke_w	w	n/a
480.7	0.1645	961400	keystroke_a	a	n/a
480.969	0.0905	961938	keystroke_y	y	n/a
481.344	0.09	962688	keystroke_Key.enter	Key.enter	n/a
481.4415	6.5655	962883	prompt	n/a	implies league speeds mines\n
482.124	0.06	964248	keystroke_l	l	n/a
482.544	0.0905	965088	keystroke_Key.backspace	Key.backspace	n/a
482.739	0.1355	965478	keystroke_i	i	n/a
482.8445	0.2245	965689	keystroke_m	m	n/a
483.07	0.1495	966140	keystroke_p	p	n/a
483.235	0.1195	966470	keystroke_l	l	n/a
483.49	0.12	966980	keystroke_i	i	n/a
483.595	0.134	967190	keystroke_e	e	n/a
483.6695	0.1505	967339	keystroke_s	s	n/a
483.7895	0.1345	967579	keystroke_Key.space	Key.space	n/a
483.985	0.135	967970	keystroke_l	l	n/a
484.135	0.075	968270	keystroke_e	e	n/a
484.285	0.165	968570	keystroke_a	a	n/a
484.495	0.105	968990	keystroke_g	g	n/a
484.6885	0.0915	969377	keystroke_u	u	n/a
484.87	0.1045	969740	keystroke_e	e	n/a
484.9595	0.1345	969919	keystroke_Key.space	Key.space	n/a
485.1695	0.105	970339	keystroke_s	s	n/a
485.35	0.119	970700	keystroke_p	p	n/a
485.484	0.0605	970968	keystroke_e	e	n/a
485.649	0.0905	971298	keystroke_e	e	n/a
485.889	0.0755	971778	keystroke_d	d	n/a
486.0995	0.075	972199	keystroke_s	s	n/a
486.1445	0.135	972289	keystroke_Key.space	Key.space	n/a
486.34	0.105	972680	keystroke_m	m	n/a
486.415	0.149	972830	keystroke_i	i	n/a
486.565	0.135	973130	keystroke_n	n	n/a
486.715	0.135	973430	keystroke_e	e	n/a
486.8045	0.1495	973609	keystroke_s	s	n/a
487.9145	0.09	975829	keystroke_Key.enter	Key.enter	n/a
488.0115	7.765	976023	prompt	n/a	mental templates keywords responding\n
488.7095	0.105	977419	keystroke_m	m	n/a
488.8295	0.09	977659	keystroke_e	e	n/a
488.9345	0.0905	977869	keystroke_n	n	n/a
488.9795	0.0895	977959	keystroke_t	t	n/a
489.1	0.1345	978200	keystroke_a	a	n/a
489.235	0.119	978470	keystroke_l	l	n/a
489.369	0.105	978738	keystroke_Key.space	Key.space	n/a
489.579	0.105	979158	keystroke_t	t	n/a
489.67	0.119	979340	keystroke_e	e	n/a
489.79	0.209	979580	keystroke_m	m	n/a
489.9395	0.1355	979879	keystroke_p	p	n/a
490.315	0.135	980630	keystroke_l	l	n/a
490.48	0.1495	980960	keystroke_a	a	n/a
490.765	0.1045	981530	keystroke_t	t	n/a
490.8995	0.1795	981799	keystroke_e	e	n/a
491.0345	0.15	982069	keystroke_s	s	n/a
491.1545	0.1495	982309	keystroke_Key.space	Key.space	n/a
491.44	0.15	982880	keystroke_k	k	n/a
491.575	0.075	983150	keystroke_e	e	n/a
491.7545	0.1055	983509	keystroke_y	y	n/a
492.054	0.091	984108	keystroke_w	w	n/a
492.265	0.15	984530	keystroke_o	o	n/a
492.3995	0.0905	984799	keystroke_r	r	n/a
492.6395	0.1205	985279	keystroke_d	d	n/a
492.8495	0.09	985699	keystroke_s	s	n/a
492.9395	0.1795	985879	keystroke_Key.space	Key.space	n/a
493.134	0.1655	986268	keystroke_r	r	n/a
493.225	0.1645	986450	keystroke_e	e	n/a
493.3595	0.1645	986719	keystroke_s	s	n/a
493.509	0.1505	987018	keystroke_p	p	n/a
493.63	0.209	987260	keystroke_o	o	n/a
493.825	0.15	987650	keystroke_n	n	n/a
494.034	0.105	988068	keystroke_s	s	n/a
494.619	0.09	989238	keystroke_Key.backspace	Key.backspace	n/a
494.77	0.104	989540	keystroke_d	d	n/a
494.875	0.134	989750	keystroke_i	i	n/a
494.98	0.1495	989960	keystroke_n	n	n/a
495.099	0.105	990198	keystroke_g	g	n/a
495.6995	0.075	991399	keystroke_Key.enter	Key.enter	n/a
495.782	10.8535	991564	prompt	n/a	request shepherd unauthorized risks\n
496.4045	0.1345	992809	keystroke_r	r	n/a
496.4645	0.15	992929	keystroke_e	e	n/a
496.6295	0.1505	993259	keystroke_q	q	n/a
496.7645	0.09	993529	keystroke_u	u	n/a
496.9295	0.1505	993859	keystroke_e	e	n/a
497.0645	0.1645	994129	keystroke_s	s	n/a
497.214	0.1055	994428	keystroke_t	t	n/a
497.3495	0.105	994699	keystroke_Key.space	Key.space	n/a
497.6645	0.09	995329	keystroke_s	s	n/a
497.7695	0.075	995539	keystroke_h	h	n/a
497.89	0.0595	995780	keystroke_e	e	n/a
498.9995	0.1055	997999	keystroke_p	p	n/a
499.645	0.104	999290	keystroke_h	h	n/a
499.944	0.15	999888	keystroke_e	e	n/a
500.049	0.135	1000098	keystroke_r	r	n/a
500.634	0.09	1001268	keystroke_d	d	n/a
501.0845	0.12	1002169	keystroke_Key.space	Key.space	n/a
501.55	0.074	1003100	keystroke_u	u	n/a
501.744	0.12	1003488	keystroke_n	n	n/a
502	0.119	1004000	keystroke_a	a	n/a
502.4495	0.0745	1004899	keystroke_u	u	n/a
502.614	0.0905	1005228	keystroke_t	t	n/a
502.719	0.091	1005438	keystroke_h	h	n/a
502.99	0.1045	1005980	keystroke_o	o	n/a
503.1545	0.105	1006309	keystroke_r	r	n/a
503.41	0.075	1006820	keystroke_i	i	n/a
503.6645	0.12	1007329	keystroke_z	z	n/a
503.905	0.075	1007810	keystroke_e	e	n/a
504.1	0.1045	1008200	keystroke_d	d	n/a
504.5495	0.1495	1009099	keystroke_Key.space	Key.space	n/a
504.7445	0.0745	1009489	keystroke_r	r	n/a
504.849	0.091	1009698	keystroke_i	i	n/a
504.954	0.091	1009908	keystroke_s	s	n/a
505.149	0.0605	1010298	keystroke_s	s	n/a
505.5995	0.135	1011199	keystroke_Key.backspace	Key.backspace	n/a
505.8545	0.12	1011709	keystroke_k	k	n/a
505.96	0.075	1011920	keystroke_s	s	n/a
506.5595	0.075	1013119	keystroke_Key.enter	Key.enter	n/a
506.639	4.6935	1013278	prompt	n/a	exactly intel hobby combine\n
507.2495	0.075	1014499	keystroke_e	e	n/a
507.489	0.0755	1014978	keystroke_x	x	n/a
507.669	0.1205	1015338	keystroke_a	a	n/a
507.849	0.076	1015698	keystroke_c	c	n/a
508.044	0.076	1016088	keystroke_t	t	n/a
508.1345	0.1055	1016269	keystroke_l	l	n/a
508.3	0.075	1016600	keystroke_y	y	n/a
508.359	0.105	1016718	keystroke_Key.space	Key.space	n/a
508.57	0.12	1017140	keystroke_i	i	n/a
508.659	0.121	1017318	keystroke_n	n	n/a
508.795	0.075	1017590	keystroke_t	t	n/a
508.885	0.089	1017770	keystroke_e	e	n/a
509.02	0.12	1018040	keystroke_l	l	n/a
509.169	0.105	1018338	keystroke_Key.space	Key.space	n/a
509.334	0.1055	1018668	keystroke_h	h	n/a
509.4545	0.105	1018909	keystroke_o	o	n/a
509.71	0.0595	1019420	keystroke_b	b	n/a
509.875	0.075	1019750	keystroke_b	b	n/a
509.995	0.074	1019990	keystroke_y	y	n/a
510.099	0.075	1020198	keystroke_Key.space	Key.space	n/a
510.294	0.0755	1020588	keystroke_c	c	n/a
510.339	0.166	1020678	keystroke_o	o	n/a
510.4445	0.135	1020889	keystroke_m	m	n/a
510.624	0.0755	1021248	keystroke_b	b	n/a
510.774	0.151	1021548	keystroke_i	i	n/a
510.9095	0.0905	1021819	keystroke_n	n	n/a
511.0445	0.09	1022089	keystroke_e	e	n/a
511.2545	0.075	1022509	keystroke_Key.enter	Key.enter	n/a
511.3425	8.1335	1022685	prompt	n/a	destruction lift mold clearly\n
512.1095	0.0605	1024219	keystroke_d	d	n/a
512.2895	0.0595	1024579	keystroke_e	e	n/a
512.4535	0.121	1024907	keystroke_s	s	n/a
512.5595	0.074	1025119	keystroke_t	t	n/a
512.5895	0.03	1025179	keystroke_y	y	n/a
512.7235	0.092	1025447	keystroke_r	r	n/a
512.9345	0.09	1025869	keystroke_u	u	n/a
513.0095	0.09	1026019	keystroke_c	c	n/a
513.3695	0.09	1026739	keystroke_Key.backspace	Key.backspace	n/a
513.5345	0.09	1027069	keystroke_Key.backspace	Key.backspace	n/a
513.6995	0.075	1027399	keystroke_Key.backspace	Key.backspace	n/a
513.849	0.075	1027698	keystroke_Key.backspace	Key.backspace	n/a
513.94	0.0745	1027880	keystroke_r	r	n/a
514.105	0.0745	1028210	keystroke_u	u	n/a
514.209	0.076	1028418	keystroke_c	c	n/a
514.3895	0.0905	1028779	keystroke_t	t	n/a
514.48	0.209	1028960	keystroke_i	i	n/a
514.5695	0.1355	1029139	keystroke_o	o	n/a
514.66	0.119	1029320	keystroke_n	n	n/a
514.974	0.12	1029948	keystroke_Key.space	Key.space	n/a
515.275	0.164	1030550	keystroke_l	l	n/a
515.38	0.105	1030760	keystroke_i	i	n/a
515.5	0.1045	1031000	keystroke_f	f	n/a
515.649	0.106	1031298	keystroke_e	e	n/a
516.5045	0.09	1033009	keystroke_Key.backspace	Key.backspace	n/a
516.625	0.0895	1033250	keystroke_t	t	n/a
516.7285	0.106	1033457	keystroke_Key.space	Key.space	n/a
517.165	0.1045	1034330	keystroke_m	m	n/a
517.24	0.1345	1034480	keystroke_o	o	n/a
517.5845	0.1205	1035169	keystroke_l	l	n/a
517.7495	0.0755	1035499	keystroke_d	d	n/a
517.8995	0.135	1035799	keystroke_Key.space	Key.space	n/a
518.3795	0.09	1036759	keystroke_c	c	n/a
518.4845	0.105	1036969	keystroke_l	l	n/a
518.6045	0.1505	1037209	keystroke_e	e	n/a
518.6945	0.15	1037389	keystroke_a	a	n/a
518.725	0.1345	1037450	keystroke_r	r	n/a
518.9045	0.12	1037809	keystroke_l	l	n/a
519.0845	0.105	1038169	keystroke_y	y	n/a
519.3845	0.089	1038769	keystroke_Key.enter	Key.enter	n/a
519.481	6.415	1038962	prompt	n/a	universe revolution data goto\n
520.36	0.075	1040720	keystroke_u	u	n/a
520.569	0.135	1041138	keystroke_n	n	n/a
520.674	0.136	1041348	keystroke_i	i	n/a
520.854	0.06	1041708	keystroke_v	v	n/a
520.959	0.2415	1041918	keystroke_e	e	n/a
521.0645	0.1205	1042129	keystroke_r	r	n/a
521.17	0.1495	1042340	keystroke_s	s	n/a
521.35	0.0745	1042700	keystroke_e	e	n/a
521.7095	0.12	1043419	keystroke_Key.space	Key.space	n/a
521.8745	0.12	1043749	keystroke_r	r	n/a
521.9495	0.1955	1043899	keystroke_e	e	n/a
522.3545	0.09	1044709	keystroke_v	v	n/a
522.5495	0.09	1045099	keystroke_o	o	n/a
522.7595	0.09	1045519	keystroke_l	l	n/a
522.88	0.1195	1045760	keystroke_u	u	n/a
523.0295	0.1055	1046059	keystroke_t	t	n/a
523.149	0.226	1046298	keystroke_i	i	n/a
523.254	0.135	1046508	keystroke_o	o	n/a
523.359	0.12	1046718	keystroke_n	n	n/a
523.614	0.1205	1047228	keystroke_Key.space	Key.space	n/a
523.764	0.1055	1047528	keystroke_d	d	n/a
523.885	0.15	1047770	keystroke_a	a	n/a
524.005	0.105	1048010	keystroke_t	t	n/a
524.139	0.135	1048278	keystroke_a	a	n/a
524.304	0.105	1048608	keystroke_Key.space	Key.space	n/a
524.499	0.0755	1048998	keystroke_g	g	n/a
524.5895	0.105	1049179	keystroke_o	o	n/a
524.7995	0.075	1049599	keystroke_o	o	n/a
525.264	0.105	1050528	keystroke_Key.backspace	Key.backspace	n/a
525.3845	0.06	1050769	keystroke_t	t	n/a
525.474	0.105	1050948	keystroke_o	o	n/a
525.804	0.09	1051608	keystroke_Key.enter	Key.enter	n/a
525.9	6.791	1051800	prompt	n/a	inspector alot parcel hall\n
526.5095	0.195	1053019	keystroke_i	i	n/a
526.689	0.15	1053378	keystroke_n	n	n/a
526.854	0.075	1053708	keystroke_s	s	n/a
526.974	0.106	1053948	keystroke_p	p	n/a
527.0645	0.075	1054129	keystroke_e	e	n/a
527.2595	0.075	1054519	keystroke_c	c	n/a
527.4245	0.075	1054849	keystroke_t	t	n/a
527.56	0.105	1055120	keystroke_o	o	n/a
527.6945	0.12	1055389	keystroke_r	r	n/a
527.799	0.1055	1055598	keystroke_Key.space	Key.space	n/a
527.964	0.1355	1055928	keystroke_a	a	n/a
528.3835	0.091	1056767	keystroke_l	l	n/a
528.58	0.0895	1057160	keystroke_o	o	n/a
528.6845	0.135	1057369	keystroke_t	t	n/a
528.8345	0.09	1057669	keystroke_Key.space	Key.space	n/a
529.194	0.105	1058388	keystroke_p	p	n/a
529.254	0.165	1058508	keystroke_a	a	n/a
529.359	0.1055	1058718	keystroke_r	r	n/a
530.244	0.0755	1060488	keystroke_c	c	n/a
530.4395	0.0895	1060879	keystroke_e	e	n/a
530.559	0.1355	1061118	keystroke_l	l	n/a
530.829	0.1355	1061658	keystroke_Key.space	Key.space	n/a
531.4295	0.045	1062859	keystroke_h	h	n/a
531.955	0.1045	1063910	keystroke_a	a	n/a
532.0895	0.09	1064179	keystroke_l	l	n/a
532.2545	0.09	1064509	keystroke_l	l	n/a
532.6145	0.075	1065229	keystroke_Key.enter	Key.enter	n/a
532.696	7.48	1065392	prompt	n/a	villages comments audit resolutions\n
533.319	0.0755	1066638	keystroke_v	v	n/a
533.4095	0.0605	1066819	keystroke_i	i	n/a
533.725	0.074	1067450	keystroke_l	l	n/a
533.9045	0.12	1067809	keystroke_l	l	n/a
533.9795	0.135	1067959	keystroke_a	a	n/a
534.0835	0.091	1068167	keystroke_g	g	n/a
534.1895	0.2095	1068379	keystroke_e	e	n/a
534.354	0.1495	1068708	keystroke_s	s	n/a
534.519	0.105	1069038	keystroke_Key.space	Key.space	n/a
534.744	0.075	1069488	keystroke_c	c	n/a
534.8335	0.106	1069667	keystroke_o	o	n/a
534.9085	0.09	1069817	keystroke_m	m	n/a
535.1035	0.091	1070207	keystroke_m	m	n/a
535.2535	0.121	1070507	keystroke_e	e	n/a
535.4035	0.091	1070807	keystroke_n	n	n/a
535.4795	0.1045	1070959	keystroke_t	t	n/a
535.689	0.0905	1071378	keystroke_s	s	n/a
535.7335	0.136	1071467	keystroke_Key.space	Key.space	n/a
535.9595	0.134	1071919	keystroke_a	a	n/a
536.1695	0.0745	1072339	keystroke_u	u	n/a
536.2595	0.0895	1072519	keystroke_d	d	n/a
536.469	0.0755	1072938	keystroke_i	i	n/a
536.6345	0.0895	1073269	keystroke_t	t	n/a
536.754	0.1205	1073508	keystroke_Key.space	Key.space	n/a
536.9645	0.135	1073929	keystroke_r	r	n/a
537.0395	0.1205	1074079	keystroke_e	e	n/a
537.3845	0.0745	1074769	keystroke_s	s	n/a
537.789	0.09	1075578	keystroke_o	o	n/a
538.0295	0.0595	1076059	keystroke_l	l	n/a
538.3145	0.0895	1076629	keystroke_u	u	n/a
538.5095	0.075	1077019	keystroke_t	t	n/a
538.629	0.195	1077258	keystroke_i	i	n/a
538.735	0.134	1077470	keystroke_o	o	n/a
538.854	0.1055	1077708	keystroke_n	n	n/a
538.989	0.1505	1077978	keystroke_s	s	n/a
540.069	0.1055	1080138	keystroke_Key.enter	Key.enter	n/a
540.1805	12.4305	1080361	prompt	n/a	realtors document walked characters\n
541.495	0.1195	1082990	keystroke_r	r	n/a
541.5395	0.15	1083079	keystroke_e	e	n/a
541.6445	0.12	1083289	keystroke_a	a	n/a
541.75	0.1495	1083500	keystroke_l	l	n/a
541.8695	0.105	1083739	keystroke_i	i	n/a
542.094	0.105	1084188	keystroke_t	t	n/a
542.439	0.0895	1084878	keystroke_Key.backspace	Key.backspace	n/a
542.604	0.0905	1085208	keystroke_Key.backspace	Key.backspace	n/a
542.6945	0.09	1085389	keystroke_t	t	n/a
542.8445	0.12	1085689	keystroke_o	o	n/a
542.9795	0.075	1085959	keystroke_r	r	n/a
543.2645	0.12	1086529	keystroke_s	s	n/a
543.4445	0.12	1086889	keystroke_Key.space	Key.space	n/a
543.7445	0.0745	1087489	keystroke_c	c	n/a
544.179	0.1045	1088358	keystroke_Key.backspace	Key.backspace	n/a
544.3445	0.09	1088689	keystroke_d	d	n/a
544.6145	0.1505	1089229	keystroke_o	o	n/a
544.7935	0.0755	1089587	keystroke_u	u	n/a
545.199	0.12	1090398	keystroke_Key.backspace	Key.backspace	n/a
545.334	0.091	1090668	keystroke_c	c	n/a
545.469	0.09	1090938	keystroke_u	u	n/a
545.694	0.0905	1091388	keystroke_m	m	n/a
545.8	0.074	1091600	keystroke_w	w	n/a
547.0895	0.1195	1094179	keystroke_Key.backspace	Key.backspace	n/a
547.1945	0.0745	1094389	keystroke_e	e	n/a
547.344	0.105	1094688	keystroke_n	n	n/a
547.4795	0.1045	1094959	keystroke_t	t	n/a
548.0495	0.135	1096099	keystroke_Key.space	Key.space	n/a
548.3945	0.09	1096789	keystroke_w	w	n/a
548.5145	0.1655	1097029	keystroke_a	a	n/a
548.6195	0.195	1097239	keystroke_l	l	n/a
548.7995	0.135	1097599	keystroke_k	k	n/a
549.0395	0.075	1098079	keystroke_e	e	n/a
549.2195	0.105	1098439	keystroke_d	d	n/a
549.2645	0.1645	1098529	keystroke_Key.space	Key.space	n/a
549.5195	0.09	1099039	keystroke_c	c	n/a
549.6245	0.09	1099249	keystroke_h	h	n/a
549.6845	0.165	1099369	keystroke_a	a	n/a
549.8195	0.09	1099639	keystroke_r	r	n/a
549.9695	0.165	1099939	keystroke_a	a	n/a
550.1345	0.075	1100269	keystroke_g	g	n/a
550.6745	0.06	1101349	keystroke_Key.backspace	Key.backspace	n/a
550.7495	0.0755	1101499	keystroke_c	c	n/a
551.2895	0.1055	1102579	keystroke_t	t	n/a
551.5895	0.21	1103179	keystroke_e	e	n/a
551.6945	0.15	1103389	keystroke_r	r	n/a
551.8135	0.1205	1103627	keystroke_s	s	n/a
552.519	0.0905	1105038	keystroke_Key.enter	Key.enter	n/a
552.616	7.63	1105232	prompt	n/a	wants projectors gratis fires\n
553.2395	0.09	1106479	keystroke_w	w	n/a
553.3745	0.18	1106749	keystroke_a	a	n/a
553.4795	0.104	1106959	keystroke_n	n	n/a
553.5685	0.076	1107137	keystroke_t	t	n/a
553.6895	0.1345	1107379	keystroke_s	s	n/a
553.779	0.1505	1107558	keystroke_Key.space	Key.space	n/a
554.1545	0.06	1108309	keystroke_p	p	n/a
554.2145	0.074	1108429	keystroke_r	r	n/a
554.3635	0.121	1108727	keystroke_o	o	n/a
554.4545	0.1345	1108909	keystroke_j	j	n/a
554.5295	0.075	1109059	keystroke_e	e	n/a
554.7535	0.061	1109507	keystroke_c	c	n/a
554.935	0.0895	1109870	keystroke_t	t	n/a
555.099	0.0905	1110198	keystroke_o	o	n/a
555.219	0.225	1110438	keystroke_r	r	n/a
555.4295	0.1345	1110859	keystroke_s	s	n/a
555.534	0.1205	1111068	keystroke_Key.space	Key.space	n/a
555.774	0.0905	1111548	keystroke_g	g	n/a
556.299	0.0155	1112598	keystroke_r	r	n/a
556.329	0.135	1112658	keystroke_a	a	n/a
557.0635	0.1205	1114127	keystroke_t	t	n/a
557.1995	0.1045	1114399	keystroke_i	i	n/a
557.3495	0.135	1114699	keystroke_s	s	n/a
557.4685	0.15	1114937	keystroke_Key.space	Key.space	n/a
557.709	0.0155	1115418	keystroke_f	f	n/a
557.7395	0.104	1115479	keystroke_f	f	n/a
557.889	0.135	1115778	keystroke_i	i	n/a
558.009	0.15	1116018	keystroke_r	r	n/a
558.0845	0.1495	1116169	keystroke_e	e	n/a
558.144	0.1665	1116288	keystroke_s	s	n/a
558.6695	0.075	1117339	keystroke_Key.backspace	Key.backspace	n/a
558.8345	0.075	1117669	keystroke_Key.backspace	Key.backspace	n/a
558.9995	0.0595	1117999	keystroke_Key.backspace	Key.backspace	n/a
559.164	0.045	1118328	keystroke_Key.backspace	Key.backspace	n/a
559.299	0.045	1118598	keystroke_Key.backspace	Key.backspace	n/a
559.5245	0.075	1119049	keystroke_i	i	n/a
