onset	duration	sample	value	key	prompt_text
3.256	12.8285	6512	prompt	n/a	the quick brown fox jumps over a lazy dog\n
4.7005	0.042	9401	keystroke_t	t	n/a
4.7575	0.09	9515	keystroke_h	h	n/a
4.8625	0.21	9725	keystroke_e	e	n/a
5.1625	0.1355	10325	keystroke_Key.space	Key.space	n/a
5.448	0.1475	10896	keystroke_q	q	n/a
5.582	0.057	11164	keystroke_u	u	n/a
5.774	0.075	11548	keystroke_i	i	n/a
5.894	0.1955	11788	keystroke_c	c	n/a
6.074	0.1205	12148	keystroke_k	k	n/a
6.915	0.135	13830	keystroke_Key.space	Key.space	n/a
7.395	0.0605	14790	keystroke_b	b	n/a
7.5605	0.1055	15121	keystroke_r	r	n/a
7.6805	0.075	15361	keystroke_o	o	n/a
7.7855	0.135	15571	keystroke_w	w	n/a
7.9505	0.12	15901	keystroke_n	n	n/a
8.1005	0.1205	16201	keystroke_Key.space	Key.space	n/a
8.686	0.09	17372	keystroke_f	f	n/a
8.791	0.104	17582	keystroke_o	o	n/a
9.2855	0.15	18571	keystroke_x	x	n/a
9.4505	0.12	18901	keystroke_Key.space	Key.space	n/a
9.6455	0.195	19291	keystroke_j	j	n/a
10.0805	0.0905	20161	keystroke_u	u	n/a
10.4105	0.045	20821	keystroke_m	m	n/a
10.5455	0.03	21091	keystroke_o	o	n/a
11.566	0.0745	23132	keystroke_Key.backspace	Key.backspace	n/a
12	0.075	24000	keystroke_p	p	n/a
12.106	0.1345	24212	keystroke_s	s	n/a
12.195	0.1505	24390	keystroke_Key.space	Key.space	n/a
12.3465	0.1045	24693	keystroke_o	o	n/a
12.466	0.1645	24932	keystroke_v	v	n/a
12.601	0.1645	25202	keystroke_e	e	n/a
12.691	0.1645	25382	keystroke_r	r	n/a
12.871	0.1345	25742	keystroke_Key.space	Key.space	n/a
13.0205	0.135	26041	keystroke_a	a	n/a
13.1405	0.12	26281	keystroke_Key.space	Key.space	n/a
13.3205	0.075	26641	keystroke_l	l	n/a
13.4555	0.105	26911	keystroke_a	a	n/a
13.726	0.165	27452	keystroke_z	z	n/a
13.861	0.045	27722	keystroke_y	y	n/a
14.011	0.105	28022	keystroke_Key.space	Key.space	n/a
14.401	0.12	28802	keystroke_s	s	n/a
14.566	0.12	29132	keystroke_o	o	n/a
15.0605	0.06	30121	keystroke_Key.backspace	Key.backspace	n/a
15.2105	0.06	30421	keystroke_Key.backspace	Key.backspace	n/a
15.3005	0.2255	30601	keystroke_d	d	n/a
15.511	0.105	31022	keystroke_o	o	n/a
15.676	0.1345	31352	keystroke_g	g	n/a
15.991	0.09	31982	keystroke_Key.enter	Key.enter	n/a
16.09	8.9475	32180	prompt	n/a	oasis station exempt official\n
16.8305	0.135	33661	keystroke_q	q	n/a
17.5955	0.0755	35191	keystroke_Key.backspace	Key.backspace	n/a
17.881	0.09	35762	keystroke_o	o	n/a
18.046	0.105	36092	keystroke_a	a	n/a
18.271	0.1205	36542	keystroke_s	s	n/a
18.376	0.09	36752	keystroke_i	i	n/a
18.481	0.12	36962	keystroke_s	s	n/a
18.781	0.135	37562	keystroke_Key.space	Key.space	n/a
18.991	0.12	37982	keystroke_s	s	n/a
19.201	0.1195	38402	keystroke_t	t	n/a
19.3055	0.12	38611	keystroke_a	a	n/a
19.4105	0.135	38821	keystroke_t	t	n/a
19.5605	0.2705	39121	keystroke_i	i	n/a
19.681	0.135	39362	keystroke_o	o	n/a
19.741	0.18	39482	keystroke_n	n	n/a
19.876	0.135	39752	keystroke_Key.space	Key.space	n/a
20.056	0.09	40112	keystroke_e	e	n/a
20.311	0.135	40622	keystroke_x	x	n/a
20.7605	0.105	41521	keystroke_e	e	n/a
21.0605	0.0905	42121	keystroke_m	m	n/a
21.301	0.0895	42602	keystroke_p	p	n/a
21.526	0.0895	43052	keystroke_t	t	n/a
21.9905	0.12	43981	keystroke_Key.space	Key.space	n/a
22.4855	0.09	44971	keystroke_o	o	n/a
22.6205	0.06	45241	keystroke_f	f	n/a
22.7705	0.09	45541	keystroke_f	f	n/a
22.9055	0.121	45811	keystroke_i	i	n/a
23.0415	0.1495	46083	keystroke_c	c	n/a
23.5655	0.1055	47131	keystroke_i	i	n/a
23.7455	0.1205	47491	keystroke_a	a	n/a
23.8665	0.1045	47733	keystroke_l	l	n/a
24.091	0.12	48182	keystroke_Key.space	Key.space	n/a
24.691	0.06	49382	keystroke_Key.backspace	Key.backspace	n/a
24.961	0.075	49922	keystroke_Key.enter	Key.enter	n/a
25.04	9.5525	50080	prompt	n/a	ringtone luke portland period\n
25.9205	0.121	51841	keystroke_r	r	n/a
26.0265	0.089	52053	keystroke_i	i	n/a
26.6105	0.135	53221	keystroke_n	n	n/a
26.7605	0.1055	53521	keystroke_g	g	n/a
27.166	0.0905	54332	keystroke_o	o	n/a
27.661	0.06	55322	keystroke_Key.backspace	Key.backspace	n/a
27.766	0.12	55532	keystroke_t	t	n/a
27.931	0.24	55862	keystroke_o	o	n/a
28.036	0.15	56072	keystroke_n	n	n/a
28.141	0.1345	56282	keystroke_e	e	n/a
28.2305	0.1505	56461	keystroke_Key.space	Key.space	n/a
28.411	0.075	56822	keystroke_l	l	n/a
28.636	0.12	57272	keystroke_u	u	n/a
28.831	0.1645	57662	keystroke_c	c	n/a
29.4605	0.075	58921	keystroke_Key.backspace	Key.backspace	n/a
29.761	0.06	59522	keystroke_k	k	n/a
29.836	0.165	59672	keystroke_e	e	n/a
30.3155	0.12	60631	keystroke_Key.space	Key.space	n/a
30.8265	0.105	61653	keystroke_p	p	n/a
31.1105	0.09	62221	keystroke_o	o	n/a
31.9665	0.074	63933	keystroke_r	r	n/a
32.1755	0.09	64351	keystroke_t	t	n/a
32.4765	0.075	64953	keystroke_l	l	n/a
32.5965	0.134	65193	keystroke_a	a	n/a
32.7455	0.105	65491	keystroke_n	n	n/a
32.8655	0.15	65731	keystroke_d	d	n/a
32.9855	0.135	65971	keystroke_Key.space	Key.space	n/a
33.2555	0.12	66511	keystroke_p	p	n/a
33.3905	0.105	66781	keystroke_e	e	n/a
33.7055	0.105	67411	keystroke_r	r	n/a
33.8705	0.105	67741	keystroke_i	i	n/a
34.0805	0.105	68161	keystroke_o	o	n/a
34.2005	0.15	68401	keystroke_d	d	n/a
34.516	0.0755	69032	keystroke_Key.enter	Key.enter	n/a
34.5965	17.291	69193	prompt	n/a	downloaded actress trained cincinnati\n
35.3415	0.1045	70683	keystroke_d	d	n/a
35.461	0.1045	70922	keystroke_o	o	n/a
35.6255	0.09	71251	keystroke_w	w	n/a
35.7605	0.09	71521	keystroke_n	n	n/a
35.9555	0.09	71911	keystroke_l	l	n/a
36.2405	0.015	72481	keystroke_o	o	n/a
36.3155	0.12	72631	keystroke_a	a	n/a
36.541	0.09	73082	keystroke_d	d	n/a
36.7805	0.045	73561	keystroke_e	e	n/a
36.9755	0.15	73951	keystroke_d	d	n/a
37.2305	0.105	74461	keystroke_Key.space	Key.space	n/a
37.4255	0.105	74851	keystroke_s	s	n/a
37.9365	0.015	75873	keystroke_Key.backspace	Key.backspace	n/a
37.9665	0.06	75933	keystroke_a	a	n/a
38.206	0.105	76412	keystroke_c	c	n/a
38.4755	0.135	76951	keystroke_r	r	n/a
38.7005	0.105	77401	keystroke_e	e	n/a
38.9405	0.06	77881	keystroke_s	s	n/a
39.151	0.1045	78302	keystroke_s	s	n/a
39.6315	0.06	79263	keystroke_Key.space	Key.space	n/a
40.486	0.09	80972	keystroke_Key.backspace	Key.backspace	n/a
42.653	0.008	85306	keystroke_Key.backspace	Key.backspace	n/a
42.946	0.015	85892	keystroke_Key.backspace	Key.backspace	n/a
43.351	0.105	86702	keystroke_Key.backspace	Key.backspace	n/a
44.2655	0.09	88531	keystroke_Key.backspace	Key.backspace	n/a
44.5955	0.105	89191	keystroke_t	t	n/a
44.941	0.12	89882	keystroke_r	r	n/a
45.1205	0.1355	90241	keystroke_e	e	n/a
45.406	0.1045	90812	keystroke_s	s	n/a
45.6155	0.09	91231	keystroke_s	s	n/a
45.7955	0.12	91591	keystroke_Key.space	Key.space	n/a
46.3805	0.1055	92761	keystroke_t	t	n/a
46.576	0.135	93152	keystroke_r	r	n/a
46.771	0.15	93542	keystroke_a	a	n/a
46.936	0.195	93872	keystroke_i	i	n/a
47.011	0.15	94022	keystroke_n	n	n/a
47.146	0.09	94292	keystroke_e	e	n/a
47.356	0.135	94712	keystroke_d	d	n/a
47.446	0.165	94892	keystroke_Key.space	Key.space	n/a
48.7505	0.105	97501	keystroke_c	c	n/a
48.8705	0.09	97741	keystroke_i	i	n/a
49.4705	0.135	98941	keystroke_n	n	n/a
49.8755	0.12	99751	keystroke_c	c	n/a
49.9805	0.12	99961	keystroke_i	i	n/a
50.4455	0.045	100891	keystroke_n	n	n/a
50.6105	0.09	101221	keystroke_n	n	n/a
50.9255	0.135	101851	keystroke_a	a	n/a
51.331	0.09	102662	keystroke_t	t	n/a
51.466	0.105	102932	keystroke_i	i	n/a
51.8265	0.06	103653	keystroke_Key.enter	Key.enter	n/a
51.891	8.037	103782	prompt	n/a	wallet network intervals humanities\n
52.6515	0.12	105303	keystroke_w	w	n/a
52.8015	0.15	105603	keystroke_a	a	n/a
52.9665	0.09	105933	keystroke_l	l	n/a
53.1165	0.105	106233	keystroke_l	l	n/a
53.2665	0.165	106533	keystroke_e	e	n/a
53.4015	0.15	106803	keystroke_t	t	n/a
53.5215	0.15	107043	keystroke_Key.space	Key.space	n/a
53.7765	0.105	107553	keystroke_n	n	n/a
53.8205	0.241	107641	keystroke_e	e	n/a
54.0015	0.12	108003	keystroke_t	t	n/a
54.1815	0.135	108363	keystroke_w	w	n/a
54.3315	0.09	108663	keystroke_o	o	n/a
54.466	0.15	108932	keystroke_r	r	n/a
54.601	0.105	109202	keystroke_k	k	n/a
55.051	0.09	110102	keystroke_Key.space	Key.space	n/a
55.321	0.165	110642	keystroke_i	i	n/a
55.426	0.18	110852	keystroke_n	n	n/a
55.651	0.105	111302	keystroke_t	t	n/a
55.741	0.21	111482	keystroke_e	e	n/a
55.876	0.135	111752	keystroke_r	r	n/a
56.2815	0.135	112563	keystroke_v	v	n/a
56.4315	0.135	112863	keystroke_a	a	n/a
56.6105	0.106	113221	keystroke_l	l	n/a
56.806	0.12	113612	keystroke_s	s	n/a
57.406	0.135	114812	keystroke_Key.space	Key.space	n/a
57.781	0.18	115562	keystroke_h	h	n/a
57.901	0.12	115802	keystroke_u	u	n/a
58.351	0.09	116702	keystroke_a	a	n/a
58.576	0.105	117152	keystroke_n	n	n/a
58.801	0.105	117602	keystroke_i	i	n/a
59.116	0.06	118232	keystroke_t	t	n/a
59.356	0.075	118712	keystroke_i	i	n/a
59.491	0.1355	118982	keystroke_e	e	n/a
59.5965	0.15	119193	keystroke_s	s	n/a
59.866	0.0605	119732	keystroke_Key.enter	Key.enter	n/a
59.9315	12.177	119863	prompt	n/a	represented regions laboratory cord\n
60.856	0.135	121712	keystroke_r	r	n/a
60.931	0.165	121862	keystroke_e	e	n/a
61.261	0.09	122522	keystroke_p	p	n/a
61.426	0.135	122852	keystroke_r	r	n/a
61.516	0.12	123032	keystroke_e	e	n/a
61.756	0.09	123512	keystroke_s	s	n/a
61.966	0.075	123932	keystroke_s	s	n/a
62.371	0.0745	124742	keystroke_Key.backspace	Key.backspace	n/a
63.3755	0.105	126751	keystroke_e	e	n/a
63.6465	0.12	127293	keystroke_n	n	n/a
64.0365	0.045	128073	keystroke_t	t	n/a
64.2615	0.075	128523	keystroke_e	e	n/a
64.486	0.135	128972	keystroke_d	d	n/a
64.711	0.12	129422	keystroke_Key.space	Key.space	n/a
65.311	0.06	130622	keystroke_e	e	n/a
65.476	0.06	130952	keystroke_r	r	n/a
65.821	0.075	131642	keystroke_Key.backspace	Key.backspace	n/a
65.971	0.12	131942	keystroke_Key.backspace	Key.backspace	n/a
66.106	0.1805	132212	keystroke_r	r	n/a
66.2115	0.165	132423	keystroke_e	e	n/a
66.706	0.1045	133412	keystroke_g	g	n/a
66.9465	0.2245	133893	keystroke_i	i	n/a
67.081	0.135	134162	keystroke_o	o	n/a
67.172	0.1645	134344	keystroke_n	n	n/a
67.5015	0.165	135003	keystroke_s	s	n/a
67.7415	0.1495	135483	keystroke_Key.space	Key.space	n/a
68.2365	0.06	136473	keystroke_b	b	n/a
68.6565	0.12	137313	keystroke_a	a	n/a
69.0015	0.105	138003	keystroke_l	l	n/a
69.2565	0.09	138513	keystroke_o	o	n/a
69.826	0.12	139652	keystroke_r	r	n/a
70.021	0.1355	140042	keystroke_a	a	n/a
70.3515	0.06	140703	keystroke_t	t	n/a
70.5155	0.0905	141031	keystroke_o	o	n/a
70.636	0.15	141272	keystroke_r	r	n/a
70.876	0.09	141752	keystroke_y	y	n/a
71.041	0.12	142082	keystroke_Key.space	Key.space	n/a
71.3415	0.12	142683	keystroke_c	c	n/a
71.4315	0.105	142863	keystroke_o	o	n/a
71.5965	0.09	143193	keystroke_r	r	n/a
71.8365	0.12	143673	keystroke_d	d	n/a
72.0315	0.075	144063	keystroke_Key.enter	Key.enter	n/a
72.113	6.2195	144226	prompt	n/a	assist allowed unity replace\n
72.9015	0.12	145803	keystroke_a	a	n/a
73.1415	0.06	146283	keystroke_s	s	n/a
73.291	0.12	146582	keystroke_s	s	n/a
73.426	0.075	146852	keystroke_i	i	n/a
73.6965	0.015	147393	keystroke_s	s	n/a
73.7865	0.12	147573	keystroke_t	t	n/a
73.9365	0.09	147873	keystroke_Key.space	Key.space	n/a
74.0715	0.105	148143	keystroke_a	a	n/a
74.2515	0.06	148503	keystroke_l	l	n/a
74.3865	0.09	148773	keystroke_l	l	n/a
74.6115	0.075	149223	keystroke_o	o	n/a
74.971	0.105	149942	keystroke_w	w	n/a
75.286	0.105	150572	keystroke_e	e	n/a
75.526	0.1655	151052	keystroke_d	d	n/a
75.7065	0.12	151413	keystroke_Key.space	Key.space	n/a
75.9615	0.105	151923	keystroke_u	u	n/a
76.1715	0.1345	152343	keystroke_n	n	n/a
76.276	0.12	152552	keystroke_i	i	n/a
76.411	0.1355	152822	keystroke_t	t	n/a
76.5915	0.12	153183	keystroke_y	y	n/a
76.7715	0.105	153543	keystroke_Key.space	Key.space	n/a
77.0265	0.15	154053	keystroke_r	r	n/a
77.1315	0.18	154263	keystroke_e	e	n/a
77.3415	0.09	154683	keystroke_p	p	n/a
77.5515	0.1045	155103	keystroke_l	l	n/a
77.701	0.12	155402	keystroke_a	a	n/a
77.986	0.15	155972	keystroke_e	e	n/a
78.271	0.06	156542	keystroke_Key.enter	Key.enter	n/a
78.3375	9.9705	156675	prompt	n/a	pads contain network watches\n
79.3365	0.045	158673	keystroke_p	p	n/a
79.4415	0.135	158883	keystroke_a	a	n/a
79.6365	0.135	159273	keystroke_d	d	n/a
79.8615	0.15	159723	keystroke_s	s	n/a
80.0265	0.105	160053	keystroke_Key.space	Key.space	n/a
80.3865	0.1645	160773	keystroke_c	c	n/a
80.4765	0.1945	160953	keystroke_o	o	n/a
80.566	0.15	161132	keystroke_n	n	n/a
80.746	0.1505	161492	keystroke_t	t	n/a
80.8815	0.15	161763	keystroke_a	a	n/a
81.0615	0.1945	162123	keystroke_i	i	n/a
81.1365	0.1495	162273	keystroke_n	n	n/a
81.271	0.12	162542	keystroke_Key.space	Key.space	n/a
81.466	0.1055	162932	keystroke_b	b	n/a
81.541	0.1205	163082	keystroke_e	e	n/a
81.7065	0.119	163413	keystroke_t	t	n/a
81.9015	0.12	163803	keystroke_w	w	n/a
82.0515	0.105	164103	keystroke_o	o	n/a
82.1715	0.12	164343	keystroke_r	r	n/a
82.3065	0.105	164613	keystroke_k	k	n/a
82.5615	0.105	165123	keystroke_Key.space	Key.space	n/a
83.221	0.075	166442	keystroke_Key.backspace	Key.backspace	n/a
83.401	0.045	166802	keystroke_Key.backspace	Key.backspace	n/a
83.581	0.045	167162	keystroke_Key.backspace	Key.backspace	n/a
83.746	0.045	167492	keystroke_Key.backspace	Key.backspace	n/a
83.896	0.06	167792	keystroke_Key.backspace	Key.backspace	n/a
84.076	0.045	168152	keystroke_Key.backspace	Key.backspace	n/a
84.241	0.06	168482	keystroke_Key.backspace	Key.backspace	n/a
84.406	0.06	168812	keystroke_Key.backspace	Key.backspace	n/a
85.021	0.09	170042	keystroke_n	n	n/a
85.201	0.18	170402	keystroke_e	e	n/a
85.366	0.15	170732	keystroke_t	t	n/a
85.486	0.09	170972	keystroke_Key.space	Key.space	n/a
85.591	0.15	171182	keystroke_w	w	n/a
85.726	0.1055	171452	keystroke_o	o	n/a
85.8465	0.15	171693	keystroke_r	r	n/a
86.0265	0.105	172053	keystroke_k	k	n/a
86.3415	0.12	172683	keystroke_Key.space	Key.space	n/a
86.7765	0.105	173553	keystroke_w	w	n/a
86.9415	0.105	173883	keystroke_a	a	n/a
87.1665	0.075	174333	keystroke_t	t	n/a
87.4215	0.165	174843	keystroke_c	c	n/a
87.6015	0.06	175203	keystroke_h	h	n/a
87.7965	0.105	175593	keystroke_e	e	n/a
87.9765	0.12	175953	keystroke_s	s	n/a
88.2455	0.061	176491	keystroke_Key.enter	Key.enter	n/a
88.311	12.717	176622	prompt	n/a	interracial suggestion tribe representative\n
89.1015	0.105	178203	keystroke_i	i	n/a
89.3115	0.135	178623	keystroke_n	n	n/a
89.5515	0.075	179103	keystroke_t	t	n/a
89.5965	0.255	179193	keystroke_e	e	n/a
89.7765	0.1495	179553	keystroke_r	r	n/a
90.241	0.135	180482	keystroke_r	r	n/a
91.141	0.135	182282	keystroke_a	a	n/a
91.396	0.15	182792	keystroke_c	c	n/a
91.547	0.059	183094	keystroke_i	i	n/a
91.726	0.09	183452	keystroke_a	a	n/a
91.846	0.105	183692	keystroke_l	l	n/a
92.011	0.12	184022	keystroke_Key.space	Key.space	n/a
92.221	0.1355	184442	keystroke_s	s	n/a
92.3415	0.09	184683	keystroke_u	u	n/a
92.5515	0.1045	185103	keystroke_g	g	n/a
92.7465	0.09	185493	keystroke_g	g	n/a
92.9415	0.165	185883	keystroke_e	e	n/a
93.0765	0.135	186153	keystroke_s	s	n/a
93.2265	0.15	186453	keystroke_t	t	n/a
93.4065	0.1945	186813	keystroke_i	i	n/a
93.4365	0.1495	186873	keystroke_o	o	n/a
93.5265	0.1495	187053	keystroke_n	n	n/a
94.321	0.15	188642	keystroke_Key.space	Key.space	n/a
94.906	0.09	189812	keystroke_t	t	n/a
95.071	0.135	190142	keystroke_r	r	n/a
95.221	0.105	190442	keystroke_u	u	n/a
95.416	0.1355	190832	keystroke_b	b	n/a
95.536	0.1205	191072	keystroke_e	e	n/a
95.8665	0.045	191733	keystroke_Key.backspace	Key.backspace	n/a
96.0015	0.06	192003	keystroke_Key.backspace	Key.backspace	n/a
96.1365	0.075	192273	keystroke_Key.backspace	Key.backspace	n/a
96.4655	0.12	192931	keystroke_i	i	n/a
96.721	0.15	193442	keystroke_b	b	n/a
96.826	0.165	193652	keystroke_e	e	n/a
97.1105	0.165	194221	keystroke_Key.space	Key.space	n/a
97.6805	0.135	195361	keystroke_r	r	n/a
97.7705	0.106	195541	keystroke_e	e	n/a
97.9955	0.1055	195991	keystroke_p	p	n/a
98.191	0.27	196382	keystroke_r	r	n/a
98.7465	0.135	197493	keystroke_e	e	n/a
99.301	0.1805	198602	keystroke_s	s	n/a
99.4515	0.1795	198903	keystroke_e	e	n/a
99.556	0.15	199112	keystroke_n	n	n/a
99.751	0.12	199502	keystroke_t	t	n/a
99.931	0.165	199862	keystroke_a	a	n/a
100.156	0.105	200312	keystroke_t	t	n/a
100.381	0.1055	200762	keystroke_i	i	n/a
100.591	0.15	201182	keystroke_v	v	n/a
100.681	0.18	201362	keystroke_e	e	n/a
100.936	0.09	201872	keystroke_Key.enter	Key.enter	n/a
101.0315	5.351	202063	prompt	n/a	specially when loop wise\n
101.8965	0.105	203793	keystroke_s	s	n/a
102.0465	0.105	204093	keystroke_p	p	n/a
102.1815	0.06	204363	keystroke_e	e	n/a
102.3765	0.1345	204753	keystroke_c	c	n/a
102.496	0.09	204992	keystroke_i	i	n/a
102.631	0.105	205262	keystroke_a	a	n/a
102.766	0.06	205532	keystroke_l	l	n/a
102.901	0.09	205802	keystroke_l	l	n/a
103.006	0.135	206012	keystroke_y	y	n/a
103.126	0.15	206252	keystroke_Key.space	Key.space	n/a
103.306	0.165	206612	keystroke_w	w	n/a
103.4565	0.0895	206913	keystroke_h	h	n/a
103.591	0.12	207182	keystroke_e	e	n/a
103.726	0.12	207452	keystroke_n	n	n/a
103.876	0.135	207752	keystroke_Key.space	Key.space	n/a
104.446	0.09	208892	keystroke_l	l	n/a
104.701	0.075	209402	keystroke_o	o	n/a
104.866	0.0605	209732	keystroke_o	o	n/a
105.0465	0.075	210093	keystroke_p	p	n/a
105.2415	0.135	210483	keystroke_Key.space	Key.space	n/a
105.5265	0.105	211053	keystroke_w	w	n/a
105.7665	0.075	211533	keystroke_i	i	n/a
105.8715	0.135	211743	keystroke_s	s	n/a
106.0665	0.105	212133	keystroke_e	e	n/a
106.306	0.075	212612	keystroke_Key.enter	Key.enter	n/a
106.3865	24.8365	212773	prompt	n/a	tires numeric fragrance bracelets\n
107.1315	0.12	214263	keystroke_t	t	n/a
107.371	0.105	214742	keystroke_r	r	n/a
108.0915	0.06	216183	keystroke_Key.backspace	Key.backspace	n/a
108.346	0.105	216692	keystroke_i	i	n/a
108.466	0.135	216932	keystroke_r	r	n/a
108.661	0.12	217322	keystroke_e	e	n/a
108.871	0.1655	217742	keystroke_s	s	n/a
109.1115	0.165	218223	keystroke_Key.space	Key.space	n/a
109.5165	0.105	219033	keystroke_n	n	n/a
109.9215	0.075	219843	keystroke_u	u	n/a
110.3115	0.075	220623	keystroke_m	m	n/a
111.151	0.1805	222302	keystroke_e	e	n/a
111.2865	0.12	222573	keystroke_r	r	n/a
111.4965	0.09	222993	keystroke_i	i	n/a
111.6615	0.18	223323	keystroke_c	c	n/a
111.901	0.12	223802	keystroke_Key.space	Key.space	n/a
112.2015	0.1345	224403	keystroke_f	f	n/a
112.381	0.12	224762	keystroke_r	r	n/a
112.486	0.165	224972	keystroke_a	a	n/a
112.802	0.0745	225604	keystroke_n	n	n/a
113.1915	0.09	226383	keystroke_Key.backspace	Key.backspace	n/a
113.2965	0.165	226593	keystroke_g	g	n/a
113.4015	0.165	226803	keystroke_a	a	n/a
113.5365	0.135	227073	keystroke_r	r	n/a
114.6315	0.06	229263	keystroke_Key.backspace	Key.backspace	n/a
114.8115	0.12	229623	keystroke_a	a	n/a
115.0065	0.12	230013	keystroke_n	n	n/a
115.1865	0.12	230373	keystroke_c	c	n/a
115.2765	0.15	230553	keystroke_e	e	n/a
115.7715	0.0595	231543	keystroke_Key.backspace	Key.backspace	n/a
115.906	0.075	231812	keystroke_Key.backspace	Key.backspace	n/a
116.056	0.075	232112	keystroke_Key.backspace	Key.backspace	n/a
116.191	0.09	232382	keystroke_Key.backspace	Key.backspace	n/a
118.4285	0.073	236857	keystroke_a	a	n/a
118.531	0.121	237062	keystroke_n	n	n/a
118.696	0.105	237392	keystroke_c	c	n/a
118.771	0.15	237542	keystroke_e	e	n/a
121.2785	0.013	242557	keystroke_-	-	n/a
121.4265	0.06	242853	keystroke_-	-	n/a
121.5765	0.075	243153	keystroke_-	-	n/a
121.7565	0.0605	243513	keystroke_-	-	n/a
122.506	0.075	245012	keystroke_Key.backspace	Key.backspace	n/a
122.656	0.06	245312	keystroke_Key.backspace	Key.backspace	n/a
122.806	0.06	245612	keystroke_Key.backspace	Key.backspace	n/a
122.956	0.0605	245912	keystroke_Key.backspace	Key.backspace	n/a
123.106	0.045	246212	keystroke_Key.backspace	Key.backspace	n/a
123.256	0.045	246512	keystroke_Key.backspace	Key.backspace	n/a
123.421	0.045	246842	keystroke_Key.backspace	Key.backspace	n/a
123.586	0.045	247172	keystroke_Key.backspace	Key.backspace	n/a
123.781	0.045	247562	keystroke_Key.backspace	Key.backspace	n/a
124.501	0.18	249002	keystroke_r	r	n/a
124.786	0.15	249572	keystroke_a	a	n/a
124.966	0.09	249932	keystroke_n	n	n/a
127.729	0.073	255458	keystroke_c	c	n/a
127.772	0.165	255544	keystroke_e	e	n/a
128.401	0.1505	256802	keystroke_Key.space	Key.space	n/a
128.7915	0.075	257583	keystroke_b	b	n/a
129.0765	0.105	258153	keystroke_r	r	n/a
129.3465	0.105	258693	keystroke_a	a	n/a
129.6015	0.12	259203	keystroke_c	c	n/a
129.9015	0.105	259803	keystroke_e	e	n/a
130.2165	0.1045	260433	keystroke_l	l	n/a
130.412	0.1345	260824	keystroke_e	e	n/a
130.6515	0.12	261303	keystroke_t	t	n/a
130.8315	0.135	261663	keystroke_s	s	n/a
131.161	0.06	262322	keystroke_Key.enter	Key.enter	n/a
131.226	11.382	262452	prompt	n/a	prostate themselves switched underwear\n
132.0015	0.105	264003	keystroke_p	p	n/a
132.391	0.1505	264782	keystroke_r	r	n/a
132.5565	0.09	265113	keystroke_o	o	n/a
132.9615	0.135	265923	keystroke_s	s	n/a
133.1415	0.12	266283	keystroke_t	t	n/a
133.2765	0.135	266553	keystroke_a	a	n/a
133.4265	0.165	266853	keystroke_t	t	n/a
133.5765	0.195	267153	keystroke_e	e	n/a
133.8765	0.15	267753	keystroke_Key.space	Key.space	n/a
134.2065	0.135	268413	keystroke_t	t	n/a
134.3565	0.105	268713	keystroke_h	h	n/a
134.4615	0.15	268923	keystroke_e	e	n/a
134.7165	0.12	269433	keystroke_m	m	n/a
135.376	0.121	270752	keystroke_e	e	n/a
135.856	0.0605	271712	keystroke_Key.backspace	Key.backspace	n/a
135.9465	0.135	271893	keystroke_s	s	n/a
136.1715	0.135	272343	keystroke_l	l	n/a
136.4115	0.105	272823	keystroke_e	e	n/a
136.7415	0.105	273483	keystroke_v	v	n/a
136.9965	0.06	273993	keystroke_e	e	n/a
137.2515	0.135	274503	keystroke_s	s	n/a
137.5065	0.135	275013	keystroke_Key.space	Key.space	n/a
137.7165	0.12	275433	keystroke_s	s	n/a
138.0615	0.105	276123	keystroke_w	w	n/a
138.2415	0.09	276483	keystroke_i	i	n/a
138.4215	0.09	276843	keystroke_t	t	n/a
138.7215	0.15	277443	keystroke_c	c	n/a
138.8565	0.105	277713	keystroke_h	h	n/a
139.126	0.1655	278252	keystroke_e	e	n/a
139.3965	0.12	278793	keystroke_s	s	n/a
140.2515	0.135	280503	keystroke_Key.space	Key.space	n/a
140.5665	0.09	281133	keystroke_u	u	n/a
140.7765	0.105	281553	keystroke_n	n	n/a
140.8965	0.12	281793	keystroke_d	d	n/a
141.1215	0.255	282243	keystroke_e	e	n/a
141.1965	0.195	282393	keystroke_r	r	n/a
141.661	0.1055	283322	keystroke_w	w	n/a
141.9165	0.195	283833	keystroke_e	e	n/a
142.126	0.0755	284252	keystroke_a	a	n/a
142.2165	0.1495	284433	keystroke_r	r	n/a
142.531	0.075	285062	keystroke_Key.enter	Key.enter	n/a
142.6115	8.7865	285223	prompt	n/a	permalink tent firewall ages\n
143.446	0.151	286892	keystroke_p	p	n/a
143.821	0.196	287642	keystroke_e	e	n/a
144.002	0.119	288004	keystroke_r	r	n/a
144.391	0.09	288782	keystroke_m	m	n/a
144.616	0.12	289232	keystroke_a	a	n/a
145.036	0.106	290072	keystroke_l	l	n/a
145.306	0.075	290612	keystroke_i	i	n/a
145.561	0.135	291122	keystroke_n	n	n/a
145.8465	0.135	291693	keystroke_k	k	n/a
146.1915	0.12	292383	keystroke_Key.space	Key.space	n/a
146.5065	0.135	293013	keystroke_t	t	n/a
146.8665	0.105	293733	keystroke_e	e	n/a
147.0315	0.12	294063	keystroke_n	n	n/a
147.2265	0.15	294453	keystroke_t	t	n/a
147.4215	0.12	294843	keystroke_Key.space	Key.space	n/a
147.751	0.12	295502	keystroke_f	f	n/a
147.886	0.105	295772	keystroke_i	i	n/a
148.291	0.12	296582	keystroke_r	r	n/a
148.471	0.12	296942	keystroke_e	e	n/a
148.9665	0.15	297933	keystroke_w	w	n/a
149.1615	0.09	298323	keystroke_a	a	n/a
149.3115	0.075	298623	keystroke_l	l	n/a
149.4765	0.09	298953	keystroke_l	l	n/a
149.6415	0.135	299283	keystroke_Key.space	Key.space	n/a
149.8065	0.15	299613	keystroke_a	a	n/a
150.0615	0.135	300123	keystroke_n	n	n/a
150.6165	0.075	301233	keystroke_Key.backspace	Key.backspace	n/a
150.6765	0.12	301353	keystroke_g	g	n/a
150.8865	0.15	301773	keystroke_e	e	n/a
151.0665	0.165	302133	keystroke_s	s	n/a
151.3215	0.075	302643	keystroke_Key.enter	Key.enter	n/a
151.401	12.192	302802	prompt	n/a	mental academic stability promotes\n
152.1765	0.135	304353	keystroke_m	m	n/a
152.2965	0.1345	304593	keystroke_e	e	n/a
152.491	0.105	304982	keystroke_n	n	n/a
152.6115	0.165	305223	keystroke_t	t	n/a
152.7615	0.15	305523	keystroke_a	a	n/a
152.9265	0.15	305853	keystroke_l	l	n/a
153.1065	0.135	306213	keystroke_Key.space	Key.space	n/a
153.2865	0.105	306573	keystroke_a	a	n/a
153.5415	0.075	307083	keystroke_c	c	n/a
153.7665	0.105	307533	keystroke_a	a	n/a
153.976	0.075	307952	keystroke_d	d	n/a
154.171	0.09	308342	keystroke_e	e	n/a
154.351	0.09	308702	keystroke_m	m	n/a
154.546	0.09	309092	keystroke_i	i	n/a
154.6965	0.1495	309393	keystroke_c	c	n/a
154.846	0.1205	309692	keystroke_Key.space	Key.space	n/a
155.146	0.1055	310292	keystroke_s	s	n/a
155.416	0.1355	310832	keystroke_t	t	n/a
155.5665	0.135	311133	keystroke_a	a	n/a
155.7615	0.135	311523	keystroke_t	t	n/a
156.3165	0.0595	312633	keystroke_Key.backspace	Key.backspace	n/a
156.406	0.15	312812	keystroke_b	b	n/a
157.486	0.06	314972	keystroke_i	i	n/a
157.667	0.09	315334	keystroke_l	l	n/a
157.877	0.075	315754	keystroke_i	i	n/a
158.0565	0.15	316113	keystroke_t	t	n/a
158.2215	0.09	316443	keystroke_y	y	n/a
158.4315	0.135	316863	keystroke_Key.space	Key.space	n/a
158.7465	0.075	317493	keystroke_p	p	n/a
158.8665	0.12	317733	keystroke_r	r	n/a
159.0015	0.075	318003	keystroke_o	o	n/a
159.2565	0.165	318513	keystroke_n	n	n/a
159.3915	0.105	318783	keystroke_o	o	n/a
159.5565	0.105	319113	keystroke_t	t	n/a
159.7515	0.12	319503	keystroke_e	e	n/a
159.9315	0.12	319863	keystroke_s	s	n/a
160.591	0.06	321182	keystroke_Key.backspace	Key.backspace	n/a
160.756	0.06	321512	keystroke_Key.backspace	Key.backspace	n/a
160.921	0.06	321842	keystroke_Key.backspace	Key.backspace	n/a
161.086	0.075	322172	keystroke_Key.backspace	Key.backspace	n/a
161.491	0.076	322982	keystroke_Key.backspace	Key.backspace	n/a
162.2115	0.075	324423	keystroke_m	m	n/a
162.4065	0.075	324813	keystroke_o	o	n/a
162.676	0.135	325352	keystroke_t	t	n/a
162.901	0.135	325802	keystroke_e	e	n/a
163.171	0.135	326342	keystroke_s	s	n/a
163.486	0.1055	326972	keystroke_Key.enter	Key.enter	n/a
163.596	8.772	327192	prompt	n/a	packets assets domains adjustment\n
164.3715	0.09	328743	keystroke_p	p	n/a
164.5215	0.12	329043	keystroke_a	a	n/a
165.4815	0.18	330963	keystroke_c	c	n/a
165.7365	0.06	331473	keystroke_k	k	n/a
166.6065	0.105	333213	keystroke_e	e	n/a
166.8015	0.12	333603	keystroke_t	t	n/a
167.0265	0.15	334053	keystroke_s	s	n/a
167.1915	0.105	334383	keystroke_Key.space	Key.space	n/a
167.3415	0.105	334683	keystroke_a	a	n/a
167.5815	0.09	335163	keystroke_s	s	n/a
167.7765	0.075	335553	keystroke_s	s	n/a
167.9565	0.105	335913	keystroke_e	e	n/a
168.1665	0.105	336333	keystroke_t	t	n/a
168.3915	0.165	336783	keystroke_s	s	n/a
168.5865	0.12	337173	keystroke_Key.space	Key.space	n/a
168.8565	0.135	337713	keystroke_d	d	n/a
168.9465	0.105	337893	keystroke_o	o	n/a
169.2165	0.105	338433	keystroke_m	m	n/a
169.4265	0.105	338853	keystroke_a	a	n/a
169.6515	0.165	339303	keystroke_i	i	n/a
169.7415	0.15	339483	keystroke_n	n	n/a
170.0265	0.12	340053	keystroke_s	s	n/a
170.2515	0.12	340503	keystroke_Key.space	Key.space	n/a
170.5065	0.12	341013	keystroke_a	a	n/a
170.6865	0.105	341373	keystroke_d	d	n/a
170.9715	0.105	341943	keystroke_j	j	n/a
171.1665	0.105	342333	keystroke_u	u	n/a
171.3165	0.135	342633	keystroke_s	s	n/a
171.4365	0.12	342873	keystroke_t	t	n/a
171.706	0.075	343412	keystroke_m	m	n/a
171.826	0.12	343652	keystroke_e	e	n/a
171.961	0.075	343922	keystroke_n	n	n/a
172.081	0.105	344162	keystroke_t	t	n/a
172.306	0.06	344612	keystroke_Key.enter	Key.enter	n/a
172.3715	6.4615	344743	prompt	n/a	remark launch white although\n
173.041	0.1355	346082	keystroke_r	r	n/a
173.1165	0.15	346233	keystroke_e	e	n/a
173.3415	0.09	346683	keystroke_m	m	n/a
173.5215	0.0445	347043	keystroke_a	a	n/a
173.5365	0.1495	347073	keystroke_r	r	n/a
173.716	0.105	347432	keystroke_k	k	n/a
173.896	0.12	347792	keystroke_Key.space	Key.space	n/a
174.076	0.09	348152	keystroke_l	l	n/a
174.226	0.135	348452	keystroke_a	a	n/a
174.4215	0.075	348843	keystroke_u	u	n/a
174.6615	0.075	349323	keystroke_n	n	n/a
174.8265	0.15	349653	keystroke_c	c	n/a
174.9615	0.105	349923	keystroke_h	h	n/a
175.0965	0.12	350193	keystroke_Key.space	Key.space	n/a
175.2765	0.105	350553	keystroke_w	w	n/a
175.4115	0.12	350823	keystroke_h	h	n/a
175.5165	0.0895	351033	keystroke_i	i	n/a
175.7865	0.12	351573	keystroke_t	t	n/a
175.9215	0.18	351843	keystroke_e	e	n/a
176.1165	0.105	352233	keystroke_Key.space	Key.space	n/a
176.2815	0.1195	352563	keystroke_a	a	n/a
176.401	0.09	352802	keystroke_l	l	n/a
176.611	0.12	353222	keystroke_t	t	n/a
176.761	0.105	353522	keystroke_h	h	n/a
176.851	0.24	353702	keystroke_o	o	n/a
177.7965	0.12	355593	keystroke_u	u	n/a
178.1715	0.09	356343	keystroke_g	g	n/a
178.2765	0.075	356553	keystroke_h	h	n/a
178.771	0.06	357542	keystroke_Key.enter	Key.enter	n/a
178.8355	9.9275	357671	prompt	n/a	wiki caribbean delivers findarticles\n
179.5665	0.09	359133	keystroke_w	w	n/a
179.6715	0.09	359343	keystroke_i	i	n/a
179.8965	0.09	359793	keystroke_k	k	n/a
180.0915	0.075	360183	keystroke_i	i	n/a
180.2715	0.12	360543	keystroke_Key.space	Key.space	n/a
180.4665	0.12	360933	keystroke_c	c	n/a
180.5415	0.09	361083	keystroke_a	a	n/a
180.7065	0.135	361413	keystroke_r	r	n/a
181.2015	0.09	362403	keystroke_i	i	n/a
181.727	0.135	363454	keystroke_b	b	n/a
181.982	0.12	363964	keystroke_b	b	n/a
182.611	0.12	365222	keystroke_e	e	n/a
182.8665	0.1345	365733	keystroke_a	a	n/a
183.286	0.09	366572	keystroke_n	n	n/a
183.7215	0.15	367443	keystroke_Key.space	Key.space	n/a
184.172	0.09	368344	keystroke_d	d	n/a
184.3665	0.06	368733	keystroke_e	e	n/a
184.5465	0.075	369093	keystroke_l	l	n/a
184.7115	0.12	369423	keystroke_i	i	n/a
184.8015	0.18	369603	keystroke_v	v	n/a
184.9515	0.195	369903	keystroke_e	e	n/a
185.0715	0.12	370143	keystroke_r	r	n/a
185.4165	0.12	370833	keystroke_s	s	n/a
185.6415	0.15	371283	keystroke_Key.space	Key.space	n/a
185.9715	0.12	371943	keystroke_f	f	n/a
186.2415	0.12	372483	keystroke_i	i	n/a
186.541	0.12	373082	keystroke_n	n	n/a
186.797	0.12	373594	keystroke_d	d	n/a
187.097	0.105	374194	keystroke_a	a	n/a
187.307	0.12	374614	keystroke_r	r	n/a
187.5915	0.03	375183	keystroke_t	t	n/a
187.6515	0.09	375303	keystroke_i	i	n/a
187.861	0.135	375722	keystroke_c	c	n/a
188.101	0.075	376202	keystroke_l	l	n/a
188.251	0.105	376502	keystroke_e	e	n/a
188.446	0.106	376892	keystroke_s	s	n/a
188.702	0.06	377404	keystroke_Key.enter	Key.enter	n/a
188.7665	12.6115	377533	prompt	n/a	discover literary stan imaging\n
189.706	0.121	379412	keystroke_d	d	n/a
189.857	0.09	379714	keystroke_i	i	n/a
189.977	0.105	379954	keystroke_s	s	n/a
190.217	0.12	380434	keystroke_c	c	n/a
190.352	0.09	380704	keystroke_o	o	n/a
190.5615	0.165	381123	keystroke_v	v	n/a
190.7265	0.1345	381453	keystroke_e	e	n/a
190.786	0.18	381572	keystroke_r	r	n/a
190.951	0.165	381902	keystroke_Key.space	Key.space	n/a
191.161	0.09	382322	keystroke_l	l	n/a
191.341	0.075	382682	keystroke_i	i	n/a
191.506	0.1205	383012	keystroke_t	t	n/a
191.7465	0.135	383493	keystroke_r	r	n/a
192.0465	0.1355	384093	keystroke_a	a	n/a
192.332	0.105	384664	keystroke_r	r	n/a
192.5565	0.06	385113	keystroke_y	y	n/a
192.8415	0.1345	385683	keystroke_Key.space	Key.space	n/a
193.756	0.06	387512	keystroke_Key.backspace	Key.backspace	n/a
193.936	0.06	387872	keystroke_Key.backspace	Key.backspace	n/a
194.116	0.045	388232	keystroke_Key.backspace	Key.backspace	n/a
194.281	0.075	388562	keystroke_Key.backspace	Key.backspace	n/a
194.492	0.059	388984	keystroke_Key.backspace	Key.backspace	n/a
194.911	0.136	389822	keystroke_e	e	n/a
195.121	0.121	390242	keystroke_r	r	n/a
195.286	0.15	390572	keystroke_Key.space	Key.space	n/a
195.721	0.09	391442	keystroke_Key.backspace	Key.backspace	n/a
195.826	0.15	391652	keystroke_a	a	n/a
196.021	0.15	392042	keystroke_r	r	n/a
196.3515	0.0605	392703	keystroke_y	y	n/a
196.681	0.12	393362	keystroke_Key.space	Key.space	n/a
196.891	0.075	393782	keystroke_s	s	n/a
196.982	0.134	393964	keystroke_t	t	n/a
197.132	0.135	394264	keystroke_a	a	n/a
197.341	0.105	394682	keystroke_n	n	n/a
197.551	0.1205	395102	keystroke_Key.space	Key.space	n/a
197.8065	0.09	395613	keystroke_u	u	n/a
198.1065	0.075	396213	keystroke_n	n	n/a
198.6615	0.06	397323	keystroke_Key.backspace	Key.backspace	n/a
198.8115	0.09	397623	keystroke_Key.backspace	Key.backspace	n/a
199.651	0.075	399302	keystroke_i	i	n/a
199.922	0.059	399844	keystroke_m	m	n/a
200.116	0.12	400232	keystroke_a	a	n/a
200.5515	0.09	401103	keystroke_g	g	n/a
200.7015	0.195	401403	keystroke_i	i	n/a
200.8365	0.09	401673	keystroke_n	n	n/a
201.0165	0.105	402033	keystroke_g	g	n/a
201.3015	0.075	402603	keystroke_Key.enter	Key.enter	n/a
201.3815	6.9565	402763	prompt	n/a	lodge investing cisco reject\n
202.081	0.09	404162	keystroke_l	l	n/a
202.291	0.075	404582	keystroke_o	o	n/a
202.516	0.12	405032	keystroke_d	d	n/a
202.861	0.105	405722	keystroke_g	g	n/a
203.101	0.12	406202	keystroke_e	e	n/a
203.356	0.12	406712	keystroke_Key.space	Key.space	n/a
203.641	0.09	407282	keystroke_i	i	n/a
203.791	0.12	407582	keystroke_n	n	n/a
204.001	0.09	408002	keystroke_v	v	n/a
204.241	0.18	408482	keystroke_e	e	n/a
204.361	0.12	408722	keystroke_s	s	n/a
204.511	0.12	409022	keystroke_t	t	n/a
204.662	0.225	409324	keystroke_i	i	n/a
204.7665	0.165	409533	keystroke_n	n	n/a
204.8715	0.135	409743	keystroke_g	g	n/a
204.9615	0.135	409923	keystroke_Key.space	Key.space	n/a
205.5765	0.135	411153	keystroke_c	c	n/a
205.6815	0.0745	411363	keystroke_i	i	n/a
205.876	0.105	411752	keystroke_s	s	n/a
206.206	0.105	412412	keystroke_c	c	n/a
206.356	0.0905	412712	keystroke_o	o	n/a
206.5965	0.09	413193	keystroke_Key.space	Key.space	n/a
206.8965	0.09	413793	keystroke_r	r	n/a
206.9415	0.165	413883	keystroke_e	e	n/a
207.1365	0.12	414273	keystroke_j	j	n/a
207.616	0.075	415232	keystroke_e	e	n/a
207.856	0.0905	415712	keystroke_c	c	n/a
208.0815	0.075	416163	keystroke_t	t	n/a
208.2465	0.09	416493	keystroke_Key.enter	Key.enter	n/a
208.3425	13.6005	416685	prompt	n/a	trio rover rich character\n
209.0115	0.1045	418023	keystroke_t	t	n/a
209.221	0.1355	418442	keystroke_r	r	n/a
209.3715	0.105	418743	keystroke_i	i	n/a
209.6565	0.09	419313	keystroke_p	p	n/a
210.6465	0.075	421293	keystroke_Key.backspace	Key.backspace	n/a
210.9165	0.09	421833	keystroke_p	p	n/a
211.0965	0.105	422193	keystroke_Key.space	Key.space	n/a
211.4715	0.1045	422943	keystroke_r	r	n/a
211.591	0.0905	423182	keystroke_o	o	n/a
211.951	0.06	423902	keystroke_Key.backspace	Key.backspace	n/a
212.1165	0.0445	424233	keystroke_Key.backspace	Key.backspace	n/a
212.251	0.0605	424502	keystroke_Key.backspace	Key.backspace	n/a
212.5065	0.0605	425013	keystroke_Key.backspace	Key.backspace	n/a
213.137	0.09	426274	keystroke_p	p	n/a
213.887	0.0445	427774	keystroke_Key.backspace	Key.backspace	n/a
214.1265	0.0755	428253	keystroke_o	o	n/a
214.456	0.135	428912	keystroke_r	r	n/a
215.041	0.075	430082	keystroke_Key.backspace	Key.backspace	n/a
215.191	0.135	430382	keystroke_Key.space	Key.space	n/a
215.371	0.12	430742	keystroke_r	r	n/a
215.521	0.015	431042	keystroke_o	o	n/a
215.9715	0.165	431943	keystroke_v	v	n/a
216.1665	0.165	432333	keystroke_e	e	n/a
216.3165	0.1355	432633	keystroke_r	r	n/a
216.601	0.1055	433202	keystroke_Key.space	Key.space	n/a
216.9315	0.15	433863	keystroke_r	r	n/a
217.0665	0.135	434133	keystroke_i	i	n/a
217.6215	0.1345	435243	keystroke_c	c	n/a
217.8015	0.06	435603	keystroke_h	h	n/a
218.6115	0.12	437223	keystroke_Key.space	Key.space	n/a
219.1515	0.15	438303	keystroke_c	c	n/a
219.3165	0.0895	438633	keystroke_h	h	n/a
219.6765	0.105	439353	keystroke_a	a	n/a
219.9915	0.12	439983	keystroke_r	r	n/a
220.2615	0.105	440523	keystroke_a	a	n/a
220.5165	0.12	441033	keystroke_c	c	n/a
220.7265	0.105	441453	keystroke_h	h	n/a
221.1915	0.0895	442383	keystroke_Key.backspace	Key.backspace	n/a
221.296	0.135	442592	keystroke_t	t	n/a
221.491	0.15	442982	keystroke_e	e	n/a
221.611	0.135	443222	keystroke_r	r	n/a
221.851	0.09	443702	keystroke_Key.enter	Key.enter	n/a
221.946	13.932	443892	prompt	n/a	clone poem cambridge elephant\n
222.721	0.15	445442	keystroke_c	c	n/a
222.856	0.075	445712	keystroke_l	l	n/a
223.051	0.075	446102	keystroke_o	o	n/a
223.201	0.105	446402	keystroke_n	n	n/a
223.366	0.12	446732	keystroke_e	e	n/a
223.456	0.1355	446912	keystroke_Key.space	Key.space	n/a
223.8465	0.0745	447693	keystroke_p	p	n/a
224.056	0.075	448112	keystroke_o	o	n/a
224.311	0.105	448622	keystroke_e	e	n/a
224.536	0.09	449072	keystroke_m	m	n/a
225.1065	0.1645	450213	keystroke_Key.space	Key.space	n/a
225.526	0.121	451052	keystroke_c	c	n/a
225.707	0.12	451414	keystroke_a	a	n/a
225.872	0.09	451744	keystroke_m	m	n/a
226.231	0.06	452462	keystroke_b	b	n/a
226.711	0.105	453422	keystroke_i	i	n/a
227.2665	0.075	454533	keystroke_Key.backspace	Key.backspace	n/a
227.4015	0.12	454803	keystroke_r	r	n/a
227.5815	0.075	455163	keystroke_i	i	n/a
227.7465	0.09	455493	keystroke_g	g	n/a
228.4065	0.075	456813	keystroke_Key.backspace	Key.backspace	n/a
228.4665	0.135	456933	keystroke_d	d	n/a
228.6615	0.18	457323	keystroke_g	g	n/a
228.7965	0.195	457593	keystroke_e	e	n/a
229.622	0.105	459244	keystroke_e	e	n/a
229.772	0.105	459544	keystroke_l	l	n/a
229.862	0.12	459724	keystroke_e	e	n/a
230.162	0.09	460324	keystroke_p	p	n/a
230.387	0.06	460774	keystroke_h	h	n/a
230.537	0.135	461074	keystroke_a	a	n/a
230.656	0.091	461312	keystroke_n	n	n/a
230.852	0.0895	461704	keystroke_t	t	n/a
231.4665	0.075	462933	keystroke_Key.backspace	Key.backspace	n/a
231.6465	0.06	463293	keystroke_Key.backspace	Key.backspace	n/a
231.8265	0.06	463653	keystroke_Key.backspace	Key.backspace	n/a
232.0065	0.06	464013	keystroke_Key.backspace	Key.backspace	n/a
232.1715	0.06	464343	keystroke_Key.backspace	Key.backspace	n/a
232.3515	0.06	464703	keystroke_Key.backspace	Key.backspace	n/a
232.5315	0.06	465063	keystroke_Key.backspace	Key.backspace	n/a
232.7415	0.06	465483	keystroke_Key.backspace	Key.backspace	n/a
232.9815	0.1355	465963	keystroke_Key.space	Key.space	n/a
233.192	0.119	466384	keystroke_e	e	n/a
233.401	0.076	466802	keystroke_l	l	n/a
233.8365	0.12	467673	keystroke_e	e	n/a
234.872	0.104	469744	keystroke_p	p	n/a
235.082	0.089	470164	keystroke_h	h	n/a
235.231	0.151	470462	keystroke_a	a	n/a
235.367	0.09	470734	keystroke_n	n	n/a
235.517	0.135	471034	keystroke_t	t	n/a
235.7865	0.09	471573	keystroke_Key.enter	Key.enter	n/a
235.8815	9.7765	471763	prompt	n/a	observed genuine topics washing\n
236.6265	0.105	473253	keystroke_o	o	n/a
236.7915	0.135	473583	keystroke_v	v	n/a
237.0315	0.1645	474063	keystroke_e	e	n/a
237.6465	0.06	475293	keystroke_Key.backspace	Key.backspace	n/a
237.8265	0.12	475653	keystroke_s	s	n/a
238.2915	0.015	476583	keystroke_Key.backspace	Key.backspace	n/a
238.3815	0.075	476763	keystroke_Key.backspace	Key.backspace	n/a
238.636	0.135	477272	keystroke_b	b	n/a
239.086	0.12	478172	keystroke_s	s	n/a
239.326	0.195	478652	keystroke_e	e	n/a
239.491	0.1205	478982	keystroke_r	r	n/a
239.851	0.09	479702	keystroke_v	v	n/a
240.061	0.075	480122	keystroke_e	e	n/a
240.286	0.12	480572	keystroke_d	d	n/a
240.421	0.09	480842	keystroke_Key.space	Key.space	n/a
240.781	0.09	481562	keystroke_g	g	n/a
240.976	0.1055	481952	keystroke_e	e	n/a
241.186	0.1055	482372	keystroke_n	n	n/a
241.6665	0.09	483333	keystroke_u	u	n/a
241.9365	0.075	483873	keystroke_i	i	n/a
242.1165	0.105	484233	keystroke_n	n	n/a
242.282	0.12	484564	keystroke_e	e	n/a
242.402	0.119	484804	keystroke_Key.space	Key.space	n/a
242.671	0.075	485342	keystroke_t	t	n/a
242.866	0.075	485732	keystroke_o	o	n/a
243.091	0.075	486182	keystroke_p	p	n/a
243.302	0.074	486604	keystroke_i	i	n/a
243.481	0.105	486962	keystroke_c	c	n/a
243.736	0.12	487472	keystroke_s	s	n/a
243.9315	0.12	487863	keystroke_Key.space	Key.space	n/a
244.1715	0.105	488343	keystroke_w	w	n/a
244.3515	0.135	488703	keystroke_a	a	n/a
244.6665	0.15	489333	keystroke_s	s	n/a
244.8465	0.075	489693	keystroke_h	h	n/a
245.1015	0.1955	490203	keystroke_i	i	n/a
245.1915	0.1655	490383	keystroke_n	n	n/a
245.342	0.09	490684	keystroke_g	g	n/a
245.6265	0.03	491253	keystroke_Key.enter	Key.enter	n/a
245.6605	10.903	491321	prompt	n/a	walk stage occasion mortgages\n
246.3615	0.1205	492723	keystroke_w	w	n/a
246.571	0.18	493142	keystroke_a	a	n/a
246.737	0.149	493474	keystroke_l	l	n/a
246.872	0.134	493744	keystroke_k	k	n/a
247.111	0.12	494222	keystroke_Key.space	Key.space	n/a
247.5465	0.12	495093	keystroke_s	s	n/a
247.8465	0.135	495693	keystroke_t	t	n/a
247.9825	0.134	495965	keystroke_a	a	n/a
248.1915	0.165	496383	keystroke_g	g	n/a
248.2965	0.18	496593	keystroke_e	e	n/a
248.506	0.12	497012	keystroke_Key.space	Key.space	n/a
249.2565	0.0895	498513	keystroke_o	o	n/a
249.421	0.09	498842	keystroke_c	c	n/a
249.5865	0.1195	499173	keystroke_c	c	n/a
249.811	0.12	499622	keystroke_a	a	n/a
250.126	0.09	500252	keystroke_s	s	n/a
250.411	0.045	500822	keystroke_i	i	n/a
250.742	0.105	501484	keystroke_o	o	n/a
250.802	0.12	501604	keystroke_n	n	n/a
252.122	0.15	504244	keystroke_Key.space	Key.space	n/a
252.796	0.091	505592	keystroke_m	m	n/a
253.037	0.15	506074	keystroke_a	a	n/a
253.6215	0.015	507243	keystroke_Key.backspace	Key.backspace	n/a
253.801	0.091	507602	keystroke_o	o	n/a
254.042	0.134	508084	keystroke_r	r	n/a
254.312	0.105	508624	keystroke_t	t	n/a
254.492	0.1195	508984	keystroke_a	a	n/a
254.9415	0.09	509883	keystroke_Key.backspace	Key.backspace	n/a
255.1215	0.105	510243	keystroke_g	g	n/a
255.2565	0.105	510513	keystroke_a	a	n/a
255.691	0.1205	511382	keystroke_g	g	n/a
255.9165	0.12	511833	keystroke_e	e	n/a
256.1265	0.12	512253	keystroke_s	s	n/a
256.4715	0.09	512943	keystroke_Key.enter	Key.enter	n/a
256.5675	11.9655	513135	prompt	n/a	tournaments domestic metadata ensemble\n
257.5515	0.135	515103	keystroke_t	t	n/a
257.7615	0.225	515523	keystroke_o	o	n/a
257.8365	0.21	515673	keystroke_u	u	n/a
258.1665	0.135	516333	keystroke_r	r	n/a
258.601	0.105	517202	keystroke_n	n	n/a
259.1415	0.12	518283	keystroke_a	a	n/a
259.4715	0.0905	518943	keystroke_m	m	n/a
259.637	0.135	519274	keystroke_e	e	n/a
259.787	0.09	519574	keystroke_n	n	n/a
259.907	0.12	519814	keystroke_t	t	n/a
260.072	0.2095	520144	keystroke_s	s	n/a
260.2665	0.105	520533	keystroke_Key.space	Key.space	n/a
260.4615	0.105	520923	keystroke_d	d	n/a
260.8065	0.105	521613	keystroke_o	o	n/a
261.0615	0.105	522123	keystroke_m	m	n/a
261.1815	0.12	522363	keystroke_e	e	n/a
261.4815	0.09	522963	keystroke_s	s	n/a
261.827	0.06	523654	keystroke_t	t	n/a
261.932	0.074	523864	keystroke_i	i	n/a
262.127	0.12	524254	keystroke_c	c	n/a
262.262	0.09	524524	keystroke_Key.space	Key.space	n/a
262.412	0.09	524824	keystroke_m	m	n/a
262.607	0.105	525214	keystroke_a	a	n/a
263.5815	0.09	527163	keystroke_Key.backspace	Key.backspace	n/a
263.7015	0.135	527403	keystroke_e	e	n/a
263.9115	0.12	527823	keystroke_t	t	n/a
264.0615	0.135	528123	keystroke_a	a	n/a
264.3315	0.1055	528663	keystroke_d	d	n/a
264.5415	0.09	529083	keystroke_a	a	n/a
265.3065	0.105	530613	keystroke_t	t	n/a
265.5015	0.12	531003	keystroke_a	a	n/a
266.2515	0.09	532503	keystroke_Key.space	Key.space	n/a
266.6415	0.135	533283	keystroke_e	e	n/a
266.7915	0.12	533583	keystroke_n	n	n/a
267.2115	0.09	534423	keystroke_s	s	n/a
267.4365	0.09	534873	keystroke_e	e	n/a
267.587	0.09	535174	keystroke_m	m	n/a
267.872	0.075	535744	keystroke_b	b	n/a
268.021	0.091	536042	keystroke_l	l	n/a
268.292	0.014	536584	keystroke_e	e	n/a
268.427	0.105	536854	keystroke_Key.enter	Key.enter	n/a
268.536	7.662	537072	prompt	n/a	audit separation sectors coat\n
269.327	0.075	538654	keystroke_a	a	n/a
269.522	0.1045	539044	keystroke_u	u	n/a
269.6715	0.135	539343	keystroke_d	d	n/a
269.8515	0.06	539703	keystroke_i	i	n/a
270.0615	0.135	540123	keystroke_t	t	n/a
270.2115	0.1195	540423	keystroke_Key.space	Key.space	n/a
270.437	0.15	540874	keystroke_s	s	n/a
270.707	0.09	541414	keystroke_e	e	n/a
270.962	0.075	541924	keystroke_p	p	n/a
271.232	0.104	542464	keystroke_a	a	n/a
271.471	0.1055	542942	keystroke_r	r	n/a
272.536	0.091	545072	keystroke_a	a	n/a
272.8065	0.09	545613	keystroke_t	t	n/a
273.016	0.225	546032	keystroke_i	i	n/a
273.107	0.149	546214	keystroke_o	o	n/a
273.196	0.15	546392	keystroke_n	n	n/a
273.331	0.105	546662	keystroke_Key.space	Key.space	n/a
273.556	0.105	547112	keystroke_s	s	n/a
273.736	0.06	547472	keystroke_e	e	n/a
273.947	0.105	547894	keystroke_c	c	n/a
274.262	0.15	548524	keystroke_t	t	n/a
274.4715	0.105	548943	keystroke_o	o	n/a
274.6665	0.09	549333	keystroke_r	r	n/a
274.8915	0.135	549783	keystroke_s	s	n/a
275.1165	0.12	550233	keystroke_Key.space	Key.space	n/a
275.402	0.12	550804	keystroke_c	c	n/a
275.506	0.0905	551012	keystroke_o	o	n/a
275.6715	0.09	551343	keystroke_a	a	n/a
275.8365	0.135	551673	keystroke_t	t	n/a
276.1365	0.06	552273	keystroke_Key.enter	Key.enter	n/a
276.201	8.277	552402	prompt	n/a	global humidity rubber input\n
276.9915	0.135	553983	keystroke_g	g	n/a
277.1415	0.075	554283	keystroke_l	l	n/a
277.3515	0.06	554703	keystroke_o	o	n/a
277.4865	0.105	554973	keystroke_b	b	n/a
277.6065	0.135	555213	keystroke_a	a	n/a
277.802	0.105	555604	keystroke_l	l	n/a
278.026	0.105	556052	keystroke_Key.space	Key.space	n/a
278.416	0.1805	556832	keystroke_h	h	n/a
278.581	0.1205	557162	keystroke_u	u	n/a
278.8665	0.12	557733	keystroke_n	n	n/a
279.016	0.1205	558032	keystroke_i	i	n/a
279.5115	0.12	559023	keystroke_d	d	n/a
279.6165	0.09	559233	keystroke_i	i	n/a
279.8115	0.105	559623	keystroke_t	t	n/a
279.9615	0.09	559923	keystroke_y	y	n/a
280.111	0.09	560222	keystroke_Key.space	Key.space	n/a
280.336	0.106	560672	keystroke_r	r	n/a
280.472	0.105	560944	keystroke_u	u	n/a
280.7565	0.075	561513	keystroke_b	b	n/a
280.9215	0.06	561843	keystroke_b	b	n/a
281.1015	0.18	562203	keystroke_e	e	n/a
281.1765	0.18	562353	keystroke_r	r	n/a
281.6115	0.12	563223	keystroke_Key.space	Key.space	n/a
283.1865	0.075	566373	keystroke_i	i	n/a
283.3965	0.075	566793	keystroke_n	n	n/a
283.621	0.09	567242	keystroke_p	p	n/a
283.876	0.06	567752	keystroke_u	u	n/a
284.131	0.105	568262	keystroke_t	t	n/a
284.386	0.09	568772	keystroke_Key.enter	Key.enter	n/a
284.4815	15.0265	568963	prompt	n/a	salvador unique commander sharon\n
288.1995	0.057	576399	keystroke_s	s	n/a
288.4215	0.105	576843	keystroke_a	a	n/a
288.7665	0.225	577533	keystroke_l	l	n/a
289.021	0.121	578042	keystroke_a	a	n/a
289.532	0.15	579064	keystroke_v	v	n/a
290.987	0.0745	581974	keystroke_Key.backspace	Key.backspace	n/a
291.1515	0.075	582303	keystroke_Key.backspace	Key.backspace	n/a
292.172	0.18	584344	keystroke_v	v	n/a
292.382	0.1345	584764	keystroke_a	a	n/a
292.727	0.12	585454	keystroke_d	d	n/a
292.9065	0.12	585813	keystroke_o	o	n/a
293.087	0.15	586174	keystroke_r	r	n/a
293.267	0.165	586534	keystroke_Key.space	Key.space	n/a
293.822	0.09	587644	keystroke_u	u	n/a
294.017	0.135	588034	keystroke_n	n	n/a
294.137	0.105	588274	keystroke_i	i	n/a
294.302	0.1045	588604	keystroke_q	q	n/a
294.4215	0.135	588843	keystroke_u	u	n/a
294.5865	0.165	589173	keystroke_e	e	n/a
294.7965	0.12	589593	keystroke_Key.space	Key.space	n/a
295.0215	0.135	590043	keystroke_c	c	n/a
295.1115	0.12	590223	keystroke_o	o	n/a
295.3965	0.075	590793	keystroke_m	m	n/a
295.5315	0.105	591063	keystroke_m	m	n/a
295.847	0.135	591694	keystroke_a	a	n/a
295.997	0.105	591994	keystroke_n	n	n/a
296.132	0.09	592264	keystroke_d	d	n/a
296.357	0.195	592714	keystroke_e	e	n/a
296.492	0.15	592984	keystroke_r	r	n/a
296.597	0.105	593194	keystroke_Key.space	Key.space	n/a
296.807	0.135	593614	keystroke_s	s	n/a
296.927	0.12	593854	keystroke_h	h	n/a
297.1215	0.075	594243	keystroke_a	a	n/a
297.2565	0.12	594513	keystroke_r	r	n/a
298.922	0.09	597844	keystroke_o	o	n/a
299.132	0.09	598264	keystroke_n	n	n/a
299.447	0.06	598894	keystroke_Key.enter	Key.enter	n/a
299.511	11.052	599022	prompt	n/a	households perry thereby soldiers\n
300.2265	0.09	600453	keystroke_l	l	n/a
300.722	0.225	601444	keystroke_o	o	n/a
300.811	0.165	601622	keystroke_u	u	n/a
301.336	0.061	602672	keystroke_Key.backspace	Key.backspace	n/a
301.486	0.046	602972	keystroke_Key.backspace	Key.backspace	n/a
301.6215	0.075	603243	keystroke_Key.backspace	Key.backspace	n/a
302.2515	0.1495	604503	keystroke_h	h	n/a
302.371	0.1955	604742	keystroke_o	o	n/a
302.462	0.1195	604924	keystroke_u	u	n/a
302.6715	0.165	605343	keystroke_s	s	n/a
303.1665	0.12	606333	keystroke_e	e	n/a
303.602	0.105	607204	keystroke_h	h	n/a
303.662	0.15	607324	keystroke_o	o	n/a
303.9765	0.105	607953	keystroke_l	l	n/a
304.1265	0.18	608253	keystroke_d	d	n/a
304.592	0.135	609184	keystroke_s	s	n/a
304.937	0.12	609874	keystroke_Key.space	Key.space	n/a
305.192	0.09	610384	keystroke_p	p	n/a
305.492	0.12	610984	keystroke_e	e	n/a
305.912	0.1195	611824	keystroke_r	r	n/a
306.0915	0.135	612183	keystroke_r	r	n/a
306.2565	0.12	612513	keystroke_y	y	n/a
306.4515	0.12	612903	keystroke_Key.space	Key.space	n/a
306.692	0.104	613384	keystroke_t	t	n/a
306.811	0.12	613622	keystroke_h	h	n/a
306.962	0.149	613924	keystroke_e	e	n/a
307.141	0.15	614282	keystroke_r	r	n/a
307.247	0.165	614494	keystroke_e	e	n/a
307.577	0.135	615154	keystroke_b	b	n/a
307.697	0.12	615394	keystroke_y	y	n/a
307.952	0.1345	615904	keystroke_Key.space	Key.space	n/a
308.1615	0.15	616323	keystroke_s	s	n/a
308.2965	0.105	616593	keystroke_o	o	n/a
308.552	0.105	617104	keystroke_l	l	n/a
308.732	0.105	617464	keystroke_d	d	n/a
308.942	0.18	617884	keystroke_e	e	n/a
309.077	0.165	618154	keystroke_r	r	n/a
309.392	0.15	618784	keystroke_e	e	n/a
309.932	0.09	619864	keystroke_Key.backspace	Key.backspace	n/a
310.142	0.12	620284	keystroke_s	s	n/a
310.487	0.075	620974	keystroke_Key.enter	Key.enter	n/a
310.5665	8.6515	621133	prompt	n/a	dome consciousness begins attached\n
311.267	0.105	622534	keystroke_d	d	n/a
311.6265	0.105	623253	keystroke_o	o	n/a
311.8665	0.105	623733	keystroke_m	m	n/a
311.9865	0.15	623973	keystroke_e	e	n/a
312.1665	0.135	624333	keystroke_Key.space	Key.space	n/a
312.467	0.15	624934	keystroke_c	c	n/a
312.572	0.15	625144	keystroke_o	o	n/a
312.647	0.12	625294	keystroke_n	n	n/a
313.592	0.09	627184	keystroke_s	s	n/a
314.012	0.135	628024	keystroke_c	c	n/a
314.177	0.135	628354	keystroke_i	i	n/a
314.462	0.18	628924	keystroke_o	o	n/a
314.552	0.12	629104	keystroke_u	u	n/a
314.762	0.12	629524	keystroke_s	s	n/a
315.3165	0.12	630633	keystroke_n	n	n/a
315.572	0.09	631144	keystroke_e	e	n/a
315.767	0.09	631534	keystroke_s	s	n/a
315.947	0.12	631894	keystroke_s	s	n/a
316.097	0.1195	632194	keystroke_Key.space	Key.space	n/a
316.3065	0.09	632613	keystroke_b	b	n/a
316.4265	0.09	632853	keystroke_e	e	n/a
316.6515	0.105	633303	keystroke_g	g	n/a
316.8165	0.165	633633	keystroke_i	i	n/a
316.9065	0.12	633813	keystroke_n	n	n/a
317.1015	0.165	634203	keystroke_s	s	n/a
317.3415	0.12	634683	keystroke_Key.space	Key.space	n/a
317.5815	0.075	635163	keystroke_a	a	n/a
317.7765	0.06	635553	keystroke_t	t	n/a
317.9265	0.075	635853	keystroke_t	t	n/a
318.0615	0.135	636123	keystroke_a	a	n/a
318.3915	0.12	636783	keystroke_c	c	n/a
318.5565	0.075	637113	keystroke_h	h	n/a
318.7365	0.075	637473	keystroke_e	e	n/a
318.932	0.12	637864	keystroke_d	d	n/a
319.142	0.075	638284	keystroke_Key.enter	Key.enter	n/a
319.223	6.61	638446	prompt	n/a	disputes character use lack\n
319.997	0.105	639994	keystroke_d	d	n/a
320.102	0.12	640204	keystroke_i	i	n/a
320.237	0.09	640474	keystroke_s	s	n/a
320.462	0.105	640924	keystroke_p	p	n/a
320.672	0.09	641344	keystroke_u	u	n/a
320.867	0.135	641734	keystroke_t	t	n/a
320.972	0.135	641944	keystroke_e	e	n/a
321.257	0.15	642514	keystroke_s	s	n/a
321.826	0.12	643652	keystroke_Key.space	Key.space	n/a
322.097	0.15	644194	keystroke_c	c	n/a
322.247	0.09	644494	keystroke_h	h	n/a
322.472	0.12	644944	keystroke_a	a	n/a
322.907	0.105	645814	keystroke_r	r	n/a
323.131	0.1355	646262	keystroke_a	a	n/a
323.507	0.12	647014	keystroke_c	c	n/a
323.8515	0.1055	647703	keystroke_t	t	n/a
323.9875	0.1945	647975	keystroke_e	e	n/a
324.122	0.15	648244	keystroke_r	r	n/a
324.241	0.1355	648482	keystroke_Key.space	Key.space	n/a
324.4975	0.104	648995	keystroke_u	u	n/a
324.6025	0.179	649205	keystroke_s	s	n/a
324.7515	0.165	649503	keystroke_e	e	n/a
324.8715	0.12	649743	keystroke_Key.space	Key.space	n/a
325.0215	0.075	650043	keystroke_l	l	n/a
325.127	0.105	650254	keystroke_a	a	n/a
325.322	0.135	650644	keystroke_c	c	n/a
325.472	0.0895	650944	keystroke_k	k	n/a
325.7865	0.045	651573	keystroke_Key.enter	Key.enter	n/a
325.836	9.087	651672	prompt	n/a	customize grid oils annie\n
326.6275	0.1645	653255	keystroke_c	c	n/a
326.777	0.1045	653554	keystroke_u	u	n/a
327.077	0.09	654154	keystroke_s	s	n/a
327.842	0.105	655684	keystroke_t	t	n/a
328.007	0.075	656014	keystroke_o	o	n/a
328.232	0.105	656464	keystroke_m	m	n/a
328.412	0.0745	656824	keystroke_i	i	n/a
328.5465	0.1205	657093	keystroke_z	z	n/a
328.727	0.195	657454	keystroke_e	e	n/a
328.877	0.105	657754	keystroke_Key.space	Key.space	n/a
329.252	0.06	658504	keystroke_g	g	n/a
329.387	0.105	658774	keystroke_r	r	n/a
329.6265	0.045	659253	keystroke_i	i	n/a
330.1065	0.09	660213	keystroke_d	d	n/a
330.3315	0.12	660663	keystroke_Key.space	Key.space	n/a
330.7365	0.105	661473	keystroke_i	i	n/a
330.9915	0.075	661983	keystroke_o	o	n/a
331.2765	0.0905	662553	keystroke_l	l	n/a
331.6965	0.045	663393	keystroke_Key.backspace	Key.backspace	n/a
331.8165	0.06	663633	keystroke_Key.backspace	Key.backspace	n/a
331.9665	0.075	663933	keystroke_Key.backspace	Key.backspace	n/a
332.6715	0.076	665343	keystroke_o	o	n/a
332.8665	0.061	665733	keystroke_i	i	n/a
333.0915	0.075	666183	keystroke_l	l	n/a
333.4975	0.149	666995	keystroke_s	s	n/a
333.7515	0.1355	667503	keystroke_Key.space	Key.space	n/a
333.992	0.105	667984	keystroke_a	a	n/a
334.172	0.075	668344	keystroke_n	n	n/a
334.322	0.075	668644	keystroke_n	n	n/a
334.4715	0.075	668943	keystroke_i	i	n/a
334.6365	0.12	669273	keystroke_e	e	n/a
334.8615	0.06	669723	keystroke_Key.enter	Key.enter	n/a
334.926	9.8225	669852	prompt	n/a	liquid diverse cheat medicare\n
335.867	0.09	671734	keystroke_l	l	n/a
336.077	0.075	672154	keystroke_i	i	n/a
336.8115	0.12	673623	keystroke_q	q	n/a
337.0215	0.06	674043	keystroke_u	u	n/a
337.2015	0.075	674403	keystroke_i	i	n/a
337.847	0.15	675694	keystroke_d	d	n/a
338.192	0.105	676384	keystroke_Key.space	Key.space	n/a
339.4665	0.135	678933	keystroke_d	d	n/a
339.7665	0.09	679533	keystroke_i	i	n/a
339.8865	0.1655	679773	keystroke_v	v	n/a
340.052	0.12	680104	keystroke_e	e	n/a
340.112	0.12	680224	keystroke_r	r	n/a
340.352	0.179	680704	keystroke_s	s	n/a
340.517	0.15	681034	keystroke_e	e	n/a
340.621	0.136	681242	keystroke_Key.space	Key.space	n/a
340.937	0.135	681874	keystroke_c	c	n/a
341.042	0.105	682084	keystroke_h	h	n/a
341.297	0.15	682594	keystroke_e	e	n/a
341.477	0.135	682954	keystroke_a	a	n/a
341.657	0.135	683314	keystroke_t	t	n/a
342.001	0.106	684002	keystroke_Key.space	Key.space	n/a
343.3815	0.09	686763	keystroke_m	m	n/a
343.4725	0.074	686945	keystroke_e	e	n/a
343.667	0.105	687334	keystroke_d	d	n/a
343.787	0.075	687574	keystroke_i	i	n/a
343.967	0.12	687934	keystroke_c	c	n/a
344.102	0.135	688204	keystroke_a	a	n/a
344.312	0.12	688624	keystroke_r	r	n/a
344.387	0.135	688774	keystroke_e	e	n/a
344.687	0.06	689374	keystroke_Key.enter	Key.enter	n/a
344.7515	8.322	689503	prompt	n/a	situated secret spain collector\n
345.512	0.135	691024	keystroke_s	s	n/a
345.812	0.0895	691624	keystroke_i	i	n/a
346.1415	0.1055	692283	keystroke_t	t	n/a
346.277	0.09	692554	keystroke_u	u	n/a
346.532	0.135	693064	keystroke_a	a	n/a
346.7415	0.105	693483	keystroke_t	t	n/a
346.9815	0.1055	693963	keystroke_e	e	n/a
347.192	0.135	694384	keystroke_d	d	n/a
347.357	0.105	694714	keystroke_Key.space	Key.space	n/a
347.6265	0.105	695253	keystroke_s	s	n/a
347.9565	0.105	695913	keystroke_e	e	n/a
348.2565	0.12	696513	keystroke_c	c	n/a
348.5715	0.105	697143	keystroke_r	r	n/a
348.7965	0.1055	697593	keystroke_e	e	n/a
349.067	0.075	698134	keystroke_t	t	n/a
349.262	0.105	698524	keystroke_Key.space	Key.space	n/a
349.457	0.1345	698914	keystroke_s	s	n/a
350.0565	0.12	700113	keystroke_p	p	n/a
350.417	0.119	700834	keystroke_a	a	n/a
350.641	0.076	701282	keystroke_i	i	n/a
350.852	0.075	701704	keystroke_n	n	n/a
351.031	0.09	702062	keystroke_Key.space	Key.space	n/a
351.242	0.165	702484	keystroke_c	c	n/a
351.392	0.06	702784	keystroke_o	o	n/a
351.602	0.075	703204	keystroke_l	l	n/a
351.752	0.09	703504	keystroke_l	l	n/a
351.842	0.09	703684	keystroke_e	e	n/a
352.081	0.091	704162	keystroke_c	c	n/a
352.322	0.12	704644	keystroke_t	t	n/a
352.517	0.075	705034	keystroke_o	o	n/a
352.712	0.12	705424	keystroke_r	r	n/a
352.997	0.074	705994	keystroke_Key.enter	Key.enter	n/a
353.078	14.335	706156	prompt	n/a	columbus tennis grant experimental\n
353.927	0.12	707854	keystroke_c	c	n/a
354.122	0.045	708244	keystroke_o	o	n/a
355.352	0.075	710704	keystroke_l	l	n/a
355.7715	0.075	711543	keystroke_u	u	n/a
356.3865	0.09	712773	keystroke_b	b	n/a
356.4925	0.089	712985	keystroke_u	u	n/a
356.7015	0.105	713403	keystroke_s	s	n/a
358.202	0.075	716404	keystroke_Key.backspace	Key.backspace	n/a
358.382	0.06	716764	keystroke_Key.backspace	Key.backspace	n/a
358.5915	0.06	717183	keystroke_Key.backspace	Key.backspace	n/a
359.1015	0.03	718203	keystroke_Key.backspace	Key.backspace	n/a
359.462	0.06	718924	keystroke_m	m	n/a
360.407	0.075	720814	keystroke_Key.backspace	Key.backspace	n/a
360.962	0.06	721924	keystroke_u	u	n/a
361.322	0.075	722644	keystroke_m	m	n/a
361.697	0.075	723394	keystroke_b	b	n/a
361.952	0.06	723904	keystroke_u	u	n/a
362.192	0.135	724384	keystroke_s	s	n/a
362.387	0.1345	724774	keystroke_Key.space	Key.space	n/a
362.7015	0.105	725403	keystroke_t	t	n/a
362.8515	0.135	725703	keystroke_e	e	n/a
363.0315	0.075	726063	keystroke_n	n	n/a
363.1815	0.075	726363	keystroke_n	n	n/a
363.3915	0.075	726783	keystroke_i	i	n/a
363.5115	0.12	727023	keystroke_s	s	n/a
363.5865	0.135	727173	keystroke_Key.space	Key.space	n/a
363.7815	0.135	727563	keystroke_g	g	n/a
363.9615	0.135	727923	keystroke_r	r	n/a
364.1115	0.12	728223	keystroke_a	a	n/a
364.2165	0.09	728433	keystroke_n	n	n/a
364.3665	0.1355	728733	keystroke_t	t	n/a
364.502	0.12	729004	keystroke_Key.space	Key.space	n/a
364.682	0.105	729364	keystroke_e	e	n/a
364.937	0.09	729874	keystroke_x	x	n/a
365.087	0.105	730174	keystroke_p	p	n/a
365.2365	0.1355	730473	keystroke_e	e	n/a
365.3265	0.1655	730653	keystroke_r	r	n/a
365.537	0.105	731074	keystroke_i	i	n/a
366.002	0.075	732004	keystroke_m	m	n/a
366.092	0.09	732184	keystroke_e	e	n/a
366.512	0.09	733024	keystroke_n	n	n/a
366.7065	0.1205	733413	keystroke_t	t	n/a
366.842	0.12	733684	keystroke_a	a	n/a
367.007	0.09	734014	keystroke_l	l	n/a
367.352	0.06	734704	keystroke_Key.enter	Key.enter	n/a
367.417	14.2615	734834	prompt	n/a	inflation purse awareness blend\n
368.2665	0.06	736533	keystroke_u	u	n/a
368.2815	0.03	736563	keystroke_i	i	n/a
368.462	0.075	736924	keystroke_n	n	n/a
369.062	0.06	738124	keystroke_Key.backspace	Key.backspace	n/a
369.212	0.045	738424	keystroke_Key.backspace	Key.backspace	n/a
369.3465	0.075	738693	keystroke_Key.backspace	Key.backspace	n/a
369.9015	0.075	739803	keystroke_i	i	n/a
370.142	0.074	740284	keystroke_n	n	n/a
370.427	0.0895	740854	keystroke_f	f	n/a
370.6065	0.105	741213	keystroke_l	l	n/a
371.5365	0.105	743073	keystroke_a	a	n/a
372.272	0.105	744544	keystroke_t	t	n/a
372.557	0.285	745114	keystroke_i	i	n/a
372.662	0.135	745324	keystroke_o	o	n/a
372.722	0.165	745444	keystroke_n	n	n/a
372.902	0.15	745804	keystroke_Key.space	Key.space	n/a
373.172	0.09	746344	keystroke_p	p	n/a
373.4715	0.135	746943	keystroke_u	u	n/a
373.7875	0.09	747575	keystroke_t	t	n/a
374.0725	0.195	748145	keystroke_s	s	n/a
374.4765	0.06	748953	keystroke_Key.backspace	Key.backspace	n/a
374.6115	0.09	749223	keystroke_Key.backspace	Key.backspace	n/a
375.212	0.105	750424	keystroke_r	r	n/a
375.437	0.195	750874	keystroke_s	s	n/a
375.617	0.165	751234	keystroke_e	e	n/a
375.857	0.09	751714	keystroke_Key.space	Key.space	n/a
376.6665	0.1205	753333	keystroke_a	a	n/a
376.922	0.075	753844	keystroke_w	w	n/a
377.087	0.135	754174	keystroke_a	a	n/a
377.312	0.12	754624	keystroke_r	r	n/a
377.8065	0.105	755613	keystroke_e	e	n/a
378.0915	0.09	756183	keystroke_n	n	n/a
378.2415	0.12	756483	keystroke_e	e	n/a
378.4815	0.105	756963	keystroke_s	s	n/a
378.7065	0.12	757413	keystroke_s	s	n/a
378.8865	0.135	757773	keystroke_Key.space	Key.space	n/a
379.1415	0.075	758283	keystroke_b	b	n/a
379.457	0.105	758914	keystroke_l	l	n/a
379.682	0.135	759364	keystroke_a	a	n/a
379.877	0.12	759754	keystroke_n	n	n/a
380.132	0.075	760264	keystroke_d	d	n/a
380.4615	0.06	760923	keystroke_Key.backspace	Key.backspace	n/a
380.5965	0.06	761193	keystroke_Key.backspace	Key.backspace	n/a
380.7465	0.075	761493	keystroke_Key.backspace	Key.backspace	n/a
380.9565	0.09	761913	keystroke_e	e	n/a
381.1215	0.105	762243	keystroke_n	n	n/a
381.3615	0.105	762723	keystroke_d	d	n/a
381.6015	0.0755	763203	keystroke_Key.enter	Key.enter	n/a
381.69	8.8685	763380	prompt	n/a	medal myrtle containers tunnel\n
382.4415	0.075	764883	keystroke_m	m	n/a
382.5465	0.075	765093	keystroke_e	e	n/a
382.7565	0.12	765513	keystroke_d	d	n/a
382.9965	0.12	765993	keystroke_a	a	n/a
383.1615	0.105	766323	keystroke_l	l	n/a
383.3715	0.105	766743	keystroke_Key.space	Key.space	n/a
383.627	0.0895	767254	keystroke_m	m	n/a
383.912	0.0745	767824	keystroke_y	y	n/a
385.607	0.1195	771214	keystroke_r	r	n/a
386.2815	0.09	772563	keystroke_t	t	n/a
386.5365	0.09	773073	keystroke_l	l	n/a
386.7015	0.1655	773403	keystroke_e	e	n/a
386.852	0.15	773704	keystroke_Key.space	Key.space	n/a
387.122	0.15	774244	keystroke_c	c	n/a
387.257	0.165	774514	keystroke_o	o	n/a
387.317	0.15	774634	keystroke_n	n	n/a
387.527	0.1495	775054	keystroke_t	t	n/a
387.7515	0.12	775503	keystroke_a	a	n/a
388.0065	0.165	776013	keystroke_i	i	n/a
388.0965	0.15	776193	keystroke_n	n	n/a
388.6215	0.21	777243	keystroke_e	e	n/a
388.7865	0.12	777573	keystroke_r	r	n/a
388.9665	0.135	777933	keystroke_s	s	n/a
389.0865	0.12	778173	keystroke_Key.space	Key.space	n/a
389.312	0.105	778624	keystroke_t	t	n/a
389.432	0.075	778864	keystroke_u	u	n/a
389.6865	0.075	779373	keystroke_n	n	n/a
389.8215	0.06	779643	keystroke_n	n	n/a
390.0165	0.09	780033	keystroke_e	e	n/a
390.1515	0.075	780303	keystroke_l	l	n/a
390.4815	0.075	780963	keystroke_Key.enter	Key.enter	n/a
390.562	9.0865	781124	prompt	n/a	determining fuzzy financial vision\n
391.232	0.105	782464	keystroke_d	d	n/a
391.442	0.09	782884	keystroke_e	e	n/a
391.652	0.105	783304	keystroke_t	t	n/a
391.787	0.18	783574	keystroke_e	e	n/a
391.892	0.15	783784	keystroke_r	r	n/a
392.147	0.09	784294	keystroke_m	m	n/a
392.3425	0.089	784685	keystroke_i	i	n/a
392.537	0.09	785074	keystroke_n	n	n/a
392.777	0.135	785554	keystroke_i	i	n/a
392.882	0.135	785764	keystroke_n	n	n/a
393.002	0.135	786004	keystroke_g	g	n/a
393.092	0.135	786184	keystroke_Key.space	Key.space	n/a
393.317	0.12	786634	keystroke_f	f	n/a
393.452	0.1195	786904	keystroke_u	u	n/a
393.7065	0.105	787413	keystroke_z	z	n/a
393.917	0.09	787834	keystroke_z	z	n/a
394.037	0.105	788074	keystroke_y	y	n/a
394.382	0.1345	788764	keystroke_Key.space	Key.space	n/a
394.8015	0.12	789603	keystroke_f	f	n/a
395.0115	0.075	790023	keystroke_i	i	n/a
395.732	0.075	791464	keystroke_n	n	n/a
396.392	0.09	792784	keystroke_a	a	n/a
396.557	0.0895	793114	keystroke_n	n	n/a
396.8115	0.135	793623	keystroke_c	c	n/a
397.2615	0.09	794523	keystroke_i	i	n/a
397.6965	0.105	795393	keystroke_a	a	n/a
397.9065	0.0905	795813	keystroke_l	l	n/a
398.072	0.105	796144	keystroke_Key.space	Key.space	n/a
398.342	0.12	796684	keystroke_v	v	n/a
398.477	0.06	796954	keystroke_i	i	n/a
398.627	0.105	797254	keystroke_s	s	n/a
398.792	0.27	797584	keystroke_i	i	n/a
398.897	0.15	797794	keystroke_o	o	n/a
398.972	0.135	797944	keystroke_n	n	n/a
399.572	0.075	799144	keystroke_Key.enter	Key.enter	n/a
399.6515	7.452	799303	prompt	n/a	luxury assessed exam refuse\n
400.337	0.12	800674	keystroke_l	l	n/a
400.682	0.015	801364	keystroke_u	u	n/a
401.177	0.12	802354	keystroke_x	x	n/a
401.597	0.105	803194	keystroke_u	u	n/a
401.792	0.105	803584	keystroke_r	r	n/a
402.002	0.075	804004	keystroke_y	y	n/a
402.212	0.12	804424	keystroke_Key.space	Key.space	n/a
402.467	0.1345	804934	keystroke_a	a	n/a
402.6765	0.09	805353	keystroke_s	s	n/a
402.8415	0.12	805683	keystroke_s	s	n/a
403.1115	0.09	806223	keystroke_e	e	n/a
403.3365	0.0905	806673	keystroke_s	s	n/a
403.517	0.0895	807034	keystroke_s	s	n/a
403.757	0.06	807514	keystroke_e	e	n/a
403.9365	0.166	807873	keystroke_d	d	n/a
404.1625	0.135	808325	keystroke_Key.space	Key.space	n/a
404.3575	0.075	808715	keystroke_e	e	n/a
404.5675	0.09	809135	keystroke_x	x	n/a
404.8075	0.12	809615	keystroke_a	a	n/a
405.0165	0.091	810033	keystroke_m	m	n/a
405.1675	0.119	810335	keystroke_Key.space	Key.space	n/a
405.5425	0.1495	811085	keystroke_r	r	n/a
405.647	0.15	811294	keystroke_e	e	n/a
405.887	0.15	811774	keystroke_f	f	n/a
406.052	0.0895	812104	keystroke_u	u	n/a
406.6215	0.12	813243	keystroke_s	s	n/a
406.7715	0.1355	813543	keystroke_e	e	n/a
407.012	0.09	814024	keystroke_Key.enter	Key.enter	n/a
407.106	6.7325	814212	prompt	n/a	pads demanding middle accepts\n
407.807	0.09	815614	keystroke_p	p	n/a
407.942	0.105	815884	keystroke_a	a	n/a
408.152	0.105	816304	keystroke_d	d	n/a
408.347	0.105	816694	keystroke_s	s	n/a
408.827	0.1345	817654	keystroke_Key.space	Key.space	n/a
409.2165	0.105	818433	keystroke_d	d	n/a
409.4115	0.09	818823	keystroke_e	e	n/a
409.6515	0.075	819303	keystroke_m	m	n/a
409.7415	0.1205	819483	keystroke_a	a	n/a
409.892	0.075	819784	keystroke_n	n	n/a
410.087	0.0905	820174	keystroke_d	d	n/a
410.252	0.225	820504	keystroke_i	i	n/a
410.342	0.15	820684	keystroke_n	n	n/a
410.462	0.1345	820924	keystroke_g	g	n/a
410.657	0.15	821314	keystroke_Key.space	Key.space	n/a
410.867	0.1045	821734	keystroke_m	m	n/a
411.0615	0.075	822123	keystroke_i	i	n/a
411.2265	0.0755	822453	keystroke_d	d	n/a
411.3765	0.0755	822753	keystroke_d	d	n/a
411.527	0.15	823054	keystroke_l	l	n/a
411.662	0.165	823324	keystroke_e	e	n/a
411.812	0.1195	823624	keystroke_Key.space	Key.space	n/a
412.0075	0.12	824015	keystroke_a	a	n/a
412.5325	0.075	825065	keystroke_c	c	n/a
412.6975	0.105	825395	keystroke_c	c	n/a
412.9515	0.09	825903	keystroke_e	e	n/a
413.1015	0.105	826203	keystroke_p	p	n/a
413.2815	0.12	826563	keystroke_t	t	n/a
413.5215	0.1055	827043	keystroke_s	s	n/a
413.792	0.045	827584	keystroke_Key.enter	Key.enter	n/a
413.8415	9.312	827683	prompt	n/a	replace calculated shopping stripes\n
414.692	0.1505	829384	keystroke_r	r	n/a
414.7525	0.18	829505	keystroke_e	e	n/a
414.9765	0.076	829953	keystroke_p	p	n/a
415.2175	0.09	830435	keystroke_l	l	n/a
415.3675	0.135	830735	keystroke_a	a	n/a
415.5175	0.15	831035	keystroke_c	c	n/a
415.6525	0.1645	831305	keystroke_e	e	n/a
415.832	0.165	831664	keystroke_Key.space	Key.space	n/a
416.207	0.12	832414	keystroke_c	c	n/a
416.417	0.12	832834	keystroke_a	a	n/a
416.597	0.09	833194	keystroke_l	l	n/a
416.822	0.1345	833644	keystroke_c	c	n/a
417.0175	0.0895	834035	keystroke_u	u	n/a
417.362	0.09	834724	keystroke_l	l	n/a
417.512	0.105	835024	keystroke_a	a	n/a
417.7065	0.12	835413	keystroke_t	t	n/a
417.7965	0.12	835593	keystroke_e	e	n/a
418.0065	0.15	836013	keystroke_d	d	n/a
418.1415	0.12	836283	keystroke_Key.space	Key.space	n/a
418.412	0.15	836824	keystroke_s	s	n/a
418.457	0.09	836914	keystroke_h	h	n/a
418.922	0.03	837844	keystroke_o	o	n/a
419.267	0.045	838534	keystroke_p	p	n/a
419.402	0.06	838804	keystroke_p	p	n/a
419.6425	0.2095	839285	keystroke_i	i	n/a
419.7325	0.194	839465	keystroke_n	n	n/a
419.837	0.1495	839674	keystroke_g	g	n/a
419.9415	0.15	839883	keystroke_Key.space	Key.space	n/a
420.2715	0.09	840543	keystroke_s	s	n/a
420.5565	0.06	841113	keystroke_t	t	n/a
420.7065	0.1205	841413	keystroke_r	r	n/a
421.607	0.075	843214	keystroke_i	i	n/a
421.862	0.0745	843724	keystroke_p	p	n/a
422.297	0.105	844594	keystroke_e	e	n/a
422.4775	0.105	844955	keystroke_s	s	n/a
423.0925	0.06	846185	keystroke_Key.enter	Key.enter	n/a
423.158	5.6655	846316	prompt	n/a	dolls proposals demo hunger\n
423.797	0.1055	847594	keystroke_d	d	n/a
423.9175	0.059	847835	keystroke_o	o	n/a
424.1425	0.059	848285	keystroke_l	l	n/a
424.2775	0.09	848555	keystroke_l	l	n/a
424.457	0.12	848914	keystroke_s	s	n/a
424.592	0.135	849184	keystroke_Key.space	Key.space	n/a
424.862	0.09	849724	keystroke_p	p	n/a
424.997	0.105	849994	keystroke_r	r	n/a
425.132	0.075	850264	keystroke_o	o	n/a
425.417	0.09	850834	keystroke_p	p	n/a
425.657	0.075	851314	keystroke_o	o	n/a
425.837	0.12	851674	keystroke_s	s	n/a
426.017	0.12	852034	keystroke_a	a	n/a
426.152	0.12	852304	keystroke_l	l	n/a
426.4965	0.12	852993	keystroke_s	s	n/a
426.7215	0.105	853443	keystroke_Key.space	Key.space	n/a
426.947	0.09	853894	keystroke_d	d	n/a
427.127	0.09	854254	keystroke_e	e	n/a
427.247	0.21	854494	keystroke_m	m	n/a
427.427	0.105	854854	keystroke_o	o	n/a
427.547	0.135	855094	keystroke_Key.space	Key.space	n/a
427.757	0.165	855514	keystroke_h	h	n/a
427.9075	0.119	855815	keystroke_u	u	n/a
428.0715	0.105	856143	keystroke_n	n	n/a
428.2665	0.09	856533	keystroke_g	g	n/a
428.4165	0.181	856833	keystroke_e	e	n/a
428.5525	0.12	857105	keystroke_r	r	n/a
428.7615	0.06	857523	keystroke_Key.enter	Key.enter	n/a
428.8265	13.212	857653	prompt	n/a	brutal afternoon pointed dividend\n
429.7975	0.134	859595	keystroke_b	b	n/a
430.0665	0.121	860133	keystroke_r	r	n/a
430.2765	0.106	860553	keystroke_i	i	n/a
431.162	0.075	862324	keystroke_Key.backspace	Key.backspace	n/a
431.417	0.105	862834	keystroke_i	i	n/a
431.627	0.12	863254	keystroke_t	t	n/a
432.1365	0.06	864273	keystroke_Key.backspace	Key.backspace	n/a
432.2565	0.09	864513	keystroke_Key.backspace	Key.backspace	n/a
432.8725	0.09	865745	keystroke_u	u	n/a
433.2475	0.105	866495	keystroke_t	t	n/a
434.072	0.135	868144	keystroke_a	a	n/a
434.237	0.12	868474	keystroke_l	l	n/a
434.387	0.12	868774	keystroke_Key.space	Key.space	n/a
434.657	0.1205	869314	keystroke_a	a	n/a
434.8975	0.12	869795	keystroke_f	f	n/a
435.2725	0.165	870545	keystroke_t	t	n/a
435.4525	0.2245	870905	keystroke_e	e	n/a
435.617	0.165	871234	keystroke_r	r	n/a
435.9025	0.09	871805	keystroke_n	n	n/a
436.157	0.06	872314	keystroke_o	o	n/a
436.307	0.075	872614	keystroke_o	o	n/a
436.502	0.105	873004	keystroke_n	n	n/a
436.667	0.15	873334	keystroke_Key.space	Key.space	n/a
436.862	0.075	873724	keystroke_p	p	n/a
437.087	0.075	874174	keystroke_o	o	n/a
437.312	0.09	874624	keystroke_i	i	n/a
437.462	0.12	874924	keystroke_n	n	n/a
437.642	0.12	875284	keystroke_t	t	n/a
437.807	0.12	875614	keystroke_e	e	n/a
438.047	0.15	876094	keystroke_d	d	n/a
438.212	0.12	876424	keystroke_Key.space	Key.space	n/a
438.437	0.105	876874	keystroke_d	d	n/a
438.647	0.045	877294	keystroke_e	e	n/a
438.857	0.105	877714	keystroke_v	v	n/a
438.977	0.075	877954	keystroke_i	i	n/a
439.112	0.09	878224	keystroke_d	d	n/a
439.307	0.06	878614	keystroke_e	e	n/a
439.487	0.075	878974	keystroke_d	d	n/a
441.347	0.075	882694	keystroke_Key.backspace	Key.backspace	n/a
441.6325	0.09	883265	keystroke_n	n	n/a
441.7675	0.09	883535	keystroke_d	d	n/a
441.977	0.06	883954	keystroke_Key.enter	Key.enter	n/a
442.0415	13.902	884083	prompt	n/a	adopted tennessee hugh injured\n
442.817	0.15	885634	keystroke_a	a	n/a
443.087	0.12	886174	keystroke_d	d	n/a
443.477	0.105	886954	keystroke_o	o	n/a
444.197	0.12	888394	keystroke_p	p	n/a
444.602	0.09	889204	keystroke_t	t	n/a
444.752	0.09	889504	keystroke_e	e	n/a
444.962	0.12	889924	keystroke_d	d	n/a
445.052	0.135	890104	keystroke_Key.space	Key.space	n/a
445.307	0.12	890614	keystroke_t	t	n/a
445.397	0.165	890794	keystroke_e	e	n/a
445.6815	0.06	891363	keystroke_n	n	n/a
445.8175	0.074	891635	keystroke_n	n	n/a
446.1015	0.105	892203	keystroke_e	e	n/a
446.3565	0.09	892713	keystroke_s	s	n/a
446.5215	0.09	893043	keystroke_s	s	n/a
446.8365	0.075	893673	keystroke_e	e	n/a
447.0025	0.074	894005	keystroke_e	e	n/a
447.2865	0.135	894573	keystroke_Key.space	Key.space	n/a
447.6315	0.03	895263	keystroke_t	t	n/a
448.067	0.09	896134	keystroke_Key.backspace	Key.backspace	n/a
448.652	0.105	897304	keystroke_g	g	n/a
449.507	0.09	899014	keystroke_Key.backspace	Key.backspace	n/a
450.0325	0.12	900065	keystroke_h	h	n/a
450.1365	0.136	900273	keystroke_u	u	n/a
451.772	0.105	903544	keystroke_g	g	n/a
451.878	0.104	903756	keystroke_h	h	n/a
452.102	0.12	904204	keystroke_Key.space	Key.space	n/a
452.357	0.1205	904714	keystroke_i	i	n/a
452.4615	0.1505	904923	keystroke_n	n	n/a
452.762	0.12	905524	keystroke_j	j	n/a
452.957	0.12	905914	keystroke_u	u	n/a
454.1725	0.119	908345	keystroke_t	t	n/a
455.042	0.09	910084	keystroke_Key.backspace	Key.backspace	n/a
455.177	0.1505	910354	keystroke_r	r	n/a
455.3725	0.105	910745	keystroke_e	e	n/a
455.5975	0.12	911195	keystroke_d	d	n/a
455.8675	0.075	911735	keystroke_Key.enter	Key.enter	n/a
455.947	10.752	911894	prompt	n/a	parcel offensive killing remained\n
456.8715	0.09	913743	keystroke_p	p	n/a
457.0365	0.03	914073	keystroke_r	r	n/a
457.5765	0.09	915153	keystroke_Key.backspace	Key.backspace	n/a
457.6815	0.135	915363	keystroke_a	a	n/a
457.8615	0.12	915723	keystroke_r	r	n/a
458.432	0.12	916864	keystroke_e	e	n/a
458.867	0.045	917734	keystroke_Key.backspace	Key.backspace	n/a
458.927	0.165	917854	keystroke_c	c	n/a
459.137	0.165	918274	keystroke_e	e	n/a
459.242	0.135	918484	keystroke_l	l	n/a
459.437	0.1205	918874	keystroke_Key.space	Key.space	n/a
460.0225	0.09	920045	keystroke_o	o	n/a
460.2175	0.075	920435	keystroke_f	f	n/a
460.3825	0.1045	920765	keystroke_f	f	n/a
460.8775	0.15	921755	keystroke_e	e	n/a
461.0425	0.105	922085	keystroke_n	n	n/a
461.582	0.135	923164	keystroke_s	s	n/a
461.687	0.105	923374	keystroke_i	i	n/a
461.957	0.15	923914	keystroke_v	v	n/a
462.047	0.165	924094	keystroke_e	e	n/a
462.197	0.135	924394	keystroke_Key.space	Key.space	n/a
462.572	0.075	925144	keystroke_k	k	n/a
462.782	0.09	925564	keystroke_i	i	n/a
463.0825	0.06	926165	keystroke_l	l	n/a
463.2175	0.075	926435	keystroke_l	l	n/a
463.487	0.2405	926974	keystroke_i	i	n/a
463.5925	0.21	927185	keystroke_n	n	n/a
463.6975	0.18	927395	keystroke_g	g	n/a
463.8475	0.135	927695	keystroke_Key.space	Key.space	n/a
464.222	0.135	928444	keystroke_r	r	n/a
464.282	0.165	928564	keystroke_e	e	n/a
464.552	0.105	929104	keystroke_m	m	n/a
464.717	0.1505	929434	keystroke_a	a	n/a
465.0625	0.105	930125	keystroke_n	n	n/a
465.5125	0.075	931025	keystroke_Key.backspace	Key.backspace	n/a
465.7975	0.18	931595	keystroke_i	i	n/a
465.9325	0.135	931865	keystroke_n	n	n/a
466.202	0.09	932404	keystroke_e	e	n/a
466.397	0.12	932794	keystroke_d	d	n/a
466.622	0.075	933244	keystroke_Key.enter	Key.enter	n/a
466.7025	9.251	933405	prompt	n/a	i've antarctica founded prisoner\n
468.0625	0.045	936125	keystroke_i	i	n/a
468.557	0.075	937114	keystroke_'	'	n/a
468.8425	0.135	937685	keystroke_v	v	n/a
468.9025	0.194	937805	keystroke_e	e	n/a
469.0815	0.1505	938163	keystroke_Key.space	Key.space	n/a
469.7265	0.151	939453	keystroke_a	a	n/a
469.9965	0.135	939993	keystroke_n	n	n/a
470.447	0.12	940894	keystroke_t	t	n/a
470.807	0.15	941614	keystroke_a	a	n/a
471.002	0.12	942004	keystroke_r	r	n/a
471.347	0.06	942694	keystroke_c	c	n/a
471.902	0.12	943804	keystroke_t	t	n/a
472.127	0.09	944254	keystroke_i	i	n/a
472.397	0.165	944794	keystroke_c	c	n/a
472.517	0.18	945034	keystroke_a	a	n/a
472.712	0.105	945424	keystroke_Key.space	Key.space	n/a
472.937	0.12	945874	keystroke_f	f	n/a
473.027	0.225	946054	keystroke_o	o	n/a
473.087	0.195	946174	keystroke_u	u	n/a
473.162	0.15	946324	keystroke_n	n	n/a
473.297	0.135	946594	keystroke_d	d	n/a
473.552	0.075	947104	keystroke_e	e	n/a
473.762	0.15	947524	keystroke_d	d	n/a
473.927	0.135	947854	keystroke_Key.space	Key.space	n/a
474.137	0.105	948274	keystroke_p	p	n/a
474.257	0.1355	948514	keystroke_r	r	n/a
474.4225	0.12	948845	keystroke_i	i	n/a
474.6625	0.12	949325	keystroke_s	s	n/a
474.8425	0.135	949685	keystroke_o	o	n/a
474.9175	0.135	949835	keystroke_n	n	n/a
475.232	0.18	950464	keystroke_e	e	n/a
475.367	0.135	950734	keystroke_r	r	n/a
475.8775	0.0745	951755	keystroke_Key.enter	Key.enter	n/a
475.9565	8.247	951913	prompt	n/a	could've photographic simple eyes\n
476.8975	0.12	953795	keystroke_c	c	n/a
477.0025	0.195	954005	keystroke_o	o	n/a
477.0925	0.105	954185	keystroke_u	u	n/a
477.3175	0.12	954635	keystroke_l	l	n/a
477.4525	0.1045	954905	keystroke_d	d	n/a
477.782	0.105	955564	keystroke_'	'	n/a
478.007	0.15	956014	keystroke_v	v	n/a
478.127	0.15	956254	keystroke_e	e	n/a
478.337	0.1495	956674	keystroke_Key.space	Key.space	n/a
478.7575	0.105	957515	keystroke_p	p	n/a
478.9665	0.105	957933	keystroke_h	h	n/a
479.2365	0.09	958473	keystroke_o	o	n/a
479.6875	0.1045	959375	keystroke_t	t	n/a
479.807	0.09	959614	keystroke_o	o	n/a
480.362	0.135	960724	keystroke_g	g	n/a
480.512	0.135	961024	keystroke_r	r	n/a
480.692	0.12	961384	keystroke_a	a	n/a
480.857	0.12	961714	keystroke_p	p	n/a
480.962	0.165	961924	keystroke_h	h	n/a
481.112	0.15	962224	keystroke_i	i	n/a
481.277	0.165	962554	keystroke_c	c	n/a
481.7425	0.105	963485	keystroke_Key.space	Key.space	n/a
482.0125	0.15	964025	keystroke_s	s	n/a
482.1475	0.09	964295	keystroke_i	i	n/a
482.3425	0.1195	964685	keystroke_m	m	n/a
482.5375	0.06	965075	keystroke_p	p	n/a
482.7325	0.105	965465	keystroke_l	l	n/a
482.8375	0.165	965675	keystroke_e	e	n/a
482.9875	0.105	965975	keystroke_Key.space	Key.space	n/a
483.1975	0.105	966395	keystroke_e	e	n/a
483.3025	0.105	966605	keystroke_y	y	n/a
483.4825	0.12	966965	keystroke_e	e	n/a
483.7825	0.1195	967565	keystroke_s	s	n/a
484.142	0.06	968284	keystroke_Key.enter	Key.enter	n/a
484.2065	11.157	968413	prompt	n/a	ontario reliability performing particles\n
485.147	0.165	970294	keystroke_o	o	n/a
485.252	0.135	970504	keystroke_n	n	n/a
485.522	0.0755	971044	keystroke_t	t	n/a
485.7025	0.134	971405	keystroke_a	a	n/a
485.8965	0.105	971793	keystroke_r	r	n/a
486.0625	0.105	972125	keystroke_i	i	n/a
486.2265	0.135	972453	keystroke_o	o	n/a
486.5275	0.135	973055	keystroke_Key.space	Key.space	n/a
487.4575	0.1345	974915	keystroke_r	r	n/a
487.5175	0.1795	975035	keystroke_e	e	n/a
487.817	0.09	975634	keystroke_l	l	n/a
487.997	0.09	975994	keystroke_i	i	n/a
488.267	0.09	976534	keystroke_a	a	n/a
488.5375	0.12	977075	keystroke_b	b	n/a
488.837	0.075	977674	keystroke_i	i	n/a
489.317	0.045	978634	keystroke_l	l	n/a
489.467	0.075	978934	keystroke_i	i	n/a
489.6925	0.105	979385	keystroke_t	t	n/a
489.8425	0.09	979685	keystroke_y	y	n/a
490.0675	0.105	980135	keystroke_Key.space	Key.space	n/a
490.4275	0.075	980855	keystroke_p	p	n/a
490.5475	0.18	981095	keystroke_e	e	n/a
490.6665	0.09	981333	keystroke_r	r	n/a
490.8775	0.12	981755	keystroke_f	f	n/a
490.9975	0.105	981995	keystroke_o	o	n/a
491.3125	0.075	982625	keystroke_m	m	n/a
491.5365	0.196	983073	keystroke_i	i	n/a
491.6265	0.166	983253	keystroke_n	n	n/a
491.7775	0.15	983555	keystroke_g	g	n/a
492.0625	0.119	984125	keystroke_Key.space	Key.space	n/a
492.6025	0.09	985205	keystroke_p	p	n/a
492.7525	0.135	985505	keystroke_a	a	n/a
492.9625	0.12	985925	keystroke_r	r	n/a
493.2325	0.105	986465	keystroke_t	t	n/a
493.3975	0.075	986795	keystroke_i	i	n/a
493.652	0.135	987304	keystroke_c	c	n/a
493.832	0.075	987664	keystroke_i	i	n/a
494.312	0.015	988624	keystroke_Key.backspace	Key.backspace	n/a
494.537	0.09	989074	keystroke_l	l	n/a
494.747	0.105	989494	keystroke_e	e	n/a
495.017	0.105	990034	keystroke_s	s	n/a
495.302	0.06	990604	keystroke_Key.enter	Key.enter	n/a
495.3675	10.751	990735	prompt	n/a	wholesale skirts trout databases\n
496.067	0.1345	992134	keystroke_w	w	n/a
496.2315	0.165	992463	keystroke_h	h	n/a
496.3665	0.135	992733	keystroke_o	o	n/a
497.3125	0.135	994625	keystroke_l	l	n/a
497.5525	0.1495	995105	keystroke_e	e	n/a
497.912	0.135	995824	keystroke_s	s	n/a
498.077	0.135	996154	keystroke_a	a	n/a
498.242	0.12	996484	keystroke_l	l	n/a
498.347	0.15	996694	keystroke_e	e	n/a
498.482	0.12	996964	keystroke_Key.space	Key.space	n/a
498.722	0.135	997444	keystroke_s	s	n/a
498.917	0.105	997834	keystroke_k	k	n/a
499.277	0.12	998554	keystroke_i	i	n/a
499.472	0.1495	998944	keystroke_r	r	n/a
499.6525	0.119	999305	keystroke_t	t	n/a
499.9965	0.136	999993	keystroke_s	s	n/a
500.2825	0.15	1000565	keystroke_Key.space	Key.space	n/a
500.6425	0.09	1001285	keystroke_t	t	n/a
500.8375	0.105	1001675	keystroke_r	r	n/a
501.0025	0.21	1002005	keystroke_o	o	n/a
501.0775	0.15	1002155	keystroke_u	u	n/a
501.4675	0.0895	1002935	keystroke_t	t	n/a
501.767	0.105	1003534	keystroke_Key.space	Key.space	n/a
502.052	0.09	1004104	keystroke_d	d	n/a
502.262	0.105	1004524	keystroke_e	e	n/a
503.552	0.09	1007104	keystroke_Key.backspace	Key.backspace	n/a
503.7015	0.1055	1007403	keystroke_a	a	n/a
503.9265	0.12	1007853	keystroke_t	t	n/a
504.0615	0.136	1008123	keystroke_a	a	n/a
504.4375	0.06	1008875	keystroke_b	b	n/a
504.5875	0.105	1009175	keystroke_a	a	n/a
504.7825	0.165	1009565	keystroke_s	s	n/a
504.9175	0.12	1009835	keystroke_e	e	n/a
505.1275	0.105	1010255	keystroke_s	s	n/a
506.0425	0.075	1012085	keystroke_Key.enter	Key.enter	n/a
506.1235	8.5155	1012247	prompt	n/a	meeting guests presentations officer\n
506.9275	0.105	1013855	keystroke_m	m	n/a
507.0775	0.105	1014155	keystroke_e	e	n/a
507.2725	0.12	1014545	keystroke_e	e	n/a
507.4825	0.1045	1014965	keystroke_t	t	n/a
507.632	0.21	1015264	keystroke_i	i	n/a
507.722	0.15	1015444	keystroke_n	n	n/a
507.797	0.18	1015594	keystroke_g	g	n/a
508.037	0.135	1016074	keystroke_Key.space	Key.space	n/a
508.4725	0.15	1016945	keystroke_g	g	n/a
508.5925	0.12	1017185	keystroke_u	u	n/a
508.8625	0.135	1017725	keystroke_e	e	n/a
509.1625	0.105	1018325	keystroke_s	s	n/a
509.3875	0.105	1018775	keystroke_t	t	n/a
509.9725	0.15	1019945	keystroke_s	s	n/a
510.1525	0.165	1020305	keystroke_Key.space	Key.space	n/a
510.632	0.105	1021264	keystroke_p	p	n/a
510.842	0.135	1021684	keystroke_r	r	n/a
510.917	0.15	1021834	keystroke_e	e	n/a
511.217	0.135	1022434	keystroke_s	s	n/a
511.322	0.18	1022644	keystroke_e	e	n/a
511.442	0.1205	1022884	keystroke_n	n	n/a
511.6225	0.135	1023245	keystroke_t	t	n/a
511.7875	0.15	1023575	keystroke_a	a	n/a
512.1475	0.09	1024295	keystroke_t	t	n/a
512.4325	0.2545	1024865	keystroke_i	i	n/a
512.552	0.15	1025104	keystroke_o	o	n/a
512.627	0.135	1025254	keystroke_n	n	n/a
512.807	0.15	1025614	keystroke_s	s	n/a
513.002	0.12	1026004	keystroke_Key.space	Key.space	n/a
513.197	0.105	1026394	keystroke_o	o	n/a
513.4375	0.075	1026875	keystroke_f	f	n/a
513.602	0.09	1027204	keystroke_f	f	n/a
513.722	0.1055	1027444	keystroke_i	i	n/a
513.887	0.135	1027774	keystroke_c	c	n/a
514.202	0.21	1028404	keystroke_e	e	n/a
514.352	0.135	1028704	keystroke_r	r	n/a
514.547	0.09	1029094	keystroke_Key.enter	Key.enter	n/a
514.642	7.6915	1029284	prompt	n/a	essential approach lamb rock\n
515.3575	0.089	1030715	keystroke_e	e	n/a
515.5825	0.09	1031165	keystroke_s	s	n/a
515.7475	0.09	1031495	keystroke_s	s	n/a
515.9575	0.089	1031915	keystroke_e	e	n/a
516.0775	0.135	1032155	keystroke_n	n	n/a
516.2725	0.105	1032545	keystroke_t	t	n/a
516.3925	0.09	1032785	keystroke_i	i	n/a
516.5875	0.12	1033175	keystroke_a	a	n/a
516.7525	0.075	1033505	keystroke_l	l	n/a
516.8575	0.12	1033715	keystroke_Key.space	Key.space	n/a
517.0825	0.105	1034165	keystroke_a	a	n/a
517.3525	0.03	1034705	keystroke_p	p	n/a
517.487	0.0605	1034974	keystroke_p	p	n/a
517.6815	0.121	1035363	keystroke_r	r	n/a
517.8475	0.104	1035695	keystroke_o	o	n/a
518.0425	0.09	1036085	keystroke_a	a	n/a
518.267	0.1195	1036534	keystroke_s	s	n/a
518.4775	0.074	1036955	keystroke_h	h	n/a
519.0315	0.045	1038063	keystroke_Key.backspace	Key.backspace	n/a
519.1515	0.09	1038303	keystroke_Key.backspace	Key.backspace	n/a
519.2565	0.166	1038513	keystroke_c	c	n/a
519.4375	0.09	1038875	keystroke_h	h	n/a
519.5575	0.15	1039115	keystroke_Key.space	Key.space	n/a
520.0675	0.105	1040135	keystroke_l	l	n/a
520.2325	0.12	1040465	keystroke_a	a	n/a
520.4125	0.1045	1040825	keystroke_m	m	n/a
520.997	0.075	1041994	keystroke_b	b	n/a
521.237	0.105	1042474	keystroke_Key.space	Key.space	n/a
521.462	0.1055	1042924	keystroke_r	r	n/a
521.6425	0.09	1043285	keystroke_o	o	n/a
521.8075	0.135	1043615	keystroke_c	c	n/a
521.9875	0.0745	1043975	keystroke_k	k	n/a
522.272	0.06	1044544	keystroke_Key.enter	Key.enter	n/a
522.3365	12.372	1044673	prompt	n/a	battlefield dakota abstract queue\n
523.0975	0.09	1046195	keystroke_b	b	n/a
523.2315	0.121	1046463	keystroke_a	a	n/a
523.547	0.09	1047094	keystroke_t	t	n/a
523.742	0.0605	1047484	keystroke_t	t	n/a
523.8475	0.135	1047695	keystroke_l	l	n/a
523.9975	0.165	1047995	keystroke_e	e	n/a
524.1325	0.12	1048265	keystroke_Key.space	Key.space	n/a
524.3425	0.12	1048685	keystroke_f	f	n/a
524.4775	0.09	1048955	keystroke_i	i	n/a
524.9575	0.06	1049915	keystroke_Key.backspace	Key.backspace	n/a
525.1075	0.06	1050215	keystroke_Key.backspace	Key.backspace	n/a
525.2575	0.075	1050515	keystroke_Key.backspace	Key.backspace	n/a
525.4825	0.12	1050965	keystroke_f	f	n/a
525.6475	0.09	1051295	keystroke_i	i	n/a
525.9625	0.12	1051925	keystroke_e	e	n/a
526.157	0.105	1052314	keystroke_l	l	n/a
526.307	0.195	1052614	keystroke_d	d	n/a
526.532	0.15	1053064	keystroke_Key.space	Key.space	n/a
526.847	0.15	1053694	keystroke_d	d	n/a
527.102	0.075	1054204	keystroke_a	a	n/a
527.537	0.045	1055074	keystroke_k	k	n/a
528.617	0.06	1057234	keystroke_o	o	n/a
529.172	0.09	1058344	keystroke_t	t	n/a
529.8915	0.09	1059783	keystroke_a	a	n/a
530.1765	0.12	1060353	keystroke_Key.space	Key.space	n/a
530.4915	0.121	1060983	keystroke_a	a	n/a
530.7475	0.09	1061495	keystroke_b	b	n/a
531.0615	0.12	1062123	keystroke_s	s	n/a
531.3015	0.091	1062603	keystroke_t	t	n/a
531.4815	0.12	1062963	keystroke_r	r	n/a
531.6325	0.119	1063265	keystroke_a	a	n/a
531.8725	0.089	1063745	keystroke_c	c	n/a
532.1125	0.12	1064225	keystroke_t	t	n/a
532.2765	0.135	1064553	keystroke_Key.space	Key.space	n/a
532.4865	0.15	1064973	keystroke_q	q	n/a
532.6515	0.105	1065303	keystroke_u	u	n/a
532.8925	0.1045	1065785	keystroke_e	e	n/a
533.192	0.12	1066384	keystroke_n	n	n/a
533.627	0.075	1067254	keystroke_Key.backspace	Key.backspace	n/a
533.942	0.105	1067884	keystroke_u	u	n/a
534.2715	0.12	1068543	keystroke_e	e	n/a
534.6315	0.0755	1069263	keystroke_Key.enter	Key.enter	n/a
534.7135	10.7805	1069427	prompt	n/a	junk indoor categories flickr\n
535.5315	0.12	1071063	keystroke_j	j	n/a
535.7265	0.09	1071453	keystroke_u	u	n/a
535.9075	0.165	1071815	keystroke_n	n	n/a
536.0265	0.136	1072053	keystroke_k	k	n/a
536.1915	0.135	1072383	keystroke_Key.space	Key.space	n/a
536.3425	0.15	1072685	keystroke_i	i	n/a
536.4175	0.134	1072835	keystroke_n	n	n/a
536.5975	0.074	1073195	keystroke_d	d	n/a
537.242	0.075	1074484	keystroke_o	o	n/a
537.392	0.075	1074784	keystroke_o	o	n/a
537.5865	0.135	1075173	keystroke_r	r	n/a
537.9465	0.135	1075893	keystroke_Key.space	Key.space	n/a
538.3675	0.09	1076735	keystroke_c	c	n/a
538.5925	0.12	1077185	keystroke_a	a	n/a
538.7575	0.15	1077515	keystroke_t	t	n/a
538.8925	0.12	1077785	keystroke_e	e	n/a
539.1325	0.135	1078265	keystroke_g	g	n/a
539.2975	0.09	1078595	keystroke_o	o	n/a
539.8525	0.15	1079705	keystroke_e	e	n/a
540.0625	0.135	1080125	keystroke_r	r	n/a
540.2875	0.09	1080575	keystroke_i	i	n/a
540.6625	0.075	1081325	keystroke_Key.backspace	Key.backspace	n/a
540.8125	0.09	1081625	keystroke_Key.backspace	Key.backspace	n/a
541.3675	0.075	1082735	keystroke_Key.backspace	Key.backspace	n/a
542.3875	0.15	1084775	keystroke_r	r	n/a
542.6275	0.09	1085255	keystroke_i	i	n/a
542.8515	0.136	1085703	keystroke_e	e	n/a
542.9425	0.15	1085885	keystroke_s	s	n/a
543.497	0.135	1086994	keystroke_Key.space	Key.space	n/a
543.767	0.1205	1087534	keystroke_f	f	n/a
543.9475	0.135	1087895	keystroke_l	l	n/a
544.2025	0.09	1088405	keystroke_i	i	n/a
544.3825	0.12	1088765	keystroke_c	c	n/a
544.5775	0.09	1089155	keystroke_k	k	n/a
544.8625	0.15	1089725	keystroke_r	r	n/a
545.4025	0.09	1090805	keystroke_Key.enter	Key.enter	n/a
545.498	6.026	1090996	prompt	n/a	level harmony suites pulse\n
546.227	0.12	1092454	keystroke_l	l	n/a
546.377	0.1055	1092754	keystroke_e	e	n/a
546.6325	0.15	1093265	keystroke_v	v	n/a
546.7525	0.12	1093505	keystroke_e	e	n/a
546.9175	0.135	1093835	keystroke_l	l	n/a
547.0525	0.135	1094105	keystroke_Key.space	Key.space	n/a
547.2625	0.135	1094525	keystroke_h	h	n/a
547.3825	0.135	1094765	keystroke_a	a	n/a
547.5475	0.135	1095095	keystroke_r	r	n/a
547.7725	0.105	1095545	keystroke_m	m	n/a
547.9375	0.105	1095875	keystroke_o	o	n/a
548.1325	0.09	1096265	keystroke_n	n	n/a
548.4025	0.0745	1096805	keystroke_y	y	n/a
548.627	0.15	1097254	keystroke_Key.space	Key.space	n/a
548.972	0.105	1097944	keystroke_s	s	n/a
549.092	0.105	1098184	keystroke_u	u	n/a
549.4075	0.075	1098815	keystroke_i	i	n/a
549.5715	0.165	1099143	keystroke_t	t	n/a
549.7675	0.045	1099535	keystroke_e	e	n/a
549.8275	0.15	1099655	keystroke_s	s	n/a
550.0525	0.135	1100105	keystroke_Key.space	Key.space	n/a
550.3375	0.075	1100675	keystroke_p	p	n/a
550.607	0.076	1101214	keystroke_u	u	n/a
550.862	0.09	1101724	keystroke_l	l	n/a
551.042	0.135	1102084	keystroke_s	s	n/a
551.207	0.135	1102414	keystroke_e	e	n/a
551.432	0.09	1102864	keystroke_Key.enter	Key.enter	n/a
551.5265	6.447	1103053	prompt	n/a	impose dave toshiba antibody\n
552.3025	0.1045	1104605	keystroke_i	i	n/a
552.4975	0.12	1104995	keystroke_m	m	n/a
552.7375	0.09	1105475	keystroke_p	p	n/a
552.9325	0.09	1105865	keystroke_o	o	n/a
553.097	0.18	1106194	keystroke_s	s	n/a
553.232	0.165	1106464	keystroke_e	e	n/a
553.352	0.12	1106704	keystroke_Key.space	Key.space	n/a
553.5775	0.105	1107155	keystroke_d	d	n/a
553.8775	0.12	1107755	keystroke_a	a	n/a
554.1325	0.09	1108265	keystroke_v	v	n/a
554.3125	0.135	1108625	keystroke_e	e	n/a
554.3875	0.165	1108775	keystroke_Key.space	Key.space	n/a
554.6725	0.1045	1109345	keystroke_t	t	n/a
554.807	0.105	1109614	keystroke_o	o	n/a
555.002	0.15	1110004	keystroke_s	s	n/a
555.182	0.09	1110364	keystroke_h	h	n/a
555.333	0.089	1110666	keystroke_i	i	n/a
555.5725	0.09	1111145	keystroke_b	b	n/a
555.7075	0.135	1111415	keystroke_a	a	n/a
555.8575	0.1195	1111715	keystroke_Key.space	Key.space	n/a
556.1875	0.15	1112375	keystroke_a	a	n/a
556.3225	0.09	1112645	keystroke_n	n	n/a
556.5775	0.06	1113155	keystroke_t	t	n/a
556.6825	0.1045	1113365	keystroke_i	i	n/a
557.0425	0.105	1114085	keystroke_b	b	n/a
557.1925	0.09	1114385	keystroke_o	o	n/a
557.3575	0.135	1114715	keystroke_d	d	n/a
557.5675	0.075	1115135	keystroke_y	y	n/a
557.8975	0.075	1115795	keystroke_Key.enter	Key.enter	n/a
557.977	6.522	1115954	prompt	n/a	craig deposit eric among\n
558.707	0.15	1117414	keystroke_c	c	n/a
558.917	0.12	1117834	keystroke_r	r	n/a
559.172	0.1055	1118344	keystroke_a	a	n/a
559.5025	0.0745	1119005	keystroke_i	i	n/a
559.667	0.12	1119334	keystroke_g	g	n/a
559.937	0.12	1119874	keystroke_Key.space	Key.space	n/a
560.132	0.1205	1120264	keystroke_d	d	n/a
560.3425	0.075	1120685	keystroke_e	e	n/a
560.5675	0.075	1121135	keystroke_p	p	n/a
560.7625	0.09	1121525	keystroke_o	o	n/a
560.9875	0.075	1121975	keystroke_s	s	n/a
561.3325	0.075	1122665	keystroke_i	i	n/a
561.6475	0.09	1123295	keystroke_t	t	n/a
562.2175	0.15	1124435	keystroke_Key.space	Key.space	n/a
562.5925	0.12	1125185	keystroke_e	e	n/a
562.8025	0.105	1125605	keystroke_r	r	n/a
562.9675	0.105	1125935	keystroke_i	i	n/a
563.1625	0.135	1126325	keystroke_c	c	n/a
563.3125	0.1195	1126625	keystroke_Key.space	Key.space	n/a
563.507	0.12	1127014	keystroke_a	a	n/a
563.672	0.15	1127344	keystroke_m	m	n/a
563.852	0.15	1127704	keystroke_o	o	n/a
563.972	0.12	1127944	keystroke_n	n	n/a
564.152	0.09	1128304	keystroke_g	g	n/a
564.4075	0.09	1128815	keystroke_Key.enter	Key.enter	n/a
564.502	7.4815	1129004	prompt	n/a	fossil generic green gravity\n
565.2025	0.105	1130405	keystroke_f	f	n/a
565.3375	0.09	1130675	keystroke_o	o	n/a
565.652	0.09	1131304	keystroke_s	s	n/a
565.817	0.1055	1131634	keystroke_s	s	n/a
565.9675	0.09	1131935	keystroke_i	i	n/a
566.1775	0.09	1132355	keystroke_l	l	n/a
566.4175	0.12	1132835	keystroke_Key.space	Key.space	n/a
566.9725	0.12	1133945	keystroke_g	g	n/a
567.1525	0.12	1134305	keystroke_e	e	n/a
567.3475	0.105	1134695	keystroke_n	n	n/a
567.5125	0.09	1135025	keystroke_e	e	n/a
567.977	0.121	1135954	keystroke_r	r	n/a
568.218	0.09	1136436	keystroke_i	i	n/a
568.4275	0.15	1136855	keystroke_c	c	n/a
568.6375	0.105	1137275	keystroke_Key.space	Key.space	n/a
568.892	0.06	1137784	keystroke_g	g	n/a
569.102	0.105	1138204	keystroke_r	r	n/a
569.327	0.105	1138654	keystroke_e	e	n/a
569.508	0.089	1139016	keystroke_e	e	n/a
569.672	0.105	1139344	keystroke_n	n	n/a
569.837	0.135	1139674	keystroke_Key.space	Key.space	n/a
570.212	0.105	1140424	keystroke_g	g	n/a
570.377	0.12	1140754	keystroke_r	r	n/a
570.557	0.151	1141114	keystroke_a	a	n/a
570.888	0.15	1141776	keystroke_v	v	n/a
571.082	0.09	1142164	keystroke_i	i	n/a
571.292	0.105	1142584	keystroke_t	t	n/a
571.517	0.091	1143034	keystroke_y	y	n/a
571.9075	0.075	1143815	keystroke_Key.enter	Key.enter	n/a
571.9865	6.1325	1143973	prompt	n/a	region served highways wave\n
572.7325	0.12	1145465	keystroke_r	r	n/a
572.7775	0.135	1145555	keystroke_e	e	n/a
573.0325	0.12	1146065	keystroke_g	g	n/a
573.1975	0.255	1146395	keystroke_i	i	n/a
573.3175	0.15	1146635	keystroke_o	o	n/a
573.3925	0.18	1146785	keystroke_n	n	n/a
573.6775	0.165	1147355	keystroke_Key.space	Key.space	n/a
574.1575	0.075	1148315	keystroke_s	s	n/a
574.3375	0.2095	1148675	keystroke_e	e	n/a
574.487	0.106	1148974	keystroke_r	r	n/a
574.863	0.119	1149726	keystroke_v	v	n/a
575.072	0.075	1150144	keystroke_e	e	n/a
575.283	0.15	1150566	keystroke_d	d	n/a
575.462	0.106	1150924	keystroke_Key.space	Key.space	n/a
575.687	0.135	1151374	keystroke_h	h	n/a
575.808	0.119	1151616	keystroke_i	i	n/a
575.972	0.15	1151944	keystroke_g	g	n/a
576.107	0.12	1152214	keystroke_h	h	n/a
576.452	0.015	1152904	keystroke_w	w	n/a
576.527	0.12	1153054	keystroke_a	a	n/a
576.677	0.12	1153354	keystroke_y	y	n/a
576.917	0.165	1153834	keystroke_s	s	n/a
577.172	0.12	1154344	keystroke_Key.space	Key.space	n/a
577.307	0.15	1154614	keystroke_w	w	n/a
577.532	0.0905	1155064	keystroke_a	a	n/a
577.6825	0.165	1155365	keystroke_v	v	n/a
577.8325	0.1345	1155665	keystroke_e	e	n/a
578.072	0.045	1156144	keystroke_Key.enter	Key.enter	n/a
578.122	6.882	1156244	prompt	n/a	mastercard outside it'd adjusted\n
578.8525	0.105	1157705	keystroke_m	m	n/a
578.9875	0.105	1157975	keystroke_a	a	n/a
579.0925	0.135	1158185	keystroke_s	s	n/a
579.332	0.135	1158664	keystroke_t	t	n/a
579.438	0.18	1158876	keystroke_e	e	n/a
579.557	0.076	1159114	keystroke_r	r	n/a
579.812	0.135	1159624	keystroke_c	c	n/a
579.918	0.104	1159836	keystroke_a	a	n/a
580.098	0.089	1160196	keystroke_r	r	n/a
580.3675	0.1495	1160735	keystroke_d	d	n/a
580.607	0.1205	1161214	keystroke_Key.space	Key.space	n/a
582.905	0.147	1165810	keystroke_o	o	n/a
582.932	0.15	1165864	keystroke_u	u	n/a
583.097	0.105	1166194	keystroke_t	t	n/a
583.262	0.1205	1166524	keystroke_s	s	n/a
583.3975	0.105	1166795	keystroke_i	i	n/a
583.5475	0.135	1167095	keystroke_d	d	n/a
583.8025	0.18	1167605	keystroke_e	e	n/a
584.1025	0.105	1168205	keystroke_Key.space	Key.space	n/a
584.2525	0.075	1168505	keystroke_i	i	n/a
584.4175	0.09	1168835	keystroke_t	t	n/a
584.912	0.09	1169824	keystroke_Key.enter	Key.enter	n/a
585.007	16.557	1170014	prompt	n/a	perception poetry bidding chester\n
586.3975	0.1345	1172795	keystroke_p	p	n/a
586.563	0.164	1173126	keystroke_e	e	n/a
586.667	0.105	1173334	keystroke_r	r	n/a
587.013	0.135	1174026	keystroke_c	c	n/a
587.118	0.134	1174236	keystroke_e	e	n/a
587.327	0.105	1174654	keystroke_p	p	n/a
587.552	0.075	1175104	keystroke_t	t	n/a
587.702	0.24	1175404	keystroke_i	i	n/a
587.792	0.12	1175584	keystroke_o	o	n/a
587.867	0.15	1175734	keystroke_n	n	n/a
588.032	0.105	1176064	keystroke_Key.space	Key.space	n/a
588.332	0.135	1176664	keystroke_p	p	n/a
588.528	0.12	1177056	keystroke_e	e	n/a
588.963	0.075	1177926	keystroke_r	r	n/a
589.232	0.121	1178464	keystroke_t	t	n/a
589.518	0.18	1179036	keystroke_y	y	n/a
590.942	0.075	1181884	keystroke_Key.backspace	Key.backspace	n/a
591.228	0.1645	1182456	keystroke_r	r	n/a
591.4675	0.075	1182935	keystroke_y	y	n/a
592.7275	0.12	1185455	keystroke_Key.space	Key.space	n/a
593.777	0.09	1187554	keystroke_Key.backspace	Key.backspace	n/a
593.972	0.06	1187944	keystroke_Key.backspace	Key.backspace	n/a
594.152	0.06	1188304	keystroke_Key.backspace	Key.backspace	n/a
594.347	0.045	1188694	keystroke_Key.backspace	Key.backspace	n/a
594.527	0.075	1189054	keystroke_Key.backspace	Key.backspace	n/a
594.722	0.075	1189444	keystroke_Key.backspace	Key.backspace	n/a
595.9825	0.09	1191965	keystroke_o	o	n/a
596.3125	0.105	1192625	keystroke_e	e	n/a
597.302	0.105	1194604	keystroke_t	t	n/a
597.587	0.135	1195174	keystroke_r	r	n/a
598.052	0.12	1196104	keystroke_y	y	n/a
598.997	0.075	1197994	keystroke_b	b	n/a
599.207	0.06	1198414	keystroke_u	u	n/a
599.387	0.075	1198774	keystroke_d	d	n/a
599.552	0.12	1199104	keystroke_d	d	n/a
599.673	0.224	1199346	keystroke_u	u	n/a
599.822	0.165	1199644	keystroke_g	g	n/a
599.972	0.12	1199944	keystroke_Key.space	Key.space	n/a
600.243	0.1345	1200486	keystroke_c	c	n/a
600.4225	0.045	1200845	keystroke_h	h	n/a
600.6925	0.105	1201385	keystroke_e	e	n/a
600.8575	0.12	1201715	keystroke_s	s	n/a
601.0525	0.075	1202105	keystroke_t	t	n/a
601.1575	0.15	1202315	keystroke_e	e	n/a
601.2775	0.1045	1202555	keystroke_r	r	n/a
601.502	0.06	1203004	keystroke_Key.enter	Key.enter	n/a
601.568	8.591	1203136	prompt	n/a	willow cocktail detection does\n
602.417	0.1205	1204834	keystroke_w	w	n/a
602.5525	0.075	1205105	keystroke_u	u	n/a
603.2425	0.06	1206485	keystroke_Key.backspace	Key.backspace	n/a
603.812	0.045	1207624	keystroke_i	i	n/a
604.142	0.045	1208284	keystroke_l	l	n/a
604.292	0.075	1208584	keystroke_l	l	n/a
604.5025	0.09	1209005	keystroke_o	o	n/a
604.7275	0.12	1209455	keystroke_w	w	n/a
605.2825	0.06	1210565	keystroke_Key.space	Key.space	n/a
605.5525	0.135	1211105	keystroke_c	c	n/a
605.6575	0.09	1211315	keystroke_o	o	n/a
605.8975	0.1505	1211795	keystroke_c	c	n/a
606.062	0.106	1212124	keystroke_k	k	n/a
606.407	0.105	1212814	keystroke_t	t	n/a
606.587	0.12	1213174	keystroke_a	a	n/a
606.752	0.075	1213504	keystroke_i	i	n/a
606.962	0.12	1213924	keystroke_l	l	n/a
607.112	0.12	1214224	keystroke_Key.space	Key.space	n/a
607.307	0.075	1214614	keystroke_d	d	n/a
607.502	0.0755	1215004	keystroke_e	e	n/a
607.682	0.12	1215364	keystroke_t	t	n/a
607.862	0.165	1215724	keystroke_e	e	n/a
608.147	0.091	1216294	keystroke_c	c	n/a
608.372	0.105	1216744	keystroke_t	t	n/a
608.522	0.255	1217044	keystroke_i	i	n/a
608.612	0.15	1217224	keystroke_o	o	n/a
608.657	0.21	1217314	keystroke_n	n	n/a
608.7925	0.1505	1217585	keystroke_Key.space	Key.space	n/a
609.1375	0.12	1218275	keystroke_d	d	n/a
609.303	0.09	1218606	keystroke_o	o	n/a
609.663	0.12	1219326	keystroke_s	s	n/a
609.873	0.1495	1219746	keystroke_e	e	n/a
610.0675	0.09	1220135	keystroke_Key.enter	Key.enter	n/a
610.1615	16.6325	1220323	prompt	n/a	privilege waiver biological died\n
611.718	0.075	1223436	keystroke_p	p	n/a
611.943	0.0895	1223886	keystroke_r	r	n/a
612.212	0.09	1224424	keystroke_i	i	n/a
612.5875	0.135	1225175	keystroke_v	v	n/a
612.7975	0.09	1225595	keystroke_i	i	n/a
613.0525	0.105	1226105	keystroke_l	l	n/a
613.3975	0.06	1226795	keystroke_e	e	n/a
613.6075	0.09	1227215	keystroke_g	g	n/a
613.7575	0.135	1227515	keystroke_e	e	n/a
613.9825	0.105	1227965	keystroke_Key.space	Key.space	n/a
614.4325	0.09	1228865	keystroke_a	a	n/a
614.942	0.105	1229884	keystroke_Key.backspace	Key.backspace	n/a
615.077	0.12	1230154	keystroke_w	w	n/a
615.212	0.1655	1230424	keystroke_a	a	n/a
615.6025	0.15	1231205	keystroke_v	v	n/a
616.997	0.09	1233994	keystroke_Key.backspace	Key.backspace	n/a
617.297	0.09	1234594	keystroke_i	i	n/a
617.552	0.18	1235104	keystroke_v	v	n/a
617.748	0.165	1235496	keystroke_e	e	n/a
617.867	0.18	1235734	keystroke_r	r	n/a
618.722	0.1505	1237444	keystroke_Key.space	Key.space	n/a
619.0675	0.105	1238135	keystroke_b	b	n/a
619.3225	0.21	1238645	keystroke_i	i	n/a
619.8325	0.15	1239665	keystroke_o	o	n/a
620.687	0.075	1241374	keystroke_l	l	n/a
620.897	0.091	1241794	keystroke_o	o	n/a
621.122	0.105	1242244	keystroke_g	g	n/a
621.243	0.074	1242486	keystroke_i	i	n/a
621.632	0.18	1243264	keystroke_a	a	n/a
621.857	0.105	1243714	keystroke_l	l	n/a
622.532	0.06	1245064	keystroke_Key.backspace	Key.backspace	n/a
622.667	0.09	1245334	keystroke_Key.backspace	Key.backspace	n/a
622.788	0.1495	1245576	keystroke_c	c	n/a
622.8775	0.15	1245755	keystroke_a	a	n/a
622.9975	0.12	1245995	keystroke_l	l	n/a
624.317	0.075	1248634	keystroke_Key.space	Key.space	n/a
624.513	0.089	1249026	keystroke_d	d	n/a
624.722	0.03	1249444	keystroke_e	e	n/a
625.322	0.075	1250644	keystroke_Key.backspace	Key.backspace	n/a
625.6075	0.075	1251215	keystroke_i	i	n/a
626.2825	0.075	1252565	keystroke_e	e	n/a
626.4775	0.105	1252955	keystroke_d	d	n/a
626.7325	0.06	1253465	keystroke_Key.enter	Key.enter	n/a
626.797	9.312	1253594	prompt	n/a	adolescent berry joins organic\n
627.4975	0.1345	1254995	keystroke_a	a	n/a
627.827	0.09	1255654	keystroke_d	d	n/a
628.6825	0.075	1257365	keystroke_o	o	n/a
628.9375	0.0905	1257875	keystroke_l	l	n/a
629.148	0.12	1258296	keystroke_e	e	n/a
629.478	0.119	1258956	keystroke_s	s	n/a
630.4825	0.165	1260965	keystroke_c	c	n/a
630.7225	0.15	1261445	keystroke_e	e	n/a
630.8875	0.12	1261775	keystroke_n	n	n/a
631.0375	0.15	1262075	keystroke_t	t	n/a
631.1875	0.1345	1262375	keystroke_Key.space	Key.space	n/a
631.442	0.091	1262884	keystroke_l	l	n/a
631.907	0.06	1263814	keystroke_Key.backspace	Key.backspace	n/a
632.1775	0.075	1264355	keystroke_b	b	n/a
632.3575	0.135	1264715	keystroke_e	e	n/a
632.5525	0.09	1265105	keystroke_r	r	n/a
632.7175	0.12	1265435	keystroke_r	r	n/a
632.8825	0.105	1265765	keystroke_y	y	n/a
633.0775	0.12	1266155	keystroke_Key.space	Key.space	n/a
633.288	0.1645	1266576	keystroke_j	j	n/a
633.438	0.1495	1266876	keystroke_o	o	n/a
633.6025	0.225	1267205	keystroke_i	i	n/a
633.6925	0.21	1267385	keystroke_n	n	n/a
633.9475	0.135	1267895	keystroke_s	s	n/a
634.1575	0.15	1268315	keystroke_Key.space	Key.space	n/a
634.6975	0.1205	1269395	keystroke_o	o	n/a
