onset	duration	sample	value	key	prompt_text
17.5475	16.2705	35095	prompt	n/a	the quick brown fox jumps over a lazy dog\n
20.5135	0.027	41027	keystroke	t	n/a
20.6005	0.105	41201	keystroke	h	n/a
20.6755	0.09	41351	keystroke	e	n/a
20.7805	0.09	41561	keystroke	Key.space	n/a
21.2305	0.09	42461	keystroke	q	n/a
21.3955	0.15	42791	keystroke	u	n/a
21.6205	0.09	43241	keystroke	i	n/a
21.7405	0.09	43481	keystroke	c	n/a
21.8755	0.105	43751	keystroke	k	n/a
22.0105	0.075	44021	keystroke	Key.space	n/a
22.5505	0.075	45101	keystroke	b	n/a
23.1355	0.075	46271	keystroke	r	n/a
23.5855	0.105	47171	keystroke	o	n/a
23.6755	0.075	47351	keystroke	w	n/a
23.8555	0.105	47711	keystroke	n	n/a
23.9905	0.105	47981	keystroke	Key.space	n/a
24.2155	0.06	48431	keystroke	f	n/a
24.2905	0.09	48581	keystroke	o	n/a
24.4705	0.105	48941	keystroke	x	n/a
24.7855	0.135	49571	keystroke	y	n/a
25.3555	0.105	50711	keystroke	=	n/a
26.6755	0.09	53351	keystroke	Key.backspace	n/a
26.9155	0.09	53831	keystroke	Key.backspace	n/a
27.9805	0.075	55961	keystroke	Key.space	n/a
28.2055	0.12	56411	keystroke	j	n/a
28.46	0.075	56920	keystroke	u	n/a
28.9255	0.0895	57851	keystroke	m	n/a
29.12	0.105	58240	keystroke	p	n/a
29.36	0.0605	58720	keystroke	s	n/a
29.4505	0.0895	58901	keystroke	Key.space	n/a
29.615	0.105	59230	keystroke	o	n/a
29.765	0.09	59530	keystroke	v	n/a
29.9755	0.0895	59951	keystroke	e	n/a
30.02	0.135	60040	keystroke	r	n/a
30.1705	0.0745	60341	keystroke	Key.space	n/a
30.3055	0.0895	60611	keystroke	a	n/a
30.4105	0.1045	60821	keystroke	Key.space	n/a
30.56	0.135	61120	keystroke	l	n/a
30.8305	0.0745	61661	keystroke	a	n/a
31.0855	0.12	62171	keystroke	z	n/a
31.385	0.09	62770	keystroke	y	n/a
31.565	0.09	63130	keystroke	Key.space	n/a
31.865	0.0605	63730	keystroke	d	n/a
31.91	0.105	63820	keystroke	o	n/a
32.225	0.06	64450	keystroke	g	n/a
33.74	0.075	67480	keystroke	Key.enter	n/a
33.8245	12.818	67649	prompt	n/a	operate emergency premiere submit\n
35.12	0.075	70240	keystroke	o	n/a
35.315	0.075	70630	keystroke	p	n/a
35.585	0.09	71170	keystroke	e	n/a
35.63	0.105	71260	keystroke	r	n/a
35.915	0.09	71830	keystroke	a	n/a
36.02	0.06	72040	keystroke	t	n/a
36.14	0.075	72280	keystroke	e	n/a
36.35	0.06	72700	keystroke	Key.space	n/a
36.815	0.0605	73630	keystroke	e	n/a
37.025	0.075	74050	keystroke	m	n/a
37.295	0.09	74590	keystroke	e	n/a
37.37	0.12	74740	keystroke	r	n/a
37.715	0.06	75430	keystroke	g	n/a
37.85	0.09	75700	keystroke	e	n/a
38	0.09	76000	keystroke	n	n/a
38.15	0.075	76300	keystroke	c	n/a
38.36	0.12	76720	keystroke	y	n/a
38.465	0.105	76930	keystroke	Key.space	n/a
39.965	0.06	79930	keystroke	p	n/a
42.248	0.027	84496	keystroke	r	n/a
42.425	0.09	84850	keystroke	e	n/a
42.62	0.09	85240	keystroke	m	n/a
43.07	0.075	86140	keystroke	i	n/a
43.385	0.105	86770	keystroke	e	n/a
43.505	0.075	87010	keystroke	r	n/a
44.315	0.075	88630	keystroke	e	n/a
44.45	0.09	88900	keystroke	Key.space	n/a
44.93	0.075	89860	keystroke	s	n/a
45.065	0.09	90130	keystroke	u	n/a
45.185	0.075	90370	keystroke	b	n/a
45.335	0.105	90670	keystroke	m	n/a
45.485	0.105	90970	keystroke	i	n/a
45.65	0.06	91300	keystroke	t	n/a
46.55	0.09	93100	keystroke	Key.enter	n/a
46.649	11.3185	93298	prompt	n/a	glance luther processed leisure\n
47.705	0.075	95410	keystroke	g	n/a
47.99	0.09	95980	keystroke	l	n/a
48.095	0.06	96190	keystroke	a	n/a
48.23	0.105	96460	keystroke	n	n/a
48.605	0.075	97210	keystroke	c	n/a
48.815	0.075	97630	keystroke	e	n/a
48.995	0.045	97990	keystroke	Key.space	n/a
49.19	0.09	98380	keystroke	l	n/a
49.385	0.12	98770	keystroke	u	n/a
49.58	0.075	99160	keystroke	t	n/a
49.73	0.105	99460	keystroke	h	n/a
49.775	0.105	99550	keystroke	e	n/a
49.85	0.075	99700	keystroke	r	n/a
50	0.09	100000	keystroke	Key.space	n/a
50.33	0.12	100660	keystroke	p	n/a
51.995	0.09	103990	keystroke	r	n/a
52.1	0.09	104200	keystroke	o	n/a
52.235	0.09	104470	keystroke	c	n/a
52.445	0.075	104890	keystroke	e	n/a
52.655	0.06	105310	keystroke	s	n/a
52.775	0.105	105550	keystroke	s	n/a
52.97	0.075	105940	keystroke	e	n/a
53.27	0.075	106540	keystroke	d	n/a
53.36	0.09	106720	keystroke	Key.space	n/a
53.555	0.105	107110	keystroke	l	n/a
53.645	0.075	107290	keystroke	e	n/a
54.065	0.075	108130	keystroke	i	n/a
54.26	0.09	108520	keystroke	s	n/a
54.575	0.12	109150	keystroke	e	n/a
54.65	0.105	109300	keystroke	r	n/a
55.505	0.045	111010	keystroke	Key.backspace	n/a
55.7	0.015	111400	keystroke	Key.backspace	n/a
57.065	0.09	114130	keystroke	u	n/a
57.14	0.09	114280	keystroke	r	n/a
57.2	0.075	114400	keystroke	e	n/a
57.89	0.075	115780	keystroke	Key.enter	n/a
57.974	11.859	115948	prompt	n/a	samsung cyprus constructed deputy\n
59.03	0.09	118060	keystroke	s	n/a
59.36	0.075	118720	keystroke	a	n/a
59.48	0.105	118960	keystroke	m	n/a
59.66	0.09	119320	keystroke	s	n/a
59.795	0.105	119590	keystroke	u	n/a
60.05	0.12	120100	keystroke	n	n/a
60.185	0.061	120370	keystroke	g	n/a
60.29	0.09	120580	keystroke	Key.space	n/a
60.545	0.075	121090	keystroke	c	n/a
60.68	0.105	121360	keystroke	y	n/a
60.98	0.015	121960	keystroke	p	n/a
61.13	0.09	122260	keystroke	r	n/a
61.175	0.09	122350	keystroke	e	n/a
61.415	0.09	122830	keystroke	s	n/a
61.565	0.105	123130	keystroke	s	n/a
62.795	0.09	125590	keystroke	Key.space	n/a
63.065	0.075	126130	keystroke	c	n/a
63.17	0.09	126340	keystroke	o	n/a
63.365	0.045	126730	keystroke	n	n/a
63.4845	0.195	126969	keystroke	s	n/a
64.0995	0.09	128199	keystroke	t	n/a
64.3095	0.09	128619	keystroke	r	n/a
64.5045	0.105	129009	keystroke	u	n/a
64.6395	0.12	129279	keystroke	c	n/a
64.9695	0.105	129939	keystroke	e	n/a
66.6645	0.09	133329	keystroke	Key.backspace	n/a
67.0095	0.075	134019	keystroke	t	n/a
67.1895	0.075	134379	keystroke	e	n/a
67.3845	0.075	134769	keystroke	d	n/a
67.5045	0.09	135009	keystroke	Key.space	n/a
67.8195	0.075	135639	keystroke	d	n/a
67.9845	0.06	135969	keystroke	e	n/a
68.2695	0.075	136539	keystroke	p	n/a
68.4945	0.09	136989	keystroke	u	n/a
68.7045	0.075	137409	keystroke	t	n/a
69.0645	0.075	138129	keystroke	y	n/a
69.7395	0.09	139479	keystroke	Key.enter	n/a
69.839	11.783	139678	prompt	n/a	donation bowling elizabeth sleep\n
70.8495	0.075	141699	keystroke	d	n/a
70.9695	0.09	141939	keystroke	o	n/a
71.1495	0.105	142299	keystroke	n	n/a
71.2695	0.135	142539	keystroke	a	n/a
71.4345	0.09	142869	keystroke	t	n/a
71.5855	0.179	143171	keystroke	i	n/a
71.6445	0.165	143289	keystroke	o	n/a
71.7345	0.135	143469	keystroke	n	n/a
71.8395	0.135	143679	keystroke	Key.space	n/a
72.4095	0.075	144819	keystroke	o	n/a
72.7995	0.075	145599	keystroke	Key.backspace	n/a
72.9645	0.075	145929	keystroke	b	n/a
73.1905	0.09	146381	keystroke	o	n/a
73.6695	0.09	147339	keystroke	w	n/a
73.8045	0.105	147609	keystroke	l	n/a
74.0745	0.045	148149	keystroke	i	n/a
74.2395	0.105	148479	keystroke	n	n/a
74.3895	0.06	148779	keystroke	g	n/a
74.4645	0.105	148929	keystroke	Key.space	n/a
74.6305	0.089	149261	keystroke	e	n/a
74.7945	0.09	149589	keystroke	l	n/a
75.1545	0.075	150309	keystroke	i	n/a
75.3645	0.09	150729	keystroke	z	n/a
75.5595	0.09	151119	keystroke	a	n/a
75.9045	0.09	151809	keystroke	b	n/a
76.1895	0.091	152379	keystroke	e	n/a
76.3845	0.06	152769	keystroke	t	n/a
76.5495	0.15	153099	keystroke	h	n/a
76.6695	0.135	153339	keystroke	Key.space	n/a
76.8645	0.09	153729	keystroke	s	n/a
76.9995	0.105	153999	keystroke	l	n/a
77.1195	0.076	154239	keystroke	e	n/a
78.62	0.045	157240	keystroke	e	n/a
78.725	0.06	157450	keystroke	p	n/a
81.593	0.027	163186	keystroke	Key.enter	n/a
81.628	11.17	163256	prompt	n/a	baskets rope online responsible\n
82.655	0.09	165310	keystroke	b	n/a
82.805	0.075	165610	keystroke	a	n/a
83.075	0.105	166150	keystroke	s	n/a
83.495	0.105	166990	keystroke	k	n/a
83.63	0.105	167260	keystroke	e	n/a
83.855	0.105	167710	keystroke	t	n/a
84.065	0.09	168130	keystroke	s	n/a
84.215	0.105	168430	keystroke	Key.space	n/a
84.44	0.075	168880	keystroke	r	n/a
84.8	0.106	169600	keystroke	o	n/a
84.995	0.09	169990	keystroke	p	n/a
85.355	0.09	170710	keystroke	b	n/a
87.563	0.027	175126	keystroke	Key.backspace	n/a
89.0445	0.06	178089	keystroke	e	n/a
89.2245	0.075	178449	keystroke	Key.space	n/a
89.4645	0.075	178929	keystroke	o	n/a
89.5995	0.12	179199	keystroke	n	n/a
89.6895	0.09	179379	keystroke	l	n/a
89.8545	0.105	179709	keystroke	i	n/a
90.0495	0.15	180099	keystroke	n	n/a
90.1845	0.09	180369	keystroke	e	n/a
90.2595	0.12	180519	keystroke	Key.space	n/a
90.5595	0.1055	181119	keystroke	r	n/a
90.6195	0.09	181239	keystroke	e	n/a
90.8445	0.09	181689	keystroke	s	n/a
90.9195	0.075	181839	keystroke	p	n/a
91.1295	0.105	182259	keystroke	o	n/a
91.3395	0.105	182679	keystroke	n	n/a
91.5195	0.09	183039	keystroke	s	n/a
91.6245	0.105	183249	keystroke	i	n/a
91.7895	0.075	183579	keystroke	b	n/a
91.9245	0.105	183849	keystroke	l	n/a
91.9995	0.075	183999	keystroke	e	n/a
92.7045	0.09	185409	keystroke	Key.enter	n/a
92.805	12.4715	185610	prompt	n/a	jazz peripheral darwin clothing\n
93.7545	0.12	187509	keystroke	j	n/a
93.8895	0.045	187779	keystroke	a	n/a
94.3245	0.075	188649	keystroke	z	n/a
94.4745	0.12	188949	keystroke	z	n/a
94.6545	0.075	189309	keystroke	Key.space	n/a
95.0745	0.06	190149	keystroke	p	n/a
95.2395	0.135	190479	keystroke	e	n/a
95.3895	0.12	190779	keystroke	r	n/a
95.8395	0.105	191679	keystroke	i	n/a
96.0645	0.105	192129	keystroke	p	n/a
96.4095	0.105	192819	keystroke	h	n/a
96.6345	0.15	193269	keystroke	e	n/a
96.7395	0.12	193479	keystroke	r	n/a
96.9345	0.075	193869	keystroke	a	n/a
97.0695	0.105	194139	keystroke	l	n/a
97.2045	0.12	194409	keystroke	Key.space	n/a
97.5345	0.09	195069	keystroke	d	n/a
97.8195	0.075	195639	keystroke	a	n/a
97.8795	0.075	195759	keystroke	r	n/a
98.1945	0.075	196389	keystroke	w	n/a
98.2845	0.105	196569	keystroke	i	n/a
98.4945	0.15	196989	keystroke	n	n/a
98.6145	0.12	197229	keystroke	Key.space	n/a
98.8545	0.075	197709	keystroke	c	n/a
98.9595	0.09	197919	keystroke	l	n/a
99.1695	0.105	198339	keystroke	o	n/a
99.2595	0.075	198519	keystroke	t	n/a
99.3795	0.105	198759	keystroke	h	n/a
99.5145	0.105	199029	keystroke	i	n/a
99.6795	0.105	199359	keystroke	n	n/a
99.7995	0.06	199599	keystroke	g	n/a
105.2475	0.027	210495	keystroke	Key.enter	n/a
105.2845	9.683	210569	prompt	n/a	knights differently retrieve operate\n
106.3245	0.12	212649	keystroke	k	n/a
106.7295	0.105	213459	keystroke	n	n/a
106.8655	0.119	213731	keystroke	i	n/a
107.1645	0.09	214329	keystroke	g	n/a
107.2695	0.135	214539	keystroke	h	n/a
107.3595	0.105	214719	keystroke	t	n/a
107.4795	0.09	214959	keystroke	s	n/a
107.6145	0.09	215229	keystroke	Key.space	n/a
108.1995	0.06	216399	keystroke	d	n/a
108.3045	0.09	216609	keystroke	i	n/a
108.4845	0.06	216969	keystroke	f	n/a
108.6345	0.09	217269	keystroke	f	n/a
108.9045	0.06	217809	keystroke	e	n/a
108.9495	0.12	217899	keystroke	r	n/a
109.0545	0.075	218109	keystroke	e	n/a
109.2795	0.09	218559	keystroke	n	n/a
109.3545	0.075	218709	keystroke	t	n/a
109.4895	0.105	218979	keystroke	l	n/a
109.6545	0.195	219309	keystroke	y	n/a
109.8645	0.135	219729	keystroke	Key.space	n/a
110.7645	0.105	221529	keystroke	r	n/a
110.8405	0.089	221681	keystroke	e	n/a
111.0495	0.09	222099	keystroke	t	n/a
112.1005	0.104	224201	keystroke	r	n/a
112.5055	0.089	225011	keystroke	i	n/a
112.6695	0.06	225339	keystroke	e	n/a
112.8645	0.075	225729	keystroke	v	n/a
112.9405	0.119	225881	keystroke	e	n/a
113.1795	0.12	226359	keystroke	Key.space	n/a
113.4645	0.105	226929	keystroke	o	n/a
113.6595	0.09	227319	keystroke	p	n/a
113.8395	0.09	227679	keystroke	e	n/a
113.9145	0.135	227829	keystroke	r	n/a
114.1095	0.105	228219	keystroke	a	n/a
114.1845	0.105	228369	keystroke	t	n/a
114.3045	0.075	228609	keystroke	e	n/a
114.8895	0.075	229779	keystroke	Key.enter	n/a
114.9745	7.343	229949	prompt	n/a	disney gasoline values pressing\n
115.9845	0.09	231969	keystroke	d	n/a
116.1195	0.106	232239	keystroke	i	n/a
116.2395	0.09	232479	keystroke	s	n/a
116.5245	0.105	233049	keystroke	n	n/a
116.6595	0.06	233319	keystroke	e	n/a
116.8695	0.15	233739	keystroke	y	n/a
116.9895	0.12	233979	keystroke	Key.space	n/a
117.2895	0.105	234579	keystroke	g	n/a
117.4245	0.075	234849	keystroke	a	n/a
117.8295	0.091	235659	keystroke	s	n/a
118.3105	0.09	236621	keystroke	o	n/a
118.5345	0.106	237069	keystroke	l	n/a
118.7605	0.059	237521	keystroke	i	n/a
118.9555	0.149	237911	keystroke	n	n/a
119.0595	0.09	238119	keystroke	e	n/a
119.2105	0.059	238421	keystroke	Key.space	n/a
119.3895	0.105	238779	keystroke	v	n/a
119.4955	0.104	238991	keystroke	a	n/a
119.6595	0.135	239319	keystroke	l	n/a
119.9295	0.105	239859	keystroke	u	n/a
120.2605	0.074	240521	keystroke	e	n/a
120.4545	0.09	240909	keystroke	s	n/a
120.5745	0.09	241149	keystroke	Key.space	n/a
120.8905	0.119	241781	keystroke	p	n/a
120.9945	0.105	241989	keystroke	r	n/a
121.0545	0.105	242109	keystroke	e	n/a
121.2795	0.076	242559	keystroke	s	n/a
121.4305	0.119	242861	keystroke	s	n/a
121.5055	0.074	243011	keystroke	i	n/a
121.6105	0.105	243221	keystroke	n	n/a
121.7445	0.076	243489	keystroke	g	n/a
122.2395	0.075	244479	keystroke	Key.enter	n/a
122.325	11.678	244650	prompt	n/a	health florist privacy breathing\n
124.8835	0.027	249767	keystroke	h	n/a
125.1345	0.061	250269	keystroke	e	n/a
125.2855	0.074	250571	keystroke	a	n/a
125.4495	0.106	250899	keystroke	l	n/a
125.6155	0.059	251231	keystroke	t	n/a
125.7355	0.134	251471	keystroke	h	n/a
125.8545	0.09	251709	keystroke	Key.space	n/a
126.7255	0.074	253451	keystroke	f	n/a
126.9645	0.061	253929	keystroke	l	n/a
127.1745	0.06	254349	keystroke	o	n/a
127.2805	0.135	254561	keystroke	r	n/a
127.5805	0.105	255161	keystroke	i	n/a
127.6555	0.104	255311	keystroke	s	n/a
127.8655	0.075	255731	keystroke	t	n/a
128.764	0.075	257528	keystroke	Key.space	n/a
129.709	0.09	259418	keystroke	p	n/a
129.814	0.09	259628	keystroke	r	n/a
129.965	0.0905	259930	keystroke	i	n/a
130.174	0.106	260348	keystroke	v	n/a
130.355	0.089	260710	keystroke	a	n/a
130.595	0.06	261190	keystroke	c	n/a
130.759	0.12	261518	keystroke	y	n/a
130.894	0.09	261788	keystroke	Key.space	n/a
131.464	0.03	262928	keystroke	b	n/a
131.644	0.136	263288	keystroke	r	n/a
131.734	0.075	263468	keystroke	e	n/a
131.825	0.119	263650	keystroke	a	n/a
131.93	0.135	263860	keystroke	t	n/a
132.514	0.075	265028	keystroke	h	n/a
132.619	0.12	265238	keystroke	i	n/a
132.769	0.12	265538	keystroke	n	n/a
132.905	0.089	265810	keystroke	g	n/a
133.25	0.089	266500	keystroke	s	n/a
133.925	0.074	267850	keystroke	Key.enter	n/a
134.01	19.5075	268020	prompt	n/a	companion governmental demand adds\n
134.9	0.105	269800	keystroke	c	n/a
135.244	0.091	270488	keystroke	o	n/a
135.41	0.164	270820	keystroke	m	n/a
135.53	0.12	271060	keystroke	p	n/a
135.74	0.075	271480	keystroke	a	n/a
135.995	0.015	271990	keystroke	n	n/a
136.13	0.089	272260	keystroke	i	n/a
136.369	0.076	272738	keystroke	i	n/a
136.385	0.135	272770	keystroke	o	n/a
136.565	0.12	273130	keystroke	n	n/a
139.0125	0.027	278025	keystroke	Key.backspace	n/a
139.2345	0.09	278469	keystroke	Key.backspace	n/a
139.4745	0.06	278949	keystroke	Key.backspace	n/a
140.3745	0.075	280749	keystroke	o	n/a
140.8395	0.09	281679	keystroke	n	n/a
141.0645	0.09	282129	keystroke	Key.space	n/a
141.7995	0.09	283599	keystroke	g	n/a
142.0695	0.075	284139	keystroke	o	n/a
142.2945	0.09	284589	keystroke	v	n/a
142.5195	0.09	285039	keystroke	e	n/a
142.5795	0.075	285159	keystroke	r	n/a
142.8195	0.075	285639	keystroke	n	n/a
143.0145	0.135	286029	keystroke	m	n/a
143.0755	0.119	286151	keystroke	a	n/a
145.4175	0.027	290835	keystroke	Key.backspace	n/a
145.5495	0.075	291099	keystroke	e	n/a
145.79	0.0745	291580	keystroke	n	n/a
146.4045	0.09	292809	keystroke	t	n/a
146.5395	0.105	293079	keystroke	Key.space	n/a
148.5945	0.09	297189	keystroke	Key.backspace	n/a
148.6995	0.075	297399	keystroke	a	n/a
149.2545	0.12	298509	keystroke	l	n/a
149.3895	0.12	298779	keystroke	Key.space	n/a
149.6595	0.075	299319	keystroke	d	n/a
149.7945	0.075	299589	keystroke	e	n/a
149.9145	0.12	299829	keystroke	m	n/a
150.0195	0.09	300039	keystroke	a	n/a
150.3345	0.105	300669	keystroke	n	n/a
150.4995	0.075	300999	keystroke	d	n/a
150.5895	0.105	301179	keystroke	Key.space	n/a
150.8745	0.06	301749	keystroke	s	n/a
151.7445	0.075	303489	keystroke	Key.backspace	n/a
152.3295	0.09	304659	keystroke	a	n/a
152.5545	0.045	305109	keystroke	d	n/a
152.6745	0.09	305349	keystroke	d	n/a
152.9145	0.075	305829	keystroke	s	n/a
153.4545	0.06	306909	keystroke	Key.enter	n/a
153.526	9.249	307052	prompt	n/a	whose advocacy chicks driving\n
154.5345	0.09	309069	keystroke	w	n/a
154.6995	0.135	309399	keystroke	h	n/a
154.8645	0.105	309729	keystroke	o	n/a
155.0445	0.09	310089	keystroke	s	n/a
155.6145	0.075	311229	keystroke	e	n/a
155.7195	0.09	311439	keystroke	Key.space	n/a
155.9595	0.105	311919	keystroke	a	n/a
156.1995	0.075	312399	keystroke	d	n/a
156.5745	0.09	313149	keystroke	v	n/a
156.8445	0.075	313689	keystroke	o	n/a
156.9945	0.105	313989	keystroke	c	n/a
157.1745	0.09	314349	keystroke	a	n/a
157.9995	0.075	315999	keystroke	c	n/a
158.2395	0.12	316479	keystroke	y	n/a
158.4495	0.09	316899	keystroke	Key.space	n/a
158.8095	0.105	317619	keystroke	c	n/a
158.9445	0.12	317889	keystroke	h	n/a
159.2445	0.12	318489	keystroke	i	n/a
159.6045	0.09	319209	keystroke	c	n/a
159.7695	0.105	319539	keystroke	k	n/a
160.0245	0.075	320049	keystroke	s	n/a
160.1445	0.09	320289	keystroke	Key.space	n/a
160.6695	0.075	321339	keystroke	d	n/a
160.8795	0.075	321759	keystroke	r	n/a
161.0755	0.089	322151	keystroke	i	n/a
161.4055	0.089	322811	keystroke	v	n/a
161.6005	0.089	323201	keystroke	i	n/a
161.7345	0.12	323469	keystroke	n	n/a
161.9445	0.075	323889	keystroke	g	n/a
162.6795	0.09	325359	keystroke	Key.enter	n/a
162.781	14.316	325562	prompt	n/a	departments helping text nuke\n
166.6145	0	333229	keystroke	d	n/a
167.0445	0.075	334089	keystroke	e	n/a
167.1945	0.075	334389	keystroke	p	n/a
167.99	0.09	335980	keystroke	a	n/a
168.335	0.09	336670	keystroke	r	n/a
168.56	0.09	337120	keystroke	t	n/a
169.085	0.12	338170	keystroke	m	n/a
169.16	0.075	338320	keystroke	e	n/a
169.355	0.06	338710	keystroke	n	n/a
169.445	0.105	338890	keystroke	t	n/a
169.595	0.105	339190	keystroke	s	n/a
170.33	0.075	340660	keystroke	Key.space	n/a
170.75	0.09	341500	keystroke	h	n/a
171.29	0.075	342580	keystroke	e	n/a
172.055	0.09	344110	keystroke	l	n/a
172.28	0.075	344560	keystroke	p	n/a
173.33	0.075	346660	keystroke	i	n/a
173.525	0.09	347050	keystroke	n	n/a
173.735	0.075	347470	keystroke	g	n/a
174.38	0.105	348760	keystroke	Key.space	n/a
174.8445	0.075	349689	keystroke	t	n/a
175.0695	0.045	350139	keystroke	e	n/a
175.2945	0.12	350589	keystroke	x	n/a
175.4445	0.075	350889	keystroke	t	n/a
175.6245	0.09	351249	keystroke	Key.space	n/a
175.9695	0.105	351939	keystroke	n	n/a
176.24	0.0745	352480	keystroke	u	n/a
176.4795	0.105	352959	keystroke	k	n/a
176.6145	0.075	353229	keystroke	e	n/a
177.0195	0.075	354039	keystroke	Key.enter	n/a
177.1035	7.0135	354207	prompt	n/a	engines volvo garbage andy\n
178.0245	0.075	356049	keystroke	e	n/a
178.1595	0.105	356319	keystroke	n	n/a
178.3245	0.06	356649	keystroke	g	n/a
178.4145	0.06	356829	keystroke	i	n/a
178.5195	0.105	357039	keystroke	n	n/a
178.6545	0.075	357309	keystroke	e	n/a
178.8495	0.09	357699	keystroke	s	n/a
178.9695	0.105	357939	keystroke	Key.space	n/a
179.3295	0.075	358659	keystroke	v	n/a
179.4345	0.075	358869	keystroke	o	n/a
179.6595	0.09	359319	keystroke	l	n/a
179.7645	0.06	359529	keystroke	v	n/a
179.8695	0.09	359739	keystroke	o	n/a
180.1095	0.09	360219	keystroke	Key.space	n/a
181.0395	0.105	362079	keystroke	g	n/a
181.2195	0.135	362439	keystroke	a	n/a
181.3395	0.09	362679	keystroke	r	n/a
181.8795	0.09	363759	keystroke	b	n/a
182.0295	0.15	364059	keystroke	a	n/a
182.3895	0.135	364779	keystroke	g	n/a
182.5695	0.09	365139	keystroke	e	n/a
182.7945	0.075	365589	keystroke	Key.space	n/a
183.1395	0.06	366279	keystroke	a	n/a
183.3045	0.09	366609	keystroke	n	n/a
183.4845	0.075	366969	keystroke	d	n/a
183.6945	0.06	367389	keystroke	y	n/a
184.0245	0.09	368049	keystroke	Key.enter	n/a
184.123	9.113	368246	prompt	n/a	truth coalition xerox smooth\n
185.7055	0.074	371411	keystroke	t	n/a
185.8845	0.075	371769	keystroke	r	n/a
186.1245	0.105	372249	keystroke	u	n/a
186.2745	0.09	372549	keystroke	t	n/a
186.4095	0.12	372819	keystroke	h	n/a
186.4995	0.12	372999	keystroke	Key.space	n/a
186.8595	0.1055	373719	keystroke	c	n/a
186.9795	0.09	373959	keystroke	o	n/a
187.4295	0.06	374859	keystroke	a	n/a
187.5495	0.135	375099	keystroke	l	n/a
188.3145	0.075	376629	keystroke	i	n/a
188.5995	0.06	377199	keystroke	t	n/a
188.6745	0.225	377349	keystroke	i	n/a
188.7795	0.15	377559	keystroke	o	n/a
188.8695	0.135	377739	keystroke	n	n/a
189.6195	0.075	379239	keystroke	Key.space	n/a
190.2195	0.12	380439	keystroke	x	n/a
190.4895	0.075	380979	keystroke	e	n/a
190.7895	0.105	381579	keystroke	r	n/a
190.9845	0.075	381969	keystroke	o	n/a
191.2245	0.09	382449	keystroke	x	n/a
191.4495	0.06	382899	keystroke	Key.space	n/a
192.1095	0.075	384219	keystroke	s	n/a
192.2895	0.105	384579	keystroke	m	n/a
192.4395	0.06	384879	keystroke	o	n/a
192.6195	0.09	385239	keystroke	o	n/a
192.7395	0.075	385479	keystroke	t	n/a
192.9045	0.075	385809	keystroke	h	n/a
193.1895	0.045	386379	keystroke	Key.enter	n/a
193.241	8.3065	386482	prompt	n/a	infant recipe indicate robbie\n
194.2395	0.075	388479	keystroke	i	n/a
194.4195	0.09	388839	keystroke	n	n/a
194.5695	0.105	389139	keystroke	f	n/a
194.6895	0.076	389379	keystroke	a	n/a
194.9745	0.09	389949	keystroke	n	n/a
195.2445	0.03	390489	keystroke	t	n/a
195.3195	0.075	390639	keystroke	Key.space	n/a
196.0245	0.12	392049	keystroke	r	n/a
196.1145	0.105	392229	keystroke	e	n/a
196.7445	0.075	393489	keystroke	c	n/a
196.9095	0.09	393819	keystroke	i	n/a
197.1045	0.09	394209	keystroke	p	n/a
197.5995	0.06	395199	keystroke	e	n/a
197.7945	0.09	395589	keystroke	Key.space	n/a
198.2595	0.075	396519	keystroke	i	n/a
198.4245	0.105	396849	keystroke	n	n/a
199.0995	0.075	398199	keystroke	d	n/a
199.2045	0.075	398409	keystroke	i	n/a
199.3695	0.105	398739	keystroke	c	n/a
199.4895	0.09	398979	keystroke	a	n/a
199.6095	0.03	399219	keystroke	t	n/a
199.6545	0.075	399309	keystroke	e	n/a
199.9695	0.09	399939	keystroke	Key.space	n/a
200.3445	0.06	400689	keystroke	r	n/a
200.4795	0.075	400959	keystroke	o	n/a
200.6745	0.075	401349	keystroke	b	n/a
200.8095	0.12	401619	keystroke	b	n/a
201.0495	0.06	402099	keystroke	i	n/a
201.1845	0.06	402369	keystroke	e	n/a
201.4695	0.075	402939	keystroke	Key.enter	n/a
201.554	14.1825	403108	prompt	n/a	packaging approximate commented jennifer\n
202.5495	0.09	405099	keystroke	p	n/a
202.6545	0.075	405309	keystroke	a	n/a
202.8645	0.105	405729	keystroke	c	n/a
202.9845	0.09	405969	keystroke	k	n/a
203.1195	0.09	406239	keystroke	a	n/a
203.3445	0.106	406689	keystroke	g	n/a
203.4645	0.06	406929	keystroke	i	n/a
203.6295	0.15	407259	keystroke	n	n/a
203.7945	0.075	407589	keystroke	g	n/a
203.8545	0.12	407709	keystroke	Key.space	n/a
204.0195	0.075	408039	keystroke	a	n/a
204.1545	0.09	408309	keystroke	p	n/a
204.3495	0.105	408699	keystroke	p	n/a
204.6045	0.075	409209	keystroke	r	n/a
204.7395	0.105	409479	keystroke	o	n/a
204.9945	0.09	409989	keystroke	x	n/a
205.1295	0.09	410259	keystroke	i	n/a
205.3395	0.091	410679	keystroke	m	n/a
205.4595	0.15	410919	keystroke	a	n/a
205.5945	0.105	411189	keystroke	t	n/a
205.6845	0.09	411369	keystroke	e	n/a
205.9245	0.075	411849	keystroke	Key.space	n/a
206.6145	0.091	413229	keystroke	c	n/a
206.7195	0.105	413439	keystroke	o	n/a
206.9745	0.075	413949	keystroke	m	n/a
207.1245	0.09	414249	keystroke	m	n/a
207.2295	0.075	414459	keystroke	e	n/a
207.3645	0.075	414729	keystroke	n	n/a
207.4545	0.091	414909	keystroke	t	n/a
207.5745	0.09	415149	keystroke	e	n/a
207.769	0.09	415538	keystroke	d	n/a
207.919	0.075	415838	keystroke	Key.space	n/a
208.37	0.104	416740	keystroke	j	n/a
208.594	0.076	417188	keystroke	e	n/a
208.76	0.06	417520	keystroke	n	n/a
208.8945	0.09	417789	keystroke	n	n/a
209.12	0.0745	418240	keystroke	i	n/a
209.5695	0.06	419139	keystroke	e	n/a
210.7995	0.09	421599	keystroke	Key.backspace	n/a
211.3545	0.09	422709	keystroke	f	n/a
211.5945	0.06	423189	keystroke	e	n/a
211.6245	0.075	423249	keystroke	r	n/a
215.6925	0.042	431385	keystroke	Key.enter	n/a
215.7415	6.7895	431483	prompt	n/a	opens deposit inkjet bottles\n
216.7845	0.075	433569	keystroke	o	n/a
216.9495	0.105	433899	keystroke	p	n/a
217.0995	0.06	434199	keystroke	e	n/a
217.1745	0.12	434349	keystroke	n	n/a
217.3395	0.105	434679	keystroke	s	n/a
217.4595	0.105	434919	keystroke	Key.space	n/a
217.6395	0.09	435279	keystroke	d	n/a
217.8195	0.06	435639	keystroke	e	n/a
217.9245	0.09	435849	keystroke	p	n/a
218.1195	0.12	436239	keystroke	o	n/a
218.2245	0.135	436449	keystroke	s	n/a
218.4045	0.075	436809	keystroke	i	n/a
218.4945	0.075	436989	keystroke	t	n/a
218.5995	0.105	437199	keystroke	Key.space	n/a
218.8845	0.075	437769	keystroke	i	n/a
219.0495	0.135	438099	keystroke	n	n/a
219.2595	0.09	438519	keystroke	k	n/a
219.9045	0.105	439809	keystroke	j	n/a
220.0695	0.075	440139	keystroke	e	n/a
220.2945	0.075	440589	keystroke	t	n/a
220.4145	0.105	440829	keystroke	Key.space	n/a
220.7145	0.06	441429	keystroke	b	n/a
220.8795	0.075	441759	keystroke	o	n/a
221.0445	0.075	442089	keystroke	t	n/a
221.1645	0.09	442329	keystroke	t	n/a
221.3145	0.105	442629	keystroke	l	n/a
221.4345	0.06	442869	keystroke	e	n/a
221.5995	0.09	443199	keystroke	s	n/a
222.4395	0.09	444879	keystroke	Key.enter	n/a
222.5375	6.384	445075	prompt	n/a	graphs nail assign scores\n
223.5345	0.09	447069	keystroke	g	n/a
223.7295	0.105	447459	keystroke	r	n/a
223.8495	0.075	447699	keystroke	a	n/a
224.0295	0.06	448059	keystroke	p	n/a
224.2095	0.09	448419	keystroke	h	n/a
224.3295	0.09	448659	keystroke	s	n/a
224.5245	0.075	449049	keystroke	Key.space	n/a
224.7195	0.105	449439	keystroke	n	n/a
225.2145	0.06	450429	keystroke	a	n/a
225.3495	0.075	450699	keystroke	i	n/a
225.5295	0.105	451059	keystroke	l	n/a
225.6945	0.105	451389	keystroke	Key.space	n/a
225.9645	0.075	451929	keystroke	a	n/a
226.1595	0.06	452319	keystroke	s	n/a
226.2945	0.105	452589	keystroke	s	n/a
226.4295	0.075	452859	keystroke	i	n/a
226.7595	0.06	453519	keystroke	g	n/a
227.0745	0.105	454149	keystroke	n	n/a
227.2095	0.105	454419	keystroke	Key.space	n/a
227.6445	0.06	455289	keystroke	s	n/a
227.8395	0.075	455679	keystroke	c	n/a
227.9895	0.09	455979	keystroke	o	n/a
228.2445	0.09	456489	keystroke	r	n/a
228.3495	0.105	456699	keystroke	e	n/a
228.6045	0.075	457209	keystroke	s	n/a
228.8295	0.09	457659	keystroke	Key.enter	n/a
228.9255	7.4065	457851	prompt	n/a	rankings human uncle exports\n
229.8345	0.09	459669	keystroke	r	n/a
229.9705	0.059	459941	keystroke	a	n/a
230.1045	0.105	460209	keystroke	n	n/a
230.2695	0.12	460539	keystroke	k	n/a
230.4945	0.09	460989	keystroke	i	n/a
230.6745	0.135	461349	keystroke	n	n/a
230.8695	0.12	461739	keystroke	g	n/a
231.5745	0.105	463149	keystroke	s	n/a
231.7245	0.09	463449	keystroke	Key.space	n/a
232.0245	0.105	464049	keystroke	h	n/a
232.2345	0.075	464469	keystroke	u	n/a
232.4745	0.105	464949	keystroke	m	n/a
232.5945	0.075	465189	keystroke	a	n/a
232.7145	0.135	465429	keystroke	n	n/a
232.8195	0.105	465639	keystroke	Key.space	n/a
233.1045	0.075	466209	keystroke	u	n/a
233.3145	0.09	466629	keystroke	n	n/a
233.9745	0.075	467949	keystroke	c	n/a
234.1095	0.09	468219	keystroke	l	n/a
234.3645	0.06	468729	keystroke	e	n/a
234.5445	0.06	469089	keystroke	Key.space	n/a
235.0695	0.075	470139	keystroke	e	n/a
235.2945	0.075	470589	keystroke	x	n/a
235.4145	0.105	470829	keystroke	p	n/a
235.6695	0.09	471339	keystroke	o	n/a
235.7605	0.089	471521	keystroke	r	n/a
235.9545	0.09	471909	keystroke	t	n/a
236.1045	0.075	472209	keystroke	s	n/a
236.2545	0.075	472509	keystroke	Key.enter	n/a
236.3375	8.704	472675	prompt	n/a	transactions breeds willing involved\n
237.425	0.089	474850	keystroke	t	n/a
237.634	0.091	475268	keystroke	r	n/a
237.755	0.075	475510	keystroke	a	n/a
237.92	0.09	475840	keystroke	n	n/a
238.28	0.089	476560	keystroke	s	n/a
238.504	0.091	477008	keystroke	a	n/a
238.82	0.09	477640	keystroke	c	n/a
238.88	0.075	477760	keystroke	t	n/a
239.03	0.225	478060	keystroke	i	n/a
239.12	0.15	478240	keystroke	o	n/a
239.21	0.194	478420	keystroke	n	n/a
239.42	0.075	478840	keystroke	s	n/a
239.57	0.075	479140	keystroke	Key.space	n/a
240.485	0.075	480970	keystroke	b	n/a
240.71	0.105	481420	keystroke	r	n/a
240.799	0.076	481598	keystroke	e	n/a
240.98	0.09	481960	keystroke	e	n/a
241.16	0.09	482320	keystroke	d	n/a
241.31	0.09	482620	keystroke	s	n/a
241.52	0.089	483040	keystroke	Key.space	n/a
241.984	0.076	483968	keystroke	w	n/a
242.135	0.09	484270	keystroke	i	n/a
242.345	0.074	484690	keystroke	l	n/a
242.51	0.1045	485020	keystroke	l	n/a
242.7345	0.045	485469	keystroke	i	n/a
242.8995	0.12	485799	keystroke	n	n/a
243.0495	0.075	486099	keystroke	g	n/a
243.0945	0.105	486189	keystroke	Key.space	n/a
243.2295	0.09	486459	keystroke	i	n/a
243.3645	0.09	486729	keystroke	n	n/a
243.7545	0.09	487509	keystroke	v	n/a
243.9045	0.09	487809	keystroke	o	n/a
244.1295	0.105	488259	keystroke	l	n/a
244.1895	0.09	488379	keystroke	v	n/a
244.3545	0.075	488709	keystroke	e	n/a
244.5345	0.06	489069	keystroke	d	n/a
244.9545	0.075	489909	keystroke	Key.enter	n/a
245.0455	13.7615	490091	prompt	n/a	minister catalogue mobiles student\n
246.0795	0.1045	492159	keystroke	m	n/a
246.214	0.106	492428	keystroke	i	n/a
246.394	0.105	492788	keystroke	n	n/a
246.559	0.09	493118	keystroke	i	n/a
246.754	0.135	493508	keystroke	s	n/a
246.86	0.104	493720	keystroke	t	n/a
247.024	0.09	494048	keystroke	e	n/a
247.099	0.075	494198	keystroke	r	n/a
247.279	0.075	494558	keystroke	Key.space	n/a
247.745	0.089	495490	keystroke	c	n/a
247.864	0.12	495728	keystroke	a	n/a
248.104	0.075	496208	keystroke	t	n/a
248.704	0.06	497408	keystroke	a	n/a
249.394	0.075	498788	keystroke	l	n/a
249.589	0.075	499178	keystroke	o	n/a
251.659	0.09	503318	keystroke	g	n/a
251.884	0.075	503768	keystroke	u	n/a
252.079	0.09	504158	keystroke	e	n/a
252.559	0.075	505118	keystroke	Key.space	n/a
253.129	0.09	506258	keystroke	m	n/a
253.324	0.105	506648	keystroke	o	n/a
253.519	0.075	507038	keystroke	b	n/a
253.609	0.09	507218	keystroke	i	n/a
253.789	0.12	507578	keystroke	l	n/a
253.879	0.075	507758	keystroke	e	n/a
254.044	0.09	508088	keystroke	s	n/a
254.149	0.09	508298	keystroke	Key.space	n/a
254.314	0.09	508628	keystroke	s	n/a
254.375	0.104	508750	keystroke	t	n/a
254.824	0.12	509648	keystroke	u	n/a
255.094	0.075	510188	keystroke	d	n/a
255.274	0.075	510548	keystroke	e	n/a
255.559	0.09	511118	keystroke	n	n/a
255.679	0.045	511358	keystroke	t	n/a
258.803	0.001	517606	keystroke	Key.enter	n/a
258.813	11.659	517626	prompt	n/a	become sell hero lending\n
259.865	0.015	519730	keystroke	b	n/a
260.449	0.06	520898	keystroke	e	n/a
260.719	0.06	521438	keystroke	c	n/a
260.794	0.12	521588	keystroke	o	n/a
260.899	0.24	521798	keystroke	m	n/a
261.065	0.089	522130	keystroke	e	n/a
261.364	0.09	522728	keystroke	Key.space	n/a
261.635	0.0595	523270	keystroke	e	n/a
262.1895	0.045	524379	keystroke	e	n/a
262.5645	0.075	525129	keystroke	Key.backspace	n/a
262.7295	0.09	525459	keystroke	Key.backspace	n/a
262.8945	0.09	525789	keystroke	s	n/a
263.2845	0.075	526569	keystroke	e	n/a
263.7495	0.06	527499	keystroke	l	n/a
263.8845	0.105	527769	keystroke	l	n/a
264.0795	0.09	528159	keystroke	Key.space	n/a
264.5745	0.12	529149	keystroke	h	n/a
264.6645	0.075	529329	keystroke	e	n/a
264.8745	0.06	529749	keystroke	r	n/a
264.9645	0.075	529929	keystroke	o	n/a
265.1145	0.105	530229	keystroke	Key.space	n/a
265.5795	0.12	531159	keystroke	l	n/a
265.8195	0.06	531639	keystroke	e	n/a
265.9245	0.09	531849	keystroke	n	n/a
266.0745	0.075	532149	keystroke	i	n/a
266.6745	0.06	533349	keystroke	=	n/a
267.8595	0.105	535719	keystroke	Key.backspace	n/a
268.9395	0.09	537879	keystroke	Key.backspace	n/a
269.2695	0.075	538539	keystroke	d	n/a
269.5695	0.075	539139	keystroke	i	n/a
269.7495	0.09	539499	keystroke	n	n/a
269.8995	0.075	539799	keystroke	g	n/a
270.3945	0.075	540789	keystroke	Key.enter	n/a
270.4775	9.2485	540955	prompt	n/a	fell stanley browse john\n
271.4295	0.09	542859	keystroke	f	n/a
271.5945	0.09	543189	keystroke	e	n/a
271.7745	0.09	543549	keystroke	l	n/a
271.9545	0.135	543909	keystroke	l	n/a
272.1345	0.09	544269	keystroke	Key.space	n/a
272.2395	0.12	544479	keystroke	s	n/a
272.3745	0.09	544749	keystroke	t	n/a
272.4795	0.105	544959	keystroke	a	n/a
272.6145	0.105	545229	keystroke	n	n/a
272.8545	0.105	545709	keystroke	l	n/a
273.0495	0.06	546099	keystroke	e	n/a
273.2595	0.105	546519	keystroke	y	n/a
273.4395	0.105	546879	keystroke	Key.space	n/a
273.8295	0.075	547659	keystroke	b	n/a
274.8645	0.015	549729	keystroke	r	n/a
275.3145	0.09	550629	keystroke	w	n/a
276.6795	0.09	553359	keystroke	Key.backspace	n/a
277.3695	0.075	554739	keystroke	o	n/a
277.4895	0.075	554979	keystroke	w	n/a
277.7895	0.075	555579	keystroke	s	n/a
277.9545	0.06	555909	keystroke	e	n/a
278.1345	0.09	556269	keystroke	Key.space	n/a
278.5695	0.09	557139	keystroke	j	n/a
278.7645	0.06	557529	keystroke	o	n/a
278.9595	0.075	557919	keystroke	h	n/a
279.1845	0.075	558369	keystroke	n	n/a
279.6645	0.06	559329	keystroke	Key.enter	n/a
279.7305	11.1865	559461	prompt	n/a	inexpensive debut pretty turtle\n
280.685	0.074	561370	keystroke	i	n/a
280.864	0.106	561728	keystroke	n	n/a
281.09	0.059	562180	keystroke	e	n/a
281.299	0.135	562598	keystroke	x	n/a
281.899	0.105	563798	keystroke	p	n/a
282.244	0.076	564488	keystroke	e	n/a
282.439	0.075	564878	keystroke	n	n/a
282.649	0.09	565298	keystroke	s	n/a
282.769	0.075	565538	keystroke	i	n/a
283.099	0.075	566198	keystroke	v	n/a
283.264	0.06	566528	keystroke	e	n/a
283.384	0.09	566768	keystroke	Key.space	n/a
283.564	0.09	567128	keystroke	d	n/a
283.714	0.075	567428	keystroke	e	n/a
284.014	0.075	568028	keystroke	b	n/a
284.134	0.12	568268	keystroke	u	n/a
284.329	0.075	568658	keystroke	t	n/a
284.539	0.075	569078	keystroke	Key.space	n/a
284.944	0.105	569888	keystroke	p	n/a
285.064	0.12	570128	keystroke	r	n/a
285.469	0.075	570938	keystroke	e	n/a
285.859	0.09	571718	keystroke	t	n/a
286.069	0.075	572138	keystroke	t	n/a
286.384	0.09	572768	keystroke	y	n/a
286.699	0.015	573398	keystroke	Key.space	n/a
287.029	0.15	574058	keystroke	t	n/a
287.344	0.09	574688	keystroke	u	n/a
287.449	0.105	574898	keystroke	r	n/a
287.869	0.06	575738	keystroke	t	n/a
288.064	0.09	576128	keystroke	l	n/a
288.169	0.06	576338	keystroke	e	n/a
288.919	0.105	577838	keystroke	Key.backspace	n/a
290.224	0.075	580448	keystroke	e	n/a
290.854	0.06	581708	keystroke	Key.enter	n/a
290.923	7.3445	581846	prompt	n/a	assign sims wants relevance\n
291.859	0.075	583718	keystroke	a	n/a
292.054	0.075	584108	keystroke	s	n/a
292.204	0.105	584408	keystroke	s	n/a
292.31	0.059	584620	keystroke	i	n/a
292.969	0.09	585938	keystroke	g	n/a
293.074	0.135	586148	keystroke	n	n/a
293.21	0.089	586420	keystroke	Key.space	n/a
293.554	0.075	587108	keystroke	s	n/a
293.825	0.104	587650	keystroke	i	n/a
294.004	0.105	588008	keystroke	m	n/a
294.184	0.075	588368	keystroke	s	n/a
294.319	0.09	588638	keystroke	Key.space	n/a
294.739	0.076	589478	keystroke	w	n/a
294.919	0.076	589838	keystroke	a	n/a
295.099	0.09	590198	keystroke	n	n/a
295.249	0.09	590498	keystroke	t	n/a
295.429	0.075	590858	keystroke	s	n/a
295.564	0.09	591128	keystroke	Key.space	n/a
295.924	0.075	591848	keystroke	r	n/a
296	0.089	592000	keystroke	e	n/a
296.194	0.105	592388	keystroke	l	n/a
296.269	0.105	592538	keystroke	e	n/a
296.705	0.074	593410	keystroke	v	n/a
297.229	0.075	594458	keystroke	a	n/a
297.364	0.105	594728	keystroke	n	n/a
297.604	0.09	595208	keystroke	c	n/a
297.784	0.06	595568	keystroke	e	n/a
298.189	0.075	596378	keystroke	Key.enter	n/a
298.2735	13.0135	596547	prompt	n/a	jelsoft describe americans pictures\n
299.404	0.105	598808	keystroke	j	n/a
299.525	0.059	599050	keystroke	e	n/a
299.645	0.105	599290	keystroke	l	n/a
299.809	0.09	599618	keystroke	s	n/a
300.229	0.075	600458	keystroke	o	n/a
300.364	0.09	600728	keystroke	f	n/a
300.65	0.104	601300	keystroke	t	n/a
300.814	0.09	601628	keystroke	Key.space	n/a
301.115	0.075	602230	keystroke	d	n/a
301.265	0.059	602530	keystroke	e	n/a
301.519	0.09	603038	keystroke	s	n/a
301.924	0.09	603848	keystroke	f	n/a
302.869	0.06	605738	keystroke	Key.backspace	n/a
303.695	0.074	607390	keystroke	r	n/a
303.964	0.09	607928	keystroke	i	n/a
304.114	0.076	608228	keystroke	b	n/a
304.309	0.061	608618	keystroke	l	n/a
304.7735	0.076	609547	keystroke	e	n/a
305.1335	0.045	610267	keystroke	Key.backspace	n/a
305.2835	0.075	610567	keystroke	Key.backspace	n/a
305.5695	0.074	611139	keystroke	e	n/a
306.4085	0.09	612817	keystroke	Key.space	n/a
306.6335	0.076	613267	keystroke	a	n/a
306.7685	0.09	613537	keystroke	m	n/a
307.0995	0.09	614199	keystroke	e	n/a
307.1735	0.105	614347	keystroke	r	n/a
307.3395	0.105	614679	keystroke	i	n/a
307.4895	0.134	614979	keystroke	c	n/a
307.5795	0.09	615159	keystroke	a	n/a
308.2535	0.09	616507	keystroke	n	n/a
308.3735	0.105	616747	keystroke	s	n/a
308.5385	0.09	617077	keystroke	Key.space	n/a
308.8385	0.105	617677	keystroke	p	n/a
309.1385	0.06	618277	keystroke	i	n/a
309.3335	0.105	618667	keystroke	c	n/a
309.4095	0.134	618819	keystroke	t	n/a
309.6035	0.075	619207	keystroke	u	n/a
309.7095	0.105	619419	keystroke	r	n/a
309.7695	0.075	619539	keystroke	e	n/a
309.9495	0.089	619899	keystroke	s	n/a
311.179	0.105	622358	keystroke	Key.enter	n/a
311.2925	9.9695	622585	prompt	n/a	bathroom dawn sophisticated flat\n
313.372	0.012	626744	keystroke	b	n/a
313.669	0.105	627338	keystroke	a	n/a
313.819	0.09	627638	keystroke	t	n/a
314.209	0.105	628418	keystroke	h	n/a
314.434	0.09	628868	keystroke	r	n/a
314.629	0.06	629258	keystroke	o	n/a
314.794	0.105	629588	keystroke	o	n/a
314.989	0.135	629978	keystroke	m	n/a
315.109	0.105	630218	keystroke	Key.space	n/a
315.559	0.075	631118	keystroke	d	n/a
315.694	0.09	631388	keystroke	a	n/a
316.159	0.09	632318	keystroke	w	n/a
316.369	0.105	632738	keystroke	n	n/a
316.504	0.12	633008	keystroke	Key.space	n/a
316.759	0.105	633518	keystroke	s	n/a
317.479	0.075	634958	keystroke	o	n/a
317.719	0.12	635438	keystroke	p	n/a
317.974	0.09	635948	keystroke	h	n/a
318.214	0.075	636428	keystroke	i	n/a
318.319	0.12	636638	keystroke	s	n/a
318.514	0.105	637028	keystroke	t	n/a
318.8285	0.0605	637657	keystroke	i	n/a
318.9485	0.135	637897	keystroke	c	n/a
319.099	0.09	638198	keystroke	a	n/a
319.174	0.0745	638348	keystroke	t	n/a
319.264	0.1045	638528	keystroke	e	n/a
319.4585	0.09	638917	keystroke	d	n/a
319.6085	0.0905	639217	keystroke	Key.space	n/a
319.8335	0.1055	639667	keystroke	f	n/a
319.9535	0.105	639907	keystroke	l	n/a
320.1185	0.12	640237	keystroke	a	n/a
320.2985	0.075	640597	keystroke	t	n/a
321.154	0.1045	642308	keystroke	Key.enter	n/a
321.2675	7.4485	642535	prompt	n/a	fail steering concluded lock\n
323.2085	0.105	646417	keystroke	f	n/a
323.4035	0.075	646807	keystroke	a	n/a
323.5535	0.075	647107	keystroke	i	n/a
323.7485	0.105	647497	keystroke	l	n/a
323.8685	0.105	647737	keystroke	Key.space	n/a
324.0935	0.105	648187	keystroke	s	n/a
324.2735	0.075	648547	keystroke	t	n/a
324.4685	0.06	648937	keystroke	e	n/a
324.6035	0.09	649207	keystroke	e	n/a
324.7085	0.105	649417	keystroke	r	n/a
324.8885	0.06	649777	keystroke	i	n/a
325.0085	0.12	650017	keystroke	n	n/a
325.1435	0.075	650287	keystroke	g	n/a
325.2335	0.105	650467	keystroke	Key.space	n/a
325.6985	0.075	651397	keystroke	c	n/a
325.7885	0.075	651577	keystroke	o	n/a
325.9535	0.09	651907	keystroke	n	n/a
326.1635	0.105	652327	keystroke	c	n/a
326.2535	0.12	652507	keystroke	l	n/a
326.3745	0.104	652749	keystroke	u	n/a
326.5095	0.089	653019	keystroke	d	n/a
326.7035	0.075	653407	keystroke	e	n/a
326.8685	0.105	653737	keystroke	d	n/a
327.0035	0.09	654007	keystroke	Key.space	n/a
327.5135	0.09	655027	keystroke	l	n/a
327.7235	0.105	655447	keystroke	o	n/a
327.8295	0.104	655659	keystroke	c	n/a
327.9785	0.075	655957	keystroke	k	n/a
328.6235	0.09	657247	keystroke	Key.enter	n/a
328.721	10.87	657442	prompt	n/a	alive referral american visa\n
329.6735	0.12	659347	keystroke	a	n/a
329.8385	0.076	659677	keystroke	l	n/a
330.0935	0.09	660187	keystroke	i	n/a
330.1535	0.135	660307	keystroke	v	n/a
330.2585	0.09	660517	keystroke	e	n/a
330.3635	0.075	660727	keystroke	Key.space	n/a
330.6335	0.105	661267	keystroke	r	n/a
330.6935	0.09	661387	keystroke	e	n/a
330.9485	0.09	661897	keystroke	f	n/a
331.2335	0.091	662467	keystroke	e	n/a
331.3835	0.105	662767	keystroke	r	n/a
331.6385	0.06	663277	keystroke	a	n/a
331.8035	0.06	663607	keystroke	l	n/a
333.1835	0.09	666367	keystroke	]	n/a
333.8585	0.105	667717	keystroke	Key.backspace	n/a
334.1585	0.105	668317	keystroke	Key.backspace	n/a
334.4285	0.105	668857	keystroke	Key.backspace	n/a
335.419	0.105	670838	keystroke	r	n/a
335.644	0.09	671288	keystroke	a	n/a
335.779	0.105	671558	keystroke	l	n/a
335.944	0.09	671888	keystroke	Key.space	n/a
336.289	0.075	672578	keystroke	a	n/a
336.424	0.105	672848	keystroke	m	n/a
336.664	0.105	673328	keystroke	e	n/a
336.739	0.135	673478	keystroke	r	n/a
337.234	0.09	674468	keystroke	i	n/a
337.309	0.135	674618	keystroke	c	n/a
337.399	0.105	674798	keystroke	a	n/a
337.564	0.135	675128	keystroke	n	n/a
337.669	0.135	675338	keystroke	Key.space	n/a
338.209	0.075	676418	keystroke	v	n/a
338.344	0.09	676688	keystroke	i	n/a
338.944	0.09	677888	keystroke	s	n/a
339.139	0.06	678278	keystroke	a	n/a
339.499	0.09	678998	keystroke	Key.enter	n/a
339.5995	14.1365	679199	prompt	n/a	columnists readily plugin counsel\n
340.504	0.09	681008	keystroke	c	n/a
340.804	0.105	681608	keystroke	o	n/a
341.044	0.135	682088	keystroke	l	n/a
341.254	0.12	682508	keystroke	u	n/a
341.539	0.105	683078	keystroke	m	n/a
341.779	0.105	683558	keystroke	n	n/a
342.049	0.075	684098	keystroke	i	n/a
342.259	0.15	684518	keystroke	s	n/a
342.424	0.09	684848	keystroke	t	n/a
342.544	0.075	685088	keystroke	e	n/a
342.739	0.09	685478	keystroke	s	n/a
344.134	0.105	688268	keystroke	Key.backspace	n/a
344.449	0.09	688898	keystroke	Key.backspace	n/a
344.704	0.075	689408	keystroke	s	n/a
345.094	0.075	690188	keystroke	Key.space	n/a
345.424	0.09	690848	keystroke	r	n/a
345.484	0.075	690968	keystroke	e	n/a
346.129	0.075	692258	keystroke	a	n/a
346.684	0.09	693368	keystroke	d	n/a
346.864	0.09	693728	keystroke	i	n/a
347.029	0.135	694058	keystroke	l	n/a
347.224	0.165	694448	keystroke	y	n/a
347.359	0.135	694718	keystroke	Key.space	n/a
348.244	0.135	696488	keystroke	p	n/a
348.514	0.12	697028	keystroke	l	n/a
348.784	0.09	697568	keystroke	i	n/a
349.984	0.105	699968	keystroke	Key.backspace	n/a
350.389	0.105	700778	keystroke	u	n/a
350.569	0.075	701138	keystroke	g	n/a
350.674	0.09	701348	keystroke	i	n/a
350.824	0.135	701648	keystroke	n	n/a
350.944	0.135	701888	keystroke	Key.space	n/a
351.274	0.076	702548	keystroke	c	n/a
351.394	0.09	702788	keystroke	o	n/a
351.439	0.105	702878	keystroke	u	n/a
351.7085	0.0755	703417	keystroke	n	n/a
351.8135	0.09	703627	keystroke	d	n/a
352.5185	0.075	705037	keystroke	Key.backspace	n/a
352.9685	0.075	705937	keystroke	s	n/a
353.1485	0.06	706297	keystroke	e	n/a
353.2985	0.09	706597	keystroke	l	n/a
353.6585	0.075	707317	keystroke	Key.enter	n/a
353.7425	8.7685	707485	prompt	n/a	insights turns choose pushing\n
354.7685	0.09	709537	keystroke	i	n/a
354.9485	0.105	709897	keystroke	n	n/a
355.2035	0.09	710407	keystroke	s	n/a
355.3085	0.105	710617	keystroke	i	n/a
355.4585	0.09	710917	keystroke	g	n/a
355.5785	0.12	711157	keystroke	h	n/a
355.7135	0.045	711427	keystroke	t	n/a
355.7885	0.06	711577	keystroke	e	n/a
357.1535	0.12	714307	keystroke	Key.backspace	n/a
357.7085	0.09	715417	keystroke	s	n/a
357.9035	0.09	715807	keystroke	Key.space	n/a
358.3085	0.165	716617	keystroke	t	n/a
358.8485	0.105	717697	keystroke	u	n/a
358.9685	0.09	717937	keystroke	r	n/a
359.1035	0.12	718207	keystroke	n	n/a
359.3885	0.09	718777	keystroke	s	n/a
359.5535	0.075	719107	keystroke	Key.space	n/a
359.9435	0.09	719887	keystroke	c	n/a
360.0635	0.105	720127	keystroke	h	n/a
360.3485	0.015	720697	keystroke	o	n/a
360.4385	0.105	720877	keystroke	o	n/a
360.5285	0.105	721057	keystroke	s	n/a
360.6785	0.09	721357	keystroke	e	n/a
360.8135	0.09	721627	keystroke	Key.space	n/a
361.0835	0.105	722167	keystroke	p	n/a
361.4135	0.12	722827	keystroke	u	n/a
361.5785	0.06	723157	keystroke	s	n/a
361.6835	0.09	723367	keystroke	h	n/a
361.8785	0.06	723757	keystroke	i	n/a
362.0135	0.09	724027	keystroke	n	n/a
362.1335	0.06	724267	keystroke	g	n/a
362.4335	0.075	724867	keystroke	Key.enter	n/a
362.515	7.691	725030	prompt	n/a	established knights spin incentive\n
363.2885	0.045	726577	keystroke	e	n/a
363.5585	0.12	727117	keystroke	s	n/a
363.7385	0.105	727477	keystroke	t	n/a
363.9035	0.075	727807	keystroke	a	n/a
364.1135	0.046	728227	keystroke	b	n/a
364.2635	0.09	728527	keystroke	l	n/a
364.4885	0.06	728977	keystroke	i	n/a
364.8935	0.075	729787	keystroke	s	n/a
365.0585	0.09	730117	keystroke	h	n/a
365.1635	0.0455	730327	keystroke	e	n/a
365.3435	0.06	730687	keystroke	d	n/a
365.4185	0.105	730837	keystroke	Key.space	n/a
365.8235	0.075	731647	keystroke	k	n/a
365.9885	0.105	731977	keystroke	n	n/a
366.3485	0.09	732697	keystroke	i	n/a
366.4835	0.12	732967	keystroke	g	n/a
366.6185	0.105	733237	keystroke	h	n/a
366.6785	0.105	733357	keystroke	t	n/a
366.8285	0.0905	733657	keystroke	s	n/a
366.963	0.09	733926	keystroke	Key.space	n/a
367.264	0.09	734528	keystroke	s	n/a
367.399	0.074	734798	keystroke	p	n/a
367.609	0.06	735218	keystroke	i	n/a
367.773	0.166	735546	keystroke	n	n/a
367.923	0.12	735846	keystroke	Key.space	n/a
368.224	0.075	736448	keystroke	i	n/a
368.359	0.12	736718	keystroke	n	n/a
368.569	0.089	737138	keystroke	c	n/a
368.748	0.061	737496	keystroke	e	n/a
368.824	0.119	737648	keystroke	n	n/a
368.959	0.089	737918	keystroke	t	n/a
369.139	0.074	738278	keystroke	i	n/a
369.349	0.06	738698	keystroke	v	n/a
369.424	0.089	738848	keystroke	e	n/a
370.114	0.09	740228	keystroke	Key.enter	n/a
370.2105	9.7005	740421	prompt	n/a	sciences fitting major americans\n
371.119	0.09	742238	keystroke	s	n/a
371.329	0.09	742658	keystroke	c	n/a
371.449	0.075	742898	keystroke	i	n/a
371.809	0.045	743618	keystroke	e	n/a
371.943	0.061	743886	keystroke	n	n/a
372.214	0.09	744428	keystroke	c	n/a
372.424	0.06	744848	keystroke	e	n/a
372.559	0.09	745118	keystroke	s	n/a
372.709	0.09	745418	keystroke	Key.space	n/a
373.204	0.09	746408	keystroke	f	n/a
373.384	0.09	746768	keystroke	i	n/a
373.579	0.06	747158	keystroke	t	n/a
373.699	0.075	747398	keystroke	t	n/a
373.804	0.09	747608	keystroke	i	n/a
374.494	0.105	748988	keystroke	n	n/a
374.568	0.061	749136	keystroke	g	n/a
374.689	0.09	749378	keystroke	Key.space	n/a
375.139	0.12	750278	keystroke	m	n/a
375.229	0.075	750458	keystroke	a	n/a
375.484	0.09	750968	keystroke	j	n/a
375.709	0.075	751418	keystroke	o	n/a
375.829	0.075	751658	keystroke	r	n/a
375.934	0.075	751868	keystroke	Key.space	n/a
376.159	0.09	752318	keystroke	a	n/a
376.339	0.09	752678	keystroke	m	n/a
376.534	0.075	753068	keystroke	e	n/a
376.579	0.12	753158	keystroke	r	n/a
377.959	0.075	755918	keystroke	i	n/a
378.379	0.12	756758	keystroke	c	n/a
378.514	0.075	757028	keystroke	a	n/a
378.664	0.09	757328	keystroke	n	n/a
379.174	0.075	758348	keystroke	s	n/a
379.819	0.09	759638	keystroke	Key.enter	n/a
379.9155	8.365	759831	prompt	n/a	south later thumbzilla resolved\n
380.884	0.09	761768	keystroke	s	n/a
381.169	0.09	762338	keystroke	o	n/a
381.214	0.165	762428	keystroke	u	n/a
381.409	0.075	762818	keystroke	t	n/a
381.544	0.135	763088	keystroke	h	n/a
381.634	0.12	763268	keystroke	Key.space	n/a
381.934	0.09	763868	keystroke	l	n/a
382.009	0.12	764018	keystroke	a	n/a
382.099	0.09	764198	keystroke	t	n/a
382.249	0.09	764498	keystroke	e	n/a
382.309	0.075	764618	keystroke	r	n/a
382.474	0.09	764948	keystroke	Key.space	n/a
383.1035	0.09	766207	keystroke	t	n/a
383.2235	0.105	766447	keystroke	h	n/a
383.5085	0.09	767017	keystroke	u	n/a
383.7635	0.09	767527	keystroke	m	n/a
383.9885	0.075	767977	keystroke	b	n/a
384.3335	0.12	768667	keystroke	z	n/a
384.5435	0.06	769087	keystroke	i	n/a
384.7535	0.06	769507	keystroke	l	n/a
384.9185	0.09	769837	keystroke	l	n/a
385.0385	0.09	770077	keystroke	a	n/a
385.2185	0.09	770437	keystroke	Key.space	n/a
386.3435	0.105	772687	keystroke	r	n/a
387.0635	0.09	774127	keystroke	e	n/a
387.2885	0.09	774577	keystroke	s	n/a
387.4235	0.075	774847	keystroke	o	n/a
387.6335	0.105	775267	keystroke	l	n/a
387.6935	0.105	775387	keystroke	v	n/a
387.7685	0.09	775537	keystroke	e	n/a
387.9935	0.075	775987	keystroke	d	n/a
388.2185	0.06	776437	keystroke	Key.enter	n/a
388.2855	7.9745	776571	prompt	n/a	wells evanescence grams deeper\n
389.3735	0.12	778747	keystroke	w	n/a
389.5685	0.075	779137	keystroke	e	n/a
389.7485	0.06	779497	keystroke	l	n/a
389.9135	0.105	779827	keystroke	l	n/a
390.0485	0.09	780097	keystroke	s	n/a
390.1835	0.09	780367	keystroke	Key.space	n/a
390.7085	0.09	781417	keystroke	e	n/a
390.9935	0.09	781987	keystroke	v	n/a
391.2485	0.06	782497	keystroke	a	n/a
391.5035	0.06	783007	keystroke	n	n/a
391.7285	0.045	783457	keystroke	e	n/a
392.1485	0.06	784297	keystroke	s	n/a
392.3585	0.09	784717	keystroke	c	n/a
392.5685	0.075	785137	keystroke	e	n/a
392.7035	0.09	785407	keystroke	n	n/a
393.0485	0.09	786097	keystroke	c	n/a
393.2585	0.06	786517	keystroke	e	n/a
393.4085	0.09	786817	keystroke	Key.space	n/a
394.0235	0.075	788047	keystroke	g	n/a
394.2185	0.075	788437	keystroke	r	n/a
394.2935	0.09	788587	keystroke	a	n/a
394.4885	0.09	788977	keystroke	m	n/a
394.5935	0.075	789187	keystroke	s	n/a
394.7135	0.12	789427	keystroke	Key.space	n/a
394.9235	0.075	789847	keystroke	d	n/a
395.0885	0.06	790177	keystroke	e	n/a
395.2235	0.075	790447	keystroke	e	n/a
395.3885	0.09	790777	keystroke	p	n/a
395.8385	0.105	791677	keystroke	e	n/a
395.9285	0.09	791857	keystroke	r	n/a
396.1685	0.09	792337	keystroke	Key.enter	n/a
396.265	5.966	792530	prompt	n/a	banned settle edge robust\n
397.1885	0.09	794377	keystroke	b	n/a
397.3835	0.09	794767	keystroke	a	n/a
397.6685	0.045	795337	keystroke	n	n/a
397.7885	0.105	795577	keystroke	n	n/a
397.8785	0.06	795757	keystroke	e	n/a
398.0585	0.075	796117	keystroke	d	n/a
398.1485	0.09	796297	keystroke	Key.space	n/a
398.5085	0.045	797017	keystroke	s	n/a
398.6435	0.06	797287	keystroke	e	n/a
398.9285	0.06	797857	keystroke	t	n/a
399.0485	0.09	798097	keystroke	t	n/a
399.1835	0.105	798367	keystroke	l	n/a
399.3035	0.06	798607	keystroke	e	n/a
399.4235	0.12	798847	keystroke	Key.space	n/a
399.8285	0.06	799657	keystroke	e	n/a
400.0535	0.075	800107	keystroke	d	n/a
400.2635	0.09	800527	keystroke	g	n/a
400.4135	0.09	800827	keystroke	e	n/a
400.5335	0.105	801067	keystroke	Key.space	n/a
400.983	0.076	801966	keystroke	r	n/a
401.148	0.091	802296	keystroke	o	n/a
401.479	0.105	802958	keystroke	b	n/a
401.674	0.09	803348	keystroke	u	n/a
401.808	0.151	803616	keystroke	s	n/a
401.929	0.075	803858	keystroke	t	n/a
402.153	0.076	804306	keystroke	Key.enter	n/a
402.237	9.429	804474	prompt	n/a	machinery upgrade portable tours\n
403.068	0.105	806136	keystroke	m	n/a
403.189	0.074	806378	keystroke	a	n/a
403.398	0.105	806796	keystroke	c	n/a
403.518	0.09	807036	keystroke	h	n/a
403.639	0.104	807278	keystroke	i	n/a
403.849	0.089	807698	keystroke	n	n/a
404.029	0.105	808058	keystroke	e	n/a
404.088	0.105	808176	keystroke	r	n/a
404.448	0.136	808896	keystroke	y	n/a
404.613	0.135	809226	keystroke	Key.space	n/a
405.048	0.12	810096	keystroke	u	n/a
405.198	0.106	810396	keystroke	p	n/a
405.694	0.06	811388	keystroke	g	n/a
406.069	0.075	812138	keystroke	r	n/a
406.684	0.075	813368	keystroke	a	n/a
407.058	0.075	814116	keystroke	d	n/a
407.224	0.06	814448	keystroke	e	n/a
407.359	0.059	814718	keystroke	Key.space	n/a
407.718	0.09	815436	keystroke	p	n/a
407.959	0.09	815918	keystroke	o	n/a
408.004	0.105	816008	keystroke	r	n/a
408.229	0.119	816458	keystroke	t	n/a
408.709	0.09	817418	keystroke	a	n/a
408.934	0.075	817868	keystroke	b	n/a
409.129	0.104	818258	keystroke	l	n/a
409.144	0.074	818288	keystroke	e	n/a
410.088	0.075	820176	keystroke	Key.space	n/a
410.419	0.104	820838	keystroke	t	n/a
410.898	0.136	821796	keystroke	o	n/a
411.019	0.149	822038	keystroke	u	n/a
411.154	0.089	822308	keystroke	r	n/a
411.394	0.09	822788	keystroke	s	n/a
411.573	0.091	823146	keystroke	Key.enter	n/a
411.6725	8.4985	823345	prompt	n/a	craps finally quizzes extension\n
412.7895	0.105	825579	keystroke	c	n/a
413.0145	0.09	826029	keystroke	r	n/a
413.1495	0.0735	826299	keystroke	a	n/a
413.358	0.076	826716	keystroke	p	n/a
413.464	0.09	826928	keystroke	s	n/a
413.629	0.089	827258	keystroke	Key.space	n/a
413.914	0.09	827828	keystroke	f	n/a
414.019	0.074	828038	keystroke	i	n/a
414.184	0.104	828368	keystroke	n	n/a
414.349	0.074	828698	keystroke	a	n/a
414.469	0.075	828938	keystroke	l	n/a
414.619	0.12	829238	keystroke	l	n/a
414.843	0.121	829686	keystroke	y	n/a
414.9495	0.1345	829899	keystroke	Key.space	n/a
415.383	0.076	830766	keystroke	q	n/a
415.504	0.105	831008	keystroke	u	n/a
415.684	0.09	831368	keystroke	i	n/a
416.044	0.104	832088	keystroke	z	n/a
416.2245	0.1045	832449	keystroke	z	n/a
416.449	0.06	832898	keystroke	e	n/a
416.659	0.075	833318	keystroke	s	n/a
416.854	0.089	833708	keystroke	Key.space	n/a
417.589	0.075	835178	keystroke	e	n/a
418.264	0.105	836528	keystroke	x	n/a
418.519	0.06	837038	keystroke	t	n/a
418.774	0.06	837548	keystroke	e	n/a
418.939	0.075	837878	keystroke	n	n/a
419.374	0.075	838748	keystroke	s	n/a
419.539	0.24	839078	keystroke	i	n/a
419.644	0.18	839288	keystroke	o	n/a
419.719	0.165	839438	keystroke	n	n/a
420.1085	0.059	840217	keystroke	Key.enter	n/a
420.184	8.5215	840368	prompt	n/a	looksmart diploma votes author\n
421.114	0.105	842228	keystroke	l	n/a
421.354	0.045	842708	keystroke	o	n/a
421.489	0.105	842978	keystroke	o	n/a
422.0285	0.06	844057	keystroke	k	n/a
422.1635	0.09	844327	keystroke	s	n/a
422.4035	0.09	844807	keystroke	m	n/a
422.629	0.12	845258	keystroke	a	n/a
422.704	0.105	845408	keystroke	r	n/a
422.929	0.09	845858	keystroke	t	n/a
423.063	0.0905	846126	keystroke	Key.space	n/a
423.3335	0.075	846667	keystroke	d	n/a
423.4685	0.075	846937	keystroke	i	n/a
423.7685	0.09	847537	keystroke	p	n/a
424.0085	0.12	848017	keystroke	l	n/a
424.279	0.09	848558	keystroke	o	n/a
424.549	0.105	849098	keystroke	m	n/a
424.669	0.06	849338	keystroke	a	n/a
426.289	0.09	852578	keystroke	Key.space	n/a
426.709	0.06	853418	keystroke	v	n/a
426.799	0.09	853598	keystroke	o	n/a
426.934	0.075	853868	keystroke	t	n/a
427.084	0.075	854168	keystroke	e	n/a
427.279	0.075	854558	keystroke	s	n/a
427.369	0.075	854738	keystroke	Key.space	n/a
427.7735	0.075	855547	keystroke	a	n/a
427.9085	0.12	855817	keystroke	u	n/a
428.0585	0.075	856117	keystroke	t	n/a
428.179	0.075	856358	keystroke	h	n/a
428.314	0.105	856628	keystroke	o	n/a
428.434	0.045	856868	keystroke	r	n/a
428.6585	0.045	857317	keystroke	Key.enter	n/a
428.712	8.1535	857424	prompt	n/a	talked landing jack primary\n
429.8585	0.105	859717	keystroke	t	n/a
429.9785	0.09	859957	keystroke	a	n/a
430.1735	0.09	860347	keystroke	l	n/a
430.3985	0.09	860797	keystroke	k	n/a
430.4735	0.075	860947	keystroke	e	n/a
430.6685	0.075	861337	keystroke	d	n/a
430.7585	0.09	861517	keystroke	Key.space	n/a
431.2535	0.09	862507	keystroke	l	n/a
431.3285	0.06	862657	keystroke	a	n/a
431.4785	0.105	862957	keystroke	n	n/a
431.5685	0.09	863137	keystroke	d	n/a
431.7185	0.06	863437	keystroke	i	n/a
431.8685	0.105	863737	keystroke	n	n/a
432.0185	0.09	864037	keystroke	g	n/a
432.0935	0.105	864187	keystroke	Key.space	n/a
432.2585	0.12	864517	keystroke	j	n/a
432.3635	0.075	864727	keystroke	a	n/a
432.6335	0.105	865267	keystroke	c	n/a
432.7235	0.09	865447	keystroke	k	n/a
432.9185	0.06	865837	keystroke	Key.space	n/a
433.1135	0.075	866227	keystroke	p	n/a
433.2485	0.09	866497	keystroke	r	n/a
433.3685	0.06	866737	keystroke	i	n/a
433.6235	0.045	867247	keystroke	m	n/a
433.6695	0.089	867339	keystroke	a	n/a
433.7135	0.135	867427	keystroke	r	n/a
433.8335	0.045	867667	keystroke	e	n/a
434.944	0.105	869888	keystroke	Key.backspace	n/a
435.3635	0.06	870727	keystroke	y	n/a
436.7435	0.12	873487	keystroke	Key.enter	n/a
436.8715	14.004	873743	prompt	n/a	additionally booth provide where've\n
437.7185	0.06	875437	keystroke	a	n/a
437.9285	0.06	875857	keystroke	d	n/a
438.0635	0.09	876127	keystroke	d	n/a
438.2135	0.09	876427	keystroke	i	n/a
438.3935	0.06	876787	keystroke	t	n/a
438.4835	0.21	876967	keystroke	i	n/a
438.5885	0.15	877177	keystroke	o	n/a
438.6635	0.15	877327	keystroke	n	n/a
438.8285	0.09	877657	keystroke	a	n/a
438.9335	0.075	877867	keystroke	l	n/a
439.1135	0.15	878227	keystroke	l	n/a
439.3235	0.12	878647	keystroke	y	n/a
439.4285	0.12	878857	keystroke	Key.space	n/a
440.5535	0.105	881107	keystroke	b	n/a
440.7485	0.06	881497	keystroke	o	n/a
440.8985	0.105	881797	keystroke	o	n/a
441.0185	0.075	882037	keystroke	t	n/a
441.1385	0.12	882277	keystroke	h	n/a
441.1985	0.12	882397	keystroke	Key.space	n/a
441.3635	0.12	882727	keystroke	p	n/a
441.5285	0.09	883057	keystroke	r	n/a
441.6485	0.135	883297	keystroke	o	n/a
441.9485	0.06	883897	keystroke	v	n/a
442.0835	0.075	884167	keystroke	i	n/a
442.2335	0.075	884467	keystroke	d	n/a
442.3835	0.06	884767	keystroke	e	n/a
442.5035	0.09	885007	keystroke	Key.space	n/a
442.8485	0.075	885697	keystroke	w	n/a
443.0285	0.075	886057	keystroke	h	n/a
443.2535	0.105	886507	keystroke	e	n/a
443.3735	0.09	886747	keystroke	r	n/a
444.9035	0.09	889807	keystroke	e	n/a
445.0835	0.105	890167	keystroke	'	n/a
445.2485	0.075	890497	keystroke	v	n/a
445.2785	0.105	890557	keystroke	e	n/a
450.8465	0.027	901693	keystroke	Key.enter	n/a
450.881	23.56	901762	prompt	n/a	profits extraction educators celtic\n
465.697	0.041	931394	keystroke	p	n/a
465.798	0.09	931596	keystroke	r	n/a
465.948	0.06	931896	keystroke	o	n/a
466.129	0.089	932258	keystroke	f	n/a
466.203	0.075	932406	keystroke	i	n/a
466.744	0.089	933488	keystroke	t	n/a
466.848	0.09	933696	keystroke	s	n/a
467.013	0.09	934026	keystroke	Key.space	n/a
467.314	0.075	934628	keystroke	e	n/a
467.523	0.181	935046	keystroke	x	n/a
468.139	0.074	936278	keystroke	t	n/a
468.333	0.075	936666	keystroke	r	n/a
468.453	0.076	936906	keystroke	a	n/a
468.709	0.075	937418	keystroke	c	n/a
468.829	0.09	937658	keystroke	t	n/a
468.948	0.18	937896	keystroke	i	n/a
469.024	0.149	938048	keystroke	o	n/a
469.099	0.135	938198	keystroke	n	n/a
469.234	0.104	938468	keystroke	Key.space	n/a
469.863	0.075	939726	keystroke	e	n/a
470.089	0.09	940178	keystroke	d	n/a
470.284	0.104	940568	keystroke	u	n/a
470.449	0.12	940898	keystroke	c	n/a
470.599	0.12	941198	keystroke	a	n/a
470.689	0.075	941378	keystroke	t	n/a
471.484	0.074	942968	keystroke	o	n/a
471.574	0.105	943148	keystroke	r	n/a
471.768	0.09	943536	keystroke	s	n/a
471.918	0.09	943836	keystroke	Key.space	n/a
472.624	0.104	945248	keystroke	c	n/a
472.909	0.0745	945818	keystroke	e	n/a
473.3135	0.135	946627	keystroke	l	n/a
473.5535	0.09	947107	keystroke	t	n/a
473.6885	0.075	947377	keystroke	i	n/a
473.9735	0.06	947947	keystroke	c	n/a
474.3785	0.06	948757	keystroke	Key.enter	n/a
474.446	13.6595	948892	prompt	n/a	vietnamese islam cabinet bestsellers\n
475.6985	0.075	951397	keystroke	b	n/a
475.9385	0.075	951877	keystroke	e	n/a
477.7085	0.075	955417	keystroke	Key.backspace	n/a
477.8585	0.105	955717	keystroke	Key.backspace	n/a
478.0835	0.075	956167	keystroke	v	n/a
478.2185	0.09	956437	keystroke	i	n/a
478.3685	0.075	956737	keystroke	e	n/a
478.6085	0.075	957217	keystroke	t	n/a
479.0135	0.075	958027	keystroke	n	n/a
479.3585	0.06	958717	keystroke	a	n/a
479.4785	0.075	958957	keystroke	m	n/a
479.7185	0.06	959437	keystroke	e	n/a
479.9135	0.12	959827	keystroke	s	n/a
480.0185	0.09	960037	keystroke	e	n/a
480.1985	0.075	960397	keystroke	Key.space	n/a
480.7535	0.09	961507	keystroke	i	n/a
480.8885	0.075	961777	keystroke	s	n/a
480.9785	0.135	961957	keystroke	l	n/a
481.0835	0.09	962167	keystroke	a	n/a
481.2185	0.105	962437	keystroke	m	n/a
483.9515	0.042	967903	keystroke	Key.space	n/a
484.3085	0.12	968617	keystroke	c	n/a
484.4295	0.104	968859	keystroke	a	n/a
484.6535	0.09	969307	keystroke	b	n/a
484.8785	0.09	969757	keystroke	i	n/a
485.0435	0.105	970087	keystroke	n	n/a
485.1335	0.06	970267	keystroke	e	n/a
485.3135	0.075	970627	keystroke	t	n/a
485.3895	0.089	970779	keystroke	Key.space	n/a
486.0185	0.135	972037	keystroke	b	n/a
486.3485	0.09	972697	keystroke	e	n/a
486.5135	0.135	973027	keystroke	s	n/a
486.6035	0.12	973207	keystroke	t	n/a
486.8735	0.06	973747	keystroke	s	n/a
487.0385	0.06	974077	keystroke	e	n/a
487.3985	0.045	974797	keystroke	l	n/a
487.5485	0.105	975097	keystroke	l	n/a
487.6385	0.09	975277	keystroke	e	n/a
487.6835	0.121	975367	keystroke	r	n/a
487.8785	0.075	975757	keystroke	s	n/a
488.0285	0.075	976057	keystroke	Key.enter	n/a
488.11	14.681	976220	prompt	n/a	reaction referring popularity likelihood\n
489.0635	0.105	978127	keystroke	r	n/a
489.1695	0.134	978339	keystroke	e	n/a
489.4535	0.075	978907	keystroke	a	n/a
489.6635	0.15	979327	keystroke	c	n/a
489.7985	0.075	979597	keystroke	t	n/a
490.7135	0.105	981427	keystroke	i	n/a
490.8035	0.12	981607	keystroke	o	n/a
490.9835	0.135	981967	keystroke	n	n/a
491.6135	0.075	983227	keystroke	Key.space	n/a
492.0485	0.06	984097	keystroke	r	n/a
492.3635	0.075	984727	keystroke	e	n/a
492.5585	0.075	985117	keystroke	f	n/a
492.6935	0.09	985387	keystroke	f	n/a
492.9035	0.075	985807	keystroke	e	n/a
492.9485	0.105	985897	keystroke	r	n/a
493.4435	0.075	986887	keystroke	i	n/a
493.6085	0.15	987217	keystroke	n	n/a
493.7145	0.074	987429	keystroke	g	n/a
493.8335	0.09	987667	keystroke	Key.space	n/a
494.1935	0.105	988387	keystroke	p	n/a
497.1075	0.026	994215	keystroke	o	n/a
497.5535	0.091	995107	keystroke	p	n/a
497.7945	0.075	995589	keystroke	u	n/a
498.0335	0.075	996067	keystroke	l	n/a
498.2135	0.12	996427	keystroke	a	n/a
498.3185	0.105	996637	keystroke	r	n/a
498.6035	0.091	997207	keystroke	i	n/a
498.6945	0.075	997389	keystroke	t	n/a
498.9045	0.044	997809	keystroke	y	n/a
499.8635	0.12	999727	keystroke	Key.space	n/a
500.2385	0.12	1000477	keystroke	l	n/a
500.5085	0.075	1001017	keystroke	i	n/a
500.7485	0.09	1001497	keystroke	k	n/a
501.3335	0.075	1002667	keystroke	e	n/a
501.4395	0.1185	1002879	keystroke	l	n/a
501.7085	0.061	1003417	keystroke	i	n/a
502.0535	0.075	1004107	keystroke	h	n/a
502.2935	0.06	1004587	keystroke	o	n/a
502.4585	0.075	1004917	keystroke	o	n/a
502.5645	0.06	1005129	keystroke	d	n/a
502.7445	0.044	1005489	keystroke	Key.enter	n/a
502.795	7.991	1005590	prompt	n/a	rise signing generating disabled\n
503.854	0.12	1007708	keystroke	r	n/a
504.139	0.09	1008278	keystroke	i	n/a
504.274	0.09	1008548	keystroke	s	n/a
504.439	0.09	1008878	keystroke	e	n/a
504.544	0.09	1009088	keystroke	Key.space	n/a
504.739	0.075	1009478	keystroke	s	n/a
504.874	0.09	1009748	keystroke	i	n/a
505.024	0.09	1010048	keystroke	g	n/a
505.144	0.15	1010288	keystroke	n	n/a
505.295	0.104	1010590	keystroke	i	n/a
505.459	0.15	1010918	keystroke	n	n/a
505.639	0.09	1011278	keystroke	g	n/a
505.774	0.075	1011548	keystroke	Key.space	n/a
506.5385	0.09	1013077	keystroke	g	n/a
506.7185	0.09	1013437	keystroke	e	n/a
506.9285	0.09	1013857	keystroke	n	n/a
507.2585	0.09	1014517	keystroke	e	n/a
507.3335	0.15	1014667	keystroke	r	n/a
507.5735	0.12	1015147	keystroke	a	n/a
507.6785	0.105	1015357	keystroke	t	n/a
507.8285	0.075	1015657	keystroke	i	n/a
507.9945	0.149	1015989	keystroke	n	n/a
508.1135	0.12	1016227	keystroke	g	n/a
508.2185	0.105	1016437	keystroke	Key.space	n/a
508.8185	0.105	1017637	keystroke	d	n/a
508.9535	0.105	1017907	keystroke	i	n/a
509.3285	0.075	1018657	keystroke	s	n/a
509.4935	0.09	1018987	keystroke	a	n/a
509.6435	0.09	1019287	keystroke	b	n/a
509.8235	0.105	1019647	keystroke	l	n/a
509.9295	0.059	1019859	keystroke	e	n/a
510.1235	0.075	1020247	keystroke	d	n/a
510.7085	0.075	1021417	keystroke	Key.enter	n/a
510.791	11.2755	1021582	prompt	n/a	request applied april unemployment\n
511.7435	0.135	1023487	keystroke	r	n/a
512.4935	0.09	1024987	keystroke	e	n/a
512.7185	0.075	1025437	keystroke	q	n/a
513.0035	0.075	1026007	keystroke	u	n/a
513.1085	0.09	1026217	keystroke	e	n/a
513.2885	0.135	1026577	keystroke	s	n/a
513.3785	0.09	1026757	keystroke	t	n/a
513.4985	0.09	1026997	keystroke	Key.space	n/a
513.8285	0.075	1027657	keystroke	a	n/a
513.9335	0.06	1027867	keystroke	p	n/a
514.0835	0.105	1028167	keystroke	p	n/a
514.2785	0.105	1028557	keystroke	l	n/a
514.5035	0.075	1029007	keystroke	i	n/a
514.5795	0.089	1029159	keystroke	e	n/a
515.1035	0.075	1030207	keystroke	d	n/a
515.2085	0.09	1030417	keystroke	Key.space	n/a
515.4485	0.075	1030897	keystroke	a	n/a
515.5985	0.12	1031197	keystroke	p	n/a
516.1235	0.06	1032247	keystroke	i	n/a
516.4985	0.075	1032997	keystroke	Key.backspace	n/a
516.6335	0.075	1033267	keystroke	r	n/a
516.8885	0.075	1033777	keystroke	i	n/a
517.3235	0.09	1034647	keystroke	l	n/a
517.5335	0.075	1035067	keystroke	Key.space	n/a
517.8335	0.09	1035667	keystroke	u	n/a
518.0735	0.105	1036147	keystroke	n	n/a
518.2385	0.09	1036477	keystroke	e	n/a
518.7035	0.105	1037407	keystroke	m	n/a
519.0335	0.09	1038067	keystroke	p	n/a
519.2735	0.105	1038547	keystroke	l	n/a
519.5285	0.105	1039057	keystroke	o	n/a
519.8135	0.09	1039627	keystroke	y	n/a
520.0985	0.09	1040197	keystroke	m	n/a
520.8335	0.075	1041667	keystroke	e	n/a
520.9985	0.06	1041997	keystroke	n	n/a
521.1485	0.045	1042297	keystroke	t	n/a
521.9735	0.09	1043947	keystroke	Key.enter	n/a
522.071	5.635	1044142	prompt	n/a	mental jackson fatty want\n
522.9185	0.105	1045837	keystroke	m	n/a
523.0085	0.075	1046017	keystroke	e	n/a
523.1735	0.09	1046347	keystroke	n	n/a
523.2485	0.105	1046497	keystroke	t	n/a
523.3385	0.09	1046677	keystroke	a	n/a
523.4585	0.1355	1046917	keystroke	l	n/a
523.578	0.091	1047156	keystroke	Key.space	n/a
523.774	0.12	1047548	keystroke	j	n/a
523.864	0.089	1047728	keystroke	a	n/a
524.104	0.105	1048208	keystroke	c	n/a
524.253	0.076	1048506	keystroke	k	n/a
524.389	0.089	1048778	keystroke	s	n/a
524.539	0.09	1049078	keystroke	o	n/a
524.733	0.121	1049466	keystroke	n	n/a
524.868	0.076	1049736	keystroke	Key.space	n/a
525.094	0.105	1050188	keystroke	f	n/a
525.214	0.09	1050428	keystroke	a	n/a
525.574	0.075	1051148	keystroke	t	n/a
525.723	0.09	1051446	keystroke	t	n/a
525.964	0.15	1051928	keystroke	y	n/a
526.083	0.121	1052166	keystroke	Key.space	n/a
526.339	0.075	1052678	keystroke	w	n/a
526.863	0.076	1053726	keystroke	a	n/a
526.999	0.09	1053998	keystroke	n	n/a
527.134	0.09	1054268	keystroke	t	n/a
527.629	0.075	1055258	keystroke	Key.enter	n/a
527.711	8.8755	1055422	prompt	n/a	portugal criticism sand navigation\n
528.604	0.105	1057208	keystroke	p	n/a
529.009	0.06	1058018	keystroke	o	n/a
529.054	0.105	1058108	keystroke	r	n/a
529.264	0.12	1058528	keystroke	t	n/a
529.399	0.104	1058798	keystroke	u	n/a
529.624	0.105	1059248	keystroke	g	n/a
529.804	0.09	1059608	keystroke	a	n/a
529.954	0.12	1059908	keystroke	l	n/a
530.149	0.09	1060298	keystroke	Key.space	n/a
530.539	0.119	1061078	keystroke	c	n/a
530.764	0.075	1061528	keystroke	r	n/a
531.619	0.09	1063238	keystroke	i	n/a
531.754	0.09	1063508	keystroke	t	n/a
531.889	0.09	1063778	keystroke	i	n/a
532.204	0.075	1064408	keystroke	c	n/a
532.354	0.075	1064708	keystroke	i	n/a
532.533	0.076	1065066	keystroke	s	n/a
532.759	0.09	1065518	keystroke	m	n/a
532.999	0.09	1065998	keystroke	Key.space	n/a
533.269	0.075	1066538	keystroke	s	n/a
533.674	0.075	1067348	keystroke	a	n/a
533.839	0.09	1067678	keystroke	n	n/a
533.989	0.09	1067978	keystroke	d	n/a
534.079	0.075	1068158	keystroke	Key.space	n/a
534.304	0.12	1068608	keystroke	n	n/a
534.439	0.09	1068878	keystroke	a	n/a
534.619	0.09	1069238	keystroke	v	n/a
535.354	0.09	1070708	keystroke	i	n/a
535.594	0.105	1071188	keystroke	g	n/a
535.729	0.1345	1071458	keystroke	a	n/a
535.8785	0.09	1071757	keystroke	t	n/a
535.9985	0.225	1071997	keystroke	i	n/a
536.0885	0.21	1072177	keystroke	o	n/a
536.2085	0.105	1072417	keystroke	n	n/a
536.5235	0.06	1073047	keystroke	Key.enter	n/a
536.592	7.208	1073184	prompt	n/a	moreover turned hebrew salary\n
537.5885	0.09	1075177	keystroke	m	n/a
537.7685	0.09	1075537	keystroke	o	n/a
537.8885	0.105	1075777	keystroke	r	n/a
537.9635	0.075	1075927	keystroke	e	n/a
538.2335	0.075	1076467	keystroke	o	n/a
538.3535	0.091	1076707	keystroke	v	n/a
538.533	0.09	1077066	keystroke	e	n/a
538.578	0.0905	1077156	keystroke	r	n/a
538.743	0.075	1077486	keystroke	Key.space	n/a
538.968	0.105	1077936	keystroke	t	n/a
539.103	0.12	1078206	keystroke	u	n/a
539.208	0.105	1078416	keystroke	r	n/a
539.403	0.09	1078806	keystroke	n	n/a
539.508	0.075	1079016	keystroke	e	n/a
539.688	0.075	1079376	keystroke	d	n/a
539.808	0.09	1079616	keystroke	Key.space	n/a
540.378	0.09	1080756	keystroke	h	n/a
540.483	0.09	1080966	keystroke	e	n/a
540.933	0.075	1081866	keystroke	b	n/a
541.203	0.09	1082406	keystroke	r	n/a
541.443	0.075	1082886	keystroke	e	n/a
541.623	0.09	1083246	keystroke	w	n/a
541.968	0.075	1083936	keystroke	Key.space	n/a
542.403	0.045	1084806	keystroke	s	n/a
542.583	0.06	1085166	keystroke	a	n/a
542.748	0.09	1085496	keystroke	l	n/a
542.868	0.075	1085736	keystroke	a	n/a
543.2585	0.06	1086517	keystroke	r	n/a
543.4385	0.045	1086877	keystroke	y	n/a
543.7385	0.06	1087477	keystroke	Key.enter	n/a
543.8045	13.961	1087609	prompt	n/a	switch essex inappropriate shorts\n
545.0435	0.105	1090087	keystroke	s	n/a
545.3585	0.06	1090717	keystroke	w	n/a
545.5235	0.105	1091047	keystroke	i	n/a
545.6735	0.09	1091347	keystroke	t	n/a
546.1535	0.105	1092307	keystroke	h	n/a
546.2435	0.165	1092487	keystroke	Key.space	n/a
546.6935	0.075	1093387	keystroke	e	n/a
546.8735	0.09	1093747	keystroke	s	n/a
547.0235	0.105	1094047	keystroke	s	n/a
547.4885	0.06	1094977	keystroke	e	n/a
547.9985	0.09	1095997	keystroke	x	n/a
548.4335	0.09	1096867	keystroke	Key.space	n/a
548.8385	0.075	1097677	keystroke	a	n/a
550.2335	0.09	1100467	keystroke	Key.backspace	n/a
550.8335	0.075	1101667	keystroke	i	n/a
550.9835	0.12	1101967	keystroke	n	n/a
551.3585	0.075	1102717	keystroke	a	n/a
551.6585	0.06	1103317	keystroke	p	n/a
552.1535	0.15	1104307	keystroke	p	n/a
552.7385	0.075	1105477	keystroke	r	n/a
552.9785	0.075	1105957	keystroke	o	n/a
553.2035	0.12	1106407	keystroke	p	n/a
553.9535	0.09	1107907	keystroke	r	n/a
554.0885	0.09	1108177	keystroke	i	n/a
554.2535	0.075	1108507	keystroke	e	n/a
555.423	0.06	1110846	keystroke	Key.backspace	n/a
555.709	0.059	1111418	keystroke	a	n/a
555.888	0.09	1111776	keystroke	t	n/a
556.203	0.075	1112406	keystroke	e	n/a
556.548	0.09	1113096	keystroke	Key.space	n/a
556.773	0.09	1113546	keystroke	s	n/a
556.908	0.105	1113816	keystroke	h	n/a
557.104	0.09	1114208	keystroke	o	n/a
557.209	0.074	1114418	keystroke	r	n/a
557.388	0.061	1114776	keystroke	t	n/a
557.689	0.074	1115378	keystroke	Key.enter	n/a
557.7715	8.394	1115543	prompt	n/a	cooperative strange contemporary sets\n
558.604	0.09	1117208	keystroke	c	n/a
558.753	0.09	1117506	keystroke	o	n/a
558.949	0.06	1117898	keystroke	o	n/a
559.113	0.09	1118226	keystroke	p	n/a
559.383	0.09	1118766	keystroke	e	n/a
559.429	0.149	1118858	keystroke	r	n/a
559.789	0.104	1119578	keystroke	a	n/a
559.849	0.134	1119698	keystroke	t	n/a
560.089	0.06	1120178	keystroke	i	n/a
560.178	0.136	1120356	keystroke	v	n/a
560.283	0.075	1120566	keystroke	e	n/a
560.433	0.09	1120866	keystroke	Key.space	n/a
560.839	0.15	1121678	keystroke	s	n/a
560.973	0.105	1121946	keystroke	t	n/a
561.169	0.119	1122338	keystroke	r	n/a
561.303	0.061	1122606	keystroke	a	n/a
561.558	0.09	1123116	keystroke	n	n/a
561.753	0.075	1123506	keystroke	g	n/a
561.889	0.074	1123778	keystroke	e	n/a
562.023	0.09	1124046	keystroke	Key.space	n/a
562.563	0.091	1125126	keystroke	c	n/a
562.729	0.089	1125458	keystroke	o	n/a
562.923	0.12	1125846	keystroke	n	n/a
563.133	0.075	1126266	keystroke	t	n/a
563.314	0.06	1126628	keystroke	e	n/a
563.448	0.135	1126896	keystroke	m	n/a
563.718	0.09	1127436	keystroke	p	n/a
563.943	0.091	1127886	keystroke	o	n/a
564.063	0.105	1128126	keystroke	r	n/a
564.228	0.076	1128456	keystroke	a	n/a
564.574	0.074	1129148	keystroke	r	n/a
564.798	0.106	1129596	keystroke	y	n/a
564.963	0.12	1129926	keystroke	Key.space	n/a
565.233	0.075	1130466	keystroke	s	n/a
565.533	0.09	1131066	keystroke	e	n/a
565.758	0.091	1131516	keystroke	t	n/a
565.909	0.105	1131818	keystroke	s	n/a
566.074	0.089	1132148	keystroke	Key.enter	n/a
566.173	11.0925	1132346	prompt	n/a	reid forwarding securely divorce\n
567.199	0.03	1134398	keystroke	r	n/a
567.4535	0.074	1134907	keystroke	e	n/a
567.6325	0.1215	1135265	keystroke	i	n/a
567.799	0.074	1135598	keystroke	d	n/a
567.918	0.09	1135836	keystroke	Key.space	n/a
568.564	0.1185	1137128	keystroke	f	n/a
568.744	0.074	1137488	keystroke	o	n/a
568.833	0.061	1137666	keystroke	r	n/a
568.999	0.0735	1137998	keystroke	w	n/a
569.7325	0.031	1139465	keystroke	a	n/a
569.749	0.0745	1139498	keystroke	r	n/a
569.9885	0.09	1139977	keystroke	d	n/a
570.1225	0.091	1140245	keystroke	i	n/a
570.3035	0.105	1140607	keystroke	n	n/a
570.4385	0.075	1140877	keystroke	g	n/a
570.5275	0.075	1141055	keystroke	Key.space	n/a
571.3385	0.105	1142677	keystroke	s	n/a
571.5185	0.075	1143037	keystroke	e	n/a
572.8675	0.09	1145735	keystroke	c	n/a
573.0025	0.121	1146005	keystroke	u	n/a
573.1685	0.12	1146337	keystroke	r	n/a
573.2585	0.09	1146517	keystroke	e	n/a
573.4075	0.136	1146815	keystroke	l	n/a
573.5885	0.149	1147177	keystroke	y	n/a
573.7685	0.119	1147537	keystroke	Key.space	n/a
574.1275	0.076	1148255	keystroke	d	n/a
574.2185	0.075	1148437	keystroke	i	n/a
574.3685	0.075	1148737	keystroke	v	n/a
574.5635	0.089	1149127	keystroke	o	n/a
574.6685	0.09	1149337	keystroke	r	n/a
574.9985	0.044	1149997	keystroke	x	n/a
576.1075	0.075	1152215	keystroke	Key.backspace	n/a
576.6185	0.075	1153237	keystroke	c	n/a
576.8285	0.03	1153657	keystroke	e	n/a
577.1885	0.075	1154377	keystroke	Key.enter	n/a
577.2705	11.56	1154541	prompt	n/a	locally described scientific deals\n
578.1035	0.105	1156207	keystroke	l	n/a
578.3285	0.09	1156657	keystroke	o	n/a
578.4035	0.135	1156807	keystroke	c	n/a
578.4935	0.105	1156987	keystroke	a	n/a
578.6135	0.074	1157227	keystroke	l	n/a
578.7785	0.12	1157557	keystroke	l	n/a
579.0185	0.12	1158037	keystroke	y	n/a
579.0935	0.12	1158187	keystroke	Key.space	n/a
579.3635	0.089	1158727	keystroke	d	n/a
579.5135	0.105	1159027	keystroke	e	n/a
579.7385	0.105	1159477	keystroke	s	n/a
579.9785	0.195	1159957	keystroke	c	n/a
580.2325	0.106	1160465	keystroke	r	n/a
580.4585	0.09	1160917	keystroke	i	n/a
580.7135	0.075	1161427	keystroke	b	n/a
580.9235	0.075	1161847	keystroke	e	n/a
581.1185	0.075	1162237	keystroke	d	n/a
581.2225	0.106	1162445	keystroke	Key.space	n/a
581.7335	0.075	1163467	keystroke	s	n/a
582.2885	0.09	1164577	keystroke	c	n/a
582.4075	0.106	1164815	keystroke	h	n/a
582.5585	0.09	1165117	keystroke	i	n/a
583.0235	0.09	1166047	keystroke	e	n/a
583.2035	0.09	1166407	keystroke	n	n/a
583.4885	0.06	1166977	keystroke	t	n/a
583.5935	0.075	1167187	keystroke	i	n/a
585.7715	0.012	1171543	keystroke	f	n/a
585.7725	0.101	1171545	keystroke	i	n/a
585.9335	0.105	1171867	keystroke	c	n/a
586.1885	0.075	1172377	keystroke	Key.space	n/a
587.9735	0.09	1175947	keystroke	d	n/a
588.1535	0.06	1176307	keystroke	e	n/a
588.2285	0.09	1176457	keystroke	a	n/a
588.3935	0.105	1176787	keystroke	l	n/a
588.6485	0.075	1177297	keystroke	s	n/a
588.7685	0.06	1177537	keystroke	Key.enter	n/a
588.837	9.368	1177674	prompt	n/a	attention tight movie vincent\n
589.9835	0.075	1179967	keystroke	a	n/a
590.2535	0.075	1180507	keystroke	t	n/a
590.3735	0.12	1180747	keystroke	t	n/a
591.0785	0.075	1182157	keystroke	e	n/a
591.3335	0.06	1182667	keystroke	n	n/a
591.4385	0.075	1182877	keystroke	t	n/a
591.5435	0.24	1183087	keystroke	i	n/a
591.6335	0.165	1183267	keystroke	o	n/a
591.6935	0.15	1183387	keystroke	n	n/a
591.8585	0.135	1183717	keystroke	Key.space	n/a
592.1585	0.105	1184317	keystroke	t	n/a
592.2485	0.165	1184497	keystroke	i	n/a
592.4285	0.105	1184857	keystroke	g	n/a
592.5785	0.15	1185157	keystroke	h	n/a
592.6385	0.075	1185277	keystroke	t	n/a
592.7135	0.12	1185427	keystroke	Key.space	n/a
592.9835	0.075	1185967	keystroke	m	n/a
593.1185	0.105	1186237	keystroke	o	n/a
593.2385	0.105	1186477	keystroke	v	n/a
593.3285	0.075	1186657	keystroke	e	n/a
593.5685	0.06	1187137	keystroke	i	n/a
593.7785	0.06	1187557	keystroke	e	n/a
593.9435	0.075	1187887	keystroke	Key.space	n/a
595.0235	0.06	1190047	keystroke	Key.backspace	n/a
595.1735	0.075	1190347	keystroke	Key.backspace	n/a
595.6985	0.06	1191397	keystroke	Key.backspace	n/a
595.8635	0.075	1191727	keystroke	Key.backspace	n/a
596.2385	0.075	1192477	keystroke	i	n/a
596.5385	0.105	1193077	keystroke	e	n/a
596.7335	0.075	1193467	keystroke	Key.space	n/a
597.1685	0.075	1194337	keystroke	v	n/a
597.2735	0.06	1194547	keystroke	i	n/a
597.4085	0.105	1194817	keystroke	n	n/a
597.5285	0.09	1195057	keystroke	c	n/a
597.7235	0.06	1195447	keystroke	e	n/a
597.8585	0.09	1195717	keystroke	n	n/a
597.9635	0.06	1195927	keystroke	t	n/a
598.1435	0.06	1196287	keystroke	Key.enter	n/a
598.2105	6.9545	1196421	prompt	n/a	but passport they chicken\n
599.1935	0.09	1198387	keystroke	b	n/a
599.4035	0.12	1198807	keystroke	u	n/a
599.5235	0.09	1199047	keystroke	t	n/a
599.6285	0.105	1199257	keystroke	Key.space	n/a
599.7185	0.09	1199437	keystroke	t	n/a
599.8235	0.165	1199647	keystroke	h	n/a
599.9285	0.075	1199857	keystroke	e	n/a
599.9735	0.12	1199947	keystroke	Key.space	n/a
600.1385	0.105	1200277	keystroke	p	n/a
600.2285	0.09	1200457	keystroke	a	n/a
600.5285	0.06	1201057	keystroke	s	n/a
600.6485	0.105	1201297	keystroke	s	n/a
600.8285	0.0895	1201657	keystroke	p	n/a
600.964	0.074	1201928	keystroke	r	n/a
601.068	0.09	1202136	keystroke	o	n/a
601.173	0.105	1202346	keystroke	t	n/a
601.323	0.09	1202646	keystroke	Key.space	n/a
601.428	0.075	1202856	keystroke	t	n/a
601.533	0.12	1203066	keystroke	h	n/a
601.669	0.059	1203338	keystroke	e	n/a
601.773	0.105	1203546	keystroke	y	n/a
601.818	0.12	1203636	keystroke	Key.space	n/a
603.468	0.09	1206936	keystroke	c	n/a
603.588	0.09	1207176	keystroke	h	n/a
603.723	0.105	1207446	keystroke	i	n/a
603.844	0.089	1207688	keystroke	c	n/a
603.963	0.09	1207926	keystroke	k	n/a
604.068	0.0745	1208136	keystroke	e	n/a
604.5185	0.059	1209037	keystroke	n	n/a
605.0875	0.075	1210175	keystroke	Key.enter	n/a
605.1695	7.9905	1210339	prompt	n/a	lights assessed upset reviewing\n
606.3925	0.105	1212785	keystroke	l	n/a
606.8885	0.104	1213777	keystroke	i	n/a
607.0075	0.121	1214015	keystroke	g	n/a
607.1575	0.105	1214315	keystroke	h	n/a
607.2025	0.105	1214405	keystroke	t	n/a
607.3525	0.075	1214705	keystroke	s	n/a
607.4875	0.09	1214975	keystroke	Key.space	n/a
607.8025	0.06	1215605	keystroke	a	n/a
608.1175	0.06	1216235	keystroke	s	n/a
608.2535	0.074	1216507	keystroke	s	n/a
608.4325	0.06	1216865	keystroke	e	n/a
608.6275	0.06	1217255	keystroke	s	n/a
608.7475	0.09	1217495	keystroke	s	n/a
608.8985	0.075	1217797	keystroke	e	n/a
609.1225	0.075	1218245	keystroke	d	n/a
609.2275	0.09	1218455	keystroke	Key.space	n/a
609.4525	0.136	1218905	keystroke	u	n/a
609.5725	0.09	1219145	keystroke	p	n/a
610.1285	0.074	1220257	keystroke	s	n/a
610.3225	0.075	1220645	keystroke	e	n/a
610.5175	0.075	1221035	keystroke	t	n/a
610.6075	0.105	1221215	keystroke	Key.space	n/a
611.1925	0.09	1222385	keystroke	r	n/a
611.3135	0.105	1222627	keystroke	e	n/a
611.5675	0.076	1223135	keystroke	v	n/a
611.7475	0.091	1223495	keystroke	i	n/a
611.8535	0.119	1223707	keystroke	e	n/a
611.9585	0.134	1223917	keystroke	w	n/a
612.2885	0.074	1224577	keystroke	i	n/a
612.5435	0.09	1225087	keystroke	n	n/a
612.7535	0.06	1225507	keystroke	g	n/a
613.0825	0.075	1226165	keystroke	Key.enter	n/a
613.165	6.985	1226330	prompt	n/a	runs trend anonymous physical\n
614.0285	0.074	1228057	keystroke	r	n/a
614.1635	0.074	1228327	keystroke	u	n/a
614.3875	0.076	1228775	keystroke	n	n/a
614.8525	0.06	1229705	keystroke	s	n/a
614.9425	0.09	1229885	keystroke	Key.space	n/a
615.1985	0.075	1230397	keystroke	t	n/a
615.4085	0.075	1230817	keystroke	r	n/a
615.4675	0.09	1230935	keystroke	e	n/a
615.6485	0.09	1231297	keystroke	n	n/a
615.7385	0.089	1231477	keystroke	d	n/a
615.8425	0.09	1231685	keystroke	Key.space	n/a
616.1725	0.061	1232345	keystroke	a	n/a
616.2925	0.105	1232585	keystroke	n	n/a
616.5025	0.075	1233005	keystroke	o	n/a
616.6385	0.12	1233277	keystroke	n	n/a
616.9085	0.074	1233817	keystroke	y	n/a
617.1785	0.149	1234357	keystroke	m	n/a
617.4175	0.18	1234835	keystroke	o	n/a
617.5525	0.12	1235105	keystroke	u	n/a
617.7335	0.089	1235467	keystroke	s	n/a
617.8675	0.09	1235735	keystroke	Key.space	n/a
618.1835	0.089	1236367	keystroke	p	n/a
618.3775	0.12	1236755	keystroke	h	n/a
618.7535	0.105	1237507	keystroke	y	n/a
619.0985	0.104	1238197	keystroke	s	n/a
619.3835	0.09	1238767	keystroke	i	n/a
619.5025	0.12	1239005	keystroke	c	n/a
619.6085	0.105	1239217	keystroke	a	n/a
619.8175	0.091	1239635	keystroke	l	n/a
620.0885	0.059	1240177	keystroke	Key.enter	n/a
620.1565	8.9185	1240313	prompt	n/a	inspector politics mood icons\n
620.8675	0.076	1241735	keystroke	i	n/a
621.0785	0.119	1242157	keystroke	n	n/a
621.5435	0.074	1243087	keystroke	s	n/a
621.6635	0.075	1243327	keystroke	p	n/a
621.8585	0.044	1243717	keystroke	e	n/a
622.3085	0.164	1244617	keystroke	c	n/a
622.4585	0.089	1244917	keystroke	t	n/a
622.5785	0.09	1245157	keystroke	o	n/a
622.6835	0.089	1245367	keystroke	r	n/a
622.8635	0.075	1245727	keystroke	Key.space	n/a
623.1335	0.105	1246267	keystroke	p	n/a
623.4635	0.09	1246927	keystroke	o	n/a
623.7035	0.135	1247407	keystroke	l	n/a
623.9285	0.09	1247857	keystroke	i	n/a
624.1085	0.06	1248217	keystroke	t	n/a
624.1835	0.09	1248367	keystroke	i	n/a
624.7685	0.09	1249537	keystroke	c	n/a
624.9475	0.076	1249895	keystroke	s	n/a
625.1135	0.089	1250227	keystroke	Key.space	n/a
625.3985	0.09	1250797	keystroke	m	n/a
625.5935	0.075	1251187	keystroke	o	n/a
625.7735	0.09	1251547	keystroke	o	n/a
625.9085	0.09	1251817	keystroke	d	n/a
626.0275	0.091	1252055	keystroke	Key.space	n/a
626.3135	0.105	1252627	keystroke	i	n/a
626.5085	0.075	1253017	keystroke	c	n/a
626.6135	0.12	1253227	keystroke	o	n/a
626.7785	0.09	1253557	keystroke	n	n/a
627.4085	0.09	1254817	keystroke	s	n/a
628.998	0.075	1257996	keystroke	Key.enter	n/a
629.0805	9.3395	1258161	prompt	n/a	gifts grateful evaluating goto\n
630.258	0.09	1260516	keystroke	g	n/a
630.558	0.06	1261116	keystroke	i	n/a
630.648	0.075	1261296	keystroke	f	n/a
630.858	0.09	1261716	keystroke	t	n/a
631.008	0.075	1262016	keystroke	s	n/a
631.113	0.105	1262226	keystroke	Key.space	n/a
631.383	0.09	1262766	keystroke	g	n/a
631.578	0.105	1263156	keystroke	r	n/a
631.713	0.105	1263426	keystroke	a	n/a
631.863	0.105	1263726	keystroke	t	n/a
631.983	0.075	1263966	keystroke	e	n/a
632.313	0.075	1264626	keystroke	f	n/a
632.478	0.12	1264956	keystroke	u	n/a
632.748	0.09	1265496	keystroke	l	n/a
632.958	0.09	1265916	keystroke	Key.space	n/a
633.258	0.09	1266516	keystroke	e	n/a
633.453	0.105	1266906	keystroke	v	n/a
633.798	0.075	1267596	keystroke	a	n/a
633.948	0.105	1267896	keystroke	l	n/a
634.158	0.09	1268316	keystroke	u	n/a
634.308	0.12	1268616	keystroke	a	n/a
634.458	0.105	1268916	keystroke	t	n/a
634.608	0.181	1269216	keystroke	i	n/a
635.013	0.12	1270026	keystroke	n	n/a
635.208	0.075	1270416	keystroke	g	n/a
635.328	0.09	1270656	keystroke	Key.space	n/a
635.538	0.09	1271076	keystroke	g	n/a
635.643	0.105	1271286	keystroke	o	n/a
636.648	0.09	1273296	keystroke	t	n/a
636.753	0.075	1273506	keystroke	o	n/a
638.3425	0.075	1276685	keystroke	Key.enter	n/a
638.4245	8.0355	1276849	prompt	n/a	estonia blonde charter lanka\n
639.5425	0.075	1279085	keystroke	e	n/a
639.7975	0.135	1279595	keystroke	s	n/a
639.9025	0.105	1279805	keystroke	t	n/a
640.0675	0.091	1280135	keystroke	o	n/a
640.2635	0.089	1280527	keystroke	n	n/a
640.3825	0.09	1280765	keystroke	i	n/a
640.5025	0.075	1281005	keystroke	a	n/a
640.6075	0.105	1281215	keystroke	Key.space	n/a
640.9375	0.075	1281875	keystroke	b	n/a
641.0725	0.105	1282145	keystroke	l	n/a
641.3125	0.09	1282625	keystroke	o	n/a
641.6125	0.09	1283225	keystroke	n	n/a
641.8675	0.075	1283735	keystroke	d	n/a
642.0325	0.075	1284065	keystroke	e	n/a
642.1225	0.09	1284245	keystroke	Key.space	n/a
642.4375	0.121	1284875	keystroke	c	n/a
642.6925	0.09	1285385	keystroke	h	n/a
643.0225	0.105	1286045	keystroke	a	n/a
643.2025	0.105	1286405	keystroke	r	n/a
643.9825	0.076	1287965	keystroke	t	n/a
644.1475	0.09	1288295	keystroke	e	n/a
644.2075	0.09	1288415	keystroke	r	n/a
644.3425	0.09	1288685	keystroke	Key.space	n/a
644.7925	0.09	1289585	keystroke	l	n/a
644.8525	0.075	1289705	keystroke	a	n/a
644.9885	0.15	1289977	keystroke	n	n/a
645.3025	0.045	1290605	keystroke	k	n/a
645.7525	0.09	1291505	keystroke	a	n/a
646.3825	0.075	1292765	keystroke	Key.enter	n/a
646.465	12.4905	1292930	prompt	n/a	mercedes aids ideal accompanying\n
647.6425	0.075	1295285	keystroke	m	n/a
647.9725	0.12	1295945	keystroke	r	n/a
647.9875	0.03	1295975	keystroke	e	n/a
649.5025	0.075	1299005	keystroke	Key.backspace	n/a
649.7275	0.06	1299455	keystroke	Key.backspace	n/a
650.2835	0.089	1300567	keystroke	e	n/a
650.3425	0.091	1300685	keystroke	r	n/a
650.6275	0.075	1301255	keystroke	c	n/a
650.8225	0.075	1301645	keystroke	e	n/a
651.0175	0.09	1302035	keystroke	d	n/a
651.1225	0.075	1302245	keystroke	i	n/a
652.1725	0.09	1304345	keystroke	Key.backspace	n/a
652.3075	0.075	1304615	keystroke	e	n/a
652.5325	0.075	1305065	keystroke	s	n/a
652.8475	0.075	1305695	keystroke	Key.space	n/a
653.2375	0.06	1306475	keystroke	a	n/a
653.3425	0.09	1306685	keystroke	i	n/a
653.4935	0.09	1306987	keystroke	d	n/a
653.7025	0.0905	1307405	keystroke	s	n/a
653.8675	0.09	1307735	keystroke	Key.space	n/a
654.4835	0.074	1308967	keystroke	i	n/a
654.6335	0.089	1309267	keystroke	d	n/a
654.8125	0.075	1309625	keystroke	e	n/a
654.9485	0.09	1309897	keystroke	a	n/a
655.0685	0.134	1310137	keystroke	l	n/a
655.1575	0.105	1310315	keystroke	Key.space	n/a
655.5335	0.089	1311067	keystroke	a	n/a
655.8175	0.076	1311635	keystroke	c	n/a
655.9375	0.091	1311875	keystroke	c	n/a
656.1035	0.104	1312207	keystroke	o	n/a
656.2975	0.135	1312595	keystroke	m	n/a
656.5225	0.105	1313045	keystroke	p	n/a
657.3935	0.105	1314787	keystroke	a	n/a
657.5275	0.151	1315055	keystroke	n	n/a
657.888	0.09	1315776	keystroke	y	n/a
658.143	0.06	1316286	keystroke	i	n/a
658.323	0.075	1316646	keystroke	n	n/a
658.473	0.0605	1316946	keystroke	g	n/a
658.848	0.105	1317696	keystroke	Key.enter	n/a
658.9615	13.0285	1317923	prompt	n/a	competitors refused assumed charitable\n
659.958	0.075	1319916	keystroke	c	n/a
660.558	0.12	1321116	keystroke	o	n/a
660.798	0.09	1321596	keystroke	m	n/a
660.933	0.105	1321866	keystroke	p	n/a
661.173	0.135	1322346	keystroke	e	n/a
661.413	0.105	1322826	keystroke	t	n/a
661.623	0.06	1323246	keystroke	i	n/a
661.803	0.105	1323606	keystroke	t	n/a
661.923	0.09	1323846	keystroke	o	n/a
662.028	0.105	1324056	keystroke	r	n/a
662.388	0.09	1324776	keystroke	s	n/a
662.553	0.09	1325106	keystroke	Key.space	n/a
663.018	0.105	1326036	keystroke	r	n/a
663.108	0.105	1326216	keystroke	e	n/a
663.453	0.075	1326906	keystroke	f	n/a
663.603	0.105	1327206	keystroke	u	n/a
663.738	0.075	1327476	keystroke	e	n/a
663.933	0.09	1327866	keystroke	s	n/a
665.538	0.105	1331076	keystroke	Key.backspace	n/a
665.748	0.09	1331496	keystroke	Key.backspace	n/a
665.853	0.045	1331706	keystroke	d	n/a
666.693	0.135	1333386	keystroke	Key.backspace	n/a
666.918	0.09	1333836	keystroke	s	n/a
667.128	0.045	1334256	keystroke	e	n/a
667.308	0.09	1334616	keystroke	d	n/a
667.518	0.09	1335036	keystroke	Key.space	n/a
668.223	0.075	1336446	keystroke	a	n/a
668.433	0.06	1336866	keystroke	s	n/a
668.553	0.105	1337106	keystroke	s	n/a
668.718	0.075	1337436	keystroke	u	n/a
668.943	0.105	1337886	keystroke	m	n/a
669.033	0.06	1338066	keystroke	e	n/a
669.228	0.06	1338456	keystroke	d	n/a
669.348	0.075	1338696	keystroke	Key.space	n/a
669.738	0.105	1339476	keystroke	c	n/a
669.903	0.12	1339806	keystroke	h	n/a
669.993	0.105	1339986	keystroke	a	n/a
670.113	0.1045	1340226	keystroke	r	n/a
670.338	0.09	1340676	keystroke	t	n/a
670.458	0.075	1340916	keystroke	i	n/a
670.8925	0.105	1341785	keystroke	a	n/a
671.0275	0.105	1342055	keystroke	b	n/a
671.178	0.1045	1342356	keystroke	l	n/a
671.2675	0.0755	1342535	keystroke	e	n/a
671.8975	0.09	1343795	keystroke	Key.enter	n/a
671.999	6.7105	1343998	prompt	n/a	bios wallace american reliance\n
672.9175	0.105	1345835	keystroke	b	n/a
673.1275	0.075	1346255	keystroke	i	n/a
673.3525	0.075	1346705	keystroke	o	n/a
673.5325	0.075	1347065	keystroke	s	n/a
673.6375	0.09	1347275	keystroke	Key.space	n/a
673.8775	0.09	1347755	keystroke	w	n/a
674.0575	0.105	1348115	keystroke	a	n/a
674.2525	0.06	1348505	keystroke	l	n/a
674.4175	0.12	1348835	keystroke	l	n/a
674.6425	0.09	1349285	keystroke	a	n/a
674.8975	0.09	1349795	keystroke	c	n/a
675.0925	0.075	1350185	keystroke	e	n/a
675.1975	0.105	1350395	keystroke	Key.space	n/a
675.3775	0.075	1350755	keystroke	a	n/a
675.5275	0.09	1351055	keystroke	m	n/a
675.7075	0.105	1351415	keystroke	e	n/a
675.7675	0.12	1351535	keystroke	r	n/a
676.1125	0.09	1352225	keystroke	i	n/a
676.1875	0.15	1352375	keystroke	c	n/a
676.3075	0.105	1352615	keystroke	a	n/a
676.4425	0.15	1352885	keystroke	n	n/a
676.6075	0.105	1353215	keystroke	Key.space	n/a
677.3425	0.105	1354685	keystroke	r	n/a
677.5525	0.06	1355105	keystroke	e	n/a
677.7475	0.09	1355495	keystroke	l	n/a
677.9425	0.075	1355885	keystroke	i	n/a
678.0025	0.105	1356005	keystroke	a	n/a
678.1825	0.09	1356365	keystroke	n	n/a
678.3025	0.09	1356605	keystroke	c	n/a
678.5125	0.06	1357025	keystroke	e	n/a
678.6325	0.075	1357265	keystroke	Key.enter	n/a
678.714	10.2405	1357428	prompt	n/a	displaying beginner understand turkey\n
679.6975	0.09	1359395	keystroke	d	n/a
679.8475	0.075	1359695	keystroke	i	n/a
679.9825	0.09	1359965	keystroke	s	n/a
680.1175	0.105	1360235	keystroke	p	n/a
680.3425	0.105	1360685	keystroke	l	n/a
680.4925	0.06	1360985	keystroke	a	n/a
680.6875	0.091	1361375	keystroke	y	n/a
680.8975	0.075	1361795	keystroke	i	n/a
681.1075	0.12	1362215	keystroke	n	n/a
681.2425	0.12	1362485	keystroke	g	n/a
681.3475	0.09	1362695	keystroke	Key.space	n/a
681.5275	0.09	1363055	keystroke	b	n/a
681.7225	0.075	1363445	keystroke	e	n/a
681.9925	0.075	1363985	keystroke	i	n/a
682.3825	0.076	1364765	keystroke	n	n/a
682.9975	0.09	1365995	keystroke	Key.backspace	n/a
683.1775	0.075	1366355	keystroke	Key.backspace	n/a
684.0775	0.076	1368155	keystroke	g	n/a
684.2425	0.075	1368485	keystroke	i	n/a
684.4825	0.06	1368965	keystroke	n	n/a
684.6325	0.105	1369265	keystroke	n	n/a
684.7385	0.089	1369477	keystroke	e	n/a
684.7975	0.09	1369595	keystroke	r	n/a
684.9025	0.105	1369805	keystroke	Key.space	n/a
685.2925	0.09	1370585	keystroke	u	n/a
685.5325	0.09	1371065	keystroke	n	n/a
685.9825	0.075	1371965	keystroke	d	n/a
686.1775	0.09	1372355	keystroke	e	n/a
686.2375	0.12	1372475	keystroke	r	n/a
686.6575	0.105	1373315	keystroke	s	n/a
686.7325	0.12	1373465	keystroke	t	n/a
686.8675	0.075	1373735	keystroke	a	n/a
687.018	0.105	1374036	keystroke	n	n/a
687.153	0.075	1374306	keystroke	d	n/a
687.273	0.075	1374546	keystroke	Key.space	n/a
687.438	0.12	1374876	keystroke	t	n/a
687.678	0.12	1375356	keystroke	u	n/a
687.783	0.06	1375566	keystroke	r	n/a
688.218	0.09	1376436	keystroke	k	n/a
688.353	0.09	1376706	keystroke	e	n/a
688.563	0.075	1377126	keystroke	y	n/a
688.863	0.09	1377726	keystroke	Key.enter	n/a
688.959	12.2055	1377918	prompt	n/a	dubai possession euro often\n
689.898	0.09	1379796	keystroke	d	n/a
690.048	0.105	1380096	keystroke	u	n/a
690.408	0.06	1380816	keystroke	a	n/a
691.7275	0.09	1383455	keystroke	Key.backspace	n/a
692.2385	0.089	1384477	keystroke	b	n/a
692.6275	0.045	1385255	keystroke	a	n/a
692.7485	0.089	1385497	keystroke	i	n/a
693.0175	0.09	1386035	keystroke	Key.space	n/a
693.3325	0.075	1386665	keystroke	p	n/a
693.5575	0.075	1387115	keystroke	o	n/a
693.7985	0.074	1387597	keystroke	s	n/a
693.9475	0.105	1387895	keystroke	s	n/a
694.5475	0.09	1389095	keystroke	e	n/a
694.7585	0.075	1389517	keystroke	s	n/a
694.9075	0.09	1389815	keystroke	s	n/a
694.9825	0.195	1389965	keystroke	i	n/a
695.0735	0.164	1390147	keystroke	o	n/a
695.1475	0.15	1390295	keystroke	n	n/a
695.2825	0.12	1390565	keystroke	Key.space	n/a
695.8225	0.06	1391645	keystroke	e	n/a
696.0035	0.089	1392007	keystroke	u	n/a
696.1825	0.075	1392365	keystroke	r	n/a
696.3035	0.119	1392607	keystroke	p	n/a
696.5725	0.06	1393145	keystroke	Key.space	n/a
698.0275	0.09	1396055	keystroke	Key.backspace	n/a
698.7025	0.06	1397405	keystroke	Key.backspace	n/a
699.4685	0.074	1398937	keystroke	o	n/a
699.6475	0.105	1399295	keystroke	Key.space	n/a
700.0835	0.074	1400167	keystroke	o	n/a
700.2635	0.089	1400527	keystroke	f	n/a
700.4725	0.075	1400945	keystroke	t	n/a
700.6375	0.075	1401275	keystroke	e	n/a
700.8035	0.089	1401607	keystroke	n	n/a
701.0885	0.074	1402177	keystroke	Key.enter	n/a
701.1695	17.0355	1402339	prompt	n/a	haven performance current territory\n
702.2125	0.105	1404425	keystroke	h	n/a
702.3025	0.075	1404605	keystroke	a	n/a
702.4225	0.091	1404845	keystroke	v	n/a
702.5275	0.075	1405055	keystroke	e	n/a
702.6625	0.135	1405325	keystroke	n	n/a
702.7525	0.12	1405505	keystroke	Key.space	n/a
709.041	0.027	1418082	keystroke	p	n/a
709.293	0.105	1418586	keystroke	e	n/a
709.353	0.135	1418706	keystroke	r	n/a
709.698	0.12	1419396	keystroke	f	n/a
709.833	0.105	1419666	keystroke	o	n/a
709.893	0.105	1419786	keystroke	r	n/a
710.043	0.12	1420086	keystroke	m	n/a
710.133	0.09	1420266	keystroke	a	n/a
710.343	0.09	1420686	keystroke	n	n/a
710.493	0.09	1420986	keystroke	c	n/a
710.673	0.075	1421346	keystroke	e	n/a
710.763	0.09	1421526	keystroke	Key.space	n/a
711.078	0.105	1422156	keystroke	c	n/a
711.243	0.076	1422486	keystroke	u	n/a
711.363	0.06	1422726	keystroke	r	n/a
711.498	0.135	1422996	keystroke	r	n/a
711.618	0.09	1423236	keystroke	e	n/a
711.783	0.15	1423566	keystroke	n	n/a
711.903	0.075	1423806	keystroke	t	n/a
711.993	0.12	1423986	keystroke	Key.space	n/a
712.353	0.075	1424706	keystroke	t	n/a
712.548	0.09	1425096	keystroke	e	n/a
712.773	0.06	1425546	keystroke	r	n/a
712.893	0.09	1425786	keystroke	r	n/a
713.163	0.06	1426326	keystroke	e	n/a
713.823	0.09	1427646	keystroke	Key.backspace	n/a
714.183	0.075	1428366	keystroke	i	n/a
714.333	0.09	1428666	keystroke	t	n/a
714.438	0.12	1428876	keystroke	o	n/a
714.543	0.075	1429086	keystroke	r	n/a
714.753	0.09	1429506	keystroke	y	n/a
715.128	0.03	1430256	keystroke	]	n/a
716.238	0.105	1432476	keystroke	Key.backspace	n/a
716.568	0.09	1433136	keystroke	\	n/a
717.5275	0.06	1435055	keystroke	Key.backspace	n/a
718.1125	0.09	1436225	keystroke	Key.enter	n/a
718.21	11.125	1436420	prompt	n/a	titanium nursing virginia horror\n
719.5985	0.089	1439197	keystroke	t	n/a
719.7175	0.09	1439435	keystroke	i	n/a
719.8685	0.135	1439737	keystroke	t	n/a
720.1225	0.061	1440245	keystroke	a	n/a
720.2585	0.105	1440517	keystroke	n	n/a
720.4385	0.119	1440877	keystroke	i	n/a
720.7085	0.089	1441417	keystroke	u	n/a
720.9625	0.15	1441925	keystroke	m	n/a
721.1425	0.105	1442285	keystroke	Key.space	n/a
721.442	0.09	1442884	keystroke	n	n/a
721.6825	0.091	1443365	keystroke	u	n/a
721.7885	0.075	1443577	keystroke	r	n/a
721.9675	0.075	1443935	keystroke	s	n/a
722.0585	0.074	1444117	keystroke	i	n/a
722.2385	0.179	1444477	keystroke	n	n/a
722.3585	0.12	1444717	keystroke	g	n/a
722.4925	0.12	1444985	keystroke	Key.space	n/a
722.7625	0.105	1445525	keystroke	v	n/a
722.8835	0.074	1445767	keystroke	i	n/a
723.0335	0.09	1446067	keystroke	r	n/a
723.3035	0.074	1446607	keystroke	g	n/a
723.4375	0.09	1446875	keystroke	i	n/a
723.6035	0.12	1447207	keystroke	n	n/a
723.8125	0.061	1447625	keystroke	a	n/a
724.5325	0.091	1449065	keystroke	Key.backspace	n/a
724.9535	0.075	1449907	keystroke	i	n/a
725.1035	0.059	1450207	keystroke	a	n/a
725.2225	0.09	1450445	keystroke	Key.space	n/a
725.4925	0.121	1450985	keystroke	h	n/a
726.0785	0.105	1452157	keystroke	o	n/a
726.3925	0.076	1452785	keystroke	r	n/a
726.5275	0.076	1453055	keystroke	r	n/a
726.6175	0.106	1453235	keystroke	o	n/a
726.7085	0.075	1453417	keystroke	r	n/a
727.2035	0.059	1454407	keystroke	]	n/a
728.553	0.104	1457106	keystroke	Key.backspace	n/a
729.228	0.104	1458456	keystroke	Key.enter	n/a
729.3395	7.6155	1458679	prompt	n/a	champion heather documents group\n
730.442	0.106	1460884	keystroke	c	n/a
730.563	0.0905	1461126	keystroke	h	n/a
730.683	0.104	1461366	keystroke	a	n/a
730.803	0.135	1461606	keystroke	m	n/a
730.982	0.105	1461964	keystroke	p	n/a
731.207	0.091	1462414	keystroke	i	n/a
731.358	0.165	1462716	keystroke	o	n/a
731.508	0.135	1463016	keystroke	n	n/a
731.612	0.12	1463224	keystroke	Key.space	n/a
731.883	0.12	1463766	keystroke	h	n/a
732.004	0.089	1464008	keystroke	e	n/a
732.153	0.194	1464306	keystroke	a	n/a
732.332	0.121	1464664	keystroke	t	n/a
732.662	0.091	1465324	keystroke	h	n/a
732.783	0.074	1465566	keystroke	e	n/a
732.828	0.06	1465656	keystroke	r	n/a
732.977	0.09	1465954	keystroke	Key.space	n/a
733.682	0.105	1467364	keystroke	d	n/a
734.103	0.075	1468206	keystroke	o	n/a
734.238	0.105	1468476	keystroke	c	n/a
734.327	0.106	1468654	keystroke	u	n/a
734.583	0.104	1469166	keystroke	m	n/a
734.703	0.075	1469406	keystroke	e	n/a
734.837	0.12	1469674	keystroke	n	n/a
734.928	0.15	1469856	keystroke	t	n/a
735.393	0.09	1470786	keystroke	s	n/a
735.512	0.106	1471024	keystroke	Key.space	n/a
735.678	0.105	1471356	keystroke	g	n/a
735.918	0.06	1471836	keystroke	r	n/a
736.022	0.166	1472044	keystroke	o	n/a
736.098	0.15	1472196	keystroke	u	n/a
736.189	0.119	1472378	keystroke	p	n/a
736.863	0.09	1473726	keystroke	Key.enter	n/a
736.96	7.18	1473920	prompt	n/a	delaware tender axis similar\n
737.673	0.09	1475346	keystroke	d	n/a
737.868	0.06	1475736	keystroke	e	n/a
737.988	0.105	1475976	keystroke	l	n/a
738.512	0.091	1477024	keystroke	a	n/a
738.828	0.09	1477656	keystroke	w	n/a
739.068	0.12	1478136	keystroke	a	n/a
739.173	0.09	1478346	keystroke	r	n/a
739.218	0.105	1478436	keystroke	e	n/a
739.428	0.09	1478856	keystroke	Key.space	n/a
739.638	0.09	1479276	keystroke	d	n/a
740.163	0.074	1480326	keystroke	Key.backspace	n/a
740.598	0.06	1481196	keystroke	t	n/a
740.763	0.06	1481526	keystroke	e	n/a
740.838	0.105	1481676	keystroke	n	n/a
741.018	0.09	1482036	keystroke	d	n/a
741.183	0.09	1482366	keystroke	e	n/a
741.258	0.09	1482516	keystroke	r	n/a
741.333	0.119	1482666	keystroke	Key.space	n/a
741.528	0.105	1483056	keystroke	a	n/a
741.873	0.12	1483746	keystroke	x	n/a
742.083	0.075	1484166	keystroke	i	n/a
742.233	0.09	1484466	keystroke	s	n/a
742.353	0.105	1484706	keystroke	Key.space	n/a
742.683	0.075	1485366	keystroke	s	n/a
742.833	0.105	1485666	keystroke	i	n/a
742.953	0.15	1485906	keystroke	m	n/a
743.118	0.105	1486236	keystroke	i	n/a
743.328	0.12	1486656	keystroke	l	n/a
743.478	0.15	1486956	keystroke	a	n/a
743.613	0.09	1487226	keystroke	r	n/a
744.048	0.09	1488096	keystroke	Key.enter	n/a
744.156	9.1485	1488312	prompt	n/a	teen sunny andrew editor\n
745.278	0.105	1490556	keystroke	t	n/a
745.473	0.045	1490946	keystroke	e	n/a
745.623	0.06	1491246	keystroke	e	n/a
745.758	0.12	1491516	keystroke	n	n/a
745.833	0.135	1491666	keystroke	Key.space	n/a
745.998	0.09	1491996	keystroke	s	n/a
746.238	0.09	1492476	keystroke	u	n/a
746.718	0.09	1493436	keystroke	u	n/a
746.9875	0.105	1493975	keystroke	n	n/a
748.1575	0.075	1496315	keystroke	Key.backspace	n/a
748.3825	0.075	1496765	keystroke	Key.backspace	n/a
749.0425	0.075	1498085	keystroke	n	n/a
749.1925	0.09	1498385	keystroke	n	n/a
749.6275	0.09	1499255	keystroke	y	n/a
749.7925	0.075	1499585	keystroke	Key.space	n/a
750.1225	0.076	1500245	keystroke	a	n/a
750.2725	0.12	1500545	keystroke	n	n/a
750.3775	0.12	1500755	keystroke	d	n/a
750.6025	0.12	1501205	keystroke	r	n/a
750.6625	0.105	1501325	keystroke	e	n/a
750.7375	0.075	1501475	keystroke	w	n/a
750.8575	0.12	1501715	keystroke	Key.space	n/a
751.2775	0.06	1502555	keystroke	e	n/a
751.4575	0.09	1502915	keystroke	d	n/a
751.5775	0.106	1503155	keystroke	i	n/a
751.7275	0.09	1503455	keystroke	t	n/a
751.8475	0.09	1503695	keystroke	o	n/a
751.9385	0.059	1503877	keystroke	r	n/a
753.183	0.12	1506366	keystroke	Key.enter	n/a
753.31	15.1745	1506620	prompt	n/a	longer timber ourselves institute\n
754.248	0.135	1508496	keystroke	l	n/a
754.488	0.075	1508976	keystroke	o	n/a
754.668	0.105	1509336	keystroke	n	n/a
754.743	0.09	1509486	keystroke	g	n/a
754.923	0.09	1509846	keystroke	e	n/a
754.983	0.09	1509966	keystroke	r	n/a
755.088	0.105	1510176	keystroke	Key.space	n/a
755.313	0.09	1510626	keystroke	t	n/a
755.418	0.105	1510836	keystroke	i	n/a
755.493	0.15	1510986	keystroke	m	n/a
756.408	0.105	1512816	keystroke	b	n/a
756.648	0.105	1513296	keystroke	e	n/a
757.233	0.075	1514466	keystroke	r	n/a
757.368	0.105	1514736	keystroke	Key.space	n/a
757.608	0.06	1515216	keystroke	o	n/a
757.638	0.135	1515276	keystroke	u	n/a
757.743	0.105	1515486	keystroke	r	n/a
757.893	0.105	1515786	keystroke	s	n/a
758.328	0.075	1516656	keystroke	l	n/a
758.388	0.075	1516776	keystroke	e	n/a
758.748	0.075	1517496	keystroke	v	n/a
759.138	0.045	1518276	keystroke	e	n/a
759.423	0.075	1518846	keystroke	s	n/a
760.368	0.075	1520736	keystroke	Key.space	n/a
761.238	0.105	1522476	keystroke	i	n/a
761.568	0.105	1523136	keystroke	n	n/a
761.763	0.105	1523526	keystroke	s	n/a
766.5055	0.042	1533011	keystroke	t	n/a
766.6375	0.09	1533275	keystroke	i	n/a
766.7425	0.105	1533485	keystroke	t	n/a
766.9825	0.09	1533965	keystroke	u	n/a
767.5975	0.075	1535195	keystroke	t	n/a
767.9125	0.06	1535825	keystroke	e	n/a
768.3925	0.09	1536785	keystroke	Key.enter	n/a
768.49	9.4745	1536980	prompt	n/a	consult see dressing composer\n
772.9705	0.027	1545941	keystroke	c	n/a
772.9825	0.075	1545965	keystroke	o	n/a
773.1325	0.105	1546265	keystroke	n	n/a
773.2525	0.075	1546505	keystroke	s	n/a
773.3725	0.09	1546745	keystroke	u	n/a
773.5675	0.105	1547135	keystroke	l	n/a
773.6875	0.075	1547375	keystroke	t	n/a
773.8225	0.075	1547645	keystroke	Key.space	n/a
773.9875	0.06	1547975	keystroke	s	n/a
774.1375	0.06	1548275	keystroke	e	n/a
774.2575	0.075	1548515	keystroke	e	n/a
774.4225	0.09	1548845	keystroke	Key.space	n/a
774.6925	0.075	1549385	keystroke	d	n/a
