onset	duration	sample	value	key	prompt_text
0.0095	0.068	19	keystroke_Key.enter	Key.enter	n/a
0.1175	17.04	235	prompt	n/a	the quick brown fox jumps over a lazy dog\n
3.922	0.0725	7844	keystroke_t	t	n/a
3.9785	0.0455	7957	keystroke_h	h	n/a
4.129	0.094	8258	keystroke_e	e	n/a
4.4475	0.1195	8895	keystroke_Key.space	Key.space	n/a
8.0065	0.0575	16013	keystroke_q	q	n/a
8.1085	0.15	16217	keystroke_u	u	n/a
8.199	0.0895	16398	keystroke_i	i	n/a
8.514	0.12	17028	keystroke_c	c	n/a
8.8295	0.119	17659	keystroke_k	k	n/a
9.2785	0.0755	18557	keystroke_Key.space	Key.space	n/a
10.089	0.0595	20178	keystroke_b	b	n/a
10.329	0.074	20658	keystroke_r	r	n/a
10.388	0.105	20776	keystroke_o	o	n/a
10.569	0.1045	21138	keystroke_w	w	n/a
10.7185	0.075	21437	keystroke_n	n	n/a
10.8085	0.075	21617	keystroke_Key.space	Key.space	n/a
10.9895	0.059	21979	keystroke_f	f	n/a
11.0785	0.105	22157	keystroke_o	o	n/a
11.603	0.076	23206	keystroke_x	x	n/a
11.7535	0.09	23507	keystroke_Key.space	Key.space	n/a
12.6685	0.105	25337	keystroke_j	j	n/a
12.893	0.075	25786	keystroke_u	u	n/a
13.179	0.119	26358	keystroke_p	p	n/a
13.718	0.075	27436	keystroke_Key.backspace	Key.backspace	n/a
14.019	0.12	28038	keystroke_m	m	n/a
14.1235	0.074	28247	keystroke_p	p	n/a
14.333	0.1205	28666	keystroke_s	s	n/a
14.483	0.075	28966	keystroke_Key.space	Key.space	n/a
14.5885	0.1055	29177	keystroke_o	o	n/a
14.754	0.1645	29508	keystroke_v	v	n/a
14.859	0.1345	29718	keystroke_e	e	n/a
14.934	0.075	29868	keystroke_r	r	n/a
15.069	0.0755	30138	keystroke_Key.space	Key.space	n/a
15.1735	0.1205	30347	keystroke_a	a	n/a
15.3095	0.105	30619	keystroke_Key.space	Key.space	n/a
15.459	0.075	30918	keystroke_l	l	n/a
15.58	0.105	31160	keystroke_a	a	n/a
15.774	0.121	31548	keystroke_z	z	n/a
15.94	0.0455	31880	keystroke_y	y	n/a
16.014	0.0305	32028	keystroke_Key.space	Key.space	n/a
16.1195	0.0905	32239	keystroke_d	d	n/a
16.2555	0.0745	32511	keystroke_o	o	n/a
16.375	0.06	32750	keystroke_g	g	n/a
17.0795	0.075	34159	keystroke_Key.enter	Key.enter	n/a
17.1675	7.505	34335	prompt	n/a	hull dominican clay sociology\n
18.055	0.0455	36110	keystroke_h	h	n/a
18.205	0.0595	36410	keystroke_u	u	n/a
18.3855	0.075	36771	keystroke_l	l	n/a
18.52	0.119	37040	keystroke_l	l	n/a
18.925	0.075	37850	keystroke_Key.space	Key.space	n/a
19.12	0.09	38240	keystroke_d	d	n/a
19.2845	0.1065	38569	keystroke_o	o	n/a
19.405	0.105	38810	keystroke_m	m	n/a
19.87	0.1195	39740	keystroke_i	i	n/a
19.93	0.166	39860	keystroke_n	n	n/a
20.545	0.0905	41090	keystroke_i	i	n/a
20.7695	0.151	41539	keystroke_c	c	n/a
20.86	0.106	41720	keystroke_a	a	n/a
21.0255	0.075	42051	keystroke_n	n	n/a
21.13	0.075	42260	keystroke_Key.space	Key.space	n/a
21.4	0.106	42800	keystroke_c	c	n/a
21.5195	0.0605	43039	keystroke_l	l	n/a
21.7155	0.06	43431	keystroke_a	a	n/a
21.8355	0.0605	43671	keystroke_y	y	n/a
22.075	0.075	44150	keystroke_Key.space	Key.space	n/a
22.2855	0.104	44571	keystroke_s	s	n/a
22.3745	0.09	44749	keystroke_o	o	n/a
22.75	0.106	45500	keystroke_c	c	n/a
22.901	0.1795	45802	keystroke_i	i	n/a
23.141	0.0745	46282	keystroke_o	o	n/a
23.3805	0.0755	46761	keystroke_l	l	n/a
23.5755	0.0595	47151	keystroke_o	o	n/a
23.755	0.0605	47510	keystroke_g	g	n/a
23.831	0.0745	47662	keystroke_y	y	n/a
24.61	0.06	49220	keystroke_Key.enter	Key.enter	n/a
24.6795	6.5035	49359	prompt	n/a	mainly cameroon sustainable literature\n
25.691	0.0745	51382	keystroke_m	m	n/a
25.796	0.1345	51592	keystroke_a	a	n/a
25.9605	0.09	51921	keystroke_i	i	n/a
26.0355	0.0755	52071	keystroke_n	n	n/a
26.1855	0.0905	52371	keystroke_l	l	n/a
26.291	0.0755	52582	keystroke_y	y	n/a
26.3805	0.075	52761	keystroke_Key.space	Key.space	n/a
26.575	0.121	53150	keystroke_c	c	n/a
26.651	0.12	53302	keystroke_a	a	n/a
26.8	0.075	53600	keystroke_m	m	n/a
26.935	0.0905	53870	keystroke_e	e	n/a
26.9955	0.075	53991	keystroke_r	r	n/a
27.2805	0.0895	54561	keystroke_o	o	n/a
27.4605	0.0895	54921	keystroke_o	o	n/a
27.6255	0.0605	55251	keystroke_n	n	n/a
27.746	0.09	55492	keystroke_Key.space	Key.space	n/a
27.941	0.0905	55882	keystroke_s	s	n/a
28.076	0.0445	56152	keystroke_u	u	n/a
28.2105	0.1205	56421	keystroke_s	s	n/a
28.45	0.061	56900	keystroke_t	t	n/a
28.556	0.119	57112	keystroke_a	a	n/a
28.796	0.074	57592	keystroke_i	i	n/a
28.915	0.0605	57830	keystroke_n	n	n/a
29.036	0.1195	58072	keystroke_a	a	n/a
29.1405	0.09	58281	keystroke_b	b	n/a
29.2755	0.076	58551	keystroke_l	l	n/a
29.3655	0.075	58731	keystroke_e	e	n/a
29.4705	0.075	58941	keystroke_Key.space	Key.space	n/a
29.6205	0.0605	59241	keystroke_l	l	n/a
29.6505	0.0605	59301	keystroke_i	i	n/a
29.7705	0.06	59541	keystroke_t	t	n/a
29.8605	0.121	59721	keystroke_e	e	n/a
29.936	0.194	59872	keystroke_r	r	n/a
30.086	0.1505	60172	keystroke_a	a	n/a
30.191	0.074	60382	keystroke_t	t	n/a
30.296	0.06	60592	keystroke_u	u	n/a
30.431	0.09	60862	keystroke_r	r	n/a
30.492	0.059	60984	keystroke_e	e	n/a
31.106	0.075	62212	keystroke_Key.enter	Key.enter	n/a
31.1885	7.48	62377	prompt	n/a	formal work identification streams\n
31.781	0.075	63562	keystroke_f	f	n/a
31.8705	0.106	63741	keystroke_o	o	n/a
31.9905	0.06	63981	keystroke_r	r	n/a
32.0965	0.0595	64193	keystroke_m	m	n/a
32.216	0.0895	64432	keystroke_a	a	n/a
32.336	0.0755	64672	keystroke_l	l	n/a
32.441	0.075	64882	keystroke_Key.space	Key.space	n/a
32.8005	0.075	65601	keystroke_w	w	n/a
32.8455	0.105	65691	keystroke_o	o	n/a
33.011	0.045	66022	keystroke_r	r	n/a
33.0865	0.075	66173	keystroke_k	k	n/a
33.2055	0.075	66411	keystroke_Key.space	Key.space	n/a
33.4765	0.015	66953	keystroke_i	i	n/a
34.016	0.135	68032	keystroke_d	d	n/a
34.136	0.031	68272	keystroke_e	e	n/a
34.241	0.045	68482	keystroke_n	n	n/a
34.421	0.075	68842	keystroke_t	t	n/a
34.526	0.076	69052	keystroke_i	i	n/a
34.631	0.09	69262	keystroke_f	f	n/a
34.706	0.09	69412	keystroke_i	i	n/a
34.826	0.12	69652	keystroke_f	f	n/a
34.992	0.119	69984	keystroke_a	a	n/a
35.142	0.074	70284	keystroke_t	t	n/a
35.501	0.06	71002	keystroke_Key.backspace	Key.backspace	n/a
35.651	0.045	71302	keystroke_Key.backspace	Key.backspace	n/a
35.711	0.15	71422	keystroke_Key.backspace	Key.backspace	n/a
36.206	0.1205	72412	keystroke_c	c	n/a
36.311	0.151	72622	keystroke_a	a	n/a
36.416	0.09	72832	keystroke_t	t	n/a
36.536	0.1805	73072	keystroke_i	i	n/a
36.566	0.166	73132	keystroke_o	o	n/a
36.686	0.0905	73372	keystroke_n	n	n/a
36.7915	0.059	73583	keystroke_Key.space	Key.space	n/a
37.301	0.12	74602	keystroke_s	s	n/a
37.5265	0.1505	75053	keystroke_t	t	n/a
37.8115	0.1505	75623	keystroke_r	r	n/a
37.9165	0.181	75833	keystroke_e	e	n/a
38.052	0.1045	76104	keystroke_a	a	n/a
38.2015	0.075	76403	keystroke_m	m	n/a
38.3365	0.1205	76673	keystroke_s	s	n/a
38.5765	0.09	77153	keystroke_Key.enter	Key.enter	n/a
38.6735	5.9805	77347	prompt	n/a	kenya formula thee shooting\n
39.3865	0.075	78773	keystroke_k	k	n/a
39.537	0.09	79074	keystroke_e	e	n/a
39.6565	0.0605	79313	keystroke_n	n	n/a
39.941	0.0455	79882	keystroke_y	y	n/a
40.1815	0.09	80363	keystroke_a	a	n/a
40.332	0.075	80664	keystroke_Key.space	Key.space	n/a
40.4965	0.061	80993	keystroke_f	f	n/a
40.571	0.0915	81142	keystroke_o	o	n/a
40.6915	0.06	81383	keystroke_r	r	n/a
40.842	0.044	81684	keystroke_m	m	n/a
41.007	0.0595	82014	keystroke_u	u	n/a
41.1125	0.105	82225	keystroke_l	l	n/a
41.637	0.089	83274	keystroke_a	a	n/a
41.741	0.075	83482	keystroke_Key.space	Key.space	n/a
41.952	0.06	83904	keystroke_t	t	n/a
42.057	0.06	84114	keystroke_h	h	n/a
42.147	0.09	84294	keystroke_e	e	n/a
42.297	0.075	84594	keystroke_e	e	n/a
42.417	0.06	84834	keystroke_Key.space	Key.space	n/a
42.582	0.09	85164	keystroke_s	s	n/a
42.688	0.0745	85376	keystroke_h	h	n/a
42.732	0.0905	85464	keystroke_o	o	n/a
43.0165	0.076	86033	keystroke_o	o	n/a
43.1975	0.074	86395	keystroke_t	t	n/a
43.3165	0.106	86633	keystroke_i	i	n/a
43.377	0.091	86754	keystroke_n	n	n/a
43.4525	0.06	86905	keystroke_g	g	n/a
43.6015	0.0605	87203	keystroke_Key.space	Key.space	n/a
44.517	0.1345	89034	keystroke_Key.enter	Key.enter	n/a
44.66	6.8805	89320	prompt	n/a	analytical vacuum stand enters\n
45.433	0.09	90866	keystroke_a	a	n/a
45.538	0.074	91076	keystroke_n	n	n/a
45.732	0.045	91464	keystroke_a	a	n/a
46.137	0.046	92274	keystroke_l	l	n/a
46.2425	0.0595	92485	keystroke_y	y	n/a
46.467	0.0605	92934	keystroke_t	t	n/a
46.572	0.075	93144	keystroke_i	i	n/a
46.7075	0.0905	93415	keystroke_c	c	n/a
46.8125	0.0155	93625	keystroke_i	i	n/a
46.933	0.09	93866	keystroke_a	a	n/a
47.3525	0.06	94705	keystroke_Key.backspace	Key.backspace	n/a
47.4875	0.06	94975	keystroke_Key.backspace	Key.backspace	n/a
47.6085	0.059	95217	keystroke_a	a	n/a
47.7135	0.075	95427	keystroke_l	l	n/a
47.9075	0.09	95815	keystroke_Key.space	Key.space	n/a
48.0425	0.075	96085	keystroke_v	v	n/a
48.1325	0.1205	96265	keystroke_a	a	n/a
48.388	0.074	96776	keystroke_c	c	n/a
48.643	0.045	97286	keystroke_u	u	n/a
48.7775	0.075	97555	keystroke_u	u	n/a
49.0035	0.075	98007	keystroke_m	m	n/a
49.1375	0.0755	98275	keystroke_Key.space	Key.space	n/a
49.4975	0.076	98995	keystroke_s	s	n/a
49.5585	0.059	99117	keystroke_t	t	n/a
49.708	0.105	99416	keystroke_a	a	n/a
49.828	0.0595	99656	keystroke_n	n	n/a
49.9625	0.046	99925	keystroke_d	d	n/a
50.1725	0.06	100345	keystroke_Key.space	Key.space	n/a
50.3525	0.075	100705	keystroke_e	e	n/a
50.5185	0.044	101037	keystroke_n	n	n/a
50.5775	0.135	101155	keystroke_t	t	n/a
50.668	0.1355	101336	keystroke_e	e	n/a
50.7425	0.135	101485	keystroke_r	r	n/a
50.9375	0.15	101875	keystroke_s	s	n/a
51.4775	0.06	102955	keystroke_Key.enter	Key.enter	n/a
51.5445	8.696	103089	prompt	n/a	accreditation drop welding chronicles\n
52.2885	0.075	104577	keystroke_a	a	n/a
52.544	0.09	105088	keystroke_c	c	n/a
52.7675	0.061	105535	keystroke_f	f	n/a
53.4425	0.061	106885	keystroke_Key.backspace	Key.backspace	n/a
53.5485	0.105	107097	keystroke_c	c	n/a
53.8035	0.075	107607	keystroke_r	r	n/a
53.894	0.1045	107788	keystroke_e	e	n/a
54.1485	0.104	108297	keystroke_d	d	n/a
54.3435	0.09	108687	keystroke_i	i	n/a
54.569	0.059	109138	keystroke_t	t	n/a
54.733	0.121	109466	keystroke_a	a	n/a
54.7785	0.105	109557	keystroke_t	t	n/a
54.943	0.136	109886	keystroke_i	i	n/a
54.988	0.1065	109976	keystroke_o	o	n/a
55.049	0.09	110098	keystroke_n	n	n/a
55.154	0.044	110308	keystroke_Key.space	Key.space	n/a
55.6635	0.1055	111327	keystroke_d	d	n/a
55.8585	0.0605	111717	keystroke_r	r	n/a
55.9925	0.1815	111985	keystroke_o	o	n/a
56.1135	0.12	112227	keystroke_p	p	n/a
56.3245	0.1035	112649	keystroke_Key.space	Key.space	n/a
56.624	0.059	113248	keystroke_w	w	n/a
56.774	0.06	113548	keystroke_e	e	n/a
56.849	0.0895	113698	keystroke_l	l	n/a
56.9845	0.0895	113969	keystroke_d	d	n/a
57.134	0.105	114268	keystroke_i	i	n/a
57.179	0.089	114358	keystroke_n	n	n/a
57.3145	0.0595	114629	keystroke_g	g	n/a
57.388	0.0905	114776	keystroke_Key.space	Key.space	n/a
57.5395	0.074	115079	keystroke_c	c	n/a
57.7485	0.0755	115497	keystroke_h	h	n/a
57.8985	0.046	115797	keystroke_r	r	n/a
57.9885	0.12	115977	keystroke_o	o	n/a
58.154	0.1205	116308	keystroke_n	n	n/a
58.2285	0.12	116457	keystroke_i	i	n/a
58.3935	0.105	116787	keystroke_c	c	n/a
58.7845	0.0445	117569	keystroke_e	e	n/a
58.844	0.0605	117688	keystroke_l	l	n/a
59.338	0.09	118676	keystroke_Key.backspace	Key.backspace	n/a
59.488	0.075	118976	keystroke_Key.backspace	Key.backspace	n/a
59.729	0.075	119458	keystroke_l	l	n/a
59.849	0.075	119698	keystroke_e	e	n/a
59.983	0.121	119966	keystroke_s	s	n/a
60.1635	0.075	120327	keystroke_Key.enter	Key.enter	n/a
60.248	6.2625	120496	prompt	n/a	really principal avenue schedules\n
60.899	0.105	121798	keystroke_r	r	n/a
60.959	0.1355	121918	keystroke_e	e	n/a
61.064	0.0905	122128	keystroke_a	a	n/a
61.184	0.075	122368	keystroke_l	l	n/a
61.3345	0.0895	122669	keystroke_l	l	n/a
61.438	0.06	122876	keystroke_y	y	n/a
61.514	0.074	123028	keystroke_Key.space	Key.space	n/a
61.633	0.09	123266	keystroke_p	p	n/a
61.8585	0.045	123717	keystroke_r	r	n/a
61.964	0.075	123928	keystroke_i	i	n/a
62.054	0.045	124108	keystroke_n	n	n/a
62.189	0.075	124378	keystroke_c	c	n/a
62.294	0.075	124588	keystroke_i	i	n/a
62.4585	0.091	124917	keystroke_p	p	n/a
63.0135	0.091	126027	keystroke_a	a	n/a
63.105	0.059	126210	keystroke_l	l	n/a
63.298	0.076	126596	keystroke_Key.space	Key.space	n/a
63.508	0.105	127016	keystroke_a	a	n/a
63.6285	0.1055	127257	keystroke_v	v	n/a
63.718	0.0605	127436	keystroke_e	e	n/a
63.793	0.061	127586	keystroke_n	n	n/a
64.3335	0.06	128667	keystroke_u	u	n/a
64.454	0.075	128908	keystroke_e	e	n/a
64.6035	0.0605	129207	keystroke_Key.space	Key.space	n/a
64.754	0.2095	129508	keystroke_s	s	n/a
64.9185	0.0905	129837	keystroke_c	c	n/a
65.084	0.06	130168	keystroke_h	h	n/a
65.2195	0.1045	130439	keystroke_e	e	n/a
65.279	0.09	130558	keystroke_d	d	n/a
65.399	0.06	130798	keystroke_u	u	n/a
65.4745	0.075	130949	keystroke_l	l	n/a
65.578	0.046	131156	keystroke_e	e	n/a
66.1935	0.1355	132387	keystroke_s	s	n/a
66.449	0.0595	132898	keystroke_Key.enter	Key.enter	n/a
66.515	6.5805	133030	prompt	n/a	seeds sewing commitments which's\n
67.199	0.105	134398	keystroke_s	s	n/a
67.409	0.06	134818	keystroke_e	e	n/a
67.544	0.15	135088	keystroke_e	e	n/a
67.6635	0.1655	135327	keystroke_d	d	n/a
67.7985	0.1205	135597	keystroke_s	s	n/a
67.9485	0.1055	135897	keystroke_Key.space	Key.space	n/a
68.129	0.105	136258	keystroke_s	s	n/a
68.309	0.105	136618	keystroke_e	e	n/a
68.5035	0.076	137007	keystroke_w	w	n/a
68.668	0.1065	137336	keystroke_i	i	n/a
68.7285	0.0755	137457	keystroke_n	n	n/a
68.849	0.0605	137698	keystroke_g	g	n/a
68.924	0.09	137848	keystroke_Key.space	Key.space	n/a
69.0745	0.119	138149	keystroke_c	c	n/a
69.1635	0.106	138327	keystroke_o	o	n/a
69.2235	0.09	138447	keystroke_m	m	n/a
69.4795	0.015	138959	keystroke_m	m	n/a
69.944	0.075	139888	keystroke_i	i	n/a
70.139	0.06	140278	keystroke_t	t	n/a
70.244	0.045	140488	keystroke_m	m	n/a
70.379	0.06	140758	keystroke_e	e	n/a
70.4545	0.0745	140909	keystroke_n	n	n/a
70.5735	0.091	141147	keystroke_t	t	n/a
70.649	0.1055	141298	keystroke_s	s	n/a
71.114	0.075	142228	keystroke_Key.space	Key.space	n/a
71.294	0.12	142588	keystroke_w	w	n/a
71.429	0.0895	142858	keystroke_h	h	n/a
71.489	0.045	142978	keystroke_i	i	n/a
71.5485	0.09	143097	keystroke_c	c	n/a
71.684	0.0605	143368	keystroke_h	h	n/a
72.2395	0.09	144479	keystroke_'	'	n/a
72.3895	0.089	144779	keystroke_s	s	n/a
72.989	0.1045	145978	keystroke_Key.enter	Key.enter	n/a
73.1115	5.879	146223	prompt	n/a	westminster chorus pack focusing\n
73.7545	0.09	147509	keystroke_w	w	n/a
73.994	0.075	147988	keystroke_e	e	n/a
74.174	0.195	148348	keystroke_s	s	n/a
74.279	0.135	148558	keystroke_t	t	n/a
74.7445	0.074	149489	keystroke_m	m	n/a
74.969	0.1195	149938	keystroke_i	i	n/a
75.029	0.075	150058	keystroke_n	n	n/a
75.179	0.1505	150358	keystroke_s	s	n/a
75.344	0.075	150688	keystroke_t	t	n/a
75.434	0.15	150868	keystroke_e	e	n/a
75.5395	0.09	151079	keystroke_r	r	n/a
75.674	0.075	151348	keystroke_Key.space	Key.space	n/a
75.8095	0.1045	151619	keystroke_c	c	n/a
75.929	0.06	151858	keystroke_h	h	n/a
75.945	0.104	151890	keystroke_o	o	n/a
76.124	0.045	152248	keystroke_r	r	n/a
76.259	0.06	152518	keystroke_u	u	n/a
76.394	0.09	152788	keystroke_s	s	n/a
76.499	0.0755	152998	keystroke_Key.space	Key.space	n/a
76.679	0.0605	153358	keystroke_p	p	n/a
76.8295	0.1495	153659	keystroke_a	a	n/a
76.95	0.0895	153900	keystroke_c	c	n/a
76.994	0.105	153988	keystroke_k	k	n/a
77.129	0.075	154258	keystroke_Key.space	Key.space	n/a
77.369	0.075	154738	keystroke_f	f	n/a
77.459	0.09	154918	keystroke_o	o	n/a
77.609	0.046	155218	keystroke_f	f	n/a
77.909	0.06	155818	keystroke_Key.backspace	Key.backspace	n/a
78.029	0.06	156058	keystroke_c	c	n/a
78.179	0.03	156358	keystroke_u	u	n/a
78.269	0.0605	156538	keystroke_s	s	n/a
78.373	0.091	156746	keystroke_i	i	n/a
78.434	0.06	156868	keystroke_n	n	n/a
78.5545	0.06	157109	keystroke_g	g	n/a
78.899	0.09	157798	keystroke_Key.enter	Key.enter	n/a
78.9995	6.231	157999	prompt	n/a	later literally flight developer\n
79.6045	0.06	159209	keystroke_l	l	n/a
79.7395	0.1195	159479	keystroke_a	a	n/a
79.829	0.075	159658	keystroke_t	t	n/a
79.9335	0.121	159867	keystroke_e	e	n/a
80.0085	0.091	160017	keystroke_r	r	n/a
80.1735	0.061	160347	keystroke_Key.space	Key.space	n/a
80.3685	0.0755	160737	keystroke_l	l	n/a
80.61	0.044	161220	keystroke_i	i	n/a
80.819	0.075	161638	keystroke_t	t	n/a
80.924	0.1205	161848	keystroke_e	e	n/a
80.9985	0.1505	161997	keystroke_r	r	n/a
81.1635	0.075	162327	keystroke_a	a	n/a
81.314	0.106	162628	keystroke_l	l	n/a
81.5235	0.075	163047	keystroke_l	l	n/a
81.719	0.0605	163438	keystroke_y	y	n/a
81.809	0.0595	163618	keystroke_Key.space	Key.space	n/a
82.049	0.0605	164098	keystroke_f	f	n/a
82.154	0.075	164308	keystroke_l	l	n/a
82.364	0.045	164728	keystroke_g	g	n/a
82.5145	0.0445	165029	keystroke_h	h	n/a
82.545	0.029	165090	keystroke_t	t	n/a
82.8585	0.06	165717	keystroke_Key.backspace	Key.backspace	n/a
83.009	0.0455	166018	keystroke_Key.backspace	Key.backspace	n/a
83.1285	0.075	166257	keystroke_Key.backspace	Key.backspace	n/a
83.399	0.0595	166798	keystroke_i	i	n/a
83.5185	0.076	167037	keystroke_g	g	n/a
83.6095	0.0455	167219	keystroke_h	h	n/a
83.714	0.0605	167428	keystroke_t	t	n/a
83.759	0.09	167518	keystroke_Key.space	Key.space	n/a
83.924	0.165	167848	keystroke_d	d	n/a
84.059	0.0755	168118	keystroke_e	e	n/a
84.179	0.075	168358	keystroke_v	v	n/a
84.269	0.09	168538	keystroke_e	e	n/a
84.3295	0.1045	168659	keystroke_l	l	n/a
84.6145	0.1045	169229	keystroke_o	o	n/a
84.688	0.0765	169376	keystroke_p	p	n/a
84.8385	0.076	169677	keystroke_e	e	n/a
84.8995	0.0595	169799	keystroke_r	r	n/a
85.169	0.06	170338	keystroke_Key.enter	Key.enter	n/a
85.2355	5.4555	170471	prompt	n/a	idol thumb optical capable\n
85.9195	0.0595	171839	keystroke_i	i	n/a
85.994	0.135	171988	keystroke_d	d	n/a
86.144	0.0605	172288	keystroke_o	o	n/a
86.309	0.076	172618	keystroke_l	l	n/a
86.4295	0.075	172859	keystroke_Key.space	Key.space	n/a
86.564	0.075	173128	keystroke_t	t	n/a
86.654	0.0455	173308	keystroke_h	h	n/a
86.7885	0.061	173577	keystroke_u	u	n/a
86.9395	0.0895	173879	keystroke_m	m	n/a
87.074	0.0745	174148	keystroke_b	b	n/a
87.194	0.075	174388	keystroke_Key.space	Key.space	n/a
87.4195	0.0745	174839	keystroke_o	o	n/a
87.644	0.075	175288	keystroke_p	p	n/a
87.8235	0.06	175647	keystroke_t	t	n/a
87.9295	0.074	175859	keystroke_i	i	n/a
88.0645	0.105	176129	keystroke_c	c	n/a
88.1545	0.074	176309	keystroke_a	a	n/a
88.259	0.089	176518	keystroke_l	l	n/a
88.3185	0.0745	176637	keystroke_Key.space	Key.space	n/a
88.4995	0.089	176999	keystroke_c	c	n/a
88.6035	0.1055	177207	keystroke_a	a	n/a
88.724	0.075	177448	keystroke_a	a	n/a
88.814	0.061	177628	keystroke_b	b	n/a
89.3685	0.09	178737	keystroke_Key.backspace	Key.backspace	n/a
89.5335	0.06	179067	keystroke_Key.backspace	Key.backspace	n/a
89.8495	0.059	179699	keystroke_p	p	n/a
89.9845	0.1495	179969	keystroke_a	a	n/a
90.1185	0.09	180237	keystroke_b	b	n/a
90.2535	0.0605	180507	keystroke_l	l	n/a
90.374	0.075	180748	keystroke_e	e	n/a
90.644	0.045	181288	keystroke_Key.enter	Key.enter	n/a
90.7045	7.051	181409	prompt	n/a	restriction grand consult mortgages\n
91.364	0.09	182728	keystroke_r	r	n/a
91.424	0.0755	182848	keystroke_e	e	n/a
91.5295	0.2095	183059	keystroke_s	s	n/a
91.694	0.0605	183388	keystroke_t	t	n/a
91.8435	0.061	183687	keystroke_r	r	n/a
91.9335	0.0755	183867	keystroke_i	i	n/a
92.039	0.1205	184078	keystroke_c	c	n/a
92.2795	0.09	184559	keystroke_t	t	n/a
92.3835	0.1505	184767	keystroke_i	i	n/a
92.4285	0.1055	184857	keystroke_o	o	n/a
92.503	0.076	185006	keystroke_n	n	n/a
92.58	0.059	185160	keystroke_Key.space	Key.space	n/a
92.699	0.0595	185398	keystroke_g	g	n/a
92.939	0.0595	185878	keystroke_r	r	n/a
93.148	0.076	186296	keystroke_a	a	n/a
93.3285	0.0605	186657	keystroke_n	n	n/a
93.449	0.0745	186898	keystroke_d	d	n/a
93.6135	0.075	187227	keystroke_Key.space	Key.space	n/a
93.7785	0.06	187557	keystroke_c	c	n/a
93.824	0.1195	187648	keystroke_o	o	n/a
93.914	0.0595	187828	keystroke_n	n	n/a
94.3785	0.045	188757	keystroke_u	u	n/a
94.664	0.031	189328	keystroke_Key.backspace	Key.backspace	n/a
94.754	0.105	189508	keystroke_s	s	n/a
94.889	0.06	189778	keystroke_u	u	n/a
94.9785	0.0755	189957	keystroke_l	l	n/a
95.1135	0.075	190227	keystroke_t	t	n/a
95.2335	0.0905	190467	keystroke_Key.space	Key.space	n/a
95.4595	0.06	190919	keystroke_m	m	n/a
95.639	0.0745	191278	keystroke_o	o	n/a
95.7885	0.0455	191577	keystroke_r	r	n/a
95.9095	0.074	191819	keystroke_t	t	n/a
96.3435	0.06	192687	keystroke_a	a	n/a
96.688	0.046	193376	keystroke_Key.backspace	Key.backspace	n/a
96.7785	0.09	193557	keystroke_g	g	n/a
96.824	0.195	193648	keystroke_a	a	n/a
96.974	0.1195	193948	keystroke_g	g	n/a
97.064	0.1045	194128	keystroke_e	e	n/a
97.274	0.06	194548	keystroke_s	s	n/a
97.6935	0.06	195387	keystroke_Key.enter	Key.enter	n/a
97.763	7.9125	195526	prompt	n/a	acrobat appear toilet time\n
98.3685	0.076	196737	keystroke_a	a	n/a
98.5485	0.076	197097	keystroke_c	c	n/a
98.7435	0.06	197487	keystroke_r	r	n/a
98.8485	0.075	197697	keystroke_o	o	n/a
98.9685	0.075	197937	keystroke_b	b	n/a
99.0585	0.136	198117	keystroke_a	a	n/a
99.2095	0.045	198419	keystroke_t	t	n/a
99.3145	0.044	198629	keystroke_e	e	n/a
99.4185	0.0755	198837	keystroke_Key.space	Key.space	n/a
99.9285	0.045	199857	keystroke_Key.backspace	Key.backspace	n/a
100.034	0.0895	200068	keystroke_Key.backspace	Key.backspace	n/a
100.2135	0.075	200427	keystroke_Key.space	Key.space	n/a
100.454	0.09	200908	keystroke_a	a	n/a
100.694	0.105	201388	keystroke_p	p	n/a
101.219	0.015	202438	keystroke_p	p	n/a
101.3235	0.196	202647	keystroke_e	e	n/a
101.4145	0.1645	202829	keystroke_a	a	n/a
101.5345	0.0745	203069	keystroke_r	r	n/a
101.743	0.0455	203486	keystroke_Key.space	Key.space	n/a
103.0485	0.076	206097	keystroke_t	t	n/a
103.2595	0.164	206519	keystroke_o	o	n/a
103.3935	0.106	206787	keystroke_i	i	n/a
103.5285	0.21	207057	keystroke_l	l	n/a
103.8595	0.1345	207719	keystroke_e	e	n/a
103.964	0.075	207928	keystroke_t	t	n/a
104.1285	0.0905	208257	keystroke_Key.space	Key.space	n/a
104.564	0.1195	209128	keystroke_i	i	n/a
104.8935	0.0755	209787	keystroke_Key.backspace	Key.backspace	n/a
104.9835	0.061	209967	keystroke_t	t	n/a
105.1185	0.075	210237	keystroke_i	i	n/a
105.1635	0.06	210327	keystroke_m	m	n/a
105.2835	0.06	210567	keystroke_e	e	n/a
105.613	0.06	211226	keystroke_Key.enter	Key.enter	n/a
105.68	5.3805	211360	prompt	n/a	chair fountain fifteen true\n
106.3045	0.045	212609	keystroke_c	c	n/a
106.394	0.06	212788	keystroke_h	h	n/a
106.5445	0.12	213089	keystroke_a	a	n/a
106.709	0.0605	213418	keystroke_i	i	n/a
106.844	0.075	213688	keystroke_r	r	n/a
107.038	0.061	214076	keystroke_Key.space	Key.space	n/a
107.204	0.075	214408	keystroke_f	f	n/a
107.309	0.09	214618	keystroke_o	o	n/a
107.369	0.06	214738	keystroke_u	u	n/a
107.5195	0.0745	215039	keystroke_n	n	n/a
107.639	0.09	215278	keystroke_t	t	n/a
107.759	0.09	215518	keystroke_a	a	n/a
107.924	0.105	215848	keystroke_i	i	n/a
107.9845	0.0595	215969	keystroke_n	n	n/a
108.104	0.075	216208	keystroke_Key.space	Key.space	n/a
108.269	0.075	216538	keystroke_f	f	n/a
108.389	0.09	216778	keystroke_e	e	n/a
108.8235	0.045	217647	keystroke_Key.backspace	Key.backspace	n/a
109.0335	0.045	218067	keystroke_i	i	n/a
109.1385	0.0605	218277	keystroke_f	f	n/a
109.3335	0.03	218667	keystroke_e	e	n/a
109.648	0.06	219296	keystroke_Key.backspace	Key.backspace	n/a
109.754	0.09	219508	keystroke_t	t	n/a
109.829	0.074	219658	keystroke_e	e	n/a
109.964	0.12	219928	keystroke_e	e	n/a
110.1435	0.0595	220287	keystroke_n	n	n/a
110.278	0.0905	220556	keystroke_Key.space	Key.space	n/a
110.459	0.075	220918	keystroke_t	t	n/a
110.6085	0.1055	221217	keystroke_r	r	n/a
110.729	0.06	221458	keystroke_u	u	n/a
110.8335	0.0455	221667	keystroke_e	e	n/a
110.9985	0.06	221997	keystroke_Key.enter	Key.enter	n/a
111.0655	8.8605	222131	prompt	n/a	productions emma kazakhstan yemen\n
111.8085	0.0605	223617	keystroke_p	p	n/a
111.9435	0.06	223887	keystroke_r	r	n/a
112.0335	0.1055	224067	keystroke_o	o	n/a
112.1835	0.045	224367	keystroke_d	d	n/a
112.244	0.0595	224488	keystroke_u	u	n/a
112.3335	0.075	224667	keystroke_c	c	n/a
112.4995	0.075	224999	keystroke_t	t	n/a
112.5595	0.1345	225119	keystroke_i	i	n/a
112.5895	0.0895	225179	keystroke_o	o	n/a
112.6495	0.0595	225299	keystroke_n	n	n/a
112.724	0.105	225448	keystroke_s	s	n/a
112.844	0.09	225688	keystroke_Key.space	Key.space	n/a
113.054	0.045	226108	keystroke_e	e	n/a
113.3835	0.0755	226767	keystroke_m	m	n/a
113.534	0.075	227068	keystroke_m	m	n/a
113.639	0.104	227278	keystroke_a	a	n/a
113.773	0.075	227546	keystroke_Key.space	Key.space	n/a
114.6585	0.0605	229317	keystroke_k	k	n/a
114.764	0.104	229528	keystroke_a	a	n/a
115.049	0.09	230098	keystroke_z	z	n/a
115.244	0.091	230488	keystroke_a	a	n/a
115.499	0.06	230998	keystroke_h	h	n/a
115.919	0.06	231838	keystroke_Key.backspace	Key.backspace	n/a
116.159	0.075	232318	keystroke_k	k	n/a
116.399	0.03	232798	keystroke_h	h	n/a
116.5785	0.1205	233157	keystroke_s	s	n/a
116.684	0.06	233368	keystroke_t	t	n/a
116.774	0.075	233548	keystroke_a	a	n/a
116.894	0.06	233788	keystroke_n	n	n/a
117.073	0.046	234146	keystroke_Key.space	Key.space	n/a
117.328	0.046	234656	keystroke_y	y	n/a
117.464	0.075	234928	keystroke_e	e	n/a
117.6445	0.06	235289	keystroke_m	m	n/a
117.959	0.03	235918	keystroke_n	n	n/a
118.0345	0.0895	236069	keystroke_e	e	n/a
118.3185	0.0305	236637	keystroke_Key.backspace	Key.backspace	n/a
118.4235	0.0755	236847	keystroke_Key.backspace	Key.backspace	n/a
118.5595	0.0445	237119	keystroke_e	e	n/a
118.6635	0.06	237327	keystroke_n	n	n/a
118.7685	0.015	237537	keystroke_Key.space	Key.space	n/a
119.6835	0.06	239367	keystroke_Key.backspace	Key.backspace	n/a
119.8935	0.0305	239787	keystroke_Key.enter	Key.enter	n/a
119.93	6.3555	239860	prompt	n/a	diego gadgets finding sufficient\n
120.554	0.119	241108	keystroke_d	d	n/a
120.7035	0.106	241407	keystroke_i	i	n/a
120.8845	0.0595	241769	keystroke_e	e	n/a
121.108	0.076	242216	keystroke_g	g	n/a
121.1685	0.1195	242337	keystroke_o	o	n/a
121.469	0.09	242938	keystroke_Key.space	Key.space	n/a
121.664	0.074	243328	keystroke_g	g	n/a
121.7845	0.06	243569	keystroke_a	a	n/a
121.8745	0.044	243749	keystroke_g	g	n/a
122.2335	0.0455	244467	keystroke_Key.backspace	Key.backspace	n/a
122.2935	0.0905	244587	keystroke_d	d	n/a
122.3695	0.089	244739	keystroke_g	g	n/a
122.4735	0.09	244947	keystroke_e	e	n/a
122.6235	0.0445	245247	keystroke_t	t	n/a
122.789	0.149	245578	keystroke_s	s	n/a
122.968	0.076	245936	keystroke_Key.space	Key.space	n/a
123.179	0.0745	246358	keystroke_d	d	n/a
123.5835	0.0445	247167	keystroke_Key.backspace	Key.backspace	n/a
123.689	0.045	247378	keystroke_f	f	n/a
123.809	0.09	247618	keystroke_i	i	n/a
123.854	0.06	247708	keystroke_n	n	n/a
123.974	0.075	247948	keystroke_d	d	n/a
124.094	0.09	248188	keystroke_i	i	n/a
124.184	0.06	248368	keystroke_n	n	n/a
124.304	0.06	248608	keystroke_g	g	n/a
124.423	0.09	248846	keystroke_Key.space	Key.space	n/a
124.663	0.0455	249326	keystroke_s	s	n/a
124.7245	0.0595	249449	keystroke_u	u	n/a
124.919	0.015	249838	keystroke_f	f	n/a
125.024	0.135	250048	keystroke_f	f	n/a
125.264	0.075	250528	keystroke_i	i	n/a
125.324	0.089	250648	keystroke_c	c	n/a
125.443	0.106	250886	keystroke_i	i	n/a
125.579	0.09	251158	keystroke_e	e	n/a
125.729	0.059	251458	keystroke_n	n	n/a
125.834	0.0605	251668	keystroke_t	t	n/a
126.178	0.105	252356	keystroke_Key.enter	Key.enter	n/a
126.29	6.04	252580	prompt	n/a	trauma network murphy creation\n
126.8985	0.09	253797	keystroke_t	t	n/a
127.0485	0.12	254097	keystroke_r	r	n/a
127.1695	0.089	254339	keystroke_a	a	n/a
127.2735	0.075	254547	keystroke_u	u	n/a
127.484	0.059	254968	keystroke_m	m	n/a
127.619	0.0895	255238	keystroke_a	a	n/a
127.7535	0.06	255507	keystroke_Key.space	Key.space	n/a
127.9485	0.06	255897	keystroke_n	n	n/a
128.0235	0.135	256047	keystroke_e	e	n/a
128.1285	0.06	256257	keystroke_t	t	n/a
128.2785	0.1195	256557	keystroke_w	w	n/a
128.353	0.106	256706	keystroke_o	o	n/a
128.5635	0.045	257127	keystroke_r	r	n/a
128.6235	0.061	257247	keystroke_k	k	n/a
128.8935	0.075	257787	keystroke_Key.space	Key.space	n/a
129.074	0.0595	258148	keystroke_m	m	n/a
129.2535	0.045	258507	keystroke_u	u	n/a
129.4035	0.045	258807	keystroke_r	r	n/a
129.5085	0.105	259017	keystroke_p	p	n/a
129.6745	0.059	259349	keystroke_h	h	n/a
129.8235	0.06	259647	keystroke_y	y	n/a
129.9285	0.09	259857	keystroke_Key.space	Key.space	n/a
130.1085	0.09	260217	keystroke_c	c	n/a
130.3485	0.06	260697	keystroke_r	r	n/a
130.723	0.0755	261446	keystroke_e	e	n/a
130.8585	0.2255	261717	keystroke_a	a	n/a
131.219	0.059	262438	keystroke_t	t	n/a
131.5935	0.135	263187	keystroke_i	i	n/a
131.638	0.1195	263276	keystroke_o	o	n/a
131.6985	0.12	263397	keystroke_n	n	n/a
132.2375	0.09	264475	keystroke_Key.enter	Key.enter	n/a
132.344	6.541	264688	prompt	n/a	while shell textile phentermine\n
133.0485	0.09	266097	keystroke_w	w	n/a
133.1235	0.075	266247	keystroke_h	h	n/a
133.1685	0.151	266337	keystroke_i	i	n/a
133.2585	0.15	266517	keystroke_l	l	n/a
133.4235	0.06	266847	keystroke_e	e	n/a
133.5285	0.09	267057	keystroke_Key.space	Key.space	n/a
133.6485	0.09	267297	keystroke_s	s	n/a
133.7835	0.0445	267567	keystroke_h	h	n/a
133.903	0.0605	267806	keystroke_e	e	n/a
134.1135	0.0755	268227	keystroke_l	l	n/a
134.2485	0.1195	268497	keystroke_l	l	n/a
134.4135	0.0455	268827	keystroke_Key.space	Key.space	n/a
134.623	0.1055	269246	keystroke_t	t	n/a
134.8485	0.061	269697	keystroke_e	e	n/a
135.1185	0.135	270237	keystroke_x	x	n/a
135.2985	0.075	270597	keystroke_t	t	n/a
135.464	0.0755	270928	keystroke_i	i	n/a
135.584	0.15	271168	keystroke_l	l	n/a
135.719	0.075	271438	keystroke_e	e	n/a
135.839	0.075	271678	keystroke_Key.space	Key.space	n/a
135.959	0.089	271918	keystroke_p	p	n/a
136.094	0.0745	272188	keystroke_h	h	n/a
136.348	0.0605	272696	keystroke_e	e	n/a
136.858	0.03	273716	keystroke_Key.backspace	Key.backspace	n/a
137.294	0.03	274588	keystroke_n	n	n/a
137.6085	0.03	275217	keystroke_Key.backspace	Key.backspace	n/a
137.714	0.06	275428	keystroke_e	e	n/a
137.8335	0.06	275667	keystroke_n	n	n/a
137.9385	0.105	275877	keystroke_t	t	n/a
137.9985	0.135	275997	keystroke_e	e	n/a
138.0885	0.09	276177	keystroke_r	r	n/a
138.2985	0.06	276597	keystroke_m	m	n/a
138.3735	0.105	276747	keystroke_i	i	n/a
138.464	0.0605	276928	keystroke_n	n	n/a
138.5685	0.045	277137	keystroke_e	e	n/a
138.823	0.0605	277646	keystroke_Key.enter	Key.enter	n/a
138.8975	5.7475	277795	prompt	n/a	bernard tobago floors hardwood\n
139.753	0.091	279506	keystroke_b	b	n/a
139.814	0.15	279628	keystroke_e	e	n/a
139.934	0.0895	279868	keystroke_r	r	n/a
140.144	0.0745	280288	keystroke_n	n	n/a
140.2635	0.12	280527	keystroke_a	a	n/a
140.3685	0.075	280737	keystroke_r	r	n/a
140.5635	0.06	281127	keystroke_d	d	n/a
140.7435	0.06	281487	keystroke_Key.space	Key.space	n/a
140.8485	0.0895	281697	keystroke_t	t	n/a
141.013	0.091	282026	keystroke_o	o	n/a
141.119	0.119	282238	keystroke_b	b	n/a
141.253	0.09	282506	keystroke_a	a	n/a
141.388	0.0155	282776	keystroke_b	b	n/a
141.7785	0.0295	283557	keystroke_Key.backspace	Key.backspace	n/a
141.839	0.0595	283678	keystroke_g	g	n/a
142.033	0.0605	284066	keystroke_o	o	n/a
142.1535	0.0595	284307	keystroke_Key.space	Key.space	n/a
142.304	0.075	284608	keystroke_f	f	n/a
142.453	0.045	284906	keystroke_l	l	n/a
142.588	0.0755	285176	keystroke_o	o	n/a
142.7235	0.075	285447	keystroke_o	o	n/a
142.8285	0.045	285657	keystroke_r	r	n/a
142.9785	0.0905	285957	keystroke_s	s	n/a
143.0835	0.06	286167	keystroke_Key.space	Key.space	n/a
143.2635	0.0605	286527	keystroke_h	h	n/a
143.354	0.1045	286708	keystroke_a	a	n/a
143.414	0.0595	286828	keystroke_r	r	n/a
143.5785	0.0755	287157	keystroke_d	d	n/a
143.864	0.045	287728	keystroke_w	w	n/a
143.969	0.059	287938	keystroke_o	o	n/a
144.103	0.075	288206	keystroke_o	o	n/a
144.209	0.06	288418	keystroke_d	d	n/a
144.5835	0.06	289167	keystroke_Key.enter	Key.enter	n/a
144.664	5.036	289328	prompt	n/a	spanking naples daily ripe\n
145.2885	0.1345	290577	keystroke_s	s	n/a
145.453	0.0755	290906	keystroke_p	p	n/a
145.798	0.03	291596	keystroke_Key.backspace	Key.backspace	n/a
146.3085	0.0895	292617	keystroke_p	p	n/a
146.473	0.106	292946	keystroke_a	a	n/a
146.639	0.089	293278	keystroke_n	n	n/a
146.7435	0.0895	293487	keystroke_k	k	n/a
146.938	0.106	293876	keystroke_i	i	n/a
146.998	0.075	293996	keystroke_n	n	n/a
147.118	0.0905	294236	keystroke_g	g	n/a
147.223	0.06	294446	keystroke_Key.space	Key.space	n/a
147.344	0.074	294688	keystroke_n	n	n/a
147.508	0.12	295016	keystroke_a	a	n/a
147.598	0.06	295196	keystroke_p	p	n/a
147.8085	0.0755	295617	keystroke_l	l	n/a
147.914	0.1045	295828	keystroke_e	e	n/a
148.0935	0.12	296187	keystroke_s	s	n/a
148.1985	0.059	296397	keystroke_Key.space	Key.space	n/a
148.3185	0.09	296637	keystroke_d	d	n/a
148.4235	0.104	296847	keystroke_a	a	n/a
148.5575	0.075	297115	keystroke_i	i	n/a
148.6785	0.12	297357	keystroke_l	l	n/a
148.8435	0.075	297687	keystroke_y	y	n/a
148.9335	0.06	297867	keystroke_Key.space	Key.space	n/a
149.0975	0.046	298195	keystroke_r	r	n/a
149.1575	0.075	298315	keystroke_i	i	n/a
149.2775	0.091	298555	keystroke_p	p	n/a
149.4125	0.075	298825	keystroke_e	e	n/a
149.638	0.0595	299276	keystroke_Key.enter	Key.enter	n/a
149.7085	6.741	299417	prompt	n/a	minister attribute performances alternatives\n
150.4335	0.059	300867	keystroke_m	m	n/a
150.5685	0.105	301137	keystroke_i	i	n/a
150.6585	0.0895	301317	keystroke_n	n	n/a
150.763	0.06	301526	keystroke_i	i	n/a
150.899	0.104	301798	keystroke_s	s	n/a
150.958	0.09	301916	keystroke_t	t	n/a
151.093	0.105	302186	keystroke_e	e	n/a
151.1685	0.1045	302337	keystroke_r	r	n/a
151.348	0.075	302696	keystroke_Key.space	Key.space	n/a
151.4985	0.1495	302997	keystroke_a	a	n/a
151.663	0.06	303326	keystroke_t	t	n/a
151.813	0.09	303626	keystroke_t	t	n/a
152.0085	0.0595	304017	keystroke_r	r	n/a
152.1135	0.0595	304227	keystroke_i	i	n/a
152.218	0.061	304436	keystroke_b	b	n/a
152.323	0.06	304646	keystroke_u	u	n/a
152.413	0.06	304826	keystroke_t	t	n/a
152.519	0.059	305038	keystroke_e	e	n/a
152.638	0.075	305276	keystroke_Key.space	Key.space	n/a
152.8785	0.0305	305757	keystroke_p	p	n/a
152.9675	0.0905	305935	keystroke_e	e	n/a
153.0135	0.1045	306027	keystroke_r	r	n/a
153.133	0.0745	306266	keystroke_f	f	n/a
153.2835	0.0755	306567	keystroke_o	o	n/a
153.4485	0.0595	306897	keystroke_r	r	n/a
153.658	0.09	307316	keystroke_m	m	n/a
153.7035	0.1045	307407	keystroke_a	a	n/a
153.913	0.06	307826	keystroke_n	n	n/a
154.1085	0.135	308217	keystroke_c	c	n/a
154.2285	0.074	308457	keystroke_e	e	n/a
154.3775	0.105	308755	keystroke_s	s	n/a
154.4975	0.0455	308995	keystroke_Key.space	Key.space	n/a
154.7235	0.03	309447	keystroke_a	a	n/a
154.8585	0.09	309717	keystroke_l	l	n/a
155.1875	0.076	310375	keystroke_t	t	n/a
155.2785	0.12	310557	keystroke_e	e	n/a
155.3535	0.075	310707	keystroke_r	r	n/a
155.5025	0.06	311005	keystroke_n	n	n/a
155.6075	0.136	311215	keystroke_a	a	n/a
155.7275	0.076	311455	keystroke_t	t	n/a
155.8335	0.059	311667	keystroke_i	i	n/a
155.9525	0.091	311905	keystroke_v	v	n/a
156.0135	0.09	312027	keystroke_e	e	n/a
156.193	0.0745	312386	keystroke_s	s	n/a
156.3725	0.075	312745	keystroke_Key.enter	Key.enter	n/a
156.4535	4.616	312907	prompt	n/a	see uses determine morocco\n
157.1235	0.105	314247	keystroke_s	s	n/a
157.3035	0.059	314607	keystroke_e	e	n/a
157.4525	0.075	314905	keystroke_e	e	n/a
157.5575	0.06	315115	keystroke_Key.space	Key.space	n/a
157.7075	0.06	315415	keystroke_u	u	n/a
157.7825	0.075	315565	keystroke_s	s	n/a
157.9475	0.075	315895	keystroke_e	e	n/a
158.1135	0.09	316227	keystroke_s	s	n/a
158.2175	0.0755	316435	keystroke_Key.space	Key.space	n/a
158.3535	0.1195	316707	keystroke_d	d	n/a
158.4735	0.134	316947	keystroke_e	e	n/a
158.593	0.0605	317186	keystroke_t	t	n/a
158.6685	0.135	317337	keystroke_e	e	n/a
158.7435	0.105	317487	keystroke_r	r	n/a
158.9375	0.076	317875	keystroke_m	m	n/a
159.028	0.136	318056	keystroke_i	i	n/a
159.1035	0.075	318207	keystroke_n	n	n/a
159.2085	0.075	318417	keystroke_e	e	n/a
159.4035	0.059	318807	keystroke_Key.space	Key.space	n/a
159.8975	0.0605	319795	keystroke_m	m	n/a
159.9875	0.09	319975	keystroke_o	o	n/a
160.1825	0.0305	320365	keystroke_r	r	n/a
160.2875	0.075	320575	keystroke_o	o	n/a
160.438	0.0155	320876	keystroke_c	c	n/a
160.6485	0.045	321297	keystroke_c	c	n/a
160.768	0.075	321536	keystroke_o	o	n/a
161.0075	0.0605	322015	keystroke_Key.enter	Key.enter	n/a
161.0745	5.11	322149	prompt	n/a	lips whom'st levy thomson\n
161.743	0.134	323486	keystroke_l	l	n/a
161.863	0.105	323726	keystroke_i	i	n/a
162.028	0.0755	324056	keystroke_p	p	n/a
162.118	0.075	324236	keystroke_s	s	n/a
162.252	0.091	324504	keystroke_Key.space	Key.space	n/a
162.463	0.0905	324926	keystroke_w	w	n/a
162.613	0.045	325226	keystroke_h	h	n/a
162.628	0.09	325256	keystroke_o	o	n/a
162.808	0.09	325616	keystroke_m	m	n/a
163.1685	0.074	326337	keystroke_'	'	n/a
163.3475	0.12	326695	keystroke_s	s	n/a
163.573	0.0605	327146	keystroke_t	t	n/a
163.7825	0.0605	327565	keystroke_Key.space	Key.space	n/a
164.008	0.06	328016	keystroke_l	l	n/a
164.083	0.105	328166	keystroke_e	e	n/a
164.158	0.045	328316	keystroke_v	v	n/a
164.698	0.0455	329396	keystroke_y	y	n/a
164.8635	0.0595	329727	keystroke_Key.space	Key.space	n/a
165.0725	0.061	330145	keystroke_t	t	n/a
165.2525	0.0605	330505	keystroke_h	h	n/a
165.3585	0.059	330717	keystroke_o	o	n/a
165.448	0.075	330896	keystroke_m	m	n/a
165.568	0.0755	331136	keystroke_s	s	n/a
165.689	0.06	331378	keystroke_o	o	n/a
165.764	0.044	331528	keystroke_n	n	n/a
166.123	0.06	332246	keystroke_Key.enter	Key.enter	n/a
166.189	4.975	332378	prompt	n/a	horrible kitchen built rocky\n
166.9475	0.06	333895	keystroke_h	h	n/a
167.0225	0.075	334045	keystroke_o	o	n/a
167.1425	0.045	334285	keystroke_r	r	n/a
167.2925	0.061	334585	keystroke_r	r	n/a
167.3985	0.074	334797	keystroke_i	i	n/a
167.5175	0.076	335035	keystroke_b	b	n/a
167.608	0.059	335216	keystroke_l	l	n/a
167.712	0.0765	335424	keystroke_e	e	n/a
167.862	0.045	335724	keystroke_Key.space	Key.space	n/a
168.087	0.061	336174	keystroke_k	k	n/a
168.238	0.075	336476	keystroke_i	i	n/a
168.343	0.06	336686	keystroke_t	t	n/a
168.523	0.06	337046	keystroke_c	c	n/a
168.643	0.06	337286	keystroke_h	h	n/a
168.748	0.0905	337496	keystroke_e	e	n/a
168.9875	0.0445	337975	keystroke_n	n	n/a
169.168	0.06	338336	keystroke_Key.space	Key.space	n/a
169.347	0.061	338694	keystroke_b	b	n/a
169.528	0.075	339056	keystroke_u	u	n/a
169.678	0.12	339356	keystroke_i	i	n/a
169.8585	0.1045	339717	keystroke_l	l	n/a
170.008	0.0595	340016	keystroke_t	t	n/a
170.143	0.0745	340286	keystroke_Key.space	Key.space	n/a
170.413	0.0295	340826	keystroke_r	r	n/a
170.488	0.075	340976	keystroke_o	o	n/a
170.578	0.1045	341156	keystroke_c	c	n/a
170.6675	0.076	341335	keystroke_k	k	n/a
170.8475	0.0605	341695	keystroke_y	y	n/a
171.0875	0.0755	342175	keystroke_Key.enter	Key.enter	n/a
171.168	5.6365	342336	prompt	n/a	disaster plan hilton pacific\n
171.8835	0.089	343767	keystroke_d	d	n/a
171.988	0.0745	343976	keystroke_i	i	n/a
172.0925	0.1505	344185	keystroke_s	s	n/a
172.9025	0.105	345805	keystroke_a	a	n/a
172.9475	0.135	345895	keystroke_s	s	n/a
173.1435	0.059	346287	keystroke_t	t	n/a
173.278	0.12	346556	keystroke_e	e	n/a
173.383	0.075	346766	keystroke_r	r	n/a
173.503	0.045	347006	keystroke_Key.space	Key.space	n/a
173.668	0.03	347336	keystroke_p	p	n/a
173.833	0.105	347666	keystroke_l	l	n/a
173.908	0.09	347816	keystroke_a	a	n/a
174.103	0.075	348206	keystroke_n	n	n/a
174.193	0.0895	348386	keystroke_Key.space	Key.space	n/a
174.478	0.074	348956	keystroke_h	h	n/a
174.537	0.136	349074	keystroke_i	i	n/a
174.643	0.1345	349286	keystroke_l	l	n/a
174.8225	0.0605	349645	keystroke_t	t	n/a
174.9135	0.135	349827	keystroke_o	o	n/a
175.0035	0.09	350007	keystroke_n	n	n/a
175.108	0.06	350216	keystroke_Key.space	Key.space	n/a
175.303	0.06	350606	keystroke_p	p	n/a
175.573	0.0305	351146	keystroke_a	a	n/a
175.5885	0.0595	351177	keystroke_c	c	n/a
175.678	0.075	351356	keystroke_i	i	n/a
175.828	0.06	351656	keystroke_f	f	n/a
175.8435	0.0595	351687	keystroke_i	i	n/a
176.0825	0.03	352165	keystroke_c	c	n/a
176.742	0.06	353484	keystroke_Key.enter	Key.enter	n/a
176.8085	10.361	353617	prompt	n/a	proceeds elsewhere senegal palmer\n
177.718	0.0595	355436	keystroke_p	p	n/a
177.8375	0.045	355675	keystroke_r	r	n/a
177.9285	0.0745	355857	keystroke_o	o	n/a
178.0325	0.12	356065	keystroke_c	c	n/a
178.1975	0.06	356395	keystroke_e	e	n/a
178.3775	0.09	356755	keystroke_s	s	n/a
178.5125	0.1355	357025	keystroke_s	s	n/a
178.753	0.09	357506	keystroke_e	e	n/a
179.3075	0.0145	358615	keystroke_Key.backspace	Key.backspace	n/a
179.352	0.045	358704	keystroke_Key.backspace	Key.backspace	n/a
179.4725	0.09	358945	keystroke_Key.backspace	Key.backspace	n/a
179.7875	0.0445	359575	keystroke_e	e	n/a
179.997	0.136	359994	keystroke_d	d	n/a
180.087	0.1205	360174	keystroke_s	s	n/a
180.252	0.0755	360504	keystroke_Key.space	Key.space	n/a
180.4475	0.0755	360895	keystroke_e	e	n/a
180.583	0.0895	361166	keystroke_l	l	n/a
181.0485	0.029	362097	keystroke_s	s	n/a
181.4225	0.06	362845	keystroke_e	e	n/a
181.7375	0.045	363475	keystroke_w	w	n/a
181.9025	0.0155	363805	keystroke_h	h	n/a
181.933	0.0895	363866	keystroke_e	e	n/a
181.9925	0.135	363985	keystroke_r	r	n/a
182.0975	0.12	364195	keystroke_e	e	n/a
182.2325	0.06	364465	keystroke_Key.space	Key.space	n/a
182.3525	0.045	364705	keystroke_e	e	n/a
182.7265	0.061	365453	keystroke_Key.backspace	Key.backspace	n/a
182.8025	0.075	365605	keystroke_s	s	n/a
182.9825	0.075	365965	keystroke_e	e	n/a
183.1175	0.059	366235	keystroke_l	l	n/a
183.4615	0.045	366923	keystroke_Key.backspace	Key.backspace	n/a
183.6425	0.03	367285	keystroke_n	n	n/a
183.6575	0.0595	367315	keystroke_e	e	n/a
184.167	0.1055	368334	keystroke_g	g	n/a
184.317	0.0905	368634	keystroke_a	a	n/a
184.467	0.105	368934	keystroke_l	l	n/a
184.632	0.09	369264	keystroke_Key.space	Key.space	n/a
185.022	0.09	370044	keystroke_a	a	n/a
185.037	0.045	370074	keystroke_p	p	n/a
185.322	0.06	370644	keystroke_l	l	n/a
185.6525	0.045	371305	keystroke_Key.backspace	Key.backspace	n/a
185.7725	0.06	371545	keystroke_Key.backspace	Key.backspace	n/a
185.9065	0.06	371813	keystroke_Key.backspace	Key.backspace	n/a
186.2075	0.044	372415	keystroke_p	p	n/a
186.3565	0.046	372713	keystroke_a	a	n/a
186.432	0.105	372864	keystroke_l	l	n/a
186.6125	0.0745	373225	keystroke_m	m	n/a
186.732	0.075	373464	keystroke_e	e	n/a
186.7925	0.0595	373585	keystroke_r	r	n/a
187.092	0.075	374184	keystroke_Key.enter	Key.enter	n/a
187.174	6.295	374348	prompt	n/a	rebecca percent ends tubes\n
187.797	0.1205	375594	keystroke_r	r	n/a
187.9025	0.0745	375805	keystroke_e	e	n/a
188.097	0.06	376194	keystroke_b	b	n/a
188.2325	0.0895	376465	keystroke_e	e	n/a
188.4725	0.0745	376945	keystroke_c	c	n/a
188.6225	0.135	377245	keystroke_c	c	n/a
188.727	0.1055	377454	keystroke_a	a	n/a
188.908	0.059	377816	keystroke_Key.space	Key.space	n/a
189.148	0.1045	378296	keystroke_e	e	n/a
189.492	0.075	378984	keystroke_Key.backspace	Key.backspace	n/a
189.732	0.075	379464	keystroke_p	p	n/a
189.838	0.0895	379676	keystroke_e	e	n/a
189.8825	0.1055	379765	keystroke_r	r	n/a
190.033	0.12	380066	keystroke_f	f	n/a
190.512	0.0445	381024	keystroke_Key.backspace	Key.backspace	n/a
190.5865	0.091	381173	keystroke_c	c	n/a
190.6625	0.06	381325	keystroke_e	e	n/a
190.902	0.0295	381804	keystroke_n	n	n/a
191.0075	0.014	382015	keystroke_t	t	n/a
191.053	0.045	382106	keystroke_t	t	n/a
191.1725	0.075	382345	keystroke_Key.space	Key.space	n/a
191.563	0.044	383126	keystroke_Key.backspace	Key.backspace	n/a
191.6815	0.061	383363	keystroke_Key.backspace	Key.backspace	n/a
191.8325	0.059	383665	keystroke_Key.space	Key.space	n/a
191.983	0.1495	383966	keystroke_e	e	n/a
192.1475	0.06	384295	keystroke_n	n	n/a
192.2975	0.135	384595	keystroke_d	d	n/a
192.3875	0.105	384775	keystroke_s	s	n/a
192.5675	0.06	385135	keystroke_Key.space	Key.space	n/a
192.7325	0.0455	385465	keystroke_t	t	n/a
192.8225	0.06	385645	keystroke_u	u	n/a
192.9125	0.105	385825	keystroke_b	b	n/a
193.0025	0.06	386005	keystroke_e	e	n/a
193.182	0.075	386364	keystroke_s	s	n/a
193.392	0.0755	386784	keystroke_Key.enter	Key.enter	n/a
193.473	6.5205	386946	prompt	n/a	preferences operated lighting followed\n
194.113	0.0895	388226	keystroke_p	p	n/a
194.2475	0.075	388495	keystroke_r	r	n/a
194.3075	0.09	388615	keystroke_e	e	n/a
194.4425	0.0905	388885	keystroke_f	f	n/a
194.5625	0.09	389125	keystroke_e	e	n/a
194.623	0.0745	389246	keystroke_r	r	n/a
194.7425	0.0905	389485	keystroke_e	e	n/a
194.8775	0.0445	389755	keystroke_n	n	n/a
194.9525	0.1195	389905	keystroke_c	c	n/a
195.042	0.076	390084	keystroke_e	e	n/a
195.208	0.0895	390416	keystroke_s	s	n/a
195.2825	0.074	390565	keystroke_Key.space	Key.space	n/a
195.3875	0.1495	390775	keystroke_o	o	n/a
195.508	0.089	391016	keystroke_p	p	n/a
195.6575	0.075	391315	keystroke_e	e	n/a
195.7025	0.18	391405	keystroke_r	r	n/a
195.9125	0.1355	391825	keystroke_a	a	n/a
196.003	0.0895	392006	keystroke_t	t	n/a
196.1075	0.135	392215	keystroke_e	e	n/a
196.228	0.0745	392456	keystroke_d	d	n/a
196.3625	0.06	392725	keystroke_Key.space	Key.space	n/a
196.6175	0.1055	393235	keystroke_l	l	n/a
196.693	0.09	393386	keystroke_i	i	n/a
196.813	0.0605	393626	keystroke_g	g	n/a
196.918	0.059	393836	keystroke_h	h	n/a
197.4275	0.075	394855	keystroke_i	i	n/a
197.5325	0.075	395065	keystroke_n	n	n/a
197.877	0.046	395754	keystroke_Key.backspace	Key.backspace	n/a
197.9975	0.0745	395995	keystroke_Key.backspace	Key.backspace	n/a
198.118	0.0745	396236	keystroke_t	t	n/a
198.253	0.0595	396506	keystroke_i	i	n/a
198.2975	0.046	396595	keystroke_n	n	n/a
198.403	0.0595	396806	keystroke_g	g	n/a
198.4775	0.06	396955	keystroke_Key.space	Key.space	n/a
198.6275	0.06	397255	keystroke_f	f	n/a
198.7175	0.075	397435	keystroke_o	o	n/a
198.8975	0.075	397795	keystroke_l	l	n/a
199.0325	0.09	398065	keystroke_l	l	n/a
199.1975	0.09	398395	keystroke_o	o	n/a
199.303	0.0895	398606	keystroke_w	w	n/a
199.5125	0.06	399025	keystroke_e	e	n/a
199.5565	0.0755	399113	keystroke_d	d	n/a
199.932	0.06	399864	keystroke_Key.enter	Key.enter	n/a
200	10.6435	400000	prompt	n/a	completed cook shan't content\n
200.638	0.1195	401276	keystroke_c	c	n/a
200.7725	0.12	401545	keystroke_o	o	n/a
200.8475	0.0895	401695	keystroke_m	m	n/a
200.952	0.076	401904	keystroke_p	p	n/a
201.192	0.09	402384	keystroke_l	l	n/a
201.3725	0.0745	402745	keystroke_e	e	n/a
201.508	0.104	403016	keystroke_t	t	n/a
201.597	0.1955	403194	keystroke_e	e	n/a
201.747	0.0755	403494	keystroke_r	r	n/a
201.972	0.045	403944	keystroke_d	d	n/a
202.197	0.045	404394	keystroke_Key.backspace	Key.backspace	n/a
202.3175	0.0595	404635	keystroke_Key.backspace	Key.backspace	n/a
202.3775	0.0745	404755	keystroke_d	d	n/a
202.527	0.06	405054	keystroke_Key.space	Key.space	n/a
202.768	0.09	405536	keystroke_c	c	n/a
202.872	0.0905	405744	keystroke_o	o	n/a
203.022	0.136	406044	keystroke_o	o	n/a
203.127	0.105	406254	keystroke_k	k	n/a
203.292	0.075	406584	keystroke_Key.space	Key.space	n/a
203.398	0.059	406796	keystroke_c	c	n/a
203.547	0.0455	407094	keystroke_h	h	n/a
203.848	0.045	407696	keystroke_a	a	n/a
204.282	0.045	408564	keystroke_Key.backspace	Key.backspace	n/a
204.4015	0.1655	408803	keystroke_Key.backspace	Key.backspace	n/a
204.597	0.03	409194	keystroke_Key.backspace	Key.backspace	n/a
204.7025	0.09	409405	keystroke_Key.backspace	Key.backspace	n/a
204.8375	0.075	409675	keystroke_s	s	n/a
204.9875	0.06	409975	keystroke_h	h	n/a
205.1225	0.104	410245	keystroke_a	a	n/a
205.2575	0.06	410515	keystroke_n	n	n/a
205.5275	0.06	411055	keystroke_Key.backspace	Key.backspace	n/a
205.6625	0.06	411325	keystroke_Key.backspace	Key.backspace	n/a
205.7975	0.18	411595	keystroke_Key.backspace	Key.backspace	n/a
205.9615	0.075	411923	keystroke_Key.space	Key.space	n/a
206.2775	0.0445	412555	keystroke_Key.backspace	Key.backspace	n/a
206.4125	0.0595	412825	keystroke_Key.backspace	Key.backspace	n/a
206.487	0.075	412974	keystroke_Key.space	Key.space	n/a
206.547	0.0755	413094	keystroke_s	s	n/a
206.758	0.045	413516	keystroke_h	h	n/a
206.877	0.12	413754	keystroke_a	a	n/a
207.057	0.045	414114	keystroke_n	n	n/a
207.6875	0.0895	415375	keystroke_'	'	n/a
207.897	0.015	415794	keystroke_t	t	n/a
207.9125	0.0445	415825	keystroke_'	'	n/a
208.287	0.06	416574	keystroke_Key.backspace	Key.backspace	n/a
208.4375	0.0295	416875	keystroke_Key.backspace	Key.backspace	n/a
208.8125	0.045	417625	keystroke_t	t	n/a
208.932	0.0745	417864	keystroke_Key.space	Key.space	n/a
209.187	0.105	418374	keystroke_c	c	n/a
209.2615	0.105	418523	keystroke_o	o	n/a
209.3675	0.0895	418735	keystroke_n	n	n/a
209.5775	0.0455	419155	keystroke_t	t	n/a
209.6675	0.045	419335	keystroke_e	e	n/a
209.7135	0.0745	419427	keystroke_n	n	n/a
210.253	0.045	420506	keystroke_t	t	n/a
210.567	0.075	421134	keystroke_Key.enter	Key.enter	n/a
210.651	4.8225	421302	prompt	n/a	star sheer trance bacon\n
211.377	0.135	422754	keystroke_s	s	n/a
211.497	0.06	422994	keystroke_t	t	n/a
211.632	0.091	423264	keystroke_a	a	n/a
211.723	0.0595	423446	keystroke_r	r	n/a
211.9025	0.059	423805	keystroke_Key.space	Key.space	n/a
212.2025	0.12	424405	keystroke_s	s	n/a
212.727	0.0455	425454	keystroke_h	h	n/a
212.803	0.06	425606	keystroke_e	e	n/a
212.937	0.135	425874	keystroke_e	e	n/a
213.087	0.045	426174	keystroke_r	r	n/a
213.252	0.075	426504	keystroke_Key.space	Key.space	n/a
213.402	0.09	426804	keystroke_t	t	n/a
213.537	0.12	427074	keystroke_r	r	n/a
213.627	0.09	427254	keystroke_a	a	n/a
213.732	0.046	427464	keystroke_n	n	n/a
213.8815	0.1065	427763	keystroke_c	c	n/a
214.0325	0.06	428065	keystroke_e	e	n/a
214.197	0.075	428394	keystroke_Key.space	Key.space	n/a
214.317	0.0755	428634	keystroke_b	b	n/a
214.438	0.149	428876	keystroke_a	a	n/a
214.6765	0.06	429353	keystroke_c	c	n/a
214.8125	0.059	429625	keystroke_o	o	n/a
214.9775	0.06	429955	keystroke_n	n	n/a
215.4265	0.045	430853	keystroke_Key.enter	Key.enter	n/a
215.478	6.4605	430956	prompt	n/a	accompanying bare radio reviews\n
216.1765	0.075	432353	keystroke_a	a	n/a
216.3715	0.09	432743	keystroke_c	c	n/a
216.5225	0.105	433045	keystroke_c	c	n/a
216.6425	0.1495	433285	keystroke_o	o	n/a
216.747	0.105	433494	keystroke_m	m	n/a
216.838	0.104	433676	keystroke_p	p	n/a
217.092	0.045	434184	keystroke_a	a	n/a
217.2725	0.044	434545	keystroke_n	n	n/a
217.4375	0.06	434875	keystroke_y	y	n/a
217.5575	0.0895	435115	keystroke_i	i	n/a
217.662	0.0455	435324	keystroke_n	n	n/a
217.8115	0.045	435623	keystroke_g	g	n/a
217.932	0.0145	435864	keystroke_Key.space	Key.space	n/a
218.637	0.075	437274	keystroke_b	b	n/a
218.728	0.149	437456	keystroke_a	a	n/a
218.907	0.075	437814	keystroke_r	r	n/a
218.9975	0.0595	437995	keystroke_e	e	n/a
219.252	0.075	438504	keystroke_Key.space	Key.space	n/a
219.402	0.0905	438804	keystroke_r	r	n/a
219.5675	0.12	439135	keystroke_a	a	n/a
219.6725	0.0895	439345	keystroke_d	d	n/a
219.777	0.12	439554	keystroke_i	i	n/a
219.882	0.09	439764	keystroke_o	o	n/a
220.017	0.045	440034	keystroke_Key.space	Key.space	n/a
220.227	0.06	440454	keystroke_r	r	n/a
220.257	0.0755	440514	keystroke_e	e	n/a
220.437	0.075	440874	keystroke_v	v	n/a
220.5415	0.091	441083	keystroke_i	i	n/a
220.6175	0.0895	441235	keystroke_e	e	n/a
220.7665	0.075	441533	keystroke_w	w	n/a
220.9175	0.075	441835	keystroke_s	s	n/a
221.0825	0.0435	442165	keystroke_Key.space	Key.space	n/a
221.667	0.075	443334	keystroke_Key.backspace	Key.backspace	n/a
221.877	0.059	443754	keystroke_Key.enter	Key.enter	n/a
221.943	5.1105	443886	prompt	n/a	mastercard packet cargo orange\n
222.6575	0.0595	445315	keystroke_m	m	n/a
222.821	0.136	445642	keystroke_a	a	n/a
222.912	0.165	445824	keystroke_s	s	n/a
223.002	0.1205	446004	keystroke_t	t	n/a
223.1525	0.1345	446305	keystroke_e	e	n/a
223.257	0.09	446514	keystroke_r	r	n/a
223.467	0.1055	446934	keystroke_c	c	n/a
223.587	0.12	447174	keystroke_a	a	n/a
223.737	0.045	447474	keystroke_r	r	n/a
223.872	0.075	447744	keystroke_d	d	n/a
224.022	0.075	448044	keystroke_Key.space	Key.space	n/a
224.112	0.075	448224	keystroke_p	p	n/a
224.2625	0.1045	448525	keystroke_a	a	n/a
224.3375	0.0745	448675	keystroke_c	c	n/a
224.4425	0.075	448885	keystroke_k	k	n/a
224.607	0.09	449214	keystroke_e	e	n/a
224.712	0.061	449424	keystroke_t	t	n/a
224.877	0.06	449754	keystroke_Key.space	Key.space	n/a
225.041	0.061	450082	keystroke_c	c	n/a
225.237	0.0905	450474	keystroke_a	a	n/a
225.3425	0.06	450685	keystroke_r	r	n/a
225.5525	0.06	451105	keystroke_g	g	n/a
225.6275	0.089	451255	keystroke_o	o	n/a
225.7915	0.0755	451583	keystroke_Key.space	Key.space	n/a
225.9425	0.134	451885	keystroke_o	o	n/a
226.0915	0.015	452183	keystroke_r	r	n/a
226.1665	0.105	452333	keystroke_a	a	n/a
226.4075	0.0745	452815	keystroke_n	n	n/a
226.617	0.0605	453234	keystroke_g	g	n/a
226.6925	0.075	453385	keystroke_e	e	n/a
226.992	0.06	453984	keystroke_Key.enter	Key.enter	n/a
227.062	7.7335	454124	prompt	n/a	relatives momentum replacing original\n
227.9075	0.09	455815	keystroke_r	r	n/a
227.9675	0.0745	455935	keystroke_e	e	n/a
228.117	0.09	456234	keystroke_l	l	n/a
228.252	0.09	456504	keystroke_a	a	n/a
228.343	0.075	456686	keystroke_t	t	n/a
228.507	0.075	457014	keystroke_i	i	n/a
228.567	0.091	457134	keystroke_v	v	n/a
228.643	0.059	457286	keystroke_e	e	n/a
228.912	0.0905	457824	keystroke_s	s	n/a
229.0765	0.09	458153	keystroke_Key.space	Key.space	n/a
229.302	0.0595	458604	keystroke_m	m	n/a
229.857	0.0905	459714	keystroke_o	o	n/a
230.052	0.0445	460104	keystroke_m	m	n/a
230.2165	0.06	460433	keystroke_e	e	n/a
230.323	0.0595	460646	keystroke_n	n	n/a
230.4275	0.059	460855	keystroke_t	t	n/a
231.0125	0.045	462025	keystroke_u	u	n/a
231.207	0.09	462414	keystroke_m	m	n/a
231.3115	0.0755	462623	keystroke_Key.space	Key.space	n/a
231.4775	0.074	462955	keystroke_r	r	n/a
231.5365	0.061	463073	keystroke_e	e	n/a
231.6565	0.0755	463313	keystroke_p	p	n/a
231.852	0.105	463704	keystroke_l	l	n/a
231.9725	0.0745	463945	keystroke_a	a	n/a
232.0175	0.135	464035	keystroke_c	c	n/a
232.137	0.0745	464274	keystroke_e	e	n/a
232.616	0.0605	465232	keystroke_Key.backspace	Key.backspace	n/a
232.8875	0.074	465775	keystroke_i	i	n/a
232.9165	0.0605	465833	keystroke_n	n	n/a
233.0075	0.074	466015	keystroke_g	g	n/a
233.1115	0.0605	466223	keystroke_Key.space	Key.space	n/a
233.1865	0.09	466373	keystroke_o	o	n/a
233.3375	0.06	466675	keystroke_r	r	n/a
233.4265	0.076	466853	keystroke_i	i	n/a
233.5165	0.0755	467033	keystroke_g	g	n/a
233.5615	0.1055	467123	keystroke_i	i	n/a
233.967	0.06	467934	keystroke_n	n	n/a
234.102	0.076	468204	keystroke_a	a	n/a
234.237	0.09	468474	keystroke_l	l	n/a
234.7025	0.089	469405	keystroke_Key.enter	Key.enter	n/a
234.8075	5.5355	469615	prompt	n/a	torture staff leaders massive\n
235.4375	0.045	470875	keystroke_t	t	n/a
235.5425	0.089	471085	keystroke_o	o	n/a
235.6465	0.0755	471293	keystroke_r	r	n/a
235.8565	0.06	471713	keystroke_t	t	n/a
235.9765	0.045	471953	keystroke_u	u	n/a
236.067	0.0595	472134	keystroke_t	t	n/a
236.577	0.045	473154	keystroke_Key.backspace	Key.backspace	n/a
236.637	0.105	473274	keystroke_r	r	n/a
236.727	0.045	473454	keystroke_e	e	n/a
236.877	0.03	473754	keystroke_Key.space	Key.space	n/a
237.056	0.121	474112	keystroke_s	s	n/a
237.146	0.0605	474292	keystroke_t	t	n/a
237.2665	0.106	474533	keystroke_a	a	n/a
237.432	0.045	474864	keystroke_f	f	n/a
237.537	0.105	475074	keystroke_f	f	n/a
237.716	0.0905	475432	keystroke_Key.space	Key.space	n/a
237.8965	0.091	475793	keystroke_l	l	n/a
238.287	0.149	476574	keystroke_e	e	n/a
238.571	0.106	477142	keystroke_a	a	n/a
238.706	0.121	477412	keystroke_d	d	n/a
238.886	0.1215	477772	keystroke_e	e	n/a
238.9625	0.179	477925	keystroke_r	r	n/a
239.0815	0.1355	478163	keystroke_s	s	n/a
239.2315	0.0605	478463	keystroke_Key.space	Key.space	n/a
239.3965	0.075	478793	keystroke_m	m	n/a
239.517	0.0745	479034	keystroke_a	a	n/a
239.5775	0.075	479155	keystroke_s	s	n/a
239.7275	0.104	479455	keystroke_s	s	n/a
239.8465	0.06	479693	keystroke_i	i	n/a
239.9515	0.09	479903	keystroke_v	v	n/a
240.0115	0.075	480023	keystroke_e	e	n/a
240.2815	0.06	480563	keystroke_Key.enter	Key.enter	n/a
240.348	6.91	480696	prompt	n/a	european ranging hawk founded\n
240.972	0.105	481944	keystroke_e	e	n/a
241.151	0.076	482302	keystroke_u	u	n/a
241.332	0.06	482664	keystroke_r	r	n/a
241.406	0.135	482812	keystroke_o	o	n/a
241.496	0.1355	482992	keystroke_p	p	n/a
241.677	0.2095	483354	keystroke_e	e	n/a
241.9915	0.0605	483983	keystroke_n	n	n/a
242.081	0.076	484162	keystroke_Key.space	Key.space	n/a
242.501	0.06	485002	keystroke_Key.backspace	Key.backspace	n/a
242.621	0.075	485242	keystroke_Key.backspace	Key.backspace	n/a
242.682	0.105	485364	keystroke_a	a	n/a
242.847	0.0595	485694	keystroke_n	n	n/a
242.9215	0.03	485843	keystroke_Key.space	Key.space	n/a
243.162	0.0595	486324	keystroke_r	r	n/a
243.2665	0.091	486533	keystroke_a	a	n/a
243.4015	0.075	486803	keystroke_n	n	n/a
243.507	0.105	487014	keystroke_g	g	n/a
243.657	0.105	487314	keystroke_i	i	n/a
243.717	0.09	487434	keystroke_n	n	n/a
243.8665	0.06	487733	keystroke_g	g	n/a
243.9565	0.06	487913	keystroke_Key.space	Key.space	n/a
244.197	0.06	488394	keystroke_h	h	n/a
244.347	0.1045	488694	keystroke_a	a	n/a
244.7065	0.06	489413	keystroke_k	k	n/a
244.9315	0.06	489863	keystroke_Key.space	Key.space	n/a
245.1115	0.06	490223	keystroke_f	f	n/a
245.397	0.0595	490794	keystroke_Key.backspace	Key.backspace	n/a
245.5165	0.075	491033	keystroke_Key.backspace	Key.backspace	n/a
245.6065	0.09	491213	keystroke_Key.backspace	Key.backspace	n/a
245.6975	0.104	491395	keystroke_w	w	n/a
246.1015	0.0905	492203	keystroke_k	k	n/a
246.2965	0.06	492593	keystroke_Key.space	Key.space	n/a
246.4165	0.075	492833	keystroke_f	f	n/a
246.5065	0.105	493013	keystroke_o	o	n/a
246.566	0.061	493132	keystroke_u	u	n/a
246.716	0.076	493432	keystroke_n	n	n/a
246.8065	0.105	493613	keystroke_d	d	n/a
246.9115	0.12	493823	keystroke_e	e	n/a
246.9865	0.105	493973	keystroke_d	d	n/a
247.1965	0.06	494393	keystroke_Key.enter	Key.enter	n/a
247.2665	6.8015	494533	prompt	n/a	drop lindsay latitude hispanic\n
247.947	0.194	495894	keystroke_d	d	n/a
248.112	0.074	496224	keystroke_r	r	n/a
248.247	0.119	496494	keystroke_o	o	n/a
248.3215	0.105	496643	keystroke_p	p	n/a
248.441	0.09	496882	keystroke_Key.space	Key.space	n/a
248.682	0.09	497364	keystroke_l	l	n/a
248.742	0.1355	497484	keystroke_i	i	n/a
248.982	0.015	497964	keystroke_n	n	n/a
249.147	0.06	498294	keystroke_d	d	n/a
249.461	0.135	498922	keystroke_s	s	n/a
249.522	0.135	499044	keystroke_a	a	n/a
249.777	0.0745	499554	keystroke_y	y	n/a
250.392	0.059	500784	keystroke_Key.space	Key.space	n/a
250.602	0.089	501204	keystroke_l	l	n/a
250.751	0.135	501502	keystroke_a	a	n/a
250.8265	0.0745	501653	keystroke_t	t	n/a
250.9615	0.0745	501923	keystroke_i	i	n/a
251.126	0.076	502252	keystroke_t	t	n/a
251.231	0.061	502462	keystroke_u	u	n/a
251.3065	0.0755	502613	keystroke_t	t	n/a
251.442	0.045	502884	keystroke_e	e	n/a
251.801	0.06	503602	keystroke_Key.backspace	Key.backspace	n/a
251.951	0.045	503902	keystroke_Key.backspace	Key.backspace	n/a
252.042	0.134	504084	keystroke_d	d	n/a
252.1315	0.0895	504263	keystroke_e	e	n/a
252.267	0.059	504534	keystroke_Key.space	Key.space	n/a
252.506	0.075	505012	keystroke_h	h	n/a
252.566	0.0915	505132	keystroke_i	i	n/a
252.6865	0.1045	505373	keystroke_s	s	n/a
252.852	0.074	505704	keystroke_p	p	n/a
252.971	0.091	505942	keystroke_a	a	n/a
253.151	0.075	506302	keystroke_n	n	n/a
253.211	0.0915	506422	keystroke_i	i	n/a
253.332	0.074	506664	keystroke_c	c	n/a
254.0215	0.045	508043	keystroke_Key.enter	Key.enter	n/a
254.073	7.631	508146	prompt	n/a	sydney appliances frontier negotiation\n
254.712	0.12	509424	keystroke_s	s	n/a
254.8925	0.0595	509785	keystroke_y	y	n/a
255.057	0.075	510114	keystroke_d	d	n/a
255.4165	0.075	510833	keystroke_n	n	n/a
255.7615	0.075	511523	keystroke_e	e	n/a
255.8965	0.06	511793	keystroke_y	y	n/a
256.0015	0.09	512003	keystroke_Key.space	Key.space	n/a
256.1815	0.12	512363	keystroke_a	a	n/a
256.3165	0.1055	512633	keystroke_p	p	n/a
256.4365	0.12	512873	keystroke_p	p	n/a
256.9775	0.135	513955	keystroke_l	l	n/a
257.1275	0.074	514255	keystroke_i	i	n/a
257.3065	0.105	514613	keystroke_a	a	n/a
257.457	0.0595	514914	keystroke_n	n	n/a
257.5775	0.089	515155	keystroke_c	c	n/a
257.6365	0.075	515273	keystroke_e	e	n/a
257.8165	0.1195	515633	keystroke_s	s	n/a
257.9215	0.0595	515843	keystroke_Key.space	Key.space	n/a
258.0715	0.0755	516143	keystroke_f	f	n/a
258.222	0.075	516444	keystroke_r	r	n/a
258.312	0.105	516624	keystroke_o	o	n/a
258.372	0.0895	516744	keystroke_n	n	n/a
258.462	0.059	516924	keystroke_t	t	n/a
258.912	0.0905	517824	keystroke_i	i	n/a
259.062	0.0895	518124	keystroke_e	e	n/a
259.1065	0.105	518213	keystroke_r	r	n/a
259.2415	0.06	518483	keystroke_Key.space	Key.space	n/a
259.4515	0.076	518903	keystroke_n	n	n/a
259.5425	0.149	519085	keystroke_e	e	n/a
259.6765	0.09	519353	keystroke_g	g	n/a
259.7965	0.075	519593	keystroke_o	o	n/a
259.9615	0.0605	519923	keystroke_t	t	n/a
260.247	0.074	520494	keystroke_a	a	n/a
260.6065	0.0455	521213	keystroke_Key.backspace	Key.backspace	n/a
260.9515	0.0455	521903	keystroke_i	i	n/a
261.0565	0.105	522113	keystroke_a	a	n/a
261.1015	0.075	522203	keystroke_t	t	n/a
261.207	0.1195	522414	keystroke_i	i	n/a
261.2215	0.0905	522443	keystroke_o	o	n/a
261.2665	0.075	522533	keystroke_n	n	n/a
261.6415	0.059	523283	keystroke_Key.enter	Key.enter	n/a
261.7085	6.4445	523417	prompt	n/a	marketplace range medicaid diabetes\n
262.332	0.075	524664	keystroke_m	m	n/a
262.482	0.105	524964	keystroke_a	a	n/a
262.5265	0.0605	525053	keystroke_r	r	n/a
262.647	0.074	525294	keystroke_k	k	n/a
262.7975	0.0595	525595	keystroke_e	e	n/a
262.917	0.0745	525834	keystroke_p	p	n/a
263.292	0.044	526584	keystroke_Key.backspace	Key.backspace	n/a
263.3825	0.0595	526765	keystroke_t	t	n/a
263.546	0.061	527092	keystroke_p	p	n/a
263.712	0.1495	527424	keystroke_l	l	n/a
263.8465	0.09	527693	keystroke_a	a	n/a
263.8915	0.135	527783	keystroke_c	c	n/a
264.012	0.0595	528024	keystroke_e	e	n/a
264.1165	0.075	528233	keystroke_Key.space	Key.space	n/a
264.2665	0.045	528533	keystroke_r	r	n/a
264.3565	0.076	528713	keystroke_a	a	n/a
264.4465	0.06	528893	keystroke_n	n	n/a
264.5815	0.075	529163	keystroke_g	g	n/a
264.6265	0.075	529253	keystroke_e	e	n/a
264.746	0.0605	529492	keystroke_Key.space	Key.space	n/a
264.9115	0.0745	529823	keystroke_m	m	n/a
265.032	0.12	530064	keystroke_e	e	n/a
265.121	0.135	530242	keystroke_d	d	n/a
265.2265	0.0595	530453	keystroke_i	i	n/a
265.422	0.09	530844	keystroke_c	c	n/a
265.5415	0.0905	531083	keystroke_a	a	n/a
265.872	0.0895	531744	keystroke_i	i	n/a
266.112	0.0445	532224	keystroke_d	d	n/a
266.216	0.06	532432	keystroke_Key.space	Key.space	n/a
266.396	0.06	532792	keystroke_d	d	n/a
266.471	0.0755	532942	keystroke_i	i	n/a
266.5915	0.09	533183	keystroke_a	a	n/a
266.7115	0.09	533423	keystroke_g	g	n/a
267.0715	0.045	534143	keystroke_Key.backspace	Key.backspace	n/a
267.1315	0.09	534263	keystroke_b	b	n/a
267.1915	0.105	534383	keystroke_e	e	n/a
267.3565	0.06	534713	keystroke_t	t	n/a
267.507	0.0745	535014	keystroke_e	e	n/a
267.747	0.075	535494	keystroke_s	s	n/a
268.106	0.045	536212	keystroke_Key.enter	Key.enter	n/a
268.1595	8.1685	536319	prompt	n/a	home collapse collapse administrative\n
268.9315	0.075	537863	keystroke_h	h	n/a
268.9765	0.0905	537953	keystroke_o	o	n/a
269.127	0.075	538254	keystroke_m	m	n/a
269.247	0.075	538494	keystroke_e	e	n/a
269.366	0.0755	538732	keystroke_Key.space	Key.space	n/a
269.5315	0.0905	539063	keystroke_c	c	n/a
269.6665	0.06	539333	keystroke_o	o	n/a
269.8465	0.06	539693	keystroke_l	l	n/a
269.9365	0.12	539873	keystroke_l	l	n/a
270.0715	0.105	540143	keystroke_a	a	n/a
270.6115	0.03	541223	keystroke_p	p	n/a
270.8365	0.105	541673	keystroke_s	s	n/a
270.9715	0.075	541943	keystroke_e	e	n/a
271.1365	0.075	542273	keystroke_Key.space	Key.space	n/a
271.8265	0.075	543653	keystroke_c	c	n/a
272.1715	0.06	544343	keystroke_o	o	n/a
272.3665	0.06	544733	keystroke_l	l	n/a
272.531	0.0755	545062	keystroke_l	l	n/a
272.816	0.046	545632	keystroke_p	p	n/a
273.191	0.045	546382	keystroke_Key.backspace	Key.backspace	n/a
273.296	0.0755	546592	keystroke_a	a	n/a
273.386	0.06	546772	keystroke_p	p	n/a
273.537	0.0745	547074	keystroke_s	s	n/a
273.701	0.06	547402	keystroke_e	e	n/a
273.8065	0.06	547613	keystroke_Key.space	Key.space	n/a
274.002	0.1045	548004	keystroke_a	a	n/a
274.1665	0.0905	548333	keystroke_d	d	n/a
274.3015	0.06	548603	keystroke_m	m	n/a
274.392	0.074	548784	keystroke_i	i	n/a
274.482	0.074	548964	keystroke_n	n	n/a
274.526	0.1055	549052	keystroke_i	i	n/a
274.6165	0.1195	549233	keystroke_s	s	n/a
274.706	0.06	549412	keystroke_t	t	n/a
274.8415	0.105	549683	keystroke_r	r	n/a
274.9315	0.12	549863	keystroke_a	a	n/a
275.0215	0.06	550043	keystroke_t	t	n/a
275.0965	0.09	550193	keystroke_i	i	n/a
275.127	0.075	550254	keystroke_o	o	n/a
275.2025	0.014	550405	keystroke_n	n	n/a
275.5455	0.045	551091	keystroke_Key.backspace	Key.backspace	n/a
275.651	0.075	551302	keystroke_Key.backspace	Key.backspace	n/a
275.847	0.059	551694	keystroke_v	v	n/a
275.8615	0.0595	551723	keystroke_e	e	n/a
276.2665	0.0595	552533	keystroke_Key.enter	Key.enter	n/a
276.3325	8.156	552665	prompt	n/a	psychological impossible wrapping aircraft\n
277.1065	0.1045	554213	keystroke_p	p	n/a
277.287	0.1345	554574	keystroke_s	s	n/a
277.3915	0.045	554783	keystroke_y	y	n/a
277.4965	0.09	554993	keystroke_c	c	n/a
277.6765	0.045	555353	keystroke_h	h	n/a
277.7515	0.09	555503	keystroke_o	o	n/a
277.9615	0.0755	555923	keystroke_l	l	n/a
278.1265	0.105	556253	keystroke_o	o	n/a
278.3665	0.0455	556733	keystroke_g	g	n/a
278.471	0.045	556942	keystroke_i	i	n/a
278.6665	0.15	557333	keystroke_c	c	n/a
278.921	0.105	557842	keystroke_a	a	n/a
279.0855	0.0765	558171	keystroke_l	l	n/a
279.206	0.075	558412	keystroke_Key.space	Key.space	n/a
279.416	0.0755	558832	keystroke_i	i	n/a
279.521	0.12	559042	keystroke_m	m	n/a
279.656	0.091	559312	keystroke_p	p	n/a
279.732	0.104	559464	keystroke_o	o	n/a
279.9115	0.075	559823	keystroke_s	s	n/a
280.0615	0.09	560123	keystroke_s	s	n/a
280.1665	0.0445	560333	keystroke_i	i	n/a
280.2715	0.0745	560543	keystroke_b	b	n/a
280.361	0.0755	560722	keystroke_l	l	n/a
280.466	0.075	560932	keystroke_e	e	n/a
280.586	0.0755	561172	keystroke_Key.space	Key.space	n/a
280.842	0.1345	561684	keystroke_w	w	n/a
280.9915	0.045	561983	keystroke_r	r	n/a
281.1415	0.104	562283	keystroke_a	a	n/a
281.2765	0.045	562553	keystroke_p	p	n/a
281.562	0.1195	563124	keystroke_p	p	n/a
281.831	0.075	563662	keystroke_i	i	n/a
281.861	0.09	563722	keystroke_n	n	n/a
281.981	0.061	563962	keystroke_g	g	n/a
282.101	0.075	564202	keystroke_Key.space	Key.space	n/a
282.281	0.1055	564562	keystroke_a	a	n/a
282.431	0.075	564862	keystroke_i	i	n/a
282.641	0.0305	565282	keystroke_r	r	n/a
282.7915	0.12	565583	keystroke_c	c	n/a
283.0615	0.0145	566123	keystroke_Key.backspace	Key.backspace	n/a
283.287	0.089	566574	keystroke_c	c	n/a
283.511	0.06	567022	keystroke_r	r	n/a
283.661	0.105	567322	keystroke_a	a	n/a
283.751	0.06	567502	keystroke_f	f	n/a
283.931	0.0455	567862	keystroke_t	t	n/a
284.411	0.075	568822	keystroke_Key.enter	Key.enter	n/a
284.4925	6.805	568985	prompt	n/a	compiled gender networks comprehensive\n
285.1015	0.105	570203	keystroke_c	c	n/a
285.1615	0.18	570323	keystroke_o	o	n/a
285.266	0.135	570532	keystroke_m	m	n/a
285.357	0.119	570714	keystroke_p	p	n/a
285.5065	0.1345	571013	keystroke_i	i	n/a
285.6565	0.1045	571313	keystroke_l	l	n/a
285.791	0.135	571582	keystroke_e	e	n/a
285.8815	0.1045	571763	keystroke_d	d	n/a
286.031	0.06	572062	keystroke_Key.space	Key.space	n/a
286.2865	0.075	572573	keystroke_g	g	n/a
286.3615	0.0605	572723	keystroke_e	e	n/a
286.4815	0.075	572963	keystroke_n	n	n/a
286.7215	0.0895	573443	keystroke_d	d	n/a
286.871	0.121	573742	keystroke_e	e	n/a
286.9765	0.0595	573953	keystroke_r	r	n/a
287.471	0.06	574942	keystroke_n	n	n/a
287.831	0.045	575662	keystroke_Key.backspace	Key.backspace	n/a
287.921	0.0905	575842	keystroke_Key.space	Key.space	n/a
288.1765	0.015	576353	keystroke_n	n	n/a
288.2065	0.1055	576413	keystroke_e	e	n/a
288.3125	0.059	576625	keystroke_t	t	n/a
288.417	0.1645	576834	keystroke_w	w	n/a
288.5665	0.075	577133	keystroke_o	o	n/a
288.731	0.045	577462	keystroke_r	r	n/a
288.806	0.0755	577612	keystroke_k	k	n/a
288.911	0.1055	577822	keystroke_s	s	n/a
289.0315	0.075	578063	keystroke_Key.space	Key.space	n/a
289.2715	0.09	578543	keystroke_c	c	n/a
289.3625	0.134	578725	keystroke_o	o	n/a
289.4655	0.121	578931	keystroke_m	m	n/a
289.5265	0.105	579053	keystroke_p	p	n/a
289.7665	0.075	579533	keystroke_r	r	n/a
289.7815	0.09	579563	keystroke_e	e	n/a
290.1565	0.014	580313	keystroke_h	h	n/a
290.5165	0.06	581033	keystroke_e	e	n/a
290.6515	0.0605	581303	keystroke_n	n	n/a
290.802	0.0895	581604	keystroke_s	s	n/a
290.922	0.0445	581844	keystroke_i	i	n/a
290.9965	0.075	581993	keystroke_v	v	n/a
291.0555	0.0605	582111	keystroke_e	e	n/a
291.2205	0.075	582441	keystroke_Key.enter	Key.enter	n/a
291.3075	6.215	582615	prompt	n/a	continually pittsburgh birds taiwan\n
291.9715	0.12	583943	keystroke_c	c	n/a
292.0315	0.135	584063	keystroke_o	o	n/a
292.1515	0.045	584303	keystroke_n	n	n/a
292.2865	0.0445	584573	keystroke_t	t	n/a
292.406	0.105	584812	keystroke_i	i	n/a
292.496	0.045	584992	keystroke_n	n	n/a
292.661	0.0745	585322	keystroke_u	u	n/a
292.8265	0.075	585653	keystroke_a	a	n/a
292.9755	0.046	585951	keystroke_l	l	n/a
293.1115	0.134	586223	keystroke_l	l	n/a
293.2315	0.06	586463	keystroke_y	y	n/a
293.3055	0.091	586611	keystroke_Key.space	Key.space	n/a
293.4715	0.06	586943	keystroke_p	p	n/a
293.591	0.045	587182	keystroke_i	i	n/a
293.756	0.06	587512	keystroke_t	t	n/a
293.9365	0.0745	587873	keystroke_t	t	n/a
294.191	0.105	588382	keystroke_s	s	n/a
294.4015	0.06	588803	keystroke_b	b	n/a
294.5815	0.045	589163	keystroke_u	u	n/a
294.7175	0.043	589435	keystroke_r	r	n/a
294.867	0.074	589734	keystroke_g	g	n/a
295.001	0.045	590002	keystroke_h	h	n/a
295.136	0.075	590272	keystroke_Key.space	Key.space	n/a
295.361	0.06	590722	keystroke_b	b	n/a
295.466	0.045	590932	keystroke_i	i	n/a
295.571	0.0605	591142	keystroke_r	r	n/a
295.7355	0.0755	591471	keystroke_d	d	n/a
295.856	0.076	591712	keystroke_s	s	n/a
296.0655	0.03	592131	keystroke_Key.space	Key.space	n/a
296.247	0.059	592494	keystroke_t	t	n/a
296.457	0.0895	592914	keystroke_a	a	n/a
296.681	0.03	593362	keystroke_i	i	n/a
296.8155	0.1355	593631	keystroke_w	w	n/a
296.892	0.105	593784	keystroke_a	a	n/a
297.221	0.06	594442	keystroke_n	n	n/a
297.461	0.06	594922	keystroke_Key.enter	Key.enter	n/a
297.5335	8.584	595067	prompt	n/a	seconds provisions feelings sunglasses\n
298.1665	0.06	596333	keystroke_s	s	n/a
298.4355	0.015	596871	keystroke_e	e	n/a
298.4655	0.0905	596931	keystroke_c	c	n/a
298.481	0.0155	596962	keystroke_e	e	n/a
298.541	0.075	597082	keystroke_o	o	n/a
298.586	0.075	597172	keystroke_n	n	n/a
298.676	0.12	597352	keystroke_d	d	n/a
298.781	0.075	597562	keystroke_s	s	n/a
298.886	0.075	597772	keystroke_Key.space	Key.space	n/a
298.9765	0.1045	597953	keystroke_p	p	n/a
299.321	0.015	598642	keystroke_Key.backspace	Key.backspace	n/a
299.426	0.06	598852	keystroke_Key.backspace	Key.backspace	n/a
299.561	0.045	599122	keystroke_Key.backspace	Key.backspace	n/a
299.696	0.045	599392	keystroke_Key.backspace	Key.backspace	n/a
299.816	0.075	599632	keystroke_Key.backspace	Key.backspace	n/a
299.951	0.075	599902	keystroke_Key.backspace	Key.backspace	n/a
300.071	0.09	600142	keystroke_Key.backspace	Key.backspace	n/a
300.326	0.12	600652	keystroke_o	o	n/a
300.431	0.0755	600862	keystroke_n	n	n/a
300.5665	0.1045	601133	keystroke_d	d	n/a
300.6115	0.1345	601223	keystroke_s	s	n/a
300.7475	0.0735	601495	keystroke_Key.space	Key.space	n/a
300.881	0.03	601762	keystroke_p	p	n/a
301.061	0.045	602122	keystroke_r	r	n/a
301.121	0.0755	602242	keystroke_o	o	n/a
301.2715	0.0895	602543	keystroke_v	v	n/a
301.376	0.06	602752	keystroke_i	i	n/a
301.4965	0.09	602993	keystroke_s	s	n/a
301.631	0.1355	603262	keystroke_i	i	n/a
301.736	0.0905	603472	keystroke_o	o	n/a
301.7515	0.06	603503	keystroke_n	n	n/a
301.9165	0.1045	603833	keystroke_s	s	n/a
302.126	0.0755	604252	keystroke_Key.space	Key.space	n/a
302.546	0.015	605092	keystroke_f	f	n/a
302.6065	0.0755	605213	keystroke_f	f	n/a
302.697	0.06	605394	keystroke_e	e	n/a
302.846	0.06	605692	keystroke_e	e	n/a
303.221	0.045	606442	keystroke_Key.backspace	Key.backspace	n/a
303.3565	0.0595	606713	keystroke_Key.backspace	Key.backspace	n/a
303.461	0.075	606922	keystroke_Key.backspace	Key.backspace	n/a
303.611	0.045	607222	keystroke_e	e	n/a
303.746	0.075	607492	keystroke_e	e	n/a
303.836	0.105	607672	keystroke_l	l	n/a
303.896	0.105	607792	keystroke_i	i	n/a
303.956	0.075	607912	keystroke_n	n	n/a
304.046	0.09	608092	keystroke_g	g	n/a
304.106	0.091	608212	keystroke_s	s	n/a
304.181	0.0755	608362	keystroke_Key.space	Key.space	n/a
304.286	0.105	608572	keystroke_s	s	n/a
304.421	0.0605	608842	keystroke_u	u	n/a
304.6315	0.06	609263	keystroke_n	n	n/a
305.0955	0.0605	610191	keystroke_g	g	n/a
305.246	0.12	610492	keystroke_l	l	n/a
305.381	0.075	610762	keystroke_a	a	n/a
305.426	0.09	610852	keystroke_s	s	n/a
305.576	0.105	611152	keystroke_s	s	n/a
305.741	0.075	611482	keystroke_e	e	n/a
305.8905	0.09	611781	keystroke_s	s	n/a
306.041	0.0745	612082	keystroke_Key.enter	Key.enter	n/a
306.122	7.4805	612244	prompt	n/a	stands owners motorcycle investor\n
306.8515	0.135	613703	keystroke_s	s	n/a
307.002	0.0595	614004	keystroke_t	t	n/a
307.091	0.0905	614182	keystroke_a	a	n/a
307.2705	0.061	614541	keystroke_n	n	n/a
307.3615	0.134	614723	keystroke_d	d	n/a
307.436	0.12	614872	keystroke_s	s	n/a
307.6155	0.06	615231	keystroke_Key.space	Key.space	n/a
307.7815	0.059	615563	keystroke_o	o	n/a
308.0665	0.0755	616133	keystroke_w	w	n/a
308.232	0.059	616464	keystroke_n	n	n/a
308.486	0.09	616972	keystroke_e	e	n/a
308.561	0.15	617122	keystroke_r	r	n/a
308.6965	0.209	617393	keystroke_s	s	n/a
308.9355	0.075	617871	keystroke_Key.space	Key.space	n/a
309.146	0.075	618292	keystroke_m	m	n/a
309.296	0.0895	618592	keystroke_o	o	n/a
309.446	0.0605	618892	keystroke_r	r	n/a
309.5965	0.0595	619193	keystroke_t	t	n/a
309.6415	0.09	619283	keystroke_o	o	n/a
310.136	0.045	620272	keystroke_Key.backspace	Key.backspace	n/a
310.241	0.09	620482	keystroke_Key.backspace	Key.backspace	n/a
310.467	0.044	620934	keystroke_Key.backspace	Key.backspace	n/a
310.6615	0.06	621323	keystroke_t	t	n/a
310.7065	0.06	621413	keystroke_o	o	n/a
310.8865	0.044	621773	keystroke_r	r	n/a
311.1265	0.1045	622253	keystroke_c	c	n/a
311.381	0.045	622762	keystroke_y	y	n/a
311.531	0.0745	623062	keystroke_c	c	n/a
311.6655	0.061	623331	keystroke_l	l	n/a
311.831	0.0455	623662	keystroke_e	e	n/a
311.906	0.0755	623812	keystroke_Key.space	Key.space	n/a
312.0715	0.1045	624143	keystroke_i	i	n/a
312.1615	0.0595	624323	keystroke_n	n	n/a
312.2365	0.0745	624473	keystroke_v	v	n/a
312.296	0.0605	624592	keystroke_e	e	n/a
312.476	0.195	624952	keystroke_s	s	n/a
312.6555	0.076	625311	keystroke_t	t	n/a
312.7765	0.0595	625553	keystroke_o	o	n/a
312.851	0.075	625702	keystroke_r	r	n/a
313.526	0.075	627052	keystroke_Key.enter	Key.enter	n/a
313.6085	8.094	627217	prompt	n/a	science knowledge swap consultants\n
314.2615	0.1195	628523	keystroke_s	s	n/a
314.426	0.0455	628852	keystroke_c	c	n/a
314.531	0.0605	629062	keystroke_i	i	n/a
314.6665	0.0745	629333	keystroke_e	e	n/a
314.8155	0.045	629631	keystroke_n	n	n/a
314.876	0.1355	629752	keystroke_c	c	n/a
314.997	0.0595	629994	keystroke_e	e	n/a
315.116	0.0745	630232	keystroke_Key.space	Key.space	n/a
315.3115	0.1345	630623	keystroke_k	k	n/a
315.431	0.105	630862	keystroke_n	n	n/a
315.506	0.105	631012	keystroke_o	o	n/a
315.612	0.089	631224	keystroke_w	w	n/a
315.746	0.105	631492	keystroke_l	l	n/a
315.8975	0.1185	631795	keystroke_e	e	n/a
316.0915	0.0595	632183	keystroke_g	g	n/a
316.1815	0.0745	632363	keystroke_e	e	n/a
316.466	0.045	632932	keystroke_Key.backspace	Key.backspace	n/a
316.5855	0.075	633171	keystroke_Key.backspace	Key.backspace	n/a
316.6615	0.18	633323	keystroke_d	d	n/a
316.7215	0.12	633443	keystroke_e	e	n/a
316.8425	0.044	633685	keystroke_g	g	n/a
317.4105	0.0455	634821	keystroke_Key.backspace	Key.backspace	n/a
317.5315	0.075	635063	keystroke_Key.backspace	Key.backspace	n/a
317.6665	0.075	635333	keystroke_g	g	n/a
317.7425	0.0585	635485	keystroke_e	e	n/a
318.161	0.06	636322	keystroke_Key.space	Key.space	n/a
318.476	0.089	636952	keystroke_s	s	n/a
318.671	0.255	637342	keystroke_w	w	n/a
318.851	0.09	637702	keystroke_a	a	n/a
319.0155	0.076	638031	keystroke_Key.space	Key.space	n/a
319.721	0.03	639442	keystroke_Key.backspace	Key.backspace	n/a
320.037	0.059	640074	keystroke_p	p	n/a
320.126	0.075	640252	keystroke_Key.space	Key.space	n/a
320.246	0.061	640492	keystroke_c	c	n/a
320.336	0.105	640672	keystroke_o	o	n/a
320.4265	0.0745	640853	keystroke_n	n	n/a
320.546	0.09	641092	keystroke_s	s	n/a
320.6965	0.044	641393	keystroke_u	u	n/a
320.8755	0.0755	641751	keystroke_l	l	n/a
321.011	0.0605	642022	keystroke_t	t	n/a
321.1005	0.06	642201	keystroke_a	a	n/a
321.2505	0.0605	642501	keystroke_n	n	n/a
321.371	0.0445	642742	keystroke_t	t	n/a
321.461	0.0745	642922	keystroke_s	s	n/a
321.6405	0.0605	643281	keystroke_Key.enter	Key.enter	n/a
321.7115	10.6855	643423	prompt	n/a	instances summaries eyes twisted\n
325.139	0.042	650278	keystroke_i	i	n/a
325.139	0.057	650278	keystroke_n	n	n/a
325.226	0.1355	650452	keystroke_s	s	n/a
325.3305	0.0765	650661	keystroke_t	t	n/a
325.4655	0.075	650931	keystroke_a	a	n/a
325.616	0.0605	651232	keystroke_n	n	n/a
325.751	0.121	651502	keystroke_c	c	n/a
325.8405	0.0765	651681	keystroke_e	e	n/a
326.1405	0.1055	652281	keystroke_s	s	n/a
326.411	0.06	652822	keystroke_Key.space	Key.space	n/a
326.576	0.09	653152	keystroke_s	s	n/a
326.741	0.06	653482	keystroke_u	u	n/a
326.981	0.06	653962	keystroke_m	m	n/a
327.1165	0.0745	654233	keystroke_m	m	n/a
327.251	0.075	654502	keystroke_a	a	n/a
327.311	0.06	654622	keystroke_r	r	n/a
327.431	0.061	654862	keystroke_i	i	n/a
327.551	0.0905	655102	keystroke_e	e	n/a
327.7465	0.075	655493	keystroke_s	s	n/a
327.9705	0.075	655941	keystroke_Key.space	Key.space	n/a
328.4065	0.075	656813	keystroke_e	e	n/a
328.586	0.0145	657172	keystroke_y	y	n/a
328.6315	0.0745	657263	keystroke_e	e	n/a
328.8405	0.151	657681	keystroke_s	s	n/a
329.096	0.06	658192	keystroke_Key.space	Key.space	n/a
329.276	0.045	658552	keystroke_t	t	n/a
329.426	0.105	658852	keystroke_w	w	n/a
329.561	0.06	659122	keystroke_i	i	n/a
329.756	0.105	659512	keystroke_s	s	n/a
329.861	0.09	659722	keystroke_t	t	n/a
329.98	0.196	659960	keystroke_e	e	n/a
330.161	0.0895	660322	keystroke_r	r	n/a
330.266	0.015	660532	keystroke_r	r	n/a
330.341	0.1345	660682	keystroke_d	d	n/a
330.595	0.03	661190	keystroke_Key.backspace	Key.backspace	n/a
330.7155	0.06	661431	keystroke_Key.backspace	Key.backspace	n/a
330.836	0.0745	661672	keystroke_d	d	n/a
331.1805	0.045	662361	keystroke_Key.backspace	Key.backspace	n/a
331.3755	0.06	662751	keystroke_d	d	n/a
331.6005	0.03	663201	keystroke_Key.backspace	Key.backspace	n/a
331.7205	0.06	663441	keystroke_Key.backspace	Key.backspace	n/a
331.9155	0.06	663831	keystroke_d	d	n/a
332.32	0.075	664640	keystroke_Key.enter	Key.enter	n/a
332.4	5.1275	664800	prompt	n/a	singh falls importantly prompt\n
333.0565	0.119	666113	keystroke_s	s	n/a
333.2655	0.045	666531	keystroke_i	i	n/a
333.371	0.0895	666742	keystroke_n	n	n/a
333.4755	0.075	666951	keystroke_g	g	n/a
333.701	0.06	667402	keystroke_h	h	n/a
333.8805	0.06	667761	keystroke_Key.space	Key.space	n/a
334.121	0.0755	668242	keystroke_f	f	n/a
334.2255	0.046	668451	keystroke_a	a	n/a
334.361	0.075	668722	keystroke_l	l	n/a
334.511	0.0905	669022	keystroke_l	l	n/a
334.586	0.1045	669172	keystroke_s	s	n/a
334.7355	0.0905	669471	keystroke_Key.space	Key.space	n/a
334.9155	0.12	669831	keystroke_i	i	n/a
334.976	0.15	669952	keystroke_m	m	n/a
335.0805	0.12	670161	keystroke_p	p	n/a
335.216	0.1195	670432	keystroke_o	o	n/a
335.397	0.0735	670794	keystroke_r	r	n/a
335.5615	0.075	671123	keystroke_t	t	n/a
335.7115	0.044	671423	keystroke_a	a	n/a
335.816	0.075	671632	keystroke_n	n	n/a
335.951	0.061	671902	keystroke_t	t	n/a
336.116	0.0895	672232	keystroke_l	l	n/a
336.2665	0.0745	672533	keystroke_y	y	n/a
336.356	0.075	672712	keystroke_Key.space	Key.space	n/a
336.5055	0.09	673011	keystroke_p	p	n/a
336.686	0.045	673372	keystroke_r	r	n/a
336.746	0.09	673492	keystroke_o	o	n/a
336.821	0.075	673642	keystroke_m	m	n/a
336.911	0.075	673822	keystroke_p	p	n/a
337.046	0.045	674092	keystroke_t	t	n/a
337.451	0.074	674902	keystroke_Key.enter	Key.enter	n/a
337.532	6.34	675064	prompt	n/a	bedford asin homeless presentations\n
338.336	0.12	676672	keystroke_b	b	n/a
338.516	0.09	677032	keystroke_e	e	n/a
338.816	0.1505	677632	keystroke_d	d	n/a
339.1315	0.0735	678263	keystroke_f	f	n/a
339.281	0.075	678562	keystroke_o	o	n/a
339.431	0.06	678862	keystroke_r	r	n/a
339.6265	0.0595	679253	keystroke_d	d	n/a
339.746	0.075	679492	keystroke_Key.space	Key.space	n/a
339.8955	0.091	679791	keystroke_a	a	n/a
339.9565	0.104	679913	keystroke_s	s	n/a
340.1955	0.076	680391	keystroke_i	i	n/a
340.3165	0.089	680633	keystroke_n	n	n/a
340.4205	0.06	680841	keystroke_Key.space	Key.space	n/a
340.676	0.059	681352	keystroke_h	h	n/a
340.751	0.06	681502	keystroke_o	o	n/a
340.856	0.059	681712	keystroke_m	m	n/a
341.0215	0.0735	682043	keystroke_e	e	n/a
341.5915	0.1345	683183	keystroke_l	l	n/a
341.756	0.06	683512	keystroke_e	e	n/a
341.936	0.03	683872	keystroke_s	s	n/a
342.056	0.0905	684112	keystroke_s	s	n/a
342.176	0.075	684352	keystroke_Key.space	Key.space	n/a
342.2515	0.09	684503	keystroke_p	p	n/a
342.401	0.0755	684802	keystroke_r	r	n/a
342.4615	0.06	684923	keystroke_e	e	n/a
342.5815	0.089	685163	keystroke_s	s	n/a
342.7765	0.0745	685553	keystroke_e	e	n/a
342.9565	0.06	685913	keystroke_n	n	n/a
343.0765	0.059	686153	keystroke_t	t	n/a
343.1815	0.089	686363	keystroke_a	a	n/a
343.2265	0.089	686453	keystroke_t	t	n/a
343.3165	0.104	686633	keystroke_i	i	n/a
343.3305	0.075	686661	keystroke_o	o	n/a
343.3915	0.075	686783	keystroke_n	n	n/a
343.511	0.09	687022	keystroke_s	s	n/a
343.811	0.06	687622	keystroke_Key.enter	Key.enter	n/a
343.8775	8.8295	687755	prompt	n/a	mainstream remind functionality mess\n
344.5465	0.0595	689093	keystroke_m	m	n/a
344.801	0.0605	689602	keystroke_a	a	n/a
345.161	0.0905	690322	keystroke_i	i	n/a
345.191	0.075	690382	keystroke_n	n	n/a
345.371	0.12	690742	keystroke_s	s	n/a
345.4315	0.06	690863	keystroke_t	t	n/a
345.5815	0.074	691163	keystroke_r	r	n/a
345.8355	0.0455	691671	keystroke_e	e	n/a
345.8965	0.0435	691793	keystroke_a	a	n/a
346.06	0.061	692120	keystroke_m	m	n/a
346.3	0.06	692600	keystroke_Key.space	Key.space	n/a
346.9305	0.12	693861	keystroke_r	r	n/a
347.0355	0.03	694071	keystroke_e	e	n/a
347.1405	0.135	694281	keystroke_m	m	n/a
347.3205	0.1205	694641	keystroke_i	i	n/a
347.4105	0.075	694821	keystroke_n	n	n/a
347.576	0.0595	695152	keystroke_d	d	n/a
347.6805	0.0755	695361	keystroke_Key.space	Key.space	n/a
347.8755	0.0455	695751	keystroke_f	f	n/a
347.9655	0.06	695931	keystroke_u	u	n/a
348.1155	0.0755	696231	keystroke_n	n	n/a
348.2205	0.105	696441	keystroke_c	c	n/a
348.371	0.0895	696742	keystroke_a	a	n/a
348.4455	0.0755	696891	keystroke_t	t	n/a
348.521	0.105	697042	keystroke_i	i	n/a
348.551	0.075	697102	keystroke_o	o	n/a
348.596	0.06	697192	keystroke_n	n	n/a
349.1205	0.1345	698241	keystroke_Key.backspace	Key.backspace	n/a
349.316	0.0595	698632	keystroke_Key.backspace	Key.backspace	n/a
349.436	0.075	698872	keystroke_Key.backspace	Key.backspace	n/a
349.5705	0.06	699141	keystroke_Key.backspace	Key.backspace	n/a
349.7205	0.06	699441	keystroke_Key.backspace	Key.backspace	n/a
349.841	0.075	699682	keystroke_t	t	n/a
350.0055	0.1355	700011	keystroke_i	i	n/a
350.0205	0.1355	700041	keystroke_o	o	n/a
350.081	0.12	700162	keystroke_n	n	n/a
350.2765	0.104	700553	keystroke_a	a	n/a
350.3505	0.06	700701	keystroke_l	l	n/a
350.5155	0.06	701031	keystroke_i	i	n/a
350.681	0.045	701362	keystroke_t	t	n/a
350.741	0.0595	701482	keystroke_y	y	n/a
350.8455	0.075	701691	keystroke_Key.space	Key.space	n/a
352.166	0.06	704332	keystroke_m	m	n/a
352.2405	0.075	704481	keystroke_e	e	n/a
352.3905	0.075	704781	keystroke_s	s	n/a
352.5255	0.09	705051	keystroke_s	s	n/a
352.631	0.0745	705262	keystroke_Key.enter	Key.enter	n/a
352.7235	5.879	705447	prompt	n/a	smoking throw prepared pipes\n
353.3205	0.1055	706641	keystroke_s	s	n/a
353.4555	0.0755	706911	keystroke_m	m	n/a
353.561	0.0745	707122	keystroke_o	o	n/a
353.7105	0.0905	707421	keystroke_k	k	n/a
353.9055	0.0905	707811	keystroke_i	i	n/a
353.951	0.0895	707902	keystroke_n	n	n/a
354.0555	0.0605	708111	keystroke_g	g	n/a
354.1305	0.09	708261	keystroke_Key.space	Key.space	n/a
354.3255	0.075	708651	keystroke_h	h	n/a
354.416	0.075	708832	keystroke_r	r	n/a
354.4165	0.0595	708833	keystroke_t	t	n/a
354.551	0.06	709102	keystroke_o	o	n/a
354.9405	0.045	709881	keystroke_Key.backspace	Key.backspace	n/a
355.0605	0.06	710121	keystroke_Key.backspace	Key.backspace	n/a
355.1955	0.075	710391	keystroke_Key.backspace	Key.backspace	n/a
355.3155	0.0755	710631	keystroke_Key.backspace	Key.backspace	n/a
355.436	0.089	710872	keystroke_t	t	n/a
355.541	0.06	711082	keystroke_h	h	n/a
355.661	0.09	711322	keystroke_r	r	n/a
355.751	0.075	711502	keystroke_o	o	n/a
355.901	0.03	711802	keystroke_w	w	n/a
355.976	0.075	711952	keystroke_Key.space	Key.space	n/a
356.2155	0.06	712431	keystroke_p	p	n/a
356.3355	0.075	712671	keystroke_r	r	n/a
356.3955	0.06	712791	keystroke_e	e	n/a
356.5155	0.06	713031	keystroke_p	p	n/a
356.981	0.135	713962	keystroke_a	a	n/a
357.0715	0.1045	714143	keystroke_r	r	n/a
357.206	0.06	714412	keystroke_e	e	n/a
357.356	0.09	714712	keystroke_d	d	n/a
357.491	0.06	714982	keystroke_Key.space	Key.space	n/a
357.6265	0.12	715253	keystroke_p	p	n/a
357.8515	0.075	715703	keystroke_i	i	n/a
357.9565	0.074	715913	keystroke_p	p	n/a
358.2705	0.0755	716541	keystroke_e	e	n/a
358.4355	0.0605	716871	keystroke_s	s	n/a
358.526	0.074	717052	keystroke_Key.enter	Key.enter	n/a
358.609	5.2285	717218	prompt	n/a	enabling inquiry puppy heights\n
359.426	0.015	718852	keystroke_e	e	n/a
359.486	0.029	718972	keystroke_n	n	n/a
359.561	0.135	719122	keystroke_a	a	n/a
359.6805	0.0755	719361	keystroke_b	b	n/a
359.786	0.075	719572	keystroke_l	l	n/a
359.981	0.075	719962	keystroke_i	i	n/a
360.026	0.045	720052	keystroke_n	n	n/a
360.116	0.0605	720232	keystroke_g	g	n/a
360.221	0.06	720442	keystroke_Key.space	Key.space	n/a
360.356	0.12	720712	keystroke_i	i	n/a
360.432	0.074	720864	keystroke_n	n	n/a
360.6855	0.135	721371	keystroke_q	q	n/a
360.836	0.0755	721672	keystroke_u	u	n/a
360.8805	0.0755	721761	keystroke_i	i	n/a
360.9855	0.076	721971	keystroke_r	r	n/a
361.4055	0.015	722811	keystroke_y	y	n/a
361.4355	0.0755	722871	keystroke_Key.space	Key.space	n/a
361.9605	0.03	723921	keystroke_p	p	n/a
362.0655	0.0755	724131	keystroke_u	u	n/a
362.291	0.075	724582	keystroke_p	p	n/a
362.441	0.09	724882	keystroke_p	p	n/a
362.561	0.045	725122	keystroke_y	y	n/a
362.621	0.06	725242	keystroke_Key.space	Key.space	n/a
362.816	0.06	725632	keystroke_h	h	n/a
363.041	0.0905	726082	keystroke_e	e	n/a
363.1765	0.075	726353	keystroke_i	i	n/a
363.3115	0.075	726623	keystroke_g	g	n/a
363.3875	0.059	726775	keystroke_h	h	n/a
363.4615	0.0745	726923	keystroke_t	t	n/a
363.566	0.105	727132	keystroke_s	s	n/a
363.761	0.075	727522	keystroke_Key.enter	Key.enter	n/a
363.8415	6.956	727683	prompt	n/a	kurt assumptions connected marina\n
364.5115	0.089	729023	keystroke_k	k	n/a
364.751	0.045	729502	keystroke_u	u	n/a
364.871	0.06	729742	keystroke_r	r	n/a
365.036	0.045	730072	keystroke_t	t	n/a
365.156	0.075	730312	keystroke_Key.space	Key.space	n/a
365.351	0.12	730702	keystroke_a	a	n/a
365.441	0.226	730882	keystroke_s	s	n/a
365.786	0.03	731572	keystroke_s	s	n/a
367.0015	0.0895	734003	keystroke_u	u	n/a
367.271	0.075	734542	keystroke_m	m	n/a
367.316	0.09	734632	keystroke_p	p	n/a
367.481	0.045	734962	keystroke_t	t	n/a
367.646	0.135	735292	keystroke_i	i	n/a
367.6915	0.1045	735383	keystroke_o	o	n/a
367.766	0.06	735532	keystroke_n	n	n/a
367.856	0.135	735712	keystroke_s	s	n/a
367.992	0.089	735984	keystroke_Key.space	Key.space	n/a
368.531	0.1205	737062	keystroke_c	c	n/a
368.621	0.1045	737242	keystroke_o	o	n/a
368.711	0.0595	737422	keystroke_n	n	n/a
368.8315	0.059	737663	keystroke_n	n	n/a
369.0565	0.1045	738113	keystroke_e	e	n/a
369.0855	0.0605	738171	keystroke_c	c	n/a
369.326	0.0455	738652	keystroke_t	t	n/a
369.491	0.12	738982	keystroke_e	e	n/a
369.581	0.09	739162	keystroke_d	d	n/a
369.716	0.06	739432	keystroke_Key.space	Key.space	n/a
369.8965	0.074	739793	keystroke_m	m	n/a
370.0015	0.1045	740003	keystroke_a	a	n/a
370.0605	0.061	740121	keystroke_r	r	n/a
370.1665	0.0895	740333	keystroke_i	i	n/a
370.226	0.06	740452	keystroke_n	n	n/a
370.526	0.09	741052	keystroke_a	a	n/a
370.766	0.0295	741532	keystroke_Key.enter	Key.enter	n/a
370.8015	10.991	741603	prompt	n/a	minds brown iron ethernet\n
373.0335	0	746067	keystroke_m	m	n/a
373.0755	0.12	746151	keystroke_i	i	n/a
373.1505	0.075	746301	keystroke_n	n	n/a
373.3155	0.195	746631	keystroke_d	d	n/a
373.4505	0.1355	746901	keystroke_s	s	n/a
373.9455	0.0605	747891	keystroke_Key.space	Key.space	n/a
374.861	0.09	749722	keystroke_b	b	n/a
375.101	0.06	750202	keystroke_r	r	n/a
375.176	0.09	750352	keystroke_o	o	n/a
375.296	0.12	750592	keystroke_w	w	n/a
375.446	0.075	750892	keystroke_n	n	n/a
375.5355	0.0755	751071	keystroke_Key.space	Key.space	n/a
375.746	0.09	751492	keystroke_e	e	n/a
375.881	0.0905	751762	keystroke_i	i	n/a
376.151	0.044	752302	keystroke_Key.backspace	Key.backspace	n/a
376.271	0.074	752542	keystroke_Key.backspace	Key.backspace	n/a
376.4815	0.0445	752963	keystroke_i	i	n/a
376.556	0.0605	753112	keystroke_r	r	n/a
376.661	0.0895	753322	keystroke_o	o	n/a
376.736	0.0455	753472	keystroke_n	n	n/a
376.8555	0.09	753711	keystroke_Key.space	Key.space	n/a
377.1105	0.091	754221	keystroke_e	e	n/a
377.2755	0.031	754551	keystroke_h	h	n/a
377.3205	0.091	754641	keystroke_t	t	n/a
377.3955	0.106	754791	keystroke_e	e	n/a
377.4865	0.0745	754973	keystroke_r	r	n/a
377.8605	0.03	755721	keystroke_Key.backspace	Key.backspace	n/a
377.951	0.0745	755902	keystroke_Key.backspace	Key.backspace	n/a
378.0855	0.1355	756171	keystroke_Key.backspace	Key.backspace	n/a
378.251	0.075	756502	keystroke_t	t	n/a
378.4905	0.12	756981	keystroke_Key.backspace	Key.backspace	n/a
378.686	0.074	757372	keystroke_Key.backspace	Key.backspace	n/a
378.776	0.075	757552	keystroke_t	t	n/a
379.0005	0.105	758001	keystroke_e	e	n/a
379.061	0.075	758122	keystroke_r	r	n/a
379.36	0.031	758720	keystroke_h	h	n/a
379.571	0.045	759142	keystroke_Key.backspace	Key.backspace	n/a
379.706	0.06	759412	keystroke_Key.backspace	Key.backspace	n/a
379.8255	0.0755	759651	keystroke_Key.backspace	Key.backspace	n/a
380.0055	0.045	760011	keystroke_h	h	n/a
380.081	0.105	760162	keystroke_e	e	n/a
380.126	0.0895	760252	keystroke_r	r	n/a
380.261	0.06	760522	keystroke_b	b	n/a
380.2755	0.015	760551	keystroke_n	n	n/a
380.366	0.135	760732	keystroke_e	e	n/a
380.5155	0.06	761031	keystroke_t	t	n/a
380.8	0.0465	761600	keystroke_Key.backspace	Key.backspace	n/a
380.921	0.06	761842	keystroke_Key.backspace	Key.backspace	n/a
381.0405	0.0745	762081	keystroke_Key.backspace	Key.backspace	n/a
381.175	0.06	762350	keystroke_Key.backspace	Key.backspace	n/a
381.401	0.03	762802	keystroke_n	n	n/a
381.445	0.12	762890	keystroke_e	e	n/a
381.506	0.06	763012	keystroke_t	t	n/a
381.73	0.06	763460	keystroke_Key.enter	Key.enter	n/a
381.801	4.821	763602	prompt	n/a	busy testament paint actions\n
382.5555	0.0755	765111	keystroke_b	b	n/a
382.676	0.06	765352	keystroke_u	u	n/a
382.766	0.09	765532	keystroke_s	s	n/a
382.9305	0.03	765861	keystroke_y	y	n/a
382.991	0.0595	765982	keystroke_Key.space	Key.space	n/a
383.2305	0.0305	766461	keystroke_t	t	n/a
383.516	0.0605	767032	keystroke_e	e	n/a
383.741	0.12	767482	keystroke_s	s	n/a
383.846	0.09	767692	keystroke_t	t	n/a
384.131	0.09	768262	keystroke_a	a	n/a
384.325	0.045	768650	keystroke_m	m	n/a
384.521	0.059	769042	keystroke_e	e	n/a
384.6405	0.061	769281	keystroke_n	n	n/a
384.7455	0.0605	769491	keystroke_t	t	n/a
384.8355	0.075	769671	keystroke_Key.space	Key.space	n/a
384.896	0.09	769792	keystroke_p	p	n/a
385.0605	0.0905	770121	keystroke_a	a	n/a
385.1955	0.12	770391	keystroke_i	i	n/a
385.2415	0.09	770483	keystroke_n	n	n/a
385.436	0.0295	770872	keystroke_t	t	n/a
385.5855	0.075	771171	keystroke_Key.space	Key.space	n/a
385.7505	0.1355	771501	keystroke_a	a	n/a
385.8565	0.059	771713	keystroke_c	c	n/a
386.021	0.0595	772042	keystroke_t	t	n/a
386.0955	0.12	772191	keystroke_i	i	n/a
386.1255	0.105	772251	keystroke_o	o	n/a
386.1865	0.0595	772373	keystroke_n	n	n/a
386.261	0.09	772522	keystroke_s	s	n/a
386.545	0.076	773090	keystroke_Key.enter	Key.enter	n/a
386.6385	7.921	773277	prompt	n/a	solved finds facing poly\n
390.4475	0.0275	780895	keystroke_s	s	n/a
390.448	0.102	780896	keystroke_o	o	n/a
390.625	0.105	781250	keystroke_l	l	n/a
390.76	0.121	781520	keystroke_v	v	n/a
390.851	0.09	781702	keystroke_e	e	n/a
390.985	0.106	781970	keystroke_d	d	n/a
391.151	0.089	782302	keystroke_Key.space	Key.space	n/a
391.481	0.074	782962	keystroke_f	f	n/a
391.736	0.119	783472	keystroke_i	i	n/a
391.811	0.06	783622	keystroke_n	n	n/a
391.931	0.15	783862	keystroke_d	d	n/a
392.065	0.12	784130	keystroke_s	s	n/a
392.366	0.09	784732	keystroke_Key.space	Key.space	n/a
392.591	0.075	785182	keystroke_f	f	n/a
392.667	0.179	785334	keystroke_a	a	n/a
392.816	0.09	785632	keystroke_c	c	n/a
392.981	0.0905	785962	keystroke_i	i	n/a
393.011	0.0755	786022	keystroke_n	n	n/a
393.1165	0.074	786233	keystroke_g	g	n/a
393.2355	0.0755	786471	keystroke_Key.space	Key.space	n/a
393.3555	0.105	786711	keystroke_p	p	n/a
393.7165	0.119	787433	keystroke_o	o	n/a
393.9265	0.1645	787853	keystroke_l	l	n/a
394.151	0.06	788302	keystroke_y	y	n/a
394.5105	0.045	789021	keystroke_Key.enter	Key.enter	n/a
394.564	5.678	789128	prompt	n/a	see varying studying cursor\n
395.336	0.09	790672	keystroke_s	s	n/a
395.531	0.06	791062	keystroke_e	e	n/a
395.651	0.135	791302	keystroke_e	e	n/a
395.801	0.06	791602	keystroke_Key.space	Key.space	n/a
395.966	0.044	791932	keystroke_a	a	n/a
396.086	0.045	792172	keystroke_v	v	n/a
396.326	0.03	792652	keystroke_Key.backspace	Key.backspace	n/a
396.431	0.06	792862	keystroke_Key.backspace	Key.backspace	n/a
396.521	0.075	793042	keystroke_v	v	n/a
396.5665	0.1345	793133	keystroke_a	a	n/a
396.716	0.06	793432	keystroke_r	r	n/a
396.821	0.075	793642	keystroke_y	y	n/a
396.926	0.06	793852	keystroke_i	i	n/a
397.0605	0.046	794121	keystroke_n	n	n/a
397.2555	0.061	794511	keystroke_g	g	n/a
397.51	0.076	795020	keystroke_Key.space	Key.space	n/a
397.841	0.165	795682	keystroke_s	s	n/a
397.946	0.09	795892	keystroke_t	t	n/a
398.021	0.03	796042	keystroke_u	u	n/a
398.29	0.15	796580	keystroke_d	d	n/a
398.576	0.06	797152	keystroke_y	y	n/a
398.6815	0.0595	797363	keystroke_i	i	n/a
398.7705	0.075	797541	keystroke_n	n	n/a
398.9215	0.0595	797843	keystroke_g	g	n/a
399.0555	0.0605	798111	keystroke_Key.space	Key.space	n/a
399.2065	0.06	798413	keystroke_c	c	n/a
399.296	0.06	798592	keystroke_u	u	n/a
399.416	0.0605	798832	keystroke_r	r	n/a
399.551	0.105	799102	keystroke_s	s	n/a
399.656	0.09	799312	keystroke_o	o	n/a
400.0455	0.061	800091	keystroke_r	r	n/a
400.18	0.06	800360	keystroke_Key.enter	Key.enter	n/a
400.2495	6.3525	800499	prompt	n/a	folk previews indicators streams\n
400.976	0.075	801952	keystroke_f	f	n/a
401.066	0.0745	802132	keystroke_o	o	n/a
401.2155	0.0745	802431	keystroke_o	o	n/a
401.3505	0.06	802701	keystroke_k	k	n/a
401.365	0.061	802730	keystroke_l	l	n/a
401.666	0.0445	803332	keystroke_Key.backspace	Key.backspace	n/a
401.8	0.076	803600	keystroke_Key.backspace	Key.backspace	n/a
401.98	0.046	803960	keystroke_Key.backspace	Key.backspace	n/a
402.266	0.105	804532	keystroke_l	l	n/a
402.356	0.06	804712	keystroke_k	k	n/a
402.46	0.075	804920	keystroke_Key.space	Key.space	n/a
402.566	0.0745	805132	keystroke_p	p	n/a
402.6855	0.075	805371	keystroke_r	r	n/a
402.7455	0.0905	805491	keystroke_e	e	n/a
402.8955	0.091	805791	keystroke_v	v	n/a
403.0165	0.059	806033	keystroke_i	i	n/a
403.211	0.075	806422	keystroke_e	e	n/a
403.3155	0.091	806631	keystroke_w	w	n/a
403.4805	0.15	806961	keystroke_s	s	n/a
403.6905	0.06	807381	keystroke_Key.space	Key.space	n/a
404.2455	0.1055	808491	keystroke_i	i	n/a
404.306	0.0605	808612	keystroke_n	n	n/a
404.4105	0.09	808821	keystroke_d	d	n/a
404.5155	0.0755	809031	keystroke_i	i	n/a
404.621	0.075	809242	keystroke_c	c	n/a
404.755	0.106	809510	keystroke_a	a	n/a
404.8765	0.0595	809753	keystroke_t	t	n/a
404.996	0.075	809992	keystroke_o	o	n/a
405.0865	0.0595	810173	keystroke_r	r	n/a
405.2215	0.105	810443	keystroke_s	s	n/a
405.371	0.06	810742	keystroke_Key.space	Key.space	n/a
405.551	0.119	811102	keystroke_s	s	n/a
405.7	0.076	811400	keystroke_t	t	n/a
405.8365	0.105	811673	keystroke_r	r	n/a
405.911	0.1355	811822	keystroke_e	e	n/a
405.9855	0.0755	811971	keystroke_a	a	n/a
406.0905	0.076	812181	keystroke_m	m	n/a
406.2415	0.1045	812483	keystroke_s	s	n/a
406.5405	0.06	813081	keystroke_Key.enter	Key.enter	n/a
406.6105	6.922	813221	prompt	n/a	discussing belize handy sarah\n
407.32	0.075	814640	keystroke_d	d	n/a
407.426	0.06	814852	keystroke_i	i	n/a
407.501	0.1195	815002	keystroke_s	s	n/a
407.5765	0.0895	815153	keystroke_c	c	n/a
407.6665	0.0445	815333	keystroke_u	u	n/a
407.815	0.061	815630	keystroke_s	s	n/a
407.966	0.075	815932	keystroke_s	s	n/a
408.0255	0.076	816051	keystroke_i	i	n/a
408.055	0.0755	816110	keystroke_n	n	n/a
408.1465	0.059	816293	keystroke_g	g	n/a
408.2655	0.075	816531	keystroke_Key.space	Key.space	n/a
408.9105	0.075	817821	keystroke_b	b	n/a
409.031	0.105	818062	keystroke_e	e	n/a
409.1815	0.119	818363	keystroke_l	l	n/a
409.271	0.0605	818542	keystroke_i	i	n/a
409.495	0.06	818990	keystroke_e	e	n/a
409.975	0.03	819950	keystroke_Key.backspace	Key.backspace	n/a
410.021	0.15	820042	keystroke_z	z	n/a
410.051	0.121	820102	keystroke_e	e	n/a
410.26	0.061	820520	keystroke_Key.space	Key.space	n/a
410.906	0.12	821812	keystroke_h	h	n/a
411.041	0.0145	822082	keystroke_a	a	n/a
411.0705	0.06	822141	keystroke_n	n	n/a
411.1755	0.06	822351	keystroke_d	d	n/a
411.4005	0.0455	822801	keystroke_y	y	n/a
412.1505	0.075	824301	keystroke_Key.space	Key.space	n/a
412.5855	0.1205	825171	keystroke_s	s	n/a
412.7815	0.089	825563	keystroke_a	a	n/a
412.9005	0.0455	825801	keystroke_r	r	n/a
412.9905	0.091	825981	keystroke_a	a	n/a
413.1855	0.03	826371	keystroke_h	h	n/a
413.486	0.045	826972	keystroke_Key.enter	Key.enter	n/a
413.5505	5.8915	827101	prompt	n/a	cdna gotta still shame\n
414.656	0.105	829312	keystroke_c	c	n/a
414.8655	0.0755	829731	keystroke_d	d	n/a
415.061	0.06	830122	keystroke_n	n	n/a
415.196	0.06	830392	keystroke_a	a	n/a
415.391	0.075	830782	keystroke_Key.space	Key.space	n/a
415.631	0.045	831262	keystroke_g	g	n/a
415.706	0.075	831412	keystroke_o	o	n/a
415.871	0.06	831742	keystroke_t	t	n/a
415.991	0.03	831982	keystroke_t	t	n/a
416.051	0.09	832102	keystroke_t	t	n/a
416.786	0.03	833572	keystroke_Key.backspace	Key.backspace	n/a
416.951	0.075	833902	keystroke_a	a	n/a
417.115	0.06	834230	keystroke_Key.space	Key.space	n/a
417.235	0.1805	834470	keystroke_s	s	n/a
417.3405	0.046	834681	keystroke_t	t	n/a
417.4765	0.06	834953	keystroke_i	i	n/a
417.6565	0.0745	835313	keystroke_l	l	n/a
417.776	0.149	835552	keystroke_l	l	n/a
417.91	0.06	835820	keystroke_Key.space	Key.space	n/a
418.031	0.09	836062	keystroke_s	s	n/a
418.136	0.06	836272	keystroke_h	h	n/a
418.391	0.0455	836782	keystroke_m	m	n/a
418.691	0.045	837382	keystroke_Key.backspace	Key.backspace	n/a
418.796	0.104	837592	keystroke_a	a	n/a
418.885	0.06	837770	keystroke_m	m	n/a
419.021	0.06	838042	keystroke_e	e	n/a
419.396	0.0445	838792	keystroke_Key.enter	Key.enter	n/a
419.453	7.6245	838906	prompt	n/a	troy workflow necessarily checked\n
420.521	0.059	841042	keystroke_r	r	n/a
420.8055	0.015	841611	keystroke_Key.backspace	Key.backspace	n/a
420.866	0.0745	841732	keystroke_t	t	n/a
421.0155	0.106	842031	keystroke_r	r	n/a
421.1055	0.076	842211	keystroke_o	o	n/a
421.2705	0.061	842541	keystroke_y	y	n/a
421.3455	0.075	842691	keystroke_Key.space	Key.space	n/a
421.5405	0.1195	843081	keystroke_w	w	n/a
421.6455	0.0605	843291	keystroke_o	o	n/a
421.766	0.06	843532	keystroke_r	r	n/a
421.841	0.06	843682	keystroke_k	k	n/a
422.006	0.075	844012	keystroke_s	s	n/a
422.305	0.03	844610	keystroke_Key.backspace	Key.backspace	n/a
422.411	0.0605	844822	keystroke_f	f	n/a
422.516	0.045	845032	keystroke_l	l	n/a
422.711	0.059	845422	keystroke_o	o	n/a
422.875	0.061	845750	keystroke_w	w	n/a
423.0865	0.059	846173	keystroke_Key.space	Key.space	n/a
423.7155	0.0605	847431	keystroke_n	n	n/a
423.791	0.06	847582	keystroke_e	e	n/a
423.971	0.105	847942	keystroke_c	c	n/a
424.077	0.0885	848154	keystroke_e	e	n/a
424.4065	0.1345	848813	keystroke_s	s	n/a
424.6155	0.15	849231	keystroke_s	s	n/a
424.9005	0.1655	849801	keystroke_a	a	n/a
425.0055	0.0905	850011	keystroke_r	r	n/a
425.171	0.135	850342	keystroke_i	i	n/a
425.2615	0.1345	850523	keystroke_l	l	n/a
425.381	0.09	850762	keystroke_y	y	n/a
425.455	0.076	850910	keystroke_Key.space	Key.space	n/a
425.6655	0.0905	851331	keystroke_c	c	n/a
425.7865	0.0595	851573	keystroke_h	h	n/a
425.891	0.105	851782	keystroke_e	e	n/a
425.9805	0.06	851961	keystroke_c	c	n/a
426.0555	0.075	852111	keystroke_k	k	n/a
426.1905	0.1055	852381	keystroke_e	e	n/a
426.2505	0.09	852501	keystroke_d	d	n/a
426.3855	0.06	852771	keystroke_Key.space	Key.space	n/a
426.7905	0.0605	853581	keystroke_Key.backspace	Key.backspace	n/a
427.031	0.0445	854062	keystroke_Key.enter	Key.enter	n/a
427.084	5.9935	854168	prompt	n/a	substitute worship begins threads\n
427.7955	0.15	855591	keystroke_s	s	n/a
427.9605	0.045	855921	keystroke_u	u	n/a
