onset	duration	sample	value	key	prompt_text
11.3625	9.146	22725	prompt	n/a	the quick brown fox jumps over a lazy dog\n
12.38	0.054	24760	keystroke	t	n/a
12.509	0.045	25018	keystroke	h	n/a
12.809	0.105	25618	keystroke	e	n/a
12.989	0.165	25978	keystroke	Key.space	n/a
13.229	0.195	26458	keystroke	q	n/a
13.409	0.15	26818	keystroke	u	n/a
13.499	0.15	26998	keystroke	i	n/a
13.694	0.165	27388	keystroke	c	n/a
13.874	0.12	27748	keystroke	k	n/a
14.039	0.15	28078	keystroke	Key.space	n/a
14.264	0.165	28528	keystroke	b	n/a
14.384	0.135	28768	keystroke	r	n/a
14.549	0.165	29098	keystroke	o	n/a
14.699	0.135	29398	keystroke	w	n/a
14.849	0.105	29698	keystroke	n	n/a
14.984	0.15	29968	keystroke	Key.space	n/a
15.149	0.105	30298	keystroke	f	n/a
15.269	0.15	30538	keystroke	o	n/a
15.419	0.195	30838	keystroke	x	n/a
15.674	0.15	31348	keystroke	Key.space	n/a
15.884	0.12	31768	keystroke	j	n/a
16.094	0.12	32188	keystroke	u	n/a
16.439	0.075	32878	keystroke	p	n/a
16.529	0.045	33058	keystroke	m	n/a
16.769	0.09	33538	keystroke	Key.backspace	n/a
16.919	0.105	33838	keystroke	Key.backspace	n/a
17.174	0.195	34348	keystroke	m	n/a
17.354	0.18	34708	keystroke	p	n/a
17.519	0.12	35038	keystroke	s	n/a
17.774	0.12	35548	keystroke	Key.space	n/a
17.984	0.15	35968	keystroke	o	n/a
18.135	0.134	36270	keystroke	v	n/a
18.284	0.225	36568	keystroke	e	n/a
18.464	0.165	36928	keystroke	r	n/a
18.569	0.15	37138	keystroke	Key.space	n/a
18.734	0.15	37468	keystroke	a	n/a
18.884	0.12	37768	keystroke	Key.space	n/a
19.049	0.165	38098	keystroke	l	n/a
19.139	0.12	38278	keystroke	a	n/a
19.379	0.18	38758	keystroke	z	n/a
19.529	0.12	39058	keystroke	y	n/a
19.709	0.15	39418	keystroke	Key.space	n/a
19.889	0.105	39778	keystroke	d	n/a
20.024	0.135	40048	keystroke	o	n/a
20.174	0.105	40348	keystroke	g	n/a
20.384	0.12	40768	keystroke	Key.enter	n/a
20.515	7.0865	41030	prompt	n/a	bristol temporal bytes skin\n
21.194	0.18	42388	keystroke	b	n/a
21.344	0.135	42688	keystroke	r	n/a
21.464	0.15	42928	keystroke	i	n/a
21.599	0.195	43198	keystroke	s	n/a
21.779	0.15	43558	keystroke	t	n/a
21.959	0.09	43918	keystroke	o	n/a
22.154	0.135	44308	keystroke	l	n/a
22.349	0.165	44698	keystroke	Key.space	n/a
22.634	0.18	45268	keystroke	t	n/a
22.769	0.15	45538	keystroke	e	n/a
22.844	0.135	45688	keystroke	m	n/a
23.039	0.15	46078	keystroke	p	n/a
23.144	0.18	46288	keystroke	o	n/a
23.294	0.15	46588	keystroke	r	n/a
23.384	0.195	46768	keystroke	a	n/a
23.594	0.135	47188	keystroke	l	n/a
23.819	0.12	47638	keystroke	Key.space	n/a
24.164	0.12	48328	keystroke	b	n/a
24.749	0.18	49498	keystroke	u	n/a
25.319	0.135	50638	keystroke	Key.backspace	n/a
25.754	0.09	51508	keystroke	y	n/a
25.874	0.165	51748	keystroke	t	n/a
26.024	0.12	52048	keystroke	e	n/a
26.069	0.15	52138	keystroke	s	n/a
26.489	0.15	52978	keystroke	Key.space	n/a
26.774	0.135	53548	keystroke	s	n/a
26.894	0.12	53788	keystroke	k	n/a
27.134	0.255	54268	keystroke	i	n/a
27.254	0.12	54508	keystroke	n	n/a
27.464	0.135	54928	keystroke	Key.enter	n/a
27.607	8.8605	55214	prompt	n/a	andale surveillance functional adrian\n
28.305	0.134	56610	keystroke	a	n/a
28.424	0.09	56848	keystroke	n	n/a
28.589	0.135	57178	keystroke	d	n/a
28.919	0.165	57838	keystroke	a	n/a
29.099	0.165	58198	keystroke	l	n/a
29.249	0.12	58498	keystroke	e	n/a
29.444	0.18	58888	keystroke	Key.space	n/a
29.639	0.12	59278	keystroke	s	n/a
29.849	0.165	59698	keystroke	u	n/a
29.954	0.15	59908	keystroke	i	n/a
30.134	0.135	60268	keystroke	r	n/a
30.569	0.06	61138	keystroke	v	n/a
30.824	0.06	61648	keystroke	Key.backspace	n/a
30.974	0.045	61948	keystroke	Key.backspace	n/a
31.094	0.09	62188	keystroke	Key.backspace	n/a
31.185	0.089	62370	keystroke	r	n/a
31.544	0.135	63088	keystroke	v	n/a
31.664	0.135	63328	keystroke	e	n/a
31.829	0.135	63658	keystroke	i	n/a
31.949	0.21	63898	keystroke	l	n/a
32.325	0.134	64650	keystroke	l	n/a
32.519	0.165	65038	keystroke	a	n/a
32.699	0.15	65398	keystroke	n	n/a
32.864	0.165	65728	keystroke	c	n/a
32.969	0.15	65938	keystroke	e	n/a
33.179	0.15	66358	keystroke	Key.space	n/a
33.389	0.12	66778	keystroke	f	n/a
33.524	0.09	67048	keystroke	u	n/a
33.764	0.12	67528	keystroke	n	n/a
33.914	0.12	67828	keystroke	c	n/a
34.169	0.135	68338	keystroke	t	n/a
34.289	0.105	68578	keystroke	i	n/a
34.334	0.195	68668	keystroke	o	n/a
34.454	0.196	68908	keystroke	n	n/a
34.604	0.15	69208	keystroke	a	n/a
34.784	0.18	69568	keystroke	l	n/a
34.949	0.135	69898	keystroke	Key.space	n/a
35.279	0.12	70558	keystroke	a	n/a
35.504	0.12	71008	keystroke	d	n/a
35.714	0.135	71428	keystroke	r	n/a
35.864	0.165	71728	keystroke	i	n/a
35.984	0.12	71968	keystroke	a	n/a
36.119	0.135	72238	keystroke	n	n/a
36.359	0.105	72718	keystroke	Key.enter	n/a
36.473	8.2445	72946	prompt	n/a	illustration trusted calcium manually\n
37.109	0.15	74218	keystroke	i	n/a
37.244	0.12	74488	keystroke	l	n/a
37.424	0.18	74848	keystroke	l	n/a
37.589	0.135	75178	keystroke	u	n/a
37.694	0.21	75388	keystroke	s	n/a
37.889	0.12	75778	keystroke	t	n/a
38.099	0.21	76198	keystroke	r	n/a
38.234	0.21	76468	keystroke	a	n/a
38.459	0.165	76918	keystroke	t	n/a
38.564	0.12	77128	keystroke	i	n/a
38.639	0.195	77278	keystroke	o	n/a
38.789	0.15	77578	keystroke	n	n/a
38.924	0.165	77848	keystroke	Key.space	n/a
39.044	0.075	78088	keystroke	t	n/a
39.239	0.135	78478	keystroke	r	n/a
39.389	0.165	78778	keystroke	u	n/a
39.539	0.165	79078	keystroke	s	n/a
39.689	0.135	79378	keystroke	t	n/a
39.809	0.165	79618	keystroke	e	n/a
40.124	0.165	80248	keystroke	d	n/a
40.259	0.12	80518	keystroke	Key.space	n/a
40.514	0.195	81028	keystroke	c	n/a
40.664	0.195	81328	keystroke	a	n/a
40.874	0.165	81748	keystroke	l	n/a
41.249	0.105	82498	keystroke	c	n/a
41.384	0.15	82768	keystroke	i	n/a
41.684	0.12	83368	keystroke	u	n/a
41.954	0.105	83908	keystroke	m	n/a
42.269	0.12	84538	keystroke	Key.space	n/a
42.494	0.12	84988	keystroke	m	n/a
42.644	0.165	85288	keystroke	a	n/a
42.794	0.105	85588	keystroke	n	n/a
43.019	0.15	86038	keystroke	u	n/a
43.139	0.135	86278	keystroke	a	n/a
43.289	0.09	86578	keystroke	l	n/a
43.409	0.12	86818	keystroke	l	n/a
43.619	0.075	87238	keystroke	l	n/a
43.979	0.135	87958	keystroke	Key.backspace	n/a
44.294	0.12	88588	keystroke	y	n/a
44.594	0.12	89188	keystroke	Key.enter	n/a
44.7225	11.334	89445	prompt	n/a	carriers reports dublin ministers\n
45.314	0.18	90628	keystroke	c	n/a
45.449	0.225	90898	keystroke	a	n/a
45.644	0.105	91288	keystroke	r	n/a
45.824	0.135	91648	keystroke	r	n/a
45.989	0.165	91978	keystroke	i	n/a
46.184	0.18	92368	keystroke	e	n/a
46.334	0.225	92668	keystroke	r	n/a
46.499	0.225	92998	keystroke	s	n/a
46.904	0.135	93808	keystroke	Key.space	n/a
47.234	0.18	94468	keystroke	r	n/a
47.429	0.195	94858	keystroke	e	n/a
47.699	0.18	95398	keystroke	p	n/a
47.834	0.165	95668	keystroke	o	n/a
47.954	0.105	95908	keystroke	r	n/a
48.179	0.18	96358	keystroke	t	n/a
48.314	0.15	96628	keystroke	s	n/a
48.524	0.15	97048	keystroke	Key.space	n/a
48.869	0.15	97738	keystroke	d	n/a
49.004	0.09	98008	keystroke	u	n/a
49.229	0.165	98458	keystroke	b	n/a
49.409	0.166	98818	keystroke	l	n/a
49.559	0.03	99118	keystroke	o	n/a
49.604	0.195	99208	keystroke	i	n/a
49.634	0.105	99268	keystroke	n	n/a
50.054	0.09	100108	keystroke	Key.backspace	n/a
50.204	0.105	100408	keystroke	Key.backspace	n/a
50.474	0.015	100948	keystroke	Key.backspace	n/a
50.939	0.27	101878	keystroke	i	n/a
51.164	0.15	102328	keystroke	n	n/a
51.599	0.105	103198	keystroke	Key.space	n/a
51.869	0.15	103738	keystroke	m	n/a
52.02	0.134	104040	keystroke	i	n/a
52.124	0.195	104248	keystroke	n	n/a
52.244	0.18	104488	keystroke	i	n/a
52.679	0.135	105358	keystroke	s	n/a
53.775	0.089	107550	keystroke	Key.backspace	n/a
53.939	0.15	107878	keystroke	Key.backspace	n/a
54.749	0.09	109498	keystroke	i	n/a
55.004	0.105	110008	keystroke	s	n/a
55.244	0.151	110488	keystroke	t	n/a
55.349	0.3	110698	keystroke	e	n/a
55.574	0.15	111148	keystroke	r	n/a
55.664	0.135	111328	keystroke	s	n/a
55.904	0.15	111808	keystroke	Key.enter	n/a
56.0635	5.859	112127	prompt	n/a	smoke forms training cancellation\n
56.67	0.15	113340	keystroke	s	n/a
56.789	0.12	113578	keystroke	m	n/a
56.879	0.24	113758	keystroke	o	n/a
57.014	0.195	114028	keystroke	k	n/a
57.194	0.105	114388	keystroke	e	n/a
57.389	0.135	114778	keystroke	Key.space	n/a
57.539	0.12	115078	keystroke	f	n/a
57.674	0.15	115348	keystroke	o	n/a
57.794	0.12	115588	keystroke	r	n/a
57.944	0.165	115888	keystroke	m	n/a
58.094	0.12	116188	keystroke	s	n/a
58.259	0.135	116518	keystroke	Key.space	n/a
58.439	0.12	116878	keystroke	t	n/a
58.694	0.165	117388	keystroke	r	n/a
58.77	0.209	117540	keystroke	a	n/a
58.934	0.151	117868	keystroke	i	n/a
59.069	0.151	118138	keystroke	n	n/a
59.234	0.225	118468	keystroke	i	n/a
59.369	0.18	118738	keystroke	n	n/a
59.55	0.164	119100	keystroke	g	n/a
59.729	0.135	119458	keystroke	Key.space	n/a
59.909	0.241	119818	keystroke	c	n/a
60.075	0.209	120150	keystroke	a	n/a
60.269	0.105	120538	keystroke	n	n/a
60.554	0.166	121108	keystroke	c	n/a
60.704	0.135	121408	keystroke	e	n/a
60.825	0.089	121650	keystroke	l	n/a
61.004	0.151	122008	keystroke	l	n/a
61.109	0.195	122218	keystroke	a	n/a
61.275	0.15	122550	keystroke	t	n/a
61.349	0.165	122698	keystroke	i	n/a
61.455	0.164	122910	keystroke	o	n/a
61.59	0.119	123180	keystroke	n	n/a
61.754	0.165	123508	keystroke	Key.enter	n/a
61.9305	8.48	123861	prompt	n/a	chinese source yield colombia\n
62.7145	0.18	125429	keystroke	c	n/a
62.8795	0.165	125759	keystroke	h	n/a
62.9995	0.1955	125999	keystroke	i	n/a
63.149	0.15	126298	keystroke	n	n/a
63.314	0.211	126628	keystroke	e	n/a
63.464	0.2855	126928	keystroke	s	n/a
63.6885	0.195	127377	keystroke	e	n/a
63.9735	0.135	127947	keystroke	Key.space	n/a
64.259	0.165	128518	keystroke	s	n/a
64.395	0.179	128790	keystroke	o	n/a
64.499	0.12	128998	keystroke	u	n/a
64.605	0.105	129210	keystroke	r	n/a
64.964	0.21	129928	keystroke	c	n/a
65.114	0.211	130228	keystroke	e	n/a
65.339	0.075	130678	keystroke	Key.space	n/a
65.564	0.0895	131128	keystroke	y	n/a
65.9995	0.12	131999	keystroke	i	n/a
66.225	0.15	132450	keystroke	e	n/a
66.479	0.135	132958	keystroke	l	n/a
67.064	0.045	134128	keystroke	e	n/a
67.095	0.059	134190	keystroke	d	n/a
67.394	0.075	134788	keystroke	Key.space	n/a
67.6335	0.061	135267	keystroke	Key.backspace	n/a
67.7995	0.089	135599	keystroke	Key.backspace	n/a
68.1295	0.12	136259	keystroke	Key.backspace	n/a
68.2645	0.15	136529	keystroke	d	n/a
68.5195	0.164	137039	keystroke	Key.space	n/a
68.7295	0.135	137459	keystroke	c	n/a
68.8495	0.09	137699	keystroke	o	n/a
69.0445	0.09	138089	keystroke	l	n/a
69.2545	0.21	138509	keystroke	o	n/a
69.4195	0.134	138839	keystroke	m	n/a
69.7045	0.15	139409	keystroke	b	n/a
69.9745	0.1495	139949	keystroke	i	n/a
70.108	0.1515	140216	keystroke	a	n/a
70.319	0.089	140638	keystroke	Key.enter	n/a
70.4155	9.475	140831	prompt	n/a	atmosphere communicate candidates theory\n
70.979	0.165	141958	keystroke	a	n/a
71.204	0.135	142408	keystroke	t	n/a
71.474	0.15	142948	keystroke	m	n/a
71.579	0.18	143158	keystroke	o	n/a
71.714	0.15	143428	keystroke	s	n/a
71.999	0.165	143998	keystroke	p	n/a
72.1795	0.1795	144359	keystroke	h	n/a
72.284	0.105	144568	keystroke	e	n/a
72.419	0.1355	144838	keystroke	r	n/a
72.524	0.135	145048	keystroke	e	n/a
72.6285	0.151	145257	keystroke	Key.space	n/a
72.7945	0.1645	145589	keystroke	c	n/a
72.944	0.105	145888	keystroke	o	n/a
73.154	0.0905	146308	keystroke	m	n/a
73.334	0.075	146668	keystroke	m	n/a
73.5445	0.1195	147089	keystroke	u	n/a
73.769	0.195	147538	keystroke	n	n/a
73.904	0.165	147808	keystroke	i	n/a
74.009	0.18	148018	keystroke	c	n/a
74.099	0.255	148198	keystroke	a	n/a
74.339	0.21	148678	keystroke	t	n/a
74.519	0.21	149038	keystroke	e	n/a
74.789	0.12	149578	keystroke	Key.space	n/a
74.9395	0.0745	149879	keystroke	d	n/a
75.2695	0.135	150539	keystroke	Key.backspace	n/a
75.3895	0.165	150779	keystroke	c	n/a
75.4795	0.18	150959	keystroke	a	n/a
75.6745	0.15	151349	keystroke	n	n/a
75.8545	0.165	151709	keystroke	d	n/a
76.1095	0.135	152219	keystroke	d	n/a
76.3045	0.135	152609	keystroke	i	n/a
76.709	0.075	153418	keystroke	Key.backspace	n/a
76.859	0.1355	153718	keystroke	Key.backspace	n/a
77.354	0.12	154708	keystroke	i	n/a
77.519	0.12	155038	keystroke	d	n/a
77.73	0.255	155460	keystroke	a	n/a
77.97	0.18	155940	keystroke	t	n/a
78.09	0.2545	156180	keystroke	e	n/a
78.2545	0.165	156509	keystroke	s	n/a
78.4645	0.15	156929	keystroke	Key.space	n/a
78.6595	0.1345	157319	keystroke	t	n/a
78.839	0.135	157678	keystroke	h	n/a
78.989	0.195	157978	keystroke	e	n/a
79.199	0.135	158398	keystroke	o	n/a
79.364	0.105	158728	keystroke	r	n/a
79.499	0.105	158998	keystroke	y	n/a
79.739	0.15	159478	keystroke	Key.enter	n/a
79.895	9.191	159790	prompt	n/a	jury diffs consumers trends\n
80.519	0.12	161038	keystroke	j	n/a
80.984	0.12	161968	keystroke	r	n/a
81.104	0.12	162208	keystroke	u	n/a
81.7185	0.06	163437	keystroke	Key.backspace	n/a
81.8685	0.075	163737	keystroke	Key.backspace	n/a
82.1085	0.165	164217	keystroke	u	n/a
82.2885	0.105	164577	keystroke	r	n/a
82.5435	0.091	165087	keystroke	d	n/a
82.7535	0.09	165507	keystroke	y	n/a
83.6535	0.06	167307	keystroke	Key.backspace	n/a
83.7885	0.105	167577	keystroke	Key.backspace	n/a
84.0595	0.135	168119	keystroke	y	n/a
84.2835	0.135	168567	keystroke	Key.space	n/a
84.4335	0.12	168867	keystroke	d	n/a
84.5835	0.15	169167	keystroke	i	n/a
84.7485	0.06	169497	keystroke	f	n/a
84.9435	0.18	169887	keystroke	f	n/a
85.0945	0.179	170189	keystroke	s	n/a
85.7685	0.135	171537	keystroke	Key.space	n/a
86.0535	0.12	172107	keystroke	c	n/a
86.1435	0.196	172287	keystroke	o	n/a
86.2485	0.166	172497	keystroke	n	n/a
86.3835	0.12	172767	keystroke	s	n/a
86.6085	0.091	173217	keystroke	u	n/a
86.8645	0.135	173729	keystroke	m	n/a
86.9845	0.21	173969	keystroke	e	n/a
87.1485	0.21	174297	keystroke	r	n/a
87.2985	0.18	174597	keystroke	s	n/a
87.6585	0.165	175317	keystroke	Key.space	n/a
87.8535	0.15	175707	keystroke	t	n/a
88.1235	0.135	176247	keystroke	r	n/a
88.2145	0.149	176429	keystroke	e	n/a
88.4545	0.135	176909	keystroke	n	n/a
88.6035	0.15	177207	keystroke	d	n/a
88.7245	0.15	177449	keystroke	s	n/a
88.9335	0.15	177867	keystroke	Key.enter	n/a
89.091	4.57	178182	prompt	n/a	raised legal near finest\n
89.8045	0.164	179609	keystroke	r	n/a
89.9085	0.151	179817	keystroke	a	n/a
90.0435	0.18	180087	keystroke	i	n/a
90.1945	0.24	180389	keystroke	s	n/a
90.3445	0.164	180689	keystroke	e	n/a
90.659	0.1495	181318	keystroke	d	n/a
90.8235	0.12	181647	keystroke	Key.space	n/a
91.0335	0.1365	182067	keystroke	l	n/a
91.1085	0.1205	182217	keystroke	e	n/a
91.32	0.18	182640	keystroke	g	n/a
91.425	0.195	182850	keystroke	a	n/a
91.604	0.18	183208	keystroke	l	n/a
91.739	0.135	183478	keystroke	Key.space	n/a
91.95	0.134	183900	keystroke	n	n/a
92.054	0.166	184108	keystroke	e	n/a
92.19	0.195	184380	keystroke	a	n/a
92.325	0.15	184650	keystroke	r	n/a
92.489	0.1495	184978	keystroke	Key.space	n/a
92.7435	0.136	185487	keystroke	f	n/a
92.8495	0.21	185699	keystroke	i	n/a
92.9535	0.151	185907	keystroke	n	n/a
93.0445	0.225	186089	keystroke	e	n/a
93.1945	0.239	186389	keystroke	s	n/a
93.4195	0.105	186839	keystroke	t	n/a
93.4945	0.164	186989	keystroke	Key.enter	n/a
93.6645	8.2315	187329	prompt	n/a	cigarettes hair salvation cherry\n
94.2595	0.18	188519	keystroke	c	n/a
94.4545	0.149	188909	keystroke	i	n/a
94.6485	0.1815	189297	keystroke	g	n/a
94.844	0.241	189688	keystroke	a	n/a
95.1	0.1195	190200	keystroke	r	n/a
95.2035	0.12	190407	keystroke	e	n/a
95.4885	0.106	190977	keystroke	t	n/a
95.7	0.165	191400	keystroke	t	n/a
95.82	0.375	191640	keystroke	e	n/a
96.075	0.27	192150	keystroke	s	n/a
96.54	0.1185	193080	keystroke	Key.space	n/a
96.8395	0.105	193679	keystroke	h	n/a
96.8845	0.165	193769	keystroke	a	n/a
97.0645	0.15	194129	keystroke	i	n/a
97.1995	0.12	194399	keystroke	r	n/a
97.3335	0.106	194667	keystroke	Key.space	n/a
97.4985	0.151	194997	keystroke	s	n/a
97.6645	0.2105	195329	keystroke	a	n/a
97.875	0.179	195750	keystroke	l	n/a
98.085	0.195	196170	keystroke	v	n/a
98.205	0.21	196410	keystroke	a	n/a
98.64	0.15	197280	keystroke	t	n/a
98.76	0.15	197520	keystroke	i	n/a
98.865	0.21	197730	keystroke	o	n/a
98.984	0.166	197968	keystroke	n	n/a
99.134	0.165	198268	keystroke	Key.space	n/a
99.345	0.165	198690	keystroke	c	n/a
99.494	0.091	198988	keystroke	h	n/a
99.585	0.12	199170	keystroke	e	n/a
99.81	0.165	199620	keystroke	e	n/a
99.93	0.18	199860	keystroke	r	n/a
100.125	0.105	200250	keystroke	y	n/a
100.439	0.06	200878	keystroke	Key.backspace	n/a
100.59	0.06	201180	keystroke	Key.backspace	n/a
100.7545	0.09	201509	keystroke	Key.backspace	n/a
100.8745	0.09	201749	keystroke	r	n/a
101.1585	0.091	202317	keystroke	r	n/a
101.3095	0.12	202619	keystroke	y	n/a
101.79	0.104	203580	keystroke	Key.enter	n/a
101.9005	6.056	203801	prompt	n/a	panic centered angle fuzzy\n
102.585	0.15	205170	keystroke	p	n/a
102.705	0.15	205410	keystroke	a	n/a
102.84	0.225	205680	keystroke	n	n/a
102.975	0.18	205950	keystroke	i	n/a
103.125	0.135	206250	keystroke	c	n/a
103.35	0.15	206700	keystroke	Key.space	n/a
103.545	0.165	207090	keystroke	c	n/a
103.68	0.165	207360	keystroke	e	n/a
103.83	0.165	207660	keystroke	n	n/a
103.98	0.165	207960	keystroke	t	n/a
104.175	0.15	208350	keystroke	e	n/a
104.31	0.135	208620	keystroke	r	n/a
104.415	0.195	208830	keystroke	e	n/a
104.7595	0.105	209519	keystroke	d	n/a
104.9245	0.12	209849	keystroke	Key.space	n/a
105.1795	0.135	210359	keystroke	a	n/a
105.3295	0.12	210659	keystroke	n	n/a
105.5245	0.135	211049	keystroke	g	n/a
105.7795	0.165	211559	keystroke	l	n/a
105.9745	0.15	211949	keystroke	e	n/a
106.2295	0.165	212459	keystroke	Key.space	n/a
106.589	0.075	213178	keystroke	f	n/a
106.724	0.12	213448	keystroke	u	n/a
106.889	0.12	213778	keystroke	z	n/a
107.084	0.165	214168	keystroke	z	n/a
107.279	0.06	214558	keystroke	y	n/a
107.804	0.15	215608	keystroke	Key.enter	n/a
107.961	8.4855	215922	prompt	n/a	shuttle trainer whom'st trackbacks\n
108.554	0.12	217108	keystroke	s	n/a
108.689	0.105	217378	keystroke	h	n/a
108.899	0.105	217798	keystroke	u	n/a
108.989	0.09	217978	keystroke	t	n/a
109.169	0.135	218338	keystroke	t	n/a
109.349	0.15	218698	keystroke	l	n/a
109.484	0.12	218968	keystroke	e	n/a
109.619	0.18	219238	keystroke	Key.space	n/a
109.889	0.15	219778	keystroke	t	n/a
110.145	0.179	220290	keystroke	r	n/a
110.22	0.224	220440	keystroke	a	n/a
110.415	0.269	220830	keystroke	i	n/a
110.549	0.15	221098	keystroke	n	n/a
110.714	0.135	221428	keystroke	e	n/a
110.804	0.165	221608	keystroke	r	n/a
110.954	0.15	221908	keystroke	Key.space	n/a
111.119	0.105	222238	keystroke	w	n/a
111.255	0.15	222510	keystroke	h	n/a
111.344	0.225	222688	keystroke	o	n/a
111.524	0.165	223048	keystroke	m	n/a
112.184	0.015	224368	keystroke	'	n/a
112.529	0.18	225058	keystroke	s	n/a
112.694	0.12	225388	keystroke	t	n/a
112.889	0.15	225778	keystroke	Key.space	n/a
113.144	0.135	226288	keystroke	t	n/a
113.384	0.165	226768	keystroke	r	n/a
113.52	0.179	227040	keystroke	a	n/a
113.789	0.12	227578	keystroke	c	n/a
113.969	0.09	227938	keystroke	k	n/a
114.164	0.091	228328	keystroke	s	n/a
114.599	0.105	229198	keystroke	Key.backspace	n/a
114.87	0.149	229740	keystroke	b	n/a
115.139	0.226	230278	keystroke	a	n/a
115.619	0.151	231238	keystroke	c	n/a
115.784	0.09	231568	keystroke	k	n/a
115.919	0.105	231838	keystroke	s	n/a
116.309	0.135	232618	keystroke	Key.enter	n/a
116.4515	5.696	232903	prompt	n/a	teachers baseball daily plans\n
117.195	0.18	234390	keystroke	t	n/a
117.329	0.2255	234658	keystroke	e	n/a
117.4795	0.18	234959	keystroke	a	n/a
117.6745	0.15	235349	keystroke	c	n/a
117.7945	0.12	235589	keystroke	h	n/a
117.9295	0.195	235859	keystroke	e	n/a
118.0645	0.165	236129	keystroke	r	n/a
118.2445	0.135	236489	keystroke	Key.space	n/a
118.5145	0.105	237029	keystroke	b	n/a
118.5745	0.24	237149	keystroke	a	n/a
118.7545	0.165	237509	keystroke	s	n/a
118.8595	0.165	237719	keystroke	e	n/a
119.2045	0.15	238409	keystroke	b	n/a
119.3395	0.18	238679	keystroke	a	n/a
119.5045	0.06	239009	keystroke	l	n/a
119.6395	0.135	239279	keystroke	l	n/a
119.7895	0.15	239579	keystroke	Key.space	n/a
119.8645	0.24	239729	keystroke	d	n/a
120.1345	0.18	240269	keystroke	a	n/a
120.2845	0.165	240569	keystroke	i	n/a
120.4195	0.15	240839	keystroke	l	n/a
120.7645	0.015	241529	keystroke	y	n/a
120.7945	0.135	241589	keystroke	Key.space	n/a
120.9305	0.179	241861	keystroke	p	n/a
121.2445	0.15	242489	keystroke	l	n/a
121.3795	0.15	242759	keystroke	a	n/a
121.5445	0.105	243089	keystroke	n	n/a
121.7995	0.105	243599	keystroke	s	n/a
122.0395	0.105	244079	keystroke	Key.enter	n/a
122.152	8.694	244304	prompt	n/a	transparent carol stop threatening\n
122.6995	0.15	245399	keystroke	t	n/a
123.0895	0.195	246179	keystroke	r	n/a
123.2695	0.165	246539	keystroke	a	n/a
123.4495	0.135	246899	keystroke	n	n/a
123.6145	0.135	247229	keystroke	s	n/a
123.9895	0.135	247979	keystroke	p	n/a
124.1395	0.24	248279	keystroke	a	n/a
124.3345	0.135	248669	keystroke	r	n/a
124.6345	0.135	249269	keystroke	e	n/a
124.7995	0.105	249599	keystroke	n	n/a
124.9195	0.075	249839	keystroke	t	n/a
125.0395	0.12	250079	keystroke	Key.space	n/a
125.2195	0.21	250439	keystroke	c	n/a
125.3995	0.21	250799	keystroke	a	n/a
125.5795	0.135	251159	keystroke	r	n/a
125.6995	0.09	251399	keystroke	o	n/a
125.8945	0.15	251789	keystroke	l	n/a
126.0445	0.195	252089	keystroke	Key.space	n/a
126.1045	0.21	252209	keystroke	s	n/a
126.2845	0.12	252569	keystroke	t	n/a
126.4795	0.165	252959	keystroke	o	n/a
126.5545	0.18	253109	keystroke	p	n/a
126.8395	0.135	253679	keystroke	Key.space	n/a
127.0195	0.12	254039	keystroke	t	n/a
127.5445	0.03	255089	keystroke	r	n/a
127.6495	0.12	255299	keystroke	h	n/a
127.9795	0.075	255959	keystroke	Key.backspace	n/a
128.0995	0.105	256199	keystroke	Key.backspace	n/a
128.3395	0.165	256679	keystroke	h	n/a
128.4595	0.15	256919	keystroke	r	n/a
128.5645	0.24	257129	keystroke	e	n/a
128.7445	0.225	257489	keystroke	a	n/a
128.9545	0.12	257909	keystroke	t	n/a
129.2395	0.165	258479	keystroke	e	n/a
129.3895	0.18	258779	keystroke	n	n/a
129.5545	0.24	259109	keystroke	i	n/a
129.6745	0.18	259349	keystroke	n	n/a
129.7795	0.21	259559	keystroke	g	n/a
129.9455	0.119	259891	keystroke	s	n/a
130.3795	0.135	260759	keystroke	Key.backspace	n/a
130.6945	0.15	261389	keystroke	Key.enter	n/a
130.852	7.7345	261704	prompt	n/a	overnight compiler desktops associated\n
131.6095	0.165	263219	keystroke	o	n/a
131.7445	0.165	263489	keystroke	v	n/a
131.9245	0.21	263849	keystroke	e	n/a
132.1045	0.12	264209	keystroke	r	n/a
132.3445	0.195	264689	keystroke	n	n/a
132.4945	0.18	264989	keystroke	i	n/a
132.6595	0.135	265319	keystroke	g	n/a
132.8095	0.105	265619	keystroke	h	n/a
132.9295	0.15	265859	keystroke	t	n/a
133.0945	0.135	266189	keystroke	Key.space	n/a
133.2755	0.149	266551	keystroke	c	n/a
133.3655	0.194	266731	keystroke	o	n/a
133.4395	0.165	266879	keystroke	m	n/a
133.6345	0.15	267269	keystroke	p	n/a
133.9345	0.181	267869	keystroke	i	n/a
134.0995	0.27	268199	keystroke	l	n/a
134.6395	0.21	269279	keystroke	e	n/a
134.8655	0.119	269731	keystroke	r	n/a
134.9995	0.15	269999	keystroke	Key.space	n/a
135.2105	0.134	270421	keystroke	d	n/a
135.4645	0.211	270929	keystroke	e	n/a
135.5995	0.15	271199	keystroke	s	n/a
135.7045	0.195	271409	keystroke	k	n/a
135.9445	0.12	271889	keystroke	t	n/a
136.0945	0.18	272189	keystroke	o	n/a
136.2145	0.18	272429	keystroke	p	n/a
136.3645	0.165	272729	keystroke	s	n/a
136.5895	0.135	273179	keystroke	Key.space	n/a
136.7095	0.27	273419	keystroke	a	n/a
136.9195	0.135	273839	keystroke	s	n/a
137.1295	0.105	274259	keystroke	s	n/a
137.2495	0.135	274499	keystroke	o	n/a
137.4445	0.151	274889	keystroke	c	n/a
137.5795	0.18	275159	keystroke	i	n/a
137.7295	0.165	275459	keystroke	a	n/a
137.9095	0.12	275819	keystroke	t	n/a
137.9845	0.165	275969	keystroke	e	n/a
138.2995	0.12	276599	keystroke	d	n/a
138.4195	0.165	276839	keystroke	Key.enter	n/a
138.5915	8.5295	277183	prompt	n/a	beat unsubscribe facilities simulations\n
139.2895	0.18	278579	keystroke	b	n/a
139.4395	0.12	278879	keystroke	e	n/a
139.4845	0.24	278969	keystroke	a	n/a
139.7095	0.12	279419	keystroke	t	n/a
139.8445	0.165	279689	keystroke	Key.space	n/a
140.2045	0.09	280409	keystroke	u	n/a
140.4145	0.12	280829	keystroke	n	n/a
140.7895	0.105	281579	keystroke	s	n/a
140.9845	0.105	281969	keystroke	u	n/a
141.2245	0.12	282449	keystroke	b	n/a
141.5405	0.179	283081	keystroke	s	n/a
141.7205	0.134	283441	keystroke	c	n/a
141.9745	0.105	283949	keystroke	r	n/a
142.0645	0.135	284129	keystroke	i	n/a
142.2895	0.105	284579	keystroke	b	n/a
142.4245	0.15	284849	keystroke	e	n/a
142.5895	0.1195	285179	keystroke	Key.space	n/a
142.7245	0.18	285449	keystroke	f	n/a
142.829	0.225	285658	keystroke	a	n/a
143.1595	0.1345	286319	keystroke	c	n/a
143.3395	0.1795	286679	keystroke	i	n/a
143.534	0.1815	287068	keystroke	l	n/a
143.685	0.194	287370	keystroke	i	n/a
144.105	0.135	288210	keystroke	t	n/a
144.314	0.105	288628	keystroke	i	n/a
144.42	0.195	288840	keystroke	e	n/a
144.524	0.181	289048	keystroke	s	n/a
144.719	0.09	289438	keystroke	Key.space	n/a
145.514	0.196	291028	keystroke	s	n/a
145.619	0.166	291238	keystroke	i	n/a
145.724	0.136	291448	keystroke	m	n/a
145.995	0.179	291990	keystroke	u	n/a
146.084	0.195	292168	keystroke	l	n/a
146.234	0.18	292468	keystroke	a	n/a
146.369	0.15	292738	keystroke	t	n/a
146.475	0.104	292950	keystroke	i	n/a
146.535	0.209	293070	keystroke	o	n/a
146.639	0.195	293278	keystroke	n	n/a
146.789	0.12	293578	keystroke	s	n/a
146.999	0.12	293998	keystroke	Key.enter	n/a
147.1275	4.9145	294255	prompt	n/a	thee copying holy ride\n
147.884	0.105	295768	keystroke	t	n/a
147.974	0.106	295948	keystroke	h	n/a
148.304	0.151	296608	keystroke	r	n/a
148.394	0.166	296788	keystroke	e	n/a
148.635	0.119	297270	keystroke	e	n/a
148.784	0.12	297568	keystroke	Key.space	n/a
148.905	0.164	297810	keystroke	c	n/a
149.025	0.119	298050	keystroke	o	n/a
149.115	0.165	298230	keystroke	p	n/a
149.34	0.179	298680	keystroke	y	n/a
149.609	0.24	299218	keystroke	i	n/a
149.744	0.151	299488	keystroke	n	n/a
149.88	0.105	299760	keystroke	g	n/a
150.014	0.12	300028	keystroke	Key.space	n/a
150.285	0.15	300570	keystroke	h	n/a
150.36	0.119	300720	keystroke	o	n/a
150.585	0.104	301170	keystroke	l	n/a
150.839	0.091	301678	keystroke	y	n/a
151.034	0.12	302068	keystroke	Key.space	n/a
151.275	0.12	302550	keystroke	r	n/a
151.424	0.15	302848	keystroke	i	n/a
151.559	0.12	303118	keystroke	d	n/a
151.755	0.134	303510	keystroke	e	n/a
151.92	0.119	303840	keystroke	Key.enter	n/a
152.0485	6.473	304097	prompt	n/a	condo marketing consultancy roller\n
152.94	0.15	305880	keystroke	c	n/a
153.135	0.18	306270	keystroke	o	n/a
153.225	0.165	306450	keystroke	n	n/a
153.36	0.089	306720	keystroke	d	n/a
153.524	0.166	307048	keystroke	o	n/a
153.675	0.134	307350	keystroke	Key.space	n/a
153.885	0.12	307770	keystroke	m	n/a
153.99	0.195	307980	keystroke	a	n/a
154.17	0.165	308340	keystroke	r	n/a
154.439	0.121	308878	keystroke	k	n/a
154.575	0.164	309150	keystroke	e	n/a
154.785	0.135	309570	keystroke	t	n/a
155.055	0.255	310110	keystroke	i	n/a
155.235	0.105	310470	keystroke	n	n/a
155.355	0.12	310710	keystroke	g	n/a
155.519	0.135	311038	keystroke	Key.space	n/a
155.685	0.164	311370	keystroke	c	n/a
155.82	0.21	311640	keystroke	o	n/a
155.925	0.119	311850	keystroke	n	n/a
156.09	0.165	312180	keystroke	s	n/a
156.39	0.165	312780	keystroke	u	n/a
156.51	0.195	313020	keystroke	l	n/a
156.66	0.165	313320	keystroke	t	n/a
156.81	0.165	313620	keystroke	a	n/a
156.96	0.135	313920	keystroke	n	n/a
157.11	0.105	314220	keystroke	c	n/a
157.29	0.105	314580	keystroke	y	n/a
157.455	0.149	314910	keystroke	Key.space	n/a
157.59	0.135	315180	keystroke	r	n/a
157.71	0.12	315420	keystroke	o	n/a
157.905	0.105	315810	keystroke	l	n/a
158.07	0.12	316140	keystroke	l	n/a
158.205	0.12	316410	keystroke	e	n/a
158.295	0.135	316590	keystroke	r	n/a
158.37	0.15	316740	keystroke	Key.enter	n/a
158.5255	6.671	317051	prompt	n/a	to've vampire reveal informative\n
159.27	0.105	318540	keystroke	t	n/a
159.345	0.135	318690	keystroke	o	n/a
159.54	0.165	319080	keystroke	'	n/a
159.675	0.15	319350	keystroke	v	n/a
159.81	0.12	319620	keystroke	e	n/a
159.945	0.15	319890	keystroke	Key.space	n/a
160.08	0.21	320160	keystroke	v	n/a
160.275	0.225	320550	keystroke	a	n/a
160.515	0.15	321030	keystroke	m	n/a
160.65	0.165	321300	keystroke	p	n/a
160.815	0.165	321630	keystroke	i	n/a
160.965	0.12	321930	keystroke	r	n/a
161.01	0.18	322020	keystroke	e	n/a
161.175	0.135	322350	keystroke	Key.space	n/a
161.52	0.18	323040	keystroke	r	n/a
161.625	0.15	323250	keystroke	e	n/a
161.88	0.195	323760	keystroke	v	n/a
162.09	0.225	324180	keystroke	e	n/a
162.255	0.225	324510	keystroke	a	n/a
162.54	0.135	325080	keystroke	l	n/a
162.72	0.165	325440	keystroke	Key.space	n/a
162.87	0.24	325740	keystroke	i	n/a
163.005	0.12	326010	keystroke	n	n/a
163.14	0.105	326280	keystroke	f	n/a
163.26	0.165	326520	keystroke	o	n/a
163.395	0.135	326790	keystroke	r	n/a
163.545	0.105	327090	keystroke	m	n/a
163.665	0.21	327330	keystroke	a	n/a
163.83	0.105	327660	keystroke	t	n/a
163.95	0.165	327900	keystroke	i	n/a
164.67	0.15	329340	keystroke	v	n/a
164.85	0.18	329700	keystroke	e	n/a
165.09	0.105	330180	keystroke	Key.enter	n/a
165.2015	5.655	330403	prompt	n/a	depending particles crops loan\n
165.9	0.15	331800	keystroke	d	n/a
166.17	0.105	332340	keystroke	e	n/a
166.26	0.15	332520	keystroke	p	n/a
166.395	0.12	332790	keystroke	e	n/a
166.575	0.135	333150	keystroke	n	n/a
166.755	0.165	333510	keystroke	d	n/a
166.95	0.255	333900	keystroke	i	n/a
167.07	0.15	334140	keystroke	n	n/a
167.235	0.12	334470	keystroke	g	n/a
167.34	0.12	334680	keystroke	Key.space	n/a
167.52	0.165	335040	keystroke	p	n/a
167.64	0.18	335280	keystroke	a	n/a
167.73	0.135	335460	keystroke	r	n/a
167.97	0.09	335940	keystroke	t	n/a
168.105	0.15	336210	keystroke	i	n/a
168.24	0.18	336480	keystroke	c	n/a
168.405	0.18	336810	keystroke	l	n/a
168.525	0.21	337050	keystroke	e	n/a
168.675	0.15	337350	keystroke	s	n/a
168.81	0.15	337620	keystroke	Key.space	n/a
169.035	0.18	338070	keystroke	c	n/a
169.395	0.12	338790	keystroke	r	n/a
169.53	0.15	339060	keystroke	o	n/a
169.635	0.18	339270	keystroke	p	n/a
169.785	0.105	339570	keystroke	s	n/a
169.95	0.12	339900	keystroke	Key.space	n/a
170.055	0.105	340110	keystroke	l	n/a
170.235	0.165	340470	keystroke	o	n/a
170.355	0.165	340710	keystroke	a	n/a
170.505	0.135	341010	keystroke	n	n/a
170.79	0.06	341580	keystroke	Key.enter	n/a
170.8565	5.321	341713	prompt	n/a	pins spare featuring colony\n
171.495	0.135	342990	keystroke	p	n/a
171.675	0.255	343350	keystroke	i	n/a
171.81	0.15	343620	keystroke	n	n/a
171.945	0.105	343890	keystroke	s	n/a
172.17	0.105	344340	keystroke	Key.space	n/a
172.32	0.12	344640	keystroke	s	n/a
172.455	0.165	344910	keystroke	p	n/a
172.621	0.164	345242	keystroke	a	n/a
172.74	0.15	345480	keystroke	r	n/a
172.845	0.165	345690	keystroke	e	n/a
173.025	0.165	346050	keystroke	Key.space	n/a
173.34	0.18	346680	keystroke	f	n/a
173.49	0.225	346980	keystroke	e	n/a
173.655	0.21	347310	keystroke	a	n/a
173.82	0.15	347640	keystroke	t	n/a
173.97	0.135	347940	keystroke	u	n/a
174.135	0.135	348270	keystroke	r	n/a
174.225	0.255	348450	keystroke	i	n/a
174.39	0.12	348780	keystroke	n	n/a
174.525	0.12	349050	keystroke	g	n/a
174.675	0.12	349350	keystroke	Key.space	n/a
174.84	0.135	349680	keystroke	c	n/a
174.96	0.135	349920	keystroke	o	n/a
175.155	0.12	350310	keystroke	l	n/a
175.365	0.24	350730	keystroke	o	n/a
175.515	0.135	351030	keystroke	n	n/a
175.785	0.15	351570	keystroke	y	n/a
176.085	0.09	352170	keystroke	Key.enter	n/a
176.183	8.3195	352366	prompt	n/a	portland teaches dist tribal\n
176.88	0.165	353760	keystroke	p	n/a
176.985	0.225	353970	keystroke	o	n/a
177.165	0.15	354330	keystroke	r	n/a
177.42	0.18	354840	keystroke	t	n/a
177.66	0.12	355320	keystroke	l	n/a
177.765	0.135	355530	keystroke	a	n/a
177.96	0.135	355920	keystroke	n	n/a
178.08	0.09	356160	keystroke	d	n/a
178.23	0.135	356460	keystroke	Key.space	n/a
178.56	0.15	357120	keystroke	t	n/a
178.68	0.195	357360	keystroke	e	n/a
178.8	0.225	357600	keystroke	a	n/a
179.055	0.135	358110	keystroke	c	n/a
179.205	0.15	358410	keystroke	h	n/a
179.505	0.135	359010	keystroke	e	n/a
180.135	0.12	360270	keystroke	s	n/a
180.36	0.15	360720	keystroke	Key.space	n/a
180.63	0.15	361260	keystroke	d	n/a
180.765	0.15	361530	keystroke	i	n/a
180.96	0.21	361920	keystroke	s	n/a
181.14	0.135	362280	keystroke	t	n/a
181.26	0.165	362520	keystroke	Key.space	n/a
181.68	0.12	363360	keystroke	t	n/a
181.905	0.12	363810	keystroke	r	n/a
182.04	0.18	364080	keystroke	i	n/a
182.52	0.105	365040	keystroke	s	n/a
182.745	0.135	365490	keystroke	b	n/a
183.075	0.075	366150	keystroke	Key.backspace	n/a
183.225	0.075	366450	keystroke	Key.backspace	n/a
183.78	0.105	367560	keystroke	b	n/a
183.915	0.18	367830	keystroke	a	n/a
184.08	0.12	368160	keystroke	l	n/a
184.365	0.135	368730	keystroke	Key.enter	n/a
184.507	7.255	369014	prompt	n/a	writings rally university notion\n
185.1445	0.1955	370289	keystroke	w	n/a
185.34	0.166	370680	keystroke	r	n/a
185.52	0.15	371040	keystroke	i	n/a
185.655	0.135	371310	keystroke	t	n/a
185.775	0.255	371550	keystroke	i	n/a
185.925	0.135	371850	keystroke	n	n/a
186.045	0.135	372090	keystroke	g	n/a
186.33	0.135	372660	keystroke	Key.space	n/a
186.525	0.1645	373050	keystroke	r	n/a
186.66	0.165	373320	keystroke	a	n/a
186.7495	0.1055	373499	keystroke	l	n/a
186.915	0.1045	373830	keystroke	l	n/a
187.11	0.1345	374220	keystroke	y	n/a
187.2295	0.1055	374459	keystroke	Key.space	n/a
187.425	0.0895	374850	keystroke	u	n/a
187.7245	0.1955	375449	keystroke	n	n/a
187.8895	0.165	375779	keystroke	i	n/a
188.0845	0.135	376169	keystroke	v	n/a
188.2495	0.21	376499	keystroke	e	n/a
188.4295	0.18	376859	keystroke	r	n/a
188.5495	0.045	377099	keystroke	s	n/a
188.6245	0.18	377249	keystroke	s	n/a
188.8945	0.18	377789	keystroke	i	n/a
189.1045	0.15	378209	keystroke	t	n/a
189.4195	0.075	378839	keystroke	Key.backspace	n/a
189.555	0.0745	379110	keystroke	Key.backspace	n/a
189.7045	0.105	379409	keystroke	Key.backspace	n/a
190.0495	0.165	380099	keystroke	i	n/a
190.2295	0.135	380459	keystroke	t	n/a
190.3945	0.09	380789	keystroke	y	n/a
190.6945	0.105	381389	keystroke	Key.space	n/a
190.9195	0.165	381839	keystroke	n	n/a
191.0095	0.18	382019	keystroke	o	n/a
191.1755	0.119	382351	keystroke	t	n/a
191.2495	0.165	382499	keystroke	i	n/a
191.3705	0.149	382741	keystroke	o	n/a
191.4745	0.15	382949	keystroke	n	n/a
191.6545	0.105	383309	keystroke	Key.enter	n/a
191.767	9.7145	383534	prompt	n/a	which's examinations many moldova\n
193.6195	0.15	387239	keystroke	w	n/a
193.8145	0.18	387629	keystroke	h	n/a
193.8895	0.196	387779	keystroke	i	n/a
194.0695	0.15	388139	keystroke	c	n/a
194.2945	0.135	388589	keystroke	h	n/a
194.5645	0.15	389129	keystroke	'	n/a
194.7745	0.135	389549	keystroke	s	n/a
194.9545	0.15	389909	keystroke	Key.space	n/a
195.0895	0.12	390179	keystroke	e	n/a
195.4345	0.105	390869	keystroke	x	n/a
195.7945	0.151	391589	keystroke	c	n/a
196.1845	0.12	392369	keystroke	Key.backspace	n/a
196.2895	0.21	392579	keystroke	a	n/a
196.6795	0.135	393359	keystroke	m	n/a
196.8445	0.21	393689	keystroke	i	n/a
196.9495	0.165	393899	keystroke	n	n/a
197.0695	0.195	394139	keystroke	a	n/a
197.2345	0.12	394469	keystroke	t	n/a
197.3095	0.135	394619	keystroke	i	n/a
197.3845	0.18	394769	keystroke	o	n/a
197.4895	0.165	394979	keystroke	n	n/a
197.5945	0.135	395189	keystroke	s	n/a
197.7445	0.135	395489	keystroke	Key.space	n/a
197.9395	0.166	395879	keystroke	m	n/a
198.0895	0.12	396179	keystroke	a	n/a
198.2395	0.105	396479	keystroke	n	n/a
198.4805	0.104	396961	keystroke	y	n/a
198.6145	0.225	397229	keystroke	Key.space	n/a
199.0055	0.12	398011	keystroke	m	n/a
199.1555	0.03	398311	keystroke	a	n/a
199.2905	0.105	398581	keystroke	o	n/a
199.5745	0.075	399149	keystroke	Key.backspace	n/a
199.6945	0.105	399389	keystroke	Key.backspace	n/a
199.9945	0.12	399989	keystroke	o	n/a
200.2195	0.12	400439	keystroke	l	n/a
200.3695	0.121	400739	keystroke	d	n/a
200.6695	0.135	401339	keystroke	o	n/a
200.8805	0.164	401761	keystroke	v	n/a
200.9695	0.195	401939	keystroke	a	n/a
201.3745	0.105	402749	keystroke	Key.enter	n/a
201.486	6.536	402972	prompt	n/a	instruments clouds risk promo\n
202.0805	0.24	404161	keystroke	i	n/a
202.1845	0.121	404369	keystroke	n	n/a
202.2895	0.18	404579	keystroke	s	n/a
202.4705	0.135	404941	keystroke	t	n/a
202.6505	0.135	405301	keystroke	u	n/a
202.7245	0.076	405449	keystroke	r	n/a
203.0695	0.075	406139	keystroke	Key.backspace	n/a
203.2045	0.105	406409	keystroke	Key.backspace	n/a
203.3255	0.119	406651	keystroke	r	n/a
203.5345	0.105	407069	keystroke	u	n/a
203.8195	0.136	407639	keystroke	m	n/a
203.9705	0.105	407941	keystroke	e	n/a
204.0755	0.135	408151	keystroke	n	n/a
204.2255	0.164	408451	keystroke	t	n/a
204.3305	0.165	408661	keystroke	s	n/a
204.4795	0.121	408959	keystroke	Key.space	n/a
204.6305	0.135	409261	keystroke	c	n/a
204.7355	0.09	409471	keystroke	l	n/a
204.9305	0.195	409861	keystroke	o	n/a
205.0655	0.135	410131	keystroke	u	n/a
205.1705	0.149	410341	keystroke	d	n/a
205.2605	0.165	410521	keystroke	s	n/a
205.5145	0.18	411029	keystroke	Key.space	n/a
205.7105	0.12	411421	keystroke	r	n/a
205.8755	0.119	411751	keystroke	i	n/a
206.1305	0.195	412261	keystroke	s	n/a
206.3855	0.12	412771	keystroke	k	n/a
206.6395	0.121	413279	keystroke	Key.space	n/a
207.0905	0.18	414181	keystroke	p	n/a
207.2855	0.09	414571	keystroke	r	n/a
207.4055	0.15	414811	keystroke	o	n/a
207.5405	0.179	415081	keystroke	m	n/a
207.6305	0.165	415261	keystroke	o	n/a
207.9145	0.105	415829	keystroke	Key.enter	n/a
208.0275	9.896	416055	prompt	n/a	liverpool candidate deliver jaguar\n
208.7255	0.195	417451	keystroke	l	n/a
208.9505	0.165	417901	keystroke	i	n/a
209.1305	0.15	418261	keystroke	f	n/a
209.3705	0.24	418741	keystroke	3	n/a
209.5955	0.105	419191	keystroke	4	n/a
209.8645	0.076	419729	keystroke	Key.backspace	n/a
210.0155	0.12	420031	keystroke	Key.backspace	n/a
210.6005	0.119	421201	keystroke	Key.backspace	n/a
210.7955	0.119	421591	keystroke	v	n/a
211.0205	0.27	422041	keystroke	e	n/a
211.2305	0.149	422461	keystroke	r	n/a
211.5155	0.165	423031	keystroke	p	n/a
211.6355	0.165	423271	keystroke	o	n/a
211.9205	0.075	423841	keystroke	o	n/a
212.1005	0.135	424201	keystroke	l	n/a
212.2655	0.15	424531	keystroke	Key.space	n/a
212.5355	0.195	425071	keystroke	c	n/a
212.6855	0.165	425371	keystroke	a	n/a
212.8355	0.135	425671	keystroke	n	n/a
212.9855	0.105	425971	keystroke	d	n/a
213.3155	0.135	426631	keystroke	i	n/a
213.5255	0.105	427051	keystroke	d	n/a
213.7355	0.3	427471	keystroke	a	n/a
214.0205	0.165	428041	keystroke	t	n/a
214.1255	0.18	428251	keystroke	e	n/a
214.3645	0.136	428729	keystroke	Key.space	n/a
214.8605	0.09	429721	keystroke	d	n/a
215.0705	0.135	430141	keystroke	e	n/a
215.1755	0.15	430351	keystroke	l	n/a
215.2505	0.18	430501	keystroke	i	n/a
215.3855	0.18	430771	keystroke	v	n/a
215.5805	0.195	431161	keystroke	e	n/a
215.7455	0.12	431491	keystroke	r	n/a
215.8355	0.135	431671	keystroke	Key.space	n/a
216.0305	0.105	432061	keystroke	j	n/a
216.1505	0.165	432301	keystroke	a	n/a
216.5555	0.09	433111	keystroke	u	n/a
216.9455	0.105	433891	keystroke	Key.backspace	n/a
217.0355	0.135	434071	keystroke	g	n/a
217.2005	0.165	434401	keystroke	u	n/a
217.3805	0.225	434761	keystroke	a	n/a
217.5605	0.135	435121	keystroke	r	n/a
217.8155	0.105	435631	keystroke	Key.enter	n/a
217.928	7.434	435856	prompt	n/a	shareware query available to've\n
218.6855	0.18	437371	keystroke	s	n/a
218.8205	0.135	437641	keystroke	h	n/a
218.9705	0.225	437941	keystroke	a	n/a
219.1805	0.135	438361	keystroke	r	n/a
219.2705	0.135	438541	keystroke	e	n/a
219.5105	0.165	439021	keystroke	w	n/a
219.6305	0.195	439261	keystroke	a	n/a
219.8105	0.15	439621	keystroke	r	n/a
219.9155	0.1795	439831	keystroke	e	n/a
220.08	0.15	440160	keystroke	Key.space	n/a
220.47	0.18	440940	keystroke	q	n/a
220.695	0.135	441390	keystroke	u	n/a
220.815	0.165	441630	keystroke	e	n/a
220.935	0.15	441870	keystroke	r	n/a
221.07	0.105	442140	keystroke	y	n/a
221.235	0.15	442470	keystroke	Key.space	n/a
221.4	0.165	442800	keystroke	a	n/a
221.835	0.12	443670	keystroke	l	n/a
222.15	0.12	444300	keystroke	Key.backspace	n/a
222.24	0.165	444480	keystroke	v	n/a
222.45	0.03	444900	keystroke	l	n/a
222.615	0.15	445230	keystroke	a	n/a
222.855	0.075	445710	keystroke	Key.backspace	n/a
222.99	0.12	445980	keystroke	Key.backspace	n/a
223.125	0.225	446250	keystroke	a	n/a
223.32	0.195	446640	keystroke	i	n/a
223.44	0.21	446880	keystroke	l	n/a
223.695	0.165	447390	keystroke	a	n/a
223.905	0.165	447810	keystroke	b	n/a
224.025	0.195	448050	keystroke	l	n/a
224.175	0.12	448350	keystroke	e	n/a
224.28	0.165	448560	keystroke	Key.space	n/a
224.475	0.135	448950	keystroke	t	n/a
224.58	0.15	449160	keystroke	o	n/a
224.805	0.15	449610	keystroke	'	n/a
224.925	0.15	449850	keystroke	v	n/a
225.045	0.135	450090	keystroke	e	n/a
225.24	0.12	450480	keystroke	Key.enter	n/a
225.3685	6.5485	450737	prompt	n/a	bands call costume recycling\n
226.935	0.135	453870	keystroke	b	n/a
227.01	0.165	454020	keystroke	a	n/a
227.205	0.195	454410	keystroke	n	n/a
227.34	0.075	454680	keystroke	d	n/a
227.64	0.165	455280	keystroke	s	n/a
227.94	0.15	455880	keystroke	Key.space	n/a
228.105	0.165	456210	keystroke	c	n/a
228.195	0.18	456390	keystroke	a	n/a
228.315	0.09	456630	keystroke	l	n/a
228.48	0.165	456960	keystroke	l	n/a
228.6	0.195	457200	keystroke	Key.space	n/a
228.96	0.105	457920	keystroke	c	n/a
229.08	0.18	458160	keystroke	o	n/a
229.215	0.165	458430	keystroke	s	n/a
229.395	0.135	458790	keystroke	t	n/a
229.5	0.105	459000	keystroke	u	n/a
229.74	0.105	459480	keystroke	m	n/a
229.83	0.105	459660	keystroke	e	n/a
229.995	0.15	459990	keystroke	Key.space	n/a
230.1	0.15	460200	keystroke	r	n/a
230.22	0.165	460440	keystroke	e	n/a
230.49	0.165	460980	keystroke	c	n/a
230.76	0.135	461520	keystroke	y	n/a
231.075	0.165	462150	keystroke	c	n/a
231.18	0.225	462360	keystroke	l	n/a
231.3	0.225	462600	keystroke	i	n/a
231.42	0.135	462840	keystroke	n	n/a
231.57	0.12	463140	keystroke	g	n/a
231.78	0.135	463560	keystroke	Key.enter	n/a
231.9215	6.91	463843	prompt	n/a	misc official objectives goes\n
232.575	0.165	465150	keystroke	m	n/a
232.71	0.165	465420	keystroke	i	n/a
232.815	0.12	465630	keystroke	s	n/a
232.98	0.15	465960	keystroke	c	n/a
233.145	0.135	466290	keystroke	Key.space	n/a
233.325	0.165	466650	keystroke	o	n/a
233.445	0.12	466890	keystroke	f	n/a
233.625	0.105	467250	keystroke	f	n/a
233.775	0.135	467550	keystroke	i	n/a
233.895	0.165	467790	keystroke	c	n/a
234.03	0.165	468060	keystroke	i	n/a
234.15	0.165	468300	keystroke	a	n/a
234.285	0.15	468570	keystroke	l	n/a
234.45	0.135	468900	keystroke	Key.space	n/a
234.6	0.18	469200	keystroke	o	n/a
234.75	0.105	469500	keystroke	b	n/a
234.99	0.135	469980	keystroke	j	n/a
235.08	0.27	470160	keystroke	e	n/a
235.275	0.195	470550	keystroke	s	n/a
235.545	0.195	471090	keystroke	c	n/a
235.995	0.105	471990	keystroke	Key.backspace	n/a
236.205	0.075	472410	keystroke	Key.backspace	n/a
237.105	0.135	474210	keystroke	c	n/a
237.39	0.135	474780	keystroke	t	n/a
237.51	0.15	475020	keystroke	i	n/a
237.645	0.225	475290	keystroke	v	n/a
237.81	0.18	475620	keystroke	e	n/a
237.915	0.165	475830	keystroke	s	n/a
238.02	0.165	476040	keystroke	Key.space	n/a
238.23	0.12	476460	keystroke	g	n/a
238.335	0.135	476670	keystroke	o	n/a
238.485	0.12	476970	keystroke	e	n/a
238.56	0.15	477120	keystroke	s	n/a
238.68	0.15	477360	keystroke	Key.enter	n/a
238.836	8.2615	477672	prompt	n/a	americans brooklyn johns psychology\n
239.565	0.135	479130	keystroke	a	n/a
239.685	0.12	479370	keystroke	m	n/a
239.865	0.12	479730	keystroke	e	n/a
239.955	0.12	479910	keystroke	r	n/a
240.09	0.18	480180	keystroke	i	n/a
240.271	0.194	480542	keystroke	c	n/a
240.375	0.21	480750	keystroke	a	n/a
240.555	0.12	481110	keystroke	n	n/a
240.81	0.135	481620	keystroke	s	n/a
241.02	0.105	482040	keystroke	Key.space	n/a
241.245	0.135	482490	keystroke	b	n/a
241.395	0.135	482790	keystroke	r	n/a
241.5	0.105	483000	keystroke	o	n/a
241.681	0.194	483362	keystroke	o	n/a
241.8	0.15	483600	keystroke	k	n/a
242.385	0.165	484770	keystroke	l	n/a
242.715	0.075	485430	keystroke	y	n/a
242.925	0.105	485850	keystroke	n	n/a
243.255	0.09	486510	keystroke	Key.space	n/a
244.11	0.195	488220	keystroke	j	n/a
244.29	0.195	488580	keystroke	o	n/a
244.455	0.12	488910	keystroke	h	n/a
244.665	0.12	489330	keystroke	n	n/a
244.8	0.105	489600	keystroke	s	n/a
244.935	0.135	489870	keystroke	Key.space	n/a
245.145	0.225	490290	keystroke	p	n/a
245.356	0.119	490712	keystroke	s	n/a
245.49	0.105	490980	keystroke	y	n/a
245.835	0.135	491670	keystroke	c	n/a
245.955	0.165	491910	keystroke	h	n/a
246.06	0.12	492120	keystroke	o	n/a
246.285	0.09	492570	keystroke	l	n/a
246.45	0.18	492900	keystroke	o	n/a
246.66	0.12	493320	keystroke	g	n/a
246.765	0.105	493530	keystroke	y	n/a
246.96	0.135	493920	keystroke	Key.enter	n/a
247.1025	5.32	494205	prompt	n/a	lance fake caution friendship\n
247.695	0.135	495390	keystroke	l	n/a
247.815	0.136	495630	keystroke	a	n/a
247.965	0.09	495930	keystroke	n	n/a
248.085	0.15	496170	keystroke	c	n/a
248.16	0.18	496320	keystroke	e	n/a
248.325	0.135	496650	keystroke	Key.space	n/a
248.565	0.225	497130	keystroke	f	n/a
248.715	0.225	497430	keystroke	a	n/a
248.91	0.135	497820	keystroke	k	n/a
249.06	0.12	498120	keystroke	e	n/a
249.21	0.12	498420	keystroke	Key.space	n/a
249.315	0.21	498630	keystroke	c	n/a
249.421	0.269	498842	keystroke	a	n/a
249.765	0.136	499530	keystroke	u	n/a
249.975	0.151	499950	keystroke	t	n/a
250.126	0.134	500252	keystroke	i	n/a
250.215	0.18	500430	keystroke	o	n/a
250.335	0.135	500670	keystroke	n	n/a
250.5	0.18	501000	keystroke	Key.space	n/a
250.665	0.106	501330	keystroke	f	n/a
250.86	0.135	501720	keystroke	r	n/a
251.025	0.165	502050	keystroke	i	n/a
251.145	0.15	502290	keystroke	e	n/a
251.31	0.15	502620	keystroke	n	n/a
251.476	0.119	502952	keystroke	d	n/a
251.656	0.209	503312	keystroke	s	n/a
251.805	0.135	503610	keystroke	h	n/a
251.88	0.135	503760	keystroke	i	n/a
251.985	0.136	503970	keystroke	p	n/a
252.285	0.135	504570	keystroke	Key.enter	n/a
252.438	10.919	504876	prompt	n/a	expand damages techrepublic composer\n
252.916	0.104	505832	keystroke	e	n/a
253.17	0.15	506340	keystroke	x	n/a
253.351	0.165	506702	keystroke	p	n/a
253.471	0.149	506942	keystroke	a	n/a
253.665	0.12	507330	keystroke	n	n/a
253.801	0.104	507602	keystroke	d	n/a
253.935	0.12	507870	keystroke	Key.space	n/a
254.206	0.165	508412	keystroke	d	n/a
254.356	0.195	508712	keystroke	a	n/a
254.566	0.119	509132	keystroke	m	n/a
254.64	0.226	509280	keystroke	a	n/a
254.926	0.15	509852	keystroke	g	n/a
255.031	0.269	510062	keystroke	e	n/a
255.27	0.165	510540	keystroke	s	n/a
255.51	0.15	511020	keystroke	Key.space	n/a
255.766	0.165	511532	keystroke	t	n/a
255.99	0.12	511980	keystroke	e	n/a
256.335	0.12	512670	keystroke	c	n/a
256.486	0.12	512972	keystroke	h	n/a
256.846	0.164	513692	keystroke	r	n/a
256.951	0.239	513902	keystroke	e	n/a
257.161	0.239	514322	keystroke	s	n/a
257.551	0.134	515102	keystroke	p	n/a
257.88	0.045	515760	keystroke	Key.backspace	n/a
258.66	0.12	517320	keystroke	Key.backspace	n/a
259.185	0.151	518370	keystroke	p	n/a
259.276	0.134	518552	keystroke	u	n/a
259.531	0.15	519062	keystroke	b	n/a
259.755	0.181	519510	keystroke	l	n/a
259.846	0.165	519692	keystroke	i	n/a
260.026	0.15	520052	keystroke	c	n/a
260.19	0.12	520380	keystroke	Key.space	n/a
260.431	0.165	520862	keystroke	c	n/a
260.521	0.18	521042	keystroke	o	n/a
260.61	0.136	521220	keystroke	m	n/a
260.986	0.225	521972	keystroke	p	n/a
261.181	0.105	522362	keystroke	u	n/a
261.481	0.12	522962	keystroke	s	n/a
261.75	0.076	523500	keystroke	Key.backspace	n/a
261.901	0.089	523802	keystroke	Key.backspace	n/a
262.141	0.195	524282	keystroke	o	n/a
262.276	0.164	524552	keystroke	s	n/a
262.666	0.21	525332	keystroke	e	n/a
262.846	0.135	525692	keystroke	r	n/a
263.221	0.134	526442	keystroke	Key.enter	n/a
263.367	7.6405	526734	prompt	n/a	attempt continent public rebate\n
264.0605	0.1505	528121	keystroke	a	n/a
264.2255	0.1055	528451	keystroke	t	n/a
264.4355	0.21	528871	keystroke	t	n/a
264.4505	0.06	528901	keystroke	e	n/a
265.0505	0.134	530101	keystroke	e	n/a
265.3205	0.105	530641	keystroke	m	n/a
265.5745	0.076	531149	keystroke	Key.backspace	n/a
265.7395	0.075	531479	keystroke	Key.backspace	n/a
265.9655	0.15	531931	keystroke	m	n/a
266.1755	0.15	532351	keystroke	p	n/a
266.3265	0.149	532653	keystroke	t	n/a
266.5055	0.165	533011	keystroke	Key.space	n/a
266.6555	0.165	533311	keystroke	c	n/a
266.7905	0.21	533581	keystroke	o	n/a
266.9255	0.135	533851	keystroke	n	n/a
267.0755	0.104	534151	keystroke	t	n/a
267.2705	0.195	534541	keystroke	i	n/a
267.3905	0.135	534781	keystroke	n	n/a
267.5255	0.15	535051	keystroke	e	n/a
267.8255	0.09	535651	keystroke	n	n/a
268.1105	0.135	536221	keystroke	t	n/a
268.3505	0.135	536701	keystroke	Key.space	n/a
268.7845	0.196	537569	keystroke	p	n/a
268.9355	0.12	537871	keystroke	u	n/a
269.1905	0.135	538381	keystroke	b	n/a
269.3105	0.18	538621	keystroke	l	n/a
269.4155	0.15	538831	keystroke	i	n/a
269.5355	0.15	539071	keystroke	c	n/a
269.6705	0.135	539341	keystroke	Key.space	n/a
269.8355	0.165	539671	keystroke	r	n/a
269.9405	0.18	539881	keystroke	e	n/a
270.1655	0.135	540331	keystroke	b	n/a
270.3305	0.15	540661	keystroke	a	n/a
270.4655	0.165	540931	keystroke	t	n/a
270.6005	0.135	541201	keystroke	e	n/a
270.8855	0.12	541771	keystroke	Key.enter	n/a
271.013	7.419	542026	prompt	n/a	characterized shot recording guide\n
271.5905	0.225	543181	keystroke	c	n/a
271.7105	0.12	543421	keystroke	h	n/a
271.8755	0.1505	543751	keystroke	a	n/a
271.9955	0.18	543991	keystroke	r	n/a
272.1155	0.135	544231	keystroke	a	n/a
272.4305	0.15	544861	keystroke	z	n/a
272.8205	0.015	545641	keystroke	t	n/a
273.0305	0.09	546061	keystroke	Key.backspace	n/a
273.2105	0.12	546421	keystroke	Key.backspace	n/a
273.2855	0.18	546571	keystroke	c	n/a
273.7205	0.15	547441	keystroke	t	n/a
274.0205	0.195	548041	keystroke	e	n/a
274.1705	0.165	548341	keystroke	r	n/a
274.3205	0.15	548641	keystroke	i	n/a
274.5155	0.165	549031	keystroke	z	n/a
274.7105	0.165	549421	keystroke	e	n/a
274.9955	0.12	549991	keystroke	d	n/a
275.1305	0.105	550261	keystroke	Key.space	n/a
275.2505	0.135	550501	keystroke	s	n/a
275.3705	0.135	550741	keystroke	h	n/a
275.4605	0.18	550921	keystroke	o	n/a
275.6105	0.135	551221	keystroke	t	n/a
275.7605	0.165	551521	keystroke	Key.space	n/a
275.9405	0.18	551881	keystroke	r	n/a
276.0305	0.21	552061	keystroke	e	n/a
276.2555	0.18	552511	keystroke	c	n/a
276.4655	0.18	552931	keystroke	o	n/a
276.6305	0.12	553261	keystroke	r	n/a
276.8405	0.165	553681	keystroke	d	n/a
277.066	0.2245	554132	keystroke	i	n/a
277.2005	0.12	554401	keystroke	n	n/a
277.3355	0.09	554671	keystroke	g	n/a
277.4405	0.12	554881	keystroke	Key.space	n/a
277.7555	0.12	555511	keystroke	g	n/a
277.8605	0.105	555721	keystroke	u	n/a
277.9055	0.195	555811	keystroke	i	n/a
278.0555	0.12	556111	keystroke	d	n/a
278.2505	0.135	556501	keystroke	e	n/a
278.3105	0.12	556621	keystroke	Key.enter	n/a
278.436	6.432	556872	prompt	n/a	luck youth dial hearing\n
280.6685	0.087	561337	keystroke	l	n/a
280.8155	0.135	561631	keystroke	u	n/a
280.9805	0.135	561961	keystroke	c	n/a
281.3705	0.12	562741	keystroke	k	n/a
281.6255	0.12	563251	keystroke	Key.space	n/a
281.8205	0.12	563641	keystroke	y	n/a
281.9415	0.209	563883	keystroke	o	n/a
282.0605	0.135	564121	keystroke	u	n/a
282.2105	0.15	564421	keystroke	t	n/a
282.3155	0.12	564631	keystroke	h	n/a
282.4655	0.15	564931	keystroke	Key.space	n/a
282.6305	0.12	565261	keystroke	d	n/a
282.7205	0.15	565441	keystroke	i	n/a
282.8405	0.21	565681	keystroke	a	n/a
282.9905	0.135	565981	keystroke	l	n/a
283.1105	0.105	566221	keystroke	Key.space	n/a
283.2755	0.15	566551	keystroke	h	n/a
283.4405	0.18	566881	keystroke	e	n/a
283.5605	0.21	567121	keystroke	r	n/a
283.9655	0.12	567931	keystroke	Key.backspace	n/a
284.0705	0.165	568141	keystroke	a	n/a
284.1605	0.15	568321	keystroke	r	n/a
284.2955	0.24	568591	keystroke	i	n/a
284.4455	0.135	568891	keystroke	n	n/a
284.6255	0.12	569251	keystroke	g	n/a
284.7305	0.135	569461	keystroke	Key.enter	n/a
284.8715	7.3015	569743	prompt	n/a	receptor differently clearing controller\n
285.4655	0.15	570931	keystroke	r	n/a
285.5405	0.225	571081	keystroke	e	n/a
285.8555	0.225	571711	keystroke	c	n/a
286.0055	0.195	572011	keystroke	e	n/a
286.4855	0.165	572971	keystroke	p	n/a
286.7255	0.12	573451	keystroke	t	n/a
286.9355	0.15	573871	keystroke	o	n/a
287.0705	0.135	574141	keystroke	r	n/a
287.2505	0.15	574501	keystroke	Key.space	n/a
287.4305	0.165	574861	keystroke	d	n/a
287.5805	0.15	575161	keystroke	i	n/a
287.7005	0.165	575401	keystroke	f	n/a
287.9555	0.21	575911	keystroke	f	n/a
288.1355	0.135	576271	keystroke	e	n/a
288.2855	0.195	576571	keystroke	r	n/a
288.4205	0.135	576841	keystroke	e	n/a
288.5705	0.135	577141	keystroke	n	n/a
288.7205	0.12	577441	keystroke	t	n/a
288.8705	0.105	577741	keystroke	l	n/a
289.0655	0.105	578131	keystroke	y	n/a
289.1855	0.165	578371	keystroke	Key.space	n/a
289.3355	0.195	578671	keystroke	c	n/a
289.4555	0.195	578911	keystroke	l	n/a
289.5455	0.24	579091	keystroke	e	n/a
289.7405	0.27	579481	keystroke	a	n/a
289.9505	0.135	579901	keystroke	r	n/a
290.0405	0.18	580081	keystroke	i	n/a
290.1305	0.12	580261	keystroke	n	n/a
290.2805	0.135	580561	keystroke	g	n/a
290.4455	0.15	580891	keystroke	Key.space	n/a
290.6105	0.18	581221	keystroke	c	n/a
290.7305	0.195	581461	keystroke	o	n/a
290.8355	0.15	581671	keystroke	n	n/a
290.9705	0.12	581941	keystroke	t	n/a
291.1655	0.165	582331	keystroke	r	n/a
291.2555	0.12	582511	keystroke	o	n/a
291.4805	0.09	582961	keystroke	l	n/a
291.6155	0.15	583231	keystroke	l	n/a
291.7505	0.165	583501	keystroke	e	n/a
291.8705	0.12	583741	keystroke	r	n/a
292.0505	0.12	584101	keystroke	Key.enter	n/a
292.1775	5.3355	584355	prompt	n/a	perth cable nights copying\n
292.8305	0.15	585661	keystroke	p	n/a
292.9505	0.15	585901	keystroke	e	n/a
293.0705	0.12	586141	keystroke	r	n/a
293.2955	0.12	586591	keystroke	t	n/a
293.4305	0.09	586861	keystroke	h	n/a
293.5505	0.135	587101	keystroke	Key.space	n/a
293.7005	0.18	587401	keystroke	c	n/a
293.7755	0.165	587551	keystroke	a	n/a
293.9555	0.15	587911	keystroke	b	n/a
294.0605	0.165	588121	keystroke	l	n/a
294.1805	0.165	588361	keystroke	e	n/a
294.3905	0.09	588781	keystroke	Key.space	n/a
294.9455	0.165	589891	keystroke	n	n/a
295.1255	0.15	590251	keystroke	i	n/a
295.2605	0.135	590521	keystroke	g	n/a
295.3805	0.12	590761	keystroke	h	n/a
295.5155	0.225	591031	keystroke	t	n/a
295.7115	0.239	591423	keystroke	s	n/a
295.9655	0.165	591931	keystroke	Key.space	n/a
296.3405	0.15	592681	keystroke	c	n/a
296.4605	0.21	592921	keystroke	o	n/a
296.6405	0.165	593281	keystroke	p	n/a
296.8205	0.165	593641	keystroke	y	n/a
297.0455	0.21	594091	keystroke	i	n/a
297.1955	0.105	594391	keystroke	n	n/a
297.2705	0.12	594541	keystroke	g	n/a
297.4205	0.09	594841	keystroke	Key.enter	n/a
297.5175	5.4855	595035	prompt	n/a	skating fans compromise scary\n
298.0355	0.135	596071	keystroke	s	n/a
298.1105	0.18	596221	keystroke	k	n/a
298.2605	0.225	596521	keystroke	a	n/a
298.4555	0.135	596911	keystroke	t	n/a
298.5755	0.24	597151	keystroke	i	n/a
298.6805	0.12	597361	keystroke	n	n/a
298.8015	0.104	597603	keystroke	g	n/a
298.9505	0.135	597901	keystroke	Key.space	n/a
299.0705	0.195	598141	keystroke	f	n/a
299.1605	0.21	598321	keystroke	a	n/a
299.3555	0.135	598711	keystroke	n	n/a
299.5355	0.105	599071	keystroke	s	n/a
299.7455	0.135	599491	keystroke	Key.space	n/a
299.9855	0.135	599971	keystroke	c	n/a
300.0605	0.15	600121	keystroke	o	n/a
300.1505	0.15	600301	keystroke	m	n/a
300.3155	0.165	600631	keystroke	p	n/a
300.5105	0.15	601021	keystroke	r	n/a
300.6305	0.165	601261	keystroke	o	n/a
300.7655	0.195	601531	keystroke	m	n/a
300.9305	0.165	601861	keystroke	i	n/a
301.0515	0.209	602103	keystroke	s	n/a
301.1555	0.15	602311	keystroke	e	n/a
301.3655	0.135	602731	keystroke	Key.space	n/a
301.5905	0.135	603181	keystroke	c	n/a
301.9055	0.12	603811	keystroke	Key.backspace	n/a
301.9955	0.18	603991	keystroke	s	n/a
302.1455	0.195	604291	keystroke	c	n/a
302.3105	0.226	604621	keystroke	a	n/a
302.5505	0.12	605101	keystroke	r	n/a
302.6255	0.091	605251	keystroke	y	n/a
302.8805	0.12	605761	keystroke	Key.enter	n/a
303.0085	7.044	606017	prompt	n/a	roberts forum cloudy professor\n
304.8315	0.119	609663	keystroke	r	n/a
304.9355	0.12	609871	keystroke	o	n/a
305.1465	0.105	610293	keystroke	b	n/a
305.2355	0.135	610471	keystroke	e	n/a
305.3415	0.089	610683	keystroke	r	n/a
305.6405	0.225	611281	keystroke	t	n/a
305.8055	0.166	611611	keystroke	s	n/a
306.1055	0.12	612211	keystroke	Key.space	n/a
306.2855	0.105	612571	keystroke	f	n/a
306.4205	0.15	612841	keystroke	o	n/a
306.5255	0.135	613051	keystroke	r	n/a
306.6755	0.105	613351	keystroke	u	n/a
306.9005	0.121	613801	keystroke	m	n/a
307.0655	0.12	614131	keystroke	Key.space	n/a
307.2305	0.18	614461	keystroke	c	n/a
307.3055	0.135	614611	keystroke	l	n/a
307.6805	0.045	615361	keystroke	o	n/a
307.6965	0.119	615393	keystroke	u	n/a
307.8165	0.104	615633	keystroke	d	n/a
307.9805	0.136	615961	keystroke	y	n/a
308.1755	0.135	616351	keystroke	Key.space	n/a
308.4165	0.134	616833	keystroke	p	n/a
308.5355	0.12	617071	keystroke	r	n/a
308.6715	0.12	617343	keystroke	o	n/a
308.8515	0.284	617703	keystroke	f	n/a
309.0755	0.196	618151	keystroke	e	n/a
309.2115	0.134	618423	keystroke	s	n/a
309.4205	0.135	618841	keystroke	s	n/a
309.6155	0.15	619231	keystroke	o	n/a
309.7505	0.105	619501	keystroke	r	n/a
309.9455	0.105	619891	keystroke	Key.enter	n/a
310.0595	6.968	620119	prompt	n/a	nirvana classification title opera\n
310.6215	0.074	621243	keystroke	r	n/a
310.9205	0.105	621841	keystroke	Key.backspace	n/a
311.1915	0.18	622383	keystroke	n	n/a
311.3105	0.165	622621	keystroke	i	n/a
311.4915	0.105	622983	keystroke	r	n/a
311.8355	0.211	623671	keystroke	v	n/a
311.9555	0.195	623911	keystroke	a	n/a
312.2255	0.1205	624451	keystroke	n	n/a
312.361	0.164	624722	keystroke	a	n/a
312.75	0.1355	625500	keystroke	Key.space	n/a
312.8865	0.149	625773	keystroke	c	n/a
313.0965	0.165	626193	keystroke	l	n/a
313.2005	0.2695	626401	keystroke	a	n/a
313.366	0.15	626732	keystroke	s	n/a
313.591	0.164	627182	keystroke	s	n/a
313.815	0.136	627630	keystroke	i	n/a
313.966	0.135	627932	keystroke	f	n/a
314.146	0.15	628292	keystroke	i	n/a
314.265	0.2105	628530	keystroke	c	n/a
314.4155	0.226	628831	keystroke	a	n/a
314.6415	0.119	629283	keystroke	t	n/a
314.7765	0.12	629553	keystroke	i	n/a
314.8505	0.166	629701	keystroke	o	n/a
314.9865	0.165	629973	keystroke	n	n/a
315.1205	0.18	630241	keystroke	Key.space	n/a
315.361	0.119	630722	keystroke	t	n/a
315.466	0.135	630932	keystroke	i	n/a
315.602	0.119	631204	keystroke	t	n/a
315.735	0.151	631470	keystroke	l	n/a
315.871	0.135	631742	keystroke	e	n/a
316.02	0.135	632040	keystroke	Key.space	n/a
316.275	0.136	632550	keystroke	o	n/a
316.366	0.18	632732	keystroke	p	n/a
316.501	0.18	633002	keystroke	e	n/a
316.651	0.165	633302	keystroke	r	n/a
316.741	0.165	633482	keystroke	a	n/a
316.89	0.135	633780	keystroke	Key.enter	n/a
317.0315	12.5075	634063	prompt	n/a	statistics firms woods rates\n
319.355	0.086	638710	keystroke	s	n/a
319.456	0.195	638912	keystroke	t	n/a
319.621	0.195	639242	keystroke	a	n/a
319.861	0.135	639722	keystroke	t	n/a
320.236	0.135	640472	keystroke	i	n/a
320.356	0.165	640712	keystroke	s	n/a
320.701	0.105	641402	keystroke	i	n/a
320.986	0.135	641972	keystroke	t	n/a
321.466	0.105	642932	keystroke	i	n/a
321.616	0.165	643232	keystroke	c	n/a
321.706	0.15	643412	keystroke	s	n/a
321.931	0.105	643862	keystroke	Key.space	n/a
322.546	0.045	645092	keystroke	Key.backspace	n/a
322.666	0.06	645332	keystroke	Key.backspace	n/a
322.801	0.075	645602	keystroke	Key.backspace	n/a
322.981	0.06	645962	keystroke	Key.backspace	n/a
323.146	0.075	646292	keystroke	Key.backspace	n/a
323.311	0.105	646622	keystroke	Key.backspace	n/a
323.536	0.105	647072	keystroke	Key.backspace	n/a
324.046	0.18	648092	keystroke	s	n/a
324.436	0.06	648872	keystroke	i	n/a
324.481	0.09	648962	keystroke	t	n/a
324.736	0.075	649472	keystroke	Key.backspace	n/a
324.886	0.12	649772	keystroke	Key.backspace	n/a
324.991	0.09	649982	keystroke	t	n/a
325.231	0.135	650462	keystroke	i	n/a
325.441	0.165	650882	keystroke	c	n/a
325.711	0.12	651422	keystroke	s	n/a
325.951	0.09	651902	keystroke	Key.space	n/a
326.791	0.12	653582	keystroke	f	n/a
326.896	0.15	653792	keystroke	i	n/a
327.061	0.135	654122	keystroke	r	n/a
327.196	0.12	654392	keystroke	m	n/a
327.301	0.135	654602	keystroke	s	n/a
327.466	0.135	654932	keystroke	Key.space	n/a
327.586	0.15	655172	keystroke	w	n/a
327.751	0.09	655502	keystroke	o	n/a
327.916	0.15	655832	keystroke	o	n/a
328.036	0.165	656072	keystroke	d	n/a
328.156	0.165	656312	keystroke	s	n/a
328.336	0.135	656672	keystroke	Key.space	n/a
328.576	0.24	657152	keystroke	r	n/a
328.756	0.225	657512	keystroke	a	n/a
328.966	0.18	657932	keystroke	t	n/a
329.071	0.21	658142	keystroke	e	n/a
329.221	0.165	658442	keystroke	s	n/a
329.416	0.12	658832	keystroke	Key.enter	n/a
329.544	9.7745	659088	prompt	n/a	civil economic songs barriers\n
331.441	0.18	662882	keystroke	c	n/a
331.561	0.18	663122	keystroke	i	n/a
331.876	0.135	663752	keystroke	v	n/a
332.026	0.15	664052	keystroke	i	n/a
332.416	0.06	664832	keystroke	a	n/a
332.851	0.075	665702	keystroke	Key.backspace	n/a
333.151	0.075	666302	keystroke	l	n/a
333.301	0.15	666602	keystroke	Key.space	n/a
333.961	0.12	667922	keystroke	e	n/a
334.186	0.165	668372	keystroke	c	n/a
334.336	0.225	668672	keystroke	o	n/a
334.486	0.15	668972	keystroke	n	n/a
335.401	0.135	670802	keystroke	m	n/a
335.746	0.09	671492	keystroke	Key.backspace	n/a
336.001	0.225	672002	keystroke	o	n/a
336.136	0.21	672272	keystroke	m	n/a
336.316	0.151	672632	keystroke	i	n/a
336.451	0.165	672902	keystroke	c	n/a
336.601	0.135	673202	keystroke	Key.space	n/a
336.751	0.135	673502	keystroke	s	n/a
336.856	0.195	673712	keystroke	o	n/a
336.961	0.15	673922	keystroke	n	n/a
337.066	0.18	674132	keystroke	g	n/a
337.186	0.165	674372	keystroke	s	n/a
337.411	0.12	674822	keystroke	Key.space	n/a
337.681	0.15	675362	keystroke	b	n/a
337.801	0.18	675602	keystroke	a	n/a
337.906	0.12	675812	keystroke	r	n/a
338.116	0.09	676232	keystroke	r	n/a
338.221	0.165	676442	keystroke	i	n/a
338.356	0.285	676712	keystroke	e	n/a
338.551	0.165	677102	keystroke	r	n/a
338.641	0.18	677282	keystroke	s	n/a
339.181	0.135	678362	keystroke	Key.enter	n/a
339.3235	5.3645	678647	prompt	n/a	plane picture fonts part\n
340.051	0.15	680102	keystroke	p	n/a
340.321	0.15	680642	keystroke	l	n/a
340.472	0.134	680944	keystroke	a	n/a
340.591	0.15	681182	keystroke	n	n/a
340.742	0.134	681484	keystroke	e	n/a
340.861	0.12	681722	keystroke	Key.space	n/a
341.131	0.195	682262	keystroke	p	n/a
341.281	0.15	682562	keystroke	i	n/a
341.401	0.165	682802	keystroke	c	n/a
341.671	0.135	683342	keystroke	t	n/a
341.821	0.15	683642	keystroke	u	n/a
341.941	0.15	683882	keystroke	r	n/a
342.046	0.165	684092	keystroke	e	n/a
342.226	0.135	684452	keystroke	Key.space	n/a
342.601	0.15	685202	keystroke	f	n/a
342.736	0.225	685472	keystroke	o	n/a
342.856	0.135	685712	keystroke	n	n/a
343.006	0.18	686012	keystroke	t	n/a
343.111	0.18	686222	keystroke	s	n/a
343.306	0.12	686612	keystroke	Key.space	n/a
343.5755	0.165	687151	keystroke	p	n/a
343.7105	0.2255	687421	keystroke	a	n/a
343.861	0.15	687722	keystroke	r	n/a
344.101	0.1045	688202	keystroke	t	n/a
344.5355	0.1505	689071	keystroke	Key.enter	n/a
344.693	6.7155	689386	prompt	n/a	proceeding arrived holland informative\n
345.406	0.135	690812	keystroke	p	n/a
345.511	0.135	691022	keystroke	r	n/a
345.661	0.135	691322	keystroke	o	n/a
345.781	0.18	691562	keystroke	c	n/a
345.931	0.135	691862	keystroke	e	n/a
346.171	0.12	692342	keystroke	e	n/a
346.426	0.165	692852	keystroke	d	n/a
346.576	0.255	693152	keystroke	i	n/a
346.696	0.12	693392	keystroke	n	n/a
346.801	0.135	693602	keystroke	g	n/a
346.951	0.15	693902	keystroke	Key.space	n/a
347.0855	0.2105	694171	keystroke	a	n/a
347.206	0.12	694412	keystroke	r	n/a
347.401	0.12	694802	keystroke	r	n/a
347.581	0.165	695162	keystroke	i	n/a
347.761	0.135	695522	keystroke	v	n/a
347.881	0.15	695762	keystroke	e	n/a
348.166	0.135	696332	keystroke	d	n/a
348.3015	0.0895	696603	keystroke	Key.space	n/a
348.466	0.15	696932	keystroke	h	n/a
348.541	0.12	697082	keystroke	o	n/a
348.7505	0.0905	697501	keystroke	l	n/a
348.8855	0.135	697771	keystroke	l	n/a
349.0055	0.135	698011	keystroke	a	n/a
349.2005	0.135	698401	keystroke	n	n/a
349.321	0.1495	698642	keystroke	d	n/a
349.4855	0.12	698971	keystroke	Key.space	n/a
349.6505	0.21	699301	keystroke	i	n/a
349.756	0.1195	699512	keystroke	n	n/a
349.8765	0.149	699753	keystroke	f	n/a
350.0105	0.165	700021	keystroke	o	n/a
350.1455	0.135	700291	keystroke	r	n/a
350.2955	0.15	700591	keystroke	m	n/a
350.4305	0.21	700861	keystroke	a	n/a
350.566	0.1495	701132	keystroke	t	n/a
350.7305	0.1355	701461	keystroke	i	n/a
350.8955	0.1955	701791	keystroke	v	n/a
351.0605	0.135	702121	keystroke	e	n/a
351.3155	0.09	702631	keystroke	Key.enter	n/a
351.4145	7.8085	702829	prompt	n/a	agent terry strap vision\n
352.6205	0.195	705241	keystroke	q	n/a
353.0705	0.12	706141	keystroke	t	n/a
353.5055	0.09	707011	keystroke	Key.backspace	n/a
353.6855	0.135	707371	keystroke	Key.backspace	n/a
354.0755	0.195	708151	keystroke	a	n/a
354.2855	0.045	708571	keystroke	a	n/a
354.3455	0.15	708691	keystroke	g	n/a
354.5105	0.12	709021	keystroke	e	n/a
354.6455	0.075	709291	keystroke	n	n/a
354.8855	0.075	709771	keystroke	Key.backspace	n/a
355.0355	0.06	710071	keystroke	Key.backspace	n/a
355.1855	0.075	710371	keystroke	Key.backspace	n/a
355.3355	0.12	710671	keystroke	Key.backspace	n/a
355.5005	0.135	711001	keystroke	g	n/a
355.6805	0.12	711361	keystroke	e	n/a
355.8305	0.12	711661	keystroke	n	n/a
355.9805	0.135	711961	keystroke	t	n/a
356.1755	0.12	712351	keystroke	Key.space	n/a
356.4305	0.15	712861	keystroke	t	n/a
356.5505	0.18	713101	keystroke	e	n/a
356.7155	0.09	713431	keystroke	r	n/a
356.8805	0.136	713761	keystroke	r	n/a
356.9855	0.09	713971	keystroke	y	n/a
357.1505	0.135	714301	keystroke	Key.space	n/a
357.2705	0.165	714541	keystroke	s	n/a
357.4055	0.12	714811	keystroke	t	n/a
357.6155	0.18	715231	keystroke	r	n/a
357.7205	0.195	715441	keystroke	a	n/a
357.8855	0.135	715771	keystroke	p	n/a
358.0505	0.135	716101	keystroke	Key.space	n/a
358.1705	0.12	716341	keystroke	v	n/a
358.3355	0.12	716671	keystroke	i	n/a
358.4855	0.105	716971	keystroke	s	n/a
358.5915	0.179	717183	keystroke	i	n/a
358.7555	0.18	717511	keystroke	o	n/a
358.8755	0.18	717751	keystroke	n	n/a
359.0705	0.15	718141	keystroke	Key.enter	n/a
359.2285	7.5255	718457	prompt	n/a	beyond repair belong handling\n
359.8205	0.12	719641	keystroke	b	n/a
359.8505	0.18	719701	keystroke	e	n/a
360.0905	0.165	720181	keystroke	y	n/a
360.2405	0.225	720481	keystroke	o	n/a
360.3905	0.135	720781	keystroke	n	n/a
360.4955	0.135	720991	keystroke	d	n/a
360.6315	0.119	721263	keystroke	Key.space	n/a
361.1255	0.09	722251	keystroke	Key.backspace	n/a
361.516	0.075	723032	keystroke	Key.space	n/a
361.816	0.135	723632	keystroke	r	n/a
361.891	0.255	723782	keystroke	e	n/a
362.161	0.165	724322	keystroke	p	n/a
362.626	0.165	725252	keystroke	a	n/a
362.806	0.12	725612	keystroke	i	n/a
362.941	0.105	725882	keystroke	r	n/a
363.571	0.105	727142	keystroke	Key.space	n/a
363.841	0.09	727682	keystroke	b	n/a
363.946	0.12	727892	keystroke	e	n/a
364.036	0.12	728072	keystroke	l	n/a
364.246	0.18	728492	keystroke	o	n/a
364.336	0.15	728672	keystroke	n	n/a
364.411	0.135	728822	keystroke	g	n/a
364.531	0.09	729062	keystroke	Key.space	n/a
364.696	0.135	729392	keystroke	h	n/a
364.801	0.12	729602	keystroke	a	n/a
364.981	0.165	729962	keystroke	n	n/a
365.461	0.105	730922	keystroke	l	n/a
365.776	0.075	731552	keystroke	Key.backspace	n/a
365.926	0.135	731852	keystroke	d	n/a
366.046	0.24	732092	keystroke	l	n/a
366.226	0.195	732452	keystroke	i	n/a
366.346	0.135	732692	keystroke	n	n/a
366.496	0.09	732992	keystroke	g	n/a
366.646	0.105	733292	keystroke	Key.enter	n/a
366.759	6.0235	733518	prompt	n/a	grades weak moments slot\n
367.321	0.12	734642	keystroke	g	n/a
367.576	0.165	735152	keystroke	r	n/a
367.681	0.135	735362	keystroke	a	n/a
367.936	0.09	735872	keystroke	d	n/a
368.116	0.21	736232	keystroke	e	n/a
368.251	0.135	736502	keystroke	s	n/a
368.401	0.12	736802	keystroke	Key.space	n/a
368.476	0.18	736952	keystroke	w	n/a
368.596	0.225	737192	keystroke	e	n/a
368.761	0.195	737522	keystroke	a	n/a
368.926	0.15	737852	keystroke	k	n/a
369.586	0.105	739172	keystroke	Key.space	n/a
369.781	0.15	739562	keystroke	m	n/a
369.976	0.18	739952	keystroke	o	n/a
370.081	0.18	740162	keystroke	m	n/a
370.246	0.135	740492	keystroke	e	n/a
370.396	0.12	740792	keystroke	n	n/a
370.531	0.225	741062	keystroke	t	n/a
370.771	0.15	741542	keystroke	s	n/a
371.011	0.12	742022	keystroke	Key.space	n/a
371.356	0.06	742712	keystroke	l	n/a
371.446	0.105	742892	keystroke	s	n/a
371.596	0.09	743192	keystroke	Key.backspace	n/a
371.716	0.12	743432	keystroke	Key.backspace	n/a
372.061	0.135	744122	keystroke	s	n/a
372.121	0.135	744242	keystroke	l	n/a
372.361	0.105	744722	keystroke	o	n/a
372.496	0.09	744992	keystroke	t	n/a
372.691	0.09	745382	keystroke	Key.enter	n/a
372.7865	8.5165	745573	prompt	n/a	specified framework postcard explain\n
373.411	0.135	746822	keystroke	s	n/a
373.546	0.135	747092	keystroke	p	n/a
373.636	0.12	747272	keystroke	e	n/a
373.816	0.195	747632	keystroke	c	n/a
374.116	0.105	748232	keystroke	i	n/a
374.236	0.12	748472	keystroke	f	n/a
374.371	0.135	748742	keystroke	i	n/a
374.491	0.12	748982	keystroke	e	n/a
374.761	0.09	749522	keystroke	d	n/a
374.881	0.12	749762	keystroke	Key.space	n/a
375.121	0.15	750242	keystroke	f	n/a
375.391	0.15	750782	keystroke	r	n/a
375.466	0.18	750932	keystroke	a	n/a
375.631	0.15	751262	keystroke	m	n/a
375.796	0.12	751592	keystroke	e	n/a
376.051	0.12	752102	keystroke	w	n/a
376.201	0.12	752402	keystroke	o	n/a
376.306	0.09	752612	keystroke	r	n/a
376.441	0.135	752882	keystroke	k	n/a
376.861	0.135	753722	keystroke	Key.space	n/a
377.071	0.135	754142	keystroke	p	n/a
377.236	0.165	754472	keystroke	r	n/a
377.371	0.15	754742	keystroke	o	n/a
377.566	0.105	755132	keystroke	s	n/a
377.836	0.06	755672	keystroke	Key.backspace	n/a
377.956	0.09	755912	keystroke	Key.backspace	n/a
378.091	0.105	756182	keystroke	Key.backspace	n/a
378.346	0.18	756692	keystroke	o	n/a
378.481	0.165	756962	keystroke	s	n/a
378.616	0.105	757232	keystroke	t	n/a
379.021	0.225	758042	keystroke	c	n/a
379.216	0.21	758432	keystroke	a	n/a
379.381	0.12	758762	keystroke	r	n/a
379.591	0.165	759182	keystroke	d	n/a
379.771	0.12	759542	keystroke	Key.space	n/a
379.892	0.134	759784	keystroke	e	n/a
380.176	0.135	760352	keystroke	x	n/a
380.281	0.135	760562	keystroke	p	n/a
380.521	0.165	761042	keystroke	l	n/a
380.687	0.194	761374	keystroke	a	n/a
380.866	0.21	761732	keystroke	i	n/a
380.986	0.12	761972	keystroke	n	n/a
381.196	0.105	762392	keystroke	Key.enter	n/a
381.3075	10.1355	762615	prompt	n/a	trash mixing confirmation adipex\n
384.019	0	768038	keystroke	t	n/a
384.136	0.06	768272	keystroke	t	n/a
384.481	0.105	768962	keystroke	Key.backspace	n/a
384.616	0.15	769232	keystroke	r	n/a
384.691	0.27	769382	keystroke	a	n/a
384.931	0.165	769862	keystroke	s	n/a
385.126	0.135	770252	keystroke	h	n/a
385.246	0.165	770492	keystroke	Key.space	n/a
385.456	0.256	770912	keystroke	m	n/a
385.621	0.15	771242	keystroke	i	n/a
385.696	0.18	771392	keystroke	x	n/a
386.447	0.165	772894	keystroke	i	n/a
386.686	0.075	773372	keystroke	n	n/a
386.821	0.09	773642	keystroke	g	n/a
387.016	0.09	774032	keystroke	Key.space	n/a
387.316	0.15	774632	keystroke	c	n/a
387.421	0.166	774842	keystroke	o	n/a
387.5265	0.1345	775053	keystroke	n	n/a
387.632	0.134	775264	keystroke	f	n/a
387.781	0.151	775562	keystroke	i	n/a
387.916	0.135	775832	keystroke	r	n/a
388.052	0.149	776104	keystroke	m	n/a
388.202	0.164	776404	keystroke	a	n/a
388.306	0.15	776612	keystroke	t	n/a
388.396	0.15	776792	keystroke	i	n/a
388.501	0.18	777002	keystroke	o	n/a
388.606	0.105	777212	keystroke	n	n/a
388.846	0.135	777692	keystroke	Key.space	n/a
388.951	0.135	777902	keystroke	a	n/a
389.431	0.165	778862	keystroke	p	n/a
389.686	0.105	779372	keystroke	i	n/a
389.821	0.105	779642	keystroke	d	n/a
390.076	0.135	780152	keystroke	e	n/a
390.991	0.165	781982	keystroke	x	n/a
391.306	0.135	782612	keystroke	Key.enter	n/a
391.455	9.0485	782910	prompt	n/a	manhattan brooklyn symposium territories\n
392.042	0.119	784084	keystroke	m	n/a
392.206	0.135	784412	keystroke	a	n/a
392.372	0.104	784744	keystroke	n	n/a
392.686	0.09	785372	keystroke	Key.backspace	n/a
393.106	0.135	786212	keystroke	n	n/a
393.452	0.089	786904	keystroke	h	n/a
393.542	0.18	787084	keystroke	a	n/a
393.781	0.091	787562	keystroke	t	n/a
393.976	0.15	787952	keystroke	t	n/a
394.066	0.196	788132	keystroke	a	n/a
394.246	0.135	788492	keystroke	n	n/a
394.366	0.12	788732	keystroke	Key.space	n/a
394.562	0.104	789124	keystroke	b	n/a
394.667	0.104	789334	keystroke	r	n/a
394.786	0.12	789572	keystroke	o	n/a
394.966	0.196	789932	keystroke	o	n/a
395.131	0.151	790262	keystroke	k	n/a
395.401	0.135	790802	keystroke	l	n/a
395.581	0.106	791162	keystroke	y	n/a
395.851	0.12	791702	keystroke	n	n/a
395.986	0.15	791972	keystroke	Key.space	n/a
396.151	0.105	792302	keystroke	s	n/a
396.287	0.09	792574	keystroke	y	n/a
396.557	0.074	793114	keystroke	m	n/a
396.871	0.166	793742	keystroke	p	n/a
397.111	0.121	794222	keystroke	o	n/a
397.576	0.121	795152	keystroke	s	n/a
397.711	0.15	795422	keystroke	i	n/a
397.936	0.09	795872	keystroke	u	n/a
398.176	0.105	796352	keystroke	m	n/a
398.356	0.135	796712	keystroke	Key.space	n/a
398.537	0.18	797074	keystroke	t	n/a
398.686	0.196	797372	keystroke	e	n/a
398.897	0.135	797794	keystroke	r	n/a
399.121	0.136	798242	keystroke	r	n/a
399.286	0.135	798572	keystroke	i	n/a
399.451	0.135	798902	keystroke	t	n/a
399.646	0.181	799292	keystroke	o	n/a
399.811	0.121	799622	keystroke	r	n/a
399.962	0.104	799924	keystroke	i	n/a
400.082	0.15	800164	keystroke	e	n/a
400.172	0.15	800344	keystroke	s	n/a
400.366	0.135	800732	keystroke	Key.enter	n/a
400.51	5.1535	801020	prompt	n/a	outer bobby impose exactly\n
401.072	0.149	802144	keystroke	o	n/a
401.162	0.119	802324	keystroke	u	n/a
401.266	0.166	802532	keystroke	t	n/a
401.417	0.224	802834	keystroke	e	n/a
401.597	0.135	803194	keystroke	r	n/a
401.716	0.105	803432	keystroke	Key.space	n/a
401.941	0.121	803882	keystroke	b	n/a
402.092	0.135	804184	keystroke	o	n/a
402.287	0.075	804574	keystroke	b	n/a
402.4215	0.09	804843	keystroke	b	n/a
402.6615	0.135	805323	keystroke	y	n/a
402.8865	0.165	805773	keystroke	Key.space	n/a
403.0815	0.21	806163	keystroke	i	n/a
403.1565	0.15	806313	keystroke	m	n/a
403.3215	0.18	806643	keystroke	p	n/a
403.4415	0.15	806883	keystroke	o	n/a
403.6065	0.18	807213	keystroke	s	n/a
403.7115	0.15	807423	keystroke	e	n/a
403.8765	0.1355	807753	keystroke	Key.space	n/a
404.0415	0.135	808083	keystroke	e	n/a
404.2965	0.21	808593	keystroke	x	n/a
404.551	0.27	809102	keystroke	a	n/a
404.791	0.135	809582	keystroke	c	n/a
405.061	0.12	810122	keystroke	t	n/a
405.166	0.1205	810332	keystroke	l	n/a
405.316	0.0905	810632	keystroke	y	n/a
405.511	0.15	811022	keystroke	Key.enter	n/a
405.6695	6.939	811339	prompt	n/a	timely champion obtained implications\n
406.261	0.12	812522	keystroke	t	n/a
406.336	0.21	812672	keystroke	i	n/a
406.456	0.15	812912	keystroke	m	n/a
406.621	0.12	813242	keystroke	e	n/a
406.756	0.135	813512	keystroke	l	n/a
406.996	0.12	813992	keystroke	y	n/a
407.131	0.12	814262	keystroke	Key.space	n/a
407.281	0.195	814562	keystroke	c	n/a
407.431	0.12	814862	keystroke	h	n/a
407.611	0.195	815222	keystroke	a	n/a
407.776	0.12	815552	keystroke	m	n/a
407.911	0.165	815822	keystroke	p	n/a
408.091	0.09	816182	keystroke	t	n/a
408.436	0.075	816872	keystroke	Key.backspace	n/a
408.676	0.195	817352	keystroke	i	n/a
408.841	0.195	817682	keystroke	o	n/a
408.976	0.15	817952	keystroke	n	n/a
409.111	0.135	818222	keystroke	Key.space	n/a
409.276	0.165	818552	keystroke	o	n/a
409.396	0.15	818792	keystroke	b	n/a
409.621	0.195	819242	keystroke	t	n/a
409.771	0.165	819542	keystroke	a	n/a
409.951	0.21	819902	keystroke	i	n/a
410.086	0.105	820172	keystroke	n	n/a
410.221	0.135	820442	keystroke	e	n/a
410.521	0.135	821042	keystroke	d	n/a
410.641	0.21	821282	keystroke	Key.space	n/a
410.821	0.21	821642	keystroke	i	n/a
410.941	0.12	821882	keystroke	m	n/a
411.106	0.18	822212	keystroke	p	n/a
411.331	0.18	822662	keystroke	l	n/a
411.451	0.135	822902	keystroke	i	n/a
411.571	0.18	823142	keystroke	c	n/a
411.661	0.24	823322	keystroke	a	n/a
411.886	0.1505	823772	keystroke	t	n/a
412.0215	0.12	824043	keystroke	i	n/a
412.0965	0.195	824193	keystroke	o	n/a
412.2315	0.135	824463	keystroke	n	n/a
412.3515	0.135	824703	keystroke	s	n/a
412.5015	0.105	825003	keystroke	Key.enter	n/a
412.6135	9.775	825227	prompt	n/a	differently expo erik albany\n
413.2065	0.03	826413	keystroke	t	n/a
413.4905	0.106	826981	keystroke	Key.backspace	n/a
413.7165	0.09	827433	keystroke	d	n/a
413.8515	0.09	827703	keystroke	i	n/a
413.8815	0.03	827763	keystroke	u	n/a
414.4815	0.105	828963	keystroke	Key.backspace	n/a
414.6315	0.165	829263	keystroke	f	n/a
414.8865	0.135	829773	keystroke	e	n/a
415.2765	0.09	830553	keystroke	Key.backspace	n/a
415.3965	0.165	830793	keystroke	f	n/a
415.5915	0.12	831183	keystroke	e	n/a
415.9965	0.15	831993	keystroke	r	n/a
416.3115	0.135	832623	keystroke	e	n/a
416.4765	0.105	832953	keystroke	n	n/a
416.6565	0.105	833313	keystroke	t	n/a
416.8065	0.12	833613	keystroke	l	n/a
417.0315	0.135	834063	keystroke	y	n/a
417.1515	0.18	834303	keystroke	Key.space	n/a
417.3015	0.12	834603	keystroke	e	n/a
417.6015	0.165	835203	keystroke	z	n/a
417.8265	0.165	835653	keystroke	p	n/a
418.1715	0.09	836343	keystroke	Key.backspace	n/a
418.3365	0.09	836673	keystroke	Key.backspace	n/a
418.3665	0.165	836733	keystroke	x	n/a
418.6665	0.21	837333	keystroke	p	n/a
418.8615	0.135	837723	keystroke	o	n/a
419.3415	0.12	838683	keystroke	Key.space	n/a
419.5965	0.195	839193	keystroke	e	n/a
419.7925	0.149	839585	keystroke	r	n/a
420.0015	0.135	840003	keystroke	i	n/a
420.4515	0.12	840903	keystroke	k	n/a
420.7965	0.12	841593	keystroke	Key.space	n/a
421.0515	0.135	842103	keystroke	a	n/a
421.1715	0.135	842343	keystroke	l	n/a
421.3965	0.12	842793	keystroke	b	n/a
421.5465	0.12	843093	keystroke	a	n/a
421.6815	0.12	843363	keystroke	n	n/a
421.9815	0.105	843963	keystroke	y	n/a
422.2665	0.12	844533	keystroke	Key.enter	n/a
422.3935	7.5855	844787	prompt	n/a	mixed attitudes sensitive soft\n
424.6995	0.057	849399	keystroke	m	n/a
424.8615	0.135	849723	keystroke	i	n/a
424.9215	0.135	849843	keystroke	x	n/a
425.1915	0.15	850383	keystroke	e	n/a
425.4915	0.15	850983	keystroke	d	n/a
425.6265	0.165	851253	keystroke	Key.space	n/a
425.7765	0.225	851553	keystroke	a	n/a
425.9865	0.105	851973	keystroke	t	n/a
426.1815	0.105	852363	keystroke	t	n/a
426.3465	0.165	852693	keystroke	i	n/a
426.4965	0.075	852993	keystroke	t	n/a
426.9165	0.12	853833	keystroke	u	n/a
427.0215	0.12	854043	keystroke	d	n/a
427.2465	0.195	854493	keystroke	e	n/a
427.3815	0.15	854763	keystroke	s	n/a
427.4865	0.135	854973	keystroke	Key.space	n/a
427.6365	0.21	855273	keystroke	s	n/a
427.7565	0.165	855513	keystroke	e	n/a
427.8915	0.135	855783	keystroke	n	n/a
428.0415	0.12	856083	keystroke	s	n/a
428.1765	0.105	856353	keystroke	i	n/a
428.4615	0.105	856923	keystroke	t	n/a
428.6115	0.135	857223	keystroke	i	n/a
428.7915	0.135	857583	keystroke	v	n/a
428.9115	0.15	857823	keystroke	e	n/a
429.0315	0.105	858063	keystroke	Key.space	n/a
429.2115	0.195	858423	keystroke	s	n/a
429.4215	0.15	858843	keystroke	o	n/a
429.5265	0.135	859053	keystroke	f	n/a
429.7365	0.1345	859473	keystroke	t	n/a
429.872	0.104	859744	keystroke	Key.enter	n/a
429.984	6.9995	859968	prompt	n/a	fire studied problem recorded\n
430.517	0.135	861034	keystroke	f	n/a
430.652	0.18	861304	keystroke	i	n/a
430.787	0.15	861574	keystroke	r	n/a
430.876	0.18	861752	keystroke	e	n/a
431.011	0.135	862022	keystroke	Key.space	n/a
431.266	0.106	862532	keystroke	s	n/a
431.416	0.091	862832	keystroke	u	n/a
431.522	0.105	863044	keystroke	d	n/a
431.822	0.089	863644	keystroke	i	n/a
432.091	0.06	864182	keystroke	Key.backspace	n/a
432.226	0.075	864452	keystroke	Key.backspace	n/a
432.377	0.119	864754	keystroke	Key.backspace	n/a
432.512	0.105	865024	keystroke	t	n/a
432.752	0.074	865504	keystroke	u	n/a
432.872	0.075	865744	keystroke	d	n/a
433.202	0.104	866404	keystroke	i	n/a
433.321	0.151	866642	keystroke	e	n/a
433.622	0.165	867244	keystroke	d	n/a
433.771	0.15	867542	keystroke	Key.space	n/a
434.072	0.18	868144	keystroke	p	n/a
434.237	0.134	868474	keystroke	r	n/a
434.342	0.12	868684	keystroke	o	n/a
434.552	0.134	869104	keystroke	b	n/a
434.672	0.194	869344	keystroke	l	n/a
434.837	0.15	869674	keystroke	e	n/a
434.957	0.12	869914	keystroke	m	n/a
435.106	0.12	870212	keystroke	Key.space	n/a
435.391	0.121	870782	keystroke	r	n/a
435.482	0.12	870964	keystroke	e	n/a
435.677	0.15	871354	keystroke	c	n/a
435.842	0.165	871684	keystroke	o	n/a
435.977	0.104	871954	keystroke	r	n/a
436.142	0.135	872284	keystroke	d	n/a
436.367	0.135	872734	keystroke	e	n/a
436.622	0.12	873244	keystroke	d	n/a
436.847	0.134	873694	keystroke	Key.enter	n/a
436.9875	4.496	873975	prompt	n/a	bare fall manage places\n
437.552	0.18	875104	keystroke	b	n/a
437.687	0.225	875374	keystroke	a	n/a
437.882	0.165	875764	keystroke	r	n/a
437.972	0.18	875944	keystroke	e	n/a
438.227	0.15	876454	keystroke	Key.space	n/a
438.392	0.165	876784	keystroke	f	n/a
438.497	0.18	876994	keystroke	a	n/a
438.632	0.075	877264	keystroke	l	n/a
438.782	0.105	877564	keystroke	l	n/a
438.916	0.166	877832	keystroke	Key.space	n/a
439.067	0.15	878134	keystroke	m	n/a
439.232	0.105	878464	keystroke	a	n/a
439.337	0.135	878674	keystroke	n	n/a
439.442	0.18	878884	keystroke	a	n/a
439.652	0.165	879304	keystroke	g	n/a
439.787	0.195	879574	keystroke	e	n/a
440.027	0.135	880054	keystroke	Key.space	n/a
440.341	0.121	880682	keystroke	p	n/a
440.597	0.135	881194	keystroke	l	n/a
440.687	0.225	881374	keystroke	a	n/a
440.897	0.165	881794	keystroke	c	n/a
441.002	0.18	882004	keystroke	e	n/a
441.122	0.15	882244	keystroke	s	n/a
441.347	0.135	882694	keystroke	Key.enter	n/a
441.4885	7.7205	882977	prompt	n/a	supervisor singer frequency atlanta\n
442.187	0.135	884374	keystroke	s	n/a
442.367	0.165	884734	keystroke	u	n/a
442.457	0.195	884914	keystroke	p	n/a
442.622	0.15	885244	keystroke	e	n/a
442.727	0.135	885454	keystroke	r	n/a
443.027	0.15	886054	keystroke	v	n/a
443.162	0.165	886324	keystroke	i	n/a
443.282	0.12	886564	keystroke	s	n/a
443.492	0.15	886984	keystroke	o	n/a
443.657	0.12	887314	keystroke	r	n/a
443.897	0.135	887794	keystroke	Key.space	n/a
444.332	0.15	888664	keystroke	s	n/a
444.422	0.225	888844	keystroke	i	n/a
444.557	0.12	889114	keystroke	n	n/a
444.662	0.15	889324	keystroke	g	n/a
444.857	0.21	889714	keystroke	e	n/a
444.962	0.195	889924	keystroke	r	n/a
445.127	0.15	890254	keystroke	Key.space	n/a
445.382	0.105	890764	keystroke	f	n/a
445.832	0.135	891664	keystroke	r	n/a
445.907	0.165	891814	keystroke	e	n/a
446.102	0.18	892204	keystroke	q	n/a
446.312	0.12	892624	keystroke	u	n/a
446.417	0.15	892834	keystroke	e	n/a
446.597	0.15	893194	keystroke	n	n/a
446.822	0.165	893644	keystroke	c	n/a
447.047	0.105	894094	keystroke	y	n/a
447.317	0.135	894634	keystroke	Key.space	n/a
447.467	0.165	894934	keystroke	a	n/a
447.617	0.18	895234	keystroke	t	n/a
447.857	0.18	895714	keystroke	l	n/a
448.022	0.135	896044	keystroke	a	n/a
448.232	0.12	896464	keystroke	n	n/a
448.742	0.18	897484	keystroke	t	n/a
448.862	0.15	897724	keystroke	a	n/a
449.087	0.12	898174	keystroke	Key.enter	n/a
449.2135	5.9355	898427	prompt	n/a	divide podcast planes nelson\n
449.732	0.15	899464	keystroke	d	n/a
449.897	0.165	899794	keystroke	i	n/a
450.152	0.15	900304	keystroke	v	n/a
450.332	0.135	900664	keystroke	i	n/a
450.482	0.12	900964	keystroke	d	n/a
450.677	0.15	901354	keystroke	e	n/a
450.842	0.15	901684	keystroke	Key.space	n/a
451.067	0.195	902134	keystroke	p	n/a
451.217	0.195	902434	keystroke	o	n/a
451.367	0.105	902734	keystroke	d	n/a
451.607	0.18	903214	keystroke	c	n/a
451.667	0.3	903334	keystroke	a	n/a
451.892	0.27	903784	keystroke	s	n/a
452.147	0.12	904294	keystroke	t	n/a
452.252	0.135	904504	keystroke	Key.space	n/a
452.417	0.15	904834	keystroke	p	n/a
452.657	0.15	905314	keystroke	l	n/a
452.762	0.165	905524	keystroke	a	n/a
452.942	0.15	905884	keystroke	n	n/a
453.077	0.21	906154	keystroke	e	n/a
453.212	0.165	906424	keystroke	s	n/a
453.437	0.12	906874	keystroke	Key.space	n/a
454.022	0.12	908044	keystroke	n	n/a
454.127	0.12	908254	keystroke	e	n/a
454.277	0.15	908554	keystroke	l	n/a
454.397	0.105	908794	keystroke	s	n/a
454.547	0.27	909094	keystroke	o	n/a
454.757	0.135	909514	keystroke	n	n/a
455.072	0.075	910144	keystroke	Key.enter	n/a
455.154	9.7	910308	prompt	n/a	britney purchase ladies forbidden\n
456.422	0.165	912844	keystroke	b	n/a
457.037	0.21	914074	keystroke	e	n/a
457.562	0.15	915124	keystroke	Key.backspace	n/a
458.102	0.135	916204	keystroke	r	n/a
458.207	0.135	916414	keystroke	i	n/a
458.552	0.12	917104	keystroke	t	n/a
458.717	0.165	917434	keystroke	n	n/a
458.807	0.135	917614	keystroke	e	n/a
459.062	0.135	918124	keystroke	y	n/a
459.212	0.15	918424	keystroke	Key.space	n/a
459.392	0.18	918784	keystroke	p	n/a
459.527	0.165	919054	keystroke	u	n/a
459.707	0.075	919414	keystroke	r	n/a
459.9925	0.15	919985	keystroke	c	n/a
460.1275	0.165	920255	keystroke	h	n/a
460.2475	0.225	920495	keystroke	a	n/a
460.4115	0.195	920823	keystroke	s	n/a
460.5325	0.149	921065	keystroke	e	n/a
460.8015	0.135	921603	keystroke	Key.space	n/a
461.1315	0.226	922263	keystroke	l	n/a
461.3275	0.12	922655	keystroke	a	n/a
461.4925	0.149	922985	keystroke	d	n/a
461.6565	0.136	923313	keystroke	i	n/a
461.7625	0.255	923525	keystroke	e	n/a
461.8825	0.165	923765	keystroke	s	n/a
462.0915	0.151	924183	keystroke	Key.space	n/a
462.3475	0.105	924695	keystroke	f	n/a
462.4825	0.149	924965	keystroke	o	n/a
462.6025	0.105	925205	keystroke	r	n/a
462.9925	0.06	925985	keystroke	d	n/a
463.2475	0.105	926495	keystroke	Key.backspace	n/a
463.5175	0.194	927035	keystroke	b	n/a
463.6825	0.165	927365	keystroke	i	n/a
463.8325	0.104	927665	keystroke	d	n/a
463.9975	0.134	927995	keystroke	d	n/a
464.3725	0.135	928745	keystroke	e	n/a
464.5365	0.075	929073	keystroke	n	n/a
464.7475	0.104	929495	keystroke	Key.enter	n/a
464.8595	6.3095	929719	prompt	n/a	clarke lord affairs native\n
466.652	0.195	933304	keystroke	c	n/a
466.832	0.195	933664	keystroke	l	n/a
466.967	0.225	933934	keystroke	a	n/a
467.147	0.165	934294	keystroke	r	n/a
467.342	0.15	934684	keystroke	k	n/a
467.657	0.09	935314	keystroke	Key.space	n/a
467.852	0.105	935704	keystroke	l	n/a
468.062	0.135	936124	keystroke	o	n/a
468.137	0.105	936274	keystroke	r	n/a
468.347	0.105	936694	keystroke	d	n/a
468.527	0.135	937054	keystroke	Key.space	n/a
468.752	0.195	937504	keystroke	a	n/a
468.902	0.09	937804	keystroke	f	n/a
469.067	0.15	938134	keystroke	f	n/a
469.232	0.165	938464	keystroke	a	n/a
469.472	0.165	938944	keystroke	i	n/a
469.651	0.166	939302	keystroke	r	n/a
469.8325	0.1495	939665	keystroke	s	n/a
470.027	0.089	940054	keystroke	Key.space	n/a
470.177	0.135	940354	keystroke	n	n/a
470.297	0.15	940594	keystroke	a	n/a
470.387	0.15	940774	keystroke	t	n/a
470.582	0.15	941164	keystroke	i	n/a
470.717	0.165	941434	keystroke	v	n/a
470.852	0.15	941704	keystroke	e	n/a
471.032	0.135	942064	keystroke	Key.enter	n/a
471.1755	8.859	942351	prompt	n/a	relocation thin miles assume\n
471.797	0.18	943594	keystroke	r	n/a
471.947	0.12	943894	keystroke	e	n/a
472.232	0.105	944464	keystroke	l	n/a
472.457	0.135	944914	keystroke	o	n/a
472.532	0.195	945064	keystroke	c	n/a
472.682	0.21	945364	keystroke	a	n/a
472.877	0.135	945754	keystroke	t	n/a
472.937	0.135	945874	keystroke	i	n/a
473.027	0.165	946054	keystroke	o	n/a
473.162	0.165	946324	keystroke	n	n/a
473.312	0.12	946624	keystroke	Key.space	n/a
473.552	0.135	947104	keystroke	t	n/a
473.642	0.165	947284	keystroke	h	n/a
473.747	0.15	947494	keystroke	i	n/a
473.912	0.24	947824	keystroke	n	n/a
474.122	0.12	948244	keystroke	k	n/a
474.362	0.12	948724	keystroke	Key.space	n/a
474.497	0.24	948994	keystroke	m	n/a
474.662	0.195	949324	keystroke	i	n/a
474.767	0.21	949534	keystroke	l	n/a
474.932	0.165	949864	keystroke	e	n/a
475.052	0.135	950104	keystroke	s	n/a
475.307	0.105	950614	keystroke	Key.space	n/a
475.607	0.075	951214	keystroke	Key.backspace	n/a
475.742	0.075	951484	keystroke	Key.backspace	n/a
475.877	0.075	951754	keystroke	Key.backspace	n/a
476.012	0.06	952024	keystroke	Key.backspace	n/a
476.162	0.075	952324	keystroke	Key.backspace	n/a
476.312	0.105	952624	keystroke	Key.backspace	n/a
476.522	0.15	953044	keystroke	Key.backspace	n/a
476.882	0.09	953764	keystroke	Key.backspace	n/a
477.257	0.135	954514	keystroke	Key.space	n/a
477.557	0.12	955114	keystroke	m	n/a
477.647	0.165	955294	keystroke	i	n/a
477.722	0.165	955444	keystroke	l	n/a
477.857	0.21	955714	keystroke	e	n/a
478.052	0.165	956104	keystroke	s	n/a
478.397	0.15	956794	keystroke	Key.space	n/a
478.652	0.24	957304	keystroke	a	n/a
478.832	0.105	957664	keystroke	s	n/a
479.027	0.135	958054	keystroke	s	n/a
479.192	0.09	958384	keystroke	u	n/a
479.432	0.105	958864	keystroke	m	n/a
479.567	0.12	959134	keystroke	e	n/a
479.942	0.09	959884	keystroke	Key.enter	n/a
480.039	7.3895	960078	prompt	n/a	bleeding prev owns i'd\n
480.632	0.15	961264	keystroke	b	n/a
480.737	0.165	961474	keystroke	l	n/a
480.872	0.12	961744	keystroke	e	n/a
481.112	0.015	962224	keystroke	e	n/a
481.532	0.18	963064	keystroke	d	n/a
481.757	0.225	963514	keystroke	i	n/a
481.847	0.12	963694	keystroke	n	n/a
481.997	0.135	963994	keystroke	g	n/a
482.087	0.12	964174	keystroke	Key.space	n/a
482.267	0.15	964534	keystroke	p	n/a
482.387	0.165	964774	keystroke	e	n/a
482.537	0.09	965074	keystroke	r	n/a
482.807	0.06	965614	keystroke	Key.backspace	n/a
483.077	0.015	966154	keystroke	Key.backspace	n/a
483.392	0.135	966784	keystroke	r	n/a
483.557	0.12	967114	keystroke	e	n/a
483.872	0.18	967744	keystroke	v	n/a
484.367	0.075	968734	keystroke	n	n/a
484.697	0.075	969394	keystroke	Key.backspace	n/a
484.922	0.12	969844	keystroke	Key.space	n/a
485.177	0.15	970354	keystroke	o	n/a
485.342	0.135	970684	keystroke	w	n/a
485.507	0.09	971014	keystroke	n	n/a
486.062	0.225	972124	keystroke	s	n/a
486.497	0.135	972994	keystroke	Key.space	n/a
486.692	0.1805	973384	keystroke	i	n/a
486.842	0.18	973684	keystroke	'	n/a
487.007	0.105	974014	keystroke	d	n/a
487.307	0.12	974614	keystroke	Key.enter	n/a
487.433	6.761	974866	prompt	n/a	herein range superintendent korean\n
488.102	0.15	976204	keystroke	h	n/a
488.192	0.135	976384	keystroke	e	n/a
488.492	0.165	976984	keystroke	r	n/a
488.627	0.165	977254	keystroke	e	n/a
488.852	0.27	977704	keystroke	i	n/a
489.017	0.12	978034	keystroke	n	n/a
489.257	0.12	978514	keystroke	Key.space	n/a
489.407	0.15	978814	keystroke	r	n/a
489.497	0.195	978994	keystroke	a	n/a
489.677	0.12	979354	keystroke	n	n/a
489.872	0.135	979744	keystroke	g	n/a
490.022	0.12	980044	keystroke	e	n/a
490.172	0.135	980344	keystroke	Key.space	n/a
490.292	0.135	980584	keystroke	s	n/a
490.442	0.15	980884	keystroke	u	n/a
490.532	0.21	981064	keystroke	p	n/a
490.727	0.165	981454	keystroke	e	n/a
490.847	0.18	981694	keystroke	r	n/a
491.177	0.21	982354	keystroke	i	n/a
491.297	0.135	982594	keystroke	n	n/a
491.717	0.135	983434	keystroke	t	n/a
491.807	0.18	983614	keystroke	e	n/a
492.017	0.12	984034	keystroke	n	n/a
492.167	0.105	984334	keystroke	d	n/a
492.332	0.18	984664	keystroke	e	n/a
492.497	0.12	984994	keystroke	n	n/a
492.662	0.12	985324	keystroke	t	n/a
492.797	0.15	985594	keystroke	Key.space	n/a
492.992	0.03	985984	keystroke	Key.space	n/a
493.007	0.18	986014	keystroke	k	n/a
493.172	0.195	986344	keystroke	o	n/a
493.307	0.18	986614	keystroke	r	n/a
493.472	0.195	986944	keystroke	e	n/a
493.607	0.225	987214	keystroke	a	n/a
493.817	0.09	987634	keystroke	n	n/a
494.072	0.12	988144	keystroke	Key.enter	n/a
494.1985	5.0655	988397	prompt	n/a	cookie packets condos baker\n
494.777	0.18	989554	keystroke	c	n/a
494.882	0.09	989764	keystroke	o	n/a
495.062	0.195	990124	keystroke	o	n/a
495.212	0.135	990424	keystroke	k	n/a
495.482	0.15	990964	keystroke	i	n/a
495.617	0.15	991234	keystroke	e	n/a
495.752	0.12	991504	keystroke	Key.space	n/a
496.082	0.03	992164	keystroke	p	n/a
496.097	0.135	992194	keystroke	a	n/a
496.247	0.1655	992494	keystroke	c	n/a
496.352	0.165	992704	keystroke	k	n/a
496.502	0.195	993004	keystroke	e	n/a
496.742	0.195	993484	keystroke	t	n/a
496.862	0.135	993724	keystroke	s	n/a
497.012	0.135	994024	keystroke	Key.space	n/a
497.342	0.15	994684	keystroke	c	n/a
497.447	0.195	994894	keystroke	o	n/a
497.582	0.135	995164	keystroke	n	n/a
497.687	0.15	995374	keystroke	d	n/a
497.882	0.15	995764	keystroke	o	n/a
498.047	0.165	996094	keystroke	s	n/a
498.242	0.09	996484	keystroke	Key.space	n/a
498.452	0.12	996904	keystroke	b	n/a
498.557	0.12	997114	keystroke	a	n/a
498.707	0.165	997414	keystroke	k	n/a
498.857	0.195	997714	keystroke	e	n/a
499.007	0.135	998014	keystroke	r	n/a
499.127	0.135	998254	keystroke	Key.enter	n/a
499.268	10.7975	998536	prompt	n/a	became identify budget injuries\n
501.65	0.057	1003300	keystroke	b	n/a
501.692	0.135	1003384	keystroke	e	n/a
501.902	0.12	1003804	keystroke	c	n/a
502.172	0.3	1004344	keystroke	o	n/a
502.352	0.195	1004704	keystroke	m	n/a
502.592	0.12	1005184	keystroke	e	n/a
502.937	0.09	1005874	keystroke	Key.backspace	n/a
503.087	0.105	1006174	keystroke	Key.backspace	n/a
503.282	0.12	1006564	keystroke	Key.backspace	n/a
503.627	0.135	1007254	keystroke	a	n/a
503.987	0.105	1007974	keystroke	m	n/a
504.107	0.105	1008214	keystroke	e	n/a
504.257	0.09	1008514	keystroke	Key.space	n/a
504.452	0.135	1008904	keystroke	i	n/a
504.617	0.135	1009234	keystroke	d	n/a
505.172	0.135	1010344	keystroke	e	n/a
505.457	0.135	1010914	keystroke	n	n/a
505.682	0.09	1011364	keystroke	t	n/a
505.832	0.135	1011664	keystroke	i	n/a
506.102	0.105	1012204	keystroke	f	n/a
506.222	0.105	1012444	keystroke	y	n/a
506.462	0.135	1012924	keystroke	Key.space	n/a
506.717	0.045	1013434	keystroke	p	n/a
507.017	0.105	1014034	keystroke	Key.backspace	n/a
507.287	0.135	1014574	keystroke	b	n/a
507.542	0.135	1015084	keystroke	u	n/a
507.662	0.165	1015324	keystroke	d	n/a
507.902	0.12	1015804	keystroke	g	n/a
508.037	0.165	1016074	keystroke	e	n/a
508.262	0.15	1016524	keystroke	t	n/a
508.427	0.15	1016854	keystroke	Key.space	n/a
508.697	0.195	1017394	keystroke	i	n/a
508.802	0.076	1017604	keystroke	n	n/a
509.012	0.105	1018024	keystroke	j	n/a
509.192	0.105	1018384	keystroke	u	n/a
509.282	0.15	1018564	keystroke	r	n/a
509.447	0.18	1018894	keystroke	i	n/a
509.597	0.15	1019194	keystroke	e	n/a
509.717	0.135	1019434	keystroke	s	n/a
509.942	0.12	1019884	keystroke	Key.enter	n/a
510.0815	6.223	1020163	prompt	n/a	supports meta suffered royalty\n
510.827	0.18	1021654	keystroke	s	n/a
510.917	0.135	1021834	keystroke	u	n/a
511.037	0.165	1022074	keystroke	p	n/a
511.247	0.18	1022494	keystroke	p	n/a
511.352	0.166	1022704	keystroke	o	n/a
511.487	0.135	1022974	keystroke	r	n/a
511.727	0.166	1023454	keystroke	t	n/a
511.832	0.15	1023664	keystroke	s	n/a
511.967	0.135	1023934	keystroke	Key.space	n/a
512.162	0.151	1024324	keystroke	m	n/a
512.327	0.15	1024654	keystroke	e	n/a
512.447	0.24	1024894	keystroke	t	n/a
512.582	0.255	1025164	keystroke	a	n/a
512.882	0.15	1025764	keystroke	Key.space	n/a
513.272	0.121	1026544	keystroke	s	n/a
513.407	0.106	1026814	keystroke	u	n/a
513.542	0.09	1027084	keystroke	f	n/a
513.7365	0.1205	1027473	keystroke	f	n/a
513.828	0.1785	1027656	keystroke	e	n/a
513.9925	0.164	1027985	keystroke	r	n/a
514.1115	0.15	1028223	keystroke	e	n/a
514.3815	0.165	1028763	keystroke	d	n/a
514.517	0.1495	1029034	keystroke	Key.space	n/a
514.7715	0.135	1029543	keystroke	r	n/a
514.9515	0.166	1029903	keystroke	o	n/a
515.1475	0.165	1030295	keystroke	y	n/a
515.298	0.1945	1030596	keystroke	a	n/a
515.4765	0.165	1030953	keystroke	l	n/a
515.7465	0.121	1031493	keystroke	t	n/a
515.8815	0.136	1031763	keystroke	y	n/a
516.152	0.1495	1032304	keystroke	Key.enter	n/a
516.3095	9.819	1032619	prompt	n/a	katie consideration examined phantom\n
517.3065	0.075	1034613	keystroke	k	n/a
517.4865	0.151	1034973	keystroke	i	n/a
517.8015	0.21	1035603	keystroke	a	n/a
517.9815	0.136	1035963	keystroke	t	n/a
518.2965	0.075	1036593	keystroke	Key.backspace	n/a
518.4465	0.09	1036893	keystroke	Key.backspace	n/a
518.6415	0.09	1037283	keystroke	Key.backspace	n/a
518.7465	0.15	1037493	keystroke	a	n/a
519.1075	0.119	1038215	keystroke	t	n/a
519.3315	0.166	1038663	keystroke	i	n/a
519.4665	0.135	1038933	keystroke	e	n/a
519.6165	0.15	1039233	keystroke	Key.space	n/a
519.7365	0.15	1039473	keystroke	c	n/a
519.8565	0.225	1039713	keystroke	o	n/a
519.9465	0.18	1039893	keystroke	n	n/a
520.0515	0.165	1040103	keystroke	s	n/a
520.2465	0.166	1040493	keystroke	i	n/a
520.3675	0.135	1040735	keystroke	d	n/a
520.6215	0.166	1041243	keystroke	e	n/a
520.7425	0.15	1041485	keystroke	r	n/a
520.9515	0.076	1041903	keystroke	i	n/a
521.2815	0.075	1042563	keystroke	Key.backspace	n/a
521.3575	0.21	1042715	keystroke	a	n/a
521.4925	0.15	1042985	keystroke	t	n/a
521.6565	0.181	1043313	keystroke	i	n/a
521.7915	0.211	1043583	keystroke	o	n/a
521.9275	0.224	1043855	keystroke	n	n/a
522.1365	0.135	1044273	keystroke	Key.space	n/a
522.2265	0.121	1044453	keystroke	e	n/a
522.5115	0.12	1045023	keystroke	x	n/a
522.7675	0.224	1045535	keystroke	a	n/a
523.0975	0.059	1046195	keystroke	m	n/a
523.2765	0.255	1046553	keystroke	i	n/a
523.4265	0.121	1046853	keystroke	n	n/a
523.5175	0.105	1047035	keystroke	e	n/a
523.7575	0.179	1047515	keystroke	d	n/a
523.9065	0.12	1047813	keystroke	Key.space	n/a
524.0565	0.24	1048113	keystroke	p	n/a
524.3725	0.119	1048745	keystroke	n	n/a
524.8225	0.104	1049645	keystroke	Key.backspace	n/a
525.0775	0.1345	1050155	keystroke	h	n/a
525.197	0.135	1050394	keystroke	a	n/a
525.332	0.165	1050664	keystroke	n	n/a
525.527	0.15	1051054	keystroke	t	n/a
525.662	0.21	1051324	keystroke	o	n/a
525.767	0.165	1051534	keystroke	m	n/a
526.022	0.105	1052044	keystroke	Key.enter	n/a
526.1335	6.2505	1052267	prompt	n/a	hamilton sticks surgeons been\n
526.742	0.12	1053484	keystroke	h	n/a
526.877	0.15	1053754	keystroke	a	n/a
527.117	0.165	1054234	keystroke	m	n/a
527.297	0.15	1054594	keystroke	i	n/a
527.387	0.225	1054774	keystroke	l	n/a
527.867	0.12	1055734	keystroke	t	n/a
527.987	0.225	1055974	keystroke	o	n/a
528.107	0.12	1056214	keystroke	n	n/a
528.347	0.135	1056694	keystroke	Key.space	n/a
528.527	0.225	1057054	keystroke	s	n/a
528.737	0.15	1057474	keystroke	t	n/a
528.872	0.12	1057744	keystroke	i	n/a
529.067	0.165	1058134	keystroke	c	n/a
529.247	0.135	1058494	keystroke	k	n/a
529.367	0.12	1058734	keystroke	s	n/a
529.592	0.15	1059184	keystroke	Key.space	n/a
529.817	0.15	1059634	keystroke	s	n/a
529.997	0.12	1059994	keystroke	u	n/a
530.432	0.12	1060864	keystroke	r	n/a
530.717	0.18	1061434	keystroke	g	n/a
530.867	0.18	1061734	keystroke	e	n/a
531.062	0.195	1062124	keystroke	o	n/a
531.167	0.15	1062334	keystroke	n	n/a
531.302	0.15	1062604	keystroke	s	n/a
531.437	0.09	1062874	keystroke	Key.space	n/a
531.647	0.105	1063294	keystroke	b	n/a
531.767	0.105	1063534	keystroke	e	n/a
531.932	0.135	1063864	keystroke	e	n/a
532.068	0.119	1064136	keystroke	n	n/a
532.277	0.105	1064554	keystroke	Key.enter	n/a
532.389	4.285	1064778	prompt	n/a	lives court code months\n
532.937	0.18	1065874	keystroke	l	n/a
533.057	0.165	1066114	keystroke	i	n/a
533.192	0.18	1066384	keystroke	v	n/a
533.342	0.15	1066684	keystroke	e	n/a
533.432	0.15	1066864	keystroke	s	n/a
533.567	0.135	1067134	keystroke	Key.space	n/a
533.717	0.165	1067434	keystroke	c	n/a
533.837	0.165	1067674	keystroke	o	n/a
533.927	0.12	1067854	keystroke	u	n/a
534.017	0.135	1068034	keystroke	r	n/a
534.362	0.12	1068724	keystroke	t	n/a
534.572	0.15	1069144	keystroke	Key.space	n/a
534.917	0.15	1069834	keystroke	c	n/a
535.037	0.18	1070074	keystroke	o	n/a
535.172	0.105	1070344	keystroke	d	n/a
535.382	0.15	1070764	keystroke	e	n/a
535.487	0.15	1070974	keystroke	Key.space	n/a
535.652	0.15	1071304	keystroke	m	n/a
535.787	0.195	1071574	keystroke	o	n/a
535.907	0.165	1071814	keystroke	n	n/a
536.057	0.15	1072114	keystroke	t	n/a
536.192	0.105	1072384	keystroke	h	n/a
536.342	0.12	1072684	keystroke	s	n/a
536.552	0.12	1073104	keystroke	Key.enter	n/a
536.679	7.84	1073358	prompt	n/a	economics graphs accessible copying\n
537.212	0.135	1074424	keystroke	e	n/a
537.437	0.15	1074874	keystroke	c	n/a
537.647	0.21	1075294	keystroke	o	n/a
537.902	0.165	1075804	keystroke	n	n/a
538.202	0.045	1076404	keystroke	o	n/a
538.577	0.15	1077154	keystroke	m	n/a
538.742	0.09	1077484	keystroke	o	n/a
538.833	0.044	1077666	keystroke	i	n/a
539.072	0.09	1078144	keystroke	Key.backspace	n/a
539.237	0.09	1078474	keystroke	Key.backspace	n/a
539.507	0.135	1079014	keystroke	i	n/a
539.627	0.21	1079254	keystroke	c	n/a
539.747	0.195	1079494	keystroke	s	n/a
539.957	0.12	1079914	keystroke	Key.space	n/a
540.122	0.195	1080244	keystroke	g	n/a
540.482	0.18	1080964	keystroke	r	n/a
540.557	0.165	1081114	keystroke	a	n/a
540.707	0.15	1081414	keystroke	p	n/a
540.858	0.119	1081716	keystroke	h	n/a
541.007	0.12	1082014	keystroke	s	n/a
541.217	0.135	1082434	keystroke	Key.space	n/a
541.457	0.15	1082914	keystroke	a	n/a
541.637	0.12	1083274	keystroke	c	n/a
541.863	0.254	1083726	keystroke	c	n/a
541.998	0.179	1083996	keystroke	e	n/a
542.102	0.165	1084204	keystroke	s	n/a
542.403	0.119	1084806	keystroke	s	n/a
542.597	0.135	1085194	keystroke	i	n/a
542.793	0.18	1085586	keystroke	b	n/a
542.927	0.18	1085854	keystroke	l	n/a
543.032	0.165	1086064	keystroke	e	n/a
543.167	0.165	1086334	keystroke	Key.space	n/a
543.317	0.135	1086634	keystroke	c	n/a
543.407	0.135	1086814	keystroke	o	n/a
543.497	0.21	1086994	keystroke	p	n/a
