onset	duration	sample	value	key	prompt_text
18.0955	0.1195	36191	keystroke	m	n/a
18.2	0.1355	36400	keystroke	i	n/a
18.2905	0.1045	36581	keystroke	n	n/a
18.38	0.0755	36760	keystroke	g	n/a
18.5455	0.1345	37091	keystroke	r	n/a
18.6055	0.0895	37211	keystroke	u	n/a
18.6355	0.0895	37271	keystroke	i	n/a
18.83	0.1205	37660	keystroke	Key.tab	n/a
23.7205	0.135	47441	keystroke	Key.cmd	n/a
24.0825	0.223	48165	keystroke	Key.ctrl	n/a
24.0955	0.225	48191	keystroke	Key.shift	n/a
24.1705	0.12	48341	keystroke	Key.tab	n/a
27.7405	0.2395	55481	keystroke	Key.cmd	n/a
27.8455	0.12	55691	keystroke	c	n/a
28.1455	0.21	56291	keystroke	Key.ctrl	n/a
28.2355	0.0975	56471	keystroke	Key.tab	n/a
28.625	0.4055	57250	keystroke	Key.cmd	n/a
28.8955	0.105	57791	keystroke	v	n/a
32.9035	20.07	65807	prompt	n/a	the quick brown fox jumps over a lazy dog\n
35.0605	0.09	70121	keystroke	t	n/a
35.257	0.0735	70514	keystroke	h	n/a
35.346	0.119	70692	keystroke	e	n/a
35.4055	0.1495	70811	keystroke	Key.space	n/a
37.0855	0.12	74171	keystroke	q	n/a
37.4465	0.074	74893	keystroke	u	n/a
37.82	0.0905	75640	keystroke	i	n/a
38.1505	0.0915	76301	keystroke	c	n/a
38.4205	0.0895	76841	keystroke	k	n/a
38.6455	0.1345	77291	keystroke	Key.space	n/a
39.32	0.075	78640	keystroke	b	n/a
39.5455	0.09	79091	keystroke	r	n/a
39.7255	0.105	79451	keystroke	o	n/a
39.936	0.1195	79872	keystroke	w	n/a
40.3405	0.0905	80681	keystroke	n	n/a
40.565	0.1055	81130	keystroke	Key.space	n/a
40.929	0.1165	81858	keystroke	f	n/a
41.2705	0.105	82541	keystroke	o	n/a
41.5405	0.105	83081	keystroke	x	n/a
42.0225	0.103	84045	keystroke	Key.space	n/a
46.0855	0.0895	92171	keystroke	j	n/a
46.2955	0.0895	92591	keystroke	u	n/a
46.6405	0.091	93281	keystroke	m	n/a
46.88	0.105	93760	keystroke	p	n/a
47.3155	0.135	94631	keystroke	s	n/a
47.5405	0.15	95081	keystroke	Key.space	n/a
47.8405	0.09	95681	keystroke	o	n/a
48.23	0.075	96460	keystroke	v	n/a
48.5005	0.105	97001	keystroke	e	n/a
48.8155	0.1055	97631	keystroke	r	n/a
49.0555	0.12	98111	keystroke	Key.space	n/a
49.5505	0.0905	99101	keystroke	a	n/a
50.21	0.1205	100420	keystroke	Key.space	n/a
50.6155	0.09	101231	keystroke	l	n/a
50.765	0.1055	101530	keystroke	a	n/a
51.08	0.1205	102160	keystroke	z	n/a
51.4255	0.105	102851	keystroke	y	n/a
51.6655	0.09	103331	keystroke	Key.space	n/a
51.8755	0.0895	103751	keystroke	d	n/a
52.086	0.1195	104172	keystroke	o	n/a
52.506	0.0895	105012	keystroke	g	n/a
52.8805	0.0905	105761	keystroke	Key.enter	n/a
52.976	28.3615	105952	prompt	n/a	strings adam arising affect\n
70.6405	0.105	141281	keystroke	s	n/a
71.06	0.1205	142120	keystroke	t	n/a
71.33	0.0905	142660	keystroke	r	n/a
71.572	0.1185	143144	keystroke	i	n/a
71.8555	0.0895	143711	keystroke	n	n/a
72.0505	0.09	144101	keystroke	g	n/a
72.455	0.1355	144910	keystroke	s	n/a
72.7405	0.1045	145481	keystroke	Key.space	n/a
73.0855	0.12	146171	keystroke	a	n/a
73.3855	0.09	146771	keystroke	d	n/a
73.7305	0.09	147461	keystroke	a	n/a
74.061	0.0895	148122	keystroke	m	n/a
74.256	0.135	148512	keystroke	Key.space	n/a
74.66	0.105	149320	keystroke	a	n/a
75.11	0.106	150220	keystroke	r	n/a
75.3545	0.101	150709	keystroke	i	n/a
75.5605	0.1045	151121	keystroke	s	n/a
75.9805	0.09	151961	keystroke	i	n/a
76.356	0.1045	152712	keystroke	n	n/a
76.7155	0.075	153431	keystroke	g	n/a
76.94	0.1055	153880	keystroke	Key.space	n/a
77.3455	0.105	154691	keystroke	a	n/a
77.81	0.0755	155620	keystroke	f	n/a
78.0955	0.09	156191	keystroke	f	n/a
78.41	0.0905	156820	keystroke	e	n/a
78.7255	0.105	157451	keystroke	c	n/a
79.055	0.0755	158110	keystroke	t	n/a
79.371	0.1045	158742	keystroke	Key.space	n/a
80.9755	0.0895	161951	keystroke	Key.backspace	n/a
81.2605	0.0755	162521	keystroke	Key.enter	n/a
81.34	23.337	162680	prompt	n/a	displayed ethernet training constantly\n
89.3605	0.075	178721	keystroke	d	n/a
89.8255	0.075	179651	keystroke	i	n/a
89.976	0.136	179952	keystroke	s	n/a
90.3355	0.1075	180671	keystroke	p	n/a
90.6365	0.089	181273	keystroke	l	n/a
90.8605	0.12	181721	keystroke	a	n/a
91.1155	0.1045	182231	keystroke	y	n/a
91.4305	0.1075	182861	keystroke	e	n/a
91.8055	0.075	183611	keystroke	d	n/a
92.046	0.1045	184092	keystroke	Key.space	n/a
92.4355	0.105	184871	keystroke	e	n/a
92.7975	0.0885	185595	keystroke	t	n/a
93.021	0.0755	186042	keystroke	h	n/a
93.336	0.12	186672	keystroke	e	n/a
93.8155	0.105	187631	keystroke	r	n/a
94.146	0.09	188292	keystroke	n	n/a
94.386	0.0895	188772	keystroke	e	n/a
94.7755	0.09	189551	keystroke	t	n/a
95.0305	0.105	190061	keystroke	Key.space	n/a
95.451	0.09	190902	keystroke	t	n/a
95.721	0.1045	191442	keystroke	r	n/a
96.021	0.105	192042	keystroke	a	n/a
96.3055	0.1075	192611	keystroke	i	n/a
96.621	0.1045	193242	keystroke	n	n/a
97.086	0.09	194172	keystroke	i	n/a
97.446	0.1045	194892	keystroke	n	n/a
97.8955	0.076	195791	keystroke	g	n/a
98.151	0.1045	196302	keystroke	Key.space	n/a
98.4205	0.075	196841	keystroke	c	n/a
98.751	0.0745	197502	keystroke	o	n/a
99.0805	0.0755	198161	keystroke	n	n/a
99.3805	0.135	198761	keystroke	s	n/a
102.3955	0.0905	204791	keystroke	t	n/a
102.6825	0.1035	205365	keystroke	a	n/a
102.9655	0.0755	205931	keystroke	n	n/a
103.416	0.09	206832	keystroke	t	n/a
103.701	0.12	207402	keystroke	l	n/a
104.046	0.075	208092	keystroke	y	n/a
104.6155	0.0605	209231	keystroke	Key.enter	n/a
104.6795	12.495	209359	prompt	n/a	translated oils blowing solomon\n
106.2965	0.1045	212593	keystroke	t	n/a
106.5655	0.0905	213131	keystroke	r	n/a
106.956	0.105	213912	keystroke	a	n/a
107.391	0.0895	214782	keystroke	n	n/a
107.751	0.1385	215502	keystroke	s	n/a
108.0955	0.0755	216191	keystroke	l	n/a
108.3955	0.135	216791	keystroke	a	n/a
108.801	0.105	217602	keystroke	t	n/a
109.131	0.105	218262	keystroke	e	n/a
109.521	0.12	219042	keystroke	d	n/a
109.791	0.12	219582	keystroke	Key.space	n/a
110.0775	0.103	220155	keystroke	o	n/a
110.3755	0.12	220751	keystroke	i	n/a
110.931	0.09	221862	keystroke	l	n/a
111.4105	0.1055	222821	keystroke	s	n/a
111.7105	0.091	223421	keystroke	Key.space	n/a
111.967	0.089	223934	keystroke	b	n/a
112.2655	0.0905	224531	keystroke	l	n/a
112.551	0.105	225102	keystroke	o	n/a
113.0915	0.119	226183	keystroke	w	n/a
113.451	0.1195	226902	keystroke	i	n/a
113.826	0.075	227652	keystroke	n	n/a
114.156	0.12	228312	keystroke	g	n/a
114.5455	0.12	229091	keystroke	Key.space	n/a
114.801	0.105	229602	keystroke	s	n/a
114.952	0.0885	229904	keystroke	o	n/a
115.236	0.15	230472	keystroke	l	n/a
115.641	0.106	231282	keystroke	o	n/a
116.076	0.1195	232152	keystroke	m	n/a
116.3775	0.133	232755	keystroke	o	n/a
116.676	0.0745	233352	keystroke	n	n/a
117.0805	0.0905	234161	keystroke	Key.enter	n/a
117.1775	10.765	234355	prompt	n/a	cool advertising thick circles\n
118.131	0.12	236262	keystroke	c	n/a
118.431	0.105	236862	keystroke	o	n/a
118.746	0.105	237492	keystroke	o	n/a
119.061	0.1355	238122	keystroke	l	n/a
119.3155	0.15	238631	keystroke	Key.space	n/a
119.601	0.12	239202	keystroke	a	n/a
119.9605	0.105	239921	keystroke	d	n/a
120.276	0.0895	240552	keystroke	v	n/a
120.6655	0.12	241331	keystroke	e	n/a
120.891	0.1195	241782	keystroke	r	n/a
121.1905	0.075	242381	keystroke	t	n/a
121.626	0.1055	243252	keystroke	i	n/a
121.821	0.1045	243642	keystroke	s	n/a
122.136	0.105	244272	keystroke	i	n/a
122.4805	0.1055	244961	keystroke	n	n/a
122.826	0.105	245652	keystroke	g	n/a
123.126	0.12	246252	keystroke	Key.space	n/a
123.426	0.06	246852	keystroke	t	n/a
123.6805	0.0945	247361	keystroke	h	n/a
123.921	0.105	247842	keystroke	i	n/a
124.461	0.1045	248922	keystroke	c	n/a
124.776	0.135	249552	keystroke	k	n/a
125.046	0.105	250092	keystroke	Key.space	n/a
125.3455	0.1055	250691	keystroke	c	n/a
125.646	0.1195	251292	keystroke	i	n/a
126.036	0.12	252072	keystroke	r	n/a
126.3955	0.0905	252791	keystroke	c	n/a
126.651	0.1195	253302	keystroke	l	n/a
127.1305	0.092	254261	keystroke	e	n/a
127.446	0.09	254892	keystroke	s	n/a
127.836	0.105	255672	keystroke	Key.enter	n/a
127.9455	9.9415	255891	prompt	n/a	related merry nathan denied\n
128.856	0.135	257712	keystroke	r	n/a
129.201	0.105	258402	keystroke	e	n/a
129.501	0.09	259002	keystroke	l	n/a
129.9505	0.1205	259901	keystroke	a	n/a
130.2805	0.1055	260561	keystroke	t	n/a
130.5955	0.1055	261191	keystroke	e	n/a
131.003	0.103	262006	keystroke	d	n/a
131.3155	0.1205	262631	keystroke	Key.space	n/a
131.646	0.105	263292	keystroke	m	n/a
131.856	0.105	263712	keystroke	e	n/a
132.321	0.0595	264642	keystroke	r	n/a
132.531	0.105	265062	keystroke	r	n/a
132.9505	0.1055	265901	keystroke	y	n/a
133.176	0.1345	266352	keystroke	Key.space	n/a
133.5955	0.0905	267191	keystroke	n	n/a
133.9565	0.119	267913	keystroke	a	n/a
134.301	0.09	268602	keystroke	t	n/a
134.619	0.102	269238	keystroke	h	n/a
134.751	0.12	269502	keystroke	a	n/a
135.249	0.0715	270498	keystroke	n	n/a
135.4855	0.12	270971	keystroke	Key.space	n/a
135.7555	0.105	271511	keystroke	d	n/a
135.9805	0.1055	271961	keystroke	e	n/a
136.416	0.105	272832	keystroke	n	n/a
136.716	0.12	273432	keystroke	i	n/a
137.076	0.1045	274152	keystroke	e	n/a
137.4655	0.0905	274931	keystroke	d	n/a
137.8105	0.075	275621	keystroke	Key.enter	n/a
137.8925	10.7045	275785	prompt	n/a	lowest listening returned hear\n
138.6805	0.0905	277361	keystroke	l	n/a
138.9355	0.075	277871	keystroke	o	n/a
139.191	0.105	278382	keystroke	w	n/a
139.521	0.1195	279042	keystroke	e	n/a
139.941	0.12	279882	keystroke	s	n/a
140.346	0.0895	280692	keystroke	t	n/a
140.5875	0.1335	281175	keystroke	Key.space	n/a
140.871	0.12	281742	keystroke	l	n/a
141.1405	0.1055	282281	keystroke	i	n/a
141.351	0.1195	282702	keystroke	s	n/a
141.831	0.09	283662	keystroke	t	n/a
142.116	0.075	284232	keystroke	e	n/a
142.4155	0.121	284831	keystroke	n	n/a
142.7605	0.12	285521	keystroke	i	n/a
143.136	0.09	286272	keystroke	n	n/a
143.586	0.12	287172	keystroke	g	n/a
143.841	0.12	287682	keystroke	Key.space	n/a
144.156	0.1045	288312	keystroke	r	n/a
144.516	0.12	289032	keystroke	e	n/a
144.8325	0.073	289665	keystroke	t	n/a
145.1615	0.0895	290323	keystroke	u	n/a
145.386	0.12	290772	keystroke	r	n/a
145.731	0.12	291462	keystroke	n	n/a
146.001	0.12	292002	keystroke	e	n/a
146.346	0.09	292692	keystroke	d	n/a
146.646	0.1195	293292	keystroke	Key.space	n/a
146.991	0.0895	293982	keystroke	h	n/a
147.291	0.12	294582	keystroke	e	n/a
147.741	0.135	295482	keystroke	a	n/a
148.1165	0.104	296233	keystroke	r	n/a
148.461	0.1345	296922	keystroke	Key.enter	n/a
148.5995	30.403	297199	prompt	n/a	flowers interact seems symphony\n
154.6565	0.0895	309313	keystroke	f	n/a
154.882	0.074	309764	keystroke	l	n/a
155.3155	0.0905	310631	keystroke	o	n/a
155.631	0.105	311262	keystroke	w	n/a
155.916	0.12	311832	keystroke	e	n/a
156.216	0.105	312432	keystroke	r	n/a
156.636	0.15	313272	keystroke	s	n/a
156.921	0.12	313842	keystroke	Key.space	n/a
157.1755	0.09	314351	keystroke	i	n/a
157.5515	0.0895	315103	keystroke	n	n/a
157.8065	0.104	315613	keystroke	t	n/a
158.106	0.12	316212	keystroke	e	n/a
158.601	0.105	317202	keystroke	r	n/a
158.841	0.105	317682	keystroke	a	n/a
159.141	0.105	318282	keystroke	c	n/a
159.591	0.1045	319182	keystroke	t	n/a
159.786	0.09	319572	keystroke	Key.space	n/a
173.7955	0.1055	347591	keystroke	s	n/a
174.231	0.105	348462	keystroke	e	n/a
174.4555	0.0605	348911	keystroke	e	n/a
174.741	0.106	349482	keystroke	m	n/a
175.161	0.09	350322	keystroke	s	n/a
175.401	0.105	350802	keystroke	Key.space	n/a
175.701	0.135	351402	keystroke	s	n/a
176.016	0.105	352032	keystroke	y	n/a
176.8855	0.0905	353771	keystroke	m	n/a
177.171	0.105	354342	keystroke	p	n/a
177.4855	0.0905	354971	keystroke	h	n/a
177.786	0.09	355572	keystroke	o	n/a
178.176	0.0745	356352	keystroke	n	n/a
178.5055	0.09	357011	keystroke	y	n/a
178.9105	0.0905	357821	keystroke	Key.enter	n/a
179.0055	14.127	358011	prompt	n/a	brochures vacuum relates lucia\n
179.888	0.058	359776	keystroke	b	n/a
180.1105	0.1055	360221	keystroke	r	n/a
180.546	0.09	361092	keystroke	o	n/a
180.831	0.12	361662	keystroke	c	n/a
181.221	0.0745	362442	keystroke	h	n/a
181.5355	0.0905	363071	keystroke	u	n/a
181.8955	0.1055	363791	keystroke	r	n/a
182.946	0.105	365892	keystroke	e	n/a
183.306	0.1045	366612	keystroke	s	n/a
183.756	0.12	367512	keystroke	Key.space	n/a
185.286	0.09	370572	keystroke	v	n/a
185.436	0.12	370872	keystroke	a	n/a
185.7655	0.092	371531	keystroke	c	n/a
186.1405	0.1055	372281	keystroke	u	n/a
186.441	0.09	372882	keystroke	u	n/a
186.816	0.1055	373632	keystroke	m	n/a
187.221	0.12	374442	keystroke	Key.space	n/a
188.271	0.1075	376542	keystroke	r	n/a
188.4805	0.1205	376961	keystroke	e	n/a
188.961	0.09	377922	keystroke	l	n/a
189.426	0.135	378852	keystroke	a	n/a
189.801	0.1055	379602	keystroke	t	n/a
190.056	0.12	380112	keystroke	e	n/a
190.5665	0.1045	381133	keystroke	s	n/a
190.851	0.12	381702	keystroke	Key.space	n/a
191.106	0.091	382212	keystroke	l	n/a
191.406	0.0905	382812	keystroke	u	n/a
191.706	0.121	383412	keystroke	c	n/a
192.0955	0.0905	384191	keystroke	i	n/a
192.2915	0.119	384583	keystroke	a	n/a
193.041	0.09	386082	keystroke	Key.enter	n/a
193.136	32.727	386272	prompt	n/a	conclusion electronics archived count\n
212.226	0.0895	424452	keystroke	c	n/a
212.7225	0.088	425445	keystroke	o	n/a
213.021	0.0595	426042	keystroke	n	n/a
213.2015	0.1195	426403	keystroke	s	n/a
213.801	0.0755	427602	keystroke	Key.backspace	n/a
213.921	0.1195	427842	keystroke	c	n/a
214.3135	0.0875	428627	keystroke	l	n/a
214.5655	0.091	429131	keystroke	u	n/a
215.1085	0.102	430217	keystroke	s	n/a
215.376	0.1195	430752	keystroke	i	n/a
215.721	0.105	431442	keystroke	o	n/a
215.931	0.09	431862	keystroke	n	n/a
216.1415	0.1195	432283	keystroke	Key.space	n/a
216.6055	0.075	433211	keystroke	l	n/a
216.981	0.075	433962	keystroke	Key.backspace	n/a
217.191	0.09	434382	keystroke	e	n/a
217.4465	0.075	434893	keystroke	l	n/a
217.686	0.09	435372	keystroke	e	n/a
218.1955	0.0905	436391	keystroke	c	n/a
218.496	0.105	436992	keystroke	t	n/a
218.796	0.105	437592	keystroke	r	n/a
219.0235	0.1025	438047	keystroke	o	n/a
219.3655	0.1055	438731	keystroke	n	n/a
219.771	0.075	439542	keystroke	i	n/a
220.086	0.12	440172	keystroke	c	n/a
220.448	0.118	440896	keystroke	s	n/a
220.7475	0.0885	441495	keystroke	Key.space	n/a
220.971	0.1045	441942	keystroke	a	n/a
221.361	0.1195	442722	keystroke	r	n/a
221.721	0.0745	443442	keystroke	c	n/a
221.976	0.0895	443952	keystroke	h	n/a
222.306	0.09	444612	keystroke	i	n/a
222.651	0.0905	445302	keystroke	v	n/a
222.966	0.12	445932	keystroke	e	n/a
223.416	0.09	446832	keystroke	d	n/a
223.671	0.105	447342	keystroke	Key.space	n/a
223.911	0.105	447822	keystroke	c	n/a
224.226	0.09	448452	keystroke	o	n/a
224.496	0.12	448992	keystroke	u	n/a
225.021	0.105	450042	keystroke	n	n/a
225.456	0.12	450912	keystroke	t	n/a
225.7715	0.09	451543	keystroke	Key.enter	n/a
225.867	13.4655	451734	prompt	n/a	desire periodically solid personally\n
226.8835	0.0725	453767	keystroke	d	n/a
227.121	0.105	454242	keystroke	e	n/a
227.496	0.0905	454992	keystroke	s	n/a
227.751	0.0905	455502	keystroke	i	n/a
228.157	0.134	456314	keystroke	r	n/a
228.4255	0.0905	456851	keystroke	e	n/a
228.861	0.1495	457722	keystroke	Key.space	n/a
229.386	0.105	458772	keystroke	p	n/a
229.5955	0.106	459191	keystroke	e	n/a
229.9555	0.0905	459911	keystroke	r	n/a
230.196	0.105	460392	keystroke	i	n/a
230.646	0.09	461292	keystroke	o	n/a
231.1285	0.1025	462257	keystroke	d	n/a
231.5305	0.106	463061	keystroke	i	n/a
232.191	0.105	464382	keystroke	c	n/a
232.446	0.075	464892	keystroke	a	n/a
232.7915	0.0745	465583	keystroke	l	n/a
233.0185	0.118	466037	keystroke	l	n/a
233.4515	0.074	466903	keystroke	y	n/a
233.736	0.12	467472	keystroke	Key.space	n/a
234.051	0.1055	468102	keystroke	s	n/a
234.351	0.075	468702	keystroke	o	n/a
234.696	0.09	469392	keystroke	l	n/a
234.9655	0.0755	469931	keystroke	i	n/a
235.401	0.1055	470802	keystroke	d	n/a
235.686	0.135	471372	keystroke	Key.space	n/a
236.0025	0.1035	472005	keystroke	p	n/a
236.3765	0.091	472753	keystroke	e	n/a
236.676	0.09	473352	keystroke	r	n/a
236.9615	0.0895	473923	keystroke	s	n/a
237.3805	0.1055	474761	keystroke	o	n/a
237.696	0.12	475392	keystroke	n	n/a
237.9655	0.1355	475931	keystroke	a	n/a
238.236	0.0895	476472	keystroke	l	n/a
238.524	0.1325	477048	keystroke	l	n/a
238.8805	0.0905	477761	keystroke	y	n/a
239.256	0.075	478512	keystroke	Key.enter	n/a
239.335	12.898	478670	prompt	n/a	unlikely notice ownership delicious\n
240.1855	0.09	480371	keystroke	u	n/a
240.441	0.105	480882	keystroke	n	n/a
240.681	0.12	481362	keystroke	l	n/a
241.071	0.106	482142	keystroke	i	n/a
241.386	0.1055	482772	keystroke	k	n/a
241.6255	0.1055	483251	keystroke	e	n/a
241.911	0.105	483822	keystroke	l	n/a
242.481	0.0905	484962	keystroke	y	n/a
242.8105	0.1055	485621	keystroke	Key.space	n/a
243.096	0.09	486192	keystroke	n	n/a
243.3805	0.09	486761	keystroke	o	n/a
243.6805	0.0905	487361	keystroke	t	n/a
243.9805	0.0905	487961	keystroke	i	n/a
244.2515	0.0895	488503	keystroke	c	n/a
244.836	0.09	489672	keystroke	e	n/a
245.106	0.1195	490212	keystroke	Key.space	n/a
246.0655	0.0755	492131	keystroke	o	n/a
246.246	0.12	492492	keystroke	w	n/a
246.591	0.1045	493182	keystroke	n	n/a
246.9815	0.089	493963	keystroke	e	n/a
247.266	0.09	494532	keystroke	r	n/a
247.521	0.09	495042	keystroke	s	n/a
248.0005	0.0905	496001	keystroke	h	n/a
248.376	0.12	496752	keystroke	i	n/a
248.751	0.105	497502	keystroke	p	n/a
248.9615	0.1195	497923	keystroke	Key.space	n/a
249.186	0.0905	498372	keystroke	d	n/a
249.396	0.09	498792	keystroke	e	n/a
249.861	0.09	499722	keystroke	l	n/a
250.1915	0.1055	500383	keystroke	i	n/a
250.491	0.1195	500982	keystroke	c	n/a
250.866	0.105	501732	keystroke	i	n/a
251.226	0.105	502452	keystroke	o	n/a
251.541	0.105	503082	keystroke	u	n/a
251.781	0.1075	503562	keystroke	s	n/a
252.1565	0.0745	504313	keystroke	Key.enter	n/a
252.2355	11.6825	504471	prompt	n/a	servers franchise gaming sought\n
253.011	0.1195	506022	keystroke	s	n/a
253.401	0.105	506802	keystroke	e	n/a
254.046	0.105	508092	keystroke	r	n/a
254.346	0.09	508692	keystroke	v	n/a
254.6165	0.1045	509233	keystroke	e	n/a
255.007	0.104	510014	keystroke	r	n/a
255.4415	0.105	510883	keystroke	s	n/a
255.726	0.135	511452	keystroke	Key.space	n/a
256.011	0.09	512022	keystroke	f	n/a
256.4015	0.0895	512803	keystroke	r	n/a
256.731	0.135	513462	keystroke	a	n/a
257.076	0.12	514152	keystroke	n	n/a
257.316	0.0905	514632	keystroke	c	n/a
257.871	0.0905	515742	keystroke	h	n/a
258.231	0.0755	516462	keystroke	i	n/a
258.5315	0.1045	517063	keystroke	s	n/a
258.846	0.12	517692	keystroke	e	n/a
259.1015	0.105	518203	keystroke	Key.space	n/a
259.418	0.103	518836	keystroke	g	n/a
259.7165	0.105	519433	keystroke	a	n/a
260.121	0.105	520242	keystroke	m	n/a
260.421	0.1055	520842	keystroke	i	n/a
260.796	0.1055	521592	keystroke	n	n/a
261.231	0.1055	522462	keystroke	g	n/a
261.516	0.123	523032	keystroke	Key.space	n/a
261.921	0.105	523842	keystroke	s	n/a
262.176	0.12	524352	keystroke	o	n/a
262.5365	0.1045	525073	keystroke	u	n/a
262.971	0.09	525942	keystroke	g	n/a
263.2565	0.0895	526513	keystroke	h	n/a
263.4965	0.075	526993	keystroke	t	n/a
263.8275	0.0885	527655	keystroke	Key.enter	n/a
263.9205	12.2375	527841	prompt	n/a	champions tennis influenced i've\n
264.8015	0.0895	529603	keystroke	c	n/a
265.1465	0.1345	530293	keystroke	h	n/a
265.626	0.1055	531252	keystroke	a	n/a
265.9865	0.105	531973	keystroke	m	n/a
266.376	0.09	532752	keystroke	p	n/a
266.751	0.1355	533502	keystroke	i	n/a
267.0515	0.09	534103	keystroke	o	n/a
267.381	0.12	534762	keystroke	n	n/a
267.786	0.122	535572	keystroke	s	n/a
268.0865	0.135	536173	keystroke	Key.space	n/a
268.3865	0.09	536773	keystroke	t	n/a
268.611	0.1205	537222	keystroke	e	n/a
269.0615	0.1195	538123	keystroke	n	n/a
269.451	0.1205	538902	keystroke	n	n/a
269.751	0.0905	539502	keystroke	i	n/a
270.1715	0.1195	540343	keystroke	s	n/a
270.456	0.1055	540912	keystroke	Key.space	n/a
270.7265	0.135	541453	keystroke	i	n/a
271.0715	0.0745	542143	keystroke	n	n/a
271.358	0.1035	542716	keystroke	f	n/a
271.7465	0.1075	543493	keystroke	l	n/a
272.1365	0.1345	544273	keystroke	u	n/a
272.4845	0.117	544969	keystroke	e	n/a
272.796	0.0905	545592	keystroke	n	n/a
273.096	0.1055	546192	keystroke	c	n/a
273.5915	0.12	547183	keystroke	e	n/a
273.936	0.1085	547872	keystroke	d	n/a
274.2085	0.133	548417	keystroke	Key.space	n/a
274.5075	0.1185	549015	keystroke	i	n/a
275.211	0.12	550422	keystroke	'	n/a
275.469	0.1025	550938	keystroke	v	n/a
275.8265	0.09	551653	keystroke	e	n/a
276.066	0.09	552132	keystroke	Key.enter	n/a
276.1615	35.246	552323	prompt	n/a	writes sigma poll june\n
278.5715	0.1045	557143	keystroke	w	n/a
278.766	0.1055	557532	keystroke	r	n/a
278.9765	0.0895	557953	keystroke	i	n/a
279.2765	0.1195	558553	keystroke	t	n/a
279.606	0.1205	559212	keystroke	e	n/a
279.981	0.1205	559962	keystroke	r	n/a
280.4165	0.09	560833	keystroke	Key.backspace	n/a
280.596	0.1055	561192	keystroke	s	n/a
280.8515	0.09	561703	keystroke	Key.space	n/a
281.0765	0.1045	562153	keystroke	s	n/a
281.5265	0.075	563053	keystroke	i	n/a
281.781	0.105	563562	keystroke	g	n/a
282.096	0.1355	564192	keystroke	m	n/a
282.3215	0.135	564643	keystroke	a	n/a
282.981	0.1505	565962	keystroke	s	n/a
283.5515	0.12	567103	keystroke	w	n/a
283.9865	0.135	567973	keystroke	Key.space	n/a
284.436	0.1355	568872	keystroke	Key.space	n/a
284.9465	0.1345	569893	keystroke	Key.space	n/a
285.5015	0.135	571003	keystroke	s	n/a
285.996	0.1355	571992	keystroke	s	n/a
286.4915	0.135	572983	keystroke	s	n/a
287.001	0.1355	574002	keystroke	Key.space	n/a
287.5415	0.1195	575083	keystroke	a	n/a
288.0215	0.165	576043	keystroke	a	n/a
288.5165	0.12	577033	keystroke	d	n/a
289.0265	0.135	578053	keystroke	d	n/a
289.5365	0.1195	579073	keystroke	d	n/a
290.0015	0.12	580003	keystroke	e	n/a
290.481	0.12	580962	keystroke	e	n/a
290.9765	0.1195	581953	keystroke	r	n/a
291.5165	0.137	583033	keystroke	r	n/a
291.952	0.12	583904	keystroke	e	n/a
292.4165	0.1495	584833	keystroke	w	n/a
292.896	0.12	585792	keystroke	q	n/a
293.361	0.135	586722	keystroke	t	n/a
293.811	0.1355	587622	keystroke	t	n/a
294.276	0.1505	588552	keystroke	y	n/a
294.711	0.1655	589422	keystroke	y	n/a
295.1615	0.1495	590323	keystroke	Key.space	n/a
295.7615	0.165	591523	keystroke	Key.space	n/a
296.3165	0.1495	592633	keystroke	Key.space	n/a
296.796	0.1205	593592	keystroke	Key.space	n/a
297.246	0.135	594492	keystroke	i	n/a
297.666	0.1355	595332	keystroke	d	n/a
298.2065	0.135	596413	keystroke	f	n/a
298.6265	0.18	597253	keystroke	Key.space	n/a
299.151	0.121	598302	keystroke	l	n/a
299.586	0.1505	599172	keystroke	Key.space	n/a
300.0515	0.135	600103	keystroke	l	n/a
300.5015	0.135	601003	keystroke	x	n/a
300.8915	0.1195	601783	keystroke	Key.backspace	n/a
301.3415	0.105	602683	keystroke	Key.backspace	n/a
301.821	0.09	603642	keystroke	Key.backspace	n/a
302.481	0.1655	604962	keystroke	Key.space	n/a
302.916	0.1205	605832	keystroke	Key.backspace	n/a
303.411	0.1505	606822	keystroke	Key.space	n/a
303.892	0.119	607784	keystroke	Key.backspace	n/a
304.3885	0.163	608777	keystroke	f	n/a
304.853	0.1185	609706	keystroke	Key.backspace	n/a
305.2865	0.12	610573	keystroke	d	n/a
306.426	0.0905	612852	keystroke	Key.backspace	n/a
307.0265	0.135	614053	keystroke	a	n/a
307.4465	0.1495	614893	keystroke	s	n/a
307.941	0.1505	615882	keystroke	Key.space	n/a
308.4365	0.15	616873	keystroke	Key.space	n/a
309.501	0.1055	619002	keystroke	j	n/a
309.981	0.1205	619962	keystroke	u	n/a
310.3865	0.12	620773	keystroke	n	n/a
310.971	0.1205	621942	keystroke	e	n/a
311.3015	0.1045	622603	keystroke	Key.enter	n/a
311.41	14.563	622820	prompt	n/a	almost canberra accounting buffer\n
312.3215	0.135	624643	keystroke	a	n/a
312.6515	0.105	625303	keystroke	l	n/a
313.087	0.1045	626174	keystroke	m	n/a
313.5365	0.105	627073	keystroke	o	n/a
313.807	0.1495	627614	keystroke	s	n/a
314.211	0.1055	628422	keystroke	t	n/a
314.496	0.1355	628992	keystroke	Key.space	n/a
314.8865	0.15	629773	keystroke	c	n/a
315.2315	0.1045	630463	keystroke	a	n/a
315.666	0.1055	631332	keystroke	n	n/a
315.8915	0.1045	631783	keystroke	b	n/a
316.266	0.1205	632532	keystroke	e	n/a
316.6605	0.116	633321	keystroke	r	n/a
317.1065	0.135	634213	keystroke	r	n/a
317.481	0.1065	634962	keystroke	a	n/a
317.8715	0.15	635743	keystroke	Key.space	n/a
318.1715	0.135	636343	keystroke	a	n/a
318.6215	0.12	637243	keystroke	c	n/a
319.1015	0.12	638203	keystroke	c	n/a
319.4915	0.1345	638983	keystroke	o	n/a
319.8365	0.135	639673	keystroke	u	n/a
320.407	0.1195	640814	keystroke	n	n/a
320.826	0.15	641652	keystroke	t	n/a
321.216	0.1205	642432	keystroke	i	n/a
321.6515	0.09	643303	keystroke	n	n/a
322.0715	0.1195	644143	keystroke	g	n/a
322.3865	0.105	644773	keystroke	Key.space	n/a
322.851	0.1205	645702	keystroke	b	n/a
323.3015	0.09	646603	keystroke	u	n/a
323.751	0.1205	647502	keystroke	f	n/a
324.188	0.1185	648376	keystroke	f	n/a
324.5615	0.1195	649123	keystroke	e	n/a
325.1165	0.135	650233	keystroke	r	n/a
325.401	0.1355	650802	keystroke	Key.space	n/a
325.866	0.1055	651732	keystroke	Key.enter	n/a
325.976	16.0475	651952	prompt	n/a	clouds porcelain departments clearly\n
327.0065	0.12	654013	keystroke	c	n/a
327.486	0.0905	654972	keystroke	l	n/a
327.7865	0.135	655573	keystroke	o	n/a
328.2215	0.15	656443	keystroke	u	n/a
328.911	0.1205	657822	keystroke	d	n/a
329.3015	0.105	658603	keystroke	s	n/a
329.5865	0.15	659173	keystroke	Key.space	n/a
330.081	0.1355	660162	keystroke	p	n/a
330.366	0.165	660732	keystroke	r	n/a
330.8165	0.0895	661633	keystroke	Key.backspace	n/a
331.221	0.09	662442	keystroke	o	n/a
331.5965	0.165	663193	keystroke	r	n/a
332.0315	0.105	664063	keystroke	c	n/a
332.3165	0.1195	664633	keystroke	e	n/a
332.766	0.0905	665532	keystroke	l	n/a
333.2915	0.135	666583	keystroke	a	n/a
333.666	0.1355	667332	keystroke	i	n/a
334.131	0.1055	668262	keystroke	n	n/a
334.281	0.1655	668562	keystroke	Key.space	n/a
334.6415	0.105	669283	keystroke	d	n/a
334.926	0.1355	669852	keystroke	e	n/a
335.2715	0.0745	670543	keystroke	m	n/a
335.6015	0.0745	671203	keystroke	Key.backspace	n/a
335.9165	0.12	671833	keystroke	p	n/a
336.2315	0.1645	672463	keystroke	a	n/a
336.6215	0.15	673243	keystroke	r	n/a
336.9515	0.137	673903	keystroke	t	n/a
337.281	0.1205	674562	keystroke	m	n/a
337.611	0.1205	675222	keystroke	e	n/a
337.9265	0.12	675853	keystroke	n	n/a
338.2415	0.135	676483	keystroke	t	n/a
338.7515	0.135	677503	keystroke	s	n/a
339.0215	0.105	678043	keystroke	Key.space	n/a
339.3065	0.0895	678613	keystroke	c	n/a
339.651	0.1055	679302	keystroke	l	n/a
339.981	0.1205	679962	keystroke	e	n/a
340.3265	0.105	680653	keystroke	a	n/a
340.7315	0.12	681463	keystroke	r	n/a
341.061	0.135	682122	keystroke	l	n/a
341.526	0.1205	683052	keystroke	y	n/a
341.9465	0.075	683893	keystroke	Key.enter	n/a
342.0285	8.8925	684057	prompt	n/a	flower material enemies frequently\n
342.7865	0.09	685573	keystroke	f	n/a
343.1165	0.075	686233	keystroke	l	n/a
343.492	0.104	686984	keystroke	o	n/a
343.7915	0.1195	687583	keystroke	w	n/a
344.1065	0.135	688213	keystroke	e	n/a
344.4515	0.1345	688903	keystroke	r	n/a
344.766	0.1205	689532	keystroke	Key.space	n/a
345.1265	0.121	690253	keystroke	m	n/a
345.4715	0.135	690943	keystroke	a	n/a
345.8465	0.0745	691693	keystroke	t	n/a
346.1915	0.1045	692383	keystroke	e	n/a
346.6265	0.105	693253	keystroke	r	n/a
347.0615	0.1345	694123	keystroke	i	n/a
347.2865	0.105	694573	keystroke	a	n/a
347.7515	0.105	695503	keystroke	l	n/a
348.0065	0.1045	696013	keystroke	Key.space	n/a
348.2915	0.1345	696583	keystroke	e	n/a
348.681	0.1205	697362	keystroke	n	n/a
348.981	0.105	697962	keystroke	e	n/a
349.416	0.1055	698832	keystroke	m	n/a
349.777	0.089	699554	keystroke	i	n/a
350.0615	0.1045	700123	keystroke	e	n/a
350.3915	0.1045	700783	keystroke	s	n/a
350.856	0.0625	701712	keystroke	Key.enter	n/a
350.924	13.914	701848	prompt	n/a	physically oclc imperial smithsonian\n
351.981	0.0905	703962	keystroke	p	n/a
352.2065	0.0895	704413	keystroke	h	n/a
352.521	0.1055	705042	keystroke	y	n/a
352.777	0.1345	705554	keystroke	s	n/a
353.0915	0.12	706183	keystroke	i	n/a
353.4365	0.015	706873	keystroke	c	n/a
353.6015	0.12	707203	keystroke	a	n/a
353.8565	0.105	707713	keystroke	l	n/a
354.1565	0.12	708313	keystroke	l	n/a
354.411	0.123	708822	keystroke	Key.space	n/a
354.981	0.1205	709962	keystroke	w	n/a
355.401	0.105	710802	keystroke	o	n/a
355.6415	0.1345	711283	keystroke	Key.space	n/a
356.181	0.1205	712362	keystroke	d	n/a
356.6015	0.1205	713203	keystroke	e	n/a
356.8565	0.105	713713	keystroke	Key.space	n/a
357.1415	0.09	714283	keystroke	m	n/a
357.396	0.1055	714792	keystroke	i	n/a
357.6815	0.09	715363	keystroke	n	n/a
357.996	0.105	715992	keystroke	g	n/a
358.2365	0.12	716473	keystroke	Key.space	n/a
358.4615	0.1045	716923	keystroke	z	n/a
358.6265	0.135	717253	keystroke	i	n/a
358.911	0.12	717822	keystroke	Key.space	n/a
359.196	0.1055	718392	keystroke	j	n/a
359.466	0.0905	718932	keystroke	i	n/a
359.691	0.1355	719382	keystroke	a	n/a
359.9165	0.105	719833	keystroke	o	n/a
360.111	0.1055	720222	keystroke	Key.space	n/a
360.3515	0.0895	720703	keystroke	z	n/a
360.5765	0.1195	721153	keystroke	u	n/a
360.8615	0.1195	721723	keystroke	o	n/a
361.0415	0.1495	722083	keystroke	Key.space	n/a
361.311	0.1055	722622	keystroke	z	n/a
361.566	0.1055	723132	keystroke	h	n/a
361.7765	0.1045	723553	keystroke	a	n/a
362.0165	0.105	724033	keystroke	n	n/a
362.181	0.1055	724362	keystroke	g	n/a
362.496	0.1355	724992	keystroke	Key.space	n/a
362.766	0.092	725532	keystroke	m	n/a
363.0065	0.0895	726013	keystroke	i	n/a
363.231	0.091	726462	keystroke	n	n/a
363.4415	0.135	726883	keystroke	g	n/a
363.7715	0.105	727543	keystroke	r	n/a
364.1015	0.105	728203	keystroke	u	n/a
364.3565	0.1045	728713	keystroke	i	n/a
364.748	0.0885	729496	keystroke	Key.enter	n/a
364.8405	14.2325	729681	prompt	n/a	fantasy held accountability franchise\n
366.096	0.121	732192	keystroke	f	n/a
366.351	0.1055	732702	keystroke	a	n/a
366.5915	0.0895	733183	keystroke	n	n/a
366.8765	0.0895	733753	keystroke	t	n/a
367.1615	0.1065	734323	keystroke	a	n/a
367.4165	0.075	734833	keystroke	c	n/a
367.791	0.1085	735582	keystroke	y	n/a
368.0015	0.12	736003	keystroke	Key.space	n/a
368.3165	0.075	736633	keystroke	Key.backspace	n/a
368.5415	0.09	737083	keystroke	Key.backspace	n/a
368.8275	0.0885	737655	keystroke	Key.backspace	n/a
369.0365	0.123	738073	keystroke	s	n/a
369.4415	0.09	738883	keystroke	y	n/a
369.681	0.1355	739362	keystroke	Key.space	n/a
370.056	0.0755	740112	keystroke	h	n/a
370.281	0.138	740562	keystroke	e	n/a
370.5365	0.15	741073	keystroke	l	n/a
370.9415	0.09	741883	keystroke	d	n/a
371.2415	0.1065	742483	keystroke	Key.space	n/a
371.6765	0.0895	743353	keystroke	a	n/a
371.9615	0.1045	743923	keystroke	c	n/a
372.246	0.1055	744492	keystroke	c	n/a
372.517	0.1045	745034	keystroke	o	n/a
372.7415	0.105	745483	keystroke	u	n/a
373.0265	0.12	746053	keystroke	n	n/a
373.311	0.1205	746622	keystroke	t	n/a
373.747	0.1215	747494	keystroke	a	n/a
374.061	0.075	748122	keystroke	b	n/a
374.226	0.121	748452	keystroke	i	n/a
374.6165	0.12	749233	keystroke	l	n/a
374.8715	0.105	749743	keystroke	i	n/a
375.1565	0.12	750313	keystroke	t	n/a
375.502	0.0905	751004	keystroke	y	n/a
375.742	0.1195	751484	keystroke	Key.space	n/a
376.0115	0.12	752023	keystroke	f	n/a
376.296	0.094	752592	keystroke	r	n/a
376.5365	0.135	753073	keystroke	a	n/a
377.1065	0.1045	754213	keystroke	n	n/a
377.3765	0.1345	754753	keystroke	c	n/a
377.7065	0.1045	755413	keystroke	h	n/a
377.9765	0.1195	755953	keystroke	i	n/a
378.2165	0.105	756433	keystroke	s	n/a
378.7115	0.09	757423	keystroke	e	n/a
378.9815	0.09	757963	keystroke	Key.enter	n/a
379.0775	15.6555	758155	prompt	n/a	charging delivers portsmouth turner\n
379.8665	0.1055	759733	keystroke	c	n/a
380.2415	0.0755	760483	keystroke	h	n/a
380.4815	0.1525	760963	keystroke	a	n/a
380.827	0.1055	761654	keystroke	r	n/a
381.217	0.1045	762434	keystroke	g	n/a
381.5015	0.105	763003	keystroke	i	n/a
381.8465	0.1195	763693	keystroke	n	n/a
383.0915	0.09	766183	keystroke	g	n/a
383.3465	0.1065	766693	keystroke	Key.space	n/a
383.6015	0.09	767203	keystroke	d	n/a
383.8265	0.105	767653	keystroke	e	n/a
384.187	0.1045	768374	keystroke	l	n/a
384.637	0.0895	769274	keystroke	i	n/a
384.9815	0.135	769963	keystroke	v	n/a
385.2815	0.12	770563	keystroke	e	n/a
385.5665	0.105	771133	keystroke	r	n/a
385.9115	0.135	771823	keystroke	s	n/a
386.1965	0.12	772393	keystroke	Key.space	n/a
386.7515	0.1505	773503	keystroke	p	n/a
387.1415	0.12	774283	keystroke	o	n/a
387.4715	0.15	774943	keystroke	r	n/a
387.847	0.1195	775694	keystroke	t	n/a
388.1625	0.119	776325	keystroke	s	n/a
388.6115	0.135	777223	keystroke	Key.space	n/a
388.8965	0.1055	777793	keystroke	m	n/a
389.1815	0.105	778363	keystroke	o	n/a
389.4225	0.149	778845	keystroke	u	n/a
389.8415	0.1345	779683	keystroke	Key.space	n/a
390.1565	0.12	780313	keystroke	t	n/a
390.4265	0.12	780853	keystroke	h	n/a
390.6665	0.1505	781333	keystroke	Key.space	n/a
391.0115	0.0605	782023	keystroke	a	n/a
391.4615	0.12	782923	keystroke	Key.space	n/a
391.8215	0.105	783643	keystroke	t	n/a
392.1365	0.1355	784273	keystroke	u	n/a
392.3765	0.12	784753	keystroke	r	n/a
392.677	0.1045	785354	keystroke	n	n/a
392.9015	0.12	785803	keystroke	e	n/a
393.4115	0.12	786823	keystroke	r	n/a
394.387	0.134	788774	keystroke	s	n/a
394.6415	0.09	789283	keystroke	Key.enter	n/a
394.7355	13.1825	789471	prompt	n/a	latex before ferrari affecting\n
396.1415	0.12	792283	keystroke	l	n/a
396.307	0.1195	792614	keystroke	a	n/a
396.7265	0.12	793453	keystroke	t	n/a
396.9965	0.1205	793993	keystroke	e	n/a
397.7915	0.106	795583	keystroke	x	n/a
398.062	0.1195	796124	keystroke	Key.space	n/a
398.3315	0.1055	796663	keystroke	r	n/a
398.572	0.1055	797144	keystroke	a	n/a
398.875	0.1165	797750	keystroke	y	n/a
399.187	0.135	798374	keystroke	Key.space	n/a
399.457	0.1195	798914	keystroke	z	n/a
399.8465	0.1055	799693	keystroke	h	n/a
400.0115	0.1355	800023	keystroke	a	n/a
400.433	0.1035	800866	keystroke	n	n/a
400.7765	0.135	801553	keystroke	g	n/a
401.0765	0.135	802153	keystroke	Key.space	n/a
401.4065	0.075	802813	keystroke	f	n/a
401.632	0.104	803264	keystroke	e	n/a
401.8865	0.1055	803773	keystroke	r	n/a
402.1585	0.1335	804317	keystroke	r	n/a
402.4565	0.1205	804913	keystroke	a	n/a
403.0565	0.135	806113	keystroke	r	n/a
403.3715	0.105	806743	keystroke	i	n/a
403.6415	0.1505	807283	keystroke	Key.space	n/a
404.062	0.1195	808124	keystroke	a	n/a
404.347	0.09	808694	keystroke	f	n/a
404.557	0.121	809114	keystroke	f	n/a
404.7815	0.105	809563	keystroke	e	n/a
405.0665	0.076	810133	keystroke	c	n/a
405.3365	0.09	810673	keystroke	t	n/a
405.9215	0.12	811843	keystroke	i	n/a
406.3865	0.09	812773	keystroke	n	n/a
406.6415	0.105	813283	keystroke	g	n/a
406.9265	0.1065	813853	keystroke	Key.space	n/a
407.8115	0.105	815623	keystroke	Key.enter	n/a
407.9205	12.973	815841	prompt	n/a	turning lucy yemen searched\n
411.757	0.1045	823514	keystroke	t	n/a
412.057	0.12	824114	keystroke	u	n/a
412.4315	0.1205	824863	keystroke	r	n/a
412.807	0.12	825614	keystroke	n	n/a
413.1815	0.09	826363	keystroke	i	n/a
413.5115	0.09	827023	keystroke	n	n/a
414.052	0.09	828104	keystroke	g	n/a
414.3665	0.1205	828733	keystroke	Key.space	n/a
414.6815	0.1205	829363	keystroke	l	n/a
415.072	0.09	830144	keystroke	u	n/a
415.237	0.12	830474	keystroke	c	n/a
415.6715	0.1055	831343	keystroke	y	n/a
415.927	0.1345	831854	keystroke	Key.space	n/a
416.362	0.1195	832724	keystroke	y	n/a
416.527	0.12	833054	keystroke	e	n/a
416.902	0.1195	833804	keystroke	m	n/a
417.532	0.1345	835064	keystroke	e	n/a
417.712	0.12	835424	keystroke	n	n/a
417.907	0.15	835814	keystroke	Key.space	n/a
418.177	0.1195	836354	keystroke	s	n/a
418.5515	0.1225	837103	keystroke	e	n/a
418.8965	0.1055	837793	keystroke	a	n/a
419.1965	0.1085	838393	keystroke	r	n/a
419.5265	0.12	839053	keystroke	c	n/a
419.7965	0.1055	839593	keystroke	h	n/a
419.962	0.1065	839924	keystroke	e	n/a
420.442	0.09	840884	keystroke	d	n/a
420.7565	0.1355	841513	keystroke	Key.enter	n/a
420.896	11.443	841792	prompt	n/a	olive currencies throws cosmetics\n
421.6715	0.0905	843343	keystroke	o	n/a
421.987	0.105	843974	keystroke	l	n/a
422.2915	0.1005	844583	keystroke	i	n/a
422.557	0.1195	845114	keystroke	v	n/a
423.007	0.1045	846014	keystroke	e	n/a
423.277	0.107	846554	keystroke	Key.space	n/a
423.532	0.105	847064	keystroke	c	n/a
423.862	0.0895	847724	keystroke	u	n/a
424.147	0.105	848294	keystroke	r	n/a
424.5665	0.1055	849133	keystroke	r	n/a
424.837	0.1195	849674	keystroke	e	n/a
425.302	0.1055	850604	keystroke	n	n/a
425.557	0.1045	851114	keystroke	c	n/a
425.917	0.105	851834	keystroke	i	n/a
426.157	0.105	852314	keystroke	e	n/a
426.5025	0.1345	853005	keystroke	s	n/a
426.8175	0.1345	853635	keystroke	Key.space	n/a
427.147	0.09	854294	keystroke	t	n/a
427.432	0.105	854864	keystroke	h	n/a
427.642	0.105	855284	keystroke	r	n/a
428.017	0.105	856034	keystroke	o	n/a
428.242	0.1355	856484	keystroke	w	n/a
428.632	0.1345	857264	keystroke	s	n/a
428.902	0.135	857804	keystroke	Key.space	n/a
429.232	0.1215	858464	keystroke	c	n/a
429.757	0.105	859514	keystroke	o	n/a
430.042	0.12	860084	keystroke	s	n/a
430.5815	0.1205	861163	keystroke	m	n/a
430.717	0.105	861434	keystroke	e	n/a
431.0625	0.089	862125	keystroke	t	n/a
431.272	0.12	862544	keystroke	i	n/a
431.527	0.075	863054	keystroke	c	n/a
431.932	0.1345	863864	keystroke	s	n/a
432.202	0.1355	864404	keystroke	Key.enter	n/a
432.342	17.322	864684	prompt	n/a	replies matters genesis architects\n
439.627	0.165	879254	keystroke	r	n/a
439.8065	0.105	879613	keystroke	e	n/a
440.1815	0.1055	880363	keystroke	p	n/a
440.4815	0.105	880963	keystroke	l	n/a
440.7225	0.1195	881445	keystroke	i	n/a
440.872	0.1225	881744	keystroke	e	n/a
441.2765	0.12	882553	keystroke	s	n/a
441.532	0.094	883064	keystroke	Key.space	n/a
441.79	0.1015	883580	keystroke	m	n/a
442.0425	0.1345	884085	keystroke	a	n/a
442.312	0.09	884624	keystroke	t	n/a
442.554	0.118	885108	keystroke	t	n/a
442.807	0.1045	885614	keystroke	e	n/a
443.1965	0.1055	886393	keystroke	r	n/a
443.557	0.105	887114	keystroke	s	n/a
443.8415	0.1385	887683	keystroke	Key.space	n/a
444.1455	0.0865	888291	keystroke	g	n/a
444.367	0.105	888734	keystroke	e	n/a
444.777	0.1325	889554	keystroke	n	n/a
445.1325	0.1195	890265	keystroke	e	n/a
445.4915	0.12	890983	keystroke	s	n/a
445.7315	0.1205	891463	keystroke	i	n/a
446.0025	0.1345	892005	keystroke	s	n/a
446.3025	0.1195	892605	keystroke	Key.space	n/a
446.5115	0.121	893023	keystroke	a	n/a
446.8875	0.135	893775	keystroke	r	n/a
447.217	0.09	894434	keystroke	c	n/a
447.532	0.09	895064	keystroke	h	n/a
447.7875	0.106	895575	keystroke	i	n/a
448.0115	0.1205	896023	keystroke	t	n/a
448.4475	0.1045	896895	keystroke	e	n/a
448.807	0.1195	897614	keystroke	c	n/a
449.107	0.0895	898214	keystroke	t	n/a
449.288	0.104	898576	keystroke	s	n/a
449.5725	0.0895	899145	keystroke	Key.enter	n/a
449.667	17.277	899334	prompt	n/a	heated dare meals land\n
454.9725	0.0745	909945	keystroke	t	n/a
455.124	0.0875	910248	keystroke	h	n/a
455.2425	0.1045	910485	keystroke	e	n/a
455.512	0.15	911024	keystroke	Key.space	n/a
455.827	0.12	911654	keystroke	s	n/a
456.097	0.12	912194	keystroke	p	n/a
456.25	0.133	912500	keystroke	a	n/a
456.637	0.09	913274	keystroke	c	n/a
456.862	0.1045	913724	keystroke	e	n/a
457.013	0.119	914026	keystroke	Key.space	n/a
457.3445	0.1175	914689	keystroke	f	n/a
457.5965	0.1055	915193	keystroke	o	n/a
458.062	0.165	916124	keystroke	r	n/a
458.317	0.123	916634	keystroke	Key.space	n/a
458.617	0.105	917234	keystroke	l	n/a
458.797	0.135	917594	keystroke	e	n/a
459.0965	0.1205	918193	keystroke	a	n/a
459.3815	0.121	918763	keystroke	s	n/a
459.865	0.1325	919730	keystroke	e	n/a
460.1325	0.1195	920265	keystroke	Key.space	n/a
460.522	0.0895	921044	keystroke	h	n/a
460.7175	0.1195	921435	keystroke	e	n/a
461.0025	0.1045	922005	keystroke	a	n/a
461.287	0.12	922574	keystroke	t	n/a
461.542	0.105	923084	keystroke	e	n/a
462.067	0.0755	924134	keystroke	d	n/a
462.367	0.151	924734	keystroke	Key.space	n/a
462.622	0.105	925244	keystroke	d	n/a
462.9225	0.1045	925845	keystroke	a	n/a
463.2525	0.1345	926505	keystroke	r	n/a
463.492	0.121	926984	keystroke	e	n/a
463.792	0.09	927584	keystroke	Key.space	n/a
464.017	0.1355	928034	keystroke	m	n/a
464.227	0.1205	928454	keystroke	e	n/a
464.602	0.1395	929204	keystroke	a	n/a
464.9025	0.1195	929805	keystroke	l	n/a
465.112	0.12	930224	keystroke	s	n/a
465.382	0.105	930764	keystroke	Key.space	n/a
465.6375	0.1345	931275	keystroke	l	n/a
465.7875	0.1345	931575	keystroke	a	n/a
466.192	0.107	932384	keystroke	n	n/a
466.4475	0.1195	932895	keystroke	d	n/a
466.867	0.075	933734	keystroke	Key.enter	n/a
466.947	14.351	933894	prompt	n/a	warrior accident maine copyrighted\n
471.352	0.1055	942704	keystroke	w	n/a
471.727	0.0775	943454	keystroke	o	n/a
471.952	0.075	943904	keystroke	r	n/a
472.297	0.1065	944594	keystroke	r	n/a
472.582	0.1205	945164	keystroke	i	n/a
472.9575	0.1065	945915	keystroke	o	n/a
473.422	0.1065	946844	keystroke	r	n/a
473.694	0.088	947388	keystroke	Key.space	n/a
473.9625	0.1195	947925	keystroke	a	n/a
474.2475	0.1045	948495	keystroke	c	n/a
474.5025	0.1345	949005	keystroke	c	n/a
474.802	0.09	949604	keystroke	i	n/a
475.012	0.105	950024	keystroke	d	n/a
475.267	0.1055	950534	keystroke	e	n/a
475.5845	0.088	951169	keystroke	n	n/a
475.807	0.105	951614	keystroke	t	n/a
476.1075	0.12	952215	keystroke	Key.space	n/a
476.5725	0.106	953145	keystroke	m	n/a
476.6925	0.1345	953385	keystroke	a	n/a
477.0525	0.1195	954105	keystroke	i	n/a
477.367	0.108	954734	keystroke	n	n/a
477.547	0.15	955094	keystroke	e	n/a
477.982	0.1205	955964	keystroke	Key.space	n/a
478.2385	0.104	956477	keystroke	c	n/a
478.4475	0.105	956895	keystroke	o	n/a
478.6875	0.1195	957375	keystroke	p	n/a
479.0625	0.1045	958125	keystroke	y	n/a
479.317	0.12	958634	keystroke	r	n/a
479.5575	0.1195	959115	keystroke	i	n/a
479.83	0.087	959660	keystroke	g	n/a
480.0375	0.092	960075	keystroke	h	n/a
480.2025	0.1345	960405	keystroke	t	n/a
480.6525	0.106	961305	keystroke	e	n/a
480.967	0.075	961934	keystroke	d	n/a
481.177	0.12	962354	keystroke	Key.enter	n/a
481.3005	10.993	962601	prompt	n/a	inquiry celebrate catholic surgery\n
482.032	0.105	964064	keystroke	i	n/a
482.272	0.09	964544	keystroke	n	n/a
482.437	0.105	964874	keystroke	q	n/a
482.842	0.1055	965684	keystroke	u	n/a
483.172	0.107	966344	keystroke	i	n/a
483.472	0.135	966944	keystroke	r	n/a
483.8025	0.1345	967605	keystroke	y	n/a
483.967	0.1075	967934	keystroke	Key.space	n/a
484.2375	0.1045	968475	keystroke	c	n/a
484.5075	0.12	969015	keystroke	e	n/a
484.8225	0.0895	969645	keystroke	l	n/a
485.0035	0.119	970007	keystroke	e	n/a
485.3175	0.0895	970635	keystroke	b	n/a
485.587	0.1205	971174	keystroke	r	n/a
485.9025	0.1345	971805	keystroke	a	n/a
486.247	0.1055	972494	keystroke	t	n/a
486.517	0.1055	973034	keystroke	e	n/a
486.8325	0.1195	973665	keystroke	Key.space	n/a
487.1925	0.1195	974385	keystroke	c	n/a
487.462	0.105	974924	keystroke	a	n/a
487.792	0.12	975584	keystroke	t	n/a
488.0775	0.1195	976155	keystroke	h	n/a
488.3325	0.09	976665	keystroke	o	n/a
488.6185	0.104	977237	keystroke	l	n/a
488.9775	0.105	977955	keystroke	i	n/a
489.292	0.1355	978584	keystroke	c	n/a
489.5775	0.1355	979155	keystroke	Key.space	n/a
489.863	0.119	979726	keystroke	s	n/a
490.1775	0.1195	980355	keystroke	u	n/a
490.432	0.105	980864	keystroke	r	n/a
491.0025	0.075	982005	keystroke	g	n/a
491.227	0.1055	982454	keystroke	e	n/a
491.542	0.105	983084	keystroke	r	n/a
491.842	0.1055	983684	keystroke	y	n/a
492.1875	0.105	984375	keystroke	Key.enter	n/a
492.2965	11.5475	984593	prompt	n/a	data acquisitions trials hosted\n
493.072	0.1205	986144	keystroke	d	n/a
493.402	0.1355	986804	keystroke	a	n/a
493.732	0.1055	987464	keystroke	t	n/a
494.0775	0.1195	988155	keystroke	a	n/a
494.3325	0.1345	988665	keystroke	Key.space	n/a
494.6025	0.12	989205	keystroke	a	n/a
494.9325	0.121	989865	keystroke	c	n/a
495.292	0.105	990584	keystroke	q	n/a
495.8025	0.09	991605	keystroke	u	n/a
496.1175	0.09	992235	keystroke	i	n/a
496.327	0.1055	992654	keystroke	s	n/a
496.822	0.105	993644	keystroke	i	n/a
497.1525	0.1345	994305	keystroke	s	n/a
497.617	0.1055	995234	keystroke	Key.backspace	n/a
497.8875	0.09	995775	keystroke	t	n/a
498.097	0.12	996194	keystroke	i	n/a
498.517	0.0905	997034	keystroke	o	n/a
498.9225	0.0895	997845	keystroke	n	n/a
499.0575	0.15	998115	keystroke	s	n/a
499.4325	0.1495	998865	keystroke	Key.space	n/a
499.837	0.0905	999674	keystroke	t	n/a
500.0775	0.1195	1000155	keystroke	r	n/a
500.3175	0.12	1000635	keystroke	i	n/a
500.5585	0.149	1001117	keystroke	a	n/a
500.9175	0.105	1001835	keystroke	l	n/a
501.2025	0.12	1002405	keystroke	s	n/a
501.4875	0.1655	1002975	keystroke	Key.space	n/a
501.9835	0.089	1003967	keystroke	h	n/a
502.2375	0.09	1004475	keystroke	o	n/a
502.448	0.119	1004896	keystroke	s	n/a
502.8075	0.12	1005615	keystroke	t	n/a
503.1525	0.092	1006305	keystroke	e	n/a
503.467	0.1055	1006934	keystroke	d	n/a
503.7525	0.09	1007505	keystroke	Key.enter	n/a
503.849	11.785	1007698	prompt	n/a	conclusion mayor debut montgomery\n
504.7575	0.105	1009515	keystroke	c	n/a
505.1775	0.1045	1010355	keystroke	o	n/a
505.4775	0.1215	1010955	keystroke	n	n/a
505.7175	0.135	1011435	keystroke	c	n/a
506.0635	0.1035	1012127	keystroke	l	n/a
506.3945	0.0875	1012789	keystroke	u	n/a
506.7225	0.12	1013445	keystroke	s	n/a
506.9775	0.1195	1013955	keystroke	i	n/a
507.2325	0.105	1014465	keystroke	o	n/a
507.7275	0.105	1015455	keystroke	n	n/a
507.9075	0.15	1015815	keystroke	Key.space	n/a
508.192	0.12	1016384	keystroke	m	n/a
508.432	0.135	1016864	keystroke	a	n/a
508.7025	0.105	1017405	keystroke	y	n/a
509.0325	0.105	1018065	keystroke	o	n/a
509.4375	0.135	1018875	keystroke	r	n/a
509.722	0.122	1019444	keystroke	Key.space	n/a
509.9775	0.0895	1019955	keystroke	d	n/a
510.218	0.0905	1020436	keystroke	e	n/a
510.5175	0.06	1021035	keystroke	b	n/a
510.8475	0.105	1021695	keystroke	u	n/a
511.132	0.1055	1022264	keystroke	t	n/a
511.3875	0.12	1022775	keystroke	Key.space	n/a
511.6575	0.105	1023315	keystroke	m	n/a
511.9275	0.105	1023855	keystroke	o	n/a
512.2275	0.09	1024455	keystroke	n	n/a
512.5425	0.105	1025085	keystroke	t	n/a
512.917	0.1055	1025834	keystroke	g	n/a
513.1425	0.12	1026285	keystroke	o	n/a
513.4275	0.15	1026855	keystroke	Key.space	n/a
513.7875	0.12	1027575	keystroke	m	n/a
513.997	0.1055	1027994	keystroke	e	n/a
514.3425	0.09	1028685	keystroke	t	n/a
514.582	0.1205	1029164	keystroke	r	n/a
515.1835	0.104	1030367	keystroke	y	n/a
515.542	0.0905	1031084	keystroke	Key.enter	n/a
515.6365	11.6675	1031273	prompt	n/a	vegetation bishop priority chamber\n
516.397	0.075	1032794	keystroke	v	n/a
516.6225	0.105	1033245	keystroke	e	n/a
517.0425	0.105	1034085	keystroke	g	n/a
517.3125	0.105	1034625	keystroke	e	n/a
517.597	0.1075	1035194	keystroke	t	n/a
517.882	0.105	1035764	keystroke	a	n/a
518.182	0.1205	1036364	keystroke	Key.space	n/a
518.482	0.1055	1036964	keystroke	t	n/a
518.7375	0.12	1037475	keystroke	i	n/a
519.007	0.123	1038014	keystroke	o	n/a
519.697	0.106	1039394	keystroke	n	n/a
520.0425	0.12	1040085	keystroke	Key.space	n/a
520.327	0.1055	1040654	keystroke	b	n/a
520.5375	0.135	1041075	keystroke	i	n/a
520.7475	0.107	1041495	keystroke	s	n/a
520.988	0.1045	1041976	keystroke	h	n/a
521.4375	0.12	1042875	keystroke	o	n/a
521.8575	0.1345	1043715	keystroke	p	n/a
522.082	0.1355	1044164	keystroke	Key.space	n/a
522.5025	0.12	1045005	keystroke	p	n/a
522.742	0.1205	1045484	keystroke	r	n/a
523.012	0.1205	1046024	keystroke	i	n/a
523.375	0.087	1046750	keystroke	o	n/a
523.7175	0.105	1047435	keystroke	r	n/a
523.882	0.1235	1047764	keystroke	i	n/a
524.3475	0.1045	1048695	keystroke	t	n/a
524.5875	0.105	1049175	keystroke	y	n/a
524.769	0.134	1049538	keystroke	Key.space	n/a
525.1005	0.072	1050201	keystroke	c	n/a
525.337	0.0905	1050674	keystroke	h	n/a
525.533	0.149	1051066	keystroke	a	n/a
525.9525	0.105	1051905	keystroke	m	n/a
526.194	0.118	1052388	keystroke	b	n/a
526.597	0.1355	1053194	keystroke	e	n/a
526.9425	0.12	1053885	keystroke	r	n/a
527.212	0.0905	1054424	keystroke	Key.enter	n/a
527.3065	11.1275	1054613	prompt	n/a	lack obtain translator comfortable\n
528.067	0.09	1056134	keystroke	l	n/a
528.4275	0.1215	1056855	keystroke	a	n/a
528.682	0.0905	1057364	keystroke	c	n/a
529.1325	0.1055	1058265	keystroke	k	n/a
529.313	0.1345	1058626	keystroke	Key.space	n/a
529.582	0.09	1059164	keystroke	o	n/a
529.823	0.104	1059646	keystroke	b	n/a
530.2875	0.105	1060575	keystroke	t	n/a
530.5575	0.105	1061115	keystroke	a	n/a
530.797	0.1205	1061594	keystroke	i	n/a
531.1725	0.105	1062345	keystroke	n	n/a
531.352	0.12	1062704	keystroke	Key.space	n/a
531.757	0.0905	1063514	keystroke	t	n/a
532.012	0.105	1064024	keystroke	r	n/a
532.2675	0.12	1064535	keystroke	a	n/a
532.597	0.1055	1065194	keystroke	n	n/a
532.8525	0.135	1065705	keystroke	s	n/a
533.242	0.0905	1066484	keystroke	l	n/a
533.407	0.1355	1066814	keystroke	a	n/a
533.8725	0.105	1067745	keystroke	t	n/a
534.1725	0.09	1068345	keystroke	o	n/a
534.443	0.0895	1068886	keystroke	r	n/a
534.712	0.0905	1069424	keystroke	Key.space	n/a
534.967	0.106	1069934	keystroke	c	n/a
535.1925	0.105	1070385	keystroke	o	n/a
535.48	0.087	1070960	keystroke	m	n/a
535.7925	0.12	1071585	keystroke	f	n/a
536.0325	0.09	1072065	keystroke	o	n/a
536.3025	0.135	1072605	keystroke	r	n/a
536.737	0.1055	1073474	keystroke	t	n/a
537.023	0.089	1074046	keystroke	a	n/a
537.3225	0.0745	1074645	keystroke	b	n/a
537.5625	0.1495	1075125	keystroke	l	n/a
538.012	0.1055	1076024	keystroke	e	n/a
538.312	0.1205	1076624	keystroke	Key.enter	n/a
538.437	11.352	1076874	prompt	n/a	estimates monitors uganda duck\n
539.1975	0.09	1078395	keystroke	e	n/a
539.512	0.1055	1079024	keystroke	s	n/a
539.797	0.1055	1079594	keystroke	t	n/a
540.0075	0.135	1080015	keystroke	i	n/a
540.457	0.1505	1080914	keystroke	Key.space	n/a
540.7425	0.105	1081485	keystroke	m	n/a
540.982	0.1205	1081964	keystroke	a	n/a
541.2525	0.12	1082505	keystroke	t	n/a
541.4925	0.135	1082985	keystroke	e	n/a
541.8525	0.135	1083705	keystroke	s	n/a
542.1375	0.105	1084275	keystroke	Key.space	n/a
542.4075	0.1045	1084815	keystroke	m	n/a
542.647	0.12	1085294	keystroke	o	n/a
542.992	0.105	1085984	keystroke	n	n/a
543.2175	0.1235	1086435	keystroke	i	n/a
543.5625	0.1195	1087125	keystroke	t	n/a
543.863	0.119	1087726	keystroke	Key.space	n/a
544.282	0.1055	1088564	keystroke	o	n/a
544.582	0.1205	1089164	keystroke	r	n/a
544.927	0.121	1089854	keystroke	s	n/a
545.212	0.1355	1090424	keystroke	Key.space	n/a
545.9175	0.12	1091835	keystroke	u	n/a
546.1725	0.09	1092345	keystroke	g	n/a
546.3265	0.116	1092653	keystroke	a	n/a
546.5625	0.1345	1093125	keystroke	n	n/a
546.7725	0.105	1093545	keystroke	Key.space	n/a
546.982	0.1505	1093964	keystroke	d	n/a
547.1175	0.165	1094235	keystroke	a	n/a
547.387	0.1205	1094774	keystroke	Key.space	n/a
547.5375	0.1505	1095075	keystroke	d	n/a
547.7025	0.135	1095405	keystroke	a	n/a
548.633	0.0895	1097266	keystroke	d	n/a
548.9175	0.105	1097835	keystroke	u	n/a
549.1575	0.12	1098315	keystroke	c	n/a
549.367	0.105	1098734	keystroke	k	n/a
549.6975	0.09	1099395	keystroke	Key.enter	n/a
549.7915	8.2925	1099583	prompt	n/a	configured hull host teachers\n
550.7925	0.1195	1101585	keystroke	c	n/a
551.062	0.09	1102124	keystroke	o	n/a
551.6655	0.072	1103331	keystroke	n	n/a
551.8575	0.12	1103715	keystroke	f	n/a
552.0075	0.1045	1104015	keystroke	i	n/a
552.1725	0.075	1104345	keystroke	g	n/a
552.412	0.0755	1104824	keystroke	u	n/a
552.5475	0.1195	1105095	keystroke	r	n/a
552.682	0.1205	1105364	keystroke	e	n/a
553.0725	0.0905	1106145	keystroke	d	n/a
553.327	0.0905	1106654	keystroke	Key.space	n/a
553.673	0.0745	1107346	keystroke	h	n/a
553.867	0.09	1107734	keystroke	u	n/a
554.1225	0.0895	1108245	keystroke	l	n/a
554.332	0.0755	1108664	keystroke	l	n/a
554.602	0.1205	1109204	keystroke	Key.space	n/a
554.8875	0.075	1109775	keystroke	h	n/a
555.0825	0.0895	1110165	keystroke	o	n/a
555.202	0.1205	1110404	keystroke	s	n/a
555.4455	0.102	1110891	keystroke	t	n/a
555.6225	0.105	1111245	keystroke	Key.space	n/a
555.8475	0.09	1111695	keystroke	t	n/a
555.9225	0.154	1111845	keystroke	e	n/a
556.282	0.1055	1112564	keystroke	e	n/a
556.642	0.1205	1113284	keystroke	a	n/a
556.9125	0.1045	1113825	keystroke	c	n/a
557.1375	0.09	1114275	keystroke	h	n/a
557.2725	0.18	1114545	keystroke	e	n/a
557.4375	0.135	1114875	keystroke	r	n/a
557.6925	0.1345	1115385	keystroke	s	n/a
557.9925	0.0895	1115985	keystroke	Key.enter	n/a
558.086	8.638	1116172	prompt	n/a	followed missile trackback muslim\n
558.8625	0.1045	1117725	keystroke	f	n/a
559.012	0.0905	1118024	keystroke	o	n/a
559.223	0.074	1118446	keystroke	l	n/a
559.4175	0.075	1118835	keystroke	l	n/a
559.6575	0.075	1119315	keystroke	o	n/a
559.882	0.1355	1119764	keystroke	w	n/a
560.1675	0.09	1120335	keystroke	e	n/a
560.4075	0.075	1120815	keystroke	d	n/a
560.6475	0.105	1121295	keystroke	Key.space	n/a
560.8725	0.075	1121745	keystroke	m	n/a
561.0845	0.073	1122169	keystroke	i	n/a
561.2625	0.09	1122525	keystroke	s	n/a
561.4725	0.09	1122945	keystroke	s	n/a
561.7135	0.119	1123427	keystroke	i	n/a
561.997	0.0755	1123994	keystroke	l	n/a
562.267	0.0905	1124534	keystroke	e	n/a
562.4625	0.1045	1124925	keystroke	Key.space	n/a
562.852	0.0455	1125704	keystroke	t	n/a
563.0325	0.045	1126065	keystroke	r	n/a
563.212	0.0935	1126424	keystroke	a	n/a
563.453	0.0595	1126906	keystroke	c	n/a
563.6325	0.075	1127265	keystroke	k	n/a
563.7705	0.0415	1127541	keystroke	Key.space	n/a
563.9475	0.09	1127895	keystroke	b	n/a
564.1425	0.075	1128285	keystroke	a	n/a
564.3525	0.0595	1128705	keystroke	c	n/a
564.5925	0.106	1129185	keystroke	k	n/a
564.772	0.1205	1129544	keystroke	Key.space	n/a
565.1025	0.0945	1130205	keystroke	m	n/a
565.3285	0.0885	1130657	keystroke	u	n/a
565.5375	0.123	1131075	keystroke	s	n/a
565.838	0.09	1131676	keystroke	l	n/a
566.0775	0.09	1132155	keystroke	i	n/a
566.332	0.1055	1132664	keystroke	m	n/a
566.6475	0.075	1133295	keystroke	Key.enter	n/a
566.7265	9.3275	1133453	prompt	n/a	geography why're lessons wooden\n
567.518	0.0595	1135036	keystroke	g	n/a
567.712	0.0905	1135424	keystroke	e	n/a
567.952	0.0905	1135904	keystroke	o	n/a
568.2225	0.105	1136445	keystroke	g	n/a
568.4925	0.1045	1136985	keystroke	r	n/a
568.7475	0.09	1137495	keystroke	a	n/a
569.0325	0.0905	1138065	keystroke	p	n/a
569.2425	0.075	1138485	keystroke	h	n/a
569.467	0.0905	1138934	keystroke	y	n/a
569.6625	0.1195	1139325	keystroke	Key.space	n/a
569.9025	0.12	1139805	keystroke	w	n/a
570.067	0.0905	1140134	keystroke	h	n/a
570.3375	0.09	1140675	keystroke	y	n/a
570.638	0.074	1141276	keystroke	'	n/a
570.9225	0.12	1141845	keystroke	r	n/a
571.1775	0.075	1142355	keystroke	e	n/a
571.4175	0.105	1142835	keystroke	Key.space	n/a
571.673	0.1045	1143346	keystroke	l	n/a
571.8975	0.09	1143795	keystroke	e	n/a
572.182	0.1055	1144364	keystroke	s	n/a
572.437	0.09	1144874	keystroke	s	n/a
572.7525	0.09	1145505	keystroke	i	n/a
572.978	0.089	1145956	keystroke	o	n/a
573.2775	0.09	1146555	keystroke	n	n/a
573.5205	0.1175	1147041	keystroke	Key.space	n/a
574.449	0.1035	1148898	keystroke	w	n/a
574.6145	0.1025	1149229	keystroke	o	n/a
574.8825	0.1045	1149765	keystroke	o	n/a
575.2455	0.102	1150491	keystroke	d	n/a
575.4675	0.105	1150935	keystroke	e	n/a
575.647	0.1055	1151294	keystroke	n	n/a
575.9775	0.075	1151955	keystroke	Key.enter	n/a
576.0565	8.5025	1152113	prompt	n/a	tops samsung tags paypal\n
577.358	0.1045	1154716	keystroke	t	n/a
577.5675	0.09	1155135	keystroke	o	n/a
577.8075	0.092	1155615	keystroke	p	n/a
578.018	0.105	1156036	keystroke	s	n/a
578.23	0.1025	1156460	keystroke	Key.space	n/a
578.588	0.0895	1157176	keystroke	s	n/a
578.7975	0.1055	1157595	keystroke	a	n/a
579.038	0.1345	1158076	keystroke	m	n/a
579.503	0.105	1159006	keystroke	s	n/a
579.743	0.105	1159486	keystroke	u	n/a
579.9975	0.0755	1159995	keystroke	n	n/a
580.148	0.09	1160296	keystroke	g	n/a
580.4635	0.104	1160927	keystroke	Key.space	n/a
581.603	0.09	1163206	keystroke	t	n/a
581.7825	0.1055	1163565	keystroke	a	n/a
582.0115	0.086	1164023	keystroke	g	n/a
582.173	0.105	1164346	keystroke	s	n/a
582.3975	0.1055	1164795	keystroke	Key.space	n/a
582.788	0.09	1165576	keystroke	p	n/a
582.893	0.0895	1165786	keystroke	a	n/a
583.133	0.105	1166266	keystroke	y	n/a
583.703	0.105	1167406	keystroke	p	n/a
583.853	0.1195	1167706	keystroke	a	n/a
584.078	0.0895	1168156	keystroke	l	n/a
584.4675	0.0905	1168935	keystroke	Key.enter	n/a
584.562	14.202	1169124	prompt	n/a	visit nominated depends delivery\n
586.448	0.0895	1172896	keystroke	v	n/a
586.6125	0.0905	1173225	keystroke	i	n/a
586.748	0.1195	1173496	keystroke	s	n/a
587.1525	0.0905	1174305	keystroke	t	n/a
587.603	0.1045	1175206	keystroke	e	n/a
588.1275	0.1055	1176255	keystroke	Key.backspace	n/a
588.4125	0.1055	1176825	keystroke	i	n/a
588.6105	0.102	1177221	keystroke	t	n/a
588.893	0.0895	1177786	keystroke	Key.space	n/a
591.6675	0.0905	1183335	keystroke	n	n/a
591.8935	0.104	1183787	keystroke	o	n/a
592.163	0.075	1184326	keystroke	m	n/a
592.361	0.087	1184722	keystroke	i	n/a
592.5975	0.0755	1185195	keystroke	n	n/a
592.793	0.1045	1185586	keystroke	a	n/a
593.048	0.1195	1186096	keystroke	t	n/a
593.2425	0.1205	1186485	keystroke	e	n/a
593.5125	0.0905	1187025	keystroke	d	n/a
593.753	0.105	1187506	keystroke	Key.space	n/a
593.9185	0.0895	1187837	keystroke	d	n/a
594.128	0.0745	1188256	keystroke	e	n/a
594.353	0.0445	1188706	keystroke	m	n/a
594.6825	0.06	1189365	keystroke	Key.backspace	n/a
594.9225	0.1055	1189845	keystroke	p	n/a
595.133	0.12	1190266	keystroke	e	n/a
595.2975	0.0905	1190595	keystroke	n	n/a
595.523	0.105	1191046	keystroke	d	n/a
595.763	0.09	1191526	keystroke	s	n/a
596.063	0.0775	1192126	keystroke	Key.space	n/a
596.258	0.09	1192516	keystroke	d	n/a
596.453	0.09	1192906	keystroke	e	n/a
596.648	0.09	1193296	keystroke	l	n/a
596.873	0.0895	1193746	keystroke	i	n/a
597.3675	0.1205	1194735	keystroke	v	n/a
597.6525	0.0785	1195305	keystroke	e	n/a
597.865	0.1025	1195730	keystroke	r	n/a
598.2825	0.12	1196565	keystroke	y	n/a
598.6875	0.0755	1197375	keystroke	Key.enter	n/a
598.767	10.017	1197534	prompt	n/a	folders pose continuously patrol\n
599.573	0.1345	1199146	keystroke	f	n/a
599.8125	0.09	1199625	keystroke	o	n/a
600.0675	0.0905	1200135	keystroke	l	n/a
600.233	0.09	1200466	keystroke	d	n/a
600.518	0.12	1201036	keystroke	e	n/a
600.758	0.105	1201516	keystroke	r	n/a
601.073	0.1195	1202146	keystroke	s	n/a
601.2975	0.1205	1202595	keystroke	Key.space	n/a
601.5825	0.0905	1203165	keystroke	p	n/a
601.8675	0.0905	1203735	keystroke	o	n/a
602.048	0.105	1204096	keystroke	s	n/a
602.348	0.1195	1204696	keystroke	e	n/a
602.6055	0.0875	1205211	keystroke	Key.space	n/a
603.053	0.09	1206106	keystroke	c	n/a
603.323	0.09	1206646	keystroke	o	n/a
603.563	0.0895	1207126	keystroke	n	n/a
603.7875	0.1055	1207575	keystroke	t	n/a
603.953	0.105	1207906	keystroke	i	n/a
604.208	0.0745	1208416	keystroke	n	n/a
604.478	0.0895	1208956	keystroke	u	n/a
604.973	0.09	1209946	keystroke	o	n/a
605.2285	0.0895	1210457	keystroke	u	n/a
605.4075	0.1505	1210815	keystroke	Key.space	n/a
605.723	0.105	1211446	keystroke	s	n/a
605.993	0.0895	1211986	keystroke	l	n/a
606.203	0.12	1212406	keystroke	y	n/a
606.3975	0.1505	1212795	keystroke	Key.space	n/a
607.073	0.09	1214146	keystroke	p	n/a
607.358	0.105	1214716	keystroke	a	n/a
607.658	0.0895	1215316	keystroke	t	n/a
607.8675	0.1055	1215735	keystroke	r	n/a
608.112	0.1005	1216224	keystroke	o	n/a
608.363	0.1045	1216726	keystroke	l	n/a
608.708	0.0745	1217416	keystroke	Key.enter	n/a
608.7875	7.484	1217575	prompt	n/a	live command tucson toner\n
609.593	0.0775	1219186	keystroke	l	n/a
609.803	0.075	1219606	keystroke	i	n/a
609.9525	0.0905	1219905	keystroke	v	n/a
610.2825	0.1055	1220565	keystroke	e	n/a
610.538	0.135	1221076	keystroke	Key.space	n/a
610.793	0.0895	1221586	keystroke	c	n/a
610.988	0.09	1221976	keystroke	o	n/a
611.273	0.06	1222546	keystroke	m	n/a
611.4975	0.1205	1222995	keystroke	m	n/a
611.7375	0.0905	1223475	keystroke	a	n/a
611.933	0.092	1223866	keystroke	n	n/a
612.1425	0.1055	1224285	keystroke	d	n/a
612.443	0.135	1224886	keystroke	Key.space	n/a
613.163	0.075	1226326	keystroke	t	n/a
613.4625	0.0755	1226925	keystroke	u	n/a
613.673	0.105	1227346	keystroke	c	n/a
613.973	0.0895	1227946	keystroke	s	n/a
614.1675	0.0905	1228335	keystroke	o	n/a
614.528	0.12	1229056	keystroke	n	n/a
614.6925	0.135	1229385	keystroke	Key.space	n/a
614.9925	0.075	1229985	keystroke	t	n/a
615.1755	0.0875	1230351	keystroke	o	n/a
615.428	0.09	1230856	keystroke	n	n/a
615.64	0.088	1231280	keystroke	e	n/a
615.9385	0.104	1231877	keystroke	r	n/a
616.148	0.122	1232296	keystroke	Key.enter	n/a
616.274	11.6805	1232548	prompt	n/a	longer pipeline standard threatening\n
617.003	0.09	1234006	keystroke	l	n/a
617.1985	0.0895	1234397	keystroke	o	n/a
617.543	0.0895	1235086	keystroke	n	n/a
617.813	0.09	1235626	keystroke	g	n/a
618.143	0.152	1236286	keystroke	e	n/a
618.3825	0.1055	1236765	keystroke	r	n/a
618.638	0.1055	1237276	keystroke	Key.space	n/a
618.9075	0.1205	1237815	keystroke	p	n/a
619.103	0.135	1238206	keystroke	i	n/a
619.538	0.105	1239076	keystroke	p	n/a
619.778	0.107	1239556	keystroke	e	n/a
620.018	0.1195	1240036	keystroke	l	n/a
620.378	0.0895	1240756	keystroke	Key.space	n/a
620.738	0.105	1241476	keystroke	i	n/a
620.9795	0.103	1241959	keystroke	n	n/a
621.1145	0.1335	1242229	keystroke	e	n/a
621.444	0.134	1242888	keystroke	Key.space	n/a
621.878	0.1195	1243756	keystroke	s	n/a
622.148	0.0915	1244296	keystroke	t	n/a
622.373	0.12	1244746	keystroke	a	n/a
622.688	0.105	1245376	keystroke	n	n/a
622.9875	0.0755	1245975	keystroke	d	n/a
623.288	0.12	1246576	keystroke	Key.space	n/a
623.6175	0.0905	1247235	keystroke	a	n/a
623.828	0.12	1247656	keystroke	r	n/a
624.143	0.105	1248286	keystroke	d	n/a
624.3975	0.1205	1248795	keystroke	Key.space	n/a
624.743	0.09	1249486	keystroke	t	n/a
624.9825	0.0905	1249965	keystroke	h	n/a
625.163	0.1195	1250326	keystroke	r	n/a
625.392	0.116	1250784	keystroke	e	n/a
625.673	0.105	1251346	keystroke	a	n/a
625.988	0.09	1251976	keystroke	t	n/a
626.2425	0.1205	1252485	keystroke	e	n/a
626.4845	0.1035	1252969	keystroke	n	n/a
626.693	0.1345	1253386	keystroke	Key.space	n/a
626.963	0.1045	1253926	keystroke	i	n/a
627.203	0.09	1254406	keystroke	n	n/a
627.4725	0.108	1254945	keystroke	g	n/a
627.848	0.105	1255696	keystroke	Key.enter	n/a
627.957	6.1925	1255914	prompt	n/a	ride vector out tabs\n
628.9275	0.1055	1257855	keystroke	r	n/a
629.1825	0.1055	1258365	keystroke	i	n/a
629.363	0.0905	1258726	keystroke	d	n/a
629.603	0.105	1259206	keystroke	e	n/a
629.9025	0.076	1259805	keystroke	Key.space	n/a
630.158	0.06	1260316	keystroke	v	n/a
630.4125	0.1055	1260825	keystroke	e	n/a
630.6825	0.0755	1261365	keystroke	c	n/a
630.9235	0.0895	1261847	keystroke	t	n/a
631.1625	0.0905	1262325	keystroke	o	n/a
631.388	0.12	1262776	keystroke	r	n/a
631.6595	0.119	1263319	keystroke	Key.space	n/a
632.168	0.09	1264336	keystroke	o	n/a
632.438	0.0905	1264876	keystroke	u	n/a
632.5885	0.135	1265177	keystroke	t	n/a
632.813	0.135	1265626	keystroke	Key.space	n/a
633.098	0.1205	1266196	keystroke	t	n/a
633.278	0.12	1266556	keystroke	a	n/a
633.608	0.06	1267216	keystroke	b	n/a
633.818	0.12	1267636	keystroke	s	n/a
634.0585	0.0895	1268117	keystroke	Key.enter	n/a
634.152	11.0525	1268304	prompt	n/a	hearing superintendent happen ruth\n
635.0935	0.0745	1270187	keystroke	h	n/a
635.288	0.105	1270576	keystroke	e	n/a
635.513	0.1055	1271026	keystroke	a	n/a
635.753	0.12	1271506	keystroke	r	n/a
636.023	0.105	1272046	keystroke	i	n/a
636.293	0.1095	1272586	keystroke	n	n/a
636.4735	0.105	1272947	keystroke	g	n/a
636.7	0.1335	1273400	keystroke	Key.space	n/a
637.178	0.105	1274356	keystroke	s	n/a
637.343	0.1205	1274686	keystroke	u	n/a
637.6615	0.1015	1275323	keystroke	p	n/a
637.8535	0.106	1275707	keystroke	e	n/a
638.126	0.117	1276252	keystroke	r	n/a
638.483	0.107	1276966	keystroke	Key.space	n/a
638.723	0.09	1277446	keystroke	i	n/a
638.9785	0.1045	1277957	keystroke	n	n/a
639.188	0.12	1278376	keystroke	t	n/a
639.413	0.135	1278826	keystroke	e	n/a
639.638	0.12	1279276	keystroke	n	n/a
639.893	0.09	1279786	keystroke	d	n/a
640.1185	0.1045	1280237	keystroke	e	n/a
640.298	0.12	1280596	keystroke	Key.space	n/a
640.868	0.1205	1281736	keystroke	n	n/a
641.063	0.1195	1282126	keystroke	t	n/a
641.3335	0.1045	1282667	keystroke	Key.space	n/a
641.6935	0.089	1283387	keystroke	h	n/a
641.828	0.12	1283656	keystroke	a	n/a
642.1435	0.074	1284287	keystroke	p	n/a
642.371	0.0875	1284742	keystroke	p	n/a
642.669	0.104	1285338	keystroke	y	n/a
643.178	0.0895	1286356	keystroke	Key.backspace	n/a
643.4655	0.1025	1286931	keystroke	e	n/a
643.6585	0.105	1287317	keystroke	n	n/a
643.868	0.135	1287736	keystroke	Key.space	n/a
644.168	0.12	1288336	keystroke	r	n/a
644.408	0.105	1288816	keystroke	u	n/a
644.6185	0.09	1289237	keystroke	t	n/a
644.798	0.075	1289596	keystroke	h	n/a
645.1125	0.0905	1290225	keystroke	Key.enter	n/a
645.207	10.723	1290414	prompt	n/a	punishment portions translate fields\n
645.998	0.105	1291996	keystroke	p	n/a
646.2385	0.0895	1292477	keystroke	u	n/a
646.523	0.1055	1293046	keystroke	s	n/a
646.8085	0.0745	1293617	keystroke	Key.backspace	n/a
647.0485	0.09	1294097	keystroke	n	n/a
647.273	0.09	1294546	keystroke	i	n/a
647.4235	0.1045	1294847	keystroke	s	n/a
647.618	0.12	1295236	keystroke	h	n/a
647.876	0.117	1295752	keystroke	Key.space	n/a
648.113	0.09	1296226	keystroke	m	n/a
648.248	0.105	1296496	keystroke	e	n/a
648.5185	0.0745	1297037	keystroke	n	n/a
648.683	0.122	1297366	keystroke	t	n/a
648.9535	0.105	1297907	keystroke	Key.space	n/a
649.283	0.09	1298566	keystroke	p	n/a
649.478	0.1235	1298956	keystroke	r	n/a
649.8085	0.0745	1299617	keystroke	Key.backspace	n/a
650.0485	0.105	1300097	keystroke	o	n/a
650.198	0.1355	1300396	keystroke	r	n/a
650.513	0.09	1301026	keystroke	t	n/a
650.6785	0.1195	1301357	keystroke	i	n/a
650.9635	0.1195	1301927	keystroke	o	n/a
651.2785	0.1045	1302557	keystroke	n	n/a
651.4735	0.105	1302947	keystroke	s	n/a
651.698	0.1355	1303396	keystroke	Key.space	n/a
651.968	0.0905	1303936	keystroke	t	n/a
652.2085	0.1045	1304417	keystroke	r	n/a
652.433	0.135	1304866	keystroke	a	n/a
652.6885	0.1045	1305377	keystroke	n	n/a
652.898	0.1355	1305796	keystroke	s	n/a
653.078	0.105	1306156	keystroke	l	n/a
653.3185	0.135	1306637	keystroke	a	n/a
653.5885	0.1195	1307177	keystroke	t	n/a
653.798	0.12	1307596	keystroke	e	n/a
654.0985	0.135	1308197	keystroke	Key.space	n/a
654.4585	0.12	1308917	keystroke	f	n/a
654.6415	0.117	1309283	keystroke	i	n/a
654.8035	0.137	1309607	keystroke	e	n/a
655.1065	0.087	1310213	keystroke	l	n/a
655.3435	0.105	1310687	keystroke	d	n/a
655.583	0.1055	1311166	keystroke	s	n/a
655.8535	0.075	1311707	keystroke	Key.enter	n/a
655.9335	9.4765	1311867	prompt	n/a	means consistent speaks seeks\n
656.7235	0.0895	1313447	keystroke	m	n/a
656.8585	0.12	1313717	keystroke	e	n/a
657.098	0.1055	1314196	keystroke	a	n/a
657.2335	0.105	1314467	keystroke	n	n/a
657.5185	0.12	1315037	keystroke	s	n/a
657.7885	0.12	1315577	keystroke	Key.space	n/a
658.028	0.1055	1316056	keystroke	c	n/a
658.2575	0.1455	1316515	keystroke	o	n/a
658.613	0.108	1317226	keystroke	n	n/a
658.8235	0.15	1317647	keystroke	s	n/a
659.0485	0.1195	1318097	keystroke	i	n/a
659.2585	0.061	1318517	keystroke	d	n/a
659.8285	0.0895	1319657	keystroke	Key.backspace	n/a
659.951	0.117	1319902	keystroke	s	n/a
660.2335	0.0895	1320467	keystroke	t	n/a
660.398	0.1205	1320796	keystroke	e	n/a
660.579	0.119	1321158	keystroke	n	n/a
660.8335	0.09	1321667	keystroke	t	n/a
661.028	0.15	1322056	keystroke	Key.space	n/a
661.6585	0.0895	1323317	keystroke	s	n/a
661.8535	0.12	1323707	keystroke	p	n/a
662.0185	0.105	1324037	keystroke	e	n/a
662.213	0.1355	1324426	keystroke	a	n/a
662.4085	0.1045	1324817	keystroke	k	n/a
662.6485	0.09	1325297	keystroke	e	n/a
663.023	0.1055	1326046	keystroke	s	n/a
663.265	0.118	1326530	keystroke	Key.space	n/a
664.1035	0.1045	1328207	keystroke	s	n/a
664.328	0.1055	1328656	keystroke	e	n/a
664.5535	0.105	1329107	keystroke	e	n/a
664.8085	0.12	1329617	keystroke	k	n/a
664.989	0.1495	1329978	keystroke	s	n/a
665.3205	0.088	1330641	keystroke	Key.enter	n/a
665.4125	9.1175	1330825	prompt	n/a	multiple pursue hits olive\n
667.2835	0.105	1334567	keystroke	m	n/a
667.5535	0.09	1335107	keystroke	u	n/a
667.868	0.1065	1335736	keystroke	l	n/a
668.198	0.1355	1336396	keystroke	Key.space	n/a
668.513	0.1055	1337026	keystroke	t	n/a
668.6635	0.1195	1337327	keystroke	i	n/a
668.9375	0.086	1337875	keystroke	p	n/a
669.1735	0.09	1338347	keystroke	l	n/a
669.3535	0.135	1338707	keystroke	e	n/a
669.638	0.1355	1339276	keystroke	Key.space	n/a
670.1485	0.09	1340297	keystroke	p	n/a
670.388	0.09	1340776	keystroke	u	n/a
670.598	0.1055	1341196	keystroke	r	n/a
670.868	0.0915	1341736	keystroke	s	n/a
671.138	0.091	1342276	keystroke	u	n/a
671.2285	0.12	1342457	keystroke	e	n/a
671.544	0.1345	1343088	keystroke	Key.space	n/a
672.0865	0.072	1344173	keystroke	h	n/a
672.278	0.12	1344556	keystroke	i	n/a
672.4735	0.09	1344947	keystroke	t	n/a
672.758	0.1055	1345516	keystroke	s	n/a
672.998	0.1655	1345996	keystroke	Key.space	n/a
673.268	0.0905	1346536	keystroke	o	n/a
673.5085	0.0745	1347017	keystroke	l	n/a
673.7485	0.105	1347497	keystroke	i	n/a
673.913	0.1205	1347826	keystroke	v	n/a
674.1985	0.105	1348397	keystroke	e	n/a
674.453	0.0755	1348906	keystroke	Key.enter	n/a
674.5325	12.0875	1349065	prompt	n/a	slovenia roulette chemistry educators\n
675.5785	0.1045	1351157	keystroke	s	n/a
675.8485	0.075	1351697	keystroke	l	n/a
676.0735	0.105	1352147	keystroke	o	n/a
676.4485	0.1345	1352897	keystroke	v	n/a
676.8535	0.15	1353707	keystroke	Key.space	n/a
677.288	0.12	1354576	keystroke	e	n/a
677.6185	0.12	1355237	keystroke	n	n/a
677.8735	0.1045	1355747	keystroke	i	n/a
678.0985	0.105	1356197	keystroke	a	n/a
678.398	0.15	1356796	keystroke	Key.space	n/a
678.743	0.1055	1357486	keystroke	r	n/a
678.968	0.1055	1357936	keystroke	o	n/a
679.268	0.1055	1358536	keystroke	u	n/a
679.583	0.1055	1359166	keystroke	l	n/a
679.8235	0.105	1359647	keystroke	e	n/a
680.2885	0.075	1360577	keystroke	t	n/a
680.498	0.105	1360996	keystroke	t	n/a
680.978	0.105	1361956	keystroke	e	n/a
681.2785	0.1345	1362557	keystroke	Key.space	n/a
681.7285	0.1195	1363457	keystroke	c	n/a
681.998	0.1055	1363996	keystroke	h	n/a
682.2085	0.1045	1364417	keystroke	e	n/a
682.5385	0.105	1365077	keystroke	m	n/a
682.8235	0.1075	1365647	keystroke	i	n/a
683.0935	0.1045	1366187	keystroke	s	n/a
683.397	0.0565	1366794	keystroke	t	n/a
683.589	0.1045	1367178	keystroke	r	n/a
683.813	0.1055	1367626	keystroke	y	n/a
684.0085	0.12	1368017	keystroke	Key.space	n/a
684.2635	0.1045	1368527	keystroke	e	n/a
684.5485	0.09	1369097	keystroke	d	n/a
684.7585	0.09	1369517	keystroke	u	n/a
685.013	0.09	1370026	keystroke	c	n/a
685.2535	0.1195	1370507	keystroke	a	n/a
685.613	0.105	1371226	keystroke	t	n/a
685.7785	0.135	1371557	keystroke	o	n/a
685.9285	0.12	1371857	keystroke	r	n/a
686.3035	0.09	1372607	keystroke	s	n/a
686.513	0.1055	1373026	keystroke	Key.enter	n/a
686.6225	9.0725	1373245	prompt	n/a	bobby sublime smile travel\n
687.4435	0.045	1374887	keystroke	b	n/a
687.6085	0.0895	1375217	keystroke	o	n/a
687.848	0.0905	1375696	keystroke	b	n/a
688.0885	0.0745	1376177	keystroke	b	n/a
688.3885	0.135	1376777	keystroke	y	n/a
688.613	0.1355	1377226	keystroke	Key.space	n/a
689.558	0.0905	1379116	keystroke	s	n/a
689.813	0.0905	1379626	keystroke	u	n/a
689.995	0.103	1379990	keystroke	b	n/a
690.2635	0.09	1380527	keystroke	Key.space	n/a
690.578	0.105	1381156	keystroke	l	n/a
690.792	0.0865	1381584	keystroke	i	n/a
691.013	0.105	1382026	keystroke	m	n/a
691.313	0.1205	1382626	keystroke	e	n/a
691.598	0.1055	1383196	keystroke	Key.space	n/a
691.8535	0.12	1383707	keystroke	s	n/a
692.153	0.0905	1384306	keystroke	m	n/a
692.4085	0.12	1384817	keystroke	i	n/a
692.6635	0.1045	1385327	keystroke	l	n/a
692.7985	0.105	1385597	keystroke	e	n/a
693.1285	0.105	1386257	keystroke	Key.space	n/a
693.8785	0.0895	1387757	keystroke	t	n/a
694.089	0.0745	1388178	keystroke	r	n/a
694.298	0.1205	1388596	keystroke	a	n/a
694.7055	0.148	1389411	keystroke	v	n/a
695.0185	0.105	1390037	keystroke	e	n/a
695.2435	0.12	1390487	keystroke	l	n/a
695.5735	0.12	1391147	keystroke	Key.enter	n/a
695.6995	7.945	1391399	prompt	n/a	poster storm olympics samba\n
696.5635	0.09	1393127	keystroke	p	n/a
696.7885	0.106	1393577	keystroke	o	n/a
696.968	0.1205	1393936	keystroke	s	n/a
697.313	0.1055	1394626	keystroke	t	n/a
697.568	0.1055	1395136	keystroke	e	n/a
697.9585	0.12	1395917	keystroke	r	n/a
698.228	0.1055	1396456	keystroke	Key.space	n/a
698.498	0.1205	1396996	keystroke	s	n/a
698.859	0.1045	1397718	keystroke	t	n/a
699.068	0.1205	1398136	keystroke	o	n/a
699.3085	0.135	1398617	keystroke	r	n/a
699.5485	0.1195	1399097	keystroke	m	n/a
699.7465	0.132	1399493	keystroke	Key.space	n/a
700.2105	0.0875	1400421	keystroke	o	n/a
700.433	0.0775	1400866	keystroke	l	n/a
700.659	0.1195	1401318	keystroke	y	n/a
700.9435	0.105	1401887	keystroke	m	n/a
701.2435	0.0905	1402487	keystroke	p	n/a
701.4985	0.1055	1402997	keystroke	i	n/a
701.6785	0.1045	1403357	keystroke	c	n/a
701.9485	0.1205	1403897	keystroke	s	n/a
702.1735	0.15	1404347	keystroke	Key.space	n/a
702.4285	0.105	1404857	keystroke	s	n/a
702.6535	0.1045	1405307	keystroke	a	n/a
702.833	0.1205	1405666	keystroke	m	n/a
703.104	0.1195	1406208	keystroke	b	n/a
703.3435	0.12	1406687	keystroke	a	n/a
703.5685	0.0745	1407137	keystroke	Key.enter	n/a
703.647	10.6335	1407294	prompt	n/a	consists calls expensive subsidiaries\n
704.9035	0.105	1409807	keystroke	c	n/a
705.0385	0.12	1410077	keystroke	o	n/a
705.3385	0.09	1410677	keystroke	n	n/a
705.8035	0.12	1411607	keystroke	s	n/a
705.9985	0.09	1411997	keystroke	i	n/a
706.2535	0.105	1412507	keystroke	s	n/a
706.4635	0.09	1412927	keystroke	t	n/a
706.6885	0.105	1413377	keystroke	s	n/a
706.8685	0.15	1413737	keystroke	Key.space	n/a
707.213	0.1055	1414426	keystroke	c	n/a
707.454	0.0895	1414908	keystroke	a	n/a
707.619	0.0895	1415238	keystroke	l	n/a
707.8735	0.0755	1415747	keystroke	l	n/a
708.1135	0.135	1416227	keystroke	Key.space	n/a
708.4885	0.12	1416977	keystroke	s	n/a
708.7735	0.105	1417547	keystroke	Key.space	n/a
709.3135	0.0895	1418627	keystroke	e	n/a
709.5385	0.123	1419077	keystroke	x	n/a
709.7335	0.09	1419467	keystroke	p	n/a
709.8535	0.1065	1419707	keystroke	e	n/a
710.126	0.087	1420252	keystroke	n	n/a
710.4835	0.075	1420967	keystroke	s	n/a
710.574	0.0745	1421148	keystroke	i	n/a
710.756	0.1025	1421512	keystroke	v	n/a
710.9785	0.0895	1421957	keystroke	e	n/a
711.2635	0.015	1422527	keystroke	Key.space	n/a
711.3235	0.1055	1422647	keystroke	s	n/a
711.519	0.0745	1423038	keystroke	u	n/a
711.6535	0.105	1423307	keystroke	b	n/a
711.8935	0.09	1423787	keystroke	s	n/a
712.0435	0.09	1424087	keystroke	i	n/a
712.568	0.0605	1425136	keystroke	d	n/a
712.6885	0.092	1425377	keystroke	i	n/a
712.8685	0.09	1425737	keystroke	a	n/a
713.2285	0.09	1426457	keystroke	r	n/a
713.634	0.0895	1427268	keystroke	i	n/a
713.741	0.072	1427482	keystroke	e	n/a
713.9485	0.105	1427897	keystroke	s	n/a
714.2075	0.071	1428415	keystroke	Key.enter	n/a
714.2835	11.0995	1428567	prompt	n/a	duncan randy urge tier\n
719.0635	0.09	1438127	keystroke	d	n/a
719.248	0.0705	1438496	keystroke	u	n/a
719.4685	0.077	1438937	keystroke	n	n/a
719.7835	0.075	1439567	keystroke	c	n/a
719.9635	0.0905	1439927	keystroke	a	n/a
720.099	0.09	1440198	keystroke	n	n/a
720.264	0.09	1440528	keystroke	Key.space	n/a
720.6235	0.1045	1441247	keystroke	r	n/a
720.8055	0.103	1441611	keystroke	a	n/a
720.9835	0.0755	1441967	keystroke	n	n/a
721.1335	0.075	1442267	keystroke	d	n/a
721.329	0.075	1442658	keystroke	y	n/a
721.449	0.12	1442898	keystroke	Key.space	n/a
722.1985	0.06	1444397	keystroke	u	n/a
722.304	0.1195	1444608	keystroke	r	n/a
722.5735	0.0755	1445147	keystroke	g	n/a
722.739	0.1045	1445478	keystroke	e	n/a
722.949	0.1045	1445898	keystroke	Key.space	n/a
723.4735	0.075	1446947	keystroke	t	n/a
723.6085	0.0895	1447217	keystroke	i	n/a
723.791	0.0875	1447582	keystroke	r	n/a
724.224	0.059	1448448	keystroke	Key.backspace	n/a
724.359	0.0895	1448718	keystroke	e	n/a
724.5875	0.086	1449175	keystroke	r	n/a
725.2885	0.093	1450577	keystroke	Key.enter	n/a
725.3855	13.3445	1450771	prompt	n/a	unfortunately interested simpsons programmes\n
727.4185	0.075	1454837	keystroke	u	n/a
727.6435	0.062	1455287	keystroke	n	n/a
727.779	0.134	1455558	keystroke	f	n/a
727.944	0.0925	1455888	keystroke	o	n/a
728.1835	0.12	1456367	keystroke	r	n/a
728.4835	0.105	1456967	keystroke	t	n/a
728.7985	0.0755	1457597	keystroke	u	n/a
729.0235	0.09	1458047	keystroke	n	n/a
729.279	0.1195	1458558	keystroke	a	n/a
729.609	0.135	1459218	keystroke	Key.space	n/a
730.179	0.1045	1460358	keystroke	t	n/a
730.374	0.105	1460748	keystroke	e	n/a
730.6135	0.1075	1461227	keystroke	l	n/a
730.824	0.12	1461648	keystroke	y	n/a
730.9895	0.164	1461979	keystroke	Key.space	n/a
731.8285	0.09	1463657	keystroke	i	n/a
732.024	0.09	1464048	keystroke	n	n/a
732.144	0.15	1464288	keystroke	t	n/a
732.3835	0.1205	1464767	keystroke	e	n/a
732.624	0.1205	1465248	keystroke	r	n/a
732.819	0.105	1465638	keystroke	e	n/a
733.059	0.09	1466118	keystroke	s	n/a
733.2535	0.0905	1466507	keystroke	t	n/a
733.419	0.105	1466838	keystroke	e	n/a
733.659	0.0895	1467318	keystroke	d	n/a
733.854	0.1345	1467708	keystroke	Key.space	n/a
734.304	0.09	1468608	keystroke	s	n/a
734.409	0.12	1468818	keystroke	i	n/a
734.649	0.09	1469298	keystroke	m	n/a
734.889	0.1195	1469778	keystroke	p	n/a
735.2935	0.105	1470587	keystroke	s	n/a
735.4585	0.106	1470917	keystroke	o	n/a
735.7135	0.09	1471427	keystroke	n	n/a
735.834	0.12	1471668	keystroke	s	n/a
736.074	0.153	1472148	keystroke	Key.space	n/a
736.719	0.12	1473438	keystroke	p	n/a
736.8685	0.1215	1473737	keystroke	r	n/a
737.049	0.1085	1474098	keystroke	o	n/a
737.214	0.1075	1474428	keystroke	g	n/a
737.484	0.0895	1474968	keystroke	r	n/a
737.6785	0.12	1475357	keystroke	a	n/a
737.889	0.066	1475778	keystroke	m	n/a
738.086	0.088	1476172	keystroke	m	n/a
738.2035	0.0905	1476407	keystroke	e	n/a
738.4285	0.1055	1476857	keystroke	s	n/a
738.639	0.0895	1477278	keystroke	Key.enter	n/a
738.733	8.907	1477466	prompt	n/a	surprising hazard ripe actors\n
739.5985	0.0905	1479197	keystroke	s	n/a
739.764	0.09	1479528	keystroke	u	n/a
739.959	0.105	1479918	keystroke	r	n/a
740.1685	0.12	1480337	keystroke	p	n/a
740.439	0.0895	1480878	keystroke	r	n/a
740.605	0.089	1481210	keystroke	i	n/a
740.7535	0.1205	1481507	keystroke	s	n/a
740.949	0.1345	1481898	keystroke	i	n/a
741.249	0.075	1482498	keystroke	n	n/a
741.4285	0.1055	1482857	keystroke	g	n/a
741.7	0.1035	1483400	keystroke	Key.space	n/a
742.164	0.09	1484328	keystroke	h	n/a
742.331	0.088	1484662	keystroke	a	n/a
742.554	0.1195	1485108	keystroke	r	n/a
742.8835	0.0605	1485767	keystroke	z	n/a
743.109	0.1045	1486218	keystroke	a	n/a
743.457	0.1025	1486914	keystroke	r	n/a
743.709	0.0745	1487418	keystroke	d	n/a
743.904	0.135	1487808	keystroke	Key.space	n/a
744.504	0.1045	1489008	keystroke	r	n/a
744.6985	0.1205	1489397	keystroke	i	n/a
744.939	0.1205	1489878	keystroke	p	n/a
745.059	0.09	1490118	keystroke	e	n/a
745.2685	0.1505	1490537	keystroke	Key.space	n/a
745.779	0.1045	1491558	keystroke	a	n/a
746.049	0.105	1492098	keystroke	c	n/a
746.4095	0.074	1492819	keystroke	t	n/a
746.829	0.09	1493658	keystroke	o	n/a
746.964	0.1345	1493928	keystroke	r	n/a
747.264	0.106	1494528	keystroke	s	n/a
747.5485	0.09	1495097	keystroke	Key.enter	n/a
747.643	16.71	1495286	prompt	n/a	talented imagination helped dresses\n
755.2585	0.0905	1510517	keystroke	t	n/a
755.574	0.12	1511148	keystroke	a	n/a
755.874	0.105	1511748	keystroke	l	n/a
755.9945	0.089	1511989	keystroke	e	n/a
756.1885	0.1205	1512377	keystroke	n	n/a
756.564	0.075	1513128	keystroke	t	n/a
756.7735	0.1055	1513547	keystroke	e	n/a
757.059	0.105	1514118	keystroke	d	n/a
757.2865	0.117	1514573	keystroke	Key.space	n/a
757.839	0.105	1515678	keystroke	i	n/a
758.1835	0.1055	1516367	keystroke	m	n/a
758.3645	0.119	1516729	keystroke	a	n/a
758.6805	0.088	1517361	keystroke	g	n/a
758.8295	0.1345	1517659	keystroke	i	n/a
759.189	0.09	1518378	keystroke	n	n/a
759.294	0.1195	1518588	keystroke	a	n/a
759.6235	0.09	1519247	keystroke	t	n/a
759.819	0.105	1519638	keystroke	i	n/a
760.089	0.105	1520178	keystroke	o	n/a
760.359	0.09	1520718	keystroke	n	n/a
760.494	0.1195	1520988	keystroke	Key.space	n/a
760.794	0.075	1521588	keystroke	h	n/a
760.929	0.1065	1521858	keystroke	e	n/a
761.154	0.105	1522308	keystroke	l	n/a
761.4685	0.1355	1522937	keystroke	p	n/a
761.7005	0.1135	1523401	keystroke	e	n/a
761.9645	0.104	1523929	keystroke	d	n/a
762.189	0.135	1524378	keystroke	Key.space	n/a
762.4605	0.1035	1524921	keystroke	d	n/a
762.699	0.105	1525398	keystroke	r	n/a
763.1045	0.0745	1526209	keystroke	e	n/a
763.3445	0.079	1526689	keystroke	s	n/a
763.5395	0.044	1527079	keystroke	s	n/a
763.764	0.1225	1527528	keystroke	e	n/a
763.974	0.105	1527948	keystroke	s	n/a
764.274	0.0775	1528548	keystroke	Key.enter	n/a
764.3555	10	1528711	prompt	n/a	compatible current suggestions cycles\n
765.489	0.105	1530978	keystroke	c	n/a
765.729	0.09	1531458	keystroke	o	n/a
765.9245	0.089	1531849	keystroke	m	n/a
766.194	0.0895	1532388	keystroke	p	n/a
766.4495	0.1045	1532899	keystroke	a	n/a
766.7195	0.1045	1533439	keystroke	t	n/a
766.914	0.09	1533828	keystroke	i	n/a
767.3195	0.0895	1534639	keystroke	b	n/a
767.559	0.09	1535118	keystroke	l	n/a
767.6635	0.105	1535327	keystroke	e	n/a
767.934	0.12	1535868	keystroke	Key.space	n/a
768.534	0.105	1537068	keystroke	c	n/a
768.744	0.075	1537488	keystroke	u	n/a
768.9085	0.0755	1537817	keystroke	r	n/a
769.1195	0.1195	1538239	keystroke	r	n/a
769.314	0.135	1538628	keystroke	e	n/a
769.5245	0.089	1539049	keystroke	n	n/a
769.7485	0.076	1539497	keystroke	t	n/a
770.004	0.12	1540008	keystroke	Key.space	n/a
770.5135	0.0755	1541027	keystroke	s	n/a
770.7235	0.1055	1541447	keystroke	u	n/a
770.919	0.09	1541838	keystroke	g	n/a
771.117	0.102	1542234	keystroke	g	n/a
771.2945	0.12	1542589	keystroke	e	n/a
771.5495	0.0895	1543099	keystroke	s	n/a
771.804	0.0755	1543608	keystroke	t	n/a
771.999	0.09	1543998	keystroke	i	n/a
772.194	0.0895	1544388	keystroke	o	n/a
772.4345	0.089	1544869	keystroke	n	n/a
772.5685	0.1205	1545137	keystroke	s	n/a
772.824	0.0895	1545648	keystroke	Key.space	n/a
773.0185	0.1055	1546037	keystroke	c	n/a
773.2585	0.0905	1546517	keystroke	y	n/a
773.4395	0.1045	1546879	keystroke	c	n/a
773.6495	0.1205	1547299	keystroke	l	n/a
773.7835	0.1055	1547567	keystroke	e	n/a
774.0245	0.089	1548049	keystroke	s	n/a
774.2675	0.0865	1548535	keystroke	Key.enter	n/a
774.3585	7.812	1548717	prompt	n/a	grade print candidate scanner\n
775.779	0.0895	1551558	keystroke	g	n/a
776.1245	0.1345	1552249	keystroke	r	n/a
776.3045	0.0895	1552609	keystroke	a	n/a
776.499	0.075	1552998	keystroke	d	n/a
776.6795	0.089	1553359	keystroke	e	n/a
776.844	0.12	1553688	keystroke	Key.space	n/a
777.2195	0.1345	1554439	keystroke	p	n/a
777.414	0.1365	1554828	keystroke	r	n/a
777.624	0.12	1555248	keystroke	i	n/a
777.894	0.1045	1555788	keystroke	n	n/a
778.1945	0.0895	1556389	keystroke	t	n/a
778.389	0.124	1556778	keystroke	Key.space	n/a
778.659	0.075	1557318	keystroke	c	n/a
778.854	0.1055	1557708	keystroke	a	n/a
779.0795	0.0895	1558159	keystroke	n	n/a
779.2895	0.0895	1558579	keystroke	d	n/a
779.499	0.1205	1558998	keystroke	i	n/a
779.6645	0.0765	1559329	keystroke	d	n/a
779.905	0.119	1559810	keystroke	a	n/a
780.0395	0.1345	1560079	keystroke	t	n/a
780.144	0.135	1560288	keystroke	e	n/a
780.414	0.1215	1560828	keystroke	Key.space	n/a
780.701	0.0885	1561402	keystroke	s	n/a
780.924	0.0755	1561848	keystroke	c	n/a
781.089	0.105	1562178	keystroke	a	n/a
781.254	0.105	1562508	keystroke	n	n/a
781.554	0.076	1563108	keystroke	n	n/a
781.6745	0.194	1563349	keystroke	e	n/a
781.824	0.12	1563648	keystroke	r	n/a
782.0945	0.0745	1564189	keystroke	Key.enter	n/a
782.174	10.032	1564348	prompt	n/a	scholarships daddy prevent financial\n
783.1445	0.1045	1566289	keystroke	s	n/a
783.399	0.0755	1566798	keystroke	c	n/a
783.4895	0.09	1566979	keystroke	h	n/a
783.687	0.087	1567374	keystroke	o	n/a
783.895	0.074	1567790	keystroke	l	n/a
783.999	0.105	1567998	keystroke	a	n/a
784.152	0.117	1568304	keystroke	r	n/a
784.359	0.105	1568718	keystroke	s	n/a
784.4835	0.0855	1568967	keystroke	h	n/a
784.704	0.0905	1569408	keystroke	i	n/a
784.899	0.075	1569798	keystroke	p	n/a
785.019	0.1055	1570038	keystroke	s	n/a
785.1545	0.135	1570309	keystroke	Key.space	n/a
785.3195	0.0445	1570639	keystroke	s	n/a
785.649	0.0935	1571298	keystroke	d	n/a
785.9345	0.0145	1571869	keystroke	a	n/a
786.0415	0.0575	1572083	keystroke	y	n/a
786.2645	0.09	1572529	keystroke	y	n/a
786.5495	0.0745	1573099	keystroke	d	n/a
786.969	0.075	1573938	keystroke	d	n/a
787.1945	0.089	1574389	keystroke	y	n/a
787.3445	0.122	1574689	keystroke	Key.space	n/a
787.9745	0.0895	1575949	keystroke	p	n/a
788.169	0.075	1576338	keystroke	r	n/a
788.3645	0.1045	1576729	keystroke	e	n/a
788.619	0.0755	1577238	keystroke	v	n/a
788.784	0.105	1577568	keystroke	e	n/a
788.934	0.0755	1577868	keystroke	n	n/a
789.084	0.1075	1578168	keystroke	t	n/a
789.2795	0.0895	1578559	keystroke	Key.space	n/a
789.699	0.03	1579398	keystroke	f	n/a
789.822	0.102	1579644	keystroke	i	n/a
790.134	0.075	1580268	keystroke	n	n/a
790.329	0.075	1580658	keystroke	a	n/a
790.509	0.09	1581018	keystroke	n	n/a
790.734	0.06	1581468	keystroke	t	n/a
791.169	0.06	1582338	keystroke	Key.backspace	n/a
791.3045	0.09	1582609	keystroke	c	n/a
791.409	0.12	1582818	keystroke	i	n/a
791.619	0.0935	1583238	keystroke	a	n/a
791.784	0.1055	1583568	keystroke	l	n/a
792.1145	0.09	1584229	keystroke	Key.enter	n/a
792.2085	7.7985	1584417	prompt	n/a	norton zoloft hans archive\n
793.6895	0.0895	1587379	keystroke	n	n/a
793.9015	0.0875	1587803	keystroke	o	n/a
794.154	0.12	1588308	keystroke	r	n/a
794.531	0.0735	1589062	keystroke	t	n/a
794.698	0.086	1589396	keystroke	o	n/a
794.949	0.09	1589898	keystroke	n	n/a
795.099	0.1355	1590198	keystroke	Key.space	n/a
795.354	0.1055	1590708	keystroke	z	n/a
795.549	0.09	1591098	keystroke	o	n/a
795.791	0.058	1591582	keystroke	l	n/a
795.999	0.075	1591998	keystroke	o	n/a
796.389	0.105	1592778	keystroke	f	n/a
796.6595	0.061	1593319	keystroke	t	n/a
796.8855	0.0735	1593771	keystroke	Key.space	n/a
797.187	0.0725	1594374	keystroke	h	n/a
797.3345	0.1045	1594669	keystroke	a	n/a
797.544	0.09	1595088	keystroke	n	n/a
797.709	0.12	1595418	keystroke	s	n/a
797.98	0.119	1595960	keystroke	Key.space	n/a
798.28	0.089	1596560	keystroke	a	n/a
798.489	0.105	1596978	keystroke	r	n/a
798.7595	0.1045	1597519	keystroke	c	n/a
798.954	0.075	1597908	keystroke	h	n/a
799.1645	0.0765	1598329	keystroke	i	n/a
799.3145	0.092	1598629	keystroke	v	n/a
799.5545	0.0895	1599109	keystroke	e	n/a
799.9295	0.0755	1599859	keystroke	Key.enter	n/a
800.01	8.8905	1600020	prompt	n/a	acrylic anytime jordan granted\n
800.8595	0.105	1601719	keystroke	a	n/a
801.2795	0.0895	1602559	keystroke	c	n/a
801.519	0.105	1603038	keystroke	r	n/a
801.8045	0.09	1603609	keystroke	y	n/a
802.149	0.0905	1604298	keystroke	l	n/a
802.391	0.088	1604782	keystroke	i	n/a
802.5245	0.105	1605049	keystroke	c	n/a
802.7495	0.1055	1605499	keystroke	Key.space	n/a
802.9745	0.09	1605949	keystroke	a	n/a
803.139	0.105	1606278	keystroke	n	n/a
803.4095	0.0895	1606819	keystroke	y	n/a
803.5745	0.1045	1607149	keystroke	t	n/a
803.739	0.1055	1607478	keystroke	i	n/a
804.009	0.1075	1608018	keystroke	m	n/a
804.159	0.1225	1608318	keystroke	e	n/a
804.414	0.105	1608828	keystroke	Key.space	n/a
804.6245	0.0895	1609249	keystroke	j	n/a
804.8045	0.0895	1609609	keystroke	r	n/a
805.284	0.092	1610568	keystroke	o	n/a
805.479	0.135	1610958	keystroke	r	n/a
805.809	0.105	1611618	keystroke	Key.space	n/a
806.034	0.09	1612068	keystroke	d	n/a
806.259	0.09	1612518	keystroke	a	n/a
806.4095	0.0895	1612819	keystroke	n	n/a
806.619	0.105	1613238	keystroke	Key.space	n/a
807.2195	0.0745	1614439	keystroke	g	n/a
807.432	0.087	1614864	keystroke	r	n/a
807.6095	0.121	1615219	keystroke	a	n/a
807.8495	0.09	1615699	keystroke	n	n/a
808.0895	0.075	1616179	keystroke	t	n/a
808.314	0.0905	1616628	keystroke	e	n/a
808.5545	0.0595	1617109	keystroke	d	n/a
808.7945	0.1045	1617589	keystroke	Key.enter	n/a
808.9045	9.761	1617809	prompt	n/a	budapest agencies warrior discounts\n
809.9945	0.0745	1619989	keystroke	b	n/a
810.1745	0.1045	1620349	keystroke	u	n/a
810.3395	0.105	1620679	keystroke	d	n/a
810.4895	0.165	1620979	keystroke	a	n/a
810.7745	0.09	1621549	keystroke	p	n/a
810.909	0.105	1621818	keystroke	e	n/a
811.224	0.06	1622448	keystroke	t	n/a
811.6445	0.075	1623289	keystroke	Key.backspace	n/a
811.7645	0.1195	1623529	keystroke	s	n/a
812.0045	0.09	1624009	keystroke	t	n/a
812.214	0.12	1624428	keystroke	Key.space	n/a
812.6195	0.0895	1625239	keystroke	a	n/a
812.8445	0.1055	1625689	keystroke	g	n/a
813.0395	0.1045	1626079	keystroke	e	n/a
813.236	0.0885	1626472	keystroke	n	n/a
813.4295	0.075	1626859	keystroke	c	n/a
813.6545	0.105	1627309	keystroke	i	n/a
813.7895	0.105	1627579	keystroke	e	n/a
814.1645	0.0905	1628329	keystroke	s	n/a
814.4495	0.09	1628899	keystroke	Key.space	n/a
814.6895	0.105	1629379	keystroke	w	n/a
814.9295	0.09	1629859	keystroke	a	n/a
815.1545	0.0895	1630309	keystroke	r	n/a
815.379	0.105	1630758	keystroke	r	n/a
815.6045	0.105	1631209	keystroke	i	n/a
815.8595	0.09	1631719	keystroke	o	n/a
816.009	0.12	1632018	keystroke	r	n/a
816.279	0.1075	1632558	keystroke	Key.space	n/a
816.6245	0.105	1633249	keystroke	d	n/a
816.819	0.105	1633638	keystroke	i	n/a
816.969	0.1205	1633938	keystroke	s	n/a
817.269	0.0905	1634538	keystroke	c	n/a
817.374	0.1085	1634748	keystroke	o	n/a
817.6465	0.1025	1635293	keystroke	u	n/a
817.9295	0.0895	1635859	keystroke	n	n/a
818.0795	0.1045	1636159	keystroke	t	n/a
818.3195	0.124	1636639	keystroke	s	n/a
818.577	0.0875	1637154	keystroke	Key.enter	n/a
818.668	8.3985	1637336	prompt	n/a	earth polish movers composed\n
819.4295	0.09	1638859	keystroke	e	n/a
819.654	0.1055	1639308	keystroke	a	n/a
819.8645	0.137	1639729	keystroke	r	n/a
820.4795	0.06	1640959	keystroke	t	n/a
820.7045	0.075	1641409	keystroke	h	n/a
820.914	0.12	1641828	keystroke	Key.space	n/a
821.439	0.06	1642878	keystroke	p	n/a
821.634	0.135	1643268	keystroke	o	n/a
821.9945	0.1195	1643989	keystroke	l	n/a
822.2495	0.09	1644499	keystroke	i	n/a
822.4445	0.09	1644889	keystroke	s	n/a
822.669	0.0905	1645338	keystroke	h	n/a
822.8495	0.09	1645699	keystroke	Key.space	n/a
823.5095	0.06	1647019	keystroke	m	n/a
823.6895	0.093	1647379	keystroke	o	n/a
823.8095	0.1055	1647619	keystroke	v	n/a
824.0345	0.1345	1648069	keystroke	e	n/a
824.1245	0.135	1648249	keystroke	r	n/a
824.454	0.105	1648908	keystroke	s	n/a
824.711	0.103	1649422	keystroke	Key.space	n/a
825.369	0.1055	1650738	keystroke	c	n/a
825.5195	0.075	1651039	keystroke	o	n/a
825.714	0.091	1651428	keystroke	m	n/a
825.9395	0.09	1651879	keystroke	p	n/a
826.149	0.1055	1652298	keystroke	o	n/a
826.284	0.1055	1652568	keystroke	s	n/a
826.524	0.0775	1653048	keystroke	e	n/a
826.7495	0.075	1653499	keystroke	d	n/a
826.9745	0.0905	1653949	keystroke	Key.enter	n/a
827.0695	10.4065	1654139	prompt	n/a	exactly wearing aggregate thriller\n
827.9495	0.0595	1655899	keystroke	e	n/a
828.1935	0.086	1656387	keystroke	x	n/a
829.2095	0.0895	1658419	keystroke	a	n/a
829.569	0.105	1659138	keystroke	c	n/a
829.9745	0.0765	1659949	keystroke	t	n/a
830.214	0.1055	1660428	keystroke	Key.space	n/a
830.469	0.0905	1660938	keystroke	l	n/a
830.7545	0.12	1661509	keystroke	y	n/a
830.9045	0.1195	1661809	keystroke	Key.space	n/a
831.3245	0.151	1662649	keystroke	w	n/a
831.5045	0.1495	1663009	keystroke	e	n/a
831.8645	0.09	1663729	keystroke	a	n/a
832.119	0.1055	1664238	keystroke	r	n/a
832.3895	0.105	1664779	keystroke	i	n/a
832.6295	0.09	1665259	keystroke	n	n/a
832.736	0.0885	1665472	keystroke	g	n/a
832.9895	0.09	1665979	keystroke	Key.space	n/a
833.2145	0.09	1666429	keystroke	a	n/a
833.514	0.076	1667028	keystroke	g	n/a
833.7095	0.0895	1667419	keystroke	g	n/a
833.9645	0.1195	1667929	keystroke	r	n/a
834.1745	0.121	1668349	keystroke	e	n/a
834.549	0.09	1669098	keystroke	g	n/a
834.7445	0.1045	1669489	keystroke	a	n/a
834.969	0.0755	1669938	keystroke	t	n/a
835.091	0.1485	1670182	keystroke	e	n/a
835.3745	0.1195	1670749	keystroke	Key.space	n/a
835.6745	0.075	1671349	keystroke	t	n/a
835.8395	0.105	1671679	keystroke	h	n/a
835.9745	0.12	1671949	keystroke	r	n/a
836.169	0.1205	1672338	keystroke	i	n/a
836.4245	0.0745	1672849	keystroke	l	n/a
836.6195	0.075	1673239	keystroke	l	n/a
836.9195	0.0895	1673839	keystroke	e	n/a
837.1475	0.102	1674295	keystroke	r	n/a
837.384	0.0905	1674768	keystroke	Key.enter	n/a
837.479	7.242	1674958	prompt	n/a	plate joining meal wiring\n
838.299	0.1095	1676598	keystroke	p	n/a
838.541	0.0885	1677082	keystroke	l	n/a
838.6445	0.12	1677289	keystroke	a	n/a
838.899	0.106	1677798	keystroke	t	n/a
839.0945	0.1345	1678189	keystroke	e	n/a
839.199	0.1375	1678398	keystroke	Key.space	n/a
839.5295	0.09	1679059	keystroke	j	n/a
839.7545	0.105	1679509	keystroke	o	n/a
839.9795	0.0895	1679959	keystroke	i	n/a
840.1895	0.09	1680379	keystroke	n	n/a
840.399	0.1055	1680798	keystroke	i	n/a
840.609	0.105	1681218	keystroke	n	n/a
840.8045	0.12	1681609	keystroke	g	n/a
841.0295	0.1045	1682059	keystroke	Key.space	n/a
841.464	0.0755	1682928	keystroke	m	n/a
841.614	0.0905	1683228	keystroke	e	n/a
841.825	0.089	1683650	keystroke	a	n/a
841.9895	0.06	1683979	keystroke	n	n/a
842.544	0.0905	1685088	keystroke	l	n/a
842.6945	0.1045	1685389	keystroke	Key.space	n/a
843.2945	0.0895	1686589	keystroke	w	n/a
843.5495	0.09	1687099	keystroke	i	n/a
843.699	0.1355	1687398	keystroke	r	n/a
843.9395	0.12	1687879	keystroke	i	n/a
844.2395	0.09	1688479	keystroke	n	n/a
844.39	0.1045	1688780	keystroke	g	n/a
844.629	0.0905	1689258	keystroke	Key.enter	n/a
844.724	8.367	1689448	prompt	n/a	impressive crime blond alexandria\n
845.5145	0.09	1691029	keystroke	i	n/a
845.724	0.06	1691448	keystroke	m	n/a
845.9355	0.089	1691871	keystroke	p	n/a
846.102	0.1775	1692204	keystroke	r	n/a
846.235	0.149	1692470	keystroke	e	n/a
846.566	0.088	1693132	keystroke	s	n/a
846.774	0.0905	1693548	keystroke	s	n/a
846.9395	0.1345	1693879	keystroke	i	n/a
847.1195	0.076	1694239	keystroke	v	n/a
847.3295	0.105	1694659	keystroke	e	n/a
847.614	0.1205	1695228	keystroke	Key.space	n/a
847.869	0.0905	1695738	keystroke	c	n/a
848.154	0.1055	1696308	keystroke	r	n/a
848.3495	0.1195	1696699	keystroke	i	n/a
848.6345	0.075	1697269	keystroke	m	n/a
848.769	0.1055	1697538	keystroke	e	n/a
849.0395	0.0745	1698079	keystroke	Key.space	n/a
849.264	0.0905	1698528	keystroke	b	n/a
849.4295	0.1045	1698859	keystroke	l	n/a
849.6545	0.09	1699309	keystroke	o	n/a
849.8825	0.1015	1699765	keystroke	n	n/a
850.0595	0.09	1700119	keystroke	d	n/a
850.299	0.1355	1700598	keystroke	Key.space	n/a
850.6895	0.09	1701379	keystroke	a	n/a
850.914	0.1055	1701828	keystroke	l	n/a
851.0495	0.0895	1702099	keystroke	e	n/a
851.304	0.0905	1702608	keystroke	x	n/a
851.499	0.1355	1702998	keystroke	a	n/a
851.7245	0.105	1703449	keystroke	n	n/a
852.0095	0.1045	1704019	keystroke	d	n/a
852.2645	0.1195	1704529	keystroke	r	n/a
852.4745	0.105	1704949	keystroke	i	n/a
852.6545	0.1195	1705309	keystroke	a	n/a
853.014	0.0755	1706028	keystroke	Key.enter	n/a
853.0935	10.3635	1706187	prompt	n/a	serbia lang appliances commissioners\n
854.0045	0.075	1708009	keystroke	s	n/a
854.214	0.12	1708428	keystroke	e	n/a
854.4095	0.135	1708819	keystroke	r	n/a
854.8445	0.09	1709689	keystroke	b	n/a
854.9795	0.1195	1709959	keystroke	i	n/a
855.1445	0.105	1710289	keystroke	a	n/a
855.3575	0.102	1710715	keystroke	Key.space	n/a
855.7895	0.105	1711579	keystroke	l	n/a
855.9395	0.105	1711879	keystroke	a	n/a
856.1045	0.105	1712209	keystroke	n	n/a
856.2545	0.075	1712509	keystroke	g	n/a
856.4945	0.1045	1712989	keystroke	Key.space	n/a
856.825	0.089	1713650	keystroke	a	n/a
857.0345	0.06	1714069	keystroke	p	n/a
857.229	0.0905	1714458	keystroke	p	n/a
857.499	0.1055	1714998	keystroke	l	n/a
857.6645	0.1345	1715329	keystroke	i	n/a
857.889	0.1055	1715778	keystroke	a	n/a
858.099	0.09	1716198	keystroke	n	n/a
858.4595	0.0905	1716919	keystroke	Key.space	n/a
858.6395	0.105	1717279	keystroke	c	n/a
858.879	0.0755	1717758	keystroke	e	n/a
859.1045	0.075	1718209	keystroke	s	n/a
859.302	0.133	1718604	keystroke	Key.space	n/a
859.7045	0.075	1719409	keystroke	c	n/a
859.8245	0.107	1719649	keystroke	o	n/a
860.0795	0.075	1720159	keystroke	m	n/a
860.2895	0.075	1720579	keystroke	m	n/a
860.484	0.1055	1720968	keystroke	i	n/a
860.6045	0.1055	1721209	keystroke	s	n/a
860.8445	0.105	1721689	keystroke	i	n/a
861.357	0.133	1722714	keystroke	Key.space	n/a
861.7895	0.1205	1723579	keystroke	s	n/a
862.014	0.1065	1724028	keystroke	i	n/a
862.2395	0.09	1724479	keystroke	o	n/a
862.4645	0.075	1724929	keystroke	n	n/a
862.6895	0.135	1725379	keystroke	e	n/a
862.7795	0.12	1725559	keystroke	r	n/a
863.0945	0.0895	1726189	keystroke	s	n/a
863.381	0.0735	1726762	keystroke	Key.enter	n/a
863.4595	6.1165	1726919	prompt	n/a	mods wear some latter\n
864.3995	0.06	1728799	keystroke	m	n/a
864.5795	0.0895	1729159	keystroke	o	n/a
864.684	0.0905	1729368	keystroke	d	n/a
865.1345	0.1055	1730269	keystroke	s	n/a
865.3595	0.105	1730719	keystroke	Key.space	n/a
865.5845	0.105	1731169	keystroke	w	n/a
865.8395	0.105	1731679	keystroke	e	n/a
866.0795	0.1045	1732159	keystroke	a	n/a
866.3195	0.135	1732639	keystroke	r	n/a
866.545	0.0895	1733090	keystroke	Key.space	n/a
867.0545	0.075	1734109	keystroke	s	n/a
867.2345	0.093	1734469	keystroke	o	n/a
867.4595	0.06	1734919	keystroke	m	n/a
867.5645	0.1045	1735129	keystroke	e	n/a
867.7445	0.105	1735489	keystroke	Key.space	n/a
868.1195	0.09	1736239	keystroke	l	n/a
868.3295	0.094	1736659	keystroke	a	n/a
868.555	0.0745	1737110	keystroke	t	n/a
868.7495	0.09	1737499	keystroke	t	n/a
869.0195	0.135	1738039	keystroke	e	n/a
869.26	0.1045	1738520	keystroke	r	n/a
869.455	0.1195	1738910	keystroke	Key.enter	n/a
869.5785	7.965	1739157	prompt	n/a	districts planet solar barrier\n
870.2795	0.0895	1740559	keystroke	d	n/a
870.4295	0.1045	1740859	keystroke	i	n/a
870.55	0.119	1741100	keystroke	s	n/a
870.8345	0.09	1741669	keystroke	t	n/a
871.0295	0.1195	1742059	keystroke	r	n/a
871.2405	0.119	1742481	keystroke	i	n/a
871.4195	0.105	1742839	keystroke	c	n/a
871.706	0.1035	1743412	keystroke	s	n/a
872.0055	0.0595	1744011	keystroke	t	n/a
872.2295	0.106	1744459	keystroke	s	n/a
872.3795	0.1345	1744759	keystroke	Key.space	n/a
872.8745	0.105	1745749	keystroke	p	n/a
873.0995	0.105	1746199	keystroke	l	n/a
873.2195	0.105	1746439	keystroke	a	n/a
873.4445	0.075	1746889	keystroke	n	n/a
873.564	0.105	1747128	keystroke	e	n/a
873.8495	0.105	1747699	keystroke	t	n/a
874.014	0.1205	1748028	keystroke	Key.space	n/a
874.6445	0.105	1749289	keystroke	s	n/a
874.7945	0.105	1749589	keystroke	o	n/a
875.0495	0.1055	1750099	keystroke	l	n/a
875.3495	0.1195	1750699	keystroke	a	n/a
875.5595	0.15	1751119	keystroke	r	n/a
875.7245	0.0935	1751449	keystroke	Key.space	n/a
875.995	0.089	1751990	keystroke	b	n/a
876.19	0.1195	1752380	keystroke	a	n/a
876.3995	0.09	1752799	keystroke	r	n/a
876.6095	0.0895	1753219	keystroke	r	n/a
876.7745	0.12	1753549	keystroke	i	n/a
876.9245	0.1225	1753849	keystroke	e	n/a
877.1795	0.1195	1754359	keystroke	r	n/a
877.4195	0.1225	1754839	keystroke	Key.enter	n/a
877.546	9.595	1755092	prompt	n/a	translation malpractice drawing kenny\n
878.3795	0.0635	1756759	keystroke	t	n/a
878.5745	0.075	1757149	keystroke	r	n/a
878.7545	0.1055	1757509	keystroke	a	n/a
878.9195	0.0895	1757839	keystroke	n	n/a
879.069	0.0905	1758138	keystroke	s	n/a
879.3095	0.09	1758619	keystroke	l	n/a
879.4445	0.105	1758889	keystroke	a	n/a
879.714	0.075	1759428	keystroke	t	n/a
879.9395	0.105	1759879	keystroke	i	n/a
880.1645	0.09	1760329	keystroke	o	n/a
880.3745	0.105	1760749	keystroke	n	n/a
880.5095	0.12	1761019	keystroke	Key.space	n/a
880.764	0.0755	1761528	keystroke	m	n/a
880.959	0.0905	1761918	keystroke	a	n/a
881.11	0.1195	1762220	keystroke	l	n/a
881.3795	0.1195	1762759	keystroke	Key.space	n/a
881.6645	0.1045	1763329	keystroke	p	n/a
881.9195	0.105	1763839	keystroke	r	n/a
882.114	0.09	1764228	keystroke	a	n/a
882.355	0.0745	1764710	keystroke	c	n/a
882.5645	0.075	1765129	keystroke	t	n/a
882.745	0.0895	1765490	keystroke	i	n/a
882.8945	0.09	1765789	keystroke	c	n/a
883.1495	0.09	1766299	keystroke	e	n/a
883.3745	0.09	1766749	keystroke	Key.space	n/a
884.0795	0.075	1768159	keystroke	d	n/a
884.308	0.0865	1768616	keystroke	r	n/a
884.4405	0.104	1768881	keystroke	a	n/a
884.814	0.0905	1769628	keystroke	w	n/a
884.9195	0.1045	1769839	keystroke	i	n/a
885.1595	0.09	1770319	keystroke	n	n/a
885.3695	0.0895	1770739	keystroke	g	n/a
885.5945	0.0895	1771189	keystroke	Key.space	n/a
885.925	0.119	1771850	keystroke	k	n/a
886.0325	0.117	1772065	keystroke	e	n/a
886.2545	0.0765	1772509	keystroke	n	n/a
886.435	0.1045	1772870	keystroke	n	n/a
886.7045	0.12	1773409	keystroke	y	n/a
887.064	0.0755	1774128	keystroke	Key.enter	n/a
887.143	6.388	1774286	prompt	n/a	packs disease latest wound\n
887.8295	0.105	1775659	keystroke	p	n/a
887.9795	0.1195	1775959	keystroke	a	n/a
888.2345	0.0745	1776469	keystroke	c	n/a
888.399	0.1055	1776798	keystroke	k	n/a
888.82	0.1045	1777640	keystroke	s	n/a
889.0595	0.1235	1778119	keystroke	Key.space	n/a
889.299	0.0905	1778598	keystroke	d	n/a
889.5245	0.15	1779049	keystroke	i	n/a
890.0045	0.09	1780009	keystroke	s	n/a
890.214	0.0905	1780428	keystroke	e	n/a
890.4105	0.0885	1780821	keystroke	a	n/a
890.5895	0.105	1781179	keystroke	s	n/a
890.784	0.1235	1781568	keystroke	e	n/a
890.9195	0.105	1781839	keystroke	Key.space	n/a
891.084	0.122	1782168	keystroke	l	n/a
891.1895	0.105	1782379	keystroke	a	n/a
891.4145	0.105	1782829	keystroke	t	n/a
891.5385	0.101	1783077	keystroke	e	n/a
891.7595	0.09	1783519	keystroke	s	n/a
892.004	0.0705	1784008	keystroke	t	n/a
892.1945	0.106	1784389	keystroke	Key.space	n/a
892.449	0.12	1784898	keystroke	w	n/a
892.599	0.1205	1785198	keystroke	o	n/a
892.8095	0.105	1785619	keystroke	u	n/a
893.0495	0.09	1786099	keystroke	n	n/a
893.1545	0.1085	1786309	keystroke	d	n/a
893.4545	0.075	1786909	keystroke	Key.enter	n/a
