onset	duration	sample	value	key	prompt_text
8.051	11.485	16102	prompt	n/a	the quick brown fox jumps over a lazy dog\n
10.3705	0.0875	20741	keystroke_t	t	n/a
10.473	0.059	20946	keystroke_h	h	n/a
10.6825	0.1355	21365	keystroke_e	e	n/a
10.8325	0.1355	21665	keystroke_Key.space	Key.space	n/a
11.088	0.135	22176	keystroke_q	q	n/a
11.208	0.09	22416	keystroke_u	u	n/a
11.403	0.1045	22806	keystroke_i	i	n/a
11.613	0.0895	23226	keystroke_c	c	n/a
11.7325	0.21	23465	keystroke_k	k	n/a
11.9125	0.12	23825	keystroke_Key.space	Key.space	n/a
12.1675	0.1055	24335	keystroke_b	b	n/a
12.4525	0.135	24905	keystroke_r	r	n/a
12.558	0.12	25116	keystroke_o	o	n/a
12.7525	0.18	25505	keystroke_w	w	n/a
12.903	0.179	25806	keystroke_n	n	n/a
13.0225	0.1655	26045	keystroke_Key.space	Key.space	n/a
13.383	0.029	26766	keystroke_f	f	n/a
13.398	0.0905	26796	keystroke_o	o	n/a
13.5775	0.181	27155	keystroke_x	x	n/a
13.743	0.1345	27486	keystroke_Key.space	Key.space	n/a
13.953	0.0895	27906	keystroke_j	j	n/a
14.178	0.0745	28356	keystroke_u	u	n/a
14.403	0.1195	28806	keystroke_m	m	n/a
14.6575	0.1205	29315	keystroke_p	p	n/a
14.8375	0.1505	29675	keystroke_s	s	n/a
14.9275	0.1355	29855	keystroke_Key.space	Key.space	n/a
15.1225	0.1205	30245	keystroke_o	o	n/a
15.2725	0.165	30545	keystroke_v	v	n/a
15.5125	0.255	31025	keystroke_e	e	n/a
15.7075	0.15	31415	keystroke_r	r	n/a
15.9025	0.12	31805	keystroke_Key.space	Key.space	n/a
16.083	0.1495	32166	keystroke_a	a	n/a
16.2175	0.105	32435	keystroke_Key.space	Key.space	n/a
16.4125	0.1355	32825	keystroke_l	l	n/a
16.7575	0.0905	33515	keystroke_a	a	n/a
17.717	0.1655	35434	keystroke_z	z	n/a
17.973	0.09	35946	keystroke_y	y	n/a
18.633	0.12	37266	keystroke_Key.space	Key.space	n/a
18.813	0.18	37626	keystroke_d	d	n/a
18.9325	0.09	37865	keystroke_o	o	n/a
19.1575	0.09	38315	keystroke_g	g	n/a
19.473	0.06	38946	keystroke_Key.enter	Key.enter	n/a
19.5435	11.4215	39087	prompt	n/a	continually travelers justice salmon\n
20.3875	0.1955	40775	keystroke_c	c	n/a
21.1825	0.09	42365	keystroke_o	o	n/a
21.4075	0.09	42815	keystroke_n	n	n/a
21.678	0.1345	43356	keystroke_t	t	n/a
21.783	0.0745	43566	keystroke_i	i	n/a
21.978	0.09	43956	keystroke_n	n	n/a
22.278	0.1055	44556	keystroke_u	u	n/a
22.487	0.196	44974	keystroke_a	a	n/a
22.637	0.121	45274	keystroke_l	l	n/a
22.8775	0.0895	45755	keystroke_l	l	n/a
23.178	0.089	46356	keystroke_y	y	n/a
23.417	0.12	46834	keystroke_Key.space	Key.space	n/a
23.6425	0.0445	47285	keystroke_t	t	n/a
23.838	0.105	47676	keystroke_r	r	n/a
24.077	0.1205	48154	keystroke_a	a	n/a
24.708	0.1195	49416	keystroke_v	v	n/a
25.0375	0.135	50075	keystroke_e	e	n/a
25.263	0.1045	50526	keystroke_l	l	n/a
25.4575	0.2095	50915	keystroke_e	e	n/a
25.6825	0.1205	51365	keystroke_r	r	n/a
25.968	0.195	51936	keystroke_s	s	n/a
26.103	0.149	52206	keystroke_Key.space	Key.space	n/a
26.268	0.1045	52536	keystroke_j	j	n/a
26.508	0.0895	53016	keystroke_u	u	n/a
26.6125	0.18	53225	keystroke_s	s	n/a
26.898	0.1045	53796	keystroke_t	t	n/a
27.0035	0.089	54007	keystroke_i	i	n/a
27.228	0.119	54456	keystroke_c	c	n/a
27.482	0.151	54964	keystroke_e	e	n/a
27.603	0.1495	55206	keystroke_Key.space	Key.space	n/a
27.7975	0.15	55595	keystroke_s	s	n/a
28.023	0.195	56046	keystroke_a	a	n/a
28.7725	0.075	57545	keystroke_l	l	n/a
29.3275	0.135	58655	keystroke_m	m	n/a
29.6425	0.12	59285	keystroke_o	o	n/a
29.9125	0.0305	59825	keystroke_n	n	n/a
30.8725	0.09	61745	keystroke_Key.enter	Key.enter	n/a
30.97	11.665	61940	prompt	n/a	retreat horror yield literature\n
31.833	0.135	63666	keystroke_r	r	n/a
31.953	0.18	63906	keystroke_e	e	n/a
32.253	0.075	64506	keystroke_t	t	n/a
32.553	0.1645	65106	keystroke_e	e	n/a
33.617	0.0905	67234	keystroke_Key.backspace	Key.backspace	n/a
33.7975	0.166	67595	keystroke_r	r	n/a
33.918	0.12	67836	keystroke_e	e	n/a
34.128	0.2245	68256	keystroke_a	a	n/a
34.3825	0.1055	68765	keystroke_t	t	n/a
34.5475	0.1355	69095	keystroke_Key.space	Key.space	n/a
34.7725	0.0905	69545	keystroke_h	h	n/a
34.923	0.1345	69846	keystroke_o	o	n/a
35.073	0.075	70146	keystroke_r	r	n/a
35.268	0.1045	70536	keystroke_r	r	n/a
35.358	0.135	70716	keystroke_o	o	n/a
35.823	0.09	71646	keystroke_Key.space	Key.space	n/a
36.588	0.015	73176	keystroke_Key.backspace	Key.backspace	n/a
36.663	0.135	73326	keystroke_r	r	n/a
36.873	0.12	73746	keystroke_Key.space	Key.space	n/a
37.1725	0.09	74345	keystroke_y	y	n/a
37.4425	0.105	74885	keystroke_i	i	n/a
37.6975	0.105	75395	keystroke_e	e	n/a
37.8325	0.12	75665	keystroke_l	l	n/a
38.1325	0.165	76265	keystroke_d	d	n/a
38.268	0.1045	76536	keystroke_Key.space	Key.space	n/a
38.5385	0.0895	77077	keystroke_l	l	n/a
38.748	0.089	77496	keystroke_i	i	n/a
38.913	0.12	77826	keystroke_t	t	n/a
39.093	0.135	78186	keystroke_e	e	n/a
40.172	0.075	80344	keystroke_r	r	n/a
40.3675	0.21	80735	keystroke_a	a	n/a
40.6075	0.1055	81215	keystroke_t	t	n/a
40.728	0.105	81456	keystroke_u	u	n/a
40.848	0.135	81696	keystroke_r	r	n/a
40.938	0.165	81876	keystroke_e	e	n/a
42.5275	0.1045	85055	keystroke_Key.enter	Key.enter	n/a
42.641	8.62	85282	prompt	n/a	beat elsewhere accreditation logic\n
43.443	0.105	86886	keystroke_b	b	n/a
43.698	0.104	87396	keystroke_e	e	n/a
43.9225	0.165	87845	keystroke_a	a	n/a
44.1625	0.076	88325	keystroke_t	t	n/a
44.3125	0.15	88625	keystroke_Key.space	Key.space	n/a
44.508	0.0895	89016	keystroke_e	e	n/a
44.628	0.1195	89256	keystroke_l	l	n/a
44.8075	0.12	89615	keystroke_s	s	n/a
45.0025	0.1505	90005	keystroke_e	e	n/a
45.4525	0.045	90905	keystroke_w	w	n/a
45.7375	0.045	91475	keystroke_h	h	n/a
46.0075	0.196	92015	keystroke_e	e	n/a
46.4585	0.0895	92917	keystroke_r	r	n/a
46.8775	0.135	93755	keystroke_e	e	n/a
47.1175	0.15	94235	keystroke_Key.space	Key.space	n/a
47.313	0.0895	94626	keystroke_a	a	n/a
47.598	0.09	95196	keystroke_c	c	n/a
47.7625	0.12	95525	keystroke_c	c	n/a
48.048	0.1495	96096	keystroke_r	r	n/a
48.1525	0.12	96305	keystroke_e	e	n/a
48.408	0.18	96816	keystroke_d	d	n/a
48.6025	0.09	97205	keystroke_i	i	n/a
48.7975	0.0895	97595	keystroke_t	t	n/a
48.978	0.1945	97956	keystroke_a	a	n/a
49.2625	0.1195	98525	keystroke_t	t	n/a
49.368	0.134	98736	keystroke_i	i	n/a
49.4875	0.165	98975	keystroke_o	o	n/a
49.607	0.1355	99214	keystroke_n	n	n/a
49.877	0.12	99754	keystroke_Key.space	Key.space	n/a
50.057	0.121	100114	keystroke_l	l	n/a
50.328	0.0595	100656	keystroke_o	o	n/a
50.4325	0.105	100865	keystroke_g	g	n/a
50.5525	0.0905	101105	keystroke_i	i	n/a
50.823	0.09	101646	keystroke_d	d	n/a
51.168	0.09	102336	keystroke_Key.enter	Key.enter	n/a
51.267	11.738	102534	prompt	n/a	display bulk ancient hong\n
52.023	0.12	104046	keystroke_d	d	n/a
52.143	0.105	104286	keystroke_i	i	n/a
52.307	0.121	104614	keystroke_s	s	n/a
52.473	0.09	104946	keystroke_p	p	n/a
52.6975	0.12	105395	keystroke_l	l	n/a
52.8775	0.1505	105755	keystroke_a	a	n/a
53.013	0.0905	106026	keystroke_y	y	n/a
53.238	0.105	106476	keystroke_Key.space	Key.space	n/a
53.373	0.12	106746	keystroke_b	b	n/a
53.508	0.09	107016	keystroke_u	u	n/a
53.748	0.0905	107496	keystroke_i	i	n/a
54.048	0.1495	108096	keystroke_l	l	n/a
54.258	0.165	108516	keystroke_Key.space	Key.space	n/a
54.752	0.076	109504	keystroke_Key.backspace	Key.backspace	n/a
54.978	0.075	109956	keystroke_Key.backspace	Key.backspace	n/a
55.3075	0.075	110615	keystroke_Key.backspace	Key.backspace	n/a
55.623	0.1205	111246	keystroke_l	l	n/a
55.9085	0.0745	111817	keystroke_k	k	n/a
56.1025	0.15	112205	keystroke_Key.space	Key.space	n/a
56.5375	0.1655	113075	keystroke_a	a	n/a
56.6725	0.0905	113345	keystroke_n	n	n/a
56.8975	0.1805	113795	keystroke_c	c	n/a
57.033	0.075	114066	keystroke_i	i	n/a
57.513	0.09	115026	keystroke_e	e	n/a
57.618	0.0905	115236	keystroke_n	n	n/a
58.458	0.0755	116916	keystroke_n	n	n/a
58.608	0.1205	117216	keystroke_t	t	n/a
58.743	0.09	117486	keystroke_Key.space	Key.space	n/a
58.893	0.09	117786	keystroke_h	h	n/a
59.028	0.12	118056	keystroke_o	o	n/a
59.328	0.015	118656	keystroke_n	n	n/a
59.658	0.03	119316	keystroke_Key.backspace	Key.backspace	n/a
59.868	0.0595	119736	keystroke_Key.backspace	Key.backspace	n/a
60.048	0.045	120096	keystroke_Key.backspace	Key.backspace	n/a
60.2125	0.045	120425	keystroke_Key.backspace	Key.backspace	n/a
60.378	0.0445	120756	keystroke_Key.backspace	Key.backspace	n/a
60.9325	0.0455	121865	keystroke_Key.backspace	Key.backspace	n/a
61.2775	0.061	122555	keystroke_t	t	n/a
61.382	0.1055	122764	keystroke_Key.space	Key.space	n/a
62.0425	0.09	124085	keystroke_h	h	n/a
62.1925	0.12	124385	keystroke_o	o	n/a
62.388	0.12	124776	keystroke_n	n	n/a
62.613	0.09	125226	keystroke_g	g	n/a
62.9125	0.0905	125825	keystroke_Key.enter	Key.enter	n/a
63.0105	9.249	126021	prompt	n/a	aaron occupational stress read\n
63.7975	0.1055	127595	keystroke_a	a	n/a
64.068	0.164	128136	keystroke_a	a	n/a
64.382	0.1055	128764	keystroke_r	r	n/a
64.5335	0.104	129067	keystroke_o	o	n/a
64.713	0.18	129426	keystroke_n	n	n/a
64.908	0.135	129816	keystroke_Key.space	Key.space	n/a
65.1025	0.1055	130205	keystroke_o	o	n/a
65.237	0.121	130474	keystroke_c	c	n/a
65.448	0.12	130896	keystroke_c	c	n/a
66.873	0.1195	133746	keystroke_u	u	n/a
67.6375	0.135	135275	keystroke_p	p	n/a
67.833	0.195	135666	keystroke_a	a	n/a
68.1025	0.12	136205	keystroke_t	t	n/a
68.238	0.0745	136476	keystroke_i	i	n/a
68.3725	0.12	136745	keystroke_o	o	n/a
68.582	0.1055	137164	keystroke_n	n	n/a
68.7625	0.1645	137525	keystroke_a	a	n/a
68.8825	0.1955	137765	keystroke_l	l	n/a
69.0175	0.1505	138035	keystroke_Key.space	Key.space	n/a
69.1825	0.1655	138365	keystroke_s	s	n/a
69.453	0.06	138906	keystroke_t	t	n/a
69.648	0.09	139296	keystroke_r	r	n/a
69.708	0.195	139416	keystroke_e	e	n/a
70.533	0.089	141066	keystroke_s	s	n/a
70.743	0.12	141486	keystroke_s	s	n/a
70.878	0.15	141756	keystroke_Key.space	Key.space	n/a
71.073	0.225	142146	keystroke_r	r	n/a
71.208	0.195	142416	keystroke_e	e	n/a
71.508	0.15	143016	keystroke_a	a	n/a
71.733	0.164	143466	keystroke_d	d	n/a
72.183	0.074	144366	keystroke_Key.enter	Key.enter	n/a
72.264	11.4105	144528	prompt	n/a	specialties verzeichnis babies cnet\n
73.0675	0.105	146135	keystroke_s	s	n/a
73.2025	0.1495	146405	keystroke_p	p	n/a
73.367	0.0905	146734	keystroke_e	e	n/a
73.6225	0.15	147245	keystroke_c	c	n/a
73.7875	0.0915	147575	keystroke_i	i	n/a
73.9235	0.1795	147847	keystroke_a	a	n/a
74.058	0.105	148116	keystroke_l	l	n/a
74.267	0.091	148534	keystroke_i	i	n/a
74.448	0.104	148896	keystroke_s	s	n/a
75.4525	0.105	150905	keystroke_Key.backspace	Key.backspace	n/a
75.648	0.1045	151296	keystroke_t	t	n/a
75.8575	0.09	151715	keystroke_i	i	n/a
75.9625	0.105	151925	keystroke_e	e	n/a
76.173	0.179	152346	keystroke_s	s	n/a
76.307	0.15	152614	keystroke_Key.space	Key.space	n/a
76.517	0.151	153034	keystroke_v	v	n/a
76.728	0.2995	153456	keystroke_e	e	n/a
76.878	0.1645	153756	keystroke_r	r	n/a
77.2075	0.15	154415	keystroke_z	z	n/a
77.4775	0.135	154955	keystroke_e	e	n/a
77.7775	0.0905	155555	keystroke_i	i	n/a
78.107	0.166	156214	keystroke_c	c	n/a
78.933	0.075	157866	keystroke_h	h	n/a
79.188	0.089	158376	keystroke_n	n	n/a
79.338	0.135	158676	keystroke_i	i	n/a
79.532	0.12	159064	keystroke_s	s	n/a
79.653	0.12	159306	keystroke_Key.space	Key.space	n/a
79.878	0.12	159756	keystroke_b	b	n/a
80.0575	0.195	160115	keystroke_a	a	n/a
80.3425	0.15	160685	keystroke_b	b	n/a
80.5525	0.09	161105	keystroke_i	i	n/a
80.7025	0.09	161405	keystroke_e	e	n/a
80.927	0.1505	161854	keystroke_s	s	n/a
81.0625	0.1505	162125	keystroke_Key.space	Key.space	n/a
81.3325	0.105	162665	keystroke_c	c	n/a
81.588	0.105	163176	keystroke_n	n	n/a
81.813	0.18	163626	keystroke_e	e	n/a
82.1425	0.075	164285	keystroke_t	t	n/a
83.5825	0.09	167165	keystroke_Key.enter	Key.enter	n/a
83.6825	8.5275	167365	prompt	n/a	none dream earlier athletics\n
84.3625	0.105	168725	keystroke_n	n	n/a
84.5875	0.0905	169175	keystroke_o	o	n/a
84.7525	0.09	169505	keystroke_n	n	n/a
84.9475	0.0905	169895	keystroke_e	e	n/a
85.0975	0.135	170195	keystroke_Key.space	Key.space	n/a
85.263	0.1795	170526	keystroke_d	d	n/a
85.683	0.075	171366	keystroke_r	r	n/a
86.103	0.12	172206	keystroke_e	e	n/a
86.3425	0.18	172685	keystroke_a	a	n/a
87.557	0.121	175114	keystroke_m	m	n/a
87.842	0.136	175684	keystroke_Key.space	Key.space	n/a
88.0225	0.105	176045	keystroke_e	e	n/a
88.263	0.15	176526	keystroke_a	a	n/a
88.5625	0.105	177125	keystroke_r	r	n/a
88.7725	0.105	177545	keystroke_l	l	n/a
88.998	0.1045	177996	keystroke_i	i	n/a
89.103	0.2095	178206	keystroke_e	e	n/a
89.3275	0.135	178655	keystroke_r	r	n/a
89.4475	0.15	178895	keystroke_Key.space	Key.space	n/a
89.583	0.195	179166	keystroke_a	a	n/a
89.807	0.105	179614	keystroke_t	t	n/a
89.898	0.105	179796	keystroke_h	h	n/a
90.6925	0.1345	181385	keystroke_l	l	n/a
90.888	0.195	181776	keystroke_e	e	n/a
91.1725	0.0905	182345	keystroke_t	t	n/a
91.293	0.1045	182586	keystroke_i	i	n/a
91.5625	0.075	183125	keystroke_c	c	n/a
91.7875	0.12	183575	keystroke_s	s	n/a
92.1175	0.09	184235	keystroke_Key.enter	Key.enter	n/a
92.2145	6.8205	184429	prompt	n/a	breeding thomson cope narrow\n
93.0025	0.135	186005	keystroke_b	b	n/a
93.2725	0.15	186545	keystroke_r	r	n/a
93.363	0.1645	186726	keystroke_e	e	n/a
93.813	0.15	187626	keystroke_e	e	n/a
94.248	0.105	188496	keystroke_d	d	n/a
94.323	0.075	188646	keystroke_i	i	n/a
94.518	0.09	189036	keystroke_n	n	n/a
94.668	0.135	189336	keystroke_g	g	n/a
94.818	0.135	189636	keystroke_Key.space	Key.space	n/a
94.998	0.12	189996	keystroke_t	t	n/a
95.073	0.09	190146	keystroke_h	h	n/a
95.252	0.105	190504	keystroke_o	o	n/a
95.493	0.06	190986	keystroke_m	m	n/a
95.853	0.165	191706	keystroke_s	s	n/a
95.973	0.105	191946	keystroke_o	o	n/a
96.213	0.09	192426	keystroke_n	n	n/a
96.422	0.15	192844	keystroke_Key.space	Key.space	n/a
96.648	0.21	193296	keystroke_c	c	n/a
96.768	0.1045	193536	keystroke_o	o	n/a
97.008	0.075	194016	keystroke_p	p	n/a
97.188	0.105	194376	keystroke_e	e	n/a
97.457	0.135	194914	keystroke_Key.space	Key.space	n/a
97.698	0.09	195396	keystroke_n	n	n/a
97.8175	0.2105	195635	keystroke_a	a	n/a
98.043	0.075	196086	keystroke_r	r	n/a
98.193	0.12	196386	keystroke_r	r	n/a
98.358	0.135	196716	keystroke_o	o	n/a
98.538	0.105	197076	keystroke_w	w	n/a
98.943	0.09	197886	keystroke_Key.enter	Key.enter	n/a
99.0395	11.44	198079	prompt	n/a	delivered loss ideal reproduce\n
100.0085	0.134	200017	keystroke_d	d	n/a
100.2925	0.12	200585	keystroke_e	e	n/a
100.4575	0.1955	200915	keystroke_l	l	n/a
100.668	0.09	201336	keystroke_i	i	n/a
101.898	0.0895	203796	keystroke_v	v	n/a
102.1225	0.195	204245	keystroke_e	e	n/a
102.573	0.135	205146	keystroke_e	e	n/a
103.068	0.075	206136	keystroke_e	e	n/a
103.293	0.1345	206586	keystroke_d	d	n/a
104.1325	0.09	208265	keystroke_Key.backspace	Key.backspace	n/a
104.3425	0.075	208685	keystroke_Key.backspace	Key.backspace	n/a
104.5375	0.09	209075	keystroke_Key.backspace	Key.backspace	n/a
104.8375	0.195	209675	keystroke_r	r	n/a
105.0475	0.1355	210095	keystroke_e	e	n/a
105.3175	0.151	210635	keystroke_d	d	n/a
105.483	0.1045	210966	keystroke_Key.space	Key.space	n/a
105.7075	0.105	211415	keystroke_l	l	n/a
105.963	0.12	211926	keystroke_o	o	n/a
106.098	0.0595	212196	keystroke_s	s	n/a
106.2925	0.1505	212585	keystroke_s	s	n/a
106.3825	0.135	212765	keystroke_Key.space	Key.space	n/a
106.563	0.105	213126	keystroke_i	i	n/a
106.653	0.135	213306	keystroke_d	d	n/a
106.9375	0.105	213875	keystroke_e	e	n/a
107.163	0.18	214326	keystroke_a	a	n/a
107.253	0.195	214506	keystroke_l	l	n/a
107.418	0.165	214836	keystroke_Key.space	Key.space	n/a
107.778	0.1495	215556	keystroke_r	r	n/a
107.853	0.1945	215706	keystroke_e	e	n/a
108.123	0.105	216246	keystroke_p	p	n/a
108.378	0.09	216756	keystroke_r	r	n/a
108.4225	0.165	216845	keystroke_o	o	n/a
109.188	0.1345	218376	keystroke_d	d	n/a
109.3975	0.045	218795	keystroke_u	u	n/a
109.5475	0.1355	219095	keystroke_c	c	n/a
109.953	0.1195	219906	keystroke_e	e	n/a
110.4025	0.0755	220805	keystroke_Key.enter	Key.enter	n/a
110.4915	10.8785	220983	prompt	n/a	indigenous jordan truck episodes\n
111.1375	0.0905	222275	keystroke_i	i	n/a
111.453	0.1195	222906	keystroke_n	n	n/a
111.7975	0.18	223595	keystroke_d	d	n/a
111.9025	0.09	223805	keystroke_i	i	n/a
112.1585	0.104	224317	keystroke_g	g	n/a
112.368	0.135	224736	keystroke_e	e	n/a
112.517	0.106	225034	keystroke_n	n	n/a
113.238	0.195	226476	keystroke_o	o	n/a
113.403	0.135	226806	keystroke_u	u	n/a
113.598	0.12	227196	keystroke_s	s	n/a
113.748	0.119	227496	keystroke_Key.space	Key.space	n/a
113.8825	0.1205	227765	keystroke_j	j	n/a
114.047	0.15	228094	keystroke_o	o	n/a
114.438	0.0745	228876	keystroke_r	r	n/a
114.798	0.1195	229596	keystroke_d	d	n/a
115.0525	0.12	230105	keystroke_a	a	n/a
115.1425	0.195	230285	keystroke_n	n	n/a
115.3075	0.165	230615	keystroke_Key.space	Key.space	n/a
116.1625	0.045	232325	keystroke_t	t	n/a
116.3285	0.104	232657	keystroke_r	r	n/a
116.4475	0.105	232895	keystroke_u	u	n/a
116.868	0.0905	233736	keystroke_k	k	n/a
117.7375	0.09	235475	keystroke_Key.backspace	Key.backspace	n/a
118.008	0.15	236016	keystroke_c	c	n/a
118.1725	0.091	236345	keystroke_k	k	n/a
118.487	0.1205	236974	keystroke_Key.space	Key.space	n/a
119.313	0.165	238626	keystroke_e	e	n/a
119.568	0.134	239136	keystroke_p	p	n/a
119.8685	0.0895	239737	keystroke_i	i	n/a
120.167	0.151	240334	keystroke_s	s	n/a
120.2875	0.1355	240575	keystroke_o	o	n/a
120.4685	0.164	240937	keystroke_d	d	n/a
120.7975	0.12	241595	keystroke_e	e	n/a
121.0075	0.1655	242015	keystroke_s	s	n/a
121.2785	0.089	242557	keystroke_Key.enter	Key.enter	n/a
121.375	9.6395	242750	prompt	n/a	capability threshold mine ought\n
122.0725	0.106	244145	keystroke_c	c	n/a
122.2825	0.135	244565	keystroke_a	a	n/a
122.433	0.1205	244866	keystroke_p	p	n/a
122.598	0.135	245196	keystroke_a	a	n/a
122.853	0.1055	245706	keystroke_b	b	n/a
122.973	0.09	245946	keystroke_i	i	n/a
123.1985	0.2095	246397	keystroke_l	l	n/a
123.363	0.135	246726	keystroke_i	i	n/a
123.588	0.134	247176	keystroke_t	t	n/a
123.707	0.0905	247414	keystroke_y	y	n/a
123.9775	0.105	247955	keystroke_Key.space	Key.space	n/a
124.2185	0.1045	248437	keystroke_t	t	n/a
124.2925	0.09	248585	keystroke_h	h	n/a
124.4285	0.134	248857	keystroke_r	r	n/a
124.5175	0.1655	249035	keystroke_e	e	n/a
124.818	0.1345	249636	keystroke_s	s	n/a
124.9235	0.0895	249847	keystroke_h	h	n/a
125.148	0.1195	250296	keystroke_o	o	n/a
125.4175	0.1355	250835	keystroke_l	l	n/a
125.5975	0.151	251195	keystroke_d	d	n/a
125.8525	0.15	251705	keystroke_Key.space	Key.space	n/a
126.228	0.09	252456	keystroke_m	m	n/a
126.423	0.06	252846	keystroke_i	i	n/a
126.5585	0.1045	253117	keystroke_n	n	n/a
126.722	0.121	253444	keystroke_e	e	n/a
126.888	0.12	253776	keystroke_Key.space	Key.space	n/a
127.353	0.21	254706	keystroke_o	o	n/a
127.533	0.12	255066	keystroke_u	u	n/a
127.683	0.105	255366	keystroke_t	t	n/a
127.833	0.0745	255666	keystroke_h	h	n/a
129.618	0.06	259236	keystroke_Key.backspace	Key.backspace	n/a
129.8725	0.075	259745	keystroke_Key.backspace	Key.backspace	n/a
130.308	0.1045	260616	keystroke_g	g	n/a
130.4275	0.045	260855	keystroke_h	h	n/a
130.608	0.075	261216	keystroke_t	t	n/a
130.923	0.09	261846	keystroke_Key.enter	Key.enter	n/a
131.0195	12.85	262039	prompt	n/a	earning demonstrated script authorization\n
132.4225	0.0905	264845	keystroke_e	e	n/a
132.633	0.2095	265266	keystroke_a	a	n/a
132.8575	0.1505	265715	keystroke_r	r	n/a
133.023	0.0905	266046	keystroke_n	n	n/a
133.278	0.135	266556	keystroke_i	i	n/a
133.368	0.18	266736	keystroke_n	n	n/a
133.623	0.12	267246	keystroke_g	g	n/a
133.787	0.135	267574	keystroke_Key.space	Key.space	n/a
134.013	0.089	268026	keystroke_d	d	n/a
134.253	0.12	268506	keystroke_e	e	n/a
134.388	0.105	268776	keystroke_m	m	n/a
134.5825	0.1505	269165	keystroke_o	o	n/a
134.688	0.15	269376	keystroke_n	n	n/a
134.8675	0.1655	269735	keystroke_s	s	n/a
135.153	0.0745	270306	keystroke_t	t	n/a
135.348	0.15	270696	keystroke_r	r	n/a
135.5425	0.2255	271085	keystroke_a	a	n/a
135.7825	0.1355	271565	keystroke_t	t	n/a
135.8875	0.1655	271775	keystroke_e	e	n/a
136.188	0.12	272376	keystroke_d	d	n/a
136.323	0.15	272646	keystroke_Key.space	Key.space	n/a
136.503	0.1195	273006	keystroke_s	s	n/a
136.7125	0.1805	273425	keystroke_c	c	n/a
137.0425	0.15	274085	keystroke_r	r	n/a
137.1625	0.1055	274325	keystroke_i	i	n/a
137.418	0.15	274836	keystroke_p	p	n/a
137.913	0.105	275826	keystroke_t	t	n/a
138.0775	0.12	276155	keystroke_Key.space	Key.space	n/a
138.3625	0.1805	276725	keystroke_a	a	n/a
139.068	0.075	278136	keystroke_u	u	n/a
139.382	0.106	278764	keystroke_t	t	n/a
139.637	0.105	279274	keystroke_o	o	n/a
140.2825	0.09	280565	keystroke_Key.backspace	Key.backspace	n/a
140.7325	0.0745	281465	keystroke_h	h	n/a
140.927	0.121	281854	keystroke_o	o	n/a
141.183	0.105	282366	keystroke_r	r	n/a
141.258	0.0895	282516	keystroke_i	i	n/a
141.4825	0.1205	282965	keystroke_z	z	n/a
141.753	0.1645	283506	keystroke_a	a	n/a
142.0225	0.09	284045	keystroke_t	t	n/a
142.128	0.1195	284256	keystroke_i	i	n/a
142.3075	0.09	284615	keystroke_o	o	n/a
142.3835	0.105	284767	keystroke_n	n	n/a
143.7925	0.075	287585	keystroke_Key.enter	Key.enter	n/a
143.8745	6.775	287749	prompt	n/a	enrolled foods lose defense\n
144.723	0.12	289446	keystroke_e	e	n/a
144.828	0.09	289656	keystroke_n	n	n/a
145.053	0.135	290106	keystroke_r	r	n/a
145.173	0.09	290346	keystroke_o	o	n/a
145.428	0.075	290856	keystroke_l	l	n/a
145.608	0.1345	291216	keystroke_l	l	n/a
145.728	0.09	291456	keystroke_e	e	n/a
145.9675	0.1655	291935	keystroke_d	d	n/a
146.1025	0.1355	292205	keystroke_Key.space	Key.space	n/a
146.313	0.1345	292626	keystroke_f	f	n/a
146.4325	0.076	292865	keystroke_o	o	n/a
146.6275	0.105	293255	keystroke_o	o	n/a
146.7475	0.135	293495	keystroke_d	d	n/a
147.3035	0.089	294607	keystroke_s	s	n/a
147.4675	0.12	294935	keystroke_Key.space	Key.space	n/a
147.648	0.09	295296	keystroke_l	l	n/a
147.889	0.104	295778	keystroke_o	o	n/a
147.963	0.1205	295926	keystroke_s	s	n/a
148.188	0.15	296376	keystroke_e	e	n/a
148.322	0.121	296644	keystroke_Key.space	Key.space	n/a
148.728	0.12	297456	keystroke_d	d	n/a
148.968	0.1505	297936	keystroke_e	e	n/a
149.193	0.165	298386	keystroke_f	f	n/a
149.433	0.1505	298866	keystroke_e	e	n/a
149.553	0.12	299106	keystroke_n	n	n/a
149.762	0.1215	299524	keystroke_s	s	n/a
149.958	0.164	299916	keystroke_e	e	n/a
150.557	0.091	301114	keystroke_Key.enter	Key.enter	n/a
150.6535	6.701	301307	prompt	n/a	coastal stuck springs remove\n
151.443	0.165	302886	keystroke_c	c	n/a
151.5775	0.12	303155	keystroke_o	o	n/a
151.9985	0.1345	303997	keystroke_a	a	n/a
152.2375	0.1805	304475	keystroke_s	s	n/a
152.5525	0.0905	305105	keystroke_t	t	n/a
152.763	0.18	305526	keystroke_a	a	n/a
152.9135	0.209	305827	keystroke_l	l	n/a
153.078	0.1645	306156	keystroke_Key.space	Key.space	n/a
153.1975	0.136	306395	keystroke_s	s	n/a
153.4675	0.09	306935	keystroke_t	t	n/a
153.573	0.105	307146	keystroke_u	u	n/a
153.8135	0.1645	307627	keystroke_c	c	n/a
153.9625	0.2255	307925	keystroke_k	k	n/a
154.143	0.1645	308286	keystroke_Key.space	Key.space	n/a
154.3825	0.1655	308765	keystroke_s	s	n/a
154.623	0.12	309246	keystroke_p	p	n/a
154.758	0.135	309516	keystroke_r	r	n/a
154.863	0.135	309726	keystroke_i	i	n/a
155.448	0.075	310896	keystroke_n	n	n/a
155.5685	0.1045	311137	keystroke_g	g	n/a
155.793	0.18	311586	keystroke_s	s	n/a
155.928	0.1495	311856	keystroke_Key.space	Key.space	n/a
156.108	0.195	312216	keystroke_r	r	n/a
156.2275	0.18	312455	keystroke_e	e	n/a
156.4225	0.1055	312845	keystroke_m	m	n/a
156.6325	0.135	313265	keystroke_o	o	n/a
156.7225	0.15	313445	keystroke_v	v	n/a
156.9635	0.149	313927	keystroke_e	e	n/a
157.2625	0.09	314525	keystroke_Key.enter	Key.enter	n/a
157.36	14.7095	314720	prompt	n/a	royalty limited strange gratuit\n
158.163	0.105	316326	keystroke_r	r	n/a
158.252	0.106	316504	keystroke_o	o	n/a
158.4785	0.1035	316957	keystroke_y	y	n/a
158.6275	0.195	317255	keystroke_a	a	n/a
158.792	0.09	317584	keystroke_;	;	n/a
159.033	0.1055	318066	keystroke_t	t	n/a
159.1675	0.075	318335	keystroke_y	y	n/a
159.4225	0.1205	318845	keystroke_Key.space	Key.space	n/a
159.7225	0.12	319445	keystroke_l	l	n/a
160.623	0.0595	321246	keystroke_Key.backspace	Key.backspace	n/a
160.818	0.0445	321636	keystroke_Key.backspace	Key.backspace	n/a
161.0125	0.0455	322025	keystroke_Key.backspace	Key.backspace	n/a
161.1775	0.075	322355	keystroke_Key.backspace	Key.backspace	n/a
161.418	0.09	322836	keystroke_Key.backspace	Key.backspace	n/a
162.153	0.12	324306	keystroke_l	l	n/a
162.588	0.1195	325176	keystroke_t	t	n/a
162.768	0.075	325536	keystroke_y	y	n/a
162.9775	0.105	325955	keystroke_Key.space	Key.space	n/a
163.1725	0.09	326345	keystroke_l	l	n/a
163.383	0.045	326766	keystroke_i	i	n/a
163.563	0.105	327126	keystroke_m	m	n/a
164.253	0.15	328506	keystroke_t	t	n/a
164.418	0.149	328836	keystroke_e	e	n/a
164.688	0.12	329376	keystroke_d	d	n/a
164.793	0.135	329586	keystroke_Key.space	Key.space	n/a
164.943	0.2105	329886	keystroke_s	s	n/a
165.213	0.075	330426	keystroke_t	t	n/a
165.707	0.0755	331414	keystroke_Key.backspace	Key.backspace	n/a
165.933	0.059	331866	keystroke_Key.backspace	Key.backspace	n/a
166.1275	0.0455	332255	keystroke_Key.backspace	Key.backspace	n/a
166.2775	0.0605	332555	keystroke_Key.backspace	Key.backspace	n/a
166.457	0.061	332914	keystroke_Key.backspace	Key.backspace	n/a
166.608	0.105	333216	keystroke_Key.backspace	Key.backspace	n/a
166.983	0.105	333966	keystroke_i	i	n/a
167.178	0.1195	334356	keystroke_t	t	n/a
167.343	0.134	334686	keystroke_e	e	n/a
167.6135	0.1335	335227	keystroke_d	d	n/a
167.762	0.15	335524	keystroke_Key.space	Key.space	n/a
167.928	0.1795	335856	keystroke_s	s	n/a
168.1525	0.0905	336305	keystroke_t	t	n/a
168.3775	0.106	336755	keystroke_r	r	n/a
168.5275	0.18	337055	keystroke_a	a	n/a
168.633	0.105	337266	keystroke_n	n	n/a
168.813	0.105	337626	keystroke_g	g	n/a
168.977	0.195	337954	keystroke_e	e	n/a
169.143	0.105	338286	keystroke_Key.space	Key.space	n/a
169.3375	0.09	338675	keystroke_g	g	n/a
169.578	0.0895	339156	keystroke_r	r	n/a
169.7875	0.1955	339575	keystroke_a	a	n/a
170.0575	0.1055	340115	keystroke_t	t	n/a
170.223	0.09	340446	keystroke_u	u	n/a
170.418	0.105	340836	keystroke_i	i	n/a
170.8085	0.074	341617	keystroke_t	t	n/a
171.9775	0.0905	343955	keystroke_Key.enter	Key.enter	n/a
172.0745	11.23	344149	prompt	n/a	technician vacancies identifying listings\n
172.893	0.1045	345786	keystroke_t	t	n/a
173.0875	0.105	346175	keystroke_e	e	n/a
173.343	0.1195	346686	keystroke_c	c	n/a
173.4475	0.06	346895	keystroke_h	h	n/a
173.6425	0.1055	347285	keystroke_n	n	n/a
173.808	0.075	347616	keystroke_i	i	n/a
173.928	0.15	347856	keystroke_c	c	n/a
174.033	0.09	348066	keystroke_i	i	n/a
174.243	0.165	348486	keystroke_a	a	n/a
174.3335	0.1795	348667	keystroke_n	n	n/a
174.453	0.165	348906	keystroke_Key.space	Key.space	n/a
174.693	0.12	349386	keystroke_v	v	n/a
174.903	0.09	349806	keystroke_a	a	n/a
175.128	0.12	350256	keystroke_c	c	n/a
175.353	0.1355	350706	keystroke_a	a	n/a
175.578	0.0905	351156	keystroke_n	n	n/a
175.8025	0.1655	351605	keystroke_c	c	n/a
175.9685	0.0745	351937	keystroke_i	i	n/a
176.1625	0.105	352325	keystroke_e	e	n/a
176.3575	0.165	352715	keystroke_s	s	n/a
176.4925	0.1205	352985	keystroke_Key.space	Key.space	n/a
176.673	0.089	353346	keystroke_i	i	n/a
176.793	0.105	353586	keystroke_d	d	n/a
177.0325	0.165	354065	keystroke_e	e	n/a
177.1075	0.12	354215	keystroke_n	n	n/a
177.6325	0.106	355265	keystroke_t	t	n/a
177.7825	0.12	355565	keystroke_i	i	n/a
178.863	0.1195	357726	keystroke_f	f	n/a
179.103	0.1045	358206	keystroke_y	y	n/a
179.3425	0.09	358685	keystroke_i	i	n/a
179.493	0.1045	358986	keystroke_n	n	n/a
179.6575	0.15	359315	keystroke_g	g	n/a
179.7625	0.12	359525	keystroke_Key.space	Key.space	n/a
179.943	0.1055	359886	keystroke_l	l	n/a
180.0925	0.09	360185	keystroke_i	i	n/a
180.213	0.18	360426	keystroke_s	s	n/a
180.4675	0.1355	360935	keystroke_g	g	n/a
180.5275	0.15	361055	keystroke_i	i	n/a
180.6475	0.1355	361295	keystroke_n	n	n/a
180.993	0.135	361986	keystroke_g	g	n/a
181.473	0.06	362946	keystroke_Key.backspace	Key.backspace	n/a
181.668	0.045	363336	keystroke_Key.backspace	Key.backspace	n/a
181.833	0.06	363666	keystroke_Key.backspace	Key.backspace	n/a
182.028	0.075	364056	keystroke_Key.backspace	Key.backspace	n/a
182.328	0.09	364656	keystroke_t	t	n/a
182.433	0.09	364866	keystroke_i	i	n/a
182.627	0.076	365254	keystroke_n	n	n/a
182.793	0.105	365586	keystroke_g	g	n/a
182.957	0.166	365914	keystroke_s	s	n/a
183.2425	0.0605	366485	keystroke_Key.enter	Key.enter	n/a
183.3095	10.03	366619	prompt	n/a	singer tune canadian film\n
184.0225	0.1355	368045	keystroke_s	s	n/a
184.1125	0.075	368225	keystroke_i	i	n/a
184.3075	0.09	368615	keystroke_n	n	n/a
184.758	0.1505	369516	keystroke_g	g	n/a
184.968	0.1945	369936	keystroke_e	e	n/a
185.118	0.1645	370236	keystroke_r	r	n/a
185.2975	0.135	370595	keystroke_Key.space	Key.space	n/a
185.598	0.1045	371196	keystroke_t	t	n/a
185.688	0.0595	371376	keystroke_u	u	n/a
185.973	0.0145	371946	keystroke_n	n	n/a
186.003	0.1645	372006	keystroke_e	e	n/a
186.903	0.119	373806	keystroke_Key.space	Key.space	n/a
187.083	0.165	374166	keystroke_c	c	n/a
187.772	0.09	375544	keystroke_a	a	n/a
187.893	0.089	375786	keystroke_n	n	n/a
188.043	0.105	376086	keystroke_a	a	n/a
188.238	0.195	376476	keystroke_d	d	n/a
188.537	0.061	377074	keystroke_i	i	n/a
188.823	0.1495	377646	keystroke_a	a	n/a
188.9275	0.105	377855	keystroke_n	n	n/a
189.1525	0.15	378305	keystroke_Key.space	Key.space	n/a
189.3775	0.15	378755	keystroke_f	f	n/a
189.483	0.0595	378966	keystroke_i	i	n/a
191.795	0.0725	383590	keystroke_l	l	n/a
192.257	0.076	384514	keystroke_m	m	n/a
193.2475	0.0895	386495	keystroke_Key.enter	Key.enter	n/a
193.344	6.685	386688	prompt	n/a	vary coding polo type\n
194.178	0.1345	388356	keystroke_v	v	n/a
194.793	0.164	389586	keystroke_a	a	n/a
195.033	0.135	390066	keystroke_r	r	n/a
195.183	0.075	390366	keystroke_y	y	n/a
195.362	0.1355	390724	keystroke_Key.space	Key.space	n/a
195.5135	0.164	391027	keystroke_c	c	n/a
195.738	0.1045	391476	keystroke_o	o	n/a
195.9625	0.21	391925	keystroke_d	d	n/a
196.068	0.0895	392136	keystroke_i	i	n/a
196.4135	0.1045	392827	keystroke_g	g	n/a
197.028	0.06	394056	keystroke_Key.backspace	Key.backspace	n/a
197.298	0.1195	394596	keystroke_n	n	n/a
197.733	0.1195	395466	keystroke_g	g	n/a
197.8975	0.1355	395795	keystroke_Key.space	Key.space	n/a
198.0925	0.165	396185	keystroke_p	p	n/a
198.2725	0.09	396545	keystroke_o	o	n/a
198.5125	0.105	397025	keystroke_l	l	n/a
198.768	0.089	397536	keystroke_o	o	n/a
198.9175	0.1345	397835	keystroke_Key.space	Key.space	n/a
199.113	0.1345	398226	keystroke_t	t	n/a
199.203	0.0895	398406	keystroke_y	y	n/a
199.3825	0.15	398765	keystroke_p	p	n/a
199.548	0.12	399096	keystroke_e	e	n/a
199.967	0.061	399934	keystroke_Key.enter	Key.enter	n/a
200.0345	9.085	400069	prompt	n/a	witch duck vegetarian disabled\n
201.3175	0.1655	402635	keystroke_w	w	n/a
201.4675	0.0905	402935	keystroke_i	i	n/a
201.768	0.105	403536	keystroke_t	t	n/a
202.053	0.15	404106	keystroke_c	c	n/a
202.188	0.06	404376	keystroke_h	h	n/a
202.3375	0.105	404675	keystroke_Key.space	Key.space	n/a
202.5025	0.1055	405005	keystroke_d	d	n/a
202.6225	0.06	405245	keystroke_u	u	n/a
202.817	0.1355	405634	keystroke_c	c	n/a
202.953	0.12	405906	keystroke_k	k	n/a
203.1925	0.135	406385	keystroke_Key.space	Key.space	n/a
203.673	0.1645	407346	keystroke_v	v	n/a
203.9575	0.1805	407915	keystroke_e	e	n/a
204.302	0.091	408604	keystroke_g	g	n/a
204.4825	0.1805	408965	keystroke_e	e	n/a
204.813	0.089	409626	keystroke_t	t	n/a
205.4725	0.15	410945	keystroke_a	a	n/a
205.728	0.1045	411456	keystroke_r	r	n/a
205.8925	0.09	411785	keystroke_i	i	n/a
206.103	0.1495	412206	keystroke_a	a	n/a
206.2375	0.1955	412475	keystroke_n	n	n/a
206.403	0.179	412806	keystroke_Key.space	Key.space	n/a
207.3025	0.15	414605	keystroke_d	d	n/a
207.4685	0.1195	414937	keystroke_i	i	n/a
207.6325	0.1205	415265	keystroke_s	s	n/a
207.8725	0.15	415745	keystroke_a	a	n/a
208.1125	0.12	416225	keystroke_b	b	n/a
208.2475	0.1505	416495	keystroke_l	l	n/a
208.383	0.1345	416766	keystroke_e	e	n/a
208.7275	0.1345	417455	keystroke_d	d	n/a
209.0425	0.075	418085	keystroke_Key.enter	Key.enter	n/a
209.124	10.8105	418248	prompt	n/a	innovative touch footage riverside\n
210.753	0.105	421506	keystroke_i	i	n/a
210.978	0.075	421956	keystroke_n	n	n/a
211.157	0.091	422314	keystroke_n	n	n/a
211.293	0.119	422586	keystroke_o	o	n/a
211.668	0.075	423336	keystroke_a	a	n/a
212.8975	0.105	425795	keystroke_Key.backspace	Key.backspace	n/a
213.0175	0.165	426035	keystroke_v	v	n/a
213.228	0.225	426456	keystroke_a	a	n/a
213.498	0.105	426996	keystroke_t	t	n/a
213.588	0.105	427176	keystroke_i	i	n/a
213.813	0.1195	427626	keystroke_v	v	n/a
214.0375	0.21	428075	keystroke_e	e	n/a
214.2025	0.135	428405	keystroke_Key.space	Key.space	n/a
214.4125	0.1495	428825	keystroke_t	t	n/a
214.5025	0.2255	429005	keystroke_o	o	n/a
214.6825	0.12	429365	keystroke_u	u	n/a
214.878	0.1495	429756	keystroke_c	c	n/a
214.9825	0.1055	429965	keystroke_h	h	n/a
215.1625	0.1205	430325	keystroke_Key.space	Key.space	n/a
215.477	0.076	430954	keystroke_t	t	n/a
216.182	0.09	432364	keystroke_Key.backspace	Key.backspace	n/a
216.633	0.135	433266	keystroke_f	f	n/a
216.738	0.09	433476	keystroke_o	o	n/a
216.918	0.105	433836	keystroke_o	o	n/a
217.098	0.119	434196	keystroke_t	t	n/a
217.278	0.15	434556	keystroke_a	a	n/a
217.548	0.12	435096	keystroke_g	g	n/a
217.743	0.1945	435486	keystroke_e	e	n/a
217.8775	0.12	435755	keystroke_Key.space	Key.space	n/a
218.2975	0.075	436595	keystroke_r	r	n/a
218.4175	0.0755	436835	keystroke_i	i	n/a
218.598	0.074	437196	keystroke_v	v	n/a
218.778	0.209	437556	keystroke_e	e	n/a
218.9125	0.1205	437825	keystroke_r	r	n/a
219.167	0.1355	438334	keystroke_s	s	n/a
219.288	0.0895	438576	keystroke_i	i	n/a
219.392	0.106	438784	keystroke_d	d	n/a
219.617	0.0905	439234	keystroke_e	e	n/a
219.858	0.0745	439716	keystroke_Key.enter	Key.enter	n/a
219.9395	13.27	439879	prompt	n/a	eventually enquiry greenhouse broken\n
221.132	0.105	442264	keystroke_e	e	n/a
221.373	0.1045	442746	keystroke_v	v	n/a
221.583	0.1795	443166	keystroke_e	e	n/a
221.7175	0.135	443435	keystroke_n	n	n/a
222.003	0.105	444006	keystroke_t	t	n/a
222.1525	0.105	444305	keystroke_u	u	n/a
222.4075	0.135	444815	keystroke_a	a	n/a
222.5125	0.0905	445025	keystroke_l	l	n/a
222.708	0.1045	445416	keystroke_l	l	n/a
222.993	0.0745	445986	keystroke_y	y	n/a
223.1725	0.12	446345	keystroke_Key.space	Key.space	n/a
223.308	0.1645	446616	keystroke_e	e	n/a
223.428	0.09	446856	keystroke_n	n	n/a
223.908	0.134	447816	keystroke_q	q	n/a
223.997	0.105	447994	keystroke_u	u	n/a
224.163	0.135	448326	keystroke_i	i	n/a
224.417	0.0755	448834	keystroke_t	t	n/a
224.4775	0.06	448955	keystroke_y	y	n/a
224.6575	0.12	449315	keystroke_Key.space	Key.space	n/a
224.9425	0.1055	449885	keystroke_g	g	n/a
225.182	0.12	450364	keystroke_r	r	n/a
225.768	0.0745	451536	keystroke_Key.backspace	Key.backspace	n/a
226.1875	0.06	452375	keystroke_Key.backspace	Key.backspace	n/a
226.3825	0.045	452765	keystroke_Key.backspace	Key.backspace	n/a
226.5325	0.0755	453065	keystroke_Key.backspace	Key.backspace	n/a
226.983	0.09	453966	keystroke_Key.backspace	Key.backspace	n/a
227.343	0.09	454686	keystroke_r	r	n/a
227.478	0.075	454956	keystroke_y	y	n/a
227.718	0.105	455436	keystroke_Key.space	Key.space	n/a
227.972	0.091	455944	keystroke_g	g	n/a
228.198	0.134	456396	keystroke_r	r	n/a
228.272	0.165	456544	keystroke_e	e	n/a
228.497	0.1205	456994	keystroke_e	e	n/a
229.4425	0.0455	458885	keystroke_n	n	n/a
229.6525	0.1355	459305	keystroke_h	h	n/a
229.7885	0.1795	459577	keystroke_o	o	n/a
229.908	0.135	459816	keystroke_u	u	n/a
230.1175	0.1195	460235	keystroke_s	s	n/a
230.3285	0.164	460657	keystroke_e	e	n/a
230.5225	0.075	461045	keystroke_Key.space	Key.space	n/a
230.973	0.1345	461946	keystroke_b	b	n/a
231.2575	0.1205	462515	keystroke_r	r	n/a
231.3925	0.0895	462785	keystroke_o	o	n/a
231.632	0.09	463264	keystroke_k	k	n/a
231.753	0.12	463506	keystroke_e	e	n/a
231.902	0.09	463804	keystroke_n	n	n/a
233.117	0.09	466234	keystroke_Key.enter	Key.enter	n/a
233.2145	10.78	466429	prompt	n/a	showing occasionally fundamentals infants\n
233.9875	0.1495	467975	keystroke_s	s	n/a
234.152	0.075	468304	keystroke_h	h	n/a
234.317	0.105	468634	keystroke_o	o	n/a
234.5425	0.0905	469085	keystroke_w	w	n/a
234.6025	0.06	469205	keystroke_i	i	n/a
234.7975	0.09	469595	keystroke_n	n	n/a
235.172	0.1055	470344	keystroke_g	g	n/a
235.3075	0.12	470615	keystroke_Key.space	Key.space	n/a
235.488	0.119	470976	keystroke_o	o	n/a
235.667	0.1355	471334	keystroke_c	c	n/a
235.892	0.105	471784	keystroke_c	c	n/a
236.253	0.134	472506	keystroke_a	a	n/a
236.4925	0.165	472985	keystroke_s	s	n/a
236.7025	0.165	473405	keystroke_i	i	n/a
236.8525	0.135	473705	keystroke_o	o	n/a
236.973	0.1495	473946	keystroke_n	n	n/a
237.1825	0.1505	474365	keystroke_a	a	n/a
237.2725	0.0755	474545	keystroke_l	l	n/a
237.4525	0.0905	474905	keystroke_l	l	n/a
237.7075	0.045	475415	keystroke_y	y	n/a
238.3975	0.135	476795	keystroke_Key.space	Key.space	n/a
238.5475	0.1805	477095	keystroke_f	f	n/a
238.698	0.06	477396	keystroke_u	u	n/a
238.923	0.105	477846	keystroke_n	n	n/a
239.043	0.135	478086	keystroke_d	d	n/a
239.253	0.135	478506	keystroke_a	a	n/a
239.358	0.105	478716	keystroke_m	m	n/a
239.568	0.2095	479136	keystroke_e	e	n/a
239.703	0.09	479406	keystroke_n	n	n/a
239.958	0.06	479916	keystroke_t	t	n/a
240.1075	0.1505	480215	keystroke_a	a	n/a
240.2125	0.1205	480425	keystroke_l	l	n/a
240.423	0.1495	480846	keystroke_s	s	n/a
240.5875	0.12	481175	keystroke_Key.space	Key.space	n/a
240.7975	0.06	481595	keystroke_i	i	n/a
240.9625	0.075	481925	keystroke_n	n	n/a
241.1275	0.165	482255	keystroke_f	f	n/a
241.4425	0.121	482885	keystroke_n	n	n/a
242.583	0.09	485166	keystroke_Key.backspace	Key.backspace	n/a
242.808	0.18	485616	keystroke_a	a	n/a
242.913	0.105	485826	keystroke_n	n	n/a
243.228	0.074	486456	keystroke_t	t	n/a
243.528	0.1345	487056	keystroke_s	s	n/a
243.9025	0.09	487805	keystroke_Key.enter	Key.enter	n/a
243.9985	8.081	487997	prompt	n/a	referrals financial navy buyer\n
244.8325	0.0905	489665	keystroke_r	r	n/a
244.953	0.165	489906	keystroke_e	e	n/a
245.1775	0.15	490355	keystroke_f	f	n/a
245.373	0.1795	490746	keystroke_e	e	n/a
246.1825	0.0755	492365	keystroke_r	r	n/a
246.3925	0.075	492785	keystroke_r	r	n/a
246.5725	0.18	493145	keystroke_a	a	n/a
246.6925	0.1205	493385	keystroke_l	l	n/a
246.8725	0.21	493745	keystroke_s	s	n/a
247.1575	0.105	494315	keystroke_Key.space	Key.space	n/a
247.6525	0.165	495305	keystroke_f	f	n/a
247.8025	0.075	495605	keystroke_i	i	n/a
248.0125	0.09	496025	keystroke_n	n	n/a
248.1625	0.135	496325	keystroke_a	a	n/a
248.2675	0.1055	496535	keystroke_n	n	n/a
248.4925	0.1355	496985	keystroke_c	c	n/a
248.613	0.075	497226	keystroke_i	i	n/a
248.807	0.151	497614	keystroke_a	a	n/a
248.868	0.2095	497736	keystroke_l	l	n/a
249.002	0.166	498004	keystroke_Key.space	Key.space	n/a
249.213	0.1045	498426	keystroke_n	n	n/a
249.3475	0.18	498695	keystroke_a	a	n/a
250.458	0.1195	500916	keystroke_v	v	n/a
250.623	0.0895	501246	keystroke_y	y	n/a
250.8475	0.105	501695	keystroke_Key.space	Key.space	n/a
251.0575	0.1055	502115	keystroke_b	b	n/a
251.1775	0.075	502355	keystroke_u	u	n/a
251.4325	0.09	502865	keystroke_y	y	n/a
251.5675	0.165	503135	keystroke_e	e	n/a
251.7625	0.0905	503525	keystroke_r	r	n/a
252.0175	0.06	504035	keystroke_Key.enter	Key.enter	n/a
252.0835	10.091	504167	prompt	n/a	faster oriented bloggers prize\n
253.0825	0.15	506165	keystroke_f	f	n/a
253.2475	0.1655	506495	keystroke_a	a	n/a
253.457	0.1355	506914	keystroke_s	s	n/a
253.712	0.105	507424	keystroke_t	t	n/a
253.878	0.1645	507756	keystroke_e	e	n/a
253.9975	0.1205	507995	keystroke_r	r	n/a
254.2975	0.12	508595	keystroke_Key.space	Key.space	n/a
254.4925	0.105	508985	keystroke_o	o	n/a
254.718	0.105	509436	keystroke_r	r	n/a
254.823	0.074	509646	keystroke_i	i	n/a
255.033	0.195	510066	keystroke_e	e	n/a
255.167	0.091	510334	keystroke_n	n	n/a
255.393	0.179	510786	keystroke_t	t	n/a
255.543	0.195	511086	keystroke_e	e	n/a
255.843	0.1495	511686	keystroke_d	d	n/a
255.9475	0.135	511895	keystroke_Key.space	Key.space	n/a
256.1575	0.0755	512315	keystroke_b	b	n/a
256.2925	0.09	512585	keystroke_l	l	n/a
256.5325	0.12	513065	keystroke_o	o	n/a
256.772	0.075	513544	keystroke_g	g	n/a
256.968	0.09	513936	keystroke_g	g	n/a
257.1175	0.1945	514235	keystroke_e	e	n/a
257.567	0.1805	515134	keystroke_s	s	n/a
257.717	0.1505	515434	keystroke_Key.space	Key.space	n/a
257.943	0.119	515886	keystroke_p	p	n/a
259.2315	0.091	518463	keystroke_Key.backspace	Key.backspace	n/a
259.4275	0.075	518855	keystroke_Key.backspace	Key.backspace	n/a
260.027	0.045	520054	keystroke_Key.backspace	Key.backspace	n/a
260.193	0.09	520386	keystroke_r	r	n/a
260.4925	0.21	520985	keystroke_s	s	n/a
260.6425	0.12	521285	keystroke_Key.space	Key.space	n/a
260.8975	0.09	521795	keystroke_p	p	n/a
261.1225	0.0905	522245	keystroke_r	r	n/a
261.213	0.0745	522426	keystroke_i	i	n/a
261.4225	0.1505	522845	keystroke_z	z	n/a
261.663	0.1495	523326	keystroke_e	e	n/a
262.0675	0.105	524135	keystroke_Key.enter	Key.enter	n/a
262.179	7.0005	524358	prompt	n/a	youth talented coach tsunami\n
262.968	0.105	525936	keystroke_y	y	n/a
263.1325	0.135	526265	keystroke_o	o	n/a
263.2225	0.1205	526445	keystroke_u	u	n/a
263.4475	0.12	526895	keystroke_t	t	n/a
263.5375	0.09	527075	keystroke_h	h	n/a
263.7175	0.1205	527435	keystroke_Key.space	Key.space	n/a
263.943	0.12	527886	keystroke_t	t	n/a
264.123	0.1645	528246	keystroke_a	a	n/a
264.257	0.105	528514	keystroke_l	l	n/a
264.438	0.1345	528876	keystroke_e	e	n/a
264.542	0.0905	529084	keystroke_n	n	n/a
264.7375	0.075	529475	keystroke_d	d	n/a
265.188	0.0895	530376	keystroke_Key.backspace	Key.backspace	n/a
265.308	0.1195	530616	keystroke_t	t	n/a
265.5175	0.105	531035	keystroke_e	e	n/a
265.742	0.1355	531484	keystroke_d	d	n/a
265.863	0.1345	531726	keystroke_Key.space	Key.space	n/a
266.072	0.135	532144	keystroke_c	c	n/a
266.1625	0.1055	532325	keystroke_o	o	n/a
266.357	0.1205	532714	keystroke_a	a	n/a
266.673	0.1645	533346	keystroke_c	c	n/a
266.8075	0.075	533615	keystroke_h	h	n/a
267.0025	0.105	534005	keystroke_Key.space	Key.space	n/a
267.4835	0.104	534967	keystroke_t	t	n/a
267.723	0.1505	535446	keystroke_s	s	n/a
267.9325	0.075	535865	keystroke_u	u	n/a
268.2025	0.0905	536405	keystroke_n	n	n/a
268.383	0.135	536766	keystroke_a	a	n/a
268.5475	0.075	537095	keystroke_m	m	n/a
268.7275	0.1055	537455	keystroke_i	i	n/a
269.0875	0.09	538175	keystroke_Key.enter	Key.enter	n/a
269.184	13.9305	538368	prompt	n/a	contact directories saskatchewan perfectly\n
270.003	0.18	540006	keystroke_c	c	n/a
270.152	0.09	540304	keystroke_o	o	n/a
270.3325	0.1055	540665	keystroke_n	n	n/a
270.542	0.106	541084	keystroke_t	t	n/a
270.708	0.135	541416	keystroke_a	a	n/a
270.933	0.18	541866	keystroke_c	c	n/a
271.2925	0.09	542585	keystroke_t	t	n/a
271.3975	0.1505	542795	keystroke_Key.space	Key.space	n/a
271.6225	0.135	543245	keystroke_d	d	n/a
271.773	0.1045	543546	keystroke_i	i	n/a
271.9675	0.1505	543935	keystroke_r	r	n/a
272.0725	0.12	544145	keystroke_e	e	n/a
272.3425	0.1645	544685	keystroke_c	c	n/a
272.6725	0.09	545345	keystroke_t	t	n/a
272.7475	0.1205	545495	keystroke_o	o	n/a
273.318	0.119	546636	keystroke_r	r	n/a
273.498	0.089	546996	keystroke_i	i	n/a
273.617	0.1065	547234	keystroke_e	e	n/a
273.842	0.135	547684	keystroke_s	s	n/a
274.0075	0.1045	548015	keystroke_Key.space	Key.space	n/a
274.308	0.135	548616	keystroke_s	s	n/a
274.563	0.089	549126	keystroke_a	a	n/a
274.787	0.136	549574	keystroke_s	s	n/a
275.2375	0.09	550475	keystroke_a	a	n/a
275.6725	0.09	551345	keystroke_Key.backspace	Key.backspace	n/a
276.1375	0.15	552275	keystroke_a	a	n/a
276.8425	0.09	553685	keystroke_Key.backspace	Key.backspace	n/a
278.0125	0.0755	556025	keystroke_k	k	n/a
278.193	0.195	556386	keystroke_a	a	n/a
278.5225	0.06	557045	keystroke_t	t	n/a
278.7775	0.12	557555	keystroke_c	c	n/a
278.9125	0.09	557825	keystroke_h	h	n/a
279.0775	0.135	558155	keystroke_e	e	n/a
279.3775	0.1205	558755	keystroke_w	w	n/a
279.6325	0.18	559265	keystroke_a	a	n/a
279.7375	0.105	559475	keystroke_n	n	n/a
279.978	0.1045	559956	keystroke_Key.space	Key.space	n/a
280.1725	0.1205	560345	keystroke_p	p	n/a
280.3075	0.165	560615	keystroke_e	e	n/a
280.4575	0.15	560915	keystroke_r	r	n/a
280.9675	0.09	561935	keystroke_f	f	n/a
281.1475	0.1045	562295	keystroke_e	e	n/a
281.4025	0.1805	562805	keystroke_c	c	n/a
281.7025	0.1045	563405	keystroke_t	t	n/a
281.898	0.12	563796	keystroke_l	l	n/a
282.183	0.105	564366	keystroke_y	y	n/a
282.993	0.119	565986	keystroke_Key.enter	Key.enter	n/a
283.126	11.3745	566252	prompt	n/a	mathematics enclosure hosts ware\n
283.938	0.1045	567876	keystroke_m	m	n/a
284.0575	0.195	568115	keystroke_a	a	n/a
284.2975	0.12	568595	keystroke_t	t	n/a
284.373	0.105	568746	keystroke_h	h	n/a
284.553	0.1495	569106	keystroke_e	e	n/a
284.7175	0.12	569435	keystroke_m	m	n/a
284.8975	0.1205	569795	keystroke_a	a	n/a
285.6325	0.075	571265	keystroke_t	t	n/a
285.7375	0.09	571475	keystroke_i	i	n/a
285.9475	0.09	571895	keystroke_c	c	n/a
286.668	0.135	573336	keystroke_s	s	n/a
286.818	0.1195	573636	keystroke_Key.space	Key.space	n/a
287.013	0.135	574026	keystroke_e	e	n/a
287.163	0.045	574326	keystroke_n	n	n/a
287.357	0.1505	574714	keystroke_d	d	n/a
287.9125	0.09	575825	keystroke_Key.backspace	Key.backspace	n/a
288.1235	0.1945	576247	keystroke_c	c	n/a
288.2875	0.105	576575	keystroke_l	l	n/a
288.602	0.136	577204	keystroke_o	o	n/a
288.8425	0.151	577685	keystroke_s	s	n/a
288.978	0.105	577956	keystroke_u	u	n/a
289.2325	0.1955	578465	keystroke_r	r	n/a
289.4125	0.18	578825	keystroke_e	e	n/a
289.6225	0.0905	579245	keystroke_Key.space	Key.space	n/a
289.878	0.1345	579756	keystroke_o	o	n/a
290.537	0.1055	581074	keystroke_Key.backspace	Key.backspace	n/a
291.0175	0.1055	582035	keystroke_o	o	n/a
291.738	0.089	583476	keystroke_Key.backspace	Key.backspace	n/a
292.0975	0.1055	584195	keystroke_h	h	n/a
292.248	0.1645	584496	keystroke_o	o	n/a
292.4575	0.21	584915	keystroke_s	s	n/a
292.8025	0.03	585605	keystroke_t	t	n/a
293.0125	0.1345	586025	keystroke_s	s	n/a
293.252	0.1505	586504	keystroke_Key.space	Key.space	n/a
293.4475	0.0905	586895	keystroke_w	w	n/a
293.6725	0.24	587345	keystroke_a	a	n/a
293.8975	0.165	587795	keystroke_r	r	n/a
293.988	0.1645	587976	keystroke_e	e	n/a
294.393	0.105	588786	keystroke_Key.enter	Key.enter	n/a
294.5055	8.394	589011	prompt	n/a	replace spotlight jury passage\n
295.353	0.18	590706	keystroke_r	r	n/a
295.472	0.211	590944	keystroke_e	e	n/a
296.0575	0.1495	592115	keystroke_p	p	n/a
296.523	0.1195	593046	keystroke_l	l	n/a
296.793	0.105	593586	keystroke_a	a	n/a
297.0775	0.09	594155	keystroke_c	c	n/a
297.3325	0.1205	594665	keystroke_e	e	n/a
297.4535	0.134	594907	keystroke_Key.space	Key.space	n/a
297.6175	0.165	595235	keystroke_s	s	n/a
297.7375	0.135	595475	keystroke_p	p	n/a
297.8725	0.1805	595745	keystroke_o	o	n/a
298.412	0.076	596824	keystroke_t	t	n/a
298.5775	0.1045	597155	keystroke_l	l	n/a
298.787	0.091	597574	keystroke_i	i	n/a
298.922	0.135	597844	keystroke_g	g	n/a
299.027	0.09	598054	keystroke_h	h	n/a
299.2225	0.09	598445	keystroke_t	t	n/a
299.3275	0.1045	598655	keystroke_Key.space	Key.space	n/a
299.538	0.074	599076	keystroke_j	j	n/a
300.393	0.104	600786	keystroke_u	u	n/a
300.7375	0.105	601475	keystroke_r	r	n/a
300.8725	0.0755	601745	keystroke_y	y	n/a
301.082	0.12	602164	keystroke_Key.space	Key.space	n/a
301.247	0.1805	602494	keystroke_p	p	n/a
301.3675	0.1505	602735	keystroke_a	a	n/a
301.5475	0.135	603095	keystroke_s	s	n/a
301.8175	0.105	603635	keystroke_s	s	n/a
301.968	0.1945	603936	keystroke_a	a	n/a
302.1925	0.1355	604385	keystroke_g	g	n/a
302.3875	0.1955	604775	keystroke_e	e	n/a
302.7925	0.105	605585	keystroke_Key.enter	Key.enter	n/a
302.905	6.624	605810	prompt	n/a	hanging master middle a\n
303.678	0.0895	607356	keystroke_h	h	n/a
303.813	0.21	607626	keystroke_a	a	n/a
303.948	0.1045	607896	keystroke_n	n	n/a
304.2925	0.1205	608585	keystroke_i	i	n/a
305.0725	0.0755	610145	keystroke_Key.backspace	Key.backspace	n/a
305.1925	0.135	610385	keystroke_g	g	n/a
305.3575	0.075	610715	keystroke_i	i	n/a
305.5675	0.075	611135	keystroke_n	n	n/a
305.7475	0.105	611495	keystroke_g	g	n/a
305.8825	0.1055	611765	keystroke_Key.space	Key.space	n/a
306.093	0.1045	612186	keystroke_m	m	n/a
306.1825	0.18	612365	keystroke_a	a	n/a
306.378	0.15	612756	keystroke_s	s	n/a
306.677	0.136	613354	keystroke_t	t	n/a
306.8575	0.1945	613715	keystroke_e	e	n/a
307.023	0.18	614046	keystroke_r	r	n/a
307.248	0.104	614496	keystroke_Key.space	Key.space	n/a
307.4125	0.09	614825	keystroke_m	m	n/a
307.607	0.06	615214	keystroke_i	i	n/a
307.7125	0.105	615425	keystroke_d	d	n/a
307.923	0.1045	615846	keystroke_d	d	n/a
308.0425	0.135	616085	keystroke_l	l	n/a
308.2075	0.1055	616415	keystroke_e	e	n/a
308.447	0.136	616894	keystroke_Key.space	Key.space	n/a
308.628	0.165	617256	keystroke_a	a	n/a
309.453	0.0745	618906	keystroke_Key.enter	Key.enter	n/a
309.533	11.2915	619066	prompt	n/a	remind investigate bidding launches\n
310.263	0.27	620526	keystroke_r	r	n/a
310.5175	0.1505	621035	keystroke_e	e	n/a
310.787	0.105	621574	keystroke_m	m	n/a
311.043	0.06	622086	keystroke_i	i	n/a
311.118	0.104	622236	keystroke_n	n	n/a
311.267	0.18	622534	keystroke_d	d	n/a
311.478	0.104	622956	keystroke_Key.space	Key.space	n/a
311.687	0.0615	623374	keystroke_i	i	n/a
311.823	0.0895	623646	keystroke_n	n	n/a
312.033	0.105	624066	keystroke_v	v	n/a
312.257	0.12	624514	keystroke_e	e	n/a
312.4825	0.165	624965	keystroke_s	s	n/a
312.7675	0.0905	625535	keystroke_t	t	n/a
312.888	0.0895	625776	keystroke_i	i	n/a
313.1125	0.1205	626225	keystroke_g	g	n/a
313.293	0.18	626586	keystroke_a	a	n/a
313.6225	0.12	627245	keystroke_t	t	n/a
313.8175	0.18	627635	keystroke_e	e	n/a
314.0125	0.0755	628025	keystroke_Key.space	Key.space	n/a
314.4025	0.09	628805	keystroke_g	g	n/a
314.5225	0.09	629045	keystroke_i	i	n/a
314.8225	0.1055	629645	keystroke_d	d	n/a
315.213	0.074	630426	keystroke_Key.backspace	Key.backspace	n/a
315.408	0.074	630816	keystroke_Key.backspace	Key.backspace	n/a
316.427	0.106	632854	keystroke_Key.backspace	Key.backspace	n/a
316.923	0.06	633846	keystroke_b	b	n/a
317.313	0.105	634626	keystroke_i	i	n/a
317.508	0.09	635016	keystroke_d	d	n/a
317.733	0.1495	635466	keystroke_d	d	n/a
317.8075	0.1055	635615	keystroke_i	i	n/a
317.9725	0.12	635945	keystroke_n	n	n/a
318.1675	0.1205	636335	keystroke_g	g	n/a
318.303	0.0895	636606	keystroke_Key.space	Key.space	n/a
318.513	0.134	637026	keystroke_l	l	n/a
318.6625	0.1805	637325	keystroke_a	a	n/a
318.827	0.1055	637654	keystroke_u	u	n/a
319.5025	0.075	639005	keystroke_n	n	n/a
319.6975	0.15	639395	keystroke_c	c	n/a
319.8775	0.075	639755	keystroke_h	h	n/a
320.0275	0.1205	640055	keystroke_e	e	n/a
320.222	0.21	640444	keystroke_s	s	n/a
320.702	0.12	641404	keystroke_Key.enter	Key.enter	n/a
320.8345	8.51	641669	prompt	n/a	projection mumbai associates below\n
321.588	0.1345	643176	keystroke_p	p	n/a
321.8725	0.12	643745	keystroke_r	r	n/a
322.1125	0.1205	644225	keystroke_o	o	n/a
322.338	0.1045	644676	keystroke_j	j	n/a
322.5025	0.105	645005	keystroke_e	e	n/a
322.7875	0.165	645575	keystroke_c	c	n/a
323.1175	0.09	646235	keystroke_t	t	n/a
323.268	0.089	646536	keystroke_i	i	n/a
323.4475	0.12	646895	keystroke_o	o	n/a
323.5825	0.1045	647165	keystroke_n	n	n/a
323.9125	0.075	647825	keystroke_Key.space	Key.space	n/a
324.078	0.0895	648156	keystroke_m	m	n/a
324.318	0.0745	648636	keystroke_u	u	n/a
324.5575	0.105	649115	keystroke_m	m	n/a
324.8275	0.135	649655	keystroke_b	b	n/a
325.0375	0.1655	650075	keystroke_a	a	n/a
325.2175	0.075	650435	keystroke_i	i	n/a
325.4275	0.12	650855	keystroke_Key.space	Key.space	n/a
325.787	0.1355	651574	keystroke_a	a	n/a
325.9975	0.1055	651995	keystroke_s	s	n/a
326.2375	0.135	652475	keystroke_s	s	n/a
326.3875	0.15	652775	keystroke_o	o	n/a
326.643	0.165	653286	keystroke_c	c	n/a
326.7925	0.1205	653585	keystroke_i	i	n/a
326.9725	0.2095	653945	keystroke_a	a	n/a
327.213	0.1645	654426	keystroke_t	t	n/a
327.347	0.18	654694	keystroke_e	e	n/a
327.693	0.134	655386	keystroke_s	s	n/a
327.8425	0.1205	655685	keystroke_Key.space	Key.space	n/a
328.082	0.136	656164	keystroke_b	b	n/a
328.338	0.1645	656676	keystroke_e	e	n/a
328.4875	0.0905	656975	keystroke_l	l	n/a
328.743	0.105	657486	keystroke_o	o	n/a
328.863	0.105	657726	keystroke_w	w	n/a
329.222	0.121	658444	keystroke_Key.enter	Key.enter	n/a
329.3495	8.4715	658699	prompt	n/a	how'd keep branch tested\n
330.123	0.074	660246	keystroke_h	h	n/a
330.258	0.1495	660516	keystroke_o	o	n/a
330.7675	0.105	661535	keystroke_w	w	n/a
331.637	0.105	663274	keystroke_'	'	n/a
331.848	0.0895	663696	keystroke_d	d	n/a
332.3275	0.135	664655	keystroke_Key.space	Key.space	n/a
332.763	0.105	665526	keystroke_k	k	n/a
332.9575	0.0745	665915	keystroke_e	e	n/a
333.1525	0.105	666305	keystroke_e	e	n/a
333.2725	0.1505	666545	keystroke_p	p	n/a
333.4375	0.1505	666875	keystroke_Key.space	Key.space	n/a
333.9175	0.12	667835	keystroke_r	r	n/a
334.6675	0.1195	669335	keystroke_Key.backspace	Key.backspace	n/a
334.937	0.121	669874	keystroke_b	b	n/a
335.253	0.1045	670506	keystroke_r	r	n/a
335.418	0.165	670836	keystroke_a	a	n/a
335.568	0.105	671136	keystroke_n	n	n/a
335.793	0.149	671586	keystroke_c	c	n/a
335.912	0.0755	671824	keystroke_h	h	n/a
336.0775	0.0895	672155	keystroke_Key.space	Key.space	n/a
336.348	0.12	672696	keystroke_t	t	n/a
336.468	0.165	672936	keystroke_e	e	n/a
336.768	0.165	673536	keystroke_s	s	n/a
337.113	0.045	674226	keystroke_t	t	n/a
337.127	0.136	674254	keystroke_e	e	n/a
337.383	0.105	674766	keystroke_d	d	n/a
337.698	0.12	675396	keystroke_Key.enter	Key.enter	n/a
337.825	9.069	675650	prompt	n/a	concerned damage body novelty\n
338.583	0.165	677166	keystroke_c	c	n/a
338.763	0.09	677526	keystroke_o	o	n/a
338.959	0.074	677918	keystroke_n	n	n/a
339.078	0.1495	678156	keystroke_c	c	n/a
339.392	0.211	678784	keystroke_e	e	n/a
339.618	0.1795	679236	keystroke_r	r	n/a
339.843	0.1195	679686	keystroke_n	n	n/a
340.0225	0.12	680045	keystroke_e	e	n/a
340.2775	0.12	680555	keystroke_d	d	n/a
340.3675	0.1495	680735	keystroke_Key.space	Key.space	n/a
340.562	0.15	681124	keystroke_d	d	n/a
340.8175	0.1355	681635	keystroke_a	a	n/a
340.938	0.0895	681876	keystroke_m	m	n/a
341.1175	0.1355	682235	keystroke_a	a	n/a
341.433	0.12	682866	keystroke_g	g	n/a
341.642	0.166	683284	keystroke_e	e	n/a
341.762	0.15	683524	keystroke_Key.space	Key.space	n/a
342.1375	0.1195	684275	keystroke_b	b	n/a
342.243	0.12	684486	keystroke_o	o	n/a
342.482	0.1805	684964	keystroke_d	d	n/a
343.592	0.0905	687184	keystroke_y	y	n/a
343.877	0.105	687754	keystroke_Key.space	Key.space	n/a
344.8975	0.105	689795	keystroke_n	n	n/a
345.0925	0.12	690185	keystroke_o	o	n/a
345.2575	0.165	690515	keystroke_v	v	n/a
345.4825	0.165	690965	keystroke_e	e	n/a
345.5875	0.1355	691175	keystroke_l	l	n/a
345.9175	0.105	691835	keystroke_t	t	n/a
345.9925	0.09	691985	keystroke_y	y	n/a
346.8025	0.09	693605	keystroke_Key.enter	Key.enter	n/a
346.8995	8.05	693799	prompt	n/a	announced postposted notes heavy\n
347.5225	0.165	695045	keystroke_a	a	n/a
347.6725	0.06	695345	keystroke_n	n	n/a
347.8525	0.0755	695705	keystroke_n	n	n/a
347.9875	0.21	695975	keystroke_o	o	n/a
348.123	0.1045	696246	keystroke_u	u	n/a
348.3775	0.105	696755	keystroke_n	n	n/a
348.5125	0.1505	697025	keystroke_d	d	n/a
349.067	0.1205	698134	keystroke_Key.backspace	Key.backspace	n/a
349.263	0.12	698526	keystroke_c	c	n/a
349.5475	0.0905	699095	keystroke_e	e	n/a
349.758	0.149	699516	keystroke_d	d	n/a
349.878	0.119	699756	keystroke_Key.space	Key.space	n/a
350.087	0.165	700174	keystroke_p	p	n/a
350.223	0.209	700446	keystroke_o	o	n/a
350.447	0.1805	700894	keystroke_s	s	n/a
350.7325	0.105	701465	keystroke_t	t	n/a
350.9725	0.1345	701945	keystroke_p	p	n/a
351.1375	0.18	702275	keystroke_o	o	n/a
351.4825	0.075	702965	keystroke_n	n	n/a
351.6325	0.09	703265	keystroke_e	e	n/a
351.8575	0.135	703715	keystroke_d	d	n/a
352.0225	0.135	704045	keystroke_Key.space	Key.space	n/a
352.398	0.0895	704796	keystroke_n	n	n/a
352.5925	0.12	705185	keystroke_o	o	n/a
352.803	0.1345	705606	keystroke_t	t	n/a
352.9675	0.1505	705935	keystroke_e	e	n/a
353.2375	0.165	706475	keystroke_s	s	n/a
353.3865	0.121	706773	keystroke_Key.space	Key.space	n/a
353.6425	0.1045	707285	keystroke_h	h	n/a
353.763	0.119	707526	keystroke_e	e	n/a
353.987	0.12	707974	keystroke_a	a	n/a
354.212	0.165	708424	keystroke_v	v	n/a
354.4825	0.09	708965	keystroke_y	y	n/a
354.8725	0.075	709745	keystroke_Key.enter	Key.enter	n/a
354.954	7.9765	709908	prompt	n/a	sugar residence tension middle\n
355.8475	0.1355	711695	keystroke_s	s	n/a
355.9675	0.105	711935	keystroke_u	u	n/a
356.2525	0.09	712505	keystroke_g	g	n/a
356.3875	0.2245	712775	keystroke_a	a	n/a
356.718	0.119	713436	keystroke_r	r	n/a
356.852	0.1355	713704	keystroke_Key.space	Key.space	n/a
357.0175	0.15	714035	keystroke_r	r	n/a
357.1075	0.165	714215	keystroke_e	e	n/a
357.4075	0.15	714815	keystroke_s	s	n/a
357.513	0.119	715026	keystroke_i	i	n/a
357.677	0.1355	715354	keystroke_d	d	n/a
357.9625	0.15	715925	keystroke_e	e	n/a
358.0525	0.1055	716105	keystroke_n	n	n/a
358.878	0.135	717756	keystroke_c	c	n/a
359.583	0.1645	719166	keystroke_e	e	n/a
359.792	0.1505	719584	keystroke_Key.space	Key.space	n/a
359.972	0.12	719944	keystroke_t	t	n/a
360.152	0.226	720304	keystroke_e	e	n/a
360.303	0.09	720606	keystroke_n	n	n/a
360.993	0.1495	721986	keystroke_s	s	n/a
361.1425	0.0755	722285	keystroke_i	i	n/a
361.3075	0.1055	722615	keystroke_o	o	n/a
361.488	0.1945	722976	keystroke_n	n	n/a
361.6525	0.135	723305	keystroke_Key.space	Key.space	n/a
361.8475	0.09	723695	keystroke_m	m	n/a
362.0275	0.105	724055	keystroke_i	i	n/a
362.1475	0.06	724295	keystroke_d	d	n/a
362.3275	0.105	724655	keystroke_d	d	n/a
362.4025	0.135	724805	keystroke_l	l	n/a
362.5825	0.105	725165	keystroke_e	e	n/a
362.8375	0.0895	725675	keystroke_Key.enter	Key.enter	n/a
362.9345	8.035	725869	prompt	n/a	annex away swim turning\n
363.5875	0.12	727175	keystroke_a	a	n/a
363.7225	0.075	727445	keystroke_n	n	n/a
363.9025	0.105	727805	keystroke_n	n	n/a
364.0225	0.105	728045	keystroke_e	e	n/a
364.5475	0.0905	729095	keystroke_Key.space	Key.space	n/a
365.0275	0.09	730055	keystroke_Key.backspace	Key.backspace	n/a
366.0175	0.1645	732035	keystroke_x	x	n/a
366.2575	0.165	732515	keystroke_Key.space	Key.space	n/a
366.453	0.1495	732906	keystroke_a	a	n/a
366.7675	0.0905	733535	keystroke_w	w	n/a
366.9775	0.18	733955	keystroke_a	a	n/a
367.1125	0.09	734225	keystroke_y	y	n/a
367.3225	0.135	734645	keystroke_Key.space	Key.space	n/a
367.4875	0.1055	734975	keystroke_s	s	n/a
367.8925	0.09	735785	keystroke_w	w	n/a
367.9975	0.09	735995	keystroke_i	i	n/a
368.4025	0.0905	736805	keystroke_m	m	n/a
368.567	0.135	737134	keystroke_Key.space	Key.space	n/a
368.8975	0.09	737795	keystroke_t	t	n/a
369.002	0.091	738004	keystroke_u	u	n/a
369.122	0.1205	738244	keystroke_r	r	n/a
369.2875	0.105	738575	keystroke_n	n	n/a
369.5125	0.165	739025	keystroke_i	i	n/a
369.6325	0.1495	739265	keystroke_n	n	n/a
370.6525	0.075	741305	keystroke_g	g	n/a
370.8775	0.0905	741755	keystroke_Key.enter	Key.enter	n/a
370.9725	9.6275	741945	prompt	n/a	whatever despite button idaho\n
371.703	0.09	743406	keystroke_w	w	n/a
372.0325	0.075	744065	keystroke_h	h	n/a
372.1825	0.195	744365	keystroke_a	a	n/a
372.4375	0.12	744875	keystroke_t	t	n/a
372.648	0.1495	745296	keystroke_e	e	n/a
372.933	0.1195	745866	keystroke_v	v	n/a
373.158	0.2095	746316	keystroke_e	e	n/a
373.3225	0.15	746645	keystroke_r	r	n/a
373.4875	0.15	746975	keystroke_Key.space	Key.space	n/a
373.8175	0.09	747635	keystroke_d	d	n/a
374.0425	0.105	748085	keystroke_e	e	n/a
374.238	0.1795	748476	keystroke_s	s	n/a
374.493	0.104	748986	keystroke_p	p	n/a
374.6575	0.12	749315	keystroke_i	i	n/a
374.853	0.1045	749706	keystroke_t	t	n/a
375.0475	0.1645	750095	keystroke_e	e	n/a
375.197	0.1205	750394	keystroke_Key.space	Key.space	n/a
375.392	0.135	750784	keystroke_b	b	n/a
375.542	0.09	751084	keystroke_u	u	n/a
376.023	0.0445	752046	keystroke_t	t	n/a
376.1725	0.0905	752345	keystroke_t	t	n/a
376.278	0.1195	752556	keystroke_o	o	n/a
376.4125	0.195	752825	keystroke_n	n	n/a
376.5775	0.135	753155	keystroke_Key.space	Key.space	n/a
376.7725	0.105	753545	keystroke_i	i	n/a
376.8775	0.1355	753755	keystroke_d	d	n/a
377.2375	0.0145	754475	keystroke_a	a	n/a
378.603	0.059	757206	keystroke_h	h	n/a
378.752	0.1355	757504	keystroke_o	o	n/a
380.5075	0.09	761015	keystroke_Key.enter	Key.enter	n/a
380.604	10.7805	761208	prompt	n/a	arena fortune recorder sandwich\n
381.438	0.135	762876	keystroke_a	a	n/a
381.708	0.134	763416	keystroke_r	r	n/a
381.813	0.195	763626	keystroke_e	e	n/a
382.128	0.119	764256	keystroke_n	n	n/a
382.322	0.151	764644	keystroke_a	a	n/a
382.457	0.12	764914	keystroke_Key.space	Key.space	n/a
382.6975	0.1355	765395	keystroke_f	f	n/a
382.848	0.1345	765696	keystroke_o	o	n/a
383.028	0.09	766056	keystroke_r	r	n/a
383.253	0.135	766506	keystroke_t	t	n/a
383.358	0.09	766716	keystroke_u	u	n/a
383.598	0.09	767196	keystroke_n	n	n/a
383.673	0.1495	767346	keystroke_e	e	n/a
383.8225	0.1205	767645	keystroke_Key.space	Key.space	n/a
384.1075	0.15	768215	keystroke_r	r	n/a
384.2425	0.1805	768485	keystroke_e	e	n/a
384.5875	0.18	769175	keystroke_c	c	n/a
384.7525	0.1355	769505	keystroke_o	o	n/a
384.9175	0.105	769835	keystroke_r	r	n/a
385.188	0.105	770376	keystroke_d	d	n/a
385.413	0.1495	770826	keystroke_e	e	n/a
385.547	0.165	771094	keystroke_r	r	n/a
385.757	0.1355	771514	keystroke_Key.space	Key.space	n/a
386.4175	0.1345	772835	keystroke_s	s	n/a
386.6425	0.1645	773285	keystroke_a	a	n/a
386.7475	0.1055	773495	keystroke_n	n	n/a
386.882	0.181	773764	keystroke_d	d	n/a
387.647	0.12	775294	keystroke_w	w	n/a
387.737	0.106	775474	keystroke_i	i	n/a
388.112	0.075	776224	keystroke_h	h	n/a
389.822	0.09	779644	keystroke_Key.backspace	Key.backspace	n/a
390.783	0.134	781566	keystroke_c	c	n/a
390.918	0.074	781836	keystroke_h	h	n/a
391.3075	0.075	782615	keystroke_Key.enter	Key.enter	n/a
391.3895	10.3145	782779	prompt	n/a	instructor recommends names losing\n
392.4025	0.075	784805	keystroke_i	i	n/a
392.5975	0.105	785195	keystroke_n	n	n/a
392.8225	0.135	785645	keystroke_s	s	n/a
393.0925	0.075	786185	keystroke_t	t	n/a
393.2875	0.105	786575	keystroke_r	r	n/a
393.4075	0.105	786815	keystroke_u	u	n/a
393.617	0.1355	787234	keystroke_c	c	n/a
393.9175	0.105	787835	keystroke_t	t	n/a
394.008	0.1195	788016	keystroke_o	o	n/a
394.203	0.12	788406	keystroke_r	r	n/a
394.338	0.1045	788676	keystroke_Key.space	Key.space	n/a
394.4435	0.134	788887	keystroke_r	r	n/a
394.5625	0.165	789125	keystroke_e	e	n/a
395.253	0.1045	790506	keystroke_c	c	n/a
395.3875	0.12	790775	keystroke_o	o	n/a
395.823	0.0745	791646	keystroke_m	m	n/a
397.9835	0.0445	795967	keystroke_m	m	n/a
398.1325	0.09	796265	keystroke_e	e	n/a
398.2375	0.09	796475	keystroke_n	n	n/a
398.4325	0.075	796865	keystroke_d	d	n/a
398.6125	0.15	797225	keystroke_s	s	n/a
398.7775	0.105	797555	keystroke_Key.space	Key.space	n/a
399.0925	0.0905	798185	keystroke_n	n	n/a
399.258	0.149	798516	keystroke_a	a	n/a
399.422	0.0915	798844	keystroke_m	m	n/a
399.558	0.105	799116	keystroke_e	e	n/a
399.753	0.165	799506	keystroke_s	s	n/a
399.857	0.1055	799714	keystroke_Key.space	Key.space	n/a
400.4275	0.1045	800855	keystroke_l	l	n/a
400.6675	0.12	801335	keystroke_o	o	n/a
400.7735	0.1795	801547	keystroke_s	s	n/a
400.9225	0.1505	801845	keystroke_i	i	n/a
401.0575	0.15	802115	keystroke_n	n	n/a
401.2975	0.09	802595	keystroke_g	g	n/a
401.612	0.09	803224	keystroke_Key.enter	Key.enter	n/a
401.7085	7.5405	803417	prompt	n/a	accessory aging expense leader\n
402.438	0.0895	804876	keystroke_a	a	n/a
402.6775	0.105	805355	keystroke_c	c	n/a
402.8275	0.105	805655	keystroke_c	c	n/a
403.0525	0.18	806105	keystroke_e	e	n/a
403.2625	0.105	806525	keystroke_s	s	n/a
403.4875	0.15	806975	keystroke_s	s	n/a
403.623	0.1045	807246	keystroke_o	o	n/a
403.8175	0.12	807635	keystroke_r	r	n/a
403.9525	0.075	807905	keystroke_y	y	n/a
404.1625	0.09	808325	keystroke_Key.space	Key.space	n/a
404.2675	0.18	808535	keystroke_a	a	n/a
404.5075	0.106	809015	keystroke_g	g	n/a
404.703	0.0745	809406	keystroke_i	i	n/a
404.867	0.0905	809734	keystroke_n	n	n/a
405.2275	0.075	810455	keystroke_Key.space	Key.space	n/a
405.7225	0.075	811445	keystroke_Key.backspace	Key.backspace	n/a
405.9475	0.09	811895	keystroke_g	g	n/a
406.097	0.12	812194	keystroke_Key.space	Key.space	n/a
406.322	0.076	812644	keystroke_e	e	n/a
406.5775	0.165	813155	keystroke_x	x	n/a
406.7575	0.09	813515	keystroke_p	p	n/a
406.9675	0.105	813935	keystroke_e	e	n/a
407.058	0.1045	814116	keystroke_n	n	n/a
407.267	0.106	814534	keystroke_s	s	n/a
407.492	0.121	814984	keystroke_e	e	n/a
407.643	0.105	815286	keystroke_Key.space	Key.space	n/a
407.8525	0.1055	815705	keystroke_l	l	n/a
407.942	0.122	815884	keystroke_e	e	n/a
408.168	0.119	816336	keystroke_a	a	n/a
408.378	0.104	816756	keystroke_d	d	n/a
408.617	0.1955	817234	keystroke_e	e	n/a
408.7975	0.12	817595	keystroke_r	r	n/a
409.1725	0.0745	818345	keystroke_Key.enter	Key.enter	n/a
409.2565	9.8175	818513	prompt	n/a	configured balanced soldier discrete\n
410.688	0.179	821376	keystroke_c	c	n/a
410.808	0.119	821616	keystroke_o	o	n/a
411.048	0.089	822096	keystroke_n	n	n/a
411.3325	0.12	822665	keystroke_f	f	n/a
411.4225	0.09	822845	keystroke_i	i	n/a
411.6925	0.105	823385	keystroke_g	g	n/a
411.7825	0.105	823565	keystroke_u	u	n/a
411.9625	0.165	823925	keystroke_r	r	n/a
412.0675	0.15	824135	keystroke_e	e	n/a
412.3525	0.165	824705	keystroke_d	d	n/a
412.5025	0.1195	825005	keystroke_Key.space	Key.space	n/a
412.727	0.106	825454	keystroke_b	b	n/a
412.893	0.165	825786	keystroke_a	a	n/a
413.043	0.12	826086	keystroke_l	l	n/a
413.207	0.121	826414	keystroke_a	a	n/a
413.313	0.12	826626	keystroke_n	n	n/a
413.493	0.09	826986	keystroke_c	c	n/a
413.7925	0.1055	827585	keystroke_e	e	n/a
413.987	0.135	827974	keystroke_Key.space	Key.space	n/a
414.2125	0.105	828425	keystroke_s	s	n/a
414.2875	0.105	828575	keystroke_o	o	n/a
414.693	0.134	829386	keystroke_l	l	n/a
414.932	0.15	829864	keystroke_d	d	n/a
415.097	0.09	830194	keystroke_i	i	n/a
415.3825	0.1805	830765	keystroke_e	e	n/a
415.6075	0.1055	831215	keystroke_r	r	n/a
415.7875	0.1505	831575	keystroke_Key.space	Key.space	n/a
416.1175	0.15	832235	keystroke_d	d	n/a
416.6125	0.105	833225	keystroke_i	i	n/a
416.8225	0.09	833645	keystroke_s	s	n/a
417.0475	0.165	834095	keystroke_c	c	n/a
417.3325	0.12	834665	keystroke_r	r	n/a
417.4075	0.18	834815	keystroke_e	e	n/a
417.7525	0.06	835505	keystroke_t	t	n/a
417.9175	0.12	835835	keystroke_e	e	n/a
418.9975	0.075	837995	keystroke_Key.enter	Key.enter	n/a
419.078	9.238	838156	prompt	n/a	beaches chrysler emerging stevens\n
419.943	0.0595	839886	keystroke_b	b	n/a
420.123	0.1195	840246	keystroke_e	e	n/a
420.5725	0.15	841145	keystroke_c	c	n/a
421.1575	0.105	842315	keystroke_Key.backspace	Key.backspace	n/a
421.4875	0.1055	842975	keystroke_a	a	n/a
421.728	0.135	843456	keystroke_c	c	n/a
421.878	0.09	843756	keystroke_h	h	n/a
421.983	0.105	843966	keystroke_e	e	n/a
422.178	0.1645	844356	keystroke_s	s	n/a
422.3275	0.105	844655	keystroke_Key.space	Key.space	n/a
422.5225	0.195	845045	keystroke_c	c	n/a
422.702	0.0905	845404	keystroke_h	h	n/a
422.9135	0.134	845827	keystroke_r	r	n/a
423.3325	0.105	846665	keystroke_y	y	n/a
423.483	0.134	846966	keystroke_s	s	n/a
423.768	0.134	847536	keystroke_l	l	n/a
423.917	0.18	847834	keystroke_e	e	n/a
424.217	0.106	848434	keystroke_r	r	n/a
424.337	0.1205	848674	keystroke_Key.space	Key.space	n/a
424.5175	0.1495	849035	keystroke_e	e	n/a
424.683	0.09	849366	keystroke_m	m	n/a
424.863	0.164	849726	keystroke_e	e	n/a
425.0125	0.105	850025	keystroke_r	r	n/a
425.3125	0.09	850625	keystroke_g	g	n/a
425.4175	0.075	850835	keystroke_i	i	n/a
425.6125	0.09	851225	keystroke_n	n	n/a
425.8375	0.0905	851675	keystroke_g	g	n/a
426.2275	0.135	852455	keystroke_Key.space	Key.space	n/a
426.5875	0.165	853175	keystroke_s	s	n/a
426.8425	0.105	853685	keystroke_t	t	n/a
426.9925	0.18	853985	keystroke_e	e	n/a
427.3675	0.135	854735	keystroke_v	v	n/a
427.593	0.1645	855186	keystroke_e	e	n/a
427.7425	0.09	855485	keystroke_n	n	n/a
427.8925	0.135	855785	keystroke_s	s	n/a
428.2225	0.0895	856445	keystroke_Key.enter	Key.enter	n/a
428.3205	11.6635	856641	prompt	n/a	approaches filtering subsequent reverse\n
429.108	0.165	858216	keystroke_a	a	n/a
429.303	0.03	858606	keystroke_p	p	n/a
429.4375	0.105	858875	keystroke_p	p	n/a
429.6025	0.12	859205	keystroke_r	r	n/a
429.7075	0.105	859415	keystroke_o	o	n/a
430.323	0.1045	860646	keystroke_a	a	n/a
430.562	0.136	861124	keystroke_c	c	n/a
430.713	0.074	861426	keystroke_h	h	n/a
430.832	0.1055	861664	keystroke_e	e	n/a
431.012	0.18	862024	keystroke_s	s	n/a
431.132	0.15	862264	keystroke_Key.space	Key.space	n/a
431.372	0.135	862744	keystroke_f	f	n/a
431.492	0.09	862984	keystroke_i	i	n/a
431.718	0.134	863436	keystroke_l	l	n/a
431.958	0.135	863916	keystroke_t	t	n/a
432.093	0.195	864186	keystroke_e	e	n/a
432.843	0.1195	865686	keystroke_r	r	n/a
433.0075	0.09	866015	keystroke_i	i	n/a
433.2025	0.09	866405	keystroke_n	n	n/a
433.4275	0.09	866855	keystroke_g	g	n/a
433.6675	0.0895	867335	keystroke_Key.space	Key.space	n/a
434.118	0.105	868236	keystroke_s	s	n/a
434.268	0.075	868536	keystroke_u	u	n/a
434.718	0.1195	869436	keystroke_s	s	n/a
434.9575	0.165	869915	keystroke_e	e	n/a
435.2125	0.1655	870425	keystroke_q	q	n/a
435.348	0.0895	870696	keystroke_u	u	n/a
435.4825	0.165	870965	keystroke_e	e	n/a
435.6625	0.0905	871325	keystroke_n	n	n/a
435.9325	0.09	871865	keystroke_t	t	n/a
436.0525	0.12	872105	keystroke_Key.space	Key.space	n/a
436.263	0.1645	872526	keystroke_r	r	n/a
436.3525	0.18	872705	keystroke_e	e	n/a
438.5125	0.135	877025	keystroke_v	v	n/a
438.767	0.18	877534	keystroke_e	e	n/a
438.902	0.135	877804	keystroke_r	r	n/a
439.157	0.121	878314	keystroke_s	s	n/a
439.337	0.121	878674	keystroke_e	e	n/a
439.8625	0.1195	879725	keystroke_Key.enter	Key.enter	n/a
439.9875	9.0865	879975	prompt	n/a	pros harmony harrison sole\n
440.8675	0.105	881735	keystroke_p	p	n/a
441.0925	0.105	882185	keystroke_r	r	n/a
441.1975	0.12	882395	keystroke_o	o	n/a
441.3325	0.1945	882665	keystroke_s	s	n/a
441.542	0.045	883084	keystroke_Key.space	Key.space	n/a
441.873	0.0895	883746	keystroke_h	h	n/a
441.9925	0.18	883985	keystroke_a	a	n/a
442.4125	0.075	884825	keystroke_m	m	n/a
442.7435	0.1345	885487	keystroke_o	o	n/a
443.298	0.075	886596	keystroke_=	=	n/a
443.507	0.0455	887014	keystroke_Key.backspace	Key.backspace	n/a
443.883	0.09	887766	keystroke_Key.backspace	Key.backspace	n/a
444.0775	0.075	888155	keystroke_Key.backspace	Key.backspace	n/a
444.3175	0.1055	888635	keystroke_r	r	n/a
444.662	0.1055	889324	keystroke_m	m	n/a
444.887	0.105	889774	keystroke_o	o	n/a
445.007	0.1505	890014	keystroke_n	n	n/a
445.3375	0.0905	890675	keystroke_y	y	n/a
445.562	0.1055	891124	keystroke_Key.space	Key.space	n/a
446.342	0.12	892684	keystroke_h	h	n/a
446.493	0.194	892986	keystroke_a	a	n/a
446.7025	0.075	893405	keystroke_r	r	n/a
446.883	0.1045	893766	keystroke_r	r	n/a
447.0025	0.09	894005	keystroke_i	i	n/a
447.123	0.1945	894246	keystroke_s	s	n/a
447.2425	0.12	894485	keystroke_o	o	n/a
447.4375	0.21	894875	keystroke_n	n	n/a
447.6025	0.135	895205	keystroke_Key.space	Key.space	n/a
447.7225	0.165	895445	keystroke_s	s	n/a
447.7975	0.105	895595	keystroke_o	o	n/a
448.023	0.119	896046	keystroke_l	l	n/a
448.112	0.106	896224	keystroke_e	e	n/a
448.9675	0.105	897935	keystroke_Key.enter	Key.enter	n/a
449.0775	13.2275	898155	prompt	n/a	ashley examination entrance attendance\n
450.2275	0.1345	900455	keystroke_a	a	n/a
450.377	0.1805	900754	keystroke_s	s	n/a
450.6475	0.09	901295	keystroke_h	h	n/a
450.933	0.12	901866	keystroke_l	l	n/a
451.0825	0.135	902165	keystroke_e	e	n/a
451.2925	0.075	902585	keystroke_y	y	n/a
451.5175	0.12	903035	keystroke_Key.space	Key.space	n/a
451.8175	0.09	903635	keystroke_e	e	n/a
452.387	0.1655	904774	keystroke_a	a	n/a
452.867	0.105	905734	keystroke_Key.backspace	Key.backspace	n/a
453.138	0.15	906276	keystroke_x	x	n/a
453.663	0.164	907326	keystroke_a	a	n/a
454.5325	0.15	909065	keystroke_m	m	n/a
454.802	0.046	909604	keystroke_i	i	n/a
454.9825	0.0905	909965	keystroke_n	n	n/a
455.222	0.091	910444	keystroke_a	a	n/a
455.6725	0.1045	911345	keystroke_t	t	n/a
455.792	0.076	911584	keystroke_i	i	n/a
455.972	0.135	911944	keystroke_o	o	n/a
456.2125	0.21	912425	keystroke_n	n	n/a
456.4375	0.12	912875	keystroke_Key.space	Key.space	n/a
456.7225	0.1505	913445	keystroke_e	e	n/a
456.813	0.1045	913626	keystroke_n	n	n/a
457.1125	0.075	914225	keystroke_t	t	n/a
457.308	0.12	914616	keystroke_r	r	n/a
457.488	0.135	914976	keystroke_a	a	n/a
457.608	0.12	915216	keystroke_n	n	n/a
457.7875	0.1355	915575	keystroke_c	c	n/a
458.043	0.15	916086	keystroke_e	e	n/a
458.178	0.1345	916356	keystroke_Key.space	Key.space	n/a
458.4475	0.225	916895	keystroke_a	a	n/a
458.7475	0.0755	917495	keystroke_t	t	n/a
458.913	0.1345	917826	keystroke_t	t	n/a
459.0925	0.1645	918185	keystroke_e	e	n/a
459.273	0.12	918546	keystroke_n	n	n/a
459.468	0.105	918936	keystroke_d	d	n/a
459.648	0.134	919296	keystroke_a	a	n/a
459.753	0.105	919506	keystroke_n	n	n/a
459.933	0.12	919866	keystroke_c	c	n/a
460.1875	0.1195	920375	keystroke_e	e	n/a
462.2125	0.09	924425	keystroke_Key.enter	Key.enter	n/a
462.309	10.495	924618	prompt	n/a	systems possibility supplements done\n
462.993	0.12	925986	keystroke_s	s	n/a
463.2025	0.105	926405	keystroke_y	y	n/a
463.3375	0.15	926675	keystroke_s	s	n/a
463.6075	0.09	927215	keystroke_t	t	n/a
463.7725	0.18	927545	keystroke_e	e	n/a
463.9375	0.09	927875	keystroke_m	m	n/a
464.1175	0.165	928235	keystroke_s	s	n/a
464.223	0.1645	928446	keystroke_Key.space	Key.space	n/a
464.4925	0.105	928985	keystroke_p	p	n/a
464.5825	0.21	929165	keystroke_o	o	n/a
464.7925	0.0755	929585	keystroke_s	s	n/a
464.988	0.1345	929976	keystroke_s	s	n/a
465.0925	0.0905	930185	keystroke_i	i	n/a
465.2875	0.18	930575	keystroke_b	b	n/a
465.5425	0.09	931085	keystroke_i	i	n/a
465.8275	0.165	931655	keystroke_l	l	n/a
466.1725	0.09	932345	keystroke_i	i	n/a
466.3375	0.105	932675	keystroke_t	t	n/a
466.4875	0.0905	932975	keystroke_y	y	n/a
466.742	0.106	933484	keystroke_Key.space	Key.space	n/a
467.043	0.134	934086	keystroke_s	s	n/a
467.208	0.1045	934416	keystroke_u	u	n/a
467.4475	0.1195	934895	keystroke_p	p	n/a
467.6275	0.1055	935255	keystroke_p	p	n/a
467.867	0.135	935734	keystroke_l	l	n/a
468.1075	0.0445	936215	keystroke_i	i	n/a
468.6325	0.075	937265	keystroke_Key.backspace	Key.backspace	n/a
468.8575	0.12	937715	keystroke_e	e	n/a
469.1125	0.09	938225	keystroke_m	m	n/a
469.2925	0.165	938585	keystroke_e	e	n/a
469.3975	0.06	938795	keystroke_m	m	n/a
470.5375	0.045	941075	keystroke_Key.backspace	Key.backspace	n/a
470.7775	0.1045	941555	keystroke_n	n	n/a
470.973	0.089	941946	keystroke_t	t	n/a
471.183	0.1505	942366	keystroke_s	s	n/a
471.4075	0.135	942815	keystroke_Key.space	Key.space	n/a
471.978	0.1645	943956	keystroke_d	d	n/a
472.0825	0.12	944165	keystroke_o	o	n/a
472.2325	0.135	944465	keystroke_n	n	n/a
472.4125	0.105	944825	keystroke_e	e	n/a
472.697	0.1055	945394	keystroke_Key.enter	Key.enter	n/a
472.808	7.826	945616	prompt	n/a	kill celebrate anchor kansas\n
473.523	0.09	947046	keystroke_k	k	n/a
473.7475	0.075	947495	keystroke_i	i	n/a
473.9275	0.0895	947855	keystroke_l	l	n/a
474.137	0.2105	948274	keystroke_l	l	n/a
474.273	0.2095	948546	keystroke_Key.space	Key.space	n/a
474.4675	0.12	948935	keystroke_c	c	n/a
474.738	0.1045	949476	keystroke_e	e	n/a
474.8275	0.12	949655	keystroke_l	l	n/a
474.9625	0.09	949925	keystroke_e	e	n/a
475.2925	0.075	950585	keystroke_b	b	n/a
475.5475	0.09	951095	keystroke_r	r	n/a
475.6975	0.255	951395	keystroke_a	a	n/a
475.9075	0.12	951815	keystroke_t	t	n/a
476.0285	0.194	952057	keystroke_e	e	n/a
476.3425	0.1045	952685	keystroke_Key.space	Key.space	n/a
476.5975	0.1505	953195	keystroke_a	a	n/a
476.702	0.076	953404	keystroke_n	n	n/a
476.8975	0.1805	953795	keystroke_c	c	n/a
477.0325	0.06	954065	keystroke_h	h	n/a
477.227	0.1355	954454	keystroke_o	o	n/a
477.422	0.105	954844	keystroke_r	r	n/a
477.572	0.105	955144	keystroke_Key.space	Key.space	n/a
477.797	0.106	955594	keystroke_k	k	n/a
478.083	0.1345	956166	keystroke_a	a	n/a
478.172	0.106	956344	keystroke_n	n	n/a
478.3525	0.1055	956705	keystroke_s	s	n/a
478.578	0.12	957156	keystroke_a	a	n/a
478.773	0.1345	957546	keystroke_s	s	n/a
480.542	0.09	961084	keystroke_Key.enter	Key.enter	n/a
480.637	8.052	961274	prompt	n/a	websites complement real angeles\n
481.8325	0.12	963665	keystroke_w	w	n/a
482.0125	0.15	964025	keystroke_e	e	n/a
482.313	0.09	964626	keystroke_b	b	n/a
482.7175	0.165	965435	keystroke_s	s	n/a
482.8975	0.09	965795	keystroke_i	i	n/a
483.1235	0.1195	966247	keystroke_t	t	n/a
483.288	0.134	966576	keystroke_e	e	n/a
483.4975	0.195	966995	keystroke_s	s	n/a
483.6775	0.135	967355	keystroke_Key.space	Key.space	n/a
483.8575	0.1655	967715	keystroke_c	c	n/a
483.9775	0.075	967955	keystroke_o	o	n/a
484.1275	0.1355	968255	keystroke_m	m	n/a
484.368	0.0745	968736	keystroke_p	p	n/a
484.5475	0.135	969095	keystroke_l	l	n/a
484.7275	0.09	969455	keystroke_e	e	n/a
484.8775	0.12	969755	keystroke_m	m	n/a
485.118	0.1195	970236	keystroke_e	e	n/a
485.178	0.105	970356	keystroke_n	n	n/a
485.3875	0.09	970775	keystroke_t	t	n/a
485.5225	0.135	971045	keystroke_Key.space	Key.space	n/a
485.673	0.12	971346	keystroke_r	r	n/a
485.763	0.1645	971526	keystroke_e	e	n/a
486.033	0.1795	972066	keystroke_a	a	n/a
486.2275	0.1945	972455	keystroke_l	l	n/a
486.3775	0.1645	972755	keystroke_Key.space	Key.space	n/a
486.6025	0.165	973205	keystroke_a	a	n/a
486.708	0.09	973416	keystroke_n	n	n/a
486.9625	0.105	973925	keystroke_g	g	n/a
487.1725	0.135	974345	keystroke_e	e	n/a
487.338	0.1195	974676	keystroke_l	l	n/a
487.4725	0.0755	974945	keystroke_e	e	n/a
487.6675	0.15	975335	keystroke_s	s	n/a
488.5975	0.09	977195	keystroke_Key.enter	Key.enter	n/a
488.6925	8.397	977385	prompt	n/a	i'd labs affiliate chemicals\n
489.588	0.104	979176	keystroke_i	i	n/a
490.217	0.105	980434	keystroke_'	'	n/a
490.443	0.1045	980886	keystroke_d	d	n/a
490.743	0.09	981486	keystroke_Key.space	Key.space	n/a
490.923	0.135	981846	keystroke_l	l	n/a
491.042	0.181	982084	keystroke_a	a	n/a
491.283	0.075	982566	keystroke_b	b	n/a
491.508	0.15	983016	keystroke_s	s	n/a
491.672	0.136	983344	keystroke_Key.space	Key.space	n/a
491.897	0.181	983794	keystroke_a	a	n/a
492.2275	0.0445	984455	keystroke_f	f	n/a
492.3925	0.105	984785	keystroke_f	f	n/a
492.5875	0.075	985175	keystroke_i	i	n/a
492.7825	0.195	985565	keystroke_l	l	n/a
492.948	0.1495	985896	keystroke_i	i	n/a
493.187	0.0465	986374	keystroke_t	t	n/a
493.5925	0.105	987185	keystroke_Key.backspace	Key.backspace	n/a
493.7425	0.18	987485	keystroke_a	a	n/a
493.9825	0.1055	987965	keystroke_t	t	n/a
494.1625	0.15	988325	keystroke_e	e	n/a
494.3135	0.1185	988627	keystroke_Key.space	Key.space	n/a
494.5075	0.135	989015	keystroke_c	c	n/a
494.598	0.105	989196	keystroke_h	h	n/a
494.7775	0.136	989555	keystroke_e	e	n/a
494.9275	0.09	989855	keystroke_m	m	n/a
495.108	0.1195	990216	keystroke_i	i	n/a
495.2725	0.135	990545	keystroke_c	c	n/a
495.5275	0.1355	991055	keystroke_a	a	n/a
495.633	0.1195	991266	keystroke_l	l	n/a
495.7975	0.1505	991595	keystroke_s	s	n/a
496.9825	0.105	993965	keystroke_Key.enter	Key.enter	n/a
497.094	9.3405	994188	prompt	n/a	golf diabetes seriously remarkable\n
498.243	0.119	996486	keystroke_g	g	n/a
498.333	0.09	996666	keystroke_o	o	n/a
498.5575	0.12	997115	keystroke_l	l	n/a
498.6625	0.165	997325	keystroke_d	d	n/a
498.8125	0.15	997625	keystroke_Key.space	Key.space	n/a
499.173	0.12	998346	keystroke_d	d	n/a
499.2935	0.1045	998587	keystroke_i	i	n/a
499.4425	0.18	998885	keystroke_a	a	n/a
499.6525	0.075	999305	keystroke_b	b	n/a
499.8325	0.121	999665	keystroke_e	e	n/a
500.4175	0.105	1000835	keystroke_t	t	n/a
500.598	0.135	1001196	keystroke_e	e	n/a
500.823	0.165	1001646	keystroke_s	s	n/a
501.003	0.135	1002006	keystroke_Key.space	Key.space	n/a
501.348	0.1345	1002696	keystroke_s	s	n/a
501.573	0.165	1003146	keystroke_e	e	n/a
501.8275	0.09	1003655	keystroke_r	r	n/a
501.9775	0.195	1003955	keystroke_i	i	n/a
502.1275	0.165	1004255	keystroke_o	o	n/a
502.2325	0.1805	1004465	keystroke_u	u	n/a
502.473	0.09	1004946	keystroke_s	s	n/a
502.608	0.1495	1005216	keystroke_l	l	n/a
502.9375	0.06	1005875	keystroke_y	y	n/a
503.1325	0.09	1006265	keystroke_Key.space	Key.space	n/a
503.388	0.1345	1006776	keystroke_r	r	n/a
503.478	0.1795	1006956	keystroke_e	e	n/a
504.078	0.12	1008156	keystroke_m	m	n/a
504.228	0.195	1008456	keystroke_a	a	n/a
504.4075	0.135	1008815	keystroke_r	r	n/a
504.663	0.075	1009326	keystroke_k	k	n/a
504.7985	0.179	1009597	keystroke_a	a	n/a
505.173	0.1045	1010346	keystroke_b	b	n/a
505.3525	0.1055	1010705	keystroke_l	l	n/a
505.4875	0.12	1010975	keystroke_e	e	n/a
506.3275	0.105	1012655	keystroke_Key.enter	Key.enter	n/a
506.439	12.4155	1012878	prompt	n/a	others giant relationships present\n
507.123	0.12	1014246	keystroke_o	o	n/a
507.348	0.135	1014696	keystroke_t	t	n/a
507.468	0.09	1014936	keystroke_h	h	n/a
507.543	0.135	1015086	keystroke_e	e	n/a
507.648	0.135	1015296	keystroke_r	r	n/a
507.933	0.209	1015866	keystroke_s	s	n/a
508.083	0.12	1016166	keystroke_Key.space	Key.space	n/a
508.4575	0.075	1016915	keystroke_i	i	n/a
508.6075	0.1655	1017215	keystroke_a	a	n/a
508.728	0.09	1017456	keystroke_n	n	n/a
509.2525	0.06	1018505	keystroke_Key.backspace	Key.backspace	n/a
509.4325	0.06	1018865	keystroke_Key.backspace	Key.backspace	n/a
509.5975	0.075	1019195	keystroke_Key.backspace	Key.backspace	n/a
509.8525	0.1355	1019705	keystroke_g	g	n/a
509.9725	0.0755	1019945	keystroke_i	i	n/a
510.543	0.1645	1021086	keystroke_a	a	n/a
510.6025	0.09	1021205	keystroke_n	n	n/a
510.8125	0.1055	1021625	keystroke_t	t	n/a
511.0975	0.1055	1022195	keystroke_Key.space	Key.space	n/a
511.4725	0.105	1022945	keystroke_e	e	n/a
512.043	0.12	1024086	keystroke_Key.backspace	Key.backspace	n/a
512.223	0.21	1024446	keystroke_r	r	n/a
512.358	0.195	1024716	keystroke_e	e	n/a
512.598	0.089	1025196	keystroke_l	l	n/a
512.732	0.1965	1025464	keystroke_a	a	n/a
512.9735	0.1335	1025947	keystroke_t	t	n/a
513.092	0.1955	1026184	keystroke_i	i	n/a
513.168	0.1795	1026336	keystroke_o	o	n/a
513.303	0.165	1026606	keystroke_n	n	n/a
513.542	0.105	1027084	keystroke_s	s	n/a
513.842	0.0755	1027684	keystroke_h	h	n/a
514.038	0.0745	1028076	keystroke_i	i	n/a
514.263	0.0895	1028526	keystroke_p	p	n/a
514.473	0.1195	1028946	keystroke_s	s	n/a
514.6075	0.1055	1029215	keystroke_Key.space	Key.space	n/a
514.833	0.18	1029666	keystroke_r	r	n/a
516.1525	0.105	1032305	keystroke_Key.backspace	Key.backspace	n/a
516.9175	0.105	1033835	keystroke_p	p	n/a
517.0525	0.3	1034105	keystroke_r	r	n/a
517.3385	0.179	1034677	keystroke_e	e	n/a
517.9225	0.1055	1035845	keystroke_s	s	n/a
518.1025	0.195	1036205	keystroke_e	e	n/a
518.2225	0.1055	1036445	keystroke_n	n	n/a
518.463	0.075	1036926	keystroke_t	t	n/a
518.7475	0.105	1037495	keystroke_Key.enter	Key.enter	n/a
518.861	7.6135	1037722	prompt	n/a	legendary drawings rough dallas\n
519.6175	0.1045	1039235	keystroke_l	l	n/a
519.843	0.1495	1039686	keystroke_e	e	n/a
520.098	0.09	1040196	keystroke_g	g	n/a
520.2775	0.181	1040555	keystroke_e	e	n/a
520.4595	0.1185	1040919	keystroke_n	n	n/a
520.653	0.1495	1041306	keystroke_d	d	n/a
520.878	0.225	1041756	keystroke_a	a	n/a
521.148	0.12	1042296	keystroke_r	r	n/a
521.283	0.075	1042566	keystroke_y	y	n/a
521.567	0.135	1043134	keystroke_Key.space	Key.space	n/a
521.913	0.149	1043826	keystroke_d	d	n/a
522.168	0.105	1044336	keystroke_r	r	n/a
522.303	0.15	1044606	keystroke_a	a	n/a
522.5575	0.211	1045115	keystroke_w	w	n/a
522.6775	0.18	1045355	keystroke_i	i	n/a
522.843	0.12	1045686	keystroke_n	n	n/a
523.0375	0.105	1046075	keystroke_g	g	n/a
523.2475	0.18	1046495	keystroke_s	s	n/a
523.4125	0.105	1046825	keystroke_Key.space	Key.space	n/a
523.9375	0.225	1047875	keystroke_r	r	n/a
524.0875	0.1805	1048175	keystroke_o	o	n/a
524.193	0.135	1048386	keystroke_u	u	n/a
524.3575	0.105	1048715	keystroke_g	g	n/a
524.5075	0.075	1049015	keystroke_h	h	n/a
524.8225	0.1045	1049645	keystroke_Key.space	Key.space	n/a
525.272	0.15	1050544	keystroke_d	d	n/a
525.497	0.15	1050994	keystroke_a	a	n/a
525.617	0.105	1051234	keystroke_l	l	n/a
525.8435	0.1035	1051687	keystroke_l	l	n/a
525.9175	0.1945	1051835	keystroke_a	a	n/a
526.082	0.1655	1052164	keystroke_s	s	n/a
526.3675	0.105	1052735	keystroke_Key.enter	Key.enter	n/a
526.479	7.0905	1052958	prompt	n/a	incidents folding terrible dependent\n
527.2225	0.0455	1054445	keystroke_i	i	n/a
527.388	0.105	1054776	keystroke_n	n	n/a
527.598	0.135	1055196	keystroke_c	c	n/a
527.703	0.09	1055406	keystroke_i	i	n/a
527.927	0.106	1055854	keystroke_d	d	n/a
528.153	0.18	1056306	keystroke_e	e	n/a
528.228	0.12	1056456	keystroke_n	n	n/a
528.423	0.0895	1056846	keystroke_t	t	n/a
528.6325	0.195	1057265	keystroke_s	s	n/a
528.7825	0.12	1057565	keystroke_Key.space	Key.space	n/a
529.053	0.1345	1058106	keystroke_f	f	n/a
529.143	0.09	1058286	keystroke_o	o	n/a
529.3525	0.1205	1058705	keystroke_l	l	n/a
529.5925	0.195	1059185	keystroke_d	d	n/a
529.6675	0.105	1059335	keystroke_i	i	n/a
529.803	0.135	1059606	keystroke_n	n	n/a
529.9975	0.09	1059995	keystroke_g	g	n/a
530.2825	0.105	1060565	keystroke_Key.space	Key.space	n/a
530.628	0.134	1061256	keystroke_t	t	n/a
530.793	0.12	1061586	keystroke_e	e	n/a
530.898	0.12	1061796	keystroke_r	r	n/a
531.108	0.1045	1062216	keystroke_r	r	n/a
531.2275	0.0895	1062455	keystroke_i	i	n/a
531.408	0.165	1062816	keystroke_b	b	n/a
531.543	0.105	1063086	keystroke_l	l	n/a
531.7075	0.1355	1063415	keystroke_e	e	n/a
531.828	0.1195	1063656	keystroke_Key.space	Key.space	n/a
531.977	0.075	1063954	keystroke_d	d	n/a
532.1725	0.1055	1064345	keystroke_e	e	n/a
532.293	0.09	1064586	keystroke_p	p	n/a
532.4425	0.09	1064885	keystroke_e	e	n/a
532.518	0.09	1065036	keystroke_n	n	n/a
532.743	0.0895	1065486	keystroke_d	d	n/a
532.9525	0.195	1065905	keystroke_e	e	n/a
533.058	0.1045	1066116	keystroke_n	n	n/a
533.2525	0.09	1066505	keystroke_t	t	n/a
533.4925	0.075	1066985	keystroke_Key.enter	Key.enter	n/a
533.5745	9.746	1067149	prompt	n/a	hans wants breast equally\n
534.4825	0.075	1068965	keystroke_h	h	n/a
534.633	0.135	1069266	keystroke_a	a	n/a
534.738	0.09	1069476	keystroke_n	n	n/a
534.858	0.12	1069716	keystroke_s	s	n/a
535.007	0.12	1070014	keystroke_Key.space	Key.space	n/a
535.247	0.076	1070494	keystroke_w	w	n/a
535.427	0.226	1070854	keystroke_a	a	n/a
535.5175	0.09	1071035	keystroke_n	n	n/a
535.8025	0.06	1071605	keystroke_t	t	n/a
536.118	0.165	1072236	keystroke_s	s	n/a
536.2975	0.12	1072595	keystroke_Key.space	Key.space	n/a
536.4925	0.06	1072985	keystroke_b	b	n/a
537.378	0.165	1074756	keystroke_r	r	n/a
537.468	0.165	1074936	keystroke_e	e	n/a
537.947	0.075	1075894	keystroke_s	s	n/a
538.4725	0.1205	1076945	keystroke_Key.backspace	Key.backspace	n/a
538.6075	0.255	1077215	keystroke_a	a	n/a
538.8175	0.21	1077635	keystroke_s	s	n/a
539.133	0.0895	1078266	keystroke_t	t	n/a
539.2675	0.135	1078535	keystroke_Key.space	Key.space	n/a
539.4925	0.0905	1078985	keystroke_d	d	n/a
539.883	0.135	1079766	keystroke_q	q	n/a
539.988	0.09	1079976	keystroke_u	u	n/a
540.572	0.015	1081144	keystroke_Key.backspace	Key.backspace	n/a
540.6925	0.06	1081385	keystroke_Key.backspace	Key.backspace	n/a
540.8575	0.09	1081715	keystroke_Key.backspace	Key.backspace	n/a
541.2175	0.135	1082435	keystroke_e	e	n/a
541.4875	0.12	1082975	keystroke_q	q	n/a
541.5785	0.0895	1083157	keystroke_u	u	n/a
541.773	0.135	1083546	keystroke_a	a	n/a
541.877	0.076	1083754	keystroke_l	l	n/a
542.058	0.105	1084116	keystroke_l	l	n/a
542.268	0.089	1084536	keystroke_y	y	n/a
543.228	0.09	1086456	keystroke_Key.enter	Key.enter	n/a
543.3255	12.774	1086651	prompt	n/a	style slovenia done format\n
544.2925	0.181	1088585	keystroke_s	s	n/a
544.548	0.105	1089096	keystroke_t	t	n/a
544.668	0.075	1089336	keystroke_y	y	n/a
545.043	0.1195	1090086	keystroke_e	e	n/a
547.113	0.09	1094226	keystroke_Key.backspace	Key.backspace	n/a
547.593	0.09	1095186	keystroke_l	l	n/a
547.758	0.0895	1095516	keystroke_e	e	n/a
547.9525	0.1055	1095905	keystroke_Key.space	Key.space	n/a
548.118	0.165	1096236	keystroke_s	s	n/a
548.403	0.0895	1096806	keystroke_l	l	n/a
548.643	0.089	1097286	keystroke_o	o	n/a
548.792	0.136	1097584	keystroke_v	v	n/a
549.1675	0.0305	1098335	keystroke_e	e	n/a
549.183	0.06	1098366	keystroke_n	n	n/a
550.0525	0.0905	1100105	keystroke_i	i	n/a
550.2175	0.1355	1100435	keystroke_a	a	n/a
550.743	0.075	1101486	keystroke_Key.space	Key.space	n/a
550.968	0.15	1101936	keystroke_d	d	n/a
551.058	0.09	1102116	keystroke_o	o	n/a
551.193	0.105	1102386	keystroke_n	n	n/a
551.358	0.12	1102716	keystroke_e	e	n/a
551.463	0.105	1102926	keystroke_Key.space	Key.space	n/a
551.7025	0.105	1103405	keystroke_o	o	n/a
552.393	0.09	1104786	keystroke_Key.backspace	Key.backspace	n/a
552.7375	0.09	1105475	keystroke_r	r	n/a
553.6525	0.12	1107305	keystroke_Key.backspace	Key.backspace	n/a
553.893	0.15	1107786	keystroke_f	f	n/a
554.0275	0.1205	1108055	keystroke_o	o	n/a
554.208	0.12	1108416	keystroke_r	r	n/a
554.328	0.12	1108656	keystroke_m	m	n/a
554.493	0.15	1108986	keystroke_a	a	n/a
554.7185	0.0895	1109437	keystroke_t	t	n/a
555.978	0.12	1111956	keystroke_Key.enter	Key.enter	n/a
556.105	7.54	1112210	prompt	n/a	planet declaration acute tender\n
556.8325	0.105	1113665	keystroke_p	p	n/a
557.0875	0.1355	1114175	keystroke_l	l	n/a
557.2385	0.1195	1114477	keystroke_a	a	n/a
557.343	0.12	1114686	keystroke_n	n	n/a
557.7475	0.165	1115495	keystroke_e	e	n/a
558.0325	0.09	1116065	keystroke_t	t	n/a
558.1825	0.1355	1116365	keystroke_Key.space	Key.space	n/a
558.348	0.105	1116696	keystroke_d	d	n/a
558.588	0.09	1117176	keystroke_e	e	n/a
558.828	0.1355	1117656	keystroke_c	c	n/a
558.978	0.12	1117956	keystroke_l	l	n/a
559.203	0.15	1118406	keystroke_a	a	n/a
559.443	0.09	1118886	keystroke_r	r	n/a
559.608	0.1955	1119216	keystroke_a	a	n/a
559.878	0.1055	1119756	keystroke_t	t	n/a
559.968	0.135	1119936	keystroke_i	i	n/a
560.133	0.105	1120266	keystroke_o	o	n/a
560.1925	0.1505	1120385	keystroke_n	n	n/a
560.4625	0.135	1120925	keystroke_Key.space	Key.space	n/a
560.5825	0.121	1121165	keystroke_a	a	n/a
560.778	0.2245	1121556	keystroke_c	c	n/a
561.0175	0.0755	1122035	keystroke_u	u	n/a
561.2135	0.089	1122427	keystroke_t	t	n/a
561.4075	0.1655	1122815	keystroke_e	e	n/a
561.558	0.12	1123116	keystroke_Key.space	Key.space	n/a
561.873	0.1045	1123746	keystroke_t	t	n/a
562.053	0.1645	1124106	keystroke_e	e	n/a
562.2025	0.1055	1124405	keystroke_n	n	n/a
562.383	0.0595	1124766	keystroke_d	d	n/a
562.563	0.15	1125126	keystroke_e	e	n/a
562.6975	0.0755	1125395	keystroke_r	r	n/a
563.5375	0.105	1127075	keystroke_Key.enter	Key.enter	n/a
563.649	8.666	1127298	prompt	n/a	kent weekly investigated premiere\n
564.4075	0.061	1128815	keystroke_k	k	n/a
564.6025	0.166	1129205	keystroke_e	e	n/a
564.678	0.1045	1129356	keystroke_n	n	n/a
564.9325	0.105	1129865	keystroke_t	t	n/a
565.083	0.1195	1130166	keystroke_Key.space	Key.space	n/a
565.3975	0.105	1130795	keystroke_w	w	n/a
565.5175	0.105	1131035	keystroke_e	e	n/a
565.743	0.0895	1131486	keystroke_e	e	n/a
565.8775	0.091	1131755	keystroke_k	k	n/a
566.0875	0.151	1132175	keystroke_l	l	n/a
566.4625	0.075	1132925	keystroke_y	y	n/a
566.6425	0.135	1133285	keystroke_Key.space	Key.space	n/a
566.8225	0.1055	1133645	keystroke_i	i	n/a
567.0035	0.0895	1134007	keystroke_n	n	n/a
567.363	0.12	1134726	keystroke_v	v	n/a
567.587	0.105	1135174	keystroke_e	e	n/a
567.798	0.164	1135596	keystroke_s	s	n/a
568.143	0.0895	1136286	keystroke_t	t	n/a
568.263	0.09	1136526	keystroke_i	i	n/a
568.668	0.165	1137336	keystroke_a	a	n/a
569.1925	0.09	1138385	keystroke_Key.backspace	Key.backspace	n/a
569.4035	0.1045	1138807	keystroke_g	g	n/a
569.598	0.21	1139196	keystroke_a	a	n/a
569.853	0.15	1139706	keystroke_t	t	n/a
569.988	0.15	1139976	keystroke_e	e	n/a
570.273	0.1645	1140546	keystroke_d	d	n/a
570.3925	0.1205	1140785	keystroke_Key.space	Key.space	n/a
570.5875	0.15	1141175	keystroke_p	p	n/a
570.7225	0.1655	1141445	keystroke_r	r	n/a
570.8275	0.1955	1141655	keystroke_e	e	n/a
571.038	0.105	1142076	keystroke_m	m	n/a
571.278	0.0905	1142556	keystroke_i	i	n/a
571.383	0.195	1142766	keystroke_e	e	n/a
571.5635	0.1195	1143127	keystroke_r	r	n/a
571.818	0.105	1143636	keystroke_e	e	n/a
572.207	0.1055	1144414	keystroke_Key.enter	Key.enter	n/a
572.32	7.4645	1144640	prompt	n/a	phone taxes planes cover\n
573.183	0.09	1146366	keystroke_p	p	n/a
574.248	0.0895	1148496	keystroke_h	h	n/a
574.3835	0.119	1148767	keystroke_o	o	n/a
574.608	0.0895	1149216	keystroke_n	n	n/a
574.7875	0.105	1149575	keystroke_e	e	n/a
574.8935	0.119	1149787	keystroke_Key.space	Key.space	n/a
575.103	0.1045	1150206	keystroke_t	t	n/a
575.2675	0.12	1150535	keystroke_a	a	n/a
575.5375	0.15	1151075	keystroke_x	x	n/a
576.1975	0.0905	1152395	keystroke_e	e	n/a
576.378	0.1805	1152756	keystroke_s	s	n/a
576.7225	0.135	1153445	keystroke_Key.space	Key.space	n/a
577.037	0.0755	1154074	keystroke_p	p	n/a
577.2475	0.12	1154495	keystroke_l	l	n/a
577.5925	0.12	1155185	keystroke_a	a	n/a
577.7725	0.0905	1155545	keystroke_n	n	n/a
577.908	0.1045	1155816	keystroke_e	e	n/a
578.1185	0.1495	1156237	keystroke_s	s	n/a
578.2375	0.15	1156475	keystroke_Key.space	Key.space	n/a
578.448	0.1945	1156896	keystroke_c	c	n/a
578.598	0.1045	1157196	keystroke_o	o	n/a
578.8075	0.136	1157615	keystroke_v	v	n/a
579.033	0.18	1158066	keystroke_e	e	n/a
579.168	0.15	1158336	keystroke_r	r	n/a
579.693	0.09	1159386	keystroke_Key.enter	Key.enter	n/a
579.789	11.545	1159578	prompt	n/a	mardi letter programmer investigators\n
580.6685	0.1645	1161337	keystroke_m	m	n/a
581.1925	0.21	1162385	keystroke_a	a	n/a
581.673	0.0295	1163346	keystroke_d	d	n/a
582.182	0.105	1164364	keystroke_Key.backspace	Key.backspace	n/a
582.528	0.104	1165056	keystroke_r	r	n/a
582.963	0.12	1165926	keystroke_d	d	n/a
583.097	0.105	1166194	keystroke_i	i	n/a
583.323	0.104	1166646	keystroke_Key.space	Key.space	n/a
583.4885	0.1345	1166977	keystroke_l	l	n/a
583.638	0.134	1167276	keystroke_e	e	n/a
583.892	0.075	1167784	keystroke_t	t	n/a
584.073	0.104	1168146	keystroke_t	t	n/a
584.222	0.1055	1168444	keystroke_e	e	n/a
584.778	0.06	1169556	keystroke_r	r	n/a
585.273	0.0595	1170546	keystroke_Key.space	Key.space	n/a
585.542	0.1205	1171084	keystroke_p	p	n/a
585.798	0.1045	1171596	keystroke_r	r	n/a
585.8875	0.105	1171775	keystroke_o	o	n/a
586.0675	0.09	1172135	keystroke_g	g	n/a
586.2925	0.1055	1172585	keystroke_r	r	n/a
586.3985	0.2095	1172797	keystroke_a	a	n/a
586.623	0.06	1173246	keystroke_m	m	n/a
586.8175	0.0755	1173635	keystroke_m	m	n/a
586.908	0.164	1173816	keystroke_e	e	n/a
587.073	0.105	1174146	keystroke_r	r	n/a
587.2525	0.105	1174505	keystroke_Key.space	Key.space	n/a
587.433	0.0745	1174866	keystroke_i	i	n/a
587.6285	0.104	1175257	keystroke_n	n	n/a
587.808	0.12	1175616	keystroke_v	v	n/a
588.4075	0.1195	1176815	keystroke_e	e	n/a
588.6325	0.195	1177265	keystroke_s	s	n/a
588.9325	0.0905	1177865	keystroke_t	t	n/a
589.308	0.0895	1178616	keystroke_i	i	n/a
589.5025	0.1205	1179005	keystroke_g	g	n/a
589.728	0.18	1179456	keystroke_a	a	n/a
590.043	0.1045	1180086	keystroke_t	t	n/a
590.1325	0.12	1180265	keystroke_o	o	n/a
590.313	0.0895	1180626	keystroke_r	r	n/a
590.523	0.15	1181046	keystroke_s	s	n/a
591.2275	0.1045	1182455	keystroke_Key.enter	Key.enter	n/a
591.3375	16.437	1182675	prompt	n/a	mini belkin internship addiction\n
592.008	0.105	1184016	keystroke_m	m	n/a
592.233	0.075	1184466	keystroke_i	i	n/a
592.443	0.075	1184886	keystroke_n	n	n/a
592.713	0.074	1185426	keystroke_i	i	n/a
592.907	0.12	1185814	keystroke_Key.space	Key.space	n/a
593.2225	0.1055	1186445	keystroke_b	b	n/a
593.4635	0.1495	1186927	keystroke_e	e	n/a
593.5975	0.1055	1187195	keystroke_l	l	n/a
593.9125	0.075	1187825	keystroke_k	k	n/a
594.152	0.061	1188304	keystroke_i	i	n/a
594.3175	0.1805	1188635	keystroke_n	n	n/a
594.4825	0.12	1188965	keystroke_Key.space	Key.space	n/a
594.6775	0.0755	1189355	keystroke_i	i	n/a
594.8275	0.12	1189655	keystroke_n	n	n/a
595.037	0.091	1190074	keystroke_t	t	n/a
595.1575	0.135	1190315	keystroke_e	e	n/a
595.2775	0.1645	1190555	keystroke_r	r	n/a
595.652	0.075	1191304	keystroke_n	n	n/a
596.072	0.136	1192144	keystroke_s	s	n/a
596.402	0.106	1192804	keystroke_i	i	n/a
596.7925	0.135	1193585	keystroke_p	p	n/a
597.227	0.1505	1194454	keystroke_Key.space	Key.space	n/a
597.782	0.061	1195564	keystroke_Key.backspace	Key.backspace	n/a
597.963	0.059	1195926	keystroke_Key.backspace	Key.backspace	n/a
598.127	0.076	1196254	keystroke_Key.backspace	Key.backspace	n/a
598.608	0.09	1197216	keystroke_h	h	n/a
598.788	0.1045	1197576	keystroke_i	i	n/a
599.087	0.151	1198174	keystroke_p	p	n/a
599.223	0.18	1198446	keystroke_Key.space	Key.space	n/a
599.462	0.121	1198924	keystroke_a	a	n/a
599.6425	0.1205	1199285	keystroke_d	d	n/a
599.8675	0.15	1199735	keystroke_d	d	n/a
599.9875	0.09	1199975	keystroke_i	i	n/a
600.183	0.045	1200366	keystroke_t	t	n/a
600.618	0.075	1201236	keystroke_Key.backspace	Key.backspace	n/a
600.798	0.15	1201596	keystroke_c	c	n/a
600.993	0.1045	1201986	keystroke_i	i	n/a
601.1875	0.09	1202375	keystroke_o	o	n/a
601.398	0.09	1202796	keystroke_n	n	n/a
603.665	0.028	1207330	keystroke_Key.backspace	Key.backspace	n/a
603.887	0.091	1207774	keystroke_Key.backspace	Key.backspace	n/a
604.5775	0.09	1209155	keystroke_t	t	n/a
604.952	0.091	1209904	keystroke_Key.backspace	Key.backspace	n/a
605.148	0.0745	1210296	keystroke_Key.backspace	Key.backspace	n/a
606.3485	0.0595	1212697	keystroke_t	t	n/a
606.423	0.104	1212846	keystroke_i	i	n/a
606.5875	0.1205	1213175	keystroke_o	o	n/a
606.6925	0.12	1213385	keystroke_n	n	n/a
607.6675	0.105	1215335	keystroke_Key.enter	Key.enter	n/a
607.779	9.7455	1215558	prompt	n/a	she's cycling refresh snowboard\n
608.673	0.12	1217346	keystroke_s	s	n/a
608.793	0.09	1217586	keystroke_h	h	n/a
608.988	0.104	1217976	keystroke_e	e	n/a
609.693	0.105	1219386	keystroke_'	'	n/a
609.828	0.135	1219656	keystroke_s	s	n/a
609.978	0.1195	1219956	keystroke_Key.space	Key.space	n/a
610.173	0.134	1220346	keystroke_c	c	n/a
610.337	0.091	1220674	keystroke_y	y	n/a
610.608	0.105	1221216	keystroke_c	c	n/a
610.697	0.121	1221394	keystroke_l	l	n/a
610.908	0.09	1221816	keystroke_i	i	n/a
611.118	0.09	1222236	keystroke_n	n	n/a
611.298	0.09	1222596	keystroke_g	g	n/a
611.432	0.106	1222864	keystroke_Key.space	Key.space	n/a
612.153	0.165	1224306	keystroke_r	r	n/a
612.273	0.165	1224546	keystroke_e	e	n/a
612.5725	0.09	1225145	keystroke_f	f	n/a
612.8135	0.1345	1225627	keystroke_r	r	n/a
612.9025	0.165	1225805	keystroke_e	e	n/a
613.218	0.1795	1226436	keystroke_s	s	n/a
613.383	0.075	1226766	keystroke_h	h	n/a
613.5775	0.1205	1227155	keystroke_Key.space	Key.space	n/a
613.908	0.1205	1227816	keystroke_s	s	n/a
613.983	0.0895	1227966	keystroke_n	n	n/a
614.208	0.0895	1228416	keystroke_o	o	n/a
614.4925	0.09	1228985	keystroke_w	w	n/a
614.8675	0.0905	1229735	keystroke_b	b	n/a
614.9725	0.1205	1229945	keystroke_o	o	n/a
615.1075	0.1655	1230215	keystroke_a	a	n/a
615.2575	0.091	1230515	keystroke_r	r	n/a
615.483	0.135	1230966	keystroke_d	d	n/a
617.433	0.089	1234866	keystroke_Key.enter	Key.enter	n/a
617.529	11.0205	1235058	prompt	n/a	safari poly covered drama\n
618.213	0.074	1236426	keystroke_s	s	n/a
618.407	0.1655	1236814	keystroke_a	a	n/a
618.6775	0.0905	1237355	keystroke_r	r	n/a
618.842	0.196	1237684	keystroke_a	a	n/a
619.593	0.059	1239186	keystroke_Key.backspace	Key.backspace	n/a
620.042	0.121	1240084	keystroke_\	\	n/a
620.687	0.09	1241374	keystroke_Key.backspace	Key.backspace	n/a
620.9275	0.12	1241855	keystroke_Key.backspace	Key.backspace	n/a
621.257	0.12	1242514	keystroke_f	f	n/a
621.423	0.209	1242846	keystroke_a	a	n/a
621.677	0.136	1243354	keystroke_r	r	n/a
621.8575	0.075	1243715	keystroke_i	i	n/a
622.053	0.15	1244106	keystroke_Key.space	Key.space	n/a
622.3375	0.0905	1244675	keystroke_o	o	n/a
623.1775	0.0755	1246355	keystroke_Key.backspace	Key.backspace	n/a
623.598	0.12	1247196	keystroke_p	p	n/a
623.898	0.105	1247796	keystroke_o	o	n/a
624.543	0.119	1249086	keystroke_l	l	n/a
624.888	0.075	1249776	keystroke_y	y	n/a
625.097	0.1055	1250194	keystroke_Key.space	Key.space	n/a
625.2485	0.209	1250497	keystroke_c	c	n/a
625.3975	0.1055	1250795	keystroke_o	o	n/a
625.623	0.12	1251246	keystroke_v	v	n/a
625.818	0.18	1251636	keystroke_e	e	n/a
625.953	0.21	1251906	keystroke_r	r	n/a
626.133	0.12	1252266	keystroke_e	e	n/a
626.387	0.166	1252774	keystroke_d	d	n/a
626.5375	0.135	1253075	keystroke_Key.space	Key.space	n/a
626.898	0.149	1253796	keystroke_d	d	n/a
627.213	0.135	1254426	keystroke_r	r	n/a
627.393	0.165	1254786	keystroke_a	a	n/a
627.618	0.105	1255236	keystroke_m	m	n/a
627.902	0.136	1255804	keystroke_a	a	n/a
628.412	0.135	1256824	keystroke_Key.enter	Key.enter	n/a
628.556	7.5235	1257112	prompt	n/a	manually section powder incl\n
629.358	0.09	1258716	keystroke_m	m	n/a
629.523	0.1345	1259046	keystroke_a	a	n/a
629.628	0.0745	1259256	keystroke_n	n	n/a
629.8825	0.12	1259765	keystroke_u	u	n/a
630.0475	0.1355	1260095	keystroke_a	a	n/a
630.183	0.0895	1260366	keystroke_l	l	n/a
630.3775	0.0905	1260755	keystroke_l	l	n/a
630.633	0.075	1261266	keystroke_y	y	n/a
630.813	0.104	1261626	keystroke_Key.space	Key.space	n/a
630.948	0.075	1261896	keystroke_s	s	n/a
631.158	0.075	1262316	keystroke_e	e	n/a
631.398	0.1645	1262796	keystroke_c	c	n/a
631.7425	0.0905	1263485	keystroke_t	t	n/a
631.8475	0.105	1263695	keystroke_i	i	n/a
632.0125	0.1645	1264025	keystroke_o	o	n/a
632.192	0.226	1264384	keystroke_n	n	n/a
632.358	0.164	1264716	keystroke_Key.space	Key.space	n/a
632.6425	0.1655	1265285	keystroke_p	p	n/a
632.778	0.195	1265556	keystroke_o	o	n/a
633.0025	0.165	1266005	keystroke_w	w	n/a
633.348	0.12	1266696	keystroke_d	d	n/a
633.7675	0.06	1267535	keystroke_r	r	n/a
