onset	duration	sample	value	key	prompt_text
1.784	11.1275	3568	prompt	n/a	the quick brown fox jumps over a lazy dog\n
4.251	0.028	8502	keystroke	t	n/a
4.309	0.1195	8618	keystroke	h	n/a
4.4135	0.105	8827	keystroke	e	n/a
4.5935	0.0895	9187	keystroke	Key.space	n/a
5.701	0.105	11402	keystroke	q	n/a
5.9405	0.1705	11881	keystroke	u	n/a
6.0455	0.1405	12091	keystroke	i	n/a
6.216	0.09	12432	keystroke	c	n/a
6.366	0.1345	12732	keystroke	k	n/a
6.5455	0.203	13091	keystroke	Key.space	n/a
6.7335	0.12	13467	keystroke	b	n/a
6.8835	0.1045	13767	keystroke	r	n/a
7.018	0.1345	14036	keystroke	o	n/a
7.123	0.1195	14246	keystroke	w	n/a
7.2575	0.105	14515	keystroke	n	n/a
7.467	0.1355	14934	keystroke	Key.space	n/a
7.6475	0.105	15295	keystroke	f	n/a
7.7675	0.1345	15535	keystroke	o	n/a
7.917	0.105	15834	keystroke	x	n/a
8.037	0.1645	16074	keystroke	Key.space	n/a
8.651	0.0895	17302	keystroke	j	n/a
8.9055	0.1665	17811	keystroke	u	n/a
9.042	0.165	18084	keystroke	m	n/a
9.177	0.1195	18354	keystroke	p	n/a
9.252	0.1045	18504	keystroke	s	n/a
9.4765	0.135	18953	keystroke	Key.space	n/a
9.5965	0.1045	19193	keystroke	o	n/a
9.671	0.135	19342	keystroke	v	n/a
9.866	0.135	19732	keystroke	e	n/a
9.9705	0.0905	19941	keystroke	r	n/a
10.1355	0.12	20271	keystroke	Key.space	n/a
10.2855	0.1345	20571	keystroke	a	n/a
10.405	0.12	20810	keystroke	Key.space	n/a
10.585	0.12	21170	keystroke	l	n/a
10.69	0.1645	21380	keystroke	a	n/a
10.8245	0.121	21649	keystroke	z	n/a
10.9295	0.1055	21859	keystroke	y	n/a
11.02	0.12	22040	keystroke	Key.space	n/a
11.17	0.105	22340	keystroke	d	n/a
11.26	0.0895	22520	keystroke	o	n/a
11.4095	0.061	22819	keystroke	g	n/a
12.8495	0.0605	25699	keystroke	Key.enter	n/a
12.917	6.174	25834	prompt	n/a	counties destroyed brother headline\n
13.99	0.12	27980	keystroke	c	n/a
14.125	0.1345	28250	keystroke	o	n/a
14.2445	0.1355	28489	keystroke	u	n/a
14.3195	0.1355	28639	keystroke	n	n/a
14.41	0.12	28820	keystroke	t	n/a
14.545	0.1195	29090	keystroke	i	n/a
14.6045	0.09	29209	keystroke	e	n/a
14.8145	0.0905	29629	keystroke	s	n/a
14.875	0.135	29750	keystroke	Key.space	n/a
15.055	0.1345	30110	keystroke	d	n/a
15.2045	0.1055	30409	keystroke	e	n/a
15.4445	0.12	30889	keystroke	s	n/a
15.5795	0.0745	31159	keystroke	t	n/a
15.759	0.121	31518	keystroke	r	n/a
15.895	0.1345	31790	keystroke	o	n/a
15.9695	0.12	31939	keystroke	y	n/a
16.0595	0.105	32119	keystroke	e	n/a
16.1345	0.1045	32269	keystroke	d	n/a
16.224	0.121	32448	keystroke	Key.space	n/a
16.8395	0.09	33679	keystroke	b	n/a
17.199	0.0755	34398	keystroke	r	n/a
17.3495	0.1345	34699	keystroke	o	n/a
17.514	0.12	35028	keystroke	t	n/a
17.664	0.121	35328	keystroke	h	n/a
17.7995	0.15	35599	keystroke	e	n/a
17.9195	0.105	35839	keystroke	r	n/a
18.0245	0.1345	36049	keystroke	Key.space	n/a
18.129	0.135	36258	keystroke	h	n/a
18.219	0.211	36438	keystroke	e	n/a
18.295	0.1495	36590	keystroke	a	n/a
18.43	0.0595	36860	keystroke	d	n/a
18.43	0.1645	36860	keystroke	l	n/a
18.4895	0.15	36979	keystroke	i	n/a
18.5945	0.12	37189	keystroke	n	n/a
18.6845	0.075	37369	keystroke	e	n/a
18.9545	0.1345	37909	keystroke	Key.enter	n/a
19.0965	9.4285	38193	prompt	n/a	commented release arbor supplied\n
19.659	0.1205	39318	keystroke	c	n/a
19.7495	0.12	39499	keystroke	o	n/a
19.8395	0.105	39679	keystroke	m	n/a
20.0045	0.1045	40009	keystroke	m	n/a
20.094	0.105	40188	keystroke	e	n/a
20.184	0.12	40368	keystroke	n	n/a
20.2445	0.1345	40489	keystroke	d	n/a
20.394	0.09	40788	keystroke	e	n/a
20.484	0.12	40968	keystroke	t	n/a
20.934	0.0895	41868	keystroke	=	n/a
21.1135	0.0905	42227	keystroke	=	n/a
22.0135	0.075	44027	keystroke	Key.backspace	n/a
22.1945	0.06	44389	keystroke	Key.backspace	n/a
22.3595	0.0595	44719	keystroke	Key.backspace	n/a
22.524	0.06	45048	keystroke	Key.backspace	n/a
22.674	0.09	45348	keystroke	Key.backspace	n/a
23.4685	0.1345	46937	keystroke	t	n/a
23.619	0.165	47238	keystroke	e	n/a
23.769	0.1195	47538	keystroke	d	n/a
23.9035	0.09	47807	keystroke	Key.space	n/a
24.0685	0.105	48137	keystroke	r	n/a
24.1585	0.09	48317	keystroke	e	n/a
24.2635	0.12	48527	keystroke	l	n/a
24.3535	0.12	48707	keystroke	e	n/a
24.4435	0.18	48887	keystroke	a	n/a
24.5935	0.075	49187	keystroke	s	n/a
24.7435	0.105	49487	keystroke	e	n/a
24.8935	0.1195	49787	keystroke	Key.space	n/a
25.043	0.1355	50086	keystroke	a	n/a
25.1635	0.105	50327	keystroke	r	n/a
25.2535	0.12	50507	keystroke	b	n/a
25.3585	0.105	50717	keystroke	o	n/a
25.4185	0.105	50837	keystroke	r	n/a
25.5685	0.105	51137	keystroke	Key.space	n/a
25.6885	0.105	51377	keystroke	s	n/a
25.8385	0.1195	51677	keystroke	u	n/a
25.928	0.075	51856	keystroke	p	n/a
26.079	0.0895	52158	keystroke	p	n/a
26.2885	0.135	52577	keystroke	l	n/a
26.3635	0.12	52727	keystroke	i	n/a
26.4385	0.12	52877	keystroke	e	n/a
26.514	0.1045	53028	keystroke	d	n/a
28.448	0.0755	56896	keystroke	Key.enter	n/a
28.53	7.1045	57060	prompt	n/a	geneva harry tender receptor\n
29.828	0.09	59656	keystroke	g	n/a
29.9785	0.1045	59957	keystroke	e	n/a
30.098	0.12	60196	keystroke	n	n/a
30.203	0.105	60406	keystroke	e	n/a
30.293	0.1355	60586	keystroke	v	n/a
30.4435	0.105	60887	keystroke	a	n/a
30.683	0.12	61366	keystroke	Key.space	n/a
30.923	0.135	61846	keystroke	h	n/a
31.103	0.135	62206	keystroke	a	n/a
31.253	0.06	62506	keystroke	r	n/a
31.4025	0.0905	62805	keystroke	r	n/a
31.643	0.105	63286	keystroke	y	n/a
31.748	0.1195	63496	keystroke	Key.space	n/a
32.198	0.105	64396	keystroke	t	n/a
32.258	0.15	64516	keystroke	e	n/a
32.378	0.12	64756	keystroke	n	n/a
32.483	0.135	64966	keystroke	d	n/a
32.588	0.15	65176	keystroke	e	n/a
32.693	0.105	65386	keystroke	r	n/a
32.768	0.1205	65536	keystroke	Key.space	n/a
33.218	0.12	66436	keystroke	r	n/a
33.323	0.105	66646	keystroke	e	n/a
33.533	0.09	67066	keystroke	c	n/a
33.593	0.12	67186	keystroke	e	n/a
33.893	0.12	67786	keystroke	p	n/a
34.028	0.075	68056	keystroke	t	n/a
34.1625	0.135	68325	keystroke	o	n/a
34.2675	0.0905	68535	keystroke	r	n/a
35.573	0.06	71146	keystroke	Key.enter	n/a
35.64	6.519	71280	prompt	n/a	ellen harmful attachment milk\n
36.683	0.105	73366	keystroke	e	n/a
36.8635	0.06	73727	keystroke	l	n/a
37.0285	0.0895	74057	keystroke	l	n/a
37.088	0.105	74176	keystroke	e	n/a
37.268	0.105	74536	keystroke	n	n/a
37.613	0.03	75226	keystroke	Key.space	n/a
37.628	0.105	75256	keystroke	h	n/a
37.703	0.12	75406	keystroke	a	n/a
37.808	0.105	75616	keystroke	r	n/a
37.913	0.075	75826	keystroke	m	n/a
38.168	0.1045	76336	keystroke	f	n/a
38.258	0.15	76516	keystroke	u	n/a
38.378	0.1495	76756	keystroke	l	n/a
38.4975	0.12	76995	keystroke	Key.space	n/a
38.6325	0.1655	77265	keystroke	a	n/a
38.7675	0.1355	77535	keystroke	t	n/a
39.023	0.09	78046	keystroke	t	n/a
39.1875	0.12	78375	keystroke	a	n/a
39.368	0.12	78736	keystroke	c	n/a
39.548	0.1195	79096	keystroke	h	n/a
39.7425	0.1355	79485	keystroke	m	n/a
39.893	0.1045	79786	keystroke	e	n/a
39.968	0.1045	79936	keystroke	n	n/a
40.0875	0.075	80175	keystroke	t	n/a
40.1775	0.12	80355	keystroke	Key.space	n/a
40.538	0.1195	81076	keystroke	m	n/a
40.6425	0.15	81285	keystroke	i	n/a
40.7625	0.1655	81525	keystroke	l	n/a
40.898	0.1345	81796	keystroke	k	n/a
42.0535	0.1045	84107	keystroke	Key.enter	n/a
42.164	6.626	84328	prompt	n/a	workshops moss incentives drugs\n
43.2835	0.105	86567	keystroke	w	n/a
43.523	0.075	87046	keystroke	o	n/a
43.658	0.1355	87316	keystroke	r	n/a
43.8085	0.1345	87617	keystroke	k	n/a
44.033	0.09	88066	keystroke	s	n/a
44.123	0.1055	88246	keystroke	h	n/a
44.378	0.21	88756	keystroke	o	n/a
44.513	0.135	89026	keystroke	p	n/a
44.603	0.09	89206	keystroke	s	n/a
44.753	0.135	89506	keystroke	Key.space	n/a
44.978	0.135	89956	keystroke	m	n/a
45.053	0.165	90106	keystroke	o	n/a
45.158	0.105	90316	keystroke	s	n/a
45.353	0.075	90706	keystroke	s	n/a
45.413	0.135	90826	keystroke	Key.space	n/a
45.653	0.12	91306	keystroke	i	n/a
45.743	0.105	91486	keystroke	n	n/a
45.818	0.165	91636	keystroke	c	n/a
45.968	0.12	91936	keystroke	e	n/a
46.073	0.12	92146	keystroke	n	n/a
46.208	0.09	92416	keystroke	t	n/a
46.313	0.105	92626	keystroke	i	n/a
46.463	0.09	92926	keystroke	v	n/a
46.838	0.09	93676	keystroke	e	n/a
47.048	0.09	94096	keystroke	s	n/a
47.108	0.135	94216	keystroke	Key.space	n/a
47.258	0.12	94516	keystroke	d	n/a
47.453	0.105	94906	keystroke	r	n/a
47.543	0.0905	95086	keystroke	u	n/a
47.6935	0.0745	95387	keystroke	g	n/a
47.843	0.09	95686	keystroke	s	n/a
48.668	0.12	97336	keystroke	Key.enter	n/a
48.7985	7.55	97597	prompt	n/a	census industry computation phrase\n
49.523	0.12	99046	keystroke	c	n/a
50.078	0.06	100156	keystroke	e	n/a
50.303	0.135	100606	keystroke	n	n/a
50.4675	0.1055	100935	keystroke	s	n/a
50.543	0.12	101086	keystroke	u	n/a
50.663	0.105	101326	keystroke	s	n/a
50.783	0.1195	101566	keystroke	Key.space	n/a
51.023	0.135	102046	keystroke	i	n/a
51.128	0.1195	102256	keystroke	n	n/a
51.2625	0.12	102525	keystroke	d	n/a
51.3975	0.1055	102795	keystroke	u	n/a
51.4575	0.165	102915	keystroke	s	n/a
51.6075	0.09	103215	keystroke	t	n/a
51.7875	0.105	103575	keystroke	r	n/a
51.9075	0.1055	103815	keystroke	y	n/a
52.028	0.12	104056	keystroke	Key.space	n/a
52.553	0.12	105106	keystroke	c	n/a
53.378	0.165	106756	keystroke	o	n/a
53.498	0.135	106996	keystroke	m	n/a
53.618	0.15	107236	keystroke	p	n/a
53.753	0.12	107506	keystroke	u	n/a
53.888	0.105	107776	keystroke	t	n/a
54.023	0.12	108046	keystroke	a	n/a
54.113	0.09	108226	keystroke	t	n/a
54.173	0.15	108346	keystroke	i	n/a
54.218	0.12	108436	keystroke	o	n/a
54.308	0.105	108616	keystroke	n	n/a
54.503	0.135	109006	keystroke	Key.space	n/a
54.788	0.105	109576	keystroke	p	n/a
54.983	0.12	109966	keystroke	h	n/a
55.088	0.12	110176	keystroke	r	n/a
55.193	0.1495	110386	keystroke	a	n/a
55.3125	0.09	110625	keystroke	s	n/a
55.5075	0.09	111015	keystroke	e	n/a
56.2425	0.105	112485	keystroke	Key.enter	n/a
56.3555	10.2085	112711	prompt	n/a	clean series types milwaukee\n
57.548	0.09	115096	keystroke	c	n/a
57.653	0.12	115306	keystroke	l	n/a
57.8325	0.1355	115665	keystroke	e	n/a
57.893	0.15	115786	keystroke	a	n/a
57.983	0.105	115966	keystroke	n	n/a
58.178	0.12	116356	keystroke	Key.space	n/a
58.283	0.15	116566	keystroke	s	n/a
58.508	0.12	117016	keystroke	e	n/a
58.598	0.12	117196	keystroke	r	n/a
58.673	0.1195	117346	keystroke	i	n/a
58.7625	0.0905	117525	keystroke	e	n/a
58.943	0.1045	117886	keystroke	s	n/a
58.988	0.1045	117976	keystroke	Key.space	n/a
59.1825	0.09	118365	keystroke	t	n/a
59.4375	0.105	118875	keystroke	y	n/a
59.7525	0.12	119505	keystroke	p	n/a
59.8425	0.0905	119685	keystroke	e	n/a
60.0525	0.075	120105	keystroke	s	n/a
60.1275	0.105	120255	keystroke	Key.space	n/a
60.413	0.135	120826	keystroke	m	n/a
60.533	0.1645	121066	keystroke	i	n/a
60.6375	0.12	121275	keystroke	l	n/a
60.878	0.12	121756	keystroke	q	n/a
61.223	0.12	122446	keystroke	a	n/a
61.583	0.09	123166	keystroke	=	n/a
62.468	0.105	124936	keystroke	Key.backspace	n/a
62.6775	0.075	125355	keystroke	Key.backspace	n/a
62.8725	0.0595	125745	keystroke	Key.backspace	n/a
64.177	0.105	128354	keystroke	w	n/a
64.402	0.12	128804	keystroke	a	n/a
64.807	0.106	129614	keystroke	u	n/a
64.987	0.12	129974	keystroke	k	n/a
65.227	0.1205	130454	keystroke	e	n/a
65.4375	0.1045	130875	keystroke	e	n/a
66.4275	0.135	132855	keystroke	Key.enter	n/a
66.57	7.524	133140	prompt	n/a	budget equation testimonials what's\n
67.688	0.149	135376	keystroke	b	n/a
68.108	0.089	136216	keystroke	u	n/a
68.212	0.135	136424	keystroke	d	n/a
68.527	0.09	137054	keystroke	g	n/a
68.647	0.1505	137294	keystroke	e	n/a
68.752	0.0905	137504	keystroke	t	n/a
68.8275	0.12	137655	keystroke	Key.space	n/a
69.0525	0.0895	138105	keystroke	e	n/a
69.322	0.105	138644	keystroke	q	n/a
69.562	0.12	139124	keystroke	u	n/a
69.712	0.12	139424	keystroke	a	n/a
69.847	0.09	139694	keystroke	t	n/a
69.907	0.195	139814	keystroke	i	n/a
70.012	0.105	140024	keystroke	o	n/a
70.087	0.12	140174	keystroke	n	n/a
70.2975	0.105	140595	keystroke	Key.space	n/a
70.5375	0.121	141075	keystroke	t	n/a
70.7025	0.12	141405	keystroke	e	n/a
70.9275	0.105	141855	keystroke	s	n/a
71.0475	0.09	142095	keystroke	t	n/a
71.1525	0.18	142305	keystroke	i	n/a
71.3025	0.12	142605	keystroke	m	n/a
71.4675	0.135	142935	keystroke	o	n/a
71.5725	0.135	143145	keystroke	n	n/a
71.6925	0.12	143385	keystroke	i	n/a
71.8725	0.121	143745	keystroke	a	n/a
72.0075	0.075	144015	keystroke	l	n/a
72.1275	0.09	144255	keystroke	s	n/a
72.3075	0.105	144615	keystroke	Key.space	n/a
72.4425	0.151	144885	keystroke	w	n/a
72.8025	0.12	145605	keystroke	h	n/a
72.9085	0.105	145817	keystroke	a	n/a
73.0135	0.089	146027	keystroke	t	n/a
73.7475	0.09	147495	keystroke	'	n/a
73.8975	0.09	147795	keystroke	s	n/a
74.0025	0.09	148005	keystroke	Key.enter	n/a
74.0985	7.4205	148197	prompt	n/a	lucky provinces interests precise\n
75.2485	0.149	150497	keystroke	l	n/a
75.5635	0.104	151127	keystroke	u	n/a
75.7125	0.121	151425	keystroke	c	n/a
75.8025	0.09	151605	keystroke	k	n/a
75.9685	0.12	151937	keystroke	y	n/a
76.0575	0.135	152115	keystroke	Key.space	n/a
76.552	0.106	153104	keystroke	p	n/a
76.672	0.105	153344	keystroke	r	n/a
76.837	0.106	153674	keystroke	o	n/a
77.108	0.104	154216	keystroke	v	n/a
77.302	0.106	154604	keystroke	i	n/a
77.392	0.135	154784	keystroke	n	n/a
77.512	0.136	155024	keystroke	c	n/a
77.692	0.076	155384	keystroke	e	n/a
77.887	0.09	155774	keystroke	s	n/a
78.022	0.12	156044	keystroke	Key.space	n/a
78.3535	0.15	156707	keystroke	i	n/a
78.4725	0.136	156945	keystroke	n	n/a
78.5775	0.106	157155	keystroke	t	n/a
78.6975	0.136	157395	keystroke	e	n/a
78.8175	0.1205	157635	keystroke	r	n/a
78.923	0.09	157846	keystroke	e	n/a
79.1335	0.105	158267	keystroke	s	n/a
79.2235	0.075	158447	keystroke	t	n/a
79.3285	0.09	158657	keystroke	s	n/a
79.477	0.135	158954	keystroke	Key.space	n/a
79.9435	0.134	159887	keystroke	p	n/a
80.1385	0.0895	160277	keystroke	r	n/a
80.1685	0.1345	160337	keystroke	e	n/a
80.467	0.091	160934	keystroke	c	n/a
80.8735	0.075	161747	keystroke	i	n/a
81.0675	0.091	162135	keystroke	s	n/a
81.2785	0.075	162557	keystroke	e	n/a
81.3975	0.12	162795	keystroke	Key.enter	n/a
81.524	11.9205	163048	prompt	n/a	keith identified virtually verde\n
83.303	0.09	166606	keystroke	k	n/a
83.483	0.12	166966	keystroke	e	n/a
83.618	0.075	167236	keystroke	i	n/a
83.738	0.1055	167476	keystroke	t	n/a
83.8585	0.12	167717	keystroke	h	n/a
83.933	0.12	167866	keystroke	Key.space	n/a
84.2635	0.12	168527	keystroke	i	n/a
84.7585	0.09	169517	keystroke	d	n/a
84.9985	0.105	169997	keystroke	e	n/a
85.1635	0.12	170327	keystroke	n	n/a
85.3735	0.105	170747	keystroke	t	n/a
85.5085	0.09	171017	keystroke	i	n/a
85.6135	0.12	171227	keystroke	f	n/a
85.6885	0.105	171377	keystroke	i	n/a
85.7935	0.12	171587	keystroke	e	n/a
85.8835	0.105	171767	keystroke	d	n/a
85.9735	0.105	171947	keystroke	Key.space	n/a
86.3035	0.015	172607	keystroke	v	n/a
86.9035	0.09	173807	keystroke	i	n/a
87.0535	0.105	174107	keystroke	r	n/a
87.2935	0.06	174587	keystroke	t	n/a
87.3085	0.045	174617	keystroke	r	n/a
87.3685	0.12	174737	keystroke	u	n/a
88.088	0.105	176176	keystroke	=	n/a
88.448	0.045	176896	keystroke	=	n/a
89.2285	0.09	178457	keystroke	Key.backspace	n/a
89.4385	0.045	178877	keystroke	Key.backspace	n/a
89.5885	0.09	179177	keystroke	Key.backspace	n/a
89.8585	0.075	179717	keystroke	Key.backspace	n/a
90.6385	0.135	181277	keystroke	u	n/a
90.8635	0.09	181727	keystroke	a	n/a
90.9085	0.075	181817	keystroke	l	n/a
91.0585	0.105	182117	keystroke	l	n/a
91.1035	0.12	182207	keystroke	y	n/a
91.1935	0.12	182387	keystroke	Key.space	n/a
91.3285	0.12	182657	keystroke	v	n/a
91.5535	0.12	183107	keystroke	e	n/a
91.6585	0.12	183317	keystroke	r	n/a
92.108	0.12	184216	keystroke	d	n/a
92.198	0.0905	184396	keystroke	e	n/a
93.3385	0.105	186677	keystroke	Key.enter	n/a
93.4505	8.679	186901	prompt	n/a	keyword vaccine stationery successful\n
94.5085	0.105	189017	keystroke	k	n/a
94.7485	0.09	189497	keystroke	e	n/a
94.9135	0.105	189827	keystroke	y	n/a
95.1535	0.09	190307	keystroke	w	n/a
95.2585	0.12	190517	keystroke	o	n/a
95.4235	0.105	190847	keystroke	r	n/a
95.6335	0.105	191267	keystroke	d	n/a
95.7235	0.15	191447	keystroke	Key.space	n/a
96.0235	0.105	192047	keystroke	v	n/a
96.1735	0.12	192347	keystroke	a	n/a
96.2785	0.105	192557	keystroke	c	n/a
96.4435	0.12	192887	keystroke	c	n/a
96.5185	0.15	193037	keystroke	i	n/a
96.6385	0.12	193277	keystroke	n	n/a
96.7735	0.12	193547	keystroke	e	n/a
96.9235	0.12	193847	keystroke	Key.space	n/a
97.2985	0.15	194597	keystroke	s	n/a
97.4785	0.09	194957	keystroke	t	n/a
97.6435	0.12	195287	keystroke	a	n/a
97.7785	0.105	195557	keystroke	t	n/a
97.8535	0.195	195707	keystroke	i	n/a
97.9285	0.165	195857	keystroke	o	n/a
98.018	0.1205	196036	keystroke	n	n/a
98.1085	0.105	196217	keystroke	a	n/a
98.1835	0.09	196367	keystroke	t	n/a
98.6185	0.09	197237	keystroke	Key.backspace	n/a
98.8435	0.075	197687	keystroke	r	n/a
99.0835	0.135	198167	keystroke	y	n/a
99.2485	0.105	198497	keystroke	Key.space	n/a
99.4585	0.135	198917	keystroke	s	n/a
99.5785	0.12	199157	keystroke	u	n/a
99.7135	0.09	199427	keystroke	c	n/a
99.8485	0.165	199697	keystroke	c	n/a
99.9985	0.105	199997	keystroke	e	n/a
100.2235	0.09	200447	keystroke	s	n/a
100.3435	0.105	200687	keystroke	f	n/a
100.7635	0.09	201527	keystroke	Key.backspace	n/a
101.0485	0.105	202097	keystroke	s	n/a
101.1985	0.06	202397	keystroke	f	n/a
101.3185	0.18	202637	keystroke	u	n/a
101.4685	0.15	202937	keystroke	l	n/a
102.0835	0.045	204167	keystroke	Key.enter	n/a
102.1365	9.518	204273	prompt	n/a	numbers insights featured roster\n
103.5835	0.15	207167	keystroke	n	n/a
103.7185	0.15	207437	keystroke	u	n/a
103.8385	0.135	207677	keystroke	m	n/a
104.0485	0.15	208097	keystroke	b	n/a
104.0785	0.06	208157	keystroke	h	n/a
104.1085	0.15	208217	keystroke	e	n/a
104.2135	0.105	208427	keystroke	r	n/a
104.4085	0.09	208817	keystroke	s	n/a
105.3985	0.06	210797	keystroke	Key.backspace	n/a
105.5785	0.06	211157	keystroke	Key.backspace	n/a
105.7435	0.06	211487	keystroke	Key.backspace	n/a
105.9085	0.075	211817	keystroke	Key.backspace	n/a
106.3885	0.135	212777	keystroke	e	n/a
106.5085	0.075	213017	keystroke	r	n/a
106.6585	0.09	213317	keystroke	s	n/a
106.9885	0.135	213977	keystroke	Key.space	n/a
108.2335	0.075	216467	keystroke	i	n/a
108.2935	0.105	216587	keystroke	n	n/a
108.4585	0.105	216917	keystroke	s	n/a
108.5485	0.09	217097	keystroke	i	n/a
108.8035	0.135	217607	keystroke	g	n/a
108.8785	0.105	217757	keystroke	h	n/a
108.9535	0.105	217907	keystroke	t	n/a
109.1185	0.105	218237	keystroke	s	n/a
109.2385	0.105	218477	keystroke	Key.space	n/a
109.5085	0.09	219017	keystroke	f	n/a
109.5535	0.195	219107	keystroke	e	n/a
109.6735	0.135	219347	keystroke	a	n/a
109.7935	0.09	219587	keystroke	t	n/a
109.8835	0.12	219767	keystroke	u	n/a
109.9735	0.105	219947	keystroke	r	n/a
110.0635	0.135	220127	keystroke	e	n/a
110.1835	0.12	220367	keystroke	d	n/a
110.2585	0.12	220517	keystroke	Key.space	n/a
110.4085	0.12	220817	keystroke	r	n/a
110.4985	0.135	220997	keystroke	o	n/a
110.6035	0.12	221207	keystroke	s	n/a
110.7085	0.105	221417	keystroke	t	n/a
110.8435	0.09	221687	keystroke	e	n/a
110.9035	0.105	221807	keystroke	r	n/a
111.5635	0.0895	223127	keystroke	Key.enter	n/a
111.6595	6.31	223319	prompt	n/a	wayne cove cage springer\n
112.2985	0.12	224597	keystroke	w	n/a
112.4035	0.12	224807	keystroke	a	n/a
113.0035	0.105	226007	keystroke	y	n/a
113.0485	0.135	226097	keystroke	n	n/a
113.1685	0.09	226337	keystroke	e	n/a
113.4235	0.15	226847	keystroke	Key.space	n/a
113.6485	0.12	227297	keystroke	c	n/a
113.7535	0.12	227507	keystroke	o	n/a
113.9035	0.12	227807	keystroke	v	n/a
114.0085	0.09	228017	keystroke	e	n/a
114.1135	0.105	228227	keystroke	Key.space	n/a
114.2335	0.135	228467	keystroke	c	n/a
114.3235	0.135	228647	keystroke	a	n/a
114.5185	0.09	229037	keystroke	g	n/a
114.5635	0.105	229127	keystroke	e	n/a
114.6535	0.135	229307	keystroke	Key.space	n/a
114.9235	0.09	229847	keystroke	c	n/a
114.9835	0.09	229967	keystroke	p	n/a
115.4785	0.09	230957	keystroke	Key.backspace	n/a
115.7035	0.105	231407	keystroke	Key.backspace	n/a
116.0035	0.075	232007	keystroke	s	n/a
116.1835	0.105	232367	keystroke	p	n/a
116.3185	0.105	232637	keystroke	r	n/a
116.3935	0.12	232787	keystroke	i	n/a
116.4835	0.105	232967	keystroke	n	n/a
116.5735	0.09	233147	keystroke	g	n/a
116.6785	0.15	233357	keystroke	e	n/a
116.8135	0.075	233627	keystroke	r	n/a
117.8785	0.09	235757	keystroke	Key.enter	n/a
117.975	8.155	235950	prompt	n/a	bronze walk performance curve\n
119.0935	0.105	238187	keystroke	b	n/a
119.3185	0.135	238637	keystroke	r	n/a
119.4685	0.15	238937	keystroke	o	n/a
119.6185	0.105	239237	keystroke	n	n/a
119.7535	0.105	239507	keystroke	z	n/a
120.0535	0.09	240107	keystroke	e	n/a
120.1285	0.165	240257	keystroke	Key.space	n/a
120.3835	0.09	240767	keystroke	w	n/a
120.4285	0.135	240857	keystroke	a	n/a
120.5035	0.165	241007	keystroke	l	n/a
120.6085	0.12	241217	keystroke	k	n/a
120.6985	0.12	241397	keystroke	Key.space	n/a
120.9535	0.075	241907	keystroke	o	n/a
121.0435	0.09	242087	keystroke	e	n/a
121.9585	0.075	243917	keystroke	Key.backspace	n/a
122.1235	0.09	244247	keystroke	Key.backspace	n/a
122.9635	0.105	245927	keystroke	p	n/a
123.1735	0.15	246347	keystroke	e	n/a
123.2935	0.105	246587	keystroke	r	n/a
123.6835	0.105	247367	keystroke	f	n/a
124.1035	0.12	248207	keystroke	o	n/a
124.2385	0.12	248477	keystroke	r	n/a
124.4185	0.12	248837	keystroke	m	n/a
124.5535	0.135	249107	keystroke	a	n/a
124.6735	0.105	249347	keystroke	n	n/a
124.7935	0.135	249587	keystroke	c	n/a
124.8685	0.135	249737	keystroke	e	n/a
124.9735	0.105	249947	keystroke	Key.space	n/a
125.1085	0.135	250217	keystroke	c	n/a
125.2135	0.105	250427	keystroke	u	n/a
125.3485	0.105	250697	keystroke	r	n/a
125.6185	0.09	251237	keystroke	v	n/a
125.6635	0.09	251327	keystroke	e	n/a
126.0385	0.09	252077	keystroke	Key.enter	n/a
126.136	6.2335	252272	prompt	n/a	wrist declined magical matthew\n
126.8635	0.09	253727	keystroke	w	n/a
127.0585	0.09	254117	keystroke	r	n/a
127.8385	0.075	255677	keystroke	i	n/a
127.9585	0.15	255917	keystroke	s	n/a
128.0785	0.06	256157	keystroke	t	n/a
128.1685	0.105	256337	keystroke	Key.space	n/a
128.4235	0.12	256847	keystroke	d	n/a
128.5885	0.105	257177	keystroke	e	n/a
128.7985	0.12	257597	keystroke	c	n/a
128.9485	0.135	257897	keystroke	l	n/a
129.0685	0.15	258137	keystroke	i	n/a
129.1885	0.1045	258377	keystroke	n	n/a
129.278	0.075	258556	keystroke	e	n/a
129.308	0.1055	258616	keystroke	d	n/a
129.4435	0.105	258887	keystroke	Key.space	n/a
129.923	0.105	259846	keystroke	m	n/a
129.998	0.075	259996	keystroke	a	n/a
130.118	0.105	260236	keystroke	g	n/a
130.268	0.1355	260536	keystroke	i	n/a
130.358	0.1355	260716	keystroke	c	n/a
130.4785	0.105	260957	keystroke	a	n/a
130.5085	0.1345	261017	keystroke	l	n/a
130.643	0.09	261286	keystroke	Key.space	n/a
130.883	0.09	261766	keystroke	m	n/a
130.958	0.105	261916	keystroke	a	n/a
131.078	0.06	262156	keystroke	t	n/a
131.228	0.09	262456	keystroke	t	n/a
131.303	0.105	262606	keystroke	h	n/a
131.438	0.12	262876	keystroke	e	n/a
131.543	0.0905	263086	keystroke	w	n/a
132.2635	0.105	264527	keystroke	Key.enter	n/a
132.3755	8.9645	264751	prompt	n/a	score ranch packages simpson\n
133.1785	0.105	266357	keystroke	s	n/a
133.3735	0.12	266747	keystroke	c	n/a
133.8985	0.09	267797	keystroke	o	n/a
133.9735	0.105	267947	keystroke	r	n/a
134.0485	0.12	268097	keystroke	e	n/a
134.1835	0.09	268367	keystroke	Key.space	n/a
134.3635	0.12	268727	keystroke	r	n/a
134.4685	0.12	268937	keystroke	a	n/a
134.5735	0.09	269147	keystroke	n	n/a
134.7085	0.135	269417	keystroke	c	n/a
134.9185	0.105	269837	keystroke	h	n/a
135.0085	0.09	270017	keystroke	e	n/a
135.6235	0.105	271247	keystroke	=	n/a
136.2385	0.105	272477	keystroke	Key.backspace	n/a
136.4485	0.075	272897	keystroke	Key.backspace	n/a
137.1235	0.15	274247	keystroke	Key.space	n/a
137.7235	0.09	275447	keystroke	p	n/a
137.8435	0.12	275687	keystroke	a	n/a
137.9185	0.135	275837	keystroke	c	n/a
138.0085	0.12	276017	keystroke	k	n/a
138.1435	0.075	276287	keystroke	a	n/a
138.2785	0.105	276557	keystroke	g	n/a
138.3685	0.09	276737	keystroke	e	n/a
138.5635	0.075	277127	keystroke	s	n/a
138.6535	0.105	277307	keystroke	Key.space	n/a
139.0885	0.09	278177	keystroke	s	n/a
139.2835	0.1195	278567	keystroke	i	n/a
139.6285	0.12	279257	keystroke	m	n/a
139.7935	0.1195	279587	keystroke	p	n/a
139.898	0.105	279796	keystroke	s	n/a
140.018	0.1205	280036	keystroke	o	n/a
140.0935	0.12	280187	keystroke	n	n/a
141.2635	0.075	282527	keystroke	Key.enter	n/a
141.3455	5.6945	282691	prompt	n/a	vocal montana weekends role\n
142.7035	0.09	285407	keystroke	v	n/a
142.8685	0.09	285737	keystroke	o	n/a
143.0035	0.15	286007	keystroke	c	n/a
143.1535	0.105	286307	keystroke	a	n/a
143.2135	0.135	286427	keystroke	l	n/a
143.3485	0.12	286697	keystroke	Key.space	n/a
143.6335	0.135	287267	keystroke	m	n/a
143.9035	0.105	287807	keystroke	o	n/a
143.9935	0.12	287987	keystroke	n	n/a
144.2635	0.105	288527	keystroke	t	n/a
144.4435	0.105	288887	keystroke	a	n/a
144.5185	0.105	289037	keystroke	n	n/a
144.6535	0.105	289307	keystroke	a	n/a
144.8035	0.135	289607	keystroke	Key.space	n/a
145.0285	0.12	290057	keystroke	w	n/a
145.2685	0.09	290537	keystroke	e	n/a
145.4185	0.12	290837	keystroke	e	n/a
145.5535	0.075	291107	keystroke	k	n/a
145.7635	0.06	291527	keystroke	e	n/a
145.8535	0.09	291707	keystroke	n	n/a
146.0035	0.09	292007	keystroke	d	n/a
146.0635	0.12	292127	keystroke	s	n/a
146.1535	0.105	292307	keystroke	Key.space	n/a
146.3185	0.09	292637	keystroke	r	n/a
146.3635	0.075	292727	keystroke	o	n/a
146.5585	0.09	293117	keystroke	l	n/a
146.5885	0.09	293177	keystroke	e	n/a
146.9035	0.135	293807	keystroke	Key.enter	n/a
147.0485	9.3965	294097	prompt	n/a	he'd preparation contacts automotive\n
148.314	0.075	296628	keystroke	h	n/a
148.554	0.135	297108	keystroke	e	n/a
149.094	0.03	298188	keystroke	'	n/a
149.214	0.105	298428	keystroke	d	n/a
149.484	0.105	298968	keystroke	Key.space	n/a
150.189	0.1045	300378	keystroke	p	n/a
150.384	0.075	300768	keystroke	r	n/a
150.429	0.135	300858	keystroke	e	n/a
150.594	0.135	301188	keystroke	p	n/a
150.684	0.1345	301368	keystroke	a	n/a
150.7885	0.1505	301577	keystroke	r	n/a
150.924	0.105	301848	keystroke	a	n/a
151.014	0.105	302028	keystroke	t	n/a
151.074	0.195	302148	keystroke	i	n/a
151.164	0.135	302328	keystroke	o	n/a
151.239	0.105	302478	keystroke	n	n/a
151.434	0.12	302868	keystroke	Key.space	n/a
152.049	0.15	304098	keystroke	c	n/a
152.154	0.105	304308	keystroke	o	n/a
152.184	0.135	304368	keystroke	n	n/a
152.334	0.135	304668	keystroke	t	n/a
152.439	0.15	304878	keystroke	a	n/a
152.589	0.12	305178	keystroke	c	n/a
152.8135	0.1205	305627	keystroke	t	n/a
152.964	0.105	305928	keystroke	s	n/a
153.039	0.135	306078	keystroke	Key.space	n/a
153.594	0.075	307188	keystroke	a	n/a
153.684	0.105	307368	keystroke	u	n/a
153.834	0.105	307668	keystroke	t	n/a
153.909	0.15	307818	keystroke	o	n/a
153.984	0.135	307968	keystroke	m	n/a
154.569	0.105	309138	keystroke	o	n/a
154.689	0.12	309378	keystroke	t	n/a
154.824	0.12	309648	keystroke	i	n/a
155.019	0.135	310038	keystroke	v	n/a
155.124	0.105	310248	keystroke	e	n/a
156.324	0.12	312648	keystroke	Key.enter	n/a
156.4505	10.1645	312901	prompt	n/a	impressive till burton cartridges\n
157.524	0.18	315048	keystroke	i	n/a
157.599	0.15	315198	keystroke	m	n/a
157.6885	0.1655	315377	keystroke	p	n/a
157.764	0.105	315528	keystroke	r	n/a
157.824	0.12	315648	keystroke	e	n/a
158.034	0.09	316068	keystroke	s	n/a
158.199	0.09	316398	keystroke	s	n/a
158.259	0.12	316518	keystroke	i	n/a
158.409	0.105	316818	keystroke	v	n/a
158.424	0.06	316848	keystroke	b	n/a
158.469	0.1345	316938	keystroke	e	n/a
159.069	0.09	318138	keystroke	Key.backspace	n/a
159.459	0.09	318918	keystroke	Key.backspace	n/a
159.789	0.15	319578	keystroke	e	n/a
160.0585	0.1355	320117	keystroke	Key.space	n/a
160.209	0.105	320418	keystroke	t	n/a
160.344	0.075	320688	keystroke	i	n/a
160.389	0.075	320778	keystroke	l	n/a
160.509	0.12	321018	keystroke	l	n/a
160.749	0.24	321498	keystroke	Key.space	n/a
161.2285	0.105	322457	keystroke	b	n/a
161.4985	0.135	322997	keystroke	u	n/a
161.6785	0.075	323357	keystroke	r	n/a
161.8885	0.1055	323777	keystroke	t	n/a
161.934	0.12	323868	keystroke	o	n/a
162.009	0.105	324018	keystroke	n	n/a
162.204	0.12	324408	keystroke	Key.space	n/a
162.369	0.135	324738	keystroke	c	n/a
162.519	0.135	325038	keystroke	a	n/a
162.669	0.135	325338	keystroke	r	n/a
162.909	0.1045	325818	keystroke	t	n/a
163.329	0.135	326658	keystroke	r	n/a
163.554	0.12	327108	keystroke	i	n/a
163.764	0.195	327528	keystroke	d	n/a
164.184	0.105	328368	keystroke	g	n/a
164.274	0.105	328548	keystroke	e	n/a
164.484	0.045	328968	keystroke	w	n/a
164.559	0.03	329118	keystroke	s	n/a
165.804	0.06	331608	keystroke	Key.backspace	n/a
165.954	0.0895	331908	keystroke	Key.backspace	n/a
166.1485	0.12	332297	keystroke	s	n/a
166.509	0.105	333018	keystroke	Key.enter	n/a
166.622	12.8635	333244	prompt	n/a	what'll increasing decision freebsd\n
167.6335	0.1355	335267	keystroke	w	n/a
167.754	0.165	335508	keystroke	h	n/a
167.889	0.12	335778	keystroke	a	n/a
167.979	0.105	335958	keystroke	t	n/a
169.389	0.105	338778	keystroke	'	n/a
169.749	0.06	339498	keystroke	l	n/a
169.914	0.09	339828	keystroke	l	n/a
170.079	0.135	340158	keystroke	Key.space	n/a
170.409	0.09	340818	keystroke	i	n/a
171.099	0.12	342198	keystroke	n	n/a
171.204	0.09	342408	keystroke	c	n/a
171.444	0.135	342888	keystroke	r	n/a
171.534	0.135	343068	keystroke	e	n/a
171.624	0.195	343248	keystroke	a	n/a
171.744	0.135	343488	keystroke	s	n/a
171.834	0.105	343668	keystroke	i	n/a
171.894	0.1045	343788	keystroke	n	n/a
172.044	0.09	344088	keystroke	g	n/a
172.164	0.12	344328	keystroke	Key.space	n/a
172.389	0.1495	344778	keystroke	d	n/a
172.5085	0.1205	345017	keystroke	e	n/a
172.764	0.09	345528	keystroke	c	n/a
172.9135	0.075	345827	keystroke	i	n/a
173.0185	0.1205	346037	keystroke	s	n/a
173.109	0.12	346218	keystroke	i	n/a
173.139	0.12	346278	keystroke	o	n/a
173.199	0.12	346398	keystroke	n	n/a
173.394	0.135	346788	keystroke	Key.space	n/a
173.784	0.1045	347568	keystroke	f	n/a
173.9935	0.2255	347987	keystroke	e	n/a
174.0085	0.06	348017	keystroke	r	n/a
174.684	0.09	349368	keystroke	=	n/a
174.909	0.105	349818	keystroke	=	n/a
175.854	0.105	351708	keystroke	Key.backspace	n/a
176.334	0.045	352668	keystroke	Key.backspace	n/a
176.649	0.06	353298	keystroke	Key.backspace	n/a
176.934	0.06	353868	keystroke	Key.backspace	n/a
177.204	0.12	354408	keystroke	r	n/a
177.309	0.105	354618	keystroke	e	n/a
177.459	0.105	354918	keystroke	e	n/a
178.3735	0.12	356747	keystroke	b	n/a
178.599	0.105	357198	keystroke	s	n/a
178.959	0.075	357918	keystroke	d	n/a
179.364	0.12	358728	keystroke	Key.enter	n/a
179.4905	7	358981	prompt	n/a	easily turkish tier rack\n
180.414	0.105	360828	keystroke	e	n/a
181.1785	0.105	362357	keystroke	a	n/a
181.3135	0.09	362627	keystroke	s	n/a
181.4335	0.1955	362867	keystroke	i	n/a
181.554	0.15	363108	keystroke	l	n/a
181.689	0.105	363378	keystroke	y	n/a
181.764	0.135	363528	keystroke	Key.space	n/a
182.109	0.12	364218	keystroke	t	n/a
182.259	0.105	364518	keystroke	u	n/a
182.349	0.135	364698	keystroke	r	n/a
182.574	0.075	365148	keystroke	s	n/a
183.1735	0.12	366347	keystroke	Key.backspace	n/a
183.864	0.105	367728	keystroke	k	n/a
184.119	0.12	368238	keystroke	i	n/a
184.254	0.09	368508	keystroke	s	n/a
184.374	0.09	368748	keystroke	h	n/a
184.449	0.12	368898	keystroke	Key.space	n/a
184.644	0.105	369288	keystroke	t	n/a
184.794	0.105	369588	keystroke	i	n/a
184.869	0.15	369738	keystroke	e	n/a
184.989	0.105	369978	keystroke	r	n/a
185.049	0.12	370098	keystroke	Key.space	n/a
185.214	0.12	370428	keystroke	r	n/a
185.319	0.18	370638	keystroke	a	n/a
185.469	0.105	370938	keystroke	c	n/a
185.589	0.075	371178	keystroke	k	n/a
186.369	0.12	372738	keystroke	Key.enter	n/a
186.501	5.3595	373002	prompt	n/a	engineering into income kidney\n
187.224	0.12	374448	keystroke	e	n/a
187.359	0.1205	374718	keystroke	n	n/a
187.5835	0.106	375167	keystroke	g	n/a
187.7035	0.12	375407	keystroke	i	n/a
187.7785	0.121	375557	keystroke	n	n/a
187.8535	0.105	375707	keystroke	e	n/a
188.0335	0.135	376067	keystroke	e	n/a
188.1535	0.12	376307	keystroke	r	n/a
188.2285	0.135	376457	keystroke	i	n/a
188.3035	0.105	376607	keystroke	n	n/a
188.4235	0.09	376847	keystroke	g	n/a
188.5435	0.105	377087	keystroke	Key.space	n/a
188.6785	0.06	377357	keystroke	t	n/a
189.0835	0.105	378167	keystroke	Key.backspace	n/a
189.489	0.135	378978	keystroke	i	n/a
189.699	0.135	379398	keystroke	n	n/a
189.85	0.0735	379700	keystroke	t	n/a
189.9535	0.09	379907	keystroke	o	n/a
190.0135	0.1355	380027	keystroke	Key.space	n/a
190.239	0.135	380478	keystroke	i	n/a
190.314	0.135	380628	keystroke	n	n/a
190.404	0.135	380808	keystroke	c	n/a
190.494	0.135	380988	keystroke	o	n/a
190.569	0.135	381138	keystroke	m	n/a
190.659	0.075	381318	keystroke	e	n/a
190.749	0.135	381498	keystroke	Key.space	n/a
190.899	0.09	381798	keystroke	k	n/a
191.049	0.135	382098	keystroke	i	n/a
191.154	0.105	382308	keystroke	d	n/a
191.199	0.105	382398	keystroke	n	n/a
191.409	0.09	382818	keystroke	e	n/a
191.544	0.106	383088	keystroke	y	n/a
191.769	0.09	383538	keystroke	Key.enter	n/a
191.8665	3.429	383733	prompt	n/a	ruth less concerns idaho\n
192.474	0.105	384948	keystroke	r	n/a
192.564	0.105	385128	keystroke	u	n/a
192.7	0.119	385400	keystroke	t	n/a
192.774	0.136	385548	keystroke	h	n/a
192.879	0.135	385758	keystroke	Key.space	n/a
192.999	0.12	385998	keystroke	l	n/a
193.059	0.15	386118	keystroke	e	n/a
193.299	0.09	386598	keystroke	s	n/a
193.464	0.105	386928	keystroke	s	n/a
193.554	0.18	387108	keystroke	Key.space	n/a
193.719	0.105	387438	keystroke	c	n/a
193.779	0.12	387558	keystroke	o	n/a
193.854	0.12	387708	keystroke	n	n/a
193.929	0.105	387858	keystroke	c	n/a
194.064	0.136	388128	keystroke	e	n/a
194.184	0.09	388368	keystroke	r	n/a
194.229	0.105	388458	keystroke	n	n/a
194.349	0.15	388698	keystroke	s	n/a
194.439	0.135	388878	keystroke	Key.space	n/a
194.559	0.12	389118	keystroke	i	n/a
194.68	0.089	389360	keystroke	d	n/a
194.814	0.09	389628	keystroke	a	n/a
194.889	0.105	389778	keystroke	h	n/a
194.934	0.09	389868	keystroke	o	n/a
195.204	0.09	390408	keystroke	Key.enter	n/a
195.3015	5.3945	390603	prompt	n/a	brunswick shoes hostel expo\n
196.314	0.09	392628	keystroke	b	n/a
196.494	0.09	392988	keystroke	r	n/a
196.614	0.12	393228	keystroke	u	n/a
196.689	0.12	393378	keystroke	n	n/a
196.794	0.106	393588	keystroke	s	n/a
197.034	0.075	394068	keystroke	w	n/a
197.125	0.089	394250	keystroke	i	n/a
197.23	0.119	394460	keystroke	c	n/a
197.319	0.12	394638	keystroke	k	n/a
197.424	0.12	394848	keystroke	Key.space	n/a
198.249	0.135	396498	keystroke	s	n/a
198.324	0.151	396648	keystroke	h	n/a
198.37	0.164	396740	keystroke	o	n/a
198.489	0.061	396978	keystroke	e	n/a
198.654	0.105	397308	keystroke	s	n/a
198.97	0.104	397940	keystroke	Key.space	n/a
199.2835	0.1355	398567	keystroke	h	n/a
199.375	0.15	398750	keystroke	o	n/a
199.435	0.149	398870	keystroke	s	n/a
199.585	0.12	399170	keystroke	t	n/a
199.675	0.119	399350	keystroke	e	n/a
199.705	0.134	399410	keystroke	l	n/a
199.795	0.119	399590	keystroke	Key.space	n/a
199.959	0.075	399918	keystroke	e	n/a
200.17	0.089	400340	keystroke	x	n/a
200.23	0.12	400460	keystroke	p	n/a
200.289	0.136	400578	keystroke	o	n/a
200.619	0.075	401238	keystroke	Key.enter	n/a
200.7025	5.4835	401405	prompt	n/a	accidents american induction ridge\n
201.31	0.134	402620	keystroke	a	n/a
201.489	0.075	402978	keystroke	c	n/a
201.6385	0.105	403277	keystroke	c	n/a
201.7585	0.1355	403517	keystroke	i	n/a
201.91	0.12	403820	keystroke	d	n/a
202	0.1335	404000	keystroke	e	n/a
202.089	0.105	404178	keystroke	n	n/a
202.18	0.074	404360	keystroke	t	n/a
202.3	0.12	404600	keystroke	s	n/a
202.374	0.12	404748	keystroke	Key.space	n/a
202.57	0.0885	405140	keystroke	a	n/a
202.6745	0.0895	405349	keystroke	m	n/a
202.749	0.136	405498	keystroke	e	n/a
202.855	0.09	405710	keystroke	r	n/a
202.9	0.119	405800	keystroke	i	n/a
203.079	0.135	406158	keystroke	c	n/a
203.139	0.136	406278	keystroke	a	n/a
203.244	0.075	406488	keystroke	n	n/a
203.394	0.136	406788	keystroke	Key.space	n/a
203.514	0.15	407028	keystroke	i	n/a
204.1	0.105	408200	keystroke	n	n/a
204.264	0.091	408528	keystroke	d	n/a
204.37	0.09	408740	keystroke	u	n/a
204.475	0.09	408950	keystroke	c	n/a
204.7	0.075	409400	keystroke	t	n/a
204.715	0.135	409430	keystroke	i	n/a
204.76	0.134	409520	keystroke	o	n/a
204.804	0.12	409608	keystroke	n	n/a
205.179	0.12	410358	keystroke	Key.space	n/a
205.389	0.091	410778	keystroke	r	n/a
205.495	0.089	410990	keystroke	i	n/a
205.63	0.104	411260	keystroke	d	n/a
205.884	0.076	411768	keystroke	g	n/a
205.944	0.106	411888	keystroke	e	n/a
206.064	0.12	412128	keystroke	Key.enter	n/a
206.1915	6.474	412383	prompt	n/a	podcast polish subscription suppose\n
207.175	0.164	414350	keystroke	p	n/a
207.325	0.135	414650	keystroke	o	n/a
207.415	0.09	414830	keystroke	d	n/a
207.609	0.136	415218	keystroke	c	n/a
207.76	0.18	415520	keystroke	a	n/a
207.834	0.166	415668	keystroke	s	n/a
207.97	0.105	415940	keystroke	t	n/a
208.134	0.135	416268	keystroke	Key.space	n/a
208.345	0.15	416690	keystroke	p	n/a
208.615	0.15	417230	keystroke	o	n/a
208.9	0.165	417800	keystroke	l	n/a
209.02	0.15	418040	keystroke	i	n/a
209.155	0.12	418310	keystroke	s	n/a
209.26	0.1195	418520	keystroke	h	n/a
209.334	0.1355	418668	keystroke	Key.space	n/a
209.695	0.135	419390	keystroke	s	n/a
209.8	0.1345	419600	keystroke	u	n/a
209.8745	0.135	419749	keystroke	b	n/a
209.9795	0.1505	419959	keystroke	s	n/a
210.115	0.135	420230	keystroke	c	n/a
210.3695	0.1055	420739	keystroke	r	n/a
210.46	0.12	420920	keystroke	i	n/a
210.565	0.105	421130	keystroke	p	n/a
210.64	0.075	421280	keystroke	t	n/a
210.7	0.1795	421400	keystroke	i	n/a
210.775	0.1345	421550	keystroke	o	n/a
210.835	0.1045	421670	keystroke	n	n/a
211.0295	0.1345	422059	keystroke	Key.space	n/a
211.195	0.12	422390	keystroke	s	n/a
211.315	0.105	422630	keystroke	u	n/a
211.525	0.15	423050	keystroke	p	n/a
211.795	0.09	423590	keystroke	p	n/a
211.975	0.135	423950	keystroke	o	n/a
212.065	0.105	424130	keystroke	s	n/a
212.29	0.075	424580	keystroke	e	n/a
212.53	0.134	425060	keystroke	Key.enter	n/a
212.671	5.515	425342	prompt	n/a	magical nutrition lang complexity\n
213.58	0.135	427160	keystroke	m	n/a
213.685	0.075	427370	keystroke	a	n/a
213.895	0.09	427790	keystroke	g	n/a
213.94	0.135	427880	keystroke	i	n/a
214.135	0.12	428270	keystroke	c	n/a
214.195	0.15	428390	keystroke	a	n/a
214.285	0.135	428570	keystroke	l	n/a
214.375	0.104	428750	keystroke	Key.space	n/a
214.615	0.12	429230	keystroke	n	n/a
214.675	0.135	429350	keystroke	u	n/a
214.795	0.075	429590	keystroke	t	n/a
214.975	0.09	429950	keystroke	r	n/a
215.05	0.075	430100	keystroke	i	n/a
215.17	0.09	430340	keystroke	t	n/a
215.2295	0.1205	430459	keystroke	i	n/a
215.245	0.135	430490	keystroke	o	n/a
215.32	0.105	430640	keystroke	n	n/a
215.485	0.135	430970	keystroke	Key.space	n/a
215.59	0.09	431180	keystroke	l	n/a
215.665	0.0895	431330	keystroke	a	n/a
215.7545	0.1205	431509	keystroke	n	n/a
215.89	0.075	431780	keystroke	g	n/a
216.1	0.12	432200	keystroke	Key.space	n/a
216.235	0.12	432470	keystroke	c	n/a
216.34	0.135	432680	keystroke	o	n/a
216.43	0.105	432860	keystroke	m	n/a
216.67	0.135	433340	keystroke	p	n/a
216.745	0.135	433490	keystroke	l	n/a
216.85	0.075	433700	keystroke	e	n/a
217.045	0.075	434090	keystroke	x	n/a
217.105	0.105	434210	keystroke	i	n/a
217.345	0.075	434690	keystroke	t	n/a
217.405	0.06	434810	keystroke	y	n/a
218.08	0.105	436160	keystroke	Key.enter	n/a
218.1905	7.256	436381	prompt	n/a	specials synthesis corporation websites\n
218.92	0.135	437840	keystroke	s	n/a
219.04	0.105	438080	keystroke	p	n/a
219.28	0.18	438560	keystroke	c	n/a
219.745	0.12	439490	keystroke	Key.backspace	n/a
220.06	0.105	440120	keystroke	e	n/a
220.21	0.135	440420	keystroke	c	n/a
220.39	0.15	440780	keystroke	i	n/a
220.525	0.15	441050	keystroke	a	n/a
220.615	0.165	441230	keystroke	l	n/a
220.765	0.12	441530	keystroke	s	n/a
220.915	0.15	441830	keystroke	Key.space	n/a
221.14	0.135	442280	keystroke	s	n/a
221.26	0.135	442520	keystroke	y	n/a
221.335	0.135	442670	keystroke	n	n/a
221.455	0.105	442910	keystroke	t	n/a
221.575	0.15	443150	keystroke	h	n/a
221.71	0.12	443420	keystroke	e	n/a
222.16	0.135	444320	keystroke	s	n/a
222.265	0.12	444530	keystroke	i	n/a
222.385	0.12	444770	keystroke	s	n/a
222.49	0.135	444980	keystroke	Key.space	n/a
222.655	0.135	445310	keystroke	c	n/a
222.775	0.135	445550	keystroke	o	n/a
223.015	0.12	446030	keystroke	r	n/a
223.105	0.165	446210	keystroke	p	n/a
223.225	0.135	446450	keystroke	o	n/a
223.315	0.12	446630	keystroke	r	n/a
223.45	0.12	446900	keystroke	a	n/a
223.525	0.105	447050	keystroke	t	n/a
223.585	0.12	447170	keystroke	i	n/a
223.6	0.135	447200	keystroke	o	n/a
223.675	0.12	447350	keystroke	n	n/a
223.84	0.135	447680	keystroke	Key.space	n/a
224.215	0.15	448430	keystroke	w	n/a
224.515	0.12	449030	keystroke	e	n/a
224.65	0.12	449300	keystroke	b	n/a
224.8	0.12	449600	keystroke	s	n/a
224.89	0.15	449780	keystroke	i	n/a
225.055	0.075	450110	keystroke	t	n/a
225.1	0.09	450200	keystroke	e	n/a
225.265	0.12	450530	keystroke	s	n/a
225.355	0.09	450710	keystroke	Key.enter	n/a
225.4535	4.1175	450907	prompt	n/a	butter harry consist various\n
226.225	0.12	452450	keystroke	b	n/a
226.375	0.15	452750	keystroke	u	n/a
226.45	0.09	452900	keystroke	t	n/a
226.615	0.12	453230	keystroke	t	n/a
226.705	0.15	453410	keystroke	e	n/a
226.81	0.12	453620	keystroke	r	n/a
226.87	0.15	453740	keystroke	Key.space	n/a
226.96	0.15	453920	keystroke	h	n/a
227.035	0.135	454070	keystroke	a	n/a
227.14	0.09	454280	keystroke	r	n/a
227.275	0.12	454550	keystroke	r	n/a
227.335	0.12	454670	keystroke	y	n/a
227.41	0.15	454820	keystroke	Key.space	n/a
227.545	0.15	455090	keystroke	c	n/a
227.65	0.15	455300	keystroke	o	n/a
227.74	0.12	455480	keystroke	n	n/a
227.845	0.075	455690	keystroke	s	n/a
228.025	0.105	456050	keystroke	i	n/a
228.04	0.18	456080	keystroke	s	n/a
228.355	0.075	456710	keystroke	t	n/a
228.445	0.135	456890	keystroke	Key.space	n/a
228.655	0.105	457310	keystroke	v	n/a
228.79	0.12	457580	keystroke	a	n/a
228.895	0.09	457790	keystroke	r	n/a
228.955	0.12	457910	keystroke	i	n/a
229.03	0.135	458060	keystroke	o	n/a
229.15	0.09	458300	keystroke	u	n/a
229.285	0.075	458570	keystroke	s	n/a
229.42	0.15	458840	keystroke	Key.enter	n/a
229.576	6.5425	459152	prompt	n/a	honest armor periodic preliminary\n
230.35	0.15	460700	keystroke	h	n/a
230.485	0.165	460970	keystroke	o	n/a
230.56	0.135	461120	keystroke	n	n/a
230.635	0.09	461270	keystroke	e	n/a
230.815	0.15	461630	keystroke	s	n/a
230.905	0.12	461810	keystroke	t	n/a
231.01	0.1045	462020	keystroke	Key.space	n/a
231.1295	0.1205	462259	keystroke	a	n/a
231.205	0.105	462410	keystroke	r	n/a
231.28	0.105	462560	keystroke	m	n/a
231.34	0.105	462680	keystroke	o	n/a
231.43	0.1055	462860	keystroke	r	n/a
231.505	0.1205	463010	keystroke	Key.space	n/a
231.5955	0.135	463191	keystroke	p	n/a
231.6855	0.0755	463371	keystroke	e	n/a
231.746	0.09	463492	keystroke	r	n/a
231.821	0.105	463642	keystroke	i	n/a
231.881	0.135	463762	keystroke	o	n/a
231.9715	0.1045	463943	keystroke	d	n/a
232.076	0.0905	464152	keystroke	i	n/a
232.1815	0.105	464363	keystroke	c	n/a
232.2415	0.1205	464483	keystroke	Key.space	n/a
232.377	0.135	464754	keystroke	p	n/a
232.497	0.1505	464994	keystroke	e	n/a
232.632	0.0455	465264	keystroke	r	n/a
232.888	0.0895	465776	keystroke	Key.backspace	n/a
233.053	0.075	466106	keystroke	Key.backspace	n/a
233.173	0.0905	466346	keystroke	r	n/a
233.2485	0.105	466497	keystroke	e	n/a
233.3835	0.195	466767	keystroke	l	n/a
233.5335	0.1205	467067	keystroke	i	n/a
233.639	0.135	467278	keystroke	m	n/a
233.759	0.1205	467518	keystroke	i	n/a
233.8345	0.135	467669	keystroke	n	n/a
233.9245	0.105	467849	keystroke	a	n/a
233.9845	0.09	467969	keystroke	t	n/a
234.33	0.075	468660	keystroke	Key.backspace	n/a
234.6605	0.06	469321	keystroke	r	n/a
234.7655	0.0455	469531	keystroke	y	n/a
235.3065	0.09	470613	keystroke	\	n/a
235.742	0.1055	471484	keystroke	Key.backspace	n/a
235.9975	0.12	471995	keystroke	Key.enter	n/a
236.1235	3.706	472247	prompt	n/a	tire farm putting impose\n
237.094	0.1055	474188	keystroke	t	n/a
237.2295	0.135	474459	keystroke	i	n/a
237.3495	0.12	474699	keystroke	r	n/a
237.4395	0.1505	474879	keystroke	e	n/a
237.4845	0.1355	474969	keystroke	Key.space	n/a
237.695	0.1205	475390	keystroke	f	n/a
237.8455	0.12	475691	keystroke	a	n/a
237.9355	0.09	475871	keystroke	r	n/a
237.9955	0.105	475991	keystroke	m	n/a
238.191	0.12	476382	keystroke	Key.space	n/a
238.296	0.15	476592	keystroke	p	n/a
238.401	0.1205	476802	keystroke	u	n/a
238.461	0.0755	476922	keystroke	t	n/a
238.6265	0.1055	477253	keystroke	t	n/a
238.6565	0.1055	477313	keystroke	i	n/a
238.717	0.105	477434	keystroke	n	n/a
238.807	0.105	477614	keystroke	g	n/a
238.897	0.135	477794	keystroke	Key.space	n/a
239.017	0.1655	478034	keystroke	i	n/a
239.1375	0.135	478275	keystroke	m	n/a
239.2125	0.2255	478425	keystroke	p	n/a
239.3175	0.1355	478635	keystroke	o	n/a
239.3925	0.1055	478785	keystroke	s	n/a
239.603	0.0755	479206	keystroke	e	n/a
239.7235	0.105	479447	keystroke	Key.enter	n/a
239.8345	5.013	479669	prompt	n/a	functional query russian bread\n
240.6395	0.1055	481279	keystroke	f	n/a
240.76	0.18	481520	keystroke	u	n/a
240.895	0.105	481790	keystroke	n	n/a
240.955	0.1055	481910	keystroke	c	n/a
241.1805	0.075	482361	keystroke	t	n/a
241.2255	0.1355	482451	keystroke	i	n/a
241.271	0.135	482542	keystroke	o	n/a
241.3455	0.1355	482691	keystroke	n	n/a
241.466	0.09	482932	keystroke	a	n/a
241.541	0.1205	483082	keystroke	l	n/a
241.601	0.1205	483202	keystroke	Key.space	n/a
241.7815	0.135	483563	keystroke	q	n/a
241.9615	0.1205	483923	keystroke	u	n/a
242.232	0.1055	484464	keystroke	e	n/a
242.3975	0.12	484795	keystroke	r	n/a
242.5325	0.1655	485065	keystroke	y	n/a
242.668	0.15	485336	keystroke	Key.space	n/a
242.8935	0.12	485787	keystroke	r	n/a
243.0135	0.12	486027	keystroke	u	n/a
243.1035	0.09	486207	keystroke	s	n/a
243.269	0.165	486538	keystroke	s	n/a
243.389	0.105	486778	keystroke	i	n/a
243.7045	0.045	487409	keystroke	a	n/a
243.7795	0.075	487559	keystroke	n	n/a
243.93	0.135	487860	keystroke	Key.space	n/a
244.02	0.12	488040	keystroke	b	n/a
244.08	0.1055	488160	keystroke	r	n/a
244.155	0.1955	488310	keystroke	e	n/a
244.2155	0.135	488431	keystroke	a	n/a
244.3505	0.09	488701	keystroke	d	n/a
244.726	0.1205	489452	keystroke	Key.enter	n/a
244.8525	6.2	489705	prompt	n/a	bullet stores frequencies licensed\n
245.7775	0.1355	491555	keystroke	b	n/a
246.3485	0.1655	492697	keystroke	u	n/a
246.439	0.105	492878	keystroke	l	n/a
246.619	0.105	493238	keystroke	l	n/a
246.694	0.1505	493388	keystroke	e	n/a
246.7995	0.12	493599	keystroke	t	n/a
246.8745	0.135	493749	keystroke	Key.space	n/a
247.07	0.15	494140	keystroke	s	n/a
247.4305	0.015	494861	keystroke	t	n/a
247.776	0.135	495552	keystroke	o	n/a
247.896	0.1505	495792	keystroke	r	n/a
248.016	0.1355	496032	keystroke	e	n/a
248.2565	0.1055	496513	keystroke	s	n/a
248.3165	0.1205	496633	keystroke	Key.space	n/a
248.452	0.09	496904	keystroke	f	n/a
248.6625	0.09	497325	keystroke	r	n/a
248.7375	0.105	497475	keystroke	e	n/a
248.993	0.105	497986	keystroke	q	n/a
249.113	0.135	498226	keystroke	u	n/a
249.263	0.1055	498526	keystroke	e	n/a
249.3535	0.105	498707	keystroke	n	n/a
249.5035	0.09	499007	keystroke	c	n/a
249.5785	0.1355	499157	keystroke	i	n/a
249.684	0.075	499368	keystroke	e	n/a
249.849	0.1205	499698	keystroke	s	n/a
249.909	0.1805	499818	keystroke	Key.space	n/a
250.0295	0.195	500059	keystroke	l	n/a
250.1195	0.15	500239	keystroke	i	n/a
250.2095	0.1505	500419	keystroke	c	n/a
250.33	0.135	500660	keystroke	e	n/a
250.465	0.105	500930	keystroke	n	n/a
250.555	0.1205	501110	keystroke	s	n/a
250.7505	0.12	501501	keystroke	e	n/a
250.8405	0.1205	501681	keystroke	d	n/a
250.946	0.105	501892	keystroke	Key.enter	n/a
251.0575	3.7505	502115	prompt	n/a	legendary mars invention dont\n
251.817	0.1355	503634	keystroke	l	n/a
251.9375	0.15	503875	keystroke	e	n/a
252.0425	0.135	504085	keystroke	g	n/a
252.1475	0.1355	504295	keystroke	e	n/a
252.253	0.105	504506	keystroke	n	n/a
252.343	0.135	504686	keystroke	d	n/a
252.463	0.1055	504926	keystroke	a	n/a
252.538	0.1205	505076	keystroke	r	n/a
252.5985	0.09	505197	keystroke	y	n/a
252.6585	0.09	505317	keystroke	Key.space	n/a
252.8685	0.1055	505737	keystroke	m	n/a
252.914	0.12	505828	keystroke	a	n/a
252.989	0.135	505978	keystroke	r	n/a
253.154	0.1355	506308	keystroke	s	n/a
253.2745	0.12	506549	keystroke	Key.space	n/a
253.4245	0.1505	506849	keystroke	i	n/a
253.545	0.105	507090	keystroke	n	n/a
253.62	0.12	507240	keystroke	v	n/a
253.725	0.105	507450	keystroke	e	n/a
253.8	0.1055	507600	keystroke	n	n/a
253.9355	0.09	507871	keystroke	t	n/a
253.9955	0.135	507991	keystroke	i	n/a
254.0405	0.12	508081	keystroke	o	n/a
254.1005	0.075	508201	keystroke	n	n/a
254.236	0.105	508472	keystroke	Key.space	n/a
254.356	0.09	508712	keystroke	d	n/a
254.416	0.1055	508832	keystroke	o	n/a
254.476	0.1055	508952	keystroke	n	n/a
254.5815	0.075	509163	keystroke	t	n/a
254.6865	0.12	509373	keystroke	Key.enter	n/a
254.813	4.667	509626	prompt	n/a	failed ciao definitely strict\n
255.528	0.135	511056	keystroke	f	n/a
255.678	0.105	511356	keystroke	a	n/a
255.723	0.1655	511446	keystroke	i	n/a
255.798	0.1355	511596	keystroke	l	n/a
255.8585	0.15	511717	keystroke	e	n/a
255.9785	0.105	511957	keystroke	d	n/a
256.0685	0.1205	512137	keystroke	Key.space	n/a
256.249	0.15	512498	keystroke	c	n/a
256.444	0.1355	512888	keystroke	i	n/a
256.6395	0.135	513279	keystroke	a	n/a
256.835	0.135	513670	keystroke	o	n/a
256.955	0.12	513910	keystroke	Key.space	n/a
257.12	0.1655	514240	keystroke	d	n/a
257.3305	0.1655	514661	keystroke	e	n/a
257.4655	0.1055	514931	keystroke	f	n/a
257.631	0.105	515262	keystroke	i	n/a
257.706	0.1355	515412	keystroke	n	n/a
257.826	0.1055	515652	keystroke	i	n/a
257.9165	0.105	515833	keystroke	t	n/a
258.0065	0.12	516013	keystroke	e	n/a
258.0365	0.1355	516073	keystroke	l	n/a
258.142	0.105	516284	keystroke	y	n/a
258.202	0.135	516404	keystroke	Key.space	n/a
258.322	0.135	516644	keystroke	s	n/a
258.442	0.0905	516884	keystroke	t	n/a
258.6225	0.09	517245	keystroke	r	n/a
258.7125	0.1205	517425	keystroke	i	n/a
258.863	0.12	517726	keystroke	c	n/a
259.103	0.0905	518206	keystroke	t	n/a
259.3585	0.1205	518717	keystroke	Key.enter	n/a
259.485	4.3065	518970	prompt	n/a	includes from magic legendary\n
260.0795	0.1655	520159	keystroke	i	n/a
260.185	0.135	520370	keystroke	n	n/a
260.29	0.135	520580	keystroke	c	n/a
260.41	0.1205	520820	keystroke	l	n/a
260.4555	0.15	520911	keystroke	u	n/a
260.5305	0.15	521061	keystroke	d	n/a
260.6205	0.135	521241	keystroke	e	n/a
260.8155	0.1355	521631	keystroke	s	n/a
260.876	0.12	521752	keystroke	Key.space	n/a
261.2515	0.09	522503	keystroke	f	n/a
261.4465	0.0905	522893	keystroke	r	n/a
261.462	0.135	522924	keystroke	o	n/a
261.552	0.09	523104	keystroke	m	n/a
261.732	0.09	523464	keystroke	Key.space	n/a
261.9275	0.105	523855	keystroke	m	n/a
262.0025	0.12	524005	keystroke	a	n/a
262.1225	0.1055	524245	keystroke	g	n/a
262.258	0.15	524516	keystroke	i	n/a
262.423	0.1205	524846	keystroke	c	n/a
262.5135	0.165	525027	keystroke	Key.space	n/a
262.6185	0.165	525237	keystroke	l	n/a
262.7685	0.1205	525537	keystroke	e	n/a
262.934	0.12	525868	keystroke	g	n/a
263.039	0.12	526078	keystroke	e	n/a
263.114	0.1205	526228	keystroke	n	n/a
263.2195	0.135	526439	keystroke	d	n/a
263.3395	0.12	526679	keystroke	a	n/a
263.4295	0.1055	526859	keystroke	r	n/a
263.4745	0.0755	526949	keystroke	y	n/a
263.685	0.105	527370	keystroke	Key.enter	n/a
263.7965	4.0955	527593	prompt	n/a	moon cycles praise saving\n
264.466	0.1355	528932	keystroke	m	n/a
264.5715	0.09	529143	keystroke	o	n/a
264.7515	0.105	529503	keystroke	o	n/a
264.8265	0.075	529653	keystroke	n	n/a
264.977	0.105	529954	keystroke	Key.space	n/a
265.052	0.105	530104	keystroke	c	n/a
265.157	0.06	530314	keystroke	y	n/a
265.2325	0.135	530465	keystroke	c	n/a
265.3375	0.135	530675	keystroke	l	n/a
265.4575	0.0905	530915	keystroke	e	n/a
265.623	0.12	531246	keystroke	s	n/a
265.9535	0.105	531907	keystroke	Key.space	n/a
266.299	0.12	532598	keystroke	p	n/a
266.419	0.12	532838	keystroke	r	n/a
266.524	0.1355	533048	keystroke	a	n/a
266.5995	0.105	533199	keystroke	i	n/a
266.7195	0.12	533439	keystroke	s	n/a
266.8995	0.1205	533799	keystroke	e	n/a
267.05	0.165	534100	keystroke	Key.space	n/a
267.2	0.1505	534400	keystroke	s	n/a
267.29	0.1355	534580	keystroke	a	n/a
267.3955	0.12	534791	keystroke	v	n/a
267.4555	0.12	534911	keystroke	i	n/a
267.5005	0.1355	535001	keystroke	n	n/a
267.651	0.075	535302	keystroke	g	n/a
267.771	0.12	535542	keystroke	Key.enter	n/a
267.897	7.3865	535794	prompt	n/a	devil lots parliamentary representations\n
268.7025	0.12	537405	keystroke	d	n/a
268.8075	0.1655	537615	keystroke	e	n/a
268.9425	0.1055	537885	keystroke	v	n/a
269.003	0.165	538006	keystroke	i	n/a
269.093	0.135	538186	keystroke	l	n/a
269.198	0.15	538396	keystroke	Key.space	n/a
269.348	0.1055	538696	keystroke	l	n/a
269.4985	0.135	538997	keystroke	o	n/a
269.7535	0.0755	539507	keystroke	t	n/a
269.9645	0.105	539929	keystroke	s	n/a
270.2495	0.135	540499	keystroke	Key.space	n/a
270.61	0.12	541220	keystroke	p	n/a
270.9405	0.12	541881	keystroke	a	n/a
271.0905	0.0905	542181	keystroke	r	n/a
271.316	0.1805	542632	keystroke	l	n/a
271.391	0.1505	542782	keystroke	i	n/a
271.5265	0.12	543053	keystroke	a	n/a
271.6015	0.12	543203	keystroke	m	n/a
271.7365	0.1355	543473	keystroke	e	n/a
271.857	0.12	543714	keystroke	n	n/a
271.962	0.075	543924	keystroke	t	n/a
272.082	0.105	544164	keystroke	a	n/a
272.142	0.12	544284	keystroke	r	n/a
272.217	0.0905	544434	keystroke	y	n/a
272.232	0.0765	544464	keystroke	u	n/a
272.3085	0.074	544617	keystroke	Key.space	n/a
272.818	0.1055	545636	keystroke	Key.backspace	n/a
273.0135	0.075	546027	keystroke	Key.backspace	n/a
273.2535	0.1055	546507	keystroke	Key.space	n/a
273.344	0.105	546688	keystroke	r	n/a
273.404	0.165	546808	keystroke	e	n/a
273.509	0.12	547018	keystroke	p	n/a
273.614	0.12	547228	keystroke	r	n/a
273.719	0.1205	547438	keystroke	e	n/a
274.0495	0.0905	548099	keystroke	s	n/a
274.245	0.105	548490	keystroke	e	n/a
274.32	0.1205	548640	keystroke	n	n/a
274.4555	0.105	548911	keystroke	t	n/a
274.5755	0.135	549151	keystroke	a	n/a
274.6805	0.09	549361	keystroke	t	n/a
274.7555	0.1355	549511	keystroke	i	n/a
274.8155	0.1205	549631	keystroke	o	n/a
274.861	0.12	549722	keystroke	n	n/a
274.996	0.06	549992	keystroke	s	n/a
275.161	0.1205	550322	keystroke	Key.enter	n/a
275.291	6.447	550582	prompt	n/a	added slim funny recreational\n
275.807	0.12	551614	keystroke	a	n/a
275.912	0.075	551824	keystroke	d	n/a
276.0625	0.105	552125	keystroke	d	n/a
276.1375	0.15	552275	keystroke	e	n/a
276.2425	0.135	552485	keystroke	d	n/a
276.3025	0.1655	552605	keystroke	Key.space	n/a
276.498	0.12	552996	keystroke	s	n/a
276.558	0.195	553116	keystroke	l	n/a
276.618	0.165	553236	keystroke	i	n/a
276.723	0.1055	553446	keystroke	m	n/a
276.9185	0.135	553837	keystroke	Key.space	n/a
277.0385	0.105	554077	keystroke	f	n/a
277.1135	0.1205	554227	keystroke	u	n/a
277.1885	0.1055	554377	keystroke	n	n/a
277.324	0.15	554648	keystroke	n	n/a
277.9695	0.12	555939	keystroke	y	n/a
278.0745	0.1205	556149	keystroke	Key.space	n/a
278.21	0.12	556420	keystroke	r	n/a
278.285	0.165	556570	keystroke	e	n/a
278.5255	0.09	557051	keystroke	c	n/a
278.8405	0.135	557681	keystroke	r	n/a
279.186	0.135	558372	keystroke	e	n/a
279.501	0.1055	559002	keystroke	a	n/a
279.6815	0.12	559363	keystroke	t	n/a
279.696	0.09	559392	keystroke	r	n/a
279.771	0.1805	559542	keystroke	i	n/a
280.2215	0.075	560443	keystroke	Key.backspace	n/a
280.6865	0.09	561373	keystroke	Key.backspace	n/a
280.9265	0.1655	561853	keystroke	i	n/a
281.0015	0.135	562003	keystroke	o	n/a
281.093	0.1185	562186	keystroke	n	n/a
281.1815	0.105	562363	keystroke	a	n/a
281.2715	0.105	562543	keystroke	l	n/a
281.6465	0.09	563293	keystroke	Key.enter	n/a
281.743	5.019	563486	prompt	n/a	large guestbook august runtime\n
282.4115	0.135	564823	keystroke	l	n/a
282.5315	0.0895	565063	keystroke	a	n/a
282.606	0.075	565212	keystroke	r	n/a
282.831	0.1055	565662	keystroke	g	n/a
282.9215	0.1195	565843	keystroke	e	n/a
283.0115	0.1195	566023	keystroke	Key.space	n/a
283.371	0.1205	566742	keystroke	g	n/a
283.4615	0.1495	566923	keystroke	u	n/a
283.551	0.105	567102	keystroke	e	n/a
283.761	0.165	567522	keystroke	s	n/a
283.896	0.105	567792	keystroke	t	n/a
284.1205	0.1355	568241	keystroke	b	n/a
284.271	0.045	568542	keystroke	o	n/a
284.406	0.1495	568812	keystroke	o	n/a
284.496	0.1495	568992	keystroke	k	n/a
284.6305	0.135	569261	keystroke	Key.space	n/a
284.7505	0.12	569501	keystroke	a	n/a
285.0205	0.15	570041	keystroke	u	n/a
285.3505	0.09	570701	keystroke	g	n/a
285.4705	0.135	570941	keystroke	u	n/a
285.5755	0.165	571151	keystroke	s	n/a
285.6955	0.12	571391	keystroke	t	n/a
285.8005	0.1195	571601	keystroke	Key.space	n/a
285.95	0.105	571900	keystroke	r	n/a
286.01	0.1505	572020	keystroke	u	n/a
286.085	0.1205	572170	keystroke	n	n/a
286.1905	0.12	572381	keystroke	t	n/a
286.2805	0.1345	572561	keystroke	i	n/a
286.3555	0.1195	572711	keystroke	m	n/a
286.46	0.09	572920	keystroke	e	n/a
286.64	0.12	573280	keystroke	Key.enter	n/a
286.767	6.2485	573534	prompt	n/a	experts outputs grew betty\n
287.3005	0.1345	574601	keystroke	e	n/a
287.525	0.135	575050	keystroke	x	n/a
287.675	0.12	575350	keystroke	p	n/a
287.78	0.135	575560	keystroke	e	n/a
287.87	0.105	575740	keystroke	r	n/a
288.065	0.075	576130	keystroke	t	n/a
288.215	0.135	576430	keystroke	s	n/a
288.665	0.12	577330	keystroke	Key.space	n/a
288.9945	0.165	577989	keystroke	o	n/a
289.1305	0.1045	578261	keystroke	u	n/a
289.19	0.12	578380	keystroke	t	n/a
289.3245	0.135	578649	keystroke	p	n/a
289.3995	0.135	578799	keystroke	u	n/a
289.4745	0.075	578949	keystroke	t	n/a
289.6095	0.12	579219	keystroke	s	n/a
289.6845	0.12	579369	keystroke	Key.space	n/a
289.8495	0.105	579699	keystroke	g	n/a
290.1045	0.09	580209	keystroke	e	n/a
290.4795	0.015	580959	keystroke	w	n/a
290.6895	0.0895	581379	keystroke	Key.backspace	n/a
290.869	0.105	581738	keystroke	Key.backspace	n/a
291.02	0.119	582040	keystroke	r	n/a
291.6645	0.1195	583329	keystroke	e	n/a
291.769	0.12	583538	keystroke	w	n/a
291.904	0.135	583808	keystroke	Key.space	n/a
292.219	0.105	584438	keystroke	b	n/a
292.34	0.119	584680	keystroke	e	n/a
292.43	0.059	584860	keystroke	t	n/a
292.579	0.091	585158	keystroke	t	n/a
292.64	0.074	585280	keystroke	y	n/a
292.8785	0.135	585757	keystroke	Key.enter	n/a
293.0205	3.0985	586041	prompt	n/a	named tour fishing acer\n
293.5685	0.1495	587137	keystroke	n	n/a
293.703	0.1205	587406	keystroke	a	n/a
293.8395	0.074	587679	keystroke	m	n/a
293.8985	0.15	587797	keystroke	e	n/a
294.0185	0.15	588037	keystroke	d	n/a
294.1235	0.1345	588247	keystroke	Key.space	n/a
294.303	0.1215	588606	keystroke	t	n/a
294.364	0.1505	588728	keystroke	o	n/a
294.4395	0.119	588879	keystroke	u	n/a
294.5285	0.106	589057	keystroke	r	n/a
294.6345	0.1335	589269	keystroke	Key.space	n/a
294.798	0.1355	589596	keystroke	f	n/a
294.9185	0.105	589837	keystroke	i	n/a
295.0395	0.1035	590079	keystroke	s	n/a
295.1135	0.1645	590227	keystroke	h	n/a
295.173	0.15	590346	keystroke	i	n/a
295.263	0.12	590526	keystroke	n	n/a
295.338	0.105	590676	keystroke	g	n/a
295.473	0.09	590946	keystroke	Key.space	n/a
295.533	0.1655	591066	keystroke	a	n/a
295.6525	0.12	591305	keystroke	c	n/a
295.8175	0.1205	591635	keystroke	e	n/a
295.908	0.075	591816	keystroke	r	n/a
295.998	0.1195	591996	keystroke	Key.enter	n/a
296.124	7.254	592248	prompt	n/a	possibility columnists violin zoom\n
296.7935	0.179	593587	keystroke	p	n/a
296.9425	0.135	593885	keystroke	o	n/a
297.049	0.0895	594098	keystroke	s	n/a
297.2135	0.104	594427	keystroke	s	n/a
297.3025	0.12	594605	keystroke	i	n/a
297.4075	0.136	594815	keystroke	b	n/a
297.5435	0.119	595087	keystroke	i	n/a
297.6485	0.195	595297	keystroke	l	n/a
297.7835	0.119	595567	keystroke	i	n/a
297.8735	0.119	595747	keystroke	t	n/a
297.9785	0.1195	595957	keystroke	y	n/a
298.0525	0.1345	596105	keystroke	Key.space	n/a
298.368	0.1055	596736	keystroke	c	n/a
298.608	0.075	597216	keystroke	o	n/a
298.817	0.151	597634	keystroke	l	n/a
298.953	0.149	597906	keystroke	u	n/a
299.0565	0.0915	598113	keystroke	m	n/a
299.238	0.119	598476	keystroke	n	n/a
299.6125	0.089	599225	keystroke	i	n/a
299.808	0.18	599616	keystroke	s	n/a
300.002	0.12	600004	keystroke	t	n/a
300.138	0.164	600276	keystroke	s	n/a
301.1115	0.105	602223	keystroke	Key.space	n/a
301.5925	0.104	603185	keystroke	v	n/a
301.8175	0.164	603635	keystroke	i	n/a
301.9375	0.194	603875	keystroke	o	n/a
302.1015	0.136	604203	keystroke	l	n/a
302.2515	0.15	604503	keystroke	i	n/a
302.3715	0.0895	604743	keystroke	n	n/a
302.536	0.12	605072	keystroke	Key.space	n/a
302.641	0.1215	605282	keystroke	z	n/a
302.7765	0.045	605553	keystroke	o	n/a
303.002	0.029	606004	keystroke	o	n/a
303.017	0.089	606034	keystroke	m	n/a
303.256	0.12	606512	keystroke	Key.enter	n/a
303.383	7.343	606766	prompt	n/a	expires origin coupon capability\n
304.7865	0.105	609573	keystroke	e	n/a
304.9965	0.12	609993	keystroke	x	n/a
305.1015	0.105	610203	keystroke	p	n/a
305.1765	0.1185	610353	keystroke	i	n/a
305.2815	0.1195	610563	keystroke	r	n/a
305.371	0.12	610742	keystroke	w	n/a
305.386	0.09	610772	keystroke	e	n/a
305.611	0.06	611222	keystroke	s	n/a
306	0.105	612000	keystroke	Key.backspace	n/a
306.181	0.0885	612362	keystroke	Key.backspace	n/a
306.3295	0.09	612659	keystroke	Key.backspace	n/a
306.4055	0.105	612811	keystroke	e	n/a
306.6305	0.0905	613261	keystroke	s	n/a
306.735	0.105	613470	keystroke	Key.space	n/a
307.486	0.15	614972	keystroke	o	n/a
307.666	0.1195	615332	keystroke	r	n/a
307.7705	0.075	615541	keystroke	i	n/a
307.9055	0.105	615811	keystroke	g	n/a
307.9505	0.12	615901	keystroke	i	n/a
308.0255	0.105	616051	keystroke	n	n/a
308.175	0.1495	616350	keystroke	Key.space	n/a
308.3405	0.105	616681	keystroke	c	n/a
308.4005	0.12	616801	keystroke	o	n/a
308.4755	0.105	616951	keystroke	u	n/a
308.6405	0.15	617281	keystroke	p	n/a
308.7305	0.135	617461	keystroke	o	n/a
308.8355	0.12	617671	keystroke	n	n/a
309.0305	0.15	618061	keystroke	Key.space	n/a
309.3005	0.12	618601	keystroke	c	n/a
309.3905	0.105	618781	keystroke	a	n/a
309.4655	0.135	618931	keystroke	p	n/a
309.6155	0.075	619231	keystroke	a	n/a
309.7055	0.15	619411	keystroke	b	n/a
309.8105	0.15	619621	keystroke	i	n/a
309.9455	0.195	619891	keystroke	l	n/a
310.0805	0.135	620161	keystroke	i	n/a
310.2305	0.1045	620461	keystroke	t	n/a
310.35	0.06	620700	keystroke	y	n/a
310.6195	0.1055	621239	keystroke	Key.enter	n/a
310.731	9.457	621462	prompt	n/a	announcement shall applicable algorithms\n
315.3305	0.028	630661	keystroke	a	n/a
315.3735	0.075	630747	keystroke	n	n/a
315.5385	0.105	631077	keystroke	n	n/a
315.6285	0.165	631257	keystroke	o	n/a
315.7035	0.15	631407	keystroke	u	n/a
315.7785	0.105	631557	keystroke	n	n/a
315.8385	0.12	631677	keystroke	c	n/a
315.9885	0.0895	631977	keystroke	e	n/a
316.063	0.09	632126	keystroke	m	n/a
316.168	0.1205	632336	keystroke	e	n/a
316.2435	0.105	632487	keystroke	n	n/a
316.3335	0.105	632667	keystroke	t	n/a
316.4685	0.09	632937	keystroke	Key.space	n/a
316.663	0.12	633326	keystroke	s	n/a
316.768	0.09	633536	keystroke	h	n/a
316.873	0.105	633746	keystroke	a	n/a
316.963	0.06	633926	keystroke	l	n/a
317.083	0.12	634166	keystroke	l	n/a
317.173	0.135	634346	keystroke	Key.space	n/a
317.353	0.09	634706	keystroke	a	n/a
317.6375	0.12	635275	keystroke	p	n/a
317.8175	0.1055	635635	keystroke	p	n/a
318.0575	0.135	636115	keystroke	l	n/a
318.1475	0.135	636295	keystroke	i	n/a
318.2075	0.135	636415	keystroke	c	n/a
318.3275	0.12	636655	keystroke	a	n/a
318.3575	0.135	636715	keystroke	b	n/a
318.4325	0.165	636865	keystroke	l	n/a
318.5825	0.105	637165	keystroke	e	n/a
318.6425	0.12	637285	keystroke	Key.space	n/a
318.7925	0.135	637585	keystroke	a	n/a
318.9575	0.1345	637915	keystroke	l	n/a
319.137	0.09	638274	keystroke	g	n/a
319.272	0.12	638544	keystroke	o	n/a
319.377	0.1055	638754	keystroke	r	n/a
319.512	0.105	639024	keystroke	i	n/a
319.632	0.105	639264	keystroke	t	n/a
319.692	0.135	639384	keystroke	h	n/a
319.797	0.12	639594	keystroke	m	n/a
319.902	0.09	639804	keystroke	s	n/a
320.112	0.075	640224	keystroke	Key.enter	n/a
320.193	4.9585	640386	prompt	n/a	bool being miscellaneous above\n
321.0715	0.075	642143	keystroke	b	n/a
321.2515	0.075	642503	keystroke	o	n/a
321.4165	0.105	642833	keystroke	o	n/a
321.6415	0.12	643283	keystroke	l	n/a
321.7915	0.165	643583	keystroke	Key.space	n/a
321.9565	0.12	643913	keystroke	b	n/a
322.0615	0.12	644123	keystroke	e	n/a
322.1965	0.12	644393	keystroke	i	n/a
322.2565	0.105	644513	keystroke	n	n/a
322.3315	0.0895	644663	keystroke	g	n/a
322.436	0.105	644872	keystroke	Key.space	n/a
322.676	0.09	645352	keystroke	m	n/a
322.901	0.12	645802	keystroke	i	n/a
323.036	0.135	646072	keystroke	s	n/a
323.156	0.135	646312	keystroke	c	n/a
323.306	0.09	646612	keystroke	e	n/a
323.366	0.09	646732	keystroke	l	n/a
323.531	0.105	647062	keystroke	l	n/a
323.621	0.12	647242	keystroke	a	n/a
323.771	0.09	647542	keystroke	n	n/a
323.996	0.105	647992	keystroke	e	n/a
324.161	0.135	648322	keystroke	o	n/a
324.236	0.135	648472	keystroke	u	n/a
324.341	0.1045	648682	keystroke	s	n/a
324.4155	0.135	648831	keystroke	Key.space	n/a
324.5355	0.12	649071	keystroke	a	n/a
324.6405	0.105	649281	keystroke	b	n/a
324.7305	0.12	649461	keystroke	o	n/a
324.8205	0.105	649641	keystroke	v	n/a
324.8955	0.105	649791	keystroke	e	n/a
325.0605	0.09	650121	keystroke	Key.enter	n/a
325.1565	11.6015	650313	prompt	n/a	mirrors showed bleeding conditioning\n
326.26	0.12	652520	keystroke	m	n/a
326.32	0.135	652640	keystroke	i	n/a
326.44	0.09	652880	keystroke	r	n/a
326.605	0.105	653210	keystroke	r	n/a
326.65	0.1045	653300	keystroke	o	n/a
326.8295	0.105	653659	keystroke	s	n/a
326.9645	0.135	653929	keystroke	Key.space	n/a
327.1595	0.135	654319	keystroke	s	n/a
327.594	0.09	655188	keystroke	Key.backspace	n/a
327.759	0.06	655518	keystroke	Key.backspace	n/a
327.894	0.09	655788	keystroke	Key.backspace	n/a
328.029	0.105	656058	keystroke	r	n/a
328.164	0.12	656328	keystroke	s	n/a
328.329	0.12	656658	keystroke	Key.space	n/a
328.539	0.1505	657078	keystroke	s	n/a
328.6445	0.12	657289	keystroke	h	n/a
328.7045	0.15	657409	keystroke	o	n/a
328.7795	0.075	657559	keystroke	w	n/a
328.9595	0.105	657919	keystroke	e	n/a
329.0195	0.135	658039	keystroke	d	n/a
329.1395	0.1345	658279	keystroke	Key.space	n/a
329.289	0.09	658578	keystroke	b	n/a
329.439	0.165	658878	keystroke	l	n/a
329.544	0.075	659088	keystroke	e	n/a
329.739	0.09	659478	keystroke	e	n/a
329.799	0.15	659598	keystroke	d	n/a
329.904	0.105	659808	keystroke	i	n/a
329.964	0.105	659928	keystroke	n	n/a
330.084	0.105	660168	keystroke	g	n/a
330.219	0.135	660438	keystroke	Key.space	n/a
330.534	0.045	661068	keystroke	f	n/a
330.594	0.0895	661188	keystroke	c	n/a
331.014	0.0895	662028	keystroke	Key.backspace	n/a
331.1935	0.075	662387	keystroke	Key.backspace	n/a
331.3435	0.12	662687	keystroke	c	n/a
331.4785	0.12	662957	keystroke	o	n/a
331.5835	0.105	663167	keystroke	n	n/a
331.6135	0.105	663227	keystroke	d	n/a
331.8085	0.09	663617	keystroke	i	n/a
331.8835	0.09	663767	keystroke	t	n/a
331.9885	0.1345	663977	keystroke	o	n/a
332.0785	0.1045	664157	keystroke	i	n/a
332.108	0.12	664216	keystroke	n	n/a
332.258	0.1205	664516	keystroke	i	n/a
332.333	0.09	664666	keystroke	n	n/a
332.408	0.075	664816	keystroke	g	n/a
332.813	0.06	665626	keystroke	Key.backspace	n/a
332.948	0.06	665896	keystroke	Key.backspace	n/a
333.083	0.09	666166	keystroke	Key.backspace	n/a
333.248	0.045	666496	keystroke	Key.backspace	n/a
333.368	0.105	666736	keystroke	Key.backspace	n/a
333.788	0.12	667576	keystroke	n	n/a
335.1825	0.15	670365	keystroke	i	n/a
336.0975	0.135	672195	keystroke	n	n/a
336.2325	0.09	672465	keystroke	g	n/a
336.622	0.135	673244	keystroke	Key.enter	n/a
336.7635	6.2475	673527	prompt	n/a	agent carroll mint maui\n
337.612	0.15	675224	keystroke	a	n/a
337.792	0.0745	675584	keystroke	r	n/a
338.1515	0.12	676303	keystroke	Key.backspace	n/a
338.3015	0.09	676603	keystroke	g	n/a
338.4065	0.12	676813	keystroke	e	n/a
338.4665	0.09	676933	keystroke	n	n/a
338.5865	0.12	677173	keystroke	t	n/a
338.6915	0.105	677383	keystroke	Key.space	n/a
339.336	0.12	678672	keystroke	c	n/a
339.501	0.12	679002	keystroke	a	n/a
339.681	0.09	679362	keystroke	r	n/a
339.831	0.105	679662	keystroke	r	n/a
339.891	0.105	679782	keystroke	o	n/a
340.101	0.075	680202	keystroke	l	n/a
340.236	0.135	680472	keystroke	l	n/a
340.341	0.12	680682	keystroke	Key.space	n/a
340.566	0.12	681132	keystroke	m	n/a
340.671	0.1345	681342	keystroke	i	n/a
340.7605	0.1205	681521	keystroke	n	n/a
340.851	0.09	681702	keystroke	t	n/a
341.031	0.089	682062	keystroke	Key.space	n/a
341.316	0.089	682632	keystroke	m	n/a
341.436	0.12	682872	keystroke	a	n/a
341.541	0.119	683082	keystroke	u	n/a
341.601	0.165	683202	keystroke	i	n/a
342.8745	0.135	685749	keystroke	Key.enter	n/a
343.0165	6.1435	686033	prompt	n/a	mastercard tours directed relocation\n
343.76	0.12	687520	keystroke	m	n/a
343.85	0.18	687700	keystroke	a	n/a
343.925	0.195	687850	keystroke	s	n/a
344.105	0.15	688210	keystroke	t	n/a
344.225	0.12	688450	keystroke	e	n/a
344.315	0.12	688630	keystroke	r	n/a
344.585	0.135	689170	keystroke	c	n/a
344.735	0.135	689470	keystroke	a	n/a
344.855	0.09	689710	keystroke	r	n/a
345.065	0.105	690130	keystroke	d	n/a
345.154	0.136	690308	keystroke	Key.space	n/a
345.335	0.105	690670	keystroke	t	n/a
345.425	0.1645	690850	keystroke	o	n/a
345.5	0.1345	691000	keystroke	u	n/a
345.575	0.1045	691150	keystroke	r	n/a
345.695	0.15	691390	keystroke	s	n/a
345.814	0.106	691628	keystroke	Key.space	n/a
345.965	0.1195	691930	keystroke	d	n/a
346.0995	0.12	692199	keystroke	i	n/a
346.2045	0.135	692409	keystroke	r	n/a
346.3095	0.165	692619	keystroke	e	n/a
346.5345	0.105	693069	keystroke	c	n/a
346.7595	0.105	693519	keystroke	t	n/a
346.8495	0.165	693699	keystroke	e	n/a
346.9845	0.12	693969	keystroke	d	n/a
347.0445	0.135	694089	keystroke	Key.space	n/a
347.2245	0.105	694449	keystroke	r	n/a
347.2995	0.135	694599	keystroke	e	n/a
347.4495	0.1045	694899	keystroke	l	n/a
347.689	0.12	695378	keystroke	o	n/a
348.154	0.09	696308	keystroke	c	n/a
348.379	0.12	696758	keystroke	a	n/a
348.514	0.09	697028	keystroke	t	n/a
348.619	0.15	697238	keystroke	i	n/a
348.664	0.12	697328	keystroke	o	n/a
348.754	0.105	697508	keystroke	n	n/a
349.084	0.075	698168	keystroke	Key.enter	n/a
349.1675	4.8055	698335	prompt	n/a	thoughts anybody motel purposes\n
349.8185	0.09	699637	keystroke	t	n/a
349.9085	0.15	699817	keystroke	h	n/a
349.9985	0.18	699997	keystroke	o	n/a
350.1035	0.09	700207	keystroke	u	n/a
350.3435	0.1045	700687	keystroke	g	n/a
350.4185	0.1195	700837	keystroke	h	n/a
350.4935	0.0895	700987	keystroke	t	n/a
350.703	0.09	701406	keystroke	s	n/a
350.808	0.075	701616	keystroke	Key.space	n/a
350.943	0.105	701886	keystroke	a	n/a
351.063	0.09	702126	keystroke	n	n/a
351.333	0.1195	702666	keystroke	y	n/a
351.6925	0.15	703385	keystroke	b	n/a
351.8275	0.135	703655	keystroke	o	n/a
351.9775	0.135	703955	keystroke	d	n/a
352.0675	0.105	704135	keystroke	y	n/a
352.1275	0.105	704255	keystroke	Key.space	n/a
352.3675	0.12	704735	keystroke	m	n/a
352.4275	0.135	704855	keystroke	o	n/a
352.5175	0.105	705035	keystroke	t	n/a
352.5925	0.12	705185	keystroke	e	n/a
352.6975	0.075	705395	keystroke	l	n/a
352.7275	0.15	705455	keystroke	Key.space	n/a
352.9525	0.12	705905	keystroke	p	n/a
353.0575	0.12	706115	keystroke	u	n/a
353.1625	0.105	706325	keystroke	r	n/a
353.2375	0.165	706475	keystroke	p	n/a
353.3425	0.135	706685	keystroke	o	n/a
353.4175	0.12	706835	keystroke	s	n/a
353.5825	0.105	707165	keystroke	e	n/a
353.7625	0.105	707525	keystroke	s	n/a
353.8525	0.12	707705	keystroke	Key.enter	n/a
353.978	4.5845	707956	prompt	n/a	infections answers trout section\n
354.707	0.12	709414	keystroke	i	n/a
354.782	0.135	709564	keystroke	n	n/a
354.902	0.135	709804	keystroke	f	n/a
355.022	0.195	710044	keystroke	e	n/a
355.157	0.12	710314	keystroke	c	n/a
355.397	0.12	710794	keystroke	t	n/a
355.502	0.135	711004	keystroke	i	n/a
355.547	0.12	711094	keystroke	o	n/a
355.592	0.105	711184	keystroke	n	n/a
355.652	0.15	711304	keystroke	s	n/a
355.787	0.105	711574	keystroke	Key.space	n/a
355.877	0.18	711754	keystroke	a	n/a
355.982	0.105	711964	keystroke	n	n/a
356.042	0.105	712084	keystroke	s	n/a
356.222	0.09	712444	keystroke	w	n/a
356.402	0.12	712804	keystroke	e	n/a
356.492	0.105	712984	keystroke	r	n/a
356.627	0.1195	713254	keystroke	s	n/a
356.7015	0.12	713403	keystroke	Key.space	n/a
356.8365	0.075	713673	keystroke	t	n/a
357.0165	0.12	714033	keystroke	r	n/a
357.1215	0.12	714243	keystroke	o	n/a
357.1665	0.135	714333	keystroke	u	n/a
357.2565	0.06	714513	keystroke	t	n/a
357.3465	0.135	714693	keystroke	Key.space	n/a
357.4515	0.105	714903	keystroke	s	n/a
357.6165	0.18	715233	keystroke	e	n/a
357.7365	0.135	715473	keystroke	c	n/a
357.9915	0.105	715983	keystroke	t	n/a
358.0665	0.1345	716133	keystroke	i	n/a
358.1115	0.1345	716223	keystroke	o	n/a
358.186	0.12	716372	keystroke	n	n/a
358.471	0.09	716942	keystroke	Key.enter	n/a
358.568	7.417	717136	prompt	n/a	mexican declaration check banner\n
359.1755	0.12	718351	keystroke	m	n/a
359.2655	0.09	718531	keystroke	e	n/a
359.4755	0.12	718951	keystroke	x	n/a
359.5505	0.135	719101	keystroke	i	n/a
359.7155	0.12	719431	keystroke	c	n/a
359.7755	0.15	719551	keystroke	a	n/a
359.8505	0.09	719701	keystroke	n	n/a
360.0305	0.12	720061	keystroke	Key.space	n/a
360.4205	0.1495	720841	keystroke	d	n/a
360.63	0.135	721260	keystroke	e	n/a
360.93	0.15	721860	keystroke	c	n/a
361.095	0.12	722190	keystroke	l	n/a
361.23	0.12	722460	keystroke	r	n/a
361.335	0.15	722670	keystroke	a	n/a
361.455	0.105	722910	keystroke	t	n/a
361.515	0.15	723030	keystroke	i	n/a
361.545	0.135	723090	keystroke	o	n/a
361.605	0.105	723210	keystroke	n	n/a
361.785	0.12	723570	keystroke	Key.space	n/a
362.19	0.09	724380	keystroke	Key.backspace	n/a
362.37	0.075	724740	keystroke	Key.backspace	n/a
362.52	0.0745	725040	keystroke	Key.backspace	n/a
362.6545	0.075	725309	keystroke	Key.backspace	n/a
362.8195	0.045	725639	keystroke	Key.backspace	n/a
362.9545	0.105	725909	keystroke	Key.backspace	n/a
363.2095	0.09	726419	keystroke	Key.backspace	n/a
363.4045	0.105	726809	keystroke	a	n/a
363.4945	0.1195	726989	keystroke	r	n/a
363.629	0.165	727258	keystroke	a	n/a
363.824	0.105	727648	keystroke	c	n/a
364.109	0.105	728218	keystroke	Key.backspace	n/a
364.229	0.09	728458	keystroke	t	n/a
364.379	0.18	728758	keystroke	i	n/a
364.439	0.135	728878	keystroke	o	n/a
364.514	0.105	729028	keystroke	n	n/a
364.679	0.12	729358	keystroke	Key.space	n/a
364.784	0.12	729568	keystroke	c	n/a
364.874	0.12	729748	keystroke	h	n/a
364.964	0.1195	729928	keystroke	e	n/a
365.0385	0.1055	730077	keystroke	c	n/a
365.0685	0.1055	730137	keystroke	k	n/a
365.159	0.1345	730318	keystroke	Key.space	n/a
365.2785	0.105	730557	keystroke	b	n/a
365.369	0.1045	730738	keystroke	a	n/a
365.4585	0.09	730917	keystroke	n	n/a
365.6235	0.105	731247	keystroke	n	n/a
365.7135	0.09	731427	keystroke	e	n/a
365.7735	0.105	731547	keystroke	r	n/a
365.8635	0.12	731727	keystroke	Key.enter	n/a
365.9915	4.582	731983	prompt	n/a	in excellence classic amino\n
366.6885	0.12	733377	keystroke	i	n/a
366.7635	0.09	733527	keystroke	n	n/a
366.9285	0.12	733857	keystroke	Key.space	n/a
367.0335	0.12	734067	keystroke	e	n/a
367.2585	0.12	734517	keystroke	x	n/a
367.4985	0.09	734997	keystroke	c	n/a
367.5735	0.12	735147	keystroke	e	n/a
367.6635	0.045	735327	keystroke	l	n/a
367.8135	0.09	735627	keystroke	l	n/a
368.128	0.075	736256	keystroke	e	n/a
368.233	0.09	736466	keystroke	n	n/a
368.338	0.105	736676	keystroke	c	n/a
368.413	0.12	736826	keystroke	e	n/a
368.488	0.12	736976	keystroke	Key.space	n/a
368.953	0.12	737906	keystroke	c	n/a
369.088	0.105	738176	keystroke	l	n/a
369.223	0.12	738446	keystroke	a	n/a
369.313	0.075	738626	keystroke	s	n/a
369.4475	0.135	738895	keystroke	s	n/a
369.5375	0.135	739075	keystroke	i	n/a
369.6575	0.105	739315	keystroke	c	n/a
369.7475	0.105	739495	keystroke	Key.space	n/a
369.8825	0.105	739765	keystroke	a	n/a
369.9725	0.09	739945	keystroke	m	n/a
370.0325	0.165	740065	keystroke	i	n/a
370.1525	0.12	740305	keystroke	n	n/a
370.2125	0.135	740425	keystroke	o	n/a
370.4675	0.105	740935	keystroke	Key.enter	n/a
370.579	4.148	741158	prompt	n/a	turner essex round property\n
371.382	0.12	742764	keystroke	t	n/a
371.532	0.105	743064	keystroke	u	n/a
371.622	0.135	743244	keystroke	r	n/a
371.727	0.1195	743454	keystroke	n	n/a
371.802	0.1345	743604	keystroke	e	n/a
371.8765	0.105	743753	keystroke	r	n/a
371.9665	0.12	743933	keystroke	Key.space	n/a
372.1165	0.18	744233	keystroke	e	n/a
372.4315	0.105	744863	keystroke	s	n/a
372.5965	0.105	745193	keystroke	s	n/a
372.7765	0.09	745553	keystroke	e	n/a
372.9865	0.12	745973	keystroke	x	n/a
373.1365	0.12	746273	keystroke	Key.space	n/a
373.2715	0.09	746543	keystroke	r	n/a
373.3615	0.15	746723	keystroke	o	n/a
373.4365	0.1205	746873	keystroke	u	n/a
373.4815	0.105	746963	keystroke	n	n/a
373.5715	0.105	747143	keystroke	d	n/a
373.6915	0.12	747383	keystroke	Key.space	n/a
373.7665	0.135	747533	keystroke	p	n/a
373.8865	0.105	747773	keystroke	r	n/a
373.9615	0.15	747923	keystroke	o	n/a
374.0215	0.135	748043	keystroke	p	n/a
374.0665	0.135	748133	keystroke	e	n/a
374.1415	0.09	748283	keystroke	r	n/a
374.336	0.105	748672	keystroke	t	n/a
374.426	0.09	748852	keystroke	y	n/a
374.651	0.075	749302	keystroke	Key.enter	n/a
374.732	3.9695	749464	prompt	n/a	partners tanks processors occurred\n
375.401	0.105	750802	keystroke	p	n/a
375.491	0.105	750982	keystroke	a	n/a
375.566	0.09	751132	keystroke	r	n/a
375.746	0.09	751492	keystroke	t	n/a
375.806	0.105	751612	keystroke	n	n/a
375.881	0.105	751762	keystroke	e	n/a
375.941	0.09	751882	keystroke	r	n/a
376.121	0.105	752242	keystroke	s	n/a
376.181	0.105	752362	keystroke	Key.space	n/a
376.3005	0.09	752601	keystroke	t	n/a
376.3755	0.105	752751	keystroke	a	n/a
376.4205	0.09	752841	keystroke	n	n/a
376.4655	0.135	752931	keystroke	k	n/a
376.5855	0.105	753171	keystroke	s	n/a
376.6455	0.12	753291	keystroke	Key.space	n/a
376.7505	0.135	753501	keystroke	p	n/a
376.8705	0.06	753741	keystroke	r	n/a
376.9455	0.105	753891	keystroke	o	n/a
377.0655	0.12	754131	keystroke	c	n/a
377.1705	0.105	754341	keystroke	e	n/a
377.3655	0.06	754731	keystroke	s	n/a
377.5005	0.09	755001	keystroke	s	n/a
377.5605	0.09	755121	keystroke	o	n/a
377.6355	0.105	755271	keystroke	r	n/a
377.7405	0.135	755481	keystroke	s	n/a
377.8305	0.12	755661	keystroke	Key.space	n/a
377.9205	0.105	755841	keystroke	o	n/a
378.0105	0.09	756021	keystroke	c	n/a
378.1155	0.09	756231	keystroke	u	n/a
378.2355	0.045	756471	keystroke	r	n/a
378.3555	0.075	756711	keystroke	r	n/a
378.4155	0.135	756831	keystroke	e	n/a
378.5355	0.075	757071	keystroke	d	n/a
378.5955	0.105	757191	keystroke	Key.enter	n/a
378.707	7.8375	757414	prompt	n/a	how'll journey selections vocational\n
379.75	0.12	759500	keystroke	h	n/a
379.825	0.105	759650	keystroke	o	n/a
379.9	0.075	759800	keystroke	w	n/a
380.4395	0.06	760879	keystroke	'	n/a
380.7245	0.06	761449	keystroke	l	n/a
380.8445	0.09	761689	keystroke	l	n/a
381.1445	0.09	762289	keystroke	Key.space	n/a
381.714	0.105	763428	keystroke	h	n/a
382.464	0.09	764928	keystroke	Key.backspace	n/a
382.854	0.12	765708	keystroke	j	n/a
383.019	0.135	766038	keystroke	o	n/a
383.109	0.105	766218	keystroke	u	n/a
383.199	0.105	766398	keystroke	r	n/a
383.274	0.105	766548	keystroke	n	n/a
383.439	0.12	766878	keystroke	e	n/a
383.529	0.09	767058	keystroke	y	n/a
383.589	0.135	767178	keystroke	Key.space	n/a
384.1285	0.09	768257	keystroke	s	n/a
384.3235	0.09	768647	keystroke	e	n/a
384.3685	0.105	768737	keystroke	l	n/a
384.5035	0.12	769007	keystroke	e	n/a
384.5785	0.135	769157	keystroke	c	n/a
384.8185	0.09	769637	keystroke	t	n/a
384.8935	0.135	769787	keystroke	i	n/a
384.9385	0.12	769877	keystroke	o	n/a
384.9985	0.105	769997	keystroke	n	n/a
385.0435	0.09	770087	keystroke	s	n/a
385.1635	0.135	770327	keystroke	Key.space	n/a
385.3735	0.075	770747	keystroke	v	n/a
385.4635	0.09	770927	keystroke	o	n/a
385.5835	0.075	771167	keystroke	c	n/a
385.733	0.12	771466	keystroke	a	n/a
385.838	0.075	771676	keystroke	t	n/a
385.898	0.135	771796	keystroke	i	n/a
385.973	0.09	771946	keystroke	o	n/a
386.003	0.105	772006	keystroke	n	n/a
386.078	0.09	772156	keystroke	a	n/a
386.183	0.075	772366	keystroke	l	n/a
386.453	0.09	772906	keystroke	Key.enter	n/a
386.5495	4.284	773099	prompt	n/a	provided swedish computing goes\n
387.203	0.105	774406	keystroke	p	n/a
387.278	0.0745	774556	keystroke	r	n/a
387.3975	0.105	774795	keystroke	o	n/a
387.5325	0.09	775065	keystroke	v	n/a
387.6375	0.105	775275	keystroke	i	n/a
387.7575	0.12	775515	keystroke	d	n/a
387.8625	0.12	775725	keystroke	e	n/a
387.9525	0.105	775905	keystroke	d	n/a
387.9975	0.135	775995	keystroke	Key.space	n/a
388.1475	0.12	776295	keystroke	s	n/a
388.3425	0.09	776685	keystroke	w	n/a
388.5225	0.105	777045	keystroke	e	n/a
388.6275	0.12	777255	keystroke	d	n/a
388.7325	0.09	777465	keystroke	i	n/a
388.8375	0.12	777675	keystroke	s	n/a
388.9125	0.105	777825	keystroke	h	n/a
388.9725	0.135	777945	keystroke	Key.space	n/a
389.1075	0.1195	778215	keystroke	c	n/a
389.212	0.105	778424	keystroke	o	n/a
389.302	0.135	778604	keystroke	m	n/a
389.317	0.165	778634	keystroke	p	n/a
389.572	0.12	779144	keystroke	u	n/a
389.782	0.12	779564	keystroke	t	n/a
389.887	0.12	779774	keystroke	i	n/a
389.962	0.105	779924	keystroke	n	n/a
390.052	0.075	780104	keystroke	g	n/a
390.157	0.105	780314	keystroke	Key.space	n/a
390.307	0.09	780614	keystroke	g	n/a
390.382	0.09	780764	keystroke	o	n/a
390.487	0.075	780974	keystroke	e	n/a
390.637	0.09	781274	keystroke	s	n/a
390.757	0.075	781514	keystroke	Key.enter	n/a
390.838	5.904	781676	prompt	n/a	hard vulnerable anxiety bearing\n
391.642	0.105	783284	keystroke	h	n/a
391.762	0.09	783524	keystroke	a	n/a
391.822	0.105	783644	keystroke	r	n/a
392.032	0.09	784064	keystroke	d	n/a
392.107	0.105	784214	keystroke	Key.space	n/a
392.557	0.06	785114	keystroke	v	n/a
392.8565	0.165	785713	keystroke	u	n/a
392.9615	0.135	785923	keystroke	l	n/a
393.0815	0.165	786163	keystroke	e	n/a
393.2165	0.06	786433	keystroke	r	n/a
393.6065	0.09	787213	keystroke	Key.backspace	n/a
393.7715	0.12	787543	keystroke	Key.backspace	n/a
393.9065	0.12	787813	keystroke	n	n/a
394.0115	0.135	788023	keystroke	e	n/a
394.1165	0.09	788233	keystroke	r	n/a
394.2515	0.135	788503	keystroke	a	n/a
394.3565	0.12	788713	keystroke	b	n/a
394.4465	0.12	788893	keystroke	l	n/a
394.5365	0.1195	789073	keystroke	e	n/a
394.6265	0.1345	789253	keystroke	Key.space	n/a
394.821	0.135	789642	keystroke	a	n/a
394.926	0.12	789852	keystroke	n	n/a
395.061	0.12	790122	keystroke	x	n/a
395.196	0.105	790392	keystroke	i	n/a
395.286	0.12	790572	keystroke	e	n/a
395.376	0.105	790752	keystroke	t	n/a
395.466	0.06	790932	keystroke	y	n/a
395.496	0.105	790992	keystroke	Key.space	n/a
396.021	0.1045	792042	keystroke	b	n/a
396.1105	0.18	792221	keystroke	e	n/a
396.1705	0.15	792341	keystroke	a	n/a
396.2305	0.12	792461	keystroke	r	n/a
396.3055	0.12	792611	keystroke	i	n/a
396.3655	0.135	792731	keystroke	n	n/a
396.4705	0.075	792941	keystroke	g	n/a
396.6205	0.12	793241	keystroke	Key.enter	n/a
396.749	6.5315	793498	prompt	n/a	salary sitemap editorials resistance\n
397.4605	0.135	794921	keystroke	s	n/a
397.6105	0.1045	795221	keystroke	a	n/a
397.7	0.15	795400	keystroke	l	n/a
397.82	0.135	795640	keystroke	a	n/a
397.925	0.105	795850	keystroke	r	n/a
398	0.09	796000	keystroke	y	n/a
398.045	0.105	796090	keystroke	Key.space	n/a
398.18	0.15	796360	keystroke	s	n/a
398.3	0.105	796600	keystroke	i	n/a
398.39	0.105	796780	keystroke	t	n/a
398.465	0.105	796930	keystroke	e	n/a
398.54	0.0905	797080	keystroke	m	n/a
398.6605	0.105	797321	keystroke	a	n/a
398.6905	0.165	797381	keystroke	p	n/a
398.8405	0.1045	797681	keystroke	Key.space	n/a
399.035	0.105	798070	keystroke	e	n/a
399.125	0.135	798250	keystroke	d	n/a
399.23	0.12	798460	keystroke	i	n/a
399.365	0.105	798730	keystroke	t	n/a
399.455	0.105	798910	keystroke	o	n/a
399.545	0.12	799090	keystroke	r	n/a
399.62	0.09	799240	keystroke	i	n/a
399.74	0.12	799480	keystroke	a	n/a
399.815	0.12	799630	keystroke	l	n/a
399.92	0.12	799840	keystroke	s	n/a
400.025	0.105	800050	keystroke	Key.space	n/a
400.205	0.12	800410	keystroke	r	n/a
400.28	0.1045	800560	keystroke	e	n/a
400.5045	0.06	801009	keystroke	s	n/a
400.5945	0.09	801189	keystroke	i	n/a
400.6845	0.105	801369	keystroke	s	n/a
400.8345	0.09	801669	keystroke	r	n/a
400.8495	0.06	801699	keystroke	t	n/a
400.9395	0.135	801879	keystroke	a	n/a
401.0145	0.105	802029	keystroke	n	n/a
401.4195	0.09	802839	keystroke	Key.backspace	n/a
401.5995	0.06	803199	keystroke	Key.backspace	n/a
401.7495	0.09	803499	keystroke	Key.backspace	n/a
401.9895	0.12	803979	keystroke	a	n/a
402.0645	0.1045	804129	keystroke	n	n/a
402.229	0.135	804458	keystroke	c	n/a
402.334	0.105	804668	keystroke	e	n/a
402.394	0.12	804788	keystroke	'	n/a
402.934	0.075	805868	keystroke	Key.backspace	n/a
403.174	0.105	806348	keystroke	Key.enter	n/a
403.285	4.419	806570	prompt	n/a	clinton techno province this\n
404.3735	0.12	808747	keystroke	c	n/a
404.4485	0.18	808897	keystroke	l	n/a
404.5985	0.135	809197	keystroke	i	n/a
404.6885	0.12	809377	keystroke	n	n/a
404.7185	0.105	809437	keystroke	t	n/a
404.8535	0.105	809707	keystroke	o	n/a
404.8835	0.135	809767	keystroke	n	n/a
405.1385	0.12	810277	keystroke	Key.space	n/a
405.2735	0.09	810547	keystroke	t	n/a
405.3485	0.12	810697	keystroke	e	n/a
405.7235	0.1195	811447	keystroke	c	n/a
405.858	0.12	811716	keystroke	h	n/a
405.948	0.15	811896	keystroke	n	n/a
406.053	0.135	812106	keystroke	o	n/a
406.203	0.105	812406	keystroke	Key.space	n/a
406.323	0.12	812646	keystroke	p	n/a
406.398	0.105	812796	keystroke	r	n/a
406.518	0.12	813036	keystroke	o	n/a
406.653	0.09	813306	keystroke	v	n/a
406.698	0.12	813396	keystroke	i	n/a
406.758	0.12	813516	keystroke	n	n/a
406.893	0.12	813786	keystroke	c	n/a
406.968	0.15	813936	keystroke	e	n/a
407.043	0.12	814086	keystroke	Key.space	n/a
407.193	0.0895	814386	keystroke	t	n/a
407.268	0.1045	814536	keystroke	h	n/a
407.3125	0.12	814625	keystroke	i	n/a
407.4325	0.105	814865	keystroke	s	n/a
407.5825	0.12	815165	keystroke	Key.enter	n/a
407.7095	5.0785	815419	prompt	n/a	slots bike we're isle\n
408.4975	0.09	816995	keystroke	s	n/a
408.5275	0.12	817055	keystroke	l	n/a
408.6925	0.12	817385	keystroke	o	n/a
408.7375	0.09	817475	keystroke	t	n/a
408.8875	0.1045	817775	keystroke	s	n/a
408.9625	0.1195	817925	keystroke	Key.space	n/a
409.037	0.135	818074	keystroke	b	n/a
409.127	0.0905	818254	keystroke	u	n/a
409.3075	0.105	818615	keystroke	k	n/a
409.3825	0.105	818765	keystroke	e	n/a
409.5025	0.105	819005	keystroke	Key.space	n/a
409.712	0.075	819424	keystroke	w	n/a
409.877	0.12	819754	keystroke	e	n/a
411.287	0.075	822574	keystroke	'	n/a
411.437	0.12	822874	keystroke	r	n/a
411.512	0.12	823024	keystroke	e	n/a
411.602	0.1495	823204	keystroke	Key.space	n/a
411.7215	0.12	823443	keystroke	i	n/a
411.8115	0.09	823623	keystroke	s	n/a
411.9165	0.075	823833	keystroke	l	n/a
412.0215	0.09	824043	keystroke	e	n/a
412.6365	0.15	825273	keystroke	Key.enter	n/a
412.795	7.4765	825590	prompt	n/a	accessing elephant interview preference\n
413.4315	0.12	826863	keystroke	a	n/a
413.6265	0.09	827253	keystroke	c	n/a
413.7915	0.135	827583	keystroke	c	n/a
414.691	0.105	829382	keystroke	e	n/a
414.901	0.09	829802	keystroke	s	n/a
415.051	0.09	830102	keystroke	s	n/a
415.111	0.12	830222	keystroke	i	n/a
415.171	0.105	830342	keystroke	n	n/a
415.261	0.105	830522	keystroke	g	n/a
415.366	0.105	830732	keystroke	Key.space	n/a
415.516	0.09	831032	keystroke	e	n/a
415.576	0.09	831152	keystroke	l	n/a
415.711	0.075	831422	keystroke	e	n/a
416.206	0.075	832412	keystroke	p	n/a
416.386	0.12	832772	keystroke	h	n/a
416.461	0.12	832922	keystroke	a	n/a
416.596	0.105	833192	keystroke	n	n/a
416.686	0.105	833372	keystroke	t	n/a
416.776	0.1195	833552	keystroke	Key.space	n/a
416.9105	0.15	833821	keystroke	i	n/a
417.0005	0.135	834001	keystroke	n	n/a
417.1055	0.12	834211	keystroke	t	n/a
417.2105	0.135	834421	keystroke	e	n/a
417.3005	0.105	834601	keystroke	r	n/a
417.5405	0.09	835081	keystroke	v	n/a
417.6005	0.135	835201	keystroke	i	n/a
417.7505	0.12	835501	keystroke	e	n/a
417.8405	0.135	835681	keystroke	w	n/a
417.8705	0.18	835741	keystroke	Key.space	n/a
418.485	0.105	836970	keystroke	p	n/a
418.575	0.12	837150	keystroke	r	n/a
418.665	0.195	837330	keystroke	e	n/a
419.04	0.105	838080	keystroke	f	n/a
419.16	0.135	838320	keystroke	e	n/a
419.25	0.135	838500	keystroke	r	n/a
419.371	0.134	838742	keystroke	e	n/a
419.475	0.105	838950	keystroke	n	n/a
419.625	0.12	839250	keystroke	c	n/a
419.7	0.105	839400	keystroke	e	n/a
420.12	0.15	840240	keystroke	Key.enter	n/a
420.2765	6.1285	840553	prompt	n/a	undertaken supervisor idaho johnson\n
421.1695	0.15	842339	keystroke	u	n/a
421.2295	0.135	842459	keystroke	n	n/a
421.2895	0.135	842579	keystroke	d	n/a
421.3945	0.135	842789	keystroke	e	n/a
421.5145	0.12	843029	keystroke	r	n/a
421.7395	0.09	843479	keystroke	t	n/a
421.7995	0.135	843599	keystroke	a	n/a
421.9195	0.135	843839	keystroke	k	n/a
422.0095	0.105	844019	keystroke	e	n/a
422.1445	0.075	844289	keystroke	n	n/a
422.3245	0.12	844649	keystroke	Key.space	n/a
422.5205	0.134	845041	keystroke	s	n/a
422.6695	0.12	845339	keystroke	u	n/a
422.7295	0.15	845459	keystroke	p	n/a
422.8345	0.075	845669	keystroke	e	n/a
422.8945	0.1195	845789	keystroke	r	n/a
423.1795	0.12	846359	keystroke	v	n/a
423.2845	0.06	846569	keystroke	i	n/a
423.389	0.105	846778	keystroke	s	n/a
423.464	0.106	846928	keystroke	o	n/a
423.584	0.12	847168	keystroke	r	n/a
423.674	0.12	847348	keystroke	Key.space	n/a
423.795	0.104	847590	keystroke	a	n/a
424.124	0.105	848248	keystroke	Key.backspace	n/a
424.469	0.135	848938	keystroke	i	n/a
424.784	0.12	849568	keystroke	d	n/a
424.994	0.1345	849988	keystroke	a	n/a
425.0985	0.12	850197	keystroke	h	n/a
425.1585	0.15	850317	keystroke	o	n/a
425.2485	0.135	850497	keystroke	Key.space	n/a
425.3985	0.105	850797	keystroke	j	n/a
425.5185	0.12	851037	keystroke	o	n/a
425.6235	0.15	851247	keystroke	h	n/a
425.7285	0.12	851457	keystroke	n	n/a
425.8335	0.105	851667	keystroke	s	n/a
425.9085	0.105	851817	keystroke	o	n/a
425.9535	0.12	851907	keystroke	n	n/a
426.3285	0.075	852657	keystroke	Key.enter	n/a
426.4095	6.639	852819	prompt	n/a	rolled release aquarium computing\n
427.153	0.135	854306	keystroke	r	n/a
427.303	0.105	854606	keystroke	o	n/a
427.528	0.045	855056	keystroke	l	n/a
427.633	0.12	855266	keystroke	l	n/a
427.708	0.15	855416	keystroke	e	n/a
427.798	0.135	855596	keystroke	d	n/a
427.888	0.12	855776	keystroke	Key.space	n/a
428.0525	0.091	856105	keystroke	r	n/a
428.1275	0.106	856255	keystroke	e	n/a
428.1875	0.135	856375	keystroke	l	n/a
428.3085	0.149	856617	keystroke	e	n/a
428.3985	0.194	856797	keystroke	a	n/a
428.5325	0.091	857065	keystroke	s	n/a
428.6975	0.121	857395	keystroke	e	n/a
428.8475	0.12	857695	keystroke	Key.space	n/a
428.9825	0.09	857965	keystroke	a	n/a
429.2225	0.121	858445	keystroke	q	n/a
429.3285	0.119	858657	keystroke	u	n/a
429.4325	0.12	858865	keystroke	a	n/a
429.5075	0.121	859015	keystroke	r	n/a
429.5675	0.165	859135	keystroke	i	n/a
429.6875	0.12	859375	keystroke	u	n/a
429.7335	0.089	859467	keystroke	m	n/a
429.8825	0.15	859765	keystroke	Key.space	n/a
430.0175	0.105	860035	keystroke	c	n/a
430.1385	0.105	860277	keystroke	o	n/a
430.1835	0.164	860367	keystroke	p	n/a
430.1985	0.165	860397	keystroke	m	n/a
430.3325	0.136	860665	keystroke	u	n/a
430.4525	0.075	860905	keystroke	t	n/a
430.4975	0.105	860995	keystroke	i	n/a
430.5575	0.105	861115	keystroke	n	n/a
430.6785	0.104	861357	keystroke	g	n/a
430.977	0.075	861954	keystroke	Key.backspace	n/a
431.127	0.075	862254	keystroke	Key.backspace	n/a
431.277	0.075	862554	keystroke	Key.backspace	n/a
431.427	0.075	862854	keystroke	Key.backspace	n/a
431.562	0.09	863124	keystroke	Key.backspace	n/a
431.712	0.06	863424	keystroke	Key.backspace	n/a
431.847	0.09	863694	keystroke	Key.backspace	n/a
432.088	0.119	864176	keystroke	m	n/a
432.222	0.135	864444	keystroke	p	n/a
432.328	0.119	864656	keystroke	u	n/a
432.418	0.105	864836	keystroke	t	n/a
432.493	0.12	864986	keystroke	i	n/a
432.552	0.136	865104	keystroke	n	n/a
432.643	0.074	865286	keystroke	g	n/a
432.927	0.12	865854	keystroke	Key.enter	n/a
433.0535	6.264	866107	prompt	n/a	returned signal creek pointer\n
433.7075	0.105	867415	keystroke	r	n/a
433.7975	0.15	867595	keystroke	e	n/a
433.9175	0.12	867835	keystroke	t	n/a
434.0215	0.106	868043	keystroke	u	n/a
434.1425	0.12	868285	keystroke	r	n/a
434.1875	0.045	868375	keystroke	t	n/a
434.2775	0.119	868555	keystroke	n	n/a
434.6975	0.075	869395	keystroke	Key.backspace	n/a
434.8625	0.089	869725	keystroke	Key.backspace	n/a
435.4025	0.105	870805	keystroke	n	n/a
435.5225	0.135	871045	keystroke	e	n/a
435.6125	0.15	871225	keystroke	d	n/a
435.6875	0.119	871375	keystroke	Key.space	n/a
435.9275	0.1495	871855	keystroke	s	n/a
436.1525	0.105	872305	keystroke	i	n/a
436.3325	0.09	872665	keystroke	g	n/a
436.3925	0.12	872785	keystroke	n	n/a
436.5725	0.135	873145	keystroke	a	n/a
436.6475	0.1345	873295	keystroke	l	n/a
436.6915	0.1205	873383	keystroke	Key.space	n/a
436.842	0.09	873684	keystroke	c	n/a
437.052	0.075	874104	keystroke	r	n/a
437.112	0.075	874224	keystroke	e	n/a
437.232	0.135	874464	keystroke	e	n/a
437.292	0.12	874584	keystroke	k	n/a
437.381	0.136	874762	keystroke	Key.space	n/a
437.517	0.15	875034	keystroke	p	n/a
437.637	0.105	875274	keystroke	o	n/a
437.637	0.135	875274	keystroke	i	n/a
437.757	0.105	875514	keystroke	n	n/a
438.146	0.075	876292	keystroke	Key.backspace	n/a
438.326	0.061	876652	keystroke	Key.backspace	n/a
438.462	0.089	876924	keystroke	Key.backspace	n/a
438.702	0.12	877404	keystroke	o	n/a
438.762	0.15	877524	keystroke	i	n/a
438.837	0.12	877674	keystroke	n	n/a
438.897	0.09	877794	keystroke	t	n/a
439.017	0.135	878034	keystroke	e	n/a
439.107	0.12	878214	keystroke	r	n/a
439.212	0.104	878424	keystroke	Key.enter	n/a
439.323	4.8535	878646	prompt	n/a	jaguar efforts premier delivering\n
440.3215	0.09	880643	keystroke	j	n/a
440.3815	0.09	880763	keystroke	a	n/a
440.5615	0.105	881123	keystroke	g	n/a
440.6515	0.105	881303	keystroke	u	n/a
440.7265	0.105	881453	keystroke	a	n/a
440.7865	0.105	881573	keystroke	r	n/a
440.8605	0.136	881721	keystroke	Key.space	n/a
441.0115	0.135	882023	keystroke	e	n/a
441.1165	0.06	882233	keystroke	f	n/a
441.2365	0.105	882473	keystroke	f	n/a
441.3565	0.135	882713	keystroke	o	n/a
441.4315	0.105	882863	keystroke	r	n/a
441.6415	0.075	883283	keystroke	t	n/a
441.776	0.12	883552	keystroke	s	n/a
441.836	0.15	883672	keystroke	Key.space	n/a
441.941	0.15	883882	keystroke	p	n/a
442.106	0.09	884212	keystroke	r	n/a
442.166	0.15	884332	keystroke	e	n/a
442.331	0.09	884662	keystroke	m	n/a
442.391	0.135	884782	keystroke	i	n/a
442.466	0.12	884932	keystroke	e	n/a
442.541	0.12	885082	keystroke	r	n/a
442.646	0.135	885292	keystroke	Key.space	n/a
442.856	0.12	885712	keystroke	d	n/a
442.946	0.135	885892	keystroke	e	n/a
443.126	0.15	886252	keystroke	l	n/a
443.186	0.135	886372	keystroke	i	n/a
443.246	0.09	886492	keystroke	v	n/a
443.351	0.135	886702	keystroke	e	n/a
443.456	0.105	886912	keystroke	r	n/a
443.501	0.09	887002	keystroke	i	n/a
443.531	0.12	887062	keystroke	n	n/a
443.681	0.0895	887362	keystroke	g	n/a
444.0555	0.12	888111	keystroke	Key.enter	n/a
444.182	4.0585	888364	prompt	n/a	enjoyed away breakdown formatting\n
444.8805	0.075	889761	keystroke	e	n/a
444.9255	0.135	889851	keystroke	n	n/a
445.0305	0.09	890061	keystroke	j	n/a
445.0905	0.18	890181	keystroke	o	n/a
445.2405	0.12	890481	keystroke	y	n/a
445.3455	0.12	890691	keystroke	e	n/a
445.4355	0.12	890871	keystroke	d	n/a
445.5405	0.165	891081	keystroke	Key.space	n/a
445.6605	0.105	891321	keystroke	a	n/a
445.7505	0.1495	891501	keystroke	w	n/a
445.855	0.135	891710	keystroke	a	n/a
445.915	0.09	891830	keystroke	y	n/a
445.975	0.12	891950	keystroke	Key.space	n/a
446.155	0.135	892310	keystroke	b	n/a
446.26	0.09	892520	keystroke	r	n/a
446.305	0.165	892610	keystroke	e	n/a
446.365	0.135	892730	keystroke	a	n/a
446.41	0.15	892820	keystroke	k	n/a
446.71	0.12	893420	keystroke	d	n/a
446.785	0.12	893570	keystroke	o	n/a
446.89	0.105	893780	keystroke	w	n/a
446.95	0.075	893900	keystroke	n	n/a
447.1	0.135	894200	keystroke	Key.space	n/a
447.205	0.09	894410	keystroke	f	n/a
447.28	0.135	894560	keystroke	o	n/a
447.4	0.09	894800	keystroke	r	n/a
447.46	0.1195	894920	keystroke	m	n/a
447.5645	0.135	895129	keystroke	a	n/a
447.6695	0.06	895339	keystroke	t	n/a
447.8195	0.105	895639	keystroke	t	n/a
447.8795	0.09	895759	keystroke	i	n/a
447.9095	0.135	895819	keystroke	n	n/a
448.0295	0.075	896059	keystroke	g	n/a
448.1195	0.12	896239	keystroke	Key.enter	n/a
448.245	4.7645	896490	prompt	n/a	results cons coordinator destroy\n
448.9145	0.105	897829	keystroke	r	n/a
449.0045	0.105	898009	keystroke	e	n/a
449.2145	0.15	898429	keystroke	s	n/a
449.3195	0.165	898639	keystroke	u	n/a
449.4245	0.135	898849	keystroke	l	n/a
449.4995	0.105	898999	keystroke	t	n/a
449.6195	0.135	899239	keystroke	s	n/a
449.7395	0.12	899479	keystroke	Key.space	n/a
449.9345	0.135	899869	keystroke	c	n/a
449.9945	0.135	899989	keystroke	o	n/a
450.0845	0.12	900169	keystroke	n	n/a
450.1895	0.165	900379	keystroke	s	n/a
450.3995	0.12	900799	keystroke	Key.space	n/a
450.729	0.105	901458	keystroke	c	n/a
450.819	0.075	901638	keystroke	o	n/a
450.969	0.12	901938	keystroke	o	n/a
451.104	0.075	902208	keystroke	r	n/a
451.314	0.09	902628	keystroke	d	n/a
451.359	0.12	902718	keystroke	i	n/a
451.419	0.12	902838	keystroke	n	n/a
451.494	0.12	902988	keystroke	a	n/a
451.569	0.075	903138	keystroke	t	n/a
451.659	0.12	903318	keystroke	o	n/a
451.734	0.105	903468	keystroke	r	n/a
451.809	0.105	903618	keystroke	Key.space	n/a
451.9735	0.135	903947	keystroke	d	n/a
452.0635	0.12	904127	keystroke	e	n/a
452.2735	0.12	904547	keystroke	s	n/a
452.3785	0.09	904757	keystroke	t	n/a
452.5285	0.135	905057	keystroke	r	n/a
452.5885	0.12	905177	keystroke	o	n/a
452.6785	0.075	905357	keystroke	y	n/a
452.8885	0.12	905777	keystroke	Key.enter	n/a
453.0155	3.9535	906031	prompt	n/a	altered alone jean advert\n
453.6235	0.12	907247	keystroke	a	n/a
453.6985	0.165	907397	keystroke	l	n/a
453.8185	0.105	907637	keystroke	t	n/a
453.9085	0.135	907817	keystroke	e	n/a
454.0135	0.12	908027	keystroke	r	n/a
454.1335	0.15	908267	keystroke	e	n/a
454.2385	0.105	908477	keystroke	d	n/a
454.3135	0.135	908627	keystroke	Key.space	n/a
454.4785	0.075	908957	keystroke	a	n/a
454.4935	0.165	908987	keystroke	l	n/a
454.6435	0.15	909287	keystroke	o	n/a
454.7185	0.105	909437	keystroke	n	n/a
454.7785	0.0895	909557	keystroke	e	n/a
454.883	0.12	909766	keystroke	Key.space	n/a
454.958	0.135	909916	keystroke	j	n/a
455.0485	0.1495	910097	keystroke	e	n/a
455.108	0.12	910216	keystroke	a	n/a
455.168	0.09	910336	keystroke	n	n/a
455.348	0.105	910696	keystroke	Key.space	n/a
455.423	0.15	910846	keystroke	a	n/a
455.558	0.105	911116	keystroke	d	n/a
455.768	0.075	911536	keystroke	v	n/a
455.888	0.15	911776	keystroke	e	n/a
456.023	0.09	912046	keystroke	r	n/a
456.203	0.075	912406	keystroke	t	n/a
456.863	0.105	913726	keystroke	Key.enter	n/a
456.974	5.5885	913948	prompt	n/a	directories early burden picked\n
457.583	0.135	915166	keystroke	d	n/a
457.748	0.135	915496	keystroke	i	n/a
457.868	0.135	915736	keystroke	r	n/a
457.973	0.2395	915946	keystroke	e	n/a
458.1975	0.06	916395	keystroke	c	n/a
458.4075	0.075	916815	keystroke	t	n/a
458.4675	0.12	916935	keystroke	o	n/a
458.6025	0.12	917205	keystroke	r	n/a
458.6775	0.105	917355	keystroke	i	n/a
458.7375	0.105	917475	keystroke	e	n/a
458.9325	0.105	917865	keystroke	s	n/a
458.9475	0.075	917895	keystroke	Key.space	n/a
459.5775	0.18	919155	keystroke	e	n/a
459.6525	0.135	919305	keystroke	a	n/a
459.7275	0.105	919455	keystroke	r	n/a
459.7725	0.15	919545	keystroke	l	n/a
459.8775	0.09	919755	keystroke	y	n/a
459.9225	0.135	919845	keystroke	Key.space	n/a
460.1475	0.09	920295	keystroke	b	n/a
460.342	0.135	920684	keystroke	u	n/a
460.417	0.105	920834	keystroke	r	n/a
460.642	0.135	921284	keystroke	d	n/a
460.717	0.09	921434	keystroke	n	n/a
460.792	0.105	921584	keystroke	e	n/a
461.182	0.09	922364	keystroke	Key.backspace	n/a
461.332	0.09	922664	keystroke	Key.backspace	n/a
461.422	0.105	922844	keystroke	e	n/a
461.482	0.105	922964	keystroke	n	n/a
461.662	0.12	923324	keystroke	Key.space	n/a
461.737	0.15	923474	keystroke	p	n/a
461.827	0.105	923654	keystroke	i	n/a
461.872	0.135	923744	keystroke	c	n/a
462.037	0.12	924074	keystroke	k	n/a
462.097	0.1045	924194	keystroke	e	n/a
462.157	0.1045	924314	keystroke	d	n/a
462.487	0.075	924974	keystroke	Key.enter	n/a
462.5675	4.2695	925135	prompt	n/a	ideas drum experts arrested\n
463.2665	0.135	926533	keystroke	i	n/a
463.3265	0.135	926653	keystroke	d	n/a
463.4165	0.135	926833	keystroke	e	n/a
463.4765	0.18	926953	keystroke	a	n/a
463.6265	0.12	927253	keystroke	s	n/a
463.7165	0.12	927433	keystroke	Key.space	n/a
463.8215	0.105	927643	keystroke	d	n/a
464.0015	0.135	928003	keystroke	r	n/a
464.0465	0.15	928093	keystroke	u	n/a
464.1365	0.12	928273	keystroke	m	n/a
464.3465	0.12	928693	keystroke	Key.space	n/a
464.5715	0.09	929143	keystroke	e	n/a
464.7965	0.105	929593	keystroke	x	n/a
464.8415	0.135	929683	keystroke	p	n/a
465.0065	0.15	930013	keystroke	e	n/a
465.1115	0.105	930223	keystroke	r	n/a
465.306	0.075	930612	keystroke	t	n/a
465.486	0.09	930972	keystroke	s	n/a
465.546	0.135	931092	keystroke	Key.space	n/a
465.666	0.135	931332	keystroke	a	n/a
465.771	0.06	931542	keystroke	r	n/a
465.891	0.105	931782	keystroke	r	n/a
465.936	0.135	931872	keystroke	e	n/a
466.161	0.15	932322	keystroke	s	n/a
466.326	0.075	932652	keystroke	t	n/a
466.431	0.15	932862	keystroke	e	n/a
466.551	0.12	933102	keystroke	d	n/a
