onset	duration	sample	value	key	prompt_text
1.784	11.1275	3568	prompt	n/a	the quick brown fox jumps over a lazy dog\n
4.251	0.028	8502	keystroke_t	t	n/a
4.309	0.1195	8618	keystroke_h	h	n/a
4.4135	0.105	8827	keystroke_e	e	n/a
4.5935	0.0895	9187	keystroke_Key.space	Key.space	n/a
5.701	0.105	11402	keystroke_q	q	n/a
5.9405	0.1705	11881	keystroke_u	u	n/a
6.0455	0.1405	12091	keystroke_i	i	n/a
6.216	0.09	12432	keystroke_c	c	n/a
6.366	0.1345	12732	keystroke_k	k	n/a
6.5455	0.203	13091	keystroke_Key.space	Key.space	n/a
6.7335	0.12	13467	keystroke_b	b	n/a
6.8835	0.1045	13767	keystroke_r	r	n/a
7.018	0.1345	14036	keystroke_o	o	n/a
7.123	0.1195	14246	keystroke_w	w	n/a
7.2575	0.105	14515	keystroke_n	n	n/a
7.467	0.1355	14934	keystroke_Key.space	Key.space	n/a
7.6475	0.105	15295	keystroke_f	f	n/a
7.7675	0.1345	15535	keystroke_o	o	n/a
7.917	0.105	15834	keystroke_x	x	n/a
8.037	0.1645	16074	keystroke_Key.space	Key.space	n/a
8.651	0.0895	17302	keystroke_j	j	n/a
8.9055	0.1665	17811	keystroke_u	u	n/a
9.042	0.165	18084	keystroke_m	m	n/a
9.177	0.1195	18354	keystroke_p	p	n/a
9.252	0.1045	18504	keystroke_s	s	n/a
9.4765	0.135	18953	keystroke_Key.space	Key.space	n/a
9.5965	0.1045	19193	keystroke_o	o	n/a
9.671	0.135	19342	keystroke_v	v	n/a
9.866	0.135	19732	keystroke_e	e	n/a
9.9705	0.0905	19941	keystroke_r	r	n/a
10.1355	0.12	20271	keystroke_Key.space	Key.space	n/a
10.2855	0.1345	20571	keystroke_a	a	n/a
10.405	0.12	20810	keystroke_Key.space	Key.space	n/a
10.585	0.12	21170	keystroke_l	l	n/a
10.69	0.1645	21380	keystroke_a	a	n/a
10.8245	0.121	21649	keystroke_z	z	n/a
10.9295	0.1055	21859	keystroke_y	y	n/a
11.02	0.12	22040	keystroke_Key.space	Key.space	n/a
11.17	0.105	22340	keystroke_d	d	n/a
11.26	0.0895	22520	keystroke_o	o	n/a
11.4095	0.061	22819	keystroke_g	g	n/a
12.8495	0.0605	25699	keystroke_Key.enter	Key.enter	n/a
12.917	6.174	25834	prompt	n/a	counties destroyed brother headline\n
13.99	0.12	27980	keystroke_c	c	n/a
14.125	0.1345	28250	keystroke_o	o	n/a
14.2445	0.1355	28489	keystroke_u	u	n/a
14.3195	0.1355	28639	keystroke_n	n	n/a
14.41	0.12	28820	keystroke_t	t	n/a
14.545	0.1195	29090	keystroke_i	i	n/a
14.6045	0.09	29209	keystroke_e	e	n/a
14.8145	0.0905	29629	keystroke_s	s	n/a
14.875	0.135	29750	keystroke_Key.space	Key.space	n/a
15.055	0.1345	30110	keystroke_d	d	n/a
15.2045	0.1055	30409	keystroke_e	e	n/a
15.4445	0.12	30889	keystroke_s	s	n/a
15.5795	0.0745	31159	keystroke_t	t	n/a
15.759	0.121	31518	keystroke_r	r	n/a
15.895	0.1345	31790	keystroke_o	o	n/a
15.9695	0.12	31939	keystroke_y	y	n/a
16.0595	0.105	32119	keystroke_e	e	n/a
16.1345	0.1045	32269	keystroke_d	d	n/a
16.224	0.121	32448	keystroke_Key.space	Key.space	n/a
16.8395	0.09	33679	keystroke_b	b	n/a
17.199	0.0755	34398	keystroke_r	r	n/a
17.3495	0.1345	34699	keystroke_o	o	n/a
17.514	0.12	35028	keystroke_t	t	n/a
17.664	0.121	35328	keystroke_h	h	n/a
17.7995	0.15	35599	keystroke_e	e	n/a
17.9195	0.105	35839	keystroke_r	r	n/a
18.0245	0.1345	36049	keystroke_Key.space	Key.space	n/a
18.129	0.135	36258	keystroke_h	h	n/a
18.219	0.211	36438	keystroke_e	e	n/a
18.295	0.1495	36590	keystroke_a	a	n/a
18.43	0.0595	36860	keystroke_d	d	n/a
18.43	0.1645	36860	keystroke_l	l	n/a
18.4895	0.15	36979	keystroke_i	i	n/a
18.5945	0.12	37189	keystroke_n	n	n/a
18.6845	0.075	37369	keystroke_e	e	n/a
18.9545	0.1345	37909	keystroke_Key.enter	Key.enter	n/a
19.0965	9.4285	38193	prompt	n/a	commented release arbor supplied\n
19.659	0.1205	39318	keystroke_c	c	n/a
19.7495	0.12	39499	keystroke_o	o	n/a
19.8395	0.105	39679	keystroke_m	m	n/a
20.0045	0.1045	40009	keystroke_m	m	n/a
20.094	0.105	40188	keystroke_e	e	n/a
20.184	0.12	40368	keystroke_n	n	n/a
20.2445	0.1345	40489	keystroke_d	d	n/a
20.394	0.09	40788	keystroke_e	e	n/a
20.484	0.12	40968	keystroke_t	t	n/a
20.934	0.0895	41868	keystroke_=	=	n/a
21.1135	0.0905	42227	keystroke_=	=	n/a
22.0135	0.075	44027	keystroke_Key.backspace	Key.backspace	n/a
22.1945	0.06	44389	keystroke_Key.backspace	Key.backspace	n/a
22.3595	0.0595	44719	keystroke_Key.backspace	Key.backspace	n/a
22.524	0.06	45048	keystroke_Key.backspace	Key.backspace	n/a
22.674	0.09	45348	keystroke_Key.backspace	Key.backspace	n/a
23.4685	0.1345	46937	keystroke_t	t	n/a
23.619	0.165	47238	keystroke_e	e	n/a
23.769	0.1195	47538	keystroke_d	d	n/a
23.9035	0.09	47807	keystroke_Key.space	Key.space	n/a
24.0685	0.105	48137	keystroke_r	r	n/a
24.1585	0.09	48317	keystroke_e	e	n/a
24.2635	0.12	48527	keystroke_l	l	n/a
24.3535	0.12	48707	keystroke_e	e	n/a
24.4435	0.18	48887	keystroke_a	a	n/a
24.5935	0.075	49187	keystroke_s	s	n/a
24.7435	0.105	49487	keystroke_e	e	n/a
24.8935	0.1195	49787	keystroke_Key.space	Key.space	n/a
25.043	0.1355	50086	keystroke_a	a	n/a
25.1635	0.105	50327	keystroke_r	r	n/a
25.2535	0.12	50507	keystroke_b	b	n/a
25.3585	0.105	50717	keystroke_o	o	n/a
25.4185	0.105	50837	keystroke_r	r	n/a
25.5685	0.105	51137	keystroke_Key.space	Key.space	n/a
25.6885	0.105	51377	keystroke_s	s	n/a
25.8385	0.1195	51677	keystroke_u	u	n/a
25.928	0.075	51856	keystroke_p	p	n/a
26.079	0.0895	52158	keystroke_p	p	n/a
26.2885	0.135	52577	keystroke_l	l	n/a
26.3635	0.12	52727	keystroke_i	i	n/a
26.4385	0.12	52877	keystroke_e	e	n/a
26.514	0.1045	53028	keystroke_d	d	n/a
28.448	0.0755	56896	keystroke_Key.enter	Key.enter	n/a
28.53	7.1045	57060	prompt	n/a	geneva harry tender receptor\n
29.828	0.09	59656	keystroke_g	g	n/a
29.9785	0.1045	59957	keystroke_e	e	n/a
30.098	0.12	60196	keystroke_n	n	n/a
30.203	0.105	60406	keystroke_e	e	n/a
30.293	0.1355	60586	keystroke_v	v	n/a
30.4435	0.105	60887	keystroke_a	a	n/a
30.683	0.12	61366	keystroke_Key.space	Key.space	n/a
30.923	0.135	61846	keystroke_h	h	n/a
31.103	0.135	62206	keystroke_a	a	n/a
31.253	0.06	62506	keystroke_r	r	n/a
31.4025	0.0905	62805	keystroke_r	r	n/a
31.643	0.105	63286	keystroke_y	y	n/a
31.748	0.1195	63496	keystroke_Key.space	Key.space	n/a
32.198	0.105	64396	keystroke_t	t	n/a
32.258	0.15	64516	keystroke_e	e	n/a
32.378	0.12	64756	keystroke_n	n	n/a
32.483	0.135	64966	keystroke_d	d	n/a
32.588	0.15	65176	keystroke_e	e	n/a
32.693	0.105	65386	keystroke_r	r	n/a
32.768	0.1205	65536	keystroke_Key.space	Key.space	n/a
33.218	0.12	66436	keystroke_r	r	n/a
33.323	0.105	66646	keystroke_e	e	n/a
33.533	0.09	67066	keystroke_c	c	n/a
33.593	0.12	67186	keystroke_e	e	n/a
33.893	0.12	67786	keystroke_p	p	n/a
34.028	0.075	68056	keystroke_t	t	n/a
34.1625	0.135	68325	keystroke_o	o	n/a
34.2675	0.0905	68535	keystroke_r	r	n/a
35.573	0.06	71146	keystroke_Key.enter	Key.enter	n/a
35.64	6.519	71280	prompt	n/a	ellen harmful attachment milk\n
36.683	0.105	73366	keystroke_e	e	n/a
36.8635	0.06	73727	keystroke_l	l	n/a
37.0285	0.0895	74057	keystroke_l	l	n/a
37.088	0.105	74176	keystroke_e	e	n/a
37.268	0.105	74536	keystroke_n	n	n/a
37.613	0.03	75226	keystroke_Key.space	Key.space	n/a
37.628	0.105	75256	keystroke_h	h	n/a
37.703	0.12	75406	keystroke_a	a	n/a
37.808	0.105	75616	keystroke_r	r	n/a
37.913	0.075	75826	keystroke_m	m	n/a
38.168	0.1045	76336	keystroke_f	f	n/a
38.258	0.15	76516	keystroke_u	u	n/a
38.378	0.1495	76756	keystroke_l	l	n/a
38.4975	0.12	76995	keystroke_Key.space	Key.space	n/a
38.6325	0.1655	77265	keystroke_a	a	n/a
38.7675	0.1355	77535	keystroke_t	t	n/a
39.023	0.09	78046	keystroke_t	t	n/a
39.1875	0.12	78375	keystroke_a	a	n/a
39.368	0.12	78736	keystroke_c	c	n/a
39.548	0.1195	79096	keystroke_h	h	n/a
39.7425	0.1355	79485	keystroke_m	m	n/a
39.893	0.1045	79786	keystroke_e	e	n/a
39.968	0.1045	79936	keystroke_n	n	n/a
40.0875	0.075	80175	keystroke_t	t	n/a
40.1775	0.12	80355	keystroke_Key.space	Key.space	n/a
40.538	0.1195	81076	keystroke_m	m	n/a
40.6425	0.15	81285	keystroke_i	i	n/a
40.7625	0.1655	81525	keystroke_l	l	n/a
40.898	0.1345	81796	keystroke_k	k	n/a
42.0535	0.1045	84107	keystroke_Key.enter	Key.enter	n/a
42.164	6.626	84328	prompt	n/a	workshops moss incentives drugs\n
43.2835	0.105	86567	keystroke_w	w	n/a
43.523	0.075	87046	keystroke_o	o	n/a
43.658	0.1355	87316	keystroke_r	r	n/a
43.8085	0.1345	87617	keystroke_k	k	n/a
44.033	0.09	88066	keystroke_s	s	n/a
44.123	0.1055	88246	keystroke_h	h	n/a
44.378	0.21	88756	keystroke_o	o	n/a
44.513	0.135	89026	keystroke_p	p	n/a
44.603	0.09	89206	keystroke_s	s	n/a
44.753	0.135	89506	keystroke_Key.space	Key.space	n/a
44.978	0.135	89956	keystroke_m	m	n/a
45.053	0.165	90106	keystroke_o	o	n/a
45.158	0.105	90316	keystroke_s	s	n/a
45.353	0.075	90706	keystroke_s	s	n/a
45.413	0.135	90826	keystroke_Key.space	Key.space	n/a
45.653	0.12	91306	keystroke_i	i	n/a
45.743	0.105	91486	keystroke_n	n	n/a
45.818	0.165	91636	keystroke_c	c	n/a
45.968	0.12	91936	keystroke_e	e	n/a
46.073	0.12	92146	keystroke_n	n	n/a
46.208	0.09	92416	keystroke_t	t	n/a
46.313	0.105	92626	keystroke_i	i	n/a
46.463	0.09	92926	keystroke_v	v	n/a
46.838	0.09	93676	keystroke_e	e	n/a
47.048	0.09	94096	keystroke_s	s	n/a
47.108	0.135	94216	keystroke_Key.space	Key.space	n/a
47.258	0.12	94516	keystroke_d	d	n/a
47.453	0.105	94906	keystroke_r	r	n/a
47.543	0.0905	95086	keystroke_u	u	n/a
47.6935	0.0745	95387	keystroke_g	g	n/a
47.843	0.09	95686	keystroke_s	s	n/a
48.668	0.12	97336	keystroke_Key.enter	Key.enter	n/a
48.7985	7.55	97597	prompt	n/a	census industry computation phrase\n
49.523	0.12	99046	keystroke_c	c	n/a
50.078	0.06	100156	keystroke_e	e	n/a
50.303	0.135	100606	keystroke_n	n	n/a
50.4675	0.1055	100935	keystroke_s	s	n/a
50.543	0.12	101086	keystroke_u	u	n/a
50.663	0.105	101326	keystroke_s	s	n/a
50.783	0.1195	101566	keystroke_Key.space	Key.space	n/a
51.023	0.135	102046	keystroke_i	i	n/a
51.128	0.1195	102256	keystroke_n	n	n/a
51.2625	0.12	102525	keystroke_d	d	n/a
51.3975	0.1055	102795	keystroke_u	u	n/a
51.4575	0.165	102915	keystroke_s	s	n/a
51.6075	0.09	103215	keystroke_t	t	n/a
51.7875	0.105	103575	keystroke_r	r	n/a
51.9075	0.1055	103815	keystroke_y	y	n/a
52.028	0.12	104056	keystroke_Key.space	Key.space	n/a
52.553	0.12	105106	keystroke_c	c	n/a
53.378	0.165	106756	keystroke_o	o	n/a
53.498	0.135	106996	keystroke_m	m	n/a
53.618	0.15	107236	keystroke_p	p	n/a
53.753	0.12	107506	keystroke_u	u	n/a
53.888	0.105	107776	keystroke_t	t	n/a
54.023	0.12	108046	keystroke_a	a	n/a
54.113	0.09	108226	keystroke_t	t	n/a
54.173	0.15	108346	keystroke_i	i	n/a
54.218	0.12	108436	keystroke_o	o	n/a
54.308	0.105	108616	keystroke_n	n	n/a
54.503	0.135	109006	keystroke_Key.space	Key.space	n/a
54.788	0.105	109576	keystroke_p	p	n/a
54.983	0.12	109966	keystroke_h	h	n/a
55.088	0.12	110176	keystroke_r	r	n/a
55.193	0.1495	110386	keystroke_a	a	n/a
55.3125	0.09	110625	keystroke_s	s	n/a
55.5075	0.09	111015	keystroke_e	e	n/a
56.2425	0.105	112485	keystroke_Key.enter	Key.enter	n/a
56.3555	10.2085	112711	prompt	n/a	clean series types milwaukee\n
57.548	0.09	115096	keystroke_c	c	n/a
57.653	0.12	115306	keystroke_l	l	n/a
57.8325	0.1355	115665	keystroke_e	e	n/a
57.893	0.15	115786	keystroke_a	a	n/a
57.983	0.105	115966	keystroke_n	n	n/a
58.178	0.12	116356	keystroke_Key.space	Key.space	n/a
58.283	0.15	116566	keystroke_s	s	n/a
58.508	0.12	117016	keystroke_e	e	n/a
58.598	0.12	117196	keystroke_r	r	n/a
58.673	0.1195	117346	keystroke_i	i	n/a
58.7625	0.0905	117525	keystroke_e	e	n/a
58.943	0.1045	117886	keystroke_s	s	n/a
58.988	0.1045	117976	keystroke_Key.space	Key.space	n/a
59.1825	0.09	118365	keystroke_t	t	n/a
59.4375	0.105	118875	keystroke_y	y	n/a
59.7525	0.12	119505	keystroke_p	p	n/a
59.8425	0.0905	119685	keystroke_e	e	n/a
60.0525	0.075	120105	keystroke_s	s	n/a
60.1275	0.105	120255	keystroke_Key.space	Key.space	n/a
60.413	0.135	120826	keystroke_m	m	n/a
60.533	0.1645	121066	keystroke_i	i	n/a
60.6375	0.12	121275	keystroke_l	l	n/a
60.878	0.12	121756	keystroke_q	q	n/a
61.223	0.12	122446	keystroke_a	a	n/a
61.583	0.09	123166	keystroke_=	=	n/a
62.468	0.105	124936	keystroke_Key.backspace	Key.backspace	n/a
62.6775	0.075	125355	keystroke_Key.backspace	Key.backspace	n/a
62.8725	0.0595	125745	keystroke_Key.backspace	Key.backspace	n/a
64.177	0.105	128354	keystroke_w	w	n/a
64.402	0.12	128804	keystroke_a	a	n/a
64.807	0.106	129614	keystroke_u	u	n/a
64.987	0.12	129974	keystroke_k	k	n/a
65.227	0.1205	130454	keystroke_e	e	n/a
65.4375	0.1045	130875	keystroke_e	e	n/a
66.4275	0.135	132855	keystroke_Key.enter	Key.enter	n/a
66.57	7.524	133140	prompt	n/a	budget equation testimonials what's\n
67.688	0.149	135376	keystroke_b	b	n/a
68.108	0.089	136216	keystroke_u	u	n/a
68.212	0.135	136424	keystroke_d	d	n/a
68.527	0.09	137054	keystroke_g	g	n/a
68.647	0.1505	137294	keystroke_e	e	n/a
68.752	0.0905	137504	keystroke_t	t	n/a
68.8275	0.12	137655	keystroke_Key.space	Key.space	n/a
69.0525	0.0895	138105	keystroke_e	e	n/a
69.322	0.105	138644	keystroke_q	q	n/a
69.562	0.12	139124	keystroke_u	u	n/a
69.712	0.12	139424	keystroke_a	a	n/a
69.847	0.09	139694	keystroke_t	t	n/a
69.907	0.195	139814	keystroke_i	i	n/a
70.012	0.105	140024	keystroke_o	o	n/a
70.087	0.12	140174	keystroke_n	n	n/a
70.2975	0.105	140595	keystroke_Key.space	Key.space	n/a
70.5375	0.121	141075	keystroke_t	t	n/a
70.7025	0.12	141405	keystroke_e	e	n/a
70.9275	0.105	141855	keystroke_s	s	n/a
71.0475	0.09	142095	keystroke_t	t	n/a
71.1525	0.18	142305	keystroke_i	i	n/a
71.3025	0.12	142605	keystroke_m	m	n/a
71.4675	0.135	142935	keystroke_o	o	n/a
71.5725	0.135	143145	keystroke_n	n	n/a
71.6925	0.12	143385	keystroke_i	i	n/a
71.8725	0.121	143745	keystroke_a	a	n/a
72.0075	0.075	144015	keystroke_l	l	n/a
72.1275	0.09	144255	keystroke_s	s	n/a
72.3075	0.105	144615	keystroke_Key.space	Key.space	n/a
72.4425	0.151	144885	keystroke_w	w	n/a
72.8025	0.12	145605	keystroke_h	h	n/a
72.9085	0.105	145817	keystroke_a	a	n/a
73.0135	0.089	146027	keystroke_t	t	n/a
73.7475	0.09	147495	keystroke_'	'	n/a
73.8975	0.09	147795	keystroke_s	s	n/a
74.0025	0.09	148005	keystroke_Key.enter	Key.enter	n/a
74.0985	7.4205	148197	prompt	n/a	lucky provinces interests precise\n
75.2485	0.149	150497	keystroke_l	l	n/a
75.5635	0.104	151127	keystroke_u	u	n/a
75.7125	0.121	151425	keystroke_c	c	n/a
75.8025	0.09	151605	keystroke_k	k	n/a
75.9685	0.12	151937	keystroke_y	y	n/a
76.0575	0.135	152115	keystroke_Key.space	Key.space	n/a
76.552	0.106	153104	keystroke_p	p	n/a
76.672	0.105	153344	keystroke_r	r	n/a
76.837	0.106	153674	keystroke_o	o	n/a
77.108	0.104	154216	keystroke_v	v	n/a
77.302	0.106	154604	keystroke_i	i	n/a
77.392	0.135	154784	keystroke_n	n	n/a
77.512	0.136	155024	keystroke_c	c	n/a
77.692	0.076	155384	keystroke_e	e	n/a
77.887	0.09	155774	keystroke_s	s	n/a
78.022	0.12	156044	keystroke_Key.space	Key.space	n/a
78.3535	0.15	156707	keystroke_i	i	n/a
78.4725	0.136	156945	keystroke_n	n	n/a
78.5775	0.106	157155	keystroke_t	t	n/a
78.6975	0.136	157395	keystroke_e	e	n/a
78.8175	0.1205	157635	keystroke_r	r	n/a
78.923	0.09	157846	keystroke_e	e	n/a
79.1335	0.105	158267	keystroke_s	s	n/a
79.2235	0.075	158447	keystroke_t	t	n/a
79.3285	0.09	158657	keystroke_s	s	n/a
79.477	0.135	158954	keystroke_Key.space	Key.space	n/a
79.9435	0.134	159887	keystroke_p	p	n/a
80.1385	0.0895	160277	keystroke_r	r	n/a
80.1685	0.1345	160337	keystroke_e	e	n/a
80.467	0.091	160934	keystroke_c	c	n/a
80.8735	0.075	161747	keystroke_i	i	n/a
81.0675	0.091	162135	keystroke_s	s	n/a
81.2785	0.075	162557	keystroke_e	e	n/a
81.3975	0.12	162795	keystroke_Key.enter	Key.enter	n/a
81.524	11.9205	163048	prompt	n/a	keith identified virtually verde\n
83.303	0.09	166606	keystroke_k	k	n/a
83.483	0.12	166966	keystroke_e	e	n/a
83.618	0.075	167236	keystroke_i	i	n/a
83.738	0.1055	167476	keystroke_t	t	n/a
83.8585	0.12	167717	keystroke_h	h	n/a
83.933	0.12	167866	keystroke_Key.space	Key.space	n/a
84.2635	0.12	168527	keystroke_i	i	n/a
84.7585	0.09	169517	keystroke_d	d	n/a
84.9985	0.105	169997	keystroke_e	e	n/a
85.1635	0.12	170327	keystroke_n	n	n/a
85.3735	0.105	170747	keystroke_t	t	n/a
85.5085	0.09	171017	keystroke_i	i	n/a
85.6135	0.12	171227	keystroke_f	f	n/a
85.6885	0.105	171377	keystroke_i	i	n/a
85.7935	0.12	171587	keystroke_e	e	n/a
85.8835	0.105	171767	keystroke_d	d	n/a
85.9735	0.105	171947	keystroke_Key.space	Key.space	n/a
86.3035	0.015	172607	keystroke_v	v	n/a
86.9035	0.09	173807	keystroke_i	i	n/a
87.0535	0.105	174107	keystroke_r	r	n/a
87.2935	0.06	174587	keystroke_t	t	n/a
87.3085	0.045	174617	keystroke_r	r	n/a
87.3685	0.12	174737	keystroke_u	u	n/a
88.088	0.105	176176	keystroke_=	=	n/a
88.448	0.045	176896	keystroke_=	=	n/a
89.2285	0.09	178457	keystroke_Key.backspace	Key.backspace	n/a
89.4385	0.045	178877	keystroke_Key.backspace	Key.backspace	n/a
89.5885	0.09	179177	keystroke_Key.backspace	Key.backspace	n/a
89.8585	0.075	179717	keystroke_Key.backspace	Key.backspace	n/a
90.6385	0.135	181277	keystroke_u	u	n/a
90.8635	0.09	181727	keystroke_a	a	n/a
90.9085	0.075	181817	keystroke_l	l	n/a
91.0585	0.105	182117	keystroke_l	l	n/a
91.1035	0.12	182207	keystroke_y	y	n/a
91.1935	0.12	182387	keystroke_Key.space	Key.space	n/a
91.3285	0.12	182657	keystroke_v	v	n/a
91.5535	0.12	183107	keystroke_e	e	n/a
91.6585	0.12	183317	keystroke_r	r	n/a
92.108	0.12	184216	keystroke_d	d	n/a
92.198	0.0905	184396	keystroke_e	e	n/a
93.3385	0.105	186677	keystroke_Key.enter	Key.enter	n/a
93.4505	8.679	186901	prompt	n/a	keyword vaccine stationery successful\n
94.5085	0.105	189017	keystroke_k	k	n/a
94.7485	0.09	189497	keystroke_e	e	n/a
94.9135	0.105	189827	keystroke_y	y	n/a
95.1535	0.09	190307	keystroke_w	w	n/a
95.2585	0.12	190517	keystroke_o	o	n/a
95.4235	0.105	190847	keystroke_r	r	n/a
95.6335	0.105	191267	keystroke_d	d	n/a
95.7235	0.15	191447	keystroke_Key.space	Key.space	n/a
96.0235	0.105	192047	keystroke_v	v	n/a
96.1735	0.12	192347	keystroke_a	a	n/a
96.2785	0.105	192557	keystroke_c	c	n/a
96.4435	0.12	192887	keystroke_c	c	n/a
96.5185	0.15	193037	keystroke_i	i	n/a
96.6385	0.12	193277	keystroke_n	n	n/a
96.7735	0.12	193547	keystroke_e	e	n/a
96.9235	0.12	193847	keystroke_Key.space	Key.space	n/a
97.2985	0.15	194597	keystroke_s	s	n/a
97.4785	0.09	194957	keystroke_t	t	n/a
97.6435	0.12	195287	keystroke_a	a	n/a
97.7785	0.105	195557	keystroke_t	t	n/a
97.8535	0.195	195707	keystroke_i	i	n/a
97.9285	0.165	195857	keystroke_o	o	n/a
98.018	0.1205	196036	keystroke_n	n	n/a
98.1085	0.105	196217	keystroke_a	a	n/a
98.1835	0.09	196367	keystroke_t	t	n/a
98.6185	0.09	197237	keystroke_Key.backspace	Key.backspace	n/a
98.8435	0.075	197687	keystroke_r	r	n/a
99.0835	0.135	198167	keystroke_y	y	n/a
99.2485	0.105	198497	keystroke_Key.space	Key.space	n/a
99.4585	0.135	198917	keystroke_s	s	n/a
99.5785	0.12	199157	keystroke_u	u	n/a
99.7135	0.09	199427	keystroke_c	c	n/a
99.8485	0.165	199697	keystroke_c	c	n/a
99.9985	0.105	199997	keystroke_e	e	n/a
100.2235	0.09	200447	keystroke_s	s	n/a
100.3435	0.105	200687	keystroke_f	f	n/a
100.7635	0.09	201527	keystroke_Key.backspace	Key.backspace	n/a
101.0485	0.105	202097	keystroke_s	s	n/a
101.1985	0.06	202397	keystroke_f	f	n/a
101.3185	0.18	202637	keystroke_u	u	n/a
101.4685	0.15	202937	keystroke_l	l	n/a
102.0835	0.045	204167	keystroke_Key.enter	Key.enter	n/a
102.1365	9.518	204273	prompt	n/a	numbers insights featured roster\n
103.5835	0.15	207167	keystroke_n	n	n/a
103.7185	0.15	207437	keystroke_u	u	n/a
103.8385	0.135	207677	keystroke_m	m	n/a
104.0485	0.15	208097	keystroke_b	b	n/a
104.0785	0.06	208157	keystroke_h	h	n/a
104.1085	0.15	208217	keystroke_e	e	n/a
104.2135	0.105	208427	keystroke_r	r	n/a
104.4085	0.09	208817	keystroke_s	s	n/a
105.3985	0.06	210797	keystroke_Key.backspace	Key.backspace	n/a
105.5785	0.06	211157	keystroke_Key.backspace	Key.backspace	n/a
105.7435	0.06	211487	keystroke_Key.backspace	Key.backspace	n/a
105.9085	0.075	211817	keystroke_Key.backspace	Key.backspace	n/a
106.3885	0.135	212777	keystroke_e	e	n/a
106.5085	0.075	213017	keystroke_r	r	n/a
106.6585	0.09	213317	keystroke_s	s	n/a
106.9885	0.135	213977	keystroke_Key.space	Key.space	n/a
108.2335	0.075	216467	keystroke_i	i	n/a
108.2935	0.105	216587	keystroke_n	n	n/a
108.4585	0.105	216917	keystroke_s	s	n/a
108.5485	0.09	217097	keystroke_i	i	n/a
108.8035	0.135	217607	keystroke_g	g	n/a
108.8785	0.105	217757	keystroke_h	h	n/a
108.9535	0.105	217907	keystroke_t	t	n/a
109.1185	0.105	218237	keystroke_s	s	n/a
109.2385	0.105	218477	keystroke_Key.space	Key.space	n/a
109.5085	0.09	219017	keystroke_f	f	n/a
109.5535	0.195	219107	keystroke_e	e	n/a
109.6735	0.135	219347	keystroke_a	a	n/a
109.7935	0.09	219587	keystroke_t	t	n/a
109.8835	0.12	219767	keystroke_u	u	n/a
109.9735	0.105	219947	keystroke_r	r	n/a
110.0635	0.135	220127	keystroke_e	e	n/a
110.1835	0.12	220367	keystroke_d	d	n/a
110.2585	0.12	220517	keystroke_Key.space	Key.space	n/a
110.4085	0.12	220817	keystroke_r	r	n/a
110.4985	0.135	220997	keystroke_o	o	n/a
110.6035	0.12	221207	keystroke_s	s	n/a
110.7085	0.105	221417	keystroke_t	t	n/a
110.8435	0.09	221687	keystroke_e	e	n/a
110.9035	0.105	221807	keystroke_r	r	n/a
111.5635	0.0895	223127	keystroke_Key.enter	Key.enter	n/a
111.6595	6.31	223319	prompt	n/a	wayne cove cage springer\n
112.2985	0.12	224597	keystroke_w	w	n/a
112.4035	0.12	224807	keystroke_a	a	n/a
113.0035	0.105	226007	keystroke_y	y	n/a
113.0485	0.135	226097	keystroke_n	n	n/a
113.1685	0.09	226337	keystroke_e	e	n/a
113.4235	0.15	226847	keystroke_Key.space	Key.space	n/a
113.6485	0.12	227297	keystroke_c	c	n/a
113.7535	0.12	227507	keystroke_o	o	n/a
113.9035	0.12	227807	keystroke_v	v	n/a
114.0085	0.09	228017	keystroke_e	e	n/a
114.1135	0.105	228227	keystroke_Key.space	Key.space	n/a
114.2335	0.135	228467	keystroke_c	c	n/a
114.3235	0.135	228647	keystroke_a	a	n/a
114.5185	0.09	229037	keystroke_g	g	n/a
114.5635	0.105	229127	keystroke_e	e	n/a
114.6535	0.135	229307	keystroke_Key.space	Key.space	n/a
114.9235	0.09	229847	keystroke_c	c	n/a
114.9835	0.09	229967	keystroke_p	p	n/a
115.4785	0.09	230957	keystroke_Key.backspace	Key.backspace	n/a
115.7035	0.105	231407	keystroke_Key.backspace	Key.backspace	n/a
116.0035	0.075	232007	keystroke_s	s	n/a
116.1835	0.105	232367	keystroke_p	p	n/a
116.3185	0.105	232637	keystroke_r	r	n/a
116.3935	0.12	232787	keystroke_i	i	n/a
116.4835	0.105	232967	keystroke_n	n	n/a
116.5735	0.09	233147	keystroke_g	g	n/a
116.6785	0.15	233357	keystroke_e	e	n/a
116.8135	0.075	233627	keystroke_r	r	n/a
117.8785	0.09	235757	keystroke_Key.enter	Key.enter	n/a
117.975	8.155	235950	prompt	n/a	bronze walk performance curve\n
119.0935	0.105	238187	keystroke_b	b	n/a
119.3185	0.135	238637	keystroke_r	r	n/a
119.4685	0.15	238937	keystroke_o	o	n/a
119.6185	0.105	239237	keystroke_n	n	n/a
119.7535	0.105	239507	keystroke_z	z	n/a
120.0535	0.09	240107	keystroke_e	e	n/a
120.1285	0.165	240257	keystroke_Key.space	Key.space	n/a
120.3835	0.09	240767	keystroke_w	w	n/a
120.4285	0.135	240857	keystroke_a	a	n/a
120.5035	0.165	241007	keystroke_l	l	n/a
120.6085	0.12	241217	keystroke_k	k	n/a
120.6985	0.12	241397	keystroke_Key.space	Key.space	n/a
120.9535	0.075	241907	keystroke_o	o	n/a
121.0435	0.09	242087	keystroke_e	e	n/a
121.9585	0.075	243917	keystroke_Key.backspace	Key.backspace	n/a
122.1235	0.09	244247	keystroke_Key.backspace	Key.backspace	n/a
122.9635	0.105	245927	keystroke_p	p	n/a
123.1735	0.15	246347	keystroke_e	e	n/a
123.2935	0.105	246587	keystroke_r	r	n/a
123.6835	0.105	247367	keystroke_f	f	n/a
124.1035	0.12	248207	keystroke_o	o	n/a
124.2385	0.12	248477	keystroke_r	r	n/a
124.4185	0.12	248837	keystroke_m	m	n/a
124.5535	0.135	249107	keystroke_a	a	n/a
124.6735	0.105	249347	keystroke_n	n	n/a
124.7935	0.135	249587	keystroke_c	c	n/a
124.8685	0.135	249737	keystroke_e	e	n/a
124.9735	0.105	249947	keystroke_Key.space	Key.space	n/a
125.1085	0.135	250217	keystroke_c	c	n/a
125.2135	0.105	250427	keystroke_u	u	n/a
125.3485	0.105	250697	keystroke_r	r	n/a
125.6185	0.09	251237	keystroke_v	v	n/a
125.6635	0.09	251327	keystroke_e	e	n/a
126.0385	0.09	252077	keystroke_Key.enter	Key.enter	n/a
126.136	6.2335	252272	prompt	n/a	wrist declined magical matthew\n
126.8635	0.09	253727	keystroke_w	w	n/a
127.0585	0.09	254117	keystroke_r	r	n/a
127.8385	0.075	255677	keystroke_i	i	n/a
127.9585	0.15	255917	keystroke_s	s	n/a
128.0785	0.06	256157	keystroke_t	t	n/a
128.1685	0.105	256337	keystroke_Key.space	Key.space	n/a
128.4235	0.12	256847	keystroke_d	d	n/a
128.5885	0.105	257177	keystroke_e	e	n/a
128.7985	0.12	257597	keystroke_c	c	n/a
128.9485	0.135	257897	keystroke_l	l	n/a
129.0685	0.15	258137	keystroke_i	i	n/a
129.1885	0.1045	258377	keystroke_n	n	n/a
129.278	0.075	258556	keystroke_e	e	n/a
129.308	0.1055	258616	keystroke_d	d	n/a
129.4435	0.105	258887	keystroke_Key.space	Key.space	n/a
129.923	0.105	259846	keystroke_m	m	n/a
129.998	0.075	259996	keystroke_a	a	n/a
130.118	0.105	260236	keystroke_g	g	n/a
130.268	0.1355	260536	keystroke_i	i	n/a
130.358	0.1355	260716	keystroke_c	c	n/a
130.4785	0.105	260957	keystroke_a	a	n/a
130.5085	0.1345	261017	keystroke_l	l	n/a
130.643	0.09	261286	keystroke_Key.space	Key.space	n/a
130.883	0.09	261766	keystroke_m	m	n/a
130.958	0.105	261916	keystroke_a	a	n/a
131.078	0.06	262156	keystroke_t	t	n/a
131.228	0.09	262456	keystroke_t	t	n/a
131.303	0.105	262606	keystroke_h	h	n/a
131.438	0.12	262876	keystroke_e	e	n/a
131.543	0.0905	263086	keystroke_w	w	n/a
132.2635	0.105	264527	keystroke_Key.enter	Key.enter	n/a
132.3755	8.9645	264751	prompt	n/a	score ranch packages simpson\n
133.1785	0.105	266357	keystroke_s	s	n/a
133.3735	0.12	266747	keystroke_c	c	n/a
133.8985	0.09	267797	keystroke_o	o	n/a
133.9735	0.105	267947	keystroke_r	r	n/a
134.0485	0.12	268097	keystroke_e	e	n/a
134.1835	0.09	268367	keystroke_Key.space	Key.space	n/a
134.3635	0.12	268727	keystroke_r	r	n/a
134.4685	0.12	268937	keystroke_a	a	n/a
134.5735	0.09	269147	keystroke_n	n	n/a
134.7085	0.135	269417	keystroke_c	c	n/a
134.9185	0.105	269837	keystroke_h	h	n/a
135.0085	0.09	270017	keystroke_e	e	n/a
135.6235	0.105	271247	keystroke_=	=	n/a
136.2385	0.105	272477	keystroke_Key.backspace	Key.backspace	n/a
136.4485	0.075	272897	keystroke_Key.backspace	Key.backspace	n/a
137.1235	0.15	274247	keystroke_Key.space	Key.space	n/a
137.7235	0.09	275447	keystroke_p	p	n/a
137.8435	0.12	275687	keystroke_a	a	n/a
137.9185	0.135	275837	keystroke_c	c	n/a
138.0085	0.12	276017	keystroke_k	k	n/a
138.1435	0.075	276287	keystroke_a	a	n/a
138.2785	0.105	276557	keystroke_g	g	n/a
138.3685	0.09	276737	keystroke_e	e	n/a
138.5635	0.075	277127	keystroke_s	s	n/a
138.6535	0.105	277307	keystroke_Key.space	Key.space	n/a
139.0885	0.09	278177	keystroke_s	s	n/a
139.2835	0.1195	278567	keystroke_i	i	n/a
139.6285	0.12	279257	keystroke_m	m	n/a
139.7935	0.1195	279587	keystroke_p	p	n/a
139.898	0.105	279796	keystroke_s	s	n/a
140.018	0.1205	280036	keystroke_o	o	n/a
140.0935	0.12	280187	keystroke_n	n	n/a
141.2635	0.075	282527	keystroke_Key.enter	Key.enter	n/a
141.3455	5.6945	282691	prompt	n/a	vocal montana weekends role\n
142.7035	0.09	285407	keystroke_v	v	n/a
142.8685	0.09	285737	keystroke_o	o	n/a
143.0035	0.15	286007	keystroke_c	c	n/a
143.1535	0.105	286307	keystroke_a	a	n/a
143.2135	0.135	286427	keystroke_l	l	n/a
143.3485	0.12	286697	keystroke_Key.space	Key.space	n/a
143.6335	0.135	287267	keystroke_m	m	n/a
143.9035	0.105	287807	keystroke_o	o	n/a
143.9935	0.12	287987	keystroke_n	n	n/a
144.2635	0.105	288527	keystroke_t	t	n/a
144.4435	0.105	288887	keystroke_a	a	n/a
144.5185	0.105	289037	keystroke_n	n	n/a
144.6535	0.105	289307	keystroke_a	a	n/a
144.8035	0.135	289607	keystroke_Key.space	Key.space	n/a
145.0285	0.12	290057	keystroke_w	w	n/a
145.2685	0.09	290537	keystroke_e	e	n/a
145.4185	0.12	290837	keystroke_e	e	n/a
145.5535	0.075	291107	keystroke_k	k	n/a
145.7635	0.06	291527	keystroke_e	e	n/a
145.8535	0.09	291707	keystroke_n	n	n/a
146.0035	0.09	292007	keystroke_d	d	n/a
146.0635	0.12	292127	keystroke_s	s	n/a
146.1535	0.105	292307	keystroke_Key.space	Key.space	n/a
146.3185	0.09	292637	keystroke_r	r	n/a
146.3635	0.075	292727	keystroke_o	o	n/a
146.5585	0.09	293117	keystroke_l	l	n/a
146.5885	0.09	293177	keystroke_e	e	n/a
146.9035	0.135	293807	keystroke_Key.enter	Key.enter	n/a
147.0485	9.3965	294097	prompt	n/a	he'd preparation contacts automotive\n
148.314	0.075	296628	keystroke_h	h	n/a
148.554	0.135	297108	keystroke_e	e	n/a
149.094	0.03	298188	keystroke_'	'	n/a
149.214	0.105	298428	keystroke_d	d	n/a
149.484	0.105	298968	keystroke_Key.space	Key.space	n/a
150.189	0.1045	300378	keystroke_p	p	n/a
150.384	0.075	300768	keystroke_r	r	n/a
150.429	0.135	300858	keystroke_e	e	n/a
150.594	0.135	301188	keystroke_p	p	n/a
150.684	0.1345	301368	keystroke_a	a	n/a
150.7885	0.1505	301577	keystroke_r	r	n/a
150.924	0.105	301848	keystroke_a	a	n/a
151.014	0.105	302028	keystroke_t	t	n/a
151.074	0.195	302148	keystroke_i	i	n/a
151.164	0.135	302328	keystroke_o	o	n/a
151.239	0.105	302478	keystroke_n	n	n/a
151.434	0.12	302868	keystroke_Key.space	Key.space	n/a
152.049	0.15	304098	keystroke_c	c	n/a
152.154	0.105	304308	keystroke_o	o	n/a
152.184	0.135	304368	keystroke_n	n	n/a
152.334	0.135	304668	keystroke_t	t	n/a
152.439	0.15	304878	keystroke_a	a	n/a
152.589	0.12	305178	keystroke_c	c	n/a
152.8135	0.1205	305627	keystroke_t	t	n/a
152.964	0.105	305928	keystroke_s	s	n/a
153.039	0.135	306078	keystroke_Key.space	Key.space	n/a
153.594	0.075	307188	keystroke_a	a	n/a
153.684	0.105	307368	keystroke_u	u	n/a
153.834	0.105	307668	keystroke_t	t	n/a
153.909	0.15	307818	keystroke_o	o	n/a
153.984	0.135	307968	keystroke_m	m	n/a
154.569	0.105	309138	keystroke_o	o	n/a
154.689	0.12	309378	keystroke_t	t	n/a
154.824	0.12	309648	keystroke_i	i	n/a
155.019	0.135	310038	keystroke_v	v	n/a
155.124	0.105	310248	keystroke_e	e	n/a
156.324	0.12	312648	keystroke_Key.enter	Key.enter	n/a
156.4505	10.1645	312901	prompt	n/a	impressive till burton cartridges\n
157.524	0.18	315048	keystroke_i	i	n/a
157.599	0.15	315198	keystroke_m	m	n/a
157.6885	0.1655	315377	keystroke_p	p	n/a
157.764	0.105	315528	keystroke_r	r	n/a
157.824	0.12	315648	keystroke_e	e	n/a
158.034	0.09	316068	keystroke_s	s	n/a
158.199	0.09	316398	keystroke_s	s	n/a
158.259	0.12	316518	keystroke_i	i	n/a
158.409	0.105	316818	keystroke_v	v	n/a
158.424	0.06	316848	keystroke_b	b	n/a
158.469	0.1345	316938	keystroke_e	e	n/a
159.069	0.09	318138	keystroke_Key.backspace	Key.backspace	n/a
159.459	0.09	318918	keystroke_Key.backspace	Key.backspace	n/a
159.789	0.15	319578	keystroke_e	e	n/a
160.0585	0.1355	320117	keystroke_Key.space	Key.space	n/a
160.209	0.105	320418	keystroke_t	t	n/a
160.344	0.075	320688	keystroke_i	i	n/a
160.389	0.075	320778	keystroke_l	l	n/a
160.509	0.12	321018	keystroke_l	l	n/a
160.749	0.24	321498	keystroke_Key.space	Key.space	n/a
161.2285	0.105	322457	keystroke_b	b	n/a
161.4985	0.135	322997	keystroke_u	u	n/a
161.6785	0.075	323357	keystroke_r	r	n/a
161.8885	0.1055	323777	keystroke_t	t	n/a
161.934	0.12	323868	keystroke_o	o	n/a
162.009	0.105	324018	keystroke_n	n	n/a
162.204	0.12	324408	keystroke_Key.space	Key.space	n/a
162.369	0.135	324738	keystroke_c	c	n/a
162.519	0.135	325038	keystroke_a	a	n/a
162.669	0.135	325338	keystroke_r	r	n/a
162.909	0.1045	325818	keystroke_t	t	n/a
163.329	0.135	326658	keystroke_r	r	n/a
163.554	0.12	327108	keystroke_i	i	n/a
163.764	0.195	327528	keystroke_d	d	n/a
164.184	0.105	328368	keystroke_g	g	n/a
164.274	0.105	328548	keystroke_e	e	n/a
164.484	0.045	328968	keystroke_w	w	n/a
164.559	0.03	329118	keystroke_s	s	n/a
165.804	0.06	331608	keystroke_Key.backspace	Key.backspace	n/a
165.954	0.0895	331908	keystroke_Key.backspace	Key.backspace	n/a
166.1485	0.12	332297	keystroke_s	s	n/a
166.509	0.105	333018	keystroke_Key.enter	Key.enter	n/a
166.622	12.8635	333244	prompt	n/a	what'll increasing decision freebsd\n
167.6335	0.1355	335267	keystroke_w	w	n/a
167.754	0.165	335508	keystroke_h	h	n/a
167.889	0.12	335778	keystroke_a	a	n/a
167.979	0.105	335958	keystroke_t	t	n/a
169.389	0.105	338778	keystroke_'	'	n/a
169.749	0.06	339498	keystroke_l	l	n/a
169.914	0.09	339828	keystroke_l	l	n/a
170.079	0.135	340158	keystroke_Key.space	Key.space	n/a
170.409	0.09	340818	keystroke_i	i	n/a
171.099	0.12	342198	keystroke_n	n	n/a
171.204	0.09	342408	keystroke_c	c	n/a
171.444	0.135	342888	keystroke_r	r	n/a
171.534	0.135	343068	keystroke_e	e	n/a
171.624	0.195	343248	keystroke_a	a	n/a
171.744	0.135	343488	keystroke_s	s	n/a
171.834	0.105	343668	keystroke_i	i	n/a
171.894	0.1045	343788	keystroke_n	n	n/a
172.044	0.09	344088	keystroke_g	g	n/a
172.164	0.12	344328	keystroke_Key.space	Key.space	n/a
172.389	0.1495	344778	keystroke_d	d	n/a
172.5085	0.1205	345017	keystroke_e	e	n/a
172.764	0.09	345528	keystroke_c	c	n/a
172.9135	0.075	345827	keystroke_i	i	n/a
173.0185	0.1205	346037	keystroke_s	s	n/a
173.109	0.12	346218	keystroke_i	i	n/a
173.139	0.12	346278	keystroke_o	o	n/a
173.199	0.12	346398	keystroke_n	n	n/a
173.394	0.135	346788	keystroke_Key.space	Key.space	n/a
173.784	0.1045	347568	keystroke_f	f	n/a
173.9935	0.2255	347987	keystroke_e	e	n/a
174.0085	0.06	348017	keystroke_r	r	n/a
174.684	0.09	349368	keystroke_=	=	n/a
174.909	0.105	349818	keystroke_=	=	n/a
175.854	0.105	351708	keystroke_Key.backspace	Key.backspace	n/a
176.334	0.045	352668	keystroke_Key.backspace	Key.backspace	n/a
176.649	0.06	353298	keystroke_Key.backspace	Key.backspace	n/a
176.934	0.06	353868	keystroke_Key.backspace	Key.backspace	n/a
177.204	0.12	354408	keystroke_r	r	n/a
177.309	0.105	354618	keystroke_e	e	n/a
177.459	0.105	354918	keystroke_e	e	n/a
178.3735	0.12	356747	keystroke_b	b	n/a
178.599	0.105	357198	keystroke_s	s	n/a
178.959	0.075	357918	keystroke_d	d	n/a
179.364	0.12	358728	keystroke_Key.enter	Key.enter	n/a
179.4905	7	358981	prompt	n/a	easily turkish tier rack\n
180.414	0.105	360828	keystroke_e	e	n/a
181.1785	0.105	362357	keystroke_a	a	n/a
181.3135	0.09	362627	keystroke_s	s	n/a
181.4335	0.1955	362867	keystroke_i	i	n/a
181.554	0.15	363108	keystroke_l	l	n/a
181.689	0.105	363378	keystroke_y	y	n/a
181.764	0.135	363528	keystroke_Key.space	Key.space	n/a
182.109	0.12	364218	keystroke_t	t	n/a
182.259	0.105	364518	keystroke_u	u	n/a
182.349	0.135	364698	keystroke_r	r	n/a
182.574	0.075	365148	keystroke_s	s	n/a
183.1735	0.12	366347	keystroke_Key.backspace	Key.backspace	n/a
183.864	0.105	367728	keystroke_k	k	n/a
184.119	0.12	368238	keystroke_i	i	n/a
184.254	0.09	368508	keystroke_s	s	n/a
184.374	0.09	368748	keystroke_h	h	n/a
184.449	0.12	368898	keystroke_Key.space	Key.space	n/a
184.644	0.105	369288	keystroke_t	t	n/a
184.794	0.105	369588	keystroke_i	i	n/a
184.869	0.15	369738	keystroke_e	e	n/a
184.989	0.105	369978	keystroke_r	r	n/a
185.049	0.12	370098	keystroke_Key.space	Key.space	n/a
185.214	0.12	370428	keystroke_r	r	n/a
185.319	0.18	370638	keystroke_a	a	n/a
185.469	0.105	370938	keystroke_c	c	n/a
185.589	0.075	371178	keystroke_k	k	n/a
186.369	0.12	372738	keystroke_Key.enter	Key.enter	n/a
186.501	5.3595	373002	prompt	n/a	engineering into income kidney\n
187.224	0.12	374448	keystroke_e	e	n/a
187.359	0.1205	374718	keystroke_n	n	n/a
187.5835	0.106	375167	keystroke_g	g	n/a
187.7035	0.12	375407	keystroke_i	i	n/a
187.7785	0.121	375557	keystroke_n	n	n/a
187.8535	0.105	375707	keystroke_e	e	n/a
188.0335	0.135	376067	keystroke_e	e	n/a
188.1535	0.12	376307	keystroke_r	r	n/a
188.2285	0.135	376457	keystroke_i	i	n/a
188.3035	0.105	376607	keystroke_n	n	n/a
188.4235	0.09	376847	keystroke_g	g	n/a
188.5435	0.105	377087	keystroke_Key.space	Key.space	n/a
188.6785	0.06	377357	keystroke_t	t	n/a
189.0835	0.105	378167	keystroke_Key.backspace	Key.backspace	n/a
189.489	0.135	378978	keystroke_i	i	n/a
189.699	0.135	379398	keystroke_n	n	n/a
189.85	0.0735	379700	keystroke_t	t	n/a
189.9535	0.09	379907	keystroke_o	o	n/a
190.0135	0.1355	380027	keystroke_Key.space	Key.space	n/a
190.239	0.135	380478	keystroke_i	i	n/a
190.314	0.135	380628	keystroke_n	n	n/a
190.404	0.135	380808	keystroke_c	c	n/a
190.494	0.135	380988	keystroke_o	o	n/a
190.569	0.135	381138	keystroke_m	m	n/a
190.659	0.075	381318	keystroke_e	e	n/a
190.749	0.135	381498	keystroke_Key.space	Key.space	n/a
190.899	0.09	381798	keystroke_k	k	n/a
191.049	0.135	382098	keystroke_i	i	n/a
191.154	0.105	382308	keystroke_d	d	n/a
191.199	0.105	382398	keystroke_n	n	n/a
191.409	0.09	382818	keystroke_e	e	n/a
191.544	0.106	383088	keystroke_y	y	n/a
191.769	0.09	383538	keystroke_Key.enter	Key.enter	n/a
191.8665	3.429	383733	prompt	n/a	ruth less concerns idaho\n
192.474	0.105	384948	keystroke_r	r	n/a
192.564	0.105	385128	keystroke_u	u	n/a
192.7	0.119	385400	keystroke_t	t	n/a
192.774	0.136	385548	keystroke_h	h	n/a
192.879	0.135	385758	keystroke_Key.space	Key.space	n/a
192.999	0.12	385998	keystroke_l	l	n/a
193.059	0.15	386118	keystroke_e	e	n/a
193.299	0.09	386598	keystroke_s	s	n/a
193.464	0.105	386928	keystroke_s	s	n/a
193.554	0.18	387108	keystroke_Key.space	Key.space	n/a
193.719	0.105	387438	keystroke_c	c	n/a
193.779	0.12	387558	keystroke_o	o	n/a
193.854	0.12	387708	keystroke_n	n	n/a
193.929	0.105	387858	keystroke_c	c	n/a
194.064	0.136	388128	keystroke_e	e	n/a
194.184	0.09	388368	keystroke_r	r	n/a
194.229	0.105	388458	keystroke_n	n	n/a
194.349	0.15	388698	keystroke_s	s	n/a
194.439	0.135	388878	keystroke_Key.space	Key.space	n/a
194.559	0.12	389118	keystroke_i	i	n/a
194.68	0.089	389360	keystroke_d	d	n/a
194.814	0.09	389628	keystroke_a	a	n/a
194.889	0.105	389778	keystroke_h	h	n/a
194.934	0.09	389868	keystroke_o	o	n/a
195.204	0.09	390408	keystroke_Key.enter	Key.enter	n/a
195.3015	5.3945	390603	prompt	n/a	brunswick shoes hostel expo\n
196.314	0.09	392628	keystroke_b	b	n/a
196.494	0.09	392988	keystroke_r	r	n/a
196.614	0.12	393228	keystroke_u	u	n/a
196.689	0.12	393378	keystroke_n	n	n/a
196.794	0.106	393588	keystroke_s	s	n/a
197.034	0.075	394068	keystroke_w	w	n/a
197.125	0.089	394250	keystroke_i	i	n/a
197.23	0.119	394460	keystroke_c	c	n/a
197.319	0.12	394638	keystroke_k	k	n/a
197.424	0.12	394848	keystroke_Key.space	Key.space	n/a
198.249	0.135	396498	keystroke_s	s	n/a
198.324	0.151	396648	keystroke_h	h	n/a
198.37	0.164	396740	keystroke_o	o	n/a
198.489	0.061	396978	keystroke_e	e	n/a
198.654	0.105	397308	keystroke_s	s	n/a
198.97	0.104	397940	keystroke_Key.space	Key.space	n/a
199.2835	0.1355	398567	keystroke_h	h	n/a
199.375	0.15	398750	keystroke_o	o	n/a
199.435	0.149	398870	keystroke_s	s	n/a
199.585	0.12	399170	keystroke_t	t	n/a
199.675	0.119	399350	keystroke_e	e	n/a
199.705	0.134	399410	keystroke_l	l	n/a
199.795	0.119	399590	keystroke_Key.space	Key.space	n/a
199.959	0.075	399918	keystroke_e	e	n/a
200.17	0.089	400340	keystroke_x	x	n/a
200.23	0.12	400460	keystroke_p	p	n/a
200.289	0.136	400578	keystroke_o	o	n/a
200.619	0.075	401238	keystroke_Key.enter	Key.enter	n/a
200.7025	5.4835	401405	prompt	n/a	accidents american induction ridge\n
201.31	0.134	402620	keystroke_a	a	n/a
201.489	0.075	402978	keystroke_c	c	n/a
201.6385	0.105	403277	keystroke_c	c	n/a
201.7585	0.1355	403517	keystroke_i	i	n/a
201.91	0.12	403820	keystroke_d	d	n/a
202	0.1335	404000	keystroke_e	e	n/a
202.089	0.105	404178	keystroke_n	n	n/a
202.18	0.074	404360	keystroke_t	t	n/a
202.3	0.12	404600	keystroke_s	s	n/a
202.374	0.12	404748	keystroke_Key.space	Key.space	n/a
202.57	0.0885	405140	keystroke_a	a	n/a
202.6745	0.0895	405349	keystroke_m	m	n/a
202.749	0.136	405498	keystroke_e	e	n/a
202.855	0.09	405710	keystroke_r	r	n/a
202.9	0.119	405800	keystroke_i	i	n/a
203.079	0.135	406158	keystroke_c	c	n/a
203.139	0.136	406278	keystroke_a	a	n/a
203.244	0.075	406488	keystroke_n	n	n/a
203.394	0.136	406788	keystroke_Key.space	Key.space	n/a
203.514	0.15	407028	keystroke_i	i	n/a
204.1	0.105	408200	keystroke_n	n	n/a
204.264	0.091	408528	keystroke_d	d	n/a
204.37	0.09	408740	keystroke_u	u	n/a
204.475	0.09	408950	keystroke_c	c	n/a
204.7	0.075	409400	keystroke_t	t	n/a
204.715	0.135	409430	keystroke_i	i	n/a
204.76	0.134	409520	keystroke_o	o	n/a
204.804	0.12	409608	keystroke_n	n	n/a
205.179	0.12	410358	keystroke_Key.space	Key.space	n/a
205.389	0.091	410778	keystroke_r	r	n/a
205.495	0.089	410990	keystroke_i	i	n/a
205.63	0.104	411260	keystroke_d	d	n/a
205.884	0.076	411768	keystroke_g	g	n/a
205.944	0.106	411888	keystroke_e	e	n/a
206.064	0.12	412128	keystroke_Key.enter	Key.enter	n/a
206.1915	6.474	412383	prompt	n/a	podcast polish subscription suppose\n
207.175	0.164	414350	keystroke_p	p	n/a
207.325	0.135	414650	keystroke_o	o	n/a
207.415	0.09	414830	keystroke_d	d	n/a
207.609	0.136	415218	keystroke_c	c	n/a
207.76	0.18	415520	keystroke_a	a	n/a
207.834	0.166	415668	keystroke_s	s	n/a
207.97	0.105	415940	keystroke_t	t	n/a
208.134	0.135	416268	keystroke_Key.space	Key.space	n/a
208.345	0.15	416690	keystroke_p	p	n/a
208.615	0.15	417230	keystroke_o	o	n/a
208.9	0.165	417800	keystroke_l	l	n/a
209.02	0.15	418040	keystroke_i	i	n/a
209.155	0.12	418310	keystroke_s	s	n/a
209.26	0.1195	418520	keystroke_h	h	n/a
209.334	0.1355	418668	keystroke_Key.space	Key.space	n/a
209.695	0.135	419390	keystroke_s	s	n/a
209.8	0.1345	419600	keystroke_u	u	n/a
209.8745	0.135	419749	keystroke_b	b	n/a
209.9795	0.1505	419959	keystroke_s	s	n/a
210.115	0.135	420230	keystroke_c	c	n/a
210.3695	0.1055	420739	keystroke_r	r	n/a
210.46	0.12	420920	keystroke_i	i	n/a
210.565	0.105	421130	keystroke_p	p	n/a
210.64	0.075	421280	keystroke_t	t	n/a
210.7	0.1795	421400	keystroke_i	i	n/a
210.775	0.1345	421550	keystroke_o	o	n/a
210.835	0.1045	421670	keystroke_n	n	n/a
211.0295	0.1345	422059	keystroke_Key.space	Key.space	n/a
211.195	0.12	422390	keystroke_s	s	n/a
211.315	0.105	422630	keystroke_u	u	n/a
211.525	0.15	423050	keystroke_p	p	n/a
211.795	0.09	423590	keystroke_p	p	n/a
211.975	0.135	423950	keystroke_o	o	n/a
212.065	0.105	424130	keystroke_s	s	n/a
212.29	0.075	424580	keystroke_e	e	n/a
212.53	0.134	425060	keystroke_Key.enter	Key.enter	n/a
212.671	5.515	425342	prompt	n/a	magical nutrition lang complexity\n
213.58	0.135	427160	keystroke_m	m	n/a
213.685	0.075	427370	keystroke_a	a	n/a
213.895	0.09	427790	keystroke_g	g	n/a
213.94	0.135	427880	keystroke_i	i	n/a
214.135	0.12	428270	keystroke_c	c	n/a
214.195	0.15	428390	keystroke_a	a	n/a
214.285	0.135	428570	keystroke_l	l	n/a
214.375	0.104	428750	keystroke_Key.space	Key.space	n/a
214.615	0.12	429230	keystroke_n	n	n/a
214.675	0.135	429350	keystroke_u	u	n/a
214.795	0.075	429590	keystroke_t	t	n/a
214.975	0.09	429950	keystroke_r	r	n/a
215.05	0.075	430100	keystroke_i	i	n/a
215.17	0.09	430340	keystroke_t	t	n/a
215.2295	0.1205	430459	keystroke_i	i	n/a
215.245	0.135	430490	keystroke_o	o	n/a
215.32	0.105	430640	keystroke_n	n	n/a
215.485	0.135	430970	keystroke_Key.space	Key.space	n/a
215.59	0.09	431180	keystroke_l	l	n/a
215.665	0.0895	431330	keystroke_a	a	n/a
215.7545	0.1205	431509	keystroke_n	n	n/a
215.89	0.075	431780	keystroke_g	g	n/a
216.1	0.12	432200	keystroke_Key.space	Key.space	n/a
216.235	0.12	432470	keystroke_c	c	n/a
216.34	0.135	432680	keystroke_o	o	n/a
216.43	0.105	432860	keystroke_m	m	n/a
216.67	0.135	433340	keystroke_p	p	n/a
216.745	0.135	433490	keystroke_l	l	n/a
216.85	0.075	433700	keystroke_e	e	n/a
217.045	0.075	434090	keystroke_x	x	n/a
217.105	0.105	434210	keystroke_i	i	n/a
217.345	0.075	434690	keystroke_t	t	n/a
217.405	0.06	434810	keystroke_y	y	n/a
218.08	0.105	436160	keystroke_Key.enter	Key.enter	n/a
218.1905	7.256	436381	prompt	n/a	specials synthesis corporation websites\n
218.92	0.135	437840	keystroke_s	s	n/a
219.04	0.105	438080	keystroke_p	p	n/a
219.28	0.18	438560	keystroke_c	c	n/a
219.745	0.12	439490	keystroke_Key.backspace	Key.backspace	n/a
220.06	0.105	440120	keystroke_e	e	n/a
220.21	0.135	440420	keystroke_c	c	n/a
220.39	0.15	440780	keystroke_i	i	n/a
220.525	0.15	441050	keystroke_a	a	n/a
220.615	0.165	441230	keystroke_l	l	n/a
220.765	0.12	441530	keystroke_s	s	n/a
220.915	0.15	441830	keystroke_Key.space	Key.space	n/a
221.14	0.135	442280	keystroke_s	s	n/a
221.26	0.135	442520	keystroke_y	y	n/a
221.335	0.135	442670	keystroke_n	n	n/a
221.455	0.105	442910	keystroke_t	t	n/a
221.575	0.15	443150	keystroke_h	h	n/a
221.71	0.12	443420	keystroke_e	e	n/a
222.16	0.135	444320	keystroke_s	s	n/a
222.265	0.12	444530	keystroke_i	i	n/a
222.385	0.12	444770	keystroke_s	s	n/a
222.49	0.135	444980	keystroke_Key.space	Key.space	n/a
222.655	0.135	445310	keystroke_c	c	n/a
222.775	0.135	445550	keystroke_o	o	n/a
223.015	0.12	446030	keystroke_r	r	n/a
223.105	0.165	446210	keystroke_p	p	n/a
223.225	0.135	446450	keystroke_o	o	n/a
223.315	0.12	446630	keystroke_r	r	n/a
223.45	0.12	446900	keystroke_a	a	n/a
223.525	0.105	447050	keystroke_t	t	n/a
223.585	0.12	447170	keystroke_i	i	n/a
223.6	0.135	447200	keystroke_o	o	n/a
223.675	0.12	447350	keystroke_n	n	n/a
223.84	0.135	447680	keystroke_Key.space	Key.space	n/a
224.215	0.15	448430	keystroke_w	w	n/a
224.515	0.12	449030	keystroke_e	e	n/a
224.65	0.12	449300	keystroke_b	b	n/a
224.8	0.12	449600	keystroke_s	s	n/a
224.89	0.15	449780	keystroke_i	i	n/a
225.055	0.075	450110	keystroke_t	t	n/a
225.1	0.09	450200	keystroke_e	e	n/a
225.265	0.12	450530	keystroke_s	s	n/a
225.355	0.09	450710	keystroke_Key.enter	Key.enter	n/a
225.4535	4.1175	450907	prompt	n/a	butter harry consist various\n
226.225	0.12	452450	keystroke_b	b	n/a
226.375	0.15	452750	keystroke_u	u	n/a
226.45	0.09	452900	keystroke_t	t	n/a
226.615	0.12	453230	keystroke_t	t	n/a
226.705	0.15	453410	keystroke_e	e	n/a
226.81	0.12	453620	keystroke_r	r	n/a
226.87	0.15	453740	keystroke_Key.space	Key.space	n/a
226.96	0.15	453920	keystroke_h	h	n/a
227.035	0.135	454070	keystroke_a	a	n/a
227.14	0.09	454280	keystroke_r	r	n/a
227.275	0.12	454550	keystroke_r	r	n/a
227.335	0.12	454670	keystroke_y	y	n/a
227.41	0.15	454820	keystroke_Key.space	Key.space	n/a
227.545	0.15	455090	keystroke_c	c	n/a
227.65	0.15	455300	keystroke_o	o	n/a
227.74	0.12	455480	keystroke_n	n	n/a
227.845	0.075	455690	keystroke_s	s	n/a
228.025	0.105	456050	keystroke_i	i	n/a
228.04	0.18	456080	keystroke_s	s	n/a
228.355	0.075	456710	keystroke_t	t	n/a
228.445	0.135	456890	keystroke_Key.space	Key.space	n/a
228.655	0.105	457310	keystroke_v	v	n/a
228.79	0.12	457580	keystroke_a	a	n/a
228.895	0.09	457790	keystroke_r	r	n/a
228.955	0.12	457910	keystroke_i	i	n/a
229.03	0.135	458060	keystroke_o	o	n/a
229.15	0.09	458300	keystroke_u	u	n/a
229.285	0.075	458570	keystroke_s	s	n/a
229.42	0.15	458840	keystroke_Key.enter	Key.enter	n/a
229.576	6.5425	459152	prompt	n/a	honest armor periodic preliminary\n
230.35	0.15	460700	keystroke_h	h	n/a
230.485	0.165	460970	keystroke_o	o	n/a
230.56	0.135	461120	keystroke_n	n	n/a
230.635	0.09	461270	keystroke_e	e	n/a
230.815	0.15	461630	keystroke_s	s	n/a
230.905	0.12	461810	keystroke_t	t	n/a
231.01	0.1045	462020	keystroke_Key.space	Key.space	n/a
231.1295	0.1205	462259	keystroke_a	a	n/a
231.205	0.105	462410	keystroke_r	r	n/a
231.28	0.105	462560	keystroke_m	m	n/a
231.34	0.105	462680	keystroke_o	o	n/a
231.43	0.1055	462860	keystroke_r	r	n/a
231.505	0.1205	463010	keystroke_Key.space	Key.space	n/a
231.5955	0.135	463191	keystroke_p	p	n/a
231.6855	0.0755	463371	keystroke_e	e	n/a
231.746	0.09	463492	keystroke_r	r	n/a
231.821	0.105	463642	keystroke_i	i	n/a
231.881	0.135	463762	keystroke_o	o	n/a
231.9715	0.1045	463943	keystroke_d	d	n/a
232.076	0.0905	464152	keystroke_i	i	n/a
232.1815	0.105	464363	keystroke_c	c	n/a
232.2415	0.1205	464483	keystroke_Key.space	Key.space	n/a
232.377	0.135	464754	keystroke_p	p	n/a
232.497	0.1505	464994	keystroke_e	e	n/a
232.632	0.0455	465264	keystroke_r	r	n/a
232.888	0.0895	465776	keystroke_Key.backspace	Key.backspace	n/a
233.053	0.075	466106	keystroke_Key.backspace	Key.backspace	n/a
233.173	0.0905	466346	keystroke_r	r	n/a
233.2485	0.105	466497	keystroke_e	e	n/a
233.3835	0.195	466767	keystroke_l	l	n/a
233.5335	0.1205	467067	keystroke_i	i	n/a
233.639	0.135	467278	keystroke_m	m	n/a
233.759	0.1205	467518	keystroke_i	i	n/a
233.8345	0.135	467669	keystroke_n	n	n/a
233.9245	0.105	467849	keystroke_a	a	n/a
233.9845	0.09	467969	keystroke_t	t	n/a
234.33	0.075	468660	keystroke_Key.backspace	Key.backspace	n/a
234.6605	0.06	469321	keystroke_r	r	n/a
234.7655	0.0455	469531	keystroke_y	y	n/a
235.3065	0.09	470613	keystroke_\	\	n/a
235.742	0.1055	471484	keystroke_Key.backspace	Key.backspace	n/a
235.9975	0.12	471995	keystroke_Key.enter	Key.enter	n/a
236.1235	3.706	472247	prompt	n/a	tire farm putting impose\n
237.094	0.1055	474188	keystroke_t	t	n/a
237.2295	0.135	474459	keystroke_i	i	n/a
237.3495	0.12	474699	keystroke_r	r	n/a
237.4395	0.1505	474879	keystroke_e	e	n/a
237.4845	0.1355	474969	keystroke_Key.space	Key.space	n/a
237.695	0.1205	475390	keystroke_f	f	n/a
237.8455	0.12	475691	keystroke_a	a	n/a
237.9355	0.09	475871	keystroke_r	r	n/a
237.9955	0.105	475991	keystroke_m	m	n/a
238.191	0.12	476382	keystroke_Key.space	Key.space	n/a
238.296	0.15	476592	keystroke_p	p	n/a
238.401	0.1205	476802	keystroke_u	u	n/a
238.461	0.0755	476922	keystroke_t	t	n/a
238.6265	0.1055	477253	keystroke_t	t	n/a
238.6565	0.1055	477313	keystroke_i	i	n/a
238.717	0.105	477434	keystroke_n	n	n/a
238.807	0.105	477614	keystroke_g	g	n/a
238.897	0.135	477794	keystroke_Key.space	Key.space	n/a
239.017	0.1655	478034	keystroke_i	i	n/a
239.1375	0.135	478275	keystroke_m	m	n/a
239.2125	0.2255	478425	keystroke_p	p	n/a
239.3175	0.1355	478635	keystroke_o	o	n/a
239.3925	0.1055	478785	keystroke_s	s	n/a
239.603	0.0755	479206	keystroke_e	e	n/a
239.7235	0.105	479447	keystroke_Key.enter	Key.enter	n/a
239.8345	5.013	479669	prompt	n/a	functional query russian bread\n
240.6395	0.1055	481279	keystroke_f	f	n/a
240.76	0.18	481520	keystroke_u	u	n/a
240.895	0.105	481790	keystroke_n	n	n/a
240.955	0.1055	481910	keystroke_c	c	n/a
241.1805	0.075	482361	keystroke_t	t	n/a
241.2255	0.1355	482451	keystroke_i	i	n/a
241.271	0.135	482542	keystroke_o	o	n/a
241.3455	0.1355	482691	keystroke_n	n	n/a
241.466	0.09	482932	keystroke_a	a	n/a
241.541	0.1205	483082	keystroke_l	l	n/a
241.601	0.1205	483202	keystroke_Key.space	Key.space	n/a
241.7815	0.135	483563	keystroke_q	q	n/a
241.9615	0.1205	483923	keystroke_u	u	n/a
242.232	0.1055	484464	keystroke_e	e	n/a
242.3975	0.12	484795	keystroke_r	r	n/a
242.5325	0.1655	485065	keystroke_y	y	n/a
242.668	0.15	485336	keystroke_Key.space	Key.space	n/a
242.8935	0.12	485787	keystroke_r	r	n/a
243.0135	0.12	486027	keystroke_u	u	n/a
243.1035	0.09	486207	keystroke_s	s	n/a
243.269	0.165	486538	keystroke_s	s	n/a
243.389	0.105	486778	keystroke_i	i	n/a
243.7045	0.045	487409	keystroke_a	a	n/a
243.7795	0.075	487559	keystroke_n	n	n/a
243.93	0.135	487860	keystroke_Key.space	Key.space	n/a
244.02	0.12	488040	keystroke_b	b	n/a
244.08	0.1055	488160	keystroke_r	r	n/a
244.155	0.1955	488310	keystroke_e	e	n/a
244.2155	0.135	488431	keystroke_a	a	n/a
244.3505	0.09	488701	keystroke_d	d	n/a
244.726	0.1205	489452	keystroke_Key.enter	Key.enter	n/a
244.8525	6.2	489705	prompt	n/a	bullet stores frequencies licensed\n
245.7775	0.1355	491555	keystroke_b	b	n/a
246.3485	0.1655	492697	keystroke_u	u	n/a
246.439	0.105	492878	keystroke_l	l	n/a
246.619	0.105	493238	keystroke_l	l	n/a
246.694	0.1505	493388	keystroke_e	e	n/a
246.7995	0.12	493599	keystroke_t	t	n/a
246.8745	0.135	493749	keystroke_Key.space	Key.space	n/a
247.07	0.15	494140	keystroke_s	s	n/a
247.4305	0.015	494861	keystroke_t	t	n/a
247.776	0.135	495552	keystroke_o	o	n/a
247.896	0.1505	495792	keystroke_r	r	n/a
248.016	0.1355	496032	keystroke_e	e	n/a
248.2565	0.1055	496513	keystroke_s	s	n/a
248.3165	0.1205	496633	keystroke_Key.space	Key.space	n/a
248.452	0.09	496904	keystroke_f	f	n/a
248.6625	0.09	497325	keystroke_r	r	n/a
248.7375	0.105	497475	keystroke_e	e	n/a
248.993	0.105	497986	keystroke_q	q	n/a
249.113	0.135	498226	keystroke_u	u	n/a
249.263	0.1055	498526	keystroke_e	e	n/a
249.3535	0.105	498707	keystroke_n	n	n/a
249.5035	0.09	499007	keystroke_c	c	n/a
249.5785	0.1355	499157	keystroke_i	i	n/a
249.684	0.075	499368	keystroke_e	e	n/a
249.849	0.1205	499698	keystroke_s	s	n/a
249.909	0.1805	499818	keystroke_Key.space	Key.space	n/a
250.0295	0.195	500059	keystroke_l	l	n/a
250.1195	0.15	500239	keystroke_i	i	n/a
250.2095	0.1505	500419	keystroke_c	c	n/a
250.33	0.135	500660	keystroke_e	e	n/a
250.465	0.105	500930	keystroke_n	n	n/a
250.555	0.1205	501110	keystroke_s	s	n/a
250.7505	0.12	501501	keystroke_e	e	n/a
250.8405	0.1205	501681	keystroke_d	d	n/a
250.946	0.105	501892	keystroke_Key.enter	Key.enter	n/a
251.0575	3.7505	502115	prompt	n/a	legendary mars invention dont\n
251.817	0.1355	503634	keystroke_l	l	n/a
251.9375	0.15	503875	keystroke_e	e	n/a
252.0425	0.135	504085	keystroke_g	g	n/a
252.1475	0.1355	504295	keystroke_e	e	n/a
252.253	0.105	504506	keystroke_n	n	n/a
252.343	0.135	504686	keystroke_d	d	n/a
252.463	0.1055	504926	keystroke_a	a	n/a
252.538	0.1205	505076	keystroke_r	r	n/a
252.5985	0.09	505197	keystroke_y	y	n/a
252.6585	0.09	505317	keystroke_Key.space	Key.space	n/a
252.8685	0.1055	505737	keystroke_m	m	n/a
252.914	0.12	505828	keystroke_a	a	n/a
252.989	0.135	505978	keystroke_r	r	n/a
253.154	0.1355	506308	keystroke_s	s	n/a
253.2745	0.12	506549	keystroke_Key.space	Key.space	n/a
253.4245	0.1505	506849	keystroke_i	i	n/a
253.545	0.105	507090	keystroke_n	n	n/a
253.62	0.12	507240	keystroke_v	v	n/a
253.725	0.105	507450	keystroke_e	e	n/a
253.8	0.1055	507600	keystroke_n	n	n/a
253.9355	0.09	507871	keystroke_t	t	n/a
253.9955	0.135	507991	keystroke_i	i	n/a
254.0405	0.12	508081	keystroke_o	o	n/a
254.1005	0.075	508201	keystroke_n	n	n/a
254.236	0.105	508472	keystroke_Key.space	Key.space	n/a
254.356	0.09	508712	keystroke_d	d	n/a
254.416	0.1055	508832	keystroke_o	o	n/a
254.476	0.1055	508952	keystroke_n	n	n/a
254.5815	0.075	509163	keystroke_t	t	n/a
254.6865	0.12	509373	keystroke_Key.enter	Key.enter	n/a
254.813	4.667	509626	prompt	n/a	failed ciao definitely strict\n
255.528	0.135	511056	keystroke_f	f	n/a
255.678	0.105	511356	keystroke_a	a	n/a
255.723	0.1655	511446	keystroke_i	i	n/a
255.798	0.1355	511596	keystroke_l	l	n/a
255.8585	0.15	511717	keystroke_e	e	n/a
255.9785	0.105	511957	keystroke_d	d	n/a
256.0685	0.1205	512137	keystroke_Key.space	Key.space	n/a
256.249	0.15	512498	keystroke_c	c	n/a
256.444	0.1355	512888	keystroke_i	i	n/a
256.6395	0.135	513279	keystroke_a	a	n/a
256.835	0.135	513670	keystroke_o	o	n/a
256.955	0.12	513910	keystroke_Key.space	Key.space	n/a
257.12	0.1655	514240	keystroke_d	d	n/a
257.3305	0.1655	514661	keystroke_e	e	n/a
257.4655	0.1055	514931	keystroke_f	f	n/a
257.631	0.105	515262	keystroke_i	i	n/a
257.706	0.1355	515412	keystroke_n	n	n/a
257.826	0.1055	515652	keystroke_i	i	n/a
257.9165	0.105	515833	keystroke_t	t	n/a
258.0065	0.12	516013	keystroke_e	e	n/a
258.0365	0.1355	516073	keystroke_l	l	n/a
258.142	0.105	516284	keystroke_y	y	n/a
258.202	0.135	516404	keystroke_Key.space	Key.space	n/a
258.322	0.135	516644	keystroke_s	s	n/a
258.442	0.0905	516884	keystroke_t	t	n/a
258.6225	0.09	517245	keystroke_r	r	n/a
258.7125	0.1205	517425	keystroke_i	i	n/a
258.863	0.12	517726	keystroke_c	c	n/a
259.103	0.0905	518206	keystroke_t	t	n/a
259.3585	0.1205	518717	keystroke_Key.enter	Key.enter	n/a
259.485	4.3065	518970	prompt	n/a	includes from magic legendary\n
260.0795	0.1655	520159	keystroke_i	i	n/a
260.185	0.135	520370	keystroke_n	n	n/a
260.29	0.135	520580	keystroke_c	c	n/a
260.41	0.1205	520820	keystroke_l	l	n/a
260.4555	0.15	520911	keystroke_u	u	n/a
260.5305	0.15	521061	keystroke_d	d	n/a
260.6205	0.135	521241	keystroke_e	e	n/a
260.8155	0.1355	521631	keystroke_s	s	n/a
260.876	0.12	521752	keystroke_Key.space	Key.space	n/a
261.2515	0.09	522503	keystroke_f	f	n/a
261.4465	0.0905	522893	keystroke_r	r	n/a
261.462	0.135	522924	keystroke_o	o	n/a
261.552	0.09	523104	keystroke_m	m	n/a
261.732	0.09	523464	keystroke_Key.space	Key.space	n/a
261.9275	0.105	523855	keystroke_m	m	n/a
262.0025	0.12	524005	keystroke_a	a	n/a
262.1225	0.1055	524245	keystroke_g	g	n/a
262.258	0.15	524516	keystroke_i	i	n/a
262.423	0.1205	524846	keystroke_c	c	n/a
262.5135	0.165	525027	keystroke_Key.space	Key.space	n/a
262.6185	0.165	525237	keystroke_l	l	n/a
262.7685	0.1205	525537	keystroke_e	e	n/a
262.934	0.12	525868	keystroke_g	g	n/a
263.039	0.12	526078	keystroke_e	e	n/a
263.114	0.1205	526228	keystroke_n	n	n/a
263.2195	0.135	526439	keystroke_d	d	n/a
263.3395	0.12	526679	keystroke_a	a	n/a
263.4295	0.1055	526859	keystroke_r	r	n/a
263.4745	0.0755	526949	keystroke_y	y	n/a
263.685	0.105	527370	keystroke_Key.enter	Key.enter	n/a
263.7965	4.0955	527593	prompt	n/a	moon cycles praise saving\n
264.466	0.1355	528932	keystroke_m	m	n/a
264.5715	0.09	529143	keystroke_o	o	n/a
264.7515	0.105	529503	keystroke_o	o	n/a
264.8265	0.075	529653	keystroke_n	n	n/a
264.977	0.105	529954	keystroke_Key.space	Key.space	n/a
265.052	0.105	530104	keystroke_c	c	n/a
265.157	0.06	530314	keystroke_y	y	n/a
265.2325	0.135	530465	keystroke_c	c	n/a
265.3375	0.135	530675	keystroke_l	l	n/a
265.4575	0.0905	530915	keystroke_e	e	n/a
265.623	0.12	531246	keystroke_s	s	n/a
265.9535	0.105	531907	keystroke_Key.space	Key.space	n/a
266.299	0.12	532598	keystroke_p	p	n/a
266.419	0.12	532838	keystroke_r	r	n/a
266.524	0.1355	533048	keystroke_a	a	n/a
266.5995	0.105	533199	keystroke_i	i	n/a
266.7195	0.12	533439	keystroke_s	s	n/a
266.8995	0.1205	533799	keystroke_e	e	n/a
267.05	0.165	534100	keystroke_Key.space	Key.space	n/a
267.2	0.1505	534400	keystroke_s	s	n/a
267.29	0.1355	534580	keystroke_a	a	n/a
267.3955	0.12	534791	keystroke_v	v	n/a
267.4555	0.12	534911	keystroke_i	i	n/a
267.5005	0.1355	535001	keystroke_n	n	n/a
267.651	0.075	535302	keystroke_g	g	n/a
267.771	0.12	535542	keystroke_Key.enter	Key.enter	n/a
267.897	7.3865	535794	prompt	n/a	devil lots parliamentary representations\n
268.7025	0.12	537405	keystroke_d	d	n/a
268.8075	0.1655	537615	keystroke_e	e	n/a
268.9425	0.1055	537885	keystroke_v	v	n/a
269.003	0.165	538006	keystroke_i	i	n/a
269.093	0.135	538186	keystroke_l	l	n/a
269.198	0.15	538396	keystroke_Key.space	Key.space	n/a
269.348	0.1055	538696	keystroke_l	l	n/a
269.4985	0.135	538997	keystroke_o	o	n/a
269.7535	0.0755	539507	keystroke_t	t	n/a
269.9645	0.105	539929	keystroke_s	s	n/a
270.2495	0.135	540499	keystroke_Key.space	Key.space	n/a
270.61	0.12	541220	keystroke_p	p	n/a
270.9405	0.12	541881	keystroke_a	a	n/a
271.0905	0.0905	542181	keystroke_r	r	n/a
271.316	0.1805	542632	keystroke_l	l	n/a
271.391	0.1505	542782	keystroke_i	i	n/a
271.5265	0.12	543053	keystroke_a	a	n/a
271.6015	0.12	543203	keystroke_m	m	n/a
271.7365	0.1355	543473	keystroke_e	e	n/a
271.857	0.12	543714	keystroke_n	n	n/a
271.962	0.075	543924	keystroke_t	t	n/a
272.082	0.105	544164	keystroke_a	a	n/a
272.142	0.12	544284	keystroke_r	r	n/a
272.217	0.0905	544434	keystroke_y	y	n/a
272.232	0.0765	544464	keystroke_u	u	n/a
272.3085	0.074	544617	keystroke_Key.space	Key.space	n/a
272.818	0.1055	545636	keystroke_Key.backspace	Key.backspace	n/a
273.0135	0.075	546027	keystroke_Key.backspace	Key.backspace	n/a
273.2535	0.1055	546507	keystroke_Key.space	Key.space	n/a
273.344	0.105	546688	keystroke_r	r	n/a
273.404	0.165	546808	keystroke_e	e	n/a
273.509	0.12	547018	keystroke_p	p	n/a
273.614	0.12	547228	keystroke_r	r	n/a
273.719	0.1205	547438	keystroke_e	e	n/a
274.0495	0.0905	548099	keystroke_s	s	n/a
274.245	0.105	548490	keystroke_e	e	n/a
274.32	0.1205	548640	keystroke_n	n	n/a
274.4555	0.105	548911	keystroke_t	t	n/a
274.5755	0.135	549151	keystroke_a	a	n/a
274.6805	0.09	549361	keystroke_t	t	n/a
274.7555	0.1355	549511	keystroke_i	i	n/a
274.8155	0.1205	549631	keystroke_o	o	n/a
274.861	0.12	549722	keystroke_n	n	n/a
274.996	0.06	549992	keystroke_s	s	n/a
275.161	0.1205	550322	keystroke_Key.enter	Key.enter	n/a
275.291	6.447	550582	prompt	n/a	added slim funny recreational\n
275.807	0.12	551614	keystroke_a	a	n/a
275.912	0.075	551824	keystroke_d	d	n/a
276.0625	0.105	552125	keystroke_d	d	n/a
276.1375	0.15	552275	keystroke_e	e	n/a
276.2425	0.135	552485	keystroke_d	d	n/a
276.3025	0.1655	552605	keystroke_Key.space	Key.space	n/a
276.498	0.12	552996	keystroke_s	s	n/a
276.558	0.195	553116	keystroke_l	l	n/a
276.618	0.165	553236	keystroke_i	i	n/a
276.723	0.1055	553446	keystroke_m	m	n/a
276.9185	0.135	553837	keystroke_Key.space	Key.space	n/a
277.0385	0.105	554077	keystroke_f	f	n/a
277.1135	0.1205	554227	keystroke_u	u	n/a
277.1885	0.1055	554377	keystroke_n	n	n/a
277.324	0.15	554648	keystroke_n	n	n/a
277.9695	0.12	555939	keystroke_y	y	n/a
278.0745	0.1205	556149	keystroke_Key.space	Key.space	n/a
278.21	0.12	556420	keystroke_r	r	n/a
278.285	0.165	556570	keystroke_e	e	n/a
278.5255	0.09	557051	keystroke_c	c	n/a
278.8405	0.135	557681	keystroke_r	r	n/a
279.186	0.135	558372	keystroke_e	e	n/a
279.501	0.1055	559002	keystroke_a	a	n/a
279.6815	0.12	559363	keystroke_t	t	n/a
279.696	0.09	559392	keystroke_r	r	n/a
279.771	0.1805	559542	keystroke_i	i	n/a
280.2215	0.075	560443	keystroke_Key.backspace	Key.backspace	n/a
280.6865	0.09	561373	keystroke_Key.backspace	Key.backspace	n/a
280.9265	0.1655	561853	keystroke_i	i	n/a
281.0015	0.135	562003	keystroke_o	o	n/a
281.093	0.1185	562186	keystroke_n	n	n/a
281.1815	0.105	562363	keystroke_a	a	n/a
281.2715	0.105	562543	keystroke_l	l	n/a
281.6465	0.09	563293	keystroke_Key.enter	Key.enter	n/a
281.743	5.019	563486	prompt	n/a	large guestbook august runtime\n
282.4115	0.135	564823	keystroke_l	l	n/a
282.5315	0.0895	565063	keystroke_a	a	n/a
282.606	0.075	565212	keystroke_r	r	n/a
282.831	0.1055	565662	keystroke_g	g	n/a
282.9215	0.1195	565843	keystroke_e	e	n/a
283.0115	0.1195	566023	keystroke_Key.space	Key.space	n/a
283.371	0.1205	566742	keystroke_g	g	n/a
283.4615	0.1495	566923	keystroke_u	u	n/a
283.551	0.105	567102	keystroke_e	e	n/a
283.761	0.165	567522	keystroke_s	s	n/a
283.896	0.105	567792	keystroke_t	t	n/a
284.1205	0.1355	568241	keystroke_b	b	n/a
284.271	0.045	568542	keystroke_o	o	n/a
284.406	0.1495	568812	keystroke_o	o	n/a
284.496	0.1495	568992	keystroke_k	k	n/a
284.6305	0.135	569261	keystroke_Key.space	Key.space	n/a
284.7505	0.12	569501	keystroke_a	a	n/a
285.0205	0.15	570041	keystroke_u	u	n/a
285.3505	0.09	570701	keystroke_g	g	n/a
285.4705	0.135	570941	keystroke_u	u	n/a
285.5755	0.165	571151	keystroke_s	s	n/a
285.6955	0.12	571391	keystroke_t	t	n/a
285.8005	0.1195	571601	keystroke_Key.space	Key.space	n/a
285.95	0.105	571900	keystroke_r	r	n/a
286.01	0.1505	572020	keystroke_u	u	n/a
286.085	0.1205	572170	keystroke_n	n	n/a
286.1905	0.12	572381	keystroke_t	t	n/a
286.2805	0.1345	572561	keystroke_i	i	n/a
286.3555	0.1195	572711	keystroke_m	m	n/a
286.46	0.09	572920	keystroke_e	e	n/a
286.64	0.12	573280	keystroke_Key.enter	Key.enter	n/a
286.767	6.2485	573534	prompt	n/a	experts outputs grew betty\n
287.3005	0.1345	574601	keystroke_e	e	n/a
287.525	0.135	575050	keystroke_x	x	n/a
287.675	0.12	575350	keystroke_p	p	n/a
287.78	0.135	575560	keystroke_e	e	n/a
287.87	0.105	575740	keystroke_r	r	n/a
288.065	0.075	576130	keystroke_t	t	n/a
288.215	0.135	576430	keystroke_s	s	n/a
288.665	0.12	577330	keystroke_Key.space	Key.space	n/a
288.9945	0.165	577989	keystroke_o	o	n/a
289.1305	0.1045	578261	keystroke_u	u	n/a
289.19	0.12	578380	keystroke_t	t	n/a
289.3245	0.135	578649	keystroke_p	p	n/a
289.3995	0.135	578799	keystroke_u	u	n/a
289.4745	0.075	578949	keystroke_t	t	n/a
289.6095	0.12	579219	keystroke_s	s	n/a
289.6845	0.12	579369	keystroke_Key.space	Key.space	n/a
289.8495	0.105	579699	keystroke_g	g	n/a
290.1045	0.09	580209	keystroke_e	e	n/a
290.4795	0.015	580959	keystroke_w	w	n/a
290.6895	0.0895	581379	keystroke_Key.backspace	Key.backspace	n/a
290.869	0.105	581738	keystroke_Key.backspace	Key.backspace	n/a
291.02	0.119	582040	keystroke_r	r	n/a
291.6645	0.1195	583329	keystroke_e	e	n/a
291.769	0.12	583538	keystroke_w	w	n/a
291.904	0.135	583808	keystroke_Key.space	Key.space	n/a
292.219	0.105	584438	keystroke_b	b	n/a
292.34	0.119	584680	keystroke_e	e	n/a
292.43	0.059	584860	keystroke_t	t	n/a
292.579	0.091	585158	keystroke_t	t	n/a
292.64	0.074	585280	keystroke_y	y	n/a
292.8785	0.135	585757	keystroke_Key.enter	Key.enter	n/a
293.0205	3.0985	586041	prompt	n/a	named tour fishing acer\n
293.5685	0.1495	587137	keystroke_n	n	n/a
293.703	0.1205	587406	keystroke_a	a	n/a
293.8395	0.074	587679	keystroke_m	m	n/a
293.8985	0.15	587797	keystroke_e	e	n/a
294.0185	0.15	588037	keystroke_d	d	n/a
294.1235	0.1345	588247	keystroke_Key.space	Key.space	n/a
294.303	0.1215	588606	keystroke_t	t	n/a
294.364	0.1505	588728	keystroke_o	o	n/a
294.4395	0.119	588879	keystroke_u	u	n/a
294.5285	0.106	589057	keystroke_r	r	n/a
294.6345	0.1335	589269	keystroke_Key.space	Key.space	n/a
294.798	0.1355	589596	keystroke_f	f	n/a
294.9185	0.105	589837	keystroke_i	i	n/a
295.0395	0.1035	590079	keystroke_s	s	n/a
295.1135	0.1645	590227	keystroke_h	h	n/a
295.173	0.15	590346	keystroke_i	i	n/a
295.263	0.12	590526	keystroke_n	n	n/a
295.338	0.105	590676	keystroke_g	g	n/a
295.473	0.09	590946	keystroke_Key.space	Key.space	n/a
295.533	0.1655	591066	keystroke_a	a	n/a
295.6525	0.12	591305	keystroke_c	c	n/a
295.8175	0.1205	591635	keystroke_e	e	n/a
295.908	0.075	591816	keystroke_r	r	n/a
295.998	0.1195	591996	keystroke_Key.enter	Key.enter	n/a
296.124	7.254	592248	prompt	n/a	possibility columnists violin zoom\n
296.7935	0.179	593587	keystroke_p	p	n/a
296.9425	0.135	593885	keystroke_o	o	n/a
297.049	0.0895	594098	keystroke_s	s	n/a
297.2135	0.104	594427	keystroke_s	s	n/a
297.3025	0.12	594605	keystroke_i	i	n/a
297.4075	0.136	594815	keystroke_b	b	n/a
297.5435	0.119	595087	keystroke_i	i	n/a
297.6485	0.195	595297	keystroke_l	l	n/a
297.7835	0.119	595567	keystroke_i	i	n/a
297.8735	0.119	595747	keystroke_t	t	n/a
297.9785	0.1195	595957	keystroke_y	y	n/a
298.0525	0.1345	596105	keystroke_Key.space	Key.space	n/a
298.368	0.1055	596736	keystroke_c	c	n/a
298.608	0.075	597216	keystroke_o	o	n/a
298.817	0.151	597634	keystroke_l	l	n/a
298.953	0.149	597906	keystroke_u	u	n/a
299.0565	0.0915	598113	keystroke_m	m	n/a
299.238	0.119	598476	keystroke_n	n	n/a
299.6125	0.089	599225	keystroke_i	i	n/a
299.808	0.18	599616	keystroke_s	s	n/a
300.002	0.12	600004	keystroke_t	t	n/a
300.138	0.164	600276	keystroke_s	s	n/a
301.1115	0.105	602223	keystroke_Key.space	Key.space	n/a
301.5925	0.104	603185	keystroke_v	v	n/a
301.8175	0.164	603635	keystroke_i	i	n/a
301.9375	0.194	603875	keystroke_o	o	n/a
302.1015	0.136	604203	keystroke_l	l	n/a
302.2515	0.15	604503	keystroke_i	i	n/a
302.3715	0.0895	604743	keystroke_n	n	n/a
302.536	0.12	605072	keystroke_Key.space	Key.space	n/a
302.641	0.1215	605282	keystroke_z	z	n/a
302.7765	0.045	605553	keystroke_o	o	n/a
303.002	0.029	606004	keystroke_o	o	n/a
303.017	0.089	606034	keystroke_m	m	n/a
303.256	0.12	606512	keystroke_Key.enter	Key.enter	n/a
303.383	7.343	606766	prompt	n/a	expires origin coupon capability\n
304.7865	0.105	609573	keystroke_e	e	n/a
304.9965	0.12	609993	keystroke_x	x	n/a
305.1015	0.105	610203	keystroke_p	p	n/a
305.1765	0.1185	610353	keystroke_i	i	n/a
305.2815	0.1195	610563	keystroke_r	r	n/a
305.371	0.12	610742	keystroke_w	w	n/a
305.386	0.09	610772	keystroke_e	e	n/a
305.611	0.06	611222	keystroke_s	s	n/a
306	0.105	612000	keystroke_Key.backspace	Key.backspace	n/a
306.181	0.0885	612362	keystroke_Key.backspace	Key.backspace	n/a
306.3295	0.09	612659	keystroke_Key.backspace	Key.backspace	n/a
306.4055	0.105	612811	keystroke_e	e	n/a
306.6305	0.0905	613261	keystroke_s	s	n/a
306.735	0.105	613470	keystroke_Key.space	Key.space	n/a
307.486	0.15	614972	keystroke_o	o	n/a
307.666	0.1195	615332	keystroke_r	r	n/a
307.7705	0.075	615541	keystroke_i	i	n/a
307.9055	0.105	615811	keystroke_g	g	n/a
307.9505	0.12	615901	keystroke_i	i	n/a
308.0255	0.105	616051	keystroke_n	n	n/a
308.175	0.1495	616350	keystroke_Key.space	Key.space	n/a
308.3405	0.105	616681	keystroke_c	c	n/a
308.4005	0.12	616801	keystroke_o	o	n/a
308.4755	0.105	616951	keystroke_u	u	n/a
308.6405	0.15	617281	keystroke_p	p	n/a
308.7305	0.135	617461	keystroke_o	o	n/a
308.8355	0.12	617671	keystroke_n	n	n/a
309.0305	0.15	618061	keystroke_Key.space	Key.space	n/a
309.3005	0.12	618601	keystroke_c	c	n/a
309.3905	0.105	618781	keystroke_a	a	n/a
309.4655	0.135	618931	keystroke_p	p	n/a
309.6155	0.075	619231	keystroke_a	a	n/a
309.7055	0.15	619411	keystroke_b	b	n/a
309.8105	0.15	619621	keystroke_i	i	n/a
309.9455	0.195	619891	keystroke_l	l	n/a
310.0805	0.135	620161	keystroke_i	i	n/a
310.2305	0.1045	620461	keystroke_t	t	n/a
310.35	0.06	620700	keystroke_y	y	n/a
310.6195	0.1055	621239	keystroke_Key.enter	Key.enter	n/a
310.731	9.457	621462	prompt	n/a	announcement shall applicable algorithms\n
315.3305	0.028	630661	keystroke_a	a	n/a
315.3735	0.075	630747	keystroke_n	n	n/a
315.5385	0.105	631077	keystroke_n	n	n/a
315.6285	0.165	631257	keystroke_o	o	n/a
315.7035	0.15	631407	keystroke_u	u	n/a
315.7785	0.105	631557	keystroke_n	n	n/a
315.8385	0.12	631677	keystroke_c	c	n/a
315.9885	0.0895	631977	keystroke_e	e	n/a
316.063	0.09	632126	keystroke_m	m	n/a
316.168	0.1205	632336	keystroke_e	e	n/a
316.2435	0.105	632487	keystroke_n	n	n/a
316.3335	0.105	632667	keystroke_t	t	n/a
316.4685	0.09	632937	keystroke_Key.space	Key.space	n/a
316.663	0.12	633326	keystroke_s	s	n/a
316.768	0.09	633536	keystroke_h	h	n/a
316.873	0.105	633746	keystroke_a	a	n/a
316.963	0.06	633926	keystroke_l	l	n/a
317.083	0.12	634166	keystroke_l	l	n/a
317.173	0.135	634346	keystroke_Key.space	Key.space	n/a
317.353	0.09	634706	keystroke_a	a	n/a
317.6375	0.12	635275	keystroke_p	p	n/a
317.8175	0.1055	635635	keystroke_p	p	n/a
318.0575	0.135	636115	keystroke_l	l	n/a
318.1475	0.135	636295	keystroke_i	i	n/a
318.2075	0.135	636415	keystroke_c	c	n/a
318.3275	0.12	636655	keystroke_a	a	n/a
318.3575	0.135	636715	keystroke_b	b	n/a
318.4325	0.165	636865	keystroke_l	l	n/a
318.5825	0.105	637165	keystroke_e	e	n/a
318.6425	0.12	637285	keystroke_Key.space	Key.space	n/a
318.7925	0.135	637585	keystroke_a	a	n/a
318.9575	0.1345	637915	keystroke_l	l	n/a
319.137	0.09	638274	keystroke_g	g	n/a
319.272	0.12	638544	keystroke_o	o	n/a
319.377	0.1055	638754	keystroke_r	r	n/a
319.512	0.105	639024	keystroke_i	i	n/a
319.632	0.105	639264	keystroke_t	t	n/a
319.692	0.135	639384	keystroke_h	h	n/a
319.797	0.12	639594	keystroke_m	m	n/a
319.902	0.09	639804	keystroke_s	s	n/a
320.112	0.075	640224	keystroke_Key.enter	Key.enter	n/a
320.193	4.9585	640386	prompt	n/a	bool being miscellaneous above\n
321.0715	0.075	642143	keystroke_b	b	n/a
321.2515	0.075	642503	keystroke_o	o	n/a
321.4165	0.105	642833	keystroke_o	o	n/a
321.6415	0.12	643283	keystroke_l	l	n/a
321.7915	0.165	643583	keystroke_Key.space	Key.space	n/a
321.9565	0.12	643913	keystroke_b	b	n/a
322.0615	0.12	644123	keystroke_e	e	n/a
322.1965	0.12	644393	keystroke_i	i	n/a
322.2565	0.105	644513	keystroke_n	n	n/a
322.3315	0.0895	644663	keystroke_g	g	n/a
322.436	0.105	644872	keystroke_Key.space	Key.space	n/a
322.676	0.09	645352	keystroke_m	m	n/a
322.901	0.12	645802	keystroke_i	i	n/a
323.036	0.135	646072	keystroke_s	s	n/a
323.156	0.135	646312	keystroke_c	c	n/a
323.306	0.09	646612	keystroke_e	e	n/a
323.366	0.09	646732	keystroke_l	l	n/a
323.531	0.105	647062	keystroke_l	l	n/a
323.621	0.12	647242	keystroke_a	a	n/a
323.771	0.09	647542	keystroke_n	n	n/a
323.996	0.105	647992	keystroke_e	e	n/a
324.161	0.135	648322	keystroke_o	o	n/a
324.236	0.135	648472	keystroke_u	u	n/a
324.341	0.1045	648682	keystroke_s	s	n/a
324.4155	0.135	648831	keystroke_Key.space	Key.space	n/a
324.5355	0.12	649071	keystroke_a	a	n/a
324.6405	0.105	649281	keystroke_b	b	n/a
324.7305	0.12	649461	keystroke_o	o	n/a
324.8205	0.105	649641	keystroke_v	v	n/a
324.8955	0.105	649791	keystroke_e	e	n/a
325.0605	0.09	650121	keystroke_Key.enter	Key.enter	n/a
325.1565	11.6015	650313	prompt	n/a	mirrors showed bleeding conditioning\n
326.26	0.12	652520	keystroke_m	m	n/a
326.32	0.135	652640	keystroke_i	i	n/a
326.44	0.09	652880	keystroke_r	r	n/a
326.605	0.105	653210	keystroke_r	r	n/a
326.65	0.1045	653300	keystroke_o	o	n/a
326.8295	0.105	653659	keystroke_s	s	n/a
326.9645	0.135	653929	keystroke_Key.space	Key.space	n/a
327.1595	0.135	654319	keystroke_s	s	n/a
327.594	0.09	655188	keystroke_Key.backspace	Key.backspace	n/a
327.759	0.06	655518	keystroke_Key.backspace	Key.backspace	n/a
327.894	0.09	655788	keystroke_Key.backspace	Key.backspace	n/a
328.029	0.105	656058	keystroke_r	r	n/a
328.164	0.12	656328	keystroke_s	s	n/a
328.329	0.12	656658	keystroke_Key.space	Key.space	n/a
328.539	0.1505	657078	keystroke_s	s	n/a
328.6445	0.12	657289	keystroke_h	h	n/a
328.7045	0.15	657409	keystroke_o	o	n/a
328.7795	0.075	657559	keystroke_w	w	n/a
328.9595	0.105	657919	keystroke_e	e	n/a
329.0195	0.135	658039	keystroke_d	d	n/a
329.1395	0.1345	658279	keystroke_Key.space	Key.space	n/a
329.289	0.09	658578	keystroke_b	b	n/a
329.439	0.165	658878	keystroke_l	l	n/a
329.544	0.075	659088	keystroke_e	e	n/a
329.739	0.09	659478	keystroke_e	e	n/a
329.799	0.15	659598	keystroke_d	d	n/a
329.904	0.105	659808	keystroke_i	i	n/a
329.964	0.105	659928	keystroke_n	n	n/a
330.084	0.105	660168	keystroke_g	g	n/a
330.219	0.135	660438	keystroke_Key.space	Key.space	n/a
330.534	0.045	661068	keystroke_f	f	n/a
330.594	0.0895	661188	keystroke_c	c	n/a
331.014	0.0895	662028	keystroke_Key.backspace	Key.backspace	n/a
331.1935	0.075	662387	keystroke_Key.backspace	Key.backspace	n/a
331.3435	0.12	662687	keystroke_c	c	n/a
331.4785	0.12	662957	keystroke_o	o	n/a
331.5835	0.105	663167	keystroke_n	n	n/a
331.6135	0.105	663227	keystroke_d	d	n/a
331.8085	0.09	663617	keystroke_i	i	n/a
331.8835	0.09	663767	keystroke_t	t	n/a
331.9885	0.1345	663977	keystroke_o	o	n/a
332.0785	0.1045	664157	keystroke_i	i	n/a
332.108	0.12	664216	keystroke_n	n	n/a
332.258	0.1205	664516	keystroke_i	i	n/a
332.333	0.09	664666	keystroke_n	n	n/a
332.408	0.075	664816	keystroke_g	g	n/a
332.813	0.06	665626	keystroke_Key.backspace	Key.backspace	n/a
332.948	0.06	665896	keystroke_Key.backspace	Key.backspace	n/a
333.083	0.09	666166	keystroke_Key.backspace	Key.backspace	n/a
333.248	0.045	666496	keystroke_Key.backspace	Key.backspace	n/a
333.368	0.105	666736	keystroke_Key.backspace	Key.backspace	n/a
333.788	0.12	667576	keystroke_n	n	n/a
335.1825	0.15	670365	keystroke_i	i	n/a
336.0975	0.135	672195	keystroke_n	n	n/a
336.2325	0.09	672465	keystroke_g	g	n/a
336.622	0.135	673244	keystroke_Key.enter	Key.enter	n/a
336.7635	6.2475	673527	prompt	n/a	agent carroll mint maui\n
337.612	0.15	675224	keystroke_a	a	n/a
337.792	0.0745	675584	keystroke_r	r	n/a
338.1515	0.12	676303	keystroke_Key.backspace	Key.backspace	n/a
338.3015	0.09	676603	keystroke_g	g	n/a
338.4065	0.12	676813	keystroke_e	e	n/a
338.4665	0.09	676933	keystroke_n	n	n/a
338.5865	0.12	677173	keystroke_t	t	n/a
338.6915	0.105	677383	keystroke_Key.space	Key.space	n/a
339.336	0.12	678672	keystroke_c	c	n/a
339.501	0.12	679002	keystroke_a	a	n/a
339.681	0.09	679362	keystroke_r	r	n/a
339.831	0.105	679662	keystroke_r	r	n/a
339.891	0.105	679782	keystroke_o	o	n/a
340.101	0.075	680202	keystroke_l	l	n/a
340.236	0.135	680472	keystroke_l	l	n/a
340.341	0.12	680682	keystroke_Key.space	Key.space	n/a
340.566	0.12	681132	keystroke_m	m	n/a
340.671	0.1345	681342	keystroke_i	i	n/a
340.7605	0.1205	681521	keystroke_n	n	n/a
340.851	0.09	681702	keystroke_t	t	n/a
341.031	0.089	682062	keystroke_Key.space	Key.space	n/a
341.316	0.089	682632	keystroke_m	m	n/a
341.436	0.12	682872	keystroke_a	a	n/a
341.541	0.119	683082	keystroke_u	u	n/a
341.601	0.165	683202	keystroke_i	i	n/a
342.8745	0.135	685749	keystroke_Key.enter	Key.enter	n/a
343.0165	6.1435	686033	prompt	n/a	mastercard tours directed relocation\n
343.76	0.12	687520	keystroke_m	m	n/a
343.85	0.18	687700	keystroke_a	a	n/a
343.925	0.195	687850	keystroke_s	s	n/a
344.105	0.15	688210	keystroke_t	t	n/a
344.225	0.12	688450	keystroke_e	e	n/a
344.315	0.12	688630	keystroke_r	r	n/a
344.585	0.135	689170	keystroke_c	c	n/a
344.735	0.135	689470	keystroke_a	a	n/a
344.855	0.09	689710	keystroke_r	r	n/a
345.065	0.105	690130	keystroke_d	d	n/a
345.154	0.136	690308	keystroke_Key.space	Key.space	n/a
345.335	0.105	690670	keystroke_t	t	n/a
345.425	0.1645	690850	keystroke_o	o	n/a
345.5	0.1345	691000	keystroke_u	u	n/a
345.575	0.1045	691150	keystroke_r	r	n/a
345.695	0.15	691390	keystroke_s	s	n/a
345.814	0.106	691628	keystroke_Key.space	Key.space	n/a
345.965	0.1195	691930	keystroke_d	d	n/a
346.0995	0.12	692199	keystroke_i	i	n/a
346.2045	0.135	692409	keystroke_r	r	n/a
346.3095	0.165	692619	keystroke_e	e	n/a
346.5345	0.105	693069	keystroke_c	c	n/a
346.7595	0.105	693519	keystroke_t	t	n/a
346.8495	0.165	693699	keystroke_e	e	n/a
346.9845	0.12	693969	keystroke_d	d	n/a
347.0445	0.135	694089	keystroke_Key.space	Key.space	n/a
347.2245	0.105	694449	keystroke_r	r	n/a
347.2995	0.135	694599	keystroke_e	e	n/a
347.4495	0.1045	694899	keystroke_l	l	n/a
347.689	0.12	695378	keystroke_o	o	n/a
348.154	0.09	696308	keystroke_c	c	n/a
348.379	0.12	696758	keystroke_a	a	n/a
348.514	0.09	697028	keystroke_t	t	n/a
348.619	0.15	697238	keystroke_i	i	n/a
348.664	0.12	697328	keystroke_o	o	n/a
348.754	0.105	697508	keystroke_n	n	n/a
349.084	0.075	698168	keystroke_Key.enter	Key.enter	n/a
349.1675	4.8055	698335	prompt	n/a	thoughts anybody motel purposes\n
349.8185	0.09	699637	keystroke_t	t	n/a
349.9085	0.15	699817	keystroke_h	h	n/a
349.9985	0.18	699997	keystroke_o	o	n/a
350.1035	0.09	700207	keystroke_u	u	n/a
350.3435	0.1045	700687	keystroke_g	g	n/a
350.4185	0.1195	700837	keystroke_h	h	n/a
350.4935	0.0895	700987	keystroke_t	t	n/a
350.703	0.09	701406	keystroke_s	s	n/a
350.808	0.075	701616	keystroke_Key.space	Key.space	n/a
350.943	0.105	701886	keystroke_a	a	n/a
351.063	0.09	702126	keystroke_n	n	n/a
351.333	0.1195	702666	keystroke_y	y	n/a
351.6925	0.15	703385	keystroke_b	b	n/a
351.8275	0.135	703655	keystroke_o	o	n/a
351.9775	0.135	703955	keystroke_d	d	n/a
352.0675	0.105	704135	keystroke_y	y	n/a
352.1275	0.105	704255	keystroke_Key.space	Key.space	n/a
352.3675	0.12	704735	keystroke_m	m	n/a
352.4275	0.135	704855	keystroke_o	o	n/a
352.5175	0.105	705035	keystroke_t	t	n/a
352.5925	0.12	705185	keystroke_e	e	n/a
352.6975	0.075	705395	keystroke_l	l	n/a
352.7275	0.15	705455	keystroke_Key.space	Key.space	n/a
352.9525	0.12	705905	keystroke_p	p	n/a
353.0575	0.12	706115	keystroke_u	u	n/a
353.1625	0.105	706325	keystroke_r	r	n/a
353.2375	0.165	706475	keystroke_p	p	n/a
353.3425	0.135	706685	keystroke_o	o	n/a
353.4175	0.12	706835	keystroke_s	s	n/a
353.5825	0.105	707165	keystroke_e	e	n/a
353.7625	0.105	707525	keystroke_s	s	n/a
353.8525	0.12	707705	keystroke_Key.enter	Key.enter	n/a
353.978	4.5845	707956	prompt	n/a	infections answers trout section\n
354.707	0.12	709414	keystroke_i	i	n/a
354.782	0.135	709564	keystroke_n	n	n/a
354.902	0.135	709804	keystroke_f	f	n/a
355.022	0.195	710044	keystroke_e	e	n/a
355.157	0.12	710314	keystroke_c	c	n/a
355.397	0.12	710794	keystroke_t	t	n/a
355.502	0.135	711004	keystroke_i	i	n/a
355.547	0.12	711094	keystroke_o	o	n/a
355.592	0.105	711184	keystroke_n	n	n/a
355.652	0.15	711304	keystroke_s	s	n/a
355.787	0.105	711574	keystroke_Key.space	Key.space	n/a
355.877	0.18	711754	keystroke_a	a	n/a
355.982	0.105	711964	keystroke_n	n	n/a
356.042	0.105	712084	keystroke_s	s	n/a
356.222	0.09	712444	keystroke_w	w	n/a
356.402	0.12	712804	keystroke_e	e	n/a
356.492	0.105	712984	keystroke_r	r	n/a
356.627	0.1195	713254	keystroke_s	s	n/a
356.7015	0.12	713403	keystroke_Key.space	Key.space	n/a
356.8365	0.075	713673	keystroke_t	t	n/a
357.0165	0.12	714033	keystroke_r	r	n/a
357.1215	0.12	714243	keystroke_o	o	n/a
357.1665	0.135	714333	keystroke_u	u	n/a
357.2565	0.06	714513	keystroke_t	t	n/a
357.3465	0.135	714693	keystroke_Key.space	Key.space	n/a
357.4515	0.105	714903	keystroke_s	s	n/a
357.6165	0.18	715233	keystroke_e	e	n/a
357.7365	0.135	715473	keystroke_c	c	n/a
357.9915	0.105	715983	keystroke_t	t	n/a
358.0665	0.1345	716133	keystroke_i	i	n/a
358.1115	0.1345	716223	keystroke_o	o	n/a
358.186	0.12	716372	keystroke_n	n	n/a
358.471	0.09	716942	keystroke_Key.enter	Key.enter	n/a
358.568	7.417	717136	prompt	n/a	mexican declaration check banner\n
359.1755	0.12	718351	keystroke_m	m	n/a
359.2655	0.09	718531	keystroke_e	e	n/a
359.4755	0.12	718951	keystroke_x	x	n/a
359.5505	0.135	719101	keystroke_i	i	n/a
359.7155	0.12	719431	keystroke_c	c	n/a
359.7755	0.15	719551	keystroke_a	a	n/a
359.8505	0.09	719701	keystroke_n	n	n/a
360.0305	0.12	720061	keystroke_Key.space	Key.space	n/a
360.4205	0.1495	720841	keystroke_d	d	n/a
360.63	0.135	721260	keystroke_e	e	n/a
360.93	0.15	721860	keystroke_c	c	n/a
361.095	0.12	722190	keystroke_l	l	n/a
361.23	0.12	722460	keystroke_r	r	n/a
361.335	0.15	722670	keystroke_a	a	n/a
361.455	0.105	722910	keystroke_t	t	n/a
361.515	0.15	723030	keystroke_i	i	n/a
361.545	0.135	723090	keystroke_o	o	n/a
361.605	0.105	723210	keystroke_n	n	n/a
361.785	0.12	723570	keystroke_Key.space	Key.space	n/a
362.19	0.09	724380	keystroke_Key.backspace	Key.backspace	n/a
362.37	0.075	724740	keystroke_Key.backspace	Key.backspace	n/a
362.52	0.0745	725040	keystroke_Key.backspace	Key.backspace	n/a
362.6545	0.075	725309	keystroke_Key.backspace	Key.backspace	n/a
362.8195	0.045	725639	keystroke_Key.backspace	Key.backspace	n/a
362.9545	0.105	725909	keystroke_Key.backspace	Key.backspace	n/a
363.2095	0.09	726419	keystroke_Key.backspace	Key.backspace	n/a
363.4045	0.105	726809	keystroke_a	a	n/a
363.4945	0.1195	726989	keystroke_r	r	n/a
363.629	0.165	727258	keystroke_a	a	n/a
363.824	0.105	727648	keystroke_c	c	n/a
364.109	0.105	728218	keystroke_Key.backspace	Key.backspace	n/a
364.229	0.09	728458	keystroke_t	t	n/a
364.379	0.18	728758	keystroke_i	i	n/a
364.439	0.135	728878	keystroke_o	o	n/a
364.514	0.105	729028	keystroke_n	n	n/a
364.679	0.12	729358	keystroke_Key.space	Key.space	n/a
364.784	0.12	729568	keystroke_c	c	n/a
364.874	0.12	729748	keystroke_h	h	n/a
364.964	0.1195	729928	keystroke_e	e	n/a
365.0385	0.1055	730077	keystroke_c	c	n/a
365.0685	0.1055	730137	keystroke_k	k	n/a
365.159	0.1345	730318	keystroke_Key.space	Key.space	n/a
365.2785	0.105	730557	keystroke_b	b	n/a
365.369	0.1045	730738	keystroke_a	a	n/a
365.4585	0.09	730917	keystroke_n	n	n/a
365.6235	0.105	731247	keystroke_n	n	n/a
365.7135	0.09	731427	keystroke_e	e	n/a
365.7735	0.105	731547	keystroke_r	r	n/a
365.8635	0.12	731727	keystroke_Key.enter	Key.enter	n/a
365.9915	4.582	731983	prompt	n/a	in excellence classic amino\n
366.6885	0.12	733377	keystroke_i	i	n/a
366.7635	0.09	733527	keystroke_n	n	n/a
366.9285	0.12	733857	keystroke_Key.space	Key.space	n/a
367.0335	0.12	734067	keystroke_e	e	n/a
367.2585	0.12	734517	keystroke_x	x	n/a
367.4985	0.09	734997	keystroke_c	c	n/a
367.5735	0.12	735147	keystroke_e	e	n/a
367.6635	0.045	735327	keystroke_l	l	n/a
367.8135	0.09	735627	keystroke_l	l	n/a
368.128	0.075	736256	keystroke_e	e	n/a
368.233	0.09	736466	keystroke_n	n	n/a
368.338	0.105	736676	keystroke_c	c	n/a
368.413	0.12	736826	keystroke_e	e	n/a
368.488	0.12	736976	keystroke_Key.space	Key.space	n/a
368.953	0.12	737906	keystroke_c	c	n/a
369.088	0.105	738176	keystroke_l	l	n/a
369.223	0.12	738446	keystroke_a	a	n/a
369.313	0.075	738626	keystroke_s	s	n/a
369.4475	0.135	738895	keystroke_s	s	n/a
369.5375	0.135	739075	keystroke_i	i	n/a
369.6575	0.105	739315	keystroke_c	c	n/a
369.7475	0.105	739495	keystroke_Key.space	Key.space	n/a
369.8825	0.105	739765	keystroke_a	a	n/a
369.9725	0.09	739945	keystroke_m	m	n/a
370.0325	0.165	740065	keystroke_i	i	n/a
370.1525	0.12	740305	keystroke_n	n	n/a
370.2125	0.135	740425	keystroke_o	o	n/a
370.4675	0.105	740935	keystroke_Key.enter	Key.enter	n/a
370.579	4.148	741158	prompt	n/a	turner essex round property\n
371.382	0.12	742764	keystroke_t	t	n/a
371.532	0.105	743064	keystroke_u	u	n/a
371.622	0.135	743244	keystroke_r	r	n/a
371.727	0.1195	743454	keystroke_n	n	n/a
371.802	0.1345	743604	keystroke_e	e	n/a
371.8765	0.105	743753	keystroke_r	r	n/a
371.9665	0.12	743933	keystroke_Key.space	Key.space	n/a
372.1165	0.18	744233	keystroke_e	e	n/a
372.4315	0.105	744863	keystroke_s	s	n/a
372.5965	0.105	745193	keystroke_s	s	n/a
372.7765	0.09	745553	keystroke_e	e	n/a
372.9865	0.12	745973	keystroke_x	x	n/a
373.1365	0.12	746273	keystroke_Key.space	Key.space	n/a
373.2715	0.09	746543	keystroke_r	r	n/a
373.3615	0.15	746723	keystroke_o	o	n/a
373.4365	0.1205	746873	keystroke_u	u	n/a
373.4815	0.105	746963	keystroke_n	n	n/a
373.5715	0.105	747143	keystroke_d	d	n/a
373.6915	0.12	747383	keystroke_Key.space	Key.space	n/a
373.7665	0.135	747533	keystroke_p	p	n/a
373.8865	0.105	747773	keystroke_r	r	n/a
373.9615	0.15	747923	keystroke_o	o	n/a
374.0215	0.135	748043	keystroke_p	p	n/a
374.0665	0.135	748133	keystroke_e	e	n/a
374.1415	0.09	748283	keystroke_r	r	n/a
374.336	0.105	748672	keystroke_t	t	n/a
374.426	0.09	748852	keystroke_y	y	n/a
374.651	0.075	749302	keystroke_Key.enter	Key.enter	n/a
374.732	3.9695	749464	prompt	n/a	partners tanks processors occurred\n
375.401	0.105	750802	keystroke_p	p	n/a
375.491	0.105	750982	keystroke_a	a	n/a
375.566	0.09	751132	keystroke_r	r	n/a
375.746	0.09	751492	keystroke_t	t	n/a
375.806	0.105	751612	keystroke_n	n	n/a
375.881	0.105	751762	keystroke_e	e	n/a
375.941	0.09	751882	keystroke_r	r	n/a
376.121	0.105	752242	keystroke_s	s	n/a
376.181	0.105	752362	keystroke_Key.space	Key.space	n/a
376.3005	0.09	752601	keystroke_t	t	n/a
376.3755	0.105	752751	keystroke_a	a	n/a
376.4205	0.09	752841	keystroke_n	n	n/a
376.4655	0.135	752931	keystroke_k	k	n/a
376.5855	0.105	753171	keystroke_s	s	n/a
376.6455	0.12	753291	keystroke_Key.space	Key.space	n/a
376.7505	0.135	753501	keystroke_p	p	n/a
376.8705	0.06	753741	keystroke_r	r	n/a
376.9455	0.105	753891	keystroke_o	o	n/a
377.0655	0.12	754131	keystroke_c	c	n/a
377.1705	0.105	754341	keystroke_e	e	n/a
377.3655	0.06	754731	keystroke_s	s	n/a
377.5005	0.09	755001	keystroke_s	s	n/a
377.5605	0.09	755121	keystroke_o	o	n/a
377.6355	0.105	755271	keystroke_r	r	n/a
377.7405	0.135	755481	keystroke_s	s	n/a
377.8305	0.12	755661	keystroke_Key.space	Key.space	n/a
377.9205	0.105	755841	keystroke_o	o	n/a
378.0105	0.09	756021	keystroke_c	c	n/a
378.1155	0.09	756231	keystroke_u	u	n/a
378.2355	0.045	756471	keystroke_r	r	n/a
378.3555	0.075	756711	keystroke_r	r	n/a
378.4155	0.135	756831	keystroke_e	e	n/a
378.5355	0.075	757071	keystroke_d	d	n/a
378.5955	0.105	757191	keystroke_Key.enter	Key.enter	n/a
378.707	7.8375	757414	prompt	n/a	how'll journey selections vocational\n
379.75	0.12	759500	keystroke_h	h	n/a
379.825	0.105	759650	keystroke_o	o	n/a
379.9	0.075	759800	keystroke_w	w	n/a
380.4395	0.06	760879	keystroke_'	'	n/a
380.7245	0.06	761449	keystroke_l	l	n/a
380.8445	0.09	761689	keystroke_l	l	n/a
381.1445	0.09	762289	keystroke_Key.space	Key.space	n/a
381.714	0.105	763428	keystroke_h	h	n/a
382.464	0.09	764928	keystroke_Key.backspace	Key.backspace	n/a
382.854	0.12	765708	keystroke_j	j	n/a
383.019	0.135	766038	keystroke_o	o	n/a
383.109	0.105	766218	keystroke_u	u	n/a
383.199	0.105	766398	keystroke_r	r	n/a
383.274	0.105	766548	keystroke_n	n	n/a
383.439	0.12	766878	keystroke_e	e	n/a
383.529	0.09	767058	keystroke_y	y	n/a
383.589	0.135	767178	keystroke_Key.space	Key.space	n/a
384.1285	0.09	768257	keystroke_s	s	n/a
384.3235	0.09	768647	keystroke_e	e	n/a
384.3685	0.105	768737	keystroke_l	l	n/a
384.5035	0.12	769007	keystroke_e	e	n/a
384.5785	0.135	769157	keystroke_c	c	n/a
384.8185	0.09	769637	keystroke_t	t	n/a
384.8935	0.135	769787	keystroke_i	i	n/a
384.9385	0.12	769877	keystroke_o	o	n/a
384.9985	0.105	769997	keystroke_n	n	n/a
385.0435	0.09	770087	keystroke_s	s	n/a
385.1635	0.135	770327	keystroke_Key.space	Key.space	n/a
385.3735	0.075	770747	keystroke_v	v	n/a
385.4635	0.09	770927	keystroke_o	o	n/a
385.5835	0.075	771167	keystroke_c	c	n/a
385.733	0.12	771466	keystroke_a	a	n/a
385.838	0.075	771676	keystroke_t	t	n/a
385.898	0.135	771796	keystroke_i	i	n/a
385.973	0.09	771946	keystroke_o	o	n/a
386.003	0.105	772006	keystroke_n	n	n/a
386.078	0.09	772156	keystroke_a	a	n/a
386.183	0.075	772366	keystroke_l	l	n/a
386.453	0.09	772906	keystroke_Key.enter	Key.enter	n/a
386.5495	4.284	773099	prompt	n/a	provided swedish computing goes\n
387.203	0.105	774406	keystroke_p	p	n/a
387.278	0.0745	774556	keystroke_r	r	n/a
387.3975	0.105	774795	keystroke_o	o	n/a
387.5325	0.09	775065	keystroke_v	v	n/a
387.6375	0.105	775275	keystroke_i	i	n/a
387.7575	0.12	775515	keystroke_d	d	n/a
387.8625	0.12	775725	keystroke_e	e	n/a
387.9525	0.105	775905	keystroke_d	d	n/a
387.9975	0.135	775995	keystroke_Key.space	Key.space	n/a
388.1475	0.12	776295	keystroke_s	s	n/a
388.3425	0.09	776685	keystroke_w	w	n/a
388.5225	0.105	777045	keystroke_e	e	n/a
388.6275	0.12	777255	keystroke_d	d	n/a
388.7325	0.09	777465	keystroke_i	i	n/a
388.8375	0.12	777675	keystroke_s	s	n/a
388.9125	0.105	777825	keystroke_h	h	n/a
388.9725	0.135	777945	keystroke_Key.space	Key.space	n/a
389.1075	0.1195	778215	keystroke_c	c	n/a
389.212	0.105	778424	keystroke_o	o	n/a
389.302	0.135	778604	keystroke_m	m	n/a
389.317	0.165	778634	keystroke_p	p	n/a
389.572	0.12	779144	keystroke_u	u	n/a
389.782	0.12	779564	keystroke_t	t	n/a
389.887	0.12	779774	keystroke_i	i	n/a
389.962	0.105	779924	keystroke_n	n	n/a
390.052	0.075	780104	keystroke_g	g	n/a
390.157	0.105	780314	keystroke_Key.space	Key.space	n/a
390.307	0.09	780614	keystroke_g	g	n/a
390.382	0.09	780764	keystroke_o	o	n/a
390.487	0.075	780974	keystroke_e	e	n/a
390.637	0.09	781274	keystroke_s	s	n/a
390.757	0.075	781514	keystroke_Key.enter	Key.enter	n/a
390.838	5.904	781676	prompt	n/a	hard vulnerable anxiety bearing\n
391.642	0.105	783284	keystroke_h	h	n/a
391.762	0.09	783524	keystroke_a	a	n/a
391.822	0.105	783644	keystroke_r	r	n/a
392.032	0.09	784064	keystroke_d	d	n/a
392.107	0.105	784214	keystroke_Key.space	Key.space	n/a
392.557	0.06	785114	keystroke_v	v	n/a
392.8565	0.165	785713	keystroke_u	u	n/a
392.9615	0.135	785923	keystroke_l	l	n/a
393.0815	0.165	786163	keystroke_e	e	n/a
393.2165	0.06	786433	keystroke_r	r	n/a
393.6065	0.09	787213	keystroke_Key.backspace	Key.backspace	n/a
393.7715	0.12	787543	keystroke_Key.backspace	Key.backspace	n/a
393.9065	0.12	787813	keystroke_n	n	n/a
394.0115	0.135	788023	keystroke_e	e	n/a
394.1165	0.09	788233	keystroke_r	r	n/a
394.2515	0.135	788503	keystroke_a	a	n/a
394.3565	0.12	788713	keystroke_b	b	n/a
394.4465	0.12	788893	keystroke_l	l	n/a
394.5365	0.1195	789073	keystroke_e	e	n/a
394.6265	0.1345	789253	keystroke_Key.space	Key.space	n/a
394.821	0.135	789642	keystroke_a	a	n/a
394.926	0.12	789852	keystroke_n	n	n/a
395.061	0.12	790122	keystroke_x	x	n/a
395.196	0.105	790392	keystroke_i	i	n/a
395.286	0.12	790572	keystroke_e	e	n/a
395.376	0.105	790752	keystroke_t	t	n/a
395.466	0.06	790932	keystroke_y	y	n/a
395.496	0.105	790992	keystroke_Key.space	Key.space	n/a
396.021	0.1045	792042	keystroke_b	b	n/a
396.1105	0.18	792221	keystroke_e	e	n/a
396.1705	0.15	792341	keystroke_a	a	n/a
396.2305	0.12	792461	keystroke_r	r	n/a
396.3055	0.12	792611	keystroke_i	i	n/a
396.3655	0.135	792731	keystroke_n	n	n/a
396.4705	0.075	792941	keystroke_g	g	n/a
396.6205	0.12	793241	keystroke_Key.enter	Key.enter	n/a
396.749	6.5315	793498	prompt	n/a	salary sitemap editorials resistance\n
397.4605	0.135	794921	keystroke_s	s	n/a
397.6105	0.1045	795221	keystroke_a	a	n/a
397.7	0.15	795400	keystroke_l	l	n/a
397.82	0.135	795640	keystroke_a	a	n/a
397.925	0.105	795850	keystroke_r	r	n/a
398	0.09	796000	keystroke_y	y	n/a
398.045	0.105	796090	keystroke_Key.space	Key.space	n/a
398.18	0.15	796360	keystroke_s	s	n/a
398.3	0.105	796600	keystroke_i	i	n/a
398.39	0.105	796780	keystroke_t	t	n/a
398.465	0.105	796930	keystroke_e	e	n/a
398.54	0.0905	797080	keystroke_m	m	n/a
398.6605	0.105	797321	keystroke_a	a	n/a
398.6905	0.165	797381	keystroke_p	p	n/a
398.8405	0.1045	797681	keystroke_Key.space	Key.space	n/a
399.035	0.105	798070	keystroke_e	e	n/a
399.125	0.135	798250	keystroke_d	d	n/a
399.23	0.12	798460	keystroke_i	i	n/a
399.365	0.105	798730	keystroke_t	t	n/a
399.455	0.105	798910	keystroke_o	o	n/a
399.545	0.12	799090	keystroke_r	r	n/a
399.62	0.09	799240	keystroke_i	i	n/a
399.74	0.12	799480	keystroke_a	a	n/a
399.815	0.12	799630	keystroke_l	l	n/a
399.92	0.12	799840	keystroke_s	s	n/a
400.025	0.105	800050	keystroke_Key.space	Key.space	n/a
400.205	0.12	800410	keystroke_r	r	n/a
400.28	0.1045	800560	keystroke_e	e	n/a
400.5045	0.06	801009	keystroke_s	s	n/a
400.5945	0.09	801189	keystroke_i	i	n/a
400.6845	0.105	801369	keystroke_s	s	n/a
400.8345	0.09	801669	keystroke_r	r	n/a
400.8495	0.06	801699	keystroke_t	t	n/a
400.9395	0.135	801879	keystroke_a	a	n/a
401.0145	0.105	802029	keystroke_n	n	n/a
401.4195	0.09	802839	keystroke_Key.backspace	Key.backspace	n/a
401.5995	0.06	803199	keystroke_Key.backspace	Key.backspace	n/a
401.7495	0.09	803499	keystroke_Key.backspace	Key.backspace	n/a
401.9895	0.12	803979	keystroke_a	a	n/a
402.0645	0.1045	804129	keystroke_n	n	n/a
402.229	0.135	804458	keystroke_c	c	n/a
402.334	0.105	804668	keystroke_e	e	n/a
402.394	0.12	804788	keystroke_'	'	n/a
402.934	0.075	805868	keystroke_Key.backspace	Key.backspace	n/a
403.174	0.105	806348	keystroke_Key.enter	Key.enter	n/a
403.285	4.419	806570	prompt	n/a	clinton techno province this\n
404.3735	0.12	808747	keystroke_c	c	n/a
404.4485	0.18	808897	keystroke_l	l	n/a
404.5985	0.135	809197	keystroke_i	i	n/a
404.6885	0.12	809377	keystroke_n	n	n/a
404.7185	0.105	809437	keystroke_t	t	n/a
404.8535	0.105	809707	keystroke_o	o	n/a
404.8835	0.135	809767	keystroke_n	n	n/a
405.1385	0.12	810277	keystroke_Key.space	Key.space	n/a
405.2735	0.09	810547	keystroke_t	t	n/a
405.3485	0.12	810697	keystroke_e	e	n/a
405.7235	0.1195	811447	keystroke_c	c	n/a
405.858	0.12	811716	keystroke_h	h	n/a
405.948	0.15	811896	keystroke_n	n	n/a
406.053	0.135	812106	keystroke_o	o	n/a
406.203	0.105	812406	keystroke_Key.space	Key.space	n/a
406.323	0.12	812646	keystroke_p	p	n/a
406.398	0.105	812796	keystroke_r	r	n/a
406.518	0.12	813036	keystroke_o	o	n/a
406.653	0.09	813306	keystroke_v	v	n/a
406.698	0.12	813396	keystroke_i	i	n/a
406.758	0.12	813516	keystroke_n	n	n/a
406.893	0.12	813786	keystroke_c	c	n/a
406.968	0.15	813936	keystroke_e	e	n/a
407.043	0.12	814086	keystroke_Key.space	Key.space	n/a
407.193	0.0895	814386	keystroke_t	t	n/a
407.268	0.1045	814536	keystroke_h	h	n/a
407.3125	0.12	814625	keystroke_i	i	n/a
407.4325	0.105	814865	keystroke_s	s	n/a
407.5825	0.12	815165	keystroke_Key.enter	Key.enter	n/a
407.7095	5.0785	815419	prompt	n/a	slots bike we're isle\n
408.4975	0.09	816995	keystroke_s	s	n/a
408.5275	0.12	817055	keystroke_l	l	n/a
408.6925	0.12	817385	keystroke_o	o	n/a
408.7375	0.09	817475	keystroke_t	t	n/a
408.8875	0.1045	817775	keystroke_s	s	n/a
408.9625	0.1195	817925	keystroke_Key.space	Key.space	n/a
409.037	0.135	818074	keystroke_b	b	n/a
409.127	0.0905	818254	keystroke_u	u	n/a
409.3075	0.105	818615	keystroke_k	k	n/a
409.3825	0.105	818765	keystroke_e	e	n/a
409.5025	0.105	819005	keystroke_Key.space	Key.space	n/a
409.712	0.075	819424	keystroke_w	w	n/a
409.877	0.12	819754	keystroke_e	e	n/a
411.287	0.075	822574	keystroke_'	'	n/a
411.437	0.12	822874	keystroke_r	r	n/a
411.512	0.12	823024	keystroke_e	e	n/a
411.602	0.1495	823204	keystroke_Key.space	Key.space	n/a
411.7215	0.12	823443	keystroke_i	i	n/a
411.8115	0.09	823623	keystroke_s	s	n/a
411.9165	0.075	823833	keystroke_l	l	n/a
412.0215	0.09	824043	keystroke_e	e	n/a
412.6365	0.15	825273	keystroke_Key.enter	Key.enter	n/a
412.795	7.4765	825590	prompt	n/a	accessing elephant interview preference\n
413.4315	0.12	826863	keystroke_a	a	n/a
413.6265	0.09	827253	keystroke_c	c	n/a
413.7915	0.135	827583	keystroke_c	c	n/a
414.691	0.105	829382	keystroke_e	e	n/a
414.901	0.09	829802	keystroke_s	s	n/a
415.051	0.09	830102	keystroke_s	s	n/a
415.111	0.12	830222	keystroke_i	i	n/a
415.171	0.105	830342	keystroke_n	n	n/a
415.261	0.105	830522	keystroke_g	g	n/a
415.366	0.105	830732	keystroke_Key.space	Key.space	n/a
415.516	0.09	831032	keystroke_e	e	n/a
415.576	0.09	831152	keystroke_l	l	n/a
415.711	0.075	831422	keystroke_e	e	n/a
416.206	0.075	832412	keystroke_p	p	n/a
416.386	0.12	832772	keystroke_h	h	n/a
416.461	0.12	832922	keystroke_a	a	n/a
416.596	0.105	833192	keystroke_n	n	n/a
416.686	0.105	833372	keystroke_t	t	n/a
416.776	0.1195	833552	keystroke_Key.space	Key.space	n/a
416.9105	0.15	833821	keystroke_i	i	n/a
417.0005	0.135	834001	keystroke_n	n	n/a
417.1055	0.12	834211	keystroke_t	t	n/a
417.2105	0.135	834421	keystroke_e	e	n/a
417.3005	0.105	834601	keystroke_r	r	n/a
417.5405	0.09	835081	keystroke_v	v	n/a
417.6005	0.135	835201	keystroke_i	i	n/a
417.7505	0.12	835501	keystroke_e	e	n/a
417.8405	0.135	835681	keystroke_w	w	n/a
417.8705	0.18	835741	keystroke_Key.space	Key.space	n/a
418.485	0.105	836970	keystroke_p	p	n/a
418.575	0.12	837150	keystroke_r	r	n/a
418.665	0.195	837330	keystroke_e	e	n/a
419.04	0.105	838080	keystroke_f	f	n/a
419.16	0.135	838320	keystroke_e	e	n/a
419.25	0.135	838500	keystroke_r	r	n/a
419.371	0.134	838742	keystroke_e	e	n/a
419.475	0.105	838950	keystroke_n	n	n/a
419.625	0.12	839250	keystroke_c	c	n/a
419.7	0.105	839400	keystroke_e	e	n/a
420.12	0.15	840240	keystroke_Key.enter	Key.enter	n/a
420.2765	6.1285	840553	prompt	n/a	undertaken supervisor idaho johnson\n
421.1695	0.15	842339	keystroke_u	u	n/a
421.2295	0.135	842459	keystroke_n	n	n/a
421.2895	0.135	842579	keystroke_d	d	n/a
421.3945	0.135	842789	keystroke_e	e	n/a
421.5145	0.12	843029	keystroke_r	r	n/a
421.7395	0.09	843479	keystroke_t	t	n/a
421.7995	0.135	843599	keystroke_a	a	n/a
421.9195	0.135	843839	keystroke_k	k	n/a
422.0095	0.105	844019	keystroke_e	e	n/a
422.1445	0.075	844289	keystroke_n	n	n/a
422.3245	0.12	844649	keystroke_Key.space	Key.space	n/a
422.5205	0.134	845041	keystroke_s	s	n/a
422.6695	0.12	845339	keystroke_u	u	n/a
422.7295	0.15	845459	keystroke_p	p	n/a
422.8345	0.075	845669	keystroke_e	e	n/a
422.8945	0.1195	845789	keystroke_r	r	n/a
423.1795	0.12	846359	keystroke_v	v	n/a
423.2845	0.06	846569	keystroke_i	i	n/a
423.389	0.105	846778	keystroke_s	s	n/a
423.464	0.106	846928	keystroke_o	o	n/a
423.584	0.12	847168	keystroke_r	r	n/a
423.674	0.12	847348	keystroke_Key.space	Key.space	n/a
423.795	0.104	847590	keystroke_a	a	n/a
424.124	0.105	848248	keystroke_Key.backspace	Key.backspace	n/a
424.469	0.135	848938	keystroke_i	i	n/a
424.784	0.12	849568	keystroke_d	d	n/a
424.994	0.1345	849988	keystroke_a	a	n/a
425.0985	0.12	850197	keystroke_h	h	n/a
425.1585	0.15	850317	keystroke_o	o	n/a
425.2485	0.135	850497	keystroke_Key.space	Key.space	n/a
425.3985	0.105	850797	keystroke_j	j	n/a
425.5185	0.12	851037	keystroke_o	o	n/a
425.6235	0.15	851247	keystroke_h	h	n/a
425.7285	0.12	851457	keystroke_n	n	n/a
425.8335	0.105	851667	keystroke_s	s	n/a
425.9085	0.105	851817	keystroke_o	o	n/a
425.9535	0.12	851907	keystroke_n	n	n/a
426.3285	0.075	852657	keystroke_Key.enter	Key.enter	n/a
426.4095	6.639	852819	prompt	n/a	rolled release aquarium computing\n
427.153	0.135	854306	keystroke_r	r	n/a
427.303	0.105	854606	keystroke_o	o	n/a
427.528	0.045	855056	keystroke_l	l	n/a
427.633	0.12	855266	keystroke_l	l	n/a
427.708	0.15	855416	keystroke_e	e	n/a
427.798	0.135	855596	keystroke_d	d	n/a
427.888	0.12	855776	keystroke_Key.space	Key.space	n/a
428.0525	0.091	856105	keystroke_r	r	n/a
428.1275	0.106	856255	keystroke_e	e	n/a
428.1875	0.135	856375	keystroke_l	l	n/a
428.3085	0.149	856617	keystroke_e	e	n/a
428.3985	0.194	856797	keystroke_a	a	n/a
428.5325	0.091	857065	keystroke_s	s	n/a
428.6975	0.121	857395	keystroke_e	e	n/a
428.8475	0.12	857695	keystroke_Key.space	Key.space	n/a
428.9825	0.09	857965	keystroke_a	a	n/a
429.2225	0.121	858445	keystroke_q	q	n/a
429.3285	0.119	858657	keystroke_u	u	n/a
429.4325	0.12	858865	keystroke_a	a	n/a
429.5075	0.121	859015	keystroke_r	r	n/a
429.5675	0.165	859135	keystroke_i	i	n/a
429.6875	0.12	859375	keystroke_u	u	n/a
429.7335	0.089	859467	keystroke_m	m	n/a
429.8825	0.15	859765	keystroke_Key.space	Key.space	n/a
430.0175	0.105	860035	keystroke_c	c	n/a
430.1385	0.105	860277	keystroke_o	o	n/a
430.1835	0.164	860367	keystroke_p	p	n/a
430.1985	0.165	860397	keystroke_m	m	n/a
430.3325	0.136	860665	keystroke_u	u	n/a
430.4525	0.075	860905	keystroke_t	t	n/a
430.4975	0.105	860995	keystroke_i	i	n/a
430.5575	0.105	861115	keystroke_n	n	n/a
430.6785	0.104	861357	keystroke_g	g	n/a
430.977	0.075	861954	keystroke_Key.backspace	Key.backspace	n/a
431.127	0.075	862254	keystroke_Key.backspace	Key.backspace	n/a
431.277	0.075	862554	keystroke_Key.backspace	Key.backspace	n/a
431.427	0.075	862854	keystroke_Key.backspace	Key.backspace	n/a
431.562	0.09	863124	keystroke_Key.backspace	Key.backspace	n/a
431.712	0.06	863424	keystroke_Key.backspace	Key.backspace	n/a
431.847	0.09	863694	keystroke_Key.backspace	Key.backspace	n/a
432.088	0.119	864176	keystroke_m	m	n/a
432.222	0.135	864444	keystroke_p	p	n/a
432.328	0.119	864656	keystroke_u	u	n/a
432.418	0.105	864836	keystroke_t	t	n/a
432.493	0.12	864986	keystroke_i	i	n/a
432.552	0.136	865104	keystroke_n	n	n/a
432.643	0.074	865286	keystroke_g	g	n/a
432.927	0.12	865854	keystroke_Key.enter	Key.enter	n/a
433.0535	6.264	866107	prompt	n/a	returned signal creek pointer\n
433.7075	0.105	867415	keystroke_r	r	n/a
433.7975	0.15	867595	keystroke_e	e	n/a
433.9175	0.12	867835	keystroke_t	t	n/a
434.0215	0.106	868043	keystroke_u	u	n/a
434.1425	0.12	868285	keystroke_r	r	n/a
434.1875	0.045	868375	keystroke_t	t	n/a
434.2775	0.119	868555	keystroke_n	n	n/a
434.6975	0.075	869395	keystroke_Key.backspace	Key.backspace	n/a
434.8625	0.089	869725	keystroke_Key.backspace	Key.backspace	n/a
435.4025	0.105	870805	keystroke_n	n	n/a
435.5225	0.135	871045	keystroke_e	e	n/a
435.6125	0.15	871225	keystroke_d	d	n/a
435.6875	0.119	871375	keystroke_Key.space	Key.space	n/a
435.9275	0.1495	871855	keystroke_s	s	n/a
436.1525	0.105	872305	keystroke_i	i	n/a
436.3325	0.09	872665	keystroke_g	g	n/a
436.3925	0.12	872785	keystroke_n	n	n/a
436.5725	0.135	873145	keystroke_a	a	n/a
436.6475	0.1345	873295	keystroke_l	l	n/a
436.6915	0.1205	873383	keystroke_Key.space	Key.space	n/a
436.842	0.09	873684	keystroke_c	c	n/a
437.052	0.075	874104	keystroke_r	r	n/a
437.112	0.075	874224	keystroke_e	e	n/a
437.232	0.135	874464	keystroke_e	e	n/a
437.292	0.12	874584	keystroke_k	k	n/a
437.381	0.136	874762	keystroke_Key.space	Key.space	n/a
437.517	0.15	875034	keystroke_p	p	n/a
437.637	0.105	875274	keystroke_o	o	n/a
437.637	0.135	875274	keystroke_i	i	n/a
437.757	0.105	875514	keystroke_n	n	n/a
438.146	0.075	876292	keystroke_Key.backspace	Key.backspace	n/a
438.326	0.061	876652	keystroke_Key.backspace	Key.backspace	n/a
438.462	0.089	876924	keystroke_Key.backspace	Key.backspace	n/a
438.702	0.12	877404	keystroke_o	o	n/a
438.762	0.15	877524	keystroke_i	i	n/a
438.837	0.12	877674	keystroke_n	n	n/a
