onset	duration	sample	value	key	prompt_text
9.2385	13.816	18477	prompt	n/a	the quick brown fox jumps over a lazy dog\n
11.369	0.027	22738	keystroke_t	t	n/a
11.471	0.075	22942	keystroke_h	h	n/a
11.516	0.09	23032	keystroke_e	e	n/a
11.6815	0.0595	23363	keystroke_Key.space	Key.space	n/a
12.7315	0.09	25463	keystroke_q	q	n/a
12.8665	0.0905	25733	keystroke_u	u	n/a
12.9415	0.09	25883	keystroke_i	i	n/a
13.1065	0.075	26213	keystroke_c	c	n/a
13.4515	0.06	26903	keystroke_k	k	n/a
14.427	0.075	28854	keystroke_Key.space	Key.space	n/a
14.622	0.09	29244	keystroke_b	b	n/a
14.7865	0.105	29573	keystroke_r	r	n/a
14.9065	0.105	29813	keystroke_o	o	n/a
15.042	0.0745	30084	keystroke_w	w	n/a
15.1615	0.15	30323	keystroke_n	n	n/a
15.3415	0.075	30683	keystroke_Key.space	Key.space	n/a
15.897	0.075	31794	keystroke_f	f	n/a
16.076	0.106	32152	keystroke_o	o	n/a
16.422	0.09	32844	keystroke_x	x	n/a
16.572	0.12	33144	keystroke_Key.space	Key.space	n/a
16.812	0.06	33624	keystroke_j	j	n/a
16.977	0.045	33954	keystroke_u	u	n/a
17.2015	0.0905	34403	keystroke_m	m	n/a
17.3965	0.09	34793	keystroke_p	p	n/a
17.5175	0.089	35035	keystroke_s	s	n/a
17.712	0.075	35424	keystroke_Key.space	Key.space	n/a
17.862	0.1045	35724	keystroke_o	o	n/a
17.9965	0.105	35993	keystroke_v	v	n/a
18.2215	0.12	36443	keystroke_e	e	n/a
18.2965	0.12	36593	keystroke_r	r	n/a
19.1515	0.09	38303	keystroke_Key.space	Key.space	n/a
19.2715	0.105	38543	keystroke_a	a	n/a
19.4215	0.06	38843	keystroke_Key.space	Key.space	n/a
19.6615	0.105	39323	keystroke_l	l	n/a
19.782	0.135	39564	keystroke_a	a	n/a
20.187	0.12	40374	keystroke_z	z	n/a
20.8025	0.12	41605	keystroke_y	y	n/a
20.9365	0.09	41873	keystroke_Key.space	Key.space	n/a
21.7465	0.09	43493	keystroke_d	d	n/a
21.8815	0.075	43763	keystroke_o	o	n/a
21.9715	0.075	43943	keystroke_g	g	n/a
22.962	0.09	45924	keystroke_Key.enter	Key.enter	n/a
23.0605	10.8235	46121	prompt	n/a	following extent stable executives\n
25.769	0.013	51538	keystroke_f	f	n/a
25.797	0.075	51594	keystroke_o	o	n/a
25.977	0.075	51954	keystroke_l	l	n/a
26.1125	0.0445	52225	keystroke_l	l	n/a
26.292	0.06	52584	keystroke_o	o	n/a
26.412	0.075	52824	keystroke_w	w	n/a
26.547	0.105	53094	keystroke_i	i	n/a
26.637	0.045	53274	keystroke_n	n	n/a
26.757	0.075	53514	keystroke_g	g	n/a
27.522	0.09	55044	keystroke_Key.space	Key.space	n/a
27.762	0.09	55524	keystroke_e	e	n/a
28.032	0.105	56064	keystroke_x	x	n/a
28.362	0.105	56724	keystroke_t	t	n/a
28.512	0.105	57024	keystroke_e	e	n/a
28.647	0.09	57294	keystroke_n	n	n/a
28.752	0.09	57504	keystroke_t	t	n/a
28.977	0.09	57954	keystroke_Key.space	Key.space	n/a
29.382	0.0905	58764	keystroke_s	s	n/a
29.622	0.06	59244	keystroke_t	t	n/a
29.772	0.105	59544	keystroke_a	a	n/a
30.132	0.075	60264	keystroke_b	b	n/a
30.297	0.075	60594	keystroke_l	l	n/a
30.417	0.075	60834	keystroke_e	e	n/a
30.552	0.105	61104	keystroke_Key.space	Key.space	n/a
31.002	0.075	62004	keystroke_e	e	n/a
31.317	0.105	62634	keystroke_x	x	n/a
31.557	0.06	63114	keystroke_e	e	n/a
31.992	0.09	63984	keystroke_c	c	n/a
32.142	0.105	64284	keystroke_u	u	n/a
32.547	0.105	65094	keystroke_t	t	n/a
32.7125	0.09	65425	keystroke_i	i	n/a
32.9525	0.105	65905	keystroke_v	v	n/a
33.0125	0.12	66025	keystroke_e	e	n/a
33.3875	0.075	66775	keystroke_s	s	n/a
33.7775	0.105	67555	keystroke_Key.enter	Key.enter	n/a
33.887	8.0215	67774	prompt	n/a	permalink button worried sponsor\n
34.6775	0.09	69355	keystroke_p	p	n/a
34.7825	0.135	69565	keystroke_e	e	n/a
34.8725	0.075	69745	keystroke_r	r	n/a
34.9925	0.105	69985	keystroke_m	m	n/a
35.1125	0.075	70225	keystroke_a	a	n/a
35.2775	0.1345	70555	keystroke_l	l	n/a
35.367	0.105	70734	keystroke_i	i	n/a
35.517	0.195	71034	keystroke_n	n	n/a
35.652	0.165	71304	keystroke_k	k	n/a
35.772	0.075	71544	keystroke_Key.space	Key.space	n/a
36.027	0.09	72054	keystroke_b	b	n/a
36.237	0.105	72474	keystroke_u	u	n/a
36.477	0.06	72954	keystroke_t	t	n/a
36.612	0.075	73224	keystroke_t	t	n/a
36.747	0.15	73494	keystroke_o	o	n/a
36.882	0.12	73764	keystroke_n	n	n/a
37.377	0.045	74754	keystroke_Key.space	Key.space	n/a
37.5275	0.089	75055	keystroke_w	w	n/a
37.6325	0.074	75265	keystroke_o	o	n/a
37.7665	0.075	75533	keystroke_r	r	n/a
37.9165	0.091	75833	keystroke_r	r	n/a
38.2165	0.061	76433	keystroke_i	i	n/a
38.3365	0.12	76673	keystroke_e	e	n/a
38.4115	0.105	76823	keystroke_d	d	n/a
38.5765	0.09	77153	keystroke_Key.space	Key.space	n/a
38.9215	0.0755	77843	keystroke_s	s	n/a
39.162	0.075	78324	keystroke_p	p	n/a
39.342	0.135	78684	keystroke_o	o	n/a
39.462	0.09	78924	keystroke_n	n	n/a
39.597	0.09	79194	keystroke_s	s	n/a
39.792	0.135	79584	keystroke_e	e	n/a
39.897	0.09	79794	keystroke_r	r	n/a
40.572	0.075	81144	keystroke_Key.backspace	Key.backspace	n/a
40.737	0.045	81474	keystroke_Key.backspace	Key.backspace	n/a
40.902	0.09	81804	keystroke_o	o	n/a
41.052	0.075	82104	keystroke_r	r	n/a
41.832	0.075	83664	keystroke_Key.enter	Key.enter	n/a
41.9115	9.5145	83823	prompt	n/a	caps colleague hearing sufficiently\n
42.627	0.1205	85254	keystroke_c	c	n/a
42.717	0.12	85434	keystroke_a	a	n/a
42.8225	0.0745	85645	keystroke_p	p	n/a
42.927	0.12	85854	keystroke_s	s	n/a
43.122	0.075	86244	keystroke_Key.space	Key.space	n/a
43.362	0.0445	86724	keystroke_c	c	n/a
43.7815	0.09	87563	keystroke_o	o	n/a
44.0075	0.044	88015	keystroke_l	l	n/a
44.1275	0.09	88255	keystroke_l	l	n/a
44.4265	0.105	88853	keystroke_e	e	n/a
44.6215	0.076	89243	keystroke_a	a	n/a
45.402	0.09	90804	keystroke_g	g	n/a
45.732	0.075	91464	keystroke_u	u	n/a
45.837	0.0895	91674	keystroke_e	e	n/a
46.3765	0.09	92753	keystroke_Key.space	Key.space	n/a
46.5565	0.09	93113	keystroke_h	h	n/a
46.6315	0.225	93263	keystroke_e	e	n/a
46.7665	0.15	93533	keystroke_a	a	n/a
46.8715	0.09	93743	keystroke_r	r	n/a
47.0515	0.15	94103	keystroke_i	i	n/a
47.1415	0.135	94283	keystroke_n	n	n/a
47.2625	0.089	94525	keystroke_g	g	n/a
47.3815	0.09	94763	keystroke_Key.space	Key.space	n/a
47.5915	0.105	95183	keystroke_s	s	n/a
47.7265	0.075	95453	keystroke_u	u	n/a
48.147	0.09	96294	keystroke_f	f	n/a
48.3275	0.0595	96655	keystroke_f	f	n/a
48.5075	0.075	97015	keystroke_i	i	n/a
49.617	0.075	99234	keystroke_c	c	n/a
49.767	0.09	99534	keystroke_i	i	n/a
50.0065	0.105	100013	keystroke_e	e	n/a
50.1415	0.09	100283	keystroke_n	n	n/a
50.2765	0.075	100553	keystroke_t	t	n/a
50.3965	0.12	100793	keystroke_l	l	n/a
50.8615	0.09	101723	keystroke_y	y	n/a
51.3115	0.105	102623	keystroke_Key.enter	Key.enter	n/a
51.4305	5.508	102861	prompt	n/a	'tis lime rapids ride\n
52.617	0.06	105234	keystroke_'	'	n/a
52.9165	0.0755	105833	keystroke_t	t	n/a
53.082	0.1055	106164	keystroke_i	i	n/a
53.3525	0.075	106705	keystroke_s	s	n/a
53.8625	0.1045	107725	keystroke_Key.space	Key.space	n/a
54.087	0.15	108174	keystroke_l	l	n/a
54.192	0.225	108384	keystroke_i	i	n/a
54.372	0.18	108744	keystroke_m	m	n/a
54.567	0.075	109134	keystroke_e	e	n/a
54.657	0.135	109314	keystroke_Key.space	Key.space	n/a
54.942	0.12	109884	keystroke_r	r	n/a
55.092	0.1195	110184	keystroke_a	a	n/a
55.1965	0.166	110393	keystroke_p	p	n/a
55.332	0.12	110664	keystroke_i	i	n/a
55.482	0.135	110964	keystroke_d	d	n/a
55.557	0.15	111114	keystroke_s	s	n/a
55.842	0.105	111684	keystroke_Key.space	Key.space	n/a
56.157	0.09	112314	keystroke_r	r	n/a
56.277	0.075	112554	keystroke_i	i	n/a
56.412	0.105	112824	keystroke_d	d	n/a
56.487	0.12	112974	keystroke_e	e	n/a
56.832	0.105	113664	keystroke_Key.enter	Key.enter	n/a
56.9415	10.6255	113883	prompt	n/a	tells homepage slovenia i've\n
57.5975	0.09	115195	keystroke_t	t	n/a
57.6725	0.105	115345	keystroke_e	e	n/a
57.7625	0.075	115525	keystroke_l	l	n/a
57.9275	0.09	115855	keystroke_l	l	n/a
57.9875	0.105	115975	keystroke_s	s	n/a
58.1665	0.105	116333	keystroke_Key.space	Key.space	n/a
58.4075	0.089	116815	keystroke_h	h	n/a
58.5125	0.195	117025	keystroke_o	o	n/a
58.6315	0.136	117263	keystroke_m	m	n/a
59.4425	0.09	118885	keystroke_e	e	n/a
59.9365	0.06	119873	keystroke_p	p	n/a
60.1175	0.09	120235	keystroke_a	a	n/a
60.2075	0.104	120415	keystroke_g	g	n/a
60.2525	0.12	120505	keystroke_e	e	n/a
60.6425	0.105	121285	keystroke_Key.space	Key.space	n/a
60.9125	0.0745	121825	keystroke_d	d	n/a
61.0325	0.0745	122065	keystroke_l	l	n/a
61.212	0.06	122424	keystroke_o	o	n/a
61.5125	0.045	123025	keystroke_Key.backspace	Key.backspace	n/a
61.6325	0.075	123265	keystroke_Key.backspace	Key.backspace	n/a
61.8725	0.015	123745	keystroke_Key.backspace	Key.backspace	n/a
61.9475	0.075	123895	keystroke_f	f	n/a
62.0375	0.09	124075	keystroke_l	l	n/a
62.7275	0.075	125455	keystroke_Key.backspace	Key.backspace	n/a
62.8625	0.06	125725	keystroke_Key.backspace	Key.backspace	n/a
63.1325	0.075	126265	keystroke_s	s	n/a
63.2225	0.09	126445	keystroke_l	l	n/a
63.4175	0.06	126835	keystroke_o	o	n/a
63.6125	0.09	127225	keystroke_v	v	n/a
64.2125	0.09	128425	keystroke_e	e	n/a
64.3925	0.105	128785	keystroke_n	n	n/a
64.6625	0.09	129325	keystroke_i	i	n/a
64.7675	0.105	129535	keystroke_a	a	n/a
65.0375	0.105	130075	keystroke_Key.space	Key.space	n/a
66.1475	0.09	132295	keystroke_i	i	n/a
66.3575	0.12	132715	keystroke_'	'	n/a
66.5525	0.134	133105	keystroke_v	v	n/a
66.6125	0.119	133225	keystroke_e	e	n/a
67.452	0.105	134904	keystroke_Key.enter	Key.enter	n/a
67.572	9.8115	135144	prompt	n/a	graphical collins peter pupils\n
68.697	0.075	137394	keystroke_g	g	n/a
68.892	0.06	137784	keystroke_r	r	n/a
69.072	0.075	138144	keystroke_a	a	n/a
69.162	0.09	138324	keystroke_p	p	n/a
69.372	0.15	138744	keystroke_h	h	n/a
69.507	0.12	139014	keystroke_i	i	n/a
69.8825	0.1195	139765	keystroke_c	c	n/a
69.957	0.12	139914	keystroke_a	a	n/a
70.242	0.195	140484	keystroke_l	l	n/a
70.422	0.12	140844	keystroke_Key.space	Key.space	n/a
70.632	0.135	141264	keystroke_c	c	n/a
70.782	0.09	141564	keystroke_o	o	n/a
70.977	0.06	141954	keystroke_l	l	n/a
71.1115	0.12	142223	keystroke_l	l	n/a
71.2915	0.1655	142583	keystroke_i	i	n/a
71.442	0.1495	142884	keystroke_m	m	n/a
71.9365	0.045	143873	keystroke_Key.backspace	Key.backspace	n/a
72.1165	0.091	144233	keystroke_n	n	n/a
72.2375	0.09	144475	keystroke_s	s	n/a
72.5525	0.09	145105	keystroke_Key.space	Key.space	n/a
72.8675	0.075	145735	keystroke_p	p	n/a
73.3175	0.134	146635	keystroke_e	e	n/a
73.4815	0.09	146963	keystroke_t	t	n/a
73.6625	0.09	147325	keystroke_e	e	n/a
73.7225	0.104	147445	keystroke_r	r	n/a
73.8865	0.12	147773	keystroke_Key.space	Key.space	n/a
74.1415	0.06	148283	keystroke_p	p	n/a
75.1325	0.075	150265	keystroke_u	u	n/a
75.3125	0.06	150625	keystroke_p	p	n/a
75.9715	0.1955	151943	keystroke_i	i	n/a
76.152	0.135	152304	keystroke_l	l	n/a
76.242	0.12	152484	keystroke_s	s	n/a
77.292	0.0895	154584	keystroke_Key.enter	Key.enter	n/a
77.3885	14.0725	154777	prompt	n/a	obituaries foundations aqua programmes\n
78.0575	0.074	156115	keystroke_o	o	n/a
78.2365	0.075	156473	keystroke_b	b	n/a
78.4315	0.09	156863	keystroke_i	i	n/a
78.6275	0.105	157255	keystroke_t	t	n/a
79.047	0.105	158094	keystroke_u	u	n/a
79.302	0.105	158604	keystroke_a	a	n/a
79.722	0.135	159444	keystroke_r	r	n/a
79.872	0.105	159744	keystroke_i	i	n/a
80.037	0.09	160074	keystroke_e	e	n/a
80.247	0.09	160494	keystroke_s	s	n/a
80.352	0.12	160704	keystroke_Key.space	Key.space	n/a
81.147	0.045	162294	keystroke_f	f	n/a
81.297	0.1505	162594	keystroke_o	o	n/a
81.3875	0.135	162775	keystroke_u	u	n/a
81.5075	0.105	163015	keystroke_n	n	n/a
81.7175	0.135	163435	keystroke_d	d	n/a
81.7925	0.12	163585	keystroke_a	a	n/a
82.0325	0.09	164065	keystroke_t	t	n/a
82.6175	0.21	165235	keystroke_i	i	n/a
82.738	0.1495	165476	keystroke_o	o	n/a
82.7975	0.135	165595	keystroke_n	n	n/a
82.9475	0.135	165895	keystroke_s	s	n/a
83.1275	0.105	166255	keystroke_Key.space	Key.space	n/a
83.6825	0.09	167365	keystroke_a	a	n/a
83.967	0.0905	167934	keystroke_q	q	n/a
84.0725	0.105	168145	keystroke_u	u	n/a
84.2075	0.1045	168415	keystroke_a	a	n/a
84.8525	0.03	169705	keystroke_Key.space	Key.space	n/a
85.197	0.0755	170394	keystroke_p	p	n/a
85.3175	0.075	170635	keystroke_r	r	n/a
85.4075	0.09	170815	keystroke_o	o	n/a
85.7365	0.09	171473	keystroke_g	g	n/a
85.9465	0.076	171893	keystroke_r	r	n/a
86.2615	0.091	172523	keystroke_a	a	n/a
86.427	0.075	172854	keystroke_m	m	n/a
86.8925	0.075	173785	keystroke_m	m	n/a
86.9975	0.075	173995	keystroke_e	e	n/a
87.2075	0.075	174415	keystroke_s	s	n/a
91.4245	0.028	182849	keystroke_Key.enter	Key.enter	n/a
91.466	11.726	182932	prompt	n/a	conduct lose somerset sharp\n
92.262	0.12	184524	keystroke_c	c	n/a
92.367	0.15	184734	keystroke_o	o	n/a
92.442	0.12	184884	keystroke_n	n	n/a
92.682	0.09	185364	keystroke_s	s	n/a
92.757	0.075	185514	keystroke_u	u	n/a
92.892	0.075	185784	keystroke_c	c	n/a
93.1475	0.09	186295	keystroke_t	t	n/a
93.5225	0.045	187045	keystroke_Key.backspace	Key.backspace	n/a
93.6425	0.06	187285	keystroke_Key.backspace	Key.backspace	n/a
93.7925	0.06	187585	keystroke_Key.backspace	Key.backspace	n/a
93.9425	0.075	187885	keystroke_Key.backspace	Key.backspace	n/a
95.052	0.09	190104	keystroke_d	d	n/a
95.217	0.075	190434	keystroke_u	u	n/a
95.442	0.09	190884	keystroke_c	c	n/a
95.757	0.075	191514	keystroke_t	t	n/a
96.372	0.105	192744	keystroke_Key.space	Key.space	n/a
96.597	0.105	193194	keystroke_l	l	n/a
96.807	0.075	193614	keystroke_o	o	n/a
96.883	0.089	193766	keystroke_s	s	n/a
97.077	0.09	194154	keystroke_e	e	n/a
97.212	0.12	194424	keystroke_Key.space	Key.space	n/a
97.452	0.105	194904	keystroke_s	s	n/a
97.542	0.135	195084	keystroke_o	o	n/a
97.617	0.135	195234	keystroke_m	m	n/a
97.737	0.15	195474	keystroke_e	e	n/a
97.827	0.12	195654	keystroke_r	r	n/a
98.4725	0.1355	196945	keystroke_s	s	n/a
98.742	0.0905	197484	keystroke_e	e	n/a
98.907	0.09	197814	keystroke_t	t	n/a
99.072	0.105	198144	keystroke_Key.space	Key.space	n/a
99.312	0.09	198624	keystroke_s	s	n/a
99.418	0.074	198836	keystroke_h	h	n/a
99.523	0.12	199046	keystroke_a	a	n/a
99.702	0.091	199404	keystroke_r	r	n/a
100.3625	0.075	200725	keystroke_p	p	n/a
103.095	0.087	206190	keystroke_Key.enter	Key.enter	n/a
103.197	9.4445	206394	prompt	n/a	viewing mens depends beginners\n
104.472	0.105	208944	keystroke_c	c	n/a
104.9675	0.06	209935	keystroke_Key.backspace	Key.backspace	n/a
105.0725	0.105	210145	keystroke_v	v	n/a
105.2075	0.075	210415	keystroke_i	i	n/a
105.7025	0.135	211405	keystroke_e	e	n/a
106.3625	0.105	212725	keystroke_w	w	n/a
106.8125	0.135	213625	keystroke_i	i	n/a
106.962	0.105	213924	keystroke_n	n	n/a
107.082	0.12	214164	keystroke_g	g	n/a
107.247	0.09	214494	keystroke_Key.space	Key.space	n/a
107.458	0.059	214916	keystroke_m	m	n/a
107.532	0.105	215064	keystroke_e	e	n/a
107.667	0.09	215334	keystroke_n	n	n/a
107.772	0.0905	215544	keystroke_s	s	n/a
107.9825	0.105	215965	keystroke_Key.space	Key.space	n/a
108.568	0.15	217136	keystroke_d	d	n/a
108.658	0.09	217316	keystroke_e	e	n/a
108.883	0.075	217766	keystroke_p	p	n/a
109.033	0.089	218066	keystroke_e	e	n/a
109.137	0.106	218274	keystroke_n	n	n/a
109.287	0.1205	218574	keystroke_d	d	n/a
109.3775	0.12	218755	keystroke_s	s	n/a
109.9775	0.105	219955	keystroke_Key.space	Key.space	n/a
110.2475	0.09	220495	keystroke_b	b	n/a
110.3525	0.09	220705	keystroke_e	e	n/a
110.6375	0.075	221275	keystroke_g	g	n/a
110.7425	0.12	221485	keystroke_i	i	n/a
110.8175	0.06	221635	keystroke_n	n	n/a
110.982	0.09	221964	keystroke_n	n	n/a
111.087	0.165	222174	keystroke_e	e	n/a
111.207	0.09	222414	keystroke_r	r	n/a
111.927	0.075	223854	keystroke_s	s	n/a
112.543	0.09	225086	keystroke_Key.enter	Key.enter	n/a
112.6465	10.0155	225293	prompt	n/a	vocabulary webcam bryan albany\n
113.6225	0.075	227245	keystroke_v	v	n/a
114.0725	0.09	228145	keystroke_o	o	n/a
114.2825	0.12	228565	keystroke_c	c	n/a
114.4175	0.09	228835	keystroke_a	a	n/a
114.8525	0.09	229705	keystroke_b	b	n/a
115.107	0.1055	230214	keystroke_u	u	n/a
115.5425	0.105	231085	keystroke_l	l	n/a
115.6625	0.15	231325	keystroke_a	a	n/a
115.7825	0.12	231565	keystroke_r	r	n/a
116.0075	0.105	232015	keystroke_y	y	n/a
116.3225	0.105	232645	keystroke_Key.space	Key.space	n/a
116.773	0.075	233546	keystroke_w	w	n/a
116.953	0.075	233906	keystroke_e	e	n/a
117.073	0.105	234146	keystroke_b	b	n/a
117.448	0.12	234896	keystroke_c	c	n/a
117.538	0.09	235076	keystroke_a	a	n/a
117.703	0.105	235406	keystroke_m	m	n/a
117.988	0.09	235976	keystroke_Key.space	Key.space	n/a
118.198	0.12	236396	keystroke_b	b	n/a
118.438	0.105	236876	keystroke_r	r	n/a
118.783	0.075	237566	keystroke_y	y	n/a
119.158	0.105	238316	keystroke_a	a	n/a
119.293	0.12	238586	keystroke_n	n	n/a
119.458	0.105	238916	keystroke_Key.space	Key.space	n/a
119.668	0.12	239336	keystroke_a	a	n/a
119.773	0.075	239546	keystroke_l	l	n/a
120.388	0.075	240776	keystroke_b	b	n/a
120.478	0.105	240956	keystroke_a	a	n/a
120.613	0.09	241226	keystroke_n	n	n/a
120.718	0.06	241436	keystroke_d	d	n/a
121.213	0.089	242426	keystroke_Key.backspace	Key.backspace	n/a
121.528	0.105	243056	keystroke_y	y	n/a
122.5475	0.105	245095	keystroke_Key.enter	Key.enter	n/a
122.6665	12.9405	245333	prompt	n/a	remember quilt roles appointment\n
123.5375	0.135	247075	keystroke_r	r	n/a
123.6275	0.09	247255	keystroke_e	e	n/a
123.7175	0.075	247435	keystroke_m	m	n/a
123.8225	0.075	247645	keystroke_e	e	n/a
123.9125	0.075	247825	keystroke_m	m	n/a
124.1375	0.09	248275	keystroke_b	b	n/a
124.2725	0.135	248545	keystroke_e	e	n/a
124.3475	0.09	248695	keystroke_r	r	n/a
124.6025	0.135	249205	keystroke_Key.space	Key.space	n/a
125.0225	0.09	250045	keystroke_w	w	n/a
125.1275	0.135	250255	keystroke_u	u	n/a
125.2175	0.09	250435	keystroke_i	i	n/a
125.412	0.09	250824	keystroke_l	l	n/a
125.772	0.045	251544	keystroke_Key.backspace	Key.backspace	n/a
125.892	0.075	251784	keystroke_Key.backspace	Key.backspace	n/a
126.042	0.075	252084	keystroke_Key.backspace	Key.backspace	n/a
126.192	0.075	252384	keystroke_Key.backspace	Key.backspace	n/a
126.777	0.075	253554	keystroke_q	q	n/a
126.972	0.1205	253944	keystroke_u	u	n/a
127.062	0.0605	254124	keystroke_i	i	n/a
127.242	0.105	254484	keystroke_l	l	n/a
127.7075	0.105	255415	keystroke_t	t	n/a
128.3825	0.12	256765	keystroke_Key.space	Key.space	n/a
128.6225	0.105	257245	keystroke_r	r	n/a
128.7125	0.075	257425	keystroke_o	o	n/a
128.8925	0.075	257785	keystroke_l	l	n/a
128.9825	0.075	257965	keystroke_e	e	n/a
129.1925	0.09	258385	keystroke_s	s	n/a
130.392	0.06	260784	keystroke_Key.space	Key.space	n/a
130.737	0.06	261474	keystroke_r	r	n/a
131.277	0.075	262554	keystroke_Key.backspace	Key.backspace	n/a
131.398	0.105	262796	keystroke_a	a	n/a
131.742	0.061	263484	keystroke_p	p	n/a
131.892	0.075	263784	keystroke_p	p	n/a
132.087	0.135	264174	keystroke_i	i	n/a
132.237	0.106	264474	keystroke_n	n	n/a
132.792	0.06	265584	keystroke_Key.backspace	Key.backspace	n/a
132.882	0.09	265764	keystroke_Key.backspace	Key.backspace	n/a
133.527	0.12	267054	keystroke_o	o	n/a
133.677	0.15	267354	keystroke_i	i	n/a
133.782	0.12	267564	keystroke_n	n	n/a
134.142	0.09	268284	keystroke_t	t	n/a
134.757	0.0905	269514	keystroke_m	m	n/a
134.8175	0.0895	269635	keystroke_e	e	n/a
134.982	0.09	269964	keystroke_n	n	n/a
135.087	0.06	270174	keystroke_t	t	n/a
135.507	0.09	271014	keystroke_Key.enter	Key.enter	n/a
135.6115	17.68	271223	prompt	n/a	grants accommodation juan delight\n
136.7525	0.075	273505	keystroke_g	g	n/a
136.9475	0.09	273895	keystroke_r	r	n/a
137.1125	0.1195	274225	keystroke_a	a	n/a
137.247	0.105	274494	keystroke_n	n	n/a
137.367	0.075	274734	keystroke_t	t	n/a
137.622	0.0905	275244	keystroke_s	s	n/a
137.7425	0.12	275485	keystroke_Key.space	Key.space	n/a
137.8475	0.12	275695	keystroke_a	a	n/a
137.9685	0.104	275937	keystroke_c	c	n/a
138.1625	0.09	276325	keystroke_c	c	n/a
138.3125	0.15	276625	keystroke_o	o	n/a
138.4025	0.12	276805	keystroke_m	m	n/a
139.0475	0.105	278095	keystroke_o	o	n/a
139.3325	0.15	278665	keystroke_d	d	n/a
139.4675	0.09	278935	keystroke_a	a	n/a
139.7225	0.06	279445	keystroke_t	t	n/a
139.8275	0.225	279655	keystroke_i	i	n/a
139.9025	0.135	279805	keystroke_o	o	n/a
139.9925	0.105	279985	keystroke_n	n	n/a
140.2625	0.09	280525	keystroke_j	j	n/a
140.5475	0.09	281095	keystroke_u	u	n/a
140.7125	0.105	281425	keystroke_a	a	n/a
141.0275	0.06	282055	keystroke_Key.backspace	Key.backspace	n/a
141.1625	0.0595	282325	keystroke_Key.backspace	Key.backspace	n/a
141.297	0.0905	282594	keystroke_Key.backspace	Key.backspace	n/a
141.9875	0.105	283975	keystroke_Key.space	Key.space	n/a
142.1375	0.075	284275	keystroke_j	j	n/a
142.3025	0.06	284605	keystroke_u	u	n/a
142.4075	0.0895	284815	keystroke_a	a	n/a
142.512	0.075	285024	keystroke_n	n	n/a
145.4695	0	290939	keystroke_Key.backspace	Key.backspace	n/a
145.6025	0.06	291205	keystroke_Key.backspace	Key.backspace	n/a
145.7825	0.045	291565	keystroke_Key.backspace	Key.backspace	n/a
145.9325	0.045	291865	keystroke_Key.backspace	Key.backspace	n/a
146.0825	0.06	292165	keystroke_Key.backspace	Key.backspace	n/a
146.2325	0.06	292465	keystroke_Key.backspace	Key.backspace	n/a
146.3975	0.06	292795	keystroke_Key.backspace	Key.backspace	n/a
146.5775	0.045	293155	keystroke_Key.backspace	Key.backspace	n/a
146.7425	0.045	293485	keystroke_Key.backspace	Key.backspace	n/a
146.8925	0.075	293785	keystroke_Key.backspace	Key.backspace	n/a
147.0725	0.09	294145	keystroke_Key.backspace	Key.backspace	n/a
147.252	0.0605	294504	keystroke_Key.backspace	Key.backspace	n/a
147.8075	0.075	295615	keystroke_m	m	n/a
147.9575	0.105	295915	keystroke_o	o	n/a
148.6625	0.105	297325	keystroke_d	d	n/a
148.7225	0.105	297445	keystroke_a	a	n/a
148.9475	0.075	297895	keystroke_t	t	n/a
149.0525	0.2395	298105	keystroke_i	i	n/a
149.1575	0.1645	298315	keystroke_o	o	n/a
149.2175	0.1495	298435	keystroke_n	n	n/a
149.337	0.135	298674	keystroke_Key.space	Key.space	n/a
149.832	0.045	299664	keystroke_j	j	n/a
149.997	0.046	299994	keystroke_u	u	n/a
150.058	0.075	300116	keystroke_a	a	n/a
150.193	0.105	300386	keystroke_n	n	n/a
150.312	0.136	300624	keystroke_Key.space	Key.space	n/a
151.303	0.089	302606	keystroke_d	d	n/a
151.347	0.105	302694	keystroke_e	e	n/a
151.467	0.12	302934	keystroke_l	l	n/a
151.542	0.09	303084	keystroke_i	i	n/a
151.663	0.089	303326	keystroke_g	g	n/a
151.767	0.12	303534	keystroke_h	h	n/a
151.843	0.089	303686	keystroke_t	t	n/a
153.207	0.075	306414	keystroke_Key.enter	Key.enter	n/a
153.2955	5.8985	306591	prompt	n/a	broken trip different been\n
154.107	0.075	308214	keystroke_b	b	n/a
154.287	0.06	308574	keystroke_r	r	n/a
154.557	0.09	309114	keystroke_o	o	n/a
154.7825	0.09	309565	keystroke_k	k	n/a
154.9025	0.09	309805	keystroke_e	e	n/a
155.0225	0.105	310045	keystroke_n	n	n/a
155.0825	0.135	310165	keystroke_Key.space	Key.space	n/a
155.2925	0.075	310585	keystroke_t	t	n/a
155.4875	0.075	310975	keystroke_r	r	n/a
155.6075	0.165	311215	keystroke_i	i	n/a
155.7425	0.15	311485	keystroke_p	p	n/a
155.8775	0.12	311755	keystroke_Key.space	Key.space	n/a
156.4325	0.09	312865	keystroke_d	d	n/a
156.7475	0.075	313495	keystroke_i	i	n/a
156.8975	0.06	313795	keystroke_f	f	n/a
157.0325	0.09	314065	keystroke_f	f	n/a
157.1375	0.15	314275	keystroke_e	e	n/a
157.2725	0.135	314545	keystroke_r	r	n/a
157.3475	0.105	314695	keystroke_e	e	n/a
157.4675	0.12	314935	keystroke_n	n	n/a
157.5575	0.09	315115	keystroke_t	t	n/a
157.6925	0.09	315385	keystroke_Key.space	Key.space	n/a
158.0075	0.075	316015	keystroke_b	b	n/a
158.1425	0.0745	316285	keystroke_e	e	n/a
158.292	0.105	316584	keystroke_e	e	n/a
158.412	0.105	316824	keystroke_n	n	n/a
159.102	0.09	318204	keystroke_Key.enter	Key.enter	n/a
159.1965	9.981	318393	prompt	n/a	speaker print boolean agricultural\n
160.047	0.105	320094	keystroke_s	s	n/a
160.167	0.09	320334	keystroke_p	p	n/a
160.302	0.135	320604	keystroke_e	e	n/a
160.482	0.09	320964	keystroke_a	a	n/a
160.587	0.105	321174	keystroke_k	k	n/a
160.722	0.15	321444	keystroke_e	e	n/a
160.812	0.105	321624	keystroke_r	r	n/a
160.932	0.105	321864	keystroke_Key.space	Key.space	n/a
161.202	0.1055	322404	keystroke_p	p	n/a
161.442	0.105	322884	keystroke_r	r	n/a
161.532	0.15	323064	keystroke_i	i	n/a
161.727	0.06	323454	keystroke_n	n	n/a
161.892	0.09	323784	keystroke_t	t	n/a
162.177	0.12	324354	keystroke_Key.space	Key.space	n/a
162.972	0.076	325944	keystroke_b	b	n/a
163.153	0.06	326306	keystroke_o	o	n/a
163.288	0.06	326576	keystroke_o	o	n/a
163.468	0.06	326936	keystroke_l	l	n/a
163.543	0.075	327086	keystroke_e	e	n/a
163.723	0.089	327446	keystroke_a	a	n/a
163.828	0.164	327656	keystroke_n	n	n/a
163.977	0.105	327954	keystroke_Key.space	Key.space	n/a
165.283	0.105	330566	keystroke_g	g	n/a
165.643	0.075	331286	keystroke_Key.backspace	Key.backspace	n/a
165.748	0.06	331496	keystroke_a	a	n/a
165.883	0.09	331766	keystroke_g	g	n/a
166.288	0.09	332576	keystroke_r	r	n/a
166.8425	0.075	333685	keystroke_i	i	n/a
167.1725	0.12	334345	keystroke_c	c	n/a
167.3225	0.0745	334645	keystroke_u	u	n/a
167.502	0.105	335004	keystroke_l	l	n/a
167.6525	0.09	335305	keystroke_t	t	n/a
167.7725	0.09	335545	keystroke_u	u	n/a
167.9075	0.1055	335815	keystroke_r	r	n/a
168.177	0.091	336354	keystroke_a	a	n/a
168.508	0.075	337016	keystroke_l	l	n/a
169.107	0.06	338214	keystroke_Key.enter	Key.enter	n/a
169.184	7.74	338368	prompt	n/a	emily terminals ranked personnel\n
169.737	0.075	339474	keystroke_e	e	n/a
169.857	0.105	339714	keystroke_m	m	n/a
170.0375	0.09	340075	keystroke_i	i	n/a
170.2025	0.09	340405	keystroke_l	l	n/a
170.4425	0.12	340885	keystroke_y	y	n/a
170.6225	0.09	341245	keystroke_Key.space	Key.space	n/a
170.8925	0.12	341785	keystroke_t	t	n/a
171.0275	0.15	342055	keystroke_e	e	n/a
171.1475	0.105	342295	keystroke_r	r	n/a
171.268	0.1045	342536	keystroke_m	m	n/a
171.4175	0.135	342835	keystroke_i	i	n/a
171.5225	0.105	343045	keystroke_n	n	n/a
171.6425	0.09	343285	keystroke_a	a	n/a
171.8375	0.12	343675	keystroke_l	l	n/a
172.3925	0.105	344785	keystroke_s	s	n/a
172.5875	0.105	345175	keystroke_Key.space	Key.space	n/a
172.9025	0.15	345805	keystroke_r	r	n/a
173.0375	0.105	346075	keystroke_a	a	n/a
173.1275	0.1345	346255	keystroke_n	n	n/a
173.218	0.104	346436	keystroke_k	k	n/a
173.368	0.105	346736	keystroke_e	e	n/a
173.428	0.12	346856	keystroke_d	d	n/a
173.607	0.075	347214	keystroke_Key.space	Key.space	n/a
173.773	0.0745	347546	keystroke_p	p	n/a
174.0725	0.135	348145	keystroke_e	e	n/a
174.2075	0.09	348415	keystroke_r	r	n/a
174.4925	0.0905	348985	keystroke_o	o	n/a
175.0625	0.09	350125	keystroke_Key.backspace	Key.backspace	n/a
175.1675	0.105	350335	keystroke_s	s	n/a
175.2875	0.15	350575	keystroke_o	o	n/a
175.4075	0.09	350815	keystroke_n	n	n/a
175.6475	0.06	351295	keystroke_n	n	n/a
176.1875	0.075	352375	keystroke_e	e	n/a
176.3075	0.09	352615	keystroke_l	l	n/a
176.8625	0.06	353725	keystroke_Key.enter	Key.enter	n/a
176.9265	10.91	353853	prompt	n/a	tips liquid tampa litigation\n
178.3175	0.075	356635	keystroke_t	t	n/a
178.4825	0.09	356965	keystroke_i	i	n/a
178.6475	0.09	357295	keystroke_p	p	n/a
178.7975	0.09	357595	keystroke_s	s	n/a
179.3525	0.12	358705	keystroke_Key.space	Key.space	n/a
179.5325	0.135	359065	keystroke_l	l	n/a
179.6225	0.09	359245	keystroke_i	i	n/a
180.3425	0.09	360685	keystroke_w	w	n/a
180.5075	0.075	361015	keystroke_i	i	n/a
181.0175	0.075	362035	keystroke_Key.backspace	Key.backspace	n/a
181.1525	0.06	362305	keystroke_Key.backspace	Key.backspace	n/a
181.4825	0.075	362965	keystroke_q	q	n/a
181.6325	0.105	363265	keystroke_u	u	n/a
181.7075	0.09	363415	keystroke_i	i	n/a
182.0675	0.09	364135	keystroke_d	d	n/a
182.8325	0.12	365665	keystroke_Key.space	Key.space	n/a
183.2975	0.075	366595	keystroke_t	t	n/a
183.4775	0.105	366955	keystroke_a	a	n/a
183.5675	0.105	367135	keystroke_m	m	n/a
183.7625	0.09	367525	keystroke_p	p	n/a
183.9125	0.09	367825	keystroke_a	a	n/a
184.2875	0.105	368575	keystroke_Key.space	Key.space	n/a
184.4375	0.135	368875	keystroke_l	l	n/a
184.5125	0.135	369025	keystroke_i	i	n/a
185.5175	0.12	371035	keystroke_t	t	n/a
185.6975	0.06	371395	keystroke_i	i	n/a
186.6875	0.075	373375	keystroke_g	g	n/a
186.8525	0.075	373705	keystroke_a	a	n/a
186.9875	0.09	373975	keystroke_t	t	n/a
187.0925	0.225	374185	keystroke_i	i	n/a
187.1675	0.135	374335	keystroke_o	o	n/a
187.2425	0.105	374485	keystroke_n	n	n/a
187.7525	0.075	375505	keystroke_Key.enter	Key.enter	n/a
187.841	9.2955	375682	prompt	n/a	shopper extraction cosmetic betty\n
188.5625	0.105	377125	keystroke_s	s	n/a
188.6825	0.135	377365	keystroke_h	h	n/a
188.8025	0.09	377605	keystroke_o	o	n/a
188.9825	0.06	377965	keystroke_p	p	n/a
189.1475	0.06	378295	keystroke_p	p	n/a
189.2525	0.105	378505	keystroke_e	e	n/a
189.2975	0.12	378595	keystroke_r	r	n/a
189.5975	0.12	379195	keystroke_Key.space	Key.space	n/a
189.8375	0.075	379675	keystroke_e	e	n/a
190.0775	0.1055	380155	keystroke_x	x	n/a
190.408	0.075	380816	keystroke_t	t	n/a
190.588	0.09	381176	keystroke_r	r	n/a
190.708	0.09	381416	keystroke_a	a	n/a
190.918	0.075	381836	keystroke_t	t	n/a
191.502	0.045	383004	keystroke_Key.backspace	Key.backspace	n/a
191.667	0.12	383334	keystroke_c	c	n/a
191.967	0.105	383934	keystroke_t	t	n/a
193.153	0.285	386306	keystroke_i	i	n/a
193.303	0.15	386606	keystroke_o	o	n/a
193.348	0.195	386696	keystroke_n	n	n/a
193.993	0.09	387986	keystroke_Key.space	Key.space	n/a
194.293	0.12	388586	keystroke_c	c	n/a
194.398	0.105	388796	keystroke_o	o	n/a
194.548	0.12	389096	keystroke_s	s	n/a
194.9225	0.09	389845	keystroke_m	m	n/a
195.0135	0.089	390027	keystroke_e	e	n/a
195.1775	0.075	390355	keystroke_t	t	n/a
195.3425	0.09	390685	keystroke_i	i	n/a
195.493	0.09	390986	keystroke_c	c	n/a
195.6425	0.075	391285	keystroke_Key.space	Key.space	n/a
195.9725	0.105	391945	keystroke_b	b	n/a
196.0925	0.09	392185	keystroke_e	e	n/a
196.2425	0.075	392485	keystroke_t	t	n/a
196.3775	0.09	392755	keystroke_t	t	n/a
196.5125	0.09	393025	keystroke_y	y	n/a
197.0075	0.12	394015	keystroke_Key.enter	Key.enter	n/a
197.143	8.4765	394286	prompt	n/a	mills holdings hung history\n
197.713	0.105	395426	keystroke_m	m	n/a
197.878	0.075	395756	keystroke_i	i	n/a
198.043	0.06	396086	keystroke_l	l	n/a
198.1925	0.03	396385	keystroke_l	l	n/a
198.2525	0.105	396505	keystroke_s	s	n/a
198.4025	0.105	396805	keystroke_Key.space	Key.space	n/a
198.6125	0.12	397225	keystroke_h	h	n/a
198.7625	0.075	397525	keystroke_o	o	n/a
198.9125	0.1045	397825	keystroke_l	l	n/a
198.987	0.121	397974	keystroke_d	d	n/a
199.137	0.12	398274	keystroke_i	i	n/a
199.227	0.075	398454	keystroke_n	n	n/a
199.288	0.105	398576	keystroke_g	g	n/a
199.452	0.105	398904	keystroke_Key.space	Key.space	n/a
200.037	0.06	400074	keystroke_Key.backspace	Key.backspace	n/a
200.142	0.045	400284	keystroke_s	s	n/a
200.202	0.105	400404	keystroke_Key.space	Key.space	n/a
200.412	0.12	400824	keystroke_h	h	n/a
200.502	0.075	401004	keystroke_u	u	n/a
200.967	0.1055	401934	keystroke_g	g	n/a
201.3425	0.09	402685	keystroke_Key.backspace	Key.backspace	n/a
201.553	0.09	403106	keystroke_n	n	n/a
201.6575	0.045	403315	keystroke_g	g	n/a
202.933	0.075	405866	keystroke_Key.space	Key.space	n/a
203.1425	0.18	406285	keystroke_h	h	n/a
203.2625	0.09	406525	keystroke_u	u	n/a
203.4425	0.06	406885	keystroke_s	s	n/a
203.8625	0.06	407725	keystroke_Key.backspace	Key.backspace	n/a
203.9975	0.06	407995	keystroke_Key.backspace	Key.backspace	n/a
204.2075	0.06	408415	keystroke_i	i	n/a
204.2975	0.105	408595	keystroke_s	s	n/a
204.5525	0.06	409105	keystroke_t	t	n/a
204.6125	0.075	409225	keystroke_o	o	n/a
204.7475	0.075	409495	keystroke_r	r	n/a
204.8825	0.09	409765	keystroke_y	y	n/a
205.558	0.06	411116	keystroke_Key.enter	Key.enter	n/a
205.6225	10.3245	411245	prompt	n/a	resolution balance prevention dentists\n
206.458	0.12	412916	keystroke_r	r	n/a
206.533	0.105	413066	keystroke_e	e	n/a
206.758	0.09	413516	keystroke_s	s	n/a
206.818	0.06	413636	keystroke_o	o	n/a
207.522	0.091	415044	keystroke_l	l	n/a
207.883	0.075	415766	keystroke_u	u	n/a
208.018	0.09	416036	keystroke_t	t	n/a
208.183	0.255	416366	keystroke_i	i	n/a
208.303	0.15	416606	keystroke_o	o	n/a
208.363	0.149	416726	keystroke_n	n	n/a
208.587	0.135	417174	keystroke_Key.space	Key.space	n/a
209.068	0.06	418136	keystroke_c	c	n/a
209.472	0.075	418944	keystroke_Key.backspace	Key.backspace	n/a
209.758	0.075	419516	keystroke_b	b	n/a
209.848	0.104	419696	keystroke_a	a	n/a
209.968	0.075	419936	keystroke_l	l	n/a
210.133	0.0595	420266	keystroke_a	a	n/a
210.2825	0.09	420565	keystroke_n	n	n/a
210.3875	0.135	420775	keystroke_c	c	n/a
210.4625	0.105	420925	keystroke_e	e	n/a
210.658	0.09	421316	keystroke_Key.space	Key.space	n/a
211.168	0.059	422336	keystroke_p	p	n/a
211.557	0.12	423114	keystroke_r	r	n/a
211.647	0.106	423294	keystroke_e	e	n/a
211.933	0.15	423866	keystroke_v	v	n/a
212.053	0.105	424106	keystroke_e	e	n/a
212.173	0.12	424346	keystroke_n	n	n/a
212.368	0.075	424736	keystroke_t	t	n/a
212.533	0.225	425066	keystroke_i	i	n/a
212.683	0.12	425366	keystroke_o	o	n/a
212.698	0.18	425396	keystroke_n	n	n/a
212.922	0.091	425844	keystroke_Key.space	Key.space	n/a
213.658	0.105	427316	keystroke_d	d	n/a
213.703	0.104	427406	keystroke_e	e	n/a
213.808	0.12	427616	keystroke_n	n	n/a
213.987	0.091	427974	keystroke_t	t	n/a
214.227	0.075	428454	keystroke_i	i	n/a
214.348	0.105	428696	keystroke_s	s	n/a
214.6325	0.075	429265	keystroke_t	t	n/a
215.4575	0.09	430915	keystroke_s	s	n/a
215.8625	0.075	431725	keystroke_Key.enter	Key.enter	n/a
215.9515	6.7225	431903	prompt	n/a	couples gold partners rally\n
216.642	0.09	433284	keystroke_c	c	n/a
216.748	0.09	433496	keystroke_o	o	n/a
216.792	0.09	433584	keystroke_u	u	n/a
216.987	0.15	433974	keystroke_p	p	n/a
217.048	0.134	434096	keystroke_l	l	n/a
217.197	0.075	434394	keystroke_e	e	n/a
217.3625	0.1045	434725	keystroke_s	s	n/a
217.497	0.105	434994	keystroke_Key.space	Key.space	n/a
217.947	0.045	435894	keystroke_g	g	n/a
218.383	0.09	436766	keystroke_o	o	n/a
218.578	0.075	437156	keystroke_l	l	n/a
218.683	0.12	437366	keystroke_d	d	n/a
218.908	0.105	437816	keystroke_Key.space	Key.space	n/a
219.508	0.09	439016	keystroke_p	p	n/a
219.628	0.12	439256	keystroke_a	a	n/a
219.733	0.105	439466	keystroke_r	r	n/a
219.973	0.06	439946	keystroke_t	t	n/a
220.348	0.09	440696	keystroke_n	n	n/a
220.498	0.15	440996	keystroke_e	e	n/a
220.603	0.105	441206	keystroke_r	r	n/a
221.023	0.12	442046	keystroke_s	s	n/a
221.188	0.105	442376	keystroke_Key.space	Key.space	n/a
221.323	0.105	442646	keystroke_r	r	n/a
221.413	0.135	442826	keystroke_a	a	n/a
221.563	0.06	443126	keystroke_l	l	n/a
221.728	0.03	443456	keystroke_l	l	n/a
221.938	0.12	443876	keystroke_y	y	n/a
222.598	0.075	445196	keystroke_Key.enter	Key.enter	n/a
222.677	7.52	445354	prompt	n/a	aquatic adult nitrogen formal\n
223.467	0.105	446934	keystroke_a	a	n/a
223.737	0.075	447474	keystroke_q	q	n/a
223.887	0.075	447774	keystroke_u	u	n/a
224.007	0.0605	448014	keystroke_a	a	n/a
224.2775	0.075	448555	keystroke_t	t	n/a
224.4275	0.09	448855	keystroke_i	i	n/a
224.6525	0.135	449305	keystroke_c	c	n/a
224.8625	0.1345	449725	keystroke_Key.space	Key.space	n/a
225.057	0.09	450114	keystroke_a	a	n/a
225.3575	0.1055	450715	keystroke_d	d	n/a
225.508	0.1045	451016	keystroke_u	u	n/a
225.8975	0.09	451795	keystroke_l	l	n/a
226.1675	0.105	452335	keystroke_t	t	n/a
226.3775	0.105	452755	keystroke_Key.space	Key.space	n/a
226.6025	0.09	453205	keystroke_n	n	n/a
226.7525	0.075	453505	keystroke_i	i	n/a
226.9175	0.0755	453835	keystroke_t	t	n/a
227.098	0.105	454196	keystroke_r	r	n/a
227.188	0.105	454376	keystroke_o	o	n/a
227.488	0.09	454976	keystroke_g	g	n/a
227.938	0.09	455876	keystroke_e	e	n/a
228.073	0.15	456146	keystroke_n	n	n/a
228.178	0.12	456356	keystroke_Key.space	Key.space	n/a
228.7175	0.105	457435	keystroke_f	f	n/a
228.8825	0.075	457765	keystroke_o	o	n/a
228.9725	0.09	457945	keystroke_r	r	n/a
229.4075	0.06	458815	keystroke_m	m	n/a
229.4825	0.09	458965	keystroke_a	a	n/a
229.5875	0.09	459175	keystroke_l	l	n/a
230.0975	0.09	460195	keystroke_Key.enter	Key.enter	n/a
230.201	19.631	460402	prompt	n/a	portuguese slovenia winds backing\n
230.8175	0.075	461635	keystroke_p	p	n/a
230.9525	0.1205	461905	keystroke_r	r	n/a
231.1925	0.105	462385	keystroke_o	o	n/a
231.4475	0.09	462895	keystroke_t	t	n/a
231.7175	0.135	463435	keystroke_u	u	n/a
232.0325	0.09	464065	keystroke_g	g	n/a
232.5425	0.03	465085	keystroke_u	u	n/a
232.5575	0.09	465115	keystroke_e	e	n/a
232.7675	0.075	465535	keystroke_s	s	n/a
232.9475	0.09	465895	keystroke_e	e	n/a
233.128	0.1345	466256	keystroke_Key.space	Key.space	n/a
233.4575	0.09	466915	keystroke_s	s	n/a
235.288	0.0745	470576	keystroke_Key.backspace	Key.backspace	n/a
235.4825	0.045	470965	keystroke_Key.backspace	Key.backspace	n/a
235.6775	0.075	471355	keystroke_Key.backspace	Key.backspace	n/a
237.432	0.045	474864	keystroke_Key.backspace	Key.backspace	n/a
237.613	0.044	475226	keystroke_Key.backspace	Key.backspace	n/a
237.763	0.06	475526	keystroke_Key.backspace	Key.backspace	n/a
237.9275	0.06	475855	keystroke_Key.backspace	Key.backspace	n/a
238.0775	0.0605	476155	keystroke_Key.backspace	Key.backspace	n/a
238.258	0.045	476516	keystroke_Key.backspace	Key.backspace	n/a
238.423	0.075	476846	keystroke_Key.backspace	Key.backspace	n/a
238.6625	0.03	477325	keystroke_Key.backspace	Key.backspace	n/a
239.203	0.105	478406	keystroke_o	o	n/a
239.443	0.09	478886	keystroke_r	r	n/a
240.298	0.045	480596	keystroke_t	t	n/a
240.448	0.12	480896	keystroke_u	u	n/a
240.823	0.15	481646	keystroke_g	g	n/a
241.453	0.09	482906	keystroke_u	u	n/a
242.713	0.075	485426	keystroke_e	e	n/a
242.908	0.075	485816	keystroke_s	s	n/a
243.313	0.075	486626	keystroke_e	e	n/a
243.508	0.12	487016	keystroke_Key.space	Key.space	n/a
243.928	0.075	487856	keystroke_s	s	n/a
244.108	0.075	488216	keystroke_l	l	n/a
244.258	0.105	488516	keystroke_o	o	n/a
244.543	0.135	489086	keystroke_v	v	n/a
244.648	0.105	489296	keystroke_e	e	n/a
244.813	0.12	489626	keystroke_n	n	n/a
244.948	0.075	489896	keystroke_i	i	n/a
245.068	0.09	490136	keystroke_a	a	n/a
245.248	0.1195	490496	keystroke_Key.space	Key.space	n/a
245.442	0.031	490884	keystroke_w	w	n/a
245.488	0.12	490976	keystroke_i	i	n/a
246.102	0.105	492204	keystroke_n	n	n/a
246.358	0.134	492716	keystroke_d	d	n/a
246.507	0.12	493014	keystroke_s	s	n/a
247.917	0.105	495834	keystroke_Key.space	Key.space	n/a
248.487	0.09	496974	keystroke_b	b	n/a
248.607	0.09	497214	keystroke_a	a	n/a
248.8025	0.09	497605	keystroke_c	c	n/a
249.102	0.075	498204	keystroke_k	k	n/a
249.283	0.135	498566	keystroke_i	i	n/a
249.388	0.105	498776	keystroke_n	n	n/a
249.462	0.075	498924	keystroke_g	g	n/a
249.717	0.105	499434	keystroke_Key.enter	Key.enter	n/a
249.8365	8.9395	499673	prompt	n/a	interactions copyrights you'd playback\n
250.422	0.135	500844	keystroke_i	i	n/a
250.527	0.136	501054	keystroke_n	n	n/a
250.647	0.1205	501294	keystroke_t	t	n/a
250.797	0.091	501594	keystroke_e	e	n/a
250.857	0.12	501714	keystroke_r	r	n/a
251.022	0.151	502044	keystroke_a	a	n/a
251.188	0.0595	502376	keystroke_c	c	n/a
251.533	0.089	503066	keystroke_t	t	n/a
251.667	0.195	503334	keystroke_i	i	n/a
251.742	0.15	503484	keystroke_o	o	n/a
251.833	0.089	503666	keystroke_n	n	n/a
251.907	0.105	503814	keystroke_s	s	n/a
252.057	0.09	504114	keystroke_Key.space	Key.space	n/a
252.298	0.105	504596	keystroke_c	c	n/a
252.417	0.075	504834	keystroke_o	o	n/a
252.6125	0.0745	505225	keystroke_p	p	n/a
253.6025	0.075	507205	keystroke_y	y	n/a
254.0225	0.075	508045	keystroke_r	r	n/a
254.1125	0.09	508225	keystroke_i	i	n/a
254.2175	0.09	508435	keystroke_g	g	n/a
254.3225	0.105	508645	keystroke_h	h	n/a
254.4425	0.03	508885	keystroke_t	t	n/a
254.8325	0.105	509665	keystroke_s	s	n/a
255.5075	0.12	511015	keystroke_Key.space	Key.space	n/a
255.9725	0.09	511945	keystroke_y	y	n/a
256.0775	0.15	512155	keystroke_o	o	n/a
256.1525	0.105	512305	keystroke_u	u	n/a
256.3325	0.15	512665	keystroke_'	'	n/a
256.4975	0.075	512995	keystroke_d	d	n/a
256.6775	0.09	513355	keystroke_Key.space	Key.space	n/a
256.8725	0.18	513745	keystroke_p	p	n/a
256.9775	0.105	513955	keystroke_l	l	n/a
257.113	0.0895	514226	keystroke_a	a	n/a
257.3075	0.0905	514615	keystroke_y	y	n/a
257.593	0.09	515186	keystroke_b	b	n/a
257.728	0.105	515456	keystroke_a	a	n/a
257.818	0.105	515636	keystroke_c	c	n/a
257.908	0.12	515816	keystroke_k	k	n/a
258.7025	0.06	517405	keystroke_Key.enter	Key.enter	n/a
258.776	10.6905	517552	prompt	n/a	lance of finest rhythm\n
259.393	0.0905	518786	keystroke_l	l	n/a
259.4835	0.1345	518967	keystroke_a	a	n/a
259.708	0.075	519416	keystroke_n	n	n/a
259.828	0.15	519656	keystroke_c	c	n/a
259.932	0.121	519864	keystroke_e	e	n/a
260.008	0.105	520016	keystroke_Key.space	Key.space	n/a
260.158	0.09	520316	keystroke_o	o	n/a
260.263	0.12	520526	keystroke_f	f	n/a
260.412	0.105	520824	keystroke_Key.space	Key.space	n/a
260.9675	0.09	521935	keystroke_f	f	n/a
261.0875	0.135	522175	keystroke_i	i	n/a
261.2235	0.074	522447	keystroke_n	n	n/a
261.4325	0.09	522865	keystroke_e	e	n/a
261.6275	0.09	523255	keystroke_s	s	n/a
261.8525	0.09	523705	keystroke_t	t	n/a
261.9875	0.12	523975	keystroke_Key.space	Key.space	n/a
262.828	0.075	525656	keystroke_r	r	n/a
263.9975	0.135	527995	keystroke_h	h	n/a
264.2975	0.075	528595	keystroke_y	y	n/a
264.958	0.105	529916	keystroke_t	t	n/a
265.5575	0.075	531115	keystroke_h	h	n/a
266.9675	0.06	533935	keystroke_m	m	n/a
269.415	0.042	538830	keystroke_Key.enter	Key.enter	n/a
269.471	11.501	538942	prompt	n/a	vincent testimony opportunities saddam\n
270.3585	0.09	540717	keystroke_v	v	n/a
270.5525	0.075	541105	keystroke_i	i	n/a
270.6875	0.106	541375	keystroke_n	n	n/a
270.8535	0.119	541707	keystroke_c	c	n/a
270.9135	0.135	541827	keystroke_e	e	n/a
271.0775	0.105	542155	keystroke_n	n	n/a
271.2725	0.076	542545	keystroke_t	t	n/a
271.4375	0.135	542875	keystroke_Key.space	Key.space	n/a
273.4325	0.12	546865	keystroke_t	t	n/a
273.4925	0.15	546985	keystroke_e	e	n/a
273.7785	0.1045	547557	keystroke_s	s	n/a
274.018	0.075	548036	keystroke_t	t	n/a
274.183	0.075	548366	keystroke_i	i	n/a
274.408	0.12	548816	keystroke_m	m	n/a
274.558	0.09	549116	keystroke_o	o	n/a
274.633	0.135	549266	keystroke_n	n	n/a
274.918	0.075	549836	keystroke_y	y	n/a
275.263	0.1195	550526	keystroke_Key.space	Key.space	n/a
275.6075	0.075	551215	keystroke_o	o	n/a
276.0725	0.075	552145	keystroke_p	p	n/a
276.2525	0.06	552505	keystroke_p	p	n/a
276.4325	0.105	552865	keystroke_o	o	n/a
276.7175	0.12	553435	keystroke_r	r	n/a
277.0625	0.075	554125	keystroke_t	t	n/a
277.3325	0.075	554665	keystroke_u	u	n/a
277.6025	0.1055	555205	keystroke_n	n	n/a
277.963	0.075	555926	keystroke_i	i	n/a
278.158	0.075	556316	keystroke_t	t	n/a
278.503	0.075	557006	keystroke_i	i	n/a
278.593	0.09	557186	keystroke_e	e	n/a
278.8025	0.105	557605	keystroke_s	s	n/a
278.9375	0.09	557875	keystroke_Key.space	Key.space	n/a
279.4175	0.15	558835	keystroke_s	s	n/a
279.5675	0.135	559135	keystroke_a	a	n/a
279.8225	0.045	559645	keystroke_d	d	n/a
279.9725	0.06	559945	keystroke_d	d	n/a
280.0775	0.105	560155	keystroke_a	a	n/a
280.2425	0.09	560485	keystroke_m	m	n/a
280.8575	0.105	561715	keystroke_Key.enter	Key.enter	n/a
280.9775	10.929	561955	prompt	n/a	suspected phase yields nevada\n
281.818	0.12	563636	keystroke_s	s	n/a
281.983	0.075	563966	keystroke_u	u	n/a
282.208	0.09	564416	keystroke_p	p	n/a
282.478	0.105	564956	keystroke_s	s	n/a
283.078	0.06	566156	keystroke_Key.backspace	Key.backspace	n/a
283.228	0.06	566456	keystroke_Key.backspace	Key.backspace	n/a
283.393	0.09	566786	keystroke_s	s	n/a
283.708	0.075	567416	keystroke_p	p	n/a
284.023	0.06	568046	keystroke_e	e	n/a
284.203	0.0895	568406	keystroke_c	c	n/a
284.4425	0.075	568885	keystroke_t	t	n/a
284.5625	0.135	569125	keystroke_e	e	n/a
284.6525	0.1355	569305	keystroke_d	d	n/a
284.848	0.12	569696	keystroke_Key.space	Key.space	n/a
285.058	0.09	570116	keystroke_p	p	n/a
285.268	0.075	570536	keystroke_h	h	n/a
285.5225	0.15	571045	keystroke_a	a	n/a
285.7025	0.15	571405	keystroke_s	s	n/a
285.9425	0.09	571885	keystroke_e	e	n/a
286.0925	0.09	572185	keystroke_Key.space	Key.space	n/a
286.993	0.075	573986	keystroke_y	y	n/a
287.218	0.06	574436	keystroke_i	i	n/a
287.5025	0.075	575005	keystroke_e	e	n/a
287.6225	0.075	575245	keystroke_l	l	n/a
287.7575	0.105	575515	keystroke_d	d	n/a
287.9375	0.075	575875	keystroke_s	s	n/a
288.627	0.076	577254	keystroke_Key.space	Key.space	n/a
288.793	0.1195	577586	keystroke_n	n	n/a
288.898	0.0745	577796	keystroke_e	e	n/a
289.0475	0.12	578095	keystroke_v	v	n/a
289.1825	0.12	578365	keystroke_a	a	n/a
289.5725	0.135	579145	keystroke_d	d	n/a
289.7375	0.105	579475	keystroke_e	e	n/a
290.4725	0.0755	580945	keystroke_Key.backspace	Key.backspace	n/a
290.593	0.075	581186	keystroke_a	a	n/a
291.8225	0.075	583645	keystroke_Key.enter	Key.enter	n/a
291.9105	11.219	583821	prompt	n/a	placing katrina legacy edwards\n
293.683	0.09	587366	keystroke_p	p	n/a
293.728	0.09	587456	keystroke_l	l	n/a
293.848	0.1345	587696	keystroke_a	a	n/a
293.9375	0.18	587875	keystroke_c	c	n/a
294.2825	0.12	588565	keystroke_i	i	n/a
294.3425	0.105	588685	keystroke_n	n	n/a
294.4325	0.09	588865	keystroke_g	g	n/a
294.5525	0.12	589105	keystroke_Key.space	Key.space	n/a
294.8675	0.075	589735	keystroke_k	k	n/a
294.9575	0.09	589915	keystroke_a	a	n/a
295.153	0.075	590306	keystroke_t	t	n/a
295.3325	0.0755	590665	keystroke_r	r	n/a
295.438	0.15	590876	keystroke_i	i	n/a
295.513	0.105	591026	keystroke_n	n	n/a
295.678	0.075	591356	keystroke_a	a	n/a
296.053	0.09	592106	keystroke_Key.space	Key.space	n/a
296.398	0.075	592796	keystroke_l	l	n/a
296.4875	0.0755	592975	keystroke_e	e	n/a
296.668	0.09	593336	keystroke_c	c	n/a
297.058	0.09	594116	keystroke_Key.backspace	Key.backspace	n/a
297.163	0.09	594326	keystroke_g	g	n/a
297.313	0.1045	594626	keystroke_a	a	n/a
297.853	0.045	595706	keystroke_c	c	n/a
297.928	0.09	595856	keystroke_y	y	n/a
298.138	0.075	596276	keystroke_Key.space	Key.space	n/a
298.978	0.06	597956	keystroke_e	e	n/a
299.158	0.075	598316	keystroke_d	d	n/a
299.6975	0.12	599395	keystroke_w	w	n/a
299.7725	0.12	599545	keystroke_a	a	n/a
299.9525	0.075	599905	keystroke_r	r	n/a
300.2225	0.12	600445	keystroke_d	d	n/a
300.2975	0.105	600595	keystroke_s	s	n/a
303.12	0	606240	keystroke_Key.enter	Key.enter	n/a
303.136	9.6215	606272	prompt	n/a	list improve sponsorship issues\n
304.2275	0.105	608455	keystroke_l	l	n/a
304.2885	0.134	608577	keystroke_i	i	n/a
304.3775	0.075	608755	keystroke_s	s	n/a
304.5725	0.076	609145	keystroke_t	t	n/a
304.708	0.12	609416	keystroke_Key.space	Key.space	n/a
304.918	0.165	609836	keystroke_i	i	n/a
305.053	0.15	610106	keystroke_m	m	n/a
305.263	0.1045	610526	keystroke_p	p	n/a
305.6525	0.09	611305	keystroke_r	r	n/a
305.8025	0.12	611605	keystroke_o	o	n/a
305.9825	0.1355	611965	keystroke_v	v	n/a
306.133	0.09	612266	keystroke_e	e	n/a
306.463	0.135	612926	keystroke_Key.space	Key.space	n/a
306.673	0.075	613346	keystroke_s	s	n/a
306.823	0.09	613646	keystroke_p	p	n/a
307.048	0.12	614096	keystroke_o	o	n/a
307.153	0.075	614306	keystroke_n	n	n/a
307.333	0.0895	614666	keystroke_s	s	n/a
307.5575	0.12	615115	keystroke_o	o	n/a
308.053	0.105	616106	keystroke_r	r	n/a
308.608	0.075	617216	keystroke_s	s	n/a
308.683	0.1195	617366	keystroke_h	h	n/a
308.7575	0.105	617515	keystroke_i	i	n/a
309.103	0.09	618206	keystroke_p	p	n/a
309.343	0.105	618686	keystroke_Key.space	Key.space	n/a
310.2575	0.0755	620515	keystroke_i	i	n/a
310.3925	0.075	620785	keystroke_s	s	n/a
310.5425	0.0755	621085	keystroke_s	s	n/a
310.618	0.0895	621236	keystroke_u	u	n/a
310.7375	0.075	621475	keystroke_e	e	n/a
311.3685	0.074	622737	keystroke_s	s	n/a
312.6725	0.075	625345	keystroke_Key.enter	Key.enter	n/a
312.7615	8.1965	625523	prompt	n/a	estates use minute silence\n
313.633	0.06	627266	keystroke_e	e	n/a
313.813	0.09	627626	keystroke_s	s	n/a
314.068	0.075	628136	keystroke_t	t	n/a
314.2475	0.12	628495	keystroke_a	a	n/a
314.3825	0.12	628765	keystroke_t	t	n/a
314.4425	0.12	628885	keystroke_e	e	n/a
314.7135	0.119	629427	keystroke_s	s	n/a
315.028	0.12	630056	keystroke_Key.space	Key.space	n/a
315.388	0.105	630776	keystroke_u	u	n/a
315.478	0.075	630956	keystroke_s	s	n/a
315.658	0.075	631316	keystroke_e	e	n/a
315.793	0.09	631586	keystroke_Key.space	Key.space	n/a
316.4975	0.106	632995	keystroke_m	m	n/a
316.6775	0.105	633355	keystroke_i	i	n/a
316.7975	0.15	633595	keystroke_n	n	n/a
316.9325	0.1055	633865	keystroke_u	u	n/a
317.068	0.135	634136	keystroke_t	t	n/a
317.158	0.135	634316	keystroke_e	e	n/a
317.368	0.09	634736	keystroke_Key.space	Key.space	n/a
317.683	0.09	635366	keystroke_s	s	n/a
317.773	0.075	635546	keystroke_i	i	n/a
317.938	0.09	635876	keystroke_l	l	n/a
318.043	0.09	636086	keystroke_e	e	n/a
318.193	0.12	636386	keystroke_n	n	n/a
318.358	0.165	636716	keystroke_c	c	n/a
318.448	0.1195	636896	keystroke_e	e	n/a
320.9555	0.001	641911	keystroke_Key.enter	Key.enter	n/a
320.9605	9.9015	641921	prompt	n/a	swaziland unique beer adams\n
321.5685	0.09	643137	keystroke_s	s	n/a
321.7625	0.12	643525	keystroke_w	w	n/a
321.8535	0.21	643707	keystroke_a	a	n/a
322.2585	0.104	644517	keystroke_z	z	n/a
322.4985	0.12	644997	keystroke_l	l	n/a
323.323	0.1045	646646	keystroke_Key.backspace	Key.backspace	n/a
324.208	0.06	648416	keystroke_i	i	n/a
324.343	0.09	648686	keystroke_l	l	n/a
324.448	0.18	648896	keystroke_a	a	n/a
324.523	0.12	649046	keystroke_n	n	n/a
324.658	0.075	649316	keystroke_d	d	n/a
324.868	0.105	649736	keystroke_Key.space	Key.space	n/a
326.533	0.09	653066	keystroke_u	u	n/a
326.728	0.09	653456	keystroke_n	n	n/a
326.893	0.09	653786	keystroke_i	i	n/a
327.9135	0.044	655827	keystroke_q	q	n/a
327.9725	0.06	655945	keystroke_u	u	n/a
328.1675	0.075	656335	keystroke_e	e	n/a
328.2875	0.105	656575	keystroke_Key.space	Key.space	n/a
328.543	0.06	657086	keystroke_b	b	n/a
328.618	0.075	657236	keystroke_e	e	n/a
328.798	0.075	657596	keystroke_e	e	n/a
329.083	0.09	658166	keystroke_r	r	n/a
329.233	0.105	658466	keystroke_Key.space	Key.space	n/a
329.473	0.15	658946	keystroke_a	a	n/a
329.608	0.12	659216	keystroke_d	d	n/a
329.758	0.105	659516	keystroke_a	a	n/a
329.878	0.105	659756	keystroke_m	m	n/a
329.953	0.105	659906	keystroke_s	s	n/a
330.7775	0.075	661555	keystroke_Key.enter	Key.enter	n/a
330.866	11.456	661732	prompt	n/a	bother paraguay speeches silence\n
331.813	0.09	663626	keystroke_b	b	n/a
332.1275	0.0755	664255	keystroke_o	o	n/a
332.293	0.105	664586	keystroke_t	t	n/a
332.383	0.105	664766	keystroke_h	h	n/a
332.503	0.105	665006	keystroke_e	e	n/a
332.563	0.1045	665126	keystroke_r	r	n/a
332.9685	0.105	665937	keystroke_Key.space	Key.space	n/a
333.5685	0.12	667137	keystroke_p	p	n/a
333.7035	0.135	667407	keystroke_a	a	n/a
333.9585	0.135	667917	keystroke_r	r	n/a
334.1535	0.09	668307	keystroke_a	a	n/a
334.8135	0.06	669627	keystroke_g	g	n/a
334.9335	0.105	669867	keystroke_u	u	n/a
335.2485	0.06	670497	keystroke_a	a	n/a
335.3985	0.09	670797	keystroke_y	y	n/a
335.9085	0.105	671817	keystroke_Key.space	Key.space	n/a
336.1035	0.09	672207	keystroke_s	s	n/a
336.2535	0.075	672507	keystroke_p	p	n/a
336.4035	0.06	672807	keystroke_e	e	n/a
336.5685	0.075	673137	keystroke_e	e	n/a
336.8535	0.09	673707	keystroke_c	c	n/a
337.0785	0.12	674157	keystroke_h	h	n/a
337.5885	0.06	675177	keystroke_e	e	n/a
337.8425	0.076	675685	keystroke_s	s	n/a
340.725	0.043	681450	keystroke_Key.space	Key.space	n/a
341.008	0.09	682016	keystroke_s	s	n/a
341.203	0.06	682406	keystroke_i	i	n/a
341.3675	0.09	682735	keystroke_l	l	n/a
341.473	0.09	682946	keystroke_e	e	n/a
341.623	0.105	683246	keystroke_n	n	n/a
341.713	0.165	683426	keystroke_c	c	n/a
341.833	0.075	683666	keystroke_e	e	n/a
342.223	0.09	684446	keystroke_Key.enter	Key.enter	n/a
342.3265	10.109	684653	prompt	n/a	tear rats rides hopkins\n
343.048	0.135	686096	keystroke_t	t	n/a
343.198	0.15	686396	keystroke_e	e	n/a
343.288	0.15	686576	keystroke_a	a	n/a
343.693	0.135	687386	keystroke_r	r	n/a
344.233	0.0895	688466	keystroke_Key.space	Key.space	n/a
344.3675	0.12	688735	keystroke_r	r	n/a
344.5325	0.135	689065	keystroke_a	a	n/a
344.7575	0.1055	689515	keystroke_t	t	n/a
345.1325	0.09	690265	keystroke_s	s	n/a
345.6575	0.09	691315	keystroke_Key.space	Key.space	n/a
346.1975	0.106	692395	keystroke_r	r	n/a
346.3475	0.09	692695	keystroke_i	i	n/a
347.068	0.18	694136	keystroke_d	d	n/a
347.263	0.105	694526	keystroke_e	e	n/a
347.668	0.0755	695336	keystroke_s	s	n/a
348.3135	0.075	696627	keystroke_Key.space	Key.space	n/a
348.5075	0.135	697015	keystroke_h	h	n/a
348.6275	0.091	697255	keystroke_o	o	n/a
348.958	0.0755	697916	keystroke_p	p	n/a
349.1985	0.09	698397	keystroke_k	k	n/a
349.4085	0.09	698817	keystroke_i	i	n/a
349.5285	0.135	699057	keystroke_n	n	n/a
349.6485	0.06	699297	keystroke_s	s	n/a
352.4255	0.001	704851	keystroke_Key.enter	Key.enter	n/a
352.44	12.247	704880	prompt	n/a	machine collectors mongolia forbes\n
353.1585	0.12	706317	keystroke_m	m	n/a
353.2485	0.1345	706497	keystroke_a	a	n/a
353.3385	0.1195	706677	keystroke_c	c	n/a
353.443	0.105	706886	keystroke_h	h	n/a
353.563	0.1355	707126	keystroke_i	i	n/a
353.6535	0.1195	707307	keystroke_n	n	n/a
353.803	0.1195	707606	keystroke_e	e	n/a
353.9675	0.105	707935	keystroke_Key.space	Key.space	n/a
354.1935	0.135	708387	keystroke_c	c	n/a
354.2985	0.09	708597	keystroke_o	o	n/a
354.4935	0.045	708987	keystroke_l	l	n/a
354.6285	0.075	709257	keystroke_l	l	n/a
354.7185	0.105	709437	keystroke_e	e	n/a
355.0635	0.1195	710127	keystroke_c	c	n/a
355.393	0.091	710786	keystroke_t	t	n/a
355.783	0.105	711566	keystroke_o	o	n/a
355.918	0.075	711836	keystroke_r	r	n/a
356.698	0.105	713396	keystroke_s	s	n/a
356.878	0.075	713756	keystroke_Key.space	Key.space	n/a
357.283	0.0895	714566	keystroke_m	m	n/a
357.403	0.075	714806	keystroke_a	a	n/a
357.823	0.075	715646	keystroke_Key.backspace	Key.backspace	n/a
358.048	0.135	716096	keystroke_o	o	n/a
358.123	0.135	716246	keystroke_n	n	n/a
358.6635	0.06	717327	keystroke_g	g	n/a
358.8585	0.06	717717	keystroke_o	o	n/a
359.0535	0.09	718107	keystroke_l	l	n/a
359.2935	0.09	718587	keystroke_i	i	n/a
359.4435	0.075	718887	keystroke_a	a	n/a
359.7585	0.12	719517	keystroke_Key.space	Key.space	n/a
360.4785	0.09	720957	keystroke_f	f	n/a
360.5835	0.09	721167	keystroke_o	o	n/a
360.6885	0.075	721377	keystroke_r	r	n/a
360.9135	0.03	721827	keystroke_n	n	n/a
361.3035	0.0595	722607	keystroke_Key.backspace	Key.backspace	n/a
361.483	0.075	722966	keystroke_b	b	n/a
361.543	0.09	723086	keystroke_e	e	n/a
361.768	0.075	723536	keystroke_s	s	n/a
364.6505	0.028	729301	keystroke_Key.enter	Key.enter	n/a
364.6915	12.296	729383	prompt	n/a	epson receiver suggests anti\n
366.118	0.06	732236	keystroke_e	e	n/a
366.238	0.075	732476	keystroke_p	p	n/a
366.343	0.09	732686	keystroke_s	s	n/a
366.463	0.18	732926	keystroke_o	o	n/a
366.553	0.165	733106	keystroke_n	n	n/a
366.703	0.12	733406	keystroke_Key.space	Key.space	n/a
367.123	0.135	734246	keystroke_r	r	n/a
367.198	0.12	734396	keystroke_e	e	n/a
368.489	0.119	736978	keystroke_v	v	n/a
369.0735	0.09	738147	keystroke_Key.backspace	Key.backspace	n/a
369.2085	0.12	738417	keystroke_c	c	n/a
369.8535	0.09	739707	keystroke_e	e	n/a
369.9735	0.105	739947	keystroke_i	i	n/a
370.0925	0.1205	740185	keystroke_v	v	n/a
370.288	0.15	740576	keystroke_e	e	n/a
370.378	0.105	740756	keystroke_r	r	n/a
370.588	0.12	741176	keystroke_Key.space	Key.space	n/a
371.233	0.12	742466	keystroke_s	s	n/a
371.3985	0.09	742797	keystroke_u	u	n/a
371.6235	0.09	743247	keystroke_f	f	n/a
371.8335	0.045	743667	keystroke_f	f	n/a
372.2685	0.06	744537	keystroke_Key.backspace	Key.backspace	n/a
372.403	0.075	744806	keystroke_Key.backspace	Key.backspace	n/a
372.583	0.075	745166	keystroke_g	g	n/a
372.763	0.045	745526	keystroke_g	g	n/a
372.9285	0.075	745857	keystroke_u	u	n/a
374.758	0.1055	749516	keystroke_Key.backspace	Key.backspace	n/a
374.9535	0.075	749907	keystroke_e	e	n/a
375.1635	0.09	750327	keystroke_s	s	n/a
375.403	0.075	750806	keystroke_t	t	n/a
375.7035	0.089	751407	keystroke_s	s	n/a
375.9125	0.106	751825	keystroke_Key.space	Key.space	n/a
376.1685	0.12	752337	keystroke_a	a	n/a
376.3035	0.135	752607	keystroke_n	n	n/a
376.3785	0.12	752757	keystroke_i	i	n/a
376.5435	0.06	753087	keystroke_t	t	n/a
376.9185	0.0595	753837	keystroke_Key.enter	Key.enter	n/a
376.9915	16.016	753983	prompt	n/a	translated gage consultation vsnet\n
378.074	0.059	756148	keystroke_t	t	n/a
378.4185	0.09	756837	keystroke_r	r	n/a
378.6735	0.12	757347	keystroke_a	a	n/a
378.8835	0.105	757767	keystroke_n	n	n/a
379.0035	0.075	758007	keystroke_s	s	n/a
379.4835	0.075	758967	keystroke_l	l	n/a
379.6335	0.135	759267	keystroke_a	a	n/a
379.8285	0.18	759657	keystroke_a	a	n/a
380.2485	0.03	760497	keystroke_g	g	n/a
380.5935	0.09	761187	keystroke_e	e	n/a
381.103	0.075	762206	keystroke_Key.backspace	Key.backspace	n/a
381.253	0.075	762506	keystroke_Key.backspace	Key.backspace	n/a
381.403	0.06	762806	keystroke_Key.backspace	Key.backspace	n/a
382.2135	0.105	764427	keystroke_t	t	n/a
382.4385	0.135	764877	keystroke_e	e	n/a
382.4985	0.105	764997	keystroke_d	d	n/a
382.6785	0.075	765357	keystroke_Key.space	Key.space	n/a
383.578	0.135	767156	keystroke_g	g	n/a
383.743	0.135	767486	keystroke_a	a	n/a
383.863	0.15	767726	keystroke_g	g	n/a
383.983	0.12	767966	keystroke_e	e	n/a
384.193	0.135	768386	keystroke_Key.space	Key.space	n/a
384.523	0.106	769046	keystroke_c	c	n/a
384.658	0.12	769316	keystroke_o	o	n/a
384.718	0.1495	769436	keystroke_n	n	n/a
385.018	0.12	770036	keystroke_s	s	n/a
385.123	0.06	770246	keystroke_u	u	n/a
385.303	0.09	770606	keystroke_l	l	n/a
385.468	0.06	770936	keystroke_t	t	n/a
385.693	0.09	771386	keystroke_a	a	n/a
385.993	0.075	771986	keystroke_t	t	n/a
386.218	0.2105	772436	keystroke_i	i	n/a
386.3385	0.1645	772677	keystroke_n	n	n/a
386.803	0.06	773606	keystroke_Key.backspace	Key.backspace	n/a
387.013	0.1355	774026	keystroke_o	o	n/a
387.1035	0.135	774207	keystroke_n	n	n/a
389.581	0.012	779162	keystroke_Key.space	Key.space	n/a
390.493	0.075	780986	keystroke_v	v	n/a
390.823	0.075	781646	keystroke_s	s	n/a
391.003	0.09	782006	keystroke_n	n	n/a
391.108	0.09	782216	keystroke_e	e	n/a
391.348	0.0595	782696	keystroke_t	t	n/a
392.9085	0.09	785817	keystroke_Key.enter	Key.enter	n/a
393.012	7.442	786024	prompt	n/a	derek you'll concept syria\n
394.3335	0.12	788667	keystroke_d	d	n/a
394.4685	0.105	788937	keystroke_e	e	n/a
394.5435	0.1345	789087	keystroke_r	r	n/a
394.663	0.105	789326	keystroke_e	e	n/a
394.903	0.09	789806	keystroke_k	k	n/a
395.203	0.12	790406	keystroke_Key.space	Key.space	n/a
395.5335	0.09	791067	keystroke_y	y	n/a
395.8185	0.15	791637	keystroke_o	o	n/a
395.8785	0.165	791757	keystroke_u	u	n/a
396.0585	0.09	792117	keystroke_'	'	n/a
396.2835	0.09	792567	keystroke_l	l	n/a
396.4785	0.135	792957	keystroke_l	l	n/a
396.5835	0.105	793167	keystroke_Key.space	Key.space	n/a
396.9435	0.105	793887	keystroke_c	c	n/a
397.0335	0.12	794067	keystroke_o	o	n/a
397.0935	0.12	794187	keystroke_n	n	n/a
397.2585	0.12	794517	keystroke_c	c	n/a
397.3185	0.165	794637	keystroke_e	e	n/a
397.4985	0.09	794997	keystroke_p	p	n/a
397.6785	0.104	795357	keystroke_t	t	n/a
397.8425	0.106	795685	keystroke_Key.space	Key.space	n/a
398.1885	0.09	796377	keystroke_s	s	n/a
398.518	0.105	797036	keystroke_y	y	n/a
398.758	0.075	797516	keystroke_r	r	n/a
398.878	0.12	797756	keystroke_i	i	n/a
399.013	0.09	798026	keystroke_a	a	n/a
400.3175	0.135	800635	keystroke_Key.enter	Key.enter	n/a
400.4565	6.8055	800913	prompt	n/a	assure brunei capture shop\n
401.1575	0.09	802315	keystroke_a	a	n/a
401.3075	0.075	802615	keystroke_s	s	n/a
401.4575	0.09	802915	keystroke_s	s	n/a
401.5325	0.09	803065	keystroke_u	u	n/a
401.7125	0.15	803425	keystroke_r	r	n/a
401.8175	0.105	803635	keystroke_e	e	n/a
401.9375	0.12	803875	keystroke_Key.space	Key.space	n/a
402.432	0.105	804864	keystroke_b	b	n/a
402.582	0.075	805164	keystroke_r	r	n/a
402.792	0.0895	805584	keystroke_u	u	n/a
403.3765	0.105	806753	keystroke_n	n	n/a
403.4515	0.09	806903	keystroke_e	e	n/a
403.6015	0.075	807203	keystroke_i	i	n/a
403.8265	0.105	807653	keystroke_Key.space	Key.space	n/a
405.206	0.135	810412	keystroke_c	c	n/a
405.296	0.135	810592	keystroke_a	a	n/a
405.476	0.09	810952	keystroke_p	p	n/a
405.686	0.105	811372	keystroke_t	t	n/a
405.806	0.09	811612	keystroke_u	u	n/a
405.911	0.12	811822	keystroke_r	r	n/a
405.986	0.12	811972	keystroke_e	e	n/a
406.151	0.105	812302	keystroke_Key.space	Key.space	n/a
406.361	0.12	812722	keystroke_s	s	n/a
406.511	0.15	813022	keystroke_h	h	n/a
406.631	0.105	813262	keystroke_o	o	n/a
406.826	0.09	813652	keystroke_p	p	n/a
407.171	0.09	814342	keystroke_Key.enter	Key.enter	n/a
407.2665	7.922	814533	prompt	n/a	stations saint towards anger\n
408.266	0.12	816532	keystroke_s	s	n/a
408.55	0.03	817100	keystroke_t	t	n/a
408.625	0.1355	817250	keystroke_a	a	n/a
408.7755	0.075	817551	keystroke_t	t	n/a
408.8655	0.1945	817731	keystroke_i	i	n/a
408.97	0.165	817940	keystroke_o	o	n/a
409.075	0.12	818150	keystroke_n	n	n/a
409.21	0.12	818420	keystroke_s	s	n/a
409.705	0.09	819410	keystroke_Key.space	Key.space	n/a
409.93	0.075	819860	keystroke_s	s	n/a
410.276	0.105	820552	keystroke_a	a	n/a
410.366	0.134	820732	keystroke_i	i	n/a
410.4405	0.1045	820881	keystroke_n	n	n/a
410.5455	0.075	821091	keystroke_t	t	n/a
410.7545	0.105	821509	keystroke_Key.space	Key.space	n/a
410.9955	0.0745	821991	keystroke_t	t	n/a
411.1	0.09	822200	keystroke_o	o	n/a
411.25	0.075	822500	keystroke_w	w	n/a
411.7	0.1355	823400	keystroke_a	a	n/a
411.9255	0.12	823851	keystroke_r	r	n/a
412.1355	0.135	824271	keystroke_d	d	n/a
412.2105	0.1495	824421	keystroke_s	s	n/a
412.51	0.06	825020	keystroke_Key.space	Key.space	n/a
413.2145	0.09	826429	keystroke_a	a	n/a
413.3345	0.0905	826669	keystroke_n	n	n/a
413.605	0.105	827210	keystroke_g	g	n/a
413.7995	0.135	827599	keystroke_e	e	n/a
413.8895	0.09	827779	keystroke_r	r	n/a
415.0895	0.09	830179	keystroke_Key.enter	Key.enter	n/a
415.193	7.458	830386	prompt	n/a	shopper mongolia allow exam\n
415.975	0.09	831950	keystroke_s	s	n/a
416.185	0.12	832370	keystroke_h	h	n/a
416.26	0.105	832520	keystroke_o	o	n/a
416.485	0.045	832970	keystroke_p	p	n/a
416.62	0.09	833240	keystroke_p	p	n/a
416.68	0.18	833360	keystroke_e	e	n/a
416.8	0.105	833600	keystroke_r	r	n/a
416.965	0.09	833930	keystroke_Key.space	Key.space	n/a
417.145	0.12	834290	keystroke_m	m	n/a
417.295	0.1345	834590	keystroke_o	o	n/a
417.3845	0.135	834769	keystroke_n	n	n/a
417.7145	0.09	835429	keystroke_g	g	n/a
417.8195	0.075	835639	keystroke_o	o	n/a
418.0145	0.1055	836029	keystroke_l	l	n/a
418.18	0.135	836360	keystroke_i	i	n/a
418.345	0.12	836690	keystroke_a	a	n/a
418.539	0.091	837078	keystroke_Key.space	Key.space	n/a
418.72	0.075	837440	keystroke_a	a	n/a
418.81	0.06	837620	keystroke_l	l	n/a
418.945	0.06	837890	keystroke_l	l	n/a
419.095	0.075	838190	keystroke_o	o	n/a
419.2	0.0895	838400	keystroke_w	w	n/a
419.71	0.09	839420	keystroke_Key.space	Key.space	n/a
420.04	0.075	840080	keystroke_e	e	n/a
420.265	0.06	840530	keystroke_x	x	n/a
420.445	0.09	840890	keystroke_a	a	n/a
420.55	0.135	841100	keystroke_m	m	n/a
422.5895	0.06	845179	keystroke_Key.enter	Key.enter	n/a
422.6545	9.0495	845309	prompt	n/a	miss brazil romantic film\n
423.4	0.09	846800	keystroke_m	m	n/a
423.565	0.075	847130	keystroke_i	i	n/a
423.775	0.09	847550	keystroke_s	s	n/a
423.94	0.09	847880	keystroke_s	s	n/a
424.15	0.12	848300	keystroke_Key.space	Key.space	n/a
424.4945	0.105	848989	keystroke_b	b	n/a
424.6595	0.105	849319	keystroke_r	r	n/a
424.7945	0.105	849589	keystroke_a	a	n/a
425.0345	0.12	850069	keystroke_z	z	n/a
425.4095	0.091	850819	keystroke_i	i	n/a
425.6055	0.15	851211	keystroke_l	l	n/a
425.7245	0.105	851449	keystroke_Key.space	Key.space	n/a
426.115	0.09	852230	keystroke_r	r	n/a
426.22	0.149	852440	keystroke_o	o	n/a
426.31	0.12	852620	keystroke_m	m	n/a
426.415	0.1055	852830	keystroke_a	a	n/a
426.5805	0.105	853161	keystroke_t	t	n/a
426.7005	0.135	853401	keystroke_i	i	n/a
426.9995	0.135	853999	keystroke_c	c	n/a
427.3605	0.0595	854721	keystroke_Key.backspace	Key.backspace	n/a
427.5255	0.045	855051	keystroke_Key.backspace	Key.backspace	n/a
427.8705	0.06	855741	keystroke_Key.backspace	Key.backspace	n/a
428.05	0.1205	856100	keystroke_n	n	n/a
428.29	0.075	856580	keystroke_t	t	n/a
428.395	0.09	856790	keystroke_i	i	n/a
428.635	0.15	857270	keystroke_c	c	n/a
429.1	0.12	858200	keystroke_Key.space	Key.space	n/a
429.5045	0.15	859009	keystroke_d	d	n/a
429.6995	0.06	859399	keystroke_i	i	n/a
430.0895	0.015	860179	keystroke_Key.backspace	Key.backspace	n/a
430.1795	0.075	860359	keystroke_Key.backspace	Key.backspace	n/a
430.2845	0.09	860569	keystroke_f	f	n/a
430.4195	0.075	860839	keystroke_i	i	n/a
430.5695	0.105	861139	keystroke_l	l	n/a
430.8095	0.12	861619	keystroke_m	m	n/a
431.6045	0.09	863209	keystroke_Key.enter	Key.enter	n/a
431.7085	7.308	863417	prompt	n/a	straight warm resistant final\n
432.2645	0.12	864529	keystroke_s	s	n/a
432.4595	0.09	864919	keystroke_t	t	n/a
432.6395	0.135	865279	keystroke_r	r	n/a
432.8355	0.12	865671	keystroke_a	a	n/a
433.51	0.09	867020	keystroke_i	i	n/a
433.63	0.09	867260	keystroke_g	g	n/a
433.78	0.12	867560	keystroke_h	h	n/a
434.23	0.09	868460	keystroke_t	t	n/a
434.44	0.075	868880	keystroke_Key.space	Key.space	n/a
434.71	0.135	869420	keystroke_w	w	n/a
434.86	0.12	869720	keystroke_a	a	n/a
435.025	0.12	870050	keystroke_r	r	n/a
435.235	0.15	870470	keystroke_m	m	n/a
435.34	0.105	870680	keystroke_Key.space	Key.space	n/a
435.805	0.135	871610	keystroke_r	r	n/a
435.895	0.12	871790	keystroke_e	e	n/a
436.18	0.075	872360	keystroke_s	s	n/a
436.3	0.075	872600	keystroke_i	i	n/a
436.39	0.09	872780	keystroke_s	s	n/a
437.0945	0.06	874189	keystroke_t	t	n/a
437.2745	0.075	874549	keystroke_a	a	n/a
437.3505	0.0895	874701	keystroke_n	n	n/a
437.47	0.075	874940	keystroke_t	t	n/a
437.605	0.12	875210	keystroke_Key.space	Key.space	n/a
438.085	0.105	876170	keystroke_f	f	n/a
438.2795	0.135	876559	keystroke_i	i	n/a
438.37	0.0895	876740	keystroke_n	n	n/a
438.4605	0.074	876921	keystroke_a	a	n/a
438.5945	0.09	877189	keystroke_l	l	n/a
438.94	0.075	877880	keystroke_Key.enter	Key.enter	n/a
439.0195	13.31	878039	prompt	n/a	entrepreneur dave supplements abstract\n
439.7655	0.09	879531	keystroke_e	e	n/a
439.9305	0.12	879861	keystroke_n	n	n/a
440.38	0.09	880760	keystroke_t	t	n/a
440.89	0.1355	881780	keystroke_r	r	n/a
441.0255	0.12	882051	keystroke_e	e	n/a
441.3695	0.09	882739	keystroke_p	p	n/a
441.7895	0.136	883579	keystroke_r	r	n/a
441.8805	0.12	883761	keystroke_e	e	n/a
442.165	0.105	884330	keystroke_n	n	n/a
442.6745	0.03	885349	keystroke_e	e	n/a
442.8245	0.09	885649	keystroke_u	u	n/a
442.9895	0.0605	885979	keystroke_r	r	n/a
443.545	0.09	887090	keystroke_Key.space	Key.space	n/a
444.3105	0.1195	888621	keystroke_d	d	n/a
444.445	0.09	888890	keystroke_a	a	n/a
444.625	0.135	889250	keystroke_v	v	n/a
444.715	0.105	889430	keystroke_e	e	n/a
445.1345	0.105	890269	keystroke_Key.space	Key.space	n/a
445.3445	0.09	890689	keystroke_s	s	n/a
445.4495	0.075	890899	keystroke_u	u	n/a
445.7045	0.06	891409	keystroke_p	p	n/a
445.87	0.1345	891740	keystroke_p	p	n/a
446.4095	0.0755	892819	keystroke_l	l	n/a
446.5	0.105	893000	keystroke_e	e	n/a
446.815	0.09	893630	keystroke_m	m	n/a
446.89	0.105	893780	keystroke_e	e	n/a
447.04	0.075	894080	keystroke_n	n	n/a
447.1	0.075	894200	keystroke_t	t	n/a
447.49	0.09	894980	keystroke_s	s	n/a
447.625	0.12	895250	keystroke_Key.space	Key.space	n/a
447.94	0.06	895880	keystroke_s	s	n/a
448.255	0.075	896510	keystroke_Key.backspace	Key.backspace	n/a
448.39	0.09	896780	keystroke_a	a	n/a
448.51	0.105	897020	keystroke_b	b	n/a
448.87	0.105	897740	keystroke_s	s	n/a
449.095	0.0605	898190	keystroke_t	t	n/a
449.2605	0.09	898521	keystroke_r	r	n/a
449.4405	0.15	898881	keystroke_a	a	n/a
449.5755	0.105	899151	keystroke_c	c	n/a
449.8455	0.075	899691	keystroke_t	t	n/a
452.2325	0.088	904465	keystroke_Key.enter	Key.enter	n/a
452.334	7.285	904668	prompt	n/a	movie nutritional pins highs\n
453.1005	0.135	906201	keystroke_m	m	n/a
453.505	0.075	907010	keystroke_o	o	n/a
454.0455	0.1045	908091	keystroke_v	v	n/a
454.496	0.075	908992	keystroke_i	i	n/a
454.586	0.105	909172	keystroke_e	e	n/a
454.751	0.105	909502	keystroke_Key.space	Key.space	n/a
455.006	0.135	910012	keystroke_n	n	n/a
455.156	0.075	910312	keystroke_u	u	n/a
455.306	0.09	910612	keystroke_t	t	n/a
455.486	0.09	910972	keystroke_r	r	n/a
455.606	0.075	911212	keystroke_i	i	n/a
455.906	0.0895	911812	keystroke_t	t	n/a
456.0105	0.21	912021	keystroke_i	i	n/a
456.1155	0.15	912231	keystroke_o	o	n/a
456.1905	0.135	912381	keystroke_n	n	n/a
456.3265	0.089	912653	keystroke_a	a	n/a
456.445	0.15	912890	keystroke_l	l	n/a
456.55	0.136	913100	keystroke_Key.space	Key.space	n/a
456.9255	0.12	913851	keystroke_p	p	n/a
457.1355	0.15	914271	keystroke_i	i	n/a
457.2405	0.135	914481	keystroke_n	n	n/a
457.3905	0.09	914781	keystroke_s	s	n/a
457.7355	0.105	915471	keystroke_Key.space	Key.space	n/a
458.35	0.105	916700	keystroke_h	h	n/a
458.47	0.105	916940	keystroke_i	i	n/a
458.56	0.105	917120	keystroke_g	g	n/a
458.6795	0.105	917359	keystroke_h	h	n/a
459.1745	0.045	918349	keystroke_s	s	n/a
459.536	0.075	919072	keystroke_Key.enter	Key.enter	n/a
459.6235	8.891	919247	prompt	n/a	dining portland shell revisions\n
461.1105	0.075	922221	keystroke_d	d	n/a
461.2905	0.12	922581	keystroke_i	i	n/a
461.3955	0.12	922791	keystroke_n	n	n/a
461.6055	0.09	923211	keystroke_i	i	n/a
461.875	0.045	923750	keystroke_g	g	n/a
462.355	0.075	924710	keystroke_Key.backspace	Key.backspace	n/a
462.565	0.09	925130	keystroke_n	n	n/a
462.64	0.09	925280	keystroke_g	g	n/a
462.775	0.105	925550	keystroke_Key.space	Key.space	n/a
463.0905	0.1195	926181	keystroke_p	p	n/a
463.27	0.106	926540	keystroke_o	o	n/a
463.361	0.105	926722	keystroke_r	r	n/a
463.57	0.091	927140	keystroke_t	t	n/a
463.96	0.075	927920	keystroke_l	l	n/a
464.0505	0.09	928101	keystroke_a	a	n/a
464.156	0.09	928312	keystroke_n	n	n/a
464.231	0.105	928462	keystroke_d	d	n/a
464.381	0.075	928762	keystroke_Key.space	Key.space	n/a
464.5455	0.09	929091	keystroke_s	s	n/a
464.6505	0.105	929301	keystroke_h	h	n/a
464.8005	0.0755	929601	keystroke_e	e	n/a
464.905	0.075	929810	keystroke_l	l	n/a
465.0555	0.135	930111	keystroke_l	l	n/a
465.1605	0.105	930321	keystroke_Key.space	Key.space	n/a
466.2705	0.105	932541	keystroke_r	r	n/a
466.3305	0.09	932661	keystroke_e	e	n/a
466.5555	0.09	933111	keystroke_v	v	n/a
466.7205	0.105	933441	keystroke_i	i	n/a
467.05	0.061	934100	keystroke_s	s	n/a
467.185	0.1955	934370	keystroke_i	i	n/a
467.35	0.1355	934700	keystroke_o	o	n/a
467.5905	0.135	935181	keystroke_n	n	n/a
467.9805	0.09	935961	keystroke_s	s	n/a
468.431	0.074	936862	keystroke_Key.enter	Key.enter	n/a
468.5185	8.877	937037	prompt	n/a	hoping ceremony airports trades\n
469.2705	0.1795	938541	keystroke_h	h	n/a
469.405	0.09	938810	keystroke_o	o	n/a
469.5855	0.105	939171	keystroke_p	p	n/a
470.3955	0.12	940791	keystroke_i	i	n/a
470.4855	0.12	940971	keystroke_n	n	n/a
470.5905	0.105	941181	keystroke_f	f	n/a
471.19	0.075	942380	keystroke_Key.backspace	Key.backspace	n/a
471.31	0.106	942620	keystroke_g	g	n/a
471.476	0.105	942952	keystroke_Key.space	Key.space	n/a
472.271	0.1345	944542	keystroke_c	c	n/a
472.3905	0.18	944781	keystroke_e	e	n/a
472.5855	0.105	945171	keystroke_r	r	n/a
472.6755	0.09	945351	keystroke_e	e	n/a
473.021	0.105	946042	keystroke_m	m	n/a
473.261	0.15	946522	keystroke_o	o	n/a
473.3805	0.1205	946761	keystroke_n	n	n/a
473.651	0.1045	947302	keystroke_y	y	n/a
473.8305	0.0895	947661	keystroke_Key.space	Key.space	n/a
474.19	0.1355	948380	keystroke_a	a	n/a
474.295	0.1055	948590	keystroke_i	i	n/a
474.4305	0.09	948861	keystroke_r	r	n/a
474.655	0.12	949310	keystroke_p	p	n/a
474.805	0.105	949610	keystroke_o	o	n/a
474.895	0.1055	949790	keystroke_r	r	n/a
475.09	0.09	950180	keystroke_t	t	n/a
475.36	0.0905	950720	keystroke_s	s	n/a
475.4655	0.12	950931	keystroke_Key.space	Key.space	n/a
475.7655	0.09	951531	keystroke_r	r	n/a
476.0805	0.075	952161	keystroke_Key.backspace	Key.backspace	n/a
476.1705	0.075	952341	keystroke_t	t	n/a
476.3205	0.105	952641	keystroke_r	r	n/a
476.4555	0.15	952911	keystroke_a	a	n/a
476.6505	0.165	953301	keystroke_d	d	n/a
476.8005	0.09	953601	keystroke_e	e	n/a
476.9955	0.09	953991	keystroke_s	s	n/a
477.281	0.1045	954562	keystroke_Key.enter	Key.enter	n/a
477.3995	11.14	954799	prompt	n/a	jenny indiana unlock airport\n
477.9855	0.09	955971	keystroke_h	h	n/a
478.09	0.0605	956180	keystroke_e	e	n/a
478.2705	0.06	956541	keystroke_n	n	n/a
478.6455	0.015	957291	keystroke_Key.backspace	Key.backspace	n/a
478.7505	0.06	957501	keystroke_Key.backspace	Key.backspace	n/a
478.9005	0.045	957801	keystroke_Key.backspace	Key.backspace	n/a
479.381	0.0595	958762	keystroke_j	j	n/a
479.4705	0.09	958941	keystroke_e	e	n/a
479.5755	0.075	959151	keystroke_n	n	n/a
479.7255	0.09	959451	keystroke_n	n	n/a
479.9205	0.12	959841	keystroke_y	y	n/a
479.9955	0.225	959991	keystroke_Key.space	Key.space	n/a
480.1605	0.12	960321	keystroke_i	i	n/a
480.3255	0.135	960651	keystroke_n	n	n/a
481.0155	0.12	962031	keystroke_d	d	n/a
481.1805	0.09	962361	keystroke_i	i	n/a
481.3455	0.0895	962691	keystroke_a	a	n/a
481.451	0.119	962902	keystroke_n	n	n/a
482.29	0.09	964580	keystroke_a	a	n/a
482.47	0.105	964940	keystroke_Key.space	Key.space	n/a
482.68	0.106	965360	keystroke_u	u	n/a
482.8905	0.1345	965781	keystroke_n	n	n/a
483.4905	0.06	966981	keystroke_l	l	n/a
483.6405	0.075	967281	keystroke_o	o	n/a
484.661	0.0895	969322	keystroke_c	c	n/a
484.856	0.1495	969712	keystroke_j	j	n/a
485.1105	0.075	970221	keystroke_Key.space	Key.space	n/a
485.4405	0.06	970881	keystroke_Key.backspace	Key.backspace	n/a
485.56	0.075	971120	keystroke_Key.backspace	Key.backspace	n/a
486.1755	0.15	972351	keystroke_k	k	n/a
486.2505	0.12	972501	keystroke_Key.space	Key.space	n/a
486.4605	0.105	972921	keystroke_a	a	n/a
486.5505	0.09	973101	keystroke_i	i	n/a
486.7155	0.075	973431	keystroke_r	r	n/a
486.8655	0.135	973731	keystroke_p	p	n/a
486.9705	0.12	973941	keystroke_o	o	n/a
487.1355	0.135	974271	keystroke_r	r	n/a
487.3755	0.09	974751	keystroke_t	t	n/a
488.486	0.045	976972	keystroke_Key.enter	Key.enter	n/a
488.5435	6.484	977087	prompt	n/a	managers holiday paint nevada\n
489.086	0.105	978172	keystroke_m	m	n/a
489.161	0.105	978322	keystroke_a	a	n/a
489.296	0.075	978592	keystroke_n	n	n/a
489.401	0.12	978802	keystroke_a	a	n/a
489.686	0.1345	979372	keystroke_g	g	n/a
489.8355	0.15	979671	keystroke_e	e	n/a
489.9405	0.075	979881	keystroke_r	r	n/a
490.2555	0.105	980511	keystroke_s	s	n/a
490.4355	0.09	980871	keystroke_Key.space	Key.space	n/a
490.6455	0.15	981291	keystroke_h	h	n/a
490.8105	0.1205	981621	keystroke_o	o	n/a
490.991	0.105	981982	keystroke_l	l	n/a
491.036	0.15	982072	keystroke_i	i	n/a
491.261	0.1495	982522	keystroke_d	d	n/a
491.3655	0.0905	982731	keystroke_a	a	n/a
491.471	0.1645	982942	keystroke_y	y	n/a
491.606	0.12	983212	keystroke_Key.space	Key.space	n/a
492.0255	0.09	984051	keystroke_p	p	n/a
492.1305	0.105	984261	keystroke_a	a	n/a
492.2805	0.1055	984561	keystroke_i	i	n/a
492.341	0.105	984682	keystroke_n	n	n/a
492.476	0.09	984952	keystroke_t	t	n/a
492.7005	0.075	985401	keystroke_Key.space	Key.space	n/a
492.986	0.09	985972	keystroke_n	n	n/a
493.196	0.09	986392	keystroke_e	e	n/a
493.406	0.09	986812	keystroke_v	v	n/a
493.946	0.1055	987892	keystroke_a	a	n/a
494.0655	0.1505	988131	keystroke_d	d	n/a
494.186	0.09	988372	keystroke_e	e	n/a
494.606	0.09	989212	keystroke_Key.backspace	Key.backspace	n/a
494.711	0.075	989422	keystroke_a	a	n/a
494.9355	0.09	989871	keystroke_Key.enter	Key.enter	n/a
495.0315	12.1685	990063	prompt	n/a	motivation requirements expiration confirmation\n
495.746	0.1205	991492	keystroke_m	m	n/a
495.8955	0.12	991791	keystroke_o	o	n/a
496.0605	0.09	992121	keystroke_t	t	n/a
496.1655	0.105	992331	keystroke_i	i	n/a
496.7355	0.09	993471	keystroke_v	v	n/a
496.871	0.105	993742	keystroke_a	a	n/a
497.1415	0.09	994283	keystroke_t	t	n/a
497.2465	0.209	994493	keystroke_i	i	n/a
497.3215	0.179	994643	keystroke_o	o	n/a
497.3955	0.195	994791	keystroke_n	n	n/a
497.5455	0.12	995091	keystroke_Key.space	Key.space	n/a
497.8755	0.12	995751	keystroke_r	r	n/a
497.9505	0.105	995901	keystroke_e	e	n/a
498.5205	0.075	997041	keystroke_q	q	n/a
498.6555	0.09	997311	keystroke_u	u	n/a
498.7005	0.105	997401	keystroke_i	i	n/a
498.9115	0.12	997823	keystroke_r	r	n/a
498.9865	0.12	997973	keystroke_e	e	n/a
499.1515	0.09	998303	keystroke_m	m	n/a
499.391	0.0905	998782	keystroke_e	e	n/a
499.5115	0.105	999023	keystroke_n	n	n/a
499.6015	0.09	999203	keystroke_t	t	n/a
500.636	0.06	1001272	keystroke_s	s	n/a
500.801	0.105	1001602	keystroke_Key.space	Key.space	n/a
501.116	0.105	1002232	keystroke_e	e	n/a
501.9115	0.09	1003823	keystroke_x	x	n/a
502.0465	0.09	1004093	keystroke_p	p	n/a
502.2715	0.1195	1004543	keystroke_e	e	n/a
502.856	0.045	1005712	keystroke_Key.backspace	Key.backspace	n/a
503.0365	0.075	1006073	keystroke_i	i	n/a
503.1865	0.09	1006373	keystroke_r	r	n/a
503.3515	0.1345	1006703	keystroke_a	a	n/a
503.666	0.09	1007332	keystroke_t	t	n/a
503.846	0.2255	1007692	keystroke_i	i	n/a
503.9365	0.18	1007873	keystroke_o	o	n/a
504.026	0.18	1008052	keystroke_n	n	n/a
504.1915	0.1195	1008383	keystroke_Key.space	Key.space	n/a
504.521	0.105	1009042	keystroke_c	c	n/a
504.641	0.09	1009282	keystroke_o	o	n/a
504.701	0.105	1009402	keystroke_n	n	n/a
505.8865	0.075	1011773	keystroke_f	f	n/a
505.9765	0.075	1011953	keystroke_i	i	n/a
506.0515	0.075	1012103	keystroke_r	r	n/a
506.1865	0.105	1012373	keystroke_m	m	n/a
506.2765	0.09	1012553	keystroke_a	a	n/a
506.471	0.091	1012942	keystroke_t	t	n/a
506.546	0.21	1013092	keystroke_i	i	n/a
506.621	0.136	1013242	keystroke_o	o	n/a
506.711	0.12	1013422	keystroke_n	n	n/a
507.116	0.075	1014232	keystroke_Key.enter	Key.enter	n/a
507.2045	10.061	1014409	prompt	n/a	rosa population improve qualification\n
508.3015	0.075	1016603	keystroke_r	r	n/a
508.4065	0.1045	1016813	keystroke_o	o	n/a
508.571	0.09	1017142	keystroke_s	s	n/a
509.126	0.105	1018252	keystroke_a	a	n/a
509.261	0.09	1018522	keystroke_Key.space	Key.space	n/a
509.501	0.165	1019002	keystroke_p	p	n/a
509.636	0.12	1019272	keystroke_o	o	n/a
509.786	0.12	1019572	keystroke_p	p	n/a
510.311	0.06	1020622	keystroke_u	u	n/a
510.491	0.12	1020982	keystroke_l	l	n/a
510.656	0.105	1021312	keystroke_a	a	n/a
510.776	0.105	1021552	keystroke_t	t	n/a
510.866	0.24	1021732	keystroke_i	i	n/a
510.971	0.15	1021942	keystroke_o	o	n/a
511.031	0.165	1022062	keystroke_n	n	n/a
511.136	0.09	1022272	keystroke_Key.space	Key.space	n/a
511.331	0.12	1022662	keystroke_i	i	n/a
511.436	0.15	1022872	keystroke_m	m	n/a
511.616	0.165	1023232	keystroke_p	p	n/a
511.721	0.045	1023442	keystroke_o	o	n/a
511.886	0.075	1023772	keystroke_r	r	n/a
512.381	0.045	1024762	keystroke_Key.backspace	Key.backspace	n/a
512.501	0.075	1025002	keystroke_Key.backspace	Key.backspace	n/a
512.621	0.075	1025242	keystroke_r	r	n/a
512.726	0.09	1025452	keystroke_o	o	n/a
512.876	0.165	1025752	keystroke_v	v	n/a
512.996	0.105	1025992	keystroke_e	e	n/a
513.131	0.105	1026262	keystroke_Key.space	Key.space	n/a
514.0015	0.074	1028003	keystroke_q	q	n/a
514.2105	0.075	1028421	keystroke_u	u	n/a
514.3305	0.105	1028661	keystroke_a	a	n/a
514.6305	0.165	1029261	keystroke_l	l	n/a
514.7355	0.105	1029471	keystroke_i	i	n/a
515.5155	0.09	1031031	keystroke_f	f	n/a
515.6205	0.09	1031241	keystroke_i	i	n/a
515.7855	0.105	1031571	keystroke_c	c	n/a
515.8915	0.089	1031783	keystroke_a	a	n/a
516.1155	0.06	1032231	keystroke_t	t	n/a
516.1605	0.21	1032321	keystroke_i	i	n/a
516.2505	0.135	1032501	keystroke_o	o	n/a
516.3105	0.12	1032621	keystroke_n	n	n/a
517.1955	0.06	1034391	keystroke_Key.enter	Key.enter	n/a
517.27	7.6745	1034540	prompt	n/a	presidential walks dancing advantage\n
517.916	0.075	1035832	keystroke_p	p	n/a
518.111	0.105	1036222	keystroke_r	r	n/a
518.171	0.105	1036342	keystroke_e	e	n/a
518.381	0.105	1036762	keystroke_s	s	n/a
518.501	0.075	1037002	keystroke_i	i	n/a
518.651	0.135	1037302	keystroke_d	d	n/a
518.726	0.105	1037452	keystroke_e	e	n/a
518.846	0.105	1037692	keystroke_n	n	n/a
518.996	0.075	1037992	keystroke_t	t	n/a
519.356	0.09	1038712	keystroke_i	i	n/a
519.506	0.105	1039012	keystroke_a	a	n/a
519.656	0.165	1039312	keystroke_l	l	n/a
519.776	0.12	1039552	keystroke_Key.space	Key.space	n/a
520.0905	0.105	1040181	keystroke_w	w	n/a
520.1805	0.09	1040361	keystroke_a	a	n/a
520.2555	0.135	1040511	keystroke_l	l	n/a
520.3305	0.12	1040661	keystroke_k	k	n/a
520.5105	0.105	1041021	keystroke_s	s	n/a
520.7055	0.09	1041411	keystroke_Key.space	Key.space	n/a
521.0205	0.12	1042041	keystroke_d	d	n/a
521.1855	0.12	1042371	keystroke_a	a	n/a
521.3205	0.1505	1042641	keystroke_n	n	n/a
521.486	0.09	1042972	keystroke_c	c	n/a
521.636	0.135	1043272	keystroke_i	i	n/a
521.726	0.105	1043452	keystroke_n	n	n/a
521.846	0.09	1043692	keystroke_g	g	n/a
521.996	0.105	1043992	keystroke_Key.space	Key.space	n/a
522.206	0.12	1044412	keystroke_a	a	n/a
522.356	0.09	1044712	keystroke_d	d	n/a
523.091	0.015	1046182	keystroke_v	v	n/a
523.181	0.135	1046362	keystroke_a	a	n/a
523.331	0.09	1046662	keystroke_n	n	n/a
524.291	0.06	1048582	keystroke_t	t	n/a
524.471	0.075	1048942	keystroke_a	a	n/a
524.606	0.1045	1049212	keystroke_g	g	n/a
524.6655	0.106	1049331	keystroke_e	e	n/a
524.8465	0.089	1049693	keystroke_Key.enter	Key.enter	n/a
524.949	6.9495	1049898	prompt	n/a	examining honest piano balloon\n
526.0005	0.075	1052001	keystroke_e	e	n/a
526.3455	0.075	1052691	keystroke_x	x	n/a
526.5405	0.09	1053081	keystroke_a	a	n/a
526.7355	0.09	1053471	keystroke_m	m	n/a
526.9615	0.105	1053923	keystroke_i	i	n/a
527.0365	0.135	1054073	keystroke_n	n	n/a
527.1865	0.12	1054373	keystroke_i	i	n/a
527.2765	0.1045	1054553	keystroke_n	n	n/a
527.396	0.105	1054792	keystroke_g	g	n/a
527.516	0.105	1055032	keystroke_Key.space	Key.space	n/a
527.726	0.105	1055452	keystroke_h	h	n/a
527.816	0.195	1055632	keystroke_o	o	n/a
527.966	0.12	1055932	keystroke_n	n	n/a
528.101	0.09	1056202	keystroke_e	e	n/a
528.386	0.105	1056772	keystroke_s	s	n/a
528.641	0.075	1057282	keystroke_t	t	n/a
528.746	0.09	1057492	keystroke_Key.space	Key.space	n/a
529.0615	0.15	1058123	keystroke_p	p	n/a
529.3765	0.075	1058753	keystroke_i	i	n/a
529.541	0.075	1059082	keystroke_a	a	n/a
529.646	0.105	1059292	keystroke_n	n	n/a
529.856	0.15	1059712	keystroke_o	o	n/a
529.991	0.105	1059982	keystroke_Key.space	Key.space	n/a
530.351	0.075	1060702	keystroke_b	b	n/a
530.531	0.06	1061062	keystroke_a	a	n/a
530.621	0.06	1061242	keystroke_l	l	n/a
530.771	0.06	1061542	keystroke_l	l	n/a
530.981	0.06	1061962	keystroke_o	o	n/a
531.131	0.1355	1062262	keystroke_o	o	n/a
531.2365	0.1045	1062473	keystroke_n	n	n/a
531.821	0.075	1063642	keystroke_Key.enter	Key.enter	n/a
531.901	8.735	1063802	prompt	n/a	download templates profits pour\n
532.841	0.075	1065682	keystroke_d	d	n/a
532.931	0.0755	1065862	keystroke_o	o	n/a
533.0215	0.105	1066043	keystroke_w	w	n/a
533.1555	0.09	1066311	keystroke_n	n	n/a
533.3505	0.061	1066701	keystroke_l	l	n/a
533.5155	0.09	1067031	keystroke_o	o	n/a
533.8015	0.105	1067603	keystroke_a	a	n/a
533.8915	0.105	1067783	keystroke_d	d	n/a
534.1015	0.105	1068203	keystroke_Key.space	Key.space	n/a
534.4765	0.09	1068953	keystroke_t	t	n/a
534.5515	0.12	1069103	keystroke_e	e	n/a
534.6865	0.09	1069373	keystroke_m	m	n/a
534.9115	0.1495	1069823	keystroke_p	p	n/a
535.046	0.06	1070092	keystroke_l	l	n/a
535.511	0.09	1071022	keystroke_a	a	n/a
535.796	0.105	1071592	keystroke_t	t	n/a
535.961	0.09	1071922	keystroke_e	e	n/a
536.2165	0.09	1072433	keystroke_s	s	n/a
536.3365	0.09	1072673	keystroke_Key.space	Key.space	n/a
536.4865	0.0895	1072973	keystroke_p	p	n/a
536.636	0.09	1073272	keystroke_r	r	n/a
536.741	0.09	1073482	keystroke_o	o	n/a
537.416	0.075	1074832	keystroke_f	f	n/a
537.581	0.075	1075162	keystroke_i	i	n/a
537.671	0.09	1075342	keystroke_t	t	n/a
538.2265	0.06	1076453	keystroke_s	s	n/a
538.3765	0.09	1076753	keystroke_Key.space	Key.space	n/a
538.6165	0.15	1077233	keystroke_p	p	n/a
538.8565	0.105	1077713	keystroke_o	o	n/a
539.6965	0.075	1079393	keystroke_u	u	n/a
539.8765	0.075	1079753	keystroke_r	r	n/a
540.551	0.075	1081102	keystroke_Key.enter	Key.enter	n/a
540.6405	7.4945	1081281	prompt	n/a	gourmet speed bargains units\n
541.601	0.075	1083202	keystroke_g	g	n/a
541.751	0.1355	1083502	keystroke_o	o	n/a
541.827	0.1195	1083654	keystroke_u	u	n/a
541.9765	0.105	1083953	keystroke_r	r	n/a
542.3665	0.105	1084733	keystroke_m	m	n/a
542.5315	0.105	1085063	keystroke_e	e	n/a
542.7265	0.06	1085453	keystroke_t	t	n/a
543.2065	0.075	1086413	keystroke_Key.space	Key.space	n/a
543.4465	0.15	1086893	keystroke_s	s	n/a
543.5365	0.075	1087073	keystroke_p	p	n/a
543.6715	0.06	1087343	keystroke_e	e	n/a
543.8215	0.075	1087643	keystroke_e	e	n/a
543.9865	0.09	1087973	keystroke_d	d	n/a
544.1515	0.09	1088303	keystroke_Key.space	Key.space	n/a
544.631	0.105	1089262	keystroke_b	b	n/a
544.721	0.105	1089442	keystroke_a	a	n/a
544.886	0.105	1089772	keystroke_r	r	n/a
545.231	0.06	1090462	keystroke_g	g	n/a
545.501	0.09	1091002	keystroke_a	a	n/a
545.606	0.135	1091212	keystroke_i	i	n/a
545.681	0.12	1091362	keystroke_n	n	n/a
545.846	0.105	1091692	keystroke_s	s	n/a
546.266	0.105	1092532	keystroke_Key.space	Key.space	n/a
546.491	0.12	1092982	keystroke_u	u	n/a
546.596	0.15	1093192	keystroke_n	n	n/a
546.731	0.1045	1093462	keystroke_i	i	n/a
546.8505	0.075	1093701	keystroke_t	t	n/a
547.0615	0.09	1094123	keystroke_s	s	n/a
548.111	0.015	1096222	keystroke_Key.enter	Key.enter	n/a
548.1395	7.3085	1096279	prompt	n/a	mine partners karma swimming\n
548.681	0.105	1097362	keystroke_m	m	n/a
548.921	0.135	1097842	keystroke_i	i	n/a
548.981	0.105	1097962	keystroke_n	n	n/a
549.116	0.09	1098232	keystroke_e	e	n/a
549.236	0.105	1098472	keystroke_Key.space	Key.space	n/a
549.446	0.105	1098892	keystroke_p	p	n/a
549.566	0.165	1099132	keystroke_a	a	n/a
549.7165	0.0895	1099433	keystroke_r	r	n/a
549.911	0.075	1099822	keystroke_t	t	n/a
550.0465	0.105	1100093	keystroke_n	n	n/a
550.1665	0.135	1100333	keystroke_e	e	n/a
550.2865	0.1055	1100573	keystroke_r	r	n/a
550.527	0.12	1101054	keystroke_s	s	n/a
550.677	0.09	1101354	keystroke_Key.space	Key.space	n/a
550.827	0.105	1101654	keystroke_k	k	n/a
550.947	0.18	1101894	keystroke_a	a	n/a
551.112	0.075	1102224	keystroke_r	r	n/a
551.247	0.105	1102494	keystroke_m	m	n/a
551.367	0.104	1102734	keystroke_a	a	n/a
551.561	0.06	1103122	keystroke_Key.space	Key.space	n/a
551.952	0.06	1103904	keystroke_w	w	n/a
552.521	0.06	1105042	keystroke_Key.backspace	Key.backspace	n/a
552.597	0.119	1105194	keystroke_s	s	n/a
552.896	0.136	1105792	keystroke_w	w	n/a
553.422	0.015	1106844	keystroke_i	i	n/a
553.542	0.06	1107084	keystroke_m	m	n/a
553.722	0.045	1107444	keystroke_m	m	n/a
553.872	0.09	1107744	keystroke_i	i	n/a
553.917	0.09	1107834	keystroke_n	n	n/a
554.052	0.075	1108104	keystroke_g	g	n/a
555.3565	0.09	1110713	keystroke_Key.enter	Key.enter	n/a
555.451	16.115	1110902	prompt	n/a	bent geographic hoping establishing\n
556.1815	0.12	1112363	keystroke_b	b	n/a
556.3465	0.09	1112693	keystroke_e	e	n/a
556.4215	0.12	1112843	keystroke_n	n	n/a
556.5265	0.105	1113053	keystroke_Key.space	Key.space	n/a
557.276	0.075	1114552	keystroke_Key.backspace	Key.backspace	n/a
557.471	0.075	1114942	keystroke_t	t	n/a
557.576	0.105	1115152	keystroke_Key.space	Key.space	n/a
558.8815	0.06	1117763	keystroke_g	g	n/a
559.0165	0.12	1118033	keystroke_e	e	n/a
559.5715	0.105	1119143	keystroke_o	o	n/a
559.797	0.075	1119594	keystroke_g	g	n/a
559.977	0.105	1119954	keystroke_r	r	n/a
560.112	0.105	1120224	keystroke_a	a	n/a
560.2765	0.105	1120553	keystroke_p	p	n/a
560.5015	0.165	1121003	keystroke_h	h	n/a
560.6515	0.12	1121303	keystroke_i	i	n/a
560.8165	0.1355	1121633	keystroke_c	c	n/a
560.997	0.0745	1121994	keystroke_Key.space	Key.space	n/a
561.4315	0.12	1122863	keystroke_h	h	n/a
561.9265	0.03	1123853	keystroke_o	o	n/a
562.4215	0.0905	1124843	keystroke_p	p	n/a
563.187	0.135	1126374	keystroke_i	i	n/a
563.292	0.09	1126584	keystroke_n	n	n/a
563.337	0.105	1126674	keystroke_g	g	n/a
563.457	0.12	1126914	keystroke_Key.space	Key.space	n/a
563.967	0.075	1127934	keystroke_e	e	n/a
564.162	0.09	1128324	keystroke_s	s	n/a
564.402	0.09	1128804	keystroke_t	t	n/a
564.642	0.075	1129284	keystroke_a	a	n/a
565.587	0.09	1131174	keystroke_b	b	n/a
568.2585	0.001	1136517	keystroke_Key.backspace	Key.backspace	n/a
570.192	0.075	1140384	keystroke_b	b	n/a
570.402	0.165	1140804	keystroke_l	l	n/a
570.522	0.105	1141044	keystroke_i	i	n/a
570.642	0.075	1141284	keystroke_s	s	n/a
570.732	0.12	1141464	keystroke_h	h	n/a
570.852	0.15	1141704	keystroke_i	i	n/a
570.942	0.12	1141884	keystroke_n	n	n/a
570.9865	0.0755	1141973	keystroke_g	g	n/a
571.467	0.09	1142934	keystroke_Key.enter	Key.enter	n/a
571.57	6.7235	1143140	prompt	n/a	brass proven combinations classroom\n
572.337	0.09	1144674	keystroke_b	b	n/a
572.532	0.12	1145064	keystroke_r	r	n/a
572.697	0.12	1145394	keystroke_a	a	n/a
572.862	0.075	1145724	keystroke_s	s	n/a
573.027	0.09	1146054	keystroke_s	s	n/a
573.162	0.105	1146324	keystroke_Key.space	Key.space	n/a
573.327	0.105	1146654	keystroke_p	p	n/a
573.462	0.09	1146924	keystroke_r	r	n/a
573.567	0.105	1147134	keystroke_o	o	n/a
573.717	0.15	1147434	keystroke_v	v	n/a
573.837	0.135	1147674	keystroke_e	e	n/a
574.002	0.165	1148004	keystroke_n	n	n/a
574.137	0.105	1148274	keystroke_Key.space	Key.space	n/a
574.422	0.105	1148844	keystroke_c	c	n/a
574.512	0.1655	1149024	keystroke_o	o	n/a
574.6015	0.12	1149203	keystroke_m	m	n/a
574.8565	0.075	1149713	keystroke_b	b	n/a
575.0215	0.15	1150043	keystroke_i	i	n/a
575.1115	0.12	1150223	keystroke_n	n	n/a
575.2765	0.06	1150553	keystroke_a	a	n/a
575.5765	0.09	1151153	keystroke_t	t	n/a
575.7565	0.12	1151513	keystroke_i	i	n/a
575.8915	0.105	1151783	keystroke_o	o	n/a
575.9815	0.105	1151963	keystroke_n	n	n/a
576.1315	0.09	1152263	keystroke_s	s	n/a
576.4765	0.105	1152953	keystroke_Key.space	Key.space	n/a
576.7165	0.09	1153433	keystroke_c	c	n/a
576.7915	0.09	1153583	keystroke_l	l	n/a
576.912	0.135	1153824	keystroke_a	a	n/a
576.987	0.09	1153974	keystroke_s	s	n/a
577.152	0.105	1154304	keystroke_s	s	n/a
577.467	0.09	1154934	keystroke_r	r	n/a
577.617	0.09	1155234	keystroke_o	o	n/a
577.782	0.15	1155564	keystroke_o	o	n/a
577.902	0.15	1155804	keystroke_m	m	n/a
578.202	0.09	1156404	keystroke_Key.enter	Key.enter	n/a
578.296	7.4225	1156592	prompt	n/a	courage shall substantially steam\n
579.237	0.105	1158474	keystroke_c	c	n/a
579.312	0.12	1158624	keystroke_o	o	n/a
579.402	0.12	1158804	keystroke_u	u	n/a
579.537	0.12	1159074	keystroke_r	r	n/a
579.672	0.105	1159344	keystroke_a	a	n/a
579.897	0.15	1159794	keystroke_g	g	n/a
579.987	0.105	1159974	keystroke_e	e	n/a
580.122	0.105	1160244	keystroke_Key.space	Key.space	n/a
580.302	0.105	1160604	keystroke_h	h	n/a
580.422	0.105	1160844	keystroke_a	a	n/a
581.097	0.045	1162194	keystroke_Key.backspace	Key.backspace	n/a
581.232	0.06	1162464	keystroke_Key.backspace	Key.backspace	n/a
581.337	0.0905	1162674	keystroke_s	s	n/a
581.5175	0.09	1163035	keystroke_h	h	n/a
581.6525	0.06	1163305	keystroke_a	a	n/a
581.7425	0.09	1163485	keystroke_l	l	n/a
581.9075	0.09	1163815	keystroke_l	l	n/a
582.1025	0.105	1164205	keystroke_Key.space	Key.space	n/a
582.4025	0.105	1164805	keystroke_s	s	n/a
582.5525	0.105	1165105	keystroke_u	u	n/a
582.7175	0.1045	1165435	keystroke_b	b	n/a
582.912	0.105	1165824	keystroke_s	s	n/a
583.152	0.06	1166304	keystroke_t	t	n/a
583.317	0.09	1166634	keystroke_a	a	n/a
583.422	0.09	1166844	keystroke_n	n	n/a
583.602	0.075	1167204	keystroke_t	t	n/a
583.722	0.09	1167444	keystroke_i	i	n/a
583.842	0.105	1167684	keystroke_a	a	n/a
583.962	0.075	1167924	keystroke_l	l	n/a
584.112	0.09	1168224	keystroke_l	l	n/a
584.307	0.15	1168614	keystroke_y	y	n/a
584.442	0.105	1168884	keystroke_Key.space	Key.space	n/a
584.622	0.105	1169244	keystroke_s	s	n/a
584.937	0.09	1169874	keystroke_t	t	n/a
585.072	0.15	1170144	keystroke_e	e	n/a
585.207	0.12	1170414	keystroke_a	a	n/a
585.342	0.09	1170684	keystroke_m	m	n/a
585.6275	0.09	1171255	keystroke_Key.enter	Key.enter	n/a
585.723	7.3235	1171446	prompt	n/a	transaction invite scenes rough\n
586.3325	0.09	1172665	keystroke_t	t	n/a
586.5125	0.09	1173025	keystroke_r	r	n/a
586.7825	0.1045	1173565	keystroke_a	a	n/a
586.962	0.09	1173924	keystroke_n	n	n/a
587.067	0.09	1174134	keystroke_s	s	n/a
587.6065	0.12	1175213	keystroke_a	a	n/a
587.7415	0.105	1175483	keystroke_c	c	n/a
587.9815	0.075	1175963	keystroke_t	t	n/a
588.0715	0.195	1176143	keystroke_i	i	n/a
588.1465	0.165	1176293	keystroke_o	o	n/a
588.2065	0.15	1176413	keystroke_n	n	n/a
588.3265	0.12	1176653	keystroke_Key.space	Key.space	n/a
588.7165	0.135	1177433	keystroke_i	i	n/a
588.7915	0.105	1177583	keystroke_n	n	n/a
589.0775	0.09	1178155	keystroke_v	v	n/a
589.2125	0.075	1178425	keystroke_i	i	n/a
589.3775	0.105	1178755	keystroke_t	t	n/a
589.5725	0.12	1179145	keystroke_e	e	n/a
589.7215	0.12	1179443	keystroke_Key.space	Key.space	n/a
590.1715	0.076	1180343	keystroke_s	s	n/a
590.4275	0.135	1180855	keystroke_c	c	n/a
590.5315	0.091	1181063	keystroke_e	e	n/a
590.6525	0.045	1181305	keystroke_n	n	n/a
590.7575	0.075	1181515	keystroke_e	e	n/a
591.072	0.0905	1182144	keystroke_s	s	n/a
591.4025	0.12	1182805	keystroke_Key.space	Key.space	n/a
592.0475	0.09	1184095	keystroke_r	r	n/a
592.1675	0.12	1184335	keystroke_o	o	n/a
592.2425	0.1045	1184485	keystroke_u	u	n/a
592.332	0.09	1184664	keystroke_g	g	n/a
592.467	0.105	1184934	keystroke_h	h	n/a
592.9625	0.075	1185925	keystroke_Key.enter	Key.enter	n/a
593.0525	8.551	1186105	prompt	n/a	jonathan place spies victims\n
594.087	0.1205	1188174	keystroke_j	j	n/a
594.177	0.18	1188354	keystroke_o	o	n/a
594.312	0.12	1188624	keystroke_n	n	n/a
594.777	0.135	1189554	keystroke_a	a	n/a
595.602	0.12	1191204	keystroke_t	t	n/a
595.782	0.075	1191564	keystroke_h	h	n/a
595.857	0.105	1191714	keystroke_a	a	n/a
595.977	0.1205	1191954	keystroke_n	n	n/a
596.0675	0.12	1192135	keystroke_Key.space	Key.space	n/a
596.2475	0.18	1192495	keystroke_p	p	n/a
596.3375	0.12	1192675	keystroke_l	l	n/a
596.5025	0.09	1193005	keystroke_a	a	n/a
596.5625	0.195	1193125	keystroke_c	c	n/a
596.6975	0.09	1193395	keystroke_e	e	n/a
596.9375	0.105	1193875	keystroke_Key.space	Key.space	n/a
597.4465	0.105	1194893	keystroke_s	s	n/a
597.6715	0.076	1195343	keystroke_p	p	n/a
597.8075	0.104	1195615	keystroke_i	i	n/a
598.272	0.015	1196544	keystroke_e	e	n/a
598.977	0.09	1197954	keystroke_s	s	n/a
599.127	0.12	1198254	keystroke_Key.space	Key.space	n/a
599.637	0.09	1199274	keystroke_v	v	n/a
599.892	0.075	1199784	keystroke_i	i	n/a
600.012	0.105	1200024	keystroke_c	c	n/a
600.3865	0.09	1200773	keystroke_t	t	n/a
600.5365	0.09	1201073	keystroke_i	i	n/a
600.7015	0.12	1201403	keystroke_m	m	n/a
600.8665	0.12	1201733	keystroke_s	s	n/a
601.542	0.06	1203084	keystroke_Key.enter	Key.enter	n/a
601.6065	12.305	1203213	prompt	n/a	observe inches berkeley reducing\n
602.1865	0.06	1204373	keystroke_o	o	n/a
602.367	0.1045	1204734	keystroke_b	b	n/a
602.6365	0.09	1205273	keystroke_s	s	n/a
602.8165	0.135	1205633	keystroke_e	e	n/a
602.8915	0.12	1205783	keystroke_r	r	n/a
603.207	0.075	1206414	keystroke_v	v	n/a
603.942	0.09	1207884	keystroke_e	e	n/a
604.062	0.09	1208124	keystroke_Key.space	Key.space	n/a
604.332	0.165	1208664	keystroke_i	i	n/a
604.437	0.12	1208874	keystroke_n	n	n/a
604.527	0.1355	1209054	keystroke_c	c	n/a
604.6925	0.075	1209385	keystroke_h	h	n/a
604.9475	0.105	1209895	keystroke_e	e	n/a
605.1425	0.12	1210285	keystroke_s	s	n/a
605.2775	0.105	1210555	keystroke_Key.space	Key.space	n/a
605.7275	0.09	1211455	keystroke_b	b	n/a
605.8625	0.12	1211725	keystroke_e	e	n/a
606.177	0.135	1212354	keystroke_r	r	n/a
606.357	0.105	1212714	keystroke_k	k	n/a
606.492	0.09	1212984	keystroke_e	e	n/a
606.972	0.075	1213944	keystroke_l	l	n/a
607.557	0.09	1215114	keystroke_e	e	n/a
608.337	0.105	1216674	keystroke_y	y	n/a
608.4875	0.105	1216975	keystroke_Key.space	Key.space	n/a
612.1645	0.058	1224329	keystroke_r	r	n/a
612.1775	0.12	1224355	keystroke_e	e	n/a
612.4775	0.09	1224955	keystroke_d	d	n/a
612.6425	0.075	1225285	keystroke_u	u	n/a
612.822	0.12	1225644	keystroke_c	c	n/a
612.957	0.12	1225914	keystroke_i	i	n/a
613.048	0.104	1226096	keystroke_n	n	n/a
613.257	0.09	1226514	keystroke_g	g	n/a
613.827	0.075	1227654	keystroke_Key.enter	Key.enter	n/a
613.9165	10.5405	1227833	prompt	n/a	mason shield charts interpretation\n
615.597	0.09	1231194	keystroke_m	m	n/a
615.717	0.1655	1231434	keystroke_a	a	n/a
615.807	0.1055	1231614	keystroke_s	s	n/a
616.0175	0.165	1232035	keystroke_o	o	n/a
616.108	0.1645	1232216	keystroke_n	n	n/a
616.2425	0.135	1232485	keystroke_Key.space	Key.space	n/a
616.4675	0.075	1232935	keystroke_s	s	n/a
616.5575	0.09	1233115	keystroke_h	h	n/a
616.783	0.03	1233566	keystroke_e	e	n/a
616.828	0.0745	1233656	keystroke_i	i	n/a
618.2075	0.06	1236415	keystroke_Key.backspace	Key.backspace	n/a
618.3425	0.075	1236685	keystroke_Key.backspace	Key.backspace	n/a
619.077	0.0605	1238154	keystroke_i	i	n/a
619.1675	0.075	1238335	keystroke_e	e	n/a
619.2875	0.09	1238575	keystroke_l	l	n/a
619.3925	0.1355	1238785	keystroke_d	d	n/a
619.498	0.1195	1238996	keystroke_s	s	n/a
619.8725	0.135	1239745	keystroke_Key.space	Key.space	n/a
620.2925	0.075	1240585	keystroke_c	c	n/a
620.5475	0.105	1241095	keystroke_h	h	n/a
620.6375	0.135	1241275	keystroke_a	a	n/a
620.8025	0.09	1241605	keystroke_r	r	n/a
621.0125	0.075	1242025	keystroke_t	t	n/a
621.2075	0.1205	1242415	keystroke_s	s	n/a
621.3575	0.1055	1242715	keystroke_Key.space	Key.space	n/a
621.6125	0.1655	1243225	keystroke_i	i	n/a
621.718	0.09	1243436	keystroke_n	n	n/a
621.793	0.12	1243586	keystroke_t	t	n/a
621.943	0.12	1243886	keystroke_e	e	n/a
622.018	0.105	1244036	keystroke_r	r	n/a
622.258	0.09	1244516	keystroke_p	p	n/a
622.513	0.15	1245026	keystroke_r	r	n/a
622.603	0.135	1245206	keystroke_e	e	n/a
623.2325	0.075	1246465	keystroke_t	t	n/a
623.3675	0.135	1246735	keystroke_a	a	n/a
623.5925	0.09	1247185	keystroke_t	t	n/a
623.6675	0.21	1247335	keystroke_i	i	n/a
623.7575	0.135	1247515	keystroke_o	o	n/a
623.8325	0.12	1247665	keystroke_n	n	n/a
624.3575	0.09	1248715	keystroke_Key.enter	Key.enter	n/a
624.461	13.556	1248922	prompt	n/a	sisters ecuador expansion francis\n
625.0925	0.09	1250185	keystroke_s	s	n/a
625.2275	0.075	1250455	keystroke_i	i	n/a
625.2875	0.12	1250575	keystroke_s	s	n/a
625.5275	0.105	1251055	keystroke_t	t	n/a
625.6475	0.15	1251295	keystroke_e	e	n/a
625.7675	0.135	1251535	keystroke_r	r	n/a
626.0525	0.12	1252105	keystroke_s	s	n/a
626.2775	0.105	1252555	keystroke_Key.space	Key.space	n/a
626.7125	0.09	1253425	keystroke_e	e	n/a
627.1775	0.075	1254355	keystroke_x	x	n/a
627.6425	0.075	1255285	keystroke_Key.backspace	Key.backspace	n/a
627.8075	0.075	1255615	keystroke_c	c	n/a
627.9275	0.075	1255855	keystroke_u	u	n/a
628.0175	0.105	1256035	keystroke_a	a	n/a
628.7075	0.075	1257415	keystroke_f	f	n/a
628.7975	0.105	1257595	keystroke_o	o	n/a
629.2475	0.045	1258495	keystroke_Key.backspace	Key.backspace	n/a
629.3525	0.0605	1258705	keystroke_Key.backspace	Key.backspace	n/a
629.398	0.075	1258796	keystroke_d	d	n/a
629.578	0.09	1259156	keystroke_o	o	n/a
630.208	0.105	1260416	keystroke_Key.space	Key.space	n/a
630.493	0.06	1260986	keystroke_e	e	n/a
631.5125	0.045	1263025	keystroke_Key.backspace	Key.backspace	n/a
631.6325	0.075	1263265	keystroke_Key.backspace	Key.backspace	n/a
632.3675	0.06	1264735	keystroke_r	r	n/a
632.8775	0.09	1265755	keystroke_Key.space	Key.space	n/a
633.1175	0.0605	1266235	keystroke_s	s	n/a
633.7025	0.06	1267405	keystroke_Key.backspace	Key.backspace	n/a
633.7475	0.076	1267495	keystroke_e	e	n/a
633.9725	0.09	1267945	keystroke_x	x	n/a
634.963	0.06	1269926	keystroke_p	p	n/a
635.113	0.09	1270226	keystroke_a	a	n/a
635.218	0.105	1270436	keystroke_n	n	n/a
635.353	0.105	1270706	keystroke_s	s	n/a
635.488	0.195	1270976	keystroke_i	i	n/a
635.578	0.165	1271156	keystroke_o	o	n/a
635.623	0.18	1271246	keystroke_n	n	n/a
635.773	0.12	1271546	keystroke_Key.space	Key.space	n/a
636.118	0.09	1272236	keystroke_f	f	n/a
636.313	0.105	1272626	keystroke_r	r	n/a
636.448	0.12	1272896	keystroke_a	a	n/a
636.583	0.12	1273166	keystroke_n	n	n/a
637.033	0.09	1274066	keystroke_c	c	n/a
637.138	0.074	1274276	keystroke_i	i	n/a
637.228	0.089	1274456	keystroke_s	s	n/a
637.9325	0.075	1275865	keystroke_Key.enter	Key.enter	n/a
638.0215	8.05	1276043	prompt	n/a	provides college scanners manchester\n
638.683	0.045	1277366	keystroke_p	p	n/a
638.848	0.0895	1277696	keystroke_r	r	n/a
638.9825	0.09	1277965	keystroke_o	o	n/a
639.193	0.135	1278386	keystroke_v	v	n/a
639.3725	0.0755	1278745	keystroke_e	e	n/a
640.1225	0.075	1280245	keystroke_Key.backspace	Key.backspace	n/a
640.3775	0.09	1280755	keystroke_i	i	n/a
640.5725	0.15	1281145	keystroke_d	d	n/a
640.6475	0.105	1281295	keystroke_e	e	n/a
640.8725	0.075	1281745	keystroke_s	s	n/a
640.9775	0.105	1281955	keystroke_Key.space	Key.space	n/a
641.2925	0.12	1282585	keystroke_c	c	n/a
641.3825	0.09	1282765	keystroke_o	o	n/a
641.5625	0.06	1283125	keystroke_l	l	n/a
641.6825	0.09	1283365	keystroke_l	l	n/a
641.7875	0.09	1283575	keystroke_e	e	n/a
642.2825	0.135	1284565	keystroke_g	g	n/a
642.3725	0.12	1284745	keystroke_e	e	n/a
642.5375	0.105	1285075	keystroke_Key.space	Key.space	n/a
642.7475	0.105	1285495	keystroke_s	s	n/a
643.0025	0.15	1286005	keystroke_c	c	n/a
643.1825	0.135	1286365	keystroke_a	a	n/a
643.4975	0.075	1286995	keystroke_n	n	n/a
643.6625	0.09	1287325	keystroke_n	n	n/a
643.7375	0.135	1287475	keystroke_e	e	n/a
643.8275	0.105	1287655	keystroke_r	r	n/a
644.0525	0.105	1288105	keystroke_s	s	n/a
644.2175	0.075	1288435	keystroke_Key.space	Key.space	n/a
644.3675	0.1205	1288735	keystroke_m	m	n/a
644.4725	0.0755	1288945	keystroke_a	a	n/a
644.593	0.1045	1289186	keystroke_n	n	n/a
644.6825	0.12	1289365	keystroke_c	c	n/a
644.8325	0.12	1289665	keystroke_h	h	n/a
644.9975	0.045	1289995	keystroke_e	e	n/a
645.1475	0.09	1290295	keystroke_s	s	n/a
645.328	0.105	1290656	keystroke_t	t	n/a
645.478	0.105	1290956	keystroke_e	e	n/a
645.553	0.09	1291106	keystroke_r	r	n/a
646.003	0.06	1292006	keystroke_Key.enter	Key.enter	n/a
646.076	21.9715	1292152	prompt	n/a	button learn defence casinos\n
646.678	0.075	1293356	keystroke_b	b	n/a
646.873	0.075	1293746	keystroke_u	u	n/a
647.038	0.06	1294076	keystroke_t	t	n/a
