onset	duration	sample	value	key	prompt_text
12.283	0.1115	24566	keystroke_a	a	n/a
12.3625	0.12	24725	keystroke_d	d	n/a
12.4505	0.136	24901	keystroke_a	a	n/a
12.5065	0.112	25013	keystroke_m	m	n/a
12.6585	0.112	25317	keystroke_b	b	n/a
16.0985	0.144	32197	keystroke_Key.cmd_r	Key.cmd_r	n/a
16.1625	0.128	32325	keystroke_1	1	n/a
20.0265	0.184	40053	keystroke_Key.cmd_r	Key.cmd_r	n/a
20.1225	0.112	40245	keystroke_c	c	n/a
20.2825	0.106	40565	keystroke_Key.cmd_r	Key.cmd_r	n/a
20.3225	0.096	40645	keystroke_2	2	n/a
21.4265	0.12	42853	keystroke_Key.cmd_r	Key.cmd_r	n/a
21.4905	0.096	42981	keystroke_v	v	n/a
35.418	0.075	70836	keystroke_d	d	n/a
35.448	0.09	70896	keystroke_f	f	n/a
35.598	0.0745	71196	keystroke_f	f	n/a
37.473	0.045	74946	keystroke_+	+	n/a
37.548	13.832	75096	prompt	n/a	the quick brown fox jumps over a lazy dog\n
44.7635	0.06	89527	keystroke_t	t	n/a
44.8235	0.0895	89647	keystroke_h	h	n/a
44.8985	0.0895	89797	keystroke_e	e	n/a
45.003	0.0905	90006	keystroke_Key.space	Key.space	n/a
45.108	0.1055	90216	keystroke_q	q	n/a
45.243	0.105	90486	keystroke_u	u	n/a
45.3185	0.0745	90637	keystroke_i	i	n/a
45.4085	0.1195	90817	keystroke_c	c	n/a
45.513	0.12	91026	keystroke_k	k	n/a
45.603	0.1205	91206	keystroke_Key.space	Key.space	n/a
45.753	0.06	91506	keystroke_b	b	n/a
45.9335	0.06	91867	keystroke_r	r	n/a
46.0085	0.1045	92017	keystroke_o	o	n/a
46.128	0.06	92256	keystroke_w	w	n/a
46.218	0.0905	92436	keystroke_n	n	n/a
46.293	0.12	92586	keystroke_Key.space	Key.space	n/a
46.4885	0.0295	92977	keystroke_j	j	n/a
46.593	0.0755	93186	keystroke_u	u	n/a
47.2385	0.06	94477	keystroke_Key.backspace	Key.backspace	n/a
47.358	0.0605	94716	keystroke_Key.backspace	Key.backspace	n/a
47.7035	0.06	95407	keystroke_f	f	n/a
47.778	0.105	95556	keystroke_o	o	n/a
47.8985	0.06	95797	keystroke_x	x	n/a
47.973	0.135	95946	keystroke_Key.space	Key.space	n/a
48.1685	0.0595	96337	keystroke_j	j	n/a
48.318	0.075	96636	keystroke_u	u	n/a
48.558	0.135	97116	keystroke_m	m	n/a
48.6485	0.12	97297	keystroke_p	p	n/a
48.7535	0.0745	97507	keystroke_s	s	n/a
48.843	0.09	97686	keystroke_Key.space	Key.space	n/a
48.963	0.12	97926	keystroke_o	o	n/a
49.098	0.0905	98196	keystroke_v	v	n/a
49.2485	0.12	98497	keystroke_e	e	n/a
49.3235	0.09	98647	keystroke_r	r	n/a
49.3985	0.0895	98797	keystroke_Key.space	Key.space	n/a
49.5035	0.0895	99007	keystroke_a	a	n/a
49.6085	0.075	99217	keystroke_Key.space	Key.space	n/a
49.6985	0.1045	99397	keystroke_l	l	n/a
49.773	0.09	99546	keystroke_a	a	n/a
50.028	0.1055	100056	keystroke_z	z	n/a
50.2685	0.0745	100537	keystroke_y	y	n/a
50.373	0.0905	100746	keystroke_Key.space	Key.space	n/a
50.7485	0.075	101497	keystroke_d	d	n/a
50.8385	0.135	101677	keystroke_o	o	n/a
50.958	0.0905	101916	keystroke_g	g	n/a
51.2885	0.0895	102577	keystroke_Key.enter	Key.enter	n/a
51.383	4.226	102766	prompt	n/a	maiden sufficient worker nail\n
52.1735	0.1195	104347	keystroke_m	m	n/a
52.218	0.105	104436	keystroke_a	a	n/a
52.3535	0.1045	104707	keystroke_i	i	n/a
52.458	0.09	104916	keystroke_d	d	n/a
52.653	0.075	105306	keystroke_e	e	n/a
52.743	0.1055	105486	keystroke_n	n	n/a
52.8485	0.105	105697	keystroke_Key.space	Key.space	n/a
52.9535	0.0745	105907	keystroke_s	s	n/a
53.0885	0.0595	106177	keystroke_u	u	n/a
53.1635	0.0595	106327	keystroke_f	f	n/a
53.3135	0.0595	106627	keystroke_f	f	n/a
53.388	0.0605	106776	keystroke_i	i	n/a
53.4935	0.09	106987	keystroke_c	c	n/a
53.553	0.075	107106	keystroke_i	i	n/a
53.688	0.075	107376	keystroke_e	e	n/a
53.8085	0.1045	107617	keystroke_n	n	n/a
53.928	0.045	107856	keystroke_t	t	n/a
53.9885	0.12	107977	keystroke_Key.space	Key.space	n/a
54.123	0.105	108246	keystroke_w	w	n/a
54.213	0.1055	108426	keystroke_o	o	n/a
54.3335	0.0895	108667	keystroke_r	r	n/a
54.4385	0.1045	108877	keystroke_k	k	n/a
54.514	0.1345	109028	keystroke_e	e	n/a
54.5885	0.0895	109177	keystroke_r	r	n/a
54.6935	0.12	109387	keystroke_Key.space	Key.space	n/a
54.858	0.06	109716	keystroke_n	n	n/a
55.1135	0.075	110227	keystroke_a	a	n/a
55.2635	0.075	110527	keystroke_i	i	n/a
55.3235	0.1045	110647	keystroke_l	l	n/a
55.5185	0.09	111037	keystroke_Key.enter	Key.enter	n/a
55.612	6.808	111224	prompt	n/a	partition tampa mold institutes\n
56.2835	0.12	112567	keystroke_p	p	n/a
56.358	0.1055	112716	keystroke_a	a	n/a
56.4485	0.06	112897	keystroke_r	r	n/a
56.6135	0.075	113227	keystroke_t	t	n/a
56.7035	0.0595	113407	keystroke_i	i	n/a
57.0935	0.075	114187	keystroke_t	t	n/a
57.1985	0.2095	114397	keystroke_i	i	n/a
57.2885	0.1645	114577	keystroke_o	o	n/a
57.393	0.15	114786	keystroke_n	n	n/a
57.499	0.1345	114998	keystroke_Key.space	Key.space	n/a
57.843	0.0755	115686	keystroke_t	t	n/a
57.9635	0.0895	115927	keystroke_a	a	n/a
58.0985	0.135	116197	keystroke_m	m	n/a
58.5035	0.1945	117007	keystroke_p	p	n/a
58.743	0.1055	117486	keystroke_a	a	n/a
58.9535	0.12	117907	keystroke_Key.space	Key.space	n/a
59.6885	0.135	119377	keystroke_m	m	n/a
59.7935	0.105	119587	keystroke_o	o	n/a
59.973	0.1055	119946	keystroke_l	l	n/a
60.0935	0.09	120187	keystroke_d	d	n/a
60.4535	0.1495	120907	keystroke_Key.space	Key.space	n/a
60.8735	0.15	121747	keystroke_i	i	n/a
60.9785	0.1345	121957	keystroke_n	n	n/a
61.0535	0.0745	122107	keystroke_s	s	n/a
61.143	0.076	122286	keystroke_t	t	n/a
61.233	0.1205	122466	keystroke_i	i	n/a
61.698	0.0905	123396	keystroke_t	t	n/a
61.8035	0.0745	123607	keystroke_u	u	n/a
61.893	0.1205	123786	keystroke_t	t	n/a
61.9685	0.0895	123937	keystroke_e	e	n/a
62.1635	0.12	124327	keystroke_s	s	n/a
62.2985	0.12	124597	keystroke_Key.enter	Key.enter	n/a
62.423	6.9865	124846	prompt	n/a	folding seventh meeting auction\n
64.6985	0.0595	129397	keystroke_f	f	n/a
64.7885	0.06	129577	keystroke_o	o	n/a
64.9685	0.1045	129937	keystroke_l	l	n/a
65.088	0.0605	130176	keystroke_d	d	n/a
65.343	0.1355	130686	keystroke_i	i	n/a
65.418	0.1355	130836	keystroke_n	n	n/a
65.5235	0.1045	131047	keystroke_g	g	n/a
65.5985	0.105	131197	keystroke_Key.space	Key.space	n/a
65.7635	0.09	131527	keystroke_s	s	n/a
65.8835	0.0595	131767	keystroke_e	e	n/a
66.0185	0.135	132037	keystroke_v	v	n/a
66.1385	0.075	132277	keystroke_e	e	n/a
66.258	0.1355	132516	keystroke_n	n	n/a
66.3485	0.06	132697	keystroke_t	t	n/a
66.4985	0.105	132997	keystroke_Key.space	Key.space	n/a
67.0835	0.0595	134167	keystroke_Key.backspace	Key.backspace	n/a
67.2785	0.075	134557	keystroke_h	h	n/a
67.3985	0.0445	134797	keystroke_Key.space	Key.space	n/a
67.5485	0.0895	135097	keystroke_m	m	n/a
67.6685	0.0895	135337	keystroke_e	e	n/a
67.8185	0.135	135637	keystroke_e	e	n/a
67.9385	0.075	135877	keystroke_t	t	n/a
68.058	0.1355	136116	keystroke_i	i	n/a
68.1185	0.105	136237	keystroke_n	n	n/a
68.1485	0.105	136297	keystroke_g	g	n/a
68.2685	0.12	136537	keystroke_Key.space	Key.space	n/a
68.4035	0.09	136807	keystroke_a	a	n/a
68.5985	0.075	137197	keystroke_u	u	n/a
68.7485	0.075	137497	keystroke_c	c	n/a
68.913	0.1055	137826	keystroke_t	t	n/a
68.9885	0.195	137977	keystroke_i	i	n/a
69.0485	0.15	138097	keystroke_o	o	n/a
69.1685	0.0745	138337	keystroke_n	n	n/a
69.3035	0.105	138607	keystroke_Key.enter	Key.enter	n/a
69.4125	4.0325	138825	prompt	n/a	gotta leaves lined resolved\n
70.0385	0.075	140077	keystroke_g	g	n/a
70.128	0.075	140256	keystroke_o	o	n/a
70.2635	0.09	140527	keystroke_t	t	n/a
70.443	0.0605	140886	keystroke_t	t	n/a
70.5185	0.105	141037	keystroke_a	a	n/a
70.6085	0.1345	141217	keystroke_Key.space	Key.space	n/a
70.7585	0.135	141517	keystroke_l	l	n/a
70.8185	0.0905	141637	keystroke_e	e	n/a
70.9835	0.12	141967	keystroke_a	a	n/a
71.058	0.1505	142116	keystroke_v	v	n/a
71.1635	0.09	142327	keystroke_e	e	n/a
71.343	0.0755	142686	keystroke_s	s	n/a
71.478	0.1055	142956	keystroke_Key.space	Key.space	n/a
71.5685	0.18	143137	keystroke_l	l	n/a
71.658	0.1355	143316	keystroke_i	i	n/a
71.7785	0.135	143557	keystroke_n	n	n/a
71.8985	0.105	143797	keystroke_e	e	n/a
72.109	0.0745	144218	keystroke_d	d	n/a
72.1985	0.12	144397	keystroke_Key.space	Key.space	n/a
72.409	0.1045	144818	keystroke_r	r	n/a
72.4685	0.0745	144937	keystroke_e	e	n/a
72.6185	0.09	145237	keystroke_s	s	n/a
72.7235	0.06	145447	keystroke_o	o	n/a
72.8735	0.09	145747	keystroke_l	l	n/a
72.8885	0.15	145777	keystroke_v	v	n/a
73.0235	0.075	146047	keystroke_e	e	n/a
73.2185	0.105	146437	keystroke_d	d	n/a
73.3385	0.105	146677	keystroke_Key.enter	Key.enter	n/a
73.448	6.9415	146896	prompt	n/a	politicians penalties wood photos\n
74.1785	0.1495	148357	keystroke_p	p	n/a
74.4035	0.105	148807	keystroke_o	o	n/a
74.7185	0.165	149437	keystroke_l	l	n/a
74.8235	0.075	149647	keystroke_i	i	n/a
75.4985	0.09	150997	keystroke_t	t	n/a
75.5735	0.12	151147	keystroke_i	i	n/a
75.7385	0.135	151477	keystroke_c	c	n/a
75.8885	0.105	151777	keystroke_i	i	n/a
75.9785	0.1495	151957	keystroke_a	a	n/a
76.1135	0.135	152227	keystroke_n	n	n/a
76.2335	0.12	152467	keystroke_s	s	n/a
76.3685	0.105	152737	keystroke_Key.space	Key.space	n/a
76.5635	0.135	153127	keystroke_p	p	n/a
76.7735	0.105	153547	keystroke_e	e	n/a
76.9835	0.0745	153967	keystroke_n	n	n/a
77.0735	0.105	154147	keystroke_a	a	n/a
77.238	0.1355	154476	keystroke_l	l	n/a
77.8235	0.0905	155647	keystroke_t	t	n/a
77.943	0.1215	155886	keystroke_i	i	n/a
78.0785	0.06	156157	keystroke_e	e	n/a
78.228	0.0755	156456	keystroke_s	s	n/a
78.3785	0.12	156757	keystroke_Key.space	Key.space	n/a
78.9185	0.075	157837	keystroke_w	w	n/a
79.0085	0.09	158017	keystroke_o	o	n/a
79.158	0.1055	158316	keystroke_o	o	n/a
79.3385	0.0895	158677	keystroke_d	d	n/a
79.4885	0.105	158977	keystroke_Key.space	Key.space	n/a
79.6535	0.135	159307	keystroke_p	p	n/a
79.743	0.1205	159486	keystroke_h	h	n/a
79.818	0.1055	159636	keystroke_o	o	n/a
79.9385	0.1045	159877	keystroke_t	t	n/a
80.028	0.1055	160056	keystroke_o	o	n/a
80.1785	0.1205	160357	keystroke_s	s	n/a
80.2685	0.12	160537	keystroke_Key.enter	Key.enter	n/a
80.3955	10.569	160791	prompt	n/a	montana barriers developer coleman\n
80.9885	0.1045	161977	keystroke_m	m	n/a
81.078	0.1355	162156	keystroke_o	o	n/a
81.1835	0.12	162367	keystroke_n	n	n/a
81.258	0.0905	162516	keystroke_t	t	n/a
81.3785	0.09	162757	keystroke_a	a	n/a
81.4985	0.105	162997	keystroke_n	n	n/a
81.6185	0.075	163237	keystroke_a	a	n/a
81.723	0.12	163446	keystroke_Key.space	Key.space	n/a
82.084	0.0895	164168	keystroke_m	m	n/a
82.158	0.1205	164316	keystroke_a	a	n/a
82.4735	0.045	164947	keystroke_r	r	n/a
82.5935	0.09	165187	keystroke_r	r	n/a
82.6985	0.09	165397	keystroke_i	i	n/a
82.9685	0.0595	165937	keystroke_Key.backspace	Key.backspace	n/a
83.1035	0.06	166207	keystroke_Key.backspace	Key.backspace	n/a
83.2685	0.045	166537	keystroke_Key.backspace	Key.backspace	n/a
83.4035	0.06	166807	keystroke_Key.backspace	Key.backspace	n/a
83.5385	0.045	167077	keystroke_Key.backspace	Key.backspace	n/a
83.673	0.0905	167346	keystroke_b	b	n/a
83.8235	0.09	167647	keystroke_a	a	n/a
84.1385	0.075	168277	keystroke_r	r	n/a
84.273	0.09	168546	keystroke_r	r	n/a
84.3935	0.12	168787	keystroke_i	i	n/a
84.4985	0.135	168997	keystroke_e	e	n/a
84.6485	0.075	169297	keystroke_r	r	n/a
84.8135	0.12	169627	keystroke_s	s	n/a
84.9935	0.105	169987	keystroke_Key.space	Key.space	n/a
85.443	0.0905	170886	keystroke_d	d	n/a
85.5935	0.076	171187	keystroke_e	e	n/a
85.728	0.1055	171456	keystroke_v	v	n/a
85.8035	0.09	171607	keystroke_e	e	n/a
85.9085	0.06	171817	keystroke_l	l	n/a
89.043	0.1055	178086	keystroke_o	o	n/a
89.2235	0.09	178447	keystroke_p	p	n/a
89.328	0.1205	178656	keystroke_e	e	n/a
89.418	0.0905	178836	keystroke_r	r	n/a
89.7485	0.0905	179497	keystroke_Key.space	Key.space	n/a
89.958	0.1205	179916	keystroke_c	c	n/a
90.033	0.0905	180066	keystroke_o	o	n/a
90.228	0.1055	180456	keystroke_l	l	n/a
90.319	0.0595	180638	keystroke_e	e	n/a
90.528	0.1055	181056	keystroke_m	m	n/a
90.6485	0.105	181297	keystroke_a	a	n/a
90.7385	0.075	181477	keystroke_n	n	n/a
90.8885	0.075	181777	keystroke_Key.enter	Key.enter	n/a
90.9685	10.3905	181937	prompt	n/a	scanning prairie posting mouse\n
91.5935	0.09	183187	keystroke_s	s	n/a
91.6685	0.106	183337	keystroke_c	c	n/a
91.743	0.1205	183486	keystroke_a	a	n/a
91.8785	0.045	183757	keystroke_n	n	n/a
92.028	0.0605	184056	keystroke_n	n	n/a
92.1485	0.165	184297	keystroke_i	i	n/a
92.2235	0.1195	184447	keystroke_n	n	n/a
92.2985	0.09	184597	keystroke_g	g	n/a
92.3735	0.105	184747	keystroke_Key.space	Key.space	n/a
92.5085	0.1045	185017	keystroke_p	p	n/a
92.643	0.1355	185286	keystroke_r	r	n/a
92.8085	0.1195	185617	keystroke_a	a	n/a
92.9135	0.105	185827	keystroke_r	r	n/a
93.1085	0.075	186217	keystroke_i	i	n/a
93.3785	0.135	186757	keystroke_r	r	n/a
94.009	0.0595	188018	keystroke_Key.backspace	Key.backspace	n/a
94.1885	0.015	188377	keystroke_i	i	n/a
94.443	0.0605	188886	keystroke_e	e	n/a
94.9235	0.06	189847	keystroke_Key.backspace	Key.backspace	n/a
95.0435	0.09	190087	keystroke_Key.backspace	Key.backspace	n/a
95.8985	0.0595	191797	keystroke_e	e	n/a
96.0185	0.09	192037	keystroke_Key.space	Key.space	n/a
96.6505	0.043	193301	keystroke_Key.backspace	Key.backspace	n/a
96.7535	0.075	193507	keystroke_Key.backspace	Key.backspace	n/a
96.9185	0.09	193837	keystroke_Key.backspace	Key.backspace	n/a
98.328	0.045	196656	keystroke_Key.backspace	Key.backspace	n/a
98.5085	0.06	197017	keystroke_i	i	n/a
98.6435	0.09	197287	keystroke_r	r	n/a
98.7935	0.105	197587	keystroke_i	i	n/a
98.884	0.074	197768	keystroke_e	e	n/a
99.0185	0.1195	198037	keystroke_Key.space	Key.space	n/a
99.3785	0.09	198757	keystroke_p	p	n/a
99.543	0.1355	199086	keystroke_o	o	n/a
99.6935	0.09	199387	keystroke_s	s	n/a
99.843	0.1055	199686	keystroke_t	t	n/a
99.9335	0.1805	199867	keystroke_i	i	n/a
100.0235	0.15	200047	keystroke_n	n	n/a
100.114	0.0895	200228	keystroke_g	g	n/a
100.2335	0.1505	200467	keystroke_Key.space	Key.space	n/a
100.6385	0.075	201277	keystroke_m	m	n/a
100.8185	0.1195	201637	keystroke_o	o	n/a
100.8935	0.06	201787	keystroke_u	u	n/a
101.043	0.1205	202086	keystroke_s	s	n/a
101.1335	0.075	202267	keystroke_e	e	n/a
101.2685	0.0895	202537	keystroke_Key.enter	Key.enter	n/a
101.3615	10.7825	202723	prompt	n/a	assist slim mechanism valium\n
102.1085	0.06	204217	keystroke_a	a	n/a
102.258	0.0605	204516	keystroke_s	s	n/a
102.4085	0.1195	204817	keystroke_s	s	n/a
102.4685	0.12	204937	keystroke_i	i	n/a
102.9185	0.09	205837	keystroke_s	s	n/a
103.0235	0.06	206047	keystroke_t	t	n/a
103.143	0.106	206286	keystroke_Key.space	Key.space	n/a
103.443	0.0905	206886	keystroke_s	s	n/a
103.5185	0.135	207037	keystroke_l	l	n/a
103.6995	0.149	207399	keystroke_i	i	n/a
103.8335	0.15	207667	keystroke_m	m	n/a
104.043	0.1205	208086	keystroke_Key.space	Key.space	n/a
108.558	0.1205	217116	keystroke_m	m	n/a
108.6485	0.06	217297	keystroke_e	e	n/a
108.7835	0.135	217567	keystroke_c	c	n/a
108.843	0.1205	217686	keystroke_h	h	n/a
109.0085	0.09	218017	keystroke_a	a	n/a
109.428	0.0755	218856	keystroke_n	n	n/a
109.4885	0.12	218977	keystroke_i	i	n/a
109.728	0.076	219456	keystroke_s	s	n/a
109.8185	0.09	219637	keystroke_m	m	n/a
109.9235	0.1045	219847	keystroke_Key.space	Key.space	n/a
110.8235	0.1195	221647	keystroke_v	v	n/a
110.928	0.1055	221856	keystroke_a	a	n/a
111.0635	0.1795	222127	keystroke_l	l	n/a
111.153	0.1205	222306	keystroke_i	i	n/a
111.6335	0.075	223267	keystroke_u	u	n/a
111.843	0.0755	223686	keystroke_m	m	n/a
112.0535	0.0895	224107	keystroke_Key.enter	Key.enter	n/a
112.147	9.2075	224294	prompt	n/a	registered kissing challenges domains\n
112.8785	0.105	225757	keystroke_r	r	n/a
112.9535	0.06	225907	keystroke_e	e	n/a
113.1035	0.0755	226207	keystroke_g	g	n/a
113.179	0.1045	226358	keystroke_i	i	n/a
113.2685	0.0895	226537	keystroke_s	s	n/a
113.3735	0.075	226747	keystroke_t	t	n/a
113.4785	0.105	226957	keystroke_e	e	n/a
113.5685	0.105	227137	keystroke_r	r	n/a
113.658	0.075	227316	keystroke_e	e	n/a
113.8235	0.09	227647	keystroke_d	d	n/a
113.8685	0.135	227737	keystroke_Key.space	Key.space	n/a
113.9885	0.09	227977	keystroke_k	k	n/a
114.1385	0.105	228277	keystroke_i	i	n/a
114.2135	0.0605	228427	keystroke_s	s	n/a
114.3485	0.135	228697	keystroke_s	s	n/a
114.4385	0.15	228877	keystroke_i	i	n/a
114.528	0.1355	229056	keystroke_n	n	n/a
114.619	0.0745	229238	keystroke_g	g	n/a
117.0185	0.0905	234037	keystroke_Key.space	Key.space	n/a
117.1535	0.12	234307	keystroke_c	c	n/a
117.2285	0.06	234457	keystroke_h	h	n/a
117.4085	0.045	234817	keystroke_l	l	n/a
117.558	0.03	235116	keystroke_l	l	n/a
118.0985	0.06	236197	keystroke_Key.backspace	Key.backspace	n/a
118.203	0.061	236406	keystroke_Key.backspace	Key.backspace	n/a
118.264	0.0895	236528	keystroke_a	a	n/a
118.3985	0.06	236797	keystroke_l	l	n/a
118.9535	0.045	237907	keystroke_l	l	n/a
119.2385	0.09	238477	keystroke_e	e	n/a
119.343	0.1055	238686	keystroke_n	n	n/a
119.4935	0.0905	238987	keystroke_g	g	n/a
119.5985	0.12	239197	keystroke_e	e	n/a
119.8235	0.09	239647	keystroke_s	s	n/a
120.0185	0.12	240037	keystroke_Key.space	Key.space	n/a
120.3935	0.0905	240787	keystroke_d	d	n/a
120.5435	0.1505	241087	keystroke_o	o	n/a
120.664	0.15	241328	keystroke_m	m	n/a
120.8285	0.105	241657	keystroke_a	a	n/a
120.9485	0.135	241897	keystroke_i	i	n/a
121.0235	0.09	242047	keystroke_n	n	n/a
121.1285	0.1205	242257	keystroke_s	s	n/a
121.264	0.0895	242528	keystroke_Key.enter	Key.enter	n/a
121.3575	4.707	242715	prompt	n/a	weak patients bulgarian alarm\n
121.984	0.0745	243968	keystroke_w	w	n/a
122.149	0.0895	244298	keystroke_e	e	n/a
122.284	0.105	244568	keystroke_a	a	n/a
122.4035	0.15	244807	keystroke_k	k	n/a
122.4935	0.12	244987	keystroke_Key.space	Key.space	n/a
122.6735	0.1505	245347	keystroke_p	p	n/a
122.7335	0.1055	245467	keystroke_a	a	n/a
122.8535	0.075	245707	keystroke_t	t	n/a
122.9735	0.12	245947	keystroke_i	i	n/a
123.064	0.0895	246128	keystroke_e	e	n/a
123.169	0.135	246338	keystroke_n	n	n/a
123.2735	0.0755	246547	keystroke_t	t	n/a
123.424	0.1045	246848	keystroke_s	s	n/a
123.514	0.135	247028	keystroke_Key.space	Key.space	n/a
123.7235	0.105	247447	keystroke_b	b	n/a
123.8435	0.1055	247687	keystroke_u	u	n/a
123.9635	0.1355	247927	keystroke_l	l	n/a
124.054	0.0895	248108	keystroke_g	g	n/a
124.1885	0.0905	248377	keystroke_a	a	n/a
124.384	0.09	248768	keystroke_r	r	n/a
124.5035	0.09	249007	keystroke_i	i	n/a
124.6085	0.09	249217	keystroke_a	a	n/a
124.7585	0.1205	249517	keystroke_n	n	n/a
124.864	0.15	249728	keystroke_Key.space	Key.space	n/a
125.1495	0.0595	250299	keystroke_a	a	n/a
125.284	0.1045	250568	keystroke_l	l	n/a
125.449	0.135	250898	keystroke_a	a	n/a
125.569	0.0895	251138	keystroke_r	r	n/a
125.704	0.135	251408	keystroke_m	m	n/a
125.974	0.09	251948	keystroke_Key.enter	Key.enter	n/a
126.0675	10.9775	252135	prompt	n/a	latex swaziland personalized answer\n
126.784	0.1195	253568	keystroke_l	l	n/a
126.8435	0.1505	253687	keystroke_a	a	n/a
127.084	0.0745	254168	keystroke_t	t	n/a
127.654	0.045	255308	keystroke_e	e	n/a
127.8185	0.075	255637	keystroke_x	x	n/a
128.0285	0.1205	256057	keystroke_Key.space	Key.space	n/a
128.3435	0.0605	256687	keystroke_s	s	n/a
128.6585	0.0755	257317	keystroke_w	w	n/a
128.809	0.09	257618	keystroke_a	a	n/a
129.049	0.135	258098	keystroke_z	z	n/a
129.2435	0.1055	258487	keystroke_i	i	n/a
129.5585	0.1205	259117	keystroke_l	l	n/a
129.664	0.09	259328	keystroke_a	a	n/a
129.7695	0.1345	259539	keystroke_n	n	n/a
129.8435	0.0905	259687	keystroke_d	d	n/a
129.949	0.1205	259898	keystroke_Key.space	Key.space	n/a
130.219	0.105	260438	keystroke_p	p	n/a
130.309	0.0745	260618	keystroke_e	e	n/a
130.3685	0.075	260737	keystroke_r	r	n/a
130.474	0.12	260948	keystroke_s	s	n/a
130.564	0.15	261128	keystroke_o	o	n/a
130.654	0.1655	261308	keystroke_n	n	n/a
130.7285	0.1055	261457	keystroke_a	a	n/a
130.849	0.135	261698	keystroke_l	l	n/a
130.924	0.1195	261848	keystroke_i	i	n/a
131.0435	0.1055	262087	keystroke_z	z	n/a
131.119	0.075	262238	keystroke_e	e	n/a
131.299	0.075	262598	keystroke_d	d	n/a
131.419	0.15	262838	keystroke_Key.space	Key.space	n/a
136.234	0.0905	272468	keystroke_a	a	n/a
136.3245	0.104	272649	keystroke_n	n	n/a
136.414	0.09	272828	keystroke_s	s	n/a
136.609	0.1345	273218	keystroke_w	w	n/a
136.714	0.105	273428	keystroke_e	e	n/a
136.7885	0.105	273577	keystroke_r	r	n/a
136.954	0.0895	273908	keystroke_Key.enter	Key.enter	n/a
137.049	5.7405	274098	prompt	n/a	away providing taiwan contests\n
137.9285	0.105	275857	keystroke_a	a	n/a
138.0035	0.1055	276007	keystroke_w	w	n/a
138.199	0.105	276398	keystroke_a	a	n/a
138.289	0.075	276578	keystroke_y	y	n/a
138.394	0.12	276788	keystroke_Key.space	Key.space	n/a
138.589	0.0895	277178	keystroke_p	p	n/a
138.6935	0.0605	277387	keystroke_r	r	n/a
138.769	0.105	277538	keystroke_o	o	n/a
138.904	0.09	277808	keystroke_v	v	n/a
139.024	0.075	278048	keystroke_i	i	n/a
139.294	0.09	278588	keystroke_d	d	n/a
139.399	0.135	278798	keystroke_i	i	n/a
139.4585	0.1205	278917	keystroke_n	n	n/a
139.5185	0.091	279037	keystroke_g	g	n/a
139.639	0.1195	279278	keystroke_Key.space	Key.space	n/a
139.894	0.0595	279788	keystroke_t	t	n/a
140.0585	0.0755	280117	keystroke_w	w	n/a
140.5985	0.06	281197	keystroke_Key.backspace	Key.backspace	n/a
140.6435	0.1205	281287	keystroke_a	a	n/a
140.809	0.105	281618	keystroke_i	i	n/a
141.214	0.0595	282428	keystroke_w	w	n/a
141.364	0.09	282728	keystroke_a	a	n/a
141.439	0.135	282878	keystroke_n	n	n/a
141.724	0.1045	283448	keystroke_Key.space	Key.space	n/a
141.919	0.09	283838	keystroke_c	c	n/a
141.964	0.1645	283928	keystroke_o	o	n/a
142.039	0.1195	284078	keystroke_n	n	n/a
142.1585	0.1205	284317	keystroke_t	t	n/a
142.264	0.09	284528	keystroke_e	e	n/a
142.399	0.075	284798	keystroke_s	s	n/a
142.489	0.12	284978	keystroke_t	t	n/a
142.579	0.12	285158	keystroke_s	s	n/a
142.7285	0.0605	285457	keystroke_Key.enter	Key.enter	n/a
142.7925	6.2825	285585	prompt	n/a	claims instrumental foul plumbing\n
143.419	0.12	286838	keystroke_c	c	n/a
143.494	0.1345	286988	keystroke_l	l	n/a
143.614	0.12	287228	keystroke_a	a	n/a
143.749	0.135	287498	keystroke_i	i	n/a
143.839	0.1195	287678	keystroke_m	m	n/a
143.989	0.0905	287978	keystroke_s	s	n/a
144.124	0.1195	288248	keystroke_Key.space	Key.space	n/a
144.3945	0.134	288789	keystroke_i	i	n/a
144.469	0.12	288938	keystroke_n	n	n/a
144.4995	0.0745	288999	keystroke_s	s	n/a
144.6485	0.0605	289297	keystroke_t	t	n/a
144.784	0.0745	289568	keystroke_r	r	n/a
144.814	0.075	289628	keystroke_u	u	n/a
145.069	0.0295	290138	keystroke_m	m	n/a
145.0835	0.075	290167	keystroke_e	e	n/a
145.204	0.09	290408	keystroke_n	n	n/a
145.6685	0.0455	291337	keystroke_Key.backspace	Key.backspace	n/a
146.209	0.075	292418	keystroke_n	n	n/a
146.284	0.12	292568	keystroke_t	t	n/a
146.449	0.09	292898	keystroke_a	a	n/a
146.779	0.12	293558	keystroke_l	l	n/a
146.869	0.1345	293738	keystroke_Key.space	Key.space	n/a
147.124	0.0905	294248	keystroke_f	f	n/a
147.2145	0.1195	294429	keystroke_o	o	n/a
147.2585	0.1205	294517	keystroke_u	u	n/a
147.499	0.12	294998	keystroke_l	l	n/a
147.604	0.12	295208	keystroke_Key.space	Key.space	n/a
147.8585	0.1055	295717	keystroke_p	p	n/a
148.024	0.165	296048	keystroke_l	l	n/a
148.114	0.075	296228	keystroke_u	u	n/a
148.339	0.03	296678	keystroke_m	m	n/a
148.3995	0.0895	296799	keystroke_b	b	n/a
148.504	0.1795	297008	keystroke_i	i	n/a
148.654	0.1045	297308	keystroke_n	n	n/a
148.804	0.1195	297608	keystroke_g	g	n/a
148.999	0.075	297998	keystroke_Key.enter	Key.enter	n/a
149.0775	8.472	298155	prompt	n/a	davis government even survival\n
149.824	0.06	299648	keystroke_d	d	n/a
149.914	0.165	299828	keystroke_a	a	n/a
150.064	0.075	300128	keystroke_v	v	n/a
150.169	0.105	300338	keystroke_i	i	n/a
150.289	0.09	300578	keystroke_s	s	n/a
150.409	0.1345	300818	keystroke_Key.space	Key.space	n/a
150.8735	0.0605	301747	keystroke_g	g	n/a
150.949	0.12	301898	keystroke_o	o	n/a
151.114	0.075	302228	keystroke_v	v	n/a
151.399	0.12	302798	keystroke_e	e	n/a
151.504	0.09	303008	keystroke_r	r	n/a
151.609	0.075	303218	keystroke_n	n	n/a
151.789	0.075	303578	keystroke_m	m	n/a
151.849	0.105	303698	keystroke_e	e	n/a
151.954	0.1045	303908	keystroke_n	n	n/a
152.0435	0.0755	304087	keystroke_t	t	n/a
152.149	0.09	304298	keystroke_Key.space	Key.space	n/a
155.719	0.06	311438	keystroke_e	e	n/a
155.854	0.0895	311708	keystroke_v	v	n/a
155.914	0.0745	311828	keystroke_e	e	n/a
155.9735	0.1205	311947	keystroke_n	n	n/a
156.079	0.135	312158	keystroke_Key.space	Key.space	n/a
156.5435	0.0905	313087	keystroke_s	s	n/a
156.649	0.105	313298	keystroke_u	u	n/a
156.709	0.06	313418	keystroke_r	r	n/a
156.874	0.105	313748	keystroke_v	v	n/a
156.994	0.105	313988	keystroke_i	i	n/a
157.1285	0.105	314257	keystroke_v	v	n/a
157.204	0.12	314408	keystroke_a	a	n/a
157.309	0.0745	314618	keystroke_l	l	n/a
157.4585	0.0905	314917	keystroke_Key.enter	Key.enter	n/a
157.5525	8.2005	315105	prompt	n/a	draft acres diagram possess\n
158.1485	0.09	316297	keystroke_d	d	n/a
158.343	0.0755	316686	keystroke_r	r	n/a
158.4485	0.165	316897	keystroke_a	a	n/a
158.553	0.0745	317106	keystroke_f	f	n/a
158.733	0.045	317466	keystroke_t	t	n/a
158.793	0.1345	317586	keystroke_Key.space	Key.space	n/a
159.003	0.105	318006	keystroke_a	a	n/a
159.063	0.0895	318126	keystroke_c	c	n/a
159.2275	0.1205	318455	keystroke_r	r	n/a
159.318	0.0895	318636	keystroke_e	e	n/a
159.4825	0.0745	318965	keystroke_s	s	n/a
159.6325	0.12	319265	keystroke_Key.space	Key.space	n/a
162.4515	0.075	324903	keystroke_d	d	n/a
162.602	0.12	325204	keystroke_a	a	n/a
163.097	0.0595	326194	keystroke_Key.backspace	Key.backspace	n/a
163.4435	0.0735	326887	keystroke_i	i	n/a
163.547	0.1045	327094	keystroke_a	a	n/a
163.772	0.075	327544	keystroke_g	g	n/a
163.922	0.09	327844	keystroke_r	r	n/a
163.997	0.075	327994	keystroke_a	a	n/a
164.102	0.15	328204	keystroke_m	m	n/a
164.267	0.15	328534	keystroke_Key.space	Key.space	n/a
164.462	0.135	328924	keystroke_p	p	n/a
164.612	0.12	329224	keystroke_o	o	n/a
164.9415	0.0605	329883	keystroke_s	s	n/a
165.107	0.075	330214	keystroke_s	s	n/a
165.212	0.075	330424	keystroke_e	e	n/a
165.392	0.045	330784	keystroke_s	s	n/a
165.5415	0.0755	331083	keystroke_s	s	n/a
165.662	0.09	331324	keystroke_Key.enter	Key.enter	n/a
165.7565	5.0965	331513	prompt	n/a	qualified patch dubai browser\n
166.4415	0.0905	332883	keystroke_q	q	n/a
166.547	0.09	333094	keystroke_u	u	n/a
166.622	0.1045	333244	keystroke_a	a	n/a
166.697	0.165	333394	keystroke_l	l	n/a
166.787	0.0905	333574	keystroke_i	i	n/a
166.892	0.09	333784	keystroke_f	f	n/a
167.012	0.09	334024	keystroke_i	i	n/a
167.117	0.075	334234	keystroke_e	e	n/a
167.282	0.09	334564	keystroke_d	d	n/a
167.387	0.1045	334774	keystroke_Key.space	Key.space	n/a
167.567	0.0745	335134	keystroke_p	p	n/a
167.612	0.135	335224	keystroke_a	a	n/a
167.732	0.105	335464	keystroke_t	t	n/a
167.9415	0.1355	335883	keystroke_c	c	n/a
168.032	0.12	336064	keystroke_h	h	n/a
168.1365	0.1355	336273	keystroke_Key.space	Key.space	n/a
168.317	0.075	336634	keystroke_d	d	n/a
168.437	0.0895	336874	keystroke_u	u	n/a
168.587	0.105	337174	keystroke_b	b	n/a
168.722	0.1045	337444	keystroke_a	a	n/a
168.8565	0.136	337713	keystroke_i	i	n/a
169.0225	0.1195	338045	keystroke_Key.space	Key.space	n/a
169.3675	0.0745	338735	keystroke_b	b	n/a
169.5325	0.1045	339065	keystroke_r	r	n/a
170.1925	0.0745	340385	keystroke_o	o	n/a
170.2825	0.074	340565	keystroke_w	w	n/a
170.4925	0.12	340985	keystroke_s	s	n/a
170.5825	0.0895	341165	keystroke_e	e	n/a
170.657	0.0755	341314	keystroke_r	r	n/a
170.7775	0.075	341555	keystroke_Key.enter	Key.enter	n/a
170.856	9.3725	341712	prompt	n/a	spank approx promo isolation\n
171.4825	0.03	342965	keystroke_s	s	n/a
171.5725	0.12	343145	keystroke_p	p	n/a
171.7075	0.06	343415	keystroke_a	a	n/a
171.8875	0.135	343775	keystroke_n	n	n/a
172.0075	0.1495	344015	keystroke_k	k	n/a
172.1265	0.1205	344253	keystroke_Key.space	Key.space	n/a
172.457	0.09	344914	keystroke_a	a	n/a
172.5475	0.0595	345095	keystroke_p	p	n/a
173.4925	0.1645	346985	keystroke_p	p	n/a
173.627	0.106	347254	keystroke_r	r	n/a
173.7475	0.1345	347495	keystroke_o	o	n/a
174.4975	0.0745	348995	keystroke_x	x	n/a
174.6325	0.15	349265	keystroke_Key.space	Key.space	n/a
174.9625	0.135	349925	keystroke_p	p	n/a
175.1125	0.0595	350225	keystroke_r	r	n/a
175.157	0.0905	350314	keystroke_o	o	n/a
175.2925	0.105	350585	keystroke_m	m	n/a
175.3375	0.165	350675	keystroke_o	o	n/a
175.5025	0.135	351005	keystroke_Key.space	Key.space	n/a
178.3225	0.06	356645	keystroke_s	s	n/a
178.4125	0.09	356825	keystroke_i	i	n/a
178.9675	0.045	357935	keystroke_Key.backspace	Key.backspace	n/a
179.073	0.045	358146	keystroke_Key.backspace	Key.backspace	n/a
179.223	0.1045	358446	keystroke_i	i	n/a
179.313	0.06	358626	keystroke_s	s	n/a
179.433	0.09	358866	keystroke_o	o	n/a
179.613	0.0745	359226	keystroke_l	l	n/a
179.6725	0.1055	359345	keystroke_a	a	n/a
179.763	0.09	359526	keystroke_t	t	n/a
179.8385	0.1645	359677	keystroke_i	i	n/a
179.898	0.135	359796	keystroke_o	o	n/a
179.9575	0.0905	359915	keystroke_n	n	n/a
180.153	0.0745	360306	keystroke_Key.enter	Key.enter	n/a
180.2325	5.4865	360465	prompt	n/a	ending heating daily consecutive\n
180.903	0.06	361806	keystroke_e	e	n/a
181.038	0.1045	362076	keystroke_n	n	n/a
181.113	0.12	362226	keystroke_d	d	n/a
181.623	0.1195	363246	keystroke_i	i	n/a
181.683	0.135	363366	keystroke_n	n	n/a
181.7425	0.0905	363485	keystroke_g	g	n/a
181.848	0.135	363696	keystroke_Key.space	Key.space	n/a
182.0735	0.0895	364147	keystroke_h	h	n/a
182.148	0.0755	364296	keystroke_e	e	n/a
182.268	0.105	364536	keystroke_a	a	n/a
182.313	0.09	364626	keystroke_l	l	n/a
183.033	0.045	366066	keystroke_Key.backspace	Key.backspace	n/a
183.123	0.075	366246	keystroke_t	t	n/a
183.2425	0.1505	366485	keystroke_i	i	n/a
183.333	0.105	366666	keystroke_n	n	n/a
183.393	0.0895	366786	keystroke_g	g	n/a
183.4975	0.1055	366995	keystroke_Key.space	Key.space	n/a
183.648	0.09	367296	keystroke_d	d	n/a
183.768	0.105	367536	keystroke_a	a	n/a
183.873	0.135	367746	keystroke_i	i	n/a
183.993	0.1795	367986	keystroke_l	l	n/a
184.098	0.09	368196	keystroke_y	y	n/a
184.1725	0.1205	368345	keystroke_Key.space	Key.space	n/a
184.3675	0.1055	368735	keystroke_c	c	n/a
184.413	0.135	368826	keystroke_o	o	n/a
184.488	0.09	368976	keystroke_n	n	n/a
184.518	0.09	369036	keystroke_s	s	n/a
184.713	0.09	369426	keystroke_e	e	n/a
184.9085	0.0745	369817	keystroke_c	c	n/a
185.013	0.105	370026	keystroke_u	u	n/a
185.133	0.09	370266	keystroke_t	t	n/a
185.238	0.135	370476	keystroke_i	i	n/a
185.3885	0.1045	370777	keystroke_v	v	n/a
185.463	0.105	370926	keystroke_e	e	n/a
185.613	0.105	371226	keystroke_Key.enter	Key.enter	n/a
185.722	6.177	371444	prompt	n/a	ford annie they'll better\n
186.423	0.075	372846	keystroke_f	f	n/a
186.5435	0.0895	373087	keystroke_o	o	n/a
186.618	0.0595	373236	keystroke_r	r	n/a
186.9935	0.0445	373987	keystroke_d	d	n/a
187.038	0.135	374076	keystroke_Key.space	Key.space	n/a
187.488	0.075	374976	keystroke_a	a	n/a
187.548	0.06	375096	keystroke_n	n	n/a
187.668	0.0895	375336	keystroke_n	n	n/a
187.788	0.12	375576	keystroke_i	i	n/a
187.893	0.0595	375786	keystroke_e	e	n/a
188.148	0.075	376296	keystroke_Key.space	Key.space	n/a
189.8425	0.0605	379685	keystroke_t	t	n/a
189.918	0.045	379836	keystroke_h	h	n/a
189.978	0.0905	379956	keystroke_e	e	n/a
190.233	0.0905	380466	keystroke_y	y	n/a
190.458	0.0745	380916	keystroke_'	'	n/a
190.653	0.0455	381306	keystroke_l	l	n/a
190.788	0.135	381576	keystroke_l	l	n/a
190.878	0.135	381756	keystroke_Key.space	Key.space	n/a
191.118	0.09	382236	keystroke_b	b	n/a
191.268	0.0895	382536	keystroke_e	e	n/a
191.373	0.045	382746	keystroke_t	t	n/a
191.493	0.09	382986	keystroke_t	t	n/a
191.628	0.12	383256	keystroke_e	e	n/a
191.718	0.0895	383436	keystroke_r	r	n/a
191.823	0.075	383646	keystroke_Key.enter	Key.enter	n/a
191.902	7.4825	383804	prompt	n/a	crash afghanistan catalyst voluntary\n
192.6485	0.0745	385297	keystroke_c	c	n/a
192.903	0.015	385806	keystroke_r	r	n/a
192.9485	0.12	385897	keystroke_a	a	n/a
193.158	0.0605	386316	keystroke_s	s	n/a
193.2785	0.1205	386557	keystroke_h	h	n/a
193.3835	0.1195	386767	keystroke_Key.space	Key.space	n/a
193.758	0.0755	387516	keystroke_a	a	n/a
193.8485	0.12	387697	keystroke_f	f	n/a
194.1635	0.0745	388327	keystroke_g	g	n/a
194.253	0.105	388506	keystroke_h	h	n/a
194.4035	0.09	388807	keystroke_a	a	n/a
194.5085	0.1195	389017	keystroke_n	n	n/a
194.7485	0.12	389497	keystroke_i	i	n/a
194.8685	0.12	389737	keystroke_s	s	n/a
194.9735	0.12	389947	keystroke_t	t	n/a
195.1385	0.1045	390277	keystroke_a	a	n/a
195.3035	0.12	390607	keystroke_n	n	n/a
195.4835	0.0745	390967	keystroke_Key.space	Key.space	n/a
195.8885	0.105	391777	keystroke_c	c	n/a
196.0535	0.12	392107	keystroke_a	a	n/a
196.128	0.106	392256	keystroke_t	t	n/a
196.2485	0.12	392497	keystroke_a	a	n/a
196.3535	0.195	392707	keystroke_l	l	n/a
196.458	0.0755	392916	keystroke_y	y	n/a
197.0735	0.105	394147	keystroke_s	s	n/a
197.1485	0.09	394297	keystroke_t	t	n/a
197.328	0.1055	394656	keystroke_Key.space	Key.space	n/a
197.943	0.1055	395886	keystroke_v	v	n/a
198.2735	0.165	396547	keystroke_o	o	n/a
198.4535	0.15	396907	keystroke_l	l	n/a
198.4835	0.105	396967	keystroke_u	u	n/a
198.7385	0.1045	397477	keystroke_n	n	n/a
198.828	0.1055	397656	keystroke_t	t	n/a
198.9785	0.105	397957	keystroke_a	a	n/a
199.0535	0.0895	398107	keystroke_r	r	n/a
199.128	0.0755	398256	keystroke_y	y	n/a
199.2935	0.09	398587	keystroke_Key.enter	Key.enter	n/a
199.3875	5.817	398775	prompt	n/a	smilies suggestions fame mailed\n
200.043	0.0615	400086	keystroke_s	s	n/a
200.118	0.1805	400236	keystroke_m	m	n/a
200.2235	0.1345	400447	keystroke_i	i	n/a
201.2285	0.195	402457	keystroke_l	l	n/a
201.3335	0.12	402667	keystroke_i	i	n/a
201.408	0.0755	402816	keystroke_e	e	n/a
201.558	0.0905	403116	keystroke_s	s	n/a
201.6785	0.135	403357	keystroke_Key.space	Key.space	n/a
202.2335	0.0905	404467	keystroke_s	s	n/a
202.3385	0.075	404677	keystroke_u	u	n/a
202.6535	0.0745	405307	keystroke_g	g	n/a
202.7585	0.165	405517	keystroke_g	g	n/a
203.614	0.0895	407228	keystroke_e	e	n/a
203.749	0.1195	407498	keystroke_s	s	n/a
203.8535	0.09	407707	keystroke_t	t	n/a
204.049	0.2095	408098	keystroke_i	i	n/a
204.139	0.1645	408278	keystroke_o	o	n/a
204.1985	0.135	408397	keystroke_n	n	n/a
204.274	0.1045	408548	keystroke_s	s	n/a
204.3935	0.12	408787	keystroke_Key.space	Key.space	n/a
204.5285	0.135	409057	keystroke_f	f	n/a
204.694	0.09	409388	keystroke_a	a	n/a
204.8585	0.12	409717	keystroke_m	m	n/a
204.964	0.09	409928	keystroke_e	e	n/a
205.1285	0.0755	410257	keystroke_Key.enter	Key.enter	n/a
205.2075	6.0735	410415	prompt	n/a	remaining nationally ballot distributions\n
206.584	0.09	413168	keystroke_r	r	n/a
206.764	0.09	413528	keystroke_e	e	n/a
206.899	0.105	413798	keystroke_m	m	n/a
207.004	0.09	414008	keystroke_a	a	n/a
207.109	0.105	414218	keystroke_i	i	n/a
207.199	0.0595	414398	keystroke_n	n	n/a
207.274	0.15	414548	keystroke_i	i	n/a
207.364	0.12	414728	keystroke_n	n	n/a
207.499	0.09	414998	keystroke_g	g	n/a
207.604	0.12	415208	keystroke_Key.space	Key.space	n/a
207.7985	0.1055	415597	keystroke_n	n	n/a
207.889	0.12	415778	keystroke_a	a	n/a
208.024	0.09	416048	keystroke_t	t	n/a
208.144	0.135	416288	keystroke_i	i	n/a
208.1585	0.18	416317	keystroke_o	o	n/a
208.264	0.09	416528	keystroke_n	n	n/a
208.3385	0.0755	416677	keystroke_a	a	n/a
208.444	0.06	416888	keystroke_l	l	n/a
208.594	0.12	417188	keystroke_l	l	n/a
208.654	0.0895	417308	keystroke_y	y	n/a
208.7585	0.1055	417517	keystroke_Key.space	Key.space	n/a
208.879	0.09	417758	keystroke_b	b	n/a
208.984	0.135	417968	keystroke_a	a	n/a
209.119	0.06	418238	keystroke_l	l	n/a
209.269	0.0595	418538	keystroke_l	l	n/a
209.419	0.105	418838	keystroke_o	o	n/a
209.509	0.075	419018	keystroke_t	t	n/a
209.584	0.105	419168	keystroke_Key.space	Key.space	n/a
209.824	0.06	419648	keystroke_d	d	n/a
209.9435	0.1055	419887	keystroke_i	i	n/a
210.004	0.09	420008	keystroke_s	s	n/a
210.139	0.075	420278	keystroke_t	t	n/a
210.289	0.105	420578	keystroke_r	r	n/a
210.3785	0.0905	420757	keystroke_i	i	n/a
210.499	0.09	420998	keystroke_b	b	n/a
210.589	0.075	421178	keystroke_u	u	n/a
210.694	0.09	421388	keystroke_t	t	n/a
210.799	0.1945	421598	keystroke_i	i	n/a
210.874	0.165	421748	keystroke_o	o	n/a
210.949	0.135	421898	keystroke_n	n	n/a
211.039	0.075	422078	keystroke_s	s	n/a
211.204	0.076	422408	keystroke_Key.enter	Key.enter	n/a
211.285	6.3855	422570	prompt	n/a	sharp athletics cheese extras\n
212.044	0.0605	424088	keystroke_s	s	n/a
212.119	0.105	424238	keystroke_h	h	n/a
212.389	0.135	424778	keystroke_a	a	n/a
212.509	0.075	425018	keystroke_r	r	n/a
212.6285	0.1055	425257	keystroke_p	p	n/a
212.794	0.12	425588	keystroke_Key.space	Key.space	n/a
213.484	0.075	426968	keystroke_a	a	n/a
213.574	0.105	427148	keystroke_t	t	n/a
213.6645	0.0745	427329	keystroke_h	h	n/a
213.829	0.12	427658	keystroke_l	l	n/a
213.934	0.105	427868	keystroke_e	e	n/a
214.024	0.0755	428048	keystroke_t	t	n/a
214.0995	0.1495	428199	keystroke_i	i	n/a
214.234	0.15	428468	keystroke_c	c	n/a
214.324	0.105	428648	keystroke_s	s	n/a
214.4895	0.1045	428979	keystroke_Key.space	Key.space	n/a
214.924	0.09	429848	keystroke_c	c	n/a
214.969	0.105	429938	keystroke_h	h	n/a
215.344	0.06	430688	keystroke_e	e	n/a
215.659	0.0605	431318	keystroke_e	e	n/a
215.8545	0.06	431709	keystroke_s	s	n/a
215.8995	0.1045	431799	keystroke_e	e	n/a
216.0495	0.0895	432099	keystroke_Key.space	Key.space	n/a
216.6795	0.0745	433359	keystroke_e	e	n/a
216.859	0.0755	433718	keystroke_x	x	n/a
217.129	0.1205	434258	keystroke_r	r	n/a
217.2795	0.1645	434559	keystroke_a	a	n/a
217.3845	0.105	434769	keystroke_s	s	n/a
217.5645	0.105	435129	keystroke_Key.enter	Key.enter	n/a
217.673	5.743	435346	prompt	n/a	perspectives providence relatively babe\n
218.644	0.1055	437288	keystroke_p	p	n/a
218.7195	0.09	437439	keystroke_e	e	n/a
218.7645	0.105	437529	keystroke_r	r	n/a
218.9145	0.075	437829	keystroke_s	s	n/a
219.0195	0.105	438039	keystroke_p	p	n/a
219.1095	0.045	438219	keystroke_e	e	n/a
219.259	0.06	438518	keystroke_c	c	n/a
219.4095	0.075	438819	keystroke_t	t	n/a
219.4845	0.09	438969	keystroke_i	i	n/a
219.6195	0.09	439239	keystroke_v	v	n/a
219.6945	0.075	439389	keystroke_e	e	n/a
219.859	0.0755	439718	keystroke_s	s	n/a
219.979	0.0905	439958	keystroke_Key.space	Key.space	n/a
220.0995	0.105	440199	keystroke_p	p	n/a
220.22	0.0595	440440	keystroke_r	r	n/a
220.2945	0.1345	440589	keystroke_o	o	n/a
220.444	0.076	440888	keystroke_v	v	n/a
220.5345	0.105	441069	keystroke_i	i	n/a
220.6245	0.06	441249	keystroke_d	d	n/a
220.744	0.0905	441488	keystroke_e	e	n/a
220.8495	0.12	441699	keystroke_n	n	n/a
220.9545	0.135	441909	keystroke_c	c	n/a
221.029	0.0755	442058	keystroke_e	e	n/a
221.12	0.119	442240	keystroke_Key.space	Key.space	n/a
221.254	0.1205	442508	keystroke_r	r	n/a
221.344	0.1055	442688	keystroke_e	e	n/a
221.4645	0.105	442929	keystroke_l	l	n/a
221.5395	0.0895	443079	keystroke_a	a	n/a
221.6145	0.075	443229	keystroke_t	t	n/a
221.6745	0.105	443349	keystroke_i	i	n/a
221.8095	0.1495	443619	keystroke_v	v	n/a
221.9145	0.09	443829	keystroke_e	e	n/a
222.0495	0.225	444099	keystroke_l	l	n/a
222.1695	0.0895	444339	keystroke_y	y	n/a
222.2595	0.105	444519	keystroke_Key.space	Key.space	n/a
222.4095	0.1045	444819	keystroke_b	b	n/a
222.574	0.1055	445148	keystroke_a	a	n/a
222.859	0.0755	445718	keystroke_b	b	n/a
223.0555	0.089	446111	keystroke_e	e	n/a
223.3245	0.09	446649	keystroke_Key.enter	Key.enter	n/a
223.4195	6.0865	446839	prompt	n/a	innocent tablet fires cooperative\n
224.0445	0.09	448089	keystroke_i	i	n/a
224.24	0.0595	448480	keystroke_n	n	n/a
224.3895	0.09	448779	keystroke_n	n	n/a
224.57	0.105	449140	keystroke_o	o	n/a
224.7345	0.1505	449469	keystroke_c	c	n/a
224.8695	0.121	449739	keystroke_e	e	n/a
225.005	0.105	450010	keystroke_n	n	n/a
225.1545	0.0305	450309	keystroke_t	t	n/a
225.1995	0.09	450399	keystroke_Key.space	Key.space	n/a
225.305	0.09	450610	keystroke_t	t	n/a
225.485	0.12	450970	keystroke_a	a	n/a
225.575	0.075	451150	keystroke_b	b	n/a
225.7395	0.0605	451479	keystroke_l	l	n/a
226.235	0.105	452470	keystroke_e	e	n/a
226.4295	0.0755	452859	keystroke_t	t	n/a
226.61	0.105	453220	keystroke_Key.space	Key.space	n/a
226.7	0.0755	453400	keystroke_f	f	n/a
226.895	0.06	453790	keystroke_i	i	n/a
227.0445	0.1505	454089	keystroke_r	r	n/a
227.18	0.105	454360	keystroke_e	e	n/a
227.405	0.09	454810	keystroke_s	s	n/a
227.585	0.135	455170	keystroke_Key.space	Key.space	n/a
227.9295	0.0905	455859	keystroke_c	c	n/a
228.05	0.045	456100	keystroke_o	o	n/a
228.185	0.135	456370	keystroke_o	o	n/a
228.2745	0.1515	456549	keystroke_p	p	n/a
228.5	0.135	457000	keystroke_e	e	n/a
228.59	0.135	457180	keystroke_r	r	n/a
228.74	0.1195	457480	keystroke_a	a	n/a
228.8445	0.0605	457689	keystroke_t	t	n/a
228.98	0.09	457960	keystroke_i	i	n/a
229.115	0.09	458230	keystroke_v	v	n/a
229.235	0.12	458470	keystroke_e	e	n/a
229.4295	0.0755	458859	keystroke_Key.enter	Key.enter	n/a
229.509	6.222	459018	prompt	n/a	sees compliance consoles expanded\n
230.2095	0.0755	460419	keystroke_s	s	n/a
230.3295	0.1205	460659	keystroke_e	e	n/a
230.54	0.075	461080	keystroke_e	e	n/a
230.705	0.09	461410	keystroke_s	s	n/a
230.8545	0.1205	461709	keystroke_Key.space	Key.space	n/a
231.215	0.12	462430	keystroke_c	c	n/a
231.305	0.15	462610	keystroke_o	o	n/a
231.395	0.1495	462790	keystroke_m	m	n/a
231.4845	0.1205	462969	keystroke_p	p	n/a
231.71	0.1495	463420	keystroke_l	l	n/a
232.34	0.075	464680	keystroke_i	i	n/a
232.475	0.1205	464950	keystroke_a	a	n/a
232.6255	0.1495	465251	keystroke_n	n	n/a
232.79	0.18	465580	keystroke_c	c	n/a
232.865	0.12	465730	keystroke_e	e	n/a
233.075	0.12	466150	keystroke_Key.space	Key.space	n/a
233.3155	0.1495	466631	keystroke_c	c	n/a
233.3905	0.1495	466781	keystroke_o	o	n/a
233.48	0.1355	466960	keystroke_n	n	n/a
233.5405	0.1045	467081	keystroke_s	s	n/a
233.72	0.075	467440	keystroke_o	o	n/a
233.9155	0.1045	467831	keystroke_l	l	n/a
233.9905	0.075	467981	keystroke_e	e	n/a
234.155	0.105	468310	keystroke_s	s	n/a
234.29	0.105	468580	keystroke_Key.space	Key.space	n/a
234.47	0.075	468940	keystroke_e	e	n/a
234.68	0.105	469360	keystroke_x	x	n/a
234.8005	0.135	469601	keystroke_p	p	n/a
234.8905	0.1045	469781	keystroke_a	a	n/a
235.01	0.12	470020	keystroke_n	n	n/a
235.1155	0.075	470231	keystroke_d	d	n/a
235.2955	0.06	470591	keystroke_e	e	n/a
235.46	0.105	470920	keystroke_d	d	n/a
235.625	0.105	471250	keystroke_Key.enter	Key.enter	n/a
235.734	8.712	471468	prompt	n/a	conference patricia betty events\n
236.4055	0.09	472811	keystroke_c	c	n/a
236.4955	0.1195	472991	keystroke_o	o	n/a
236.5705	0.0895	473141	keystroke_n	n	n/a
236.63	0.1055	473260	keystroke_f	f	n/a
236.7805	0.105	473561	keystroke_e	e	n/a
236.8705	0.105	473741	keystroke_r	r	n/a
236.96	0.0905	473920	keystroke_e	e	n/a
237.305	0.1355	474610	keystroke_n	n	n/a
237.3955	0.1495	474791	keystroke_c	c	n/a
237.4855	0.09	474971	keystroke_e	e	n/a
237.6055	0.12	475211	keystroke_Key.space	Key.space	n/a
241.2955	0.075	482591	keystroke_p	p	n/a
241.3405	0.1045	482681	keystroke_a	a	n/a
241.4755	0.06	482951	keystroke_t	t	n/a
241.6105	0.0745	483221	keystroke_r	r	n/a
241.7005	0.09	483401	keystroke_i	i	n/a
241.8505	0.105	483701	keystroke_c	c	n/a
241.9555	0.0895	483911	keystroke_i	i	n/a
242.045	0.0905	484090	keystroke_a	a	n/a
242.1955	0.12	484391	keystroke_Key.space	Key.space	n/a
242.5405	0.075	485081	keystroke_b	b	n/a
242.7055	0.105	485411	keystroke_e	e	n/a
242.8855	0.0745	485771	keystroke_t	t	n/a
243.0355	0.09	486071	keystroke_t	t	n/a
243.1105	0.0605	486221	keystroke_y	y	n/a
243.23	0.0755	486460	keystroke_Key.space	Key.space	n/a
243.4255	0.03	486851	keystroke_e	e	n/a
243.545	0.1505	487090	keystroke_v	v	n/a
243.7405	0.1195	487481	keystroke_e	e	n/a
243.921	0.1195	487842	keystroke_n	n	n/a
244.0105	0.09	488021	keystroke_t	t	n/a
244.2355	0.105	488471	keystroke_s	s	n/a
244.3705	0.0745	488741	keystroke_Key.enter	Key.enter	n/a
244.449	6.3585	488898	prompt	n/a	hepatitis nudist plenty seat\n
245.0905	0.105	490181	keystroke_h	h	n/a
245.2255	0.075	490451	keystroke_e	e	n/a
245.33	0.1205	490660	keystroke_p	p	n/a
245.4355	0.105	490871	keystroke_a	a	n/a
245.6755	0.075	491351	keystroke_t	t	n/a
245.7655	0.0905	491531	keystroke_i	i	n/a
245.8855	0.105	491771	keystroke_t	t	n/a
245.9755	0.075	491951	keystroke_i	i	n/a
246.156	0.044	492312	keystroke_s	s	n/a
246.321	0.12	492642	keystroke_Key.space	Key.space	n/a
247.0105	0.075	494021	keystroke_n	n	n/a
247.2055	0.06	494411	keystroke_u	u	n/a
247.3255	0.09	494651	keystroke_d	d	n/a
247.475	0.1205	494950	keystroke_i	i	n/a
247.6105	0.075	495221	keystroke_s	s	n/a
247.7005	0.0905	495401	keystroke_t	t	n/a
247.8355	0.12	495671	keystroke_Key.space	Key.space	n/a
248.0155	0.1045	496031	keystroke_p	p	n/a
248.1955	0.06	496391	keystroke_e	e	n/a
248.96	0.0455	497920	keystroke_Key.backspace	Key.backspace	n/a
249.1555	0.06	498311	keystroke_l	l	n/a
249.2755	0.0755	498551	keystroke_e	e	n/a
249.3655	0.09	498731	keystroke_n	n	n/a
249.5005	0.0755	499001	keystroke_t	t	n/a
249.6055	0.06	499211	keystroke_y	y	n/a
249.815	0.0905	499630	keystroke_Key.space	Key.space	n/a
250.026	0.0895	500052	keystroke_s	s	n/a
250.1765	0.134	500353	keystroke_e	e	n/a
250.371	0.1345	500742	keystroke_a	a	n/a
250.491	0.105	500982	keystroke_t	t	n/a
250.7005	0.1055	501401	keystroke_Key.enter	Key.enter	n/a
250.812	11.725	501624	prompt	n/a	plane vehicle pointed bookmarks\n
251.601	0.0445	503202	keystroke_p	p	n/a
251.9155	0.12	503831	keystroke_l	l	n/a
252.0505	0.075	504101	keystroke_a	a	n/a
252.141	0.135	504282	keystroke_n	n	n/a
252.2305	0.075	504461	keystroke_e	e	n/a
252.3205	0.105	504641	keystroke_Key.space	Key.space	n/a
252.471	0.0745	504942	keystroke_v	v	n/a
252.6055	0.0605	505211	keystroke_e	e	n/a
252.6955	0.135	505391	keystroke_h	h	n/a
252.8155	0.1055	505631	keystroke_i	i	n/a
252.9355	0.15	505871	keystroke_c	c	n/a
253.296	0.1195	506592	keystroke_l	l	n/a
253.386	0.0755	506772	keystroke_e	e	n/a
253.506	0.105	507012	keystroke_Key.space	Key.space	n/a
259.701	0.15	519402	keystroke_p	p	n/a
259.8665	0.0895	519733	keystroke_o	o	n/a
260.256	0.0895	520512	keystroke_i	i	n/a
260.466	0.105	520932	keystroke_n	n	n/a
260.6605	0.1055	521321	keystroke_t	t	n/a
260.736	0.075	521472	keystroke_e	e	n/a
260.886	0.105	521772	keystroke_d	d	n/a
261.036	0.105	522072	keystroke_Key.space	Key.space	n/a
261.2605	0.0755	522521	keystroke_b	b	n/a
261.336	0.075	522672	keystroke_o	o	n/a
261.486	0.15	522972	keystroke_o	o	n/a
261.606	0.12	523212	keystroke_k	k	n/a
261.8305	0.1355	523661	keystroke_m	m	n/a
261.9515	0.1045	523903	keystroke_a	a	n/a
262.071	0.105	524142	keystroke_r	r	n/a
262.191	0.15	524382	keystroke_k	k	n/a
262.326	0.1045	524652	keystroke_s	s	n/a
262.4455	0.0905	524891	keystroke_Key.enter	Key.enter	n/a
262.54	5.517	525080	prompt	n/a	pencil americas chances salaries\n
263.271	0.135	526542	keystroke_p	p	n/a
263.391	0.0895	526782	keystroke_e	e	n/a
263.4955	0.0905	526991	keystroke_n	n	n/a
263.6455	0.1505	527291	keystroke_c	c	n/a
263.7365	0.1195	527473	keystroke_i	i	n/a
263.916	0.15	527832	keystroke_l	l	n/a
264.051	0.1355	528102	keystroke_Key.space	Key.space	n/a
264.441	0.1195	528882	keystroke_a	a	n/a
264.5305	0.0905	529061	keystroke_m	m	n/a
264.636	0.105	529272	keystroke_e	e	n/a
264.711	0.0595	529422	keystroke_r	r	n/a
264.8455	0.1205	529691	keystroke_i	i	n/a
264.981	0.135	529962	keystroke_c	c	n/a
265.1305	0.1205	530261	keystroke_a	a	n/a
265.206	0.135	530412	keystroke_s	s	n/a
265.4455	0.0755	530891	keystroke_Key.space	Key.space	n/a
265.926	0.1195	531852	keystroke_c	c	n/a
265.971	0.1045	531942	keystroke_h	h	n/a
266.0905	0.1205	532181	keystroke_a	a	n/a
266.196	0.105	532392	keystroke_n	n	n/a
266.316	0.165	532632	keystroke_c	c	n/a
266.4215	0.1195	532843	keystroke_e	e	n/a
266.601	0.105	533202	keystroke_s	s	n/a
266.751	0.09	533502	keystroke_Key.space	Key.space	n/a
266.8715	0.1195	533743	keystroke_s	s	n/a
267.036	0.135	534072	keystroke_a	a	n/a
267.156	0.0895	534312	keystroke_l	l	n/a
267.2605	0.1055	534521	keystroke_a	a	n/a
267.351	0.09	534702	keystroke_r	r	n/a
267.441	0.0895	534882	keystroke_a	a	n/a
267.576	0.12	535152	keystroke_i	i	n/a
267.666	0.09	535332	keystroke_e	e	n/a
267.8455	0.135	535691	keystroke_s	s	n/a
267.951	0.105	535902	keystroke_Key.enter	Key.enter	n/a
268.0615	4.8555	536123	prompt	n/a	away thumb drove intervals\n
269.106	0.09	538212	keystroke_a	a	n/a
269.271	0.0745	538542	keystroke_w	w	n/a
269.421	0.105	538842	keystroke_a	a	n/a
269.511	0.105	539022	keystroke_y	y	n/a
269.616	0.09	539232	keystroke_Key.space	Key.space	n/a
269.811	0.0745	539622	keystroke_t	t	n/a
269.871	0.0745	539742	keystroke_h	h	n/a
270.021	0.06	540042	keystroke_u	u	n/a
270.2305	0.0905	540461	keystroke_m	m	n/a
270.351	0.09	540702	keystroke_b	b	n/a
270.456	0.135	540912	keystroke_Key.space	Key.space	n/a
270.711	0.075	541422	keystroke_d	d	n/a
270.876	0.075	541752	keystroke_r	r	n/a
271.011	0.1345	542022	keystroke_o	o	n/a
271.116	0.15	542232	keystroke_v	v	n/a
271.251	0.075	542502	keystroke_e	e	n/a
271.401	0.105	542802	keystroke_Key.space	Key.space	n/a
271.581	0.12	543162	keystroke_i	i	n/a
271.716	0.12	543432	keystroke_n	n	n/a
271.791	0.105	543582	keystroke_t	t	n/a
271.971	0.0895	543942	keystroke_e	e	n/a
272.0305	0.0755	544061	keystroke_r	r	n/a
272.226	0.1045	544452	keystroke_v	v	n/a
272.316	0.105	544632	keystroke_a	a	n/a
272.526	0.1045	545052	keystroke_l	l	n/a
272.6765	0.1195	545353	keystroke_s	s	n/a
272.841	0.075	545682	keystroke_Key.enter	Key.enter	n/a
272.9195	4.9625	545839	prompt	n/a	feeding circuit acts interact\n
273.576	0.12	547152	keystroke_f	f	n/a
273.711	0.06	547422	keystroke_e	e	n/a
273.8605	0.0755	547721	keystroke_e	e	n/a
274.041	0.0895	548082	keystroke_d	d	n/a
274.221	0.12	548442	keystroke_i	i	n/a
274.296	0.1495	548592	keystroke_n	n	n/a
274.4305	0.075	548861	keystroke_g	g	n/a
274.536	0.135	549072	keystroke_Key.space	Key.space	n/a
274.716	0.105	549432	keystroke_c	c	n/a
274.851	0.105	549702	keystroke_i	i	n/a
274.956	0.0595	549912	keystroke_r	r	n/a
275.136	0.12	550272	keystroke_c	c	n/a
275.271	0.18	550542	keystroke_u	u	n/a
275.436	0.0745	550872	keystroke_i	i	n/a
275.556	0.1045	551112	keystroke_t	t	n/a
275.7055	0.0905	551411	keystroke_Key.space	Key.space	n/a
275.826	0.075	551652	keystroke_a	a	n/a
276.066	0.0605	552132	keystroke_c	c	n/a
276.2305	0.0905	552461	keystroke_t	t	n/a
276.396	0.105	552792	keystroke_s	s	n/a
276.516	0.135	553032	keystroke_Key.space	Key.space	n/a
276.6965	0.134	553393	keystroke_i	i	n/a
276.786	0.12	553572	keystroke_n	n	n/a
276.8605	0.075	553721	keystroke_t	t	n/a
277.041	0.1195	554082	keystroke_e	e	n/a
277.116	0.105	554232	keystroke_r	r	n/a
277.341	0.0895	554682	keystroke_a	a	n/a
277.476	0.0895	554952	keystroke_c	c	n/a
277.656	0.0895	555312	keystroke_t	t	n/a
277.791	0.09	555582	keystroke_Key.enter	Key.enter	n/a
277.8845	4.8275	555769	prompt	n/a	classes secrets sought replica\n
278.511	0.105	557022	keystroke_c	c	n/a
278.6305	0.1055	557261	keystroke_l	l	n/a
278.706	0.09	557412	keystroke_a	a	n/a
278.766	0.0745	557532	keystroke_s	s	n/a
278.9605	0.1055	557921	keystroke_s	s	n/a
279.111	0.105	558222	keystroke_e	e	n/a
279.2455	0.1205	558491	keystroke_s	s	n/a
279.396	0.12	558792	keystroke_Key.space	Key.space	n/a
279.636	0.12	559272	keystroke_s	s	n/a
279.726	0.1045	559452	keystroke_e	e	n/a
279.921	0.0745	559842	keystroke_c	c	n/a
280.101	0.12	560202	keystroke_r	r	n/a
280.236	0.105	560472	keystroke_e	e	n/a
280.371	0.0895	560742	keystroke_t	t	n/a
280.536	0.105	561072	keystroke_s	s	n/a
280.701	0.1045	561402	keystroke_Key.space	Key.space	n/a
280.836	0.105	561672	keystroke_s	s	n/a
280.911	0.165	561822	keystroke_o	o	n/a
280.956	0.1045	561912	keystroke_u	u	n/a
281.091	0.075	562182	keystroke_g	g	n/a
281.196	0.12	562392	keystroke_h	h	n/a
281.301	0.09	562602	keystroke_t	t	n/a
281.4205	0.1505	562841	keystroke_Key.space	Key.space	n/a
281.6605	0.1205	563321	keystroke_r	r	n/a
281.766	0.105	563532	keystroke_e	e	n/a
281.901	0.12	563802	keystroke_p	p	n/a
282.096	0.195	564192	keystroke_l	l	n/a
282.201	0.12	564402	keystroke_i	i	n/a
282.306	0.165	564612	keystroke_c	c	n/a
282.411	0.1345	564822	keystroke_a	a	n/a
282.606	0.105	565212	keystroke_Key.enter	Key.enter	n/a
282.7145	6.4025	565429	prompt	n/a	prot watched recycling several\n
283.371	0.0895	566742	keystroke_p	p	n/a
283.4605	0.0905	566921	keystroke_r	r	n/a
283.596	0.12	567192	keystroke_o	o	n/a
283.7305	0.1055	567461	keystroke_t	t	n/a
283.806	0.12	567612	keystroke_Key.space	Key.space	n/a
284.181	0.075	568362	keystroke_w	w	n/a
284.3455	0.0905	568691	keystroke_a	a	n/a
284.406	0.075	568812	keystroke_t	t	n/a
284.6005	0.1205	569201	keystroke_h	h	n/a
285.216	0.0445	570432	keystroke_Key.backspace	Key.backspace	n/a
285.2755	0.1055	570551	keystroke_c	c	n/a
285.396	0.09	570792	keystroke_h	h	n/a
285.516	0.075	571032	keystroke_e	e	n/a
285.696	0.0905	571392	keystroke_d	d	n/a
285.801	0.12	571602	keystroke_Key.space	Key.space	n/a
286.206	0.12	572412	keystroke_r	r	n/a
286.296	0.075	572592	keystroke_e	e	n/a
286.4605	0.0905	572921	keystroke_c	c	n/a
286.581	0.075	573162	keystroke_y	y	n/a
287.1655	0.0755	574331	keystroke_c	c	n/a
287.256	0.135	574512	keystroke_l	l	n/a
287.3605	0.1655	574721	keystroke_i	i	n/a
287.451	0.12	574902	keystroke_n	n	n/a
287.541	0.0895	575082	keystroke_g	g	n/a
287.766	0.135	575532	keystroke_Key.space	Key.space	n/a
288.141	0.0895	576282	keystroke_s	s	n/a
288.321	0.06	576642	keystroke_e	e	n/a
288.471	0.0895	576942	keystroke_v	v	n/a
288.591	0.135	577182	keystroke_e	e	n/a
288.711	0.09	577422	keystroke_r	r	n/a
288.816	0.075	577632	keystroke_a	a	n/a
288.906	0.045	577812	keystroke_l	l	n/a
289.0405	0.0755	578081	keystroke_Key.enter	Key.enter	n/a
289.1195	10.407	578239	prompt	n/a	scales hans inspection donors\n
289.7305	0.045	579461	keystroke_s	s	n/a
289.956	0.1045	579912	keystroke_c	c	n/a
290.016	0.135	580032	keystroke_a	a	n/a
290.166	0.12	580332	keystroke_l	l	n/a
290.226	0.075	580452	keystroke_e	e	n/a
290.3755	0.0755	580751	keystroke_s	s	n/a
290.466	0.075	580932	keystroke_Key.space	Key.space	n/a
296.0455	0.09	592091	keystroke_h	h	n/a
296.256	0.1045	592512	keystroke_a	a	n/a
296.3605	0.1055	592721	keystroke_n	n	n/a
296.451	0.135	592902	keystroke_s	s	n/a
296.6455	0.135	593291	keystroke_Key.space	Key.space	n/a
296.9305	0.1355	593861	keystroke_i	i	n/a
296.991	0.12	593982	keystroke_n	n	n/a
297.036	0.09	594072	keystroke_s	s	n/a
297.186	0.105	594372	keystroke_p	p	n/a
297.261	0.075	594522	keystroke_e	e	n/a
297.411	0.09	594822	keystroke_c	c	n/a
297.606	0.075	595212	keystroke_t	t	n/a
297.711	0.1345	595422	keystroke_i	i	n/a
297.786	0.15	595572	keystroke_o	o	n/a
297.921	0.1195	595842	keystroke_n	n	n/a
298.0405	0.1505	596081	keystroke_Key.space	Key.space	n/a
298.6405	0.06	597281	keystroke_d	d	n/a
298.7455	0.1355	597491	keystroke_o	o	n/a
298.866	0.105	597732	keystroke_n	n	n/a
299.0305	0.0905	598061	keystroke_o	o	n/a
299.166	0.075	598332	keystroke_r	r	n/a
299.346	0.09	598692	keystroke_s	s	n/a
299.421	0.105	598842	keystroke_Key.enter	Key.enter	n/a
299.5295	7.6775	599059	prompt	n/a	portraits 'twas grande constitutes\n
300.366	0.075	600732	keystroke_p	p	n/a
300.666	0.075	601332	keystroke_o	o	n/a
300.801	0.0595	601602	keystroke_r	r	n/a
300.951	0.09	601902	keystroke_t	t	n/a
301.191	0.135	602382	keystroke_r	r	n/a
301.341	0.1045	602682	keystroke_a	a	n/a
301.4605	0.1215	602921	keystroke_i	i	n/a
301.566	0.075	603132	keystroke_t	t	n/a
301.671	0.105	603342	keystroke_s	s	n/a
301.821	0.0895	603642	keystroke_Key.space	Key.space	n/a
302.5115	0.0895	605023	keystroke_'	'	n/a
302.6305	0.1055	605261	keystroke_t	t	n/a
302.7815	0.1045	605563	keystroke_w	w	n/a
302.976	0.12	605952	keystroke_a	a	n/a
303.036	0.1195	606072	keystroke_s	s	n/a
303.186	0.105	606372	keystroke_Key.space	Key.space	n/a
303.5905	0.0755	607181	keystroke_g	g	n/a
303.756	0.0895	607512	keystroke_r	r	n/a
303.8605	0.0905	607721	keystroke_a	a	n/a
304.011	0.1055	608022	keystroke_n	n	n/a
304.086	0.0595	608172	keystroke_d	d	n/a
304.236	0.06	608472	keystroke_e	e	n/a
304.641	0.1195	609282	keystroke_Key.space	Key.space	n/a
305.151	0.105	610302	keystroke_c	c	n/a
305.271	0.135	610542	keystroke_o	o	n/a
305.3455	0.1355	610691	keystroke_n	n	n/a
305.391	0.105	610782	keystroke_s	s	n/a
305.826	0.045	611652	keystroke_t	t	n/a
305.886	0.0745	611772	keystroke_i	i	n/a
306.261	0.06	612522	keystroke_t	t	n/a
306.3515	0.0895	612703	keystroke_u	u	n/a
306.681	0.06	613362	keystroke_t	t	n/a
306.816	0.06	613632	keystroke_e	e	n/a
306.981	0.06	613962	keystroke_s	s	n/a
307.1455	0.0605	614291	keystroke_Key.enter	Key.enter	n/a
307.2095	7.2875	614419	prompt	n/a	revisions towards please pattern\n
308.001	0.12	616002	keystroke_r	r	n/a
308.091	0.075	616182	keystroke_e	e	n/a
308.271	0.0745	616542	keystroke_v	v	n/a
308.3605	0.0605	616721	keystroke_i	i	n/a
308.4365	0.0895	616873	keystroke_s	s	n/a
308.556	0.195	617112	keystroke_i	i	n/a
308.6305	0.1655	617261	keystroke_o	o	n/a
308.721	0.12	617442	keystroke_n	n	n/a
308.826	0.0895	617652	keystroke_s	s	n/a
308.9455	0.1055	617891	keystroke_Key.space	Key.space	n/a
309.5305	0.0755	619061	keystroke_t	t	n/a
309.621	0.105	619242	keystroke_o	o	n/a
309.681	0.105	619362	keystroke_w	w	n/a
309.8305	0.1355	619661	keystroke_a	a	n/a
309.891	0.105	619782	keystroke_r	r	n/a
310.116	0.105	620232	keystroke_d	d	n/a
310.2055	0.1055	620411	keystroke_s	s	n/a
310.356	0.1045	620712	keystroke_Key.space	Key.space	n/a
310.551	0.45	621102	keystroke_d	d	n/a
310.566	0.4795	621132	keystroke_s	s	n/a
310.941	0.075	621882	keystroke_p	p	n/a
311.301	0.0595	622602	keystroke_Key.backspace	Key.backspace	n/a
311.421	0.0745	622842	keystroke_Key.backspace	Key.backspace	n/a
311.571	0.0595	623142	keystroke_Key.backspace	Key.backspace	n/a
311.9605	0.0905	623921	keystroke_p	p	n/a
312.186	0.0595	624372	keystroke_l	l	n/a
312.306	0.06	624612	keystroke_e	e	n/a
312.441	0.135	624882	keystroke_a	a	n/a
312.681	0.12	625362	keystroke_s	s	n/a
312.816	0.075	625632	keystroke_e	e	n/a
312.996	0.045	625992	keystroke_Key.space	Key.space	n/a
313.221	0.105	626442	keystroke_p	p	n/a
313.311	0.0895	626622	keystroke_a	a	n/a
313.4455	0.0755	626891	keystroke_t	t	n/a
313.611	0.075	627222	keystroke_t	t	n/a
313.866	0.1795	627732	keystroke_e	e	n/a
314.0605	0.0755	628121	keystroke_r	r	n/a
314.181	0.1205	628362	keystroke_n	n	n/a
314.391	0.105	628782	keystroke_Key.enter	Key.enter	n/a
314.5	8.037	629000	prompt	n/a	influenced attended dawn guatemala\n
315.2455	0.1205	630491	keystroke_i	i	n/a
315.351	0.135	630702	keystroke_n	n	n/a
315.471	0.075	630942	keystroke_f	f	n/a
315.5605	0.1955	631121	keystroke_l	l	n/a
315.621	0.12	631242	keystroke_u	u	n/a
315.786	0.0745	631572	keystroke_e	e	n/a
315.906	0.12	631812	keystroke_n	n	n/a
316.0715	0.1645	632143	keystroke_c	c	n/a
316.206	0.105	632412	keystroke_e	e	n/a
316.416	0.0895	632832	keystroke_d	d	n/a
316.521	0.12	633042	keystroke_Key.space	Key.space	n/a
316.656	0.12	633312	keystroke_a	a	n/a
316.836	0.075	633672	keystroke_t	t	n/a
317.001	0.09	634002	keystroke_t	t	n/a
317.076	0.12	634152	keystroke_e	e	n/a
317.226	0.1345	634452	keystroke_n	n	n/a
317.316	0.105	634632	keystroke_d	d	n/a
317.496	0.075	634992	keystroke_e	e	n/a
317.6765	0.0895	635353	keystroke_d	d	n/a
317.781	0.1195	635562	keystroke_Key.space	Key.space	n/a
317.9605	0.0905	635921	keystroke_d	d	n/a
318.366	0.045	636732	keystroke_a	a	n/a
318.756	0.0895	637512	keystroke_w	w	n/a
319.011	0.1345	638022	keystroke_n	n	n/a
319.1755	0.1355	638351	keystroke_Key.space	Key.space	n/a
319.416	0.09	638832	keystroke_g	g	n/a
319.536	0.09	639072	keystroke_a	a	n/a
319.866	0.075	639732	keystroke_u	u	n/a
320.376	0.0595	640752	keystroke_Key.backspace	Key.backspace	n/a
320.481	0.06	640962	keystroke_Key.backspace	Key.backspace	n/a
320.6455	0.0605	641291	keystroke_u	u	n/a
320.781	0.12	641562	keystroke_a	a	n/a
321.006	0.0745	642012	keystroke_t	t	n/a
321.171	0.0745	642342	keystroke_e	e	n/a
321.351	0.135	642702	keystroke_m	m	n/a
321.9965	0.0595	643993	keystroke_a	a	n/a
322.116	0.09	644232	keystroke_l	l	n/a
322.221	0.075	644442	keystroke_a	a	n/a
322.446	0.09	644892	keystroke_Key.enter	Key.enter	n/a
322.5395	6.807	645079	prompt	n/a	tremendous cleanup peripheral volume\n
323.301	0.075	646602	keystroke_t	t	n/a
323.316	0.0445	646632	keystroke_r	r	n/a
323.466	0.09	646932	keystroke_r	r	n/a
323.496	0.105	646992	keystroke_e	e	n/a
323.6305	0.0905	647261	keystroke_m	m	n/a
323.706	0.105	647412	keystroke_e	e	n/a
323.871	0.0895	647742	keystroke_n	n	n/a
323.9455	0.0905	647891	keystroke_d	d	n/a
324.156	0.195	648312	keystroke_o	o	n/a
324.231	0.1345	648462	keystroke_u	u	n/a
324.381	0.0605	648762	keystroke_s	s	n/a
324.471	0.105	648942	keystroke_Key.space	Key.space	n/a
324.8305	0.1355	649661	keystroke_c	c	n/a
324.9205	0.1205	649841	keystroke_l	l	n/a
325.011	0.075	650022	keystroke_e	e	n/a
325.101	0.105	650202	keystroke_a	a	n/a
325.326	0.06	650652	keystroke_n	n	n/a
325.5365	0.0895	651073	keystroke_u	u	n/a
325.7605	0.1055	651521	keystroke_p	p	n/a
325.956	0.12	651912	keystroke_Key.space	Key.space	n/a
326.3605	0.0905	652721	keystroke_p	p	n/a
326.466	0.135	652932	keystroke_e	e	n/a
326.571	0.105	653142	keystroke_r	r	n/a
326.856	0.1045	653712	keystroke_i	i	n/a
327.081	0.12	654162	keystroke_p	p	n/a
327.156	0.1045	654312	keystroke_h	h	n/a
327.411	0.0895	654822	keystroke_e	e	n/a
327.456	0.12	654912	keystroke_r	r	n/a
327.651	0.09	655302	keystroke_a	a	n/a
327.756	0.1045	655512	keystroke_l	l	n/a
327.8605	0.1205	655721	keystroke_Key.space	Key.space	n/a
328.1305	0.0605	656261	keystroke_v	v	n/a
328.506	0.06	657012	keystroke_o	o	n/a
328.671	0.135	657342	keystroke_l	l	n/a
328.7455	0.0755	657491	keystroke_u	u	n/a
328.941	0.1195	657882	keystroke_m	m	n/a
329.076	0.105	658152	keystroke_e	e	n/a
329.211	0.1345	658422	keystroke_Key.enter	Key.enter	n/a
329.349	7.918	658698	prompt	n/a	shirts household view compatibility\n
329.991	0.09	659982	keystroke_s	s	n/a
330.066	0.105	660132	keystroke_h	h	n/a
330.186	0.09	660372	keystroke_i	i	n/a
330.2605	0.0605	660521	keystroke_r	r	n/a
330.396	0.075	660792	keystroke_t	t	n/a
330.5755	0.091	661151	keystroke_s	s	n/a
330.711	0.09	661422	keystroke_Key.space	Key.space	n/a
330.951	0.09	661902	keystroke_h	h	n/a
331.0865	0.1645	662173	keystroke_o	o	n/a
331.176	0.09	662352	keystroke_u	u	n/a
331.281	0.1055	662562	keystroke_s	s	n/a
331.356	0.0895	662712	keystroke_e	e	n/a
331.566	0.09	663132	keystroke_h	h	n/a
331.701	0.075	663402	keystroke_o	o	n/a
331.881	0.0895	663762	keystroke_l	l	n/a
331.9555	0.0605	663911	keystroke_d	d	n/a
332.0605	0.1055	664121	keystroke_Key.space	Key.space	n/a
332.436	0.075	664872	keystroke_v	v	n/a
332.511	0.0895	665022	keystroke_i	i	n/a
332.6605	0.1055	665321	keystroke_e	e	n/a
332.751	0.105	665502	keystroke_w	w	n/a
332.976	0.12	665952	keystroke_Key.space	Key.space	n/a
333.486	0.105	666972	keystroke_c	c	n/a
333.606	0.21	667212	keystroke_o	o	n/a
333.726	0.135	667452	keystroke_m	m	n/a
334.026	0.09	668052	keystroke_a	a	n/a
334.191	0.09	668382	keystroke_p	p	n/a
334.566	0.06	669132	keystroke_Key.backspace	Key.backspace	n/a
334.641	0.0895	669282	keystroke_Key.backspace	Key.backspace	n/a
335.376	0.075	670752	keystroke_p	p	n/a
335.526	0.1045	671052	keystroke_a	a	n/a
335.706	0.0895	671412	keystroke_t	t	n/a
335.8105	0.0755	671621	keystroke_i	i	n/a
336.2455	0.1055	672491	keystroke_b	b	n/a
336.291	0.075	672582	keystroke_i	i	n/a
336.4555	0.1355	672911	keystroke_l	l	n/a
336.5305	0.1205	673061	keystroke_i	i	n/a
336.636	0.09	673272	keystroke_t	t	n/a
336.786	0.0745	673572	keystroke_y	y	n/a
337.176	0.09	674352	keystroke_Key.enter	Key.enter	n/a
337.271	4.811	674542	prompt	n/a	pack aruba pick accessed\n
338.0155	0.105	676031	keystroke_p	p	n/a
338.106	0.1355	676212	keystroke_a	a	n/a
338.2415	0.134	676483	keystroke_c	c	n/a
338.3605	0.1205	676721	keystroke_k	k	n/a
338.451	0.135	676902	keystroke_Key.space	Key.space	n/a
338.826	0.15	677652	keystroke_a	a	n/a
338.9605	0.0905	677921	keystroke_r	r	n/a
339.201	0.075	678402	keystroke_u	u	n/a
339.351	0.09	678702	keystroke_b	b	n/a
339.516	0.0905	679032	keystroke_a	a	n/a
339.666	0.075	679332	keystroke_Key.space	Key.space	n/a
339.786	0.18	679572	keystroke_p	p	n/a
339.996	0.105	679992	keystroke_i	i	n/a
340.191	0.135	680382	keystroke_c	c	n/a
340.311	0.1345	680622	keystroke_k	k	n/a
340.4305	0.1205	680861	keystroke_Key.space	Key.space	n/a
340.7455	0.1055	681491	keystroke_a	a	n/a
340.911	0.075	681822	keystroke_c	c	n/a
341.076	0.105	682152	keystroke_c	c	n/a
341.151	0.09	682302	keystroke_e	e	n/a
341.316	0.09	682632	keystroke_s	s	n/a
341.496	0.105	682992	keystroke_s	s	n/a
341.676	0.105	683352	keystroke_e	e	n/a
341.871	0.12	683742	keystroke_d	d	n/a
341.976	0.105	683952	keystroke_Key.enter	Key.enter	n/a
342.0845	5.983	684169	prompt	n/a	harold sized dealt beatles\n
342.816	0.0745	685632	keystroke_h	h	n/a
342.996	0.12	685992	keystroke_a	a	n/a
343.086	0.09	686172	keystroke_r	r	n/a
343.281	0.075	686562	keystroke_o	o	n/a
343.4455	0.0905	686891	keystroke_l	l	n/a
343.4755	0.0905	686951	keystroke_d	d	n/a
343.581	0.135	687162	keystroke_Key.space	Key.space	n/a
343.7305	0.0755	687461	keystroke_s	s	n/a
343.866	0.105	687732	keystroke_i	i	n/a
343.9855	0.15	687971	keystroke_z	z	n/a
344.166	0.105	688332	keystroke_e	e	n/a
344.3605	0.1055	688721	keystroke_d	d	n/a
344.511	0.075	689022	keystroke_Key.space	Key.space	n/a
344.9905	0.0455	689981	keystroke_d	d	n/a
345.126	0.075	690252	keystroke_e	e	n/a
345.2305	0.1205	690461	keystroke_a	a	n/a
345.4105	0.12	690821	keystroke_l	l	n/a
345.651	0.09	691302	keystroke_t	t	n/a
345.756	0.0895	691512	keystroke_h	h	n/a
346.326	0.06	692652	keystroke_Key.backspace	Key.backspace	n/a
346.4305	0.1355	692861	keystroke_Key.space	Key.space	n/a
346.821	0.075	693642	keystroke_b	b	n/a
346.971	0.12	693942	keystroke_e	e	n/a
347.136	0.12	694272	keystroke_a	a	n/a
347.436	0.09	694872	keystroke_t	t	n/a
347.6305	0.1355	695261	keystroke_l	l	n/a
347.691	0.0905	695382	keystroke_e	e	n/a
347.856	0.1345	695712	keystroke_s	s	n/a
347.9755	0.0905	695951	keystroke_Key.enter	Key.enter	n/a
348.07	5.727	696140	prompt	n/a	entertainment animation nova shark\n
348.786	0.12	697572	keystroke_e	e	n/a
348.936	0.09	697872	keystroke_n	n	n/a
349.011	0.075	698022	keystroke_t	t	n/a
349.1455	0.1355	698291	keystroke_e	e	n/a
349.2505	0.0755	698501	keystroke_r	r	n/a
349.4305	0.0755	698861	keystroke_t	t	n/a
349.581	0.09	699162	keystroke_a	a	n/a
349.7455	0.15	699491	keystroke_i	i	n/a
349.836	0.09	699672	keystroke_n	n	n/a
350.0455	0.0755	700091	keystroke_m	m	n/a
350.136	0.075	700272	keystroke_e	e	n/a
350.241	0.0895	700482	keystroke_n	n	n/a
350.316	0.075	700632	keystroke_t	t	n/a
350.376	0.135	700752	keystroke_Key.space	Key.space	n/a
350.556	0.1045	701112	keystroke_a	a	n/a
350.691	0.09	701382	keystroke_n	n	n/a
350.841	0.15	701682	keystroke_i	i	n/a
350.976	0.15	701952	keystroke_m	m	n/a
351.141	0.075	702282	keystroke_a	a	n/a
351.276	0.105	702552	keystroke_t	t	n/a
351.441	0.1195	702882	keystroke_i	i	n/a
351.636	0.15	703272	keystroke_o	o	n/a
351.741	0.1045	703482	keystroke_n	n	n/a
351.8305	0.121	703661	keystroke_Key.space	Key.space	n/a
352.041	0.075	704082	keystroke_n	n	n/a
352.1305	0.0905	704261	keystroke_o	o	n/a
352.386	0.135	704772	keystroke_v	v	n/a
352.566	0.1355	705132	keystroke_a	a	n/a
352.806	0.105	705612	keystroke_Key.space	Key.space	n/a
353.001	0.0895	706002	keystroke_s	s	n/a
353.0755	0.1055	706151	keystroke_h	h	n/a
353.211	0.105	706422	keystroke_a	a	n/a
353.286	0.1195	706572	keystroke_r	r	n/a
353.511	0.09	707022	keystroke_k	k	n/a
353.691	0.105	707382	keystroke_Key.enter	Key.enter	n/a
353.7995	7.1375	707599	prompt	n/a	mature they'd story taxation\n
354.471	0.105	708942	keystroke_m	m	n/a
354.5455	0.1055	709091	keystroke_a	a	n/a
354.696	0.09	709392	keystroke_u	u	n/a
354.771	0.0895	709542	keystroke_t	t	n/a
355.326	0.045	710652	keystroke_Key.backspace	Key.backspace	n/a
355.4305	0.0755	710861	keystroke_Key.backspace	Key.backspace	n/a
355.491	0.09	710982	keystroke_t	t	n/a
355.626	0.075	711252	keystroke_u	u	n/a
355.716	0.15	711432	keystroke_r	r	n/a
355.806	0.09	711612	keystroke_e	e	n/a
355.881	0.105	711762	keystroke_Key.space	Key.space	n/a
356.0455	0.0755	712091	keystroke_e	e	n/a
356.3605	0.0755	712721	keystroke_t	t	n/a
356.616	0.0445	713232	keystroke_Key.backspace	Key.backspace	n/a
356.7215	0.0745	713443	keystroke_Key.backspace	Key.backspace	n/a
356.811	0.075	713622	keystroke_t	t	n/a
356.9155	0.076	713831	keystroke_h	h	n/a
357.051	0.09	714102	keystroke_e	e	n/a
357.1715	0.059	714343	keystroke_y	y	n/a
357.396	0.075	714792	keystroke_'	'	n/a
357.531	0.0595	715062	keystroke_d	d	n/a
357.681	0.075	715362	keystroke_Key.space	Key.space	n/a
358.1605	0.06	716321	keystroke_s	s	n/a
358.266	0.105	716532	keystroke_t	t	n/a
358.386	0.15	716772	keystroke_o	o	n/a
358.491	0.09	716982	keystroke_r	r	n/a
358.641	0.1045	717282	keystroke_y	y	n/a
358.7605	0.1205	717521	keystroke_Key.space	Key.space	n/a
359.0455	0.0905	718091	keystroke_t	t	n/a
359.196	0.0605	718392	keystroke_a	a	n/a
359.376	0.09	718752	keystroke_x	x	n/a
359.841	0.075	719682	keystroke_a	a	n/a
360.171	0.0895	720342	keystroke_t	t	n/a
360.306	0.165	720612	keystroke_i	i	n/a
360.471	0.21	720942	keystroke_o	o	n/a
360.621	0.105	721242	keystroke_n	n	n/a
360.801	0.135	721602	keystroke_Key.enter	Key.enter	n/a
360.94	4.932	721880	prompt	n/a	corn wrong teachers children\n
361.671	0.105	723342	keystroke_c	c	n/a
361.776	0.105	723552	keystroke_o	o	n/a
361.896	0.09	723792	keystroke_r	r	n/a
362.001	0.12	724002	keystroke_n	n	n/a
362.106	0.12	724212	keystroke_Key.space	Key.space	n/a
362.301	0.12	724602	keystroke_w	w	n/a
362.466	0.1195	724932	keystroke_r	r	n/a
362.841	0.0895	725682	keystroke_o	o	n/a
363.006	0.121	726012	keystroke_n	n	n/a
363.111	0.0905	726222	keystroke_g	g	n/a
363.216	0.105	726432	keystroke_Key.space	Key.space	n/a
363.3815	0.09	726763	keystroke_t	t	n/a
363.531	0.1055	727062	keystroke_e	e	n/a
363.7415	0.1195	727483	keystroke_a	a	n/a
363.8305	0.1355	727661	keystroke_c	c	n/a
363.9805	0.1355	727961	keystroke_h	h	n/a
364.1015	0.1495	728203	keystroke_e	e	n/a
364.1915	0.1195	728383	keystroke_r	r	n/a
364.386	0.1205	728772	keystroke_s	s	n/a
364.536	0.12	729072	keystroke_Key.space	Key.space	n/a
364.641	0.135	729282	keystroke_c	c	n/a
364.716	0.135	729432	keystroke_h	h	n/a
364.791	0.165	729582	keystroke_i	i	n/a
364.911	0.1195	729822	keystroke_l	l	n/a
365.091	0.09	730182	keystroke_d	d	n/a
365.271	0.15	730542	keystroke_r	r	n/a
365.361	0.1355	730722	keystroke_e	e	n/a
365.556	0.1045	731112	keystroke_n	n	n/a
365.766	0.1055	731532	keystroke_Key.enter	Key.enter	n/a
365.875	6.207	731750	prompt	n/a	scientist calculations translate badly\n
366.531	0.1355	733062	keystroke_s	s	n/a
366.621	0.09	733242	keystroke_c	c	n/a
366.726	0.105	733452	keystroke_i	i	n/a
366.831	0.09	733662	keystroke_e	e	n/a
366.936	0.12	733872	keystroke_n	n	n/a
367.041	0.1045	734082	keystroke_t	t	n/a
367.161	0.105	734322	keystroke_i	i	n/a
367.281	0.105	734562	keystroke_s	s	n/a
367.356	0.1045	734712	keystroke_t	t	n/a
367.476	0.105	734952	keystroke_Key.space	Key.space	n/a
367.701	0.135	735402	keystroke_c	c	n/a
367.7915	0.1345	735583	keystroke_a	a	n/a
367.911	0.105	735822	keystroke_l	l	n/a
368.0305	0.151	736061	keystroke_c	c	n/a
368.1815	0.09	736363	keystroke_u	u	n/a
368.2715	0.1195	736543	keystroke_l	l	n/a
368.376	0.165	736752	keystroke_a	a	n/a
368.526	0.1345	737052	keystroke_t	t	n/a
368.691	0.24	737382	keystroke_i	i	n/a
368.796	0.21	737592	keystroke_o	o	n/a
368.916	0.15	737832	keystroke_n	n	n/a
369.036	0.105	738072	keystroke_s	s	n/a
369.171	0.12	738342	keystroke_Key.space	Key.space	n/a
369.471	0.105	738942	keystroke_t	t	n/a
369.6365	0.0895	739273	keystroke_r	r	n/a
369.696	0.105	739392	keystroke_a	a	n/a
369.801	0.105	739602	keystroke_n	n	n/a
369.921	0.0605	739842	keystroke_s	s	n/a
370.296	0.09	740592	keystroke_l	l	n/a
370.4455	0.1505	740891	keystroke_a	a	n/a
370.566	0.15	741132	keystroke_t	t	n/a
370.7455	0.0905	741491	keystroke_e	e	n/a
370.941	0.1195	741882	keystroke_Key.space	Key.space	n/a
371.241	0.0755	742482	keystroke_b	b	n/a
371.361	0.135	742722	keystroke_a	a	n/a
371.511	0.1345	743022	keystroke_d	d	n/a
371.6905	0.181	743381	keystroke_l	l	n/a
371.811	0.075	743622	keystroke_y	y	n/a
371.991	0.09	743982	keystroke_Key.enter	Key.enter	n/a
372.085	7.722	744170	prompt	n/a	saying cholesterol payable durable\n
373.101	0.075	746202	keystroke_s	s	n/a
373.221	0.105	746442	keystroke_a	a	n/a
373.311	0.09	746622	keystroke_y	y	n/a
373.506	0.15	747012	keystroke_i	i	n/a
373.5805	0.1355	747161	keystroke_n	n	n/a
373.671	0.0745	747342	keystroke_g	g	n/a
373.7305	0.1355	747461	keystroke_Key.space	Key.space	n/a
374.4515	0.1195	748903	keystroke_c	c	n/a
374.511	0.1195	749022	keystroke_h	h	n/a
374.751	0.105	749502	keystroke_o	o	n/a
374.916	0.0905	749832	keystroke_l	l	n/a
375.006	0.06	750012	keystroke_e	e	n/a
375.141	0.0895	750282	keystroke_s	s	n/a
375.2455	0.0905	750491	keystroke_t	t	n/a
376.026	0.0895	752052	keystroke_e	e	n/a
376.086	0.105	752172	keystroke_r	r	n/a
376.221	0.09	752442	keystroke_o	o	n/a
376.401	0.075	752802	keystroke_l	l	n/a
376.491	0.1205	752982	keystroke_Key.space	Key.space	n/a
377.3605	0.1505	754721	keystroke_p	p	n/a
377.4365	0.0895	754873	keystroke_a	a	n/a
377.556	0.0745	755112	keystroke_y	y	n/a
377.6155	0.1055	755231	keystroke_a	a	n/a
377.871	0.0745	755742	keystroke_b	b	n/a
377.976	0.09	755952	keystroke_l	l	n/a
378.081	0.09	756162	keystroke_e	e	n/a
378.276	0.0755	756552	keystroke_Key.space	Key.space	n/a
378.996	0.105	757992	keystroke_d	d	n/a
379.116	0.09	758232	keystroke_u	u	n/a
379.176	0.075	758352	keystroke_r	r	n/a
379.281	0.1495	758562	keystroke_a	a	n/a
379.386	0.105	758772	keystroke_b	b	n/a
379.522	0.074	759044	keystroke_l	l	n/a
379.626	0.06	759252	keystroke_e	e	n/a
379.7455	0.0605	759491	keystroke_Key.enter	Key.enter	n/a
379.81	5.1125	759620	prompt	n/a	screensavers toys yard fees\n
380.5565	0.104	761113	keystroke_s	s	n/a
380.691	0.075	761382	keystroke_c	c	n/a
380.871	0.105	761742	keystroke_r	r	n/a
380.9305	0.076	761861	keystroke_e	e	n/a
381.096	0.075	762192	keystroke_e	e	n/a
381.186	0.0895	762372	keystroke_n	n	n/a
381.2905	0.1205	762581	keystroke_s	s	n/a
381.426	0.15	762852	keystroke_a	a	n/a
381.5455	0.1505	763091	keystroke_v	v	n/a
381.771	0.136	763542	keystroke_e	e	n/a
381.8755	0.1055	763751	keystroke_r	r	n/a
382.0565	0.089	764113	keystroke_s	s	n/a
382.191	0.075	764382	keystroke_Key.space	Key.space	n/a
382.311	0.075	764622	keystroke_t	t	n/a
382.401	0.0905	764802	keystroke_o	o	n/a
382.566	0.09	765132	keystroke_y	y	n/a
382.686	0.09	765372	keystroke_s	s	n/a
382.806	0.09	765612	keystroke_Key.space	Key.space	n/a
383.016	0.0605	766032	keystroke_y	y	n/a
383.151	0.15	766302	keystroke_a	a	n/a
383.451	0.12	766902	keystroke_r	r	n/a
383.6305	0.12	767261	keystroke_d	d	n/a
383.7955	0.0905	767591	keystroke_Key.space	Key.space	n/a
384.111	0.06	768222	keystroke_f	f	n/a
384.171	0.105	768342	keystroke_e	e	n/a
384.351	0.0895	768702	keystroke_e	e	n/a
384.5305	0.1055	769061	keystroke_s	s	n/a
384.8305	0.0905	769661	keystroke_Key.enter	Key.enter	n/a
384.925	9.9425	769850	prompt	n/a	accent discovered helmet dollar\n
385.506	0.09	771012	keystroke_a	a	n/a
385.656	0.0895	771312	keystroke_c	c	n/a
385.821	0.15	771642	keystroke_c	c	n/a
385.911	0.1345	771822	keystroke_e	e	n/a
386.091	0.105	772182	keystroke_n	n	n/a
386.181	0.075	772362	keystroke_t	t	n/a
386.271	0.135	772542	keystroke_Key.space	Key.space	n/a
386.481	0.075	772962	keystroke_d	d	n/a
386.601	0.09	773202	keystroke_i	i	n/a
386.6455	0.1355	773291	keystroke_s	s	n/a
386.766	0.075	773532	keystroke_c	c	n/a
386.871	0.12	773742	keystroke_o	o	n/a
386.991	0.105	773982	keystroke_v	v	n/a
387.156	0.15	774312	keystroke_e	e	n/a
387.2605	0.1355	774521	keystroke_r	r	n/a
387.366	0.09	774732	keystroke_e	e	n/a
387.516	0.1195	775032	keystroke_d	d	n/a
387.681	0.09	775362	keystroke_Key.space	Key.space	n/a
392.856	0.12	785712	keystroke_h	h	n/a
392.9455	0.0605	785891	keystroke_e	e	n/a
393.0665	0.0745	786133	keystroke_l	l	n/a
393.216	0.09	786432	keystroke_m	m	n/a
393.336	0.0595	786672	keystroke_e	e	n/a
393.4105	0.0755	786821	keystroke_t	t	n/a
393.561	0.105	787122	keystroke_Key.space	Key.space	n/a
394.071	0.0595	788142	keystroke_d	d	n/a
394.176	0.045	788352	keystroke_o	o	n/a
394.341	0.045	788682	keystroke_l	l	n/a
394.4605	0.0905	788921	keystroke_l	l	n/a
394.536	0.12	789072	keystroke_a	a	n/a
394.641	0.1045	789282	keystroke_r	r	n/a
394.776	0.0905	789552	keystroke_Key.enter	Key.enter	n/a
394.8715	10.9005	789743	prompt	n/a	champions hacker aerospace fifth\n
395.481	0.12	790962	keystroke_c	c	n/a
395.541	0.1045	791082	keystroke_h	h	n/a
395.6605	0.0905	791321	keystroke_a	a	n/a
395.886	0.1045	791772	keystroke_m	m	n/a
396.2605	0.0755	792521	keystroke_p	p	n/a
396.5455	0.1655	793091	keystroke_i	i	n/a
396.726	0.195	793452	keystroke_o	o	n/a
396.8605	0.1505	793721	keystroke_n	n	n/a
396.996	0.12	793992	keystroke_s	s	n/a
397.1015	0.1495	794203	keystroke_Key.space	Key.space	n/a
397.491	0.075	794982	keystroke_h	h	n/a
397.596	0.1345	795192	keystroke_a	a	n/a
397.791	0.15	795582	keystroke_c	c	n/a
397.971	0.1495	795942	keystroke_k	k	n/a
398.106	0.15	796212	keystroke_e	e	n/a
398.211	0.105	796422	keystroke_r	r	n/a
398.3305	0.1205	796661	keystroke_Key.space	Key.space	n/a
398.706	0.105	797412	keystroke_a	a	n/a
398.871	0.15	797742	keystroke_e	e	n/a
398.991	0.1055	797982	keystroke_r	r	n/a
399.1705	0.1205	798341	keystroke_o	o	n/a
399.4865	0.059	798973	keystroke_s	s	n/a
399.576	0.12	799152	keystroke_p	p	n/a
399.651	0.06	799302	keystroke_e	e	n/a
400.011	0.105	800022	keystroke_a	a	n/a
400.1305	0.1505	800261	keystroke_c	c	n/a
400.221	0.105	800442	keystroke_e	e	n/a
400.371	0.15	800742	keystroke_Key.space	Key.space	n/a
400.596	0.1345	801192	keystroke_f	f	n/a
400.716	0.105	801432	keystroke_i	i	n/a
401.151	0.105	802302	keystroke_f	f	n/a
401.3455	0.1055	802691	keystroke_t	t	n/a
401.466	0.12	802932	keystroke_h	h	n/a
402.276	0.046	804552	keystroke_Key.backspace	Key.backspace	n/a
402.396	0.06	804792	keystroke_Key.backspace	Key.backspace	n/a
402.5605	0.0605	805121	keystroke_Key.backspace	Key.backspace	n/a
402.741	0.045	805482	keystroke_Key.backspace	Key.backspace	n/a
402.906	0.06	805812	keystroke_Key.backspace	Key.backspace	n/a
403.071	0.0595	806142	keystroke_Key.backspace	Key.backspace	n/a
403.251	0.045	806502	keystroke_Key.backspace	Key.backspace	n/a
403.416	0.0445	806832	keystroke_Key.backspace	Key.backspace	n/a
403.581	0.0595	807162	keystroke_Key.backspace	Key.backspace	n/a
403.7605	0.0605	807521	keystroke_Key.backspace	Key.backspace	n/a
404.0305	0.1055	808061	keystroke_a	a	n/a
404.181	0.1795	808362	keystroke_c	c	n/a
404.3305	0.0755	808661	keystroke_e	e	n/a
404.451	0.105	808902	keystroke_Key.space	Key.space	n/a
404.886	0.105	809772	keystroke_f	f	n/a
405.006	0.09	810012	keystroke_i	i	n/a
405.126	0.09	810252	keystroke_f	f	n/a
405.351	0.09	810702	keystroke_t	t	n/a
405.471	0.0745	810942	keystroke_h	h	n/a
405.681	0.09	811362	keystroke_Key.enter	Key.enter	n/a
405.7765	6.2805	811553	prompt	n/a	cheapest scuba institutions glow\n
406.7605	0.1355	813521	keystroke_c	c	n/a
406.8355	0.1055	813671	keystroke_h	h	n/a
406.956	0.0745	813912	keystroke_e	e	n/a
407.121	0.105	814242	keystroke_a	a	n/a
407.241	0.0895	814482	keystroke_p	p	n/a
407.421	0.0595	814842	keystroke_e	e	n/a
407.571	0.1055	815142	keystroke_s	s	n/a
407.6605	0.0905	815321	keystroke_t	t	n/a
407.766	0.135	815532	keystroke_Key.space	Key.space	n/a
407.886	0.12	815772	keystroke_s	s	n/a
407.991	0.12	815982	keystroke_c	c	n/a
408.1405	0.0755	816281	keystroke_u	u	n/a
408.306	0.1205	816612	keystroke_b	b	n/a
408.471	0.0895	816942	keystroke_a	a	n/a
408.5755	0.1355	817151	keystroke_Key.space	Key.space	n/a
408.966	0.06	817932	keystroke_m	m	n/a
409.311	0.06	818622	keystroke_Key.backspace	Key.backspace	n/a
409.506	0.12	819012	keystroke_i	i	n/a
409.581	0.12	819162	keystroke_n	n	n/a
409.641	0.0895	819282	keystroke_s	s	n/a
409.761	0.09	819522	keystroke_t	t	n/a
409.851	0.09	819702	keystroke_i	i	n/a
409.986	0.0895	819972	keystroke_t	t	n/a
410.0905	0.1055	820181	keystroke_u	u	n/a
410.211	0.09	820422	keystroke_t	t	n/a
410.406	0.2845	820812	keystroke_i	i	n/a
410.541	0.195	821082	keystroke_o	o	n/a
410.6455	0.1355	821291	keystroke_n	n	n/a
410.751	0.09	821502	keystroke_s	s	n/a
410.9605	0.0905	821921	keystroke_Key.space	Key.space	n/a
411.5305	0.1205	823061	keystroke_g	g	n/a
411.636	0.06	823272	keystroke_l	l	n/a
411.786	0.09	823572	keystroke_o	o	n/a
411.8455	0.0905	823691	keystroke_w	w	n/a
411.9805	0.0755	823961	keystroke_Key.enter	Key.enter	n/a
412.06	5.232	824120	prompt	n/a	grant gilbert numbers painting\n
412.836	0.075	825672	keystroke_g	g	n/a
412.971	0.105	825942	keystroke_r	r	n/a
413.0305	0.1205	826061	keystroke_a	a	n/a
413.1205	0.135	826241	keystroke_n	n	n/a
413.226	0.09	826452	keystroke_t	t	n/a
413.286	0.12	826572	keystroke_Key.space	Key.space	n/a
413.916	0.105	827832	keystroke_g	g	n/a
414.006	0.09	828012	keystroke_i	i	n/a
414.156	0.1045	828312	keystroke_l	l	n/a
414.276	0.0895	828552	keystroke_b	b	n/a
414.486	0.12	828972	keystroke_e	e	n/a
414.621	0.09	829242	keystroke_r	r	n/a
414.786	0.105	829572	keystroke_t	t	n/a
414.906	0.135	829812	keystroke_Key.space	Key.space	n/a
415.221	0.045	830442	keystroke_n	n	n/a
415.356	0.06	830712	keystroke_u	u	n/a
415.5505	0.0605	831101	keystroke_m	m	n/a
415.641	0.075	831282	keystroke_b	b	n/a
415.791	0.135	831582	keystroke_e	e	n/a
415.882	0.074	831764	keystroke_r	r	n/a
416.016	0.105	832032	keystroke_s	s	n/a
416.136	0.1045	832272	keystroke_Key.space	Key.space	n/a
416.286	0.135	832572	keystroke_p	p	n/a
416.376	0.105	832752	keystroke_a	a	n/a
416.556	0.1045	833112	keystroke_i	i	n/a
416.616	0.09	833232	keystroke_n	n	n/a
416.706	0.09	833412	keystroke_t	t	n/a
416.811	0.1495	833622	keystroke_i	i	n/a
416.901	0.105	833802	keystroke_n	n	n/a
417.036	0.09	834072	keystroke_g	g	n/a
417.2305	0.0605	834461	keystroke_Key.enter	Key.enter	n/a
417.2945	7.0925	834589	prompt	n/a	dynamics direction instrumentation consequence\n
418.1155	0.0905	836231	keystroke_d	d	n/a
418.221	0.0455	836442	keystroke_y	y	n/a
418.3705	0.075	836741	keystroke_n	n	n/a
418.4605	0.0755	836921	keystroke_a	a	n/a
418.566	0.12	837132	keystroke_m	m	n/a
418.641	0.135	837282	keystroke_i	i	n/a
418.7605	0.1505	837521	keystroke_c	c	n/a
418.896	0.09	837792	keystroke_s	s	n/a
419.0005	0.0755	838001	keystroke_Key.space	Key.space	n/a
419.166	0.06	838332	keystroke_d	d	n/a
419.271	0.0895	838542	keystroke_i	i	n/a
419.376	0.09	838752	keystroke_r	r	n/a
419.421	0.1045	838842	keystroke_e	e	n/a
419.6015	0.1045	839203	keystroke_c	c	n/a
419.796	0.09	839592	keystroke_t	t	n/a
419.871	0.24	839742	keystroke_i	i	n/a
419.9605	0.1805	839921	keystroke_o	o	n/a
420.081	0.1495	840162	keystroke_n	n	n/a
420.216	0.105	840432	keystroke_Key.space	Key.space	n/a
420.3655	0.1355	840731	keystroke_i	i	n/a
420.456	0.1045	840912	keystroke_n	n	n/a
420.5305	0.0605	841061	keystroke_s	s	n/a
420.636	0.09	841272	keystroke_t	t	n/a
420.801	0.105	841602	keystroke_r	r	n/a
420.9205	0.0605	841841	keystroke_u	u	n/a
421.176	0.015	842352	keystroke_m	m	n/a
421.206	0.105	842412	keystroke_e	e	n/a
421.311	0.06	842622	keystroke_n	n	n/a
421.401	0.135	842802	keystroke_t	t	n/a
421.551	0.1355	843102	keystroke_a	a	n/a
421.641	0.0895	843282	keystroke_t	t	n/a
421.821	0.285	843642	keystroke_i	i	n/a
421.926	0.195	843852	keystroke_o	o	n/a
422.0455	0.15	844091	keystroke_n	n	n/a
422.166	0.15	844332	keystroke_Key.space	Key.space	n/a
422.871	0.1195	845742	keystroke_c	c	n/a
422.9605	0.1355	845921	keystroke_o	o	n/a
423.051	0.105	846102	keystroke_n	n	n/a
423.126	0.09	846252	keystroke_s	s	n/a
423.2455	0.0905	846491	keystroke_e	e	n/a
423.321	0.105	846642	keystroke_q	q	n/a
423.546	0.105	847092	keystroke_u	u	n/a
423.696	0.0905	847392	keystroke_e	e	n/a
423.816	0.105	847632	keystroke_n	n	n/a
423.936	0.135	847872	keystroke_c	c	n/a
424.011	0.1045	848022	keystroke_e	e	n/a
424.296	0.09	848592	keystroke_Key.enter	Key.enter	n/a
424.3895	6.688	848779	prompt	n/a	vulnerability spec ordinary procedures\n
425.166	0.075	850332	keystroke_v	v	n/a
425.2865	0.134	850573	keystroke_u	u	n/a
425.406	0.105	850812	keystroke_l	l	n/a
425.6155	0.0905	851231	keystroke_n	n	n/a
425.721	0.09	851442	keystroke_e	e	n/a
425.781	0.075	851562	keystroke_r	r	n/a
425.916	0.1195	851832	keystroke_a	a	n/a
426.0505	0.0905	852101	keystroke_b	b	n/a
426.171	0.0895	852342	keystroke_i	i	n/a
426.291	0.12	852582	keystroke_l	l	n/a
426.3655	0.1055	852731	keystroke_i	i	n/a
426.5305	0.0905	853061	keystroke_t	t	n/a
426.6065	0.089	853213	keystroke_y	y	n/a
426.711	0.1195	853422	keystroke_Key.space	Key.space	n/a
426.891	0.06	853782	keystroke_s	s	n/a
426.996	0.09	853992	keystroke_p	p	n/a
427.101	0.075	854202	keystroke_e	e	n/a
427.281	0.105	854562	keystroke_c	c	n/a
427.416	0.105	854832	keystroke_Key.space	Key.space	n/a
427.566	0.12	855132	keystroke_o	o	n/a
427.671	0.045	855342	keystroke_r	r	n/a
427.836	0.09	855672	keystroke_d	d	n/a
427.926	0.1345	855852	keystroke_i	i	n/a
428.0305	0.1205	856061	keystroke_n	n	n/a
428.2405	0.09	856481	keystroke_a	a	n/a
428.406	0.075	856812	keystroke_r	r	n/a
428.511	0.0895	857022	keystroke_y	y	n/a
428.6305	0.1055	857261	keystroke_Key.space	Key.space	n/a
428.781	0.105	857562	keystroke_p	p	n/a
428.901	0.0595	857802	keystroke_r	r	n/a
429.606	0.12	859212	keystroke_o	o	n/a
429.786	0.195	859572	keystroke_c	c	n/a
429.966	0.075	859932	keystroke_e	e	n/a
430.1605	0.0755	860321	keystroke_s	s	n/a
430.281	0.09	860562	keystroke_u	u	n/a
430.4305	0.1505	860861	keystroke_r	r	n/a
430.566	0.12	861132	keystroke_e	e	n/a
430.791	0.105	861582	keystroke_s	s	n/a
430.941	0.135	861882	keystroke_Key.enter	Key.enter	n/a
431.0805	7.0765	862161	prompt	n/a	she'll concerning geometry restriction\n
431.9455	0.045	863891	keystroke_s	s	n/a
432.036	0.165	864072	keystroke_h	h	n/a
432.171	0.0895	864342	keystroke_e	e	n/a
432.3365	0.029	864673	keystroke_'	'	n/a
432.486	0.0445	864972	keystroke_l	l	n/a
432.606	0.12	865212	keystroke_l	l	n/a
432.711	0.135	865422	keystroke_Key.space	Key.space	n/a
432.876	0.12	865752	keystroke_c	c	n/a
432.921	0.15	865842	keystroke_o	o	n/a
433.041	0.0745	866082	keystroke_n	n	n/a
433.1305	0.0905	866261	keystroke_c	c	n/a
433.206	0.165	866412	keystroke_e	e	n/a
433.356	0.105	866712	keystroke_r	r	n/a
433.551	0.045	867102	keystroke_n	n	n/a
433.671	0.165	867342	keystroke_i	i	n/a
433.761	0.12	867522	keystroke_n	n	n/a
433.851	0.09	867702	keystroke_g	g	n/a
433.971	0.135	867942	keystroke_Key.space	Key.space	n/a
434.301	0.09	868602	keystroke_g	g	n/a
434.436	0.09	868872	keystroke_e	e	n/a
434.601	0.105	869202	keystroke_o	o	n/a
434.856	0.0895	869712	keystroke_m	m	n/a
434.916	0.0895	869832	keystroke_e	e	n/a
435.096	0.06	870192	keystroke_t	t	n/a
435.246	0.075	870492	keystroke_r	r	n/a
435.351	0.09	870702	keystroke_y	y	n/a
435.486	0.105	870972	keystroke_Key.space	Key.space	n/a
435.756	0.1045	871512	keystroke_r	r	n/a
435.8455	0.0755	871691	keystroke_e	e	n/a
435.981	0.105	871962	keystroke_s	s	n/a
436.1305	0.1055	872261	keystroke_t	t	n/a
436.341	0.1045	872682	keystroke_r	r	n/a
436.9405	0.0755	873881	keystroke_i	i	n/a
437.106	0.1055	874212	keystroke_c	c	n/a
437.271	0.105	874542	keystroke_t	t	n/a
437.3455	0.3755	874691	keystroke_i	i	n/a
437.466	0.285	874932	keystroke_o	o	n/a
437.6605	0.1355	875321	keystroke_n	n	n/a
438.066	0.09	876132	keystroke_Key.enter	Key.enter	n/a
438.1595	4.1825	876319	prompt	n/a	vary anime cheese thereof\n
438.8455	0.1055	877691	keystroke_v	v	n/a
439.026	0.1195	878052	keystroke_a	a	n/a
439.116	0.09	878232	keystroke_r	r	n/a
439.191	0.105	878382	keystroke_y	y	n/a
439.2965	0.1045	878593	keystroke_Key.space	Key.space	n/a
439.4605	0.0905	878921	keystroke_a	a	n/a
439.5665	0.0895	879133	keystroke_n	n	n/a
439.701	0.15	879402	keystroke_i	i	n/a
439.791	0.135	879582	keystroke_m	m	n/a
439.956	0.1045	879912	keystroke_e	e	n/a
440.091	0.105	880182	keystroke_Key.space	Key.space	n/a
440.256	0.1045	880512	keystroke_c	c	n/a
440.3455	0.0905	880691	keystroke_h	h	n/a
440.451	0.075	880902	keystroke_e	e	n/a
440.6455	0.0755	881291	keystroke_e	e	n/a
440.841	0.1195	881682	keystroke_s	s	n/a
440.9165	0.0895	881833	keystroke_e	e	n/a
441.051	0.15	882102	keystroke_Key.space	Key.space	n/a
441.426	0.075	882852	keystroke_t	t	n/a
441.516	0.105	883032	keystroke_h	h	n/a
441.591	0.09	883182	keystroke_e	e	n/a
441.651	0.135	883302	keystroke_r	r	n/a
441.771	0.0745	883542	keystroke_e	e	n/a
441.9515	0.1195	883903	keystroke_o	o	n/a
442.0555	0.09	884111	keystroke_f	f	n/a
442.2215	0.1195	884443	keystroke_Key.enter	Key.enter	n/a
442.3445	9.4485	884689	prompt	n/a	police loss prize airplane\n
447.711	0.1495	895422	keystroke_p	p	n/a
447.876	0.09	895752	keystroke_o	o	n/a
448.281	0.1645	896562	keystroke_l	l	n/a
448.356	0.1195	896712	keystroke_i	i	n/a
448.461	0.135	896922	keystroke_c	c	n/a
448.5515	0.075	897103	keystroke_e	e	n/a
448.611	0.105	897222	keystroke_Key.space	Key.space	n/a
448.791	0.06	897582	keystroke_l	l	n/a
448.9415	0.0745	897883	keystroke_o	o	n/a
449.001	0.0595	898002	keystroke_s	s	n/a
449.151	0.12	898302	keystroke_s	s	n/a
449.256	0.12	898512	keystroke_Key.space	Key.space	n/a
449.511	0.12	899022	keystroke_p	p	n/a
449.811	0.09	899622	keystroke_r	r	n/a
449.886	0.105	899772	keystroke_i	i	n/a
450.051	0.075	900102	keystroke_z	z	n/a
450.381	0.06	900762	keystroke_e	e	n/a
450.4865	0.1045	900973	keystroke_Key.space	Key.space	n/a
450.7415	0.075	901483	keystroke_a	a	n/a
450.831	0.12	901662	keystroke_i	i	n/a
450.966	0.075	901932	keystroke_r	r	n/a
451.071	0.075	902142	keystroke_p	p	n/a
451.236	0.105	902472	keystroke_l	l	n/a
451.3565	0.045	902713	keystroke_a	a	n/a
451.461	0.12	902922	keystroke_n	n	n/a
451.596	0.09	903192	keystroke_e	e	n/a
451.701	0.0905	903402	keystroke_Key.enter	Key.enter	n/a
451.796	11.216	903592	prompt	n/a	displayed portland ferry annotation\n
453.1865	0.0145	906373	keystroke_d	d	n/a
453.681	0.12	907362	keystroke_i	i	n/a
453.786	0.0905	907572	keystroke_s	s	n/a
453.996	0.075	907992	keystroke_p	p	n/a
454.401	0.075	908802	keystroke_l	l	n/a
454.491	0.105	908982	keystroke_a	a	n/a
454.611	0.06	909222	keystroke_y	y	n/a
454.686	0.0755	909372	keystroke_e	e	n/a
454.851	0.105	909702	keystroke_d	d	n/a
454.941	0.12	909882	keystroke_Key.space	Key.space	n/a
455.376	0.075	910752	keystroke_p	p	n/a
455.571	0.0895	911142	keystroke_o	o	n/a
455.6305	0.0755	911261	keystroke_r	r	n/a
455.781	0.075	911562	keystroke_t	t	n/a
456.081	0.075	912162	keystroke_l	l	n/a
456.171	0.075	912342	keystroke_a	a	n/a
456.261	0.12	912522	keystroke_n	n	n/a
456.351	0.0755	912702	keystroke_d	d	n/a
456.441	0.12	912882	keystroke_Key.space	Key.space	n/a
460.686	0.0595	921372	keystroke_f	f	n/a
460.8365	0.1195	921673	keystroke_e	e	n/a
460.9265	0.0745	921853	keystroke_r	r	n/a
461.061	0.105	922122	keystroke_r	r	n/a
461.196	0.075	922392	keystroke_y	y	n/a
461.3305	0.0755	922661	keystroke_Key.space	Key.space	n/a
461.661	0.075	923322	keystroke_a	a	n/a
461.7965	0.0445	923593	keystroke_n	n	n/a
461.886	0.12	923772	keystroke_n	n	n/a
461.9605	0.1355	923921	keystroke_o	o	n/a
462.0665	0.1045	924133	keystroke_t	t	n/a
462.291	0.18	924582	keystroke_a	a	n/a
462.456	0.09	924912	keystroke_t	t	n/a
462.606	0.2105	925212	keystroke_i	i	n/a
462.6665	0.1345	925333	keystroke_o	o	n/a
462.7415	0.119	925483	keystroke_n	n	n/a
462.921	0.09	925842	keystroke_Key.enter	Key.enter	n/a
463.015	5.967	926030	prompt	n/a	balloon trusts perth excitement\n
463.9265	0.075	927853	keystroke_b	b	n/a
464.031	0.06	928062	keystroke_a	a	n/a
464.151	0.06	928302	keystroke_l	l	n/a
464.3165	0.0445	928633	keystroke_l	l	n/a
464.631	0.06	929262	keystroke_o	o	n/a
464.7815	0.1495	929563	keystroke_o	o	n/a
464.8865	0.1195	929773	keystroke_n	n	n/a
465.021	0.105	930042	keystroke_Key.space	Key.space	n/a
465.231	0.06	930462	keystroke_t	t	n/a
465.3515	0.0895	930703	keystroke_r	r	n/a
465.4715	0.105	930943	keystroke_u	u	n/a
465.561	0.12	931122	keystroke_s	s	n/a
465.666	0.1205	931332	keystroke_t	t	n/a
465.8015	0.1045	931603	keystroke_s	s	n/a
465.9665	0.135	931933	keystroke_Key.space	Key.space	n/a
466.3865	0.1045	932773	keystroke_p	p	n/a
466.506	0.105	933012	keystroke_e	e	n/a
466.5665	0.0895	933133	keystroke_r	r	n/a
466.7165	0.105	933433	keystroke_t	t	n/a
466.8065	0.1195	933613	keystroke_h	h	n/a
466.9265	0.15	933853	keystroke_Key.space	Key.space	n/a
467.316	0.06	934632	keystroke_e	e	n/a
467.631	0.09	935262	keystroke_x	x	n/a
467.7365	0.12	935473	keystroke_c	c	n/a
468.021	0.12	936042	keystroke_i	i	n/a
468.2015	0.15	936403	keystroke_t	t	n/a
468.3215	0.1045	936643	keystroke_e	e	n/a
468.471	0.105	936942	keystroke_m	m	n/a
468.6065	0.0745	937213	keystroke_e	e	n/a
468.6815	0.12	937363	keystroke_n	n	n/a
468.7865	0.0895	937573	keystroke_t	t	n/a
468.906	0.075	937812	keystroke_Key.enter	Key.enter	n/a
468.985	6.6725	937970	prompt	n/a	lodge nextel face symposium\n
469.8965	0.0595	939793	keystroke_l	l	n/a
470.181	0.0905	940362	keystroke_o	o	n/a
470.2865	0.12	940573	keystroke_d	d	n/a
470.4815	0.1345	940963	keystroke_g	g	n/a
470.586	0.105	941172	keystroke_e	e	n/a
470.7515	0.0895	941503	keystroke_Key.space	Key.space	n/a
471.3665	0.09	942733	keystroke_n	n	n/a
471.4715	0.0595	942943	keystroke_e	e	n/a
471.6665	0.105	943333	keystroke_x	x	n/a
471.861	0.0905	943722	keystroke_t	t	n/a
472.0715	0.0895	944143	keystroke_e	e	n/a
472.2215	0.12	944443	keystroke_l	l	n/a
472.3415	0.1195	944683	keystroke_Key.space	Key.space	n/a
472.7165	0.0905	945433	keystroke_f	f	n/a
472.851	0.15	945702	keystroke_a	a	n/a
473.016	0.1505	946032	keystroke_c	c	n/a
473.091	0.105	946182	keystroke_e	e	n/a
473.4665	0.1045	946933	keystroke_Key.space	Key.space	n/a
473.9915	0.0745	947983	keystroke_s	s	n/a
474.111	0.0605	948222	keystroke_y	y	n/a
474.306	0.075	948612	keystroke_m	m	n/a
474.411	0.135	948822	keystroke_p	p	n/a
474.561	0.12	949122	keystroke_o	o	n/a
474.771	0.09	949542	keystroke_s	s	n/a
475.1015	0.0895	950203	keystroke_i	i	n/a
475.161	0.105	950322	keystroke_u	u	n/a
475.3715	0.0745	950743	keystroke_m	m	n/a
475.5065	0.15	951013	keystroke_Key.enter	Key.enter	n/a
475.6605	6.9715	951321	prompt	n/a	burst camp importantly waiting\n
476.3165	0.09	952633	keystroke_b	b	n/a
476.436	0.0905	952872	keystroke_u	u	n/a
476.5115	0.1045	953023	keystroke_r	r	n/a
476.6765	0.135	953353	keystroke_s	s	n/a
476.751	0.1055	953502	keystroke_t	t	n/a
476.871	0.1205	953742	keystroke_Key.space	Key.space	n/a
477.006	0.15	954012	keystroke_c	c	n/a
477.081	0.1055	954162	keystroke_a	a	n/a
477.291	0.165	954582	keystroke_m	m	n/a
477.4265	0.1505	954853	keystroke_p	p	n/a
477.561	0.105	955122	keystroke_Key.space	Key.space	n/a
478.131	0.03	956262	keystroke_i	i	n/a
478.6865	0.105	957373	keystroke_m	m	n/a
478.8965	0.1045	957793	keystroke_p	p	n/a
479.016	0.15	958032	keystroke_o	o	n/a
479.1215	0.0745	958243	keystroke_r	r	n/a
479.256	0.1205	958512	keystroke_t	t	n/a
479.361	0.105	958722	keystroke_a	a	n/a
479.916	0.0605	959832	keystroke_n	n	n/a
479.991	0.1055	959982	keystroke_t	t	n/a
480.1565	0.1795	960313	keystroke_l	l	n/a
480.261	0.1205	960522	keystroke_y	y	n/a
480.3815	0.1195	960763	keystroke_Key.space	Key.space	n/a
480.9815	0.1045	961963	keystroke_v	v	n/a
481.461	0.075	962922	keystroke_Key.backspace	Key.backspace	n/a
481.5515	0.0595	963103	keystroke_w	w	n/a
481.671	0.12	963342	keystroke_a	a	n/a
481.776	0.1055	963552	keystroke_i	i	n/a
481.9265	0.0895	963853	keystroke_t	t	n/a
482.061	0.1955	964122	keystroke_i	i	n/a
482.197	0.104	964394	keystroke_n	n	n/a
482.2715	0.1045	964543	keystroke_g	g	n/a
482.511	0.12	965022	keystroke_Key.enter	Key.enter	n/a
482.6345	7.153	965269	prompt	n/a	approximate guests promotion side\n
483.4115	0.12	966823	keystroke_a	a	n/a
483.576	0.0595	967152	keystroke_p	p	n/a
483.711	0.1055	967422	keystroke_p	p	n/a
483.9065	0.045	967813	keystroke_r	r	n/a
483.9665	0.0745	967933	keystroke_o	o	n/a
484.5815	0.074	969163	keystroke_x	x	n/a
484.686	0.165	969372	keystroke_i	i	n/a
484.8215	0.1345	969643	keystroke_m	m	n/a
484.941	0.15	969882	keystroke_a	a	n/a
485.0915	0.1645	970183	keystroke_t	t	n/a
485.2115	0.09	970423	keystroke_e	e	n/a
485.376	0.1355	970752	keystroke_Key.space	Key.space	n/a
485.6015	0.075	971203	keystroke_g	g	n/a
485.7365	0.0745	971473	keystroke_u	u	n/a
485.856	0.09	971712	keystroke_e	e	n/a
486.201	0.12	972402	keystroke_s	s	n/a
486.3065	0.105	972613	keystroke_t	t	n/a
486.4415	0.075	972883	keystroke_s	s	n/a
486.6815	0.105	973363	keystroke_Key.space	Key.space	n/a
487.0265	0.1045	974053	keystroke_p	p	n/a
487.161	0.105	974322	keystroke_r	r	n/a
487.3115	0.1495	974623	keystroke_o	o	n/a
487.461	0.165	974922	keystroke_m	m	n/a
487.5815	0.105	975163	keystroke_o	o	n/a
487.7165	0.091	975433	keystroke_t	t	n/a
488.0015	0.3295	976003	keystroke_i	i	n/a
488.136	0.21	976272	keystroke_o	o	n/a
488.2715	0.2095	976543	keystroke_n	n	n/a
488.541	0.12	977082	keystroke_Key.space	Key.space	n/a
489.156	0.1205	978312	keystroke_s	s	n/a
489.2765	0.1045	978553	keystroke_i	i	n/a
489.3515	0.075	978703	keystroke_d	d	n/a
489.4865	0.1495	978973	keystroke_e	e	n/a
489.6665	0.12	979333	keystroke_Key.enter	Key.enter	n/a
489.793	5.08	979586	prompt	n/a	decent donor required fast\n
490.536	0.105	981072	keystroke_e	e	n/a
490.9565	0.0745	981913	keystroke_Key.backspace	Key.backspace	n/a
491.001	0.0905	982002	keystroke_d	d	n/a
491.1515	0.0895	982303	keystroke_e	e	n/a
491.316	0.1205	982632	keystroke_c	c	n/a
491.391	0.1655	982782	keystroke_e	e	n/a
491.511	0.135	983022	keystroke_n	n	n/a
491.6765	0.0895	983353	keystroke_t	t	n/a
491.751	0.1205	983502	keystroke_Key.space	Key.space	n/a
492.0065	0.09	984013	keystroke_d	d	n/a
492.1115	0.1195	984223	keystroke_o	o	n/a
492.3215	0.1195	984643	keystroke_n	n	n/a
492.426	0.12	984852	keystroke_o	o	n/a
492.5765	0.105	985153	keystroke_r	r	n/a
492.7115	0.1195	985423	keystroke_Key.space	Key.space	n/a
492.8915	0.15	985783	keystroke_r	r	n/a
492.9965	0.12	985993	keystroke_e	e	n/a
493.131	0.0455	986262	keystroke_q	q	n/a
493.251	0.1505	986502	keystroke_u	u	n/a
493.3415	0.1195	986683	keystroke_i	i	n/a
493.4765	0.105	986953	keystroke_r	r	n/a
493.5365	0.09	987073	keystroke_e	e	n/a
493.7165	0.12	987433	keystroke_d	d	n/a
493.8515	0.105	987703	keystroke_Key.space	Key.space	n/a
494.046	0.1205	988092	keystroke_f	f	n/a
494.2265	0.2245	988453	keystroke_a	a	n/a
494.331	0.15	988662	keystroke_s	s	n/a
494.541	0.1355	989082	keystroke_t	t	n/a
494.751	0.1205	989502	keystroke_Key.enter	Key.enter	n/a
494.8765	6.1305	989753	prompt	n/a	risk knock finance longitude\n
495.6815	0.075	991363	keystroke_r	r	n/a
495.741	0.105	991482	keystroke_i	i	n/a
495.8915	0.135	991783	keystroke_s	s	n/a
496.0115	0.1345	992023	keystroke_k	k	n/a
496.1165	0.12	992233	keystroke_Key.space	Key.space	n/a
496.2515	0.2245	992503	keystroke_k	k	n/a
496.3565	0.1045	992713	keystroke_n	n	n/a
496.461	0.1805	992922	keystroke_o	o	n/a
496.8365	0.15	993673	keystroke_c	c	n/a
496.942	0.1495	993884	keystroke_k	k	n/a
497.061	0.1055	994122	keystroke_Key.space	Key.space	n/a
497.496	0.1205	994992	keystroke_f	f	n/a
497.5865	0.1495	995173	keystroke_i	i	n/a
497.7065	0.09	995413	keystroke_n	n	n/a
497.7665	0.105	995533	keystroke_a	a	n/a
498.0065	0.105	996013	keystroke_n	n	n/a
498.1715	0.18	996343	keystroke_c	c	n/a
498.231	0.135	996462	keystroke_e	e	n/a
498.3965	0.12	996793	keystroke_Key.space	Key.space	n/a
498.936	0.075	997872	keystroke_l	l	n/a
499.1165	0.135	998233	keystroke_o	o	n/a
499.2065	0.105	998413	keystroke_n	n	n/a
499.327	0.0895	998654	keystroke_g	g	n/a
499.5215	0.075	999043	keystroke_i	i	n/a
499.761	0.0605	999522	keystroke_t	t	n/a
499.9565	0.105	999913	keystroke_u	u	n/a
500.1815	0.06	1000363	keystroke_d	d	n/a
500.331	0.1205	1000662	keystroke_e	e	n/a
500.8865	0.1195	1001773	keystroke_Key.enter	Key.enter	n/a
501.0095	8.098	1002019	prompt	n/a	trance extent hopes specify\n
501.6365	0.105	1003273	keystroke_r	r	n/a
502.0865	0.0745	1004173	keystroke_Key.backspace	Key.backspace	n/a
502.131	0.09	1004262	keystroke_t	t	n/a
502.2815	0.09	1004563	keystroke_r	r	n/a
502.3865	0.0595	1004773	keystroke_a	a	n/a
502.4765	0.105	1004953	keystroke_n	n	n/a
502.6415	0.15	1005283	keystroke_c	c	n/a
502.7015	0.12	1005403	keystroke_e	e	n/a
502.851	0.1205	1005702	keystroke_Key.space	Key.space	n/a
503.3165	0.0595	1006633	keystroke_e	e	n/a
503.631	0.0605	1007262	keystroke_x	x	n/a
503.9465	0.06	1007893	keystroke_t	t	n/a
504.141	0.0455	1008282	keystroke_e	e	n/a
504.231	0.1055	1008462	keystroke_n	n	n/a
504.5165	0.06	1009033	keystroke_e	e	n/a
505.0115	0.09	1010023	keystroke_t	t	n/a
505.0265	0.09	1010053	keystroke_Key.backspace	Key.backspace	n/a
505.2515	0.1495	1010503	keystroke_Key.space	Key.space	n/a
505.806	0.0605	1011612	keystroke_Key.backspace	Key.backspace	n/a
505.9415	0.06	1011883	keystroke_Key.backspace	Key.backspace	n/a
506.1515	0.09	1012303	keystroke_t	t	n/a
506.2565	0.135	1012513	keystroke_Key.space	Key.space	n/a
506.946	0.1055	1013892	keystroke_h	h	n/a
507.1115	0.2095	1014223	keystroke_o	o	n/a
507.2915	0.135	1014583	keystroke_p	p	n/a
507.4115	0.09	1014823	keystroke_e	e	n/a
507.6215	0.105	1015243	keystroke_s	s	n/a
507.7415	0.1045	1015483	keystroke_Key.space	Key.space	n/a
508.0865	0.105	1016173	keystroke_s	s	n/a
508.2065	0.105	1016413	keystroke_p	p	n/a
508.2965	0.06	1016593	keystroke_e	e	n/a
508.461	0.1205	1016922	keystroke_c	c	n/a
508.596	0.0905	1017192	keystroke_i	i	n/a
508.6715	0.12	1017343	keystroke_f	f	n/a
508.8065	0.075	1017613	keystroke_y	y	n/a
508.9865	0.12	1017973	keystroke_Key.enter	Key.enter	n/a
509.11	4.7675	1018220	prompt	n/a	upset stayed intense heavy\n
509.8715	0.12	1019743	keystroke_u	u	n/a
509.9765	0.09	1019953	keystroke_p	p	n/a
510.1415	0.0895	1020283	keystroke_s	s	n/a
510.2915	0.165	1020583	keystroke_e	e	n/a
510.4415	0.1045	1020883	keystroke_t	t	n/a
510.561	0.1355	1021122	keystroke_Key.space	Key.space	n/a
510.7715	0.105	1021543	keystroke_s	s	n/a
510.8915	0.075	1021783	keystroke_t	t	n/a
511.0415	0.0605	1022083	keystroke_a	a	n/a
511.191	0.0905	1022382	keystroke_y	y	n/a
511.2965	0.075	1022593	keystroke_e	e	n/a
511.461	0.1205	1022922	keystroke_d	d	n/a
511.5815	0.105	1023163	keystroke_Key.space	Key.space	n/a
511.7915	0.135	1023583	keystroke_i	i	n/a
511.8815	0.12	1023763	keystroke_n	n	n/a
511.987	0.074	1023974	keystroke_t	t	n/a
