onset	duration	sample	value	key	prompt_text
7.027	16.696	14054	prompt	n/a	the quick brown fox jumps over a lazy dog\n
10.866	0.0435	21732	keystroke_t	t	n/a
11.014	0.091	22028	keystroke_h	h	n/a
11.2855	0.089	22571	keystroke_e	e	n/a
11.51	0.0895	23020	keystroke_Key.space	Key.space	n/a
11.72	0.0745	23440	keystroke_q	q	n/a
12.619	0.09	25238	keystroke_u	u	n/a
13.025	0.06	26050	keystroke_i	i	n/a
13.235	0.075	26470	keystroke_c	c	n/a
13.444	0.091	26888	keystroke_k	k	n/a
13.5945	0.0755	27189	keystroke_Key.space	Key.space	n/a
13.865	0.075	27730	keystroke_b	b	n/a
14.165	0.089	28330	keystroke_r	r	n/a
14.4345	0.09	28869	keystroke_o	o	n/a
14.5695	0.105	29139	keystroke_w	w	n/a
15.815	0.15	31630	keystroke_n	n	n/a
16.039	0.1055	32078	keystroke_Key.space	Key.space	n/a
16.3245	0.075	32649	keystroke_f	f	n/a
16.504	0.09	33008	keystroke_o	o	n/a
16.879	0.0755	33758	keystroke_x	x	n/a
17.104	0.105	34208	keystroke_Key.space	Key.space	n/a
17.5845	0.0595	35169	keystroke_j	j	n/a
17.795	0.075	35590	keystroke_u	u	n/a
18.0795	0.075	36159	keystroke_m	m	n/a
18.3945	0.09	36789	keystroke_p	p	n/a
18.7095	0.12	37419	keystroke_s	s	n/a
18.9795	0.09	37959	keystroke_Key.space	Key.space	n/a
19.2045	0.09	38409	keystroke_o	o	n/a
19.5045	0.075	39009	keystroke_v	v	n/a
19.655	0.195	39310	keystroke_e	e	n/a
19.864	0.1355	39728	keystroke_r	r	n/a
20.1345	0.0905	40269	keystroke_Key.space	Key.space	n/a
20.3595	0.0895	40719	keystroke_a	a	n/a
20.464	0.0745	40928	keystroke_Key.space	Key.space	n/a
20.719	0.09	41438	keystroke_l	l	n/a
20.959	0.076	41918	keystroke_a	a	n/a
21.68	0.105	43360	keystroke_z	z	n/a
21.875	0.074	43750	keystroke_y	y	n/a
22.204	0.076	44408	keystroke_Key.space	Key.space	n/a
22.79	0.0445	45580	keystroke_d	d	n/a
23.03	0.09	46060	keystroke_o	o	n/a
23.2245	0.09	46449	keystroke_g	g	n/a
23.6145	0.105	47229	keystroke_Key.enter	Key.enter	n/a
23.73	9.9215	47460	prompt	n/a	player framework actions stuck\n
24.664	0.0155	49328	keystroke_p	p	n/a
25.4295	0.075	50859	keystroke_l	l	n/a
25.714	0.1205	51428	keystroke_a	a	n/a
26.105	0.059	52210	keystroke_y	y	n/a
26.24	0.1795	52480	keystroke_e	e	n/a
26.509	0.1055	53018	keystroke_r	r	n/a
26.66	0.089	53320	keystroke_Key.space	Key.space	n/a
26.9435	0.0765	53887	keystroke_f	f	n/a
27.14	0.1345	54280	keystroke_r	r	n/a
27.62	0.12	55240	keystroke_a	a	n/a
27.86	0.089	55720	keystroke_m	m	n/a
28.0245	0.105	56049	keystroke_e	e	n/a
28.325	0.089	56650	keystroke_w	w	n/a
28.654	0.09	57308	keystroke_o	o	n/a
28.8195	0.105	57639	keystroke_r	r	n/a
29.029	0.121	58058	keystroke_k	k	n/a
29.3595	0.0595	58719	keystroke_Key.space	Key.space	n/a
29.689	0.1205	59378	keystroke_a	a	n/a
29.885	0.104	59770	keystroke_c	c	n/a
30.154	0.076	60308	keystroke_t	t	n/a
30.364	0.075	60728	keystroke_i	i	n/a
30.529	0.1205	61058	keystroke_o	o	n/a
30.785	0.1045	61570	keystroke_n	n	n/a
30.9795	0.1045	61959	keystroke_s	s	n/a
31.2045	0.0745	62409	keystroke_Key.space	Key.space	n/a
31.564	0.091	63128	keystroke_s	s	n/a
31.7895	0.06	63579	keystroke_t	t	n/a
32.0745	0.06	64149	keystroke_u	u	n/a
32.2695	0.0905	64539	keystroke_c	c	n/a
32.584	0.09	65168	keystroke_k	k	n/a
33.5745	0.075	67149	keystroke_Key.enter	Key.enter	n/a
33.6565	12.4755	67313	prompt	n/a	indigenous glasses microsoft rates\n
34.535	0.104	69070	keystroke_i	i	n/a
34.94	0.075	69880	keystroke_n	n	n/a
35.4345	0.075	70869	keystroke_d	d	n/a
35.7045	0.09	71409	keystroke_i	i	n/a
36.1545	0.06	72309	keystroke_g	g	n/a
36.35	0.074	72700	keystroke_e	e	n/a
36.605	0.089	73210	keystroke_n	n	n/a
37.055	0.09	74110	keystroke_o	o	n/a
37.325	0.0745	74650	keystroke_u	u	n/a
37.579	0.0905	75158	keystroke_s	s	n/a
37.789	0.06	75578	keystroke_Key.space	Key.space	n/a
38.014	0.0605	76028	keystroke_g	g	n/a
38.24	0.105	76480	keystroke_l	l	n/a
38.45	0.1045	76900	keystroke_a	a	n/a
38.7045	0.1055	77409	keystroke_s	s	n/a
38.974	0.046	77948	keystroke_s	s	n/a
39.4245	0.091	78849	keystroke_e	e	n/a
39.6345	0.105	79269	keystroke_s	s	n/a
39.9045	0.075	79809	keystroke_Key.space	Key.space	n/a
40.1745	0.075	80349	keystroke_m	m	n/a
40.459	0.061	80918	keystroke_i	i	n/a
40.939	0.091	81878	keystroke_c	c	n/a
41.8695	0.09	83739	keystroke_r	r	n/a
42.0495	0.105	84099	keystroke_o	o	n/a
42.8895	0.0905	85779	keystroke_s	s	n/a
43.189	0.09	86378	keystroke_o	o	n/a
43.3545	0.1045	86709	keystroke_f	f	n/a
44.029	0.106	88058	keystroke_t	t	n/a
44.3895	0.0745	88779	keystroke_Key.space	Key.space	n/a
44.7195	0.105	89439	keystroke_r	r	n/a
44.8995	0.12	89799	keystroke_a	a	n/a
45.1395	0.06	90279	keystroke_t	t	n/a
45.3345	0.18	90669	keystroke_e	e	n/a
45.5895	0.1205	91179	keystroke_s	s	n/a
46.01	0.1195	92020	keystroke_Key.enter	Key.enter	n/a
46.137	6.9695	92274	prompt	n/a	blow geometry slope corps\n
47	0.074	94000	keystroke_b	b	n/a
47.2845	0.1195	94569	keystroke_l	l	n/a
47.5545	0.12	95109	keystroke_o	o	n/a
47.8095	0.09	95619	keystroke_w	w	n/a
47.9895	0.0745	95979	keystroke_Key.space	Key.space	n/a
48.259	0.076	96518	keystroke_g	g	n/a
48.425	0.0595	96850	keystroke_e	e	n/a
48.619	0.105	97238	keystroke_o	o	n/a
48.979	0.0755	97958	keystroke_m	m	n/a
49.2195	0.045	98439	keystroke_e	e	n/a
49.5495	0.045	99099	keystroke_t	t	n/a
49.73	0.0895	99460	keystroke_r	r	n/a
50.014	0.075	100028	keystroke_y	y	n/a
50.2395	0.0595	100479	keystroke_Key.space	Key.space	n/a
50.48	0.0895	100960	keystroke_s	s	n/a
50.645	0.12	101290	keystroke_l	l	n/a
50.885	0.104	101770	keystroke_o	o	n/a
51.1245	0.0905	102249	keystroke_p	p	n/a
51.455	0.0595	102910	keystroke_e	e	n/a
51.68	0.059	103360	keystroke_Key.space	Key.space	n/a
51.8755	0.074	103751	keystroke_c	c	n/a
52.0545	0.1055	104109	keystroke_o	o	n/a
52.189	0.12	104378	keystroke_r	r	n/a
52.399	0.105	104798	keystroke_p	p	n/a
52.609	0.1065	105218	keystroke_s	s	n/a
52.999	0.1055	105998	keystroke_Key.enter	Key.enter	n/a
53.1115	21.626	106223	prompt	n/a	accommodation christine mandatory disciplines\n
53.8995	0.105	107799	keystroke_a	a	n/a
54.1995	0.09	108399	keystroke_c	c	n/a
54.4095	0.075	108819	keystroke_o	o	n/a
54.6495	0.075	109299	keystroke_o	o	n/a
55.91	0.089	111820	keystroke_Key.backspace	Key.backspace	n/a
57.3795	0.1045	114759	keystroke_Key.backspace	Key.backspace	n/a
58.025	0.06	116050	keystroke_c	c	n/a
58.31	0.0895	116620	keystroke_o	o	n/a
58.6545	0.0905	117309	keystroke_m	m	n/a
59.5995	0.105	119199	keystroke_o	o	n/a
60.26	0.105	120520	keystroke_d	d	n/a
60.44	0.1195	120880	keystroke_a	a	n/a
60.74	0.089	121480	keystroke_t	t	n/a
61.009	0.076	122018	keystroke_i	i	n/a
61.205	0.089	122410	keystroke_o	o	n/a
61.64	0.03	123280	keystroke_n	n	n/a
62.464	0.0905	124928	keystroke_Key.space	Key.space	n/a
62.9	0.1045	125800	keystroke_c	c	n/a
63.0645	0.09	126129	keystroke_h	h	n/a
63.2445	0.1045	126489	keystroke_r	r	n/a
63.755	0.0745	127510	keystroke_i	i	n/a
64.0395	0.15	128079	keystroke_s	s	n/a
64.4305	0.104	128861	keystroke_t	t	n/a
64.969	0.06	129938	keystroke_i	i	n/a
65.224	0.091	130448	keystroke_n	n	n/a
65.389	0.105	130778	keystroke_e	e	n/a
65.584	0.09	131168	keystroke_Key.space	Key.space	n/a
65.84	0.1045	131680	keystroke_m	m	n/a
66.005	0.1045	132010	keystroke_a	a	n/a
66.2305	0.075	132461	keystroke_n	n	n/a
66.5	0.12	133000	keystroke_d	d	n/a
66.815	0.12	133630	keystroke_a	a	n/a
67.25	0.09	134500	keystroke_t	t	n/a
67.385	0.1355	134770	keystroke_o	o	n/a
68.6295	0.105	137259	keystroke_r	r	n/a
68.975	0.12	137950	keystroke_y	y	n/a
70.2195	0.09	140439	keystroke_Key.space	Key.space	n/a
71.12	0.074	142240	keystroke_d	d	n/a
71.3145	0.0595	142629	keystroke_i	i	n/a
71.5845	0.12	143169	keystroke_s	s	n/a
72.0195	0.09	144039	keystroke_c	c	n/a
72.3495	0.1055	144699	keystroke_i	i	n/a
72.65	0.09	145300	keystroke_p	p	n/a
72.9195	0.1055	145839	keystroke_l	l	n/a
73.1595	0.0755	146319	keystroke_i	i	n/a
73.414	0.1055	146828	keystroke_n	n	n/a
73.655	0.164	147310	keystroke_e	e	n/a
74.0595	0.09	148119	keystroke_s	s	n/a
74.615	0.1195	149230	keystroke_Key.enter	Key.enter	n/a
74.7425	9.8195	149485	prompt	n/a	consider cognitive sublime actress\n
75.6045	0.075	151209	keystroke_c	c	n/a
75.755	0.0895	151510	keystroke_o	o	n/a
76.01	0.09	152020	keystroke_n	n	n/a
76.219	0.1055	152438	keystroke_s	s	n/a
76.714	0.076	153428	keystroke_i	i	n/a
76.94	0.075	153880	keystroke_d	d	n/a
77.21	0.105	154420	keystroke_e	e	n/a
77.42	0.12	154840	keystroke_r	r	n/a
77.69	0.105	155380	keystroke_Key.space	Key.space	n/a
78.17	0.0745	156340	keystroke_c	c	n/a
78.5745	0.09	157149	keystroke_o	o	n/a
78.8895	0.06	157779	keystroke_g	g	n/a
79.115	0.0745	158230	keystroke_n	n	n/a
79.3395	0.075	158679	keystroke_i	i	n/a
79.7295	0.12	159459	keystroke_t	t	n/a
79.9995	0.06	159999	keystroke_i	i	n/a
80.1945	0.105	160389	keystroke_v	v	n/a
80.4345	0.09	160869	keystroke_e	e	n/a
80.6595	0.09	161319	keystroke_Key.space	Key.space	n/a
81.0495	0.1045	162099	keystroke_s	s	n/a
81.2	0.089	162400	keystroke_u	u	n/a
81.41	0.059	162820	keystroke_b	b	n/a
81.6495	0.105	163299	keystroke_l	l	n/a
81.9345	0.015	163869	keystroke_i	i	n/a
82.1145	0.0905	164229	keystroke_m	m	n/a
82.3095	0.0755	164619	keystroke_e	e	n/a
82.5195	0.075	165039	keystroke_Key.space	Key.space	n/a
82.804	0.091	165608	keystroke_a	a	n/a
83.015	0.09	166030	keystroke_c	c	n/a
83.315	0.06	166630	keystroke_t	t	n/a
83.524	0.0905	167048	keystroke_r	r	n/a
83.8095	0.0755	167619	keystroke_e	e	n/a
84.019	0.06	168038	keystroke_s	s	n/a
84.199	0.106	168398	keystroke_s	s	n/a
84.4695	0.09	168939	keystroke_Key.enter	Key.enter	n/a
84.567	7.7195	169134	prompt	n/a	manga market roller entity\n
85.3395	0.075	170679	keystroke_m	m	n/a
85.4595	0.0755	170919	keystroke_a	a	n/a
85.6245	0.09	171249	keystroke_n	n	n/a
85.8795	0.09	171759	keystroke_g	g	n/a
86.2695	0.0895	172539	keystroke_a	a	n/a
86.5095	0.0745	173019	keystroke_Key.space	Key.space	n/a
86.929	0.0905	173858	keystroke_m	m	n/a
87.064	0.1055	174128	keystroke_a	a	n/a
87.289	0.075	174578	keystroke_r	r	n/a
87.44	0.0895	174880	keystroke_k	k	n/a
87.6345	0.0445	175269	keystroke_e	e	n/a
87.875	0.075	175750	keystroke_t	t	n/a
88.249	0.075	176498	keystroke_Key.space	Key.space	n/a
88.8495	0.09	177699	keystroke_r	r	n/a
89.0445	0.091	178089	keystroke_o	o	n/a
89.3745	0.06	178749	keystroke_l	l	n/a
89.5545	0.0905	179109	keystroke_l	l	n/a
89.7045	0.165	179409	keystroke_e	e	n/a
89.8545	0.105	179709	keystroke_r	r	n/a
90.0645	0.0755	180129	keystroke_Key.space	Key.space	n/a
90.559	0.076	181118	keystroke_e	e	n/a
90.739	0.076	181478	keystroke_n	n	n/a
91.099	0.09	182198	keystroke_t	t	n/a
91.295	0.074	182590	keystroke_i	i	n/a
91.4445	0.075	182889	keystroke_t	t	n/a
91.879	0.0755	183758	keystroke_y	y	n/a
92.2095	0.075	184419	keystroke_Key.enter	Key.enter	n/a
92.2925	6.549	184585	prompt	n/a	eyes forge bull boom\n
92.9445	0.075	185889	keystroke_e	e	n/a
93.0945	0.075	186189	keystroke_y	y	n/a
93.29	0.209	186580	keystroke_e	e	n/a
93.514	0.135	187028	keystroke_s	s	n/a
94.264	0.09	188528	keystroke_Key.space	Key.space	n/a
94.474	0.076	188948	keystroke_f	f	n/a
94.624	0.1055	189248	keystroke_o	o	n/a
94.79	0.089	189580	keystroke_r	r	n/a
94.9995	0.0755	189999	keystroke_g	g	n/a
95.195	0.075	190390	keystroke_e	e	n/a
95.42	0.0895	190840	keystroke_Key.space	Key.space	n/a
95.885	0.06	191770	keystroke_b	b	n/a
96.1095	0.0755	192219	keystroke_u	u	n/a
96.379	0.0455	192758	keystroke_l	l	n/a
96.755	0.119	193510	keystroke_l	l	n/a
97.099	0.105	194198	keystroke_Key.space	Key.space	n/a
97.565	0.06	195130	keystroke_b	b	n/a
97.82	0.06	195640	keystroke_o	o	n/a
97.9695	0.09	195939	keystroke_o	o	n/a
98.165	0.104	196330	keystroke_m	m	n/a
98.7345	0.105	197469	keystroke_Key.enter	Key.enter	n/a
98.8465	8.2445	197693	prompt	n/a	hospital painting in tucson\n
99.575	0.06	199150	keystroke_h	h	n/a
100.324	0.015	200648	keystroke_o	o	n/a
100.459	0.091	200918	keystroke_s	s	n/a
100.669	0.121	201338	keystroke_p	p	n/a
101.119	0.076	202238	keystroke_i	i	n/a
101.6295	0.12	203259	keystroke_t	t	n/a
101.9895	0.12	203979	keystroke_a	a	n/a
102.2145	0.12	204429	keystroke_l	l	n/a
102.454	0.09	204908	keystroke_Key.space	Key.space	n/a
102.784	0.1055	205568	keystroke_p	p	n/a
103.0545	0.135	206109	keystroke_a	a	n/a
103.2345	0.06	206469	keystroke_i	i	n/a
103.4895	0.09	206979	keystroke_n	n	n/a
103.6845	0.1055	207369	keystroke_t	t	n/a
103.8645	0.0745	207729	keystroke_i	i	n/a
104.059	0.106	208118	keystroke_n	n	n/a
104.329	0.121	208658	keystroke_g	g	n/a
104.569	0.105	209138	keystroke_Key.space	Key.space	n/a
104.915	0.0745	209830	keystroke_i	i	n/a
105.1095	0.1045	210219	keystroke_n	n	n/a
105.2895	0.075	210579	keystroke_Key.space	Key.space	n/a
105.5595	0.09	211119	keystroke_t	t	n/a
105.815	0.0595	211630	keystroke_u	u	n/a
105.9945	0.09	211989	keystroke_s	s	n/a
106.2645	0.1205	212529	keystroke_c	c	n/a
106.489	0.106	212978	keystroke_o	o	n/a
106.7	0.09	213400	keystroke_n	n	n/a
107.014	0.075	214028	keystroke_Key.enter	Key.enter	n/a
107.096	9.205	214192	prompt	n/a	level grenada concept specifically\n
107.84	0.09	215680	keystroke_l	l	n/a
107.99	0.075	215980	keystroke_e	e	n/a
108.17	0.075	216340	keystroke_v	v	n/a
108.335	0.0745	216670	keystroke_e	e	n/a
108.56	0.105	217120	keystroke_l	l	n/a
108.7995	0.0745	217599	keystroke_Key.space	Key.space	n/a
109.099	0.06	218198	keystroke_g	g	n/a
109.28	0.149	218560	keystroke_r	r	n/a
109.4745	0.1045	218949	keystroke_e	e	n/a
109.714	0.0755	219428	keystroke_n	n	n/a
109.864	0.135	219728	keystroke_a	a	n/a
110.104	0.1505	220208	keystroke_d	d	n/a
110.269	0.1205	220538	keystroke_a	a	n/a
110.6895	0.0895	221379	keystroke_Key.space	Key.space	n/a
111.1245	0.09	222249	keystroke_c	c	n/a
111.2445	0.09	222489	keystroke_o	o	n/a
111.4255	0.089	222851	keystroke_n	n	n/a
111.4995	0.09	222999	keystroke_c	c	n/a
111.7245	0.09	223449	keystroke_e	e	n/a
111.8745	0.0905	223749	keystroke_p	p	n/a
112.1145	0.135	224229	keystroke_t	t	n/a
112.4895	0.105	224979	keystroke_Key.space	Key.space	n/a
113.27	0.089	226540	keystroke_s	s	n/a
113.51	0.09	227020	keystroke_p	p	n/a
113.644	0.09	227288	keystroke_e	e	n/a
113.9295	0.075	227859	keystroke_c	c	n/a
114.1395	0.0755	228279	keystroke_i	i	n/a
114.2895	0.0895	228579	keystroke_f	f	n/a
114.725	0.089	229450	keystroke_i	i	n/a
114.965	0.1195	229930	keystroke_c	c	n/a
115.19	0.1345	230380	keystroke_a	a	n/a
115.4145	0.06	230829	keystroke_l	l	n/a
115.5495	0.105	231099	keystroke_l	l	n/a
115.8345	0.075	231669	keystroke_y	y	n/a
116.1945	0.1045	232389	keystroke_Key.enter	Key.enter	n/a
116.306	12.37	232612	prompt	n/a	massive youth rounds directories\n
117.1845	0.12	234369	keystroke_a	a	n/a
117.4245	0.045	234849	keystroke_s	s	n/a
118.174	0.06	236348	keystroke_Key.backspace	Key.backspace	n/a
118.3545	0.09	236709	keystroke_Key.backspace	Key.backspace	n/a
118.805	0.044	237610	keystroke_m	m	n/a
118.9545	0.1195	237909	keystroke_a	a	n/a
119.179	0.0755	238358	keystroke_s	s	n/a
119.5995	0.09	239199	keystroke_s	s	n/a
119.8095	0.06	239619	keystroke_i	i	n/a
120.1395	0.09	240279	keystroke_v	v	n/a
120.3945	0.075	240789	keystroke_e	e	n/a
120.6035	0.0905	241207	keystroke_Key.space	Key.space	n/a
121.174	0.045	242348	keystroke_y	y	n/a
121.565	0.06	243130	keystroke_o	o	n/a
121.8045	0.09	243609	keystroke_u	u	n/a
122.015	0.0745	244030	keystroke_t	t	n/a
122.2095	0.09	244419	keystroke_h	h	n/a
122.404	0.0755	244808	keystroke_Key.space	Key.space	n/a
123.319	0.075	246638	keystroke_r	r	n/a
123.5295	0.1045	247059	keystroke_o	o	n/a
123.7245	0.0745	247449	keystroke_u	u	n/a
124.069	0.0755	248138	keystroke_n	n	n/a
124.2645	0.1195	248529	keystroke_d	d	n/a
124.519	0.06	249038	keystroke_s	s	n/a
124.7145	0.09	249429	keystroke_Key.space	Key.space	n/a
125.0595	0.0905	250119	keystroke_d	d	n/a
125.195	0.074	250390	keystroke_i	i	n/a
125.585	0.1195	251170	keystroke_r	r	n/a
125.735	0.1195	251470	keystroke_e	e	n/a
126.1545	0.09	252309	keystroke_c	c	n/a
126.485	0.104	252970	keystroke_t	t	n/a
127.3845	0.105	254769	keystroke_o	o	n/a
127.85	0.089	255700	keystroke_r	r	n/a
127.9695	0.0895	255939	keystroke_i	i	n/a
128.1045	0.18	256209	keystroke_e	e	n/a
128.255	0.1045	256510	keystroke_s	s	n/a
128.5845	0.09	257169	keystroke_Key.enter	Key.enter	n/a
128.681	8.62	257362	prompt	n/a	restoration none whenever chuck\n
129.4395	0.135	258879	keystroke_r	r	n/a
129.5755	0.2095	259151	keystroke_e	e	n/a
129.7395	0.15	259479	keystroke_s	s	n/a
130.1895	0.09	260379	keystroke_t	t	n/a
130.3845	0.12	260769	keystroke_o	o	n/a
130.5645	0.105	261129	keystroke_r	r	n/a
130.8045	0.1195	261609	keystroke_a	a	n/a
131.0145	0.1055	262029	keystroke_t	t	n/a
131.735	0.075	263470	keystroke_i	i	n/a
131.869	0.121	263738	keystroke_o	o	n/a
132.155	0.135	264310	keystroke_n	n	n/a
132.424	0.0755	264848	keystroke_Key.space	Key.space	n/a
132.7995	0.105	265599	keystroke_n	n	n/a
133.01	0.089	266020	keystroke_o	o	n/a
133.174	0.1205	266348	keystroke_n	n	n/a
133.519	0.106	267038	keystroke_e	e	n/a
133.879	0.0755	267758	keystroke_Key.space	Key.space	n/a
134.2545	0.06	268509	keystroke_w	w	n/a
134.375	0.09	268750	keystroke_h	h	n/a
134.5545	0.061	269109	keystroke_e	e	n/a
134.675	0.075	269350	keystroke_n	n	n/a
135.064	0.075	270128	keystroke_e	e	n/a
135.1845	0.0745	270369	keystroke_v	v	n/a
135.29	0.134	270580	keystroke_e	e	n/a
135.425	0.104	270850	keystroke_r	r	n/a
135.634	0.075	271268	keystroke_Key.space	Key.space	n/a
136.19	0.015	272380	keystroke_c	c	n/a
136.22	0.0745	272440	keystroke_h	h	n/a
136.3545	0.09	272709	keystroke_u	u	n/a
136.46	0.0895	272920	keystroke_c	c	n/a
136.6245	0.1205	273249	keystroke_k	k	n/a
136.7585	0.106	273517	keystroke_Key.space	Key.space	n/a
137.1945	0.105	274389	keystroke_Key.enter	Key.enter	n/a
137.3035	9.7325	274607	prompt	n/a	pointed odds realtors tells\n
138.2145	0.09	276429	keystroke_p	p	n/a
138.3795	0.105	276759	keystroke_o	o	n/a
138.5895	0.06	277179	keystroke_i	i	n/a
138.7845	0.0605	277569	keystroke_n	n	n/a
139.0245	0.06	278049	keystroke_t	t	n/a
139.219	0.166	278438	keystroke_e	e	n/a
139.4145	0.12	278829	keystroke_d	d	n/a
139.909	0.1355	279818	keystroke_Key.space	Key.space	n/a
140.2095	0.09	280419	keystroke_o	o	n/a
140.3895	0.0895	280779	keystroke_d	d	n/a
140.629	0.0455	281258	keystroke_d	d	n/a
141.094	0.1055	282188	keystroke_s	s	n/a
141.3195	0.09	282639	keystroke_Key.space	Key.space	n/a
141.5895	0.135	283179	keystroke_r	r	n/a
141.7545	0.165	283509	keystroke_e	e	n/a
141.905	0.209	283810	keystroke_a	a	n/a
142.729	0.121	285458	keystroke_l	l	n/a
143.0445	0.0745	286089	keystroke_t	t	n/a
143.194	0.09	286388	keystroke_o	o	n/a
143.4495	0.09	286899	keystroke_r	r	n/a
144.139	0.105	288278	keystroke_s	s	n/a
144.3945	0.09	288789	keystroke_Key.space	Key.space	n/a
145.655	0.1195	291310	keystroke_t	t	n/a
145.894	0.1055	291788	keystroke_e	e	n/a
146.12	0.0895	292240	keystroke_l	l	n/a
146.314	0.1055	292628	keystroke_l	l	n/a
146.5695	0.105	293139	keystroke_s	s	n/a
146.9295	0.105	293859	keystroke_Key.enter	Key.enter	n/a
147.0405	9.1305	294081	prompt	n/a	teeth reproduce balloon describe\n
147.844	0.0905	295688	keystroke_t	t	n/a
148.3995	0.09	296799	keystroke_e	e	n/a
148.5945	0.09	297189	keystroke_e	e	n/a
148.7895	0.105	297579	keystroke_t	t	n/a
149.0445	0.135	298089	keystroke_h	h	n/a
149.359	0.09	298718	keystroke_Key.space	Key.space	n/a
149.614	0.1355	299228	keystroke_r	r	n/a
149.915	0.06	299830	keystroke_e	e	n/a
150.8295	0.09	301659	keystroke_p	p	n/a
151.0095	0.09	302019	keystroke_r	r	n/a
151.2195	0.09	302439	keystroke_o	o	n/a
151.475	0.0595	302950	keystroke_d	d	n/a
151.6245	0.06	303249	keystroke_u	u	n/a
151.8045	0.09	303609	keystroke_c	c	n/a
152.0295	0.105	304059	keystroke_e	e	n/a
152.239	0.075	304478	keystroke_Key.space	Key.space	n/a
152.51	0.074	305020	keystroke_b	b	n/a
152.644	0.105	305288	keystroke_a	a	n/a
152.8845	0.0445	305769	keystroke_l	l	n/a
153.049	0.1205	306098	keystroke_l	l	n/a
153.3195	0.06	306639	keystroke_o	o	n/a
153.4995	0.09	306999	keystroke_o	o	n/a
153.8595	0.09	307719	keystroke_n	n	n/a
154.0685	0.076	308137	keystroke_Key.space	Key.space	n/a
154.3395	0.105	308679	keystroke_d	d	n/a
154.5495	0.1205	309099	keystroke_e	e	n/a
154.654	0.135	309308	keystroke_s	s	n/a
154.925	0.089	309850	keystroke_c	c	n/a
155.134	0.0905	310268	keystroke_r	r	n/a
155.254	0.09	310508	keystroke_i	i	n/a
155.509	0.075	311018	keystroke_b	b	n/a
155.6745	0.0745	311349	keystroke_e	e	n/a
156.0645	0.1045	312129	keystroke_Key.enter	Key.enter	n/a
156.175	7.646	312350	prompt	n/a	finals pleasure gross saved\n
156.874	0.09	313748	keystroke_f	f	n/a
156.994	0.06	313988	keystroke_i	i	n/a
157.1745	0.0895	314349	keystroke_n	n	n/a
157.684	0.09	315368	keystroke_a	a	n/a
157.879	0.0905	315758	keystroke_l	l	n/a
158.0445	0.105	316089	keystroke_s	s	n/a
158.224	0.09	316448	keystroke_Key.space	Key.space	n/a
158.434	0.075	316868	keystroke_p	p	n/a
158.659	0.12	317318	keystroke_l	l	n/a
158.839	0.18	317678	keystroke_e	e	n/a
159.425	0.1045	318850	keystroke_a	a	n/a
159.649	0.1055	319298	keystroke_s	s	n/a
160.055	0.044	320110	keystroke_u	u	n/a
160.174	0.1505	320348	keystroke_r	r	n/a
160.309	0.105	320618	keystroke_e	e	n/a
160.519	0.09	321038	keystroke_Key.space	Key.space	n/a
161.1645	0.015	322329	keystroke_g	g	n/a
161.254	0.091	322508	keystroke_r	r	n/a
161.42	0.0745	322840	keystroke_o	o	n/a
161.5695	0.0595	323139	keystroke_s	s	n/a
161.7645	0.09	323529	keystroke_s	s	n/a
162.139	0.0905	324278	keystroke_Key.space	Key.space	n/a
162.739	0.136	325478	keystroke_s	s	n/a
162.8895	0.1205	325779	keystroke_a	a	n/a
163.055	0.074	326110	keystroke_v	v	n/a
163.204	0.165	326408	keystroke_e	e	n/a
163.324	0.12	326648	keystroke_d	d	n/a
163.699	0.1205	327398	keystroke_Key.enter	Key.enter	n/a
163.825	6.673	327650	prompt	n/a	soul injured pair ensemble\n
164.6595	0.0745	329319	keystroke_s	s	n/a
164.764	0.1205	329528	keystroke_o	o	n/a
164.9745	0.0895	329949	keystroke_u	u	n/a
165.3195	0.1045	330639	keystroke_l	l	n/a
165.529	0.0905	331058	keystroke_Key.space	Key.space	n/a
165.8145	0.0745	331629	keystroke_i	i	n/a
166.0545	0.0895	332109	keystroke_n	n	n/a
166.4145	0.045	332829	keystroke_j	j	n/a
166.564	0.09	333128	keystroke_u	u	n/a
166.7145	0.1195	333429	keystroke_r	r	n/a
166.895	0.18	333790	keystroke_e	e	n/a
167.1345	0.1195	334269	keystroke_d	d	n/a
167.404	0.09	334808	keystroke_Key.space	Key.space	n/a
167.764	0.1205	335528	keystroke_p	p	n/a
167.8845	0.12	335769	keystroke_a	a	n/a
168.05	0.104	336100	keystroke_i	i	n/a
168.1995	0.0895	336399	keystroke_r	r	n/a
168.3645	0.074	336729	keystroke_Key.space	Key.space	n/a
168.6485	0.06	337297	keystroke_e	e	n/a
168.919	0.0745	337838	keystroke_n	n	n/a
169.219	0.1205	338438	keystroke_s	s	n/a
169.3685	0.091	338737	keystroke_e	e	n/a
169.5045	0.06	339009	keystroke_m	m	n/a
169.714	0.075	339428	keystroke_b	b	n/a
169.939	0.106	339878	keystroke_l	l	n/a
170.104	0.0605	340208	keystroke_e	e	n/a
170.4045	0.089	340809	keystroke_Key.enter	Key.enter	n/a
170.5025	15.0535	341005	prompt	n/a	jerusalem madrid contents syndication\n
171.4245	0.075	342849	keystroke_j	j	n/a
171.5295	0.15	343059	keystroke_e	e	n/a
171.6805	0.119	343361	keystroke_r	r	n/a
172.444	0.09	344888	keystroke_u	u	n/a
172.729	0.12	345458	keystroke_s	s	n/a
172.864	0.1205	345728	keystroke_a	a	n/a
173.0295	0.105	346059	keystroke_l	l	n/a
173.239	0.0755	346478	keystroke_e	e	n/a
173.434	0.1055	346868	keystroke_m	m	n/a
173.659	0.0755	347318	keystroke_Key.space	Key.space	n/a
174.005	0.0895	348010	keystroke_m	m	n/a
174.1245	0.12	348249	keystroke_a	a	n/a
174.4245	0.06	348849	keystroke_d	d	n/a
174.605	0.089	349210	keystroke_r	r	n/a
174.784	0.09	349568	keystroke_i	i	n/a
174.934	0.12	349868	keystroke_d	d	n/a
175.2795	0.105	350559	keystroke_Key.space	Key.space	n/a
180.037	0.012	360074	keystroke_c	c	n/a
180.094	0.09	360188	keystroke_o	o	n/a
180.289	0.09	360578	keystroke_n	n	n/a
180.8445	0.105	361689	keystroke_t	t	n/a
181.0095	0.12	362019	keystroke_e	e	n/a
181.1595	0.09	362319	keystroke_n	n	n/a
181.2785	0.121	362557	keystroke_t	t	n/a
181.5495	0.135	363099	keystroke_s	s	n/a
181.8795	0.09	363759	keystroke_Key.space	Key.space	n/a
182.495	0.089	364990	keystroke_s	s	n/a
182.719	0.061	365438	keystroke_y	y	n/a
183.11	0.1045	366220	keystroke_n	n	n/a
183.799	0.0755	367598	keystroke_d	d	n/a
183.919	0.0905	367838	keystroke_i	i	n/a
184.0395	0.119	368079	keystroke_c	c	n/a
184.2495	0.059	368499	keystroke_a	a	n/a
184.625	0.105	369250	keystroke_t	t	n/a
184.8045	0.09	369609	keystroke_i	i	n/a
184.9545	0.12	369909	keystroke_o	o	n/a
185.1795	0.089	370359	keystroke_n	n	n/a
185.4645	0.09	370929	keystroke_Key.enter	Key.enter	n/a
185.561	9.595	371122	prompt	n/a	spies chips minor diameter\n
186.335	0.075	372670	keystroke_s	s	n/a
186.439	0.09	372878	keystroke_p	p	n/a
186.695	0.059	373390	keystroke_i	i	n/a
186.7995	0.2395	373599	keystroke_e	e	n/a
186.979	0.165	373958	keystroke_s	s	n/a
187.2495	0.0745	374499	keystroke_Key.space	Key.space	n/a
187.429	0.1055	374858	keystroke_c	c	n/a
187.5495	0.075	375099	keystroke_h	h	n/a
187.774	0.0755	375548	keystroke_i	i	n/a
187.969	0.1055	375938	keystroke_p	p	n/a
188.134	0.105	376268	keystroke_s	s	n/a
188.3595	0.09	376719	keystroke_Key.space	Key.space	n/a
188.809	0.09	377618	keystroke_i	i	n/a
188.9745	0.105	377949	keystroke_n	n	n/a
189.1995	0.105	378399	keystroke_o	o	n/a
189.7995	0.09	379599	keystroke_Key.backspace	Key.backspace	n/a
190.039	0.091	380078	keystroke_Key.backspace	Key.backspace	n/a
190.324	0.0595	380648	keystroke_Key.backspace	Key.backspace	n/a
191.27	0.074	382540	keystroke_m	m	n/a
191.5695	0.075	383139	keystroke_i	i	n/a
191.7795	0.09	383559	keystroke_n	n	n/a
192.0495	0.12	384099	keystroke_o	o	n/a
192.1995	0.105	384399	keystroke_r	r	n/a
192.364	0.075	384728	keystroke_Key.space	Key.space	n/a
192.9495	0.0895	385899	keystroke_d	d	n/a
193.099	0.0755	386198	keystroke_i	i	n/a
193.34	0.105	386680	keystroke_a	a	n/a
193.55	0.0885	387100	keystroke_m	m	n/a
194.1945	0.0755	388389	keystroke_e	e	n/a
194.374	0.06	388748	keystroke_t	t	n/a
194.4795	0.135	388959	keystroke_e	e	n/a
194.5995	0.135	389199	keystroke_r	r	n/a
195.0645	0.0895	390129	keystroke_Key.enter	Key.enter	n/a
195.1605	8.7105	390321	prompt	n/a	tournament candidates used raising\n
196.0995	0.075	392199	keystroke_t	t	n/a
196.2195	0.12	392439	keystroke_o	o	n/a
196.429	0.075	392858	keystroke_u	u	n/a
196.549	0.1065	393098	keystroke_r	r	n/a
196.6995	0.105	393399	keystroke_n	n	n/a
196.879	0.1205	393758	keystroke_a	a	n/a
197.0745	0.105	394149	keystroke_m	m	n/a
197.2995	0.09	394599	keystroke_e	e	n/a
197.4495	0.105	394899	keystroke_n	n	n/a
197.6445	0.12	395289	keystroke_t	t	n/a
197.9445	0.075	395889	keystroke_Key.space	Key.space	n/a
198.3195	0.09	396639	keystroke_c	c	n/a
198.514	0.12	397028	keystroke_a	a	n/a
198.695	0.104	397390	keystroke_n	n	n/a
198.919	0.091	397838	keystroke_d	d	n/a
199.084	0.091	398168	keystroke_i	i	n/a
199.25	0.089	398500	keystroke_d	d	n/a
199.61	0.119	399220	keystroke_a	a	n/a
200.0595	0.0445	400119	keystroke_t	t	n/a
200.1495	0.1795	400299	keystroke_e	e	n/a
200.27	0.15	400540	keystroke_s	s	n/a
200.464	0.0905	400928	keystroke_Key.space	Key.space	n/a
201.529	0.061	403058	keystroke_u	u	n/a
201.6345	0.1195	403269	keystroke_s	s	n/a
201.769	0.165	403538	keystroke_e	e	n/a
201.92	0.105	403840	keystroke_d	d	n/a
202.129	0.0755	404258	keystroke_Key.space	Key.space	n/a
202.31	0.104	404620	keystroke_r	r	n/a
202.654	0.1055	405308	keystroke_a	a	n/a
202.8645	0.0745	405729	keystroke_i	i	n/a
203.014	0.1205	406028	keystroke_s	s	n/a
203.164	0.0905	406328	keystroke_i	i	n/a
203.374	0.061	406748	keystroke_n	n	n/a
203.4795	0.0895	406959	keystroke_g	g	n/a
203.7345	0.135	407469	keystroke_Key.enter	Key.enter	n/a
203.8785	14.1975	407757	prompt	n/a	plaintiff widespread specialties choices\n
204.575	0.0745	409150	keystroke_p	p	n/a
204.7845	0.09	409569	keystroke_l	l	n/a
204.8895	0.165	409779	keystroke_a	a	n/a
205.0845	0.1045	410169	keystroke_t	t	n/a
205.2795	0.09	410559	keystroke_i	i	n/a
206.434	0.09	412868	keystroke_Key.backspace	Key.backspace	n/a
206.8095	0.0295	413619	keystroke_Key.backspace	Key.backspace	n/a
207.6195	0.09	415239	keystroke_i	i	n/a
207.9495	0.0905	415899	keystroke_n	n	n/a
208.549	0.06	417098	keystroke_t	t	n/a
208.7895	0.0755	417579	keystroke_i	i	n/a
209.045	0.09	418090	keystroke_f	f	n/a
209.2695	0.105	418539	keystroke_f	f	n/a
209.4935	0.091	418987	keystroke_Key.space	Key.space	n/a
210.019	0.0755	420038	keystroke_w	w	n/a
210.1395	0.0905	420279	keystroke_i	i	n/a
210.319	0.1055	420638	keystroke_d	d	n/a
210.4545	0.1345	420909	keystroke_e	e	n/a
210.799	0.09	421598	keystroke_s	s	n/a
210.9795	0.1045	421959	keystroke_p	p	n/a
211.1295	0.1645	422259	keystroke_r	r	n/a
211.264	0.27	422528	keystroke_e	e	n/a
211.4895	0.1955	422979	keystroke_a	a	n/a
211.894	0.0755	423788	keystroke_d	d	n/a
212.299	0.0905	424598	keystroke_Key.space	Key.space	n/a
212.8695	0.119	425739	keystroke_s	s	n/a
213.0185	0.121	426037	keystroke_p	p	n/a
213.1685	0.091	426337	keystroke_e	e	n/a
213.484	0.1205	426968	keystroke_c	c	n/a
213.7685	0.106	427537	keystroke_i	i	n/a
213.9795	0.135	427959	keystroke_a	a	n/a
214.205	0.149	428410	keystroke_l	l	n/a
215.1345	0.1195	430269	keystroke_t	t	n/a
215.329	0.0905	430658	keystroke_i	i	n/a
215.629	0.255	431258	keystroke_e	e	n/a
215.869	0.1505	431738	keystroke_s	s	n/a
216.1695	0.09	432339	keystroke_Key.space	Key.space	n/a
216.4695	0.09	432939	keystroke_c	c	n/a
216.62	0.0895	433240	keystroke_h	h	n/a
216.7845	0.135	433569	keystroke_o	o	n/a
216.9495	0.0745	433899	keystroke_i	i	n/a
217.114	0.0905	434228	keystroke_c	c	n/a
217.3395	0.105	434679	keystroke_e	e	n/a
217.6395	0.1195	435279	keystroke_s	s	n/a
217.9845	0.0895	435969	keystroke_Key.enter	Key.enter	n/a
218.0805	11.3505	436161	prompt	n/a	boot savage vulnerability sets\n
218.899	0.09	437798	keystroke_b	b	n/a
219.079	0.06	438158	keystroke_i	i	n/a
219.9185	0.075	439837	keystroke_Key.backspace	Key.backspace	n/a
220.3545	0.06	440709	keystroke_o	o	n/a
220.6245	0.09	441249	keystroke_o	o	n/a
220.909	0.09	441818	keystroke_t	t	n/a
221.194	0.105	442388	keystroke_Key.space	Key.space	n/a
221.5695	0.1345	443139	keystroke_s	s	n/a
221.7495	0.0895	443499	keystroke_a	a	n/a
222.2	0.09	444400	keystroke_v	v	n/a
222.5895	0.119	445179	keystroke_a	a	n/a
223.1595	0.044	446319	keystroke_g	g	n/a
223.2195	0.12	446439	keystroke_e	e	n/a
223.49	0.0895	446980	keystroke_Key.space	Key.space	n/a
224.1945	0.0745	448389	keystroke_v	v	n/a
224.314	0.0755	448628	keystroke_u	u	n/a
224.5395	0.105	449079	keystroke_l	l	n/a
225.0045	0.075	450009	keystroke_n	n	n/a
225.1995	0.2245	450399	keystroke_e	e	n/a
225.3795	0.209	450759	keystroke_r	r	n/a
225.6785	0.136	451357	keystroke_a	a	n/a
226.3995	0.0745	452799	keystroke_b	b	n/a
226.6545	0.0895	453309	keystroke_i	i	n/a
226.8645	0.105	453729	keystroke_l	l	n/a
227.0585	0.091	454117	keystroke_i	i	n/a
227.3135	0.105	454627	keystroke_t	t	n/a
227.5245	0.075	455049	keystroke_y	y	n/a
227.824	0.0755	455648	keystroke_Key.space	Key.space	n/a
228.5445	0.105	457089	keystroke_s	s	n/a
228.7245	0.105	457449	keystroke_e	e	n/a
228.8745	0.0745	457749	keystroke_t	t	n/a
228.9645	0.1195	457929	keystroke_s	s	n/a
229.3395	0.09	458679	keystroke_Key.enter	Key.enter	n/a
229.4355	8.0655	458871	prompt	n/a	gate command choice daniel\n
230.1495	0.0755	460299	keystroke_g	g	n/a
230.374	0.12	460748	keystroke_a	a	n/a
230.6295	0.0895	461259	keystroke_t	t	n/a
231.1695	0.075	462339	keystroke_e	e	n/a
231.4095	0.075	462819	keystroke_Key.space	Key.space	n/a
231.6345	0.105	463269	keystroke_c	c	n/a
231.799	0.09	463598	keystroke_o	o	n/a
232.025	0.06	464050	keystroke_m	m	n/a
232.1885	0.0755	464377	keystroke_m	m	n/a
232.339	0.0755	464678	keystroke_e	e	n/a
232.594	0.105	465188	keystroke_a	a	n/a
232.984	0.09	465968	keystroke_Key.backspace	Key.backspace	n/a
233.209	0.0755	466418	keystroke_Key.backspace	Key.backspace	n/a
233.419	0.105	466838	keystroke_a	a	n/a
233.689	0.0905	467378	keystroke_n	n	n/a
233.8845	0.12	467769	keystroke_d	d	n/a
234.2595	0.074	468519	keystroke_Key.space	Key.space	n/a
234.6485	0.0915	469297	keystroke_c	c	n/a
234.7695	0.1045	469539	keystroke_h	h	n/a
234.9645	0.1055	469929	keystroke_o	o	n/a
235.1295	0.105	470259	keystroke_i	i	n/a
235.3095	0.1205	470619	keystroke_c	c	n/a
235.6385	0.09	471277	keystroke_e	e	n/a
235.8645	0.09	471729	keystroke_Key.space	Key.space	n/a
236.1345	0.1355	472269	keystroke_d	d	n/a
236.2845	0.1645	472569	keystroke_a	a	n/a
236.4645	0.06	472929	keystroke_n	n	n/a
236.644	0.0905	473288	keystroke_i	i	n/a
236.7945	0.075	473589	keystroke_e	e	n/a
237.034	0.135	474068	keystroke_l	l	n/a
237.409	0.0895	474818	keystroke_Key.enter	Key.enter	n/a
237.504	10.6765	475008	prompt	n/a	eyes royalty revolution guru\n
238.3095	0.0445	476619	keystroke_e	e	n/a
238.4745	0.074	476949	keystroke_y	y	n/a
238.5795	0.225	477159	keystroke_e	e	n/a
238.7745	0.18	477549	keystroke_s	s	n/a
239.1645	0.074	478329	keystroke_Key.space	Key.space	n/a
239.554	0.09	479108	keystroke_r	r	n/a
239.914	0.0905	479828	keystroke_o	o	n/a
240.289	0.075	480578	keystroke_y	y	n/a
240.5145	0.15	481029	keystroke_a	a	n/a
240.7245	0.12	481449	keystroke_l	l	n/a
240.9795	0.105	481959	keystroke_t	t	n/a
241.2485	0.09	482497	keystroke_y	y	n/a
241.6395	0.074	483279	keystroke_Key.space	Key.space	n/a
241.909	0.1045	483818	keystroke_r	r	n/a
242.0435	0.1055	484087	keystroke_e	e	n/a
242.3295	0.12	484659	keystroke_v	v	n/a
242.4795	0.075	484959	keystroke_o	o	n/a
242.6745	0.09	485349	keystroke_l	l	n/a
242.9295	0.075	485859	keystroke_u	u	n/a
243.0645	0.075	486129	keystroke_t	t	n/a
243.274	0.0605	486548	keystroke_i	i	n/a
243.47	0.119	486940	keystroke_o	o	n/a
243.964	0.1055	487928	keystroke_n	n	n/a
244.474	0.075	488948	keystroke_Key.space	Key.space	n/a
245.0595	0.075	490119	keystroke_g	g	n/a
245.494	0.0905	490988	keystroke_r	r	n/a
246.499	0.0745	492998	keystroke_Key.backspace	Key.backspace	n/a
246.8445	0.075	493689	keystroke_u	u	n/a
246.979	0.1205	493958	keystroke_r	r	n/a
247.1295	0.075	494259	keystroke_u	u	n/a
248.0735	0.105	496147	keystroke_Key.enter	Key.enter	n/a
248.183	8.203	496366	prompt	n/a	belkin incentive barn buying\n
248.929	0.075	497858	keystroke_b	b	n/a
249.019	0.105	498038	keystroke_e	e	n/a
249.304	0.09	498608	keystroke_l	l	n/a
249.5295	0.09	499059	keystroke_k	k	n/a
249.769	0.06	499538	keystroke_i	i	n/a
250.0845	0.089	500169	keystroke_n	n	n/a
250.6395	0.089	501279	keystroke_Key.space	Key.space	n/a
250.8795	0.059	501759	keystroke_i	i	n/a
251.0745	0.089	502149	keystroke_n	n	n/a
251.2535	0.106	502507	keystroke_c	c	n/a
251.4345	0.0895	502869	keystroke_e	e	n/a
251.614	0.075	503228	keystroke_n	n	n/a
251.944	0.09	503888	keystroke_t	t	n/a
252.1245	0.0745	504249	keystroke_i	i	n/a
252.4395	0.1045	504879	keystroke_v	v	n/a
252.709	0.1055	505418	keystroke_e	e	n/a
252.9935	0.105	505987	keystroke_Key.space	Key.space	n/a
253.6545	0.09	507309	keystroke_b	b	n/a
253.7595	0.18	507519	keystroke_a	a	n/a
253.9695	0.105	507939	keystroke_r	r	n/a
254.1195	0.1195	508239	keystroke_n	n	n/a
254.314	0.09	508628	keystroke_Key.space	Key.space	n/a
254.644	0.0905	509288	keystroke_b	b	n/a
254.8845	0.0745	509769	keystroke_u	u	n/a
255.3795	0.135	510759	keystroke_y	y	n/a
255.6045	0.0745	511209	keystroke_i	i	n/a
255.799	0.1055	511598	keystroke_n	n	n/a
255.919	0.09	511838	keystroke_g	g	n/a
256.264	0.12	512528	keystroke_Key.enter	Key.enter	n/a
256.3905	9.206	512781	prompt	n/a	resolution album hometown promoted\n
257.164	0.135	514328	keystroke_r	r	n/a
257.314	0.15	514628	keystroke_e	e	n/a
257.539	0.105	515078	keystroke_s	s	n/a
257.689	0.075	515378	keystroke_o	o	n/a
257.884	0.105	515768	keystroke_l	l	n/a
258.3345	0.0445	516669	keystroke_u	u	n/a
258.4995	0.06	516999	keystroke_t	t	n/a
258.6045	0.105	517209	keystroke_i	i	n/a
258.77	0.1345	517540	keystroke_o	o	n/a
258.9945	0.1045	517989	keystroke_n	n	n/a
259.189	0.105	518378	keystroke_Key.space	Key.space	n/a
259.399	0.1055	518798	keystroke_a	a	n/a
259.4885	0.09	518977	keystroke_l	l	n/a
259.7145	0.089	519429	keystroke_b	b	n/a
259.9245	0.09	519849	keystroke_u	u	n/a
260.194	0.1195	520388	keystroke_m	m	n/a
260.374	0.09	520748	keystroke_Key.space	Key.space	n/a
260.614	0.0905	521228	keystroke_h	h	n/a
260.779	0.105	521558	keystroke_o	o	n/a
260.9445	0.0895	521889	keystroke_m	m	n/a
261.079	0.1205	522158	keystroke_e	e	n/a
261.334	0.0905	522668	keystroke_s	s	n/a
261.859	0.09	523718	keystroke_Key.backspace	Key.backspace	n/a
262.084	0.1055	524168	keystroke_t	t	n/a
262.834	0.1045	525668	keystroke_o	o	n/a
262.9835	0.12	525967	keystroke_w	w	n/a
263.1795	0.0295	526359	keystroke_n	n	n/a
263.3585	0.09	526717	keystroke_Key.space	Key.space	n/a
263.5985	0.1055	527197	keystroke_p	p	n/a
263.764	0.0765	527528	keystroke_r	r	n/a
263.8545	0.075	527709	keystroke_o	o	n/a
264.0495	0.089	528099	keystroke_m	m	n/a
264.2285	0.106	528457	keystroke_o	o	n/a
264.379	0.105	528758	keystroke_t	t	n/a
264.634	0.165	529268	keystroke_e	e	n/a
264.814	0.1055	529628	keystroke_d	d	n/a
265.024	0.075	530048	keystroke_Key.space	Key.space	n/a
265.504	0.09	531008	keystroke_Key.enter	Key.enter	n/a
265.6005	13.285	531201	prompt	n/a	recommendation suspended imaging castle\n
266.224	0.12	532448	keystroke_r	r	n/a
266.3745	0.165	532749	keystroke_e	e	n/a
266.704	0.09	533408	keystroke_c	c	n/a
266.899	0.1045	533798	keystroke_o	o	n/a
267.6195	0.09	535239	keystroke_m	m	n/a
267.905	0.089	535810	keystroke_m	m	n/a
268.114	0.165	536228	keystroke_e	e	n/a
268.325	0.0435	536650	keystroke_d	d	n/a
268.534	0.09	537068	keystroke_n	n	n/a
268.8335	0.06	537667	keystroke_a	a	n/a
269.134	0.0745	538268	keystroke_Key.backspace	Key.backspace	n/a
269.329	0.075	538658	keystroke_Key.backspace	Key.backspace	n/a
269.644	0.1355	539288	keystroke_e	e	n/a
271.624	0.0745	543248	keystroke_Key.backspace	Key.backspace	n/a
271.834	0.105	543668	keystroke_a	a	n/a
272.119	0.09	544238	keystroke_t	t	n/a
272.3135	0.091	544627	keystroke_i	i	n/a
272.509	0.1055	545018	keystroke_o	o	n/a
272.899	0.105	545798	keystroke_n	n	n/a
273.304	0.06	546608	keystroke_Key.space	Key.space	n/a
273.454	0.075	546908	keystroke_s	s	n/a
273.589	0.0755	547178	keystroke_u	u	n/a
273.679	0.09	547358	keystroke_s	s	n/a
273.8895	0.105	547779	keystroke_p	p	n/a
274.069	0.1205	548138	keystroke_e	e	n/a
274.3995	0.075	548799	keystroke_n	n	n/a
274.7285	0.09	549457	keystroke_d	d	n/a
274.8935	0.135	549787	keystroke_e	e	n/a
275.0295	0.0905	550059	keystroke_d	d	n/a
275.2095	0.089	550419	keystroke_Key.space	Key.space	n/a
275.914	0.045	551828	keystroke_i	i	n/a
276.0645	0.089	552129	keystroke_m	m	n/a
276.214	0.0605	552428	keystroke_a	a	n/a
276.7845	0.1045	553569	keystroke_g	g	n/a
276.949	0.0605	553898	keystroke_i	i	n/a
277.114	0.1055	554228	keystroke_n	n	n/a
277.249	0.1055	554498	keystroke_g	g	n/a
277.3835	0.091	554767	keystroke_Key.space	Key.space	n/a
277.6845	0.119	555369	keystroke_c	c	n/a
277.8495	0.15	555699	keystroke_a	a	n/a
278.0445	0.104	556089	keystroke_s	s	n/a
278.2695	0.089	556539	keystroke_t	t	n/a
278.419	0.1345	556838	keystroke_l	l	n/a
278.5245	0.089	557049	keystroke_e	e	n/a
278.7785	0.1055	557557	keystroke_Key.enter	Key.enter	n/a
278.89	7.1955	557780	prompt	n/a	develops arrange youth chicago\n
279.9785	0.091	559957	keystroke_d	d	n/a
280.1145	0.1045	560229	keystroke_e	e	n/a
280.234	0.075	560468	keystroke_v	v	n/a
280.3845	0.059	560769	keystroke_e	e	n/a
280.5945	0.06	561189	keystroke_l	l	n/a
280.7885	0.105	561577	keystroke_o	o	n/a
280.955	0.119	561910	keystroke_p	p	n/a
281.1795	0.0895	562359	keystroke_s	s	n/a
281.359	0.075	562718	keystroke_Key.space	Key.space	n/a
281.644	0.1055	563288	keystroke_a	a	n/a
281.824	0.075	563648	keystroke_r	r	n/a
282.0185	0.091	564037	keystroke_r	r	n/a
282.1395	0.135	564279	keystroke_a	a	n/a
282.3045	0.0745	564609	keystroke_n	n	n/a
282.5445	0.09	565089	keystroke_g	g	n/a
282.6945	0.074	565389	keystroke_e	e	n/a
282.9045	0.09	565809	keystroke_Key.space	Key.space	n/a
283.3395	0.089	566679	keystroke_y	y	n/a
283.459	0.1205	566918	keystroke_o	o	n/a
283.6995	0.105	567399	keystroke_u	u	n/a
283.9395	0.075	567879	keystroke_t	t	n/a
284.0295	0.1055	568059	keystroke_h	h	n/a
284.269	0.105	568538	keystroke_Key.space	Key.space	n/a
284.7945	0.075	569589	keystroke_c	c	n/a
284.899	0.09	569798	keystroke_h	h	n/a
285.049	0.0905	570098	keystroke_i	i	n/a
285.184	0.12	570368	keystroke_c	c	n/a
285.35	0.134	570700	keystroke_a	a	n/a
285.469	0.0755	570938	keystroke_g	g	n/a
285.6345	0.0895	571269	keystroke_o	o	n/a
285.964	0.12	571928	keystroke_Key.enter	Key.enter	n/a
286.0885	12.597	572177	prompt	n/a	cited explicitly guidance enormous\n
286.9245	0.074	573849	keystroke_c	c	n/a
287.0145	0.074	574029	keystroke_i	i	n/a
287.2685	0.0605	574537	keystroke_t	t	n/a
287.419	0.1645	574838	keystroke_e	e	n/a
287.5535	0.12	575107	keystroke_d	d	n/a
287.7785	0.06	575557	keystroke_Key.space	Key.space	n/a
288.0485	0.076	576097	keystroke_e	e	n/a
288.484	0.1055	576968	keystroke_x	x	n/a
289.2485	0.09	578497	keystroke_p	p	n/a
289.474	0.135	578948	keystroke_l	l	n/a
289.774	0.075	579548	keystroke_i	i	n/a
290.284	0.09	580568	keystroke_c	c	n/a
290.4495	0.074	580899	keystroke_i	i	n/a
290.765	0.119	581530	keystroke_t	t	n/a
291.214	0.1345	582428	keystroke_l	l	n/a
292.2045	0.075	584409	keystroke_y	y	n/a
292.369	0.0895	584738	keystroke_Key.space	Key.space	n/a
292.5955	0.073	585191	keystroke_g	g	n/a
292.8795	0.0895	585759	keystroke_u	u	n/a
293.0745	0.105	586149	keystroke_i	i	n/a
293.6285	0.105	587257	keystroke_d	d	n/a
293.7635	0.151	587527	keystroke_a	a	n/a
293.9735	0.061	587947	keystroke_n	n	n/a
294.124	0.075	588248	keystroke_c	c	n/a
294.3345	0.104	588669	keystroke_e	e	n/a
294.4985	0.09	588997	keystroke_Key.space	Key.space	n/a
294.7545	0.06	589509	keystroke_e	e	n/a
294.874	0.075	589748	keystroke_n	n	n/a
295.2035	0.061	590407	keystroke_o	o	n/a
296.269	0.1205	592538	keystroke_u	u	n/a
296.674	0.105	593348	keystroke_Key.backspace	Key.backspace	n/a
296.974	0.0905	593948	keystroke_r	r	n/a
297.724	0.075	595448	keystroke_m	m	n/a
297.8885	0.105	595777	keystroke_o	o	n/a
298.0695	0.075	596139	keystroke_u	u	n/a
298.2035	0.1055	596407	keystroke_s	s	n/a
298.594	0.09	597188	keystroke_Key.enter	Key.enter	n/a
298.6895	7.721	597379	prompt	n/a	briefs unsigned items goat\n
299.479	0.09	598958	keystroke_b	b	n/a
299.644	0.09	599288	keystroke_r	r	n/a
299.869	0.09	599738	keystroke_i	i	n/a
300.169	0.09	600338	keystroke_e	e	n/a
300.364	0.105	600728	keystroke_f	f	n/a
301.069	0.105	602138	keystroke_s	s	n/a
301.234	0.075	602468	keystroke_Key.space	Key.space	n/a
301.429	0.075	602858	keystroke_u	u	n/a
301.624	0.0905	603248	keystroke_n	n	n/a
301.8645	0.0895	603729	keystroke_s	s	n/a
301.984	0.075	603968	keystroke_i	i	n/a
302.209	0.075	604418	keystroke_g	g	n/a
302.3585	0.09	604717	keystroke_n	n	n/a
302.509	0.1495	605018	keystroke_e	e	n/a
302.7485	0.0455	605497	keystroke_d	d	n/a
303.424	0.105	606848	keystroke_Key.space	Key.space	n/a
303.949	0.075	607898	keystroke_i	i	n/a
304.174	0.09	608348	keystroke_t	t	n/a
304.5195	0.074	609039	keystroke_e	e	n/a
304.7885	0.1055	609577	keystroke_m	m	n/a
304.954	0.0895	609908	keystroke_s	s	n/a
305.1035	0.0755	610207	keystroke_Key.space	Key.space	n/a
305.4635	0.0755	610927	keystroke_g	g	n/a
305.5985	0.0605	611197	keystroke_o	o	n/a
305.704	0.12	611408	keystroke_a	a	n/a
305.944	0.0745	611888	keystroke_t	t	n/a
306.3185	0.09	612637	keystroke_Key.enter	Key.enter	n/a
306.426	8.4445	612852	prompt	n/a	good mastercard variations lodging\n
307.234	0.09	614468	keystroke_g	g	n/a
307.4285	0.0455	614857	keystroke_o	o	n/a
307.564	0.0745	615128	keystroke_o	o	n/a
307.774	0.0905	615548	keystroke_d	d	n/a
307.969	0.09	615938	keystroke_Key.space	Key.space	n/a
308.254	0.075	616508	keystroke_m	m	n/a
308.3735	0.1205	616747	keystroke_a	a	n/a
308.5235	0.135	617047	keystroke_s	s	n/a
308.734	0.06	617468	keystroke_t	t	n/a
308.824	0.1655	617648	keystroke_e	e	n/a
308.974	0.09	617948	keystroke_r	r	n/a
309.289	0.105	618578	keystroke_c	c	n/a
309.4395	0.1795	618879	keystroke_a	a	n/a
309.678	0.091	619356	keystroke_r	r	n/a
309.994	0.075	619988	keystroke_d	d	n/a
310.144	0.075	620288	keystroke_Key.space	Key.space	n/a
310.414	0.105	620828	keystroke_v	v	n/a
310.6235	0.1355	621247	keystroke_a	a	n/a
310.8645	0.119	621729	keystroke_r	r	n/a
311.869	0.075	623738	keystroke_i	i	n/a
312.0795	0.1335	624159	keystroke_a	a	n/a
312.303	0.076	624606	keystroke_t	t	n/a
312.544	0.1195	625088	keystroke_i	i	n/a
312.7985	0.0905	625597	keystroke_o	o	n/a
313.024	0.0745	626048	keystroke_n	n	n/a
313.1285	0.0605	626257	keystroke_s	s	n/a
313.2335	0.09	626467	keystroke_Key.space	Key.space	n/a
313.444	0.0895	626888	keystroke_l	l	n/a
313.6385	0.0905	627277	keystroke_o	o	n/a
313.8035	0.075	627607	keystroke_d	d	n/a
314.0295	0.0745	628059	keystroke_g	g	n/a
314.134	0.059	628268	keystroke_i	i	n/a
314.3145	0.075	628629	keystroke_n	n	n/a
314.419	0.075	628838	keystroke_g	g	n/a
314.7785	0.0905	629557	keystroke_Key.enter	Key.enter	n/a
314.875	4.6155	629750	prompt	n/a	mother nike save links\n
315.5885	0.09	631177	keystroke_m	m	n/a
315.7685	0.09	631537	keystroke_o	o	n/a
315.904	0.0745	631808	keystroke_t	t	n/a
316.024	0.0755	632048	keystroke_h	h	n/a
316.1735	0.1955	632347	keystroke_e	e	n/a
316.339	0.1205	632678	keystroke_r	r	n/a
316.5035	0.0605	633007	keystroke_Key.space	Key.space	n/a
316.684	0.06	633368	keystroke_n	n	n/a
316.864	0.0745	633728	keystroke_i	i	n/a
317.059	0.075	634118	keystroke_k	k	n/a
317.209	0.09	634418	keystroke_e	e	n/a
317.359	0.09	634718	keystroke_Key.space	Key.space	n/a
317.629	0.12	635258	keystroke_s	s	n/a
317.794	0.135	635588	keystroke_a	a	n/a
317.974	0.0905	635948	keystroke_v	v	n/a
318.124	0.075	636248	keystroke_e	e	n/a
318.334	0.0595	636668	keystroke_Key.space	Key.space	n/a
318.559	0.0755	637118	keystroke_l	l	n/a
318.724	0.075	637448	keystroke_i	i	n/a
318.889	0.09	637778	keystroke_n	n	n/a
319.039	0.1045	638078	keystroke_k	k	n/a
319.4285	0.06	638857	keystroke_Key.enter	Key.enter	n/a
319.495	12.2355	638990	prompt	n/a	centre justice michigan jacksonville\n
320.449	0.074	640898	keystroke_c	c	n/a
320.628	0.09	641256	keystroke_e	e	n/a
320.734	0.0905	641468	keystroke_n	n	n/a
320.9885	0.076	641977	keystroke_t	t	n/a
321.124	0.165	642248	keystroke_r	r	n/a
321.274	0.1505	642548	keystroke_e	e	n/a
321.529	0.075	643058	keystroke_Key.space	Key.space	n/a
321.9185	0.076	643837	keystroke_j	j	n/a
322.099	0.075	644198	keystroke_u	u	n/a
322.2035	0.105	644407	keystroke_s	s	n/a
322.3695	0.075	644739	keystroke_t	t	n/a
322.6695	0.06	645339	keystroke_i	i	n/a
322.8195	0.0895	645639	keystroke_c	c	n/a
323.029	0.09	646058	keystroke_e	e	n/a
323.224	0.075	646448	keystroke_Key.space	Key.space	n/a
323.8545	0.0745	647709	keystroke_i	i	n/a
323.989	0.075	647978	keystroke_c	c	n/a
324.0785	0.09	648157	keystroke_h	h	n/a
324.7835	0.0905	649567	keystroke_Key.backspace	Key.backspace	n/a
324.994	0.075	649988	keystroke_Key.backspace	Key.backspace	n/a
325.219	0.09	650438	keystroke_Key.backspace	Key.backspace	n/a
325.7895	0.0745	651579	keystroke_m	m	n/a
326.0145	0.0895	652029	keystroke_i	i	n/a
326.824	0.09	653648	keystroke_c	c	n/a
327.064	0.015	654128	keystroke_h	h	n/a
327.154	0.105	654308	keystroke_i	i	n/a
327.664	0.045	655328	keystroke_g	g	n/a
327.7845	0.1345	655569	keystroke_a	a	n/a
327.963	0.0915	655926	keystroke_n	n	n/a
328.129	0.105	656258	keystroke_Key.space	Key.space	n/a
328.8645	0.06	657729	keystroke_j	j	n/a
328.9385	0.166	657877	keystroke_a	a	n/a
329.179	0.0905	658358	keystroke_c	c	n/a
329.3135	0.06	658627	keystroke_k	k	n/a
329.4335	0.1055	658867	keystroke_s	s	n/a
329.554	0.0895	659108	keystroke_o	o	n/a
329.794	0.0895	659588	keystroke_n	n	n/a
330.574	0.0905	661148	keystroke_v	v	n/a
330.7695	0.075	661539	keystroke_i	i	n/a
330.979	0.075	661958	keystroke_l	l	n/a
331.1145	0.105	662229	keystroke_l	l	n/a
331.309	0.0605	662618	keystroke_e	e	n/a
331.714	0.015	663428	keystroke_Key.enter	Key.enter	n/a
331.7355	12.085	663471	prompt	n/a	scoring lincoln innovation tragedy\n
332.494	0.105	664988	keystroke_s	s	n/a
332.719	0.09	665438	keystroke_c	c	n/a
332.8845	0.0895	665769	keystroke_o	o	n/a
332.9895	0.1045	665979	keystroke_r	r	n/a
333.199	0.075	666398	keystroke_i	i	n/a
333.409	0.09	666818	keystroke_n	n	n/a
333.559	0.0895	667118	keystroke_g	g	n/a
333.724	0.0745	667448	keystroke_Key.space	Key.space	n/a
334.009	0.09	668018	keystroke_l	l	n/a
334.189	0.06	668378	keystroke_i	i	n/a
334.3685	0.0755	668737	keystroke_n	n	n/a
334.5635	0.0605	669127	keystroke_c	c	n/a
334.638	0.061	669276	keystroke_o	o	n/a
334.818	0.0765	669636	keystroke_l	l	n/a
335.509	0.0895	671018	keystroke_n	n	n/a
335.688	0.0755	671376	keystroke_Key.space	Key.space	n/a
336.274	0.09	672548	keystroke_i	i	n/a
336.484	0.0605	672968	keystroke_n	n	n/a
336.649	0.075	673298	keystroke_n	n	n/a
336.874	0.09	673748	keystroke_o	o	n/a
337.669	0.015	675338	keystroke_c	c	n/a
337.7135	0.1195	675427	keystroke_a	a	n/a
338.029	0.089	676058	keystroke_t	t	n/a
338.494	0.075	676988	keystroke_Key.backspace	Key.backspace	n/a
338.6585	0.09	677317	keystroke_Key.backspace	Key.backspace	n/a
339.049	0.0595	678098	keystroke_Key.backspace	Key.backspace	n/a
340.0235	0.045	680047	keystroke_v	v	n/a
340.2485	0.09	680497	keystroke_a	a	n/a
340.609	0.0595	681218	keystroke_t	t	n/a
340.7735	0.0755	681547	keystroke_i	i	n/a
340.894	0.0895	681788	keystroke_o	o	n/a
341.2395	0.089	682479	keystroke_n	n	n/a
341.478	0.0905	682956	keystroke_Key.space	Key.space	n/a
341.8385	0.0755	683677	keystroke_t	t	n/a
342.0635	0.06	684127	keystroke_r	r	n/a
342.199	0.09	684398	keystroke_a	a	n/a
342.8585	0.0605	685717	keystroke_g	g	n/a
342.9935	0.136	685987	keystroke_e	e	n/a
343.143	0.0765	686286	keystroke_d	d	n/a
343.294	0.059	686588	keystroke_y	y	n/a
343.714	0.105	687428	keystroke_Key.enter	Key.enter	n/a
343.8255	16.315	687651	prompt	n/a	partner appropriations attraction greensboro\n
344.569	0.09	689138	keystroke_p	p	n/a
344.689	0.135	689378	keystroke_a	a	n/a
344.914	0.09	689828	keystroke_r	r	n/a
345.139	0.0755	690278	keystroke_t	t	n/a
345.5445	0.089	691089	keystroke_n	n	n/a
345.664	0.135	691328	keystroke_e	e	n/a
345.784	0.089	691568	keystroke_r	r	n/a
345.919	0.09	691838	keystroke_Key.space	Key.space	n/a
346.114	0.119	692228	keystroke_a	a	n/a
346.263	0.075	692526	keystroke_p	p	n/a
346.4745	0.09	692949	keystroke_p	p	n/a
346.6695	0.105	693339	keystroke_r	r	n/a
347.8695	0.105	695739	keystroke_o	o	n/a
348.3635	0.105	696727	keystroke_p	p	n/a
348.9935	0.105	697987	keystroke_r	r	n/a
349.294	0.09	698588	keystroke_i	i	n/a
349.504	0.135	699008	keystroke_a	a	n/a
350.1345	0.1045	700269	keystroke_t	t	n/a
350.374	0.075	700748	keystroke_i	i	n/a
350.539	0.09	701078	keystroke_o	o	n/a
350.779	0.0895	701558	keystroke_n	n	n/a
350.944	0.09	701888	keystroke_s	s	n/a
351.124	0.074	702248	keystroke_Key.space	Key.space	n/a
351.364	0.135	702728	keystroke_a	a	n/a
351.619	0.06	703238	keystroke_t	t	n/a
351.769	0.06	703538	keystroke_t	t	n/a
351.949	0.135	703898	keystroke_r	r	n/a
352.144	0.195	704288	keystroke_e	e	n/a
352.384	0.165	704768	keystroke_a	a	n/a
352.788	0.061	705576	keystroke_Key.backspace	Key.backspace	n/a
352.968	0.076	705936	keystroke_Key.backspace	Key.backspace	n/a
353.1495	0.135	706299	keystroke_a	a	n/a
353.4495	0.0895	706899	keystroke_c	c	n/a
354.4985	0.075	708997	keystroke_t	t	n/a
354.7535	0.075	709507	keystroke_i	i	n/a
355.429	0.075	710858	keystroke_o	o	n/a
355.82	0.089	711640	keystroke_n	n	n/a
356.2085	0.0745	712417	keystroke_Key.space	Key.space	n/a
356.5545	0.074	713109	keystroke_g	g	n/a
356.6885	0.15	713377	keystroke_r	r	n/a
356.854	0.09	713708	keystroke_e	e	n/a
357.064	0.09	714128	keystroke_e	e	n/a
357.3185	0.0605	714637	keystroke_n	n	n/a
358.279	0.12	716558	keystroke_s	s	n/a
359.119	0.0755	718238	keystroke_b	b	n/a
359.284	0.06	718568	keystroke_o	o	n/a
359.374	0.12	718748	keystroke_r	r	n/a
359.479	0.09	718958	keystroke_o	o	n/a
360.034	0.105	720068	keystroke_Key.enter	Key.enter	n/a
360.1455	10.39	720291	prompt	n/a	respectively unlimited literally brings\n
361.174	0.165	722348	keystroke_r	r	n/a
361.309	0.179	722618	keystroke_e	e	n/a
361.444	0.21	722888	keystroke_s	s	n/a
361.849	0.075	723698	keystroke_p	p	n/a
362.104	0.09	724208	keystroke_e	e	n/a
362.389	0.1045	724778	keystroke_c	c	n/a
362.809	0.075	725618	keystroke_t	t	n/a
363.318	0.076	726636	keystroke_i	i	n/a
363.514	0.09	727028	keystroke_v	v	n/a
363.6645	0.1045	727329	keystroke_e	e	n/a
363.784	0.12	727568	keystroke_l	l	n/a
364.099	0.09	728198	keystroke_y	y	n/a
364.324	0.0895	728648	keystroke_Key.space	Key.space	n/a
364.8185	0.06	729637	keystroke_u	u	n/a
365.0135	0.09	730027	keystroke_n	n	n/a
365.4785	0.105	730957	keystroke_l	l	n/a
365.674	0.0755	731348	keystroke_i	i	n/a
365.839	0.0895	731678	keystroke_m	m	n/a
366.019	0.075	732038	keystroke_i	i	n/a
366.303	0.076	732606	keystroke_t	t	n/a
366.408	0.1955	732816	keystroke_e	e	n/a
366.589	0.1195	733178	keystroke_d	d	n/a
366.859	0.074	733718	keystroke_Key.space	Key.space	n/a
367.099	0.089	734198	keystroke_l	l	n/a
367.264	0.0895	734528	keystroke_i	i	n/a
367.519	0.0605	735038	keystroke_t	t	n/a
367.6385	0.211	735277	keystroke_e	e	n/a
367.8335	0.15	735667	keystroke_r	r	n/a
368.1035	0.105	736207	keystroke_a	a	n/a
368.3295	0.059	736659	keystroke_l	l	n/a
368.464	0.0895	736928	keystroke_l	l	n/a
368.779	0.0895	737558	keystroke_y	y	n/a
368.9735	0.075	737947	keystroke_Key.space	Key.space	n/a
369.3935	0.0605	738787	keystroke_b	b	n/a
369.499	0.075	738998	keystroke_r	r	n/a
369.619	0.06	739238	keystroke_i	i	n/a
369.769	0.075	739538	keystroke_n	n	n/a
369.919	0.09	739838	keystroke_g	g	n/a
370.173	0.09	740346	keystroke_s	s	n/a
370.443	0.09	740886	keystroke_Key.enter	Key.enter	n/a
370.5395	7.976	741079	prompt	n/a	ownership employ batteries lonely\n
371.314	0.06	742628	keystroke_o	o	n/a
371.494	0.0895	742988	keystroke_w	w	n/a
371.7185	0.0755	743437	keystroke_n	n	n/a
371.8995	0.134	743799	keystroke_e	e	n/a
372.019	0.1045	744038	keystroke_r	r	n/a
372.2435	0.0905	744487	keystroke_s	s	n/a
372.3185	0.0755	744637	keystroke_h	h	n/a
372.514	0.09	745028	keystroke_i	i	n/a
372.739	0.105	745478	keystroke_p	p	n/a
372.949	0.09	745898	keystroke_Key.space	Key.space	n/a
373.264	0.09	746528	keystroke_e	e	n/a
373.399	0.075	746798	keystroke_m	m	n/a
373.624	0.06	747248	keystroke_p	p	n/a
373.804	0.09	747608	keystroke_l	l	n/a
373.984	0.09	747968	keystroke_o	o	n/a
374.569	0.0745	749138	keystroke_y	y	n/a
374.808	0.061	749616	keystroke_Key.space	Key.space	n/a
374.989	0.075	749978	keystroke_b	b	n/a
375.1085	0.1205	750217	keystroke_a	a	n/a
375.274	0.06	750548	keystroke_t	t	n/a
375.439	0.0595	750878	keystroke_t	t	n/a
375.5435	0.15	751087	keystroke_e	e	n/a
375.7835	0.105	751567	keystroke_r	r	n/a
375.9485	0.0905	751897	keystroke_i	i	n/a
376.129	0.2255	752258	keystroke_e	e	n/a
376.3385	0.1355	752677	keystroke_s	s	n/a
376.864	0.0895	753728	keystroke_Key.space	Key.space	n/a
377.0735	0.105	754147	keystroke_l	l	n/a
377.2385	0.09	754477	keystroke_o	o	n/a
377.4485	0.076	754897	keystroke_n	n	n/a
377.5685	0.075	755137	keystroke_e	e	n/a
377.704	0.105	755408	keystroke_l	l	n/a
378.0635	0.1055	756127	keystroke_y	y	n/a
378.424	0.09	756848	keystroke_Key.enter	Key.enter	n/a
378.52	7.6155	757040	prompt	n/a	kent clearing earned moisture\n
379.399	0.06	758798	keystroke_k	k	n/a
379.519	0.0895	759038	keystroke_e	e	n/a
379.6985	0.105	759397	keystroke_n	n	n/a
379.9235	0.0905	759847	keystroke_t	t	n/a
380.1785	0.075	760357	keystroke_Key.space	Key.space	n/a
380.464	0.0745	760928	keystroke_c	c	n/a
380.6135	0.105	761227	keystroke_l	l	n/a
381.1385	0.1805	762277	keystroke_e	e	n/a
381.424	0.195	762848	keystroke_a	a	n/a
381.649	0.09	763298	keystroke_r	r	n/a
381.859	0.0895	763718	keystroke_i	i	n/a
382.054	0.075	764108	keystroke_n	n	n/a
382.189	0.105	764378	keystroke_g	g	n/a
382.534	0.03	765068	keystroke_Key.space	Key.space	n/a
382.834	0.135	765668	keystroke_e	e	n/a
383.029	0.165	766058	keystroke_a	a	n/a
383.1785	0.1055	766357	keystroke_r	r	n/a
383.3735	0.075	766747	keystroke_n	n	n/a
383.4935	0.1805	766987	keystroke_e	e	n/a
383.659	0.12	767318	keystroke_d	d	n/a
383.884	0.075	767768	keystroke_Key.space	Key.space	n/a
384.079	0.075	768158	keystroke_m	m	n/a
384.274	0.09	768548	keystroke_o	o	n/a
384.454	0.0745	768908	keystroke_i	i	n/a
384.694	0.09	769388	keystroke_s	s	n/a
384.979	0.0445	769958	keystroke_t	t	n/a
385.3845	0.0445	770769	keystroke_u	u	n/a
385.564	0.135	771128	keystroke_r	r	n/a
385.714	0.075	771428	keystroke_e	e	n/a
386.059	0.075	772118	keystroke_Key.enter	Key.enter	n/a
386.14	13.1505	772280	prompt	n/a	ranges these're thumbnail center\n
386.899	0.12	773798	keystroke_r	r	n/a
387.0785	0.15	774157	keystroke_a	a	n/a
387.244	0.0895	774488	keystroke_n	n	n/a
387.469	0.075	774938	keystroke_g	g	n/a
387.619	0.195	775238	keystroke_e	e	n/a
387.7685	0.1955	775537	keystroke_s	s	n/a
388.0835	0.0755	776167	keystroke_Key.space	Key.space	n/a
388.3985	0.09	776797	keystroke_t	t	n/a
388.5035	0.075	777007	keystroke_h	h	n/a
388.6835	0.135	777367	keystroke_e	e	n/a
388.8335	0.1505	777667	keystroke_r	r	n/a
389.029	0.0595	778058	keystroke_e	e	n/a
390.544	0.09	781088	keystroke_Key.backspace	Key.backspace	n/a
391.249	0.09	782498	keystroke_Key.backspace	Key.backspace	n/a
392.329	0.12	784658	keystroke_s	s	n/a
392.494	0.09	784988	keystroke_e	e	n/a
393.274	0.09	786548	keystroke_'	'	n/a
393.559	0.164	787118	keystroke_r	r	n/a
393.754	0.09	787508	keystroke_e	e	n/a
394.219	0.074	788438	keystroke_Key.space	Key.space	n/a
394.669	0.09	789338	keystroke_t	t	n/a
394.774	0.06	789548	keystroke_h	h	n/a
394.894	0.1055	789788	keystroke_u	u	n/a
395.149	0.0895	790298	keystroke_m	m	n/a
395.3135	0.1205	790627	keystroke_b	b	n/a
396.3335	0.0605	792667	keystroke_n	n	n/a
396.424	0.12	792848	keystroke_a	a	n/a
396.618	0.091	793236	keystroke_i	i	n/a
397.144	0.105	794288	keystroke_l	l	n/a
397.4285	0.0755	794857	keystroke_Key.space	Key.space	n/a
397.7735	0.075	795547	keystroke_c	c	n/a
398.0135	0.075	796027	keystroke_e	e	n/a
398.2835	0.0755	796567	keystroke_n	n	n/a
398.569	0.074	797138	keystroke_t	t	n/a
398.688	0.1355	797376	keystroke_e	e	n/a
398.8095	0.12	797619	keystroke_r	r	n/a
399.1835	0.105	798367	keystroke_Key.enter	Key.enter	n/a
399.2955	9.715	798591	prompt	n/a	volumes similarly falls controlling\n
400.159	0.09	800318	keystroke_v	v	n/a
400.2795	0.0445	800559	keystroke_o	o	n/a
400.4585	0.0755	800917	keystroke_l	l	n/a
400.6995	0.0595	801399	keystroke_u	u	n/a
400.954	0.1045	801908	keystroke_m	m	n/a
401.1785	0.2705	802357	keystroke_e	e	n/a
401.419	0.18	802838	keystroke_s	s	n/a
401.749	0.09	803498	keystroke_Key.space	Key.space	n/a
402.3785	0.1055	804757	keystroke_s	s	n/a
402.6335	0.0905	805267	keystroke_i	i	n/a
402.844	0.105	805688	keystroke_m	m	n/a
403.084	0.09	806168	keystroke_i	i	n/a
403.399	0.075	806798	keystroke_l	l	n/a
403.5045	0.1645	807009	keystroke_a	a	n/a
403.684	0.075	807368	keystroke_r	r	n/a
403.894	0.12	807788	keystroke_l	l	n/a
404.2835	0.0755	808567	keystroke_y	y	n/a
404.718	0.075	809436	keystroke_Key.space	Key.space	n/a
405.004	0.1195	810008	keystroke_f	f	n/a
405.138	0.12	810276	keystroke_a	a	n/a
405.303	0.076	810606	keystroke_l	l	n/a
405.454	0.0895	810908	keystroke_l	l	n/a
405.6035	0.1055	811207	keystroke_s	s	n/a
405.769	0.0745	811538	keystroke_Key.space	Key.space	n/a
405.9785	0.0605	811957	keystroke_c	c	n/a
406.0685	0.0755	812137	keystroke_o	o	n/a
406.2785	0.091	812557	keystroke_n	n	n/a
406.4435	0.09	812887	keystroke_t	t	n/a
406.969	0.045	813938	keystroke_r	r	n/a
407.254	0.0745	814508	keystroke_o	o	n/a
407.5245	0.074	815049	keystroke_l	l	n/a
407.734	0.0745	815468	keystroke_l	l	n/a
408.259	0.044	816518	keystroke_i	i	n/a
408.424	0.0745	816848	keystroke_n	n	n/a
408.5745	0.059	817149	keystroke_g	g	n/a
408.9335	0.075	817867	keystroke_Key.enter	Key.enter	n/a
409.015	8.3805	818030	prompt	n/a	smooth provinces attach avoid\n
409.8795	0.09	819759	keystroke_s	s	n/a
410.0135	0.075	820027	keystroke_m	m	n/a
410.194	0.0745	820388	keystroke_o	o	n/a
410.3735	0.06	820747	keystroke_o	o	n/a
410.4935	0.0905	820987	keystroke_t	t	n/a
410.674	0.09	821348	keystroke_h	h	n/a
410.899	0.089	821798	keystroke_Key.space	Key.space	n/a
411.844	0.09	823688	keystroke_p	p	n/a
411.979	0.09	823958	keystroke_r	r	n/a
412.234	0.105	824468	keystroke_o	o	n/a
412.939	0.18	825878	keystroke_v	v	n/a
413.134	0.015	826268	keystroke_i	i	n/a
413.824	0.075	827648	keystroke_n	n	n/a
414.018	0.091	828036	keystroke_c	c	n/a
414.259	0.255	828518	keystroke_e	e	n/a
414.4835	0.18	828967	keystroke_s	s	n/a
414.7685	0.075	829537	keystroke_Key.space	Key.space	n/a
414.9185	0.1055	829837	keystroke_a	a	n/a
415.0835	0.0605	830167	keystroke_t	t	n/a
415.2335	0.06	830467	keystroke_t	t	n/a
415.2785	0.1505	830557	keystroke_a	a	n/a
415.5935	0.0905	831187	keystroke_c	c	n/a
415.759	0.105	831518	keystroke_h	h	n/a
415.969	0.09	831938	keystroke_Key.space	Key.space	n/a
416.284	0.1045	832568	keystroke_a	a	n/a
416.464	0.0755	832928	keystroke_v	v	n/a
416.614	0.0895	833228	keystroke_o	o	n/a
416.7635	0.0905	833527	keystroke_i	i	n/a
416.884	0.09	833768	keystroke_d	d	n/a
417.3635	0.03	834727	keystroke_Key.enter	Key.enter	n/a
417.4025	12.128	834805	prompt	n/a	affect grain contacts acdbentity\n
418.0835	0.105	836167	keystroke_a	a	n/a
418.2485	0.06	836497	keystroke_f	f	n/a
418.384	0.075	836768	keystroke_f	f	n/a
418.579	0.075	837158	keystroke_e	e	n/a
418.699	0.09	837398	keystroke_c	c	n/a
418.909	0.09	837818	keystroke_t	t	n/a
419.149	0.09	838298	keystroke_Key.space	Key.space	n/a
419.464	0.075	838928	keystroke_g	g	n/a
419.6135	0.15	839227	keystroke_r	r	n/a
419.7945	0.134	839589	keystroke_a	a	n/a
419.9745	0.074	839949	keystroke_i	i	n/a
420.334	0.0895	840668	keystroke_n	n	n/a
420.5135	0.0755	841027	keystroke_Key.space	Key.space	n/a
420.709	0.06	841418	keystroke_c	c	n/a
420.784	0.075	841568	keystroke_o	o	n/a
420.964	0.09	841928	keystroke_n	n	n/a
421.699	0.015	843398	keystroke_t	t	n/a
421.789	0.1195	843578	keystroke_a	a	n/a
421.969	0.0745	843938	keystroke_c	c	n/a
422.1485	0.09	844297	keystroke_t	t	n/a
422.3285	0.1355	844657	keystroke_s	s	n/a
422.6585	0.0755	845317	keystroke_Key.space	Key.space	n/a
422.854	0.1345	845708	keystroke_a	a	n/a
424.8785	0.105	849757	keystroke_c	c	n/a
425.8085	0.1055	851617	keystroke_d	d	n/a
426.904	0.09	853808	keystroke_b	b	n/a
427.084	0.0745	854168	keystroke_e	e	n/a
427.324	0.06	854648	keystroke_n	n	n/a
428.328	0.121	856656	keystroke_t	t	n/a
428.494	0.0895	856988	keystroke_i	i	n/a
428.674	0.09	857348	keystroke_t	t	n/a
428.883	0.09	857766	keystroke_y	y	n/a
429.424	0.104	858848	keystroke_Key.enter	Key.enter	n/a
429.5345	7.151	859069	prompt	n/a	novel violence packet pics\n
430.3395	0.0895	860679	keystroke_n	n	n/a
430.504	0.1195	861008	keystroke_o	o	n/a
430.774	0.1045	861548	keystroke_v	v	n/a
431.014	0.1055	862028	keystroke_e	e	n/a
431.1645	0.119	862329	keystroke_l	l	n/a
431.419	0.12	862838	keystroke_Key.space	Key.space	n/a
431.7195	0.09	863439	keystroke_v	v	n/a
431.9585	0.1505	863917	keystroke_i	i	n/a
432.1245	0.1345	864249	keystroke_o	o	n/a
432.4235	0.0605	864847	keystroke_l	l	n/a
432.6645	0.089	865329	keystroke_e	e	n/a
432.874	0.105	865748	keystroke_n	n	n/a
433.099	0.12	866198	keystroke_c	c	n/a
433.354	0.12	866708	keystroke_e	e	n/a
433.579	0.09	867158	keystroke_Key.space	Key.space	n/a
433.833	0.091	867666	keystroke_p	p	n/a
433.969	0.1495	867938	keystroke_a	a	n/a
434.4795	0.045	868959	keystroke_c	c	n/a
434.539	0.0755	869078	keystroke_k	k	n/a
435.124	0.105	870248	keystroke_e	e	n/a
435.334	0.104	870668	keystroke_t	t	n/a
435.5285	0.0895	871057	keystroke_Key.space	Key.space	n/a
435.7835	0.0905	871567	keystroke_p	p	n/a
436.053	0.076	872106	keystroke_i	i	n/a
436.189	0.134	872378	keystroke_c	c	n/a
436.384	0.0895	872768	keystroke_s	s	n/a
436.578	0.106	873156	keystroke_Key.enter	Key.enter	n/a
436.69	10.9605	873380	prompt	n/a	wrap competitions capture metadata\n
437.509	0.135	875018	keystroke_w	w	n/a
437.734	0.1345	875468	keystroke_r	r	n/a
437.8985	0.135	875797	keystroke_a	a	n/a
438.1085	0.1205	876217	keystroke_p	p	n/a
438.408	0.075	876816	keystroke_Key.space	Key.space	n/a
438.724	0.105	877448	keystroke_c	c	n/a
438.8885	0.075	877777	keystroke_o	o	n/a
439.129	0.0745	878258	keystroke_m	m	n/a
439.3385	0.105	878677	keystroke_p	p	n/a
439.5785	0.0755	879157	keystroke_e	e	n/a
440.059	0.09	880118	keystroke_t	t	n/a
440.239	0.075	880478	keystroke_i	i	n/a
440.374	0.09	880748	keystroke_t	t	n/a
440.524	0.09	881048	keystroke_i	i	n/a
440.809	0.015	881618	keystroke_o	o	n/a
441.079	0.0895	882158	keystroke_s	s	n/a
441.244	0.09	882488	keystroke_Key.space	Key.space	n/a
441.484	0.0745	882968	keystroke_c	c	n/a
442.219	0.0745	884438	keystroke_Key.backspace	Key.backspace	n/a
442.413	0.091	884826	keystroke_Key.backspace	Key.backspace	n/a
442.6385	0.1055	885277	keystroke_Key.backspace	Key.backspace	n/a
443.2835	0.075	886567	keystroke_n	n	n/a
443.4635	0.105	886927	keystroke_s	s	n/a
443.689	0.09	887378	keystroke_Key.space	Key.space	n/a
443.853	0.121	887706	keystroke_c	c	n/a
444.004	0.134	888008	keystroke_a	a	n/a
444.168	0.091	888336	keystroke_p	p	n/a
444.604	0.075	889208	keystroke_t	t	n/a
444.814	0.105	889628	keystroke_u	u	n/a
444.964	0.165	889928	keystroke_r	r	n/a
445.1135	0.165	890227	keystroke_e	e	n/a
445.3385	0.075	890677	keystroke_Key.space	Key.space	n/a
445.594	0.074	891188	keystroke_m	m	n/a
445.7585	0.12	891517	keystroke_e	e	n/a
445.969	0.075	891938	keystroke_t	t	n/a
446.1485	0.09	892297	keystroke_a	a	n/a
446.449	0.12	892898	keystroke_d	d	n/a
446.644	0.09	893288	keystroke_a	a	n/a
447.064	0.075	894128	keystroke_t	t	n/a
447.184	0.09	894368	keystroke_a	a	n/a
447.559	0.09	895118	keystroke_Key.enter	Key.enter	n/a
447.654	9.7765	895308	prompt	n/a	smart saves durham amateur\n
448.324	0.104	896648	keystroke_s	s	n/a
448.4435	0.1055	896887	keystroke_m	m	n/a
448.5935	0.1645	897187	keystroke_a	a	n/a
448.8185	0.09	897637	keystroke_r	r	n/a
449.0745	0.119	898149	keystroke_t	t	n/a
449.2685	0.0895	898537	keystroke_Key.space	Key.space	n/a
449.4485	0.1205	898897	keystroke_s	s	n/a
449.6445	0.149	899289	keystroke_a	a	n/a
449.8835	0.0755	899767	keystroke_v	v	n/a
450.0635	0.1655	900127	keystroke_e	e	n/a
450.1985	0.2255	900397	keystroke_s	s	n/a
450.543	0.091	901086	keystroke_Key.space	Key.space	n/a
451.144	0.105	902288	keystroke_d	d	n/a
451.369	0.075	902738	keystroke_u	u	n/a
451.474	0.09	902948	keystroke_r	r	n/a
451.714	0.074	903428	keystroke_h	h	n/a
451.939	0.12	903878	keystroke_a	a	n/a
452.149	0.105	904298	keystroke_m	m	n/a
452.3735	0.105	904747	keystroke_Key.space	Key.space	n/a
452.8385	0.12	905677	keystroke_a	a	n/a
454.189	0.09	908378	keystroke_m	m	n/a
454.609	0.12	909218	keystroke_a	a	n/a
455.073	0.076	910146	keystroke_t	t	n/a
455.8385	0.0745	911677	keystroke_e	e	n/a
456.9635	0.09	913927	keystroke_u	u	n/a
457.0685	0.015	914137	keystroke_r	r	n/a
457.3085	0.12	914617	keystroke_Key.enter	Key.enter	n/a
457.435	6.97	914870	prompt	n/a	impact tsunami fate prospects\n
458.119	0.1045	916238	keystroke_i	i	n/a
458.2695	0.1195	916539	keystroke_m	m	n/a
458.494	0.0895	916988	keystroke_p	p	n/a
458.598	0.121	917196	keystroke_a	a	n/a
458.854	0.089	917708	keystroke_c	c	n/a
459.004	0.09	918008	keystroke_t	t	n/a
459.244	0.06	918488	keystroke_Key.space	Key.space	n/a
459.574	0.045	919148	keystroke_t	t	n/a
459.7385	0.105	919477	keystroke_s	s	n/a
459.8585	0.06	919717	keystroke_u	u	n/a
460.054	0.075	920108	keystroke_n	n	n/a
460.189	0.12	920378	keystroke_a	a	n/a
460.294	0.089	920588	keystroke_m	m	n/a
460.504	0.12	921008	keystroke_i	i	n/a
460.654	0.09	921308	keystroke_Key.space	Key.space	n/a
461.343	0.1055	922686	keystroke_f	f	n/a
461.478	0.151	922956	keystroke_a	a	n/a
461.613	0.106	923226	keystroke_t	t	n/a
461.808	0.106	923616	keystroke_e	e	n/a
462.003	0.09	924006	keystroke_Key.space	Key.space	n/a
462.303	0.0605	924606	keystroke_p	p	n/a
462.4385	0.09	924877	keystroke_r	r	n/a
462.574	0.1045	925148	keystroke_o	o	n/a
462.7385	0.091	925477	keystroke_s	s	n/a
462.9335	0.075	925867	keystroke_p	p	n/a
463.3385	0.09	926677	keystroke_e	e	n/a
463.5335	0.1055	927067	keystroke_c	c	n/a
463.8035	0.12	927607	keystroke_t	t	n/a
463.9985	0.12	927997	keystroke_s	s	n/a
464.3285	0.0745	928657	keystroke_Key.enter	Key.enter	n/a
464.409	7.0165	928818	prompt	n/a	citation merry formed believes\n
465.1835	0.09	930367	keystroke_c	c	n/a
465.4095	0.0745	930819	keystroke_i	i	n/a
465.5885	0.12	931177	keystroke_t	t	n/a
465.784	0.1795	931568	keystroke_a	a	n/a
465.9485	0.1045	931897	keystroke_t	t	n/a
466.1435	0.09	932287	keystroke_i	i	n/a
466.309	0.1045	932618	keystroke_o	o	n/a
466.534	0.1045	933068	keystroke_n	n	n/a
466.6535	0.075	933307	keystroke_Key.space	Key.space	n/a
466.8335	0.09	933667	keystroke_m	m	n/a
466.969	0.1345	933938	keystroke_e	e	n/a
467.2085	0.0755	934417	keystroke_r	r	n/a
467.4485	0.06	934897	keystroke_r	r	n/a
467.6135	0.0755	935227	keystroke_y	y	n/a
467.823	0.0905	935646	keystroke_Key.space	Key.space	n/a
468.0935	0.075	936187	keystroke_f	f	n/a
468.214	0.09	936428	keystroke_o	o	n/a
468.3485	0.135	936697	keystroke_r	r	n/a
468.574	0.0595	937148	keystroke_m	m	n/a
468.7385	0.18	937477	keystroke_e	e	n/a
468.9335	0.09	937867	keystroke_d	d	n/a
469.0835	0.075	938167	keystroke_Key.space	Key.space	n/a
469.2785	0.09	938557	keystroke_b	b	n/a
469.4585	0.06	938917	keystroke_e	e	n/a
469.5785	0.1055	939157	keystroke_l	l	n/a
469.8035	0.0745	939607	keystroke_i	i	n/a
470.058	0.0605	940116	keystroke_e	e	n/a
470.328	0.0905	940656	keystroke_v	v	n/a
470.554	0.24	941108	keystroke_e	e	n/a
470.8385	0.12	941677	keystroke_s	s	n/a
471.333	0.09	942666	keystroke_Key.enter	Key.enter	n/a
471.431	10.2245	942862	prompt	n/a	trainers transcription utah related\n
472.1885	0.1655	944377	keystroke_t	t	n/a
472.384	0.135	944768	keystroke_r	r	n/a
472.5035	0.1655	945007	keystroke_a	a	n/a
472.714	0.029	945428	keystroke_i	i	n/a
472.879	0.105	945758	keystroke_n	n	n/a
473.013	0.301	946026	keystroke_e	e	n/a
473.1635	0.2095	946327	keystroke_r	r	n/a
473.359	0.195	946718	keystroke_s	s	n/a
473.688	0.0905	947376	keystroke_Key.space	Key.space	n/a
473.9435	0.166	947887	keystroke_t	t	n/a
474.1385	0.165	948277	keystroke_r	r	n/a
474.6335	0.1205	949267	keystroke_a	a	n/a
474.859	0.075	949718	keystroke_s	s	n/a
475.053	0.075	950106	keystroke_n	n	n/a
475.443	0.09	950886	keystroke_Key.backspace	Key.backspace	n/a
475.623	0.06	951246	keystroke_Key.backspace	Key.backspace	n/a
475.9235	0.0745	951847	keystroke_n	n	n/a
476.148	0.0905	952296	keystroke_s	s	n/a
476.7785	0.09	953557	keystroke_c	c	n/a
477.1235	0.075	954247	keystroke_r	r	n/a
477.3185	0.075	954637	keystroke_i	i	n/a
477.5735	0.121	955147	keystroke_p	p	n/a
477.814	0.1045	955628	keystroke_t	t	n/a
478.4135	0.0905	956827	keystroke_i	i	n/a
478.5935	0.0905	957187	keystroke_o	o	n/a
478.8035	0.09	957607	keystroke_n	n	n/a
478.9535	0.075	957907	keystroke_Key.space	Key.space	n/a
479.1485	0.075	958297	keystroke_u	u	n/a
479.2985	0.105	958597	keystroke_t	t	n/a
479.448	0.166	958896	keystroke_a	a	n/a
479.584	0.12	959168	keystroke_h	h	n/a
479.823	0.09	959646	keystroke_Key.space	Key.space	n/a
480.0785	0.12	960157	keystroke_r	r	n/a
480.1985	0.12	960397	keystroke_e	e	n/a
480.409	0.09	960818	keystroke_l	l	n/a
480.514	0.12	961028	keystroke_a	a	n/a
480.754	0.045	961508	keystroke_t	t	n/a
480.844	0.15	961688	keystroke_e	e	n/a
481.204	0.09	962408	keystroke_d	d	n/a
481.564	0.09	963128	keystroke_Key.enter	Key.enter	n/a
481.6595	10.0755	963319	prompt	n/a	declare rated had located\n
482.5085	0.075	965017	keystroke_d	d	n/a
482.6285	0.105	965257	keystroke_e	e	n/a
483.1835	0.075	966367	keystroke_l	l	n/a
483.5435	0.0895	967087	keystroke_Key.backspace	Key.backspace	n/a
483.829	0.014	967658	keystroke_c	c	n/a
483.9035	0.12	967807	keystroke_l	l	n/a
484.0845	0.2245	968169	keystroke_a	a	n/a
484.2945	0.1945	968589	keystroke_r	r	n/a
484.474	0.1345	968948	keystroke_e	e	n/a
484.9085	0.09	969817	keystroke_Key.space	Key.space	n/a
485.2685	0.12	970537	keystroke_r	r	n/a
485.4185	0.1355	970837	keystroke_a	a	n/a
485.584	0.075	971168	keystroke_t	t	n/a
485.734	0.209	971468	keystroke_e	e	n/a
485.914	0.1345	971828	keystroke_s	s	n/a
486.214	0.0595	972428	keystroke_Key.space	Key.space	n/a
486.408	0.0755	972816	keystroke_h	h	n/a
487.0835	0.1045	974167	keystroke_Key.backspace	Key.backspace	n/a
487.308	0.091	974616	keystroke_Key.backspace	Key.backspace	n/a
487.519	0.1495	975038	keystroke_Key.backspace	Key.backspace	n/a
488.209	0.059	976418	keystroke_d	d	n/a
488.523	0.09	977046	keystroke_Key.space	Key.space	n/a
488.7635	0.0905	977527	keystroke_h	h	n/a
488.944	0.1945	977888	keystroke_a	a	n/a
489.3495	0.119	978699	keystroke_d	d	n/a
489.6035	0.09	979207	keystroke_Key.space	Key.space	n/a
489.8285	0.105	979657	keystroke_l	l	n/a
490.0085	0.105	980017	keystroke_o	o	n/a
490.1435	0.135	980287	keystroke_c	c	n/a
490.3985	0.165	980797	keystroke_a	a	n/a
490.7585	0.12	981517	keystroke_t	t	n/a
491.014	0.1645	982028	keystroke_e	e	n/a
491.1485	0.12	982297	keystroke_d	d	n/a
491.6135	0.12	983227	keystroke_Key.enter	Key.enter	n/a
491.738	9.3125	983476	prompt	n/a	suggestion seasons mustang important\n
492.4535	0.135	984907	keystroke_s	s	n/a
492.5435	0.0755	985087	keystroke_u	u	n/a
492.7235	0.0755	985447	keystroke_g	g	n/a
492.888	0.0755	985776	keystroke_g	g	n/a
493.053	0.195	986106	keystroke_e	e	n/a
493.263	0.12	986526	keystroke_s	s	n/a
493.5035	0.09	987007	keystroke_t	t	n/a
493.6835	0.105	987367	keystroke_i	i	n/a
493.879	0.104	987758	keystroke_o	o	n/a
494.1335	0.105	988267	keystroke_n	n	n/a
494.2985	0.1055	988597	keystroke_Key.space	Key.space	n/a
494.524	0.1045	989048	keystroke_s	s	n/a
494.674	0.195	989348	keystroke_e	e	n/a
494.853	0.226	989706	keystroke_a	a	n/a
495.094	0.1195	990188	keystroke_s	s	n/a
495.379	0.105	990758	keystroke_o	o	n/a
495.6185	0.091	991237	keystroke_n	n	n/a
495.9185	0.0595	991837	keystroke_s	s	n/a
496.5485	0.06	993097	keystroke_Key.space	Key.space	n/a
496.729	0.089	993458	keystroke_m	m	n/a
496.953	0.075	993906	keystroke_u	u	n/a
497.074	0.119	994148	keystroke_s	s	n/a
497.208	0.076	994416	keystroke_t	t	n/a
497.419	0.135	994838	keystroke_a	a	n/a
497.689	0.075	995378	keystroke_n	n	n/a
497.8385	0.105	995677	keystroke_g	g	n/a
498.0335	0.105	996067	keystroke_Key.space	Key.space	n/a
498.589	0.0145	997178	keystroke_i	i	n/a
498.694	0.105	997388	keystroke_m	m	n/a
499.1885	0.105	998377	keystroke_p	p	n/a
499.3685	0.09	998737	keystroke_o	o	n/a
499.5645	0.149	999129	keystroke_r	r	n/a
499.7735	0.121	999547	keystroke_t	t	n/a
500.2535	0.1205	1000507	keystroke_a	a	n/a
500.4335	0.075	1000867	keystroke_n	n	n/a
500.5535	0.09	1001107	keystroke_t	t	n/a
500.928	0.12	1001856	keystroke_Key.enter	Key.enter	n/a
501.0545	9.731	1002109	prompt	n/a	motorcycle came outputs lamb\n
501.693	0.105	1003386	keystroke_m	m	n/a
501.903	0.1055	1003806	keystroke_o	o	n/a
502.083	0.1205	1004166	keystroke_t	t	n/a
502.278	0.121	1004556	keystroke_o	o	n/a
502.774	0.0595	1005548	keystroke_s	s	n/a
503.1935	0.09	1006387	keystroke_Key.backspace	Key.backspace	n/a
503.4185	0.12	1006837	keystroke_r	r	n/a
503.839	0.06	1007678	keystroke_s	s	n/a
504.4085	0.0745	1008817	keystroke_Key.backspace	Key.backspace	n/a
504.619	0.074	1009238	keystroke_c	c	n/a
504.844	0.075	1009688	keystroke_y	y	n/a
505.203	0.0905	1010406	keystroke_c	c	n/a
505.3235	0.105	1010647	keystroke_l	l	n/a
505.5035	0.1055	1011007	keystroke_e	e	n/a
505.7135	0.1045	1011427	keystroke_Key.space	Key.space	n/a
506.6895	0.014	1013379	keystroke_c	c	n/a
506.7635	0.12	1013527	keystroke_a	a	n/a
506.9285	0.105	1013857	keystroke_m	m	n/a
507.1385	0.12	1014277	keystroke_e	e	n/a
507.3635	0.075	1014727	keystroke_Key.space	Key.space	n/a
507.6785	0.105	1015357	keystroke_o	o	n/a
507.904	0.089	1015808	keystroke_u	u	n/a
508.039	0.09	1016078	keystroke_t	t	n/a
508.263	0.1055	1016526	keystroke_p	p	n/a
508.6385	0.06	1017277	keystroke_u	u	n/a
508.8335	0.135	1017667	keystroke_t	t	n/a
509.0435	0.1205	1018087	keystroke_s	s	n/a
509.2985	0.12	1018597	keystroke_Key.space	Key.space	n/a
509.7335	0.09	1019467	keystroke_l	l	n/a
509.9585	0.12	1019917	keystroke_a	a	n/a
510.0935	0.09	1020187	keystroke_m	m	n/a
510.3185	0.105	1020637	keystroke_b	b	n/a
510.693	0.09	1021386	keystroke_Key.enter	Key.enter	n/a
510.792	6.039	1021584	prompt	n/a	brave duties mail machine\n
511.5785	0.0445	1023157	keystroke_b	b	n/a
511.6535	0.1355	1023307	keystroke_r	r	n/a
511.8035	0.1655	1023607	keystroke_a	a	n/a
512.4485	0.0755	1024897	keystroke_v	v	n/a
512.5985	0.1055	1025197	keystroke_e	e	n/a
512.9135	0.09	1025827	keystroke_Key.space	Key.space	n/a
513.3785	0.0595	1026757	keystroke_d	d	n/a
513.5135	0.0605	1027027	keystroke_u	u	n/a
513.634	0.12	1027268	keystroke_t	t	n/a
513.814	0.075	1027628	keystroke_i	i	n/a
514.009	0.225	1028018	keystroke_e	e	n/a
514.219	0.12	1028438	keystroke_s	s	n/a
514.3835	0.075	1028767	keystroke_Key.space	Key.space	n/a
514.579	0.12	1029158	keystroke_m	m	n/a
514.789	0.06	1029578	keystroke_a	a	n/a
514.924	0.105	1029848	keystroke_i	i	n/a
515.1335	0.135	1030267	keystroke_l	l	n/a
515.2985	0.075	1030597	keystroke_Key.space	Key.space	n/a
515.4785	0.105	1030957	keystroke_m	m	n/a
515.659	0.209	1031318	keystroke_a	a	n/a
515.899	0.09	1031798	keystroke_c	c	n/a
516.019	0.075	1032038	keystroke_h	h	n/a
516.169	0.09	1032338	keystroke_i	i	n/a
516.3485	0.0755	1032697	keystroke_n	n	n/a
516.4685	0.09	1032937	keystroke_e	e	n/a
516.724	0.1045	1033448	keystroke_Key.enter	Key.enter	n/a
516.835	8.786	1033670	prompt	n/a	bandwidth reuters plans programming\n
517.6835	0.0755	1035367	keystroke_b	b	n/a
517.804	0.105	1035608	keystroke_a	a	n/a
517.939	0.075	1035878	keystroke_n	n	n/a
518.163	0.0755	1036326	keystroke_d	d	n/a
518.3585	0.075	1036717	keystroke_w	w	n/a
518.4785	0.075	1036957	keystroke_i	i	n/a
518.6885	0.075	1037377	keystroke_d	d	n/a
518.913	0.1205	1037826	keystroke_t	t	n/a
519.0785	0.1195	1038157	keystroke_h	h	n/a
519.378	0.1355	1038756	keystroke_Key.space	Key.space	n/a
519.709	0.1345	1039418	keystroke_r	r	n/a
519.933	0.031	1039866	keystroke_e	e	n/a
520.459	0.045	1040918	keystroke_u	u	n/a
521.0135	0.06	1042027	keystroke_t	t	n/a
521.118	0.165	1042236	keystroke_e	e	n/a
521.253	0.1955	1042506	keystroke_r	r	n/a
521.434	0.1495	1042868	keystroke_s	s	n/a
521.7035	0.06	1043407	keystroke_Key.space	Key.space	n/a
521.9435	0.09	1043887	keystroke_p	p	n/a
522.349	0.09	1044698	keystroke_l	l	n/a
522.528	0.121	1045056	keystroke_a	a	n/a
522.8135	0.105	1045627	keystroke_n	n	n/a
522.9335	0.135	1045867	keystroke_s	s	n/a
523.1435	0.12	1046287	keystroke_Key.space	Key.space	n/a
523.534	0.12	1047068	keystroke_p	p	n/a
523.713	0.06	1047426	keystroke_r	r	n/a
523.803	0.106	1047606	keystroke_o	o	n/a
524.059	0.074	1048118	keystroke_g	g	n/a
524.1935	0.165	1048387	keystroke_r	r	n/a
524.3735	0.1345	1048747	keystroke_a	a	n/a
524.539	0.0595	1049078	keystroke_m	m	n/a
524.689	0.075	1049378	keystroke_m	m	n/a
524.8535	0.075	1049707	keystroke_i	i	n/a
525.0635	0.075	1050127	keystroke_n	n	n/a
525.1835	0.09	1050367	keystroke_g	g	n/a
525.498	0.12	1050996	keystroke_Key.enter	Key.enter	n/a
525.625	6.0555	1051250	prompt	n/a	babe trunk rolls width\n
526.383	0.09	1052766	keystroke_b	b	n/a
526.488	0.151	1052976	keystroke_a	a	n/a
526.654	0.074	1053308	keystroke_b	b	n/a
526.8635	0.0895	1053727	keystroke_e	e	n/a
527.073	0.0755	1054146	keystroke_Key.space	Key.space	n/a
527.299	0.0895	1054598	keystroke_t	t	n/a
527.6885	0.075	1055377	keystroke_r	r	n/a
527.8685	0.06	1055737	keystroke_u	u	n/a
528.064	0.0895	1056128	keystroke_n	n	n/a
528.2735	0.135	1056547	keystroke_k	k	n/a
528.4535	0.1195	1056907	keystroke_Key.space	Key.space	n/a
528.859	0.0745	1057718	keystroke_r	r	n/a
529.038	0.076	1058076	keystroke_o	o	n/a
529.249	0.06	1058498	keystroke_l	l	n/a
529.444	0.075	1058888	keystroke_l	l	n/a
529.6685	0.12	1059337	keystroke_s	s	n/a
529.953	0.016	1059906	keystroke_Key.space	Key.space	n/a
530.313	0.0905	1060626	keystroke_w	w	n/a
530.6435	0.075	1061287	keystroke_i	i	n/a
530.9135	0.045	1061827	keystroke_d	d	n/a
531.1085	0.09	1062217	keystroke_t	t	n/a
531.1995	0.104	1062399	keystroke_h	h	n/a
531.604	0.074	1063208	keystroke_Key.enter	Key.enter	n/a
531.6855	8.02	1063371	prompt	n/a	unified consolidated fall payments\n
532.444	0.075	1064888	keystroke_u	u	n/a
532.654	0.0745	1065308	keystroke_n	n	n/a
532.8635	0.09	1065727	keystroke_i	i	n/a
533.074	0.0895	1066148	keystroke_f	f	n/a
533.1935	0.0905	1066387	keystroke_i	i	n/a
533.3285	0.18	1066657	keystroke_e	e	n/a
533.539	0.1345	1067078	keystroke_d	d	n/a
533.793	0.09	1067586	keystroke_Key.space	Key.space	n/a
534.034	0.104	1068068	keystroke_c	c	n/a
534.1685	0.09	1068337	keystroke_o	o	n/a
534.349	0.105	1068698	keystroke_n	n	n/a
534.513	0.12	1069026	keystroke_s	s	n/a
534.694	0.074	1069388	keystroke_o	o	n/a
535.009	0.119	1070018	keystroke_l	l	n/a
535.2485	0.0905	1070497	keystroke_i	i	n/a
535.5785	0.1045	1071157	keystroke_d	d	n/a
535.818	0.1205	1071636	keystroke_a	a	n/a
535.984	0.09	1071968	keystroke_t	t	n/a
536.163	0.1955	1072326	keystroke_e	e	n/a
536.298	0.1655	1072596	keystroke_s	s	n/a
536.539	0.104	1073078	keystroke_Key.space	Key.space	n/a
536.9735	0.105	1073947	keystroke_f	f	n/a
537.094	0.149	1074188	keystroke_a	a	n/a
537.349	0.075	1074698	keystroke_l	l	n/a
537.574	0.0895	1075148	keystroke_l	l	n/a
537.828	0.0905	1075656	keystroke_Key.space	Key.space	n/a
538.1435	0.105	1076287	keystroke_p	p	n/a
538.294	0.149	1076588	keystroke_a	a	n/a
538.579	0.0745	1077158	keystroke_y	y	n/a
538.8635	0.0895	1077727	keystroke_m	m	n/a
538.968	0.105	1077936	keystroke_e	e	n/a
539.103	0.0755	1078206	keystroke_n	n	n/a
539.193	0.12	1078386	keystroke_t	t	n/a
539.3285	0.1345	1078657	keystroke_s	s	n/a
539.5835	0.1195	1079167	keystroke_Key.enter	Key.enter	n/a
539.709	8.3215	1079418	prompt	n/a	suggests dome opinion morrison\n
540.649	0.12	1081298	keystroke_s	s	n/a
540.7835	0.0755	1081567	keystroke_u	u	n/a
541.0085	0.09	1082017	keystroke_g	g	n/a
541.1885	0.105	1082377	keystroke_g	g	n/a
541.8035	0.0755	1083607	keystroke_e	e	n/a
541.998	0.09	1083996	keystroke_t	t	n/a
542.209	0.0895	1084418	keystroke_s	s	n/a
542.373	0.09	1084746	keystroke_Key.space	Key.space	n/a
542.7935	0.075	1085587	keystroke_d	d	n/a
542.9285	0.09	1085857	keystroke_o	o	n/a
543.1235	0.12	1086247	keystroke_m	m	n/a
543.274	0.105	1086548	keystroke_e	e	n/a
543.408	0.09	1086816	keystroke_Key.space	Key.space	n/a
543.783	0.09	1087566	keystroke_o	o	n/a
543.963	0.1055	1087926	keystroke_p	p	n/a
544.158	0.0605	1088316	keystroke_i	i	n/a
544.3535	0.09	1088707	keystroke_n	n	n/a
544.579	0.075	1089158	keystroke_i	i	n/a
544.6985	0.1205	1089397	keystroke_o	o	n/a
544.9385	0.105	1089877	keystroke_n	n	n/a
545.1185	0.09	1090237	keystroke_Key.space	Key.space	n/a
546.0485	0.075	1092097	keystroke_m	m	n/a
546.2285	0.105	1092457	keystroke_o	o	n/a
546.4535	0.06	1092907	keystroke_r	r	n/a
546.7835	0.09	1093567	keystroke_r	r	n/a
547.1135	0.105	1094227	keystroke_i	i	n/a
547.2935	0.105	1094587	keystroke_s	s	n/a
547.4135	0.105	1094827	keystroke_o	o	n/a
547.624	0.0745	1095248	keystroke_n	n	n/a
547.9235	0.105	1095847	keystroke_Key.enter	Key.enter	n/a
548.0345	8.891	1096069	prompt	n/a	genome locks activists client\n
549.123	0.075	1098246	keystroke_g	g	n/a
549.243	0.0905	1098486	keystroke_e	e	n/a
549.378	0.0905	1098756	keystroke_n	n	n/a
549.559	0.1195	1099118	keystroke_o	o	n/a
549.7835	0.12	1099567	keystroke_m	m	n/a
549.9635	0.12	1099927	keystroke_e	e	n/a
550.0985	0.09	1100197	keystroke_Key.space	Key.space	n/a
550.3235	0.105	1100647	keystroke_l	l	n/a
551.0285	0.0905	1102057	keystroke_o	o	n/a
551.1485	0.1045	1102297	keystroke_c	c	n/a
551.314	0.119	1102628	keystroke_k	k	n/a
551.688	0.135	1103376	keystroke_s	s	n/a
551.9285	0.0745	1103857	keystroke_Key.space	Key.space	n/a
552.198	0.1355	1104396	keystroke_a	a	n/a
552.378	0.105	1104756	keystroke_c	c	n/a
552.618	0.106	1105236	keystroke_t	t	n/a
552.7685	0.09	1105537	keystroke_i	i	n/a
552.888	0.09	1105776	keystroke_v	v	n/a
553.009	0.09	1106018	keystroke_i	i	n/a
553.128	0.1055	1106256	keystroke_s	s	n/a
554.1345	0.134	1108269	keystroke_t	t	n/a
554.583	0.135	1109166	keystroke_s	s	n/a
554.793	0.0755	1109586	keystroke_Key.space	Key.space	n/a
555.8735	0.0755	1111747	keystroke_c	c	n/a
556.0085	0.09	1112017	keystroke_l	l	n/a
556.1885	0.0745	1112377	keystroke_i	i	n/a
556.293	0.121	1112586	keystroke_e	e	n/a
556.4285	0.0905	1112857	keystroke_n	n	n/a
556.548	0.091	1113096	keystroke_t	t	n/a
556.7885	0.135	1113577	keystroke_Key.enter	Key.enter	n/a
556.93	10.3915	1113860	prompt	n/a	bids southwest coach lifetime\n
557.629	0.0595	1115258	keystroke_b	b	n/a
557.869	0.0745	1115738	keystroke_i	i	n/a
558.034	0.0445	1116068	keystroke_r	r	n/a
558.3935	0.1045	1116787	keystroke_=	=	n/a
558.543	0.1205	1117086	keystroke_d	d	n/a
559.5625	0.0605	1119125	keystroke_Key.backspace	Key.backspace	n/a
559.8185	0.074	1119637	keystroke_Key.backspace	Key.backspace	n/a
560.1335	0.06	1120267	keystroke_Key.backspace	Key.backspace	n/a
560.913	0.105	1121826	keystroke_d	d	n/a
561.078	0.1055	1122156	keystroke_s	s	n/a
561.273	0.075	1122546	keystroke_Key.space	Key.space	n/a
562.0985	0.1045	1124197	keystroke_s	s	n/a
562.2185	0.06	1124437	keystroke_o	o	n/a
562.383	0.075	1124766	keystroke_u	u	n/a
562.503	0.091	1125006	keystroke_t	t	n/a
562.624	0.09	1125248	keystroke_h	h	n/a
562.938	0.135	1125876	keystroke_w	w	n/a
563.1185	0.135	1126237	keystroke_e	e	n/a
563.3135	0.15	1126627	keystroke_s	s	n/a
563.569	0.119	1127138	keystroke_t	t	n/a
563.7635	0.09	1127527	keystroke_Key.space	Key.space	n/a
564.123	0.09	1128246	keystroke_c	c	n/a
564.229	0.119	1128458	keystroke_o	o	n/a
564.3935	0.15	1128787	keystroke_a	a	n/a
564.6035	0.1195	1129207	keystroke_c	c	n/a
564.7685	0.12	1129537	keystroke_h	h	n/a
564.993	0.0755	1129986	keystroke_Key.space	Key.space	n/a
565.188	0.1055	1130376	keystroke_l	l	n/a
565.383	0.075	1130766	keystroke_i	i	n/a
565.503	0.0905	1131006	keystroke_f	f	n/a
565.653	0.1055	1131306	keystroke_e	e	n/a
565.938	0.1055	1131876	keystroke_t	t	n/a
566.059	0.074	1132118	keystroke_i	i	n/a
566.763	0.075	1133526	keystroke_m	m	n/a
566.9435	0.0745	1133887	keystroke_e	e	n/a
567.1835	0.135	1134367	keystroke_Key.enter	Key.enter	n/a
567.331	9.094	1134662	prompt	n/a	transform page gadgets forge\n
568.023	0.1355	1136046	keystroke_t	t	n/a
568.2035	0.135	1136407	keystroke_r	r	n/a
568.653	0.136	1137306	keystroke_a	a	n/a
568.983	0.0755	1137966	keystroke_n	n	n/a
569.2085	0.09	1138417	keystroke_s	s	n/a
569.5535	0.105	1139107	keystroke_f	f	n/a
569.703	0.1055	1139406	keystroke_o	o	n/a
569.8835	0.074	1139767	keystroke_r	r	n/a
570.0935	0.105	1140187	keystroke_m	m	n/a
570.318	0.09	1140636	keystroke_Key.space	Key.space	n/a
570.558	0.106	1141116	keystroke_p	p	n/a
570.679	0.134	1141358	keystroke_a	a	n/a
570.903	0.1055	1141806	keystroke_g	g	n/a
571.173	0.09	1142346	keystroke_e	e	n/a
571.443	0.076	1142886	keystroke_Key.space	Key.space	n/a
572.523	0.09	1145046	keystroke_g	g	n/a
572.643	0.1045	1145286	keystroke_a	a	n/a
573.903	0.015	1147806	keystroke_d	d	n/a
574.008	0.06	1148016	keystroke_g	g	n/a
574.143	0.105	1148286	keystroke_e	e	n/a
574.2785	0.1045	1148557	keystroke_t	t	n/a
574.5035	0.12	1149007	keystroke_s	s	n/a
574.7135	0.075	1149427	keystroke_Key.space	Key.space	n/a
575.0435	0.075	1150087	keystroke_f	f	n/a
575.1635	0.09	1150327	keystroke_o	o	n/a
575.5235	0.075	1151047	keystroke_r	r	n/a
576.0035	0.0595	1152007	keystroke_g	g	n/a
576.1085	0.1045	1152217	keystroke_e	e	n/a
576.333	0.09	1152666	keystroke_Key.enter	Key.enter	n/a
576.429	8.486	1152858	prompt	n/a	can blog symbols legendary\n
577.083	0.1045	1154166	keystroke_c	c	n/a
577.2635	0.15	1154527	keystroke_a	a	n/a
577.4735	0.105	1154947	keystroke_n	n	n/a
577.7125	0.09	1155425	keystroke_Key.space	Key.space	n/a
578.103	0.1055	1156206	keystroke_b	b	n/a
578.2235	0.09	1156447	keystroke_l	l	n/a
578.4335	0.0895	1156867	keystroke_o	o	n/a
578.6425	0.105	1157285	keystroke_g	g	n/a
579.003	0.1045	1158006	keystroke_Key.space	Key.space	n/a
579.453	0.1205	1158906	keystroke_s	s	n/a
579.6035	0.075	1159207	keystroke_y	y	n/a
580.0235	0.075	1160047	keystroke_b	b	n/a
580.563	0.09	1161126	keystroke_Key.backspace	Key.backspace	n/a
581.3285	0.075	1162657	keystroke_m	m	n/a
581.6285	0.0745	1163257	keystroke_b	b	n/a
582.1835	0.015	1164367	keystroke_o	o	n/a
582.3035	0.0745	1164607	keystroke_l	l	n/a
582.4225	0.1055	1164845	keystroke_s	s	n/a
582.588	0.0755	1165176	keystroke_Key.space	Key.space	n/a
582.964	0.089	1165928	keystroke_l	l	n/a
583.083	0.09	1166166	keystroke_e	e	n/a
583.248	0.06	1166496	keystroke_g	g	n/a
583.353	0.09	1166706	keystroke_e	e	n/a
583.534	0.059	1167068	keystroke_n	n	n/a
583.7885	0.135	1167577	keystroke_d	d	n/a
584.0135	0.15	1168027	keystroke_a	a	n/a
584.2985	0.075	1168597	keystroke_r	r	n/a
584.4185	0.075	1168837	keystroke_y	y	n/a
584.823	0.0905	1169646	keystroke_Key.enter	Key.enter	n/a
584.919	6.8965	1169838	prompt	n/a	penetration fold acres layer\n
585.6185	0.0745	1171237	keystroke_p	p	n/a
585.783	0.0755	1171566	keystroke_e	e	n/a
586.008	0.0905	1172016	keystroke_n	n	n/a
586.2035	0.0745	1172407	keystroke_e	e	n/a
586.6685	0.045	1173337	keystroke_t	t	n/a
586.7585	0.1355	1173517	keystroke_a	a	n/a
587.148	0.09	1174296	keystroke_Key.backspace	Key.backspace	n/a
587.298	0.1205	1174596	keystroke_r	r	n/a
587.433	0.1505	1174866	keystroke_a	a	n/a
587.658	0.12	1175316	keystroke_t	t	n/a
587.823	0.105	1175646	keystroke_i	i	n/a
588.003	0.09	1176006	keystroke_o	o	n/a
588.229	0.1045	1176458	keystroke_n	n	n/a
588.3935	0.075	1176787	keystroke_Key.space	Key.space	n/a
588.648	0.09	1177296	keystroke_f	f	n/a
588.784	0.089	1177568	keystroke_o	o	n/a
588.9635	0.12	1177927	keystroke_l	l	n/a
589.188	0.12	1178376	keystroke_d	d	n/a
589.368	0.075	1178736	keystroke_Key.space	Key.space	n/a
589.728	0.105	1179456	keystroke_a	a	n/a
589.983	0.0905	1179966	keystroke_c	c	n/a
590.2535	0.15	1180507	keystroke_r	r	n/a
590.3735	0.225	1180747	keystroke_e	e	n/a
590.5835	0.165	1181167	keystroke_s	s	n/a
590.8385	0.075	1181677	keystroke_Key.space	Key.space	n/a
591.0335	0.1045	1182067	keystroke_l	l	n/a
591.168	0.1205	1182336	keystroke_a	a	n/a
591.333	0.0605	1182666	keystroke_y	y	n/a
591.424	0.1495	1182848	keystroke_e	e	n/a
591.5435	0.135	1183087	keystroke_r	r	n/a
591.693	0.1205	1183386	keystroke_Key.enter	Key.enter	n/a
591.8205	7.494	1183641	prompt	n/a	meanwhile laugh eggs admin\n
592.5185	0.0895	1185037	keystroke_m	m	n/a
592.638	0.135	1185276	keystroke_e	e	n/a
592.803	0.15	1185606	keystroke_a	a	n/a
593.2985	0.0895	1186597	keystroke_n	n	n/a
593.8685	0.119	1187737	keystroke_w	w	n/a
594.0025	0.061	1188005	keystroke_h	h	n/a
594.1835	0.09	1188367	keystroke_i	i	n/a
594.348	0.135	1188696	keystroke_l	l	n/a
594.5135	0.1045	1189027	keystroke_e	e	n/a
594.6785	0.059	1189357	keystroke_Key.space	Key.space	n/a
594.9185	0.089	1189837	keystroke_l	l	n/a
595.0535	0.105	1190107	keystroke_a	a	n/a
595.2185	0.0905	1190437	keystroke_u	u	n/a
595.414	0.104	1190828	keystroke_g	g	n/a
595.5925	0.0905	1191185	keystroke_h	h	n/a
595.803	0.09	1191606	keystroke_Key.space	Key.space	n/a
596.148	0.075	1192296	keystroke_e	e	n/a
596.283	0.0755	1192566	keystroke_g	g	n/a
596.4485	0.075	1192897	keystroke_g	g	n/a
596.6275	0.121	1193255	keystroke_s	s	n/a
596.8085	0.12	1193617	keystroke_Key.space	Key.space	n/a
597.0185	0.165	1194037	keystroke_a	a	n/a
597.2585	0.06	1194517	keystroke_d	d	n/a
597.4085	0.075	1194817	keystroke_m	m	n/a
597.5885	0.06	1195177	keystroke_i	i	n/a
597.9485	0.09	1195897	keystroke_n	n	n/a
598.1735	0.105	1196347	keystroke_e	e	n/a
598.878	0.0905	1197756	keystroke_Key.backspace	Key.backspace	n/a
599.1935	0.119	1198387	keystroke_Key.enter	Key.enter	n/a
599.318	7.8565	1198636	prompt	n/a	enzyme czech scale durable\n
600.0485	0.09	1200097	keystroke_e	e	n/a
600.2585	0.075	1200517	keystroke_n	n	n/a
600.633	0.1205	1201266	keystroke_z	z	n/a
600.813	0.061	1201626	keystroke_y	y	n/a
601.053	0.1055	1202106	keystroke_m	m	n/a
601.2035	0.1195	1202407	keystroke_e	e	n/a
601.398	0.0905	1202796	keystroke_Key.space	Key.space	n/a
602.238	0.1045	1204476	keystroke_c	c	n/a
602.614	0.105	1205228	keystroke_z	z	n/a
602.883	0.0905	1205766	keystroke_e	e	n/a
603.1075	0.0915	1206215	keystroke_c	c	n/a
603.2585	0.105	1206517	keystroke_h	h	n/a
603.4985	0.09	1206997	keystroke_Key.space	Key.space	n/a
604.053	0.1355	1208106	keystroke_s	s	n/a
604.323	0.1195	1208646	keystroke_c	c	n/a
604.503	0.135	1209006	keystroke_a	a	n/a
604.668	0.135	1209336	keystroke_l	l	n/a
604.848	0.0905	1209696	keystroke_e	e	n/a
605.1185	0.1045	1210237	keystroke_Key.space	Key.space	n/a
605.7785	0.09	1211557	keystroke_d	d	n/a
606.0485	0.075	1212097	keystroke_u	u	n/a
606.1685	0.135	1212337	keystroke_r	r	n/a
606.3335	0.1195	1212667	keystroke_a	a	n/a
606.408	0.09	1212816	keystroke_b	b	n/a
606.633	0.12	1213266	keystroke_l	l	n/a
606.7685	0.1195	1213537	keystroke_e	e	n/a
607.0835	0.0895	1214167	keystroke_Key.enter	Key.enter	n/a
607.178	11.007	1214356	prompt	n/a	reproduced avoiding hollow stanley\n
608.3585	0.1195	1216717	keystroke_r	r	n/a
608.5385	0.089	1217077	keystroke_e	e	n/a
608.7785	0.0445	1217557	keystroke_p	p	n/a
609.559	0.059	1219118	keystroke_r	r	n/a
609.873	0.09	1219746	keystroke_o	o	n/a
610.1285	0.119	1220257	keystroke_d	d	n/a
611.044	0.059	1222088	keystroke_u	u	n/a
611.133	0.06	1222266	keystroke_c	c	n/a
611.344	0.179	1222688	keystroke_e	e	n/a
611.5385	0.1495	1223077	keystroke_d	d	n/a
611.793	0.09	1223586	keystroke_Key.space	Key.space	n/a
612.2735	0.075	1224547	keystroke_a	a	n/a
612.4985	0.06	1224997	keystroke_v	v	n/a
612.6185	0.1045	1225237	keystroke_o	o	n/a
612.7985	0.075	1225597	keystroke_i	i	n/a
612.918	0.045	1225836	keystroke_d	d	n/a
612.993	0.075	1225986	keystroke_i	i	n/a
613.188	0.106	1226376	keystroke_n	n	n/a
613.3525	0.1205	1226705	keystroke_g	g	n/a
613.6075	0.1055	1227215	keystroke_Key.space	Key.space	n/a
614.0585	0.075	1228117	keystroke_h	h	n/a
614.298	0.0905	1228596	keystroke_o	o	n/a
614.4935	0.09	1228987	keystroke_l	l	n/a
614.6585	0.09	1229317	keystroke_l	l	n/a
614.8835	0.09	1229767	keystroke_o	o	n/a
615.6325	0.091	1231265	keystroke_w	w	n/a
615.8735	0.105	1231747	keystroke_Key.space	Key.space	n/a
616.6085	0.0895	1233217	keystroke_s	s	n/a
616.744	0.0595	1233488	keystroke_t	t	n/a
616.9085	0.09	1233817	keystroke_a	a	n/a
617.0735	0.075	1234147	keystroke_n	n	n/a
617.3135	0.105	1234627	keystroke_l	l	n/a
617.4335	0.105	1234867	keystroke_e	e	n/a
617.5835	0.075	1235167	keystroke_y	y	n/a
618.093	0.09	1236186	keystroke_Key.enter	Key.enter	n/a
618.189	8.8305	1236378	prompt	n/a	volvo football cakes simultaneously\n
618.979	0.0895	1237958	keystroke_v	v	n/a
619.0985	0.075	1238197	keystroke_o	o	n/a
619.2935	0.06	1238587	keystroke_l	l	n/a
619.7135	0.09	1239427	keystroke_v	v	n/a
619.9535	0.09	1239907	keystroke_o	o	n/a
620.2075	0.075	1240415	keystroke_Key.space	Key.space	n/a
620.554	0.0295	1241108	keystroke_f	f	n/a
620.748	0.0755	1241496	keystroke_o	o	n/a
620.943	0.075	1241886	keystroke_o	o	n/a
621.1235	0.0895	1242247	keystroke_t	t	n/a
621.5435	0.0745	1243087	keystroke_b	b	n/a
621.6935	0.0895	1243387	keystroke_a	a	n/a
621.8435	0.105	1243687	keystroke_l	l	n/a
622.083	0.091	1244166	keystroke_l	l	n/a
622.3985	0.089	1244797	keystroke_Key.space	Key.space	n/a
622.6835	0.075	1245367	keystroke_c	c	n/a
622.8185	0.15	1245637	keystroke_a	a	n/a
622.9985	0.105	1245997	keystroke_k	k	n/a
623.1475	0.181	1246295	keystroke_e	e	n/a
623.3285	0.18	1246657	keystroke_s	s	n/a
623.628	0.075	1247256	keystroke_Key.space	Key.space	n/a
623.973	0.0905	1247946	keystroke_s	s	n/a
624.168	0.0455	1248336	keystroke_i	i	n/a
624.333	0.105	1248666	keystroke_m	m	n/a
624.5435	0.0745	1249087	keystroke_u	u	n/a
624.7085	0.104	1249417	keystroke_l	l	n/a
624.918	0.1055	1249836	keystroke_t	t	n/a
625.0835	0.135	1250167	keystroke_a	a	n/a
625.248	0.06	1250496	keystroke_n	n	n/a
625.398	0.12	1250796	keystroke_e	e	n/a
625.5485	0.105	1251097	keystroke_o	o	n/a
625.728	0.0755	1251456	keystroke_u	u	n/a
625.8335	0.1045	1251667	keystroke_s	s	n/a
625.9685	0.1195	1251937	keystroke_l	l	n/a
626.283	0.09	1252566	keystroke_y	y	n/a
626.913	0.1055	1253826	keystroke_Key.enter	Key.enter	n/a
627.0235	11.951	1254047	prompt	n/a	pipeline decor burning interference\n
627.813	0.09	1255626	keystroke_p	p	n/a
627.9785	0.075	1255957	keystroke_i	i	n/a
628.188	0.09	1256376	keystroke_p	p	n/a
628.398	0.075	1256796	keystroke_e	e	n/a
628.578	0.105	1257156	keystroke_l	l	n/a
628.758	0.075	1257516	keystroke_i	i	n/a
628.953	0.1055	1257906	keystroke_n	n	n/a
629.103	0.12	1258206	keystroke_e	e	n/a
629.313	0.09	1258626	keystroke_Key.space	Key.space	n/a
629.583	0.105	1259166	keystroke_d	d	n/a
629.703	0.09	1259406	keystroke_e	e	n/a
629.913	0.09	1259826	keystroke_c	c	n/a
630.0485	0.1195	1260097	keystroke_o	o	n/a
630.243	0.1205	1260486	keystroke_r	r	n/a
630.5135	0.0895	1261027	keystroke_Key.space	Key.space	n/a
630.8735	0.0595	1261747	keystroke_b	b	n/a
631.009	0.074	1262018	keystroke_r	r	n/a
631.098	0.075	1262196	keystroke_u	u	n/a
631.278	0.0755	1262556	keystroke_n	n	n/a
631.4285	0.089	1262857	keystroke_i	i	n/a
631.6385	0.09	1263277	keystroke_n	n	n/a
631.8185	0.105	1263637	keystroke_g	g	n/a
631.968	0.1055	1263936	keystroke_Key.space	Key.space	n/a
632.523	0.0905	1265046	keystroke_Key.backspace	Key.backspace	n/a
632.7175	0.09	1265435	keystroke_Key.backspace	Key.backspace	n/a
632.9135	0.075	1265827	keystroke_Key.backspace	Key.backspace	n/a
633.138	0.105	1266276	keystroke_Key.backspace	Key.backspace	n/a
633.363	0.09	1266726	keystroke_Key.backspace	Key.backspace	n/a
633.558	0.0905	1267116	keystroke_Key.backspace	Key.backspace	n/a
633.888	0.0755	1267776	keystroke_Key.backspace	Key.backspace	n/a
634.3535	0.06	1268707	keystroke_u	u	n/a
634.5335	0.0595	1269067	keystroke_r	r	n/a
634.6525	0.076	1269305	keystroke_n	n	n/a
634.8185	0.075	1269637	keystroke_i	i	n/a
634.9835	0.09	1269967	keystroke_n	n	n/a
635.1185	0.09	1270237	keystroke_g	g	n/a
635.703	0.0755	1271406	keystroke_Key.space	Key.space	n/a
636.0335	0.075	1272067	keystroke_i	i	n/a
636.1985	0.09	1272397	keystroke_n	n	n/a
636.4685	0.06	1272937	keystroke_t	t	n/a
636.5885	0.165	1273177	keystroke_e	e	n/a
636.738	0.12	1273476	keystroke_r	r	n/a
637.6835	0.06	1275367	keystroke_f	f	n/a
637.7885	0.1055	1275577	keystroke_e	e	n/a
637.9085	0.15	1275817	keystroke_r	r	n/a
638.074	0.1045	1276148	keystroke_e	e	n/a
638.2225	0.0915	1276445	keystroke_n	n	n/a
638.4035	0.09	1276807	keystroke_c	c	n/a
638.5675	0.105	1277135	keystroke_e	e	n/a
638.913	0.0595	1277826	keystroke_Key.enter	Key.enter	n/a
638.977	10.723	1277954	prompt	n/a	worth routine keywords milwaukee\n
640.758	0.12	1281516	keystroke_w	w	n/a
640.863	0.075	1281726	keystroke_o	o	n/a
641.0585	0.075	1282117	keystroke_t	t	n/a
641.238	0.0905	1282476	keystroke_h	h	n/a
641.9885	0.045	1283977	keystroke_Key.space	Key.space	n/a
642.1085	0.09	1284217	keystroke_r	r	n/a
642.2585	0.09	1284517	keystroke_o	o	n/a
642.4685	0.0745	1284937	keystroke_u	u	n/a
642.618	0.0905	1285236	keystroke_t	t	n/a
642.7235	0.075	1285447	keystroke_i	i	n/a
642.9335	0.09	1285867	keystroke_n	n	n/a
643.1285	0.09	1286257	keystroke_e	e	n/a
643.3375	0.076	1286675	keystroke_Key.space	Key.space	n/a
643.5635	0.1055	1287127	keystroke_k	k	n/a
643.6985	0.074	1287397	keystroke_e	e	n/a
643.848	0.075	1287696	keystroke_y	y	n/a
644.3135	0.105	1288627	keystroke_w	w	n/a
644.4485	0.12	1288897	keystroke_o	o	n/a
644.5985	0.09	1289197	keystroke_r	r	n/a
644.914	0.1195	1289828	keystroke_d	d	n/a
645.0635	0.135	1290127	keystroke_s	s	n/a
645.2425	0.075	1290485	keystroke_Key.space	Key.space	n/a
645.573	0.09	1291146	keystroke_m	m	n/a
645.768	0.09	1291536	keystroke_i	i	n/a
646.2035	0.09	1292407	keystroke_l	l	n/a
646.489	0.1045	1292978	keystroke_w	w	n/a
647.373	0.09	1294746	keystroke_a	a	n/a
648.333	0.061	1296666	keystroke_u	u	n/a
648.7225	0.076	1297445	keystroke_k	k	n/a
648.9635	0.074	1297927	keystroke_e	e	n/a
649.2935	0.074	1298587	keystroke_e	e	n/a
649.623	0.075	1299246	keystroke_Key.enter	Key.enter	n/a
649.704	12.956	1299408	prompt	n/a	illegal curve include neil\n
650.4035	0.06	1300807	keystroke_i	i	n/a
650.5985	0.06	1301197	keystroke_l	l	n/a
650.7185	0.0895	1301437	keystroke_l	l	n/a
650.8385	0.09	1301677	keystroke_e	e	n/a
651.0335	0.06	1302067	keystroke_g	g	n/a
651.1385	0.15	1302277	keystroke_a	a	n/a
651.3485	0.12	1302697	keystroke_l	l	n/a
651.6485	0.075	1303297	keystroke_Key.space	Key.space	n/a
651.9335	0.075	1303867	keystroke_c	c	n/a
652.159	0.089	1304318	keystroke_r	r	n/a
652.278	0.075	1304556	keystroke_u	u	n/a
652.533	0.0755	1305066	keystroke_v	v	n/a
652.669	0.089	1305338	keystroke_e	e	n/a
653.0135	0.075	1306027	keystroke_Key.space	Key.space	n/a
653.298	0.06	1306596	keystroke_i	i	n/a
653.478	0.075	1306956	keystroke_n	n	n/a
653.628	0.09	1307256	keystroke_c	c	n/a
653.7485	0.075	1307497	keystroke_l	l	n/a
653.9735	0.06	1307947	keystroke_u	u	n/a
654.078	0.1205	1308156	keystroke_d	d	n/a
654.1985	0.1045	1308397	keystroke_e	e	n/a
654.3625	0.09	1308725	keystroke_Key.space	Key.space	n/a
656.5705	0.0125	1313141	keystroke_Key.backspace	Key.backspace	n/a
656.688	0.0455	1313376	keystroke_Key.backspace	Key.backspace	n/a
656.853	0.045	1313706	keystroke_Key.backspace	Key.backspace	n/a
657.018	0.06	1314036	keystroke_Key.backspace	Key.backspace	n/a
657.183	0.06	1314366	keystroke_Key.backspace	Key.backspace	n/a
657.3485	0.0595	1314697	keystroke_Key.backspace	Key.backspace	n/a
657.483	0.075	1314966	keystroke_Key.backspace	Key.backspace	n/a
657.633	0.0905	1315266	keystroke_Key.backspace	Key.backspace	n/a
657.783	0.0755	1315566	keystroke_Key.backspace	Key.backspace	n/a
657.933	0.06	1315866	keystroke_Key.backspace	Key.backspace	n/a
658.143	0.0155	1316286	keystroke_Key.backspace	Key.backspace	n/a
658.3235	0.0595	1316647	keystroke_Key.backspace	Key.backspace	n/a
658.773	0.0605	1317546	keystroke_Key.backspace	Key.backspace	n/a
659.1635	0.06	1318327	keystroke_u	u	n/a
659.3135	0.061	1318627	keystroke_r	r	n/a
659.4785	0.075	1318957	keystroke_v	v	n/a
659.6135	0.09	1319227	keystroke_e	e	n/a
659.793	0.06	1319586	keystroke_Key.space	Key.space	n/a
660.2285	0.0445	1320457	keystroke_i	i	n/a
660.378	0.06	1320756	keystroke_n	n	n/a
660.499	0.0745	1320998	keystroke_c	c	n/a
660.6185	0.075	1321237	keystroke_l	l	n/a
660.8135	0.06	1321627	keystroke_u	u	n/a
660.9035	0.12	1321807	keystroke_d	d	n/a
661.0385	0.105	1322077	keystroke_e	e	n/a
