onset	duration	sample	value	key	prompt_text
5.858	10.801	11716	prompt	n/a	the quick brown fox jumps over a lazy dog\n
8.1985	0.001	16397	keystroke_t	t	n/a
8.2105	0.0605	16421	keystroke_h	h	n/a
8.286	0.09	16572	keystroke_e	e	n/a
8.391	0.075	16782	keystroke_Key.space	Key.space	n/a
8.6765	0.0755	17353	keystroke_q	q	n/a
8.766	0.0905	17532	keystroke_u	u	n/a
8.8265	0.075	17653	keystroke_i	i	n/a
8.976	0.09	17952	keystroke_c	c	n/a
9.081	0.075	18162	keystroke_k	k	n/a
9.201	0.0455	18402	keystroke_Key.space	Key.space	n/a
9.322	0.059	18644	keystroke_b	b	n/a
9.5015	0.044	19003	keystroke_r	r	n/a
9.5915	0.075	19183	keystroke_o	o	n/a
9.696	0.0605	19392	keystroke_w	w	n/a
9.712	0.029	19424	keystroke_e	e	n/a
9.802	0.059	19604	keystroke_n	n	n/a
9.8455	0.061	19691	keystroke_Key.space	Key.space	n/a
9.996	0.046	19992	keystroke_f	f	n/a
10.0565	0.075	20113	keystroke_o	o	n/a
10.2505	0.031	20501	keystroke_x	x	n/a
10.4165	0.0445	20833	keystroke_Key.backspace	Key.backspace	n/a
10.641	0.06	21282	keystroke_Key.backspace	Key.backspace	n/a
10.806	0.06	21612	keystroke_Key.backspace	Key.backspace	n/a
10.941	0.075	21882	keystroke_Key.backspace	Key.backspace	n/a
11.0755	0.075	22151	keystroke_Key.backspace	Key.backspace	n/a
11.211	0.1045	22422	keystroke_Key.backspace	Key.backspace	n/a
11.466	0.0755	22932	keystroke_n	n	n/a
11.4965	0.074	22993	keystroke_Key.space	Key.space	n/a
11.826	0.0445	23652	keystroke_f	f	n/a
11.886	0.075	23772	keystroke_o	o	n/a
12.036	0.0905	24072	keystroke_x	x	n/a
12.215	0.046	24430	keystroke_Key.space	Key.space	n/a
12.4105	0.045	24821	keystroke_j	j	n/a
12.5455	0.0755	25091	keystroke_u	u	n/a
12.7255	0.09	25451	keystroke_m	m	n/a
12.8005	0.09	25601	keystroke_p	p	n/a
12.9805	0.075	25961	keystroke_s	s	n/a
13.1455	0.075	26291	keystroke_Key.space	Key.space	n/a
13.2215	0.059	26443	keystroke_o	o	n/a
13.7315	0.1645	27463	keystroke_v	v	n/a
13.7905	0.12	27581	keystroke_e	e	n/a
13.8965	0.0895	27793	keystroke_r	r	n/a
14.0005	0.0605	28001	keystroke_Key.space	Key.space	n/a
14.1805	0.0755	28361	keystroke_a	a	n/a
14.316	0.075	28632	keystroke_Key.space	Key.space	n/a
14.4055	0.0455	28811	keystroke_l	l	n/a
14.5255	0.0905	29051	keystroke_a	a	n/a
14.8405	0.09	29681	keystroke_y	y	n/a
15.2455	0.045	30491	keystroke_Key.backspace	Key.backspace	n/a
15.3215	0.104	30643	keystroke_z	z	n/a
15.4865	0.0445	30973	keystroke_y	y	n/a
15.531	0.09	31062	keystroke_Key.space	Key.space	n/a
15.666	0.09	31332	keystroke_d	d	n/a
15.771	0.075	31542	keystroke_o	o	n/a
15.8765	0.06	31753	keystroke_g	g	n/a
16.5805	0.075	33161	keystroke_Key.enter	Key.enter	n/a
16.665	5.3325	33330	prompt	n/a	monthly wrapping park brick\n
18.3815	0.0745	36763	keystroke_m	m	n/a
18.4855	0.075	36971	keystroke_o	o	n/a
18.5755	0.0605	37151	keystroke_n	n	n/a
18.696	0.06	37392	keystroke_t	t	n/a
18.816	0.0745	37632	keystroke_h	h	n/a
18.921	0.09	37842	keystroke_l	l	n/a
19.025	0.046	38050	keystroke_y	y	n/a
19.0855	0.06	38171	keystroke_Key.space	Key.space	n/a
19.2955	0.105	38591	keystroke_w	w	n/a
19.3705	0.075	38741	keystroke_r	r	n/a
19.7305	0.0755	39461	keystroke_a	a	n/a
19.8355	0.0755	39671	keystroke_p	p	n/a
19.9855	0.061	39971	keystroke_p	p	n/a
20.0755	0.12	40151	keystroke_i	i	n/a
20.1655	0.06	40331	keystroke_n	n	n/a
20.241	0.0745	40482	keystroke_g	g	n/a
20.3455	0.06	40691	keystroke_Key.space	Key.space	n/a
20.4355	0.09	40871	keystroke_p	p	n/a
20.5705	0.09	41141	keystroke_a	a	n/a
20.6165	0.0745	41233	keystroke_r	r	n/a
20.7355	0.075	41471	keystroke_k	k	n/a
20.8555	0.075	41711	keystroke_Key.space	Key.space	n/a
20.9905	0.06	41981	keystroke_b	b	n/a
21.1405	0.075	42281	keystroke_r	r	n/a
21.2905	0.09	42581	keystroke_i	i	n/a
21.5765	0.1045	43153	keystroke_c	c	n/a
21.7405	0.031	43481	keystroke_k	k	n/a
21.966	0.0295	43932	keystroke_Key.enter	Key.enter	n/a
22.0035	5.1245	44007	prompt	n/a	huge culture interference north\n
22.656	0.06	45312	keystroke_h	h	n/a
22.7765	0.0895	45553	keystroke_u	u	n/a
22.881	0.105	45762	keystroke_g	g	n/a
22.971	0.075	45942	keystroke_e	e	n/a
23.181	0.06	46362	keystroke_Key.space	Key.space	n/a
23.361	0.075	46722	keystroke_c	c	n/a
23.496	0.0595	46992	keystroke_u	u	n/a
23.5855	0.0605	47171	keystroke_l	l	n/a
23.765	0.0605	47530	keystroke_t	t	n/a
23.9015	0.0445	47803	keystroke_u	u	n/a
23.961	0.135	47922	keystroke_r	r	n/a
24.0665	0.0745	48133	keystroke_e	e	n/a
24.156	0.06	48312	keystroke_Key.space	Key.space	n/a
24.576	0.075	49152	keystroke_i	i	n/a
24.621	0.075	49242	keystroke_n	n	n/a
24.756	0.075	49512	keystroke_t	t	n/a
24.801	0.105	49602	keystroke_e	e	n/a
24.876	0.0755	49752	keystroke_r	r	n/a
25.086	0.015	50172	keystroke_r	r	n/a
25.551	0.045	51102	keystroke_Key.backspace	Key.backspace	n/a
25.611	0.045	51222	keystroke_f	f	n/a
25.6265	0.075	51253	keystroke_e	e	n/a
25.6705	0.106	51341	keystroke_r	r	n/a
25.7915	0.0735	51583	keystroke_e	e	n/a
25.9705	0.0605	51941	keystroke_n	n	n/a
26.016	0.09	52032	keystroke_c	c	n/a
26.076	0.0605	52152	keystroke_e	e	n/a
26.256	0.06	52512	keystroke_Key.space	Key.space	n/a
26.466	0.0605	52932	keystroke_n	n	n/a
26.481	0.09	52962	keystroke_o	o	n/a
26.631	0.06	53262	keystroke_r	r	n/a
26.751	0.0895	53502	keystroke_t	t	n/a
26.856	0.0445	53712	keystroke_h	h	n/a
27.066	0.0595	54132	keystroke_Key.enter	Key.enter	n/a
27.132	6.0555	54264	prompt	n/a	inclusion dishes women celtic\n
27.8015	0.06	55603	keystroke_i	i	n/a
27.8165	0.0595	55633	keystroke_n	n	n/a
28.0115	0.06	56023	keystroke_c	c	n/a
28.1615	0.09	56323	keystroke_l	l	n/a
28.2365	0.045	56473	keystroke_u	u	n/a
28.3705	0.0905	56741	keystroke_s	s	n/a
28.566	0.1055	57132	keystroke_i	i	n/a
28.6115	0.104	57223	keystroke_o	o	n/a
28.6415	0.059	57283	keystroke_n	n	n/a
28.746	0.0295	57492	keystroke_Key.space	Key.space	n/a
29.1065	0.0595	58213	keystroke_d	d	n/a
29.2415	0.0595	58483	keystroke_i	i	n/a
29.3165	0.12	58633	keystroke_s	s	n/a
29.4955	0.046	58991	keystroke_h	h	n/a
29.5715	0.074	59143	keystroke_e	e	n/a
29.7215	0.0895	59443	keystroke_s	s	n/a
29.8555	0.06	59711	keystroke_Key.space	Key.space	n/a
30.006	0.075	60012	keystroke_w	w	n/a
30.291	0.015	60582	keystroke_e	e	n/a
30.651	0.06	61302	keystroke_Key.backspace	Key.backspace	n/a
30.862	0.074	61724	keystroke_o	o	n/a
30.906	0.06	61812	keystroke_m	m	n/a
31.026	0.075	62052	keystroke_e	e	n/a
31.536	0.0605	63072	keystroke_n	n	n/a
31.716	0.06	63432	keystroke_Key.space	Key.space	n/a
31.821	0.075	63642	keystroke_c	c	n/a
31.956	0.09	63912	keystroke_e	e	n/a
32.121	0.0595	64242	keystroke_l	l	n/a
32.752	0.0295	65504	keystroke_t	t	n/a
32.826	0.045	65652	keystroke_i	i	n/a
32.976	0.09	65952	keystroke_c	c	n/a
33.126	0.06	66252	keystroke_Key.enter	Key.enter	n/a
33.192	5.3055	66384	prompt	n/a	approaches wearing exist guests\n
33.951	0.075	67902	keystroke_a	a	n/a
34.011	0.0755	68022	keystroke_p	p	n/a
34.161	0.09	68322	keystroke_p	p	n/a
34.311	0.045	68622	keystroke_r	r	n/a
34.386	0.06	68772	keystroke_o	o	n/a
34.476	0.135	68952	keystroke_a	a	n/a
34.551	0.12	69102	keystroke_c	c	n/a
34.6565	0.0445	69313	keystroke_h	h	n/a
34.7465	0.1195	69493	keystroke_e	e	n/a
34.8815	0.1345	69763	keystroke_s	s	n/a
35.061	0.06	70122	keystroke_Key.space	Key.space	n/a
35.4215	0.0595	70843	keystroke_w	w	n/a
35.556	0.1055	71112	keystroke_e	e	n/a
35.616	0.1495	71232	keystroke_a	a	n/a
35.7215	0.074	71443	keystroke_r	r	n/a
35.8115	0.104	71623	keystroke_i	i	n/a
35.8565	0.075	71713	keystroke_n	n	n/a
35.946	0.075	71892	keystroke_g	g	n/a
36.051	0.06	72102	keystroke_Key.space	Key.space	n/a
36.157	0.074	72314	keystroke_e	e	n/a
36.321	0.12	72642	keystroke_x	x	n/a
36.5015	0.0745	73003	keystroke_i	i	n/a
36.861	0.225	73722	keystroke_s	s	n/a
37.011	0.09	74022	keystroke_t	t	n/a
37.116	0.0605	74232	keystroke_Key.space	Key.space	n/a
37.5365	0.059	75073	keystroke_g	g	n/a
37.7165	0.045	75433	keystroke_u	u	n/a
37.821	0.09	75642	keystroke_e	e	n/a
37.9865	0.1495	75973	keystroke_s	s	n/a
38.062	0.0595	76124	keystroke_t	t	n/a
38.196	0.1055	76392	keystroke_s	s	n/a
38.45	0.045	76900	keystroke_Key.enter	Key.enter	n/a
38.5005	6.507	77001	prompt	n/a	metallica peer badge stock\n
39.186	0.06	78372	keystroke_m	m	n/a
39.8165	0.09	79633	keystroke_e	e	n/a
40.071	0.03	80142	keystroke_t	t	n/a
40.5505	0.091	81101	keystroke_a	a	n/a
40.746	0.1195	81492	keystroke_l	l	n/a
40.851	0.0755	81702	keystroke_i	i	n/a
41.226	0.045	82452	keystroke_Key.backspace	Key.backspace	n/a
41.4215	0.0905	82843	keystroke_l	l	n/a
41.4965	0.045	82993	keystroke_i	i	n/a
41.586	0.075	83172	keystroke_c	c	n/a
41.691	0.061	83382	keystroke_a	a	n/a
42.036	0.09	84072	keystroke_Key.space	Key.space	n/a
42.186	0.105	84372	keystroke_p	p	n/a
42.351	0.075	84702	keystroke_e	e	n/a
42.741	0.045	85482	keystroke_r	r	n/a
43.0115	0.044	86023	keystroke_Key.backspace	Key.backspace	n/a
43.0715	0.0595	86143	keystroke_e	e	n/a
43.1155	0.1055	86231	keystroke_r	r	n/a
43.2505	0.0155	86501	keystroke_Key.space	Key.space	n/a
43.3405	0.061	86681	keystroke_b	b	n/a
43.4465	0.1795	86893	keystroke_a	a	n/a
43.6415	0.0595	87283	keystroke_d	d	n/a
43.896	0.105	87792	keystroke_g	g	n/a
44.0165	0.0595	88033	keystroke_e	e	n/a
44.211	0.09	88422	keystroke_Key.space	Key.space	n/a
44.361	0.12	88722	keystroke_s	s	n/a
44.436	0.047	88872	keystroke_t	t	n/a
44.496	0.0905	88992	keystroke_o	o	n/a
44.631	0.06	89262	keystroke_c	c	n/a
44.706	0.09	89412	keystroke_k	k	n/a
44.9605	0.045	89921	keystroke_Key.enter	Key.enter	n/a
45.012	6.1765	90024	prompt	n/a	worlds promise scanner magnetic\n
45.6355	0.076	91271	keystroke_w	w	n/a
45.7715	0.0745	91543	keystroke_o	o	n/a
45.8605	0.06	91721	keystroke_r	r	n/a
45.9515	0.09	91903	keystroke_l	l	n/a
46.0705	0.106	92141	keystroke_d	d	n/a
46.1605	0.076	92321	keystroke_s	s	n/a
46.2955	0.06	92591	keystroke_Key.space	Key.space	n/a
46.446	0.09	92892	keystroke_p	p	n/a
46.5965	0.0745	93193	keystroke_r	r	n/a
46.641	0.0755	93282	keystroke_e	e	n/a
46.926	0.075	93852	keystroke_m	m	n/a
47.181	0.045	94362	keystroke_Key.backspace	Key.backspace	n/a
47.286	0.075	94572	keystroke_Key.backspace	Key.backspace	n/a
47.4815	0.09	94963	keystroke_o	o	n/a
47.556	0.0895	95112	keystroke_m	m	n/a
47.6905	0.0755	95381	keystroke_i	i	n/a
47.8265	0.09	95653	keystroke_s	s	n/a
48.0215	0.059	96043	keystroke_e	e	n/a
48.186	0.0455	96372	keystroke_Key.space	Key.space	n/a
48.6205	0.15	97241	keystroke_s	s	n/a
48.7555	0.0755	97511	keystroke_c	c	n/a
48.8915	0.09	97783	keystroke_a	a	n/a
49.101	0.06	98202	keystroke_n	n	n/a
49.2365	0.06	98473	keystroke_n	n	n/a
49.3565	0.075	98713	keystroke_e	e	n/a
49.4165	0.075	98833	keystroke_r	r	n/a
49.5065	0.03	99013	keystroke_Key.space	Key.space	n/a
49.7465	0.06	99493	keystroke_m	m	n/a
49.8355	0.121	99671	keystroke_a	a	n/a
49.9415	0.06	99883	keystroke_g	g	n/a
50.2265	0.06	100453	keystroke_n	n	n/a
50.3305	0.0455	100661	keystroke_e	e	n/a
50.3905	0.046	100781	keystroke_t	t	n/a
50.752	0.0435	101504	keystroke_i	i	n/a
50.8705	0.0755	101741	keystroke_c	c	n/a
51.0955	0.0905	102191	keystroke_Key.enter	Key.enter	n/a
51.195	3.833	102390	prompt	n/a	closing loud beta pose\n
51.8315	0.089	103663	keystroke_c	c	n/a
51.936	0.06	103872	keystroke_l	l	n/a
52.116	0.075	104232	keystroke_o	o	n/a
52.206	0.106	104412	keystroke_s	s	n/a
52.356	0.09	104712	keystroke_i	i	n/a
52.371	0.075	104742	keystroke_n	n	n/a
52.447	0.089	104894	keystroke_g	g	n/a
52.55	0.076	105100	keystroke_Key.space	Key.space	n/a
52.716	0.1045	105432	keystroke_l	l	n/a
52.8655	0.1515	105731	keystroke_o	o	n/a
52.956	0.075	105912	keystroke_u	u	n/a
53.077	0.06	106154	keystroke_d	d	n/a
53.286	0.06	106572	keystroke_Key.space	Key.space	n/a
53.497	0.09	106994	keystroke_b	b	n/a
53.557	0.104	107114	keystroke_e	e	n/a
53.8565	0.059	107713	keystroke_t	t	n/a
53.9465	0.0745	107893	keystroke_a	a	n/a
54.081	0.045	108162	keystroke_Key.space	Key.space	n/a
54.187	0.104	108374	keystroke_p	p	n/a
54.366	0.091	108732	keystroke_o	o	n/a
54.398	0.0735	108796	keystroke_s	s	n/a
54.7265	0.09	109453	keystroke_e	e	n/a
54.9665	0.0595	109933	keystroke_Key.enter	Key.enter	n/a
55.0415	5.776	110083	prompt	n/a	flowers oliver against essays\n
55.7315	0.044	111463	keystroke_f	f	n/a
55.8355	0.045	111671	keystroke_l	l	n/a
55.971	0.075	111942	keystroke_o	o	n/a
56.061	0.0755	112122	keystroke_w	w	n/a
56.196	0.09	112392	keystroke_e	e	n/a
56.271	0.12	112542	keystroke_r	r	n/a
56.376	0.12	112752	keystroke_s	s	n/a
56.511	0.06	113022	keystroke_Key.space	Key.space	n/a
56.8555	0.0605	113711	keystroke_o	o	n/a
57.4565	0.1345	114913	keystroke_l	l	n/a
57.531	0.075	115062	keystroke_i	i	n/a
57.651	0.18	115302	keystroke_v	v	n/a
57.726	0.15	115452	keystroke_e	e	n/a
57.8315	0.0595	115663	keystroke_r	r	n/a
58.0105	0.0455	116021	keystroke_Key.space	Key.space	n/a
58.3555	0.1055	116711	keystroke_a	a	n/a
58.521	0.045	117042	keystroke_g	g	n/a
58.581	0.09	117162	keystroke_a	a	n/a
58.806	0.106	117612	keystroke_i	i	n/a
58.851	0.075	117702	keystroke_n	n	n/a
58.941	0.165	117882	keystroke_s	s	n/a
59.046	0.061	118092	keystroke_t	t	n/a
59.151	0.09	118302	keystroke_Key.space	Key.space	n/a
59.707	0.0895	119414	keystroke_e	e	n/a
59.8865	0.0895	119773	keystroke_s	s	n/a
60.036	0.09	120072	keystroke_s	s	n/a
60.186	0.105	120372	keystroke_a	a	n/a
60.381	0.0455	120762	keystroke_y	y	n/a
60.486	0.075	120972	keystroke_s	s	n/a
60.771	0.045	121542	keystroke_Key.enter	Key.enter	n/a
60.822	6.505	121644	prompt	n/a	great hypothetical reel contact\n
61.6715	0.075	123343	keystroke_g	g	n/a
61.8365	0.135	123673	keystroke_r	r	n/a
61.896	0.1655	123792	keystroke_e	e	n/a
61.9715	0.15	123943	keystroke_a	a	n/a
62.0765	0.075	124153	keystroke_t	t	n/a
62.2865	0.059	124573	keystroke_Key.space	Key.space	n/a
62.4805	0.045	124961	keystroke_h	h	n/a
62.916	0.061	125832	keystroke_y	y	n/a
63.141	0.0895	126282	keystroke_p	p	n/a
63.336	0.1195	126672	keystroke_o	o	n/a
63.6065	0.1045	127213	keystroke_t	t	n/a
63.952	0.0745	127904	keystroke_e	e	n/a
64.3255	0.031	128651	keystroke_Key.backspace	Key.backspace	n/a
64.4765	0.044	128953	keystroke_h	h	n/a
64.5365	0.1195	129073	keystroke_e	e	n/a
64.6265	0.0745	129253	keystroke_t	t	n/a
64.731	0.075	129462	keystroke_i	i	n/a
64.851	0.09	129702	keystroke_c	c	n/a
64.971	0.105	129942	keystroke_a	a	n/a
65.1515	0.075	130303	keystroke_l	l	n/a
65.227	0.044	130454	keystroke_Key.space	Key.space	n/a
65.7055	0.0455	131411	keystroke_r	r	n/a
65.766	0.135	131532	keystroke_e	e	n/a
65.946	0.0595	131892	keystroke_e	e	n/a
66.0805	0.0755	132161	keystroke_l	l	n/a
66.1855	0.105	132371	keystroke_Key.space	Key.space	n/a
66.3355	0.121	132671	keystroke_c	c	n/a
66.4705	0.0905	132941	keystroke_o	o	n/a
66.5305	0.06	133061	keystroke_n	n	n/a
66.6965	0.045	133393	keystroke_t	t	n/a
66.786	0.06	133572	keystroke_a	a	n/a
66.996	0.045	133992	keystroke_c	c	n/a
67.146	0.09	134292	keystroke_t	t	n/a
67.266	0.06	134532	keystroke_Key.enter	Key.enter	n/a
67.3305	6.2525	134661	prompt	n/a	volleyball paperbacks asin taught\n
68.001	0.06	136002	keystroke_v	v	n/a
68.063	0.0575	136126	keystroke_o	o	n/a
68.2415	0.074	136483	keystroke_l	l	n/a
68.3615	0.105	136723	keystroke_l	l	n/a
68.4955	0.075	136991	keystroke_e	e	n/a
68.661	0.03	137322	keystroke_y	y	n/a
68.766	0.0755	137532	keystroke_b	b	n/a
68.976	0.15	137952	keystroke_a	a	n/a
69.111	0.076	138222	keystroke_l	l	n/a
69.246	0.075	138492	keystroke_l	l	n/a
69.5915	0.015	139183	keystroke_Key.space	Key.space	n/a
69.6075	0.074	139215	keystroke_p	p	n/a
69.831	0.06	139662	keystroke_a	a	n/a
69.9355	0.1355	139871	keystroke_p	p	n/a
70.1765	0.104	140353	keystroke_e	e	n/a
70.251	0.09	140502	keystroke_r	r	n/a
70.4765	0.0595	140953	keystroke_b	b	n/a
70.6105	0.135	141221	keystroke_a	a	n/a
70.926	0.09	141852	keystroke_c	c	n/a
71.031	0.075	142062	keystroke_k	k	n/a
71.151	0.136	142302	keystroke_s	s	n/a
71.361	0.06	142722	keystroke_Key.space	Key.space	n/a
71.601	0.12	143202	keystroke_a	a	n/a
71.661	0.105	143322	keystroke_s	s	n/a
71.886	0.0745	143772	keystroke_i	i	n/a
72.1415	0.0295	144283	keystroke_n	n	n/a
72.1855	0.0755	144371	keystroke_Key.space	Key.space	n/a
72.3965	0.059	144793	keystroke_t	t	n/a
72.5305	0.12	145061	keystroke_a	a	n/a
72.6965	0.045	145393	keystroke_u	u	n/a
72.7865	0.045	145573	keystroke_g	g	n/a
72.8465	0.089	145693	keystroke_h	h	n/a
73.251	0.06	146502	keystroke_t	t	n/a
73.521	0.06	147042	keystroke_Key.enter	Key.enter	n/a
73.5875	4.556	147175	prompt	n/a	approaches another scores computer\n
74.166	0.1355	148332	keystroke_a	a	n/a
74.316	0.045	148632	keystroke_p	p	n/a
74.4365	0.075	148873	keystroke_p	p	n/a
74.5855	0.076	149171	keystroke_r	r	n/a
74.6915	0.074	149383	keystroke_o	o	n/a
74.7965	0.119	149593	keystroke_a	a	n/a
74.8705	0.091	149741	keystroke_c	c	n/a
74.976	0.045	149952	keystroke_h	h	n/a
75.051	0.105	150102	keystroke_e	e	n/a
75.2315	0.104	150463	keystroke_s	s	n/a
75.501	0.075	151002	keystroke_Key.space	Key.space	n/a
75.666	0.075	151332	keystroke_a	a	n/a
75.7865	0.0445	151573	keystroke_n	n	n/a
75.861	0.105	151722	keystroke_o	o	n/a
76.0105	0.0605	152021	keystroke_t	t	n/a
76.1155	0.06	152231	keystroke_h	h	n/a
76.191	0.09	152382	keystroke_e	e	n/a
76.236	0.1055	152472	keystroke_r	r	n/a
76.3255	0.075	152651	keystroke_Key.space	Key.space	n/a
76.431	0.1805	152862	keystroke_s	s	n/a
76.5665	0.074	153133	keystroke_c	c	n/a
76.7005	0.106	153401	keystroke_o	o	n/a
76.8505	0.0755	153701	keystroke_r	r	n/a
76.9105	0.075	153821	keystroke_e	e	n/a
77.0455	0.12	154091	keystroke_s	s	n/a
77.1955	0.0605	154391	keystroke_Key.space	Key.space	n/a
77.361	0.0595	154722	keystroke_c	c	n/a
77.436	0.1195	154872	keystroke_o	o	n/a
77.5105	0.0755	155021	keystroke_m	m	n/a
77.6005	0.075	155201	keystroke_p	p	n/a
77.7215	0.03	155443	keystroke_u	u	n/a
77.7815	0.09	155563	keystroke_t	t	n/a
77.8565	0.12	155713	keystroke_e	e	n/a
77.9465	0.0895	155893	keystroke_r	r	n/a
78.096	0.0445	156192	keystroke_Key.enter	Key.enter	n/a
78.164	6.7285	156328	prompt	n/a	waves bool parameters techniques\n
78.7865	0.105	157573	keystroke_w	w	n/a
78.996	0.03	157992	keystroke_a	a	n/a
79.071	0.09	158142	keystroke_v	v	n/a
79.116	0.105	158232	keystroke_e	e	n/a
79.296	0.15	158592	keystroke_s	s	n/a
79.461	0.015	158922	keystroke_Key.space	Key.space	n/a
79.566	0.09	159132	keystroke_b	b	n/a
79.836	0.045	159672	keystroke_o	o	n/a
79.956	0.105	159912	keystroke_o	o	n/a
80.331	0.105	160662	keystroke_l	l	n/a
80.5255	0.075	161051	keystroke_Key.space	Key.space	n/a
80.5715	0.149	161143	keystroke_p	p	n/a
80.7215	0.12	161443	keystroke_a	a	n/a
80.871	0.09	161742	keystroke_p	p	n/a
81.0205	0.1205	162041	keystroke_a	a	n/a
81.3655	0.0605	162731	keystroke_Key.backspace	Key.backspace	n/a
81.486	0.0895	162972	keystroke_Key.backspace	Key.backspace	n/a
81.591	0.0905	163182	keystroke_r	r	n/a
81.6955	0.0905	163391	keystroke_a	a	n/a
81.921	0.061	163842	keystroke_m	m	n/a
82.086	0.1205	164172	keystroke_e	e	n/a
82.146	0.0455	164292	keystroke_t	t	n/a
82.371	0.106	164742	keystroke_e	e	n/a
82.447	0.179	164894	keystroke_r	r	n/a
82.596	0.105	165192	keystroke_s	s	n/a
83.045	0.0305	166090	keystroke_Key.space	Key.space	n/a
83.3305	0.031	166661	keystroke_t	t	n/a
83.4515	0.105	166903	keystroke_e	e	n/a
83.5855	0.091	167171	keystroke_c	c	n/a
83.7515	0.089	167503	keystroke_h	h	n/a
83.916	0.1215	167832	keystroke_n	n	n/a
84.0215	0.06	168043	keystroke_i	i	n/a
84.2915	0.075	168583	keystroke_q	q	n/a
84.4405	0.045	168881	keystroke_u	u	n/a
84.5155	0.09	169031	keystroke_e	e	n/a
84.6955	0.076	169391	keystroke_s	s	n/a
84.8155	0.075	169631	keystroke_Key.enter	Key.enter	n/a
84.897	9.2805	169794	prompt	n/a	forbidden granted thursday encoding\n
85.5815	0.059	171163	keystroke_f	f	n/a
85.6705	0.06	171341	keystroke_o	o	n/a
85.7755	0.046	171551	keystroke_r	r	n/a
85.9715	0.0595	171943	keystroke_b	b	n/a
86.346	0.045	172692	keystroke_i	i	n/a
86.466	0.06	172932	keystroke_d	d	n/a
86.586	0.1355	173172	keystroke_d	d	n/a
86.691	0.09	173382	keystroke_e	e	n/a
86.8265	0.0595	173653	keystroke_n	n	n/a
86.9315	0.0745	173863	keystroke_t	t	n/a
87.021	0.0745	174042	keystroke_Key.space	Key.space	n/a
87.156	0.0605	174312	keystroke_g	g	n/a
87.2765	0.105	174553	keystroke_r	r	n/a
87.3955	0.0755	174791	keystroke_a	a	n/a
87.8315	0.0305	175663	keystroke_n	n	n/a
88.0115	0.15	176023	keystroke_t	t	n/a
88.1165	0.24	176233	keystroke_e	e	n/a
88.2955	0.135	176591	keystroke_d	d	n/a
88.4905	0.03	176981	keystroke_Key.space	Key.space	n/a
88.8065	0.0445	177613	keystroke_h	h	n/a
88.9415	0.0595	177883	keystroke_u	u	n/a
89.0765	0.075	178153	keystroke_r	r	n/a
89.2105	0.165	178421	keystroke_s	s	n/a
89.361	0.165	178722	keystroke_d	d	n/a
89.691	0.045	179382	keystroke_Key.backspace	Key.backspace	n/a
89.811	0.0445	179622	keystroke_Key.backspace	Key.backspace	n/a
89.9455	0.0605	179891	keystroke_Key.backspace	Key.backspace	n/a
90.096	0.06	180192	keystroke_Key.backspace	Key.backspace	n/a
90.2165	0.0895	180433	keystroke_Key.backspace	Key.backspace	n/a
90.501	0.045	181002	keystroke_h	h	n/a
90.801	0.075	181602	keystroke_Key.backspace	Key.backspace	n/a
90.921	0.06	181842	keystroke_Key.backspace	Key.backspace	n/a
91.071	0.015	182142	keystroke_t	t	n/a
91.3555	0.0455	182711	keystroke_Key.backspace	Key.backspace	n/a
91.4455	0.0605	182891	keystroke_Key.space	Key.space	n/a
91.566	0.0595	183132	keystroke_t	t	n/a
91.686	0.09	183372	keystroke_h	h	n/a
91.8215	0.09	183643	keystroke_u	u	n/a
91.9865	0.075	183973	keystroke_r	r	n/a
92.1665	0.12	184333	keystroke_s	s	n/a
92.2555	0.151	184511	keystroke_d	d	n/a
92.3905	0.061	184781	keystroke_a	a	n/a
92.4965	0.0595	184993	keystroke_y	y	n/a
92.691	0.03	185382	keystroke_Key.space	Key.space	n/a
93.2765	0.06	186553	keystroke_e	e	n/a
93.3515	0.06	186703	keystroke_n	n	n/a
93.472	0.0745	186944	keystroke_c	c	n/a
93.5315	0.09	187063	keystroke_o	o	n/a
93.6515	0.075	187303	keystroke_d	d	n/a
93.7705	0.091	187541	keystroke_i	i	n/a
93.8155	0.031	187631	keystroke_n	n	n/a
93.8755	0.045	187751	keystroke_g	g	n/a
94.1165	0.0595	188233	keystroke_Key.enter	Key.enter	n/a
94.182	8.6055	188364	prompt	n/a	improvements aviation schedules petersburg\n
94.8215	0.12	189643	keystroke_i	i	n/a
94.8965	0.075	189793	keystroke_m	m	n/a
95.0765	0.105	190153	keystroke_p	p	n/a
95.2865	0.06	190573	keystroke_r	r	n/a
95.361	0.105	190722	keystroke_o	o	n/a
95.482	0.089	190964	keystroke_v	v	n/a
95.556	0.0895	191112	keystroke_e	e	n/a
95.752	0.044	191504	keystroke_m	m	n/a
95.8715	0.105	191743	keystroke_e	e	n/a
95.9915	0.075	191983	keystroke_n	n	n/a
96.081	0.0455	192162	keystroke_t	t	n/a
96.1415	0.1345	192283	keystroke_s	s	n/a
96.2905	0.046	192581	keystroke_Key.space	Key.space	n/a
97.071	0.12	194142	keystroke_a	a	n/a
97.2365	0.0895	194473	keystroke_v	v	n/a
97.371	0.0905	194742	keystroke_i	i	n/a
97.551	0.09	195102	keystroke_a	a	n/a
98.001	0.09	196002	keystroke_t	t	n/a
98.106	0.075	196212	keystroke_i	i	n/a
98.121	0.15	196242	keystroke_o	o	n/a
98.151	0.06	196302	keystroke_n	n	n/a
98.256	0.03	196512	keystroke_Key.space	Key.space	n/a
98.467	0.1195	196934	keystroke_s	s	n/a
98.542	0.074	197084	keystroke_c	c	n/a
98.676	0.045	197352	keystroke_h	h	n/a
98.766	0.091	197532	keystroke_e	e	n/a
98.8115	0.1045	197623	keystroke_d	d	n/a
98.9015	0.075	197803	keystroke_u	u	n/a
98.991	0.015	197982	keystroke_l	l	n/a
99.066	0.09	198132	keystroke_e	e	n/a
99.201	0.0755	198402	keystroke_d	d	n/a
99.5005	0.03	199001	keystroke_Key.backspace	Key.backspace	n/a
99.6205	0.06	199241	keystroke_s	s	n/a
99.7555	0.045	199511	keystroke_Key.space	Key.space	n/a
100.3705	0.091	200741	keystroke_p	p	n/a
100.5515	0.0895	201103	keystroke_e	e	n/a
100.6555	0.1505	201311	keystroke_r	r	n/a
100.926	0.105	201852	keystroke_s	s	n/a
101.211	0.03	202422	keystroke_Key.backspace	Key.backspace	n/a
101.346	0.075	202692	keystroke_Key.backspace	Key.backspace	n/a
101.376	0.12	202752	keystroke_t	t	n/a
101.436	0.12	202872	keystroke_e	e	n/a
101.512	0.179	203024	keystroke_r	r	n/a
101.6615	0.165	203323	keystroke_s	s	n/a
101.946	0.106	203892	keystroke_b	b	n/a
102.111	0.06	204222	keystroke_u	u	n/a
102.262	0.104	204524	keystroke_r	r	n/a
102.411	0.075	204822	keystroke_g	g	n/a
102.711	0.075	205422	keystroke_Key.enter	Key.enter	n/a
102.793	5.8445	205586	prompt	n/a	badly number xanax missile\n
103.6265	0.06	207253	keystroke_b	b	n/a
103.7165	0.105	207433	keystroke_a	a	n/a
103.8365	0.045	207673	keystroke_d	d	n/a
104.106	0.075	208212	keystroke_l	l	n/a
104.376	0.045	208752	keystroke_y	y	n/a
104.4505	0.0605	208901	keystroke_Key.space	Key.space	n/a
104.646	0.045	209292	keystroke_n	n	n/a
104.766	0.0445	209532	keystroke_u	u	n/a
104.9305	0.0755	209861	keystroke_m	m	n/a
105.141	0.135	210282	keystroke_b	b	n/a
105.2615	0.1045	210523	keystroke_e	e	n/a
105.321	0.12	210642	keystroke_r	r	n/a
105.456	0.075	210912	keystroke_Key.space	Key.space	n/a
105.906	0.1345	211812	keystroke_x	x	n/a
106.0555	0.136	212111	keystroke_a	a	n/a
106.2805	0.03	212561	keystroke_n	n	n/a
106.461	0.06	212922	keystroke_a	a	n/a
106.6855	0.075	213371	keystroke_s	s	n/a
106.9855	0.075	213971	keystroke_Key.backspace	Key.backspace	n/a
107.076	0.0745	214152	keystroke_x	x	n/a
107.1955	0.06	214391	keystroke_Key.space	Key.space	n/a
107.3905	0.0755	214781	keystroke_m	m	n/a
107.451	0.0745	214902	keystroke_i	i	n/a
107.5705	0.045	215141	keystroke_s	s	n/a
107.7055	0.09	215411	keystroke_s	s	n/a
107.8405	0.0905	215681	keystroke_i	i	n/a
107.9315	0.1045	215863	keystroke_l	l	n/a
108.066	0.1195	216132	keystroke_e	e	n/a
108.2155	0.0305	216431	keystroke_Key.space	Key.space	n/a
108.5765	0.0595	217153	keystroke_Key.enter	Key.enter	n/a
108.6465	4.3565	217293	prompt	n/a	instructor city hire realtor\n
109.2215	0.089	218443	keystroke_i	i	n/a
109.2805	0.06	218561	keystroke_n	n	n/a
109.356	0.1355	218712	keystroke_s	s	n/a
109.446	0.0605	218892	keystroke_t	t	n/a
109.597	0.045	219194	keystroke_r	r	n/a
109.7015	0.045	219403	keystroke_u	u	n/a
109.7615	0.074	219523	keystroke_c	c	n/a
109.9265	0.075	219853	keystroke_t	t	n/a
110.031	0.06	220062	keystroke_o	o	n/a
110.121	0.09	220242	keystroke_r	r	n/a
110.361	0.075	220722	keystroke_Key.space	Key.space	n/a
110.781	0.06	221562	keystroke_c	c	n/a
110.871	0.075	221742	keystroke_i	i	n/a
110.976	0.06	221952	keystroke_t	t	n/a
111.081	0.075	222162	keystroke_y	y	n/a
111.171	0.045	222342	keystroke_Key.space	Key.space	n/a
111.3965	0.1045	222793	keystroke_h	h	n/a
111.486	0.075	222972	keystroke_i	i	n/a
111.637	0.104	223274	keystroke_r	r	n/a
111.7115	0.075	223423	keystroke_e	e	n/a
111.815	0.0765	223630	keystroke_Key.space	Key.space	n/a
112.011	0.09	224022	keystroke_r	r	n/a
112.056	0.12	224112	keystroke_e	e	n/a
112.206	0.105	224412	keystroke_a	a	n/a
112.356	0.075	224712	keystroke_l	l	n/a
112.536	0.075	225072	keystroke_t	t	n/a
112.566	0.105	225132	keystroke_o	o	n/a
112.716	0.105	225432	keystroke_r	r	n/a
112.926	0.075	225852	keystroke_Key.enter	Key.enter	n/a
113.016	7.5315	226032	prompt	n/a	molecules generating covering surrounded\n
113.781	0.09	227562	keystroke_m	m	n/a
113.887	0.074	227774	keystroke_o	o	n/a
114.051	0.0745	228102	keystroke_l	l	n/a
114.382	0.119	228764	keystroke_e	e	n/a
114.56	0.0465	229120	keystroke_c	c	n/a
114.8765	0.09	229753	keystroke_u	u	n/a
114.9815	0.0895	229963	keystroke_l	l	n/a
115.597	0.014	231194	keystroke_e	e	n/a
115.9105	0.0755	231821	keystroke_s	s	n/a
116.03	0.061	232060	keystroke_Key.space	Key.space	n/a
116.391	0.045	232782	keystroke_g	g	n/a
116.406	0.1055	232812	keystroke_e	e	n/a
116.601	0.06	233202	keystroke_n	n	n/a
116.706	0.21	233412	keystroke_e	e	n/a
116.766	0.165	233532	keystroke_r	r	n/a
116.871	0.12	233742	keystroke_a	a	n/a
116.946	0.09	233892	keystroke_t	t	n/a
117.0955	0.045	234191	keystroke_o	o	n/a
117.3655	0.045	234731	keystroke_Key.backspace	Key.backspace	n/a
117.5315	0.105	235063	keystroke_i	i	n/a
117.6065	0.045	235213	keystroke_n	n	n/a
117.6665	0.059	235333	keystroke_g	g	n/a
117.786	0.06	235572	keystroke_Key.space	Key.space	n/a
117.9665	0.1045	235933	keystroke_c	c	n/a
118.056	0.0755	236112	keystroke_o	o	n/a
118.221	0.135	236442	keystroke_v	v	n/a
118.296	0.135	236592	keystroke_e	e	n/a
118.371	0.1205	236742	keystroke_r	r	n/a
118.5215	0.09	237043	keystroke_i	i	n/a
118.566	0.06	237132	keystroke_n	n	n/a
118.641	0.06	237282	keystroke_g	g	n/a
118.746	0.06	237492	keystroke_Key.space	Key.space	n/a
118.926	0.09	237852	keystroke_s	s	n/a
119.0915	0.0445	238183	keystroke_u	u	n/a
119.256	0.03	238512	keystroke_r	r	n/a
119.346	0.075	238692	keystroke_r	r	n/a
119.466	0.105	238932	keystroke_o	o	n/a
119.526	0.09	239052	keystroke_u	u	n/a
119.661	0.06	239322	keystroke_n	n	n/a
119.781	0.0905	239562	keystroke_d	d	n/a
119.8415	0.09	239683	keystroke_s	s	n/a
120.2015	0.059	240403	keystroke_Key.backspace	Key.backspace	n/a
120.276	0.0755	240552	keystroke_e	e	n/a
120.3205	0.091	240641	keystroke_d	d	n/a
120.5015	0.044	241003	keystroke_Key.enter	Key.enter	n/a
120.5535	5.514	241107	prompt	n/a	instrumentation hosts blast counsel\n
121.401	0.075	242802	keystroke_i	i	n/a
121.461	0.0455	242922	keystroke_n	n	n/a
121.5505	0.1205	243101	keystroke_s	s	n/a
121.626	0.0605	243252	keystroke_t	t	n/a
121.761	0.105	243522	keystroke_r	r	n/a
121.851	0.045	243702	keystroke_u	u	n/a
121.9865	0.09	243973	keystroke_m	m	n/a
122.0915	0.074	244183	keystroke_e	e	n/a
122.1955	0.061	244391	keystroke_n	n	n/a
122.3315	0.1045	244663	keystroke_t	t	n/a
122.4205	0.105	244841	keystroke_a	a	n/a
122.5105	0.075	245021	keystroke_t	t	n/a
122.5555	0.091	245111	keystroke_i	i	n/a
122.5705	0.09	245141	keystroke_o	o	n/a
122.6165	0.06	245233	keystroke_n	n	n/a
123.2305	0.06	246461	keystroke_Key.space	Key.space	n/a
123.456	0.0445	246912	keystroke_h	h	n/a
123.4715	0.0895	246943	keystroke_o	o	n/a
123.6055	0.09	247211	keystroke_s	s	n/a
123.756	0.0455	247512	keystroke_t	t	n/a
123.8165	0.104	247633	keystroke_s	s	n/a
124.0405	0.061	248081	keystroke_Key.space	Key.space	n/a
124.2065	0.03	248413	keystroke_b	b	n/a
124.2815	0.075	248563	keystroke_l	l	n/a
124.4305	0.105	248861	keystroke_a	a	n/a
124.5655	0.166	249131	keystroke_s	s	n/a
124.7015	0.074	249403	keystroke_t	t	n/a
124.7905	0.1505	249581	keystroke_s	s	n/a
125.0005	0.03	250001	keystroke_Key.space	Key.space	n/a
125.1805	0.06	250361	keystroke_c	c	n/a
125.2555	0.1055	250511	keystroke_o	o	n/a
125.316	0.06	250632	keystroke_u	u	n/a
125.466	0.045	250932	keystroke_n	n	n/a
125.541	0.06	251082	keystroke_s	s	n/a
125.691	0.076	251382	keystroke_e	e	n/a
125.811	0.0445	251622	keystroke_l	l	n/a
126.006	0.059	252012	keystroke_Key.enter	Key.enter	n/a
126.0795	5.928	252159	prompt	n/a	borough crash rosa annie\n
126.756	0.06	253512	keystroke_b	b	n/a
126.876	0.075	253752	keystroke_o	o	n/a
126.936	0.0455	253872	keystroke_u	u	n/a
126.9965	0.0595	253993	keystroke_r	r	n/a
127.446	0.045	254892	keystroke_Key.backspace	Key.backspace	n/a
127.536	0.09	255072	keystroke_Key.backspace	Key.backspace	n/a
127.656	0.045	255312	keystroke_r	r	n/a
127.747	0.0745	255494	keystroke_o	o	n/a
127.7915	0.0595	255583	keystroke_u	u	n/a
127.8815	0.0445	255763	keystroke_g	g	n/a
127.956	0.06	255912	keystroke_h	h	n/a
128.196	0.045	256392	keystroke_Key.space	Key.space	n/a
128.691	0.075	257382	keystroke_c	c	n/a
128.796	0.045	257592	keystroke_a	a	n/a
129.141	0.06	258282	keystroke_Key.backspace	Key.backspace	n/a
129.246	0.06	258492	keystroke_r	r	n/a
129.411	0.105	258822	keystroke_a	a	n/a
129.486	0.135	258972	keystroke_s	s	n/a
129.681	0.06	259362	keystroke_h	h	n/a
129.936	0.045	259872	keystroke_Key.space	Key.space	n/a
130.161	0.045	260322	keystroke_r	r	n/a
130.252	0.0595	260504	keystroke_o	o	n/a
130.386	0.21	260772	keystroke_s	s	n/a
130.581	0.1655	261162	keystroke_a	a	n/a
130.791	0.015	261582	keystroke_Key.space	Key.space	n/a
131.016	0.0895	262032	keystroke_a	a	n/a
131.4365	0.0295	262873	keystroke_n	n	n/a
131.541	0.12	263082	keystroke_n	n	n/a
131.616	0.105	263232	keystroke_i	i	n/a
131.706	0.075	263412	keystroke_e	e	n/a
131.946	0.0595	263892	keystroke_Key.enter	Key.enter	n/a
132.0115	6.1175	264023	prompt	n/a	seasonal grows comply indie\n
132.6665	0.0895	265333	keystroke_s	s	n/a
132.846	0.1205	265692	keystroke_e	e	n/a
132.906	0.18	265812	keystroke_a	a	n/a
133.041	0.09	266082	keystroke_s	s	n/a
133.146	0.0745	266292	keystroke_o	o	n/a
133.1915	0.044	266383	keystroke_n	n	n/a
133.3855	0.076	266771	keystroke_a	a	n/a
133.581	0.03	267162	keystroke_l	l	n/a
133.8955	0.45	267791	keystroke_Key.space	Key.space	n/a
134.3605	0.016	268721	keystroke_g	g	n/a
134.3915	0.015	268783	keystroke_r	r	n/a
134.4215	0.014	268843	keystroke_o	o	n/a
134.4505	0.015	268901	keystroke_w	w	n/a
135.021	0.12	270042	keystroke_s	s	n/a
135.1855	0.0455	270371	keystroke_Key.space	Key.space	n/a
135.396	0.0605	270792	keystroke_c	c	n/a
135.471	0.106	270942	keystroke_o	o	n/a
135.546	0.0755	271092	keystroke_m	m	n/a
135.636	0.09	271272	keystroke_p	p	n/a
135.846	0.12	271692	keystroke_l	l	n/a
136.716	0.0445	273432	keystroke_y	y	n/a
136.8205	0.075	273641	keystroke_Key.space	Key.space	n/a
137.0005	0.075	274001	keystroke_i	i	n/a
137.046	0.045	274092	keystroke_n	n	n/a
137.1505	0.06	274301	keystroke_d	d	n/a
137.2555	0.0755	274511	keystroke_i	i	n/a
137.3315	0.104	274663	keystroke_d	d	n/a
137.421	0.0595	274842	keystroke_e	e	n/a
137.751	0.0595	275502	keystroke_Key.backspace	Key.backspace	n/a
137.871	0.0595	275742	keystroke_Key.backspace	Key.backspace	n/a
137.9155	0.076	275831	keystroke_e	e	n/a
138.0655	0.06	276131	keystroke_Key.enter	Key.enter	n/a
138.133	5.1545	276266	prompt	n/a	help dave yields devices\n
138.8015	0.045	277603	keystroke_h	h	n/a
138.8765	0.075	277753	keystroke_e	e	n/a
139.0255	0.091	278051	keystroke_l	l	n/a
139.1015	0.075	278203	keystroke_p	p	n/a
139.1905	0.075	278381	keystroke_Key.space	Key.space	n/a
139.5055	0.105	279011	keystroke_d	d	n/a
139.5955	0.136	279191	keystroke_a	a	n/a
139.7155	0.076	279431	keystroke_v	v	n/a
139.7915	0.075	279583	keystroke_e	e	n/a
139.9265	0.044	279853	keystroke_Key.space	Key.space	n/a
140.451	0.06	280902	keystroke_y	y	n/a
140.541	0.09	281082	keystroke_e	e	n/a
140.796	0.045	281592	keystroke_i	i	n/a
140.946	0.045	281892	keystroke_l	l	n/a
141.156	0.06	282312	keystroke_Key.backspace	Key.backspace	n/a
141.291	0.045	282582	keystroke_Key.backspace	Key.backspace	n/a
141.411	0.075	282822	keystroke_Key.backspace	Key.backspace	n/a
141.591	0.06	283182	keystroke_i	i	n/a
141.696	0.0595	283392	keystroke_e	e	n/a
141.8015	0.075	283603	keystroke_l	l	n/a
141.8915	0.105	283783	keystroke_d	d	n/a
141.9355	0.1055	283871	keystroke_s	s	n/a
142.026	0.06	284052	keystroke_Key.space	Key.space	n/a
142.386	0.105	284772	keystroke_d	d	n/a
142.506	0.105	285012	keystroke_e	e	n/a
142.625	0.0765	285250	keystroke_v	v	n/a
142.7165	0.0585	285433	keystroke_i	i	n/a
142.836	0.0905	285672	keystroke_c	c	n/a
142.896	0.0905	285792	keystroke_e	e	n/a
143.046	0.09	286092	keystroke_s	s	n/a
143.226	0.06	286452	keystroke_Key.enter	Key.enter	n/a
143.293	5.0345	286586	prompt	n/a	knee installation alien councils\n
143.856	0.075	287712	keystroke_k	k	n/a
144.066	0.045	288132	keystroke_n	n	n/a
144.17	0.076	288340	keystroke_e	e	n/a
144.321	0.1045	288642	keystroke_e	e	n/a
144.4715	0.059	288943	keystroke_Key.space	Key.space	n/a
144.6065	0.089	289213	keystroke_i	i	n/a
144.711	0.1655	289422	keystroke_s	s	n/a
144.8915	0.06	289783	keystroke_t	t	n/a
144.9655	0.076	289931	keystroke_a	a	n/a
145.2065	0.059	290413	keystroke_l	l	n/a
145.4005	0.091	290801	keystroke_l	l	n/a
145.5665	0.089	291133	keystroke_a	a	n/a
145.626	0.0605	291252	keystroke_t	t	n/a
145.7015	0.119	291403	keystroke_i	i	n/a
145.7165	0.119	291433	keystroke_o	o	n/a
145.7905	0.06	291581	keystroke_n	n	n/a
145.8515	0.0445	291703	keystroke_Key.space	Key.space	n/a
146.271	0.0745	292542	keystroke_a	a	n/a
146.391	0.105	292782	keystroke_l	l	n/a
146.436	0.09	292872	keystroke_i	i	n/a
146.586	0.074	293172	keystroke_e	e	n/a
146.7215	0.059	293443	keystroke_n	n	n/a
146.871	0.06	293742	keystroke_Key.space	Key.space	n/a
146.991	0.075	293982	keystroke_c	c	n/a
147.111	0.06	294222	keystroke_o	o	n/a
147.156	0.06	294312	keystroke_u	u	n/a
147.276	0.061	294552	keystroke_n	n	n/a
147.352	0.1195	294704	keystroke_c	c	n/a
147.516	0.075	295032	keystroke_i	i	n/a
147.605	0.106	295210	keystroke_l	l	n/a
147.981	0.0605	295962	keystroke_s	s	n/a
148.131	0.06	296262	keystroke_Key.space	Key.space	n/a
148.296	0.029	296592	keystroke_Key.enter	Key.enter	n/a
148.332	7.4375	296664	prompt	n/a	norton fewer heather consulting\n
149.046	0.0305	298092	keystroke_n	n	n/a
149.061	0.045	298122	keystroke_o	o	n/a
149.181	0.0745	298362	keystroke_r	r	n/a
149.6755	0.0605	299351	keystroke_t	t	n/a
149.7515	0.1045	299503	keystroke_o	o	n/a
149.826	0.06	299652	keystroke_n	n	n/a
149.991	0.075	299982	keystroke_Key.space	Key.space	n/a
150.156	0.06	300312	keystroke_f	f	n/a
150.217	0.1045	300434	keystroke_e	e	n/a
150.44	0.0615	300880	keystroke_w	w	n/a
150.606	0.105	301212	keystroke_e	e	n/a
150.666	0.0755	301332	keystroke_r	r	n/a
150.846	0.045	301692	keystroke_Key.space	Key.space	n/a
151.3555	0.03	302711	keystroke_h	h	n/a
151.4155	0.1655	302831	keystroke_e	e	n/a
151.5055	0.135	303011	keystroke_a	a	n/a
151.686	0.0455	303372	keystroke_l	l	n/a
151.8805	0.045	303761	keystroke_t	t	n/a
152.1205	0.0455	304241	keystroke_Key.backspace	Key.backspace	n/a
152.226	0.0745	304452	keystroke_Key.backspace	Key.backspace	n/a
152.361	0.0595	304722	keystroke_Key.backspace	Key.backspace	n/a
152.571	0.0595	305142	keystroke_t	t	n/a
152.87	0.046	305740	keystroke_Key.backspace	Key.backspace	n/a
152.9915	0.0745	305983	keystroke_a	a	n/a
153.231	0.09	306462	keystroke_t	t	n/a
153.246	0.06	306492	keystroke_h	h	n/a
153.441	0.075	306882	keystroke_e	e	n/a
153.4715	0.104	306943	keystroke_r	r	n/a
153.6355	0.0595	307271	keystroke_Key.space	Key.space	n/a
153.816	0.075	307632	keystroke_c	c	n/a
153.921	0.1045	307842	keystroke_o	o	n/a
154.0415	0.044	308083	keystroke_n	n	n/a
154.4305	0.045	308861	keystroke_u	u	n/a
154.5205	0.136	309041	keystroke_s	s	n/a
154.7165	0.059	309433	keystroke_Key.backspace	Key.backspace	n/a
154.8205	0.075	309641	keystroke_Key.backspace	Key.backspace	n/a
154.9105	0.076	309821	keystroke_s	s	n/a
155.0305	0.06	310061	keystroke_u	u	n/a
155.1055	0.0755	310211	keystroke_l	l	n/a
155.2865	0.045	310573	keystroke_t	t	n/a
155.3615	0.09	310723	keystroke_i	i	n/a
155.437	0.0295	310874	keystroke_n	n	n/a
155.4815	0.075	310963	keystroke_g	g	n/a
155.6905	0.075	311381	keystroke_Key.enter	Key.enter	n/a
155.7745	7.4055	311549	prompt	n/a	boys survive replies sullivan\n
156.3815	0.075	312763	keystroke_b	b	n/a
156.471	0.0895	312942	keystroke_o	o	n/a
156.606	0.12	313212	keystroke_y	y	n/a
156.786	0.09	313572	keystroke_s	s	n/a
156.891	0.075	313782	keystroke_Key.space	Key.space	n/a
156.981	0.12	313962	keystroke_s	s	n/a
157.116	0.0595	314232	keystroke_u	u	n/a
157.2515	0.06	314503	keystroke_r	r	n/a
157.431	0.0905	314862	keystroke_v	v	n/a
157.5955	0.045	315191	keystroke_i	i	n/a
157.8815	0.044	315763	keystroke_d	d	n/a
158.2855	0.0155	316571	keystroke_Key.backspace	Key.backspace	n/a
158.346	0.0745	316692	keystroke_v	v	n/a
158.376	0.106	316752	keystroke_e	e	n/a
158.5705	0.045	317141	keystroke_Key.space	Key.space	n/a
158.8265	0.0145	317653	keystroke_r	r	n/a
158.886	0.09	317772	keystroke_r	r	n/a
158.931	0.105	317862	keystroke_e	e	n/a
159.051	0.1505	318102	keystroke_p	p	n/a
159.306	0.165	318612	keystroke_l	l	n/a
159.426	0.09	318852	keystroke_i	i	n/a
159.561	0.12	319122	keystroke_e	e	n/a
160.206	0.06	320412	keystroke_Key.backspace	Key.backspace	n/a
160.3405	0.0905	320681	keystroke_Key.backspace	Key.backspace	n/a
160.476	0.0745	320952	keystroke_Key.backspace	Key.backspace	n/a
160.626	0.06	321252	keystroke_Key.backspace	Key.backspace	n/a
160.7605	0.0755	321521	keystroke_Key.backspace	Key.backspace	n/a
160.896	0.09	321792	keystroke_Key.backspace	Key.backspace	n/a
161.0465	0.0605	322093	keystroke_e	e	n/a
161.166	0.105	322332	keystroke_p	p	n/a
161.331	0.211	322662	keystroke_l	l	n/a
161.482	0.074	322964	keystroke_i	i	n/a
161.601	0.1055	323202	keystroke_e	e	n/a
161.766	0.106	323532	keystroke_s	s	n/a
161.856	0.045	323712	keystroke_Key.space	Key.space	n/a
162.126	0.06	324252	keystroke_s	s	n/a
162.201	0.045	324402	keystroke_u	u	n/a
162.38	0.046	324760	keystroke_l	l	n/a
162.486	0.135	324972	keystroke_l	l	n/a
162.576	0.075	325152	keystroke_i	i	n/a
162.681	0.06	325362	keystroke_v	v	n/a
162.7255	0.121	325451	keystroke_a	a	n/a
162.861	0.06	325722	keystroke_n	n	n/a
163.131	0.044	326262	keystroke_Key.enter	Key.enter	n/a
163.1835	4.959	326367	prompt	n/a	stud account reveal promise\n
163.8355	0.1355	327671	keystroke_s	s	n/a
163.926	0.06	327852	keystroke_t	t	n/a
164.001	0.0305	328002	keystroke_u	u	n/a
164.091	0.075	328182	keystroke_d	d	n/a
164.481	0.015	328962	keystroke_Key.space	Key.space	n/a
164.5105	0.0155	329021	keystroke_a	a	n/a
164.5555	0.09	329111	keystroke_c	c	n/a
164.7355	0.105	329471	keystroke_c	c	n/a
164.826	0.1045	329652	keystroke_o	o	n/a
164.8855	0.06	329771	keystroke_u	u	n/a
165.0355	0.076	330071	keystroke_n	n	n/a
165.1265	0.059	330253	keystroke_t	t	n/a
165.2615	0.044	330523	keystroke_Key.space	Key.space	n/a
165.3815	0.09	330763	keystroke_r	r	n/a
165.4565	0.09	330913	keystroke_e	e	n/a
165.5915	0.105	331183	keystroke_v	v	n/a
165.7105	0.136	331421	keystroke_e	e	n/a
165.9515	0.075	331903	keystroke_w	w	n/a
165.9665	0.044	331933	keystroke_e	e	n/a
166.1005	0.0165	332201	keystroke_a	a	n/a
166.4605	0.03	332921	keystroke_Key.backspace	Key.backspace	n/a
166.5505	0.105	333101	keystroke_Key.backspace	Key.backspace	n/a
166.686	0.0745	333372	keystroke_Key.backspace	Key.backspace	n/a
166.7755	0.075	333551	keystroke_a	a	n/a
166.8805	0.09	333761	keystroke_l	l	n/a
166.9555	0.06	333911	keystroke_Key.space	Key.space	n/a
167.061	0.0905	334122	keystroke_p	p	n/a
167.211	0.0745	334422	keystroke_r	r	n/a
167.2705	0.061	334541	keystroke_o	o	n/a
167.406	0.0745	334812	keystroke_m	m	n/a
167.556	0.075	335112	keystroke_i	i	n/a
167.706	0.06	335412	keystroke_s	s	n/a
167.901	0.06	335802	keystroke_e	e	n/a
168.081	0.06	336162	keystroke_Key.enter	Key.enter	n/a
168.1485	5.2285	336297	prompt	n/a	streams ways mailing admission\n
168.771	0.1045	337542	keystroke_s	s	n/a
168.9955	0.076	337991	keystroke_t	t	n/a
169.1615	0.1045	338323	keystroke_r	r	n/a
169.221	0.105	338442	keystroke_e	e	n/a
169.311	0.06	338622	keystroke_a	a	n/a
169.401	0.0755	338802	keystroke_m	m	n/a
169.506	0.0595	339012	keystroke_s	s	n/a
169.625	0.06	339250	keystroke_Key.space	Key.space	n/a
170.031	0.09	340062	keystroke_w	w	n/a
170.1365	0.119	340273	keystroke_a	a	n/a
170.3455	0.045	340691	keystroke_y	y	n/a
170.4365	0.075	340873	keystroke_s	s	n/a
170.5705	0.045	341141	keystroke_Key.space	Key.space	n/a
170.7805	0.046	341561	keystroke_m	m	n/a
170.8715	0.0895	341743	keystroke_a	a	n/a
171.0355	0.061	342071	keystroke_i	i	n/a
171.1105	0.181	342221	keystroke_l	l	n/a
171.231	0.1055	342462	keystroke_i	i	n/a
171.2755	0.076	342551	keystroke_n	n	n/a
171.396	0.075	342792	keystroke_g	g	n/a
171.485	0.045	342970	keystroke_Key.space	Key.space	n/a
171.6965	0.0905	343393	keystroke_a	a	n/a
171.771	0.075	343542	keystroke_d	d	n/a
171.9215	0.0745	343843	keystroke_m	m	n/a
172.041	0.076	344082	keystroke_i	i	n/a
172.146	0.3	344292	keystroke_s	s	n/a
172.596	0.0905	345192	keystroke_s	s	n/a
172.806	0.1055	345612	keystroke_i	i	n/a
172.836	0.09	345672	keystroke_o	o	n/a
172.881	0.0605	345762	keystroke_n	n	n/a
173.3305	0.045	346661	keystroke_Key.enter	Key.enter	n/a
173.3825	7.675	346765	prompt	n/a	vendor possess proprietary organization\n
174.006	0.0895	348012	keystroke_v	v	n/a
174.066	0.075	348132	keystroke_e	e	n/a
174.1865	0.059	348373	keystroke_n	n	n/a
174.2755	0.0755	348551	keystroke_d	d	n/a
174.4115	0.06	348823	keystroke_o	o	n/a
174.5155	0.045	349031	keystroke_r	r	n/a
174.6205	0.0455	349241	keystroke_Key.space	Key.space	n/a
174.9215	0.075	349843	keystroke_p	p	n/a
175.0865	0.09	350173	keystroke_o	o	n/a
175.2205	0.075	350441	keystroke_s	s	n/a
175.371	0.0905	350742	keystroke_s	s	n/a
175.6555	0.0595	351311	keystroke_e	e	n/a
175.806	0.09	351612	keystroke_s	s	n/a
175.9865	0.135	351973	keystroke_s	s	n/a
176.1955	0.045	352391	keystroke_Key.space	Key.space	n/a
176.3155	0.105	352631	keystroke_p	p	n/a
176.4965	0.044	352993	keystroke_r	r	n/a
176.5265	0.089	353053	keystroke_o	o	n/a
176.8565	0.105	353713	keystroke_p	p	n/a
177.066	0.0455	354132	keystroke_r	r	n/a
177.1855	0.075	354371	keystroke_i	i	n/a
177.3505	0.09	354701	keystroke_e	e	n/a
177.4555	0.0765	354911	keystroke_t	t	n/a
177.6505	0.0155	355301	keystroke_y	y	n/a
178.0255	0.0155	356051	keystroke_Key.backspace	Key.backspace	n/a
178.0865	0.075	356173	keystroke_a	a	n/a
178.1015	0.09	356203	keystroke_r	r	n/a
178.2215	0.044	356443	keystroke_y	y	n/a
178.461	0.0445	356922	keystroke_Key.space	Key.space	n/a
178.671	0.075	357342	keystroke_o	o	n/a
178.821	0.015	357642	keystroke_r	r	n/a
178.986	0.06	357972	keystroke_a	a	n/a
179.435	0.046	358870	keystroke_Key.backspace	Key.backspace	n/a
179.5555	0.0595	359111	keystroke_g	g	n/a
179.766	0.09	359532	keystroke_a	a	n/a
180.0205	0.1055	360041	keystroke_n	n	n/a
180.1105	0.06	360221	keystroke_i	i	n/a
180.201	0.0605	360402	keystroke_z	z	n/a
180.4415	0.06	360883	keystroke_a	a	n/a
180.5315	0.044	361063	keystroke_t	t	n/a
180.6065	0.075	361213	keystroke_i	i	n/a
180.6215	0.104	361243	keystroke_o	o	n/a
180.6655	0.045	361331	keystroke_n	n	n/a
181.01	0.045	362020	keystroke_Key.enter	Key.enter	n/a
181.066	6.5915	362132	prompt	n/a	touched turning shopzilla phone\n
181.6415	0.044	363283	keystroke_e	e	n/a
181.7605	0.09	363521	keystroke_o	o	n/a
181.8655	0.0155	363731	keystroke_u	u	n/a
182.076	0.03	364152	keystroke_Key.backspace	Key.backspace	n/a
182.1805	0.045	364361	keystroke_Key.backspace	Key.backspace	n/a
182.301	0.0445	364602	keystroke_Key.backspace	Key.backspace	n/a
182.4215	0.074	364843	keystroke_t	t	n/a
182.5405	0.0605	365081	keystroke_o	o	n/a
182.5855	0.061	365171	keystroke_u	u	n/a
182.647	0.059	365294	keystroke_c	c	n/a
182.751	0.06	365502	keystroke_h	h	n/a
182.856	0.09	365712	keystroke_e	e	n/a
182.947	0.059	365894	keystroke_d	d	n/a
183.066	0.06	366132	keystroke_Key.space	Key.space	n/a
183.441	0.06	366882	keystroke_t	t	n/a
183.666	0.06	367332	keystroke_u	u	n/a
183.8615	0.03	367723	keystroke_r	r	n/a
183.996	0.0605	367992	keystroke_n	n	n/a
184.086	0.0755	368172	keystroke_i	i	n/a
184.1465	0.06	368293	keystroke_n	n	n/a
184.2515	0.0595	368503	keystroke_g	g	n/a
184.356	0.045	368712	keystroke_Key.space	Key.space	n/a
184.596	0.06	369192	keystroke_s	s	n/a
184.686	0.075	369372	keystroke_h	h	n/a
184.746	0.045	369492	keystroke_o	o	n/a
184.836	0.105	369672	keystroke_p	p	n/a
185.3915	0.06	370783	keystroke_z	z	n/a
185.5255	0.0455	371051	keystroke_i	i	n/a
185.7055	0.045	371411	keystroke_l	l	n/a
185.811	0.12	371622	keystroke_l	l	n/a
186.051	0.045	372102	keystroke_Key.space	Key.space	n/a
186.2165	0.015	372433	keystroke_p	p	n/a
186.5005	0.045	373001	keystroke_Key.backspace	Key.backspace	n/a
186.6055	0.0905	373211	keystroke_Key.backspace	Key.backspace	n/a
186.7115	0.0745	373423	keystroke_a	a	n/a
186.831	0.0595	373662	keystroke_Key.space	Key.space	n/a
186.9355	0.09	373871	keystroke_p	p	n/a
187.131	0.105	374262	keystroke_h	h	n/a
187.2215	0.044	374443	keystroke_o	o	n/a
187.296	0.075	374592	keystroke_n	n	n/a
187.401	0.0755	374802	keystroke_e	e	n/a
187.596	0.06	375192	keystroke_Key.enter	Key.enter	n/a
187.6635	6.459	375327	prompt	n/a	governance bernard house flower\n
188.3315	0.089	376663	keystroke_g	g	n/a
188.4505	0.121	376901	keystroke_o	o	n/a
188.6015	0.119	377203	keystroke_v	v	n/a
188.7055	0.1055	377411	keystroke_e	e	n/a
188.7655	0.0905	377531	keystroke_r	r	n/a
188.916	0.06	377832	keystroke_n	n	n/a
189.097	0.074	378194	keystroke_a	a	n/a
189.231	0.06	378462	keystroke_n	n	n/a
189.4565	0.1195	378913	keystroke_c	c	n/a
189.5315	0.075	379063	keystroke_e	e	n/a
189.6515	0.06	379303	keystroke_Key.space	Key.space	n/a
189.8755	0.12	379751	keystroke_b	b	n/a
189.9655	0.121	379931	keystroke_e	e	n/a
190.0565	0.105	380113	keystroke_r	r	n/a
190.1755	0.016	380351	keystroke_n	n	n/a
190.341	0.075	380682	keystroke_a	a	n/a
190.5665	0.044	381133	keystroke_r	r	n/a
190.701	0.0605	381402	keystroke_d	d	n/a
191.121	0.03	382242	keystroke_Key.space	Key.space	n/a
191.2565	0.0895	382513	keystroke_h	h	n/a
191.331	0.09	382662	keystroke_o	o	n/a
191.406	0.0905	382812	keystroke_u	u	n/a
191.541	0.075	383082	keystroke_s	s	n/a
191.691	0.09	383382	keystroke_e	e	n/a
191.796	0.06	383592	keystroke_Key.space	Key.space	n/a
192.741	0.0605	385482	keystroke_f	f	n/a
192.876	0.045	385752	keystroke_l	l	n/a
193.0265	0.0595	386053	keystroke_o	o	n/a
193.101	0.045	386202	keystroke_w	w	n/a
193.431	0.0445	386862	keystroke_e	e	n/a
193.445	0.106	386890	keystroke_r	r	n/a
194.061	0.06	388122	keystroke_Key.enter	Key.enter	n/a
194.1275	6.1005	388255	prompt	n/a	arlington replied wanna she'll\n
194.9305	0.09	389861	keystroke_a	a	n/a
195.0355	0.1055	390071	keystroke_l	l	n/a
195.3655	0.045	390731	keystroke_Key.backspace	Key.backspace	n/a
195.4865	0.074	390973	keystroke_r	r	n/a
195.5905	0.1355	391181	keystroke_l	l	n/a
195.6805	0.105	391361	keystroke_i	i	n/a
195.8015	0.074	391603	keystroke_g	g	n/a
195.9215	0.0295	391843	keystroke_b	b	n/a
196.3105	0.03	392621	keystroke_Key.backspace	Key.backspace	n/a
196.385	0.09	392770	keystroke_Key.backspace	Key.backspace	n/a
196.626	0.0455	393252	keystroke_n	n	n/a
196.701	0.075	393402	keystroke_g	g	n/a
196.8665	0.0885	393733	keystroke_t	t	n/a
196.941	0.0905	393882	keystroke_o	o	n/a
196.986	0.0595	393972	keystroke_n	n	n/a
197.195	0.0465	394390	keystroke_Key.space	Key.space	n/a
197.451	0.105	394902	keystroke_r	r	n/a
197.511	0.0745	395022	keystroke_e	e	n/a
197.616	0.1055	395232	keystroke_p	p	n/a
197.781	0.15	395562	keystroke_l	l	n/a
197.8715	0.104	395743	keystroke_i	i	n/a
197.991	0.105	395982	keystroke_e	e	n/a
198.0355	0.106	396071	keystroke_d	d	n/a
198.1255	0.06	396251	keystroke_Key.space	Key.space	n/a
198.3815	0.059	396763	keystroke_w	w	n/a
198.5165	0.074	397033	keystroke_a	a	n/a
198.7105	0.06	397421	keystroke_n	n	n/a
198.862	0.0445	397724	keystroke_n	n	n/a
198.9215	0.074	397843	keystroke_a	a	n/a
199.086	0.0445	398172	keystroke_Key.space	Key.space	n/a
199.221	0.0745	398442	keystroke_s	s	n/a
199.3415	0.045	398683	keystroke_h	h	n/a
199.4165	0.075	398833	keystroke_e	e	n/a
199.5815	0.059	399163	keystroke_'	'	n/a
199.8055	0.061	399611	keystroke_l	l	n/a
199.9265	0.089	399853	keystroke_l	l	n/a
200.1655	0.0605	400331	keystroke_Key.enter	Key.enter	n/a
200.232	10.7655	400464	prompt	n/a	complement mixture danish planes\n
200.9615	0.06	401923	keystroke_c	c	n/a
201.0065	0.12	402013	keystroke_o	o	n/a
201.0965	0.075	402193	keystroke_m	m	n/a
201.1115	0.224	402223	keystroke_p	p	n/a
201.726	0.09	403452	keystroke_l	l	n/a
201.8605	0.075	403721	keystroke_e	e	n/a
202.0405	0.045	404081	keystroke_m	m	n/a
202.1465	0.089	404293	keystroke_e	e	n/a
202.251	0.0745	404502	keystroke_n	n	n/a
202.3405	0.09	404681	keystroke_t	t	n/a
202.476	0.06	404952	keystroke_Key.space	Key.space	n/a
202.7005	0.046	405401	keystroke_m	m	n/a
202.8815	0.09	405763	keystroke_x	x	n/a
202.9565	0.0745	405913	keystroke_i	i	n/a
203.136	0.075	406272	keystroke_t	t	n/a
203.241	0.0455	406482	keystroke_u	u	n/a
203.481	0.03	406962	keystroke_r	r	n/a
203.4965	0.0295	406993	keystroke_e	e	n/a
203.541	0.015	407082	keystroke_Key.space	Key.space	n/a
203.616	0.105	407232	keystroke_d	d	n/a
203.736	0.0745	407472	keystroke_a	a	n/a
203.8405	0.1055	407681	keystroke_n	n	n/a
203.901	0.105	407802	keystroke_i	i	n/a
204.0505	0.075	408101	keystroke_s	s	n/a
204.141	0.0595	408282	keystroke_h	h	n/a
204.2455	0.0605	408491	keystroke_Key.space	Key.space	n/a
204.426	0.091	408852	keystroke_p	p	n/a
204.636	0.06	409272	keystroke_l	l	n/a
204.771	0.075	409542	keystroke_a	a	n/a
204.906	0.06	409812	keystroke_n	n	n/a
205.521	0.315	411042	keystroke_Key.backspace	Key.backspace	n/a
205.8505	0.015	411701	keystroke_Key.backspace	Key.backspace	n/a
205.9555	0.0305	411911	keystroke_Key.backspace	Key.backspace	n/a
206.076	0.045	412152	keystroke_Key.backspace	Key.backspace	n/a
206.2105	0.0455	412421	keystroke_Key.backspace	Key.backspace	n/a
206.346	0.045	412692	keystroke_Key.backspace	Key.backspace	n/a
206.466	0.045	412932	keystroke_Key.backspace	Key.backspace	n/a
206.601	0.045	413202	keystroke_Key.backspace	Key.backspace	n/a
206.721	0.0445	413442	keystroke_Key.backspace	Key.backspace	n/a
206.841	0.0745	413682	keystroke_Key.backspace	Key.backspace	n/a
206.9755	0.0755	413951	keystroke_Key.backspace	Key.backspace	n/a
207.111	0.075	414222	keystroke_Key.backspace	Key.backspace	n/a
207.2755	0.0455	414551	keystroke_Key.backspace	Key.backspace	n/a
207.3655	0.09	414731	keystroke_Key.backspace	Key.backspace	n/a
207.531	0.0745	415062	keystroke_Key.backspace	Key.backspace	n/a
207.6805	0.075	415361	keystroke_Key.backspace	Key.backspace	n/a
207.846	0.105	415692	keystroke_Key.backspace	Key.backspace	n/a
208.0255	0.0755	416051	keystroke_Key.backspace	Key.backspace	n/a
208.2515	0.06	416503	keystroke_i	i	n/a
208.3715	0.0895	416743	keystroke_x	x	n/a
208.581	0.06	417162	keystroke_t	t	n/a
208.611	0.06	417222	keystroke_u	u	n/a
208.746	0.271	417492	keystroke_r	r	n/a
208.806	0.24	417612	keystroke_e	e	n/a
209.061	0.015	418122	keystroke_Key.space	Key.space	n/a
209.091	0.059	418182	keystroke_d	d	n/a
209.226	0.0755	418452	keystroke_a	a	n/a
209.361	0.0755	418722	keystroke_n	n	n/a
209.406	0.0905	418812	keystroke_i	i	n/a
209.5415	0.0745	419083	keystroke_s	s	n/a
209.631	0.06	419262	keystroke_h	h	n/a
209.705	0.061	419410	keystroke_Key.space	Key.space	n/a
209.8715	0.059	419743	keystroke_p	p	n/a
210.0965	0.059	420193	keystroke_l	l	n/a
210.2005	0.0605	420401	keystroke_a	a	n/a
210.5165	0.0295	421033	keystroke_n	n	n/a
210.621	0.1055	421242	keystroke_e	e	n/a
210.8015	0.074	421603	keystroke_s	s	n/a
210.9355	0.06	421871	keystroke_Key.enter	Key.enter	n/a
211.0065	5.241	422013	prompt	n/a	perth dust labs wires\n
211.881	0.09	423762	keystroke_p	p	n/a
212.031	0.075	424062	keystroke_e	e	n/a
212.061	0.075	424122	keystroke_r	r	n/a
212.256	0.045	424512	keystroke_h	h	n/a
212.361	0.045	424722	keystroke_t	t	n/a
212.631	0.045	425262	keystroke_Key.backspace	Key.backspace	n/a
212.7355	0.0595	425471	keystroke_Key.backspace	Key.backspace	n/a
212.8415	0.045	425683	keystroke_t	t	n/a
212.9165	0.06	425833	keystroke_h	h	n/a
213.096	0.0595	426192	keystroke_Key.space	Key.space	n/a
213.2155	0.0445	426431	keystroke_d	d	n/a
213.3965	0.03	426793	keystroke_u	u	n/a
213.5155	0.165	427031	keystroke_s	s	n/a
213.6055	0.0605	427211	keystroke_t	t	n/a
213.966	0.045	427932	keystroke_Key.space	Key.space	n/a
214.551	0.06	429102	keystroke_l	l	n/a
214.671	0.075	429342	keystroke_a	a	n/a
214.791	0.075	429582	keystroke_b	b	n/a
215.2115	0.014	430423	keystroke_s	s	n/a
215.2705	0.045	430541	keystroke_Key.space	Key.space	n/a
215.4215	0.044	430843	keystroke_w	w	n/a
215.5855	0.0605	431171	keystroke_i	i	n/a
215.7665	0.059	431533	keystroke_r	r	n/a
215.8275	0.103	431655	keystroke_e	e	n/a
216.0665	0.045	432133	keystroke_s	s	n/a
216.186	0.0595	432372	keystroke_Key.enter	Key.enter	n/a
216.2515	5.891	432503	prompt	n/a	crossing likewise finite economics\n
217.116	0.06	434232	keystroke_c	c	n/a
217.296	0.0455	434592	keystroke_r	r	n/a
217.326	0.06	434652	keystroke_o	o	n/a
217.506	0.06	435012	keystroke_s	s	n/a
217.611	0.0905	435222	keystroke_s	s	n/a
217.7165	0.0895	435433	keystroke_i	i	n/a
217.761	0.06	435522	keystroke_n	n	n/a
217.835	0.061	435670	keystroke_g	g	n/a
217.941	0.074	435882	keystroke_Key.space	Key.space	n/a
218.2855	0.105	436571	keystroke_l	l	n/a
218.3455	0.105	436691	keystroke_i	i	n/a
218.5415	0.09	437083	keystroke_k	k	n/a
218.6465	0.075	437293	keystroke_e	e	n/a
218.8265	0.06	437653	keystroke_w	w	n/a
218.9165	0.059	437833	keystroke_i	i	n/a
219.0205	0.045	438041	keystroke_s	s	n/a
219.156	0.0295	438312	keystroke_e	e	n/a
219.291	0.0445	438582	keystroke_Key.space	Key.space	n/a
219.5305	0.045	439061	keystroke_f	f	n/a
219.6055	0.0755	439211	keystroke_i	i	n/a
219.696	0.06	439392	keystroke_n	n	n/a
219.7705	0.105	439541	keystroke_i	i	n/a
219.9205	0.06	439841	keystroke_s	s	n/a
220.3705	0.015	440741	keystroke_Key.backspace	Key.backspace	n/a
220.4155	0.0305	440831	keystroke_t	t	n/a
220.431	0.0455	440862	keystroke_e	e	n/a
220.5355	0.06	441071	keystroke_Key.space	Key.space	n/a
220.9415	0.03	441883	keystroke_e	e	n/a
221.0915	0.059	442183	keystroke_c	c	n/a
221.1655	0.1205	442331	keystroke_o	o	n/a
221.2865	0.074	442573	keystroke_n	n	n/a
221.3755	0.1355	442751	keystroke_o	o	n/a
221.5255	0.076	443051	keystroke_m	m	n/a
221.6455	0.075	443291	keystroke_i	i	n/a
221.7655	0.076	443531	keystroke_c	c	n/a
221.8115	0.0895	443623	keystroke_s	s	n/a
222.081	0.06	444162	keystroke_Key.enter	Key.enter	n/a
222.1465	7.286	444293	prompt	n/a	consumer inserted wrestling sharing\n
222.7415	0.0605	445483	keystroke_c	c	n/a
222.876	0.075	445752	keystroke_o	o	n/a
222.936	0.06	445872	keystroke_n	n	n/a
223.086	0.089	446172	keystroke_s	s	n/a
223.1015	0.0895	446203	keystroke_u	u	n/a
223.416	0.0455	446832	keystroke_m	m	n/a
223.6265	0.09	447253	keystroke_e	e	n/a
223.6865	0.075	447373	keystroke_r	r	n/a
223.806	0.0445	447612	keystroke_Key.space	Key.space	n/a
224.0155	0.0455	448031	keystroke_i	i	n/a
224.0465	0.0295	448093	keystroke_n	n	n/a
224.1365	0.149	448273	keystroke_s	s	n/a
224.242	0.0595	448484	keystroke_t	t	n/a
224.3455	0.105	448691	keystroke_e	e	n/a
224.4215	0.0895	448843	keystroke_r	r	n/a
225.276	0.045	450552	keystroke_Key.backspace	Key.backspace	n/a
225.546	0.06	451092	keystroke_Key.backspace	Key.backspace	n/a
225.696	0.045	451392	keystroke_Key.backspace	Key.backspace	n/a
225.9805	0.1205	451961	keystroke_e	e	n/a
226.0865	0.09	452173	keystroke_r	r	n/a
226.1775	0.044	452355	keystroke_t	t	n/a
226.3855	0.06	452771	keystroke_e	e	n/a
226.4155	0.106	452831	keystroke_d	d	n/a
226.566	0.0295	453132	keystroke_Key.space	Key.space	n/a
226.7905	0.1055	453581	keystroke_w	w	n/a
226.8805	0.046	453761	keystroke_r	r	n/a
227.676	0.045	455352	keystroke_e	e	n/a
227.826	0.135	455652	keystroke_s	s	n/a
227.9165	0.0595	455833	keystroke_t	t	n/a
228.141	0.1345	456282	keystroke_l	l	n/a
228.2155	0.12	456431	keystroke_i	i	n/a
228.2915	0.0745	456583	keystroke_n	n	n/a
228.3505	0.06	456701	keystroke_g	g	n/a
228.4855	0.0455	456971	keystroke_Key.space	Key.space	n/a
228.5915	0.09	457183	keystroke_s	s	n/a
228.7415	0.045	457483	keystroke_h	h	n/a
228.8305	0.076	457661	keystroke_a	a	n/a
228.8615	0.0745	457723	keystroke_r	r	n/a
228.9655	0.1055	457931	keystroke_i	i	n/a
229.0105	0.0755	458021	keystroke_n	n	n/a
229.1605	0.061	458321	keystroke_g	g	n/a
229.3855	0.045	458771	keystroke_Key.enter	Key.enter	n/a
229.4385	6.384	458877	prompt	n/a	static tool kilometers biol\n
230.1065	0.0895	460213	keystroke_s	s	n/a
230.166	0.075	460332	keystroke_t	t	n/a
230.301	0.0905	460602	keystroke_a	a	n/a
230.4055	0.061	460811	keystroke_t	t	n/a
230.6465	0.09	461293	keystroke_i	i	n/a
230.886	0.045	461772	keystroke_c	c	n/a
231.0655	0.015	462131	keystroke_Key.space	Key.space	n/a
231.2155	0.046	462431	keystroke_t	t	n/a
231.3205	0.0605	462641	keystroke_o	o	n/a
231.426	0.1055	462852	keystroke_o	o	n/a
231.621	0.075	463242	keystroke_l	l	n/a
231.6965	0.074	463393	keystroke_Key.space	Key.space	n/a
231.906	0.0895	463812	keystroke_k	k	n/a
232.101	0.0905	464202	keystroke_i	i	n/a
232.2815	0.119	464563	keystroke_l	l	n/a
232.5055	0.12	465011	keystroke_o	o	n/a
232.6865	0.045	465373	keystroke_m	m	n/a
233.1805	0.045	466361	keystroke_t	t	n/a
233.286	0.1345	466572	keystroke_e	e	n/a
233.3915	0.074	466783	keystroke_r	r	n/a
233.6155	0.03	467231	keystroke_Key.backspace	Key.backspace	n/a
233.7205	0.06	467441	keystroke_Key.backspace	Key.backspace	n/a
233.8255	0.075	467651	keystroke_Key.backspace	Key.backspace	n/a
233.886	0.105	467772	keystroke_e	e	n/a
233.9765	0.0745	467953	keystroke_t	t	n/a
234.0815	0.12	468163	keystroke_e	e	n/a
234.1565	0.18	468313	keystroke_r	r	n/a
234.2765	0.1345	468553	keystroke_s	s	n/a
234.47	0.046	468940	keystroke_Key.space	Key.space	n/a
235.056	0.089	470112	keystroke_b	b	n/a
235.191	0.1055	470382	keystroke_i	i	n/a
235.266	0.105	470532	keystroke_o	o	n/a
235.566	0.0155	471132	keystroke_l	l	n/a
235.746	0.075	471492	keystroke_Key.enter	Key.enter	n/a
235.827	7.2255	471654	prompt	n/a	optics membership blair integrating\n
236.5405	0.105	473081	keystroke_o	o	n/a
236.661	0.1045	473322	keystroke_p	p	n/a
236.8415	0.045	473683	keystroke_t	t	n/a
236.9315	0.0745	473863	keystroke_i	i	n/a
237.021	0.0745	474042	keystroke_c	c	n/a
237.081	0.09	474162	keystroke_s	s	n/a
237.2605	0.045	474521	keystroke_Key.space	Key.space	n/a
237.3965	0.075	474793	keystroke_m	m	n/a
237.531	0.09	475062	keystroke_e	e	n/a
237.636	0.0595	475272	keystroke_m	m	n/a
237.7405	0.061	475481	keystroke_b	b	n/a
237.831	0.0155	475662	keystroke_m	m	n/a
238.266	0.03	476532	keystroke_Key.backspace	Key.backspace	n/a
238.3415	0.0745	476683	keystroke_e	e	n/a
238.386	0.06	476772	keystroke_r	r	n/a
238.611	0.09	477222	keystroke_s	s	n/a
238.761	0.075	477522	keystroke_h	h	n/a
238.912	0.119	477824	keystroke_i	i	n/a
239.016	0.0895	478032	keystroke_p	p	n/a
239.1505	0.075	478301	keystroke_Key.space	Key.space	n/a
239.3765	0.059	478753	keystroke_m	m	n/a
239.5115	0.0455	479023	keystroke_b	b	n/a
239.6905	0.0305	479381	keystroke_Key.backspace	Key.backspace	n/a
239.796	0.0605	479592	keystroke_Key.backspace	Key.backspace	n/a
240.516	0.105	481032	keystroke_b	b	n/a
240.681	0.09	481362	keystroke_l	l	n/a
240.846	0.09	481692	keystroke_a	a	n/a
241.026	0.075	482052	keystroke_i	i	n/a
241.206	0.045	482412	keystroke_r	r	n/a
241.3405	0.045	482681	keystroke_Key.space	Key.space	n/a
241.461	0.1055	482922	keystroke_i	i	n/a
241.5355	0.06	483071	keystroke_n	n	n/a
241.6405	0.06	483281	keystroke_t	t	n/a
241.8955	0.03	483791	keystroke_e	e	n/a
241.9855	0.075	483971	keystroke_g	g	n/a
242.1805	0.061	484361	keystroke_r	r	n/a
242.2715	0.0895	484543	keystroke_a	a	n/a
242.3755	0.045	484751	keystroke_t	t	n/a
242.556	0.075	485112	keystroke_i	i	n/a
242.571	0.075	485142	keystroke_n	n	n/a
242.661	0.03	485322	keystroke_g	g	n/a
243.006	0.045	486012	keystroke_Key.enter	Key.enter	n/a
243.057	7.7955	486114	prompt	n/a	hamburg nurses zdnet delivers\n
243.7265	0.059	487453	keystroke_h	h	n/a
243.9665	0.0595	487933	keystroke_m	m	n/a
244.236	0.045	488472	keystroke_Key.backspace	Key.backspace	n/a
244.3265	0.1045	488653	keystroke_a	a	n/a
244.431	0.06	488862	keystroke_m	m	n/a
244.596	0.06	489192	keystroke_b	b	n/a
244.896	0.045	489792	keystroke_u	u	n/a
245.001	0.075	490002	keystroke_r	r	n/a
245.136	0.0755	490272	keystroke_g	g	n/a
245.406	0.045	490812	keystroke_Key.space	Key.space	n/a
246.291	0.06	492582	keystroke_n	n	n/a
246.411	0.09	492822	keystroke_u	u	n/a
246.546	0.075	493092	keystroke_r	r	n/a
246.7115	0.105	493423	keystroke_s	s	n/a
246.8755	0.076	493751	keystroke_e	e	n/a
247.0255	0.1055	494051	keystroke_s	s	n/a
247.176	0.0295	494352	keystroke_Key.space	Key.space	n/a
248.136	0.135	496272	keystroke_z	z	n/a
248.3755	0.0745	496751	keystroke_d	d	n/a
248.705	0.046	497410	keystroke_n	n	n/a
248.826	0.075	497652	keystroke_e	e	n/a
248.93	0.061	497860	keystroke_t	t	n/a
249.08	0.03	498160	keystroke_Key.space	Key.space	n/a
249.245	0.121	498490	keystroke_d	d	n/a
249.591	0.105	499182	keystroke_e	e	n/a
249.816	0.09	499632	keystroke_l	l	n/a
249.861	0.0755	499722	keystroke_i	i	n/a
249.966	0.135	499932	keystroke_v	v	n/a
250.026	0.105	500052	keystroke_e	e	n/a
250.101	0.15	500202	keystroke_r	r	n/a
250.2215	0.1195	500443	keystroke_s	s	n/a
250.7755	0.075	501551	keystroke_Key.enter	Key.enter	n/a
250.8695	6.643	501739	prompt	n/a	granted thumbs contrary containing\n
251.4525	0.073	502905	keystroke_g	g	n/a
251.6155	0.076	503231	keystroke_r	r	n/a
251.6765	0.045	503353	keystroke_a	a	n/a
251.7515	0.06	503503	keystroke_n	n	n/a
251.8565	0.075	503713	keystroke_t	t	n/a
251.9165	0.1495	503833	keystroke_e	e	n/a
252.0365	0.075	504073	keystroke_d	d	n/a
252.906	0.015	505812	keystroke_t	t	n/a
253.446	0.03	506892	keystroke_Key.backspace	Key.backspace	n/a
253.536	0.075	507072	keystroke_Key.space	Key.space	n/a
253.671	0.0605	507342	keystroke_t	t	n/a
253.761	0.06	507522	keystroke_h	h	n/a
253.896	0.0745	507792	keystroke_u	u	n/a
254.061	0.075	508122	keystroke_m	m	n/a
254.151	0.045	508302	keystroke_b	b	n/a
254.226	0.09	508452	keystroke_s	s	n/a
254.826	0.045	509652	keystroke_Key.space	Key.space	n/a
254.9765	0.0595	509953	keystroke_c	c	n/a
255.066	0.0895	510132	keystroke_o	o	n/a
255.1265	0.059	510253	keystroke_n	n	n/a
255.216	0.0595	510432	keystroke_t	t	n/a
255.3655	0.1055	510731	keystroke_r	r	n/a
255.4555	0.091	510911	keystroke_a	a	n/a
255.6515	0.059	511303	keystroke_r	r	n/a
255.8305	0.046	511661	keystroke_y	y	n/a
255.9055	0.061	511811	keystroke_Key.space	Key.space	n/a
256.2355	0.061	512471	keystroke_c	c	n/a
256.3255	0.09	512651	keystroke_o	o	n/a
256.386	0.045	512772	keystroke_n	n	n/a
256.5055	0.076	513011	keystroke_t	t	n/a
256.626	0.0755	513252	keystroke_a	a	n/a
256.806	0.0755	513612	keystroke_i	i	n/a
256.8505	0.075	513701	keystroke_n	n	n/a
256.9705	0.091	513941	keystroke_i	i	n/a
257.046	0.0595	514092	keystroke_n	n	n/a
257.121	0.0745	514242	keystroke_g	g	n/a
257.466	0.0445	514932	keystroke_Key.enter	Key.enter	n/a
257.517	6.5825	515034	prompt	n/a	exempt dead collectibles sherman\n
258.1865	0.06	516373	keystroke_e	e	n/a
258.351	0.1205	516702	keystroke_x	x	n/a
258.546	0.09	517092	keystroke_e	e	n/a
258.651	0.09	517302	keystroke_p	p	n/a
259.056	0.045	518112	keystroke_Key.backspace	Key.backspace	n/a
259.4015	0.06	518803	keystroke_m	m	n/a
259.4315	0.075	518863	keystroke_p	p	n/a
259.5505	0.045	519101	keystroke_t	t	n/a
259.7155	0.0455	519431	keystroke_Key.space	Key.space	n/a
259.7305	0.1805	519461	keystroke_d	d	n/a
259.881	0.165	519762	keystroke_e	e	n/a
260.031	0.12	520062	keystroke_a	a	n/a
260.166	0.09	520332	keystroke_d	d	n/a
260.6915	0.0445	521383	keystroke_Key.space	Key.space	n/a
260.8255	0.06	521651	keystroke_c	c	n/a
260.946	0.0605	521892	keystroke_o	o	n/a
261.1115	0.06	522223	keystroke_l	l	n/a
261.2305	0.091	522461	keystroke_l	l	n/a
261.336	0.105	522672	keystroke_e	e	n/a
261.3815	0.0745	522763	keystroke_c	c	n/a
261.6805	0.061	523361	keystroke_t	t	n/a
261.8615	0.045	523723	keystroke_i	i	n/a
261.9655	0.0755	523931	keystroke_b	b	n/a
262.0865	0.029	524173	keystroke_e	e	n/a
262.161	0.075	524322	keystroke_l	l	n/a
262.521	0.045	525042	keystroke_Key.backspace	Key.backspace	n/a
262.626	0.06	525252	keystroke_Key.backspace	Key.backspace	n/a
262.791	0.06	525582	keystroke_l	l	n/a
262.866	0.09	525732	keystroke_e	e	n/a
263.0305	0.0905	526061	keystroke_s	s	n/a
263.136	0.044	526272	keystroke_Key.space	Key.space	n/a
263.2265	0.0745	526453	keystroke_s	s	n/a
263.331	0.06	526662	keystroke_h	h	n/a
263.421	0.09	526842	keystroke_e	e	n/a
263.481	0.075	526962	keystroke_r	r	n/a
263.601	0.06	527202	keystroke_m	m	n/a
263.721	0.091	527442	keystroke_a	a	n/a
263.8255	0.03	527651	keystroke_n	n	n/a
264.0355	0.0605	528071	keystroke_Key.enter	Key.enter	n/a
264.1055	6.247	528211	prompt	n/a	stainless artists recruiting likelihood\n
264.7265	0.179	529453	keystroke_s	s	n/a
264.8915	0.0895	529783	keystroke_t	t	n/a
265.011	0.0745	530022	keystroke_a	a	n/a
265.2205	0.0915	530441	keystroke_i	i	n/a
265.2805	0.075	530561	keystroke_n	n	n/a
265.477	0.0585	530954	keystroke_l	l	n/a
265.671	0.0745	531342	keystroke_e	e	n/a
265.836	0.061	531672	keystroke_s	s	n/a
265.986	0.075	531972	keystroke_s	s	n/a
266.075	0.031	532150	keystroke_Key.space	Key.space	n/a
266.166	0.09	532332	keystroke_a	a	n/a
266.241	0.045	532482	keystroke_r	r	n/a
266.361	0.075	532722	keystroke_t	t	n/a
266.466	0.0605	532932	keystroke_i	i	n/a
266.541	0.1205	533082	keystroke_s	s	n/a
266.6625	0.074	533325	keystroke_t	t	n/a
266.7515	0.1045	533503	keystroke_s	s	n/a
266.946	0.0295	533892	keystroke_Key.space	Key.space	n/a
267.2005	0.06	534401	keystroke_r	r	n/a
267.2455	0.076	534491	keystroke_e	e	n/a
267.3805	0.076	534761	keystroke_c	c	n/a
267.5465	0.0595	535093	keystroke_r	r	n/a
267.6955	0.075	535391	keystroke_u	u	n/a
267.7855	0.076	535571	keystroke_i	i	n/a
267.8755	0.0605	535751	keystroke_t	t	n/a
267.981	0.1205	535962	keystroke_i	i	n/a
268.0405	0.075	536081	keystroke_n	n	n/a
268.161	0.0595	536322	keystroke_g	g	n/a
268.251	0.0595	536502	keystroke_Key.space	Key.space	n/a
268.431	0.0905	536862	keystroke_l	l	n/a
268.4915	0.09	536983	keystroke_i	i	n/a
268.6705	0.076	537341	keystroke_k	k	n/a
268.791	0.06	537582	keystroke_e	e	n/a
269.031	0.0605	538062	keystroke_l	l	n/a
269.376	0.06	538752	keystroke_i	i	n/a
269.72	0.016	539440	keystroke_h	h	n/a
269.781	0.0455	539562	keystroke_o	o	n/a
269.901	0.0755	539802	keystroke_o	o	n/a
270.0965	0.03	540193	keystroke_d	d	n/a
270.3055	0.045	540611	keystroke_Key.enter	Key.enter	n/a
270.356	11.9815	540712	prompt	n/a	entrepreneur freebsd occasion story\n
270.9365	0.06	541873	keystroke_e	e	n/a
271.1305	0.045	542261	keystroke_n	n	n/a
271.281	0.06	542562	keystroke_t	t	n/a
271.416	0.12	542832	keystroke_r	r	n/a
271.491	0.075	542982	keystroke_e	e	n/a
271.611	0.075	543222	keystroke_p	p	n/a
271.7465	0.1045	543493	keystroke_r	r	n/a
271.821	0.0745	543642	keystroke_e	e	n/a
272.5855	0.046	545171	keystroke_n	n	n/a
272.676	0.075	545352	keystroke_e	e	n/a
272.811	0.06	545622	keystroke_u	u	n/a
272.916	0.06	545832	keystroke_r	r	n/a
273.051	0.045	546102	keystroke_Key.space	Key.space	n/a
273.531	0.06	547062	keystroke_f	f	n/a
273.727	0.059	547454	keystroke_r	r	n/a
273.756	0.0605	547512	keystroke_e	e	n/a
273.9215	0.06	547843	keystroke_e	e	n/a
274.7015	0.09	549403	keystroke_b	b	n/a
275.0005	0.045	550001	keystroke_d	d	n/a
275.0605	0.076	550121	keystroke_d	d	n/a
275.661	0.075	551322	keystroke_Key.backspace	Key.backspace	n/a
275.751	0.0295	551502	keystroke_d	d	n/a
276.306	0.06	552612	keystroke_Key.backspace	Key.backspace	n/a
276.396	0.045	552792	keystroke_d	d	n/a
276.411	0.06	552822	keystroke_s	s	n/a
276.981	0.0605	553962	keystroke_Key.backspace	Key.backspace	n/a
277.0705	0.075	554141	keystroke_Key.backspace	Key.backspace	n/a
277.1615	0.075	554323	keystroke_s	s	n/a
277.1765	0.105	554353	keystroke_d	d	n/a
277.6415	0.044	555283	keystroke_Key.space	Key.space	n/a
277.8505	0.076	555701	keystroke_o	o	n/a
277.9415	0.1495	555883	keystroke_c	c	n/a
278.2115	0.044	556423	keystroke_a	a	n/a
278.721	0.015	557442	keystroke_Key.backspace	Key.backspace	n/a
278.9005	0.091	557801	keystroke_c	c	n/a
279.0515	0.03	558103	keystroke_a	a	n/a
279.2305	0.0605	558461	keystroke_a	a	n/a
279.636	0.0445	559272	keystroke_Key.backspace	Key.backspace	n/a
279.7115	0.119	559423	keystroke_s	s	n/a
279.7855	0.091	559571	keystroke_t	t	n/a
279.8915	0.06	559783	keystroke_i	i	n/a
279.9065	0.059	559813	keystroke_o	o	n/a
279.922	0.059	559844	keystroke_n	n	n/a
280.056	0.06	560112	keystroke_Key.space	Key.space	n/a
280.416	0.045	560832	keystroke_Key.backspace	Key.backspace	n/a
280.551	0.045	561102	keystroke_Key.backspace	Key.backspace	n/a
280.6855	0.0605	561371	keystroke_Key.backspace	Key.backspace	n/a
280.821	0.045	561642	keystroke_Key.backspace	Key.backspace	n/a
280.941	0.075	561882	keystroke_Key.backspace	Key.backspace	n/a
281.361	0.06	562722	keystroke_i	i	n/a
281.376	0.0755	562752	keystroke_o	o	n/a
281.3915	0.0745	562783	keystroke_n	n	n/a
281.4365	0.0745	562873	keystroke_Key.space	Key.space	n/a
281.692	0.119	563384	keystroke_s	s	n/a
281.7665	0.0605	563533	keystroke_t	t	n/a
281.828	0.073	563656	keystroke_o	o	n/a
281.9165	0.0895	563833	keystroke_r	r	n/a
282.051	0.0455	564102	keystroke_y	y	n/a
282.291	0.0445	564582	keystroke_Key.enter	Key.enter	n/a
282.3425	4.33	564685	prompt	n/a	earl remains outlets heavy\n
283.0415	0.105	566083	keystroke_e	e	n/a
283.1315	0.104	566263	keystroke_a	a	n/a
283.2215	0.059	566443	keystroke_r	r	n/a
283.3265	0.0745	566653	keystroke_l	l	n/a
283.611	0.045	567222	keystroke_Key.space	Key.space	n/a
283.806	0.06	567612	keystroke_r	r	n/a
283.836	0.09	567672	keystroke_e	e	n/a
284.0005	0.0605	568001	keystroke_m	m	n/a
284.166	0.0745	568332	keystroke_a	a	n/a
284.3155	0.09	568631	keystroke_i	i	n/a
284.361	0.06	568722	keystroke_n	n	n/a
284.4955	0.105	568991	keystroke_s	s	n/a
284.616	0.0445	569232	keystroke_Key.space	Key.space	n/a
284.7965	0.075	569593	keystroke_o	o	n/a
284.8425	0.044	569685	keystroke_u	u	n/a
284.9765	0.03	569953	keystroke_t	t	n/a
285.2015	0.059	570403	keystroke_l	l	n/a
285.4405	0.1205	570881	keystroke_e	e	n/a
285.576	0.0455	571152	keystroke_t	t	n/a
285.6805	0.09	571361	keystroke_s	s	n/a
285.861	0.0145	571722	keystroke_Key.space	Key.space	n/a
286.056	0.045	572112	keystroke_h	h	n/a
286.086	0.1205	572172	keystroke_e	e	n/a
286.161	0.1655	572322	keystroke_a	a	n/a
286.281	0.075	572562	keystroke_v	v	n/a
286.401	0.045	572802	keystroke_y	y	n/a
286.626	0.045	573252	keystroke_Key.enter	Key.enter	n/a
286.689	6.8545	573378	prompt	n/a	we'll border remedy infrared\n
287.3165	0.0595	574633	keystroke_w	w	n/a
287.4955	0.0605	574991	keystroke_e	e	n/a
287.9755	0.045	575951	keystroke_'	'	n/a
288.2475	0.209	576495	keystroke_l	l	n/a
288.6065	0.089	577213	keystroke_l	l	n/a
289.1605	0.0145	578321	keystroke_Key.space	Key.space	n/a
289.2215	0.0595	578443	keystroke_b	b	n/a
289.296	0.0605	578592	keystroke_o	o	n/a
289.476	0.074	578952	keystroke_r	r	n/a
289.6865	0.075	579373	keystroke_d	d	n/a
289.9115	0.0895	579823	keystroke_e	e	n/a
289.971	0.075	579942	keystroke_r	r	n/a
290.106	0.015	580212	keystroke_Key.space	Key.space	n/a
290.586	0.1205	581172	keystroke_r	r	n/a
290.676	0.075	581352	keystroke_e	e	n/a
290.7965	0.0595	581593	keystroke_m	m	n/a
290.901	0.1055	581802	keystroke_e	e	n/a
291.0955	0.06	582191	keystroke_d	d	n/a
291.246	0.03	582492	keystroke_y	y	n/a
291.7705	0.2405	583541	keystroke_Key.space	Key.space	n/a
292.0265	0.03	584053	keystroke_i	i	n/a
292.042	0.0295	584084	keystroke_n	n	n/a
292.1465	0.074	584293	keystroke_f	f	n/a
292.281	0.1055	584562	keystroke_r	r	n/a
292.3865	0.0445	584773	keystroke_a	a	n/a
293.0005	0.0905	586001	keystroke_r	r	n/a
293.106	0.09	586212	keystroke_e	e	n/a
293.2875	0.103	586575	keystroke_d	d	n/a
293.4805	0.0605	586961	keystroke_Key.enter	Key.enter	n/a
293.5475	6.595	587095	prompt	n/a	it's principles stuffed insights\n
294.41	0.0615	588820	keystroke_i	i	n/a
294.6355	0.06	589271	keystroke_t	t	n/a
294.7555	0.06	589511	keystroke_'	'	n/a
294.8615	0.074	589723	keystroke_s	s	n/a
295.011	0.045	590022	keystroke_Key.space	Key.space	n/a
295.161	0.0755	590322	keystroke_p	p	n/a
295.296	0.0905	590592	keystroke_r	r	n/a
295.4165	0.1045	590833	keystroke_i	i	n/a
295.4765	0.0745	590953	keystroke_n	n	n/a
295.6565	0.075	591313	keystroke_s	s	n/a
295.956	0.0595	591912	keystroke_Key.backspace	Key.backspace	n/a
296.0315	0.09	592063	keystroke_c	c	n/a
296.1365	0.09	592273	keystroke_i	i	n/a
296.2415	0.089	592483	keystroke_p	p	n/a
296.4365	0.09	592873	keystroke_l	l	n/a
296.5865	0.105	593173	keystroke_e	e	n/a
296.7515	0.09	593503	keystroke_s	s	n/a
296.8565	0.0595	593713	keystroke_Key.space	Key.space	n/a
296.9315	0.1795	593863	keystroke_s	s	n/a
297.0815	0.0745	594163	keystroke_u	u	n/a
297.0815	0.09	594163	keystroke_t	t	n/a
297.276	0.06	594552	keystroke_f	f	n/a
297.441	0.075	594882	keystroke_f	f	n/a
297.666	0.105	595332	keystroke_e	e	n/a
297.771	0.12	595542	keystroke_d	d	n/a
297.846	0.0455	595692	keystroke_Key.space	Key.space	n/a
298.0265	0.1045	596053	keystroke_i	i	n/a
298.071	0.075	596142	keystroke_n	n	n/a
298.1615	0.1195	596323	keystroke_s	s	n/a
298.4315	0.075	596863	keystroke_g	g	n/a
298.5815	0.059	597163	keystroke_t	t	n/a
298.6105	0.061	597221	keystroke_h	h	n/a
299.0005	0.045	598001	keystroke_Key.backspace	Key.backspace	n/a
299.1065	0.075	598213	keystroke_Key.backspace	Key.backspace	n/a
299.2555	0.075	598511	keystroke_Key.backspace	Key.backspace	n/a
299.481	0.0595	598962	keystroke_i	i	n/a
299.5715	0.059	599143	keystroke_g	g	n/a
299.661	0.0595	599322	keystroke_h	h	n/a
299.7215	0.0895	599443	keystroke_t	t	n/a
299.7955	0.121	599591	keystroke_s	s	n/a
300.081	0.06	600162	keystroke_Key.enter	Key.enter	n/a
300.1465	4.541	600293	prompt	n/a	foundation truck blocked wales\n
300.8165	0.045	601633	keystroke_f	f	n/a
300.8915	0.0895	601783	keystroke_o	o	n/a
300.9365	0.0595	601873	keystroke_u	u	n/a
301.0855	0.0595	602171	keystroke_n	n	n/a
301.1305	0.1055	602261	keystroke_d	d	n/a
301.221	0.105	602442	keystroke_a	a	n/a
301.296	0.075	602592	keystroke_t	t	n/a
301.386	0.09	602772	keystroke_i	i	n/a
301.431	0.075	602862	keystroke_o	o	n/a
301.446	0.0455	602892	keystroke_n	n	n/a
301.641	0.06	603282	keystroke_Key.space	Key.space	n/a
301.806	0.0595	603612	keystroke_t	t	n/a
301.9565	0.0445	603913	keystroke_r	r	n/a
302.031	0.06	604062	keystroke_u	u	n/a
302.1365	0.0595	604273	keystroke_c	c	n/a
302.211	0.09	604422	keystroke_k	k	n/a
302.331	0.075	604662	keystroke_Key.space	Key.space	n/a
302.541	0.015	605082	keystroke_b	b	n/a
302.601	0.06	605202	keystroke_l	l	n/a
302.781	0.045	605562	keystroke_o	o	n/a
302.901	0.075	605802	keystroke_c	c	n/a
302.991	0.06	605982	keystroke_k	k	n/a
303.111	0.06	606222	keystroke_e	e	n/a
303.3205	0.06	606641	keystroke_d	d	n/a
303.4705	0.061	606941	keystroke_Key.space	Key.space	n/a
303.6205	0.076	607241	keystroke_w	w	n/a
303.9215	0.045	607843	keystroke_a	a	n/a
304.206	0.06	608412	keystroke_l	l	n/a
304.311	0.09	608622	keystroke_e	e	n/a
304.446	0.09	608892	keystroke_s	s	n/a
304.611	0.075	609222	keystroke_Key.enter	Key.enter	n/a
304.6915	7.016	609383	prompt	n/a	whom'st cliff wilson billion\n
305.4365	0.075	610873	keystroke_w	w	n/a
305.5855	0.061	611171	keystroke_h	h	n/a
305.6305	0.09	611261	keystroke_o	o	n/a
305.751	0.09	611502	keystroke_m	m	n/a
306.096	0.045	612192	keystroke_'	'	n/a
306.186	0.104	612372	keystroke_s	s	n/a
306.336	0.045	612672	keystroke_t	t	n/a
306.471	0.06	612942	keystroke_Key.space	Key.space	n/a
306.816	0.0745	613632	keystroke_c	c	n/a
306.921	0.1195	613842	keystroke_l	l	n/a
306.9955	0.09	613991	keystroke_i	i	n/a
307.176	0.045	614352	keystroke_f	f	n/a
307.296	0.075	614592	keystroke_f	f	n/a
307.431	0.06	614862	keystroke_Key.space	Key.space	n/a
307.581	0.06	615162	keystroke_w	w	n/a
307.656	0.06	615312	keystroke_i	i	n/a
307.821	0.061	615642	keystroke_l	l	n/a
307.911	0.075	615822	keystroke_s	s	n/a
308.1955	0.045	616391	keystroke_Key.backspace	Key.backspace	n/a
308.3005	0.075	616601	keystroke_Key.backspace	Key.backspace	n/a
309.1105	0.075	618221	keystroke_l	l	n/a
309.2305	0.1055	618461	keystroke_s	s	n/a
309.351	0.12	618702	keystroke_o	o	n/a
309.411	0.076	618822	keystroke_n	n	n/a
309.516	0.09	619032	keystroke_Key.space	Key.space	n/a
309.711	0.0445	619422	keystroke_b	b	n/a
309.7865	0.045	619573	keystroke_i	i	n/a
309.9515	0.06	619903	keystroke_l	l	n/a
310.086	0.09	620172	keystroke_l	l	n/a
310.266	0.12	620532	keystroke_o	o	n/a
310.371	0.06	620742	keystroke_i	i	n/a
310.671	0.03	621342	keystroke_Key.backspace	Key.backspace	n/a
310.791	0.045	621582	keystroke_Key.backspace	Key.backspace	n/a
310.986	0.105	621972	keystroke_i	i	n/a
311.001	0.12	622002	keystroke_o	o	n/a
311.076	0.06	622152	keystroke_n	n	n/a
311.646	0.06	623292	keystroke_Key.enter	Key.enter	n/a
311.7115	5.202	623423	prompt	n/a	discover visual allocation bible\n
312.3065	0.09	624613	keystroke_d	d	n/a
312.411	0.075	624822	keystroke_i	i	n/a
312.516	0.105	625032	keystroke_s	s	n/a
312.6065	0.0595	625213	keystroke_c	c	n/a
312.681	0.0895	625362	keystroke_o	o	n/a
312.8155	0.0605	625631	keystroke_e	e	n/a
313.416	0.045	626832	keystroke_Key.backspace	Key.backspace	n/a
313.506	0.15	627012	keystroke_v	v	n/a
313.566	0.104	627132	keystroke_e	e	n/a
313.656	0.0605	627312	keystroke_r	r	n/a
313.76	0.045	627520	keystroke_Key.space	Key.space	n/a
314.0305	0.09	628061	keystroke_v	v	n/a
314.0755	0.06	628151	keystroke_i	i	n/a
314.2705	0.061	628541	keystroke_s	s	n/a
314.4205	0.031	628841	keystroke_u	u	n/a
314.526	0.0595	629052	keystroke_a	a	n/a
314.646	0.06	629292	keystroke_l	l	n/a
314.751	0.0605	629502	keystroke_Key.space	Key.space	n/a
314.961	0.0755	629922	keystroke_a	a	n/a
315.051	0.0605	630102	keystroke_l	l	n/a
315.1865	0.0585	630373	keystroke_l	l	n/a
315.336	0.06	630672	keystroke_o	o	n/a
315.4115	0.09	630823	keystroke_c	c	n/a
315.486	0.105	630972	keystroke_a	a	n/a
315.576	0.0745	631152	keystroke_t	t	n/a
315.621	0.104	631242	keystroke_i	i	n/a
315.652	0.104	631304	keystroke_o	o	n/a
315.6965	0.075	631393	keystroke_n	n	n/a
315.815	0.0455	631630	keystroke_Key.space	Key.space	n/a
316.0265	0.059	632053	keystroke_b	b	n/a
316.1005	0.06	632201	keystroke_i	i	n/a
316.2665	0.045	632533	keystroke_b	b	n/a
316.3265	0.06	632653	keystroke_l	l	n/a
316.477	0.0595	632954	keystroke_e	e	n/a
316.851	0.0595	633702	keystroke_Key.enter	Key.enter	n/a
316.918	5.4695	633836	prompt	n/a	mounted disagree camera teams\n
317.5415	0.045	635083	keystroke_m	m	n/a
317.6315	0.075	635263	keystroke_o	o	n/a
317.721	0.029	635442	keystroke_u	u	n/a
317.871	0.045	635742	keystroke_n	n	n/a
317.976	0.105	635952	keystroke_t	t	n/a
318.0965	0.1645	636193	keystroke_e	e	n/a
318.216	0.09	636432	keystroke_d	d	n/a
318.351	0.045	636702	keystroke_Key.space	Key.space	n/a
318.531	0.06	637062	keystroke_d	d	n/a
318.5765	0.0595	637153	keystroke_i	i	n/a
318.726	0.045	637452	keystroke_s	s	n/a
318.876	0.06	637752	keystroke_a	a	n/a
319.101	0.0455	638202	keystroke_g	g	n/a
319.281	0.075	638562	keystroke_r	r	n/a
319.3265	0.0445	638653	keystroke_e	e	n/a
319.476	0.06	638952	keystroke_e	e	n/a
319.626	0.0445	639252	keystroke_Key.space	Key.space	n/a
319.7455	0.0755	639491	keystroke_c	c	n/a
319.8215	0.075	639643	keystroke_a	a	n/a
319.9415	0.06	639883	keystroke_m	m	n/a
320.0765	0.0605	640153	keystroke_e	e	n/a
320.661	0.1045	641322	keystroke_a	a	n/a
320.9905	0.0455	641981	keystroke_Key.backspace	Key.backspace	n/a
321.0815	0.0445	642163	keystroke_r	r	n/a
321.1405	0.046	642281	keystroke_a	a	n/a
321.2905	0.045	642581	keystroke_Key.space	Key.space	n/a
321.561	0.0905	643122	keystroke_t	t	n/a
321.591	0.1495	643182	keystroke_e	e	n/a
321.6955	0.0755	643391	keystroke_a	a	n/a
321.8605	0.045	643721	keystroke_m	m	n/a
321.9665	0.075	643933	keystroke_s	s	n/a
322.326	0.06	644652	keystroke_Key.enter	Key.enter	n/a
322.393	5.9645	644786	prompt	n/a	lambda utils organizing advisory\n
323.016	0.0755	646032	keystroke_l	l	n/a
323.151	0.1205	646302	keystroke_a	a	n/a
323.241	0.045	646482	keystroke_m	m	n/a
323.406	0.06	646812	keystroke_b	b	n/a
323.631	0.075	647262	keystroke_d	d	n/a
323.856	0.09	647712	keystroke_a	a	n/a
324.126	0.03	648252	keystroke_Key.space	Key.space	n/a
324.3355	0.0455	648671	keystroke_u	u	n/a
324.561	0.045	649122	keystroke_t	t	n/a
324.6365	0.074	649273	keystroke_i	i	n/a
324.726	0.1205	649452	keystroke_l	l	n/a
325.0115	0.075	650023	keystroke_s	s	n/a
325.1155	0.045	650231	keystroke_Key.space	Key.space	n/a
325.3115	0.075	650623	keystroke_o	o	n/a
325.4465	0.045	650893	keystroke_r	r	n/a
325.566	0.0755	651132	keystroke_g	g	n/a
325.656	0.045	651312	keystroke_a	a	n/a
325.7315	0.074	651463	keystroke_n	n	n/a
325.7915	0.0595	651583	keystroke_i	i	n/a
325.8655	0.1365	651731	keystroke_z	z	n/a
325.9565	0.0895	651913	keystroke_e	e	n/a
326.451	0.045	652902	keystroke_Key.backspace	Key.backspace	n/a
326.632	0.089	653264	keystroke_i	i	n/a
326.6915	0.0445	653383	keystroke_n	n	n/a
326.7505	0.046	653501	keystroke_g	g	n/a
326.8705	0.045	653741	keystroke_Key.space	Key.space	n/a
327.0665	0.134	654133	keystroke_a	a	n/a
327.1865	0.1205	654373	keystroke_d	d	n/a
327.3505	0.076	654701	keystroke_v	v	n/a
327.4275	0.044	654855	keystroke_i	i	n/a
327.6665	0.105	655333	keystroke_s	s	n/a
327.7855	0.09	655571	keystroke_o	o	n/a
327.9365	0.075	655873	keystroke_r	r	n/a
328.0415	0.0445	656083	keystroke_y	y	n/a
328.296	0.06	656592	keystroke_Key.enter	Key.enter	n/a
328.362	6.2805	656724	prompt	n/a	thermal trip threads framing\n
328.986	0.06	657972	keystroke_t	t	n/a
329.0905	0.0455	658181	keystroke_h	h	n/a
329.166	0.0905	658332	keystroke_e	e	n/a
329.1805	0.1355	658361	keystroke_r	r	n/a
329.331	0.075	658662	keystroke_m	m	n/a
329.451	0.075	658902	keystroke_a	a	n/a
329.586	0.06	659172	keystroke_l	l	n/a
329.721	0.075	659442	keystroke_Key.space	Key.space	n/a
330.08	0.151	660160	keystroke_r	r	n/a
330.59	0.015	661180	keystroke_Key.backspace	Key.backspace	n/a
330.621	0.045	661242	keystroke_t	t	n/a
330.7105	0.1655	661421	keystroke_r	r	n/a
330.8905	0.061	661781	keystroke_i	i	n/a
331.056	0.0605	662112	keystroke_p	p	n/a
331.6265	0.074	663253	keystroke_Key.space	Key.space	n/a
331.7765	0.045	663553	keystroke_t	t	n/a
331.8665	0.045	663733	keystroke_h	h	n/a
332.391	0.15	664782	keystroke_e	e	n/a
332.481	0.135	664962	keystroke_a	a	n/a
332.781	0.045	665562	keystroke_Key.backspace	Key.backspace	n/a
332.886	0.09	665772	keystroke_Key.backspace	Key.backspace	n/a
332.991	0.12	665982	keystroke_r	r	n/a
333.051	0.09	666102	keystroke_e	e	n/a
333.1265	0.1495	666253	keystroke_a	a	n/a
333.2315	0.1495	666463	keystroke_d	d	n/a
333.366	0.105	666732	keystroke_s	s	n/a
333.546	0.06	667092	keystroke_Key.space	Key.space	n/a
333.681	0.09	667362	keystroke_f	f	n/a
333.816	0.105	667632	keystroke_r	r	n/a
333.891	0.075	667782	keystroke_a	a	n/a
334.0265	0.075	668053	keystroke_m	m	n/a
334.1615	0.09	668323	keystroke_i	i	n/a
334.2215	0.074	668443	keystroke_n	n	n/a
334.3255	0.045	668651	keystroke_g	g	n/a
334.5955	0.0455	669191	keystroke_Key.enter	Key.enter	n/a
334.648	9.7895	669296	prompt	n/a	department entire textiles jpeg\n
335.271	0.09	670542	keystroke_d	d	n/a
335.376	0.075	670752	keystroke_e	e	n/a
335.511	0.0755	671022	keystroke_p	p	n/a
335.646	0.09	671292	keystroke_a	a	n/a
335.721	0.0605	671442	keystroke_r	r	n/a
335.841	0.0305	671682	keystroke_a	a	n/a
335.886	0.06	671772	keystroke_t	t	n/a
336.051	0.015	672102	keystroke_m	m	n/a
336.291	0.045	672582	keystroke_Key.backspace	Key.backspace	n/a
336.395	0.075	672790	keystroke_Key.backspace	Key.backspace	n/a
336.531	0.075	673062	keystroke_Key.backspace	Key.backspace	n/a
336.6665	0.059	673333	keystroke_t	t	n/a
336.7565	0.06	673513	keystroke_m	m	n/a
336.8615	0.074	673723	keystroke_e	e	n/a
336.9515	0.045	673903	keystroke_n	n	n/a
337.041	0.0595	674082	keystroke_t	t	n/a
337.1305	0.045	674261	keystroke_Key.space	Key.space	n/a
337.8965	0.06	675793	keystroke_e	e	n/a
338.001	0.0745	676002	keystroke_n	n	n/a
338.121	0.0905	676242	keystroke_t	t	n/a
338.2115	0.0745	676423	keystroke_e	e	n/a
338.2565	0.059	676513	keystroke_i	i	n/a
338.331	0.045	676662	keystroke_r	r	n/a
338.6605	0.06	677321	keystroke_Key.backspace	Key.backspace	n/a
338.7805	0.0755	677561	keystroke_Key.backspace	Key.backspace	n/a
338.931	0.105	677862	keystroke_Key.backspace	Key.backspace	n/a
339.187	0.059	678374	keystroke_i	i	n/a
339.306	0.0755	678612	keystroke_r	r	n/a
339.3515	0.06	678703	keystroke_e	e	n/a
339.4265	0.044	678853	keystroke_Key.space	Key.space	n/a
339.5915	0.0595	679183	keystroke_t	t	n/a
339.606	0.03	679212	keystroke_r	r	n/a
340.176	0.014	680352	keystroke_Key.backspace	Key.backspace	n/a
340.296	0.06	680592	keystroke_e	e	n/a
341.0605	0.135	682121	keystroke_x	x	n/a
341.3005	0.0605	682601	keystroke_t	t	n/a
341.4215	0.09	682843	keystroke_i	i	n/a
341.5255	0.09	683051	keystroke_l	l	n/a
341.6305	0.09	683261	keystroke_e	e	n/a
341.7815	0.089	683563	keystroke_s	s	n/a
341.9155	0.045	683831	keystroke_Key.space	Key.space	n/a
342.2165	0.044	684433	keystroke_j	j	n/a
342.3655	0.046	684731	keystroke_e	e	n/a
342.441	0.0905	684882	keystroke_p	p	n/a
342.9655	0.0155	685931	keystroke_Key.backspace	Key.backspace	n/a
343.041	0.0745	686082	keystroke_Key.backspace	Key.backspace	n/a
343.2515	0.075	686503	keystroke_p	p	n/a
343.686	0.0755	687372	keystroke_e	e	n/a
344.121	0.059	688242	keystroke_g	g	n/a
344.376	0.059	688752	keystroke_Key.enter	Key.enter	n/a
344.4485	7.024	688897	prompt	n/a	demonstrate travelling herself spatial\n
345.0365	0.1345	690073	keystroke_d	d	n/a
345.141	0.06	690282	keystroke_e	e	n/a
345.276	0.075	690552	keystroke_m	m	n/a
345.366	0.09	690732	keystroke_o	o	n/a
345.471	0.06	690942	keystroke_n	n	n/a
345.516	0.165	691032	keystroke_s	s	n/a
345.6665	0.0895	691333	keystroke_t	t	n/a
345.831	0.105	691662	keystroke_r	r	n/a
345.876	0.135	691752	keystroke_a	a	n/a
345.981	0.105	691962	keystroke_t	t	n/a
346.1315	0.0895	692263	keystroke_e	e	n/a
346.311	0.03	692622	keystroke_Key.space	Key.space	n/a
346.5515	0.0745	693103	keystroke_t	t	n/a
346.671	0.105	693342	keystroke_r	r	n/a
346.761	0.09	693522	keystroke_a	a	n/a
346.911	0.0905	693822	keystroke_v	v	n/a
346.9865	0.075	693973	keystroke_e	e	n/a
347.196	0.135	694392	keystroke_l	l	n/a
347.301	0.12	694602	keystroke_i	i	n/a
347.676	0.045	695352	keystroke_Key.backspace	Key.backspace	n/a
347.8565	0.15	695713	keystroke_l	l	n/a
347.9315	0.105	695863	keystroke_i	i	n/a
347.991	0.06	695982	keystroke_n	n	n/a
348.111	0.03	696222	keystroke_g	g	n/a
348.201	0.075	696402	keystroke_Key.space	Key.space	n/a
348.2915	0.0745	696583	keystroke_h	h	n/a
348.426	0.105	696852	keystroke_e	e	n/a
348.516	0.105	697032	keystroke_r	r	n/a
348.6065	0.119	697213	keystroke_s	s	n/a
348.771	0.105	697542	keystroke_e	e	n/a
348.9515	0.045	697903	keystroke_l	l	n/a
349.0265	0.075	698053	keystroke_v	v	n/a
349.2205	0.045	698441	keystroke_Key.space	Key.space	n/a
349.4615	0.0445	698923	keystroke_Key.backspace	Key.backspace	n/a
349.5665	0.0735	699133	keystroke_Key.backspace	Key.backspace	n/a
349.6265	0.0595	699253	keystroke_f	f	n/a
349.745	0.0465	699490	keystroke_Key.space	Key.space	n/a
350.0615	0.06	700123	keystroke_s	s	n/a
350.1515	0.09	700303	keystroke_p	p	n/a
350.2565	0.119	700513	keystroke_a	a	n/a
350.3605	0.045	700721	keystroke_c	c	n/a
350.7655	0.045	701531	keystroke_Key.backspace	Key.backspace	n/a
350.8565	0.0595	701713	keystroke_t	t	n/a
350.9465	0.059	701893	keystroke_i	i	n/a
351.0515	0.075	702103	keystroke_a	a	n/a
351.1565	0.0745	702313	keystroke_l	l	n/a
351.4115	0.059	702823	keystroke_Key.enter	Key.enter	n/a
351.477	8.7555	702954	prompt	n/a	perception verde stevens axis\n
352.1615	0.0445	704323	keystroke_p	p	n/a
352.221	0.075	704442	keystroke_e	e	n/a
352.281	0.06	704562	keystroke_r	r	n/a
352.461	0.075	704922	keystroke_c	c	n/a
352.537	0.089	705074	keystroke_e	e	n/a
352.791	0.075	705582	keystroke_p	p	n/a
352.941	0.0605	705882	keystroke_t	t	n/a
353.016	0.12	706032	keystroke_i	i	n/a
353.046	0.105	706092	keystroke_o	o	n/a
353.121	0.0605	706242	keystroke_n	n	n/a
353.346	0.06	706692	keystroke_Key.space	Key.space	n/a
353.6615	0.0895	707323	keystroke_v	v	n/a
354.066	0.1205	708132	keystroke_e	e	n/a
354.682	0.0295	709364	keystroke_r	r	n/a
354.9515	0.1345	709903	keystroke_d	d	n/a
355.1455	0.075	710291	keystroke_e	e	n/a
355.611	0.015	711222	keystroke_Key.space	Key.space	n/a
355.8065	0.165	711613	keystroke_s	s	n/a
355.926	0.075	711852	keystroke_t	t	n/a
356.046	0.1055	712092	keystroke_e	e	n/a
356.255	0.076	712510	keystroke_v	v	n/a
356.301	0.075	712602	keystroke_e	e	n/a
356.451	0.06	712902	keystroke_n	n	n/a
356.632	0.1335	713264	keystroke_s	s	n/a
356.796	0.06	713592	keystroke_Key.space	Key.space	n/a
357.021	0.1355	714042	keystroke_a	a	n/a
357.0815	0.12	714163	keystroke_s	s	n/a
357.425	0.0155	714850	keystroke_Key.backspace	Key.backspace	n/a
357.5315	0.105	715063	keystroke_x	x	n/a
357.7255	0.0445	715451	keystroke_i	i	n/a
357.846	0.09	715692	keystroke_s	s	n/a
360.202	0.029	720404	keystroke_Key.enter	Key.enter	n/a
360.2425	5.9745	720485	prompt	n/a	voltage owners harm galleries\n
361.3115	0.0595	722623	keystroke_v	v	n/a
361.431	0.0755	722862	keystroke_o	o	n/a
361.596	0.075	723192	keystroke_l	l	n/a
361.686	0.0905	723372	keystroke_c	c	n/a
361.791	0.075	723582	keystroke_a	a	n/a
361.867	0.074	723734	keystroke_t	t	n/a
362.106	0.03	724212	keystroke_Key.backspace	Key.backspace	n/a
362.196	0.06	724392	keystroke_Key.backspace	Key.backspace	n/a
362.316	0.074	724632	keystroke_Key.backspace	Key.backspace	n/a
362.4515	0.075	724903	keystroke_t	t	n/a
362.5415	0.149	725083	keystroke_a	a	n/a
362.6315	0.105	725263	keystroke_g	g	n/a
362.7065	0.105	725413	keystroke_e	e	n/a
362.8565	0.03	725713	keystroke_Key.space	Key.space	n/a
363.4705	0.045	726941	keystroke_o	o	n/a
363.5455	0.075	727091	keystroke_w	w	n/a
363.666	0.0605	727332	keystroke_n	n	n/a
363.8455	0.105	727691	keystroke_e	e	n/a
363.9055	0.1805	727811	keystroke_r	r	n/a
364.041	0.12	728082	keystroke_s	s	n/a
364.176	0.045	728352	keystroke_Key.space	Key.space	n/a
364.3415	0.045	728683	keystroke_h	h	n/a
364.401	0.105	728802	keystroke_a	a	n/a
364.4615	0.0745	728923	keystroke_r	r	n/a
364.5965	0.06	729193	keystroke_m	m	n/a
364.731	0.0755	729462	keystroke_Key.space	Key.space	n/a
365.0755	0.06	730151	keystroke_g	g	n/a
365.1805	0.1055	730361	keystroke_a	a	n/a
365.3605	0.0455	730721	keystroke_l	l	n/a
365.481	0.09	730962	keystroke_l	l	n/a
365.586	0.09	731172	keystroke_e	e	n/a
365.661	0.06	731322	keystroke_r	r	n/a
365.7355	0.0455	731471	keystroke_i	i	n/a
365.8255	0.09	731651	keystroke_e	e	n/a
365.991	0.075	731982	keystroke_s	s	n/a
366.141	0.075	732282	keystroke_Key.enter	Key.enter	n/a
366.2205	4.572	732441	prompt	n/a	technician roles amanda tire\n
367.0865	0.0595	734173	keystroke_t	t	n/a
367.1765	0.105	734353	keystroke_e	e	n/a
367.3265	0.104	734653	keystroke_c	c	n/a
367.461	0.0605	734922	keystroke_h	h	n/a
367.6115	0.1195	735223	keystroke_n	n	n/a
367.671	0.075	735342	keystroke_i	i	n/a
367.791	0.105	735582	keystroke_c	c	n/a
367.881	0.0755	735762	keystroke_i	i	n/a
368.016	0.06	736032	keystroke_a	a	n/a
368.256	0.06	736512	keystroke_n	n	n/a
368.406	0.06	736812	keystroke_Key.space	Key.space	n/a
368.5875	0.0585	737175	keystroke_r	r	n/a
368.691	0.0605	737382	keystroke_o	o	n/a
368.841	0.076	737682	keystroke_l	l	n/a
368.931	0.09	737862	keystroke_e	e	n/a
369.0815	0.0745	738163	keystroke_s	s	n/a
369.125	0.075	738250	keystroke_Key.space	Key.space	n/a
369.291	0.0605	738582	keystroke_a	a	n/a
369.411	0.045	738822	keystroke_m	m	n/a
369.5315	0.0745	739063	keystroke_a	a	n/a
369.621	0.045	739242	keystroke_n	n	n/a
369.741	0.0755	739482	keystroke_d	d	n/a
369.861	0.09	739722	keystroke_a	a	n/a
370.0705	0.0595	740141	keystroke_Key.space	Key.space	n/a
370.2965	0.0295	740593	keystroke_t	t	n/a
370.4765	0.0445	740953	keystroke_i	i	n/a
370.5665	0.074	741133	keystroke_r	r	n/a
370.6105	0.075	741221	keystroke_e	e	n/a
370.731	0.06	741462	keystroke_Key.enter	Key.enter	n/a
370.797	7.5855	741594	prompt	n/a	embedded oaks caught modify\n
371.391	0.09	742782	keystroke_e	e	n/a
371.526	0.0445	743052	keystroke_m	m	n/a
371.9755	0.075	743951	keystroke_b	b	n/a
372.2005	0.151	744401	keystroke_e	e	n/a
372.3355	0.045	744671	keystroke_d	d	n/a
372.4855	0.106	744971	keystroke_d	d	n/a
372.6515	0.089	745303	keystroke_e	e	n/a
372.7105	0.106	745421	keystroke_d	d	n/a
373.4615	0.0745	746923	keystroke_o	o	n/a
373.5955	0.091	747191	keystroke_a	a	n/a
373.7155	0.075	747431	keystroke_k	k	n/a
373.8515	0.045	747703	keystroke_d	d	n/a
373.9405	0.0755	747881	keystroke_s	s	n/a
374.4505	0.0455	748901	keystroke_Key.backspace	Key.backspace	n/a
374.571	0.0595	749142	keystroke_Key.backspace	Key.backspace	n/a
374.7055	0.075	749411	keystroke_Key.backspace	Key.backspace	n/a
374.8715	0.0445	749743	keystroke_Key.backspace	Key.backspace	n/a
375.2605	0.03	750521	keystroke_Key.backspace	Key.backspace	n/a
375.501	0.0595	751002	keystroke_Key.space	Key.space	n/a
375.6365	0.075	751273	keystroke_o	o	n/a
375.771	0.105	751542	keystroke_a	a	n/a
375.845	0.09	751690	keystroke_k	k	n/a
375.9515	0.1195	751903	keystroke_s	s	n/a
376.086	0.045	752172	keystroke_Key.space	Key.space	n/a
376.416	0.0745	752832	keystroke_c	c	n/a
376.4755	0.06	752951	keystroke_a	a	n/a
376.581	0.06	753162	keystroke_u	u	n/a
376.701	0.074	753402	keystroke_g	g	n/a
376.776	0.0595	753552	keystroke_h	h	n/a
376.866	0.075	753732	keystroke_t	t	n/a
376.955	0.061	753910	keystroke_Key.space	Key.space	n/a
377.166	0.06	754332	keystroke_m	m	n/a
377.256	0.0745	754512	keystroke_o	o	n/a
377.3615	0.0595	754723	keystroke_d	d	n/a
377.466	0.105	754932	keystroke_i	i	n/a
377.946	0.0755	755892	keystroke_f	f	n/a
378.0655	0.061	756131	keystroke_y	y	n/a
378.336	0.045	756672	keystroke_Key.enter	Key.enter	n/a
378.387	8.2155	756774	prompt	n/a	cycle enlargement printer resource\n
379.041	0.076	758082	keystroke_c	c	n/a
379.176	0.045	758352	keystroke_y	y	n/a
379.251	0.075	758502	keystroke_c	c	n/a
379.401	0.045	758802	keystroke_l	l	n/a
379.566	0.045	759132	keystroke_e	e	n/a
379.626	0.06	759252	keystroke_Key.space	Key.space	n/a
379.986	0.075	759972	keystroke_e	e	n/a
380.0455	0.0605	760091	keystroke_l	l	n/a
380.346	0.045	760692	keystroke_Key.backspace	Key.backspace	n/a
380.4665	0.0595	760933	keystroke_Key.backspace	Key.backspace	n/a
380.691	0.0895	761382	keystroke_e	e	n/a
381.1555	0.0455	762311	keystroke_n	n	n/a
381.3515	0.059	762703	keystroke_l	l	n/a
381.486	0.15	762972	keystroke_a	a	n/a
381.6065	0.0445	763213	keystroke_r	r	n/a
381.726	0.0905	763452	keystroke_g	g	n/a
381.8915	0.1045	763783	keystroke_e	e	n/a
382.101	0.0455	764202	keystroke_m	m	n/a
382.221	0.12	764442	keystroke_e	e	n/a
382.2965	0.0605	764593	keystroke_n	n	n/a
382.461	0.045	764922	keystroke_t	t	n/a
382.566	0.045	765132	keystroke_Key.space	Key.space	n/a
383.1065	0.075	766213	keystroke_p	p	n/a
383.2265	0.06	766453	keystroke_r	r	n/a
383.3165	0.12	766633	keystroke_i	i	n/a
383.3765	0.075	766753	keystroke_n	n	n/a
383.4955	0.076	766991	keystroke_t	t	n/a
383.5865	0.104	767173	keystroke_e	e	n/a
383.676	0.09	767352	keystroke_r	r	n/a
383.811	0.0605	767622	keystroke_Key.space	Key.space	n/a
384.0065	0.06	768013	keystroke_r	r	n/a
384.1565	0.06	768313	keystroke_o	o	n/a
384.1865	0.06	768373	keystroke_e	e	n/a
384.6205	0.045	769241	keystroke_Key.backspace	Key.backspace	n/a
384.7265	0.059	769453	keystroke_Key.backspace	Key.backspace	n/a
384.8015	0.045	769603	keystroke_e	e	n/a
385.0265	0.014	770053	keystroke_o	o	n/a
385.4465	0.06	770893	keystroke_Key.backspace	Key.backspace	n/a
385.596	0.0605	771192	keystroke_s	s	n/a
385.791	0.075	771582	keystroke_o	o	n/a
385.852	0.044	771704	keystroke_u	u	n/a
385.956	0.0455	771912	keystroke_r	r	n/a
386.091	0.075	772182	keystroke_c	c	n/a
386.1365	0.09	772273	keystroke_e	e	n/a
386.556	0.045	773112	keystroke_Key.enter	Key.enter	n/a
386.6145	6.093	773229	prompt	n/a	expedia insights lounge reunion\n
387.246	0.0605	774492	keystroke_e	e	n/a
387.3815	0.075	774763	keystroke_x	x	n/a
387.4115	0.075	774823	keystroke_p	p	n/a
387.5765	0.0895	775153	keystroke_e	e	n/a
387.7415	0.0595	775483	keystroke_i	i	n/a
387.771	0.0905	775542	keystroke_d	d	n/a
388.2205	0.0455	776441	keystroke_Key.backspace	Key.backspace	n/a
388.326	0.075	776652	keystroke_Key.backspace	Key.backspace	n/a
388.416	0.0755	776832	keystroke_d	d	n/a
388.477	0.0745	776954	keystroke_i	i	n/a
388.566	0.0595	777132	keystroke_a	a	n/a
388.6855	0.06	777371	keystroke_Key.space	Key.space	n/a
388.867	0.089	777734	keystroke_i	i	n/a
388.9255	0.061	777851	keystroke_n	n	n/a
389.0165	0.089	778033	keystroke_s	s	n/a
389.1365	0.075	778273	keystroke_i	i	n/a
389.2565	0.045	778513	keystroke_g	g	n/a
389.3165	0.06	778633	keystroke_h	h	n/a
389.3915	0.089	778783	keystroke_t	t	n/a
389.5855	0.075	779171	keystroke_s	s	n/a
389.931	0.0595	779862	keystroke_Key.space	Key.space	n/a
390.321	0.045	780642	keystroke_l	l	n/a
390.4715	0.09	780943	keystroke_o	o	n/a
390.5455	0.0765	781091	keystroke_u	u	n/a
390.966	0.045	781932	keystroke_n	n	n/a
391.087	0.0595	782174	keystroke_g	g	n/a
391.3715	0.105	782743	keystroke_e	e	n/a
391.5505	0.045	783101	keystroke_Key.space	Key.space	n/a
391.7015	0.075	783403	keystroke_r	r	n/a
391.7465	0.074	783493	keystroke_e	e	n/a
391.9405	0.0605	783881	keystroke_u	u	n/a
392.106	0.12	784212	keystroke_n	n	n/a
392.212	0.149	784424	keystroke_i	i	n/a
392.271	0.105	784542	keystroke_o	o	n/a
392.331	0.075	784662	keystroke_n	n	n/a
392.661	0.045	785322	keystroke_Key.enter	Key.enter	n/a
392.713	10.825	785426	prompt	n/a	retailer haiti betting certificates\n
393.366	0.075	786732	keystroke_r	r	n/a
393.411	0.075	786822	keystroke_e	e	n/a
393.591	0.09	787182	keystroke_t	t	n/a
393.696	0.105	787392	keystroke_a	a	n/a
393.9055	0.0605	787811	keystroke_i	i	n/a
394.1015	0.0895	788203	keystroke_l	l	n/a
394.206	0.1055	788412	keystroke_e	e	n/a
394.266	0.075	788532	keystroke_r	r	n/a
394.386	0.045	788772	keystroke_Key.space	Key.space	n/a
394.731	0.045	789462	keystroke_h	h	n/a
394.9115	0.09	789823	keystroke_a	a	n/a
395.0765	0.06	790153	keystroke_i	i	n/a
395.2265	0.0445	790453	keystroke_t	t	n/a
395.346	0.06	790692	keystroke_i	i	n/a
395.511	0.03	791022	keystroke_Key.space	Key.space	n/a
396.1405	0.09	792281	keystroke_b	b	n/a
396.2155	0.09	792431	keystroke_e	e	n/a
396.3655	0.0755	792731	keystroke_g	g	n/a
396.891	0.0445	793782	keystroke_Key.backspace	Key.backspace	n/a
397.0265	0.0145	794053	keystroke_t	t	n/a
397.116	0.0755	794232	keystroke_t	t	n/a
397.2665	0.09	794533	keystroke_i	i	n/a
397.312	0.0585	794624	keystroke_n	n	n/a
397.4015	0.06	794803	keystroke_g	g	n/a
397.4905	0.061	794981	keystroke_Key.space	Key.space	n/a
397.6265	0.135	795253	keystroke_c	c	n/a
397.731	0.105	795462	keystroke_e	e	n/a
397.8055	0.0755	795611	keystroke_r	r	n/a
397.941	0.0605	795882	keystroke_t	t	n/a
398.0605	0.06	796121	keystroke_i	i	n/a
398.1515	0.0745	796303	keystroke_f	f	n/a
398.211	0.0895	796422	keystroke_i	i	n/a
398.3015	0.209	796603	keystroke_c	c	n/a
398.4215	0.1055	796843	keystroke_a	a	n/a
398.5415	0.15	797083	keystroke_t	t	n/a
398.7515	0.4795	797503	keystroke_i	i	n/a
399.95	0.0605	799900	keystroke_Key.backspace	Key.backspace	n/a
400.0265	0.014	800053	keystroke_e	e	n/a
400.1015	0.045	800203	keystroke_s	s	n/a
400.266	0.15	800532	keystroke_Key.space	Key.space	n/a
401.196	0.195	802392	keystroke_Key.backspace	Key.backspace	n/a
401.406	0.015	802812	keystroke_Key.backspace	Key.backspace	n/a
401.481	0.015	802962	keystroke_Key.backspace	Key.backspace	n/a
401.555	0.0755	803110	keystroke_Key.backspace	Key.backspace	n/a
401.706	0.06	803412	keystroke_Key.backspace	Key.backspace	n/a
401.811	0.0745	803622	keystroke_e	e	n/a
402.186	0.045	804372	keystroke_Key.backspace	Key.backspace	n/a
402.291	0.075	804582	keystroke_t	t	n/a
402.381	0.0755	804762	keystroke_e	e	n/a
402.501	0.09	805002	keystroke_s	s	n/a
402.665	0.031	805330	keystroke_Key.space	Key.space	n/a
403.191	0.015	806382	keystroke_Key.backspace	Key.backspace	n/a
403.461	0.075	806922	keystroke_Key.enter	Key.enter	n/a
