onset	duration	sample	value	key	prompt_text
6.381	13.036	12762	prompt	n/a	the quick brown fox jumps over a lazy dog\n
9.412	0.012	18824	keystroke_t	t	n/a
9.484	0.1355	18968	keystroke_h	h	n/a
9.7395	0.135	19479	keystroke_e	e	n/a
9.9345	0.12	19869	keystroke_Key.space	Key.space	n/a
10.3695	0.105	20739	keystroke_q	q	n/a
10.4895	0.1955	20979	keystroke_u	u	n/a
10.6095	0.1505	21219	keystroke_i	i	n/a
10.789	0.135	21578	keystroke_c	c	n/a
10.9695	0.2105	21939	keystroke_k	k	n/a
11.104	0.1355	22208	keystroke_Key.space	Key.space	n/a
11.599	0.1655	23198	keystroke_b	b	n/a
11.75	0.104	23500	keystroke_r	r	n/a
11.839	0.136	23678	keystroke_o	o	n/a
12.004	0.151	24008	keystroke_w	w	n/a
12.125	0.195	24250	keystroke_n	n	n/a
12.26	0.135	24520	keystroke_Key.space	Key.space	n/a
13.37	0.12	26740	keystroke_f	f	n/a
13.579	0.1655	27158	keystroke_o	o	n/a
13.7595	0.18	27519	keystroke_x	x	n/a
13.955	0.135	27910	keystroke_Key.space	Key.space	n/a
14.3295	0.15	28659	keystroke_j	j	n/a
14.3895	0.165	28779	keystroke_u	u	n/a
14.5995	0.27	29199	keystroke_m	m	n/a
14.75	0.1795	29500	keystroke_p	p	n/a
14.9145	0.2105	29829	keystroke_s	s	n/a
15.11	0.135	30220	keystroke_Key.space	Key.space	n/a
15.32	0.105	30640	keystroke_o	o	n/a
16.04	0.075	32080	keystroke_v	v	n/a
16.265	0.06	32530	keystroke_e	e	n/a
16.43	0.06	32860	keystroke_r	r	n/a
16.5645	0.105	33129	keystroke_Key.space	Key.space	n/a
16.805	0.1195	33610	keystroke_a	a	n/a
16.9395	0.2095	33879	keystroke_Key.space	Key.space	n/a
17.134	0.181	34268	keystroke_l	l	n/a
17.285	0.15	34570	keystroke_a	a	n/a
18.005	0.165	36010	keystroke_z	z	n/a
18.245	0.195	36490	keystroke_y	y	n/a
18.379	0.15	36758	keystroke_Key.space	Key.space	n/a
18.56	0.135	37120	keystroke_d	d	n/a
18.68	0.119	37360	keystroke_o	o	n/a
18.845	0.165	37690	keystroke_g	g	n/a
19.294	0.12	38588	keystroke_Key.enter	Key.enter	n/a
19.4215	6.2945	38843	prompt	n/a	crazy yukon create use\n
20.269	0.09	40538	keystroke_c	c	n/a
20.479	0.0755	40958	keystroke_r	r	n/a
20.8095	0.0905	41619	keystroke_a	a	n/a
21.035	0.149	42070	keystroke_z	z	n/a
21.17	0.194	42340	keystroke_y	y	n/a
21.304	0.15	42608	keystroke_Key.space	Key.space	n/a
22.159	0.106	44318	keystroke_y	y	n/a
22.295	0.119	44590	keystroke_u	u	n/a
22.579	0.1815	45158	keystroke_k	k	n/a
22.715	0.285	45430	keystroke_o	o	n/a
22.91	0.225	45820	keystroke_n	n	n/a
23.045	0.15	46090	keystroke_Key.space	Key.space	n/a
23.555	0.0295	47110	keystroke_c	c	n/a
23.7345	0.0605	47469	keystroke_r	r	n/a
23.9	0.075	47800	keystroke_e	e	n/a
24.1695	0.105	48339	keystroke_a	a	n/a
24.2895	0.105	48579	keystroke_t	t	n/a
24.4395	0.105	48879	keystroke_e	e	n/a
24.5595	0.165	49119	keystroke_Key.space	Key.space	n/a
24.7095	0.1805	49419	keystroke_u	u	n/a
24.875	0.105	49750	keystroke_s	s	n/a
25.085	0.12	50170	keystroke_e	e	n/a
25.625	0.09	51250	keystroke_Key.enter	Key.enter	n/a
25.7195	7.5715	51439	prompt	n/a	matters magazine maintain winston\n
26.45	0.135	52900	keystroke_m	m	n/a
26.615	0.105	53230	keystroke_a	a	n/a
26.945	0.06	53890	keystroke_t	t	n/a
27.05	0.12	54100	keystroke_t	t	n/a
27.29	0.075	54580	keystroke_e	e	n/a
27.44	0.09	54880	keystroke_r	r	n/a
27.68	0.105	55360	keystroke_s	s	n/a
27.785	0.15	55570	keystroke_Key.space	Key.space	n/a
27.92	0.18	55840	keystroke_m	m	n/a
28.085	0.12	56170	keystroke_a	a	n/a
28.295	0.135	56590	keystroke_g	g	n/a
28.415	0.105	56830	keystroke_a	a	n/a
28.625	0.15	57250	keystroke_z	z	n/a
28.9245	0.24	57849	keystroke_i	i	n/a
29.0295	0.21	58059	keystroke_n	n	n/a
29.1645	0.165	58329	keystroke_e	e	n/a
29.2845	0.18	58569	keystroke_Key.space	Key.space	n/a
29.4495	0.195	58899	keystroke_m	m	n/a
29.6145	0.15	59229	keystroke_a	a	n/a
29.7495	0.195	59499	keystroke_i	i	n/a
29.8845	0.18	59769	keystroke_n	n	n/a
30.26	0.12	60520	keystroke_t	t	n/a
30.65	0.135	61300	keystroke_a	a	n/a
30.815	0.255	61630	keystroke_i	i	n/a
30.965	0.165	61930	keystroke_n	n	n/a
31.085	0.18	62170	keystroke_Key.space	Key.space	n/a
31.43	0.105	62860	keystroke_w	w	n/a
31.55	0.165	63100	keystroke_i	i	n/a
31.655	0.135	63310	keystroke_n	n	n/a
31.76	0.09	63520	keystroke_s	s	n/a
31.999	0.1055	63998	keystroke_t	t	n/a
32.3445	0.18	64689	keystroke_o	o	n/a
32.4795	0.15	64959	keystroke_n	n	n/a
33.1245	0.165	66249	keystroke_Key.enter	Key.enter	n/a
33.2945	10.437	66589	prompt	n/a	resolve revolutionary reflections marketing\n
34.385	0.09	68770	keystroke_r	r	n/a
34.535	0.105	69070	keystroke_e	e	n/a
34.76	0.105	69520	keystroke_s	s	n/a
34.88	0.09	69760	keystroke_o	o	n/a
35.045	0.12	70090	keystroke_l	l	n/a
35.18	0.06	70360	keystroke_v	v	n/a
35.375	0.105	70750	keystroke_e	e	n/a
35.51	0.12	71020	keystroke_Key.space	Key.space	n/a
35.96	0.105	71920	keystroke_r	r	n/a
36.14	0.105	72280	keystroke_e	e	n/a
36.65	0.1045	73300	keystroke_v	v	n/a
36.7395	0.105	73479	keystroke_o	o	n/a
36.9345	0.105	73869	keystroke_l	l	n/a
37.1295	0.105	74259	keystroke_u	u	n/a
37.25	0.135	74500	keystroke_t	t	n/a
37.415	0.135	74830	keystroke_i	i	n/a
37.505	0.21	75010	keystroke_o	o	n/a
37.655	0.18	75310	keystroke_n	n	n/a
37.82	0.12	75640	keystroke_a	a	n/a
38.09	0.135	76180	keystroke_r	r	n/a
38.285	0.18	76570	keystroke_y	y	n/a
38.405	0.15	76810	keystroke_Key.space	Key.space	n/a
38.9745	0.075	77949	keystroke_r	r	n/a
39.1395	0.09	78279	keystroke_e	e	n/a
39.335	0.0745	78670	keystroke_f	f	n/a
39.56	0.0595	79120	keystroke_e	e	n/a
39.635	0.1045	79270	keystroke_l	l	n/a
40.0845	0.0605	80169	keystroke_Key.backspace	Key.backspace	n/a
40.235	0.0895	80470	keystroke_Key.backspace	Key.backspace	n/a
40.5495	0.12	81099	keystroke_l	l	n/a
40.6395	0.09	81279	keystroke_e	e	n/a
40.8955	0.09	81791	keystroke_c	c	n/a
41.1655	0.074	82331	keystroke_t	t	n/a
41.2845	0.15	82569	keystroke_i	i	n/a
41.4195	0.195	82839	keystroke_o	o	n/a
41.5245	0.255	83049	keystroke_n	n	n/a
41.6595	0.151	83319	keystroke_s	s	n/a
41.7645	0.15	83529	keystroke_Key.space	Key.space	n/a
41.8995	0.225	83799	keystroke_m	m	n/a
42.0645	0.09	84129	keystroke_a	a	n/a
42.3645	0.09	84729	keystroke_r	r	n/a
42.4995	0.1205	84999	keystroke_k	k	n/a
42.635	0.09	85270	keystroke_e	e	n/a
42.8745	0.105	85749	keystroke_t	t	n/a
43.0245	0.225	86049	keystroke_i	i	n/a
43.1745	0.15	86349	keystroke_n	n	n/a
43.2645	0.135	86529	keystroke_g	g	n/a
43.61	0.12	87220	keystroke_Key.enter	Key.enter	n/a
43.7345	8.187	87469	prompt	n/a	shareholders bike mixed variation\n
44.5255	0.12	89051	keystroke_s	s	n/a
44.6455	0.1195	89291	keystroke_h	h	n/a
44.78	0.09	89560	keystroke_a	a	n/a
45.02	0.0745	90040	keystroke_r	r	n/a
45.1845	0.105	90369	keystroke_e	e	n/a
45.3045	0.1655	90609	keystroke_h	h	n/a
45.425	0.105	90850	keystroke_o	o	n/a
45.605	0.135	91210	keystroke_l	l	n/a
45.725	0.12	91450	keystroke_d	d	n/a
45.965	0.09	91930	keystroke_r	r	n/a
46.175	0.09	92350	keystroke_e	e	n/a
46.6095	0.06	93219	keystroke_Key.backspace	Key.backspace	n/a
46.7445	0.1205	93489	keystroke_Key.backspace	Key.backspace	n/a
46.88	0.105	93760	keystroke_e	e	n/a
47.06	0.105	94120	keystroke_r	r	n/a
47.345	0.135	94690	keystroke_s	s	n/a
47.48	0.09	94960	keystroke_Key.space	Key.space	n/a
47.645	0.225	95290	keystroke_b	b	n/a
47.81	0.15	95620	keystroke_i	i	n/a
48.02	0.15	96040	keystroke_k	k	n/a
48.155	0.1355	96310	keystroke_e	e	n/a
48.3055	0.179	96611	keystroke_Key.space	Key.space	n/a
48.4105	0.225	96821	keystroke_m	m	n/a
48.5755	0.165	97151	keystroke_i	i	n/a
48.9505	0.105	97901	keystroke_x	x	n/a
49.1745	0.091	98349	keystroke_e	e	n/a
49.3695	0.165	98739	keystroke_d	d	n/a
49.5195	0.105	99039	keystroke_Key.space	Key.space	n/a
50.0895	0.121	100179	keystroke_v	v	n/a
50.2545	0.135	100509	keystroke_a	a	n/a
50.5405	0.089	101081	keystroke_r	r	n/a
50.6895	0.135	101379	keystroke_i	i	n/a
50.8095	0.1205	101619	keystroke_a	a	n/a
51.095	0.12	102190	keystroke_t	t	n/a
51.215	0.18	102430	keystroke_i	i	n/a
51.335	0.225	102670	keystroke_o	o	n/a
51.515	0.135	103030	keystroke_n	n	n/a
51.845	0.0745	103690	keystroke_Key.enter	Key.enter	n/a
51.9245	8.6825	103849	prompt	n/a	ceremony determined boats phones\n
52.67	0.09	105340	keystroke_c	c	n/a
52.9095	0.075	105819	keystroke_e	e	n/a
53.0895	0.075	106179	keystroke_r	r	n/a
53.2695	0.105	106539	keystroke_e	e	n/a
53.3595	0.18	106719	keystroke_m	m	n/a
53.5095	0.255	107019	keystroke_o	o	n/a
53.7045	0.1505	107409	keystroke_n	n	n/a
53.8095	0.1505	107619	keystroke_y	y	n/a
53.99	0.135	107980	keystroke_Key.space	Key.space	n/a
54.5	0.09	109000	keystroke_d	d	n/a
54.6805	0.09	109361	keystroke_e	e	n/a
54.89	0.09	109780	keystroke_t	t	n/a
55.115	0.09	110230	keystroke_e	e	n/a
55.295	0.12	110590	keystroke_r	r	n/a
55.4	0.165	110800	keystroke_m	m	n/a
55.52	0.195	111040	keystroke_i	i	n/a
55.67	0.195	111340	keystroke_n	n	n/a
55.79	0.105	111580	keystroke_e	e	n/a
56.03	0.15	112060	keystroke_d	d	n/a
56.135	0.105	112270	keystroke_Key.space	Key.space	n/a
56.54	0.165	113080	keystroke_b	b	n/a
56.63	0.165	113260	keystroke_o	o	n/a
56.81	0.105	113620	keystroke_a	a	n/a
57.1255	0.09	114251	keystroke_t	t	n/a
57.4395	0.135	114879	keystroke_s	s	n/a
57.5445	0.12	115089	keystroke_Key.space	Key.space	n/a
58.1445	0.045	116289	keystroke_o	o	n/a
59.1345	0.045	118269	keystroke_Key.backspace	Key.backspace	n/a
59.3895	0.09	118779	keystroke_p	p	n/a
59.5845	0.12	119169	keystroke_h	h	n/a
59.7195	0.24	119439	keystroke_o	o	n/a
59.8695	0.165	119739	keystroke_n	n	n/a
60.0045	0.135	120009	keystroke_e	e	n/a
60.2445	0.165	120489	keystroke_s	s	n/a
60.4995	0.1055	120999	keystroke_Key.enter	Key.enter	n/a
60.611	8.9955	121222	prompt	n/a	chapter landscapes andy lime\n
61.355	0.105	122710	keystroke_c	c	n/a
61.505	0.15	123010	keystroke_h	h	n/a
61.67	0.15	123340	keystroke_a	a	n/a
61.805	0.12	123610	keystroke_p	p	n/a
62.105	0.075	124210	keystroke_t	t	n/a
62.195	0.105	124390	keystroke_e	e	n/a
62.405	0.15	124810	keystroke_r	r	n/a
62.555	0.135	125110	keystroke_Key.space	Key.space	n/a
63.005	0.15	126010	keystroke_l	l	n/a
63.635	0.045	127270	keystroke_n	n	n/a
63.755	0.15	127510	keystroke_d	d	n/a
64.3395	0.075	128679	keystroke_Key.backspace	Key.backspace	n/a
64.5045	0.12	129009	keystroke_Key.backspace	Key.backspace	n/a
64.91	0.09	129820	keystroke_a	a	n/a
65.015	0.135	130030	keystroke_n	n	n/a
65.24	0.12	130480	keystroke_d	d	n/a
65.495	0.09	130990	keystroke_s	s	n/a
66.2595	0.015	132519	keystroke_c	c	n/a
66.4545	0.105	132909	keystroke_a	a	n/a
66.5745	0.1355	133149	keystroke_p	p	n/a
66.725	0.105	133450	keystroke_e	e	n/a
66.9505	0.135	133901	keystroke_s	s	n/a
67.1155	0.134	134231	keystroke_Key.space	Key.space	n/a
67.5055	0.12	135011	keystroke_a	a	n/a
67.6105	0.165	135221	keystroke_n	n	n/a
67.8355	0.165	135671	keystroke_d	d	n/a
68.1655	0.134	136331	keystroke_y	y	n/a
68.3005	0.134	136601	keystroke_Key.space	Key.space	n/a
68.735	0.1645	137470	keystroke_l	l	n/a
68.84	0.2095	137680	keystroke_i	i	n/a
68.9595	0.18	137919	keystroke_m	m	n/a
69.1095	0.15	138219	keystroke_e	e	n/a
69.4995	0.105	138999	keystroke_Key.enter	Key.enter	n/a
69.6105	10.9315	139221	prompt	n/a	johnston chambers tree circles\n
70.7895	0.166	141579	keystroke_j	j	n/a
70.8945	0.225	141789	keystroke_o	o	n/a
71.0595	0.12	142119	keystroke_h	h	n/a
71.2545	0.165	142509	keystroke_n	n	n/a
71.3595	0.135	142719	keystroke_s	s	n/a
71.6595	0.135	143319	keystroke_t	t	n/a
71.8845	0.21	143769	keystroke_o	o	n/a
72.0195	0.21	144039	keystroke_n	n	n/a
72.2895	0.12	144579	keystroke_Key.space	Key.space	n/a
73.0695	0.15	146139	keystroke_c	c	n/a
74.6455	0.12	149291	keystroke_h	h	n/a
74.945	0.135	149890	keystroke_a	a	n/a
75.155	0.15	150310	keystroke_m	m	n/a
75.695	0.135	151390	keystroke_b	b	n/a
75.8	0.12	151600	keystroke_e	e	n/a
76.025	0.12	152050	keystroke_r	r	n/a
76.37	0.1045	152740	keystroke_s	s	n/a
76.4595	0.12	152919	keystroke_Key.space	Key.space	n/a
76.91	0.105	153820	keystroke_t	t	n/a
77.12	0.09	154240	keystroke_r	r	n/a
77.33	0.075	154660	keystroke_e	e	n/a
77.48	0.09	154960	keystroke_e	e	n/a
77.63	0.135	155260	keystroke_Key.space	Key.space	n/a
77.825	0.105	155650	keystroke_c	c	n/a
77.96	0.12	155920	keystroke_i	i	n/a
78.185	0.075	156370	keystroke_c	c	n/a
78.5745	0.105	157149	keystroke_Key.backspace	Key.backspace	n/a
78.7245	0.09	157449	keystroke_r	r	n/a
78.9645	0.09	157929	keystroke_c	c	n/a
79.0845	0.165	158169	keystroke_l	l	n/a
79.2645	0.09	158529	keystroke_e	e	n/a
79.49	0.12	158980	keystroke_s	s	n/a
80.4345	0.1055	160869	keystroke_Key.enter	Key.enter	n/a
80.5445	7.452	161089	prompt	n/a	edgar tulsa specifics findlaw\n
81.335	0.105	162670	keystroke_e	e	n/a
81.545	0.12	163090	keystroke_d	d	n/a
81.71	0.1045	163420	keystroke_g	g	n/a
81.875	0.1045	163750	keystroke_a	a	n/a
82.1595	0.15	164319	keystroke_r	r	n/a
82.2945	0.12	164589	keystroke_Key.space	Key.space	n/a
82.8495	0.135	165699	keystroke_t	t	n/a
82.9995	0.105	165999	keystroke_u	u	n/a
83.195	0.1495	166390	keystroke_l	l	n/a
83.3295	0.12	166659	keystroke_s	s	n/a
83.5995	0.135	167199	keystroke_a	a	n/a
83.7195	0.12	167439	keystroke_Key.space	Key.space	n/a
83.9295	0.105	167859	keystroke_s	s	n/a
84.0945	0.15	168189	keystroke_p	p	n/a
84.2895	0.105	168579	keystroke_e	e	n/a
84.5895	0.135	169179	keystroke_c	c	n/a
84.7395	0.1205	169479	keystroke_i	i	n/a
84.92	0.09	169840	keystroke_f	f	n/a
85.055	0.1055	170110	keystroke_i	i	n/a
85.1905	0.09	170381	keystroke_c	c	n/a
85.4455	0.165	170891	keystroke_s	s	n/a
85.6255	0.1195	171251	keystroke_Key.space	Key.space	n/a
86.555	0.12	173110	keystroke_f	f	n/a
86.69	0.15	173380	keystroke_i	i	n/a
86.78	0.15	173560	keystroke_n	n	n/a
86.9	0.105	173800	keystroke_d	d	n/a
87.05	0.195	174100	keystroke_l	l	n/a
87.26	0.09	174520	keystroke_a	a	n/a
87.47	0.12	174940	keystroke_w	w	n/a
87.8905	0.105	175781	keystroke_Key.enter	Key.enter	n/a
87.9995	8.232	175999	prompt	n/a	ballot addresses colleges larry\n
88.8055	0.15	177611	keystroke_b	b	n/a
88.9405	0.119	177881	keystroke_a	a	n/a
89.1055	0.12	178211	keystroke_l	l	n/a
89.2855	0.105	178571	keystroke_l	l	n/a
89.4805	0.134	178961	keystroke_o	o	n/a
89.6305	0.18	179261	keystroke_t	t	n/a
89.8245	0.12	179649	keystroke_Key.space	Key.space	n/a
90.1405	0.09	180281	keystroke_a	a	n/a
90.425	0.06	180850	keystroke_d	d	n/a
90.545	0.105	181090	keystroke_d	d	n/a
90.77	0.105	181540	keystroke_r	r	n/a
90.965	0.09	181930	keystroke_e	e	n/a
91.22	0.09	182440	keystroke_s	s	n/a
91.385	0.1205	182770	keystroke_s	s	n/a
91.5955	0.119	183191	keystroke_e	e	n/a
91.925	0.105	183850	keystroke_s	s	n/a
92.135	0.12	184270	keystroke_Key.space	Key.space	n/a
92.585	0.135	185170	keystroke_c	c	n/a
92.735	0.075	185470	keystroke_o	o	n/a
92.975	0.045	185950	keystroke_l	l	n/a
93.08	0.135	186160	keystroke_l	l	n/a
93.245	0.15	186490	keystroke_e	e	n/a
93.41	0.12	186820	keystroke_g	g	n/a
93.575	0.15	187150	keystroke_s	s	n/a
94.1	0.0895	188200	keystroke_Key.backspace	Key.backspace	n/a
94.2345	0.15	188469	keystroke_e	e	n/a
94.5045	0.135	189009	keystroke_s	s	n/a
94.6245	0.135	189249	keystroke_Key.space	Key.space	n/a
94.9245	0.15	189849	keystroke_l	l	n/a
95.0895	0.105	190179	keystroke_a	a	n/a
95.3445	0.075	190689	keystroke_r	r	n/a
95.4955	0.09	190991	keystroke_r	r	n/a
95.7505	0.09	191501	keystroke_y	y	n/a
96.1255	0.105	192251	keystroke_Key.enter	Key.enter	n/a
96.2345	6.447	192469	prompt	n/a	mail olive jonathan hack\n
96.8305	0.15	193661	keystroke_m	m	n/a
96.9955	0.1495	193991	keystroke_a	a	n/a
97.19	0.2095	194380	keystroke_i	i	n/a
97.3395	0.285	194679	keystroke_l	l	n/a
97.6095	0.135	195219	keystroke_Key.space	Key.space	n/a
98.2095	0.105	196419	keystroke_o	o	n/a
98.4045	0.105	196809	keystroke_l	l	n/a
98.63	0.12	197260	keystroke_i	i	n/a
98.78	0.1045	197560	keystroke_v	v	n/a
99.0495	0.12	198099	keystroke_e	e	n/a
99.1845	0.135	198369	keystroke_Key.space	Key.space	n/a
99.6645	0.12	199329	keystroke_j	j	n/a
99.7395	0.225	199479	keystroke_o	o	n/a
99.9345	0.15	199869	keystroke_n	n	n/a
100.0395	0.12	200079	keystroke_a	a	n/a
100.3245	0.12	200649	keystroke_t	t	n/a
100.5045	0.136	201009	keystroke_h	h	n/a
100.6555	0.18	201311	keystroke_a	a	n/a
100.8505	0.24	201701	keystroke_n	n	n/a
101.0455	0.12	202091	keystroke_Key.space	Key.space	n/a
101.2405	0.165	202481	keystroke_h	h	n/a
101.3905	0.165	202781	keystroke_a	a	n/a
101.6905	0.135	203381	keystroke_c	c	n/a
101.8855	0.105	203771	keystroke_k	k	n/a
102.575	0.105	205150	keystroke_Key.enter	Key.enter	n/a
102.685	10.077	205370	prompt	n/a	prefix consumption connectors succeed\n
103.5505	0.165	207101	keystroke_p	p	n/a
103.7155	0.09	207431	keystroke_r	r	n/a
103.8955	0.105	207791	keystroke_e	e	n/a
104.1205	0.075	208241	keystroke_f	f	n/a
104.2255	0.15	208451	keystroke_i	i	n/a
104.4205	0.1495	208841	keystroke_x	x	n/a
104.585	0.105	209170	keystroke_Key.space	Key.space	n/a
105.1095	0.121	210219	keystroke_c	c	n/a
105.2445	0.195	210489	keystroke_o	o	n/a
105.3645	0.181	210729	keystroke_n	n	n/a
105.6045	0.12	211209	keystroke_s	s	n/a
105.6955	0.09	211391	keystroke_u	u	n/a
105.9045	0.2705	211809	keystroke_m	m	n/a
106.07	0.18	212140	keystroke_p	p	n/a
106.265	0.09	212530	keystroke_t	t	n/a
106.4	0.225	212800	keystroke_i	i	n/a
106.58	0.225	213160	keystroke_o	o	n/a
106.76	0.2255	213520	keystroke_n	n	n/a
106.9555	0.15	213911	keystroke_Key.space	Key.space	n/a
107.4355	0.12	214871	keystroke_c	c	n/a
107.5705	0.15	215141	keystroke_o	o	n/a
107.6905	0.1195	215381	keystroke_n	n	n/a
107.87	0.15	215740	keystroke_n	n	n/a
107.975	0.135	215950	keystroke_e	e	n/a
108.215	0.09	216430	keystroke_c	c	n/a
108.47	0.075	216940	keystroke_t	t	n/a
108.59	0.135	217180	keystroke_o	o	n/a
108.74	0.1055	217480	keystroke_r	r	n/a
109.0555	0.105	218111	keystroke_s	s	n/a
109.2045	0.12	218409	keystroke_Key.space	Key.space	n/a
109.6255	0.149	219251	keystroke_s	s	n/a
109.7905	0.135	219581	keystroke_u	u	n/a
110.1355	0.089	220271	keystroke_c	c	n/a
110.2995	0.136	220599	keystroke_c	c	n/a
110.6605	0.089	221321	keystroke_e	e	n/a
110.8095	0.1205	221619	keystroke_e	e	n/a
111.05	0.15	222100	keystroke_s	s	n/a
111.56	0.105	223120	keystroke_Key.backspace	Key.backspace	n/a
111.725	0.1355	223450	keystroke_d	d	n/a
112.6695	0.09	225339	keystroke_Key.enter	Key.enter	n/a
112.7645	8.6225	225529	prompt	n/a	mills olympic blind bool\n
113.421	0.194	226842	keystroke_m	m	n/a
113.57	0.165	227140	keystroke_i	i	n/a
113.781	0.0895	227562	keystroke_l	l	n/a
113.9605	0.15	227921	keystroke_l	l	n/a
114.0955	0.21	228191	keystroke_s	s	n/a
114.3055	0.12	228611	keystroke_Key.space	Key.space	n/a
114.7555	0.1045	229511	keystroke_o	o	n/a
114.965	0.09	229930	keystroke_l	l	n/a
115.205	0.09	230410	keystroke_y	y	n/a
115.46	0.195	230920	keystroke_m	m	n/a
115.61	0.195	231220	keystroke_p	p	n/a
115.79	0.15	231580	keystroke_i	i	n/a
115.955	0.18	231910	keystroke_c	c	n/a
116.165	0.135	232330	keystroke_Key.space	Key.space	n/a
118.418	0.042	236836	keystroke_b	b	n/a
118.8355	0.0145	237671	keystroke_l	l	n/a
118.91	0.195	237820	keystroke_i	i	n/a
119.06	0.15	238120	keystroke_n	n	n/a
119.3	0.15	238600	keystroke_d	d	n/a
119.87	0.105	239740	keystroke_Key.space	Key.space	n/a
120.3955	0.12	240791	keystroke_b	b	n/a
120.5905	0.105	241181	keystroke_o	o	n/a
120.7555	0.1345	241511	keystroke_o	o	n/a
120.98	0.135	241960	keystroke_l	l	n/a
121.295	0.0905	242590	keystroke_Key.enter	Key.enter	n/a
121.39	7.962	242780	prompt	n/a	tony presentation theatre espn\n
122.165	0.165	244330	keystroke_t	t	n/a
122.255	0.225	244510	keystroke_o	o	n/a
122.405	0.21	244810	keystroke_n	n	n/a
122.54	0.15	245080	keystroke_y	y	n/a
122.78	0.135	245560	keystroke_Key.space	Key.space	n/a
123.095	0.1355	246190	keystroke_p	p	n/a
123.2605	0.1045	246521	keystroke_r	r	n/a
123.5305	0.09	247061	keystroke_e	e	n/a
123.785	0.09	247570	keystroke_s	s	n/a
123.9655	0.12	247931	keystroke_e	e	n/a
124.115	0.1355	248230	keystroke_n	n	n/a
124.2805	0.105	248561	keystroke_t	t	n/a
124.5805	0.105	249161	keystroke_a	a	n/a
124.865	0.105	249730	keystroke_t	t	n/a
124.985	0.1655	249970	keystroke_i	i	n/a
125.105	0.2705	250210	keystroke_o	o	n/a
125.3305	0.24	250661	keystroke_n	n	n/a
125.5555	0.12	251111	keystroke_Key.space	Key.space	n/a
126.0805	0.075	252161	keystroke_t	t	n/a
126.17	0.105	252340	keystroke_h	h	n/a
126.335	0.105	252670	keystroke_e	e	n/a
126.6205	0.105	253241	keystroke_a	a	n/a
127.0405	0.09	254081	keystroke_t	t	n/a
127.1755	0.105	254351	keystroke_r	r	n/a
127.3855	0.12	254771	keystroke_e	e	n/a
127.8805	0.12	255761	keystroke_Key.space	Key.space	n/a
128.1805	0.12	256361	keystroke_e	e	n/a
128.4495	0.121	256899	keystroke_s	s	n/a
128.5855	0.105	257171	keystroke_p	p	n/a
128.7955	0.1195	257591	keystroke_n	n	n/a
129.245	0.105	258490	keystroke_Key.enter	Key.enter	n/a
129.355	6.4015	258710	prompt	n/a	chase oaks geek courts\n
130.175	0.09	260350	keystroke_c	c	n/a
130.295	0.12	260590	keystroke_h	h	n/a
130.475	0.091	260950	keystroke_a	a	n/a
130.7155	0.075	261431	keystroke_s	s	n/a
130.9405	0.105	261881	keystroke_e	e	n/a
131.0755	0.135	262151	keystroke_Key.space	Key.space	n/a
131.3905	0.135	262781	keystroke_o	o	n/a
131.5555	0.135	263111	keystroke_a	a	n/a
131.7655	0.135	263531	keystroke_k	k	n/a
131.9455	0.135	263891	keystroke_s	s	n/a
132.0955	0.135	264191	keystroke_Key.space	Key.space	n/a
133.04	0.12	266080	keystroke_g	g	n/a
133.176	0.074	266352	keystroke_e	e	n/a
133.326	0.135	266652	keystroke_e	e	n/a
133.58	0.195	267160	keystroke_k	k	n/a
133.73	0.135	267460	keystroke_Key.space	Key.space	n/a
134.36	0.12	268720	keystroke_c	c	n/a
134.511	0.1945	269022	keystroke_o	o	n/a
134.6455	0.165	269291	keystroke_u	u	n/a
134.7805	0.075	269561	keystroke_r	r	n/a
134.9455	0.105	269891	keystroke_t	t	n/a
135.2755	0.105	270551	keystroke_s	s	n/a
135.6205	0.135	271241	keystroke_Key.enter	Key.enter	n/a
135.7595	7.047	271519	prompt	n/a	resource hist hoped killed\n
136.535	0.0905	273070	keystroke_r	r	n/a
136.7305	0.09	273461	keystroke_e	e	n/a
136.9705	0.12	273941	keystroke_s	s	n/a
137.1805	0.165	274361	keystroke_o	o	n/a
137.3005	0.195	274601	keystroke_u	u	n/a
137.4055	0.135	274811	keystroke_r	r	n/a
137.6905	0.09	275381	keystroke_c	c	n/a
137.9155	0.15	275831	keystroke_e	e	n/a
138.0805	0.15	276161	keystroke_Key.space	Key.space	n/a
138.2605	0.21	276521	keystroke_h	h	n/a
138.3955	0.195	276791	keystroke_i	i	n/a
138.5305	0.105	277061	keystroke_s	s	n/a
138.8155	0.1195	277631	keystroke_t	t	n/a
138.95	0.12	277900	keystroke_Key.space	Key.space	n/a
139.385	0.225	278770	keystroke_h	h	n/a
139.535	0.2405	279070	keystroke_o	o	n/a
139.7005	0.195	279401	keystroke_p	p	n/a
139.8505	0.12	279701	keystroke_e	e	n/a
140.075	0.2255	280150	keystroke_d	d	n/a
140.2855	0.135	280571	keystroke_Key.space	Key.space	n/a
140.81	0.105	281620	keystroke_k	k	n/a
140.99	0.12	281980	keystroke_i	i	n/a
141.23	0.105	282460	keystroke_l	l	n/a
141.395	0.15	282790	keystroke_l	l	n/a
141.56	0.15	283120	keystroke_e	e	n/a
141.785	0.165	283570	keystroke_d	d	n/a
142.6855	0.12	285371	keystroke_Key.enter	Key.enter	n/a
142.81	7.212	285620	prompt	n/a	who're blocks subtle introduces\n
143.6755	0.18	287351	keystroke_w	w	n/a
143.7805	0.195	287561	keystroke_h	h	n/a
143.9005	0.18	287801	keystroke_o	o	n/a
144.2005	0.135	288401	keystroke_'	'	n/a
144.3805	0.12	288761	keystroke_r	r	n/a
144.6055	0.165	289211	keystroke_e	e	n/a
144.8755	0.12	289751	keystroke_Key.space	Key.space	n/a
145.2055	0.105	290411	keystroke_b	b	n/a
145.4305	0.09	290861	keystroke_l	l	n/a
145.6105	0.135	291221	keystroke_o	o	n/a
145.7605	0.105	291521	keystroke_c	c	n/a
145.9105	0.135	291821	keystroke_k	k	n/a
146.0605	0.165	292121	keystroke_s	s	n/a
146.2555	0.105	292511	keystroke_Key.space	Key.space	n/a
146.5705	0.12	293141	keystroke_s	s	n/a
146.7055	0.225	293411	keystroke_u	u	n/a
146.8255	0.21	293651	keystroke_b	b	n/a
147.0505	0.135	294101	keystroke_t	t	n/a
147.2455	0.135	294491	keystroke_l	l	n/a
147.41	0.165	294820	keystroke_e	e	n/a
147.605	0.135	295210	keystroke_Key.space	Key.space	n/a
147.875	0.225	295750	keystroke_i	i	n/a
148.01	0.165	296020	keystroke_n	n	n/a
148.16	0.105	296320	keystroke_t	t	n/a
148.385	0.075	296770	keystroke_r	r	n/a
148.52	0.135	297040	keystroke_o	o	n/a
148.715	0.105	297430	keystroke_d	d	n/a
148.85	0.105	297700	keystroke_u	u	n/a
149	0.075	298000	keystroke_c	c	n/a
149.24	0.075	298480	keystroke_e	e	n/a
149.48	0.09	298960	keystroke_s	s	n/a
149.9155	0.105	299831	keystroke_Key.enter	Key.enter	n/a
150.025	8.832	300050	prompt	n/a	failure purple learning cubic\n
150.905	0.075	301810	keystroke_f	f	n/a
151.1605	0.1345	302321	keystroke_a	a	n/a
151.34	0.1655	302680	keystroke_i	i	n/a
151.4455	0.315	302891	keystroke_l	l	n/a
151.7305	0.165	303461	keystroke_u	u	n/a
152.1355	0.105	304271	keystroke_r	r	n/a
152.3305	0.135	304661	keystroke_e	e	n/a
152.6005	0.105	305201	keystroke_Key.space	Key.space	n/a
152.8105	0.135	305621	keystroke_p	p	n/a
153.0355	0.12	306071	keystroke_u	u	n/a
153.1705	0.105	306341	keystroke_r	r	n/a
153.3505	0.27	306701	keystroke_p	p	n/a
153.5755	0.195	307151	keystroke_l	l	n/a
153.9655	0.12	307931	keystroke_e	e	n/a
154.1455	0.135	308291	keystroke_Key.space	Key.space	n/a
154.5055	0.15	309011	keystroke_l	l	n/a
154.7155	0.075	309431	keystroke_e	e	n/a
154.955	0.12	309910	keystroke_a	a	n/a
155.27	0.09	310540	keystroke_r	r	n/a
155.451	0.1345	310902	keystroke_n	n	n/a
155.5705	0.21	311141	keystroke_i	i	n/a
155.7055	0.135	311411	keystroke_n	n	n/a
155.8255	0.135	311651	keystroke_g	g	n/a
155.9905	0.135	311981	keystroke_Key.space	Key.space	n/a
156.4705	0.105	312941	keystroke_c	c	n/a
156.65	0.21	313300	keystroke_u	u	n/a
156.8	0.15	313600	keystroke_b	b	n/a
157.01	0.135	314020	keystroke_e	e	n/a
157.805	0.105	315610	keystroke_Key.backspace	Key.backspace	n/a
158.075	0.105	316150	keystroke_i	i	n/a
158.225	0.165	316450	keystroke_c	c	n/a
158.7655	0.09	317531	keystroke_Key.enter	Key.enter	n/a
158.8615	12.9855	317723	prompt	n/a	modifications commonwealth grenada melbourne\n
159.635	0.24	319270	keystroke_m	m	n/a
159.83	0.18	319660	keystroke_o	o	n/a
160.011	0.1195	320022	keystroke_d	d	n/a
160.1905	0.1505	320381	keystroke_i	i	n/a
160.341	0.105	320682	keystroke_f	f	n/a
160.491	0.1345	320982	keystroke_i	i	n/a
160.611	0.0745	321222	keystroke_c	c	n/a
160.8505	0.0895	321701	keystroke_a	a	n/a
161.105	0.0905	322210	keystroke_t	t	n/a
161.255	0.195	322510	keystroke_i	i	n/a
161.42	0.2255	322840	keystroke_o	o	n/a
161.585	0.1955	323170	keystroke_n	n	n/a
161.7655	0.255	323531	keystroke_s	s	n/a
162.0055	0.12	324011	keystroke_Key.space	Key.space	n/a
162.2155	0.105	324431	keystroke_c	c	n/a
162.3955	0.135	324791	keystroke_o	o	n/a
162.6055	0.0895	325211	keystroke_m	m	n/a
162.785	0.1055	325570	keystroke_m	m	n/a
162.9805	0.195	325961	keystroke_o	o	n/a
163.1305	0.15	326261	keystroke_n	n	n/a
163.4605	0.12	326921	keystroke_w	w	n/a
163.6855	0.045	327371	keystroke_e	e	n/a
163.9705	0.12	327941	keystroke_a	a	n/a
164.1655	0.135	328331	keystroke_l	l	n/a
164.3755	0.12	328751	keystroke_t	t	n/a
164.5555	0.18	329111	keystroke_h	h	n/a
164.6905	0.135	329381	keystroke_Key.space	Key.space	n/a
165.4705	0.135	330941	keystroke_g	g	n/a
165.5905	0.09	331181	keystroke_r	r	n/a
165.7855	0.12	331571	keystroke_e	e	n/a
165.9655	0.15	331931	keystroke_n	n	n/a
166.1155	0.105	332231	keystroke_a	a	n/a
166.3405	0.09	332681	keystroke_d	d	n/a
166.5505	0.1195	333101	keystroke_a	a	n/a
166.7	0.15	333400	keystroke_Key.space	Key.space	n/a
166.955	0.135	333910	keystroke_m	m	n/a
167.105	0.105	334210	keystroke_e	e	n/a
167.285	0.135	334570	keystroke_l	l	n/a
167.54	0.18	335080	keystroke_b	b	n/a
167.645	0.195	335290	keystroke_o	o	n/a
167.795	0.15	335590	keystroke_u	u	n/a
167.96	0.12	335920	keystroke_r	r	n/a
168.14	0.165	336280	keystroke_n	n	n/a
168.32	0.12	336640	keystroke_e	e	n/a
171.7875	0.0575	343575	keystroke_Key.enter	Key.enter	n/a
171.8505	11.127	343701	prompt	n/a	adjustment spoke realm forms\n
172.686	0.119	345372	keystroke_a	a	n/a
172.9555	0.09	345911	keystroke_d	d	n/a
173.1805	0.135	346361	keystroke_j	j	n/a
173.2705	0.21	346541	keystroke_u	u	n/a
173.4655	0.135	346931	keystroke_s	s	n/a
173.7355	0.09	347471	keystroke_t	t	n/a
174.0355	0.075	348071	keystroke_e	e	n/a
175.326	0.105	350652	keystroke_Key.backspace	Key.backspace	n/a
175.596	0.105	351192	keystroke_m	m	n/a
175.776	0.1645	351552	keystroke_e	e	n/a
175.9255	0.12	351851	keystroke_n	n	n/a
176.1205	0.135	352241	keystroke_t	t	n/a
176.2855	0.135	352571	keystroke_Key.space	Key.space	n/a
176.7655	0.1805	353531	keystroke_s	s	n/a
176.901	0.195	353802	keystroke_p	p	n/a
177.051	0.255	354102	keystroke_o	o	n/a
177.246	0.24	354492	keystroke_j	j	n/a
177.411	0.1645	354822	keystroke_e	e	n/a
177.5905	0.1195	355181	keystroke_Key.space	Key.space	n/a
178.3855	0.0745	356771	keystroke_Key.backspace	Key.backspace	n/a
178.5805	0.0895	357161	keystroke_Key.backspace	Key.backspace	n/a
178.82	0.076	357640	keystroke_Key.backspace	Key.backspace	n/a
179.496	0.12	358992	keystroke_k	k	n/a
179.781	0.12	359562	keystroke_e	e	n/a
179.916	0.1645	359832	keystroke_Key.space	Key.space	n/a
180.2155	0.06	360431	keystroke_r	r	n/a
180.3955	0.09	360791	keystroke_e	e	n/a
180.6805	0.12	361361	keystroke_a	a	n/a
180.8305	0.225	361661	keystroke_l	l	n/a
180.9805	0.225	361961	keystroke_m	m	n/a
181.1455	0.15	362291	keystroke_Key.space	Key.space	n/a
181.895	0.09	363790	keystroke_f	f	n/a
181.986	0.1345	363972	keystroke_o	o	n/a
182.1505	0.105	364301	keystroke_r	r	n/a
182.3155	0.105	364631	keystroke_m	m	n/a
182.4955	0.12	364991	keystroke_s	s	n/a
182.8705	0.105	365741	keystroke_Key.enter	Key.enter	n/a
182.9815	10.0005	365963	prompt	n/a	zimbabwe regional danish medicare\n
184.2355	0.15	368471	keystroke_z	z	n/a
184.3705	0.225	368741	keystroke_i	i	n/a
184.5505	0.135	369101	keystroke_m	m	n/a
184.7905	0.15	369581	keystroke_b	b	n/a
184.9255	0.165	369851	keystroke_a	a	n/a
185.1055	0.12	370211	keystroke_b	b	n/a
185.42	0.075	370840	keystroke_w	w	n/a
185.6755	0.09	371351	keystroke_e	e	n/a
185.8255	0.135	371651	keystroke_Key.space	Key.space	n/a
187.2355	0.09	374471	keystroke_r	r	n/a
187.4155	0.105	374831	keystroke_e	e	n/a
187.6555	0.075	375311	keystroke_g	g	n/a
187.7605	0.195	375521	keystroke_i	i	n/a
187.9255	0.18	375851	keystroke_o	o	n/a
188.0605	0.2395	376121	keystroke_n	n	n/a
188.2105	0.1645	376421	keystroke_a	a	n/a
188.376	0.209	376752	keystroke_l	l	n/a
188.555	0.15	377110	keystroke_Key.space	Key.space	n/a
188.87	0.106	377740	keystroke_d	d	n/a
189.096	0.149	378192	keystroke_a	a	n/a
189.216	0.225	378432	keystroke_n	n	n/a
189.365	0.18	378730	keystroke_i	i	n/a
189.53	0.165	379060	keystroke_s	s	n/a
189.71	0.18	379420	keystroke_h	h	n/a
189.845	0.12	379690	keystroke_Key.space	Key.space	n/a
190.61	0.135	381220	keystroke_m	m	n/a
190.76	0.135	381520	keystroke_e	e	n/a
191	0.135	382000	keystroke_d	d	n/a
191.12	0.135	382240	keystroke_i	i	n/a
191.27	0.105	382540	keystroke_c	c	n/a
191.51	0.12	383020	keystroke_a	a	n/a
191.78	0.075	383560	keystroke_r	r	n/a
192.005	0.12	384010	keystroke_e	e	n/a
192.8755	0.105	385751	keystroke_Key.enter	Key.enter	n/a
192.985	7.932	385970	prompt	n/a	weekend stars fiber laptops\n
193.6705	0.105	387341	keystroke_w	w	n/a
193.9255	0.075	387851	keystroke_e	e	n/a
194.1055	0.135	388211	keystroke_e	e	n/a
194.4055	0.075	388811	keystroke_k	k	n/a
195.0355	0.12	390071	keystroke_e	e	n/a
195.1855	0.12	390371	keystroke_n	n	n/a
195.3505	0.135	390701	keystroke_d	d	n/a
195.5155	0.135	391031	keystroke_Key.space	Key.space	n/a
196.0255	0.15	392051	keystroke_s	s	n/a
196.3555	0.15	392711	keystroke_t	t	n/a
196.5505	0.1195	393101	keystroke_a	a	n/a
196.8655	0.09	393731	keystroke_r	r	n/a
197.1355	0.15	394271	keystroke_s	s	n/a
197.2705	0.15	394541	keystroke_Key.space	Key.space	n/a
197.871	0.165	395742	keystroke_f	f	n/a
198.051	0.21	396102	keystroke_i	i	n/a
198.171	0.195	396342	keystroke_b	b	n/a
198.321	0.12	396642	keystroke_e	e	n/a
198.5305	0.135	397061	keystroke_r	r	n/a
198.6505	0.12	397301	keystroke_Key.space	Key.space	n/a
198.876	0.165	397752	keystroke_l	l	n/a
199.055	0.135	398110	keystroke_a	a	n/a
199.22	0.165	398440	keystroke_p	p	n/a
199.55	0.135	399100	keystroke_t	t	n/a
199.895	0.075	399790	keystroke_o	o	n/a
200.21	0.135	400420	keystroke_p	p	n/a
200.39	0.1355	400780	keystroke_s	s	n/a
200.7955	0.12	401591	keystroke_Key.enter	Key.enter	n/a
200.92	8.1575	401840	prompt	n/a	vessels bill alumni stranger\n
201.8155	0.12	403631	keystroke_v	v	n/a
201.9655	0.105	403931	keystroke_e	e	n/a
202.2205	0.06	404441	keystroke_s	s	n/a
202.3855	0.075	404771	keystroke_s	s	n/a
202.5655	0.105	405131	keystroke_e	e	n/a
202.7305	0.15	405461	keystroke_l	l	n/a
202.8955	0.12	405791	keystroke_s	s	n/a
203.0755	0.105	406151	keystroke_Key.space	Key.space	n/a
203.4205	0.225	406841	keystroke_b	b	n/a
203.6005	0.225	407201	keystroke_i	i	n/a
203.7955	0.12	407591	keystroke_l	l	n/a
204.0055	0.21	408011	keystroke_l	l	n/a
204.2005	0.12	408401	keystroke_Key.space	Key.space	n/a
204.3655	0.165	408731	keystroke_a	a	n/a
204.5005	0.135	409001	keystroke_l	l	n/a
204.7555	0.0895	409511	keystroke_u	u	n/a
204.965	0.105	409930	keystroke_m	m	n/a
205.235	0.255	410470	keystroke_b	b	n/a
205.835	0.105	411670	keystroke_Key.backspace	Key.backspace	n/a
206.135	0.21	412270	keystroke_n	n	n/a
206.27	0.165	412540	keystroke_i	i	n/a
206.705	0.135	413410	keystroke_Key.space	Key.space	n/a
207.215	0.12	414430	keystroke_s	s	n/a
207.545	0.045	415090	keystroke_t	t	n/a
207.71	0.075	415420	keystroke_r	r	n/a
207.95	0.12	415900	keystroke_a	a	n/a
208.085	0.105	416170	keystroke_n	n	n/a
208.31	0.12	416620	keystroke_g	g	n/a
208.445	0.075	416890	keystroke_e	e	n/a
208.625	0.105	417250	keystroke_r	r	n/a
208.955	0.121	417910	keystroke_Key.enter	Key.enter	n/a
209.0805	7.5115	418161	prompt	n/a	sage respondents comply ghost\n
209.766	0.12	419532	keystroke_s	s	n/a
209.976	0.149	419952	keystroke_a	a	n/a
210.155	0.12	420310	keystroke_g	g	n/a
210.3205	0.15	420641	keystroke_e	e	n/a
210.4555	0.135	420911	keystroke_Key.space	Key.space	n/a
210.9355	0.09	421871	keystroke_r	r	n/a
211.1455	0.105	422291	keystroke_e	e	n/a
211.446	0.105	422892	keystroke_s	s	n/a
211.641	0.165	423282	keystroke_p	p	n/a
211.761	0.225	423522	keystroke_o	o	n/a
211.926	0.135	423852	keystroke_n	n	n/a
212.076	0.09	424152	keystroke_d	d	n/a
212.271	0.135	424542	keystroke_e	e	n/a
212.406	0.135	424812	keystroke_n	n	n/a
212.586	0.12	425172	keystroke_t	t	n/a
212.871	0.135	425742	keystroke_s	s	n/a
213.021	0.135	426042	keystroke_Key.space	Key.space	n/a
213.576	0.105	427152	keystroke_c	c	n/a
213.696	0.21	427392	keystroke_o	o	n/a
213.831	0.33	427662	keystroke_m	m	n/a
213.996	0.255	427992	keystroke_p	p	n/a
214.146	0.285	428292	keystroke_l	l	n/a
214.311	0.165	428622	keystroke_y	y	n/a
214.506	0.12	429012	keystroke_Key.space	Key.space	n/a
215.106	0.09	430212	keystroke_g	g	n/a
215.241	0.225	430482	keystroke_h	h	n/a
215.39	0.18	430780	keystroke_o	o	n/a
215.54	0.135	431080	keystroke_s	s	n/a
215.8255	0.135	431651	keystroke_t	t	n/a
216.4855	0.105	432971	keystroke_Key.enter	Key.enter	n/a
216.5945	7.0925	433189	prompt	n/a	leaf priority it while\n
217.3255	0.165	434651	keystroke_l	l	n/a
217.4755	0.09	434951	keystroke_e	e	n/a
217.7305	0.09	435461	keystroke_a	a	n/a
218.0005	0.12	436001	keystroke_d	d	n/a
218.1355	0.1045	436271	keystroke_Key.space	Key.space	n/a
218.7055	0.045	437411	keystroke_Key.backspace	Key.backspace	n/a
218.8555	0.105	437711	keystroke_Key.backspace	Key.backspace	n/a
219.02	0.135	438040	keystroke_f	f	n/a
219.185	0.15	438370	keystroke_Key.space	Key.space	n/a
219.605	0.1655	439210	keystroke_p	p	n/a
219.755	0.105	439510	keystroke_r	r	n/a
220.265	0.166	440530	keystroke_i	i	n/a
220.386	0.15	440772	keystroke_o	o	n/a
220.551	0.1945	441102	keystroke_r	r	n/a
220.6555	0.15	441311	keystroke_i	i	n/a
220.8805	0.1495	441761	keystroke_t	t	n/a
221.12	0.12	442240	keystroke_y	y	n/a
221.225	0.135	442450	keystroke_Key.space	Key.space	n/a
221.675	0.135	443350	keystroke_i	i	n/a
221.855	0.15	443710	keystroke_t	t	n/a
222.02	0.12	444040	keystroke_Key.space	Key.space	n/a
222.5	0.1505	445000	keystroke_w	w	n/a
222.6355	0.165	445271	keystroke_h	h	n/a
222.6955	0.27	445391	keystroke_i	i	n/a
222.9055	0.195	445811	keystroke_l	l	n/a
223.0705	0.105	446141	keystroke_e	e	n/a
223.5655	0.12	447131	keystroke_Key.enter	Key.enter	n/a
223.6895	8.878	447379	prompt	n/a	elected shooting hypothesis nicole\n
224.4655	0.105	448931	keystroke_e	e	n/a
224.5555	0.1645	449111	keystroke_l	l	n/a
224.676	0.104	449352	keystroke_e	e	n/a
224.916	0.09	449832	keystroke_c	c	n/a
225.1855	0.075	450371	keystroke_t	t	n/a
225.395	0.09	450790	keystroke_e	e	n/a
225.575	0.105	451150	keystroke_d	d	n/a
225.71	0.15	451420	keystroke_Key.space	Key.space	n/a
225.861	0.119	451722	keystroke_s	s	n/a
225.995	0.12	451990	keystroke_h	h	n/a
226.22	0.09	452440	keystroke_o	o	n/a
226.355	0.1805	452710	keystroke_o	o	n/a
226.475	0.1655	452950	keystroke_t	t	n/a
226.655	0.2255	453310	keystroke_i	i	n/a
226.775	0.2705	453550	keystroke_n	n	n/a
226.8955	0.135	453791	keystroke_g	g	n/a
227.0605	0.135	454121	keystroke_Key.space	Key.space	n/a
227.4655	0.18	454931	keystroke_h	h	n/a
227.5855	0.12	455171	keystroke_y	y	n/a
227.871	0.134	455742	keystroke_p	p	n/a
228.05	0.135	456100	keystroke_e	e	n/a
228.305	0.105	456610	keystroke_o	o	n/a
228.785	0.0605	457570	keystroke_Key.backspace	Key.backspace	n/a
229.0405	0.0895	458081	keystroke_Key.backspace	Key.backspace	n/a
229.385	0.12	458770	keystroke_o	o	n/a
229.55	0.12	459100	keystroke_t	t	n/a
229.7	0.135	459400	keystroke_h	h	n/a
229.88	0.105	459760	keystroke_e	e	n/a
230.15	0.105	460300	keystroke_s	s	n/a
230.3	0.135	460600	keystroke_i	i	n/a
230.42	0.105	460840	keystroke_s	s	n/a
230.57	0.121	461140	keystroke_Key.space	Key.space	n/a
231.3655	0.24	462731	keystroke_n	n	n/a
231.5155	0.195	463031	keystroke_i	i	n/a
231.6505	0.15	463301	keystroke_c	c	n/a
231.8015	0.104	463603	keystroke_o	o	n/a
232.0105	0.09	464021	keystroke_l	l	n/a
232.1015	0.149	464203	keystroke_e	e	n/a
232.4605	0.105	464921	keystroke_Key.enter	Key.enter	n/a
232.5705	7.362	465141	prompt	n/a	infants apartments perth motels\n
233.2105	0.18	466421	keystroke_i	i	n/a
233.3155	0.165	466631	keystroke_n	n	n/a
233.6005	0.06	467201	keystroke_f	f	n/a
233.8405	0.09	467681	keystroke_a	a	n/a
233.9755	0.135	467951	keystroke_n	n	n/a
234.1255	0.09	468251	keystroke_t	t	n/a
234.3955	0.15	468791	keystroke_s	s	n/a
234.5305	0.1355	469061	keystroke_Key.space	Key.space	n/a
234.7855	0.075	469571	keystroke_a	a	n/a
234.9205	0.165	469841	keystroke_p	p	n/a
235.0405	0.135	470081	keystroke_a	a	n/a
235.3405	0.09	470681	keystroke_r	r	n/a
235.5055	0.09	471011	keystroke_t	t	n/a
235.6555	0.12	471311	keystroke_m	m	n/a
235.7605	0.135	471521	keystroke_e	e	n/a
235.9105	0.12	471821	keystroke_n	n	n/a
236.0155	0.0755	472031	keystroke_t	t	n/a
236.2555	0.135	472511	keystroke_s	s	n/a
236.4055	0.12	472811	keystroke_Key.space	Key.space	n/a
236.6455	0.1355	473291	keystroke_p	p	n/a
236.7655	0.09	473531	keystroke_e	e	n/a
237.036	0.12	474072	keystroke_r	r	n/a
237.276	0.1195	474552	keystroke_t	t	n/a
237.4105	0.12	474821	keystroke_h	h	n/a
237.4855	0.15	474971	keystroke_Key.space	Key.space	n/a
238.191	0.1795	476382	keystroke_m	m	n/a
238.3405	0.225	476681	keystroke_o	o	n/a
238.5355	0.15	477071	keystroke_t	t	n/a
238.7905	0.12	477581	keystroke_e	e	n/a
238.9705	0.135	477941	keystroke_l	l	n/a
239.1805	0.135	478361	keystroke_s	s	n/a
239.8555	0.075	479711	keystroke_Key.enter	Key.enter	n/a
239.935	9.672	479870	prompt	n/a	existing observations dublin wisdom\n
240.7105	0.12	481421	keystroke_e	e	n/a
241.0105	0.105	482021	keystroke_x	x	n/a
241.2805	0.15	482561	keystroke_i	i	n/a
241.4155	0.105	482831	keystroke_s	s	n/a
241.6855	0.09	483371	keystroke_t	t	n/a
241.7905	0.255	483581	keystroke_i	i	n/a
241.9255	0.18	483851	keystroke_n	n	n/a
242.0455	0.105	484091	keystroke_g	g	n/a
242.1805	0.135	484361	keystroke_Key.space	Key.space	n/a
242.5105	0.18	485021	keystroke_o	o	n/a
242.6455	0.165	485291	keystroke_b	b	n/a
242.871	0.09	485742	keystroke_s	s	n/a
243.066	0.0895	486132	keystroke_e	e	n/a
243.2755	0.105	486551	keystroke_r	r	n/a
243.4855	0.105	486971	keystroke_v	v	n/a
243.6055	0.12	487211	keystroke_a	a	n/a
243.8755	0.105	487751	keystroke_t	t	n/a
244.145	0.045	488290	keystroke_i	i	n/a
244.16	0.015	488320	keystroke_u	u	n/a
244.7005	0.105	489401	keystroke_Key.backspace	Key.backspace	n/a
245.2105	0.18	490421	keystroke_o	o	n/a
245.3155	0.225	490631	keystroke_n	n	n/a
245.4655	0.225	490931	keystroke_s	s	n/a
245.6755	0.12	491351	keystroke_Key.space	Key.space	n/a
246.5305	0.1355	493061	keystroke_d	d	n/a
246.621	0.21	493242	keystroke_u	u	n/a
246.771	0.27	493542	keystroke_b	b	n/a
247.086	0.12	494172	keystroke_l	l	n/a
247.401	0.225	494802	keystroke_i	i	n/a
247.551	0.225	495102	keystroke_n	n	n/a
247.731	0.15	495462	keystroke_Key.space	Key.space	n/a
248.406	0.105	496812	keystroke_w	w	n/a
248.526	0.1645	497052	keystroke_i	i	n/a
248.6455	0.105	497291	keystroke_s	s	n/a
248.856	0.165	497712	keystroke_d	d	n/a
249.006	0.24	498012	keystroke_o	o	n/a
249.126	0.165	498252	keystroke_m	m	n/a
249.5005	0.1055	499001	keystroke_Key.enter	Key.enter	n/a
249.6115	6.8355	499223	prompt	n/a	bundle impose constructed ended\n
250.491	0.1495	500982	keystroke_b	b	n/a
250.6105	0.18	501221	keystroke_u	u	n/a
250.7605	0.18	501521	keystroke_n	n	n/a
250.9255	0.135	501851	keystroke_d	d	n/a
251.1055	0.165	502211	keystroke_l	l	n/a
251.2405	0.165	502481	keystroke_e	e	n/a
251.3905	0.12	502781	keystroke_Key.space	Key.space	n/a
251.6155	0.1655	503231	keystroke_i	i	n/a
251.736	0.39	503472	keystroke_m	m	n/a
251.961	0.195	503922	keystroke_p	p	n/a
252.081	0.195	504162	keystroke_o	o	n/a
252.216	0.12	504432	keystroke_s	s	n/a
252.426	0.18	504852	keystroke_e	e	n/a
252.62	0.151	505240	keystroke_Key.space	Key.space	n/a
253.086	0.12	506172	keystroke_c	c	n/a
253.161	0.195	506322	keystroke_o	o	n/a
253.311	0.135	506622	keystroke_n	n	n/a
253.461	0.105	506922	keystroke_s	s	n/a
253.7305	0.075	507461	keystroke_t	t	n/a
253.8805	0.105	507761	keystroke_r	r	n/a
254.1055	0.105	508211	keystroke_u	u	n/a
254.2255	0.12	508451	keystroke_c	c	n/a
254.5105	0.075	509021	keystroke_t	t	n/a
254.7205	0.09	509441	keystroke_e	e	n/a
254.9155	0.135	509831	keystroke_d	d	n/a
255.0355	0.12	510071	keystroke_Key.space	Key.space	n/a
255.2905	0.105	510581	keystroke_e	e	n/a
255.4255	0.135	510851	keystroke_n	n	n/a
255.5605	0.075	511121	keystroke_d	d	n/a
255.7405	0.105	511481	keystroke_e	e	n/a
255.9505	0.135	511901	keystroke_d	d	n/a
256.34	0.1055	512680	keystroke_Key.enter	Key.enter	n/a
256.45	8.397	512900	prompt	n/a	condo employ fatal adequate\n
257.1205	0.09	514241	keystroke_c	c	n/a
257.2705	0.2405	514541	keystroke_o	o	n/a
257.4205	0.1955	514841	keystroke_n	n	n/a
257.586	0.12	515172	keystroke_d	d	n/a
257.781	0.18	515562	keystroke_o	o	n/a
257.915	0.136	515830	keystroke_Key.space	Key.space	n/a
258.3955	0.135	516791	keystroke_e	e	n/a
258.5005	0.255	517001	keystroke_m	m	n/a
258.6955	0.24	517391	keystroke_p	p	n/a
258.8755	0.12	517751	keystroke_l	l	n/a
259.071	0.135	518142	keystroke_o	o	n/a
259.296	0.105	518592	keystroke_y	y	n/a
259.476	0.134	518952	keystroke_Key.space	Key.space	n/a
260.091	0.075	520182	keystroke_f	f	n/a
260.316	0.09	520632	keystroke_a	a	n/a
260.571	0.075	521142	keystroke_t	t	n/a
260.856	0.12	521712	keystroke_a	a	n/a
261.066	0.195	522132	keystroke_l	l	n/a
261.201	0.135	522402	keystroke_Key.space	Key.space	n/a
261.651	0.09	523302	keystroke_a	a	n/a
262.4905	0.075	524981	keystroke_d	d	n/a
262.896	0.06	525792	keystroke_e	e	n/a
263.121	0.1195	526242	keystroke_q	q	n/a
263.3455	0.135	526691	keystroke_u	u	n/a
263.5705	0.105	527141	keystroke_a	a	n/a
263.7355	0.09	527471	keystroke_t	t	n/a
263.9005	0.12	527801	keystroke_e	e	n/a
264.7255	0.12	529451	keystroke_Key.enter	Key.enter	n/a
264.85	6.552	529700	prompt	n/a	thus parent disco hardware\n
265.6105	0.075	531221	keystroke_t	t	n/a
265.7455	0.24	531491	keystroke_h	h	n/a
265.8955	0.195	531791	keystroke_u	u	n/a
266.0305	0.18	532061	keystroke_s	s	n/a
266.2105	0.165	532421	keystroke_Key.space	Key.space	n/a
266.3755	0.195	532751	keystroke_p	p	n/a
266.5405	0.105	533081	keystroke_a	a	n/a
266.8255	0.0745	533651	keystroke_r	r	n/a
267.02	0.076	534040	keystroke_e	e	n/a
267.185	0.1055	534370	keystroke_n	n	n/a
267.3355	0.09	534671	keystroke_t	t	n/a
267.4855	0.12	534971	keystroke_Key.space	Key.space	n/a
268.0555	0.075	536111	keystroke_d	d	n/a
268.1605	0.18	536321	keystroke_i	i	n/a
268.3555	0.09	536711	keystroke_s	s	n/a
268.5955	0.12	537191	keystroke_c	c	n/a
268.7605	0.2105	537521	keystroke_o	o	n/a
268.926	0.1345	537852	keystroke_Key.space	Key.space	n/a
269.4055	0.15	538811	keystroke_h	h	n/a
269.5105	0.1205	539021	keystroke_a	a	n/a
269.796	0.075	539592	keystroke_r	r	n/a
269.9905	0.09	539981	keystroke_d	d	n/a
270.2305	0.06	540461	keystroke_w	w	n/a
270.4255	0.09	540851	keystroke_a	a	n/a
270.6655	0.105	541331	keystroke_r	r	n/a
270.8605	0.12	541721	keystroke_e	e	n/a
271.2955	0.1055	542591	keystroke_Key.enter	Key.enter	n/a
271.406	8.966	542812	prompt	n/a	platforms effective remind fioricet\n
272.136	0.21	544272	keystroke_p	p	n/a
272.256	0.18	544512	keystroke_l	l	n/a
272.541	0.09	545082	keystroke_a	a	n/a
272.826	0.09	545652	keystroke_t	t	n/a
273.006	0.135	546012	keystroke_f	f	n/a
273.156	0.15	546312	keystroke_o	o	n/a
273.246	0.135	546492	keystroke_r	r	n/a
273.456	0.18	546912	keystroke_m	m	n/a
273.621	0.195	547242	keystroke_s	s	n/a
273.726	0.135	547452	keystroke_Key.space	Key.space	n/a
274.161	0.09	548322	keystroke_e	e	n/a
274.386	0.075	548772	keystroke_f	f	n/a
274.506	0.105	549012	keystroke_f	f	n/a
274.731	0.09	549462	keystroke_e	e	n/a
274.941	0.09	549882	keystroke_c	c	n/a
275.136	0.09	550272	keystroke_t	t	n/a
275.286	0.12	550572	keystroke_i	i	n/a
275.436	0.075	550872	keystroke_v	v	n/a
275.706	0.09	551412	keystroke_e	e	n/a
275.841	0.12	551682	keystroke_Key.space	Key.space	n/a
276.231	0.075	552462	keystroke_r	r	n/a
276.411	0.105	552822	keystroke_e	e	n/a
276.546	0.18	553092	keystroke_m	m	n/a
276.696	0.2395	553392	keystroke_i	i	n/a
276.8605	0.165	553721	keystroke_n	n	n/a
276.9655	0.18	553931	keystroke_d	d	n/a
277.1155	0.12	554231	keystroke_Key.space	Key.space	n/a
278.1505	0.09	556301	keystroke_f	f	n/a
278.346	0.24	556692	keystroke_i	i	n/a
278.511	0.225	557022	keystroke_o	o	n/a
278.706	0.135	557412	keystroke_r	r	n/a
279.051	0.165	558102	keystroke_i	i	n/a
279.411	0.075	558822	keystroke_c	c	n/a
279.606	0.089	559212	keystroke_e	e	n/a
279.861	0.09	559722	keystroke_t	t	n/a
280.265	0.105	560530	keystroke_Key.enter	Key.enter	n/a
280.3755	8.082	560751	prompt	n/a	offices champagne cultures tablet\n
281.0455	0.12	562091	keystroke_o	o	n/a
281.1805	0.09	562361	keystroke_f	f	n/a
281.3305	0.105	562661	keystroke_f	f	n/a
281.4805	0.165	562961	keystroke_i	i	n/a
281.6305	0.075	563261	keystroke_c	c	n/a
281.8555	0.0895	563711	keystroke_e	e	n/a
282.11	0.1355	564220	keystroke_s	s	n/a
282.23	0.1355	564460	keystroke_Key.space	Key.space	n/a
282.6505	0.09	565301	keystroke_c	c	n/a
282.7855	0.105	565571	keystroke_h	h	n/a
282.9955	0.15	565991	keystroke_a	a	n/a
283.1305	0.195	566261	keystroke_m	m	n/a
283.2805	0.165	566561	keystroke_p	p	n/a
283.4305	0.165	566861	keystroke_a	a	n/a
283.5955	0.105	567191	keystroke_g	g	n/a
283.821	0.15	567642	keystroke_n	n	n/a
283.9405	0.1805	567881	keystroke_e	e	n/a
284.121	0.1345	568242	keystroke_Key.space	Key.space	n/a
284.8855	0.0905	569771	keystroke_c	c	n/a
285.036	0.21	570072	keystroke_u	u	n/a
285.231	0.225	570462	keystroke_l	l	n/a
285.426	0.105	570852	keystroke_t	t	n/a
285.6205	0.135	571241	keystroke_u	u	n/a
285.7855	0.09	571571	keystroke_r	r	n/a
285.9955	0.09	571991	keystroke_e	e	n/a
286.2355	0.09	572471	keystroke_s	s	n/a
286.3405	0.135	572681	keystroke_Key.space	Key.space	n/a
287.1055	0.105	574211	keystroke_t	t	n/a
287.3915	0.149	574783	keystroke_a	a	n/a
287.5415	0.164	575083	keystroke_b	b	n/a
287.6455	0.15	575291	keystroke_l	l	n/a
287.7655	0.105	575531	keystroke_e	e	n/a
288.0205	0.12	576041	keystroke_t	t	n/a
288.3355	0.12	576671	keystroke_Key.enter	Key.enter	n/a
288.461	5.2315	576922	prompt	n/a	fraction tiles thus hong\n
289.2205	0.0605	578441	keystroke_f	f	n/a
289.386	0.075	578772	keystroke_r	r	n/a
289.641	0.075	579282	keystroke_a	a	n/a
289.866	0.06	579732	keystroke_c	c	n/a
290.076	0.09	580152	keystroke_t	t	n/a
290.1805	0.24	580361	keystroke_i	i	n/a
290.3905	0.2555	580781	keystroke_o	o	n/a
290.541	0.225	581082	keystroke_n	n	n/a
290.661	0.165	581322	keystroke_Key.space	Key.space	n/a
290.871	0.135	581742	keystroke_t	t	n/a
291.021	0.195	582042	keystroke_i	i	n/a
291.156	0.225	582312	keystroke_l	l	n/a
291.291	0.135	582582	keystroke_e	e	n/a
291.5305	0.12	583061	keystroke_s	s	n/a
291.6805	0.1055	583361	keystroke_Key.space	Key.space	n/a
291.831	0.105	583662	keystroke_t	t	n/a
291.981	0.195	583962	keystroke_h	h	n/a
292.116	0.18	584232	keystroke_u	u	n/a
292.266	0.18	584532	keystroke_s	s	n/a
292.416	0.105	584832	keystroke_Key.space	Key.space	n/a
292.761	0.105	585522	keystroke_h	h	n/a
292.836	0.2095	585672	keystroke_o	o	n/a
293.001	0.1495	586002	keystroke_n	n	n/a
293.1055	0.1655	586211	keystroke_g	g	n/a
293.5855	0.105	587171	keystroke_Key.enter	Key.enter	n/a
293.695	6.807	587390	prompt	n/a	cabin raid steven villas\n
294.4105	0.1045	588821	keystroke_c	c	n/a
294.666	0.1795	589332	keystroke_a	a	n/a
294.801	0.1645	589602	keystroke_b	b	n/a
294.9355	0.255	589871	keystroke_i	i	n/a
295.1155	0.27	590231	keystroke_n	n	n/a
295.2955	0.18	590591	keystroke_Key.space	Key.space	n/a
295.7305	0.075	591461	keystroke_r	r	n/a
295.9555	0.12	591911	keystroke_a	a	n/a
296.1205	0.135	592241	keystroke_i	i	n/a
296.3005	0.105	592601	keystroke_d	d	n/a
296.4505	0.135	592901	keystroke_Key.space	Key.space	n/a
296.6305	0.105	593261	keystroke_s	s	n/a
296.9005	0.06	593801	keystroke_t	t	n/a
297.1405	0.09	594281	keystroke_e	e	n/a
297.2905	0.09	594581	keystroke_v	v	n/a
297.3655	0.24	594731	keystroke_e	e	n/a
297.5905	0.225	595181	keystroke_n	n	n/a
297.7705	0.15	595541	keystroke_Key.space	Key.space	n/a
298.0405	0.12	596081	keystroke_c	c	n/a
298.1905	0.12	596381	keystroke_i	i	n/a
298.791	0.06	597582	keystroke_Key.backspace	Key.backspace	n/a
298.941	0.105	597882	keystroke_Key.backspace	Key.backspace	n/a
299.106	0.105	598212	keystroke_v	v	n/a
299.271	0.12	598542	keystroke_i	i	n/a
299.4955	0.09	598991	keystroke_l	l	n/a
299.6455	0.12	599291	keystroke_l	l	n/a
299.7655	0.135	599531	keystroke_a	a	n/a
299.976	0.15	599952	keystroke_s	s	n/a
300.411	0.089	600822	keystroke_Key.enter	Key.enter	n/a
300.505	7.917	601010	prompt	n/a	aging victoria preliminary actor\n
301.1905	0.181	602381	keystroke_a	a	n/a
301.4005	0.15	602801	keystroke_g	g	n/a
301.5355	0.286	603071	keystroke_i	i	n/a
301.7155	0.33	603431	keystroke_n	n	n/a
301.8665	0.165	603733	keystroke_g	g	n/a
302.0605	0.165	604121	keystroke_Key.space	Key.space	n/a
302.5255	0.091	605051	keystroke_v	v	n/a
302.6615	0.1795	605323	keystroke_i	i	n/a
302.886	0.075	605772	keystroke_c	c	n/a
303.141	0.09	606282	keystroke_t	t	n/a
303.276	0.135	606552	keystroke_o	o	n/a
303.366	0.12	606732	keystroke_r	r	n/a
303.546	0.165	607092	keystroke_i	i	n/a
303.726	0.21	607452	keystroke_a	a	n/a
303.906	0.12	607812	keystroke_Key.space	Key.space	n/a
304.446	0.15	608892	keystroke_p	p	n/a
304.641	0.105	609282	keystroke_r	r	n/a
304.866	0.12	609732	keystroke_e	e	n/a
305.016	0.225	610032	keystroke_l	l	n/a
305.196	0.18	610392	keystroke_i	i	n/a
305.346	0.24	610692	keystroke_m	m	n/a
305.526	0.255	611052	keystroke_i	i	n/a
305.691	0.225	611382	keystroke_n	n	n/a
305.901	0.09	611802	keystroke_a	a	n/a
306.2755	0.165	612551	keystroke_r	r	n/a
306.4255	0.15	612851	keystroke_y	y	n/a
306.756	0.12	613512	keystroke_Key.space	Key.space	n/a
307.176	0.12	614352	keystroke_a	a	n/a
307.431	0.075	614862	keystroke_c	c	n/a
307.671	0.075	615342	keystroke_t	t	n/a
307.806	0.135	615612	keystroke_o	o	n/a
307.941	0.09	615882	keystroke_r	r	n/a
308.375	0.045	616750	keystroke_Key.enter	Key.enter	n/a
308.425	7.242	616850	prompt	n/a	chat performing formation budapest\n
309.216	0.09	618432	keystroke_c	c	n/a
309.336	0.12	618672	keystroke_h	h	n/a
309.5305	0.18	619061	keystroke_a	a	n/a
309.6655	0.15	619331	keystroke_t	t	n/a
309.7855	0.12	619571	keystroke_Key.space	Key.space	n/a
310.1305	0.15	620261	keystroke_p	p	n/a
310.3105	0.106	620621	keystroke_e	e	n/a
310.4905	0.09	620981	keystroke_r	r	n/a
310.701	0.09	621402	keystroke_f	f	n/a
310.806	0.12	621612	keystroke_o	o	n/a
310.941	0.1045	621882	keystroke_r	r	n/a
311.1055	0.18	622211	keystroke_m	m	n/a
311.2405	0.225	622481	keystroke_i	i	n/a
311.4205	0.285	622841	keystroke_n	n	n/a
311.5555	0.18	623111	keystroke_g	g	n/a
311.7205	0.135	623441	keystroke_Key.space	Key.space	n/a
312.0205	0.105	624041	keystroke_f	f	n/a
312.1405	0.165	624281	keystroke_o	o	n/a
312.2455	0.105	624491	keystroke_r	r	n/a
312.4555	0.15	624911	keystroke_m	m	n/a
312.5755	0.1205	625151	keystroke_a	a	n/a
312.921	0.105	625842	keystroke_t	t	n/a
313.041	0.24	626082	keystroke_i	i	n/a
313.206	0.285	626412	keystroke_o	o	n/a
313.386	0.195	626772	keystroke_n	n	n/a
313.506	0.164	627012	keystroke_Key.space	Key.space	n/a
313.806	0.2245	627612	keystroke_b	b	n/a
313.9555	0.165	627911	keystroke_u	u	n/a
314.1055	0.105	628211	keystroke_d	d	n/a
314.3305	0.12	628661	keystroke_a	a	n/a
314.4955	0.12	628991	keystroke_p	p	n/a
314.645	0.091	629290	keystroke_e	e	n/a
314.8555	0.0895	629711	keystroke_s	s	n/a
315.1405	0.06	630281	keystroke_t	t	n/a
315.5305	0.135	631061	keystroke_Key.enter	Key.enter	n/a
315.6695	10.4825	631339	prompt	n/a	photographs languages possess ribbon\n
316.3705	0.18	632741	keystroke_p	p	n/a
316.5355	0.2555	633071	keystroke_h	h	n/a
316.746	0.225	633492	keystroke_o	o	n/a
316.9105	0.1045	633821	keystroke_t	t	n/a
317.3455	0.1505	634691	keystroke_o	o	n/a
317.9455	0.135	635891	keystroke_g	g	n/a
318.0655	0.105	636131	keystroke_r	r	n/a
318.3505	0.135	636701	keystroke_a	a	n/a
318.5005	0.24	637001	keystroke_p	p	n/a
318.6805	0.195	637361	keystroke_h	h	n/a
318.8155	0.195	637631	keystroke_s	s	n/a
319.1455	0.285	638291	keystroke_Key.space	Key.space	n/a
319.4005	0.21	638801	keystroke_l	l	n/a
319.5805	0.21	639161	keystroke_a	a	n/a
319.9555	0.165	639911	keystroke_n	n	n/a
320.2555	0.195	640511	keystroke_g	g	n/a
320.4055	0.18	640811	keystroke_u	u	n/a
320.5105	0.195	641021	keystroke_a	a	n/a
320.6755	0.135	641351	keystroke_g	g	n/a
320.856	0.1495	641712	keystroke_s	s	n/a
321.4105	0.1205	642821	keystroke_Key.backspace	Key.backspace	n/a
321.531	0.12	643062	keystroke_e	e	n/a
321.726	0.15	643452	keystroke_d	d	n/a
321.891	0.105	643782	keystroke_Key.space	Key.space	n/a
322.281	0.06	644562	keystroke_Key.backspace	Key.backspace	n/a
322.431	0.09	644862	keystroke_Key.backspace	Key.backspace	n/a
322.566	0.135	645132	keystroke_s	s	n/a
322.671	0.135	645342	keystroke_Key.space	Key.space	n/a
323.3765	0.179	646753	keystroke_p	p	n/a
323.5105	0.165	647021	keystroke_o	o	n/a
323.6605	0.1055	647321	keystroke_s	s	n/a
323.841	0.1345	647682	keystroke_s	s	n/a
324.2155	0.09	648431	keystroke_e	e	n/a
324.4555	0.0755	648911	keystroke_s	s	n/a
324.606	0.12	649212	keystroke_s	s	n/a
324.741	0.105	649482	keystroke_Key.space	Key.space	n/a
324.9805	0.12	649961	keystroke_r	r	n/a
325.0705	0.1505	650141	keystroke_i	i	n/a
325.251	0.09	650502	keystroke_b	b	n/a
325.431	0.12	650862	keystroke_b	b	n/a
325.566	0.225	651132	keystroke_o	o	n/a
325.746	0.12	651492	keystroke_n	n	n/a
326.031	0.12	652062	keystroke_Key.enter	Key.enter	n/a
326.1565	8.516	652313	prompt	n/a	governing ignored oscar profits\n
327.036	0.075	654072	keystroke_g	g	n/a
327.141	0.15	654282	keystroke_o	o	n/a
327.261	0.09	654522	keystroke_v	v	n/a
327.516	0.045	655032	keystroke_e	e	n/a
327.666	0.075	655332	keystroke_r	r	n/a
327.786	0.165	655572	keystroke_n	n	n/a
327.936	0.2245	655872	keystroke_i	i	n/a
328.1005	0.195	656201	keystroke_n	n	n/a
328.2055	0.135	656411	keystroke_g	g	n/a
328.3705	0.195	656741	keystroke_Key.space	Key.space	n/a
328.686	0.135	657372	keystroke_i	i	n/a
328.8655	0.09	657731	keystroke_f	f	n/a
329.2105	0.0755	658421	keystroke_Key.backspace	Key.backspace	n/a
329.361	0.09	658722	keystroke_g	g	n/a
329.511	0.195	659022	keystroke_n	n	n/a
329.661	0.21	659322	keystroke_o	o	n/a
329.796	0.12	659592	keystroke_r	r	n/a
330.066	0.15	660132	keystroke_a	a	n/a
330.441	0.105	660882	keystroke_Key.backspace	Key.backspace	n/a
330.531	0.105	661062	keystroke_e	e	n/a
330.726	0.1795	661452	keystroke_d	d	n/a
330.8905	0.135	661781	keystroke_Key.space	Key.space	n/a
331.206	0.1345	662412	keystroke_o	o	n/a
331.8505	0.075	663701	keystroke_s	s	n/a
332.0305	0.075	664061	keystroke_c	c	n/a
332.2705	0.09	664541	keystroke_a	a	n/a
332.4955	0.12	664991	keystroke_r	r	n/a
332.6455	0.105	665291	keystroke_Key.space	Key.space	n/a
332.9005	0.1355	665801	keystroke_p	p	n/a
333.021	0.12	666042	keystroke_r	r	n/a
333.156	0.15	666312	keystroke_o	o	n/a
333.291	0.105	666582	keystroke_f	f	n/a
333.426	0.15	666852	keystroke_i	i	n/a
333.606	0.1195	667212	keystroke_t	t	n/a
333.891	0.12	667782	keystroke_s	s	n/a
334.536	0.135	669072	keystroke_Key.enter	Key.enter	n/a
334.6755	9.972	669351	prompt	n/a	gordon suppliers passage butter\n
335.526	0.09	671052	keystroke_g	g	n/a
335.661	0.165	671322	keystroke_o	o	n/a
335.781	0.09	671562	keystroke_r	r	n/a
336.006	0.1195	672012	keystroke_d	d	n/a
336.1415	0.239	672283	keystroke_o	o	n/a
336.3205	0.24	672641	keystroke_n	n	n/a
336.4555	0.135	672911	keystroke_Key.space	Key.space	n/a
336.7555	0.105	673511	keystroke_s	s	n/a
336.8905	0.165	673781	keystroke_u	u	n/a
337.0105	0.12	674021	keystroke_b	b	n/a
337.551	0.06	675102	keystroke_Key.backspace	Key.backspace	n/a
337.701	0.105	675402	keystroke_Key.backspace	Key.backspace	n/a
338.8415	0.119	677683	keystroke_u	u	n/a
339.0655	0.105	678131	keystroke_p	p	n/a
339.2305	0.105	678461	keystroke_p	p	n/a
339.4105	0.105	678821	keystroke_l	l	n/a
339.6205	0.136	679241	keystroke_i	i	n/a
339.7405	0.09	679481	keystroke_e	e	n/a
339.9205	0.09	679841	keystroke_r	r	n/a
340.2205	0.12	680441	keystroke_s	s	n/a
340.3555	0.135	680711	keystroke_Key.space	Key.space	n/a
340.896	0.165	681792	keystroke_p	p	n/a
341.031	0.15	682062	keystroke_a	a	n/a
341.376	0.105	682752	keystroke_s	s	n/a
341.571	0.09	683142	keystroke_s	s	n/a
341.766	0.12	683532	keystroke_a	a	n/a
341.916	0.09	683832	keystroke_g	g	n/a
342.051	0.15	684102	keystroke_e	e	n/a
342.216	0.09	684432	keystroke_Key.space	Key.space	n/a
342.456	0.195	684912	keystroke_b	b	n/a
342.591	0.165	685182	keystroke_u	u	n/a
342.726	0.105	685452	keystroke_t	t	n/a
342.891	0.1045	685782	keystroke_t	t	n/a
343.1755	0.09	686351	keystroke_e	e	n/a
343.4005	0.09	686801	keystroke_e	e	n/a
343.9855	0.06	687971	keystroke_Key.backspace	Key.backspace	n/a
344.1505	0.09	688301	keystroke_r	r	n/a
344.5705	0.075	689141	keystroke_Key.enter	Key.enter	n/a
344.65	13.6625	689300	prompt	n/a	personnel asia agricultural spaces\n
345.4405	0.255	690881	keystroke_o	o	n/a
345.5455	0.105	691091	keystroke_e	e	n/a
345.7255	0.09	691451	keystroke_r	r	n/a
345.9655	0.135	691931	keystroke_s	s	n/a
346.2655	0.1805	692531	keystroke_o	o	n/a
346.416	0.195	692832	keystroke_n	n	n/a
347.0005	0.075	694001	keystroke_Key.backspace	Key.backspace	n/a
347.2405	0.06	694481	keystroke_Key.backspace	Key.backspace	n/a
347.4355	0.075	694871	keystroke_Key.backspace	Key.backspace	n/a
347.6305	0.0755	695261	keystroke_Key.backspace	Key.backspace	n/a
347.841	0.09	695682	keystroke_Key.backspace	Key.backspace	n/a
348.096	0.075	696192	keystroke_Key.backspace	Key.backspace	n/a
348.786	0.165	697572	keystroke_p	p	n/a
348.891	0.105	697782	keystroke_e	e	n/a
349.101	0.09	698202	keystroke_r	r	n/a
349.356	0.12	698712	keystroke_s	s	n/a
349.416	0.2395	698832	keystroke_o	o	n/a
349.5955	0.12	699191	keystroke_n	n	n/a
349.7755	0.15	699551	keystroke_n	n	n/a
349.9555	0.21	699911	keystroke_e	e	n/a
350.1205	0.18	700241	keystroke_l	l	n/a
350.2855	0.165	700571	keystroke_Key.space	Key.space	n/a
350.6155	0.15	701231	keystroke_a	a	n/a
350.7805	0.1205	701561	keystroke_s	s	n/a
350.976	0.12	701952	keystroke_a	a	n/a
351.081	0.09	702162	keystroke_i	i	n/a
351.681	0.075	703362	keystroke_Key.backspace	Key.backspace	n/a
351.861	0.075	703722	keystroke_Key.backspace	Key.backspace	n/a
352.101	0.1045	704202	keystroke_i	i	n/a
352.191	0.1345	704382	keystroke_a	a	n/a
352.341	0.0745	704682	keystroke_Key.space	Key.space	n/a
352.9265	0.075	705853	keystroke_a	a	n/a
353.2115	0.075	706423	keystroke_g	g	n/a
353.4065	0.105	706813	keystroke_r	r	n/a
353.5255	0.106	707051	keystroke_i	i	n/a
353.6915	0.12	707383	keystroke_c	c	n/a
353.8115	0.09	707623	keystroke_u	u	n/a
354.0215	0.15	708043	keystroke_l	l	n/a
354.1865	0.135	708373	keystroke_t	t	n/a
354.3365	0.1495	708673	keystroke_u	u	n/a
354.681	0.18	709362	keystroke_a	a	n/a
355.356	0.075	710712	keystroke_Key.backspace	Key.backspace	n/a
356.1505	0.075	712301	keystroke_r	r	n/a
356.3005	0.15	712601	keystroke_a	a	n/a
356.3905	0.225	712781	keystroke_l	l	n/a
356.5405	0.135	713081	keystroke_Key.space	Key.space	n/a
356.7355	0.1205	713471	keystroke_s	s	n/a
356.916	0.165	713832	keystroke_p	p	n/a
357.051	0.105	714102	keystroke_a	a	n/a
357.2755	0.075	714551	keystroke_c	c	n/a
357.4855	0.09	714971	keystroke_e	e	n/a
357.7105	0.12	715421	keystroke_s	s	n/a
358.2055	0.105	716411	keystroke_Key.enter	Key.enter	n/a
358.3155	7.437	716631	prompt	n/a	among attach killed christians\n
359.1805	0.15	718361	keystroke_a	a	n/a
359.3455	0.135	718691	keystroke_m	m	n/a
359.4205	0.27	718841	keystroke_o	o	n/a
359.6455	0.285	719291	keystroke_n	n	n/a
359.7805	0.12	719561	keystroke_g	g	n/a
359.9455	0.135	719891	keystroke_Key.space	Key.space	n/a
360.2755	0.09	720551	keystroke_a	a	n/a
360.5755	0.09	721151	keystroke_t	t	n/a
360.7105	0.105	721421	keystroke_t	t	n/a
361.011	0.06	722022	keystroke_a	a	n/a
361.281	0.09	722562	keystroke_c	c	n/a
361.446	0.15	722892	keystroke_h	h	n/a
361.566	0.12	723132	keystroke_Key.space	Key.space	n/a
361.881	0.105	723762	keystroke_k	k	n/a
362.076	0.105	724152	keystroke_i	i	n/a
362.286	0.075	724572	keystroke_l	l	n/a
362.436	0.15	724872	keystroke_l	l	n/a
362.541	0.12	725082	keystroke_e	e	n/a
362.766	0.1345	725532	keystroke_d	d	n/a
362.931	0.12	725862	keystroke_Key.space	Key.space	n/a
363.501	0.09	727002	keystroke_c	c	n/a
363.621	0.1345	727242	keystroke_h	h	n/a
363.7855	0.09	727571	keystroke_r	r	n/a
363.9205	0.1055	727841	keystroke_i	i	n/a
364.0715	0.075	728143	keystroke_s	s	n/a
364.4015	0.03	728803	keystroke_t	t	n/a
364.7165	0.105	729433	keystroke_i	i	n/a
364.8815	0.135	729763	keystroke_a	a	n/a
365.0615	0.105	730123	keystroke_n	n	n/a
365.1365	0.15	730273	keystroke_s	s	n/a
365.6315	0.119	731263	keystroke_Key.enter	Key.enter	n/a
365.7555	8.922	731511	prompt	n/a	sunday download sensor resolved\n
366.5155	0.1205	733031	keystroke_s	s	n/a
366.651	0.15	733302	keystroke_u	u	n/a
366.741	0.1655	733482	keystroke_n	n	n/a
366.8615	0.089	733723	keystroke_d	d	n/a
367.0865	0.195	734173	keystroke_a	a	n/a
367.2365	0.15	734473	keystroke_y	y	n/a
367.3265	0.18	734653	keystroke_Key.space	Key.space	n/a
369.231	0.09	738462	keystroke_d	d	n/a
369.306	0.03	738612	keystroke_o	o	n/a
369.351	0.09	738702	keystroke_w	w	n/a
369.456	0.18	738912	keystroke_n	n	n/a
369.651	0.075	739302	keystroke_l	l	n/a
369.831	0.12	739662	keystroke_o	o	n/a
369.936	0.075	739872	keystroke_a	a	n/a
370.146	0.1055	740292	keystroke_d	d	n/a
370.2665	0.12	740533	keystroke_Key.space	Key.space	n/a
370.7455	0.09	741491	keystroke_s	s	n/a
370.9705	0.09	741941	keystroke_e	e	n/a
371.1205	0.105	742241	keystroke_n	n	n/a
371.2555	0.135	742511	keystroke_s	s	n/a
371.4055	0.135	742811	keystroke_o	o	n/a
371.5855	0.136	743171	keystroke_r	r	n/a
371.7055	0.12	743411	keystroke_Key.space	Key.space	n/a
371.9605	0.075	743921	keystroke_r	r	n/a
372.2305	0.06	744461	keystroke_e	e	n/a
372.5005	0.105	745001	keystroke_s	s	n/a
372.7115	0.075	745423	keystroke_o	o	n/a
372.8615	0.195	745723	keystroke_l	l	n/a
372.9815	0.06	745963	keystroke_v	v	n/a
373.506	0.1055	747012	keystroke_e	e	n/a
373.7465	0.09	747493	keystroke_d	d	n/a
374.6015	0.075	749203	keystroke_Key.enter	Key.enter	n/a
374.6805	8.637	749361	prompt	n/a	bristol journalist decision paraguay\n
375.501	0.1205	751002	keystroke_b	b	n/a
375.6065	0.12	751213	keystroke_r	r	n/a
375.7715	0.135	751543	keystroke_i	i	n/a
375.9365	0.104	751873	keystroke_s	s	n/a
376.2055	0.12	752411	keystroke_t	t	n/a
376.3405	0.12	752681	keystroke_o	o	n/a
376.6105	0.075	753221	keystroke_l	l	n/a
377.121	0.09	754242	keystroke_Key.space	Key.space	n/a
377.751	0.2255	755502	keystroke_j	j	n/a
377.8565	0.2245	755713	keystroke_o	o	n/a
377.9765	0.1645	755953	keystroke_u	u	n/a
378.111	0.105	756222	keystroke_r	r	n/a
378.246	0.15	756492	keystroke_n	n	n/a
378.4565	0.1345	756913	keystroke_a	a	n/a
378.606	0.135	757212	keystroke_l	l	n/a
378.801	0.1205	757602	keystroke_i	i	n/a
378.891	0.105	757782	keystroke_s	s	n/a
379.206	0.09	758412	keystroke_t	t	n/a
379.3865	0.12	758773	keystroke_Key.space	Key.space	n/a
380.061	0.075	760122	keystroke_d	d	n/a
380.2565	0.0745	760513	keystroke_e	e	n/a
380.5415	0.075	761083	keystroke_c	c	n/a
380.6315	0.15	761263	keystroke_i	i	n/a
380.8115	0.18	761623	keystroke_s	s	n/a
380.9165	0.15	761833	keystroke_i	i	n/a
381.0515	0.255	762103	keystroke_o	o	n/a
381.2165	0.15	762433	keystroke_n	n	n/a
381.2915	0.15	762583	keystroke_Key.space	Key.space	n/a
381.5765	0.135	763153	keystroke_p	p	n/a
381.7265	0.1195	763453	keystroke_a	a	n/a
382.011	0.06	764022	keystroke_r	r	n/a
382.251	0.105	764502	keystroke_a	a	n/a
382.341	0.18	764682	keystroke_g	g	n/a
382.461	0.1805	764922	keystroke_u	u	n/a
382.6265	0.195	765253	keystroke_a	a	n/a
382.7915	0.1045	765583	keystroke_y	y	n/a
383.1965	0.12	766393	keystroke_Key.enter	Key.enter	n/a
383.3205	10.842	766641	prompt	n/a	association behavioral suppose what're\n
383.9315	0.12	767863	keystroke_a	a	n/a
384.1865	0.06	768373	keystroke_s	s	n/a
384.3365	0.12	768673	keystroke_s	s	n/a
384.5015	0.135	769003	keystroke_o	o	n/a
384.6665	0.09	769333	keystroke_c	c	n/a
384.7715	0.1195	769543	keystroke_i	i	n/a
384.921	0.09	769842	keystroke_a	a	n/a
385.206	0.075	770412	keystroke_t	t	n/a
385.296	0.15	770592	keystroke_i	i	n/a
385.401	0.27	770802	keystroke_o	o	n/a
385.566	0.195	771132	keystroke_n	n	n/a
385.701	0.135	771402	keystroke_Key.space	Key.space	n/a
386.001	0.15	772002	keystroke_b	b	n/a
386.196	0.1495	772392	keystroke_e	e	n/a
386.4205	0.076	772841	keystroke_g	g	n/a
386.8105	0.105	773621	keystroke_Key.backspace	Key.backspace	n/a
387.0665	0.104	774133	keystroke_h	h	n/a
387.2015	0.164	774403	keystroke_a	a	n/a
387.3215	0.104	774643	keystroke_v	v	n/a
387.6355	0.195	775271	keystroke_i	i	n/a
387.7855	0.165	775571	keystroke_o	o	n/a
387.9055	0.121	775811	keystroke_r	r	n/a
388.1765	0.164	776353	keystroke_a	a	n/a
388.3265	0.2545	776653	keystroke_l	l	n/a
388.5055	0.1655	777011	keystroke_Key.space	Key.space	n/a
388.851	0.1505	777702	keystroke_s	s	n/a
389.0315	0.105	778063	keystroke_u	u	n/a
389.2715	0.075	778543	keystroke_p	p	n/a
389.4365	0.15	778873	keystroke_p	p	n/a
389.5565	0.165	779113	keystroke_o	o	n/a
389.7365	0.15	779473	keystroke_r	r	n/a
390.1565	0.09	780313	keystroke_Key.backspace	Key.backspace	n/a
390.2915	0.135	780583	keystroke_s	s	n/a
390.5015	0.15	781003	keystroke_e	e	n/a
390.6665	0.15	781333	keystroke_Key.space	Key.space	n/a
391.2065	0.1345	782413	keystroke_w	w	n/a
391.326	0.15	782652	keystroke_h	h	n/a
391.461	0.09	782922	keystroke_a	a	n/a
391.731	0.12	783462	keystroke_t	t	n/a
391.881	0.12	783762	keystroke_'	'	n/a
392.511	0.15	785022	keystroke_e	e	n/a
393.066	0.075	786132	keystroke_Key.backspace	Key.backspace	n/a
393.186	0.12	786372	keystroke_r	r	n/a
393.411	0.135	786822	keystroke_e	e	n/a
394.041	0.12	788082	keystroke_Key.enter	Key.enter	n/a
394.1655	8.487	788331	prompt	n/a	stylus generations consolidation allowing\n
394.8965	0.1045	789793	keystroke_s	s	n/a
395.166	0.09	790332	keystroke_t	t	n/a
395.361	0.0905	790722	keystroke_y	y	n/a
395.4965	0.105	790993	keystroke_l	l	n/a
395.7065	0.09	791413	keystroke_u	u	n/a
395.8415	0.135	791683	keystroke_s	s	n/a
395.9905	0.121	791981	keystroke_Key.space	Key.space	n/a
396.3815	0.105	792763	keystroke_g	g	n/a
396.5015	0.135	793003	keystroke_e	e	n/a
396.6515	0.105	793303	keystroke_n	n	n/a
396.7115	0.12	793423	keystroke_e	e	n/a
396.906	0.105	793812	keystroke_r	r	n/a
397.146	0.12	794292	keystroke_a	a	n/a
397.431	0.105	794862	keystroke_t	t	n/a
397.551	0.195	795102	keystroke_i	i	n/a
397.701	0.225	795402	keystroke_o	o	n/a
397.881	0.18	795762	keystroke_n	n	n/a
398.046	0.15	796092	keystroke_s	s	n/a
398.166	0.12	796332	keystroke_Key.space	Key.space	n/a
399.126	0.075	798252	keystroke_c	c	n/a
399.231	0.21	798462	keystroke_o	o	n/a
399.366	0.165	798732	keystroke_n	n	n/a
399.486	0.12	798972	keystroke_s	s	n/a
399.636	0.1345	799272	keystroke_o	o	n/a
399.8465	0.09	799693	keystroke_l	l	n/a
400.0565	0.12	800113	keystroke_i	i	n/a
400.1465	0.09	800293	keystroke_d	d	n/a
400.3565	0.105	800713	keystroke_a	a	n/a
400.6265	0.12	801253	keystroke_t	t	n/a
400.7615	0.1795	801523	keystroke_i	i	n/a
400.896	0.255	801792	keystroke_o	o	n/a
401.091	0.135	802182	keystroke_n	n	n/a
401.166	0.15	802332	keystroke_Key.space	Key.space	n/a
401.316	0.135	802632	keystroke_a	a	n/a
401.421	0.105	802842	keystroke_l	l	n/a
401.601	0.105	803202	keystroke_l	l	n/a
401.796	0.12	803592	keystroke_o	o	n/a
401.886	0.12	803772	keystroke_w	w	n/a
402.036	0.1795	804072	keystroke_i	i	n/a
402.126	0.1505	804252	keystroke_n	n	n/a
402.2465	0.12	804493	keystroke_g	g	n/a
402.5755	0.075	805151	keystroke_Key.enter	Key.enter	n/a
402.656	8.142	805312	prompt	n/a	moderate cordless furthermore hayes\n
403.3265	0.18	806653	keystroke_m	m	n/a
403.4315	0.1945	806863	keystroke_o	o	n/a
403.671	0.105	807342	keystroke_d	d	n/a
403.851	0.105	807702	keystroke_e	e	n/a
404.031	0.09	808062	keystroke_r	r	n/a
404.271	0.09	808542	keystroke_a	a	n/a
404.496	0.075	808992	keystroke_t	t	n/a
404.691	0.135	809382	keystroke_e	e	n/a
404.856	0.105	809712	keystroke_Key.space	Key.space	n/a
405.531	0.105	811062	keystroke_c	c	n/a
405.666	0.15	811332	keystroke_o	o	n/a
405.801	0.075	811602	keystroke_r	r	n/a
405.981	0.12	811962	keystroke_d	d	n/a
406.131	0.105	812262	keystroke_l	l	n/a
406.251	0.09	812502	keystroke_e	e	n/a
406.476	0.075	812952	keystroke_s	s	n/a
406.626	0.12	813252	keystroke_s	s	n/a
406.776	0.12	813552	keystroke_Key.space	Key.space	n/a
407.061	0.105	814122	keystroke_f	f	n/a
407.211	0.105	814422	keystroke_u	u	n/a
407.331	0.09	814662	keystroke_r	r	n/a
407.571	0.075	815142	keystroke_t	t	n/a
407.706	0.105	815412	keystroke_h	h	n/a
407.856	0.105	815712	keystroke_e	e	n/a
408.111	0.09	816222	keystroke_r	r	n/a
408.411	0.195	816822	keystroke_m	m	n/a
408.546	0.181	817092	keystroke_o	o	n/a
408.756	0.09	817512	keystroke_r	r	n/a
408.951	0.12	817902	keystroke_e	e	n/a
409.131	0.105	818262	keystroke_Key.space	Key.space	n/a
409.6405	0.1355	819281	keystroke_h	h	n/a
409.806	0.1195	819612	keystroke_a	a	n/a
409.972	0.089	819944	keystroke_y	y	n/a
410.1055	0.135	820211	keystroke_e	e	n/a
410.3455	0.135	820691	keystroke_s	s	n/a
410.6905	0.105	821381	keystroke_Key.enter	Key.enter	n/a
410.801	8.1415	821602	prompt	n/a	outreach acquired losses beds\n
411.562	0.1935	823124	keystroke_o	o	n/a
411.696	0.21	823392	keystroke_u	u	n/a
411.786	0.121	823572	keystroke_t	t	n/a
412.026	0.09	824052	keystroke_r	r	n/a
412.311	0.105	824622	keystroke_e	e	n/a
412.551	0.075	825102	keystroke_a	a	n/a
412.791	0.12	825582	keystroke_c	c	n/a
412.926	0.15	825852	keystroke_h	h	n/a
413.046	0.1205	826092	keystroke_Key.space	Key.space	n/a
413.6015	0.105	827203	keystroke_a	a	n/a
414.141	0.09	828282	keystroke_c	c	n/a
414.531	0.075	829062	keystroke_q	q	n/a
414.636	0.195	829272	keystroke_u	u	n/a
414.786	0.165	829572	keystroke_i	i	n/a
414.936	0.09	829872	keystroke_r	r	n/a
415.146	0.09	830292	keystroke_e	e	n/a
415.371	0.09	830742	keystroke_d	d	n/a
415.521	0.12	831042	keystroke_Key.space	Key.space	n/a
415.881	0.105	831762	keystroke_l	l	n/a
416.091	0.135	832182	keystroke_o	o	n/a
416.271	0.06	832542	keystroke_s	s	n/a
416.421	0.105	832842	keystroke_s	s	n/a
416.646	0.075	833292	keystroke_e	e	n/a
416.856	0.09	833712	keystroke_s	s	n/a
416.976	0.09	833952	keystroke_Key.space	Key.space	n/a
417.486	0.135	834972	keystroke_b	b	n/a
417.651	0.105	835302	keystroke_e	e	n/a
418.386	0.045	836772	keystroke_d	d	n/a
418.5665	0.09	837133	keystroke_s	s	n/a
418.851	0.09	837702	keystroke_Key.enter	Key.enter	n/a
418.947	6.896	837894	prompt	n/a	left concert bulk emissions\n
419.6915	0.165	839383	keystroke_l	l	n/a
419.7965	0.15	839593	keystroke_e	e	n/a
420.096	0.105	840192	keystroke_f	f	n/a
420.321	0.105	840642	keystroke_t	t	n/a
420.486	0.09	840972	keystroke_Key.space	Key.space	n/a
420.696	0.105	841392	keystroke_c	c	n/a
420.816	0.165	841632	keystroke_o	o	n/a
420.966	0.135	841932	keystroke_n	n	n/a
421.116	0.15	842232	keystroke_c	c	n/a
421.5665	0.105	843133	keystroke_e	e	n/a
421.7765	0.09	843553	keystroke_r	r	n/a
421.971	0.15	843942	keystroke_t	t	n/a
422.451	0.105	844902	keystroke_Key.space	Key.space	n/a
422.8705	0.21	845741	keystroke_b	b	n/a
423.0215	0.135	846043	keystroke_u	u	n/a
423.2765	0.1945	846553	keystroke_l	l	n/a
423.441	0.24	846882	keystroke_k	k	n/a
423.621	0.15	847242	keystroke_Key.space	Key.space	n/a
423.981	0.105	847962	keystroke_e	e	n/a
424.176	0.165	848352	keystroke_m	m	n/a
424.401	0.135	848802	keystroke_i	i	n/a
424.581	0.09	849162	keystroke_s	s	n/a
424.746	0.1345	849492	keystroke_s	s	n/a
424.8355	0.211	849671	keystroke_i	i	n/a
425.001	0.2395	850002	keystroke_o	o	n/a
425.1365	0.179	850273	keystroke_n	n	n/a
425.2715	0.1945	850543	keystroke_s	s	n/a
425.721	0.1205	851442	keystroke_Key.enter	Key.enter	n/a
425.846	10.7815	851692	prompt	n/a	sympathy florist shoes refrigerator\n
426.411	0.2555	852822	keystroke_s	s	n/a
426.6965	0.09	853393	keystroke_y	y	n/a
426.9065	0.18	853813	keystroke_m	m	n/a
427.0265	0.18	854053	keystroke_p	p	n/a
427.1615	0.105	854323	keystroke_a	a	n/a
427.4615	0.12	854923	keystroke_t	t	n/a
427.5965	0.3	855193	keystroke_h	h	n/a
427.7315	0.21	855463	keystroke_y	y	n/a
427.8815	0.165	855763	keystroke_Key.space	Key.space	n/a
428.436	0.12	856872	keystroke_f	f	n/a
428.541	0.0905	857082	keystroke_l	l	n/a
428.7215	0.105	857443	keystroke_o	o	n/a
428.931	0.09	857862	keystroke_r	r	n/a
429.171	0.09	858342	keystroke_s	s	n/a
429.651	0.03	859302	keystroke_Key.backspace	Key.backspace	n/a
429.846	0.105	859692	keystroke_i	i	n/a
429.921	0.12	859842	keystroke_s	s	n/a
430.1765	0.12	860353	keystroke_t	t	n/a
430.3265	0.105	860653	keystroke_Key.space	Key.space	n/a
431.0315	0.165	862063	keystroke_s	s	n/a
431.1515	0.165	862303	keystroke_h	h	n/a
431.2565	0.165	862513	keystroke_o	o	n/a
431.4515	0.105	862903	keystroke_e	e	n/a
431.7065	0.12	863413	keystroke_s	s	n/a
431.8715	0.1045	863743	keystroke_Key.space	Key.space	n/a
432.426	0.09	864852	keystroke_r	r	n/a
432.606	0.0905	865212	keystroke_e	e	n/a
432.8015	0.09	865603	keystroke_f	f	n/a
432.9965	0.0895	865993	keystroke_r	r	n/a
433.236	0.075	866472	keystroke_e	e	n/a
433.851	0.105	867702	keystroke_Key.backspace	Key.backspace	n/a
434.151	0.09	868302	keystroke_i	i	n/a
434.316	0.12	868632	keystroke_g	g	n/a
434.7665	0.075	869533	keystroke_e	e	n/a
434.9465	0.045	869893	keystroke_r	r	n/a
435.2005	0.106	870401	keystroke_a	a	n/a
435.5015	0.09	871003	keystroke_t	t	n/a
435.6815	0.15	871363	keystroke_o	o	n/a
435.8015	0.105	871603	keystroke_r	r	n/a
436.4915	0.135	872983	keystroke_Key.enter	Key.enter	n/a
436.6305	8.8025	873261	prompt	n/a	myth quotes patricia county\n
437.286	0.21	874572	keystroke_m	m	n/a
437.616	0.12	875232	keystroke_y	y	n/a
437.751	0.15	875502	keystroke_t	t	n/a
437.916	0.21	875832	keystroke_h	h	n/a
438.066	0.135	876132	keystroke_Key.space	Key.space	n/a
438.741	0.135	877482	keystroke_q	q	n/a
438.981	0.15	877962	keystroke_u	u	n/a
439.1005	0.1955	878201	keystroke_o	o	n/a
439.221	0.12	878442	keystroke_t	t	n/a
439.447	0.134	878894	keystroke_e	e	n/a
439.7005	0.136	879401	keystroke_s	s	n/a
439.8205	0.105	879641	keystroke_Key.space	Key.space	n/a
440.0015	0.195	880003	keystroke_p	p	n/a
440.1205	0.12	880241	keystroke_a	a	n/a
440.451	0.075	880902	keystroke_t	t	n/a
440.631	0.09	881262	keystroke_r	r	n/a
440.781	0.105	881562	keystroke_i	i	n/a
440.901	0.09	881802	keystroke_c	c	n/a
441.006	0.135	882012	keystroke_i	i	n/a
441.201	0.09	882402	keystroke_a	a	n/a
441.516	0.1205	883032	keystroke_Key.space	Key.space	n/a
443.061	0.15	886122	keystroke_c	c	n/a
443.256	0.285	886512	keystroke_o	o	n/a
443.466	0.255	886932	keystroke_u	u	n/a
443.661	0.18	887322	keystroke_n	n	n/a
444.3815	0.12	888763	keystroke_t	t	n/a
444.4865	0.12	888973	keystroke_y	y	n/a
445.3415	0.09	890683	keystroke_Key.enter	Key.enter	n/a
445.4355	8.007	890871	prompt	n/a	dead midi truck processed\n
446.287	0.089	892574	keystroke_d	d	n/a
446.482	0.075	892964	keystroke_e	e	n/a
446.707	0.09	893414	keystroke_a	a	n/a
446.9315	0.12	893863	keystroke_d	d	n/a
447.0965	0.225	894193	keystroke_Key.space	Key.space	n/a
447.3515	0.24	894703	keystroke_m	m	n/a
447.4865	0.21	894973	keystroke_i	i	n/a
447.7115	0.18	895423	keystroke_d	d	n/a
447.9065	0.18	895813	keystroke_i	i	n/a
448.4315	0.12	896863	keystroke_Key.space	Key.space	n/a
449.0615	0.045	898123	keystroke_t	t	n/a
449.361	0.075	898722	keystroke_r	r	n/a
449.466	0.12	898932	keystroke_u	u	n/a
449.721	0.121	899442	keystroke_c	c	n/a
449.857	0.209	899714	keystroke_k	k	n/a
450.006	0.135	900012	keystroke_Key.space	Key.space	n/a
450.292	0.149	900584	keystroke_p	p	n/a
450.516	0.12	901032	keystroke_r	r	n/a
450.966	0.105	901932	keystroke_o	o	n/a
451.191	0.1205	902382	keystroke_c	c	n/a
451.4615	0.09	902923	keystroke_e	e	n/a
451.6865	0.09	903373	keystroke_s	s	n/a
451.8365	0.1045	903673	keystroke_s	s	n/a
452.061	0.075	904122	keystroke_e	e	n/a
452.241	0.105	904482	keystroke_d	d	n/a
452.6315	0.12	905263	keystroke_Key.space	Key.space	n/a
453.0515	0.075	906103	keystroke_Key.backspace	Key.backspace	n/a
453.337	0.104	906674	keystroke_Key.enter	Key.enter	n/a
453.446	9.237	906892	prompt	n/a	mortgage institutes amanda agree\n
454.0565	0.165	908113	keystroke_m	m	n/a
454.1615	0.195	908323	keystroke_o	o	n/a
454.4315	0.12	908863	keystroke_t	t	n/a
454.8515	0.09	909703	keystroke_Key.backspace	Key.backspace	n/a
454.9565	0.075	909913	keystroke_r	r	n/a
455.1365	0.09	910273	keystroke_t	t	n/a
455.3615	0.105	910723	keystroke_g	g	n/a
455.6915	0.135	911383	keystroke_a	a	n/a
455.8115	0.165	911623	keystroke_g	g	n/a
455.9915	0.135	911983	keystroke_e	e	n/a
456.1415	0.105	912283	keystroke_Key.space	Key.space	n/a
456.6215	0.2395	913243	keystroke_i	i	n/a
456.7715	0.1795	913543	keystroke_n	n	n/a
456.891	0.1505	913782	keystroke_s	s	n/a
457.2365	0.1195	914473	keystroke_t	t	n/a
457.836	0.1805	915672	keystroke_i	i	n/a
458.0165	0.135	916033	keystroke_t	t	n/a
458.3315	0.135	916663	keystroke_u	u	n/a
458.692	0.105	917384	keystroke_t	t	n/a
458.992	0.134	917984	keystroke_e	e	n/a
459.231	0.136	918462	keystroke_s	s	n/a
459.337	0.119	918674	keystroke_Key.space	Key.space	n/a
459.577	0.15	919154	keystroke_a	a	n/a
459.711	0.136	919422	keystroke_m	m	n/a
459.832	0.1195	919664	keystroke_a	a	n/a
459.9965	0.12	919993	keystroke_n	n	n/a
460.1315	0.105	920263	keystroke_d	d	n/a
460.3115	0.18	920623	keystroke_a	a	n/a
460.4915	0.1345	920983	keystroke_Key.space	Key.space	n/a
461.001	0.075	922002	keystroke_a	a	n/a
461.3165	0.12	922633	keystroke_g	g	n/a
461.4515	0.12	922903	keystroke_r	r	n/a
461.7065	0.075	923413	keystroke_e	e	n/a
461.8715	0.12	923743	keystroke_e	e	n/a
462.592	0.089	925184	keystroke_Key.enter	Key.enter	n/a
462.6865	8.7565	925373	prompt	n/a	converter worldwide blade armed\n
463.4615	0.1345	926923	keystroke_c	c	n/a
463.566	0.18	927132	keystroke_o	o	n/a
463.671	0.15	927342	keystroke_n	n	n/a
463.776	0.105	927552	keystroke_v	v	n/a
464.001	0.075	928002	keystroke_e	e	n/a
464.166	0.12	928332	keystroke_r	r	n/a
464.361	0.135	928722	keystroke_t	t	n/a
464.616	0.1205	929232	keystroke_e	e	n/a
464.8265	0.12	929653	keystroke_r	r	n/a
464.9915	0.12	929983	keystroke_Key.space	Key.space	n/a
465.456	0.121	930912	keystroke_w	w	n/a
465.607	0.1045	931214	keystroke_o	o	n/a
465.7265	0.12	931453	keystroke_r	r	n/a
465.8615	0.12	931723	keystroke_l	l	n/a
466.0265	0.09	932053	keystroke_d	d	n/a
466.297	0.089	932594	keystroke_w	w	n/a
466.431	0.09	932862	keystroke_i	i	n/a
466.552	0.074	933104	keystroke_d	d	n/a
466.7315	0.135	933463	keystroke_e	e	n/a
466.8515	0.12	933703	keystroke_Key.space	Key.space	n/a
467.286	0.18	934572	keystroke_b	b	n/a
467.421	0.21	934842	keystroke_l	l	n/a
467.571	0.135	935142	keystroke_a	a	n/a
467.811	0.105	935622	keystroke_d	d	n/a
468.021	0.12	936042	keystroke_e	e	n/a
468.126	0.15	936252	keystroke_Key.space	Key.space	n/a
468.486	0.06	936972	keystroke_a	a	n/a
468.591	0.03	937182	keystroke_a	a	n/a
468.801	0.075	937602	keystroke_r	r	n/a
468.966	0.1055	937932	keystroke_m	m	n/a
469.0865	0.075	938173	keystroke_e	e	n/a
469.5065	0.03	939013	keystroke_Key.backspace	Key.backspace	n/a
469.6415	0.105	939283	keystroke_Key.backspace	Key.backspace	n/a
469.8215	0.075	939643	keystroke_Key.backspace	Key.backspace	n/a
470.0165	0.105	940033	keystroke_Key.backspace	Key.backspace	n/a
470.4365	0.1045	940873	keystroke_r	r	n/a
470.571	0.135	941142	keystroke_m	m	n/a
470.676	0.09	941352	keystroke_e	e	n/a
470.8715	0.1055	941743	keystroke_d	d	n/a
471.3365	0.105	942673	keystroke_Key.enter	Key.enter	n/a
471.4455	8.9975	942891	prompt	n/a	cholesterol member random urls\n
472.3265	0.09	944653	keystroke_c	c	n/a
472.4315	0.15	944863	keystroke_h	h	n/a
472.5365	0.12	945073	keystroke_o	o	n/a
472.7465	0.135	945493	keystroke_l	l	n/a
472.8965	0.12	945793	keystroke_e	e	n/a
473.1515	0.105	946303	keystroke_s	s	n/a
473.6315	0.06	947263	keystroke_t	t	n/a
474.0365	0.105	948073	keystroke_e	e	n/a
474.2615	0.075	948523	keystroke_r	r	n/a
474.3965	0.09	948793	keystroke_o	o	n/a
474.6065	0.18	949213	keystroke_l	l	n/a
474.7565	0.105	949513	keystroke_Key.space	Key.space	n/a
474.9815	0.09	949963	keystroke_m	m	n/a
475.1015	0.12	950203	keystroke_e	e	n/a
475.2215	0.105	950443	keystroke_m	m	n/a
475.4765	0.12	950953	keystroke_b	b	n/a
475.5665	0.075	951133	keystroke_e	e	n/a
475.7015	0.15	951403	keystroke_r	r	n/a
475.8365	0.105	951673	keystroke_Key.space	Key.space	n/a
476.3765	0.06	952753	keystroke_r	r	n/a
476.7065	0.12	953413	keystroke_n	n	n/a
477.1415	0.09	954283	keystroke_Key.backspace	Key.backspace	n/a
477.2615	0.135	954523	keystroke_a	a	n/a
477.4865	0.12	954973	keystroke_n	n	n/a
477.6215	0.09	955243	keystroke_d	d	n/a
477.7415	0.24	955483	keystroke_o	o	n/a
477.9215	0.21	955843	keystroke_m	m	n/a
478.0715	0.15	956143	keystroke_Key.space	Key.space	n/a
478.4165	0.105	956833	keystroke_u	u	n/a
478.7315	0.135	957463	keystroke_r	r	n/a
478.8815	0.075	957763	keystroke_k	k	n/a
479.3915	0.075	958783	keystroke_Key.backspace	Key.backspace	n/a
479.6165	0.09	959233	keystroke_l	l	n/a
479.7665	0.09	959533	keystroke_s	s	n/a
480.351	0.09	960702	keystroke_Key.enter	Key.enter	n/a
480.4455	6.1325	960891	prompt	n/a	infected be size thru\n
481.2965	0.255	962593	keystroke_i	i	n/a
481.5065	0.165	963013	keystroke_n	n	n/a
481.7315	0.135	963463	keystroke_f	f	n/a
481.986	0.105	963972	keystroke_e	e	n/a
482.241	0.09	964482	keystroke_c	c	n/a
482.526	0.075	965052	keystroke_t	t	n/a
482.751	0.075	965502	keystroke_e	e	n/a
482.9465	0.12	965893	keystroke_d	d	n/a
483.0515	0.165	966103	keystroke_Key.space	Key.space	n/a
483.1865	0.21	966373	keystroke_b	b	n/a
483.3065	0.135	966613	keystroke_e	e	n/a
483.3815	0.1655	966763	keystroke_Key.space	Key.space	n/a
483.727	0.105	967454	keystroke_s	s	n/a
483.877	0.165	967754	keystroke_i	i	n/a
484.086	0.106	968172	keystroke_z	z	n/a
484.371	0.0905	968742	keystroke_e	e	n/a
484.4915	0.12	968983	keystroke_Key.space	Key.space	n/a
484.8965	0.12	969793	keystroke_t	t	n/a
485.0315	0.12	970063	keystroke_h	h	n/a
485.1365	0.15	970273	keystroke_r	r	n/a
485.2715	0.12	970543	keystroke_y	y	n/a
485.7665	0.105	971533	keystroke_Key.backspace	Key.backspace	n/a
486.2315	0.135	972463	keystroke_u	u	n/a
486.4865	0.09	972973	keystroke_Key.enter	Key.enter	n/a
486.581	9.432	973162	prompt	n/a	thumbnails height distributor roster\n
487.4165	0.12	974833	keystroke_t	t	n/a
487.5515	0.135	975103	keystroke_h	h	n/a
487.6265	0.105	975253	keystroke_u	u	n/a
487.8665	0.09	975733	keystroke_m	m	n/a
488.0615	0.105	976123	keystroke_b	b	n/a
488.3015	0.135	976603	keystroke_n	n	n/a
488.4215	0.18	976843	keystroke_a	a	n/a
488.5865	0.1945	977173	keystroke_i	i	n/a
488.752	0.2995	977504	keystroke_l	l	n/a
488.917	0.1945	977834	keystroke_s	s	n/a
489.0815	0.15	978163	keystroke_Key.space	Key.space	n/a
489.637	0.119	979274	keystroke_h	h	n/a
489.741	0.166	979482	keystroke_e	e	n/a
489.952	0.09	979904	keystroke_i	i	n/a
490.087	0.105	980174	keystroke_g	g	n/a
490.237	0.135	980474	keystroke_h	h	n/a
490.386	0.076	980772	keystroke_t	t	n/a
490.476	0.105	980952	keystroke_Key.space	Key.space	n/a
491.346	0.105	982692	keystroke_d	d	n/a
491.481	0.15	982962	keystroke_i	i	n/a
491.646	0.105	983292	keystroke_s	s	n/a
491.902	0.089	983804	keystroke_t	t	n/a
492.096	0.12	984192	keystroke_r	r	n/a
492.186	0.18	984372	keystroke_i	i	n/a
492.351	0.135	984702	keystroke_b	b	n/a
492.471	0.165	984942	keystroke_u	u	n/a
492.576	0.1355	985152	keystroke_t	t	n/a
492.7865	0.12	985573	keystroke_o	o	n/a
492.9365	0.105	985873	keystroke_r	r	n/a
493.4765	0.1195	986953	keystroke_Key.space	Key.space	n/a
493.821	0.12	987642	keystroke_r	r	n/a
494.001	0.135	988002	keystroke_o	o	n/a
494.7365	0.105	989473	keystroke_s	s	n/a
495.0065	0.0745	990013	keystroke_t	t	n/a
495.231	0.105	990462	keystroke_e	e	n/a
495.396	0.165	990792	keystroke_r	r	n/a
495.906	0.105	991812	keystroke_Key.enter	Key.enter	n/a
496.0155	6.0875	992031	prompt	n/a	prime mill prospective tired\n
496.911	0.12	993822	keystroke_p	p	n/a
497.076	0.09	994152	keystroke_r	r	n/a
497.166	0.2105	994332	keystroke_i	i	n/a
497.2865	0.195	994573	keystroke_m	m	n/a
497.3915	0.18	994783	keystroke_e	e	n/a
497.6315	0.18	995263	keystroke_Key.space	Key.space	n/a
497.8265	0.1495	995653	keystroke_m	m	n/a
497.916	0.135	995832	keystroke_i	i	n/a
498.156	0.0905	996312	keystroke_l	l	n/a
498.321	0.1655	996642	keystroke_l	l	n/a
498.4715	0.15	996943	keystroke_Key.space	Key.space	n/a
498.6815	0.135	997363	keystroke_p	p	n/a
499.0415	0.105	998083	keystroke_r	r	n/a
499.1915	0.135	998383	keystroke_o	o	n/a
499.5065	0.105	999013	keystroke_s	s	n/a
499.6565	0.135	999313	keystroke_p	p	n/a
499.8065	0.09	999613	keystroke_e	e	n/a
500.0315	0.075	1000063	keystroke_c	c	n/a
500.2565	0.09	1000513	keystroke_t	t	n/a
500.3765	0.105	1000753	keystroke_i	i	n/a
500.4965	0.09	1000993	keystroke_v	v	n/a
500.7365	0.09	1001473	keystroke_e	e	n/a
500.8565	0.12	1001713	keystroke_Key.space	Key.space	n/a
501.1865	0.105	1002373	keystroke_t	t	n/a
501.3065	0.105	1002613	keystroke_i	i	n/a
501.4265	0.075	1002853	keystroke_r	r	n/a
501.6065	0.075	1003213	keystroke_e	e	n/a
501.8015	0.09	1003603	keystroke_d	d	n/a
501.9965	0.105	1003993	keystroke_Key.enter	Key.enter	n/a
502.106	6.342	1004212	prompt	n/a	train folders combo studying\n
503.121	0.075	1006242	keystroke_t	t	n/a
503.286	0.09	1006572	keystroke_r	r	n/a
503.526	0.165	1007052	keystroke_a	a	n/a
503.661	0.285	1007322	keystroke_i	i	n/a
503.826	0.18	1007652	keystroke_n	n	n/a
503.961	0.15	1007922	keystroke_Key.space	Key.space	n/a
504.261	0.135	1008522	keystroke_f	f	n/a
504.381	0.1055	1008762	keystroke_o	o	n/a
504.5765	0.12	1009153	keystroke_l	l	n/a
504.6815	0.075	1009363	keystroke_d	d	n/a
504.8315	0.105	1009663	keystroke_e	e	n/a
505.0115	0.105	1010023	keystroke_r	r	n/a
505.2815	0.12	1010563	keystroke_s	s	n/a
505.4165	0.12	1010833	keystroke_Key.space	Key.space	n/a
505.5815	0.135	1011163	keystroke_c	c	n/a
505.7175	0.224	1011435	keystroke_o	o	n/a
505.8815	0.18	1011763	keystroke_m	m	n/a
506.2265	0.165	1012453	keystroke_b	b	n/a
506.3615	0.21	1012723	keystroke_o	o	n/a
506.5265	0.15	1013053	keystroke_Key.space	Key.space	n/a
506.8415	0.12	1013683	keystroke_s	s	n/a
507.156	0.106	1014312	keystroke_t	t	n/a
507.307	0.105	1014614	keystroke_u	u	n/a
507.412	0.164	1014824	keystroke_d	d	n/a
507.531	0.106	1015062	keystroke_y	y	n/a
507.787	0.225	1015574	keystroke_i	i	n/a
507.937	0.135	1015874	keystroke_n	n	n/a
508.056	0.151	1016112	keystroke_g	g	n/a
508.342	0.104	1016684	keystroke_Key.enter	Key.enter	n/a
508.452	7.901	1016904	prompt	n/a	argument babes voltage delay\n
509.257	0.075	1018514	keystroke_a	a	n/a
509.467	0.09	1018934	keystroke_r	r	n/a
509.676	0.091	1019352	keystroke_g	g	n/a
509.812	0.1045	1019624	keystroke_u	u	n/a
510.0515	0.12	1020103	keystroke_m	m	n/a
510.2315	0.12	1020463	keystroke_e	e	n/a
510.3365	0.12	1020673	keystroke_n	n	n/a
510.5165	0.1055	1021033	keystroke_t	t	n/a
510.666	0.06	1021332	keystroke_Key.space	Key.space	n/a
510.847	0.105	1021694	keystroke_b	b	n/a
510.937	0.105	1021874	keystroke_a	a	n/a
511.072	0.135	1022144	keystroke_b	b	n/a
511.222	0.1045	1022444	keystroke_e	e	n/a
511.5365	0.12	1023073	keystroke_s	s	n/a
511.7015	0.1195	1023403	keystroke_Key.space	Key.space	n/a
512.497	0.089	1024994	keystroke_v	v	n/a
512.632	0.06	1025264	keystroke_o	o	n/a
512.827	0.2245	1025654	keystroke_l	l	n/a
513.0665	0.075	1026133	keystroke_t	t	n/a
513.3965	0.12	1026793	keystroke_a	a	n/a
513.5315	0.12	1027063	keystroke_g	g	n/a
513.7115	0.075	1027423	keystroke_w	w	n/a
513.8315	0.09	1027663	keystroke_Key.space	Key.space	n/a
514.2965	0.06	1028593	keystroke_Key.backspace	Key.backspace	n/a
514.4315	0.09	1028863	keystroke_Key.backspace	Key.backspace	n/a
514.5515	0.12	1029103	keystroke_e	e	n/a
514.6865	0.1495	1029373	keystroke_Key.space	Key.space	n/a
515.181	0.076	1030362	keystroke_d	d	n/a
515.376	0.09	1030752	keystroke_e	e	n/a
515.496	0.105	1030992	keystroke_l	l	n/a
515.631	0.15	1031262	keystroke_a	a	n/a
515.811	0.105	1031622	keystroke_y	y	n/a
516.261	0.09	1032522	keystroke_Key.enter	Key.enter	n/a
516.356	8.052	1032712	prompt	n/a	researchers charms webcast children\n
517.072	0.0745	1034144	keystroke_r	r	n/a
517.2515	0.09	1034503	keystroke_e	e	n/a
517.536	0.06	1035072	keystroke_s	s	n/a
517.701	0.075	1035402	keystroke_e	e	n/a
517.881	0.1205	1035762	keystroke_a	a	n/a
518.1065	0.075	1036213	keystroke_r	r	n/a
518.3315	0.075	1036663	keystroke_c	c	n/a
518.4965	0.075	1036993	keystroke_h	h	n/a
518.6015	0.09	1037203	keystroke_e	e	n/a
518.8415	0.06	1037683	keystroke_r	r	n/a
519.0215	0.165	1038043	keystroke_s	s	n/a
519.1715	0.12	1038343	keystroke_Key.space	Key.space	n/a
519.5165	0.075	1039033	keystroke_c	c	n/a
519.6215	0.09	1039243	keystroke_h	h	n/a
519.7715	0.12	1039543	keystroke_a	a	n/a
520.0115	0.105	1040023	keystroke_r	r	n/a
520.1765	0.12	1040353	keystroke_m	m	n/a
520.3265	0.12	1040653	keystroke_s	s	n/a
520.4915	0.1205	1040983	keystroke_Key.space	Key.space	n/a
521.047	0.075	1042094	keystroke_w	w	n/a
521.197	0.12	1042394	keystroke_e	e	n/a
521.332	0.12	1042664	keystroke_b	b	n/a
521.647	0.09	1043294	keystroke_c	c	n/a
521.8565	0.105	1043713	keystroke_a	a	n/a
522.0215	0.12	1044043	keystroke_s	s	n/a
522.1715	0.12	1044343	keystroke_t	t	n/a
522.3365	0.15	1044673	keystroke_Key.space	Key.space	n/a
523.027	0.09	1046054	keystroke_c	c	n/a
523.177	0.18	1046354	keystroke_h	h	n/a
523.282	0.24	1046564	keystroke_i	i	n/a
523.432	0.195	1046864	keystroke_l	l	n/a
523.552	0.075	1047104	keystroke_d	d	n/a
523.732	0.09	1047464	keystroke_r	r	n/a
523.927	0.105	1047854	keystroke_e	e	n/a
524.062	0.105	1048124	keystroke_n	n	n/a
524.302	0.105	1048604	keystroke_Key.enter	Key.enter	n/a
524.4115	11.2915	1048823	prompt	n/a	aberdeen medicines twisted hockey\n
525.1265	0.03	1050253	keystroke_s	s	n/a
525.1565	0.15	1050313	keystroke_a	a	n/a
526.1015	0.06	1052203	keystroke_Key.backspace	Key.backspace	n/a
526.3115	0.09	1052623	keystroke_Key.backspace	Key.backspace	n/a
526.5065	0.135	1053013	keystroke_a	a	n/a
526.6865	0.12	1053373	keystroke_b	b	n/a
526.9715	0.105	1053943	keystroke_r	r	n/a
527.2115	0.105	1054423	keystroke_e	e	n/a
527.8115	0.06	1055623	keystroke_Key.backspace	Key.backspace	n/a
527.9465	0.105	1055893	keystroke_Key.backspace	Key.backspace	n/a
528.0965	0.09	1056193	keystroke_e	e	n/a
528.2765	0.09	1056553	keystroke_r	r	n/a
528.5915	0.06	1057183	keystroke_d	d	n/a
528.7565	0.075	1057513	keystroke_e	e	n/a
528.9215	0.15	1057843	keystroke_e	e	n/a
529.0865	0.195	1058173	keystroke_n	n	n/a
529.2665	0.12	1058533	keystroke_Key.space	Key.space	n/a
530.137	0.15	1060274	keystroke_m	m	n/a
530.287	0.119	1060574	keystroke_e	e	n/a
530.526	0.135	1061052	keystroke_d	d	n/a
530.646	0.166	1061292	keystroke_i	i	n/a
530.977	0.12	1061954	keystroke_c	c	n/a
531.067	0.18	1062134	keystroke_i	i	n/a
531.217	0.179	1062434	keystroke_n	n	n/a
531.352	0.104	1062704	keystroke_e	e	n/a
531.576	0.121	1063152	keystroke_s	s	n/a
531.787	0.089	1063574	keystroke_Key.space	Key.space	n/a
532.626	0.076	1065252	keystroke_t	t	n/a
532.852	0.12	1065704	keystroke_w	w	n/a
533.032	0.1045	1066064	keystroke_i	i	n/a
533.1815	0.105	1066363	keystroke_s	s	n/a
533.4515	0.06	1066903	keystroke_t	t	n/a
533.6615	0.09	1067323	keystroke_e	e	n/a
533.8715	0.12	1067743	keystroke_d	d	n/a
534.0665	0.12	1068133	keystroke_Key.space	Key.space	n/a
534.3965	0.15	1068793	keystroke_h	h	n/a
534.5015	0.15	1069003	keystroke_o	o	n/a
534.6965	0.105	1069393	keystroke_c	c	n/a
534.8615	0.1195	1069723	keystroke_k	k	n/a
535.011	0.15	1070022	keystroke_e	e	n/a
535.251	0.12	1070502	keystroke_y	y	n/a
535.596	0.105	1071192	keystroke_Key.enter	Key.enter	n/a
535.707	8.831	1071414	prompt	n/a	soul reflections tony academic\n
536.407	0.195	1072814	keystroke_s	s	n/a
536.542	0.165	1073084	keystroke_o	o	n/a
536.737	0.21	1073474	keystroke_u	u	n/a
536.932	0.2395	1073864	keystroke_l	l	n/a
537.142	0.18	1074284	keystroke_Key.space	Key.space	n/a
537.7115	0.09	1075423	keystroke_r	r	n/a
537.8915	0.0755	1075783	keystroke_e	e	n/a
538.0865	0.09	1076173	keystroke_f	f	n/a
538.2215	0.1805	1076443	keystroke_l	l	n/a
538.387	0.0745	1076774	keystroke_e	e	n/a
538.897	0.1195	1077794	keystroke_c	c	n/a
539.1665	0.09	1078333	keystroke_t	t	n/a
539.3615	0.195	1078723	keystroke_i	i	n/a
539.5265	0.225	1079053	keystroke_o	o	n/a
539.6765	0.24	1079353	keystroke_n	n	n/a
539.8265	0.18	1079653	keystroke_s	s	n/a
539.9915	0.12	1079983	keystroke_Key.space	Key.space	n/a
540.307	0.1045	1080614	keystroke_t	t	n/a
540.4265	0.165	1080853	keystroke_o	o	n/a
540.6065	0.315	1081213	keystroke_n	n	n/a
540.8015	0.21	1081603	keystroke_y	y	n/a
540.9515	0.135	1081903	keystroke_Key.space	Key.space	n/a
541.2215	0.1645	1082443	keystroke_a	a	n/a
541.5215	0.075	1083043	keystroke_d	d	n/a
541.716	0.1055	1083432	keystroke_a	a	n/a
541.9715	0.075	1083943	keystroke_c	c	n/a
542.407	0.09	1084814	keystroke_Key.backspace	Key.backspace	n/a
542.587	0.09	1085174	keystroke_Key.backspace	Key.backspace	n/a
542.767	0.0895	1085534	keystroke_Key.backspace	Key.backspace	n/a
542.9015	0.09	1085803	keystroke_c	c	n/a
543.1265	0.12	1086253	keystroke_a	a	n/a
543.3815	0.09	1086763	keystroke_d	d	n/a
543.5765	0.09	1087153	keystroke_e	e	n/a
543.6965	0.12	1087393	keystroke_m	m	n/a
543.8915	0.15	1087783	keystroke_i	i	n/a
544.0415	0.09	1088083	keystroke_c	c	n/a
544.4465	0.09	1088893	keystroke_Key.enter	Key.enter	n/a
544.5405	5.4275	1089081	prompt	n/a	spice dark call soma\n
545.1965	0.12	1090393	keystroke_s	s	n/a
545.347	0.105	1090694	keystroke_p	p	n/a
545.542	0.105	1091084	keystroke_i	i	n/a
545.662	0.09	1091324	keystroke_c	c	n/a
545.887	0.09	1091774	keystroke_e	e	n/a
546.037	0.075	1092074	keystroke_Key.space	Key.space	n/a
546.277	0.09	1092554	keystroke_d	d	n/a
546.502	0.105	1093004	keystroke_a	a	n/a
546.862	0.105	1093724	keystroke_r	r	n/a
547.042	0.21	1094084	keystroke_k	k	n/a
547.177	0.165	1094354	keystroke_Key.space	Key.space	n/a
547.432	0.12	1094864	keystroke_a	a	n/a
547.837	0.045	1095674	keystroke_Key.backspace	Key.backspace	n/a
547.942	0.105	1095884	keystroke_c	c	n/a
548.2415	0.09	1096483	keystroke_a	a	n/a
548.3765	0.105	1096753	keystroke_l	l	n/a
548.5715	0.1655	1097143	keystroke_l	l	n/a
548.676	0.135	1097352	keystroke_Key.space	Key.space	n/a
548.886	0.12	1097772	keystroke_s	s	n/a
549.021	0.21	1098042	keystroke_o	o	n/a
549.156	0.136	1098312	keystroke_m	m	n/a
549.321	0.1205	1098642	keystroke_a	a	n/a
549.8765	0.09	1099753	keystroke_Key.enter	Key.enter	n/a
549.9705	6.9425	1099941	prompt	n/a	privacy lucky sacred tours\n
550.657	0.12	1101314	keystroke_p	p	n/a
550.777	0.1045	1101554	keystroke_r	r	n/a
550.9425	0.119	1101885	keystroke_i	i	n/a
551.0765	0.075	1102153	keystroke_v	v	n/a
551.3315	0.075	1102663	keystroke_a	a	n/a
551.5565	0.075	1103113	keystroke_c	c	n/a
551.6915	0.195	1103383	keystroke_y	y	n/a
551.8415	0.135	1103683	keystroke_Key.space	Key.space	n/a
552.1115	0.0905	1104223	keystroke_l	l	n/a
552.292	0.105	1104584	keystroke_u	u	n/a
552.457	0.105	1104914	keystroke_c	c	n/a
552.6665	0.09	1105333	keystroke_k	k	n/a
552.9665	0.09	1105933	keystroke_y	y	n/a
553.0715	0.12	1106143	keystroke_Key.space	Key.space	n/a
553.672	0.09	1107344	keystroke_s	s	n/a
553.866	0.09	1107732	keystroke_a	a	n/a
554.137	0.089	1108274	keystroke_c	c	n/a
554.5865	0.0605	1109173	keystroke_r	r	n/a
554.872	0.075	1109744	keystroke_e	e	n/a
555.097	0.09	1110194	keystroke_d	d	n/a
555.262	0.105	1110524	keystroke_Key.space	Key.space	n/a
555.907	0.105	1111814	keystroke_t	t	n/a
556.057	0.1945	1112114	keystroke_o	o	n/a
556.192	0.1495	1112384	keystroke_u	u	n/a
556.2965	0.105	1112593	keystroke_r	r	n/a
556.5515	0.1205	1113103	keystroke_s	s	n/a
556.806	0.1055	1113612	keystroke_Key.enter	Key.enter	n/a
556.9165	8.1865	1113833	prompt	n/a	stevens rolled hunter into\n
558.0065	0.105	1116013	keystroke_s	s	n/a
558.262	0.075	1116524	keystroke_t	t	n/a
558.277	0.045	1116554	keystroke_r	r	n/a
559.011	0.075	1118022	keystroke_Key.backspace	Key.backspace	n/a
559.387	0.15	1118774	keystroke_e	e	n/a
559.567	0.135	1119134	keystroke_v	v	n/a
559.732	0.105	1119464	keystroke_e	e	n/a
559.882	0.134	1119764	keystroke_n	n	n/a
560.062	0.18	1120124	keystroke_s	s	n/a
560.196	0.106	1120392	keystroke_Key.space	Key.space	n/a
560.421	0.166	1120842	keystroke_r	r	n/a
560.632	0.105	1121264	keystroke_o	o	n/a
560.872	0.09	1121744	keystroke_l	l	n/a
561.037	0.135	1122074	keystroke_l	l	n/a
561.517	0.105	1123034	keystroke_e	e	n/a
561.772	0.105	1123544	keystroke_d	d	n/a
562.056	0.136	1124112	keystroke_Key.space	Key.space	n/a
562.612	0.195	1125224	keystroke_h	h	n/a
562.762	0.15	1125524	keystroke_u	u	n/a
562.926	0.1805	1125852	keystroke_n	n	n/a
563.0615	0.105	1126123	keystroke_e	e	n/a
563.4365	0.12	1126873	keystroke_Key.backspace	Key.backspace	n/a
563.5415	0.12	1127083	keystroke_t	t	n/a
563.8115	0.09	1127623	keystroke_e	e	n/a
563.9765	0.105	1127953	keystroke_r	r	n/a
564.0965	0.195	1128193	keystroke_Key.space	Key.space	n/a
564.2465	0.225	1128493	keystroke_i	i	n/a
564.3815	0.135	1128763	keystroke_n	n	n/a
564.4865	0.105	1128973	keystroke_t	t	n/a
564.7115	0.12	1129423	keystroke_o	o	n/a
565.0115	0.09	1130023	keystroke_Key.enter	Key.enter	n/a
565.106	6.537	1130212	prompt	n/a	ellis table mixed acrobat\n
565.762	0.1045	1131524	keystroke_e	e	n/a
565.9115	0.105	1131823	keystroke_l	l	n/a
566.0915	0.15	1132183	keystroke_l	l	n/a
566.2265	0.165	1132453	keystroke_i	i	n/a
566.3765	0.165	1132753	keystroke_s	s	n/a
566.5715	0.12	1133143	keystroke_Key.space	Key.space	n/a
567.127	0.1045	1134254	keystroke_t	t	n/a
567.4115	0.12	1134823	keystroke_a	a	n/a
567.5765	0.24	1135153	keystroke_b	b	n/a
567.7115	0.24	1135423	keystroke_l	l	n/a
567.8915	0.18	1135783	keystroke_e	e	n/a
568.0565	0.15	1136113	keystroke_Key.space	Key.space	n/a
568.3115	0.21	1136623	keystroke_m	m	n/a
568.4165	0.165	1136833	keystroke_i	i	n/a
568.9865	0.06	1137973	keystroke_x	x	n/a
569.1965	0.075	1138393	keystroke_e	e	n/a
569.3765	0.135	1138753	keystroke_d	d	n/a
569.5265	0.105	1139053	keystroke_Key.space	Key.space	n/a
570.021	0.09	1140042	keystroke_a	a	n/a
570.262	0.075	1140524	keystroke_c	c	n/a
570.502	0.089	1141004	keystroke_r	r	n/a
570.606	0.211	1141212	keystroke_o	o	n/a
570.771	0.135	1141542	keystroke_b	b	n/a
570.966	0.1065	1141932	keystroke_a	a	n/a
571.2215	0.1055	1142443	keystroke_t	t	n/a
571.537	0.105	1143074	keystroke_Key.enter	Key.enter	n/a
571.647	6.6265	1143294	prompt	n/a	shut chelsea amend truly\n
572.302	0.12	1144604	keystroke_s	s	n/a
572.497	0.1795	1144994	keystroke_h	h	n/a
572.5865	0.195	1145173	keystroke_u	u	n/a
572.8115	0.1505	1145623	keystroke_t	t	n/a
572.992	0.15	1145984	keystroke_Key.space	Key.space	n/a
573.292	0.075	1146584	keystroke_c	c	n/a
573.877	0.12	1147754	keystroke_h	h	n/a
574.012	0.06	1148024	keystroke_e	e	n/a
574.132	0.12	1148264	keystroke_l	l	n/a
574.297	0.09	1148594	keystroke_s	s	n/a
574.507	0.075	1149014	keystroke_e	e	n/a
574.717	0.135	1149434	keystroke_a	a	n/a
574.882	0.12	1149764	keystroke_Key.space	Key.space	n/a
575.077	0.12	1150154	keystroke_a	a	n/a
575.8415	0.1355	1151683	keystroke_m	m	n/a
575.992	0.1345	1151984	keystroke_e	e	n/a
576.2015	0.105	1152403	keystroke_n	n	n/a
576.4115	0.105	1152823	keystroke_d	d	n/a
576.5315	0.105	1153063	keystroke_Key.space	Key.space	n/a
577.1165	0.1055	1154233	keystroke_t	t	n/a
577.327	0.12	1154654	keystroke_r	r	n/a
577.432	0.09	1154864	keystroke_u	u	n/a
577.642	0.12	1155284	keystroke_l	l	n/a
577.777	0.12	1155554	keystroke_y	y	n/a
578.182	0.09	1156364	keystroke_Key.enter	Key.enter	n/a
578.2765	12.6865	1156553	prompt	n/a	eyed specifies rebound encouraged\n
579.1565	0.135	1158313	keystroke_e	e	n/a
579.3065	0.135	1158613	keystroke_y	y	n/a
579.4265	0.105	1158853	keystroke_e	e	n/a
579.6515	0.165	1159303	keystroke_s	s	n/a
579.7865	0.105	1159573	keystroke_Key.space	Key.space	n/a
580.3715	0.135	1160743	keystroke_s	s	n/a
580.5365	0.1355	1161073	keystroke_p	p	n/a
581.2265	0.12	1162453	keystroke_e	e	n/a
581.4815	0.105	1162963	keystroke_c	c	n/a
581.7215	0.015	1163443	keystroke_u	u	n/a
582.2015	0.09	1164403	keystroke_Key.backspace	Key.backspace	n/a
582.4415	0.135	1164883	keystroke_i	i	n/a
582.5615	0.1205	1165123	keystroke_f	f	n/a
582.802	0.1045	1165604	keystroke_i	i	n/a
583.1315	0.12	1166263	keystroke_c	c	n/a
583.4165	0.0905	1166833	keystroke_e	e	n/a
583.897	0.075	1167794	keystroke_Key.backspace	Key.backspace	n/a
584.047	0.105	1168094	keystroke_Key.backspace	Key.backspace	n/a
584.242	0.12	1168484	keystroke_Key.backspace	Key.backspace	n/a
584.887	0.06	1169774	keystroke_e	e	n/a
