onset	duration	sample	value	key	prompt_text
1.4545	10.2755	2909	prompt	n/a	the quick brown fox jumps over a lazy dog\n
3.5235	0.026	7047	keystroke_t	t	n/a
3.5645	0.075	7129	keystroke_h	h	n/a
3.6545	0.075	7309	keystroke_e	e	n/a
3.8045	0.12	7609	keystroke_Key.space	Key.space	n/a
4.0595	0.075	8119	keystroke_q	q	n/a
4.2245	0.075	8449	keystroke_u	u	n/a
4.4045	0.075	8809	keystroke_i	i	n/a
4.5995	0.075	9199	keystroke_c	c	n/a
4.7195	0.09	9439	keystroke_k	k	n/a
4.9445	0.105	9889	keystroke_Key.space	Key.space	n/a
5.2	0.075	10400	keystroke_b	b	n/a
5.32	0.105	10640	keystroke_r	r	n/a
5.455	0.075	10910	keystroke_o	o	n/a
5.575	0.075	11150	keystroke_w	w	n/a
5.71	0.089	11420	keystroke_n	n	n/a
5.829	0.12	11658	keystroke_Key.space	Key.space	n/a
6.1	0.09	12200	keystroke_f	f	n/a
6.265	0.06	12530	keystroke_o	o	n/a
6.46	0.0755	12920	keystroke_x	x	n/a
6.8495	0.121	13699	keystroke_Key.space	Key.space	n/a
7.1045	0.075	14209	keystroke_j	j	n/a
7.3305	0.09	14661	keystroke_u	u	n/a
7.5995	0.105	15199	keystroke_m	m	n/a
7.7945	0.076	15589	keystroke_p	p	n/a
7.9155	0.105	15831	keystroke_s	s	n/a
8.2305	0.015	16461	keystroke_Key.space	Key.space	n/a
8.5155	0.075	17031	keystroke_o	o	n/a
8.6055	0.09	17211	keystroke_v	v	n/a
8.8005	0.075	17601	keystroke_e	e	n/a
8.8455	0.105	17691	keystroke_r	r	n/a
8.9795	0.075	17959	keystroke_Key.space	Key.space	n/a
9.1455	0.089	18291	keystroke_a	a	n/a
9.2495	0.106	18499	keystroke_Key.space	Key.space	n/a
9.7755	0.045	19551	keystroke_l	l	n/a
9.9095	0.106	19819	keystroke_a	a	n/a
10.1355	0.075	20271	keystroke_z	z	n/a
10.3005	0.06	20601	keystroke_y	y	n/a
10.4955	0.075	20991	keystroke_Key.space	Key.space	n/a
10.6605	0.089	21321	keystroke_d	d	n/a
10.7655	0.06	21531	keystroke_o	o	n/a
10.8855	0.09	21771	keystroke_g	g	n/a
11.6215	0.105	23243	keystroke_Key.enter	Key.enter	n/a
11.737	9.3365	23474	prompt	n/a	relevance appeals contribute online\n
12.5365	0.09	25073	keystroke_e	e	n/a
13.5265	0.104	27053	keystroke_Key.backspace	Key.backspace	n/a
13.9015	0.165	27803	keystroke_r	r	n/a
14.0365	0.105	28073	keystroke_e	e	n/a
14.3515	0.075	28703	keystroke_l	l	n/a
14.5015	0.105	29003	keystroke_e	e	n/a
14.7265	0.09	29453	keystroke_v	v	n/a
14.8915	0.134	29783	keystroke_a	a	n/a
15.0715	0.075	30143	keystroke_n	n	n/a
15.1765	0.135	30353	keystroke_c	c	n/a
15.2965	0.09	30593	keystroke_e	e	n/a
15.5215	0.09	31043	keystroke_Key.space	Key.space	n/a
15.7615	0.105	31523	keystroke_a	a	n/a
15.8515	0.075	31703	keystroke_p	p	n/a
16.0165	0.09	32033	keystroke_p	p	n/a
16.1815	0.075	32363	keystroke_e	e	n/a
16.3165	0.135	32633	keystroke_a	a	n/a
16.4515	0.075	32903	keystroke_l	l	n/a
16.5865	0.075	33173	keystroke_s	s	n/a
16.9315	0.105	33863	keystroke_Key.space	Key.space	n/a
17.1865	0.09	34373	keystroke_c	c	n/a
17.3365	0.075	34673	keystroke_o	o	n/a
17.4565	0.075	34913	keystroke_n	n	n/a
17.5915	0.075	35183	keystroke_t	t	n/a
17.7715	0.075	35543	keystroke_r	r	n/a
17.8615	0.06	35723	keystroke_i	i	n/a
18.1015	0.06	36203	keystroke_b	b	n/a
18.7165	0.06	37433	keystroke_u	u	n/a
18.9415	0.075	37883	keystroke_t	t	n/a
19.061	0.12	38122	keystroke_e	e	n/a
19.301	0.12	38602	keystroke_Key.space	Key.space	n/a
19.556	0.075	39112	keystroke_o	o	n/a
19.721	0.09	39442	keystroke_n	n	n/a
19.916	0.09	39832	keystroke_l	l	n/a
20.096	0.075	40192	keystroke_i	i	n/a
20.217	0.104	40434	keystroke_n	n	n/a
20.366	0.076	40732	keystroke_e	e	n/a
20.951	0.12	41902	keystroke_Key.enter	Key.enter	n/a
21.08	7.6595	42160	prompt	n/a	proxy leader backgrounds boom\n
21.731	0.105	43462	keystroke_p	p	n/a
21.881	0.091	43762	keystroke_r	r	n/a
22.016	0.06	44032	keystroke_o	o	n/a
22.226	0.075	44452	keystroke_x	x	n/a
22.466	0.075	44932	keystroke_y	y	n/a
22.991	0.105	45982	keystroke_Key.space	Key.space	n/a
23.3665	0.075	46733	keystroke_l	l	n/a
23.5015	0.075	47003	keystroke_e	e	n/a
23.6815	0.15	47363	keystroke_a	a	n/a
23.8765	0.045	47753	keystroke_d	d	n/a
24.0265	0.105	48053	keystroke_e	e	n/a
24.1465	0.06	48293	keystroke_r	r	n/a
24.5965	0.09	49193	keystroke_Key.space	Key.space	n/a
24.8065	0.075	49613	keystroke_b	b	n/a
24.8965	0.15	49793	keystroke_a	a	n/a
25.0165	0.105	50033	keystroke_c	c	n/a
25.1365	0.06	50273	keystroke_k	k	n/a
25.3465	0.075	50693	keystroke_g	g	n/a
25.5415	0.075	51083	keystroke_r	r	n/a
25.6765	0.075	51353	keystroke_o	o	n/a
25.7965	0.09	51593	keystroke_u	u	n/a
26.0365	0.075	52073	keystroke_n	n	n/a
26.1415	0.075	52283	keystroke_d	d	n/a
26.3365	0.09	52673	keystroke_s	s	n/a
26.6665	0.075	53333	keystroke_Key.space	Key.space	n/a
27.3415	0.075	54683	keystroke_b	b	n/a
27.5965	0.075	55193	keystroke_o	o	n/a
27.7915	0.075	55583	keystroke_o	o	n/a
28.0015	0.075	56003	keystroke_m	m	n/a
28.6465	0.09	57293	keystroke_Key.enter	Key.enter	n/a
28.7435	6.7895	57487	prompt	n/a	licenses soil editing military\n
29.5015	0.06	59003	keystroke_l	l	n/a
29.6665	0.06	59333	keystroke_i	i	n/a
29.8165	0.09	59633	keystroke_c	c	n/a
29.9665	0.105	59933	keystroke_e	e	n/a
30.1165	0.075	60233	keystroke_n	n	n/a
30.2515	0.105	60503	keystroke_s	s	n/a
30.3415	0.105	60683	keystroke_e	e	n/a
30.4915	0.12	60983	keystroke_s	s	n/a
31.0615	0.135	62123	keystroke_Key.space	Key.space	n/a
31.2715	0.12	62543	keystroke_s	s	n/a
31.3765	0.09	62753	keystroke_o	o	n/a
31.5715	0.06	63143	keystroke_i	i	n/a
31.7365	0.075	63473	keystroke_l	l	n/a
31.9765	0.105	63953	keystroke_Key.space	Key.space	n/a
32.2165	0.06	64433	keystroke_e	e	n/a
32.3815	0.09	64763	keystroke_d	d	n/a
32.5015	0.075	65003	keystroke_i	i	n/a
32.6365	0.075	65273	keystroke_t	t	n/a
32.7565	0.075	65513	keystroke_i	i	n/a
32.8765	0.09	65753	keystroke_n	n	n/a
32.9365	0.075	65873	keystroke_g	g	n/a
33.2515	0.105	66503	keystroke_Key.space	Key.space	n/a
33.6565	0.075	67313	keystroke_m	m	n/a
33.8365	0.075	67673	keystroke_i	i	n/a
34.0465	0.045	68093	keystroke_l	l	n/a
34.1515	0.09	68303	keystroke_i	i	n/a
34.3315	0.105	68663	keystroke_t	t	n/a
34.5115	0.12	69023	keystroke_a	a	n/a
34.7215	0.075	69443	keystroke_r	r	n/a
34.8415	0.06	69683	keystroke_y	y	n/a
35.4265	0.105	70853	keystroke_Key.enter	Key.enter	n/a
35.537	19.346	71074	prompt	n/a	unlimited contacted bibliography pregnancy\n
36.2965	0.075	72593	keystroke_u	u	n/a
36.5365	0.09	73073	keystroke_n	n	n/a
36.7765	0.09	73553	keystroke_l	l	n/a
36.9715	0.075	73943	keystroke_i	i	n/a
37.2115	0.09	74423	keystroke_m	m	n/a
37.4515	0.075	74903	keystroke_i	i	n/a
37.5415	0.06	75083	keystroke_t	t	n/a
37.7065	0.06	75413	keystroke_e	e	n/a
37.8715	0.06	75743	keystroke_d	d	n/a
38.187	0.1195	76374	keystroke_Key.space	Key.space	n/a
38.4715	0.06	76943	keystroke_c	c	n/a
38.5915	0.105	77183	keystroke_o	o	n/a
38.7415	0.09	77483	keystroke_n	n	n/a
38.9965	0.06	77993	keystroke_t	t	n/a
39.1765	0.165	78353	keystroke_a	a	n/a
39.3565	0.09	78713	keystroke_c	c	n/a
39.6115	0.09	79223	keystroke_t	t	n/a
39.8065	0.075	79613	keystroke_e	e	n/a
40.0015	0.06	80003	keystroke_d	d	n/a
40.2265	0.09	80453	keystroke_Key.space	Key.space	n/a
40.4815	0.075	80963	keystroke_b	b	n/a
40.6465	0.06	81293	keystroke_i	i	n/a
40.8565	0.09	81713	keystroke_b	b	n/a
41.2165	0.075	82433	keystroke_l	l	n/a
41.351	0.075	82702	keystroke_i	i	n/a
41.906	0.075	83812	keystroke_o	o	n/a
42.086	0.045	84172	keystroke_g	g	n/a
42.236	0.09	84472	keystroke_r	r	n/a
42.386	0.12	84772	keystroke_a	a	n/a
42.521	0.135	85042	keystroke_p	p	n/a
42.881	0.075	85762	keystroke_y	y	n/a
43.451	0.075	86902	keystroke_Key.space	Key.space	n/a
46.349	0.027	92698	keystroke_Key.backspace	Key.backspace	n/a
47.456	0.09	94912	keystroke_Key.backspace	Key.backspace	n/a
49.151	0.045	98302	keystroke_h	h	n/a
49.316	0.075	98632	keystroke_y	y	n/a
49.556	0.135	99112	keystroke_Key.space	Key.space	n/a
50.276	0.12	100552	keystroke_p	p	n/a
50.411	0.105	100822	keystroke_r	r	n/a
50.681	0.09	101362	keystroke_g	g	n/a
51.8655	0.12	103731	keystroke_Key.backspace	Key.backspace	n/a
52.301	0.075	104602	keystroke_e	e	n/a
52.51	0.091	105020	keystroke_g	g	n/a
53.08	0.061	106160	keystroke_n	n	n/a
53.2755	0.105	106551	keystroke_a	a	n/a
53.5155	0.075	107031	keystroke_n	n	n/a
53.6355	0.105	107271	keystroke_c	c	n/a
53.8155	0.075	107631	keystroke_y	y	n/a
54.7755	0.105	109551	keystroke_Key.enter	Key.enter	n/a
54.888	10.706	109776	prompt	n/a	lane project prisoners examines\n
55.7805	0.075	111561	keystroke_l	l	n/a
55.9305	0.12	111861	keystroke_a	a	n/a
56.0805	0.075	112161	keystroke_n	n	n/a
56.1705	0.075	112341	keystroke_e	e	n/a
56.3505	0.09	112701	keystroke_Key.space	Key.space	n/a
56.7855	0.12	113571	keystroke_p	p	n/a
56.9515	0.059	113903	keystroke_r	r	n/a
57.0555	0.075	114111	keystroke_o	o	n/a
57.2655	0.09	114531	keystroke_j	j	n/a
57.3705	0.06	114741	keystroke_e	e	n/a
57.5505	0.075	115101	keystroke_c	c	n/a
57.7755	0.075	115551	keystroke_t	t	n/a
58.2105	0.075	116421	keystroke_Key.space	Key.space	n/a
58.4205	0.12	116841	keystroke_p	p	n/a
58.5705	0.075	117141	keystroke_r	r	n/a
58.7805	0.075	117561	keystroke_o	o	n/a
59.9505	0.105	119901	keystroke_Key.backspace	Key.backspace	n/a
60.3855	0.06	120771	keystroke_i	i	n/a
60.5955	0.105	121191	keystroke_s	s	n/a
60.7155	0.075	121431	keystroke_o	o	n/a
60.8355	0.105	121671	keystroke_n	n	n/a
61.2705	0.12	122541	keystroke_e	e	n/a
61.3605	0.09	122721	keystroke_r	r	n/a
61.5855	0.09	123171	keystroke_s	s	n/a
62.0505	0.12	124101	keystroke_Key.space	Key.space	n/a
62.3805	0.06	124761	keystroke_e	e	n/a
62.6205	0.046	125241	keystroke_x	x	n/a
62.7105	0.105	125421	keystroke_a	a	n/a
62.9055	0.06	125811	keystroke_m	m	n/a
63.0855	0.06	126171	keystroke_i	i	n/a
63.1905	0.09	126381	keystroke_n	n	n/a
64.2255	0.075	128451	keystroke_e	e	n/a
64.5255	0.075	129051	keystroke_s	s	n/a
65.4855	0.105	130971	keystroke_Key.enter	Key.enter	n/a
65.6	9.2925	131200	prompt	n/a	assigned beverly kiss grows\n
66.2055	0.105	132411	keystroke_a	a	n/a
66.4005	0.06	132801	keystroke_s	s	n/a
66.5505	0.045	133101	keystroke_s	s	n/a
66.8205	0.075	133641	keystroke_i	i	n/a
67.1355	0.105	134271	keystroke_g	g	n/a
67.2705	0.06	134541	keystroke_n	n	n/a
67.4355	0.075	134871	keystroke_e	e	n/a
67.6455	0.075	135291	keystroke_d	d	n/a
67.8855	0.075	135771	keystroke_Key.space	Key.space	n/a
68.1865	0.074	136373	keystroke_b	b	n/a
68.2905	0.09	136581	keystroke_e	e	n/a
68.5755	0.09	137151	keystroke_v	v	n/a
68.7405	0.135	137481	keystroke_e	e	n/a
68.8605	0.105	137721	keystroke_r	r	n/a
69.5805	0.075	139161	keystroke_l	l	n/a
69.8055	0.075	139611	keystroke_y	y	n/a
70.0605	0.12	140121	keystroke_Key.space	Key.space	n/a
70.3015	0.059	140603	keystroke_k	k	n/a
70.4955	0.06	140991	keystroke_i	i	n/a
70.6755	0.075	141351	keystroke_s	s	n/a
70.8555	0.105	141711	keystroke_s	s	n/a
73.4385	0.042	146877	keystroke_Key.space	Key.space	n/a
73.5705	0.075	147141	keystroke_g	g	n/a
73.7505	0.091	147501	keystroke_r	r	n/a
73.9155	0.06	147831	keystroke_o	o	n/a
74.0205	0.075	148041	keystroke_w	w	n/a
74.2155	0.09	148431	keystroke_s	s	n/a
74.7705	0.12	149541	keystroke_Key.enter	Key.enter	n/a
74.8995	9.173	149799	prompt	n/a	place convergence concord dozens\n
75.5955	0.12	151191	keystroke_p	p	n/a
75.8055	0.106	151611	keystroke_l	l	n/a
75.9705	0.12	151941	keystroke_a	a	n/a
76.1215	0.059	152243	keystroke_n	n	n/a
77.0055	0.105	154011	keystroke_Key.backspace	Key.backspace	n/a
77.2305	0.09	154461	keystroke_c	c	n/a
77.3505	0.075	154701	keystroke_e	e	n/a
77.6955	0.09	155391	keystroke_Key.space	Key.space	n/a
77.9505	0.09	155901	keystroke_c	c	n/a
78.1005	0.105	156201	keystroke_o	o	n/a
78.2505	0.105	156501	keystroke_n	n	n/a
79.3155	0.06	158631	keystroke_v	v	n/a
79.4955	0.091	158991	keystroke_e	e	n/a
79.5705	0.135	159141	keystroke_r	r	n/a
79.8255	0.076	159651	keystroke_g	g	n/a
79.9755	0.09	159951	keystroke_e	e	n/a
80.0955	0.075	160191	keystroke_n	n	n/a
80.3505	0.135	160701	keystroke_c	c	n/a
80.5005	0.075	161001	keystroke_e	e	n/a
80.8005	0.12	161601	keystroke_Key.space	Key.space	n/a
81.3405	0.09	162681	keystroke_c	c	n/a
81.5055	0.106	163011	keystroke_o	o	n/a
81.6555	0.09	163311	keystroke_n	n	n/a
81.7905	0.09	163581	keystroke_c	c	n/a
81.9115	0.074	163823	keystroke_o	o	n/a
82.0905	0.075	164181	keystroke_r	r	n/a
82.2555	0.075	164511	keystroke_d	d	n/a
82.4805	0.09	164961	keystroke_Key.space	Key.space	n/a
82.6905	0.09	165381	keystroke_d	d	n/a
82.7815	0.09	165563	keystroke_o	o	n/a
82.9755	0.091	165951	keystroke_z	z	n/a
83.1555	0.045	166311	keystroke_e	e	n/a
83.3205	0.075	166641	keystroke_n	n	n/a
83.4555	0.09	166911	keystroke_s	s	n/a
83.9505	0.12	167901	keystroke_Key.enter	Key.enter	n/a
84.077	6.4155	168154	prompt	n/a	windsor poet joke luke\n
84.7315	0.014	169463	keystroke_w	w	n/a
84.7905	0.09	169581	keystroke_i	i	n/a
84.9555	0.09	169911	keystroke_n	n	n/a
85.1055	0.075	170211	keystroke_d	d	n/a
85.6915	0.075	171383	keystroke_s	s	n/a
85.9455	0.075	171891	keystroke_o	o	n/a
86.0665	0.074	172133	keystroke_r	r	n/a
86.2905	0.09	172581	keystroke_Key.space	Key.space	n/a
86.5305	0.106	173061	keystroke_p	p	n/a
86.7105	0.091	173421	keystroke_o	o	n/a
86.8455	0.105	173691	keystroke_e	e	n/a
86.9955	0.075	173991	keystroke_t	t	n/a
87.626	0.105	175252	keystroke_Key.space	Key.space	n/a
87.926	0.09	175852	keystroke_j	j	n/a
88.286	0.06	176572	keystroke_o	o	n/a
88.691	0.075	177382	keystroke_k	k	n/a
88.811	0.075	177622	keystroke_e	e	n/a
89.111	0.12	178222	keystroke_Key.space	Key.space	n/a
89.381	0.105	178762	keystroke_l	l	n/a
89.561	0.075	179122	keystroke_u	u	n/a
89.786	0.09	179572	keystroke_k	k	n/a
89.891	0.075	179782	keystroke_e	e	n/a
90.386	0.105	180772	keystroke_Key.enter	Key.enter	n/a
90.4985	8.635	180997	prompt	n/a	agree instrumental lets steven\n
91.121	0.15	182242	keystroke_a	a	n/a
91.316	0.075	182632	keystroke_g	g	n/a
91.511	0.075	183022	keystroke_r	r	n/a
91.661	0.09	183322	keystroke_e	e	n/a
92.006	0.075	184012	keystroke_e	e	n/a
92.561	0.12	185122	keystroke_Key.space	Key.space	n/a
92.771	0.075	185542	keystroke_i	i	n/a
92.906	0.075	185812	keystroke_n	n	n/a
93.221	0.045	186442	keystroke_t	t	n/a
94.106	0.105	188212	keystroke_Key.backspace	Key.backspace	n/a
94.361	0.105	188722	keystroke_s	s	n/a
94.616	0.06	189232	keystroke_t	t	n/a
94.796	0.075	189592	keystroke_r	r	n/a
94.976	0.09	189952	keystroke_u	u	n/a
95.321	0.09	190642	keystroke_m	m	n/a
95.426	0.075	190852	keystroke_e	e	n/a
95.516	0.075	191032	keystroke_n	n	n/a
95.636	0.075	191272	keystroke_t	t	n/a
95.771	0.12	191542	keystroke_a	a	n/a
95.906	0.075	191812	keystroke_l	l	n/a
96.371	0.105	192742	keystroke_Key.space	Key.space	n/a
96.641	0.075	193282	keystroke_l	l	n/a
96.806	0.1205	193612	keystroke_e	e	n/a
96.9405	0.075	193881	keystroke_t	t	n/a
97.1055	0.091	194211	keystroke_s	s	n/a
97.3155	0.075	194631	keystroke_Key.space	Key.space	n/a
97.5555	0.106	195111	keystroke_s	s	n/a
97.7515	0.0895	195503	keystroke_t	t	n/a
97.886	0.12	195772	keystroke_e	e	n/a
98.141	0.09	196282	keystroke_v	v	n/a
98.321	0.09	196642	keystroke_e	e	n/a
98.471	0.075	196942	keystroke_n	n	n/a
99.026	0.105	198052	keystroke_Key.enter	Key.enter	n/a
99.139	9.4735	198278	prompt	n/a	badge submitting alabama amateur\n
99.956	0.06	199912	keystroke_b	b	n/a
100.121	0.15	200242	keystroke_a	a	n/a
100.256	0.09	200512	keystroke_d	d	n/a
100.376	0.195	200752	keystroke_g	g	n/a
100.526	0.09	201052	keystroke_e	e	n/a
101.171	0.075	202342	keystroke_Key.space	Key.space	n/a
101.351	0.09	202702	keystroke_s	s	n/a
101.456	0.075	202912	keystroke_u	u	n/a
101.666	0.06	203332	keystroke_b	b	n/a
101.966	0.09	203932	keystroke_m	m	n/a
102.206	0.09	204412	keystroke_i	i	n/a
102.386	0.06	204772	keystroke_t	t	n/a
102.536	0.075	205072	keystroke_t	t	n/a
102.761	0.06	205522	keystroke_i	i	n/a
102.851	0.075	205702	keystroke_n	n	n/a
102.911	0.09	205822	keystroke_g	g	n/a
103.631	0.075	207262	keystroke_Key.space	Key.space	n/a
104.561	0.12	209122	keystroke_a	a	n/a
104.846	0.09	209692	keystroke_l	l	n/a
104.936	0.1045	209872	keystroke_a	a	n/a
105.146	0.075	210292	keystroke_b	b	n/a
105.356	0.075	210712	keystroke_a	a	n/a
105.476	0.075	210952	keystroke_m	m	n/a
105.566	0.09	211132	keystroke_a	a	n/a
105.9255	0.12	211851	keystroke_Key.space	Key.space	n/a
106.3455	0.06	212691	keystroke_a	a	n/a
106.5855	0.09	213171	keystroke_m	m	n/a
106.6905	0.106	213381	keystroke_a	a	n/a
107.3505	0.075	214701	keystroke_t	t	n/a
107.5755	0.076	215151	keystroke_e	e	n/a
107.7865	0.045	215573	keystroke_u	u	n/a
107.8615	0.075	215723	keystroke_r	r	n/a
108.4905	0.12	216981	keystroke_Key.enter	Key.enter	n/a
108.618	6.9855	217236	prompt	n/a	card memo make notifications\n
109.2865	0.075	218573	keystroke_c	c	n/a
109.4655	0.136	218931	keystroke_a	a	n/a
109.5565	0.09	219113	keystroke_r	r	n/a
109.7065	0.105	219413	keystroke_d	d	n/a
110.1855	0.12	220371	keystroke_Key.space	Key.space	n/a
110.5315	0.06	221063	keystroke_m	m	n/a
110.6355	0.09	221271	keystroke_e	e	n/a
110.7565	0.09	221513	keystroke_m	m	n/a
110.9065	0.089	221813	keystroke_o	o	n/a
111.3255	0.09	222651	keystroke_Key.space	Key.space	n/a
111.7315	0.075	223463	keystroke_m	m	n/a
111.8365	0.12	223673	keystroke_a	a	n/a
111.9405	0.075	223881	keystroke_k	k	n/a
112.0315	0.09	224063	keystroke_e	e	n/a
112.6305	0.105	225261	keystroke_Key.space	Key.space	n/a
112.9915	0.059	225983	keystroke_n	n	n/a
113.0665	0.074	226133	keystroke_o	o	n/a
113.3365	0.059	226673	keystroke_t	t	n/a
113.4265	0.075	226853	keystroke_i	i	n/a
113.6065	0.075	227213	keystroke_f	f	n/a
113.6965	0.075	227393	keystroke_i	i	n/a
113.9215	0.12	227843	keystroke_c	c	n/a
114.0565	0.134	228113	keystroke_a	a	n/a
114.3255	0.061	228651	keystroke_t	t	n/a
114.5065	0.105	229013	keystroke_o	o	n/a
114.5955	0.121	229191	keystroke_n	n	n/a
114.8965	0.089	229793	keystroke_s	s	n/a
115.5105	0.09	231021	keystroke_Key.enter	Key.enter	n/a
115.61	6.9825	231220	prompt	n/a	robert forests medal lenders\n
116.2455	0.061	232491	keystroke_r	r	n/a
116.5465	0.09	233093	keystroke_o	o	n/a
116.7715	0.06	233543	keystroke_b	b	n/a
116.8765	0.075	233753	keystroke_e	e	n/a
116.9815	0.075	233963	keystroke_r	r	n/a
117.1315	0.105	234263	keystroke_t	t	n/a
117.8355	0.105	235671	keystroke_Key.space	Key.space	n/a
117.9865	0.089	235973	keystroke_f	f	n/a
118.1365	0.09	236273	keystroke_o	o	n/a
118.2415	0.074	236483	keystroke_r	r	n/a
118.3615	0.09	236723	keystroke_e	e	n/a
118.5565	0.149	237113	keystroke_s	s	n/a
118.7215	0.0445	237443	keystroke_t	t	n/a
118.886	0.09	237772	keystroke_s	s	n/a
119.561	0.104	239122	keystroke_Key.space	Key.space	n/a
119.816	0.074	239632	keystroke_m	m	n/a
119.921	0.06	239842	keystroke_e	e	n/a
120.086	0.12	240172	keystroke_d	d	n/a
120.191	0.105	240382	keystroke_a	a	n/a
120.551	0.045	241102	keystroke_l	l	n/a
120.865	0.105	241730	keystroke_Key.space	Key.space	n/a
121.196	0.09	242392	keystroke_l	l	n/a
121.271	0.075	242542	keystroke_e	e	n/a
121.436	0.09	242872	keystroke_n	n	n/a
121.511	0.075	243022	keystroke_d	d	n/a
121.706	0.09	243412	keystroke_e	e	n/a
121.781	0.09	243562	keystroke_r	r	n/a
121.976	0.075	243952	keystroke_s	s	n/a
122.486	0.105	244972	keystroke_Key.enter	Key.enter	n/a
122.5985	10.6745	245197	prompt	n/a	commonly compiled peripheral organizing\n
123.251	0.075	246502	keystroke_c	c	n/a
123.461	0.09	246922	keystroke_o	o	n/a
123.716	0.075	247432	keystroke_m	m	n/a
123.851	0.105	247702	keystroke_m	m	n/a
124.046	0.075	248092	keystroke_o	o	n/a
124.181	0.075	248362	keystroke_n	n	n/a
124.331	0.105	248662	keystroke_l	l	n/a
124.466	0.09	248932	keystroke_y	y	n/a
125.096	0.105	250192	keystroke_Key.space	Key.space	n/a
125.306	0.075	250612	keystroke_c	c	n/a
125.441	0.09	250882	keystroke_o	o	n/a
125.651	0.15	251302	keystroke_m	m	n/a
125.861	0.12	251722	keystroke_p	p	n/a
126.161	0.06	252322	keystroke_i	i	n/a
127.106	0.09	254212	keystroke_l	l	n/a
127.256	0.06	254512	keystroke_e	e	n/a
127.406	0.09	254812	keystroke_d	d	n/a
127.736	0.105	255472	keystroke_Key.space	Key.space	n/a
128.621	0.09	257242	keystroke_p	p	n/a
128.651	0.09	257302	keystroke_e	e	n/a
128.741	0.09	257482	keystroke_r	r	n/a
128.921	0.09	257842	keystroke_i	i	n/a
129.191	0.135	258382	keystroke_p	p	n/a
129.341	0.09	258682	keystroke_h	h	n/a
129.461	0.105	258922	keystroke_e	e	n/a
129.551	0.12	259102	keystroke_r	r	n/a
129.701	0.105	259402	keystroke_a	a	n/a
129.821	0.075	259642	keystroke_l	l	n/a
130.256	0.12	260512	keystroke_Key.space	Key.space	n/a
130.571	0.075	261142	keystroke_o	o	n/a
130.661	0.09	261322	keystroke_r	r	n/a
130.886	0.06	261772	keystroke_g	g	n/a
131.006	0.105	262012	keystroke_a	a	n/a
131.336	0.09	262672	keystroke_n	n	n/a
131.486	0.075	262972	keystroke_i	i	n/a
131.876	0.09	263752	keystroke_z	z	n/a
132.356	0.09	264712	keystroke_i	i	n/a
132.491	0.075	264982	keystroke_n	n	n/a
132.551	0.06	265102	keystroke_g	g	n/a
133.151	0.12	266302	keystroke_Key.enter	Key.enter	n/a
133.2785	9.339	266557	prompt	n/a	riders frontier chorus depth\n
134.036	0.075	268072	keystroke_i	i	n/a
134.141	0.075	268282	keystroke_r	r	n/a
134.351	0.06	268702	keystroke_d	d	n/a
134.516	0.075	269032	keystroke_e	e	n/a
134.591	0.075	269182	keystroke_r	r	n/a
135.3405	0.09	270681	keystroke_Key.backspace	Key.backspace	n/a
135.5355	0.09	271071	keystroke_Key.backspace	Key.backspace	n/a
135.7455	0.075	271491	keystroke_Key.backspace	Key.backspace	n/a
135.9405	0.075	271881	keystroke_Key.backspace	Key.backspace	n/a
136.0905	0.105	272181	keystroke_Key.backspace	Key.backspace	n/a
136.4505	0.075	272901	keystroke_r	r	n/a
136.7505	0.06	273501	keystroke_i	i	n/a
136.8255	0.06	273651	keystroke_d	d	n/a
137.0055	0.105	274011	keystroke_e	e	n/a
137.0955	0.075	274191	keystroke_r	r	n/a
138.1155	0.09	276231	keystroke_s	s	n/a
138.3405	0.06	276681	keystroke_Key.space	Key.space	n/a
138.4605	0.075	276921	keystroke_f	f	n/a
138.7305	0.075	277461	keystroke_r	r	n/a
138.8505	0.09	277701	keystroke_o	o	n/a
139.0905	0.075	278181	keystroke_n	n	n/a
139.2855	0.03	278571	keystroke_t	t	n/a
139.4505	0.045	278901	keystroke_i	i	n/a
139.5405	0.075	279081	keystroke_e	e	n/a
139.6305	0.09	279261	keystroke_r	r	n/a
139.9155	0.12	279831	keystroke_Key.space	Key.space	n/a
140.1555	0.09	280311	keystroke_c	c	n/a
140.4105	0.075	280821	keystroke_h	h	n/a
140.5905	0.09	281181	keystroke_o	o	n/a
140.7855	0.045	281571	keystroke_r	r	n/a
140.9505	0.045	281901	keystroke_u	u	n/a
141.0855	0.09	282171	keystroke_s	s	n/a
141.3105	0.09	282621	keystroke_Key.space	Key.space	n/a
141.4455	0.075	282891	keystroke_d	d	n/a
141.6255	0.075	283251	keystroke_e	e	n/a
141.7315	0.119	283463	keystroke_p	p	n/a
141.8655	0.075	283731	keystroke_t	t	n/a
141.9705	0.09	283941	keystroke_h	h	n/a
142.4955	0.12	284991	keystroke_Key.enter	Key.enter	n/a
142.623	8.4845	285246	prompt	n/a	relevant filters functional feels\n
143.2755	0.12	286551	keystroke_r	r	n/a
143.3965	0.089	286793	keystroke_e	e	n/a
143.6355	0.09	287271	keystroke_l	l	n/a
143.7405	0.075	287481	keystroke_e	e	n/a
143.9355	0.105	287871	keystroke_v	v	n/a
144.1305	0.12	288261	keystroke_a	a	n/a
144.2805	0.076	288561	keystroke_n	n	n/a
144.3705	0.075	288741	keystroke_t	t	n/a
144.5505	0.12	289101	keystroke_Key.space	Key.space	n/a
144.7305	0.09	289461	keystroke_f	f	n/a
144.8355	0.075	289671	keystroke_i	i	n/a
145.0465	0.074	290093	keystroke_l	l	n/a
145.4805	0.06	290961	keystroke_t	t	n/a
145.8705	0.09	291741	keystroke_e	e	n/a
145.9755	0.106	291951	keystroke_r	r	n/a
147.1905	0.091	294381	keystroke_s	s	n/a
147.8505	0.09	295701	keystroke_Key.space	Key.space	n/a
148.0005	0.061	296001	keystroke_f	f	n/a
148.1205	0.075	296241	keystroke_u	u	n/a
148.3455	0.076	296691	keystroke_n	n	n/a
148.4665	0.074	296933	keystroke_c	c	n/a
148.7205	0.045	297441	keystroke_t	t	n/a
148.8255	0.091	297651	keystroke_i	i	n/a
148.9455	0.09	297891	keystroke_o	o	n/a
149.0365	0.1035	298073	keystroke_n	n	n/a
149.17	0.1205	298340	keystroke_a	a	n/a
149.2765	0.0885	298553	keystroke_l	l	n/a
149.62	0.105	299240	keystroke_Key.space	Key.space	n/a
149.831	0.06	299662	keystroke_f	f	n/a
150.011	0.0755	300022	keystroke_e	e	n/a
150.176	0.059	300352	keystroke_e	e	n/a
150.295	0.0905	300590	keystroke_l	l	n/a
150.446	0.0895	300892	keystroke_s	s	n/a
151.0005	0.1045	302001	keystroke_Key.enter	Key.enter	n/a
151.112	7.1805	302224	prompt	n/a	boolean office trembl what\n
151.841	0.06	303682	keystroke_b	b	n/a
152.05	0.06	304100	keystroke_o	o	n/a
152.201	0.059	304402	keystroke_o	o	n/a
152.456	0.075	304912	keystroke_l	l	n/a
152.62	0.0755	305240	keystroke_e	e	n/a
152.936	0.0895	305872	keystroke_a	a	n/a
153.056	0.09	306112	keystroke_n	n	n/a
153.31	0.12	306620	keystroke_Key.space	Key.space	n/a
153.58	0.075	307160	keystroke_o	o	n/a
153.731	0.074	307462	keystroke_f	f	n/a
153.91	0.091	307820	keystroke_f	f	n/a
154.961	0.06	309922	keystroke_i	i	n/a
155.186	0.105	310372	keystroke_c	c	n/a
155.306	0.09	310612	keystroke_e	e	n/a
155.485	0.105	310970	keystroke_Key.space	Key.space	n/a
155.68	0.031	311360	keystroke_t	t	n/a
155.815	0.076	311630	keystroke_r	r	n/a
155.906	0.074	311812	keystroke_e	e	n/a
156.43	0.09	312860	keystroke_m	m	n/a
156.67	0.045	313340	keystroke_b	b	n/a
156.866	0.075	313732	keystroke_l	l	n/a
157.075	0.09	314150	keystroke_Key.space	Key.space	n/a
157.225	0.09	314450	keystroke_w	w	n/a
157.39	0.075	314780	keystroke_h	h	n/a
157.526	0.134	315052	keystroke_a	a	n/a
157.63	0.09	315260	keystroke_t	t	n/a
158.155	0.135	316310	keystroke_Key.enter	Key.enter	n/a
158.2985	14.1685	316597	prompt	n/a	teaching companies specifically often\n
159.085	0.076	318170	keystroke_e	e	n/a
159.925	0.105	319850	keystroke_Key.backspace	Key.backspace	n/a
160.285	0.09	320570	keystroke_t	t	n/a
160.42	0.091	320840	keystroke_e	e	n/a
160.616	0.165	321232	keystroke_a	a	n/a
160.721	0.089	321442	keystroke_c	c	n/a
160.856	0.075	321712	keystroke_h	h	n/a
161.036	0.059	322072	keystroke_i	i	n/a
161.156	0.06	322312	keystroke_n	n	n/a
161.231	0.06	322462	keystroke_g	g	n/a
161.455	0.09	322910	keystroke_Key.space	Key.space	n/a
161.621	0.075	323242	keystroke_c	c	n/a
161.71	0.09	323420	keystroke_o	o	n/a
161.89	0.136	323780	keystroke_m	m	n/a
162.071	0.119	324142	keystroke_p	p	n/a
162.206	0.09	324412	keystroke_a	a	n/a
162.311	0.075	324622	keystroke_n	n	n/a
162.416	0.075	324832	keystroke_i	i	n/a
162.52	0.061	325040	keystroke_e	e	n/a
162.67	0.091	325340	keystroke_s	s	n/a
162.956	0.104	325912	keystroke_Key.space	Key.space	n/a
163.27	0.061	326540	keystroke_r	r	n/a
164.021	0.09	328042	keystroke_Key.backspace	Key.backspace	n/a
164.336	0.09	328672	keystroke_s	s	n/a
164.486	0.105	328972	keystroke_p	p	n/a
164.605	0.076	329210	keystroke_e	e	n/a
164.816	0.075	329632	keystroke_c	c	n/a
164.966	0.074	329932	keystroke_i	i	n/a
165.1155	0.105	330231	keystroke_a	a	n/a
165.2655	0.045	330531	keystroke_l	l	n/a
166.4505	0.075	332901	keystroke_Key.backspace	Key.backspace	n/a
167.2905	0.015	334581	keystroke_Key.backspace	Key.backspace	n/a
168.0555	0.06	336111	keystroke_f	f	n/a
168.1605	0.075	336321	keystroke_i	i	n/a
168.2805	0.09	336561	keystroke_c	c	n/a
168.4005	0.045	336801	keystroke_a	a	n/a
169.7055	0.09	339411	keystroke_l	l	n/a
170.0505	0.075	340101	keystroke_l	l	n/a
170.2755	0.06	340551	keystroke_y	y	n/a
170.5155	0.075	341031	keystroke_Key.space	Key.space	n/a
171.1905	0.06	342381	keystroke_o	o	n/a
171.2805	0.06	342561	keystroke_f	f	n/a
171.4755	0.06	342951	keystroke_t	t	n/a
171.6105	0.075	343221	keystroke_e	e	n/a
171.7455	0.075	343491	keystroke_n	n	n/a
172.3605	0.105	344721	keystroke_Key.enter	Key.enter	n/a
172.4715	5.7405	344943	prompt	n/a	free cable gloves richardson\n
173.0355	0.06	346071	keystroke_f	f	n/a
173.2305	0.06	346461	keystroke_r	r	n/a
173.3805	0.06	346761	keystroke_e	e	n/a
173.5305	0.075	347061	keystroke_e	e	n/a
173.6805	0.105	347361	keystroke_Key.space	Key.space	n/a
173.8605	0.075	347721	keystroke_c	c	n/a
174.0105	0.12	348021	keystroke_a	a	n/a
174.1455	0.075	348291	keystroke_b	b	n/a
174.4155	0.075	348831	keystroke_l	l	n/a
174.5355	0.03	349071	keystroke_e	e	n/a
174.7755	0.075	349551	keystroke_Key.space	Key.space	n/a
174.9855	0.06	349971	keystroke_g	g	n/a
175.1655	0.075	350331	keystroke_l	l	n/a
175.3605	0.075	350721	keystroke_o	o	n/a
175.4055	0.105	350811	keystroke_v	v	n/a
175.5855	0.06	351171	keystroke_e	e	n/a
175.7505	0.075	351501	keystroke_s	s	n/a
176.0205	0.075	352041	keystroke_Key.space	Key.space	n/a
176.2755	0.06	352551	keystroke_r	r	n/a
176.4405	0.045	352881	keystroke_i	i	n/a
176.5455	0.075	353091	keystroke_c	c	n/a
176.6805	0.075	353361	keystroke_h	h	n/a
176.8455	0.135	353691	keystroke_a	a	n/a
176.9355	0.09	353871	keystroke_r	r	n/a
177.1005	0.105	354201	keystroke_d	d	n/a
177.2955	0.09	354591	keystroke_s	s	n/a
177.4005	0.09	354801	keystroke_o	o	n/a
177.5205	0.09	355041	keystroke_n	n	n/a
178.1055	0.105	356211	keystroke_Key.enter	Key.enter	n/a
178.2195	7.1775	356439	prompt	n/a	adult developing average progress\n
178.7505	0.105	357501	keystroke_a	a	n/a
178.9755	0.075	357951	keystroke_d	d	n/a
179.2155	0.045	358431	keystroke_u	u	n/a
179.4105	0.06	358821	keystroke_l	l	n/a
179.4555	0.06	358911	keystroke_t	t	n/a
179.6805	0.09	359361	keystroke_Key.space	Key.space	n/a
179.8755	0.06	359751	keystroke_d	d	n/a
180.0555	0.045	360111	keystroke_e	e	n/a
180.2355	0.12	360471	keystroke_v	v	n/a
180.3405	0.105	360681	keystroke_e	e	n/a
180.5955	0.06	361191	keystroke_l	l	n/a
180.7755	0.12	361551	keystroke_o	o	n/a
180.9255	0.12	361851	keystroke_p	p	n/a
181.1505	0.06	362301	keystroke_i	i	n/a
181.2405	0.09	362481	keystroke_n	n	n/a
181.3005	0.075	362601	keystroke_g	g	n/a
181.7205	0.09	363441	keystroke_Key.space	Key.space	n/a
182.0355	0.12	364071	keystroke_a	a	n/a
182.2755	0.075	364551	keystroke_v	v	n/a
182.5155	0.105	365031	keystroke_e	e	n/a
182.6055	0.105	365211	keystroke_r	r	n/a
182.7855	0.195	365571	keystroke_a	a	n/a
182.9055	0.135	365811	keystroke_g	g	n/a
183.0105	0.075	366021	keystroke_e	e	n/a
183.5805	0.105	367161	keystroke_Key.space	Key.space	n/a
183.7605	0.12	367521	keystroke_p	p	n/a
183.8505	0.09	367701	keystroke_r	r	n/a
184.0005	0.09	368001	keystroke_o	o	n/a
184.1205	0.06	368241	keystroke_g	g	n/a
184.2855	0.12	368571	keystroke_r	r	n/a
184.4055	0.09	368811	keystroke_e	e	n/a
184.6005	0.045	369201	keystroke_s	s	n/a
184.7355	0.105	369471	keystroke_s	s	n/a
185.2905	0.105	370581	keystroke_Key.enter	Key.enter	n/a
185.401	9.0565	370802	prompt	n/a	canvas packages departure except\n
185.9655	0.105	371931	keystroke_c	c	n/a
186.1155	0.105	372231	keystroke_a	a	n/a
186.2805	0.06	372561	keystroke_n	n	n/a
186.3855	0.09	372771	keystroke_v	v	n/a
186.7155	0.15	373431	keystroke_a	a	n/a
186.8355	0.09	373671	keystroke_s	s	n/a
187.2405	0.12	374481	keystroke_Key.space	Key.space	n/a
187.7205	0.105	375441	keystroke_p	p	n/a
187.8405	0.165	375681	keystroke_a	a	n/a
187.9455	0.105	375891	keystroke_c	c	n/a
188.2305	0.09	376461	keystroke_k	k	n/a
188.3055	0.12	376611	keystroke_a	a	n/a
188.3805	0.12	376761	keystroke_g	g	n/a
188.5155	0.075	377031	keystroke_e	e	n/a
188.6505	0.105	377301	keystroke_s	s	n/a
189.0255	0.105	378051	keystroke_Key.space	Key.space	n/a
189.3105	0.075	378621	keystroke_d	d	n/a
189.4605	0.09	378921	keystroke_e	e	n/a
189.7005	0.12	379401	keystroke_p	p	n/a
189.7455	0.135	379491	keystroke_a	a	n/a
190.7955	0.075	381591	keystroke_r	r	n/a
191.0205	0.09	382041	keystroke_t	t	n/a
191.6805	0.06	383361	keystroke_u	u	n/a
191.7415	0.104	383483	keystroke_r	r	n/a
191.8305	0.105	383661	keystroke_e	e	n/a
192.6105	0.105	385221	keystroke_Key.space	Key.space	n/a
192.8505	0.075	385701	keystroke_e	e	n/a
193.0305	0.075	386061	keystroke_x	x	n/a
193.2405	0.15	386481	keystroke_c	c	n/a
193.3605	0.105	386721	keystroke_e	e	n/a
193.5865	0.134	387173	keystroke_p	p	n/a
193.6455	0.09	387291	keystroke_t	t	n/a
194.3355	0.12	388671	keystroke_Key.enter	Key.enter	n/a
194.4615	7.796	388923	prompt	n/a	influenced chan package panel\n
195.0705	0.06	390141	keystroke_i	i	n/a
195.1605	0.09	390321	keystroke_n	n	n/a
195.3255	0.075	390651	keystroke_f	f	n/a
195.4155	0.105	390831	keystroke_l	l	n/a
195.5505	0.075	391101	keystroke_u	u	n/a
195.7155	0.075	391431	keystroke_e	e	n/a
195.8355	0.06	391671	keystroke_n	n	n/a
195.9405	0.09	391881	keystroke_c	c	n/a
196.0605	0.075	392121	keystroke_e	e	n/a
196.1955	0.075	392391	keystroke_d	d	n/a
196.6755	0.105	393351	keystroke_Key.space	Key.space	n/a
197.0355	0.075	394071	keystroke_c	c	n/a
197.2605	0.06	394521	keystroke_h	h	n/a
197.4705	0.105	394941	keystroke_a	a	n/a
197.5305	0.09	395061	keystroke_n	n	n/a
198.1155	0.135	396231	keystroke_Key.space	Key.space	n/a
198.4455	0.12	396891	keystroke_p	p	n/a
198.5505	0.09	397101	keystroke_a	a	n/a
198.5955	0.105	397191	keystroke_c	c	n/a
199.0755	0.075	398151	keystroke_k	k	n/a
199.2705	0.105	398541	keystroke_a	a	n/a
199.3455	0.105	398691	keystroke_g	g	n/a
199.4655	0.105	398931	keystroke_e	e	n/a
199.9155	0.105	399831	keystroke_Key.space	Key.space	n/a
201.0555	0.105	402111	keystroke_p	p	n/a
201.1905	0.12	402381	keystroke_a	a	n/a
201.3555	0.06	402711	keystroke_n	n	n/a
201.4905	0.075	402981	keystroke_e	e	n/a
201.5805	0.075	403161	keystroke_l	l	n/a
202.1655	0.09	404331	keystroke_Key.enter	Key.enter	n/a
202.2625	8.365	404525	prompt	n/a	recorded they'd wrist reunion\n
202.9155	0.12	405831	keystroke_r	r	n/a
203.0065	0.104	406013	keystroke_e	e	n/a
203.2755	0.09	406551	keystroke_c	c	n/a
203.3955	0.075	406791	keystroke_o	o	n/a
203.5005	0.105	407001	keystroke_r	r	n/a
203.7255	0.075	407451	keystroke_d	d	n/a
203.9205	0.075	407841	keystroke_e	e	n/a
204.0855	0.075	408171	keystroke_d	d	n/a
204.9855	0.105	409971	keystroke_Key.space	Key.space	n/a
205.27	0.015	410540	keystroke_t	t	n/a
205.3	0.06	410600	keystroke_h	h	n/a
205.42	0.0905	410840	keystroke_e	e	n/a
205.57	0.045	411140	keystroke_y	y	n/a
206.575	0.12	413150	keystroke_'	'	n/a
206.65	0.075	413300	keystroke_d	d	n/a
207.22	0.105	414440	keystroke_Key.space	Key.space	n/a
207.37	0.135	414740	keystroke_w	w	n/a
207.52	0.075	415040	keystroke_r	r	n/a
207.73	0.06	415460	keystroke_i	i	n/a
207.835	0.12	415670	keystroke_s	s	n/a
207.94	0.075	415880	keystroke_t	t	n/a
208.54	0.09	417080	keystroke_Key.space	Key.space	n/a
208.855	0.12	417710	keystroke_r	r	n/a
208.96	0.075	417920	keystroke_e	e	n/a
209.23	0.06	418460	keystroke_u	u	n/a
209.455	0.09	418910	keystroke_n	n	n/a
209.71	0.105	419420	keystroke_i	i	n/a
209.86	0.09	419720	keystroke_o	o	n/a
209.965	0.09	419930	keystroke_n	n	n/a
210.49	0.135	420980	keystroke_Key.enter	Key.enter	n/a
210.6315	13.5105	421263	prompt	n/a	decreased invitations affecting associations\n
211.375	0.045	422750	keystroke_d	d	n/a
211.54	0.075	423080	keystroke_e	e	n/a
211.78	0.075	423560	keystroke_c	c	n/a
212.2	0.045	424400	keystroke_r	r	n/a
212.44	0.105	424880	keystroke_e	e	n/a
212.695	0.21	425390	keystroke_a	a	n/a
212.95	0.12	425900	keystroke_s	s	n/a
213.235	0.075	426470	keystroke_e	e	n/a
213.43	0.09	426860	keystroke_d	d	n/a
213.79	0.105	427580	keystroke_Key.space	Key.space	n/a
214.405	0.075	428810	keystroke_i	i	n/a
214.54	0.075	429080	keystroke_n	n	n/a
214.705	0.09	429410	keystroke_v	v	n/a
214.796	0.074	429592	keystroke_i	i	n/a
215.17	0.09	430340	keystroke_a	a	n/a
216.145	0.075	432290	keystroke_Key.backspace	Key.backspace	n/a
216.415	0.091	432830	keystroke_t	t	n/a
216.655	0.135	433310	keystroke_a	a	n/a
216.895	0.075	433790	keystroke_t	t	n/a
217.03	0.105	434060	keystroke_i	i	n/a
217.15	0.075	434300	keystroke_o	o	n/a
217.24	0.06	434480	keystroke_n	n	n/a
217.36	0.09	434720	keystroke_s	s	n/a
218.095	0.105	436190	keystroke_Key.space	Key.space	n/a
219.1	0.105	438200	keystroke_a	a	n/a
219.265	0.15	438530	keystroke_f	f	n/a
219.715	0.09	439430	keystroke_f	f	n/a
219.925	0.06	439850	keystroke_e	e	n/a
220.09	0.075	440180	keystroke_c	c	n/a
220.315	0.075	440630	keystroke_t	t	n/a
220.555	0.075	441110	keystroke_i	i	n/a
220.66	0.09	441320	keystroke_n	n	n/a
220.975	0.06	441950	keystroke_g	g	n/a
221.365	0.105	442730	keystroke_Key.space	Key.space	n/a
221.785	0.105	443570	keystroke_a	a	n/a
221.9805	0.0745	443961	keystroke_s	s	n/a
222.16	0.075	444320	keystroke_s	s	n/a
222.265	0.09	444530	keystroke_o	o	n/a
222.445	0.075	444890	keystroke_c	c	n/a
222.595	0.06	445190	keystroke_i	i	n/a
222.745	0.075	445490	keystroke_a	a	n/a
223	0.06	446000	keystroke_t	t	n/a
223.09	0.12	446180	keystroke_i	i	n/a
223.225	0.105	446450	keystroke_o	o	n/a
223.285	0.12	446570	keystroke_n	n	n/a
223.39	0.06	446780	keystroke_s	s	n/a
224.035	0.105	448070	keystroke_Key.enter	Key.enter	n/a
224.147	6.64	448294	prompt	n/a	prep sessions floral inter\n
224.996	0.089	449992	keystroke_p	p	n/a
225.101	0.074	450202	keystroke_r	r	n/a
225.16	0.09	450320	keystroke_e	e	n/a
225.295	0.105	450590	keystroke_p	p	n/a
225.805	0.105	451610	keystroke_Key.space	Key.space	n/a
226	0.105	452000	keystroke_s	s	n/a
226.12	0.09	452240	keystroke_e	e	n/a
226.42	0.075	452840	keystroke_s	s	n/a
226.585	0.09	453170	keystroke_s	s	n/a
226.765	0.075	453530	keystroke_i	i	n/a
226.825	0.135	453650	keystroke_o	o	n/a
226.99	0.06	453980	keystroke_n	n	n/a
227.051	0.089	454102	keystroke_s	s	n/a
227.71	0.075	455420	keystroke_Key.space	Key.space	n/a
227.965	0.075	455930	keystroke_f	f	n/a
228.1	0.06	456200	keystroke_l	l	n/a
228.295	0.061	456590	keystroke_o	o	n/a
228.37	0.076	456740	keystroke_r	r	n/a
228.535	0.075	457070	keystroke_a	a	n/a
228.625	0.09	457250	keystroke_l	l	n/a
229.06	0.09	458120	keystroke_Key.space	Key.space	n/a
229.54	0.075	459080	keystroke_i	i	n/a
229.69	0.09	459380	keystroke_n	n	n/a
229.855	0.06	459710	keystroke_t	t	n/a
229.99	0.105	459980	keystroke_e	e	n/a
230.096	0.089	460192	keystroke_r	r	n/a
230.68	0.105	461360	keystroke_Key.enter	Key.enter	n/a
230.7915	7.8555	461583	prompt	n/a	cancel hampton channel gene\n
231.416	0.089	462832	keystroke_c	c	n/a
231.536	0.119	463072	keystroke_a	a	n/a
231.7	0.076	463400	keystroke_n	n	n/a
231.821	0.119	463642	keystroke_c	c	n/a
231.941	0.105	463882	keystroke_e	e	n/a
232.09	0.09	464180	keystroke_l	l	n/a
232.6	0.12	465200	keystroke_Key.space	Key.space	n/a
232.886	0.059	465772	keystroke_h	h	n/a
232.946	0.135	465892	keystroke_a	a	n/a
233.636	0.119	467272	keystroke_m	m	n/a
233.845	0.12	467690	keystroke_p	p	n/a
234.055	0.075	468110	keystroke_t	t	n/a
234.176	0.105	468352	keystroke_o	o	n/a
234.31	0.076	468620	keystroke_n	n	n/a
234.805	0.09	469610	keystroke_Key.space	Key.space	n/a
235	0.09	470000	keystroke_c	c	n/a
235.121	0.075	470242	keystroke_h	h	n/a
235.301	0.104	470602	keystroke_a	a	n/a
235.526	0.059	471052	keystroke_n	n	n/a
235.661	0.074	471322	keystroke_n	n	n/a
236.47	0.075	472940	keystroke_e	e	n/a
236.635	0.076	473270	keystroke_l	l	n/a
236.86	0.09	473720	keystroke_Key.space	Key.space	n/a
237.115	0.09	474230	keystroke_g	g	n/a
237.295	0.075	474590	keystroke_e	e	n/a
237.416	0.09	474832	keystroke_n	n	n/a
237.806	0.044	475612	keystroke_e	e	n/a
238.555	0.09	477110	keystroke_Key.enter	Key.enter	n/a
238.651	7.8565	477302	prompt	n/a	later provide terminal invision\n
239.381	0.075	478762	keystroke_l	l	n/a
239.546	0.12	479092	keystroke_a	a	n/a
240.146	0.075	480292	keystroke_t	t	n/a
240.34	0.135	480680	keystroke_e	e	n/a
240.46	0.076	480920	keystroke_r	r	n/a
240.73	0.105	481460	keystroke_Key.space	Key.space	n/a
241.045	0.12	482090	keystroke_p	p	n/a
241.151	0.089	482302	keystroke_r	r	n/a
241.256	0.074	482512	keystroke_o	o	n/a
241.481	0.105	482962	keystroke_v	v	n/a
241.616	0.074	483232	keystroke_i	i	n/a
241.705	0.046	483410	keystroke_d	d	n/a
241.871	0.06	483742	keystroke_e	e	n/a
242.185	0.12	484370	keystroke_Key.space	Key.space	n/a
242.621	0.044	485242	keystroke_t	t	n/a
242.816	0.09	485632	keystroke_e	e	n/a
242.907	0.089	485814	keystroke_r	r	n/a
243.565	0.061	487130	keystroke_m	m	n/a
243.746	0.059	487492	keystroke_i	i	n/a
243.881	0.059	487762	keystroke_n	n	n/a
244.015	0.091	488030	keystroke_a	a	n/a
244.121	0.075	488242	keystroke_l	l	n/a
244.63	0.12	489260	keystroke_Key.space	Key.space	n/a
245.006	0.045	490012	keystroke_i	i	n/a
245.11	0.075	490220	keystroke_n	n	n/a
245.261	0.104	490522	keystroke_v	v	n/a
245.38	0.06	490760	keystroke_i	i	n/a
245.5	0.09	491000	keystroke_s	s	n/a
245.576	0.12	491152	keystroke_i	i	n/a
245.71	0.076	491420	keystroke_o	o	n/a
245.77	0.121	491540	keystroke_n	n	n/a
246.401	0.104	492802	keystroke_Key.enter	Key.enter	n/a
246.5115	6.911	493023	prompt	n/a	loaded notebook achieving passive\n
247.241	0.075	494482	keystroke_l	l	n/a
247.435	0.075	494870	keystroke_o	o	n/a
247.496	0.12	494992	keystroke_a	a	n/a
247.585	0.0895	495170	keystroke_d	d	n/a
247.7655	0.075	495531	keystroke_e	e	n/a
247.9155	0.089	495831	keystroke_d	d	n/a
248.1095	0.09	496219	keystroke_Key.space	Key.space	n/a
248.3955	0.014	496791	keystroke_n	n	n/a
248.4255	0.089	496851	keystroke_o	o	n/a
248.5305	0.074	497061	keystroke_t	t	n/a
248.6205	0.105	497241	keystroke_e	e	n/a
248.9945	0.06	497989	keystroke_b	b	n/a
249.2205	0.06	498441	keystroke_o	o	n/a
249.3255	0.12	498651	keystroke_o	o	n/a
249.5045	0.075	499009	keystroke_k	k	n/a
249.7895	0.075	499579	keystroke_Key.space	Key.space	n/a
249.9705	0.15	499941	keystroke_a	a	n/a
250.1045	0.091	500209	keystroke_c	c	n/a
250.2705	0.075	500541	keystroke_h	h	n/a
250.4195	0.076	500839	keystroke_i	i	n/a
250.5405	0.105	501081	keystroke_e	e	n/a
250.7205	0.105	501441	keystroke_v	v	n/a
250.9755	0.06	501951	keystroke_i	i	n/a
251.0505	0.075	502101	keystroke_n	n	n/a
251.0955	0.075	502191	keystroke_g	g	n/a
251.5755	0.104	503151	keystroke_Key.space	Key.space	n/a
251.9345	0.106	503869	keystroke_p	p	n/a
252.0255	0.104	504051	keystroke_a	a	n/a
252.1605	0.074	504321	keystroke_s	s	n/a
252.3255	0.075	504651	keystroke_s	s	n/a
252.5355	0.06	505071	keystroke_i	i	n/a
252.6105	0.12	505221	keystroke_v	v	n/a
252.7455	0.12	505491	keystroke_e	e	n/a
253.3145	0.106	506629	keystroke_Key.enter	Key.enter	n/a
253.428	11.3495	506856	prompt	n/a	interactive quotes comparative vehicle\n
254.0805	0.074	508161	keystroke_i	i	n/a
254.3655	0.06	508731	keystroke_n	n	n/a
254.4855	0.075	508971	keystroke_t	t	n/a
254.6205	0.105	509241	keystroke_e	e	n/a
254.7105	0.09	509421	keystroke_r	r	n/a
254.9805	0.15	509961	keystroke_a	a	n/a
255.1315	0.044	510263	keystroke_c	c	n/a
255.3245	0.045	510649	keystroke_t	t	n/a
255.4005	0.06	510801	keystroke_i	i	n/a
255.4905	0.105	510981	keystroke_v	v	n/a
255.6105	0.03	511221	keystroke_c	c	n/a
255.6255	0.075	511251	keystroke_e	e	n/a
256.8395	0.09	513679	keystroke_Key.backspace	Key.backspace	n/a
257.4845	0.091	514969	keystroke_Key.backspace	Key.backspace	n/a
257.7105	0.045	515421	keystroke_e	e	n/a
257.9045	0.105	515809	keystroke_Key.space	Key.space	n/a
258.7305	0.09	517461	keystroke_q	q	n/a
258.8655	0.09	517731	keystroke_u	u	n/a
259.1205	0.06	518241	keystroke_o	o	n/a
259.2705	0.09	518541	keystroke_t	t	n/a
259.4055	0.075	518811	keystroke_e	e	n/a
259.5555	0.105	519111	keystroke_s	s	n/a
260.1095	0.121	520219	keystroke_Key.space	Key.space	n/a
260.3805	0.09	520761	keystroke_c	c	n/a
260.7405	0.075	521481	keystroke_o	o	n/a
261.0855	0.06	522171	keystroke_m	m	n/a
261.3255	0.09	522651	keystroke_p	p	n/a
261.4305	0.12	522861	keystroke_a	a	n/a
261.5655	0.075	523131	keystroke_r	r	n/a
261.6855	0.195	523371	keystroke_a	a	n/a
261.8505	0.09	523701	keystroke_t	t	n/a
262.0605	0.09	524121	keystroke_i	i	n/a
262.1355	0.105	524271	keystroke_v	v	n/a
262.2555	0.105	524511	keystroke_e	e	n/a
262.8245	0.106	525649	keystroke_Key.space	Key.space	n/a
263.2455	0.105	526491	keystroke_v	v	n/a
263.3955	0.075	526791	keystroke_e	e	n/a
263.5455	0.105	527091	keystroke_h	h	n/a
263.6955	0.075	527391	keystroke_i	i	n/a
263.8455	0.075	527691	keystroke_c	c	n/a
263.9805	0.075	527961	keystroke_l	l	n/a
264.0705	0.06	528141	keystroke_e	e	n/a
264.6705	0.105	529341	keystroke_Key.enter	Key.enter	n/a
264.783	8.5285	529566	prompt	n/a	chargers patient calling report\n
265.3905	0.09	530781	keystroke_c	c	n/a
265.6155	0.06	531231	keystroke_h	h	n/a
265.7805	0.165	531561	keystroke_a	a	n/a
265.9155	0.075	531831	keystroke_r	r	n/a
266.1105	0.12	532221	keystroke_g	g	n/a
266.2755	0.075	532551	keystroke_e	e	n/a
266.4105	0.12	532821	keystroke_s	s	n/a
266.6505	0.105	533301	keystroke_Key.space	Key.space	n/a
267.2805	0.075	534561	keystroke_p	p	n/a
267.3705	0.18	534741	keystroke_a	a	n/a
267.5355	0.075	535071	keystroke_t	t	n/a
267.7305	0.06	535461	keystroke_e	e	n/a
268.5705	0.105	537141	keystroke_Key.backspace	Key.backspace	n/a
269.0355	0.045	538071	keystroke_i	i	n/a
269.1855	0.075	538371	keystroke_e	e	n/a
269.3355	0.075	538671	keystroke_n	n	n/a
269.4255	0.045	538851	keystroke_t	t	n/a
270.1755	0.09	540351	keystroke_Key.space	Key.space	n/a
270.4155	0.075	540831	keystroke_c	c	n/a
270.5355	0.09	541071	keystroke_a	a	n/a
270.7005	0.06	541401	keystroke_l	l	n/a
270.8355	0.105	541671	keystroke_l	l	n/a
271.0305	0.075	542061	keystroke_i	i	n/a
271.1505	0.09	542301	keystroke_n	n	n/a
271.2255	0.075	542451	keystroke_g	g	n/a
271.6155	0.09	543231	keystroke_Key.space	Key.space	n/a
271.8705	0.12	543741	keystroke_r	r	n/a
271.9755	0.105	543951	keystroke_e	e	n/a
272.2005	0.09	544401	keystroke_p	p	n/a
272.4105	0.06	544821	keystroke_o	o	n/a
272.4855	0.045	544971	keystroke_r	r	n/a
272.6355	0.06	545271	keystroke_t	t	n/a
273.2355	0.075	546471	keystroke_Key.enter	Key.enter	n/a
273.3185	7.8245	546637	prompt	n/a	internationally length leasing gave\n
274.0455	0.075	548091	keystroke_i	i	n/a
274.1655	0.09	548331	keystroke_n	n	n/a
274.3305	0.06	548661	keystroke_t	t	n/a
274.4355	0.09	548871	keystroke_e	e	n/a
274.5105	0.105	549021	keystroke_r	r	n/a
274.6905	0.075	549381	keystroke_n	n	n/a
274.8255	0.135	549651	keystroke_a	a	n/a
275.0355	0.075	550071	keystroke_t	t	n/a
275.1255	0.105	550251	keystroke_i	i	n/a
275.2455	0.105	550491	keystroke_o	o	n/a
275.3355	0.09	550671	keystroke_n	n	n/a
275.3955	0.105	550791	keystroke_a	a	n/a
275.5305	0.06	551061	keystroke_l	l	n/a
275.6805	0.12	551361	keystroke_l	l	n/a
275.8305	0.0895	551661	keystroke_y	y	n/a
276.25	0.09	552500	keystroke_Key.space	Key.space	n/a
276.595	0.0755	553190	keystroke_l	l	n/a
276.7	0.0755	553400	keystroke_e	e	n/a
277.18	0.06	554360	keystroke_n	n	n/a
277.27	0.045	554540	keystroke_g	g	n/a
277.435	0.06	554870	keystroke_t	t	n/a
277.525	0.06	555050	keystroke_h	h	n/a
278.0205	0.0895	556041	keystroke_Key.space	Key.space	n/a
278.335	0.075	556670	keystroke_l	l	n/a
278.411	0.104	556822	keystroke_e	e	n/a
278.695	0.1655	557390	keystroke_a	a	n/a
278.8305	0.0895	557661	keystroke_s	s	n/a
279.04	0.06	558080	keystroke_i	i	n/a
279.13	0.075	558260	keystroke_n	n	n/a
279.22	0.06	558440	keystroke_g	g	n/a
279.4905	0.0895	558981	keystroke_Key.space	Key.space	n/a
280.03	0.075	560060	keystroke_g	g	n/a
280.2105	0.1495	560421	keystroke_a	a	n/a
280.3155	0.1195	560631	keystroke_v	v	n/a
280.45	0.09	560900	keystroke_e	e	n/a
281.035	0.105	562070	keystroke_Key.enter	Key.enter	n/a
281.148	7.0595	562296	prompt	n/a	folk officers brick televisions\n
281.71	0.105	563420	keystroke_f	f	n/a
281.8905	0.0745	563781	keystroke_o	o	n/a
282.115	0.06	564230	keystroke_l	l	n/a
282.22	0.09	564440	keystroke_k	k	n/a
282.67	0.105	565340	keystroke_Key.space	Key.space	n/a
283.075	0.06	566150	keystroke_o	o	n/a
283.165	0.045	566330	keystroke_f	f	n/a
283.3	0.075	566600	keystroke_f	f	n/a
283.57	0.075	567140	keystroke_i	i	n/a
283.705	0.075	567410	keystroke_c	c	n/a
283.855	0.135	567710	keystroke_e	e	n/a
283.945	0.105	567890	keystroke_r	r	n/a
284.155	0.075	568310	keystroke_s	s	n/a
284.365	0.09	568730	keystroke_Key.space	Key.space	n/a
284.65	0.06	569300	keystroke_b	b	n/a
284.89	0.075	569780	keystroke_r	r	n/a
285.04	0.06	570080	keystroke_i	i	n/a
285.145	0.075	570290	keystroke_c	c	n/a
285.28	0.075	570560	keystroke_k	k	n/a
285.625	0.075	571250	keystroke_Key.space	Key.space	n/a
285.97	0.06	571940	keystroke_t	t	n/a
286.09	0.09	572180	keystroke_e	e	n/a
286.42	0.075	572840	keystroke_l	l	n/a
286.51	0.06	573020	keystroke_e	e	n/a
286.72	0.09	573440	keystroke_v	v	n/a
287.035	0.06	574070	keystroke_i	i	n/a
287.17	0.09	574340	keystroke_s	s	n/a
287.245	0.12	574490	keystroke_i	i	n/a
287.35	0.135	574700	keystroke_o	o	n/a
287.47	0.105	574940	keystroke_n	n	n/a
287.53	0.075	575060	keystroke_s	s	n/a
288.1	0.105	576200	keystroke_Key.enter	Key.enter	n/a
288.213	9.1435	576426	prompt	n/a	screensavers sick towns findings\n
288.82	0.09	577640	keystroke_s	s	n/a
288.925	0.09	577850	keystroke_e	e	n/a
289.93	0.105	579860	keystroke_Key.backspace	Key.backspace	n/a
290.23	0.075	580460	keystroke_c	c	n/a
290.5	0.06	581000	keystroke_r	r	n/a
290.68	0.06	581360	keystroke_e	e	n/a
290.815	0.075	581630	keystroke_e	e	n/a
290.935	0.075	581870	keystroke_n	n	n/a
291.145	0.06	582290	keystroke_s	s	n/a
291.265	0.225	582530	keystroke_a	a	n/a
291.46	0.09	582920	keystroke_v	v	n/a
291.655	0.12	583310	keystroke_e	e	n/a
291.745	0.105	583490	keystroke_r	r	n/a
291.895	0.1205	583790	keystroke_s	s	n/a
292.2845	0.105	584569	keystroke_Key.space	Key.space	n/a
292.4955	0.105	584991	keystroke_s	s	n/a
292.5845	0.061	585169	keystroke_i	i	n/a
292.7045	0.075	585409	keystroke_c	c	n/a
292.8095	0.09	585619	keystroke_k	k	n/a
293.0945	0.105	586189	keystroke_Key.space	Key.space	n/a
293.2605	0.06	586521	keystroke_t	t	n/a
293.3795	0.091	586759	keystroke_o	o	n/a
293.4995	0.09	586999	keystroke_w	w	n/a
293.6205	0.059	587241	keystroke_n	n	n/a
293.8005	0.089	587601	keystroke_s	s	n/a
293.9495	0.09	587899	keystroke_Key.space	Key.space	n/a
294.1295	0.075	588259	keystroke_f	f	n/a
294.2345	0.06	588469	keystroke_i	i	n/a
294.4605	0.074	588921	keystroke_l	l	n/a
295.7495	0.105	591499	keystroke_Key.backspace	Key.backspace	n/a
296.1255	0.074	592251	keystroke_n	n	n/a
296.2305	0.09	592461	keystroke_d	d	n/a
296.3505	0.075	592701	keystroke_i	i	n/a
296.4405	0.09	592881	keystroke_n	n	n/a
296.4995	0.061	592999	keystroke_g	g	n/a
296.6655	0.06	593331	keystroke_s	s	n/a
297.25	0.105	594500	keystroke_Key.enter	Key.enter	n/a
297.3615	7.151	594723	prompt	n/a	fund kitty conditioning revisions\n
297.955	0.09	595910	keystroke_f	f	n/a
298.105	0.09	596210	keystroke_u	u	n/a
298.315	0.075	596630	keystroke_n	n	n/a
298.435	0.075	596870	keystroke_d	d	n/a
298.675	0.09	597350	keystroke_Key.space	Key.space	n/a
299.035	0.06	598070	keystroke_k	k	n/a
299.23	0.06	598460	keystroke_i	i	n/a
299.44	0.015	598880	keystroke_t	t	n/a
299.53	0.06	599060	keystroke_t	t	n/a
299.62	0.09	599240	keystroke_y	y	n/a
300.055	0.105	600110	keystroke_Key.space	Key.space	n/a
300.415	0.075	600830	keystroke_c	c	n/a
300.52	0.09	601040	keystroke_o	o	n/a
300.655	0.09	601310	keystroke_n	n	n/a
300.775	0.09	601550	keystroke_d	d	n/a
300.88	0.06	601760	keystroke_i	i	n/a
301	0.06	602000	keystroke_t	t	n/a
301.045	0.09	602090	keystroke_i	i	n/a
301.195	0.045	602390	keystroke_o	o	n/a
301.21	0.15	602420	keystroke_n	n	n/a
301.78	0.06	603560	keystroke_i	i	n/a
301.885	0.075	603770	keystroke_n	n	n/a
301.975	0.06	603950	keystroke_g	g	n/a
302.11	0.09	604220	keystroke_Key.space	Key.space	n/a
302.89	0.09	605780	keystroke_r	r	n/a
302.995	0.075	605990	keystroke_e	e	n/a
303.19	0.075	606380	keystroke_v	v	n/a
303.295	0.045	606590	keystroke_i	i	n/a
303.415	0.09	606830	keystroke_s	s	n/a
303.49	0.135	606980	keystroke_i	i	n/a
303.61	0.09	607220	keystroke_o	o	n/a
303.685	0.12	607370	keystroke_n	n	n/a
303.775	0.075	607550	keystroke_s	s	n/a
304.405	0.105	608810	keystroke_Key.enter	Key.enter	n/a
304.518	9.925	609036	prompt	n/a	haven utilities connecting requirement\n
305.396	0.059	610792	keystroke_h	h	n/a
305.47	0.15	610940	keystroke_a	a	n/a
305.575	0.12	611150	keystroke_v	v	n/a
305.725	0.09	611450	keystroke_e	e	n/a
305.92	0.06	611840	keystroke_n	n	n/a
306.325	0.075	612650	keystroke_Key.space	Key.space	n/a
306.58	0.06	613160	keystroke_u	u	n/a
306.835	0.06	613670	keystroke_t	t	n/a
306.955	0.045	613910	keystroke_i	i	n/a
307.15	0.075	614300	keystroke_l	l	n/a
307.285	0.075	614570	keystroke_i	i	n/a
307.405	0.06	614810	keystroke_t	t	n/a
307.495	0.075	614990	keystroke_i	i	n/a
307.571	0.074	615142	keystroke_e	e	n/a
307.705	0.105	615410	keystroke_s	s	n/a
308.05	0.09	616100	keystroke_Key.space	Key.space	n/a
308.276	0.059	616552	keystroke_c	c	n/a
308.485	0.06	616970	keystroke_o	o	n/a
308.635	0.045	617270	keystroke_o	o	n/a
309.655	0.075	619310	keystroke_Key.backspace	Key.backspace	n/a
310.075	0.06	620150	keystroke_n	n	n/a
310.225	0.075	620450	keystroke_n	n	n/a
310.345	0.09	620690	keystroke_e	e	n/a
310.525	0.075	621050	keystroke_c	c	n/a
311.005	0.06	622010	keystroke_t	t	n/a
311.44	0.06	622880	keystroke_i	i	n/a
311.515	0.09	623030	keystroke_n	n	n/a
311.62	0.06	623240	keystroke_g	g	n/a
311.86	0.09	623720	keystroke_Key.space	Key.space	n/a
312.055	0.12	624110	keystroke_r	r	n/a
312.145	0.135	624290	keystroke_e	e	n/a
312.325	0.105	624650	keystroke_q	q	n/a
312.505	0.105	625010	keystroke_u	u	n/a
312.79	0.075	625580	keystroke_i	i	n/a
312.91	0.12	625820	keystroke_r	r	n/a
313.015	0.09	626030	keystroke_e	e	n/a
313.3	0.045	626600	keystroke_m	m	n/a
313.346	0.089	626692	keystroke_e	e	n/a
313.465	0.075	626930	keystroke_n	n	n/a
313.541	0.074	627082	keystroke_t	t	n/a
314.32	0.12	628640	keystroke_Key.enter	Key.enter	n/a
314.4485	10.1485	628897	prompt	n/a	dept subscriber springfield household\n
315.04	0.06	630080	keystroke_d	d	n/a
315.235	0.075	630470	keystroke_e	e	n/a
315.445	0.09	630890	keystroke_p	p	n/a
315.52	0.06	631040	keystroke_t	t	n/a
315.805	0.105	631610	keystroke_Key.space	Key.space	n/a
316.015	0.09	632030	keystroke_s	s	n/a
316.12	0.075	632240	keystroke_u	u	n/a
316.345	0.075	632690	keystroke_b	b	n/a
316.51	0.15	633020	keystroke_s	s	n/a
316.675	0.06	633350	keystroke_c	c	n/a
318.73	0.09	637460	keystroke_r	r	n/a
318.925	0.045	637850	keystroke_i	i	n/a
319.075	0.06	638150	keystroke_b	b	n/a
319.15	0.075	638300	keystroke_e	e	n/a
319.24	0.075	638480	keystroke_r	r	n/a
319.615	0.09	639230	keystroke_Key.space	Key.space	n/a
320.485	0.06	640970	keystroke_s	s	n/a
320.695	0.105	641390	keystroke_p	p	n/a
320.77	0.06	641540	keystroke_r	r	n/a
320.89	0.075	641780	keystroke_i	i	n/a
320.995	0.075	641990	keystroke_n	n	n/a
321.071	0.044	642142	keystroke_g	g	n/a
321.385	0.075	642770	keystroke_f	f	n/a
321.61	0.045	643220	keystroke_i	i	n/a
321.73	0.06	643460	keystroke_e	e	n/a
321.895	0.06	643790	keystroke_l	l	n/a
321.971	0.059	643942	keystroke_d	d	n/a
322.675	0.09	645350	keystroke_Key.space	Key.space	n/a
322.855	0.075	645710	keystroke_h	h	n/a
323.035	0.06	646070	keystroke_o	o	n/a
323.11	0.09	646220	keystroke_u	u	n/a
323.215	0.09	646430	keystroke_s	s	n/a
323.29	0.09	646580	keystroke_e	e	n/a
323.5	0.09	647000	keystroke_h	h	n/a
323.605	0.075	647210	keystroke_o	o	n/a
323.8	0.06	647600	keystroke_l	l	n/a
323.845	0.075	647690	keystroke_d	d	n/a
324.475	0.12	648950	keystroke_Key.enter	Key.enter	n/a
324.601	7.2705	649202	prompt	n/a	african bizarre broker tuner\n
325.2845	0.135	650569	keystroke_a	a	n/a
325.3895	0.09	650779	keystroke_f	f	n/a
325.5695	0.075	651139	keystroke_r	r	n/a
325.6595	0.075	651319	keystroke_i	i	n/a
325.8245	0.105	651649	keystroke_c	c	n/a
325.9145	0.106	651829	keystroke_a	a	n/a
326.0205	0.089	652041	keystroke_n	n	n/a
326.3195	0.075	652639	keystroke_Key.space	Key.space	n/a
326.5155	0.074	653031	keystroke_b	b	n/a
326.6355	0.074	653271	keystroke_i	i	n/a
326.9955	0.074	653991	keystroke_z	z	n/a
327.1455	0.134	654291	keystroke_a	a	n/a
327.3695	0.046	654739	keystroke_r	r	n/a
327.5045	0.076	655009	keystroke_r	r	n/a
327.5955	0.089	655191	keystroke_e	e	n/a
327.8495	0.075	655699	keystroke_Key.space	Key.space	n/a
328.1045	0.06	656209	keystroke_b	b	n/a
328.2395	0.076	656479	keystroke_r	r	n/a
328.3895	0.06	656779	keystroke_o	o	n/a
329.4545	0.061	658909	keystroke_k	k	n/a
329.6045	0.09	659209	keystroke_e	e	n/a
329.6795	0.09	659359	keystroke_r	r	n/a
330.4295	0.075	660859	keystroke_Key.space	Key.space	n/a
330.6245	0.06	661249	keystroke_t	t	n/a
330.7145	0.06	661429	keystroke_u	u	n/a
330.9845	0.061	661969	keystroke_n	n	n/a
331.0295	0.12	662059	keystroke_e	e	n/a
331.1195	0.09	662239	keystroke_r	r	n/a
331.7645	0.105	663529	keystroke_Key.enter	Key.enter	n/a
331.8765	7.6	663753	prompt	n/a	successfully tabs investors relay\n
332.4845	0.12	664969	keystroke_s	s	n/a
332.6205	0.059	665241	keystroke_u	u	n/a
332.7995	0.165	665599	keystroke_c	c	n/a
333.1595	0.075	666319	keystroke_c	c	n/a
333.4155	0.06	666831	keystroke_e	e	n/a
333.6405	0.059	667281	keystroke_s	s	n/a
333.8045	0.075	667609	keystroke_s	s	n/a
333.9995	0.076	667999	keystroke_f	f	n/a
334.1205	0.075	668241	keystroke_u	u	n/a
334.3455	0.044	668691	keystroke_l	l	n/a
334.4655	0.104	668931	keystroke_l	l	n/a
334.6295	0.075	669259	keystroke_y	y	n/a
334.7795	0.105	669559	keystroke_Key.space	Key.space	n/a
335.0045	0.075	670009	keystroke_t	t	n/a
335.1695	0.121	670339	keystroke_a	a	n/a
335.2745	0.075	670549	keystroke_b	b	n/a
335.5455	0.075	671091	keystroke_s	s	n/a
335.9045	0.105	671809	keystroke_Key.space	Key.space	n/a
336.3405	0.059	672681	keystroke_i	i	n/a
336.4595	0.075	672919	keystroke_n	n	n/a
336.6405	0.075	673281	keystroke_v	v	n/a
336.8045	0.076	673609	keystroke_e	e	n/a
336.9855	0.149	673971	keystroke_s	s	n/a
337.1055	0.074	674211	keystroke_t	t	n/a
337.2245	0.06	674449	keystroke_o	o	n/a
337.2995	0.076	674599	keystroke_r	r	n/a
337.9005	0.09	675801	keystroke_s	s	n/a
338.1095	0.105	676219	keystroke_Key.space	Key.space	n/a
338.2755	0.104	676551	keystroke_r	r	n/a
338.3495	0.075	676699	keystroke_e	e	n/a
338.53	0.0905	677060	keystroke_l	l	n/a
338.6205	0.104	677241	keystroke_a	a	n/a
338.7545	0.046	677509	keystroke_y	y	n/a
339.3695	0.105	678739	keystroke_Key.enter	Key.enter	n/a
339.4825	17.094	678965	prompt	n/a	patch proceed sequence remembered\n
340.1655	0.12	680331	keystroke_p	p	n/a
340.4795	0.15	680959	keystroke_a	a	n/a
340.5845	0.061	681169	keystroke_t	t	n/a
340.8555	0.059	681711	keystroke_c	c	n/a
340.9605	0.059	681921	keystroke_h	h	n/a
341.3495	0.091	682699	keystroke_Key.space	Key.space	n/a
341.7705	0.105	683541	keystroke_p	p	n/a
341.8595	0.076	683719	keystroke_r	r	n/a
341.9795	0.075	683959	keystroke_o	o	n/a
342.0855	0.105	684171	keystroke_c	c	n/a
342.2055	0.074	684411	keystroke_e	e	n/a
342.4145	0.061	684829	keystroke_s	s	n/a
342.5655	0.089	685131	keystroke_s	s	n/a
343.5095	0.106	687019	keystroke_Key.backspace	Key.backspace	n/a
343.6895	0.075	687379	keystroke_Key.backspace	Key.backspace	n/a
346.1385	0.012	692277	keystroke_e	e	n/a
346.4655	0.075	692931	keystroke_d	d	n/a
347.1695	0.091	694339	keystroke_Key.space	Key.space	n/a
347.4255	0.075	694851	keystroke_s	s	n/a
347.5155	0.089	695031	keystroke_e	e	n/a
347.8005	0.09	695601	keystroke_q	q	n/a
347.9205	0.074	695841	keystroke_u	u	n/a
348.0555	0.09	696111	keystroke_e	e	n/a
348.1905	0.09	696381	keystroke_n	n	n/a
348.2955	0.104	696591	keystroke_c	c	n/a
348.3845	0.076	696769	keystroke_e	e	n/a
348.8655	0.09	697731	keystroke_Key.space	Key.space	n/a
349.1805	0.105	698361	keystroke_r	r	n/a
349.2555	0.09	698511	keystroke_e	e	n/a
349.4795	0.076	698959	keystroke_m	m	n/a
349.8555	0.089	699711	keystroke_e	e	n/a
350.0205	0.0745	700041	keystroke_m	m	n/a
350.3655	0.0745	700731	keystroke_e	e	n/a
351.1	0.075	702200	keystroke_m	m	n/a
351.324	0.061	702648	keystroke_b	b	n/a
351.385	0.045	702770	keystroke_e	e	n/a
351.43	0.105	702860	keystroke_r	r	n/a
351.52	0.09	703040	keystroke_e	e	n/a
351.6845	0.0755	703369	keystroke_d	d	n/a
351.804	0.105	703608	keystroke_Key.space	Key.space	n/a
352.645	0.06	705290	keystroke_Key.backspace	Key.backspace	n/a
352.84	0.074	705680	keystroke_Key.backspace	Key.backspace	n/a
353.004	0.076	706008	keystroke_Key.backspace	Key.backspace	n/a
353.17	0.089	706340	keystroke_Key.backspace	Key.backspace	n/a
353.335	0.09	706670	keystroke_Key.backspace	Key.backspace	n/a
353.515	0.09	707030	keystroke_Key.backspace	Key.backspace	n/a
353.695	0.104	707390	keystroke_Key.backspace	Key.backspace	n/a
353.86	0.105	707720	keystroke_Key.backspace	Key.backspace	n/a
354.054	0.091	708108	keystroke_Key.backspace	Key.backspace	n/a
354.265	0.09	708530	keystroke_Key.backspace	Key.backspace	n/a
354.925	0.075	709850	keystroke_e	e	n/a
355.06	0.075	710120	keystroke_m	m	n/a
355.27	0.075	710540	keystroke_b	b	n/a
355.36	0.09	710720	keystroke_e	e	n/a
355.434	0.106	710868	keystroke_r	r	n/a
355.555	0.09	711110	keystroke_e	e	n/a
355.735	0.075	711470	keystroke_d	d	n/a
356.47	0.105	712940	keystroke_Key.enter	Key.enter	n/a
356.5825	7.4045	713165	prompt	n/a	flyer dollar concluded considers\n
357.175	0.105	714350	keystroke_f	f	n/a
357.34	0.075	714680	keystroke_l	l	n/a
357.52	0.06	715040	keystroke_y	y	n/a
357.655	0.09	715310	keystroke_e	e	n/a
357.73	0.09	715460	keystroke_r	r	n/a
357.955	0.09	715910	keystroke_Key.space	Key.space	n/a
358.15	0.06	716300	keystroke_d	d	n/a
358.24	0.075	716480	keystroke_o	o	n/a
358.45	0.06	716900	keystroke_l	l	n/a
358.6	0.075	717200	keystroke_l	l	n/a
358.93	0.12	717860	keystroke_a	a	n/a
359.005	0.075	718010	keystroke_r	r	n/a
359.245	0.09	718490	keystroke_Key.space	Key.space	n/a
359.485	0.075	718970	keystroke_c	c	n/a
359.575	0.09	719150	keystroke_o	o	n/a
359.71	0.09	719420	keystroke_n	n	n/a
359.815	0.075	719630	keystroke_d	d	n/a
360.64	0.09	721280	keystroke_Key.backspace	Key.backspace	n/a
360.88	0.075	721760	keystroke_c	c	n/a
360.985	0.105	721970	keystroke_l	l	n/a
361.15	0.075	722300	keystroke_u	u	n/a
361.24	0.06	722480	keystroke_d	d	n/a
361.435	0.06	722870	keystroke_e	e	n/a
361.69	0.06	723380	keystroke_d	d	n/a
361.975	0.105	723950	keystroke_Key.space	Key.space	n/a
362.485	0.075	724970	keystroke_c	c	n/a
362.62	0.09	725240	keystroke_o	o	n/a
362.74	0.09	725480	keystroke_n	n	n/a
362.875	0.075	725750	keystroke_s	s	n/a
362.98	0.06	725960	keystroke_i	i	n/a
363.055	0.075	726110	keystroke_d	d	n/a
363.205	0.09	726410	keystroke_e	e	n/a
363.31	0.06	726620	keystroke_r	r	n/a
363.445	0.075	726890	keystroke_s	s	n/a
363.88	0.105	727760	keystroke_Key.enter	Key.enter	n/a
363.9945	7.972	727989	prompt	n/a	ampland planner rank hospitals\n
364.54	0.105	729080	keystroke_a	a	n/a
364.705	0.105	729410	keystroke_m	m	n/a
364.93	0.12	729860	keystroke_p	p	n/a
365.17	0.09	730340	keystroke_l	l	n/a
366.835	0.105	733670	keystroke_a	a	n/a
366.955	0.075	733910	keystroke_n	n	n/a
367.09	0.075	734180	keystroke_d	d	n/a
367.375	0.075	734750	keystroke_Key.space	Key.space	n/a
367.585	0.12	735170	keystroke_p	p	n/a
367.81	0.075	735620	keystroke_l	l	n/a
367.9	0.105	735800	keystroke_a	a	n/a
368.05	0.045	736100	keystroke_n	n	n/a
368.17	0.09	736340	keystroke_n	n	n/a
368.29	0.09	736580	keystroke_e	e	n/a
368.365	0.09	736730	keystroke_r	r	n/a
369.145	0.09	738290	keystroke_Key.space	Key.space	n/a
369.34	0.06	738680	keystroke_r	r	n/a
369.49	0.105	738980	keystroke_a	a	n/a
369.64	0.105	739280	keystroke_n	n	n/a
369.79	0.06	739580	keystroke_k	k	n/a
370	0.09	740000	keystroke_Key.space	Key.space	n/a
370.24	0.075	740480	keystroke_h	h	n/a
370.39	0.075	740780	keystroke_o	o	n/a
370.45	0.105	740900	keystroke_s	s	n/a
370.6	0.09	741200	keystroke_p	p	n/a
370.75	0.09	741500	keystroke_i	i	n/a
370.855	0.06	741710	keystroke_t	t	n/a
370.99	0.105	741980	keystroke_a	a	n/a
371.125	0.075	742250	keystroke_l	l	n/a
371.29	0.045	742580	keystroke_s	s	n/a
371.875	0.09	743750	keystroke_Key.enter	Key.enter	n/a
371.9705	18.9875	743941	prompt	n/a	number browser michigan char\n
372.655	0.045	745310	keystroke_n	n	n/a
372.835	0.075	745670	keystroke_u	u	n/a
373.0755	0.0745	746151	keystroke_m	m	n/a
373.24	0.075	746480	keystroke_b	b	n/a
373.375	0.09	746750	keystroke_e	e	n/a
373.45	0.075	746900	keystroke_r	r	n/a
373.87	0.075	747740	keystroke_Key.space	Key.space	n/a
374.335	0.06	748670	keystroke_b	b	n/a
374.44	0.105	748880	keystroke_r	r	n/a
374.62	0.075	749240	keystroke_o	o	n/a
374.755	0.09	749510	keystroke_s	s	n/a
374.995	0.165	749990	keystroke_e	e	n/a
375.13	0.09	750260	keystroke_r	r	n/a
375.88	0.06	751760	keystroke_Key.backspace	Key.backspace	n/a
376	0.09	752000	keystroke_Key.backspace	Key.backspace	n/a
377.005	0.105	754010	keystroke_e	e	n/a
377.095	0.09	754190	keystroke_r	r	n/a
377.32	0.075	754640	keystroke_s	s	n/a
377.89	0.06	755780	keystroke_Key.backspace	Key.backspace	n/a
378.13	0.09	756260	keystroke_Key.space	Key.space	n/a
379.285	0.06	758570	keystroke_Key.backspace	Key.backspace	n/a
379.465	0.06	758930	keystroke_Key.backspace	Key.backspace	n/a
379.645	0.06	759290	keystroke_Key.backspace	Key.backspace	n/a
380.875	0.045	761750	keystroke_=	=	n/a
381.73	0.09	763460	keystroke_Key.backspace	Key.backspace	n/a
382	0.075	764000	keystroke_Key.backspace	Key.backspace	n/a
382.69	0.075	765380	keystroke_s	s	n/a
384.13	0.12	768260	keystroke_Key.backspace	Key.backspace	n/a
384.37	0.09	768740	keystroke_w	w	n/a
384.7	0.075	769400	keystroke_s	s	n/a
384.94	0.135	769880	keystroke_e	e	n/a
385.045	0.075	770090	keystroke_r	r	n/a
385.405	0.09	770810	keystroke_Key.space	Key.space	n/a
385.87	0.075	771740	keystroke_i	i	n/a
386.725	0.075	773450	keystroke_Key.backspace	Key.backspace	n/a
387.205	0.075	774410	keystroke_m	m	n/a
387.4	0.06	774800	keystroke_i	i	n/a
387.55	0.09	775100	keystroke_c	c	n/a
387.67	0.105	775340	keystroke_h	h	n/a
388.015	0.06	776030	keystroke_i	i	n/a
388.18	0.06	776360	keystroke_g	g	n/a
388.39	0.105	776780	keystroke_a	a	n/a
388.51	0.09	777020	keystroke_n	n	n/a
389.215	0.075	778430	keystroke_Key.space	Key.space	n/a
389.35	0.105	778700	keystroke_c	c	n/a
389.68	0.06	779360	keystroke_h	h	n/a
389.83	0.135	779660	keystroke_a	a	n/a
389.92	0.09	779840	keystroke_r	r	n/a
390.85	0.105	781700	keystroke_Key.enter	Key.enter	n/a
390.964	9.5775	781928	prompt	n/a	burner compilation recorders we're\n
391.57	0.075	783140	keystroke_b	b	n/a
391.69	0.06	783380	keystroke_r	r	n/a
392.755	0.09	785510	keystroke_Key.backspace	Key.backspace	n/a
393.145	0.045	786290	keystroke_u	u	n/a
393.445	0.075	786890	keystroke_r	r	n/a
393.55	0.09	787100	keystroke_n	n	n/a
393.685	0.12	787370	keystroke_e	e	n/a
393.76	0.105	787520	keystroke_r	r	n/a
394.075	0.075	788150	keystroke_Key.space	Key.space	n/a
394.27	0.09	788540	keystroke_c	c	n/a
394.39	0.09	788780	keystroke_o	o	n/a
394.6	0.105	789200	keystroke_m	m	n/a
394.93	0.09	789860	keystroke_p	p	n/a
395.155	0.06	790310	keystroke_i	i	n/a
395.35	0.045	790700	keystroke_l	l	n/a
395.425	0.15	790850	keystroke_a	a	n/a
395.59	0.06	791180	keystroke_t	t	n/a
395.695	0.12	791390	keystroke_i	i	n/a
395.8	0.12	791600	keystroke_o	o	n/a
395.875	0.135	791750	keystroke_n	n	n/a
396.385	0.06	792770	keystroke_Key.space	Key.space	n/a
396.595	0.106	793190	keystroke_r	r	n/a
396.685	0.09	793370	keystroke_e	e	n/a
396.88	0.075	793760	keystroke_c	c	n/a
397	0.075	794000	keystroke_o	o	n/a
397.12	0.075	794240	keystroke_r	r	n/a
397.3	0.06	794600	keystroke_d	d	n/a
397.45	0.105	794900	keystroke_e	e	n/a
397.54	0.075	795080	keystroke_r	r	n/a
397.69	0.09	795380	keystroke_s	s	n/a
397.915	0.105	795830	keystroke_Key.space	Key.space	n/a
398.575	0.09	797150	keystroke_w	w	n/a
398.65	0.09	797300	keystroke_e	e	n/a
399.88	0.105	799760	keystroke_'	'	n/a
400.015	0.105	800030	keystroke_r	r	n/a
400.09	0.09	800180	keystroke_e	e	n/a
400.45	0.09	800900	keystroke_Key.enter	Key.enter	n/a
400.546	8.1255	801092	prompt	n/a	composer cardiovascular with samsung\n
401.425	0.09	802850	keystroke_c	c	n/a
401.545	0.105	803090	keystroke_o	o	n/a
401.815	0.105	803630	keystroke_m	m	n/a
402.37	0.075	804740	keystroke_p	p	n/a
402.535	0.09	805070	keystroke_o	o	n/a
402.64	0.075	805280	keystroke_s	s	n/a
402.82	0.09	805640	keystroke_e	e	n/a
402.88	0.09	805760	keystroke_r	r	n/a
403.33	0.09	806660	keystroke_Key.space	Key.space	n/a
403.615	0.135	807230	keystroke_c	c	n/a
403.765	0.15	807530	keystroke_a	a	n/a
403.93	0.075	807860	keystroke_r	r	n/a
404.11	0.09	808220	keystroke_d	d	n/a
404.32	0.1045	808640	keystroke_i	i	n/a
404.4545	0.06	808909	keystroke_o	o	n/a
404.6345	0.09	809269	keystroke_v	v	n/a
404.8605	0.119	809721	keystroke_a	a	n/a
404.9645	0.12	809929	keystroke_s	s	n/a
405.1745	0.075	810349	keystroke_c	c	n/a
405.2945	0.06	810589	keystroke_u	u	n/a
405.5045	0.075	811009	keystroke_l	l	n/a
405.5645	0.135	811129	keystroke_a	a	n/a
405.6545	0.09	811309	keystroke_r	r	n/a
406.195	0.12	812390	keystroke_Key.space	Key.space	n/a
406.4345	0.06	812869	keystroke_w	w	n/a
406.5095	0.09	813019	keystroke_i	i	n/a
406.6595	0.03	813319	keystroke_t	t	n/a
406.7045	0.075	813409	keystroke_h	h	n/a
406.8095	0.105	813619	keystroke_Key.space	Key.space	n/a
406.9595	0.105	813919	keystroke_s	s	n/a
407.2595	0.09	814519	keystroke_a	a	n/a
407.3645	0.075	814729	keystroke_m	m	n/a
407.5745	0.075	815149	keystroke_s	s	n/a
407.6945	0.06	815389	keystroke_u	u	n/a
407.9195	0.06	815839	keystroke_n	n	n/a
407.9645	0.075	815929	keystroke_g	g	n/a
408.5645	0.105	817129	keystroke_Key.enter	Key.enter	n/a
408.6775	9.8945	817355	prompt	n/a	guidance neon they'll jacksonville\n
409.3295	0.075	818659	keystroke_g	g	n/a
409.4495	0.09	818899	keystroke_u	u	n/a
409.5995	0.075	819199	keystroke_i	i	n/a
409.7195	0.06	819439	keystroke_d	d	n/a
409.8395	0.135	819679	keystroke_a	a	n/a
409.9595	0.075	819919	keystroke_n	n	n/a
410.0195	0.135	820039	keystroke_c	c	n/a
410.1395	0.09	820279	keystroke_e	e	n/a
410.4245	0.09	820849	keystroke_Key.space	Key.space	n/a
410.6645	0.076	821329	keystroke_n	n	n/a
410.8145	0.075	821629	keystroke_e	e	n/a
410.9355	0.074	821871	keystroke_o	o	n/a
411.0255	0.107	822051	keystroke_n	n	n/a
411.7595	0.105	823519	keystroke_Key.space	Key.space	n/a
411.9695	0.03	823939	keystroke_t	t	n/a
412.0445	0.06	824089	keystroke_h	h	n/a
412.1645	0.06	824329	keystroke_e	e	n/a
412.2695	0.045	824539	keystroke_y	y	n/a
412.5245	0.09	825049	keystroke_'	'	n/a
412.7645	0.076	825529	keystroke_l	l	n/a
412.9295	0.061	825859	keystroke_l	l	n/a
413.1695	0.09	826339	keystroke_Key.space	Key.space	n/a
413.5745	0.06	827149	keystroke_h	h	n/a
413.6495	0.12	827299	keystroke_a	a	n/a
413.7545	0.075	827509	keystroke_c	c	n/a
413.8605	0.059	827721	keystroke_k	k	n/a
414.9245	0.075	829849	keystroke_Key.backspace	Key.backspace	n/a
415.1045	0.09	830209	keystroke_Key.backspace	Key.backspace	n/a
415.2845	0.09	830569	keystroke_Key.backspace	Key.backspace	n/a
415.4495	0.09	830899	keystroke_Key.backspace	Key.backspace	n/a
416.2145	0.105	832429	keystroke_j	j	n/a
416.3645	0.105	832729	keystroke_a	a	n/a
416.4545	0.09	832909	keystroke_c	c	n/a
416.5455	0.074	833091	keystroke_k	k	n/a
416.8295	0.106	833659	keystroke_s	s	n/a
416.9205	0.074	833841	keystroke_o	o	n/a
417.0545	0.105	834109	keystroke_n	n	n/a
417.2355	0.089	834471	keystroke_v	v	n/a
417.3395	0.06	834679	keystroke_i	i	n/a
417.5345	0.076	835069	keystroke_l	l	n/a
417.6995	0.075	835399	keystroke_l	l	n/a
417.7595	0.06	835519	keystroke_e	e	n/a
418.4645	0.105	836929	keystroke_Key.enter	Key.enter	n/a
418.577	14.1095	837154	prompt	n/a	park conjunction jaguar i've\n
419.275	0.09	838550	keystroke_p	p	n/a
419.47	0.18	838940	keystroke_a	a	n/a
419.605	0.06	839210	keystroke_r	r	n/a
419.725	0.045	839450	keystroke_k	k	n/a
420.325	0.105	840650	keystroke_Key.space	Key.space	n/a
420.475	0.075	840950	keystroke_c	c	n/a
420.565	0.075	841130	keystroke_o	o	n/a
420.685	0.105	841370	keystroke_n	n	n/a
421.06	0.075	842120	keystroke_j	j	n/a
421.255	0.075	842510	keystroke_u	u	n/a
421.48	0.075	842960	keystroke_n	n	n/a
421.6	0.045	843200	keystroke_c	c	n/a
421.93	0.15	843860	keystroke_i	i	n/a
422.065	0.09	844130	keystroke_o	o	n/a
422.125	0.165	844250	keystroke_n	n	n/a
423.235	0.0745	846470	keystroke_Key.backspace	Key.backspace	n/a
423.3845	0.09	846769	keystroke_Key.backspace	Key.backspace	n/a
423.8795	0.09	847759	keystroke_Key.backspace	Key.backspace	n/a
424.8705	0.074	849741	keystroke_t	t	n/a
425.0645	0.09	850129	keystroke_i	i	n/a
425.3045	0.12	850609	keystroke_o	o	n/a
425.3955	0.119	850791	keystroke_n	n	n/a
425.8895	0.09	851779	keystroke_Key.space	Key.space	n/a
426.2195	0.075	852439	keystroke_j	j	n/a
426.9245	0.12	853849	keystroke_a	a	n/a
427.2395	0.12	854479	keystroke_q	q	n/a
429.0095	0.105	858019	keystroke_Key.backspace	Key.backspace	n/a
429.4005	0.089	858801	keystroke_g	g	n/a
429.6095	0.06	859219	keystroke_u	u	n/a
429.7295	0.15	859459	keystroke_a	a	n/a
429.8495	0.075	859699	keystroke_r	r	n/a
431.0195	0.105	862039	keystroke_Key.space	Key.space	n/a
431.2895	0.06	862579	keystroke_i	i	n/a
431.7845	0.135	863569	keystroke_'	'	n/a
431.9045	0.09	863809	keystroke_v	v	n/a
432.0105	0.089	864021	keystroke_e	e	n/a
432.5795	0.105	865159	keystroke_Key.enter	Key.enter	n/a
432.691	11.9055	865382	prompt	n/a	librarian issue agreement compared\n
433.4355	0.089	866871	keystroke_l	l	n/a
433.6005	0.074	867201	keystroke_i	i	n/a
433.7795	0.075	867559	keystroke_b	b	n/a
433.8695	0.06	867739	keystroke_r	r	n/a
434.3795	0.135	868759	keystroke_a	a	n/a
434.6495	0.076	869299	keystroke_r	r	n/a
434.7995	0.06	869599	keystroke_i	i	n/a
434.8745	0.09	869749	keystroke_n	n	n/a
434.9495	0.1205	869899	keystroke_a	a	n/a
435.3395	0.09	870679	keystroke_Key.space	Key.space	n/a
436.2095	0.045	872419	keystroke_Key.backspace	Key.backspace	n/a
436.3295	0.075	872659	keystroke_Key.backspace	Key.backspace	n/a
436.8245	0.045	873649	keystroke_Key.space	Key.space	n/a
437.1245	0.061	874249	keystroke_Key.backspace	Key.backspace	n/a
437.3195	0.06	874639	keystroke_Key.backspace	Key.backspace	n/a
437.5445	0.12	875089	keystroke_a	a	n/a
437.6355	0.075	875271	keystroke_n	n	n/a
437.8145	0.09	875629	keystroke_Key.space	Key.space	n/a
438.6255	0.045	877251	keystroke_i	i	n/a
438.7455	0.074	877491	keystroke_s	s	n/a
438.9105	0.074	877821	keystroke_s	s	n/a
439.0895	0.06	878179	keystroke_u	u	n/a
439.1205	0.044	878241	keystroke_e	e	n/a
439.4055	0.059	878811	keystroke_Key.space	Key.space	n/a
439.6145	0.121	879229	keystroke_a	a	n/a
439.9455	0.075	879891	keystroke_r	r	n/a
440.8145	0.09	881629	keystroke_Key.backspace	Key.backspace	n/a
441.0405	0.06	882081	keystroke_g	g	n/a
441.3245	0.09	882649	keystroke_r	r	n/a
441.5645	0.06	883129	keystroke_e	e	n/a
441.6845	0.076	883369	keystroke_e	e	n/a
442.0005	0.0745	884001	keystroke_m	m	n/a
442.044	0.075	884088	keystroke_e	e	n/a
442.194	0.061	884388	keystroke_n	n	n/a
442.299	0.0465	884598	keystroke_t	t	n/a
442.5105	0.104	885021	keystroke_Key.space	Key.space	n/a
442.8705	0.09	885741	keystroke_c	c	n/a
443.005	0.0745	886010	keystroke_o	o	n/a
443.2	0.105	886400	keystroke_m	m	n/a
443.394	0.1065	886788	keystroke_p	p	n/a
443.53	0.105	887060	keystroke_a	a	n/a
443.604	0.09	887208	keystroke_r	r	n/a
443.709	0.0765	887418	keystroke_e	e	n/a
443.874	0.0765	887748	keystroke_d	d	n/a
444.49	0.104	888980	keystroke_Key.enter	Key.enter	n/a
444.6015	11.0805	889203	prompt	n/a	nearby testimony pride extremely\n
445.254	0.061	890508	keystroke_n	n	n/a
445.435	0.0895	890870	keystroke_e	e	n/a
445.57	0.15	891140	keystroke_a	a	n/a
445.675	0.09	891350	keystroke_r	r	n/a
445.929	0.045	891858	keystroke_b	b	n/a
446.11	0.06	892220	keystroke_y	y	n/a
446.409	0.09	892818	keystroke_Key.space	Key.space	n/a
446.875	0.105	893750	keystroke_t	t	n/a
447.264	0.106	894528	keystroke_s	s	n/a
447.984	0.105	895968	keystroke_Key.backspace	Key.backspace	n/a
448.194	0.06	896388	keystroke_e	e	n/a
448.315	0.105	896630	keystroke_s	s	n/a
448.54	0.075	897080	keystroke_t	t	n/a
448.644	0.105	897288	keystroke_i	i	n/a
448.974	0.075	897948	keystroke_m	m	n/a
449.11	0.105	898220	keystroke_o	o	n/a
449.335	0.075	898670	keystroke_n	n	n/a
449.545	0.06	899090	keystroke_y	y	n/a
449.889	0.045	899778	keystroke_Key.space	Key.space	n/a
450.4	0.09	900800	keystroke_p	p	n/a
450.49	0.09	900980	keystroke_r	r	n/a
450.655	0.045	901310	keystroke_i	i	n/a
450.715	0.06	901430	keystroke_d	d	n/a
450.88	0.075	901760	keystroke_e	e	n/a
451.285	0.09	902570	keystroke_Key.space	Key.space	n/a
451.57	0.06	903140	keystroke_e	e	n/a
451.825	0.075	903650	keystroke_x	x	n/a
452.14	0.06	904280	keystroke_t	t	n/a
452.38	0.105	904760	keystroke_r	r	n/a
452.499	0.076	904998	keystroke_e	e	n/a
452.86	0.075	905720	keystroke_e	e	n/a
453.805	0.089	907610	keystroke_Key.backspace	Key.backspace	n/a
454.225	0.06	908450	keystroke_m	m	n/a
454.33	0.06	908660	keystroke_e	e	n/a
454.6	0.12	909200	keystroke_l	l	n/a
454.735	0.09	909470	keystroke_y	y	n/a
455.575	0.105	911150	keystroke_Key.enter	Key.enter	n/a
455.687	7.195	911374	prompt	n/a	preceding medicine leader virus\n
456.37	0.09	912740	keystroke_p	p	n/a
456.445	0.135	912890	keystroke_r	r	n/a
456.535	0.09	913070	keystroke_e	e	n/a
456.85	0.105	913700	keystroke_c	c	n/a
456.999	0.091	913998	keystroke_e	e	n/a
457.45	0.074	914900	keystroke_d	d	n/a
458.05	0.105	916100	keystroke_i	i	n/a
458.17	0.075	916340	keystroke_n	n	n/a
458.26	0.075	916520	keystroke_g	g	n/a
458.379	0.106	916758	keystroke_Key.space	Key.space	n/a
458.905	0.06	917810	keystroke_m	m	n/a
459.01	0.06	918020	keystroke_e	e	n/a
459.22	0.09	918440	keystroke_d	d	n/a
459.34	0.075	918680	keystroke_i	i	n/a
459.505	0.075	919010	keystroke_c	c	n/a
459.595	0.09	919190	keystroke_i	i	n/a
459.7	0.075	919400	keystroke_n	n	n/a
459.76	0.09	919520	keystroke_e	e	n/a
459.97	0.09	919940	keystroke_Key.space	Key.space	n/a
460.255	0.075	920510	keystroke_l	l	n/a
460.331	0.074	920662	keystroke_e	e	n/a
460.72	0.09	921440	keystroke_a	a	n/a
460.945	0.075	921890	keystroke_d	d	n/a
461.155	0.0895	922310	keystroke_e	e	n/a
461.2295	0.09	922459	keystroke_r	r	n/a
461.5145	0.075	923029	keystroke_Key.space	Key.space	n/a
461.7095	0.075	923419	keystroke_v	v	n/a
461.7995	0.075	923599	keystroke_i	i	n/a
461.9195	0.075	923839	keystroke_r	r	n/a
462.0395	0.075	924079	keystroke_u	u	n/a
462.1155	0.044	924231	keystroke_s	s	n/a
462.7895	0.09	925579	keystroke_Key.enter	Key.enter	n/a
462.887	10.4195	925774	prompt	n/a	edgar backed endorsement wearing\n
463.6145	0.045	927229	keystroke_e	e	n/a
463.8395	0.09	927679	keystroke_d	d	n/a
464.1245	0.075	928249	keystroke_g	g	n/a
464.3945	0.105	928789	keystroke_a	a	n/a
464.4545	0.09	928909	keystroke_r	r	n/a
465.0995	0.09	930199	keystroke_Key.space	Key.space	n/a
466.5245	0.06	933049	keystroke_b	b	n/a
466.6295	0.135	933259	keystroke_a	a	n/a
466.7495	0.09	933499	keystroke_c	c	n/a
467.0945	0.09	934189	keystroke_k	k	n/a
467.2445	0.06	934489	keystroke_e	e	n/a
467.3795	0.09	934759	keystroke_d	d	n/a
467.8595	0.03	935719	keystroke_Key.space	Key.space	n/a
468.9095	0.075	937819	keystroke_e	e	n/a
469.0295	0.045	938059	keystroke_n	n	n/a
469.4345	0.09	938869	keystroke_d	d	n/a
469.6295	0.06	939259	keystroke_o	o	n/a
469.7045	0.075	939409	keystroke_r	r	n/a
469.8845	0.12	939769	keystroke_s	s	n/a
469.9745	0.09	939949	keystroke_e	e	n/a
470.1995	0.06	940399	keystroke_m	m	n/a
470.2745	0.09	940549	keystroke_e	e	n/a
470.3945	0.06	940789	keystroke_n	n	n/a
470.4395	0.075	940879	keystroke_t	t	n/a
470.8445	0.12	941689	keystroke_Key.space	Key.space	n/a
471.2195	0.15	942439	keystroke_w	w	n/a
471.3545	0.076	942709	keystroke_e	e	n/a
471.6995	0.09	943399	keystroke_a	a	n/a
471.9105	0.044	943821	keystroke_r	r	n/a
472.4045	0.075	944809	keystroke_i	i	n/a
472.5245	0.061	945049	keystroke_n	n	n/a
472.5995	0.045	945199	keystroke_g	g	n/a
473.2145	0.09	946429	keystroke_Key.enter	Key.enter	n/a
473.311	11.9955	946622	prompt	n/a	textbooks cigarette purchased hundreds\n
474.2945	0.075	948589	keystroke_t	t	n/a
474.4295	0.075	948859	keystroke_e	e	n/a
474.6245	0.06	949249	keystroke_x	x	n/a
474.8195	0.06	949639	keystroke_t	t	n/a
475.0745	0.06	950149	keystroke_b	b	n/a
475.3145	0.06	950629	keystroke_o	o	n/a
475.4495	0.09	950899	keystroke_o	o	n/a
475.6295	0.076	951259	keystroke_k	k	n/a
475.7495	0.09	951499	keystroke_s	s	n/a
476.0345	0.105	952069	keystroke_Key.space	Key.space	n/a
476.2445	0.09	952489	keystroke_c	c	n/a
476.3645	0.06	952729	keystroke_i	i	n/a
476.5295	0.076	953059	keystroke_g	g	n/a
476.6805	0.119	953361	keystroke_a	a	n/a
476.7395	0.09	953479	keystroke_r	r	n/a
477.0395	0.06	954079	keystroke_e	e	n/a
477.3695	0.075	954739	keystroke_t	t	n/a
477.5045	0.09	955009	keystroke_e	e	n/a
478.9595	0.075	957919	keystroke_Key.backspace	Key.backspace	n/a
479.3195	0.061	958639	keystroke_t	t	n/a
479.4845	0.075	958969	keystroke_e	e	n/a
479.7395	0.09	959479	keystroke_Key.space	Key.space	n/a
480.6695	0.151	961339	keystroke_p	p	n/a
480.8055	0.089	961611	keystroke_u	u	n/a
480.8495	0.075	961699	keystroke_r	r	n/a
481.1495	0.075	962299	keystroke_c	c	n/a
481.2555	0.059	962511	keystroke_h	h	n/a
481.4045	0.135	962809	keystroke_a	a	n/a
481.5545	0.105	963109	keystroke_s	s	n/a
481.6445	0.075	963289	keystroke_e	e	n/a
481.7945	0.09	963589	keystroke_d	d	n/a
482.0195	0.09	964039	keystroke_Key.space	Key.space	n/a
482.4395	0.045	964879	keystroke_h	h	n/a
482.6345	0.046	965269	keystroke_u	u	n/a
482.7395	0.045	965479	keystroke_r	r	n/a
483.5195	0.06	967039	keystroke_Key.backspace	Key.backspace	n/a
483.7595	0.06	967519	keystroke_n	n	n/a
483.8345	0.075	967669	keystroke_d	d	n/a
484.0305	0.075	968061	keystroke_r	r	n/a
484.1345	0.075	968269	keystroke_e	e	n/a
484.2855	0.06	968571	keystroke_d	d	n/a
484.4645	0.076	968929	keystroke_s	s	n/a
485.2005	0.104	970401	keystroke_Key.enter	Key.enter	n/a
485.314	10.748	970628	prompt	n/a	larry smilies brazilian publishing\n
486.0695	0.061	972139	keystroke_l	l	n/a
486.1745	0.135	972349	keystroke_a	a	n/a
486.2945	0.075	972589	keystroke_r	r	n/a
486.4595	0.09	972919	keystroke_r	r	n/a
486.5945	0.091	973189	keystroke_y	y	n/a
486.7295	0.12	973459	keystroke_Key.space	Key.space	n/a
488.1695	0.105	976339	keystroke_s	s	n/a
488.3805	0.074	976761	keystroke_m	m	n/a
488.5895	0.061	977179	keystroke_i	i	n/a
488.8445	0.075	977689	keystroke_l	l	n/a
488.9805	0.075	977961	keystroke_i	i	n/a
489.2045	0.06	978409	keystroke_e	e	n/a
489.3695	0.076	978739	keystroke_s	s	n/a
489.5795	0.09	979159	keystroke_Key.space	Key.space	n/a
490.0745	0.046	980149	keystroke_b	b	n/a
490.1955	0.075	980391	keystroke_r	r	n/a
490.3295	0.105	980659	keystroke_a	a	n/a
492.1895	0.091	984379	keystroke_z	z	n/a
492.3395	0.061	984679	keystroke_i	i	n/a
493.1055	0.074	986211	keystroke_l	l	n/a
493.27	0.0745	986540	keystroke_i	i	n/a
493.404	0.106	986808	keystroke_a	a	n/a
493.48	0.06	986960	keystroke_n	n	n/a
493.764	0.075	987528	keystroke_Key.space	Key.space	n/a
494.005	0.09	988010	keystroke_p	p	n/a
494.109	0.106	988218	keystroke_u	u	n/a
494.319	0.076	988638	keystroke_b	b	n/a
494.514	0.12	989028	keystroke_l	l	n/a
494.635	0.09	989270	keystroke_i	i	n/a
494.845	0.12	989690	keystroke_s	s	n/a
494.95	0.074	989900	keystroke_h	h	n/a
495.159	0.06	990318	keystroke_i	i	n/a
495.25	0.105	990500	keystroke_n	n	n/a
495.339	0.076	990678	keystroke_g	g	n/a
495.939	0.121	991878	keystroke_Key.enter	Key.enter	n/a
496.0675	8.784	992135	prompt	n/a	consumption gradually pizza null\n
496.689	0.105	993378	keystroke_c	c	n/a
497.29	0.06	994580	keystroke_o	o	n/a
497.619	0.075	995238	keystroke_n	n	n/a
497.979	0.091	995958	keystroke_s	s	n/a
498.085	0.089	996170	keystroke_u	u	n/a
498.34	0.09	996680	keystroke_m	m	n/a
498.475	0.09	996950	keystroke_p	p	n/a
498.625	0.075	997250	keystroke_t	t	n/a
498.715	0.074	997430	keystroke_i	i	n/a
498.805	0.09	997610	keystroke_o	o	n/a
498.864	0.105	997728	keystroke_n	n	n/a
499.299	0.075	998598	keystroke_Key.space	Key.space	n/a
499.569	0.076	999138	keystroke_g	g	n/a
499.75	0.135	999500	keystroke_r	r	n/a
500.11	0.119	1000220	keystroke_a	a	n/a
500.335	0.075	1000670	keystroke_d	d	n/a
500.439	0.061	1000878	keystroke_u	u	n/a
500.635	0.075	1001270	keystroke_a	a	n/a
500.739	0.061	1001478	keystroke_l	l	n/a
500.875	0.105	1001750	keystroke_l	l	n/a
501.01	0.104	1002020	keystroke_y	y	n/a
501.144	0.15	1002288	keystroke_Key.space	Key.space	n/a
501.4	0.09	1002800	keystroke_p	p	n/a
501.58	0.06	1003160	keystroke_i	i	n/a
501.729	0.061	1003458	keystroke_z	z	n/a
502.015	0.12	1004030	keystroke_a	a	n/a
502.81	0.09	1005620	keystroke_Key.backspace	Key.backspace	n/a
503.035	0.09	1006070	keystroke_z	z	n/a
503.11	0.135	1006220	keystroke_a	a	n/a
503.364	0.076	1006728	keystroke_Key.space	Key.space	n/a
503.545	0.06	1007090	keystroke_n	n	n/a
503.755	0.045	1007510	keystroke_u	u	n/a
503.935	0.045	1007870	keystroke_l	l	n/a
504.055	0.09	1008110	keystroke_l	l	n/a
504.76	0.089	1009520	keystroke_Key.enter	Key.enter	n/a
504.8555	6.4915	1009711	prompt	n/a	miracle basement suggestion maintained\n
505.525	0.03	1011050	keystroke_m	m	n/a
505.66	0.06	1011320	keystroke_i	i	n/a
505.764	0.076	1011528	keystroke_r	r	n/a
505.9	0.164	1011800	keystroke_a	a	n/a
506.08	0.075	1012160	keystroke_c	c	n/a
506.245	0.06	1012490	keystroke_l	l	n/a
506.32	0.059	1012640	keystroke_e	e	n/a
506.754	0.076	1013508	keystroke_Key.space	Key.space	n/a
507.115	0.045	1014230	keystroke_b	b	n/a
507.22	0.135	1014440	keystroke_a	a	n/a
507.325	0.135	1014650	keystroke_s	s	n/a
507.445	0.075	1014890	keystroke_e	e	n/a
507.655	0.06	1015310	keystroke_m	m	n/a
507.76	0.105	1015520	keystroke_e	e	n/a
507.865	0.06	1015730	keystroke_n	n	n/a
507.91	0.075	1015820	keystroke_t	t	n/a
508.135	0.059	1016270	keystroke_Key.space	Key.space	n/a
508.3	0.09	1016600	keystroke_s	s	n/a
508.405	0.045	1016810	keystroke_u	u	n/a
508.51	0.06	1017020	keystroke_g	g	n/a
508.645	0.075	1017290	keystroke_g	g	n/a
508.84	0.09	1017680	keystroke_e	e	n/a
509.035	0.12	1018070	keystroke_s	s	n/a
509.185	0.075	1018370	keystroke_t	t	n/a
509.29	0.06	1018580	keystroke_i	i	n/a
509.335	0.12	1018670	keystroke_o	o	n/a
509.425	0.12	1018850	keystroke_n	n	n/a
509.575	0.09	1019150	keystroke_Key.space	Key.space	n/a
509.845	0.06	1019690	keystroke_m	m	n/a
509.92	0.105	1019840	keystroke_a	a	n/a
510.055	0.045	1020110	keystroke_i	i	n/a
510.145	0.09	1020290	keystroke_n	n	n/a
510.28	0.06	1020560	keystroke_t	t	n/a
510.415	0.12	1020830	keystroke_a	a	n/a
510.475	0.075	1020950	keystroke_i	i	n/a
510.565	0.075	1021130	keystroke_n	n	n/a
510.625	0.075	1021250	keystroke_e	e	n/a
510.775	0.06	1021550	keystroke_d	d	n/a
511.255	0.09	1022510	keystroke_Key.enter	Key.enter	n/a
511.3525	6.985	1022705	prompt	n/a	sealed reproduction science compatibility\n
511.99	0.075	1023980	keystroke_s	s	n/a
512.095	0.09	1024190	keystroke_e	e	n/a
512.29	0.09	1024580	keystroke_a	a	n/a
512.425	0.075	1024850	keystroke_l	l	n/a
512.53	0.06	1025060	keystroke_e	e	n/a
512.68	0.075	1025360	keystroke_d	d	n/a
512.815	0.075	1025630	keystroke_Key.space	Key.space	n/a
512.995	0.12	1025990	keystroke_r	r	n/a
513.085	0.105	1026170	keystroke_e	e	n/a
513.25	0.105	1026500	keystroke_p	p	n/a
513.37	0.075	1026740	keystroke_r	r	n/a
513.535	0.06	1027070	keystroke_o	o	n/a
513.625	0.075	1027250	keystroke_d	d	n/a
513.79	0.06	1027580	keystroke_u	u	n/a
513.82	0.06	1027640	keystroke_c	c	n/a
514.045	0.03	1028090	keystroke_t	t	n/a
514.075	0.075	1028150	keystroke_i	i	n/a
514.165	0.09	1028330	keystroke_o	o	n/a
514.21	0.135	1028420	keystroke_n	n	n/a
514.375	0.105	1028750	keystroke_Key.space	Key.space	n/a
514.51	0.09	1029020	keystroke_s	s	n/a
514.675	0.06	1029350	keystroke_c	c	n/a
514.795	0.075	1029590	keystroke_i	i	n/a
514.871	0.074	1029742	keystroke_e	e	n/a
514.99	0.09	1029980	keystroke_n	n	n/a
515.035	0.12	1030070	keystroke_c	c	n/a
515.14	0.075	1030280	keystroke_e	e	n/a
515.275	0.09	1030550	keystroke_Key.space	Key.space	n/a
515.47	0.075	1030940	keystroke_c	c	n/a
515.575	0.06	1031150	keystroke_o	o	n/a
515.74	0.12	1031480	keystroke_m	m	n/a
515.905	0.105	1031810	keystroke_p	p	n/a
516.025	0.135	1032050	keystroke_a	a	n/a
516.175	0.075	1032350	keystroke_t	t	n/a
516.28	0.045	1032560	keystroke_i	i	n/a
516.61	0.075	1033220	keystroke_b	b	n/a
516.76	0.06	1033520	keystroke_i	i	n/a
516.94	0.075	1033880	keystroke_l	l	n/a
517.03	0.09	1034060	keystroke_i	i	n/a
517.195	0.06	1034390	keystroke_t	t	n/a
517.3	0.075	1034600	keystroke_y	y	n/a
518.23	0.105	1036460	keystroke_Key.enter	Key.enter	n/a
518.342	7.1045	1036684	prompt	n/a	andale poland enter congressional\n
518.995	0.105	1037990	keystroke_a	a	n/a
519.295	0.06	1038590	keystroke_n	n	n/a
519.505	0.165	1039010	keystroke_d	d	n/a
519.625	0.135	1039250	keystroke_a	a	n/a
519.79	0.075	1039580	keystroke_l	l	n/a
519.88	0.075	1039760	keystroke_e	e	n/a
520.195	0.105	1040390	keystroke_Key.space	Key.space	n/a
520.825	0.12	1041650	keystroke_p	p	n/a
520.975	0.105	1041950	keystroke_o	o	n/a
521.215	0.075	1042430	keystroke_l	l	n/a
521.305	0.12	1042610	keystroke_a	a	n/a
521.41	0.075	1042820	keystroke_n	n	n/a
521.47	0.105	1042940	keystroke_d	d	n/a
521.59	0.105	1043180	keystroke_Key.space	Key.space	n/a
521.815	0.075	1043630	keystroke_e	e	n/a
521.935	0.075	1043870	keystroke_n	n	n/a
522.07	0.075	1044140	keystroke_t	t	n/a
522.22	0.09	1044440	keystroke_e	e	n/a
522.28	0.105	1044560	keystroke_r	r	n/a
522.865	0.105	1045730	keystroke_Key.space	Key.space	n/a
523.18	0.075	1046360	keystroke_c	c	n/a
523.285	0.09	1046570	keystroke_o	o	n/a
523.435	0.09	1046870	keystroke_n	n	n/a
523.51	0.06	1047020	keystroke_g	g	n/a
523.705	0.135	1047410	keystroke_r	r	n/a
523.81	0.075	1047620	keystroke_e	e	n/a
524.005	0.06	1048010	keystroke_s	s	n/a
524.14	0.105	1048280	keystroke_s	s	n/a
524.29	0.09	1048580	keystroke_i	i	n/a
524.395	0.105	1048790	keystroke_o	o	n/a
524.485	0.105	1048970	keystroke_n	n	n/a
524.605	0.09	1049210	keystroke_a	a	n/a
524.71	0.075	1049420	keystroke_l	l	n/a
525.34	0.105	1050680	keystroke_Key.enter	Key.enter	n/a
525.451	5.3805	1050902	prompt	n/a	convenient angel split cuisine\n
526.045	0.075	1052090	keystroke_c	c	n/a
526.21	0.075	1052420	keystroke_o	o	n/a
526.345	0.09	1052690	keystroke_n	n	n/a
526.42	0.09	1052840	keystroke_v	v	n/a
526.555	0.09	1053110	keystroke_e	e	n/a
526.675	0.075	1053350	keystroke_n	n	n/a
526.795	0.09	1053590	keystroke_i	i	n/a
526.975	0.09	1053950	keystroke_e	e	n/a
527.05	0.075	1054100	keystroke_n	n	n/a
527.2	0.06	1054400	keystroke_t	t	n/a
527.41	0.105	1054820	keystroke_Key.space	Key.space	n/a
527.59	0.12	1055180	keystroke_a	a	n/a
527.711	0.074	1055422	keystroke_n	n	n/a
527.845	0.09	1055690	keystroke_g	g	n/a
528.025	0.075	1056050	keystroke_e	e	n/a
528.13	0.075	1056260	keystroke_l	l	n/a
528.355	0.09	1056710	keystroke_Key.space	Key.space	n/a
528.55	0.075	1057100	keystroke_s	s	n/a
528.715	0.09	1057430	keystroke_p	p	n/a
528.925	0.075	1057850	keystroke_l	l	n/a
529.06	0.06	1058120	keystroke_i	i	n/a
529.15	0.06	1058300	keystroke_t	t	n/a
529.27	0.105	1058540	keystroke_Key.space	Key.space	n/a
529.435	0.075	1058870	keystroke_c	c	n/a
529.57	0.06	1059140	keystroke_u	u	n/a
529.81	0.045	1059620	keystroke_i	i	n/a
529.9	0.075	1059800	keystroke_s	s	n/a
530.005	0.075	1060010	keystroke_i	i	n/a
530.095	0.09	1060190	keystroke_n	n	n/a
530.186	0.059	1060372	keystroke_e	e	n/a
530.77	0.06	1061540	keystroke_Key.enter	Key.enter	n/a
530.8375	7.3295	1061675	prompt	n/a	achievement princess shortly checklist\n
531.625	0.1345	1063250	keystroke_a	a	n/a
531.7895	0.09	1063579	keystroke_c	c	n/a
531.9545	0.06	1063909	keystroke_h	h	n/a
532.1795	0.06	1064359	keystroke_i	i	n/a
532.2695	0.105	1064539	keystroke_e	e	n/a
532.4195	0.1205	1064839	keystroke_v	v	n/a
532.5545	0.0905	1065109	keystroke_e	e	n/a
532.7495	0.06	1065499	keystroke_m	m	n/a
532.8105	0.089	1065621	keystroke_e	e	n/a
532.9295	0.09	1065859	keystroke_n	n	n/a
533.0045	0.06	1066009	keystroke_t	t	n/a
533.1245	0.105	1066249	keystroke_Key.space	Key.space	n/a
533.3195	0.12	1066639	keystroke_p	p	n/a
533.4695	0.075	1066939	keystroke_r	r	n/a
533.6495	0.075	1067299	keystroke_i	i	n/a
533.7995	0.075	1067599	keystroke_n	n	n/a
533.9045	0.135	1067809	keystroke_c	c	n/a
534.0545	0.075	1068109	keystroke_e	e	n/a
534.2645	0.06	1068529	keystroke_s	s	n/a
534.4145	0.09	1068829	keystroke_s	s	n/a
534.7445	0.105	1069489	keystroke_Key.space	Key.space	n/a
535.0145	0.09	1070029	keystroke_s	s	n/a
535.1345	0.06	1070269	keystroke_h	h	n/a
535.2845	0.06	1070569	keystroke_o	o	n/a
535.5395	0.06	1071079	keystroke_r	r	n/a
535.7495	0.045	1071499	keystroke_t	t	n/a
535.9445	0.09	1071889	keystroke_l	l	n/a
536.0945	0.075	1072189	keystroke_y	y	n/a
536.4395	0.105	1072879	keystroke_Key.space	Key.space	n/a
536.7095	0.075	1073419	keystroke_c	c	n/a
536.8595	0.06	1073719	keystroke_h	h	n/a
536.9645	0.075	1073929	keystroke_e	e	n/a
537.1145	0.09	1074229	keystroke_c	c	n/a
537.2195	0.06	1074439	keystroke_k	k	n/a
537.4145	0.06	1074829	keystroke_l	l	n/a
537.5345	0.06	1075069	keystroke_i	i	n/a
537.6245	0.09	1075249	keystroke_s	s	n/a
537.6995	0.09	1075399	keystroke_t	t	n/a
538.0745	0.09	1076149	keystroke_Key.enter	Key.enter	n/a
538.1715	6.4145	1076343	prompt	n/a	word reverse connector flyer\n
538.8245	0.075	1077649	keystroke_w	w	n/a
538.9595	0.075	1077919	keystroke_o	o	n/a
539.0195	0.06	1078039	keystroke_r	r	n/a
539.1695	0.075	1078339	keystroke_d	d	n/a
539.8745	0.09	1079749	keystroke_Key.space	Key.space	n/a
540.0695	0.09	1080139	keystroke_r	r	n/a
540.1445	0.09	1080289	keystroke_e	e	n/a
540.3845	0.09	1080769	keystroke_v	v	n/a
540.5795	0.105	1081159	keystroke_e	e	n/a
540.6695	0.075	1081339	keystroke_r	r	n/a
540.8645	0.105	1081729	keystroke_s	s	n/a
540.9545	0.075	1081909	keystroke_e	e	n/a
541.5095	0.09	1083019	keystroke_Key.space	Key.space	n/a
541.8695	0.075	1083739	keystroke_c	c	n/a
541.9745	0.075	1083949	keystroke_o	o	n/a
542.1845	0.06	1084369	keystroke_n	n	n/a
542.3045	0.09	1084609	keystroke_n	n	n/a
542.5295	0.06	1085059	keystroke_e	e	n/a
542.7095	0.06	1085419	keystroke_c	c	n/a
542.9045	0.06	1085809	keystroke_t	t	n/a
542.9945	0.09	1085989	keystroke_o	o	n/a
543.0695	0.06	1086139	keystroke_r	r	n/a
543.2945	0.09	1086589	keystroke_Key.space	Key.space	n/a
543.4445	0.09	1086889	keystroke_f	f	n/a
543.5495	0.06	1087099	keystroke_l	l	n/a
543.7895	0.06	1087579	keystroke_y	y	n/a
543.8795	0.105	1087759	keystroke_e	e	n/a
543.9545	0.09	1087909	keystroke_r	r	n/a
544.4945	0.09	1088989	keystroke_Key.enter	Key.enter	n/a
544.5915	7.105	1089183	prompt	n/a	reading visits marco strictly\n
545.1995	0.12	1090399	keystroke_r	r	n/a
545.2895	0.075	1090579	keystroke_e	e	n/a
545.4395	0.15	1090879	keystroke_a	a	n/a
545.5745	0.06	1091149	keystroke_d	d	n/a
545.6795	0.075	1091359	keystroke_i	i	n/a
545.7845	0.075	1091569	keystroke_n	n	n/a
545.8595	0.075	1091719	keystroke_g	g	n/a
546.1895	0.075	1092379	keystroke_Key.space	Key.space	n/a
546.7145	0.075	1093429	keystroke_v	v	n/a
546.8195	0.075	1093639	keystroke_i	i	n/a
546.9845	0.09	1093969	keystroke_s	s	n/a
547.1795	0.06	1094359	keystroke_i	i	n/a
547.2695	0.075	1094539	keystroke_t	t	n/a
547.4345	0.09	1094869	keystroke_s	s	n/a
547.6895	0.12	1095379	keystroke_Key.space	Key.space	n/a
548.0795	0.06	1096159	keystroke_m	m	n/a
548.1995	0.12	1096399	keystroke_a	a	n/a
548.3645	0.06	1096729	keystroke_c	c	n/a
548.5595	0.075	1097119	keystroke_r	r	n/a
548.6355	0.059	1097271	keystroke_o	o	n/a
549.3395	0.09	1098679	keystroke_Key.space	Key.space	n/a
549.4745	0.105	1098949	keystroke_s	s	n/a
549.6095	0.075	1099219	keystroke_t	t	n/a
549.7745	0.09	1099549	keystroke_r	r	n/a
549.9695	0.075	1099939	keystroke_i	i	n/a
550.0745	0.06	1100149	keystroke_c	c	n/a
550.2395	0.075	1100479	keystroke_t	t	n/a
550.3895	0.075	1100779	keystroke_l	l	n/a
550.5545	0.075	1101109	keystroke_y	y	n/a
551.6195	0.075	1103239	keystroke_Key.enter	Key.enter	n/a
551.701	5.906	1103402	prompt	n/a	organic realized need seen\n
552.3545	0.06	1104709	keystroke_o	o	n/a
552.4155	0.074	1104831	keystroke_r	r	n/a
552.6095	0.075	1105219	keystroke_g	g	n/a
552.7595	0.105	1105519	keystroke_a	a	n/a
552.9245	0.075	1105849	keystroke_n	n	n/a
553.1495	0.06	1106299	keystroke_i	i	n/a
553.2245	0.06	1106449	keystroke_c	c	n/a
553.6445	0.09	1107289	keystroke_Key.space	Key.space	n/a
554.1245	0.135	1108249	keystroke_r	r	n/a
554.2305	0.104	1108461	keystroke_e	e	n/a
554.394	0.1205	1108788	keystroke_a	a	n/a
554.5445	0.06	1109089	keystroke_l	l	n/a
554.6495	0.075	1109299	keystroke_i	i	n/a
554.7395	0.15	1109479	keystroke_z	z	n/a
554.8745	0.06	1109749	keystroke_e	e	n/a
555.0245	0.09	1110049	keystroke_d	d	n/a
555.3845	0.09	1110769	keystroke_Key.space	Key.space	n/a
555.7145	0.075	1111429	keystroke_n	n	n/a
555.8345	0.09	1111669	keystroke_e	e	n/a
555.999	0.09	1111998	keystroke_e	e	n/a
556.179	0.0755	1112358	keystroke_d	d	n/a
556.329	0.0905	1112658	keystroke_Key.space	Key.space	n/a
556.45	0.104	1112900	keystroke_s	s	n/a
556.659	0.06	1113318	keystroke_e	e	n/a
556.809	0.075	1113618	keystroke_e	e	n/a
556.974	0.075	1113948	keystroke_n	n	n/a
557.499	0.105	1114998	keystroke_Key.enter	Key.enter	n/a
557.6125	7.2385	1115225	prompt	n/a	freeware match sheriff feels\n
558.234	0.075	1116468	keystroke_f	f	n/a
558.4595	0.0595	1116919	keystroke_r	r	n/a
558.579	0.075	1117158	keystroke_e	e	n/a
558.759	0.06	1117518	keystroke_e	e	n/a
559.164	0.105	1118328	keystroke_w	w	n/a
559.374	0.135	1118748	keystroke_a	a	n/a
559.539	0.075	1119078	keystroke_r	r	n/a
559.629	0.09	1119258	keystroke_e	e	n/a
560.364	0.09	1120728	keystroke_Key.space	Key.space	n/a
560.589	0.1055	1121178	keystroke_m	m	n/a
560.679	0.165	1121358	keystroke_a	a	n/a
560.814	0.075	1121628	keystroke_t	t	n/a
561.024	0.09	1122048	keystroke_c	c	n/a
561.144	0.09	1122288	keystroke_h	h	n/a
561.429	0.12	1122858	keystroke_Key.space	Key.space	n/a
561.849	0.09	1123698	keystroke_s	s	n/a
561.924	0.075	1123848	keystroke_h	h	n/a
562.059	0.075	1124118	keystroke_e	e	n/a
562.239	0.075	1124478	keystroke_r	r	n/a
562.359	0.06	1124718	keystroke_i	i	n/a
562.464	0.075	1124928	keystroke_f	f	n/a
562.6	0.089	1125200	keystroke_f	f	n/a
563.124	0.09	1126248	keystroke_Key.space	Key.space	n/a
563.589	0.075	1127178	keystroke_f	f	n/a
563.769	0.06	1127538	keystroke_e	e	n/a
563.889	0.075	1127778	keystroke_e	e	n/a
564.039	0.075	1128078	keystroke_l	l	n/a
564.129	0.105	1128258	keystroke_s	s	n/a
564.774	0.075	1129548	keystroke_Key.enter	Key.enter	n/a
564.855	7.5415	1129710	prompt	n/a	stack above fare namely\n
565.75	0.089	1131500	keystroke_s	s	n/a
565.854	0.075	1131708	keystroke_t	t	n/a
566.034	0.09	1132068	keystroke_a	a	n/a
566.274	0.075	1132548	keystroke_c	c	n/a
566.394	0.09	1132788	keystroke_k	k	n/a
566.889	0.09	1133778	keystroke_Key.space	Key.space	n/a
567.099	0.12	1134198	keystroke_a	a	n/a
567.174	0.076	1134348	keystroke_b	b	n/a
567.669	0.075	1135338	keystroke_o	o	n/a
567.759	0.105	1135518	keystroke_v	v	n/a
567.909	0.075	1135818	keystroke_e	e	n/a
568.419	0.105	1136838	keystroke_Key.space	Key.space	n/a
568.614	0.075	1137228	keystroke_f	f	n/a
568.809	0.12	1137618	keystroke_a	a	n/a
568.899	0.105	1137798	keystroke_r	r	n/a
568.959	0.105	1137918	keystroke_e	e	n/a
569.169	0.09	1138338	keystroke_Key.space	Key.space	n/a
569.455	0.074	1138910	keystroke_n	n	n/a
569.514	0.121	1139028	keystroke_a	a	n/a
569.619	0.075	1139238	keystroke_e	e	n/a
570.504	0.09	1141008	keystroke_Key.backspace	Key.backspace	n/a
570.969	0.06	1141938	keystroke_m	m	n/a
571.059	0.06	1142118	keystroke_e	e	n/a
571.2845	0.105	1142569	keystroke_l	l	n/a
571.4495	0.045	1142899	keystroke_y	y	n/a
572.2895	0.105	1144579	keystroke_Key.enter	Key.enter	n/a
572.4045	15.8025	1144809	prompt	n/a	subsidiary islands inquiry reliability\n
572.9645	0.075	1145929	keystroke_s	s	n/a
573.1145	0.06	1146229	keystroke_u	u	n/a
573.2345	0.075	1146469	keystroke_s	s	n/a
573.4445	0.06	1146889	keystroke_b	b	n/a
573.5795	0.075	1147159	keystroke_i	i	n/a
573.9545	0.09	1147909	keystroke_d	d	n/a
574.0895	0.075	1148179	keystroke_i	i	n/a
574.1945	0.135	1148389	keystroke_a	a	n/a
574.2995	0.09	1148599	keystroke_r	r	n/a
574.3745	0.09	1148749	keystroke_y	y	n/a
574.4795	0.12	1148959	keystroke_Key.space	Key.space	n/a
575.4545	0.09	1150909	keystroke_Key.backspace	Key.backspace	n/a
575.7245	0.015	1151449	keystroke_Key.backspace	Key.backspace	n/a
575.7995	0.105	1151599	keystroke_Key.backspace	Key.backspace	n/a
575.9795	0.09	1151959	keystroke_Key.backspace	Key.backspace	n/a
576.1595	0.09	1152319	keystroke_Key.backspace	Key.backspace	n/a
576.3245	0.09	1152649	keystroke_Key.backspace	Key.backspace	n/a
576.5045	0.09	1153009	keystroke_Key.backspace	Key.backspace	n/a
576.6845	0.09	1153369	keystroke_Key.backspace	Key.backspace	n/a
576.8795	0.09	1153759	keystroke_Key.backspace	Key.backspace	n/a
577.1945	0.075	1154389	keystroke_b	b	n/a
577.8545	0.105	1155709	keystroke_s	s	n/a
577.9445	0.045	1155889	keystroke_i	i	n/a
578.1845	0.105	1156369	keystroke_d	d	n/a
578.2595	0.06	1156519	keystroke_i	i	n/a
578.4395	0.135	1156879	keystroke_a	a	n/a
578.5445	0.105	1157089	keystroke_r	r	n/a
578.6645	0.045	1157329	keystroke_y	y	n/a
578.8745	0.075	1157749	keystroke_Key.space	Key.space	n/a
579.8645	0.105	1159729	keystroke_s	s	n/a
580.1045	0.09	1160209	keystroke_l	l	n/a
580.2095	0.12	1160419	keystroke_a	a	n/a
580.3145	0.06	1160629	keystroke_n	n	n/a
580.4195	0.075	1160839	keystroke_d	d	n/a
581.0645	0.09	1162129	keystroke_Key.backspace	Key.backspace	n/a
581.2295	0.105	1162459	keystroke_Key.backspace	Key.backspace	n/a
581.4095	0.105	1162819	keystroke_Key.backspace	Key.backspace	n/a
581.5895	0.075	1163179	keystroke_Key.backspace	Key.backspace	n/a
581.7545	0.075	1163509	keystroke_Key.backspace	Key.backspace	n/a
582.5495	0.045	1165099	keystroke_i	i	n/a
582.6395	0.105	1165279	keystroke_s	s	n/a
583.3295	0.06	1166659	keystroke_l	l	n/a
583.3445	0.12	1166689	keystroke_a	a	n/a
583.4795	0.06	1166959	keystroke_n	n	n/a
583.5695	0.075	1167139	keystroke_d	d	n/a
583.7645	0.09	1167529	keystroke_s	s	n/a
583.9145	0.105	1167829	keystroke_Key.space	Key.space	n/a
584.2445	0.06	1168489	keystroke_i	i	n/a
584.3645	0.075	1168729	keystroke_n	n	n/a
584.5145	0.09	1169029	keystroke_q	q	n/a
584.6495	0.06	1169299	keystroke_u	u	n/a
585.1295	0.06	1170259	keystroke_i	i	n/a
585.2195	0.09	1170439	keystroke_r	r	n/a
585.3545	0.06	1170709	keystroke_y	y	n/a
585.8645	0.12	1171729	keystroke_Key.space	Key.space	n/a
586.2095	0.135	1172419	keystroke_r	r	n/a
586.2995	0.105	1172599	keystroke_e	e	n/a
586.5095	0.075	1173019	keystroke_l	l	n/a
586.6295	0.075	1173259	keystroke_i	i	n/a
586.7195	0.09	1173439	keystroke_a	a	n/a
586.8695	0.075	1173739	keystroke_b	b	n/a
587.0045	0.075	1174009	keystroke_i	i	n/a
587.1695	0.105	1174339	keystroke_l	l	n/a
587.2595	0.135	1174519	keystroke_i	i	n/a
587.3645	0.045	1174729	keystroke_t	t	n/a
587.4695	0.075	1174939	keystroke_y	y	n/a
588.0995	0.105	1176199	keystroke_Key.enter	Key.enter	n/a
588.212	11.9355	1176424	prompt	n/a	technician insights westminster permission\n
588.9695	0.06	1177939	keystroke_t	t	n/a
589.5095	0.09	1179019	keystroke_e	e	n/a
589.7195	0.09	1179439	keystroke_c	c	n/a
589.8695	0.075	1179739	keystroke_h	h	n/a
590.0945	0.09	1180189	keystroke_n	n	n/a
590.1995	0.075	1180399	keystroke_i	i	n/a
590.3195	0.075	1180639	keystroke_c	c	n/a
590.4245	0.075	1180849	keystroke_i	i	n/a
590.5145	0.09	1181029	keystroke_a	a	n/a
590.6345	0.06	1181269	keystroke_n	n	n/a
590.8295	0.09	1181659	keystroke_Key.space	Key.space	n/a
591.0095	0.06	1182019	keystroke_i	i	n/a
591.1145	0.075	1182229	keystroke_n	n	n/a
591.2195	0.12	1182439	keystroke_s	s	n/a
591.3845	0.06	1182769	keystroke_i	i	n/a
591.4595	0.045	1182919	keystroke_g	g	n/a
