onset	duration	sample	value	key	prompt_text
4.0235	11.8935	8047	prompt	n/a	the quick brown fox jumps over a lazy dog\n
8.6585	0.1355	17317	keystroke_t	t	n/a
8.7545	0.1035	17509	keystroke_h	h	n/a
8.866	0.1365	17732	keystroke_e	e	n/a
8.954	0.1445	17908	keystroke_Key.space	Key.space	n/a
9.282	0.12	18564	keystroke_q	q	n/a
9.3785	0.119	18757	keystroke_u	u	n/a
9.634	0.0885	19268	keystroke_i	i	n/a
9.746	0.1205	19492	keystroke_c	c	n/a
9.874	0.096	19748	keystroke_k	k	n/a
9.986	0.2085	19972	keystroke_Key.space	Key.space	n/a
10.25	0.089	20500	keystroke_b	b	n/a
10.4025	0.104	20805	keystroke_r	r	n/a
10.522	0.0885	21044	keystroke_o	o	n/a
10.6825	0.0875	21365	keystroke_w	w	n/a
10.802	0.08	21604	keystroke_n	n	n/a
10.874	0.136	21748	keystroke_Key.space	Key.space	n/a
11.2185	0.0875	22437	keystroke_f	f	n/a
11.3385	0.104	22677	keystroke_o	o	n/a
11.474	0.1365	22948	keystroke_x	x	n/a
11.5865	0.144	23173	keystroke_Key.space	Key.space	n/a
11.7305	0.0715	23461	keystroke_j	j	n/a
11.8425	0.104	23685	keystroke_u	u	n/a
12.042	0.1125	24084	keystroke_m	m	n/a
12.2665	0.096	24533	keystroke_p	p	n/a
12.3865	0.184	24773	keystroke_s	s	n/a
12.4825	0.176	24965	keystroke_Key.space	Key.space	n/a
12.6425	0.128	25285	keystroke_o	o	n/a
12.8185	0.095	25637	keystroke_v	v	n/a
13.0505	0.112	26101	keystroke_e	e	n/a
13.0985	0.175	26197	keystroke_r	r	n/a
13.1865	0.1435	26373	keystroke_Key.space	Key.space	n/a
13.354	0.1045	26708	keystroke_a	a	n/a
13.4175	0.1365	26835	keystroke_Key.space	Key.space	n/a
13.5865	0.096	27173	keystroke_l	l	n/a
13.69	0.1195	27380	keystroke_a	a	n/a
14.0025	0.104	28005	keystroke_y	y	n/a
14.3545	0.064	28709	keystroke_Key.backspace	Key.backspace	n/a
14.4745	0.128	28949	keystroke_z	z	n/a
14.682	0.0965	29364	keystroke_y	y	n/a
14.7865	0.1355	29573	keystroke_Key.space	Key.space	n/a
15.251	0.096	30502	keystroke_d	d	n/a
15.33	0.096	30660	keystroke_o	o	n/a
15.506	0.1045	31012	keystroke_g	g	n/a
15.8345	0.079	31669	keystroke_Key.enter	Key.enter	n/a
15.9235	5.2645	31847	prompt	n/a	fill expert buddy theater\n
16.802	0.088	33604	keystroke_f	f	n/a
16.858	0.0645	33716	keystroke_i	i	n/a
17.034	0.072	34068	keystroke_l	l	n/a
17.21	0.0805	34420	keystroke_l	l	n/a
17.234	0.1845	34468	keystroke_Key.space	Key.space	n/a
17.4185	0.0795	34837	keystroke_e	e	n/a
17.69	0.128	35380	keystroke_x	x	n/a
17.826	0.096	35652	keystroke_p	p	n/a
18.0505	0.175	36101	keystroke_e	e	n/a
18.186	0.136	36372	keystroke_r	r	n/a
18.4335	0.096	36867	keystroke_t	t	n/a
18.554	0.1285	37108	keystroke_Key.space	Key.space	n/a
18.706	0.104	37412	keystroke_b	b	n/a
18.858	0.0955	37716	keystroke_u	u	n/a
18.9615	0.065	37923	keystroke_d	d	n/a
19.1135	0.0885	38227	keystroke_d	d	n/a
19.194	0.112	38388	keystroke_y	y	n/a
19.313	0.145	38626	keystroke_Key.space	Key.space	n/a
19.5625	0.128	39125	keystroke_t	t	n/a
19.674	0.1045	39348	keystroke_h	h	n/a
19.786	0.1115	39572	keystroke_e	e	n/a
20.0825	0.064	40165	keystroke_t	t	n/a
20.37	0.088	40740	keystroke_Key.backspace	Key.backspace	n/a
20.474	0.144	40948	keystroke_a	a	n/a
20.594	0.1205	41188	keystroke_t	t	n/a
20.7465	0.1355	41493	keystroke_e	e	n/a
20.85	0.1035	41700	keystroke_r	r	n/a
21.0825	0.103	42165	keystroke_Key.enter	Key.enter	n/a
21.192	6.98	42384	prompt	n/a	seating flooring forgotten echo\n
21.93	0.12	43860	keystroke_s	s	n/a
22.131	0.1675	44262	keystroke_e	e	n/a
22.306	0.1285	44612	keystroke_a	a	n/a
22.458	0.1355	44916	keystroke_t	t	n/a
22.57	0.0645	45140	keystroke_i	i	n/a
22.714	0.12	45428	keystroke_n	n	n/a
22.85	0.12	45700	keystroke_g	g	n/a
22.8895	0.1845	45779	keystroke_Key.space	Key.space	n/a
23.138	0.088	46276	keystroke_f	f	n/a
23.194	0.072	46388	keystroke_l	l	n/a
23.402	0.0485	46804	keystroke_o	o	n/a
23.642	0.1195	47284	keystroke_r	r	n/a
23.874	0.096	47748	keystroke_r	r	n/a
24.2095	0.0725	48419	keystroke_Key.backspace	Key.backspace	n/a
24.362	0.0715	48724	keystroke_Key.backspace	Key.backspace	n/a
24.658	0.088	49316	keystroke_o	o	n/a
24.8585	0.104	49717	keystroke_r	r	n/a
25.0585	0.1035	50117	keystroke_i	i	n/a
25.338	0.0795	50676	keystroke_n	n	n/a
25.41	0.1285	50820	keystroke_g	g	n/a
25.498	0.152	50996	keystroke_Key.space	Key.space	n/a
25.8025	0.1035	51605	keystroke_f	f	n/a
25.9225	0.096	51845	keystroke_o	o	n/a
26.05	0.104	52100	keystroke_r	r	n/a
26.346	0.08	52692	keystroke_g	g	n/a
26.4905	0.064	52981	keystroke_o	o	n/a
26.618	0.096	53236	keystroke_t	t	n/a
26.786	0.1115	53572	keystroke_t	t	n/a
26.9065	0.1195	53813	keystroke_e	e	n/a
27.018	0.104	54036	keystroke_n	n	n/a
27.154	0.1685	54308	keystroke_Key.space	Key.space	n/a
27.394	0.12	54788	keystroke_e	e	n/a
27.602	0.152	55204	keystroke_c	c	n/a
27.674	0.1115	55348	keystroke_h	h	n/a
27.7935	0.104	55587	keystroke_o	o	n/a
28.1055	0.0645	56211	keystroke_Key.enter	Key.enter	n/a
28.1765	5.7635	56353	prompt	n/a	users rosa beat forgotten\n
28.8825	0.1035	57765	keystroke_u	u	n/a
29.034	0.1285	58068	keystroke_s	s	n/a
29.17	0.1515	58340	keystroke_e	e	n/a
29.2495	0.161	58499	keystroke_r	r	n/a
29.3865	0.111	58773	keystroke_s	s	n/a
29.6015	0.112	59203	keystroke_Key.space	Key.space	n/a
29.9055	0.1525	59811	keystroke_r	r	n/a
30.0185	0.135	60037	keystroke_o	o	n/a
30.186	0.088	60372	keystroke_s	s	n/a
30.4265	0.1275	60853	keystroke_a	a	n/a
30.514	0.12	61028	keystroke_Key.space	Key.space	n/a
30.73	0.104	61460	keystroke_b	b	n/a
30.842	0.144	61684	keystroke_e	e	n/a
30.9705	0.1435	61941	keystroke_a	a	n/a
31.1615	0.12	62323	keystroke_t	t	n/a
31.274	0.1355	62548	keystroke_Key.space	Key.space	n/a
31.4505	0.0795	62901	keystroke_f	f	n/a
31.658	0.112	63316	keystroke_r	r	n/a
31.978	0.088	63956	keystroke_Key.backspace	Key.backspace	n/a
32.258	0.088	64516	keystroke_o	o	n/a
32.362	0.0795	64724	keystroke_r	r	n/a
32.626	0.08	65252	keystroke_g	g	n/a
32.754	0.088	65508	keystroke_o	o	n/a
32.89	0.1365	65780	keystroke_t	t	n/a
33.0575	0.1365	66115	keystroke_t	t	n/a
33.4175	0.113	66835	keystroke_e	e	n/a
33.5385	0.104	67077	keystroke_n	n	n/a
33.8505	0.087	67701	keystroke_Key.enter	Key.enter	n/a
33.9445	10.8595	67889	prompt	n/a	announcement mitchell i've copyrighted\n
34.7145	0.079	69429	keystroke_n	n	n/a
35.0095	0.08	70019	keystroke_Key.backspace	Key.backspace	n/a
35.2105	0.088	70421	keystroke_a	a	n/a
35.3535	0.073	70707	keystroke_n	n	n/a
35.514	0.08	71028	keystroke_n	n	n/a
35.674	0.088	71348	keystroke_o	o	n/a
35.842	0.0875	71684	keystroke_u	u	n/a
36.01	0.104	72020	keystroke_n	n	n/a
36.146	0.1435	72292	keystroke_c	c	n/a
36.3865	0.096	72773	keystroke_e	e	n/a
36.747	0.071	73494	keystroke_m	m	n/a
36.922	0.1525	73844	keystroke_e	e	n/a
37.034	0.096	74068	keystroke_n	n	n/a
37.138	0.12	74276	keystroke_t	t	n/a
37.266	0.136	74532	keystroke_Key.space	Key.space	n/a
37.562	0.055	75124	keystroke_n	n	n/a
37.8105	0.096	75621	keystroke_i	i	n/a
37.9615	0.112	75923	keystroke_t	t	n/a
38.698	0.0635	77396	keystroke_Key.backspace	Key.backspace	n/a
38.8575	0.081	77715	keystroke_Key.backspace	Key.backspace	n/a
39.25	0.072	78500	keystroke_Key.backspace	Key.backspace	n/a
39.562	0.096	79124	keystroke_m	m	n/a
39.722	0.096	79444	keystroke_i	i	n/a
39.834	0.12	79668	keystroke_t	t	n/a
40.138	0.1285	80276	keystroke_c	c	n/a
40.2185	0.088	80437	keystroke_h	h	n/a
40.402	0.096	80804	keystroke_e	e	n/a
40.506	0.0725	81012	keystroke_l	l	n/a
40.682	0.088	81364	keystroke_l	l	n/a
40.898	0.136	81796	keystroke_Key.space	Key.space	n/a
41.3375	0.096	82675	keystroke_i	i	n/a
42.034	0.096	84068	keystroke_'	'	n/a
42.178	0.12	84356	keystroke_v	v	n/a
42.29	0.1445	84580	keystroke_e	e	n/a
42.4255	0.176	84851	keystroke_Key.space	Key.space	n/a
42.6495	0.137	85299	keystroke_c	c	n/a
42.6975	0.097	85395	keystroke_o	o	n/a
42.898	0.096	85796	keystroke_p	p	n/a
43.1775	0.112	86355	keystroke_y	y	n/a
43.6655	0.1125	87331	keystroke_r	r	n/a
43.802	0.112	87604	keystroke_i	i	n/a
43.9295	0.1125	87859	keystroke_g	g	n/a
44.034	0.104	88068	keystroke_h	h	n/a
44.17	0.128	88340	keystroke_t	t	n/a
44.298	0.1765	88596	keystroke_e	e	n/a
44.458	0.1125	88916	keystroke_d	d	n/a
44.705	0.097	89410	keystroke_Key.enter	Key.enter	n/a
44.814	6.358	89628	prompt	n/a	sanyo plates operating different\n
45.6105	0.12	91221	keystroke_s	s	n/a
45.761	0.1295	91522	keystroke_a	a	n/a
45.906	0.08	91812	keystroke_n	n	n/a
46.09	0.0885	92180	keystroke_y	y	n/a
46.3535	0.104	92707	keystroke_o	o	n/a
46.6975	0.1765	93395	keystroke_Key.space	Key.space	n/a
46.914	0.232	93828	keystroke_p	p	n/a
47.138	0.152	94276	keystroke_l	l	n/a
47.298	0.072	94596	keystroke_a	a	n/a
47.458	0.1605	94916	keystroke_t	t	n/a
47.5305	0.1755	95061	keystroke_e	e	n/a
47.642	0.144	95284	keystroke_s	s	n/a
47.762	0.168	95524	keystroke_Key.space	Key.space	n/a
48.1295	0.1925	96259	keystroke_o	o	n/a
48.2585	0.144	96517	keystroke_p	p	n/a
48.3695	0.1445	96739	keystroke_e	e	n/a
48.4655	0.1605	96931	keystroke_r	r	n/a
48.69	0.1195	97380	keystroke_a	a	n/a
48.89	0.1195	97780	keystroke_t	t	n/a
49.0175	0.104	98035	keystroke_i	i	n/a
49.25	0.1035	98500	keystroke_n	n	n/a
49.362	0.152	98724	keystroke_g	g	n/a
49.4815	0.1525	98963	keystroke_Key.space	Key.space	n/a
49.714	0.064	99428	keystroke_d	d	n/a
49.794	0.0635	99588	keystroke_i	i	n/a
50.13	0.1115	100260	keystroke_f	f	n/a
50.3465	0.087	100693	keystroke_f	f	n/a
50.4815	0.16	100963	keystroke_e	e	n/a
50.602	0.104	101204	keystroke_r	r	n/a
50.714	0.104	101428	keystroke_n	n	n/a
50.8575	0.145	101715	keystroke_t	t	n/a
51.0975	0.072	102195	keystroke_Key.enter	Key.enter	n/a
51.1795	7.633	102359	prompt	n/a	swap related cord catholic\n
52.5145	0.111	105029	keystroke_s	s	n/a
52.85	0.1765	105700	keystroke_w	w	n/a
52.97	0.1605	105940	keystroke_a	a	n/a
53.1305	0.1115	106261	keystroke_p	p	n/a
53.338	0.16	106676	keystroke_Key.space	Key.space	n/a
53.49	0.1685	106980	keystroke_r	r	n/a
53.602	0.1445	107204	keystroke_e	e	n/a
53.7625	0.103	107525	keystroke_l	l	n/a
53.9225	0.1195	107845	keystroke_a	a	n/a
54.114	0.12	108228	keystroke_t	t	n/a
54.2425	0.1835	108485	keystroke_e	e	n/a
54.442	0.136	108884	keystroke_Key.space	Key.space	n/a
54.762	0.08	109524	keystroke_=	=	n/a
54.9305	0.104	109861	keystroke_d	d	n/a
55.098	0.072	110196	keystroke_Key.backspace	Key.backspace	n/a
55.258	0.056	110516	keystroke_Key.backspace	Key.backspace	n/a
55.41	0.08	110820	keystroke_Key.backspace	Key.backspace	n/a
55.554	0.096	111108	keystroke_d	d	n/a
55.674	0.136	111348	keystroke_Key.space	Key.space	n/a
55.8345	0.1195	111669	keystroke_c	c	n/a
55.938	0.1115	111876	keystroke_o	o	n/a
56.1295	0.096	112259	keystroke_r	r	n/a
56.378	0.096	112756	keystroke_d	d	n/a
56.466	0.12	112932	keystroke_Key.space	Key.space	n/a
56.914	0.12	113828	keystroke_c	c	n/a
57.098	0.0965	114196	keystroke_a	a	n/a
57.394	0.112	114788	keystroke_t	t	n/a
57.466	0.1045	114932	keystroke_h	h	n/a
57.7545	0.0875	115509	keystroke_o	o	n/a
58.146	0.088	116292	keystroke_l	l	n/a
58.306	0.1045	116612	keystroke_i	i	n/a
58.4105	0.152	116821	keystroke_c	c	n/a
58.7455	0.064	117491	keystroke_Key.enter	Key.enter	n/a
58.817	6.891	117634	prompt	n/a	nationally wellness benchmark italian\n
59.5305	0.1035	119061	keystroke_n	n	n/a
59.682	0.136	119364	keystroke_a	a	n/a
59.898	0.128	119796	keystroke_t	t	n/a
60.018	0.1355	120036	keystroke_i	i	n/a
60.114	0.104	120228	keystroke_o	o	n/a
60.274	0.104	120548	keystroke_n	n	n/a
60.4175	0.088	120835	keystroke_a	a	n/a
60.4975	0.0885	120995	keystroke_l	l	n/a
60.666	0.088	121332	keystroke_l	l	n/a
60.89	0.12	121780	keystroke_y	y	n/a
61.026	0.1435	122052	keystroke_Key.space	Key.space	n/a
61.1855	0.112	122371	keystroke_w	w	n/a
61.394	0.1195	122788	keystroke_e	e	n/a
61.5065	0.071	123013	keystroke_l	l	n/a
61.6815	0.056	123363	keystroke_l	l	n/a
61.874	0.112	123748	keystroke_n	n	n/a
61.9625	0.1515	123925	keystroke_e	e	n/a
62.0575	0.112	124115	keystroke_s	s	n/a
62.25	0.1115	124500	keystroke_s	s	n/a
62.33	0.1355	124660	keystroke_Key.space	Key.space	n/a
62.4985	0.103	124997	keystroke_b	b	n/a
62.642	0.152	125284	keystroke_e	e	n/a
62.7775	0.0725	125555	keystroke_n	n	n/a
62.938	0.128	125876	keystroke_c	c	n/a
63.042	0.056	126084	keystroke_h	h	n/a
63.4505	0.1035	126901	keystroke_m	m	n/a
63.5865	0.119	127173	keystroke_a	a	n/a
63.698	0.128	127396	keystroke_r	r	n/a
63.794	0.1115	127588	keystroke_k	k	n/a
63.8975	0.1605	127795	keystroke_Key.space	Key.space	n/a
64.098	0.096	128196	keystroke_i	i	n/a
64.258	0.128	128516	keystroke_t	t	n/a
64.49	0.104	128980	keystroke_a	a	n/a
64.578	0.095	129156	keystroke_l	l	n/a
64.705	0.097	129410	keystroke_i	i	n/a
65.0255	0.128	130051	keystroke_a	a	n/a
65.1135	0.1045	130227	keystroke_n	n	n/a
65.6175	0.088	131235	keystroke_Key.enter	Key.enter	n/a
65.7125	6.2985	131425	prompt	n/a	identity section shapes achieve\n
66.3455	0.0965	132691	keystroke_i	i	n/a
66.522	0.104	133044	keystroke_d	d	n/a
66.594	0.176	133188	keystroke_e	e	n/a
66.7385	0.104	133477	keystroke_n	n	n/a
66.8585	0.104	133717	keystroke_t	t	n/a
66.9855	0.081	133971	keystroke_i	i	n/a
67.1215	0.121	134243	keystroke_t	t	n/a
67.2495	0.1045	134499	keystroke_y	y	n/a
67.378	0.136	134756	keystroke_Key.space	Key.space	n/a
67.682	0.088	135364	keystroke_s	s	n/a
67.874	0.112	135748	keystroke_e	e	n/a
68.082	0.104	136164	keystroke_c	c	n/a
68.354	0.104	136708	keystroke_t	t	n/a
68.41	0.104	136820	keystroke_i	i	n/a
68.474	0.104	136948	keystroke_o	o	n/a
68.626	0.112	137252	keystroke_n	n	n/a
68.698	0.16	137396	keystroke_Key.space	Key.space	n/a
68.946	0.112	137892	keystroke_s	s	n/a
69.05	0.096	138100	keystroke_h	h	n/a
69.202	0.104	138404	keystroke_a	a	n/a
69.322	0.112	138644	keystroke_p	p	n/a
69.418	0.216	138836	keystroke_e	e	n/a
69.554	0.16	139108	keystroke_s	s	n/a
69.6975	0.152	139395	keystroke_Key.space	Key.space	n/a
69.8415	0.048	139683	keystroke_s	s	n/a
70.169	0.081	140338	keystroke_Key.backspace	Key.backspace	n/a
70.29	0.112	140580	keystroke_a	a	n/a
70.818	0.112	141636	keystroke_c	c	n/a
70.905	0.121	141810	keystroke_h	h	n/a
71.01	0.128	142020	keystroke_i	i	n/a
71.146	0.144	142292	keystroke_e	e	n/a
71.522	0.12	143044	keystroke_v	v	n/a
71.658	0.16	143316	keystroke_e	e	n/a
71.914	0.0955	143828	keystroke_Key.enter	Key.enter	n/a
72.0225	7.2855	144045	prompt	n/a	includes criteria johnson genius\n
72.5465	0.095	145093	keystroke_i	i	n/a
72.738	0.095	145476	keystroke_n	n	n/a
72.858	0.12	145716	keystroke_c	c	n/a
72.954	0.088	145908	keystroke_l	l	n/a
73.17	0.088	146340	keystroke_u	u	n/a
73.322	0.111	146644	keystroke_d	d	n/a
73.362	0.184	146724	keystroke_e	e	n/a
73.458	0.184	146916	keystroke_s	s	n/a
73.609	0.1525	147218	keystroke_Key.space	Key.space	n/a
73.818	0.104	147636	keystroke_c	c	n/a
74.098	0.104	148196	keystroke_r	r	n/a
74.217	0.1045	148434	keystroke_i	i	n/a
74.426	0.127	148852	keystroke_t	t	n/a
74.761	0.112	149522	keystroke_e	e	n/a
74.8175	0.1845	149635	keystroke_r	r	n/a
75.05	0.112	150100	keystroke_i	i	n/a
75.185	0.12	150370	keystroke_a	a	n/a
75.297	0.12	150594	keystroke_Key.space	Key.space	n/a
75.6735	0.112	151347	keystroke_j	j	n/a
75.8095	0.088	151619	keystroke_o	o	n/a
76.258	0.088	152516	keystroke_h	h	n/a
76.4655	0.0725	152931	keystroke_n	n	n/a
76.6895	0.1125	153379	keystroke_s	s	n/a
76.77	0.08	153540	keystroke_o	o	n/a
76.9295	0.1125	153859	keystroke_n	n	n/a
77.0495	0.128	154099	keystroke_Key.space	Key.space	n/a
77.5695	0.112	155139	keystroke_g	g	n/a
77.7465	0.135	155493	keystroke_e	e	n/a
77.8575	0.088	155715	keystroke_n	n	n/a
78.13	0.08	156260	keystroke_i	i	n/a
78.3455	0.0725	156691	keystroke_u	u	n/a
78.482	0.0635	156964	keystroke_s	s	n/a
79.2175	0.088	158435	keystroke_Key.enter	Key.enter	n/a
79.3115	8.124	158623	prompt	n/a	investigators spencer important viewpicture\n
80.0175	0.0805	160035	keystroke_i	i	n/a
80.1935	0.12	160387	keystroke_n	n	n/a
80.337	0.1445	160674	keystroke_v	v	n/a
80.4735	0.2	160947	keystroke_e	e	n/a
80.6175	0.176	161235	keystroke_s	s	n/a
80.7775	0.1605	161555	keystroke_t	t	n/a
80.93	0.12	161860	keystroke_i	i	n/a
81.1135	0.1115	162227	keystroke_g	g	n/a
81.337	0.112	162674	keystroke_a	a	n/a
81.4575	0.1435	162915	keystroke_t	t	n/a
81.593	0.0965	163186	keystroke_o	o	n/a
81.73	0.127	163460	keystroke_r	r	n/a
81.898	0.1435	163796	keystroke_s	s	n/a
82.0335	0.1285	164067	keystroke_Key.space	Key.space	n/a
82.21	0.056	164420	keystroke_s	s	n/a
82.3935	0.096	164787	keystroke_p	p	n/a
82.5375	0.1205	165075	keystroke_e	e	n/a
82.738	0.1035	165476	keystroke_n	n	n/a
82.8655	0.1365	165731	keystroke_c	c	n/a
82.9775	0.136	165955	keystroke_e	e	n/a
83.322	0.152	166644	keystroke_r	r	n/a
83.4975	0.12	166995	keystroke_Key.space	Key.space	n/a
83.6655	0.096	167331	keystroke_i	i	n/a
83.8495	0.096	167699	keystroke_m	m	n/a
84.0815	0.088	168163	keystroke_p	p	n/a
84.1455	0.12	168291	keystroke_o	o	n/a
84.2575	0.128	168515	keystroke_r	r	n/a
84.474	0.12	168948	keystroke_t	t	n/a
84.8015	0.136	169603	keystroke_a	a	n/a
84.922	0.1115	169844	keystroke_n	n	n/a
85.026	0.1115	170052	keystroke_t	t	n/a
85.2575	0.136	170515	keystroke_Key.space	Key.space	n/a
85.6495	0.096	171299	keystroke_v	v	n/a
85.7535	0.0965	171507	keystroke_i	i	n/a
85.882	0.1595	171764	keystroke_e	e	n/a
85.986	0.1595	171972	keystroke_w	w	n/a
86.2415	0.0885	172483	keystroke_p	p	n/a
86.4735	0.096	172947	keystroke_i	i	n/a
86.5935	0.128	173187	keystroke_c	c	n/a
86.866	0.0875	173732	keystroke_t	t	n/a
86.938	0.0795	173876	keystroke_u	u	n/a
87.0735	0.104	174147	keystroke_r	r	n/a
87.121	0.152	174242	keystroke_e	e	n/a
87.3535	0.0795	174707	keystroke_Key.enter	Key.enter	n/a
87.4405	6.4025	174881	prompt	n/a	workshops behalf optimize ratio\n
88.1695	0.16	176339	keystroke_w	w	n/a
88.3055	0.064	176611	keystroke_o	o	n/a
88.4415	0.104	176883	keystroke_r	r	n/a
88.506	0.1115	177012	keystroke_k	k	n/a
88.7055	0.16	177411	keystroke_s	s	n/a
88.8415	0.104	177683	keystroke_h	h	n/a
89.1055	0.12	178211	keystroke_o	o	n/a
89.1855	0.1285	178371	keystroke_p	p	n/a
89.2735	0.1445	178547	keystroke_s	s	n/a
89.4335	0.1365	178867	keystroke_Key.space	Key.space	n/a
89.674	0.087	179348	keystroke_b	b	n/a
89.786	0.119	179572	keystroke_e	e	n/a
89.914	0.104	179828	keystroke_h	h	n/a
90.154	0.12	180308	keystroke_a	a	n/a
90.354	0.104	180708	keystroke_l	l	n/a
90.465	0.104	180930	keystroke_f	f	n/a
90.6175	0.168	181235	keystroke_Key.space	Key.space	n/a
91.033	0.1925	182066	keystroke_o	o	n/a
91.1695	0.1365	182339	keystroke_p	p	n/a
91.3375	0.1355	182675	keystroke_t	t	n/a
91.5055	0.0795	183011	keystroke_i	i	n/a
91.689	0.1205	183378	keystroke_m	m	n/a
91.7855	0.104	183571	keystroke_i	i	n/a
92.0095	0.152	184019	keystroke_z	z	n/a
92.1855	0.1605	184371	keystroke_e	e	n/a
92.785	0.168	185570	keystroke_Key.space	Key.space	n/a
92.977	0.1445	185954	keystroke_r	r	n/a
93.122	0.1115	186244	keystroke_a	a	n/a
93.3055	0.12	186611	keystroke_t	t	n/a
93.3775	0.104	186755	keystroke_i	i	n/a
93.4575	0.0805	186915	keystroke_o	o	n/a
93.7615	0.08	187523	keystroke_Key.enter	Key.enter	n/a
93.849	6.738	187698	prompt	n/a	blacks micro wireless optimization\n
94.5295	0.1205	189059	keystroke_b	b	n/a
94.897	0.072	189794	keystroke_l	l	n/a
94.978	0.0875	189956	keystroke_a	a	n/a
95.177	0.1365	190354	keystroke_c	c	n/a
95.2575	0.088	190515	keystroke_k	k	n/a
95.3615	0.1515	190723	keystroke_s	s	n/a
95.4655	0.176	190931	keystroke_Key.space	Key.space	n/a
95.658	0.0715	191316	keystroke_m	m	n/a
95.9615	0.1435	191923	keystroke_i	i	n/a
96.114	0.1355	192228	keystroke_c	c	n/a
96.3935	0.096	192787	keystroke_r	r	n/a
96.4975	0.096	192995	keystroke_o	o	n/a
96.6255	0.152	193251	keystroke_Key.space	Key.space	n/a
97.017	0.169	194034	keystroke_w	w	n/a
97.194	0.1035	194388	keystroke_i	i	n/a
97.3055	0.144	194611	keystroke_r	r	n/a
97.4255	0.1605	194851	keystroke_e	e	n/a
97.6575	0.08	195315	keystroke_l	l	n/a
97.826	0.1835	195652	keystroke_e	e	n/a
97.9855	0.111	195971	keystroke_s	s	n/a
98.1775	0.128	196355	keystroke_s	s	n/a
98.2655	0.136	196531	keystroke_Key.space	Key.space	n/a
98.4415	0.176	196883	keystroke_o	o	n/a
98.562	0.1435	197124	keystroke_p	p	n/a
98.8895	0.12	197779	keystroke_t	t	n/a
98.9855	0.103	197971	keystroke_i	i	n/a
99.161	0.1045	198322	keystroke_m	m	n/a
99.2245	0.145	198449	keystroke_i	i	n/a
99.434	0.1115	198868	keystroke_z	z	n/a
99.6885	0.097	199377	keystroke_a	a	n/a
99.8575	0.135	199715	keystroke_t	t	n/a
99.913	0.1285	199826	keystroke_i	i	n/a
99.9935	0.1205	199987	keystroke_o	o	n/a
100.1215	0.1205	200243	keystroke_n	n	n/a
100.505	0.08	201010	keystroke_Key.enter	Key.enter	n/a
100.592	5.8105	201184	prompt	n/a	pick extreme anywhere fist\n
101.242	0.103	202484	keystroke_p	p	n/a
101.4575	0.088	202915	keystroke_i	i	n/a
101.929	0.1285	203858	keystroke_c	c	n/a
102.0175	0.088	204035	keystroke_k	k	n/a
102.1375	0.1515	204275	keystroke_Key.space	Key.space	n/a
102.297	0.137	204594	keystroke_e	e	n/a
102.7615	0.1195	205523	keystroke_x	x	n/a
102.9935	0.12	205987	keystroke_t	t	n/a
103.2415	0.1195	206483	keystroke_r	r	n/a
103.289	0.1445	206578	keystroke_e	e	n/a
103.4815	0.0795	206963	keystroke_m	m	n/a
103.5375	0.1035	207075	keystroke_e	e	n/a
103.761	0.168	207522	keystroke_Key.space	Key.space	n/a
104.353	0.1205	208706	keystroke_a	a	n/a
104.409	0.0885	208818	keystroke_n	n	n/a
104.561	0.104	209122	keystroke_y	y	n/a
104.762	0.1275	209524	keystroke_w	w	n/a
105.1055	0.104	210211	keystroke_h	h	n/a
105.2015	0.111	210403	keystroke_e	e	n/a
105.3375	0.1195	210675	keystroke_r	r	n/a
105.409	0.137	210818	keystroke_e	e	n/a
105.546	0.1275	211092	keystroke_Key.space	Key.space	n/a
105.7295	0.096	211459	keystroke_f	f	n/a
105.7935	0.088	211587	keystroke_i	i	n/a
105.9215	0.128	211843	keystroke_s	s	n/a
106.018	0.1355	212036	keystroke_t	t	n/a
106.289	0.1115	212578	keystroke_Key.enter	Key.enter	n/a
106.406	5.7485	212812	prompt	n/a	ways niagara diseases chance\n
107.081	0.1675	214162	keystroke_w	w	n/a
107.2335	0.095	214467	keystroke_a	a	n/a
107.3375	0.112	214675	keystroke_y	y	n/a
107.4415	0.1115	214883	keystroke_s	s	n/a
107.5605	0.1525	215121	keystroke_Key.space	Key.space	n/a
107.6975	0.127	215395	keystroke_n	n	n/a
107.8975	0.112	215795	keystroke_i	i	n/a
108.0015	0.0635	216003	keystroke_a	a	n/a
108.2335	0.104	216467	keystroke_g	g	n/a
108.449	0.1365	216898	keystroke_a	a	n/a
108.5535	0.1205	217107	keystroke_r	r	n/a
108.6495	0.103	217299	keystroke_a	a	n/a
108.977	0.104	217954	keystroke_Key.space	Key.space	n/a
109.345	0.12	218690	keystroke_d	d	n/a
109.4735	0.096	218947	keystroke_i	i	n/a
109.585	0.097	219170	keystroke_s	s	n/a
109.8415	0.152	219683	keystroke_e	e	n/a
110.1215	0.119	220243	keystroke_a	a	n/a
110.1855	0.104	220371	keystroke_s	s	n/a
110.4015	0.103	220803	keystroke_e	e	n/a
110.497	0.1365	220994	keystroke_s	s	n/a
110.801	0.1275	221602	keystroke_Key.space	Key.space	n/a
111.1215	0.1045	222243	keystroke_c	c	n/a
111.3055	0.0955	222611	keystroke_h	h	n/a
111.457	0.1285	222914	keystroke_a	a	n/a
111.5775	0.072	223155	keystroke_n	n	n/a
111.7935	0.1035	223587	keystroke_c	c	n/a
111.8495	0.1115	223699	keystroke_e	e	n/a
112.065	0.088	224130	keystroke_Key.enter	Key.enter	n/a
112.1585	5.7565	224317	prompt	n/a	miles highland software schema\n
112.889	0.1045	225778	keystroke_m	m	n/a
113.001	0.176	226002	keystroke_i	i	n/a
113.129	0.1365	226258	keystroke_l	l	n/a
113.241	0.1515	226482	keystroke_e	e	n/a
113.313	0.144	226626	keystroke_s	s	n/a
113.4405	0.152	226881	keystroke_Key.space	Key.space	n/a
113.7935	0.0875	227587	keystroke_h	h	n/a
113.937	0.112	227874	keystroke_i	i	n/a
114.0975	0.12	228195	keystroke_g	g	n/a
114.145	0.088	228290	keystroke_h	h	n/a
114.313	0.104	228626	keystroke_l	l	n/a
114.489	0.128	228978	keystroke_a	a	n/a
114.601	0.0965	229202	keystroke_n	n	n/a
114.7215	0.104	229443	keystroke_d	d	n/a
114.801	0.12	229602	keystroke_Key.space	Key.space	n/a
115.089	0.136	230178	keystroke_s	s	n/a
115.1935	0.0875	230387	keystroke_o	o	n/a
115.401	0.088	230802	keystroke_f	f	n/a
115.6255	0.1435	231251	keystroke_t	t	n/a
116.041	0.1765	232082	keystroke_w	w	n/a
116.2805	0.089	232561	keystroke_a	a	n/a
116.3605	0.129	232721	keystroke_r	r	n/a
116.4735	0.128	232947	keystroke_e	e	n/a
116.6255	0.103	233251	keystroke_Key.space	Key.space	n/a
116.8575	0.127	233715	keystroke_s	s	n/a
117.0895	0.104	234179	keystroke_c	c	n/a
117.1365	0.097	234273	keystroke_h	h	n/a
117.2735	0.12	234547	keystroke_e	e	n/a
117.4095	0.079	234819	keystroke_m	m	n/a
117.505	0.136	235010	keystroke_a	a	n/a
117.833	0.0795	235666	keystroke_Key.enter	Key.enter	n/a
117.922	7.1045	235844	prompt	n/a	istanbul oscar account choice\n
118.513	0.0885	237026	keystroke_i	i	n/a
118.6485	0.1125	237297	keystroke_s	s	n/a
118.833	0.1355	237666	keystroke_t	t	n/a
119.001	0.1195	238002	keystroke_a	a	n/a
119.0885	0.088	238177	keystroke_n	n	n/a
119.305	0.0875	238610	keystroke_b	b	n/a
119.4565	0.105	238913	keystroke_u	u	n/a
119.6815	0.112	239363	keystroke_l	l	n/a
119.8005	0.136	239601	keystroke_Key.space	Key.space	n/a
119.969	0.1045	239938	keystroke_o	o	n/a
120.049	0.096	240098	keystroke_s	s	n/a
120.289	0.128	240578	keystroke_c	c	n/a
120.473	0.1525	240946	keystroke_a	a	n/a
120.5845	0.129	241169	keystroke_r	r	n/a
120.7135	0.143	241427	keystroke_Key.space	Key.space	n/a
120.9045	0.0895	241809	keystroke_a	a	n/a
121.129	0.064	242258	keystroke_c	c	n/a
121.281	0.096	242562	keystroke_c	c	n/a
121.401	0.064	242802	keystroke_o	o	n/a
121.529	0.096	243058	keystroke_u	u	n/a
121.657	0.1205	243314	keystroke_n	n	n/a
121.7375	0.1275	243475	keystroke_t	t	n/a
121.841	0.16	243682	keystroke_Key.space	Key.space	n/a
122.073	0.088	244146	keystroke_c	c	n/a
122.1125	0.032	244225	keystroke_Key.space	Key.space	n/a
122.817	0.04	245634	keystroke_Key.backspace	Key.backspace	n/a
123.369	0.112	246738	keystroke_h	h	n/a
123.529	0.112	247058	keystroke_o	o	n/a
123.593	0.1115	247186	keystroke_i	i	n/a
123.761	0.136	247522	keystroke_c	c	n/a
123.857	0.144	247714	keystroke_e	e	n/a
123.961	0.096	247922	keystroke_s	s	n/a
124.6725	0.08	249345	keystroke_Key.backspace	Key.backspace	n/a
124.9525	0.072	249905	keystroke_Key.enter	Key.enter	n/a
125.032	6.1865	250064	prompt	n/a	infected quotations latex tent\n
125.729	0.088	251458	keystroke_i	i	n/a
125.929	0.12	251858	keystroke_n	n	n/a
126.0415	0.087	252083	keystroke_f	f	n/a
126.1365	0.168	252273	keystroke_e	e	n/a
126.329	0.079	252658	keystroke_c	c	n/a
126.569	0.112	253138	keystroke_t	t	n/a
126.665	0.193	253330	keystroke_e	e	n/a
126.825	0.128	253650	keystroke_d	d	n/a
127.0405	0.1275	254081	keystroke_Key.space	Key.space	n/a
127.289	0.1435	254578	keystroke_q	q	n/a
127.393	0.112	254786	keystroke_u	u	n/a
127.705	0.088	255410	keystroke_o	o	n/a
127.849	0.151	255698	keystroke_t	t	n/a
128.073	0.1125	256146	keystroke_a	a	n/a
128.1935	0.1035	256387	keystroke_t	t	n/a
128.281	0.12	256562	keystroke_i	i	n/a
128.377	0.064	256754	keystroke_o	o	n/a
128.497	0.1125	256994	keystroke_n	n	n/a
128.6255	0.1035	257251	keystroke_s	s	n/a
128.721	0.159	257442	keystroke_Key.space	Key.space	n/a
129.0085	0.096	258017	keystroke_l	l	n/a
129.097	0.0555	258194	keystroke_a	a	n/a
129.3685	0.1685	258737	keystroke_t	t	n/a
129.6885	0.104	259377	keystroke_e	e	n/a
129.9605	0.1045	259921	keystroke_x	x	n/a
130.185	0.144	260370	keystroke_Key.space	Key.space	n/a
130.3365	0.1365	260673	keystroke_t	t	n/a
130.481	0.12	260962	keystroke_e	e	n/a
130.609	0.08	261218	keystroke_n	n	n/a
130.713	0.144	261426	keystroke_t	t	n/a
131.137	0.0795	262274	keystroke_Key.enter	Key.enter	n/a
131.223	6.555	262446	prompt	n/a	classroom thanksgiving who've mask\n
131.8885	0.16	263777	keystroke_c	c	n/a
131.9925	0.1045	263985	keystroke_l	l	n/a
132.137	0.12	264274	keystroke_a	a	n/a
132.289	0.0955	264578	keystroke_s	s	n/a
132.5525	0.064	265105	keystroke_s	s	n/a
132.8005	0.1205	265601	keystroke_r	r	n/a
132.9125	0.048	265825	keystroke_o	o	n/a
133.0725	0.0725	266145	keystroke_o	o	n/a
133.249	0.0955	266498	keystroke_m	m	n/a
133.377	0.1355	266754	keystroke_Key.space	Key.space	n/a
133.537	0.1115	267074	keystroke_t	t	n/a
133.697	0.096	267394	keystroke_h	h	n/a
133.825	0.088	267650	keystroke_a	a	n/a
133.9925	0.08	267985	keystroke_n	n	n/a
134.1525	0.112	268305	keystroke_k	k	n/a
134.273	0.0955	268546	keystroke_s	s	n/a
134.5685	0.089	269137	keystroke_g	g	n/a
134.681	0.112	269362	keystroke_i	i	n/a
134.857	0.0795	269714	keystroke_v	v	n/a
134.913	0.0795	269826	keystroke_i	i	n/a
135.0815	0.1115	270163	keystroke_n	n	n/a
135.1695	0.1115	270339	keystroke_g	g	n/a
135.2645	0.128	270529	keystroke_Key.space	Key.space	n/a
135.6085	0.144	271217	keystroke_w	w	n/a
135.697	0.088	271394	keystroke_h	h	n/a
135.8565	0.088	271713	keystroke_o	o	n/a
136.145	0.056	272290	keystroke_'	'	n/a
136.249	0.128	272498	keystroke_v	v	n/a
136.449	0.112	272898	keystroke_e	e	n/a
136.608	0.1365	273216	keystroke_Key.space	Key.space	n/a
137.105	0.1035	274210	keystroke_m	m	n/a
137.1925	0.112	274385	keystroke_a	a	n/a
137.2885	0.104	274577	keystroke_s	s	n/a
137.3525	0.104	274705	keystroke_k	k	n/a
137.697	0.0795	275394	keystroke_Key.enter	Key.enter	n/a
137.782	9.2125	275564	prompt	n/a	knights answers conferences roommates\n
138.521	0.088	277042	keystroke_k	k	n/a
138.849	0.1035	277698	keystroke_n	n	n/a
139.12	0.113	278240	keystroke_i	i	n/a
139.24	0.1045	278480	keystroke_g	g	n/a
139.3605	0.104	278721	keystroke_h	h	n/a
139.4805	0.1285	278961	keystroke_t	t	n/a
139.5925	0.1045	279185	keystroke_s	s	n/a
139.681	0.136	279362	keystroke_Key.space	Key.space	n/a
140.1925	0.089	280385	keystroke_n	n	n/a
140.2565	0.104	280513	keystroke_a	a	n/a
140.7605	0.0965	281521	keystroke_Key.backspace	Key.backspace	n/a
141.136	0.088	282272	keystroke_Key.backspace	Key.backspace	n/a
141.281	0.095	282562	keystroke_a	a	n/a
141.48	0.121	282960	keystroke_n	n	n/a
141.608	0.0895	283216	keystroke_s	s	n/a
141.857	0.104	283714	keystroke_w	w	n/a
142.0805	0.1525	284161	keystroke_e	e	n/a
142.193	0.12	284386	keystroke_r	r	n/a
142.273	0.168	284546	keystroke_s	s	n/a
142.704	0.136	285408	keystroke_Key.space	Key.space	n/a
142.921	0.119	285842	keystroke_c	c	n/a
143.032	0.057	286064	keystroke_o	o	n/a
143.201	0.12	286402	keystroke_n	n	n/a
143.313	0.08	286626	keystroke_f	f	n/a
143.529	0.12	287058	keystroke_e	e	n/a
143.6405	0.1355	287281	keystroke_r	r	n/a
143.736	0.136	287472	keystroke_e	e	n/a
143.8965	0.1035	287793	keystroke_n	n	n/a
144.0405	0.144	288081	keystroke_c	c	n/a
144.088	0.1685	288176	keystroke_e	e	n/a
144.2005	0.152	288401	keystroke_s	s	n/a
144.3535	0.127	288707	keystroke_Key.space	Key.space	n/a
144.5285	0.0565	289057	keystroke_c	c	n/a
144.8245	0.0875	289649	keystroke_Key.backspace	Key.backspace	n/a
145.041	0.112	290082	keystroke_r	r	n/a
145.1695	0.087	290339	keystroke_o	o	n/a
145.3525	0.0725	290705	keystroke_o	o	n/a
145.545	0.1115	291090	keystroke_m	m	n/a
146.049	0.095	292098	keystroke_m	m	n/a
146.177	0.12	292354	keystroke_a	a	n/a
146.353	0.128	292706	keystroke_t	t	n/a
146.416	0.1685	292832	keystroke_e	e	n/a
146.537	0.1275	293074	keystroke_s	s	n/a
146.9205	0.072	293841	keystroke_Key.enter	Key.enter	n/a
146.9985	6.4605	293997	prompt	n/a	service policy wood embedded\n
147.5605	0.1205	295121	keystroke_s	s	n/a
147.705	0.136	295410	keystroke_e	e	n/a
147.784	0.136	295568	keystroke_r	r	n/a
148.1365	0.064	296273	keystroke_v	v	n/a
148.2245	0.088	296449	keystroke_i	i	n/a
148.3845	0.104	296769	keystroke_c	c	n/a
148.4485	0.1285	296897	keystroke_e	e	n/a
148.6165	0.152	297233	keystroke_Key.space	Key.space	n/a
148.9845	0.088	297969	keystroke_p	p	n/a
149.1205	0.0965	298241	keystroke_o	o	n/a
149.344	0.081	298688	keystroke_l	l	n/a
149.6	0.0965	299200	keystroke_i	i	n/a
149.7765	0.0875	299553	keystroke_c	c	n/a
149.8885	0.12	299777	keystroke_y	y	n/a
150.1125	0.0955	300225	keystroke_Key.space	Key.space	n/a
150.272	0.1445	300544	keystroke_w	w	n/a
150.361	0.0795	300722	keystroke_o	o	n/a
150.5365	0.088	301073	keystroke_o	o	n/a
151.0165	0.088	302033	keystroke_d	d	n/a
151.1365	0.096	302273	keystroke_Key.space	Key.space	n/a
151.3845	0.112	302769	keystroke_e	e	n/a
151.5445	0.104	303089	keystroke_m	m	n/a
151.8325	0.096	303665	keystroke_b	b	n/a
151.9365	0.096	303873	keystroke_e	e	n/a
152.3525	0.1115	304705	keystroke_d	d	n/a
152.577	0.079	305154	keystroke_d	d	n/a
152.6805	0.1355	305361	keystroke_e	e	n/a
152.808	0.112	305616	keystroke_d	d	n/a
153.368	0.0885	306736	keystroke_Key.enter	Key.enter	n/a
153.463	8.283	306926	prompt	n/a	replied proceed modifications robert\n
154.0725	0.1035	308145	keystroke_r	r	n/a
154.184	0.096	308368	keystroke_e	e	n/a
154.417	0.095	308834	keystroke_p	p	n/a
154.5845	0.12	309169	keystroke_l	l	n/a
154.832	0.0885	309664	keystroke_i	i	n/a
155.0725	0.1515	310145	keystroke_e	e	n/a
155.184	0.128	310368	keystroke_d	d	n/a
155.296	0.128	310592	keystroke_Key.space	Key.space	n/a
155.817	0.0955	311634	keystroke_p	p	n/a
155.9285	0.104	311857	keystroke_r	r	n/a
156.0485	0.096	312097	keystroke_o	o	n/a
156.4245	0.12	312849	keystroke_c	c	n/a
156.5845	0.16	313169	keystroke_e	e	n/a
156.841	0.16	313682	keystroke_e	e	n/a
157.0085	0.112	314017	keystroke_d	d	n/a
157.0725	0.1275	314145	keystroke_Key.space	Key.space	n/a
157.313	0.071	314626	keystroke_m	m	n/a
157.577	0.1195	315154	keystroke_d	d	n/a
157.681	0.048	315362	keystroke_o	o	n/a
157.9365	0.056	315873	keystroke_Key.backspace	Key.backspace	n/a
158.0965	0.048	316193	keystroke_Key.backspace	Key.backspace	n/a
158.4005	0.08	316801	keystroke_o	o	n/a
158.5125	0.128	317025	keystroke_d	d	n/a
158.737	0.0795	317474	keystroke_i	i	n/a
158.8645	0.0565	317729	keystroke_f	f	n/a
159.0565	0.096	318113	keystroke_i	i	n/a
159.7845	0.1045	319569	keystroke_c	c	n/a
159.9525	0.104	319905	keystroke_a	a	n/a
160.0725	0.128	320145	keystroke_t	t	n/a
160.1525	0.104	320305	keystroke_i	i	n/a
160.2165	0.096	320433	keystroke_o	o	n/a
160.3285	0.12	320657	keystroke_n	n	n/a
160.4485	0.104	320897	keystroke_s	s	n/a
160.528	0.145	321056	keystroke_Key.space	Key.space	n/a
160.681	0.1115	321362	keystroke_r	r	n/a
160.889	0.0715	321778	keystroke_o	o	n/a
161.0805	0.104	322161	keystroke_b	b	n/a
161.1765	0.152	322353	keystroke_e	e	n/a
161.2805	0.136	322561	keystroke_r	r	n/a
161.489	0.1115	322978	keystroke_t	t	n/a
161.672	0.072	323344	keystroke_Key.enter	Key.enter	n/a
161.75	6.996	323500	prompt	n/a	verification needs bathroom mountain\n
162.7605	0.096	325521	keystroke_v	v	n/a
162.8965	0.144	325793	keystroke_e	e	n/a
163.0245	0.064	326049	keystroke_r	r	n/a
163.1125	0.096	326225	keystroke_i	i	n/a
163.784	0.0725	327568	keystroke_f	f	n/a
163.8645	0.104	327729	keystroke_i	i	n/a
164.081	0.1345	328162	keystroke_c	c	n/a
164.5605	0.1275	329121	keystroke_a	a	n/a
164.704	0.1445	329408	keystroke_t	t	n/a
164.8005	0.112	329601	keystroke_i	i	n/a
164.8725	0.096	329745	keystroke_o	o	n/a
165.0005	0.112	330001	keystroke_n	n	n/a
165.0635	0.144	330127	keystroke_Key.space	Key.space	n/a
165.233	0.1035	330466	keystroke_n	n	n/a
165.3285	0.072	330657	keystroke_e	e	n/a
165.4885	0.112	330977	keystroke_e	e	n/a
165.6405	0.12	331281	keystroke_d	d	n/a
165.7845	0.136	331569	keystroke_s	s	n/a
165.9365	0.12	331873	keystroke_Key.space	Key.space	n/a
166.1445	0.104	332289	keystroke_b	b	n/a
166.2485	0.112	332497	keystroke_a	a	n/a
166.3925	0.12	332785	keystroke_t	t	n/a
166.5045	0.096	333009	keystroke_h	h	n/a
166.6405	0.1195	333281	keystroke_r	r	n/a
166.744	0.088	333488	keystroke_o	o	n/a
166.928	0.0885	333856	keystroke_o	o	n/a
167.104	0.136	334208	keystroke_m	m	n/a
167.2165	0.1435	334433	keystroke_Key.space	Key.space	n/a
167.4155	0.112	334831	keystroke_m	m	n/a
167.5525	0.103	335105	keystroke_o	o	n/a
167.7355	0.105	335471	keystroke_u	u	n/a
167.8875	0.112	335775	keystroke_n	n	n/a
167.9765	0.16	335953	keystroke_t	t	n/a
168.1925	0.104	336385	keystroke_a	a	n/a
168.2245	0.12	336449	keystroke_i	i	n/a
168.312	0.12	336624	keystroke_n	n	n/a
168.68	0.0645	337360	keystroke_Key.enter	Key.enter	n/a
168.7495	6.0605	337499	prompt	n/a	performance paxil group rivers\n
169.368	0.1445	338736	keystroke_p	p	n/a
169.609	0.1025	339218	keystroke_e	e	n/a
169.6725	0.136	339345	keystroke_r	r	n/a
170.1765	0.096	340353	keystroke_f	f	n/a
170.2645	0.096	340529	keystroke_o	o	n/a
170.4885	0.144	340977	keystroke_r	r	n/a
170.6245	0.088	341249	keystroke_m	m	n/a
170.7285	0.112	341457	keystroke_a	a	n/a
170.9285	0.096	341857	keystroke_n	n	n/a
171.0485	0.144	342097	keystroke_c	c	n/a
171.1685	0.0875	342337	keystroke_e	e	n/a
171.2725	0.176	342545	keystroke_Key.space	Key.space	n/a
171.48	0.1125	342960	keystroke_p	p	n/a
171.608	0.064	343216	keystroke_a	a	n/a
171.88	0.136	343760	keystroke_x	x	n/a
171.96	0.136	343920	keystroke_i	i	n/a
172.0645	0.1195	344129	keystroke_l	l	n/a
172.1925	0.144	344385	keystroke_Key.space	Key.space	n/a
172.72	0.1205	345440	keystroke_g	g	n/a
172.816	0.136	345632	keystroke_r	r	n/a
172.9765	0.144	345953	keystroke_o	o	n/a
173.048	0.121	346096	keystroke_u	u	n/a
173.17	0.1025	346340	keystroke_p	p	n/a
173.304	0.1355	346608	keystroke_Key.space	Key.space	n/a
173.8885	0.088	347777	keystroke_r	r	n/a
173.9845	0.088	347969	keystroke_i	i	n/a
174.1685	0.08	348337	keystroke_v	v	n/a
174.3205	0.136	348641	keystroke_e	e	n/a
174.4085	0.168	348817	keystroke_r	r	n/a
174.5365	0.136	349073	keystroke_s	s	n/a
174.7205	0.088	349441	keystroke_Key.enter	Key.enter	n/a
174.8135	7.484	349627	prompt	n/a	ended buttons cons nonprofit\n
175.4075	0.112	350815	keystroke_e	e	n/a
175.4875	0.128	350975	keystroke_n	n	n/a
175.6395	0.113	351279	keystroke_d	d	n/a
175.7355	0.144	351471	keystroke_e	e	n/a
175.864	0.1045	351728	keystroke_d	d	n/a
176.016	0.128	352032	keystroke_Key.space	Key.space	n/a
176.2325	0.0875	352465	keystroke_b	b	n/a
176.376	0.1125	352752	keystroke_u	u	n/a
176.504	0.0965	353008	keystroke_t	t	n/a
176.6885	0.096	353377	keystroke_t	t	n/a
176.7685	0.095	353537	keystroke_o	o	n/a
176.9445	0.104	353889	keystroke_n	n	n/a
177.0325	0.112	354065	keystroke_s	s	n/a
177.0955	0.16	354191	keystroke_Key.space	Key.space	n/a
177.3115	0.112	354623	keystroke_c	c	n/a
177.5355	0.0885	355071	keystroke_n	n	n/a
177.872	0.08	355744	keystroke_Key.backspace	Key.backspace	n/a
178.1365	0.096	356273	keystroke_o	o	n/a
178.3365	0.104	356673	keystroke_n	n	n/a
178.4565	0.112	356913	keystroke_s	s	n/a
178.536	0.1365	357072	keystroke_Key.space	Key.space	n/a
178.7845	0.072	357569	keystroke_n	n	n/a
178.9835	0.0965	357967	keystroke_o	o	n/a
179.136	0.096	358272	keystroke_n	n	n/a
179.832	0.096	359664	keystroke_[	[	n/a
180.4805	0.079	360961	keystroke_Key.backspace	Key.backspace	n/a
180.912	0.088	361824	keystroke_p	p	n/a
181.096	0.104	362192	keystroke_r	r	n/a
181.192	0.104	362384	keystroke_o	o	n/a
181.424	0.0645	362848	keystroke_f	f	n/a
181.512	0.096	363024	keystroke_i	i	n/a
181.6405	0.1275	363281	keystroke_t	t	n/a
182.232	0.0635	364464	keystroke_Key.enter	Key.enter	n/a
182.301	6.021	364602	prompt	n/a	launches wealth claims presentation\n
182.92	0.0885	365840	keystroke_l	l	n/a
183.072	0.096	366144	keystroke_a	a	n/a
183.184	0.08	366368	keystroke_u	u	n/a
183.328	0.104	366656	keystroke_n	n	n/a
183.4555	0.128	366911	keystroke_c	c	n/a
183.5595	0.104	367119	keystroke_h	h	n/a
183.6555	0.217	367311	keystroke_e	e	n/a
183.8005	0.1435	367601	keystroke_s	s	n/a
183.9275	0.1365	367855	keystroke_Key.space	Key.space	n/a
184.1195	0.1125	368239	keystroke_w	w	n/a
184.312	0.12	368624	keystroke_e	e	n/a
184.4325	0.16	368865	keystroke_a	a	n/a
184.5515	0.081	369103	keystroke_l	l	n/a
184.696	0.112	369392	keystroke_t	t	n/a
184.7765	0.1195	369553	keystroke_h	h	n/a
184.928	0.16	369856	keystroke_Key.space	Key.space	n/a
185.304	0.112	370608	keystroke_c	c	n/a
185.584	0.104	371168	keystroke_l	l	n/a
185.736	0.096	371472	keystroke_a	a	n/a
185.84	0.08	371680	keystroke_i	i	n/a
185.968	0.112	371936	keystroke_m	m	n/a
186.0645	0.1195	372129	keystroke_s	s	n/a
186.176	0.1595	372352	keystroke_Key.space	Key.space	n/a
186.448	0.072	372896	keystroke_p	p	n/a
186.536	0.152	373072	keystroke_r	r	n/a
186.6	0.192	373200	keystroke_e	e	n/a
186.7285	0.1675	373457	keystroke_s	s	n/a
186.904	0.152	373808	keystroke_e	e	n/a
187.232	0.08	374464	keystroke_n	n	n/a
187.32	0.144	374640	keystroke_t	t	n/a
187.536	0.12	375072	keystroke_a	a	n/a
187.648	0.152	375296	keystroke_t	t	n/a
187.752	0.112	375504	keystroke_i	i	n/a
187.848	0.072	375696	keystroke_o	o	n/a
187.9525	0.0875	375905	keystroke_n	n	n/a
188.2635	0.056	376527	keystroke_Key.enter	Key.enter	n/a
188.3265	5.155	376653	prompt	n/a	analog colonial pitch tries\n
188.928	0.128	377856	keystroke_a	a	n/a
189.032	0.096	378064	keystroke_n	n	n/a
189.176	0.088	378352	keystroke_a	a	n/a
189.28	0.112	378560	keystroke_l	l	n/a
189.6325	0.0875	379265	keystroke_o	o	n/a
189.728	0.1275	379456	keystroke_g	g	n/a
189.8475	0.1285	379695	keystroke_Key.space	Key.space	n/a
190.1675	0.12	380335	keystroke_c	c	n/a
190.24	0.0565	380480	keystroke_o	o	n/a
190.416	0.0715	380832	keystroke_l	l	n/a
190.5995	0.096	381199	keystroke_o	o	n/a
190.8635	0.096	381727	keystroke_n	n	n/a
191.0165	0.111	382033	keystroke_i	i	n/a
191.1755	0.0965	382351	keystroke_a	a	n/a
191.312	0.104	382624	keystroke_l	l	n/a
191.376	0.1835	382752	keystroke_Key.space	Key.space	n/a
191.6235	0.0965	383247	keystroke_p	p	n/a
191.8635	0.089	383727	keystroke_i	i	n/a
192.0155	0.121	384031	keystroke_t	t	n/a
192.288	0.144	384576	keystroke_c	c	n/a
192.352	0.1125	384704	keystroke_h	h	n/a
192.456	0.152	384912	keystroke_Key.space	Key.space	n/a
192.68	0.1035	385360	keystroke_t	t	n/a
192.8965	0.1355	385793	keystroke_r	r	n/a
192.968	0.1125	385936	keystroke_i	i	n/a
193.0565	0.183	386113	keystroke_e	e	n/a
193.1835	0.1285	386367	keystroke_s	s	n/a
193.3915	0.088	386783	keystroke_Key.enter	Key.enter	n/a
193.4875	5.85	386975	prompt	n/a	different estimated exit jenny\n
194.16	0.088	388320	keystroke_d	d	n/a
194.272	0.096	388544	keystroke_i	i	n/a
194.408	0.056	388816	keystroke_f	f	n/a
194.5605	0.0795	389121	keystroke_f	f	n/a
194.728	0.135	389456	keystroke_e	e	n/a
194.8405	0.1515	389681	keystroke_r	r	n/a
194.952	0.144	389904	keystroke_e	e	n/a
195.16	0.096	390320	keystroke_n	n	n/a
195.232	0.136	390464	keystroke_t	t	n/a
195.36	0.1195	390720	keystroke_Key.space	Key.space	n/a
195.5195	0.144	391039	keystroke_e	e	n/a
195.7035	0.1205	391407	keystroke_s	s	n/a
195.816	0.144	391632	keystroke_t	t	n/a
195.936	0.08	391872	keystroke_i	i	n/a
196.104	0.12	392208	keystroke_m	m	n/a
196.208	0.096	392416	keystroke_a	a	n/a
196.352	0.1125	392704	keystroke_t	t	n/a
196.432	0.184	392864	keystroke_e	e	n/a
196.64	0.088	393280	keystroke_d	d	n/a
196.744	0.128	393488	keystroke_Key.space	Key.space	n/a
197	0.096	394000	keystroke_e	e	n/a
197.256	0.096	394512	keystroke_x	x	n/a
197.432	0.08	394864	keystroke_i	i	n/a
197.544	0.144	395088	keystroke_t	t	n/a
197.696	0.1115	395392	keystroke_Key.space	Key.space	n/a
198.088	0.0795	396176	keystroke_j	j	n/a
198.232	0.1035	396464	keystroke_e	e	n/a
198.4635	0.104	396927	keystroke_n	n	n/a
198.6395	0.0885	397279	keystroke_n	n	n/a
198.8475	0.0885	397695	keystroke_y	y	n/a
199.2715	0.064	398543	keystroke_Key.enter	Key.enter	n/a
199.342	5.627	398684	prompt	n/a	harris kenneth cats puzzle\n
200.12	0.096	400240	keystroke_h	h	n/a
200.247	0.129	400494	keystroke_a	a	n/a
200.368	0.1365	400736	keystroke_r	r	n/a
200.52	0.128	401040	keystroke_r	r	n/a
200.856	0.095	401712	keystroke_i	i	n/a
200.976	0.1035	401952	keystroke_s	s	n/a
201.1035	0.1285	402207	keystroke_Key.space	Key.space	n/a
201.3915	0.088	402783	keystroke_k	k	n/a
201.5035	0.1125	403007	keystroke_e	e	n/a
201.6395	0.0565	403279	keystroke_n	n	n/a
201.7835	0.08	403567	keystroke_n	n	n/a
201.8795	0.128	403759	keystroke_e	e	n/a
202.0715	0.128	404143	keystroke_t	t	n/a
202.1515	0.104	404303	keystroke_h	h	n/a
202.3435	0.12	404687	keystroke_Key.space	Key.space	n/a
202.496	0.1275	404992	keystroke_c	c	n/a
202.6635	0.1045	405327	keystroke_a	a	n/a
202.8475	0.1275	405695	keystroke_t	t	n/a
202.951	0.1205	405902	keystroke_s	s	n/a
203.1035	0.144	406207	keystroke_Key.space	Key.space	n/a
203.296	0.1195	406592	keystroke_p	p	n/a
203.8155	0.08	407631	keystroke_u	u	n/a
204.112	0.0795	408224	keystroke_z	z	n/a
204.311	0.104	408622	keystroke_z	z	n/a
204.527	0.081	409054	keystroke_l	l	n/a
204.608	0.144	409216	keystroke_e	e	n/a
204.88	0.0875	409760	keystroke_Key.enter	Key.enter	n/a
204.973	10.004	409946	prompt	n/a	southampton demonstrate examine granted\n
205.8	0.112	411600	keystroke_s	s	n/a
205.912	0.072	411824	keystroke_o	o	n/a
206.08	0.065	412160	keystroke_u	u	n/a
206.146	0.142	412292	keystroke_t	t	n/a
206.2555	0.1205	412511	keystroke_h	h	n/a
206.7355	0.096	413471	keystroke_a	a	n/a
206.7835	0.104	413567	keystroke_m	m	n/a
206.9995	0.096	413999	keystroke_p	p	n/a
207.1435	0.1205	414287	keystroke_t	t	n/a
207.2475	0.088	414495	keystroke_i	i	n/a
207.9195	0.08	415839	keystroke_Key.backspace	Key.backspace	n/a
208.2075	0.0885	416415	keystroke_o	o	n/a
208.4315	0.08	416863	keystroke_n	n	n/a
208.4795	0.144	416959	keystroke_Key.space	Key.space	n/a
208.6715	0.088	417343	keystroke_d	d	n/a
208.7195	0.168	417439	keystroke_e	e	n/a
208.8635	0.104	417727	keystroke_m	m	n/a
209.007	0.105	418014	keystroke_o	o	n/a
209.2075	0.121	418415	keystroke_n	n	n/a
209.3285	0.119	418657	keystroke_s	s	n/a
209.4635	0.12	418927	keystroke_t	t	n/a
209.7115	0.1195	419423	keystroke_r	r	n/a
209.855	0.096	419710	keystroke_a	a	n/a
210.0235	0.104	420047	keystroke_t	t	n/a
210.0875	0.144	420175	keystroke_e	e	n/a
210.2555	0.128	420511	keystroke_Key.space	Key.space	n/a
210.552	0.0875	421104	keystroke_d	d	n/a
210.8475	0.0875	421695	keystroke_Key.backspace	Key.backspace	n/a
210.9275	0.0885	421855	keystroke_e	e	n/a
211.176	0.112	422352	keystroke_x	x	n/a
211.4235	0.128	422847	keystroke_a	a	n/a
211.5035	0.12	423007	keystroke_m	m	n/a
211.5995	0.1195	423199	keystroke_i	i	n/a
211.816	0.0875	423632	keystroke_n	n	n/a
212.5275	0.0875	425055	keystroke_e	e	n/a
213.0555	0.1275	426111	keystroke_Key.space	Key.space	n/a
213.328	0.111	426656	keystroke_g	g	n/a
213.567	0.1365	427134	keystroke_r	r	n/a
213.7035	0.104	427407	keystroke_a	a	n/a
213.9035	0.1035	427807	keystroke_n	n	n/a
214.039	0.104	428078	keystroke_t	t	n/a
214.1835	0.152	428367	keystroke_e	e	n/a
214.3355	0.0885	428671	keystroke_d	d	n/a
214.791	0.184	429582	keystroke_Key.enter	Key.enter	n/a
214.9805	5.509	429961	prompt	n/a	ambient travis cell therapist\n
215.591	0.128	431182	keystroke_a	a	n/a
215.695	0.112	431390	keystroke_m	m	n/a
215.935	0.0885	431870	keystroke_b	b	n/a
216.143	0.089	432286	keystroke_i	i	n/a
216.264	0.127	432528	keystroke_e	e	n/a
216.367	0.113	432734	keystroke_n	n	n/a
216.455	0.16	432910	keystroke_t	t	n/a
216.559	0.176	433118	keystroke_Key.space	Key.space	n/a
216.8	0.111	433600	keystroke_t	t	n/a
217.031	0.0965	434062	keystroke_r	r	n/a
217.143	0.0805	434286	keystroke_a	a	n/a
217.3835	0.088	434767	keystroke_v	v	n/a
217.5355	0.088	435071	keystroke_i	i	n/a
217.6475	0.128	435295	keystroke_s	s	n/a
217.743	0.1525	435486	keystroke_Key.space	Key.space	n/a
218.0715	0.104	436143	keystroke_c	c	n/a
218.2155	0.1035	436431	keystroke_e	e	n/a
218.311	0.072	436622	keystroke_l	l	n/a
218.479	0.088	436958	keystroke_l	l	n/a
218.623	0.1605	437246	keystroke_Key.space	Key.space	n/a
218.7755	0.128	437551	keystroke_t	t	n/a
218.8875	0.08	437775	keystroke_h	h	n/a
219.0395	0.136	438079	keystroke_e	e	n/a
219.1675	0.16	438335	keystroke_r	r	n/a
219.368	0.112	438736	keystroke_a	a	n/a
219.6795	0.096	439359	keystroke_p	p	n/a
219.919	0.096	439838	keystroke_i	i	n/a
220.039	0.105	440078	keystroke_s	s	n/a
220.0955	0.1515	440191	keystroke_t	t	n/a
220.4155	0.0715	440831	keystroke_Key.enter	Key.enter	n/a
220.494	8.371	440988	prompt	n/a	lucky elimination silicon murder\n
221.104	0.103	442208	keystroke_l	l	n/a
221.3195	0.072	442639	keystroke_u	u	n/a
221.5755	0.112	443151	keystroke_c	c	n/a
221.6395	0.096	443279	keystroke_k	k	n/a
221.9035	0.104	443807	keystroke_y	y	n/a
222.0635	0.144	444127	keystroke_Key.space	Key.space	n/a
222.263	0.072	444526	keystroke_e	e	n/a
222.3515	0.136	444703	keystroke_l	l	n/a
222.575	0.1205	445150	keystroke_m	m	n/a
222.703	0.1285	445406	keystroke_i	i	n/a
223.895	0.08	447790	keystroke_Key.backspace	Key.backspace	n/a
224.095	0.0475	448190	keystroke_Key.backspace	Key.backspace	n/a
224.2475	0.055	448495	keystroke_Key.backspace	Key.backspace	n/a
224.7275	0.087	449455	keystroke_l	l	n/a
224.9275	0.096	449855	keystroke_i	i	n/a
225.1435	0.136	450287	keystroke_m	m	n/a
225.2635	0.1125	450527	keystroke_i	i	n/a
225.855	0.096	451710	keystroke_n	n	n/a
226.2315	0.096	452463	keystroke_a	a	n/a
226.3355	0.128	452671	keystroke_t	t	n/a
226.4155	0.12	452831	keystroke_i	i	n/a
226.4955	0.096	452991	keystroke_o	o	n/a
226.6315	0.104	453263	keystroke_n	n	n/a
226.7115	0.12	453423	keystroke_Key.space	Key.space	n/a
226.8075	0.112	453615	keystroke_s	s	n/a
226.8715	0.136	453743	keystroke_i	i	n/a
227.0155	0.1445	454031	keystroke_l	l	n/a
227.1275	0.128	454255	keystroke_i	i	n/a
227.3115	0.128	454623	keystroke_c	c	n/a
227.3995	0.08	454799	keystroke_o	o	n/a
227.5355	0.1115	455071	keystroke_n	n	n/a
227.6315	0.152	455263	keystroke_Key.space	Key.space	n/a
227.8715	0.08	455743	keystroke_m	m	n/a
228.0145	0.112	456029	keystroke_u	u	n/a
228.1195	0.096	456239	keystroke_r	r	n/a
228.3435	0.095	456687	keystroke_d	d	n/a
228.4305	0.1685	456861	keystroke_e	e	n/a
228.5425	0.161	457085	keystroke_r	r	n/a
228.7825	0.0805	457565	keystroke_Key.enter	Key.enter	n/a
228.8695	8.5795	457739	prompt	n/a	headquarters sherman signing player\n
229.423	0.1035	458846	keystroke_s	s	n/a
229.735	0.0645	459470	keystroke_Key.backspace	Key.backspace	n/a
230.0315	0.104	460063	keystroke_h	h	n/a
230.119	0.1045	460238	keystroke_e	e	n/a
230.207	0.152	460414	keystroke_a	a	n/a
230.367	0.112	460734	keystroke_d	d	n/a
230.8075	0.104	461615	keystroke_q	q	n/a
230.847	0.088	461694	keystroke_u	u	n/a
231.1995	0.16	462399	keystroke_a	a	n/a
231.3515	0.088	462703	keystroke_r	r	n/a
231.5755	0.096	463151	keystroke_t	t	n/a
231.6715	0.168	463343	keystroke_e	e	n/a
231.8235	0.1195	463647	keystroke_r	r	n/a
231.975	0.1125	463950	keystroke_s	s	n/a
232.135	0.128	464270	keystroke_Key.space	Key.space	n/a
232.319	0.12	464638	keystroke_s	s	n/a
232.4235	0.0955	464847	keystroke_h	h	n/a
232.5505	0.12	465101	keystroke_e	e	n/a
232.6235	0.1435	465247	keystroke_r	r	n/a
232.8235	0.1125	465647	keystroke_m	m	n/a
232.967	0.1205	465934	keystroke_a	a	n/a
233.127	0.12	466254	keystroke_n	n	n/a
233.255	0.1365	466510	keystroke_Key.space	Key.space	n/a
233.4395	0.112	466879	keystroke_s	s	n/a
233.519	0.104	467038	keystroke_i	i	n/a
233.7275	0.112	467455	keystroke_g	g	n/a
233.8465	0.0885	467693	keystroke_n	n	n/a
234.015	0.1285	468030	keystroke_i	i	n/a
234.1595	0.08	468319	keystroke_n	n	n/a
234.2395	0.135	468479	keystroke_g	g	n/a
235.2075	0.128	470415	keystroke_Key.space	Key.space	n/a
235.3595	0.104	470719	keystroke_p	p	n/a
235.5515	0.12	471103	keystroke_l	l	n/a
235.6955	0.088	471391	keystroke_a	a	n/a
235.9515	0.0875	471903	keystroke_e	e	n/a
236.287	0.0725	472574	keystroke_Key.backspace	Key.backspace	n/a
236.919	0.088	473838	keystroke_y	y	n/a
237.055	0.0805	474110	keystroke_e	e	n/a
237.0875	0.136	474175	keystroke_r	r	n/a
237.383	0.064	474766	keystroke_Key.enter	Key.enter	n/a
237.4535	8.299	474907	prompt	n/a	automatically indigenous radar fence\n
238.223	0.1125	476446	keystroke_a	a	n/a
238.2955	0.1035	476591	keystroke_u	u	n/a
238.495	0.128	476990	keystroke_t	t	n/a
238.615	0.096	477230	keystroke_o	o	n/a
238.823	0.12	477646	keystroke_m	m	n/a
238.951	0.08	477902	keystroke_a	a	n/a
239.087	0.12	478174	keystroke_t	t	n/a
239.215	0.0885	478430	keystroke_i	i	n/a
239.375	0.088	478750	keystroke_c	c	n/a
239.5435	0.1035	479087	keystroke_a	a	n/a
239.623	0.072	479246	keystroke_l	l	n/a
239.7915	0.08	479583	keystroke_l	l	n/a
240.0475	0.0795	480095	keystroke_y	y	n/a
240.351	0.1445	480702	keystroke_Key.space	Key.space	n/a
240.6155	0.104	481231	keystroke_i	i	n/a
240.8315	0.12	481663	keystroke_n	n	n/a
241.0635	0.088	482127	keystroke_d	d	n/a
241.2315	0.0875	482463	keystroke_i	i	n/a
241.423	0.1285	482846	keystroke_g	g	n/a
241.839	0.1045	483678	keystroke_e	e	n/a
242.0875	0.104	484175	keystroke_n	n	n/a
242.3995	0.0795	484799	keystroke_o	o	n/a
242.615	0.08	485230	keystroke_u	u	n/a
242.879	0.144	485758	keystroke_s	s	n/a
243.047	0.1515	486094	keystroke_Key.space	Key.space	n/a
243.2065	0.152	486413	keystroke_r	r	n/a
243.351	0.1435	486702	keystroke_a	a	n/a
243.543	0.1205	487086	keystroke_d	d	n/a
243.7425	0.113	487485	keystroke_a	a	n/a
243.8705	0.1045	487741	keystroke_r	r	n/a
244.0075	0.1435	488015	keystroke_Key.space	Key.space	n/a
244.6475	0.103	489295	keystroke_f	f	n/a
244.7355	0.1435	489471	keystroke_e	e	n/a
244.887	0.104	489774	keystroke_n	n	n/a
245.031	0.128	490062	keystroke_c	c	n/a
245.095	0.1365	490190	keystroke_e	e	n/a
245.687	0.0635	491374	keystroke_Key.enter	Key.enter	n/a
245.756	8.6365	491512	prompt	n/a	quality nonprofit concentrate charge\n
246.663	0.1115	493326	keystroke_q	q	n/a
246.727	0.096	493454	keystroke_u	u	n/a
246.935	0.1125	493870	keystroke_a	a	n/a
247.0075	0.0955	494015	keystroke_l	l	n/a
247.143	0.111	494286	keystroke_i	i	n/a
247.271	0.128	494542	keystroke_t	t	n/a
247.663	0.168	495326	keystroke_y	y	n/a
247.871	0.168	495742	keystroke_Key.space	Key.space	n/a
248.023	0.1195	496046	keystroke_n	n	n/a
248.1905	0.112	496381	keystroke_o	o	n/a
248.359	0.1035	496718	keystroke_n	n	n/a
248.655	0.1045	497310	keystroke_p	p	n/a
248.839	0.096	497678	keystroke_r	r	n/a
248.9675	0.0715	497935	keystroke_o	o	n/a
249.519	0.096	499038	keystroke_f	f	n/a
249.639	0.088	499278	keystroke_i	i	n/a
249.791	0.096	499582	keystroke_t	t	n/a
250.095	0.1275	500190	keystroke_Key.space	Key.space	n/a
250.5995	0.128	501199	keystroke_c	c	n/a
250.671	0.0885	501342	keystroke_o	o	n/a
250.823	0.1195	501646	keystroke_n	n	n/a
250.967	0.136	501934	keystroke_c	c	n/a
251.079	0.1835	502158	keystroke_e	e	n/a
251.4715	0.079	502943	keystroke_n	n	n/a
251.687	0.0955	503374	keystroke_t	t	n/a
251.903	0.112	503806	keystroke_r	r	n/a
252.0305	0.136	504061	keystroke_a	a	n/a
252.1825	0.136	504365	keystroke_t	t	n/a
252.2945	0.1365	504589	keystroke_e	e	n/a
252.495	0.1355	504990	keystroke_Key.space	Key.space	n/a
252.783	0.104	505566	keystroke_h	h	n/a
253.135	0.072	506270	keystroke_Key.backspace	Key.backspace	n/a
253.279	0.104	506558	keystroke_c	c	n/a
253.487	0.112	506974	keystroke_h	h	n/a
253.607	0.112	507214	keystroke_a	a	n/a
253.775	0.112	507550	keystroke_r	r	n/a
254.023	0.1115	508046	keystroke_g	g	n/a
254.1265	0.12	508253	keystroke_e	e	n/a
254.295	0.0955	508590	keystroke_Key.enter	Key.enter	n/a
254.3965	6.372	508793	prompt	n/a	auction only attitude newark\n
254.999	0.112	509998	keystroke_a	a	n/a
255.103	0.08	510206	keystroke_u	u	n/a
255.383	0.096	510766	keystroke_c	c	n/a
255.631	0.1205	511262	keystroke_t	t	n/a
255.695	0.1045	511390	keystroke_i	i	n/a
255.775	0.088	511550	keystroke_o	o	n/a
255.903	0.112	511806	keystroke_n	n	n/a
255.983	0.1355	511966	keystroke_Key.space	Key.space	n/a
256.1105	0.1045	512221	keystroke_o	o	n/a
256.295	0.0955	512590	keystroke_n	n	n/a
256.431	0.0955	512862	keystroke_l	l	n/a
256.719	0.048	513438	keystroke_y	y	n/a
256.8065	0.1125	513613	keystroke_Key.space	Key.space	n/a
257.0555	0.1035	514111	keystroke_a	a	n/a
257.287	0.096	514574	keystroke_t	t	n/a
257.455	0.104	514910	keystroke_t	t	n/a
257.551	0.08	515102	keystroke_u	u	n/a
257.759	0.136	515518	keystroke_t	t	n/a
258.232	0.071	516464	keystroke_Key.backspace	Key.backspace	n/a
258.399	0.088	516798	keystroke_Key.backspace	Key.backspace	n/a
258.6625	0.105	517325	keystroke_i	i	n/a
258.7825	0.136	517565	keystroke_t	t	n/a
258.9905	0.12	517981	keystroke_u	u	n/a
259.2145	0.088	518429	keystroke_d	d	n/a
259.2865	0.145	518573	keystroke_e	e	n/a
259.4465	0.136	518893	keystroke_Key.space	Key.space	n/a
259.6705	0.12	519341	keystroke_n	n	n/a
259.7825	0.08	519565	keystroke_e	e	n/a
260.039	0.1125	520078	keystroke_w	w	n/a
260.1995	0.111	520399	keystroke_a	a	n/a
260.295	0.1045	520590	keystroke_r	r	n/a
260.39	0.097	520780	keystroke_k	k	n/a
260.6945	0.0725	521389	keystroke_Key.enter	Key.enter	n/a
260.773	8.3565	521546	prompt	n/a	javascript independence professionals goat\n
261.559	0.112	523118	keystroke_j	j	n/a
261.719	0.064	523438	keystroke_a	a	n/a
261.975	0.088	523950	keystroke_v	v	n/a
262.191	0.1115	524382	keystroke_a	a	n/a
262.4625	0.0885	524925	keystroke_s	s	n/a
262.6465	0.081	525293	keystroke_c	c	n/a
262.879	0.096	525758	keystroke_r	r	n/a
262.9425	0.08	525885	keystroke_i	i	n/a
263.1345	0.0805	526269	keystroke_p	p	n/a
263.2305	0.1205	526461	keystroke_t	t	n/a
263.335	0.1675	526670	keystroke_Key.space	Key.space	n/a
263.5665	0.08	527133	keystroke_i	i	n/a
263.9265	0.0725	527853	keystroke_n	n	n/a
264.031	0.112	528062	keystroke_d	d	n/a
264.1265	0.1605	528253	keystroke_e	e	n/a
264.366	0.08	528732	keystroke_p	p	n/a
264.527	0.096	529054	keystroke_e	e	n/a
264.678	0.1125	529356	keystroke_n	n	n/a
264.798	0.112	529596	keystroke_d	d	n/a
265.4385	0.136	530877	keystroke_e	e	n/a
265.5585	0.112	531117	keystroke_n	n	n/a
265.679	0.1035	531358	keystroke_c	c	n/a
265.7425	0.12	531485	keystroke_e	e	n/a
266.087	0.1115	532174	keystroke_Key.space	Key.space	n/a
266.5425	0.136	533085	keystroke_p	p	n/a
266.7505	0.136	533501	keystroke_r	r	n/a
266.983	0.12	533966	keystroke_o	o	n/a
267.159	0.096	534318	keystroke_f	f	n/a
267.263	0.136	534526	keystroke_e	e	n/a
267.4	0.079	534800	keystroke_s	s	n/a
267.575	0.096	535150	keystroke_s	s	n/a
267.639	0.1275	535278	keystroke_i	i	n/a
267.7425	0.104	535485	keystroke_o	o	n/a
267.8545	0.112	535709	keystroke_n	n	n/a
267.9665	0.1125	535933	keystroke_a	a	n/a
268.063	0.1205	536126	keystroke_l	l	n/a
268.1905	0.096	536381	keystroke_s	s	n/a
268.2945	0.1445	536589	keystroke_Key.space	Key.space	n/a
268.5195	0.12	537039	keystroke_g	g	n/a
268.6315	0.0795	537263	keystroke_o	o	n/a
268.7345	0.1365	537469	keystroke_a	a	n/a
268.839	0.1515	537678	keystroke_t	t	n/a
269.0465	0.0795	538093	keystroke_Key.enter	Key.enter	n/a
269.1335	7.284	538267	prompt	n/a	barriers cycle battlefield worked\n
269.727	0.1115	539454	keystroke_b	b	n/a
269.846	0.097	539692	keystroke_a	a	n/a
269.943	0.072	539886	keystroke_r	r	n/a
270.1345	0.1045	540269	keystroke_r	r	n/a
270.2545	0.112	540509	keystroke_i	i	n/a
270.3745	0.1125	540749	keystroke_e	e	n/a
270.4545	0.128	540909	keystroke_r	r	n/a
270.6145	0.144	541229	keystroke_s	s	n/a
270.7825	0.1045	541565	keystroke_Key.space	Key.space	n/a
270.9505	0.136	541901	keystroke_c	c	n/a
271.095	0.0795	542190	keystroke_y	y	n/a
271.2225	0.1045	542445	keystroke_c	c	n/a
271.4305	0.096	542861	keystroke_l	l	n/a
271.5425	0.12	543085	keystroke_e	e	n/a
271.6385	0.136	543277	keystroke_Key.space	Key.space	n/a
272.039	0.1035	544078	keystroke_b	b	n/a
272.2785	0.1365	544557	keystroke_a	a	n/a
272.455	0.088	544910	keystroke_t	t	n/a
272.639	0.112	545278	keystroke_t	t	n/a
272.759	0.048	545518	keystroke_l	l	n/a
272.823	0.152	545646	keystroke_e	e	n/a
273.135	0.088	546270	keystroke_i	i	n/a
273.231	0.112	546462	keystroke_f	f	n/a
273.638	0.065	547276	keystroke_Key.backspace	Key.backspace	n/a
273.815	0.064	547630	keystroke_Key.backspace	Key.backspace	n/a
274.1345	0.0805	548269	keystroke_i	i	n/a
274.5905	0.0805	549181	keystroke_Key.backspace	Key.backspace	n/a
274.775	0.1035	549550	keystroke_f	f	n/a
274.8945	0.08	549789	keystroke_i	i	n/a
275.0305	0.128	550061	keystroke_e	e	n/a
275.1505	0.104	550301	keystroke_l	l	n/a
275.2785	0.12	550557	keystroke_d	d	n/a
275.3665	0.144	550733	keystroke_Key.space	Key.space	n/a
275.5745	0.1365	551149	keystroke_w	w	n/a
275.678	0.0725	551356	keystroke_o	o	n/a
275.758	0.128	551516	keystroke_r	r	n/a
275.846	0.1205	551692	keystroke_k	k	n/a
276.007	0.16	552014	keystroke_e	e	n/a
276.1585	0.104	552317	keystroke_d	d	n/a
276.3425	0.072	552685	keystroke_Key.enter	Key.enter	n/a
276.4235	6.569	552847	prompt	n/a	seemed stamps medicaid duration\n
277.118	0.088	554236	keystroke_s	s	n/a
277.3185	0.088	554637	keystroke_e	e	n/a
277.4945	0.104	554989	keystroke_e	e	n/a
277.6385	0.0805	555277	keystroke_m	m	n/a
277.7265	0.152	555453	keystroke_e	e	n/a
277.8625	0.12	555725	keystroke_d	d	n/a
278.7425	0.1435	557485	keystroke_Key.space	Key.space	n/a
278.9505	0.144	557901	keystroke_s	s	n/a
279.0785	0.136	558157	keystroke_t	t	n/a
279.271	0.087	558542	keystroke_a	a	n/a
279.366	0.0565	558732	keystroke_m	m	n/a
279.5265	0.088	559053	keystroke_p	p	n/a
279.6145	0.105	559229	keystroke_s	s	n/a
279.7195	0.1585	559439	keystroke_Key.space	Key.space	n/a
279.942	0.1205	559884	keystroke_m	m	n/a
280.0385	0.1525	560077	keystroke_e	e	n/a
280.1745	0.112	560349	keystroke_d	d	n/a
280.3265	0.0725	560653	keystroke_i	i	n/a
280.471	0.1355	560942	keystroke_c	c	n/a
280.615	0.143	561230	keystroke_a	a	n/a
280.982	0.064	561964	keystroke_i	i	n/a
281.087	0.127	562174	keystroke_d	d	n/a
281.406	0.1205	562812	keystroke_Key.space	Key.space	n/a
281.622	0.112	563244	keystroke_d	d	n/a
281.726	0.08	563452	keystroke_u	u	n/a
281.918	0.056	563836	keystroke_r	r	n/a
282.207	0.12	564414	keystroke_a	a	n/a
282.31	0.129	564620	keystroke_t	t	n/a
282.4145	0.096	564829	keystroke_i	i	n/a
282.471	0.0955	564942	keystroke_o	o	n/a
282.5745	0.112	565149	keystroke_n	n	n/a
282.9265	0.064	565853	keystroke_Key.enter	Key.enter	n/a
282.9965	6.955	565993	prompt	n/a	incentives ocean floor reflect\n
283.5265	0.0805	567053	keystroke_i	i	n/a
283.8705	0.128	567741	keystroke_c	c	n/a
283.982	0.048	567964	keystroke_n	n	n/a
284.2545	0.064	568509	keystroke_Key.backspace	Key.backspace	n/a
284.4225	0.064	568845	keystroke_Key.backspace	Key.backspace	n/a
284.7265	0.104	569453	keystroke_n	n	n/a
284.8385	0.136	569677	keystroke_c	c	n/a
284.9585	0.152	569917	keystroke_e	e	n/a
285.119	0.0555	570238	keystroke_n	n	n/a
285.271	0.1035	570542	keystroke_t	t	n/a
285.3825	0.096	570765	keystroke_i	i	n/a
285.5665	0.144	571133	keystroke_v	v	n/a
285.6705	0.168	571341	keystroke_e	e	n/a
285.7745	0.161	571549	keystroke_s	s	n/a
285.919	0.1435	571838	keystroke_Key.space	Key.space	n/a
286.3915	0.071	572783	keystroke_o	o	n/a
286.5425	0.104	573085	keystroke_c	c	n/a
286.7745	0.0955	573549	keystroke_e	e	n/a
287.0705	0.128	574141	keystroke_a	a	n/a
287.1825	0.128	574365	keystroke_n	n	n/a
287.3585	0.136	574717	keystroke_Key.space	Key.space	n/a
287.67	0.096	575340	keystroke_f	f	n/a
287.7585	0.0875	575517	keystroke_l	l	n/a
287.9585	0.08	575917	keystroke_o	o	n/a
288.1105	0.0875	576221	keystroke_o	o	n/a
288.238	0.112	576476	keystroke_r	r	n/a
288.366	0.152	576732	keystroke_Key.space	Key.space	n/a
288.686	0.136	577372	keystroke_r	r	n/a
288.79	0.2165	577580	keystroke_e	e	n/a
289.079	0.08	578158	keystroke_f	f	n/a
289.183	0.103	578366	keystroke_l	l	n/a
289.287	0.159	578574	keystroke_e	e	n/a
289.4705	0.1035	578941	keystroke_c	c	n/a
289.718	0.144	579436	keystroke_t	t	n/a
289.878	0.072	579756	keystroke_Key.enter	Key.enter	n/a
289.955	15.341	579910	prompt	n/a	pillow leone weed qualifying\n
290.5745	0.1045	581149	keystroke_p	p	n/a
290.807	0.0795	581614	keystroke_i	i	n/a
291.022	0.064	582044	keystroke_l	l	n/a
291.1745	0.0555	582349	keystroke_l	l	n/a
291.342	0.12	582684	keystroke_o	o	n/a
291.47	0.088	582940	keystroke_w	w	n/a
291.55	0.16	583100	keystroke_Key.space	Key.space	n/a
291.687	0.135	583374	keystroke_l	l	n/a
291.8545	0.1035	583709	keystroke_e	e	n/a
292.03	0.0805	584060	keystroke_o	o	n/a
292.23	0.0965	584460	keystroke_n	n	n/a
292.3505	0.128	584701	keystroke_e	e	n/a
292.5345	0.144	585069	keystroke_Key.space	Key.space	n/a
292.8465	0.088	585693	keystroke_w	w	n/a
293.0385	0.088	586077	keystroke_e	e	n/a
293.2225	0.136	586445	keystroke_e	e	n/a
293.375	0.0955	586750	keystroke_d	d	n/a
293.5025	0.08	587005	keystroke_Key.space	Key.space	n/a
294.071	0.1035	588142	keystroke_q	q	n/a
294.1905	0.0875	588381	keystroke_u	u	n/a
294.398	0.096	588796	keystroke_a	a	n/a
294.5025	0.072	589005	keystroke_l	l	n/a
294.639	0.119	589278	keystroke_i	i	n/a
294.79	0.0965	589580	keystroke_f	f	n/a
294.982	0.064	589964	keystroke_i	i	n/a
295.2625	0.0955	590525	keystroke_y	y	n/a
295.59	0.0485	591180	keystroke_i	i	n/a
296.5105	0.0795	593021	keystroke_Key.backspace	Key.backspace	n/a
296.67	0.088	593340	keystroke_Key.backspace	Key.backspace	n/a
297.198	0.064	594396	keystroke_Key.backspace	Key.backspace	n/a
297.5745	0.088	595149	keystroke_y	y	n/a
297.7985	0.0795	595597	keystroke_i	i	n/a
297.91	0.1035	595820	keystroke_n	n	n/a
298.0215	0.0805	596043	keystroke_g	g	n/a
305.1495	0.145	610299	keystroke_Key.enter	Key.enter	n/a
305.3	9.4035	610600	prompt	n/a	speakers beautiful keyword submitting\n
306.55	0.1125	613100	keystroke_s	s	n/a
306.814	0.08	613628	keystroke_o	o	n/a
307.166	0.1035	614332	keystroke_e	e	n/a
307.2615	0.1445	614523	keystroke_a	a	n/a
307.702	0.0635	615404	keystroke_Key.backspace	Key.backspace	n/a
307.8695	0.0725	615739	keystroke_Key.backspace	Key.backspace	n/a
308.0295	0.0885	616059	keystroke_Key.backspace	Key.backspace	n/a
308.5815	0.08	617163	keystroke_p	p	n/a
308.694	0.1365	617388	keystroke_e	e	n/a
308.8375	0.137	617675	keystroke_a	a	n/a
308.9825	0.079	617965	keystroke_k	k	n/a
309.0785	0.1515	618157	keystroke_e	e	n/a
309.1815	0.112	618363	keystroke_r	r	n/a
309.254	0.1595	618508	keystroke_s	s	n/a
309.4695	0.152	618939	keystroke_Key.space	Key.space	n/a
309.7905	0.1035	619581	keystroke_b	b	n/a
309.926	0.0955	619852	keystroke_e	e	n/a
310.0055	0.152	620011	keystroke_a	a	n/a
310.094	0.1035	620188	keystroke_u	u	n/a
310.2545	0.1195	620509	keystroke_t	t	n/a
310.47	0.104	620940	keystroke_i	i	n/a
310.5815	0.1125	621163	keystroke_f	f	n/a
310.7335	0.0645	621467	keystroke_u	u	n/a
311.0065	0.1195	622013	keystroke_l	l	n/a
311.1175	0.1605	622235	keystroke_Key.space	Key.space	n/a
311.326	0.152	622652	keystroke_k	k	n/a
311.542	0.12	623084	keystroke_e	e	n/a
311.678	0.1205	623356	keystroke_y	y	n/a
311.941	0.145	623882	keystroke_w	w	n/a
312.046	0.12	624092	keystroke_o	o	n/a
312.1495	0.096	624299	keystroke_r	r	n/a
312.3655	0.12	624731	keystroke_d	d	n/a
312.4865	0.1195	624973	keystroke_Key.space	Key.space	n/a
312.6705	0.12	625341	keystroke_s	s	n/a
312.766	0.0715	625532	keystroke_u	u	n/a
312.95	0.0715	625900	keystroke_b	b	n/a
313.1655	0.129	626331	keystroke_m	m	n/a
313.2615	0.1205	626523	keystroke_i	i	n/a
313.3655	0.1045	626731	keystroke_t	t	n/a
313.55	0.0885	627100	keystroke_t	t	n/a
313.6065	0.072	627213	keystroke_i	i	n/a
313.7345	0.096	627469	keystroke_n	n	n/a
313.8225	0.104	627645	keystroke_g	g	n/a
313.9185	0.104	627837	keystroke_s	s	n/a
314.3415	0.072	628683	keystroke_Key.backspace	Key.backspace	n/a
314.6215	0.08	629243	keystroke_Key.enter	Key.enter	n/a
314.707	7.1965	629414	prompt	n/a	nuts article tomato characteristics\n
315.582	0.0965	631164	keystroke_n	n	n/a
315.718	0.1115	631436	keystroke_u	u	n/a
315.8135	0.1765	631627	keystroke_t	t	n/a
315.982	0.1675	631964	keystroke_s	s	n/a
316.1655	0.136	632331	keystroke_Key.space	Key.space	n/a
316.3735	0.136	632747	keystroke_a	a	n/a
316.4935	0.12	632987	keystroke_r	r	n/a
316.702	0.128	633404	keystroke_t	t	n/a
316.814	0.104	633628	keystroke_i	i	n/a
317.318	0.088	634636	keystroke_c	c	n/a
317.438	0.088	634876	keystroke_l	l	n/a
317.5905	0.1195	635181	keystroke_e	e	n/a
317.758	0.168	635516	keystroke_Key.space	Key.space	n/a
318.022	0.12	636044	keystroke_t	t	n/a
318.126	0.088	636252	keystroke_o	o	n/a
318.2785	0.1275	636557	keystroke_m	m	n/a
318.47	0.128	636940	keystroke_a	a	n/a
318.59	0.136	637180	keystroke_t	t	n/a
318.7425	0.1035	637485	keystroke_o	o	n/a
318.87	0.152	637740	keystroke_Key.space	Key.space	n/a
319.198	0.136	638396	keystroke_c	c	n/a
319.27	0.112	638540	keystroke_h	h	n/a
319.39	0.136	638780	keystroke_a	a	n/a
319.5345	0.12	639069	keystroke_r	r	n/a
319.6295	0.088	639259	keystroke_a	a	n/a
319.9745	0.096	639949	keystroke_c	c	n/a
320.238	0.112	640476	keystroke_t	t	n/a
320.3425	0.1995	640685	keystroke_e	e	n/a
320.462	0.168	640924	keystroke_r	r	n/a
320.7655	0.08	641531	keystroke_i	i	n/a
320.886	0.144	641772	keystroke_s	s	n/a
321.038	0.16	642076	keystroke_t	t	n/a
321.254	0.128	642508	keystroke_i	i	n/a
321.414	0.1205	642828	keystroke_c	c	n/a
321.542	0.088	643084	keystroke_s	s	n/a
321.822	0.08	643644	keystroke_Key.enter	Key.enter	n/a
321.9075	6.0035	643815	prompt	n/a	teacher wayne programmers tire\n
322.542	0.183	645084	keystroke_t	t	n/a
322.686	0.152	645372	keystroke_e	e	n/a
322.8065	0.1435	645613	keystroke_a	a	n/a
323.022	0.128	646044	keystroke_c	c	n/a
323.126	0.128	646252	keystroke_h	h	n/a
323.214	0.16	646428	keystroke_e	e	n/a
323.302	0.16	646604	keystroke_r	r	n/a
323.542	0.1275	647084	keystroke_Key.space	Key.space	n/a
323.7895	0.08	647579	keystroke_w	w	n/a
324.4855	0.1035	648971	keystroke_a	a	n/a
324.694	0.1045	649388	keystroke_y	y	n/a
324.886	0.112	649772	keystroke_n	n	n/a
324.974	0.104	649948	keystroke_e	e	n/a
325.101	0.129	650202	keystroke_Key.space	Key.space	n/a
325.326	0.112	650652	keystroke_p	p	n/a
325.43	0.112	650860	keystroke_r	r	n/a
325.55	0.12	651100	keystroke_o	o	n/a
325.718	0.112	651436	keystroke_g	g	n/a
325.982	0.104	651964	keystroke_r	r	n/a
326.062	0.12	652124	keystroke_a	a	n/a
326.2225	0.0635	652445	keystroke_m	m	n/a
326.382	0.0875	652764	keystroke_m	m	n/a
326.4855	0.104	652971	keystroke_e	e	n/a
326.534	0.1525	653068	keystroke_r	r	n/a
326.6535	0.128	653307	keystroke_s	s	n/a
326.7895	0.136	653579	keystroke_Key.space	Key.space	n/a
326.9105	0.1275	653821	keystroke_t	t	n/a
327.03	0.104	654060	keystroke_i	i	n/a
327.1575	0.144	654315	keystroke_r	r	n/a
327.2215	0.2085	654443	keystroke_e	e	n/a
327.7655	0.144	655531	keystroke_Key.enter	Key.enter	n/a
327.9145	6.845	655829	prompt	n/a	towers fitted decrease preventing\n
328.542	0.119	657084	keystroke_t	t	n/a
328.638	0.135	657276	keystroke_o	o	n/a
328.878	0.1035	657756	keystroke_w	w	n/a
329.101	0.137	658202	keystroke_e	e	n/a
329.19	0.143	658380	keystroke_r	r	n/a
329.3735	0.1445	658747	keystroke_s	s	n/a
329.534	0.1035	659068	keystroke_Key.space	Key.space	n/a
329.718	0.0875	659436	keystroke_f	f	n/a
329.7815	0.0965	659563	keystroke_i	i	n/a
329.9655	0.0965	659931	keystroke_t	t	n/a
330.1015	0.072	660203	keystroke_t	t	n/a
330.6535	0.144	661307	keystroke_e	e	n/a
330.7975	0.12	661595	keystroke_d	d	n/a
330.982	0.1435	661964	keystroke_Key.space	Key.space	n/a
331.286	0.08	662572	keystroke_d	d	n/a
331.342	0.1595	662684	keystroke_e	e	n/a
331.566	0.119	663132	keystroke_c	c	n/a
331.8455	0.1845	663691	keystroke_r	r	n/a
331.95	0.199	663900	keystroke_e	e	n/a
332.174	0.144	664348	keystroke_a	a	n/a
332.277	0.097	664554	keystroke_s	s	n/a
332.47	0.12	664940	keystroke_e	e	n/a
332.597	0.12	665194	keystroke_Key.space	Key.space	n/a
332.782	0.12	665564	keystroke_p	p	n/a
333.03	0.151	666060	keystroke_r	r	n/a
333.51	0.135	667020	keystroke_e	e	n/a
333.742	0.095	667484	keystroke_v	v	n/a
333.917	0.129	667834	keystroke_e	e	n/a
334.0535	0.1125	668107	keystroke_n	n	n/a
334.158	0.12	668316	keystroke_t	t	n/a
334.23	0.12	668460	keystroke_i	i	n/a
334.358	0.1125	668716	keystroke_n	n	n/a
334.478	0.095	668956	keystroke_g	g	n/a
334.71	0.047	669420	keystroke_Key.enter	Key.enter	n/a
334.7635	9.412	669527	prompt	n/a	executive vocals somalia automobile\n
335.3735	0.1045	670747	keystroke_e	e	n/a
335.6215	0.1045	671243	keystroke_x	x	n/a
335.8455	0.129	671691	keystroke_e	e	n/a
336.1175	0.1125	672235	keystroke_v	v	n/a
336.462	0.08	672924	keystroke_Key.backspace	Key.backspace	n/a
336.638	0.104	673276	keystroke_c	c	n/a
336.846	0.096	673692	keystroke_u	u	n/a
337.006	0.112	674012	keystroke_t	t	n/a
337.182	0.096	674364	keystroke_i	i	n/a
337.366	0.088	674732	keystroke_v	v	n/a
337.429	0.1295	674858	keystroke_e	e	n/a
338.23	0.1355	676460	keystroke_Key.space	Key.space	n/a
338.494	0.0955	676988	keystroke_v	v	n/a
338.614	0.088	677228	keystroke_o	o	n/a
338.758	0.144	677516	keystroke_c	c	n/a
338.926	0.056	677852	keystroke_a	a	n/a
339.0455	0.072	678091	keystroke_l	l	n/a
339.2055	0.12	678411	keystroke_s	s	n/a
339.3975	0.144	678795	keystroke_Key.space	Key.space	n/a
339.6215	0.096	679243	keystroke_s	s	n/a
339.7095	0.104	679419	keystroke_o	o	n/a
339.9015	0.0965	679803	keystroke_m	m	n/a
340.062	0.0875	680124	keystroke_a	a	n/a
340.1335	0.104	680267	keystroke_l	l	n/a
340.3175	0.121	680635	keystroke_i	i	n/a
340.4935	0.1285	680987	keystroke_a	a	n/a
340.6375	0.144	681275	keystroke_Key.space	Key.space	n/a
340.925	0.0895	681850	keystroke_s	s	n/a
341.35	0.055	682700	keystroke_Key.backspace	Key.backspace	n/a
341.542	0.112	683084	keystroke_a	a	n/a
341.678	0.12	683356	keystroke_u	u	n/a
341.814	0.1355	683628	keystroke_t	t	n/a
341.9655	0.0885	683931	keystroke_o	o	n/a
342.2615	0.0875	684523	keystroke_m	m	n/a
342.518	0.063	685036	keystroke_i	i	n/a
342.845	0.08	685690	keystroke_Key.backspace	Key.backspace	n/a
343.1175	0.12	686235	keystroke_o	o	n/a
343.358	0.087	686716	keystroke_b	b	n/a
343.5905	0.1195	687181	keystroke_i	i	n/a
343.6455	0.136	687291	keystroke_l	l	n/a
343.7815	0.105	687563	keystroke_e	e	n/a
344.0855	0.088	688171	keystroke_Key.enter	Key.enter	n/a
344.1795	6.164	688359	prompt	n/a	orchestra footage pentium there\n
344.8375	0.072	689675	keystroke_o	o	n/a
344.982	0.1115	689964	keystroke_r	r	n/a
345.2375	0.144	690475	keystroke_c	c	n/a
345.3255	0.1285	690651	keystroke_h	h	n/a
345.438	0.1835	690876	keystroke_e	e	n/a
345.542	0.1675	691084	keystroke_s	s	n/a
345.7015	0.12	691403	keystroke_t	t	n/a
346.0855	0.1595	692171	keystroke_r	r	n/a
346.317	0.1365	692634	keystroke_a	a	n/a
346.597	0.1285	693194	keystroke_Key.space	Key.space	n/a
346.893	0.0965	693786	keystroke_f	f	n/a
347.038	0.079	694076	keystroke_o	o	n/a
347.205	0.0965	694410	keystroke_o	o	n/a
347.278	0.135	694556	keystroke_t	t	n/a
347.477	0.0885	694954	keystroke_a	a	n/a
347.685	0.1125	695370	keystroke_g	g	n/a
347.781	0.112	695562	keystroke_e	e	n/a
347.941	0.1445	695882	keystroke_Key.space	Key.space	n/a
348.1015	0.1205	696203	keystroke_p	p	n/a
348.3745	0.087	696749	keystroke_e	e	n/a
348.5015	0.088	697003	keystroke_n	n	n/a
348.6535	0.1445	697307	keystroke_t	t	n/a
348.8055	0.0725	697611	keystroke_i	i	n/a
348.9975	0.0805	697995	keystroke_u	u	n/a
349.2055	0.12	698411	keystroke_m	m	n/a
349.3015	0.1445	698603	keystroke_Key.space	Key.space	n/a
349.4695	0.152	698939	keystroke_t	t	n/a
349.5655	0.12	699131	keystroke_h	h	n/a
349.718	0.0555	699436	keystroke_e	e	n/a
349.7895	0.136	699579	keystroke_r	r	n/a
349.9015	0.072	699803	keystroke_e	e	n/a
350.261	0.0805	700522	keystroke_Key.enter	Key.enter	n/a
350.3475	5.485	700695	prompt	n/a	harder when's finite nursing\n
351.014	0.0955	702028	keystroke_h	h	n/a
351.1575	0.128	702315	keystroke_a	a	n/a
351.2535	0.104	702507	keystroke_r	r	n/a
351.4935	0.0965	702987	keystroke_d	d	n/a
351.6375	0.136	703275	keystroke_e	e	n/a
351.7255	0.144	703451	keystroke_r	r	n/a
351.9255	0.12	703851	keystroke_Key.space	Key.space	n/a
352.141	0.1285	704282	keystroke_w	w	n/a
352.23	0.1195	704460	keystroke_h	h	n/a
352.3735	0.104	704747	keystroke_e	e	n/a
352.4855	0.08	704971	keystroke_n	n	n/a
352.7415	0.104	705483	keystroke_'	'	n/a
352.8615	0.112	705723	keystroke_s	s	n/a
352.9415	0.1925	705883	keystroke_Key.space	Key.space	n/a
353.3255	0.064	706651	keystroke_f	f	n/a
353.3815	0.08	706763	keystroke_i	i	n/a
353.582	0.0715	707164	keystroke_n	n	n/a
353.717	0.1285	707434	keystroke_i	i	n/a
353.8295	0.168	707659	keystroke_t	t	n/a
353.9415	0.1285	707883	keystroke_e	e	n/a
354.158	0.1195	708316	keystroke_Key.space	Key.space	n/a
354.405	0.0885	708810	keystroke_n	n	n/a
354.5735	0.0885	709147	keystroke_u	u	n/a
354.725	0.137	709450	keystroke_r	r	n/a
355.118	0.128	710236	keystroke_s	s	n/a
355.253	0.089	710506	keystroke_i	i	n/a
355.414	0.111	710828	keystroke_n	n	n/a
355.494	0.144	710988	keystroke_g	g	n/a
355.765	0.0645	711530	keystroke_Key.enter	Key.enter	n/a
355.8395	7.072	711679	prompt	n/a	herald personalized turns headphones\n
356.454	0.111	712908	keystroke_h	h	n/a
356.661	0.2005	713322	keystroke_e	e	n/a
356.869	0.169	713738	keystroke_r	r	n/a
357.07	0.103	714140	keystroke_a	a	n/a
357.165	0.128	714330	keystroke_l	l	n/a
357.398	0.1195	714796	keystroke_d	d	n/a
357.557	0.112	715114	keystroke_Key.space	Key.space	n/a
357.9735	0.104	715947	keystroke_p	p	n/a
358.1255	0.072	716251	keystroke_e	e	n/a
358.1565	0.169	716313	keystroke_r	r	n/a
358.3815	0.088	716763	keystroke_o	o	n/a
358.7735	0.072	717547	keystroke_Key.backspace	Key.backspace	n/a
358.926	0.1035	717852	keystroke_s	s	n/a
359.053	0.121	718106	keystroke_o	o	n/a
359.27	0.112	718540	keystroke_n	n	n/a
359.405	0.081	718810	keystroke_a	a	n/a
359.4935	0.1125	718987	keystroke_l	l	n/a
359.59	0.135	719180	keystroke_i	i	n/a
359.773	0.152	719546	keystroke_z	z	n/a
359.91	0.175	719820	keystroke_e	e	n/a
360.077	0.1445	720154	keystroke_d	d	n/a
360.237	0.1525	720474	keystroke_Key.space	Key.space	n/a
360.39	0.135	720780	keystroke_t	t	n/a
360.4775	0.1115	720955	keystroke_u	u	n/a
360.661	0.1125	721322	keystroke_r	r	n/a
360.749	0.088	721498	keystroke_n	n	n/a
360.861	0.137	721722	keystroke_s	s	n/a
361.0055	0.1115	722011	keystroke_Key.space	Key.space	n/a
361.2215	0.112	722443	keystroke_h	h	n/a
361.3175	0.096	722635	keystroke_e	e	n/a
361.4295	0.136	722859	keystroke_a	a	n/a
361.6375	0.1195	723275	keystroke_d	d	n/a
361.909	0.089	723818	keystroke_p	p	n/a
362.1575	0.1125	724315	keystroke_h	h	n/a
362.2605	0.112	724521	keystroke_o	o	n/a
362.4295	0.1045	724859	keystroke_n	n	n/a
362.5005	0.1695	725001	keystroke_e	e	n/a
362.5815	0.111	725163	keystroke_s	s	n/a
362.8125	0.097	725625	keystroke_Key.enter	Key.enter	n/a
362.915	5.7875	725830	prompt	n/a	short berry nickname who'd've\n
363.5815	0.136	727163	keystroke_s	s	n/a
363.7815	0.104	727563	keystroke_h	h	n/a
363.8935	0.144	727787	keystroke_o	o	n/a
364.0055	0.112	728011	keystroke_r	r	n/a
364.229	0.12	728458	keystroke_t	t	n/a
364.325	0.1045	728650	keystroke_Key.space	Key.space	n/a
364.4615	0.1195	728923	keystroke_b	b	n/a
364.5735	0.1035	729147	keystroke_e	e	n/a
364.6455	0.1045	729291	keystroke_r	r	n/a
364.821	0.112	729642	keystroke_r	r	n/a
364.901	0.1285	729802	keystroke_y	y	n/a
365.053	0.12	730106	keystroke_Key.space	Key.space	n/a
365.1805	0.113	730361	keystroke_n	n	n/a
365.3575	0.103	730715	keystroke_i	i	n/a
365.4455	0.136	730891	keystroke_c	c	n/a
365.6055	0.088	731211	keystroke_k	k	n/a
365.83	0.104	731660	keystroke_n	n	n/a
366.0135	0.104	732027	keystroke_a	a	n/a
366.1175	0.096	732235	keystroke_m	m	n/a
366.2055	0.1275	732411	keystroke_e	e	n/a
366.365	0.112	732730	keystroke_Key.space	Key.space	n/a
366.597	0.064	733194	keystroke_w	w	n/a
366.653	0.0565	733306	keystroke_h	h	n/a
366.733	0.1205	733466	keystroke_o	o	n/a
367.1255	0.072	734251	keystroke_'	'	n/a
367.653	0.112	735306	keystroke_d	d	n/a
367.838	0.103	735676	keystroke_'	'	n/a
368.0135	0.104	736027	keystroke_v	v	n/a
368.1415	0.12	736283	keystroke_e	e	n/a
368.6295	0.072	737259	keystroke_Key.enter	Key.enter	n/a
368.707	11.8515	737414	prompt	n/a	where'd readings constantly she'd\n
369.4455	0.144	738891	keystroke_w	w	n/a
369.5895	0.104	739179	keystroke_h	h	n/a
369.7095	0.104	739419	keystroke_e	e	n/a
369.8145	0.1275	739629	keystroke_r	r	n/a
369.902	0.0955	739804	keystroke_e	e	n/a
370.0695	0.079	740139	keystroke_'	'	n/a
370.1895	0.096	740379	keystroke_d	d	n/a
370.309	0.16	740618	keystroke_Key.space	Key.space	n/a
370.7405	0.193	741481	keystroke_r	r	n/a
370.9085	0.168	741817	keystroke_e	e	n/a
371.0775	0.136	742155	keystroke_a	a	n/a
371.1895	0.128	742379	keystroke_d	d	n/a
371.3255	0.0885	742651	keystroke_i	i	n/a
371.4925	0.121	742985	keystroke_n	n	n/a
371.5655	0.12	743131	keystroke_g	g	n/a
371.6615	0.112	743323	keystroke_s	s	n/a
371.7495	0.128	743499	keystroke_Key.space	Key.space	n/a
371.9255	0.143	743851	keystroke_c	c	n/a
372.046	0.0795	744092	keystroke_o	o	n/a
372.2135	0.112	744427	keystroke_n	n	n/a
372.3405	0.097	744681	keystroke_s	s	n/a
372.4695	0.119	744939	keystroke_t	t	n/a
372.6535	0.1115	745307	keystroke_a	a	n/a
372.757	0.1195	745514	keystroke_t	t	n/a
372.9015	0.0725	745803	keystroke_l	l	n/a
373.134	0.079	746268	keystroke_y	y	n/a
373.3085	0.1365	746617	keystroke_Key.space	Key.space	n/a
373.6605	0.0885	747321	keystroke_s	s	n/a
373.741	0.0965	747482	keystroke_h	h	n/a
373.861	0.096	747722	keystroke_e	e	n/a
374.581	0.064	749162	keystroke_Key.backspace	Key.backspace	n/a
374.773	0.064	749546	keystroke_Key.backspace	Key.backspace	n/a
374.9405	0.0725	749881	keystroke_Key.backspace	Key.backspace	n/a
375.117	0.072	750234	keystroke_Key.backspace	Key.backspace	n/a
375.293	0.064	750586	keystroke_Key.backspace	Key.backspace	n/a
375.4535	0.087	750907	keystroke_Key.backspace	Key.backspace	n/a
375.9565	0.0645	751913	keystroke_Key.backspace	Key.backspace	n/a
376.3335	0.0955	752667	keystroke_n	n	n/a
376.437	0.096	752874	keystroke_t	t	n/a
376.5415	0.1275	753083	keystroke_l	l	n/a
376.701	0.1275	753402	keystroke_t	t	n/a
376.9815	0.12	753963	keystroke_Key.space	Key.space	n/a
377.181	0.0965	754362	keystroke_s	s	n/a
377.245	0.08	754490	keystroke_h	h	n/a
377.357	0.096	754714	keystroke_e	e	n/a
377.917	0.0475	755834	keystroke_Key.backspace	Key.backspace	n/a
378.085	0.0645	756170	keystroke_Key.backspace	Key.backspace	n/a
378.2605	0.072	756521	keystroke_Key.backspace	Key.backspace	n/a
378.4375	0.071	756875	keystroke_Key.backspace	Key.backspace	n/a
378.7885	0.105	757577	keystroke_Key.backspace	Key.backspace	n/a
379.3815	0.1195	758763	keystroke_y	y	n/a
379.509	0.136	759018	keystroke_Key.space	Key.space	n/a
379.6535	0.1195	759307	keystroke_s	s	n/a
379.7255	0.1035	759451	keystroke_h	h	n/a
379.861	0.072	759722	keystroke_e	e	n/a
380.013	0.064	760026	keystroke_'	'	n/a
380.165	0.1035	760330	keystroke_d	d	n/a
380.4685	0.089	760937	keystroke_Key.enter	Key.enter	n/a
380.563	6.4115	761126	prompt	n/a	token favor please atlantic\n
381.277	0.144	762554	keystroke_t	t	n/a
381.413	0.096	762826	keystroke_o	o	n/a
381.533	0.12	763066	keystroke_k	k	n/a
381.645	0.12	763290	keystroke_e	e	n/a
381.781	0.136	763562	keystroke_n	n	n/a
381.885	0.128	763770	keystroke_Key.space	Key.space	n/a
382.045	0.0805	764090	keystroke_f	f	n/a
382.229	0.096	764458	keystroke_a	a	n/a
382.445	0.0885	764890	keystroke_v	v	n/a
382.525	0.088	765050	keystroke_o	o	n/a
382.685	0.12	765370	keystroke_r	r	n/a
382.805	0.152	765610	keystroke_Key.space	Key.space	n/a
382.981	0.112	765962	keystroke_p	p	n/a
383.333	0.096	766666	keystroke_e	e	n/a
383.389	0.104	766778	keystroke_l	l	n/a
383.6935	0.072	767387	keystroke_Key.backspace	Key.backspace	n/a
383.837	0.096	767674	keystroke_Key.backspace	Key.backspace	n/a
384.093	0.12	768186	keystroke_l	l	n/a
384.189	0.112	768378	keystroke_e	e	n/a
384.301	0.1525	768602	keystroke_a	a	n/a
384.461	0.056	768922	keystroke_s	s	n/a
384.637	0.1045	769274	keystroke_e	e	n/a
385.013	0.144	770026	keystroke_Key.space	Key.space	n/a
385.2455	0.0955	770491	keystroke_a	a	n/a
385.381	0.136	770762	keystroke_t	t	n/a
385.581	0.1045	771162	keystroke_l	l	n/a
385.7175	0.1275	771435	keystroke_a	a	n/a
385.853	0.1035	771706	keystroke_n	n	n/a
385.9735	0.111	771947	keystroke_t	t	n/a
386.077	0.1045	772154	keystroke_i	i	n/a
386.301	0.184	772602	keystroke_c	c	n/a
386.885	0.088	773770	keystroke_Key.enter	Key.enter	n/a
386.979	7.9715	773958	prompt	n/a	immediate deutsche officially postage\n
387.6775	0.1275	775355	keystroke_i	i	n/a
387.892	0.089	775784	keystroke_m	m	n/a
388.0765	0.0885	776153	keystroke_m	m	n/a
388.2205	0.1285	776441	keystroke_e	e	n/a
388.349	0.088	776698	keystroke_d	d	n/a
388.5095	0.08	777019	keystroke_i	i	n/a
388.637	0.0875	777274	keystroke_a	a	n/a
388.7805	0.096	777561	keystroke_t	t	n/a
388.845	0.1115	777690	keystroke_e	e	n/a
389.0535	0.1355	778107	keystroke_Key.space	Key.space	n/a
389.2925	0.072	778585	keystroke_d	d	n/a
389.565	0.12	779130	keystroke_e	e	n/a
389.677	0.072	779354	keystroke_u	u	n/a
389.821	0.096	779642	keystroke_t	t	n/a
390.1975	0.184	780395	keystroke_s	s	n/a
390.485	0.104	780970	keystroke_c	c	n/a
390.5895	0.0875	781179	keystroke_h	h	n/a
390.669	0.1355	781338	keystroke_e	e	n/a
390.8445	0.144	781689	keystroke_Key.space	Key.space	n/a
391.125	0.0965	782250	keystroke_o	o	n/a
391.2535	0.063	782507	keystroke_f	f	n/a
391.4205	0.072	782841	keystroke_f	f	n/a
391.5565	0.096	783113	keystroke_i	i	n/a
391.6765	0.1125	783353	keystroke_c	c	n/a
391.7805	0.1045	783561	keystroke_i	i	n/a
391.9085	0.1685	783817	keystroke_a	a	n/a
392.0845	0.0965	784169	keystroke_l	l	n/a
392.3325	0.081	784665	keystroke_l	l	n/a
392.557	0.12	785114	keystroke_y	y	n/a
392.733	0.152	785466	keystroke_Key.space	Key.space	n/a
392.949	0.128	785898	keystroke_p	p	n/a
393.0365	0.152	786073	keystroke_o	o	n/a
393.2125	0.1365	786425	keystroke_s	s	n/a
393.3405	0.136	786681	keystroke_t	t	n/a
393.517	0.0885	787034	keystroke_a	a	n/a
393.8125	0.12	787625	keystroke_e	e	n/a
394.1885	0.088	788377	keystroke_Key.backspace	Key.backspace	n/a
394.2925	0.12	788585	keystroke_g	g	n/a
394.357	0.1205	788714	keystroke_e	e	n/a
394.7645	0.184	789529	keystroke_Key.enter	Key.enter	n/a
394.955	5.613	789910	prompt	n/a	gotta funded pressed gifts\n
395.853	0.112	791706	keystroke_g	g	n/a
396.085	0.104	792170	keystroke_o	o	n/a
396.205	0.08	792410	keystroke_t	t	n/a
396.3725	0.1125	792745	keystroke_t	t	n/a
396.525	0.1035	793050	keystroke_a	a	n/a
396.6445	0.1125	793289	keystroke_Key.space	Key.space	n/a
396.82	0.112	793640	keystroke_f	f	n/a
396.9165	0.08	793833	keystroke_u	u	n/a
397.0535	0.12	794107	keystroke_n	n	n/a
397.1965	0.0565	794393	keystroke_d	d	n/a
397.2695	0.127	794539	keystroke_e	e	n/a
397.4045	0.096	794809	keystroke_d	d	n/a
397.764	0.1445	795528	keystroke_Key.space	Key.space	n/a
398.0285	0.096	796057	keystroke_p	p	n/a
398.205	0.1435	796410	keystroke_r	r	n/a
398.2845	0.145	796569	keystroke_e	e	n/a
398.5485	0.097	797097	keystroke_s	s	n/a
398.7405	0.1525	797481	keystroke_s	s	n/a
398.8775	0.1515	797755	keystroke_e	e	n/a
399.0125	0.1205	798025	keystroke_d	d	n/a
399.348	0.128	798696	keystroke_Key.space	Key.space	n/a
399.557	0.112	799114	keystroke_g	g	n/a
399.853	0.12	799706	keystroke_i	i	n/a
399.997	0.0635	799994	keystroke_f	f	n/a
400.197	0.128	800394	keystroke_t	t	n/a
400.317	0.08	800634	keystroke_s	s	n/a
400.469	0.0955	800938	keystroke_Key.enter	Key.enter	n/a
400.576	9.808	801152	prompt	n/a	particular utilization modes arthritis\n
401.269	0.08	802538	keystroke_a	a	n/a
401.597	0.08	803194	keystroke_Key.backspace	Key.backspace	n/a
401.8685	0.096	803737	keystroke_p	p	n/a
402.037	0.1035	804074	keystroke_a	a	n/a
402.1005	0.128	804201	keystroke_r	r	n/a
402.357	0.0715	804714	keystroke_t	t	n/a
402.4285	0.1205	804857	keystroke_i	i	n/a
402.805	0.112	805610	keystroke_c	c	n/a
402.877	0.096	805754	keystroke_u	u	n/a
403.101	0.072	806202	keystroke_l	l	n/a
403.221	0.128	806442	keystroke_a	a	n/a
403.349	0.112	806698	keystroke_r	r	n/a
403.517	0.144	807034	keystroke_Key.space	Key.space	n/a
403.725	0.096	807450	keystroke_u	u	n/a
403.893	0.104	807786	keystroke_t	t	n/a
404.061	0.104	808122	keystroke_i	i	n/a
404.269	0.0715	808538	keystroke_i	i	n/a
404.6845	0.072	809369	keystroke_Key.backspace	Key.backspace	n/a
404.9965	0.08	809993	keystroke_l	l	n/a
405.1725	0.096	810345	keystroke_i	i	n/a
405.3165	0.08	810633	keystroke_z	z	n/a
405.5485	0.0645	811097	keystroke_a	a	n/a
405.6365	0.136	811273	keystroke_t	t	n/a
405.6925	0.144	811385	keystroke_i	i	n/a
405.7735	0.111	811547	keystroke_o	o	n/a
405.941	0.1195	811882	keystroke_n	n	n/a
406.133	0.16	812266	keystroke_Key.space	Key.space	n/a
406.565	0.112	813130	keystroke_m	m	n/a
406.701	0.112	813402	keystroke_o	o	n/a
406.829	0.12	813658	keystroke_d	d	n/a
406.893	0.176	813786	keystroke_e	e	n/a
407.029	0.144	814058	keystroke_s	s	n/a
407.388	0.153	814776	keystroke_Key.space	Key.space	n/a
407.653	0.112	815306	keystroke_a	a	n/a
407.725	0.136	815450	keystroke_r	r	n/a
407.941	0.128	815882	keystroke_t	t	n/a
408.085	0.1115	816170	keystroke_h	h	n/a
408.2525	0.12	816505	keystroke_e	e	n/a
408.908	0.072	817816	keystroke_Key.backspace	Key.backspace	n/a
409.213	0.1035	818426	keystroke_r	r	n/a
409.284	0.105	818568	keystroke_i	i	n/a
409.453	0.096	818906	keystroke_t	t	n/a
409.541	0.096	819082	keystroke_i	i	n/a
409.893	0.104	819786	keystroke_s	s	n/a
410.285	0.096	820570	keystroke_Key.enter	Key.enter	n/a
410.3925	6.1575	820785	prompt	n/a	fruits hayes expedia company\n
411.164	0.0885	822328	keystroke_f	f	n/a
411.3885	0.08	822777	keystroke_r	r	n/a
411.4605	0.1355	822921	keystroke_u	u	n/a
411.5485	0.096	823097	keystroke_i	i	n/a
411.604	0.136	823208	keystroke_t	t	n/a
411.756	0.1605	823512	keystroke_s	s	n/a
411.956	0.144	823912	keystroke_Key.space	Key.space	n/a
412.108	0.121	824216	keystroke_h	h	n/a
412.245	0.127	824490	keystroke_a	a	n/a
412.413	0.144	824826	keystroke_y	y	n/a
412.709	0.152	825418	keystroke_e	e	n/a
412.797	0.112	825594	keystroke_s	s	n/a
412.932	0.104	825864	keystroke_Key.space	Key.space	n/a
413.149	0.079	826298	keystroke_e	e	n/a
413.652	0.088	827304	keystroke_x	x	n/a
413.828	0.168	827656	keystroke_p	p	n/a
414.1165	0.16	828233	keystroke_e	e	n/a
414.3565	0.112	828713	keystroke_d	d	n/a
414.461	0.0955	828922	keystroke_i	i	n/a
414.597	0.104	829194	keystroke_a	a	n/a
414.868	0.1365	829736	keystroke_Key.space	Key.space	n/a
415.2205	0.152	830441	keystroke_c	c	n/a
415.3085	0.0805	830617	keystroke_o	o	n/a
415.4525	0.112	830905	keystroke_m	m	n/a
415.661	0.1195	831322	keystroke_p	p	n/a
415.8285	0.128	831657	keystroke_a	a	n/a
415.9405	0.0805	831881	keystroke_n	n	n/a
416.1005	0.1115	832201	keystroke_y	y	n/a
416.4845	0.064	832969	keystroke_Key.enter	Key.enter	n/a
416.554	7.228	833108	prompt	n/a	its culture infectious heating\n
417.1885	0.0885	834377	keystroke_i	i	n/a
417.493	0.159	834986	keystroke_t	t	n/a
417.661	0.1195	835322	keystroke_s	s	n/a
417.8125	0.104	835625	keystroke_Key.space	Key.space	n/a
417.9965	0.1035	835993	keystroke_c	c	n/a
418.0445	0.096	836089	keystroke_u	u	n/a
418.476	0.0885	836952	keystroke_l	l	n/a
418.5965	0.128	837193	keystroke_t	t	n/a
419.0445	0.104	838089	keystroke_u	u	n/a
419.1715	0.136	838343	keystroke_r	r	n/a
419.2765	0.152	838553	keystroke_e	e	n/a
419.4195	0.137	838839	keystroke_Key.space	Key.space	n/a
419.5725	0.112	839145	keystroke_i	i	n/a
419.9165	0.104	839833	keystroke_n	n	n/a
420.2605	0.0875	840521	keystroke_f	f	n/a
420.364	0.1125	840728	keystroke_e	e	n/a
420.5165	0.088	841033	keystroke_c	c	n/a
420.7805	0.104	841561	keystroke_t	t	n/a
420.9485	0.12	841897	keystroke_o	o	n/a
421.5085	0.064	843017	keystroke_Key.backspace	Key.backspace	n/a
421.757	0.1515	843514	keystroke_i	i	n/a
421.8445	0.1355	843689	keystroke_o	o	n/a
422.1005	0.112	844201	keystroke_u	u	n/a
422.2205	0.12	844441	keystroke_s	s	n/a
422.3245	0.152	844649	keystroke_Key.space	Key.space	n/a
422.6765	0.1355	845353	keystroke_h	h	n/a
422.8205	0.136	845641	keystroke_e	e	n/a
423.076	0.096	846152	keystroke_a	a	n/a
423.149	0.1355	846298	keystroke_t	t	n/a
423.236	0.081	846472	keystroke_i	i	n/a
423.372	0.112	846744	keystroke_n	n	n/a
423.4925	0.1355	846985	keystroke_g	g	n/a
423.724	0.056	847448	keystroke_Key.enter	Key.enter	n/a
423.7865	5.9555	847573	prompt	n/a	holiday itself headline march\n
424.3565	0.096	848713	keystroke_h	h	n/a
424.4925	0.096	848985	keystroke_o	o	n/a
424.7165	0.056	849433	keystroke_l	l	n/a
424.8605	0.104	849721	keystroke_i	i	n/a
424.9565	0.136	849913	keystroke_d	d	n/a
425.1325	0.128	850265	keystroke_a	a	n/a
425.2605	0.096	850521	keystroke_y	y	n/a
425.4685	0.0875	850937	keystroke_Key.space	Key.space	n/a
425.668	0.0965	851336	keystroke_i	i	n/a
425.933	0.071	851866	keystroke_t	t	n/a
426.1725	0.104	852345	keystroke_s	s	n/a
426.3325	0.152	852665	keystroke_e	e	n/a
426.4285	0.0885	852857	keystroke_l	l	n/a
426.5725	0.095	853145	keystroke_f	f	n/a
426.924	0.16	853848	keystroke_Key.space	Key.space	n/a
427.1725	0.096	854345	keystroke_h	h	n/a
427.2845	0.128	854569	keystroke_e	e	n/a
427.4285	0.16	854857	keystroke_a	a	n/a
427.5805	0.104	855161	keystroke_d	d	n/a
427.7405	0.112	855481	keystroke_l	l	n/a
427.837	0.0955	855674	keystroke_i	i	n/a
428.0125	0.1045	856025	keystroke_n	n	n/a
428.1885	0.1205	856377	keystroke_e	e	n/a
428.572	0.1435	857144	keystroke_Key.space	Key.space	n/a
428.7805	0.1195	857561	keystroke_m	m	n/a
428.9085	0.1355	857817	keystroke_a	a	n/a
429.0045	0.111	858009	keystroke_r	r	n/a
429.2845	0.1435	858569	keystroke_c	c	n/a
429.356	0.0955	858712	keystroke_h	h	n/a
429.6675	0.0725	859335	keystroke_Key.enter	Key.enter	n/a
429.746	5.204	859492	prompt	n/a	include jack latitude miami\n
430.2205	0.104	860441	keystroke_i	i	n/a
430.4365	0.0965	860873	keystroke_n	n	n/a
430.5485	0.136	861097	keystroke_c	c	n/a
430.6365	0.079	861273	keystroke_l	l	n/a
430.8355	0.1125	861671	keystroke_u	u	n/a
430.949	0.087	861898	keystroke_d	d	n/a
430.988	0.168	861976	keystroke_e	e	n/a
431.1405	0.1515	862281	keystroke_Key.space	Key.space	n/a
431.276	0.136	862552	keystroke_j	j	n/a
431.444	0.1365	862888	keystroke_a	a	n/a
431.812	0.16	863624	keystroke_c	c	n/a
431.9005	0.0875	863801	keystroke_k	k	n/a
431.98	0.145	863960	keystroke_Key.space	Key.space	n/a
432.3475	0.121	864695	keystroke_l	l	n/a
432.4925	0.1275	864985	keystroke_a	a	n/a
432.604	0.1365	865208	keystroke_t	t	n/a
432.7565	0.103	865513	keystroke_i	i	n/a
432.8765	0.104	865753	keystroke_t	t	n/a
433.0525	0.064	866105	keystroke_u	u	n/a
433.421	0.0955	866842	keystroke_d	d	n/a
433.4835	0.12	866967	keystroke_e	e	n/a
433.6595	0.145	867319	keystroke_Key.space	Key.space	n/a
433.8765	0.127	867753	keystroke_m	m	n/a
434.0365	0.1195	868073	keystroke_i	i	n/a
434.18	0.1205	868360	keystroke_a	a	n/a
434.444	0.104	868888	keystroke_m	m	n/a
434.5245	0.1275	869049	keystroke_i	i	n/a
434.868	0.08	869736	keystroke_Key.enter	Key.enter	n/a
434.9565	6.3695	869913	prompt	n/a	talked spiritual consist creatures\n
435.716	0.144	871432	keystroke_t	t	n/a
435.908	0.0965	871816	keystroke_a	a	n/a
435.988	0.1365	871976	keystroke_l	l	n/a
436.044	0.1285	872088	keystroke_k	k	n/a
436.1805	0.144	872361	keystroke_e	e	n/a
436.3165	0.12	872633	keystroke_d	d	n/a
436.4685	0.12	872937	keystroke_Key.space	Key.space	n/a
436.6445	0.1195	873289	keystroke_s	s	n/a
436.756	0.08	873512	keystroke_p	p	n/a
436.9725	0.104	873945	keystroke_i	i	n/a
437.084	0.104	874168	keystroke_r	r	n/a
437.196	0.096	874392	keystroke_i	i	n/a
437.348	0.128	874696	keystroke_t	t	n/a
437.596	0.104	875192	keystroke_u	u	n/a
437.876	0.088	875752	keystroke_a	a	n/a
438.0365	0.1115	876073	keystroke_l	l	n/a
438.228	0.1445	876456	keystroke_Key.space	Key.space	n/a
438.612	0.16	877224	keystroke_c	c	n/a
438.668	0.088	877336	keystroke_o	o	n/a
438.8525	0.1115	877705	keystroke_n	n	n/a
438.996	0.144	877992	keystroke_s	s	n/a
439.1565	0.0715	878313	keystroke_i	i	n/a
439.26	0.096	878520	keystroke_s	s	n/a
439.38	0.136	878760	keystroke_t	t	n/a
439.588	0.144	879176	keystroke_Key.space	Key.space	n/a
439.876	0.136	879752	keystroke_c	c	n/a
440.188	0.136	880376	keystroke_r	r	n/a
440.3315	0.184	880663	keystroke_e	e	n/a
440.4995	0.065	880999	keystroke_a	a	n/a
440.548	0.1035	881096	keystroke_t	t	n/a
440.668	0.112	881336	keystroke_u	u	n/a
440.7885	0.1275	881577	keystroke_r	r	n/a
440.8355	0.1765	881671	keystroke_e	e	n/a
440.9405	0.1755	881881	keystroke_s	s	n/a
441.22	0.104	882440	keystroke_Key.enter	Key.enter	n/a
441.33	7.5955	882660	prompt	n/a	expo instrument consideration team\n
442.1	0.104	884200	keystroke_e	e	n/a
442.3485	0.128	884697	keystroke_x	x	n/a
442.4525	0.128	884905	keystroke_p	p	n/a
442.5645	0.136	885129	keystroke_o	o	n/a
442.7245	0.152	885449	keystroke_Key.space	Key.space	n/a
442.9405	0.0795	885881	keystroke_i	i	n/a
443.1645	0.104	886329	keystroke_n	n	n/a
443.2685	0.088	886537	keystroke_s	s	n/a
443.3485	0.104	886697	keystroke_t	t	n/a
443.572	0.104	887144	keystroke_r	r	n/a
443.66	0.064	887320	keystroke_u	u	n/a
443.98	0.096	887960	keystroke_e	e	n/a
444.0845	0.0555	888169	keystroke_m	m	n/a
444.332	0.064	888664	keystroke_Key.backspace	Key.backspace	n/a
444.4275	0.112	888855	keystroke_Key.backspace	Key.backspace	n/a
444.868	0.1045	889736	keystroke_m	m	n/a
444.98	0.136	889960	keystroke_e	e	n/a
445.108	0.104	890216	keystroke_n	n	n/a
445.164	0.152	890328	keystroke_t	t	n/a
445.3405	0.1115	890681	keystroke_Key.space	Key.space	n/a
445.5645	0.1435	891129	keystroke_c	c	n/a
445.9885	0.071	891977	keystroke_o	o	n/a
446.517	0.103	893034	keystroke_n	n	n/a
446.636	0.144	893272	keystroke_s	s	n/a
446.756	0.112	893512	keystroke_i	i	n/a
446.924	0.0725	893848	keystroke_d	d	n/a
447.22	0.104	894440	keystroke_e	e	n/a
447.2765	0.1835	894553	keystroke_r	r	n/a
447.588	0.112	895176	keystroke_a	a	n/a
447.708	0.1205	895416	keystroke_t	t	n/a
447.796	0.112	895592	keystroke_i	i	n/a
447.8765	0.0715	895753	keystroke_o	o	n/a
448.0115	0.1125	896023	keystroke_n	n	n/a
448.116	0.152	896232	keystroke_Key.space	Key.space	n/a
448.26	0.144	896520	keystroke_t	t	n/a
448.388	0.1045	896776	keystroke_e	e	n/a
448.508	0.1525	897016	keystroke_a	a	n/a
448.564	0.1125	897128	keystroke_m	m	n/a
448.8605	0.0635	897721	keystroke_Key.enter	Key.enter	n/a
448.9285	7.349	897857	prompt	n/a	prevention thongs declare condition\n
449.436	0.064	898872	keystroke_e	e	n/a
449.812	0.064	899624	keystroke_Key.backspace	Key.backspace	n/a
450.06	0.12	900120	keystroke_p	p	n/a
450.14	0.1125	900280	keystroke_r	r	n/a
450.212	0.128	900424	keystroke_e	e	n/a
450.4605	0.1275	900921	keystroke_v	v	n/a
450.564	0.152	901128	keystroke_e	e	n/a
450.708	0.128	901416	keystroke_n	n	n/a
450.836	0.1275	901672	keystroke_t	t	n/a
451.0685	0.119	902137	keystroke_i	i	n/a
451.14	0.104	902280	keystroke_o	o	n/a
451.276	0.136	902552	keystroke_n	n	n/a
451.372	0.1595	902744	keystroke_Key.space	Key.space	n/a
451.54	0.144	903080	keystroke_t	t	n/a
451.644	0.088	903288	keystroke_h	h	n/a
451.764	0.104	903528	keystroke_o	o	n/a
451.932	0.112	903864	keystroke_n	n	n/a
452.02	0.1125	904040	keystroke_g	g	n/a
452.1395	0.089	904279	keystroke_s	s	n/a
452.2435	0.1365	904487	keystroke_Key.space	Key.space	n/a
452.4995	0.1205	904999	keystroke_d	d	n/a
452.5795	0.169	905159	keystroke_e	e	n/a
452.7955	0.152	905591	keystroke_c	c	n/a
452.9555	0.096	905911	keystroke_l	l	n/a
453.0925	0.095	906185	keystroke_a	a	n/a
453.252	0.136	906504	keystroke_r	r	n/a
453.3325	0.1355	906665	keystroke_e	e	n/a
453.532	0.12	907064	keystroke_Key.space	Key.space	n/a
453.98	0.128	907960	keystroke_c	c	n/a
454.092	0.072	908184	keystroke_o	o	n/a
454.3165	0.1025	908633	keystroke_n	n	n/a
454.5315	0.129	909063	keystroke_d	d	n/a
454.6195	0.105	909239	keystroke_i	i	n/a
454.7955	0.1285	909591	keystroke_t	t	n/a
454.8355	0.1285	909671	keystroke_i	i	n/a
455.028	0.1045	910056	keystroke_n	n	n/a
455.483	0.089	910966	keystroke_Key.backspace	Key.backspace	n/a
455.756	0.096	911512	keystroke_o	o	n/a
455.9245	0.0955	911849	keystroke_n	n	n/a
456.2115	0.064	912423	keystroke_Key.enter	Key.enter	n/a
456.282	6.324	912564	prompt	n/a	dancing fail performances hazard\n
457.1075	0.12	914215	keystroke_d	d	n/a
457.2515	0.0965	914503	keystroke_a	a	n/a
457.3795	0.072	914759	keystroke_n	n	n/a
457.4595	0.112	914919	keystroke_c	c	n/a
457.5475	0.104	915095	keystroke_i	i	n/a
457.7235	0.104	915447	keystroke_n	n	n/a
457.868	0.1355	915736	keystroke_g	g	n/a
458.131	0.1605	916262	keystroke_Key.space	Key.space	n/a
458.3955	0.0885	916791	keystroke_f	f	n/a
458.5485	0.127	917097	keystroke_a	a	n/a
458.6035	0.136	917207	keystroke_i	i	n/a
458.692	0.096	917384	keystroke_l	l	n/a
458.82	0.1595	917640	keystroke_Key.space	Key.space	n/a
459.108	0.0875	918216	keystroke_p	p	n/a
459.4835	0.1525	918967	keystroke_e	e	n/a
459.5795	0.1525	919159	keystroke_r	r	n/a
459.9315	0.0885	919863	keystroke_f	f	n/a
460.012	0.104	920024	keystroke_o	o	n/a
460.188	0.128	920376	keystroke_r	r	n/a
460.3325	0.0875	920665	keystroke_m	m	n/a
460.5	0.0955	921000	keystroke_a	a	n/a
460.652	0.08	921304	keystroke_n	n	n/a
460.812	0.136	921624	keystroke_c	c	n/a
460.932	0.08	921864	keystroke_e	e	n/a
461.212	0.152	922424	keystroke_s	s	n/a
461.412	0.112	922824	keystroke_Key.space	Key.space	n/a
461.532	0.12	923064	keystroke_h	h	n/a
461.628	0.08	923256	keystroke_a	a	n/a
461.852	0.096	923704	keystroke_z	z	n/a
462.084	0.111	924168	keystroke_a	a	n/a
462.1635	0.1195	924327	keystroke_r	r	n/a
462.3875	0.12	924775	keystroke_d	d	n/a
462.508	0.095	925016	keystroke_Key.enter	Key.enter	n/a
462.61	6.2435	925220	prompt	n/a	quiet triumph warm grace\n
463.524	0.0955	927048	keystroke_q	q	n/a
463.604	0.12	927208	keystroke_u	u	n/a
463.684	0.112	927368	keystroke_i	i	n/a
463.804	0.1275	927608	keystroke_e	e	n/a
463.9075	0.136	927815	keystroke_t	t	n/a
464.052	0.128	928104	keystroke_Key.space	Key.space	n/a
464.284	0.088	928568	keystroke_t	t	n/a
464.548	0.112	929096	keystroke_r	r	n/a
464.7	0.12	929400	keystroke_i	i	n/a
464.9565	0.0795	929913	keystroke_u	u	n/a
465.172	0.112	930344	keystroke_m	m	n/a
465.3965	0.111	930793	keystroke_p	p	n/a
465.732	0.1035	931464	keystroke_h	h	n/a
466.395	0.144	932790	keystroke_Key.space	Key.space	n/a
466.732	0.1755	933464	keystroke_w	w	n/a
466.8755	0.144	933751	keystroke_a	a	n/a
467.1075	0.1045	934215	keystroke_r	r	n/a
467.203	0.088	934406	keystroke_m	m	n/a
467.3395	0.1355	934679	keystroke_Key.space	Key.space	n/a
467.532	0.096	935064	keystroke_g	g	n/a
467.772	0.104	935544	keystroke_r	r	n/a
467.868	0.1195	935736	keystroke_a	a	n/a
468.0755	0.12	936151	keystroke_c	c	n/a
468.1395	0.112	936279	keystroke_e	e	n/a
468.772	0.0795	937544	keystroke_Key.enter	Key.enter	n/a
468.858	9.1155	937716	prompt	n/a	moisture boats telecharger canyon\n
469.5235	0.072	939047	keystroke_n	n	n/a
469.8435	0.096	939687	keystroke_Key.backspace	Key.backspace	n/a
470.1315	0.12	940263	keystroke_m	m	n/a
470.2435	0.1685	940487	keystroke_o	o	n/a
470.364	0.136	940728	keystroke_i	i	n/a
470.763	0.128	941526	keystroke_s	s	n/a
470.844	0.1355	941688	keystroke_t	t	n/a
471.0035	0.128	942007	keystroke_u	u	n/a
471.1395	0.088	942279	keystroke_r	r	n/a
471.164	0.1515	942328	keystroke_e	e	n/a
471.4275	0.136	942855	keystroke_Key.space	Key.space	n/a
471.7075	0.096	943415	keystroke_b	b	n/a
471.9235	0.112	943847	keystroke_o	o	n/a
472.0675	0.136	944135	keystroke_a	a	n/a
472.2275	0.16	944455	keystroke_t	t	n/a
472.58	0.1595	945160	keystroke_s	s	n/a
472.7555	0.128	945511	keystroke_Key.space	Key.space	n/a
473.092	0.144	946184	keystroke_t	t	n/a
473.3075	0.088	946615	keystroke_e	e	n/a
473.4275	0.0805	946855	keystroke_l	l	n/a
473.516	0.0955	947032	keystroke_e	e	n/a
474.0755	0.136	948151	keystroke_c	c	n/a
474.2125	0.1185	948425	keystroke_h	h	n/a
474.3475	0.1205	948695	keystroke_a	a	n/a
474.4595	0.1285	948919	keystroke_r	r	n/a
474.723	0.0805	949446	keystroke_g	g	n/a
