onset	duration	sample	value	key	prompt_text
13.033	30.066	26066	prompt	n/a	the quick brown fox jumps over a lazy dog\n
26.1615	0.12	52323	keystroke_t	t	n/a
26.3715	0.12	52743	keystroke_h	h	n/a
26.5365	0.135	53073	keystroke_e	e	n/a
27.2565	0.075	54513	keystroke_Key.space	Key.space	n/a
27.602	0.119	55204	keystroke_q	q	n/a
27.751	0.105	55502	keystroke_u	u	n/a
27.886	0.121	55772	keystroke_i	i	n/a
28.171	0.121	56342	keystroke_c	c	n/a
28.651	0.105	57302	keystroke_k	k	n/a
28.861	0.09	57722	keystroke_Key.space	Key.space	n/a
29.341	0.105	58682	keystroke_b	b	n/a
29.791	0.105	59582	keystroke_r	r	n/a
29.956	0.075	59912	keystroke_o	o	n/a
30.9615	0.03	61923	keystroke_w	w	n/a
31.682	0.075	63364	keystroke_n	n	n/a
31.892	0.09	63784	keystroke_Key.space	Key.space	n/a
32.447	0.09	64894	keystroke_f	f	n/a
32.732	0.06	65464	keystroke_o	o	n/a
33.766	0.105	67532	keystroke_x	x	n/a
33.916	0.09	67832	keystroke_Key.space	Key.space	n/a
34.1715	0.075	68343	keystroke_j	j	n/a
34.3665	0.075	68733	keystroke_u	u	n/a
34.6065	0.09	69213	keystroke_m	m	n/a
34.6965	0.15	69393	keystroke_p	p	n/a
34.9215	0.135	69843	keystroke_s	s	n/a
35.1015	0.105	70203	keystroke_Key.space	Key.space	n/a
35.3265	0.1055	70653	keystroke_p	p	n/a
36.617	0.075	73234	keystroke_Key.backspace	Key.backspace	n/a
36.992	0.06	73984	keystroke_o	o	n/a
37.367	0.1195	74734	keystroke_v	v	n/a
37.6215	0.15	75243	keystroke_e	e	n/a
37.7115	0.105	75423	keystroke_r	r	n/a
37.8465	0.12	75693	keystroke_Key.space	Key.space	n/a
38.0415	0.12	76083	keystroke_t	t	n/a
38.1765	0.09	76353	keystroke_h	h	n/a
38.3565	0.12	76713	keystroke_e	e	n/a
38.6565	0.09	77313	keystroke_Key.space	Key.space	n/a
39.2565	0.105	78513	keystroke_l	l	n/a
39.5715	0.12	79143	keystroke_a	a	n/a
39.9015	0.12	79803	keystroke_z	z	n/a
40.0965	0.12	80193	keystroke_y	y	n/a
40.3215	0.0755	80643	keystroke_Key.space	Key.space	n/a
41.687	0.105	83374	keystroke_d	d	n/a
41.882	0.12	83764	keystroke_o	o	n/a
42.152	0.135	84304	keystroke_g	g	n/a
43.007	0.09	86014	keystroke_Key.enter	Key.enter	n/a
43.1045	15.129	86209	prompt	n/a	poultry powell pond systematic\n
44.416	0.136	88832	keystroke_o	o	n/a
45.4665	0.09	90933	keystroke_Key.backspace	Key.backspace	n/a
46.187	0.09	92374	keystroke_p	p	n/a
46.817	0.12	93634	keystroke_o	o	n/a
46.862	0.12	93724	keystroke_u	u	n/a
49.279	0.027	98558	keystroke_l	l	n/a
49.516	0.15	99032	keystroke_t	t	n/a
49.711	0.091	99422	keystroke_u	u	n/a
50.537	0.059	101074	keystroke_r	r	n/a
50.866	0.105	101732	keystroke_y	y	n/a
51.1215	0.1205	102243	keystroke_Key.space	Key.space	n/a
51.677	0.045	103354	keystroke_p	p	n/a
52.0515	0.09	104103	keystroke_o	o	n/a
52.2765	0.135	104553	keystroke_w	w	n/a
52.4265	0.18	104853	keystroke_e	e	n/a
53.1465	0.06	106293	keystroke_l	l	n/a
53.2815	0.09	106563	keystroke_l	l	n/a
53.6865	0.15	107373	keystroke_Key.space	Key.space	n/a
54.0765	0.135	108153	keystroke_p	p	n/a
54.2565	0.135	108513	keystroke_o	o	n/a
54.6165	0.12	109233	keystroke_n	n	n/a
54.7965	0.165	109593	keystroke_d	d	n/a
55.1415	0.12	110283	keystroke_Key.space	Key.space	n/a
55.6065	0.12	111213	keystroke_s	s	n/a
55.6965	0.12	111393	keystroke_y	y	n/a
55.9215	0.1505	111843	keystroke_s	s	n/a
56.2515	0.105	112503	keystroke_t	t	n/a
56.4615	0.135	112923	keystroke_e	e	n/a
56.6415	0.12	113283	keystroke_m	m	n/a
56.8965	0.135	113793	keystroke_a	a	n/a
57.3015	0.135	114603	keystroke_t	t	n/a
57.4215	0.12	114843	keystroke_i	i	n/a
57.6465	0.165	115293	keystroke_c	c	n/a
58.0965	0.135	116193	keystroke_Key.enter	Key.enter	n/a
58.236	15.388	116472	prompt	n/a	lucia competitive fever frame\n
59.1915	0.045	118383	keystroke_l	l	n/a
59.2665	0.03	118533	keystroke_l	l	n/a
60.197	0.12	120394	keystroke_u	u	n/a
60.437	0.135	120874	keystroke_c	c	n/a
60.722	0.105	121444	keystroke_i	i	n/a
60.992	0.12	121984	keystroke_a	a	n/a
61.172	0.12	122344	keystroke_Key.space	Key.space	n/a
61.532	0.12	123064	keystroke_c	c	n/a
61.607	0.27	123214	keystroke_o	o	n/a
61.787	0.105	123574	keystroke_m	m	n/a
61.982	0.105	123964	keystroke_p	p	n/a
62.222	0.15	124444	keystroke_t	t	n/a
64.909	0.088	129818	keystroke_Key.backspace	Key.backspace	n/a
65.342	0.135	130684	keystroke_e	e	n/a
65.447	0.12	130894	keystroke_t	t	n/a
65.837	0.135	131674	keystroke_i	i	n/a
65.987	0.15	131974	keystroke_t	t	n/a
66.691	0.09	133382	keystroke_i	i	n/a
66.842	0.165	133684	keystroke_v	v	n/a
67.066	0.15	134132	keystroke_e	e	n/a
67.246	0.09	134492	keystroke_Key.space	Key.space	n/a
67.6365	0.15	135273	keystroke_f	f	n/a
67.8315	0.18	135663	keystroke_e	e	n/a
68.0265	0.09	136053	keystroke_r	r	n/a
68.7315	0.09	137463	keystroke_Key.backspace	Key.backspace	n/a
69.1065	0.135	138213	keystroke_v	v	n/a
69.3315	0.15	138663	keystroke_e	e	n/a
69.4215	0.135	138843	keystroke_r	r	n/a
69.5715	0.1055	139143	keystroke_Key.space	Key.space	n/a
69.977	0.09	139954	keystroke_f	f	n/a
70.292	0.135	140584	keystroke_r	r	n/a
70.547	0.09	141094	keystroke_e	e	n/a
72.1515	0.09	144303	keystroke_Key.backspace	Key.backspace	n/a
72.601	0.106	145202	keystroke_a	a	n/a
72.767	0.105	145534	keystroke_m	m	n/a
73.006	0.106	146012	keystroke_e	e	n/a
73.546	0.076	147092	keystroke_Key.enter	Key.enter	n/a
73.6265	12.3565	147253	prompt	n/a	keys pharmaceutical containing traveler\n
74.447	0.12	148894	keystroke_k	k	n/a
74.551	0.15	149102	keystroke_e	e	n/a
74.761	0.12	149522	keystroke_y	y	n/a
75.001	0.105	150002	keystroke_Key.space	Key.space	n/a
75.4065	0.12	150813	keystroke_p	p	n/a
75.5715	0.12	151143	keystroke_h	h	n/a
75.8715	0.105	151743	keystroke_a	a	n/a
76.4415	0.15	152883	keystroke_r	r	n/a
76.6665	0.12	153333	keystroke_m	m	n/a
76.8615	0.135	153723	keystroke_a	a	n/a
78.0325	0.164	156065	keystroke_c	c	n/a
78.7825	0.119	157565	keystroke_e	e	n/a
79.1415	0.15	158283	keystroke_u	u	n/a
79.5615	0.15	159123	keystroke_t	t	n/a
79.6815	0.12	159363	keystroke_i	i	n/a
79.9965	0.165	159993	keystroke_c	c	n/a
80.1465	0.135	160293	keystroke_a	a	n/a
80.2665	0.15	160533	keystroke_l	l	n/a
80.5365	0.105	161073	keystroke_Key.space	Key.space	n/a
81.1215	0.1355	162243	keystroke_c	c	n/a
81.2115	0.1955	162423	keystroke_o	o	n/a
81.332	0.09	162664	keystroke_n	n	n/a
81.617	0.12	163234	keystroke_t	t	n/a
81.827	0.15	163654	keystroke_a	a	n/a
81.947	0.225	163894	keystroke_i	i	n/a
82.292	0.09	164584	keystroke_n	n	n/a
82.592	0.15	165184	keystroke_i	i	n/a
82.667	0.135	165334	keystroke_n	n	n/a
82.832	0.15	165664	keystroke_g	g	n/a
83.012	0.135	166024	keystroke_Key.space	Key.space	n/a
83.687	0.12	167374	keystroke_t	t	n/a
83.942	0.135	167884	keystroke_r	r	n/a
84.152	0.12	168304	keystroke_a	a	n/a
84.512	0.12	169024	keystroke_v	v	n/a
84.692	0.135	169384	keystroke_e	e	n/a
84.962	0.09	169924	keystroke_l	l	n/a
85.382	0.195	170764	keystroke_e	e	n/a
85.547	0.1195	171094	keystroke_r	r	n/a
85.8165	0.165	171633	keystroke_Key.enter	Key.enter	n/a
85.9865	12.5365	171973	prompt	n/a	organizer paradise temporal package\n
86.7015	0.12	173403	keystroke_o	o	n/a
87.2265	0.12	174453	keystroke_r	r	n/a
87.6765	0.105	175353	keystroke_g	g	n/a
88.0515	0.105	176103	keystroke_a	a	n/a
88.1865	0.105	176373	keystroke_n	n	n/a
88.5765	0.12	177153	keystroke_i	i	n/a
88.8015	0.15	177603	keystroke_z	z	n/a
89.0415	0.195	178083	keystroke_e	e	n/a
89.1315	0.15	178263	keystroke_r	r	n/a
89.2965	0.135	178593	keystroke_Key.space	Key.space	n/a
89.7465	0.075	179493	keystroke_p	p	n/a
89.8965	0.105	179793	keystroke_a	a	n/a
90.287	0.135	180574	keystroke_r	r	n/a
90.467	0.135	180934	keystroke_a	a	n/a
91.142	0.12	182284	keystroke_d	d	n/a
91.397	0.075	182794	keystroke_i	i	n/a
91.772	0.195	183544	keystroke_s	s	n/a
91.907	0.15	183814	keystroke_e	e	n/a
92.237	0.105	184474	keystroke_Key.space	Key.space	n/a
92.807	0.135	185614	keystroke_t	t	n/a
93.107	0.105	186214	keystroke_e	e	n/a
93.497	0.135	186994	keystroke_m	m	n/a
93.662	0.12	187324	keystroke_p	p	n/a
93.9015	0.105	187803	keystroke_o	o	n/a
94.1115	0.135	188223	keystroke_r	r	n/a
94.3515	0.12	188703	keystroke_a	a	n/a
95.1165	0.165	190233	keystroke_l	l	n/a
95.8215	0.12	191643	keystroke_Key.space	Key.space	n/a
96.2715	0.0455	192543	keystroke_p	p	n/a
96.332	0.135	192664	keystroke_a	a	n/a
96.632	0.135	193264	keystroke_c	c	n/a
96.737	0.09	193474	keystroke_k	k	n/a
97.3515	0.135	194703	keystroke_a	a	n/a
97.891	0.106	195782	keystroke_g	g	n/a
98.071	0.151	196142	keystroke_e	e	n/a
98.416	0.105	196832	keystroke_Key.enter	Key.enter	n/a
98.5265	12.747	197053	prompt	n/a	sweet divine summaries swing\n
99.332	0.1195	198664	keystroke_s	s	n/a
99.5265	0.09	199053	keystroke_e	e	n/a
101.2815	0.09	202563	keystroke_Key.backspace	Key.backspace	n/a
101.6715	0.105	203343	keystroke_w	w	n/a
101.927	0.075	203854	keystroke_e	e	n/a
102.092	0.09	204184	keystroke_e	e	n/a
102.542	0.09	205084	keystroke_t	t	n/a
102.752	0.105	205504	keystroke_Key.space	Key.space	n/a
103.037	0.135	206074	keystroke_d	d	n/a
103.202	0.09	206404	keystroke_i	i	n/a
103.517	0.105	207034	keystroke_v	v	n/a
104.057	0.12	208114	keystroke_i	i	n/a
104.237	0.105	208474	keystroke_n	n	n/a
104.372	0.15	208744	keystroke_e	e	n/a
104.687	0.105	209374	keystroke_Key.space	Key.space	n/a
105.017	0.134	210034	keystroke_s	s	n/a
105.197	0.119	210394	keystroke_u	u	n/a
105.512	0.119	211024	keystroke_m	m	n/a
105.781	0.15	211562	keystroke_a	a	n/a
106.9665	0.12	213933	keystroke_r	r	n/a
107.1315	0.105	214263	keystroke_i	i	n/a
107.4915	0.165	214983	keystroke_e	e	n/a
107.7315	0.165	215463	keystroke_s	s	n/a
109.7265	0.09	219453	keystroke_Key.space	Key.space	n/a
110.0415	0.105	220083	keystroke_s	s	n/a
110.2665	0.135	220533	keystroke_w	w	n/a
110.4315	0.12	220863	keystroke_i	i	n/a
110.4915	0.135	220983	keystroke_n	n	n/a
110.7165	0.12	221433	keystroke_g	g	n/a
111.1515	0.12	222303	keystroke_Key.enter	Key.enter	n/a
111.2765	10.4365	222553	prompt	n/a	advertising seeker breath hist\n
112.817	0.135	225634	keystroke_a	a	n/a
113.147	0.06	226294	keystroke_d	d	n/a
114.3765	0.09	228753	keystroke_v	v	n/a
114.6465	0.195	229293	keystroke_e	e	n/a
114.7815	0.12	229563	keystroke_r	r	n/a
115.3365	0.15	230673	keystroke_r	r	n/a
115.4715	0.105	230943	keystroke_i	i	n/a
115.7865	0.135	231573	keystroke_s	s	n/a
115.9365	0.105	231873	keystroke_i	i	n/a
116.1315	0.135	232263	keystroke_n	n	n/a
116.2965	0.135	232593	keystroke_g	g	n/a
116.6865	0.045	233373	keystroke_Key.space	Key.space	n/a
116.8215	0.105	233643	keystroke_s	s	n/a
117.2715	0.075	234543	keystroke_e	e	n/a
117.4365	0.12	234873	keystroke_e	e	n/a
117.7965	0.12	235593	keystroke_k	k	n/a
117.9465	0.165	235893	keystroke_e	e	n/a
118.0515	0.135	236103	keystroke_r	r	n/a
118.3065	0.12	236613	keystroke_Key.space	Key.space	n/a
118.5765	0.105	237153	keystroke_b	b	n/a
119.372	0.165	238744	keystroke_r	r	n/a
119.522	0.165	239044	keystroke_e	e	n/a
119.657	0.24	239314	keystroke_a	a	n/a
119.882	0.18	239764	keystroke_t	t	n/a
120.077	0.135	240154	keystroke_h	h	n/a
120.347	0.105	240694	keystroke_Key.space	Key.space	n/a
120.692	0.105	241384	keystroke_h	h	n/a
120.917	0.09	241834	keystroke_i	i	n/a
121.052	0.135	242104	keystroke_s	s	n/a
121.217	0.165	242434	keystroke_t	t	n/a
121.562	0.15	243124	keystroke_Key.enter	Key.enter	n/a
121.7175	35.5465	243435	prompt	n/a	bids simpson enforcement recommendations\n
122.777	0.135	245554	keystroke_v	v	n/a
123.002	0.12	246004	keystroke_i	i	n/a
123.617	0.075	247234	keystroke_Key.backspace	Key.backspace	n/a
123.962	0.135	247924	keystroke_Key.backspace	Key.backspace	n/a
124.787	0.06	249574	keystroke_b	b	n/a
126.347	0.06	252694	keystroke_i	i	n/a
126.902	0.15	253804	keystroke_d	d	n/a
127.036	0.166	254072	keystroke_s	s	n/a
127.292	0.09	254584	keystroke_Key.space	Key.space	n/a
127.727	0.12	255454	keystroke_s	s	n/a
127.877	0.12	255754	keystroke_i	i	n/a
128.132	0.12	256264	keystroke_m	m	n/a
128.282	0.15	256564	keystroke_p	p	n/a
128.942	0.135	257884	keystroke_s	s	n/a
129.062	0.135	258124	keystroke_o	o	n/a
129.182	0.06	258364	keystroke_p	p	n/a
129.3915	0.18	258783	keystroke_n	n	n/a
132.6635	0.043	265327	keystroke_e	e	n/a
133.4565	0.12	266913	keystroke_Key.backspace	Key.backspace	n/a
133.8615	0.09	267723	keystroke_Key.space	Key.space	n/a
136.579	0.0135	273158	keystroke_e	e	n/a
137.432	0.015	274864	keystroke_n	n	n/a
137.807	0.12	275614	keystroke_f	f	n/a
137.912	0.12	275824	keystroke_o	o	n/a
138.047	0.165	276094	keystroke_r	r	n/a
138.752	0.105	277504	keystroke_c	c	n/a
138.977	0.12	277954	keystroke_e	e	n/a
139.217	0.135	278434	keystroke_m	m	n/a
139.337	0.135	278674	keystroke_e	e	n/a
139.502	0.075	279004	keystroke_n	n	n/a
139.607	0.165	279214	keystroke_t	t	n/a
139.847	0.09	279694	keystroke_Key.space	Key.space	n/a
140.1315	0.18	280263	keystroke_r	r	n/a
140.2815	0.135	280563	keystroke_e	e	n/a
140.5365	0.075	281073	keystroke_m	m	n/a
140.8665	0.12	281733	keystroke_c	c	n/a
141.0015	0.135	282003	keystroke_o	o	n/a
144.3185	0.001	288637	keystroke_Key.backspace	Key.backspace	n/a
144.4365	0.09	288873	keystroke_Key.backspace	Key.backspace	n/a
144.6465	0.105	289293	keystroke_Key.backspace	Key.backspace	n/a
145.052	0.15	290104	keystroke_c	c	n/a
145.5015	0.2405	291003	keystroke_o	o	n/a
145.6525	0.15	291305	keystroke_m	m	n/a
146.537	0.15	293074	keystroke_m	m	n/a
147.197	0.15	294394	keystroke_e	e	n/a
147.947	0.135	295894	keystroke_d	d	n/a
151.219	0.1025	302438	keystroke_Key.backspace	Key.backspace	n/a
151.652	0.135	303304	keystroke_d	d	n/a
152.447	0.165	304894	keystroke_Key.backspace	Key.backspace	n/a
152.807	0.12	305614	keystroke_n	n	n/a
152.972	0.135	305944	keystroke_d	d	n/a
155.8985	0.088	311797	keystroke_a	a	n/a
156.2265	0.15	312453	keystroke_t	t	n/a
156.3315	0.15	312663	keystroke_i	i	n/a
156.4215	0.105	312843	keystroke_o	o	n/a
156.5715	0.12	313143	keystroke_n	n	n/a
156.7065	0.135	313413	keystroke_s	s	n/a
157.1265	0.135	314253	keystroke_Key.enter	Key.enter	n/a
157.2755	9.528	314551	prompt	n/a	norway assessments solely pulled\n
158.1315	0.0905	316263	keystroke_n	n	n/a
158.357	0.135	316714	keystroke_o	o	n/a
158.537	0.165	317074	keystroke_r	r	n/a
158.972	0.12	317944	keystroke_w	w	n/a
159.152	0.135	318304	keystroke_a	a	n/a
159.272	0.135	318544	keystroke_y	y	n/a
159.452	0.12	318904	keystroke_Key.space	Key.space	n/a
159.677	0.15	319354	keystroke_a	a	n/a
159.992	0.12	319984	keystroke_s	s	n/a
160.187	0.12	320374	keystroke_s	s	n/a
160.442	0.135	320884	keystroke_e	e	n/a
160.637	0.165	321274	keystroke_s	s	n/a
160.9815	0.105	321963	keystroke_s	s	n/a
161.492	0.105	322984	keystroke_m	m	n/a
161.612	0.15	323224	keystroke_e	e	n/a
161.777	0.12	323554	keystroke_n	n	n/a
161.882	0.15	323764	keystroke_t	t	n/a
162.092	0.195	324184	keystroke_s	s	n/a
162.392	0.075	324784	keystroke_Key.space	Key.space	n/a
162.6925	0.135	325385	keystroke_s	s	n/a
162.7225	0.15	325445	keystroke_o	o	n/a
163.2175	0.15	326435	keystroke_l	l	n/a
164.1775	0.165	328355	keystroke_l	l	n/a
164.4615	0.09	328923	keystroke_y	y	n/a
164.7765	0.06	329553	keystroke_Key.space	Key.space	n/a
165.2415	0.165	330483	keystroke_p	p	n/a
165.4215	0.165	330843	keystroke_u	u	n/a
165.7815	0.076	331563	keystroke_l	l	n/a
165.9015	0.15	331803	keystroke_l	l	n/a
166.0815	0.1505	332163	keystroke_e	e	n/a
166.337	0.18	332674	keystroke_d	d	n/a
166.712	0.09	333424	keystroke_Key.enter	Key.enter	n/a
166.806	11.4425	333612	prompt	n/a	traveler users model rather\n
167.522	0.105	335044	keystroke_t	t	n/a
167.762	0.135	335524	keystroke_r	r	n/a
167.957	0.195	335914	keystroke_a	a	n/a
168.407	0.12	336814	keystroke_v	v	n/a
168.662	0.165	337324	keystroke_e	e	n/a
168.887	0.105	337774	keystroke_l	l	n/a
169.127	0.18	338254	keystroke_e	e	n/a
169.247	0.165	338494	keystroke_r	r	n/a
169.472	0.105	338944	keystroke_Key.space	Key.space	n/a
169.712	0.105	339424	keystroke_u	u	n/a
169.802	0.195	339604	keystroke_s	s	n/a
169.952	0.135	339904	keystroke_e	e	n/a
170.222	0.1495	340444	keystroke_d	d	n/a
171.092	0.03	342184	keystroke_=	=	n/a
171.437	0.12	342874	keystroke_Key.backspace	Key.backspace	n/a
171.617	0.12	343234	keystroke_Key.backspace	Key.backspace	n/a
171.887	0.135	343774	keystroke_f	f	n/a
172.157	0.135	344314	keystroke_Key.space	Key.space	n/a
172.682	0.105	345364	keystroke_Key.backspace	Key.backspace	n/a
172.847	0.12	345694	keystroke_Key.backspace	Key.backspace	n/a
173.5215	0.15	347043	keystroke_s	s	n/a
174.0015	0.12	348003	keystroke_Key.backspace	Key.backspace	n/a
174.2265	0.165	348453	keystroke_r	r	n/a
174.602	0.135	349204	keystroke_s	s	n/a
175.037	0.12	350074	keystroke_Key.space	Key.space	n/a
175.427	0.09	350854	keystroke_m	m	n/a
175.592	0.105	351184	keystroke_o	o	n/a
175.772	0.105	351544	keystroke_d	d	n/a
175.9675	0.149	351935	keystroke_e	e	n/a
176.0875	0.105	352175	keystroke_l	l	n/a
176.5215	0.075	353043	keystroke_Key.space	Key.space	n/a
177.0025	0.104	354005	keystroke_r	r	n/a
177.2265	0.1205	354453	keystroke_a	a	n/a
177.572	0.135	355144	keystroke_t	t	n/a
177.722	0.12	355444	keystroke_h	h	n/a
177.827	0.135	355654	keystroke_e	e	n/a
177.902	0.135	355804	keystroke_r	r	n/a
178.157	0.09	356314	keystroke_Key.enter	Key.enter	n/a
178.252	17.202	356504	prompt	n/a	balance activity begin assign\n
179.132	0.075	358264	keystroke_a	a	n/a
179.177	0.135	358354	keystroke_b	b	n/a
179.762	0.06	359524	keystroke_Key.backspace	Key.backspace	n/a
179.912	0.105	359824	keystroke_Key.backspace	Key.backspace	n/a
180.227	0.165	360454	keystroke_b	b	n/a
180.812	0.12	361624	keystroke_a	a	n/a
181.007	0.09	362014	keystroke_l	l	n/a
181.262	0.15	362524	keystroke_a	a	n/a
181.472	0.135	362944	keystroke_n	n	n/a
181.757	0.12	363514	keystroke_c	c	n/a
181.997	0.15	363994	keystroke_e	e	n/a
182.162	0.105	364324	keystroke_Key.space	Key.space	n/a
182.387	0.15	364774	keystroke_a	a	n/a
182.627	0.135	365254	keystroke_c	c	n/a
183.902	0.135	367804	keystroke_t	t	n/a
184.112	0.105	368224	keystroke_i	i	n/a
184.457	0.135	368914	keystroke_v	v	n/a
184.607	0.12	369214	keystroke_i	i	n/a
184.757	0.15	369514	keystroke_t	t	n/a
185.087	0.105	370174	keystroke_Key.space	Key.space	n/a
185.6275	0.09	371255	keystroke_b	b	n/a
185.8375	0.12	371675	keystroke_e	e	n/a
186.1525	0.165	372305	keystroke_f	f	n/a
186.4225	0.18	372845	keystroke_i	i	n/a
186.5125	0.12	373025	keystroke_n	n	n/a
187.067	0.045	374134	keystroke_=	=	n/a
187.202	0.06	374404	keystroke_=	=	n/a
187.337	0.06	374674	keystroke_=	=	n/a
188.2065	0.09	376413	keystroke_Key.backspace	Key.backspace	n/a
188.3565	0.075	376713	keystroke_Key.backspace	Key.backspace	n/a
188.4765	0.195	376953	keystroke_Key.backspace	Key.backspace	n/a
188.7765	0.09	377553	keystroke_Key.backspace	Key.backspace	n/a
188.9415	0.09	377883	keystroke_Key.backspace	Key.backspace	n/a
189.0915	0.09	378183	keystroke_Key.backspace	Key.backspace	n/a
190.4565	0.105	380913	keystroke_g	g	n/a
190.6965	0.105	381393	keystroke_i	i	n/a
190.7415	0.075	381483	keystroke_n	n	n/a
191.0865	0.075	382173	keystroke_Key.space	Key.space	n/a
191.4165	0.12	382833	keystroke_a	a	n/a
191.6265	0.09	383253	keystroke_s	s	n/a
191.7765	0.135	383553	keystroke_s	s	n/a
191.9265	0.105	383853	keystroke_i	i	n/a
192.0775	0.104	384155	keystroke_a	a	n/a
192.2265	0.091	384453	keystroke_n	n	n/a
193.0365	0.106	386073	keystroke_Key.backspace	Key.backspace	n/a
193.2165	0.076	386433	keystroke_Key.backspace	Key.backspace	n/a
193.3515	0.105	386703	keystroke_Key.backspace	Key.backspace	n/a
194.5515	0.105	389103	keystroke_i	i	n/a
194.8215	0.12	389643	keystroke_g	g	n/a
194.9565	0.091	389913	keystroke_n	n	n/a
195.3465	0.1055	390693	keystroke_Key.enter	Key.enter	n/a
195.465	14.9285	390930	prompt	n/a	menus convenient student mail\n
196.187	0.135	392374	keystroke_m	m	n/a
196.652	0.135	393304	keystroke_e	e	n/a
196.772	0.09	393544	keystroke_n	n	n/a
197.072	0.12	394144	keystroke_u	u	n/a
197.222	0.1645	394444	keystroke_s	s	n/a
197.4765	0.09	394953	keystroke_Key.space	Key.space	n/a
198.182	0.135	396364	keystroke_v	v	n/a
198.977	0.12	397954	keystroke_Key.backspace	Key.backspace	n/a
199.202	0.15	398404	keystroke_c	c	n/a
200.057	0.165	400114	keystroke_o	o	n/a
200.177	0.12	400354	keystroke_n	n	n/a
201.047	0.135	402094	keystroke_b	b	n/a
202.217	0.12	404434	keystroke_Key.backspace	Key.backspace	n/a
203.012	0.12	406024	keystroke_v	v	n/a
204.3615	0.105	408723	keystroke_e	e	n/a
204.4815	0.09	408963	keystroke_n	n	n/a
204.7065	0.105	409413	keystroke_i	i	n/a
205.0215	0.135	410043	keystroke_e	e	n/a
205.1715	0.075	410343	keystroke_n	n	n/a
205.2765	0.135	410553	keystroke_t	t	n/a
205.4865	0.12	410973	keystroke_Key.space	Key.space	n/a
205.7415	0.12	411483	keystroke_s	s	n/a
206.0715	0.12	412143	keystroke_t	t	n/a
206.2215	0.12	412443	keystroke_u	u	n/a
207.0615	0.165	414123	keystroke_d	d	n/a
207.3165	0.195	414633	keystroke_e	e	n/a
207.7665	0.12	415533	keystroke_n	n	n/a
207.9465	0.165	415893	keystroke_t	t	n/a
208.1865	0.135	416373	keystroke_Key.space	Key.space	n/a
208.742	0.03	417484	keystroke_a	a	n/a
208.817	0.15	417634	keystroke_m	m	n/a
209.7615	0.105	419523	keystroke_i	i	n/a
209.9565	0.12	419913	keystroke_l	l	n/a
210.2715	0.12	420543	keystroke_Key.enter	Key.enter	n/a
210.4045	8.1335	420809	prompt	n/a	wizard laden skip backed\n
211.1265	0.135	422253	keystroke_w	w	n/a
211.562	0.09	423124	keystroke_i	i	n/a
211.757	0.105	423514	keystroke_z	z	n/a
212.027	0.135	424054	keystroke_a	a	n/a
212.312	0.135	424624	keystroke_r	r	n/a
212.597	0.135	425194	keystroke_d	d	n/a
212.777	0.0895	425554	keystroke_Key.space	Key.space	n/a
213.3915	0.09	426783	keystroke_l	l	n/a
213.5415	0.1205	427083	keystroke_a	a	n/a
213.887	0.12	427774	keystroke_d	d	n/a
214.0965	0.135	428193	keystroke_e	e	n/a
214.2015	0.12	428403	keystroke_n	n	n/a
214.3815	0.105	428763	keystroke_Key.space	Key.space	n/a
214.6215	0.105	429243	keystroke_s	s	n/a
214.7415	0.09	429483	keystroke_k	k	n/a
215.1615	0.12	430323	keystroke_e	e	n/a
215.9575	0.105	431915	keystroke_i	i	n/a
216.1215	0.165	432243	keystroke_p	p	n/a
216.7965	0.135	433593	keystroke_Key.space	Key.space	n/a
217.3075	0.1495	434615	keystroke_b	b	n/a
217.472	0.15	434944	keystroke_a	a	n/a
217.697	0.15	435394	keystroke_c	c	n/a
217.832	0.09	435664	keystroke_k	k	n/a
217.982	0.12	435964	keystroke_e	e	n/a
218.207	0.12	436414	keystroke_d	d	n/a
218.447	0.09	436894	keystroke_Key.enter	Key.enter	n/a
218.542	11.2465	437084	prompt	n/a	colony fantastic forum customer\n
219.692	0.12	439384	keystroke_c	c	n/a
220.052	0.105	440104	keystroke_o	o	n/a
220.292	0.15	440584	keystroke_l	l	n/a
220.532	0.135	441064	keystroke_o	o	n/a
220.967	0.12	441934	keystroke_n	n	n/a
221.4915	0.09	442983	keystroke_y	y	n/a
221.7615	0.09	443523	keystroke_Key.space	Key.space	n/a
222.3765	0.135	444753	keystroke_f	f	n/a
222.5565	0.15	445113	keystroke_a	a	n/a
222.8115	0.105	445623	keystroke_n	n	n/a
223.6965	0.15	447393	keystroke_t	t	n/a
224.0265	0.135	448053	keystroke_a	a	n/a
224.2665	0.105	448533	keystroke_n	n	n/a
225.302	0.1345	450604	keystroke_s	s	n/a
225.6015	0.15	451203	keystroke_t	t	n/a
225.7515	0.105	451503	keystroke_i	i	n/a
225.9915	0.135	451983	keystroke_c	c	n/a
226.1565	0.075	452313	keystroke_Key.space	Key.space	n/a
226.4115	0.1655	452823	keystroke_f	f	n/a
226.5615	0.12	453123	keystroke_o	o	n/a
226.6965	0.195	453393	keystroke_r	r	n/a
226.9065	0.12	453813	keystroke_u	u	n/a
227.1765	0.105	454353	keystroke_m	m	n/a
227.477	0.09	454954	keystroke_Key.space	Key.space	n/a
228.047	0.135	456094	keystroke_c	c	n/a
228.287	0.105	456574	keystroke_u	u	n/a
228.662	0.1645	457324	keystroke_s	s	n/a
228.9015	0.15	457803	keystroke_t	t	n/a
229.0365	0.18	458073	keystroke_o	o	n/a
229.1115	0.135	458223	keystroke_m	m	n/a
229.4575	0.044	458915	keystroke_e	e	n/a
229.4725	0.119	458945	keystroke_r	r	n/a
229.6825	0.105	459365	keystroke_Key.enter	Key.enter	n/a
229.7915	22.9925	459583	prompt	n/a	structure vietnam photoshop aberdeen\n
230.7315	0.12	461463	keystroke_s	s	n/a
231.0165	0.135	462033	keystroke_t	t	n/a
231.3165	0.135	462633	keystroke_r	r	n/a
231.4815	0.12	462963	keystroke_u	u	n/a
231.812	0.1195	463624	keystroke_c	c	n/a
232.2165	0.12	464433	keystroke_t	t	n/a
232.4715	0.09	464943	keystroke_u	u	n/a
232.8615	0.18	465723	keystroke_r	r	n/a
232.9965	0.165	465993	keystroke_e	e	n/a
233.3115	0.09	466623	keystroke_Key.space	Key.space	n/a
233.8065	0.12	467613	keystroke_v	v	n/a
234.0165	0.105	468033	keystroke_i	i	n/a
234.2715	0.165	468543	keystroke_e	e	n/a
234.4815	0.15	468963	keystroke_r	r	n/a
236.297	0.075	472594	keystroke_Key.backspace	Key.backspace	n/a
236.732	0.12	473464	keystroke_t	t	n/a
237.602	0.09	475204	keystroke_m	m	n/a
237.827	0.12	475654	keystroke_a	a	n/a
238.982	0.12	477964	keystroke_m	m	n/a
239.9265	0.12	479853	keystroke_Key.space	Key.space	n/a
240.7215	0.12	481443	keystroke_Key.backspace	Key.backspace	n/a
240.9315	0.105	481863	keystroke_Key.backspace	Key.backspace	n/a
241.7715	0.12	483543	keystroke_n	n	n/a
243.2265	0.075	486453	keystroke_Key.backspace	Key.backspace	n/a
243.3915	0.075	486783	keystroke_Key.backspace	Key.backspace	n/a
243.6165	0.09	487233	keystroke_Key.backspace	Key.backspace	n/a
244.1265	0.12	488253	keystroke_m	m	n/a
244.7715	0.09	489543	keystroke_Key.backspace	Key.backspace	n/a
245.1015	0.15	490203	keystroke_n	n	n/a
245.4615	0.12	490923	keystroke_a	a	n/a
245.5965	0.105	491193	keystroke_m	m	n/a
245.9565	0.075	491913	keystroke_Key.space	Key.space	n/a
246.3015	0.195	492603	keystroke_p	p	n/a
246.5115	0.165	493023	keystroke_h	h	n/a
246.7215	0.135	493443	keystroke_o	o	n/a
247.1715	0.165	494343	keystroke_t	t	n/a
247.3065	0.121	494613	keystroke_o	o	n/a
247.8315	0.151	495663	keystroke_s	s	n/a
247.9665	0.09	495933	keystroke_h	h	n/a
248.1165	0.135	496233	keystroke_o	o	n/a
248.2665	0.165	496533	keystroke_p	p	n/a
248.6715	0.09	497343	keystroke_Key.space	Key.space	n/a
249.3615	0.15	498723	keystroke_a	a	n/a
249.9765	0.12	499953	keystroke_b	b	n/a
250.2315	0.18	500463	keystroke_e	e	n/a
250.3365	0.18	500673	keystroke_r	r	n/a
251.6415	0.09	503283	keystroke_d	d	n/a
251.8965	0.105	503793	keystroke_e	e	n/a
252.0765	0.12	504153	keystroke_e	e	n/a
252.2415	0.09	504483	keystroke_n	n	n/a
252.6465	0.135	505293	keystroke_Key.enter	Key.enter	n/a
252.7955	9.903	505591	prompt	n/a	creator concert striking instance\n
253.592	0.135	507184	keystroke_c	c	n/a
254.162	0.195	508324	keystroke_r	r	n/a
254.297	0.21	508594	keystroke_e	e	n/a
254.432	0.21	508864	keystroke_a	a	n/a
254.657	0.165	509314	keystroke_t	t	n/a
254.852	0.15	509704	keystroke_o	o	n/a
255.062	0.165	510124	keystroke_r	r	n/a
255.287	0.105	510574	keystroke_Key.space	Key.space	n/a
255.632	0.12	511264	keystroke_c	c	n/a
255.812	0.18	511624	keystroke_o	o	n/a
256.067	0.105	512134	keystroke_n	n	n/a
256.937	0.135	513874	keystroke_v	v	n/a
257.582	0.1495	515164	keystroke_Key.backspace	Key.backspace	n/a
257.8065	0.135	515613	keystroke_c	c	n/a
258.167	0.2245	516334	keystroke_e	e	n/a
258.3465	0.135	516693	keystroke_r	r	n/a
258.872	0.09	517744	keystroke_Key.space	Key.space	n/a
259.202	0.165	518404	keystroke_s	s	n/a
259.427	0.105	518854	keystroke_t	t	n/a
259.637	0.15	519274	keystroke_r	r	n/a
259.817	0.12	519634	keystroke_i	i	n/a
260.087	0.12	520174	keystroke_k	k	n/a
260.312	0.18	520624	keystroke_i	i	n/a
260.402	0.15	520804	keystroke_n	n	n/a
260.522	0.15	521044	keystroke_g	g	n/a
260.717	0.105	521434	keystroke_Key.space	Key.space	n/a
261.122	0.15	522244	keystroke_i	i	n/a
261.197	0.12	522394	keystroke_n	n	n/a
261.407	0.165	522814	keystroke_s	s	n/a
261.557	0.165	523114	keystroke_t	t	n/a
261.752	0.15	523504	keystroke_a	a	n/a
261.887	0.12	523774	keystroke_n	n	n/a
262.112	0.12	524224	keystroke_c	c	n/a
262.352	0.15	524704	keystroke_e	e	n/a
262.622	0.075	525244	keystroke_Key.enter	Key.enter	n/a
262.7005	10.993	525401	prompt	n/a	vertex frame albany bite\n
263.5065	0.135	527013	keystroke_v	v	n/a
263.777	0.2395	527554	keystroke_e	e	n/a
264.0315	0.135	528063	keystroke_r	r	n/a
264.617	0.1345	529234	keystroke_t	t	n/a
265.292	0.135	530584	keystroke_e	e	n/a
265.577	0.135	531154	keystroke_x	x	n/a
265.922	0.075	531844	keystroke_Key.space	Key.space	n/a
266.207	0.12	532414	keystroke_f	f	n/a
266.4615	0.165	532923	keystroke_r	r	n/a
266.6565	0.18	533313	keystroke_a	a	n/a
267.0315	0.135	534063	keystroke_m	m	n/a
267.2115	0.1505	534423	keystroke_e	e	n/a
267.392	0.105	534784	keystroke_Key.space	Key.space	n/a
267.677	0.135	535354	keystroke_a	a	n/a
268.172	0.09	536344	keystroke_l	l	n/a
268.502	0.105	537004	keystroke_b	b	n/a
269.432	0.12	538864	keystroke_a	a	n/a
269.522	0.12	539044	keystroke_n	n	n/a
269.807	0.135	539614	keystroke_y	y	n/a
270.4215	0.105	540843	keystroke_Key.space	Key.space	n/a
270.8865	0.135	541773	keystroke_b	b	n/a
271.6215	0.1205	543243	keystroke_u	u	n/a
272.387	0.15	544774	keystroke_Key.backspace	Key.backspace	n/a
272.852	0.09	545704	keystroke_i	i	n/a
273.062	0.15	546124	keystroke_t	t	n/a
273.242	0.165	546484	keystroke_e	e	n/a
273.572	0.12	547144	keystroke_Key.enter	Key.enter	n/a
273.6965	8.907	547393	prompt	n/a	diagram waves layer nurse\n
274.547	0.135	549094	keystroke_d	d	n/a
274.772	0.09	549544	keystroke_i	i	n/a
275.057	0.105	550114	keystroke_a	a	n/a
275.4915	0.12	550983	keystroke_g	g	n/a
275.7615	0.165	551523	keystroke_r	r	n/a
275.9115	0.135	551823	keystroke_a	a	n/a
276.0765	0.135	552153	keystroke_m	m	n/a
276.4215	0.105	552843	keystroke_Key.space	Key.space	n/a
276.6315	0.15	553263	keystroke_w	w	n/a
276.8265	0.12	553653	keystroke_a	a	n/a
278.342	0.1345	556684	keystroke_e	e	n/a
278.8065	0.12	557613	keystroke_Key.backspace	Key.backspace	n/a
279.0765	0.0905	558153	keystroke_v	v	n/a
279.2865	0.15	558573	keystroke_e	e	n/a
279.4515	0.15	558903	keystroke_s	s	n/a
279.6765	0.105	559353	keystroke_Key.space	Key.space	n/a
280.1415	0.12	560283	keystroke_l	l	n/a
280.2915	0.09	560583	keystroke_a	a	n/a
280.5615	0.1205	561123	keystroke_y	y	n/a
280.8615	0.045	561723	keystroke_e	e	n/a
280.8765	0.135	561753	keystroke_r	r	n/a
281.0415	0.105	562083	keystroke_Key.space	Key.space	n/a
281.2815	0.1055	562563	keystroke_n	n	n/a
281.507	0.165	563014	keystroke_u	u	n/a
281.657	0.165	563314	keystroke_r	r	n/a
282.017	0.315	564034	keystroke_s	s	n/a
282.212	0.195	564424	keystroke_e	e	n/a
282.437	0.165	564874	keystroke_Key.enter	Key.enter	n/a
282.6075	11.156	565215	prompt	n/a	symphony fairy crime oval\n
283.3965	0.15	566793	keystroke_s	s	n/a
284.1465	0.165	568293	keystroke_u	u	n/a
284.9415	0.135	569883	keystroke_Key.backspace	Key.backspace	n/a
285.2715	0.135	570543	keystroke_y	y	n/a
285.9165	0.105	571833	keystroke_m	m	n/a
286.0665	0.135	572133	keystroke_p	p	n/a
286.457	0.105	572914	keystroke_h	h	n/a
286.667	0.135	573334	keystroke_o	o	n/a
286.937	0.12	573874	keystroke_n	n	n/a
287.5665	0.105	575133	keystroke_y	y	n/a
287.8065	0.075	575613	keystroke_Key.space	Key.space	n/a
288.946	0.166	577892	keystroke_f	f	n/a
289.4415	0.09	578883	keystroke_a	a	n/a
289.6215	0.105	579243	keystroke_i	i	n/a
289.7865	0.15	579573	keystroke_r	r	n/a
289.9965	0.135	579993	keystroke_y	y	n/a
290.3115	0.09	580623	keystroke_Key.space	Key.space	n/a
290.762	0.12	581524	keystroke_c	c	n/a
290.972	0.195	581944	keystroke_r	r	n/a
291.137	0.24	582274	keystroke_o	o	n/a
291.272	0.15	582544	keystroke_m	m	n/a
291.452	0.165	582904	keystroke_e	e	n/a
292.202	0.1195	584404	keystroke_Key.space	Key.space	n/a
292.7565	0.12	585513	keystroke_o	o	n/a
293.1165	0.165	586233	keystroke_v	v	n/a
293.2825	0.134	586565	keystroke_a	a	n/a
293.3865	0.135	586773	keystroke_l	l	n/a
293.642	0.12	587284	keystroke_Key.enter	Key.enter	n/a
293.769	10.2995	587538	prompt	n/a	adobe journals potentially packed\n
294.572	0.135	589144	keystroke_a	a	n/a
295.157	0.135	590314	keystroke_d	d	n/a
295.337	0.1195	590674	keystroke_o	o	n/a
295.6065	0.12	591213	keystroke_b	b	n/a
295.8315	0.15	591663	keystroke_e	e	n/a
295.9965	0.075	591993	keystroke_Key.space	Key.space	n/a
296.2965	0.105	592593	keystroke_j	j	n/a
296.6265	0.06	593253	keystroke_o	o	n/a
297.482	0.135	594964	keystroke_u	u	n/a
297.677	0.195	595354	keystroke_r	r	n/a
298.067	0.105	596134	keystroke_n	n	n/a
298.277	0.135	596554	keystroke_a	a	n/a
298.442	0.105	596884	keystroke_l	l	n/a
298.667	0.135	597334	keystroke_s	s	n/a
298.877	0.105	597754	keystroke_Key.space	Key.space	n/a
299.252	0.1345	598504	keystroke_p	p	n/a
299.9115	0.09	599823	keystroke_o	o	n/a
300.3165	0.15	600633	keystroke_t	t	n/a
300.8565	0.105	601713	keystroke_e	e	n/a
300.9615	0.12	601923	keystroke_n	n	n/a
301.2315	0.135	602463	keystroke_t	t	n/a
301.3815	0.12	602763	keystroke_i	i	n/a
301.6065	0.12	603213	keystroke_a	a	n/a
301.7565	0.075	603513	keystroke_l	l	n/a
301.8915	0.135	603783	keystroke_l	l	n/a
302.1165	0.165	604233	keystroke_y	y	n/a
302.2825	0.089	604565	keystroke_Key.space	Key.space	n/a
302.6115	0.105	605223	keystroke_p	p	n/a
302.7615	0.12	605523	keystroke_a	a	n/a
303.2415	0.12	606483	keystroke_c	c	n/a
303.3465	0.09	606693	keystroke_k	k	n/a
303.5115	0.12	607023	keystroke_e	e	n/a
303.7515	0.12	607503	keystroke_d	d	n/a
303.9765	0.09	607953	keystroke_Key.enter	Key.enter	n/a
304.071	15.5525	608142	prompt	n/a	technological spirits systems schedule\n
304.8615	0.15	609723	keystroke_r	r	n/a
305.2665	0.105	610533	keystroke_e	e	n/a
305.5515	0.165	611103	keystroke_c	c	n/a
305.7015	0.12	611403	keystroke_h	h	n/a
306.1665	0.105	612333	keystroke_n	n	n/a
306.3615	0.135	612723	keystroke_o	o	n/a
306.7215	0.18	613443	keystroke_l	l	n/a
306.9615	0.15	613923	keystroke_o	o	n/a
307.4265	0.135	614853	keystroke_g	g	n/a
308.0565	0.105	616113	keystroke_i	i	n/a
308.3715	0.15	616743	keystroke_c	c	n/a
308.5065	0.12	617013	keystroke_a	a	n/a
308.6275	0.119	617255	keystroke_l	l	n/a
308.8365	0.12	617673	keystroke_Key.space	Key.space	n/a
309.752	0.135	619504	keystroke_s	s	n/a
309.932	0.105	619864	keystroke_p	p	n/a
310.562	0.075	621124	keystroke_i	i	n/a
310.802	0.1345	621604	keystroke_r	r	n/a
310.9515	0.135	621903	keystroke_i	i	n/a
311.2815	0.135	622563	keystroke_t	t	n/a
311.5065	0.15	623013	keystroke_s	s	n/a
311.7165	0.075	623433	keystroke_Key.space	Key.space	n/a
312.0615	0.135	624123	keystroke_y	y	n/a
312.2115	0.135	624423	keystroke_s	s	n/a
312.4515	0.075	624903	keystroke_s	s	n/a
312.9315	0.09	625863	keystroke_Key.backspace	Key.backspace	n/a
313.0965	0.075	626193	keystroke_Key.backspace	Key.backspace	n/a
313.2315	0.105	626463	keystroke_Key.backspace	Key.backspace	n/a
313.5765	0.105	627153	keystroke_s	s	n/a
313.7265	0.0905	627453	keystroke_y	y	n/a
313.832	0.1345	627664	keystroke_s	s	n/a
314.1615	0.12	628323	keystroke_t	t	n/a
314.3565	0.1355	628713	keystroke_e	e	n/a
314.507	0.0595	629014	keystroke_m	m	n/a
314.8815	0.105	629763	keystroke_Key.space	Key.space	n/a
315.0915	0.1355	630183	keystroke_s	s	n/a
315.377	0.15	630754	keystroke_c	c	n/a
316.967	0.09	633934	keystroke_h	h	n/a
317.822	0.105	635644	keystroke_e	e	n/a
318.062	0.135	636124	keystroke_d	d	n/a
318.692	0.12	637384	keystroke_u	u	n/a
318.992	0.09	637984	keystroke_l	l	n/a
319.111	0.15	638222	keystroke_e	e	n/a
319.517	0.105	639034	keystroke_Key.enter	Key.enter	n/a
319.6285	17.98	639257	prompt	n/a	multi root stops attitudes\n
321.347	0.075	642694	keystroke_m	m	n/a
321.827	0.12	643654	keystroke_u	u	n/a
322.052	0.06	644104	keystroke_k	k	n/a
322.592	0.135	645184	keystroke_t	t	n/a
322.756	0.106	645512	keystroke_i	i	n/a
323.1625	0.074	646325	keystroke_]	]	n/a
323.3415	0.075	646683	keystroke_Key.backspace	Key.backspace	n/a
323.4915	0.09	646983	keystroke_Key.backspace	Key.backspace	n/a
323.6715	0.06	647343	keystroke_Key.backspace	Key.backspace	n/a
323.9865	0.12	647973	keystroke_Key.backspace	Key.backspace	n/a
324.9915	0.075	649983	keystroke_l	l	n/a
328.4295	0.102	656859	keystroke_t	t	n/a
328.5465	0.105	657093	keystroke_i	i	n/a
329.0565	0.105	658113	keystroke_Key.space	Key.space	n/a
329.3725	0.149	658745	keystroke_t	t	n/a
329.5365	0.061	659073	keystroke_o	o	n/a
329.6715	0.106	659343	keystroke_o	o	n/a
330.3165	0.15	660633	keystroke_y	y	n/a
331.337	0.09	662674	keystroke_Key.backspace	Key.backspace	n/a
331.502	0.09	663004	keystroke_Key.backspace	Key.backspace	n/a
331.652	0.075	663304	keystroke_Key.backspace	Key.backspace	n/a
331.787	0.15	663574	keystroke_Key.backspace	Key.backspace	n/a
332.1915	0.12	664383	keystroke_r	r	n/a
332.6715	0.0605	665343	keystroke_o	o	n/a
332.791	0.106	665582	keystroke_o	o	n/a
332.987	0.135	665974	keystroke_t	t	n/a
333.4665	0.105	666933	keystroke_Key.space	Key.space	n/a
333.887	0.135	667774	keystroke_s	s	n/a
334.0515	0.15	668103	keystroke_t	t	n/a
334.1865	0.105	668373	keystroke_o	o	n/a
334.2765	0.135	668553	keystroke_p	p	n/a
334.4415	0.12	668883	keystroke_s	s	n/a
334.5915	0.06	669183	keystroke_Key.space	Key.space	n/a
334.967	0.105	669934	keystroke_a	a	n/a
335.281	0.106	670562	keystroke_t	t	n/a
335.507	0.09	671014	keystroke_t	t	n/a
335.687	0.15	671374	keystroke_i	i	n/a
335.867	0.135	671734	keystroke_t	t	n/a
336.182	0.135	672364	keystroke_u	u	n/a
336.887	0.165	673774	keystroke_d	d	n/a
337.082	0.12	674164	keystroke_e	e	n/a
337.277	0.12	674554	keystroke_s	s	n/a
337.502	0.105	675004	keystroke_Key.enter	Key.enter	n/a
337.6115	10.182	675223	prompt	n/a	accepts broad bite recruitment\n
338.3875	0.12	676775	keystroke_a	a	n/a
338.6725	0.09	677345	keystroke_c	c	n/a
338.8365	0.12	677673	keystroke_c	c	n/a
339.0915	0.151	678183	keystroke_e	e	n/a
339.437	0.09	678874	keystroke_p	p	n/a
339.632	0.12	679264	keystroke_t	t	n/a
339.887	0.135	679774	keystroke_s	s	n/a
340.097	0.09	680194	keystroke_Key.space	Key.space	n/a
340.457	0.105	680914	keystroke_b	b	n/a
341.2515	0.1355	682503	keystroke_r	r	n/a
341.462	0.09	682924	keystroke_o	o	n/a
341.597	0.12	683194	keystroke_a	a	n/a
341.912	0.135	683824	keystroke_d	d	n/a
342.092	0.105	684184	keystroke_Key.space	Key.space	n/a
342.407	0.135	684814	keystroke_b	b	n/a
342.542	0.105	685084	keystroke_i	i	n/a
342.827	0.12	685654	keystroke_t	t	n/a
343.037	0.15	686074	keystroke_e	e	n/a
343.202	0.075	686404	keystroke_Key.space	Key.space	n/a
343.7865	0.12	687573	keystroke_r	r	n/a
344.2675	0.119	688535	keystroke_e	e	n/a
344.7315	0.106	689463	keystroke_c	c	n/a
345.857	0.15	691714	keystroke_r	r	n/a
346.022	0.21	692044	keystroke_u	u	n/a
346.217	0.15	692434	keystroke_i	i	n/a
346.457	0.135	692914	keystroke_t	t	n/a
346.712	0.135	693424	keystroke_m	m	n/a
346.892	0.075	693784	keystroke_e	e	n/a
346.982	0.09	693964	keystroke_n	n	n/a
347.147	0.105	694294	keystroke_t	t	n/a
347.657	0.135	695314	keystroke_Key.enter	Key.enter	n/a
347.797	10.721	695594	prompt	n/a	teeth force referred flexible\n
348.587	0.09	697174	keystroke_t	t	n/a
348.827	0.09	697654	keystroke_e	e	n/a
348.992	0.12	697984	keystroke_e	e	n/a
349.277	0.15	698554	keystroke_t	t	n/a
349.472	0.12	698944	keystroke_h	h	n/a
349.667	0.105	699334	keystroke_Key.space	Key.space	n/a
349.952	0.12	699904	keystroke_f	f	n/a
350.132	0.135	700264	keystroke_o	o	n/a
350.267	0.1495	700534	keystroke_r	r	n/a
350.5965	0.12	701193	keystroke_c	c	n/a
350.8515	0.15	701703	keystroke_e	e	n/a
351.0315	0.075	702063	keystroke_Key.space	Key.space	n/a
351.452	0.165	702904	keystroke_r	r	n/a
351.647	0.1645	703294	keystroke_e	e	n/a
352.0965	0.15	704193	keystroke_f	f	n/a
352.2915	0.24	704583	keystroke_e	e	n/a
352.5465	0.12	705093	keystroke_r	r	n/a
352.7415	0.105	705483	keystroke_r	r	n/a
352.9215	0.06	705843	keystroke_r	r	n/a
353.2065	0.135	706413	keystroke_e	e	n/a
353.5515	0.15	707103	keystroke_d	d	n/a
353.7615	0.105	707523	keystroke_Key.space	Key.space	n/a
354.2115	0.135	708423	keystroke_f	f	n/a
355.427	0.075	710854	keystroke_l	l	n/a
356.0115	0.135	712023	keystroke_e	e	n/a
356.3275	0.134	712655	keystroke_x	x	n/a
356.5515	0.105	713103	keystroke_i	i	n/a
357.152	0.1195	714304	keystroke_b	b	n/a
357.3165	0.12	714633	keystroke_l	l	n/a
357.4665	0.135	714933	keystroke_e	e	n/a
357.4815	0.09	714963	keystroke_w	w	n/a
358.2765	0.24	716553	keystroke_Key.enter	Key.enter	n/a
358.53	15.858	717060	prompt	n/a	viking equipment potatoes assessments\n
359.9115	0.09	719823	keystroke_v	v	n/a
360.4515	0.09	720903	keystroke_i	i	n/a
361.0215	0.12	722043	keystroke_k	k	n/a
361.2615	0.135	722523	keystroke_i	i	n/a
361.5015	0.15	723003	keystroke_n	n	n/a
361.6815	0.1505	723363	keystroke_g	g	n/a
361.877	0.105	723754	keystroke_Key.space	Key.space	n/a
363.467	0.135	726934	keystroke_e	e	n/a
364.1415	0.1205	728283	keystroke_q	q	n/a
364.277	0.1795	728554	keystroke_u	u	n/a
364.427	0.1345	728854	keystroke_i	i	n/a
364.8465	0.15	729693	keystroke_p	p	n/a
365.1615	0.12	730323	keystroke_m	m	n/a
365.297	0.1345	730594	keystroke_e	e	n/a
365.4165	0.1355	730833	keystroke_n	n	n/a
365.567	0.15	731134	keystroke_t	t	n/a
365.8065	0.12	731613	keystroke_Key.space	Key.space	n/a
366.0615	0.105	732123	keystroke_p	p	n/a
366.3165	0.135	732633	keystroke_o	o	n/a
366.917	0.1795	733834	keystroke_t	t	n/a
367.802	0.15	735604	keystroke_a	a	n/a
368.252	0.15	736504	keystroke_t	t	n/a
368.8515	0.0755	737703	keystroke_o	o	n/a
368.987	0.1345	737974	keystroke_e	e	n/a
369.2715	0.045	738543	keystroke_e	e	n/a
369.3165	0.09	738633	keystroke_s	s	n/a
370.0365	0.27	740073	keystroke_Key.backspace	Key.backspace	n/a
370.5165	0.105	741033	keystroke_Key.backspace	Key.backspace	n/a
370.7715	0.1195	741543	keystroke_s	s	n/a
370.951	0.12	741902	keystroke_Key.space	Key.space	n/a
371.746	0.12	743492	keystroke_a	a	n/a
372.046	0.105	744092	keystroke_s	s	n/a
372.211	0.105	744422	keystroke_s	s	n/a
372.571	0.12	745142	keystroke_e	e	n/a
372.946	0.15	745892	keystroke_s	s	n/a
373.381	0.12	746762	keystroke_m	m	n/a
373.516	0.136	747032	keystroke_e	e	n/a
373.667	0.105	747334	keystroke_n	n	n/a
373.772	0.1045	747544	keystroke_t	t	n/a
373.9365	0.165	747873	keystroke_s	s	n/a
374.2815	0.1045	748563	keystroke_Key.enter	Key.enter	n/a
374.3905	11.367	748781	prompt	n/a	risk controllers tropical programmers\n
375.361	0.135	750722	keystroke_r	r	n/a
375.676	0.12	751352	keystroke_i	i	n/a
376.291	0.12	752582	keystroke_s	s	n/a
376.426	0.105	752852	keystroke_k	k	n/a
376.906	0.0905	753812	keystroke_Key.space	Key.space	n/a
377.3715	0.12	754743	keystroke_c	c	n/a
377.4925	0.149	754985	keystroke_o	o	n/a
377.5665	0.12	755133	keystroke_n	n	n/a
377.8965	0.15	755793	keystroke_t	t	n/a
378.1515	0.135	756303	keystroke_r	r	n/a
378.3015	0.105	756603	keystroke_o	o	n/a
378.5715	0.06	757143	keystroke_l	l	n/a
378.7215	0.105	757443	keystroke_l	l	n/a
378.8865	0.12	757773	keystroke_e	e	n/a
378.9465	0.165	757893	keystroke_r	r	n/a
379.5465	0.105	759093	keystroke_s	s	n/a
379.8615	0.09	759723	keystroke_Key.space	Key.space	n/a
380.2515	0.135	760503	keystroke_t	t	n/a
380.5065	0.1495	761013	keystroke_r	r	n/a
380.701	0.12	761402	keystroke_o	o	n/a
380.836	0.165	761672	keystroke_p	p	n/a
381.226	0.12	762452	keystroke_i	i	n/a
381.721	0.135	763442	keystroke_c	c	n/a
381.871	0.105	763742	keystroke_a	a	n/a
382.021	0.105	764042	keystroke_l	l	n/a
382.216	0.12	764432	keystroke_Key.space	Key.space	n/a
382.471	0.12	764942	keystroke_p	p	n/a
382.681	0.135	765362	keystroke_r	r	n/a
382.921	0.135	765842	keystroke_o	o	n/a
383.326	0.1055	766652	keystroke_g	g	n/a
384.0305	0.136	768061	keystroke_r	r	n/a
384.3765	0.104	768753	keystroke_a	a	n/a
384.6315	0.075	769263	keystroke_m	m	n/a
384.7815	0.105	769563	keystroke_m	m	n/a
384.9165	0.12	769833	keystroke_e	e	n/a
384.9615	0.21	769923	keystroke_r	r	n/a
385.2615	0.18	770523	keystroke_s	s	n/a
385.6665	0.09	771333	keystroke_Key.enter	Key.enter	n/a
385.76	10.4825	771520	prompt	n/a	protein verse mistake groove\n
386.5665	0.09	773133	keystroke_p	p	n/a
386.9115	0.135	773823	keystroke_r	r	n/a
387.0465	0.089	774093	keystroke_o	o	n/a
387.481	0.135	774962	keystroke_t	t	n/a
388.246	0.12	776492	keystroke_e	e	n/a
388.396	0.12	776792	keystroke_i	i	n/a
388.7715	0.09	777543	keystroke_n	n	n/a
389.0855	0.075	778171	keystroke_Key.space	Key.space	n/a
389.3855	0.105	778771	keystroke_v	v	n/a
389.6265	0.224	779253	keystroke_e	e	n/a
389.7605	0.15	779521	keystroke_r	r	n/a
390.0605	0.225	780121	keystroke_s	s	n/a
390.2105	0.181	780421	keystroke_e	e	n/a
390.5555	0.105	781111	keystroke_Key.space	Key.space	n/a
390.7955	0.121	781591	keystroke_m	m	n/a
391.0055	0.135	782011	keystroke_i	i	n/a
391.1115	0.1345	782223	keystroke_s	s	n/a
391.816	0.12	783632	keystroke_t	t	n/a
392.026	0.15	784052	keystroke_a	a	n/a
392.191	0.12	784382	keystroke_k	k	n/a
392.326	0.15	784652	keystroke_e	e	n/a
392.626	0.09	785252	keystroke_Key.space	Key.space	n/a
393.151	0.015	786302	keystroke_g	g	n/a
393.256	0.075	786512	keystroke_g	g	n/a
393.841	0.1055	787682	keystroke_Key.backspace	Key.backspace	n/a
394.2765	0.12	788553	keystroke_r	r	n/a
394.4715	0.09	788943	keystroke_o	o	n/a
394.7115	0.075	789423	keystroke_o	o	n/a
395.1165	0.12	790233	keystroke_v	v	n/a
395.341	0.165	790682	keystroke_e	e	n/a
396.1665	0.075	792333	keystroke_Key.enter	Key.enter	n/a
396.245	15.7775	792490	prompt	n/a	realtors andreas spray hospitality\n
399.169	0.132	798338	keystroke_r	r	n/a
399.991	0.105	799982	keystroke_e	e	n/a
400.666	0.075	801332	keystroke_a	a	n/a
400.786	0.09	801572	keystroke_l	l	n/a
401.236	0.1355	802472	keystroke_r	r	n/a
401.4015	0.105	802803	keystroke_o	o	n/a
401.7015	0.135	803403	keystroke_r	r	n/a
401.9715	0.15	803943	keystroke_s	s	n/a
403.021	0.09	806042	keystroke_Key.space	Key.space	n/a
403.321	0.1205	806642	keystroke_a	a	n/a
404.146	0.105	808292	keystroke_n	n	n/a
404.296	0.15	808592	keystroke_d	d	n/a
404.821	0.21	809642	keystroke_r	r	n/a
405.151	0.165	810302	keystroke_e	e	n/a
405.376	0.15	810752	keystroke_a	a	n/a
405.616	0.18	811232	keystroke_s	s	n/a
405.871	0.09	811742	keystroke_Key.space	Key.space	n/a
406.141	0.15	812282	keystroke_s	s	n/a
406.456	0.135	812912	keystroke_p	p	n/a
406.666	0.15	813332	keystroke_r	r	n/a
407.401	0.03	814802	keystroke_a	a	n/a
407.476	0.165	814952	keystroke_y	y	n/a
407.7005	0.09	815401	keystroke_Key.space	Key.space	n/a
408.1055	0.09	816211	keystroke_h	h	n/a
408.3005	0.165	816601	keystroke_o	o	n/a
408.4505	0.165	816901	keystroke_s	s	n/a
409.5015	0.15	819003	keystroke_p	p	n/a
409.9665	0.105	819933	keystroke_i	i	n/a
410.6415	0.15	821283	keystroke_t	t	n/a
410.8365	0.15	821673	keystroke_a	a	n/a
411.0015	0.12	822003	keystroke_l	l	n/a
411.1965	0.165	822393	keystroke_i	i	n/a
411.3915	0.18	822783	keystroke_t	t	n/a
411.5415	0.15	823083	keystroke_y	y	n/a
411.9005	0.12	823801	keystroke_Key.enter	Key.enter	n/a
412.027	11.126	824054	prompt	n/a	plays o'er investigations walks\n
412.8305	0.106	825661	keystroke_p	p	n/a
413.1605	0.15	826321	keystroke_l	l	n/a
413.3405	0.136	826681	keystroke_a	a	n/a
413.4915	0.1345	826983	keystroke_y	y	n/a
414.016	0.105	828032	keystroke_Key.space	Key.space	n/a
414.5265	0.105	829053	keystroke_o	o	n/a
415.666	0.105	831332	keystroke_'	'	n/a
416.551	0.135	833102	keystroke_e	e	n/a
416.611	0.18	833222	keystroke_r	r	n/a
416.866	0.105	833732	keystroke_Key.space	Key.space	n/a
417.151	0.255	834302	keystroke_i	i	n/a
417.346	0.135	834692	keystroke_n	n	n/a
418.141	0.12	836282	keystroke_v	v	n/a
418.396	0.2255	836792	keystroke_e	e	n/a
418.5765	0.15	837153	keystroke_r	r	n/a
418.8165	0.165	837633	keystroke_t	t	n/a
419.0115	0.12	838023	keystroke_i	i	n/a
419.5065	0.15	839013	keystroke_g	g	n/a
419.6865	0.15	839373	keystroke_a	a	n/a
419.9115	0.134	839823	keystroke_t	t	n/a
420.0015	0.15	840003	keystroke_i	i	n/a
420.0755	0.135	840151	keystroke_o	o	n/a
420.2715	0.12	840543	keystroke_n	n	n/a
421.1705	0.121	842341	keystroke_s	s	n/a
421.351	0.09	842702	keystroke_Key.space	Key.space	n/a
421.981	0.165	843962	keystroke_w	w	n/a
422.251	0.105	844502	keystroke_a	a	n/a
422.341	0.105	844682	keystroke_l	l	n/a
422.461	0.135	844922	keystroke_k	k	n/a
422.671	0.135	845342	keystroke_s	s	n/a
423.046	0.105	846092	keystroke_Key.enter	Key.enter	n/a
423.157	15.206	846314	prompt	n/a	porsche shift cluster employer\n
424.142	0.15	848284	keystroke_p	p	n/a
424.907	0.074	849814	keystroke_o	o	n/a
425.041	0.151	850082	keystroke_r	r	n/a
425.8365	0.135	851673	keystroke_s	s	n/a
426.1815	0.135	852363	keystroke_c	c	n/a
426.2865	0.135	852573	keystroke_h	h	n/a
426.5565	0.165	853113	keystroke_e	e	n/a
426.931	0.09	853862	keystroke_Key.space	Key.space	n/a
427.486	0.15	854972	keystroke_s	s	n/a
427.666	0.165	855332	keystroke_h	h	n/a
427.861	0.18	855722	keystroke_i	i	n/a
432.2885	0.058	864577	keystroke_f	f	n/a
432.4665	0.135	864933	keystroke_t	t	n/a
432.8115	0.09	865623	keystroke_Key.space	Key.space	n/a
433.2015	0.135	866403	keystroke_c	c	n/a
433.3665	0.15	866733	keystroke_l	l	n/a
433.5615	0.15	867123	keystroke_u	u	n/a
433.7715	0.165	867543	keystroke_s	s	n/a
433.9215	0.15	867843	keystroke_t	t	n/a
434.1465	0.165	868293	keystroke_e	e	n/a
434.2365	0.135	868473	keystroke_r	r	n/a
434.4315	0.105	868863	keystroke_Key.space	Key.space	n/a
434.7015	0.135	869403	keystroke_e	e	n/a
434.8515	0.105	869703	keystroke_m	m	n/a
435.0165	0.24	870033	keystroke_p	p	n/a
435.4965	0.195	870993	keystroke_l	l	n/a
436.0965	0.15	872193	keystroke_o	o	n/a
436.3065	0.135	872613	keystroke_u	u	n/a
436.9665	0.135	873933	keystroke_Key.backspace	Key.backspace	n/a
437.2815	0.12	874563	keystroke_y	y	n/a
437.6715	0.165	875343	keystroke_e	e	n/a
437.7615	0.135	875523	keystroke_r	r	n/a
438.2715	0.09	876543	keystroke_Key.enter	Key.enter	n/a
438.3745	11.8385	876749	prompt	n/a	jackie massage acknowledged audience\n
439.2315	0.165	878463	keystroke_j	j	n/a
439.4115	0.15	878823	keystroke_a	a	n/a
439.7565	0.12	879513	keystroke_c	c	n/a
440.2215	0.09	880443	keystroke_k	k	n/a
440.476	0.12	880952	keystroke_i	i	n/a
440.611	0.18	881222	keystroke_s	s	n/a
440.911	0.105	881822	keystroke_Key.space	Key.space	n/a
441.241	0.09	882482	keystroke_m	m	n/a
441.4515	0.119	882903	keystroke_a	a	n/a
441.7065	0.104	883413	keystroke_s	s	n/a
441.8705	0.136	883741	keystroke_s	s	n/a
442.1105	0.15	884221	keystroke_a	a	n/a
442.3065	0.135	884613	keystroke_g	g	n/a
442.5165	0.164	885033	keystroke_e	e	n/a
442.741	0.12	885482	keystroke_Key.space	Key.space	n/a
442.936	0.165	885872	keystroke_a	a	n/a
443.236	0.1495	886472	keystroke_c	c	n/a
443.6115	0.09	887223	keystroke_k	k	n/a
444.0315	0.1195	888063	keystroke_n	n	n/a
444.2715	0.165	888543	keystroke_o	o	n/a
444.467	0.179	888934	keystroke_w	w	n/a
444.736	0.121	889472	keystroke_l	l	n/a
445.456	0.165	890912	keystroke_e	e	n/a
445.982	0.149	891964	keystroke_f	f	n/a
446.251	0.12	892502	keystroke_g	g	n/a
446.446	0.15	892892	keystroke_e	e	n/a
446.987	0.1645	893974	keystroke_d	d	n/a
447.5565	0.12	895113	keystroke_Key.space	Key.space	n/a
448.2015	0.135	896403	keystroke_a	a	n/a
448.4265	0.135	896853	keystroke_u	u	n/a
448.7265	0.15	897453	keystroke_d	d	n/a
448.8615	0.105	897723	keystroke_i	i	n/a
449.1765	0.15	898353	keystroke_c	c	n/a
449.4315	0.135	898863	keystroke_n	n	n/a
449.6265	0.1505	899253	keystroke_e	e	n/a
450.092	0.12	900184	keystroke_Key.enter	Key.enter	n/a
450.2155	7.4525	900431	prompt	n/a	blvd warm bits idea\n
451.3215	0.1205	902643	keystroke_b	b	n/a
451.6215	0.1205	903243	keystroke_l	l	n/a
452.611	0.135	905222	keystroke_v	v	n/a
452.836	0.15	905672	keystroke_d	d	n/a
453.061	0.105	906122	keystroke_Key.space	Key.space	n/a
454.4715	0.135	908943	keystroke_w	w	n/a
454.6815	0.135	909363	keystroke_a	a	n/a
454.7565	0.165	909513	keystroke_r	r	n/a
454.9815	0.135	909963	keystroke_m	m	n/a
455.2365	0.105	910473	keystroke_Key.space	Key.space	n/a
455.6715	0.12	911343	keystroke_b	b	n/a
455.8365	0.12	911673	keystroke_i	i	n/a
456.0615	0.12	912123	keystroke_t	t	n/a
456.2565	0.165	912513	keystroke_s	s	n/a
456.4365	0.075	912873	keystroke_Key.space	Key.space	n/a
456.6465	0.105	913293	keystroke_i	i	n/a
456.9765	0.135	913953	keystroke_d	d	n/a
457.2015	0.195	914403	keystroke_e	e	n/a
457.3815	0.135	914763	keystroke_a	a	n/a
457.5615	0.105	915123	keystroke_Key.enter	Key.enter	n/a
457.671	21.163	915342	prompt	n/a	across impact cloud earthquake\n
458.3865	0.135	916773	keystroke_a	a	n/a
458.7015	0.12	917403	keystroke_c	c	n/a
458.9265	0.075	917853	keystroke_c	c	n/a
459.527	0.1035	919054	keystroke_Key.backspace	Key.backspace	n/a
459.7665	0.1345	919533	keystroke_c	c	n/a
460.0365	0.1795	920073	keystroke_r	r	n/a
461.311	0.18	922622	keystroke_Key.backspace	Key.backspace	n/a
461.536	0.135	923072	keystroke_Key.backspace	Key.backspace	n/a
461.716	0.105	923432	keystroke_Key.backspace	Key.backspace	n/a
462.436	0.135	924872	keystroke_c	c	n/a
462.887	0.164	925774	keystroke_r	r	n/a
466.369	0.028	932738	keystroke_o	o	n/a
466.637	0.12	933274	keystroke_e	e	n/a
467.267	0.105	934534	keystroke_Key.backspace	Key.backspace	n/a
467.492	0.105	934984	keystroke_s	s	n/a
467.657	0.135	935314	keystroke_s	s	n/a
467.927	0.09	935854	keystroke_Key.space	Key.space	n/a
469.007	0.105	938014	keystroke_i	i	n/a
469.337	0.135	938674	keystroke_m	m	n/a
469.742	0.09	939484	keystroke_p	p	n/a
470.0115	0.15	940023	keystroke_a	a	n/a
470.2665	0.15	940533	keystroke_c	c	n/a
470.5065	0.12	941013	keystroke_t	t	n/a
470.6715	0.12	941343	keystroke_Key.space	Key.space	n/a
470.9265	0.12	941853	keystroke_c	c	n/a
471.0315	0.15	942063	keystroke_l	l	n/a
471.2115	0.165	942423	keystroke_u	u	n/a
471.5265	0.165	943053	keystroke_d	d	n/a
472.547	0.09	945094	keystroke_Key.backspace	Key.backspace	n/a
472.727	0.105	945454	keystroke_Key.backspace	Key.backspace	n/a
473.687	0.09	947374	keystroke_o	o	n/a
473.762	0.09	947524	keystroke_u	u	n/a
473.882	0.15	947764	keystroke_d	d	n/a
474.182	0.09	948364	keystroke_Key.space	Key.space	n/a
475.261	0.106	950522	keystroke_e	e	n/a
475.517	0.18	951034	keystroke_a	a	n/a
476.087	0.105	952174	keystroke_r	r	n/a
476.281	0.135	952562	keystroke_t	t	n/a
476.3715	0.1645	952743	keystroke_h	h	n/a
476.821	0.165	953642	keystroke_q	q	n/a
477.001	0.195	954002	keystroke_u	u	n/a
478.0815	0.105	956163	keystroke_a	a	n/a
478.2015	0.105	956403	keystroke_k	k	n/a
478.3215	0.15	956643	keystroke_e	e	n/a
478.6965	0.135	957393	keystroke_Key.enter	Key.enter	n/a
478.8455	16.262	957691	prompt	n/a	feof alive increasingly apartments\n
479.972	0.18	959944	keystroke_f	f	n/a
480.527	0.105	961054	keystroke_o	o	n/a
481.172	0.15	962344	keystroke_Key.backspace	Key.backspace	n/a
481.517	0.1345	963034	keystroke_e	e	n/a
481.6665	0.18	963333	keystroke_r	r	n/a
482.3415	0.015	964683	keystroke_Key.backspace	Key.backspace	n/a
482.5065	0.165	965013	keystroke_o	o	n/a
482.8365	0.12	965673	keystroke_r	r	n/a
483.3015	0.12	966603	keystroke_Key.backspace	Key.backspace	n/a
483.4365	0.15	966873	keystroke_f	f	n/a
484.1865	0.09	968373	keystroke_Key.space	Key.space	n/a
484.4265	0.12	968853	keystroke_a	a	n/a
484.5315	0.1505	969063	keystroke_l	l	n/a
484.7415	0.12	969483	keystroke_i	i	n/a
484.9365	0.15	969873	keystroke_v	v	n/a
485.1615	0.12	970323	keystroke_e	e	n/a
485.2965	0.1055	970593	keystroke_Key.space	Key.space	n/a
485.627	0.18	971254	keystroke_i	i	n/a
485.732	0.135	971464	keystroke_n	n	n/a
486.092	0.12	972184	keystroke_c	c	n/a
486.422	0.15	972844	keystroke_r	r	n/a
486.947	0.165	973894	keystroke_e	e	n/a
487.772	0.15	975544	keystroke_a	a	n/a
488.027	0.1495	976054	keystroke_s	s	n/a
488.1915	0.165	976383	keystroke_i	i	n/a
488.2665	0.15	976533	keystroke_n	n	n/a
489.0165	0.135	978033	keystroke_g	g	n/a
489.1965	0.1805	978393	keystroke_l	l	n/a
489.437	0.12	978874	keystroke_y	y	n/a
489.467	0.044	978934	keystroke_h	h	n/a
490.5465	0.165	981093	keystroke_Key.backspace	Key.backspace	n/a
491.1915	0.12	982383	keystroke_Key.space	Key.space	n/a
492.3165	0.09	984633	keystroke_a	a	n/a
492.5865	0.135	985173	keystroke_p	p	n/a
493.381	0.225	986762	keystroke_a	a	n/a
493.591	0.12	987182	keystroke_r	r	n/a
493.816	0.15	987632	keystroke_t	t	n/a
494.101	0.12	988202	keystroke_m	m	n/a
494.206	0.15	988412	keystroke_e	e	n/a
494.371	0.135	988742	keystroke_n	n	n/a
494.446	0.135	988892	keystroke_t	t	n/a
494.656	0.195	989312	keystroke_s	s	n/a
494.971	0.135	989942	keystroke_Key.enter	Key.enter	n/a
495.11	17.8785	990220	prompt	n/a	delegation stress substance furnished\n
496.1415	0.1205	992283	keystroke_d	d	n/a
496.3965	0.12	992793	keystroke_e	e	n/a
496.4865	0.135	992973	keystroke_l	l	n/a
496.6365	0.18	993273	keystroke_e	e	n/a
497.6415	0.015	995283	keystroke_g	g	n/a
497.6715	0.15	995343	keystroke_a	a	n/a
497.8815	0.18	995763	keystroke_t	t	n/a
497.9865	0.165	995973	keystroke_i	i	n/a
498.0765	0.135	996153	keystroke_o	o	n/a
498.3015	0.12	996603	keystroke_n	n	n/a
498.7815	0.105	997563	keystroke_Key.space	Key.space	n/a
499.1415	0.135	998283	keystroke_s	s	n/a
499.3365	0.15	998673	keystroke_t	t	n/a
499.5915	0.195	999183	keystroke_r	r	n/a
500.1615	0.135	1000323	keystroke_e	e	n/a
500.4165	0.12	1000833	keystroke_s	s	n/a
500.5965	0.15	1001193	keystroke_s	s	n/a
500.8215	0.12	1001643	keystroke_Key.space	Key.space	n/a
501.1215	0.135	1002243	keystroke_s	s	n/a
501.6015	0.15	1003203	keystroke_u	u	n/a
503.476	0.12	1006952	keystroke_b	b	n/a
504.286	0.2405	1008572	keystroke_s	s	n/a
504.5565	0.165	1009113	keystroke_t	t	n/a
504.8115	0.135	1009623	keystroke_a	a	n/a
504.9765	0.1355	1009953	keystroke_n	n	n/a
505.232	0.12	1010464	keystroke_c	c	n/a
505.472	0.135	1010944	keystroke_e	e	n/a
505.652	0.12	1011304	keystroke_Key.space	Key.space	n/a
507.2265	0.135	1014453	keystroke_f	f	n/a
508.7115	0.12	1017423	keystroke_u	u	n/a
510.587	0.134	1021174	keystroke_r	r	n/a
510.7365	0.15	1021473	keystroke_n	n	n/a
511.8165	0.135	1023633	keystroke_i	i	n/a
512.0115	0.135	1024023	keystroke_s	s	n/a
512.1315	0.15	1024263	keystroke_h	h	n/a
512.3265	0.12	1024653	keystroke_e	e	n/a
512.5515	0.1805	1025103	keystroke_d	d	n/a
512.866	0.121	1025732	keystroke_Key.enter	Key.enter	n/a
512.999	7.939	1025998	prompt	n/a	isaac trick streaming itself\n
513.827	0.12	1027654	keystroke_i	i	n/a
513.992	0.15	1027984	keystroke_s	s	n/a
514.532	0.135	1029064	keystroke_a	a	n/a
514.817	0.105	1029634	keystroke_s	s	n/a
514.967	0.165	1029934	keystroke_s	s	n/a
515.537	0.15	1031074	keystroke_c	c	n/a
515.776	0.105	1031552	keystroke_Key.space	Key.space	n/a
516.137	0.119	1032274	keystroke_t	t	n/a
516.347	0.12	1032694	keystroke_r	r	n/a
516.452	0.105	1032904	keystroke_i	i	n/a
516.692	0.1505	1033384	keystroke_c	c	n/a
516.7965	0.105	1033593	keystroke_k	k	n/a
516.9915	0.105	1033983	keystroke_Key.space	Key.space	n/a
517.2315	0.18	1034463	keystroke_s	s	n/a
517.4565	0.12	1034913	keystroke_t	t	n/a
517.7265	0.21	1035453	keystroke_r	r	n/a
517.8465	0.24	1035693	keystroke_e	e	n/a
518.0415	0.165	1036083	keystroke_a	a	n/a
518.2215	0.12	1036443	keystroke_m	m	n/a
518.4765	0.12	1036953	keystroke_Key.space	Key.space	n/a
518.7165	0.105	1037433	keystroke_i	i	n/a
519.347	0.135	1038694	keystroke_t	t	n/a
519.692	0.165	1039384	keystroke_s	s	n/a
519.842	0.165	1039684	keystroke_e	e	n/a
520.082	0.105	1040164	keystroke_l	l	n/a
520.247	0.18	1040494	keystroke_f	f	n/a
520.802	0.135	1041604	keystroke_Key.enter	Key.enter	n/a
520.9425	20.591	1041885	prompt	n/a	celebrities blogs pennsylvania grad\n
521.777	0.135	1043554	keystroke_c	c	n/a
522.032	0.165	1044064	keystroke_e	e	n/a
522.167	0.105	1044334	keystroke_l	l	n/a
522.317	0.135	1044634	keystroke_e	e	n/a
522.632	0.15	1045264	keystroke_c	c	n/a
522.917	0.18	1045834	keystroke_r	r	n/a
523.127	0.12	1046254	keystroke_i	i	n/a
523.3665	0.1205	1046733	keystroke_t	t	n/a
523.817	0.135	1047634	keystroke_i	i	n/a
523.967	0.15	1047934	keystroke_e	e	n/a
524.222	0.165	1048444	keystroke_s	s	n/a
524.672	0.1055	1049344	keystroke_Key.space	Key.space	n/a
525.302	0.09	1050604	keystroke_Key.backspace	Key.backspace	n/a
525.467	0.075	1050934	keystroke_Key.backspace	Key.backspace	n/a
525.617	0.06	1051234	keystroke_Key.backspace	Key.backspace	n/a
525.872	0.075	1051744	keystroke_Key.backspace	Key.backspace	n/a
528.9935	0.028	1057987	keystroke_Key.backspace	Key.backspace	n/a
529.0815	0.0905	1058163	keystroke_Key.backspace	Key.backspace	n/a
529.262	0.0595	1058524	keystroke_Key.backspace	Key.backspace	n/a
529.412	0.09	1058824	keystroke_Key.backspace	Key.backspace	n/a
530.0715	0.135	1060143	keystroke_b	b	n/a
530.762	0.15	1061524	keystroke_r	r	n/a
530.972	0.105	1061944	keystroke_i	i	n/a
531.3465	0.15	1062693	keystroke_t	t	n/a
531.9925	0.119	1063985	keystroke_i	i	n/a
532.1265	0.166	1064253	keystroke_e	e	n/a
532.3665	0.21	1064733	keystroke_s	s	n/a
532.5615	0.105	1065123	keystroke_Key.space	Key.space	n/a
533.0115	0.1355	1066023	keystroke_b	b	n/a
533.177	0.135	1066354	keystroke_l	l	n/a
533.597	0.15	1067194	keystroke_o	o	n/a
533.792	0.135	1067584	keystroke_g	g	n/a
534.017	0.21	1068034	keystroke_s	s	n/a
534.182	0.105	1068364	keystroke_Key.space	Key.space	n/a
534.9315	0.15	1069863	keystroke_p	p	n/a
535.637	0.12	1071274	keystroke_e	e	n/a
535.802	0.165	1071604	keystroke_n	n	n/a
536.7465	0.135	1073493	keystroke_s	s	n/a
536.9565	0.12	1073913	keystroke_y	y	n/a
537.3465	0.105	1074693	keystroke_l	l	n/a
538.1415	0.105	1076283	keystroke_v	v	n/a
538.9365	0.075	1077873	keystroke_a	a	n/a
539.0265	0.09	1078053	keystroke_n	n	n/a
539.2065	0.135	1078413	keystroke_i	i	n/a
539.3565	0.135	1078713	keystroke_a	a	n/a
539.6565	0.105	1079313	keystroke_Key.space	Key.space	n/a
540.0765	0.12	1080153	keystroke_g	g	n/a
540.3165	0.1645	1080633	keystroke_r	r	n/a
540.826	0.18	1081652	keystroke_a	a	n/a
541.157	0.1645	1082314	keystroke_d	d	n/a
541.4115	0.1195	1082823	keystroke_Key.enter	Key.enter	n/a
541.544	12.5445	1083088	prompt	n/a	interview commissioner allowed modern\n
542.282	0.165	1084564	keystroke_i	i	n/a
542.372	0.135	1084744	keystroke_n	n	n/a
542.567	0.12	1085134	keystroke_t	t	n/a
542.732	0.24	1085464	keystroke_e	e	n/a
542.852	0.165	1085704	keystroke_r	r	n/a
543.482	0.135	1086964	keystroke_v	v	n/a
543.752	0.135	1087504	keystroke_i	i	n/a
543.947	0.195	1087894	keystroke_e	e	n/a
544.127	0.225	1088254	keystroke_w	w	n/a
544.187	0.03	1088374	keystroke_e	e	n/a
544.517	0.09	1089034	keystroke_Key.space	Key.space	n/a
544.877	0.135	1089754	keystroke_c	c	n/a
545.072	0.15	1090144	keystroke_o	o	n/a
545.402	0.09	1090804	keystroke_m	m	n/a
545.567	0.12	1091134	keystroke_m	m	n/a
545.7925	0.1645	1091585	keystroke_i	i	n/a
546.002	0.15	1092004	keystroke_s	s	n/a
546.302	0.0895	1092604	keystroke_s	s	n/a
546.6615	0.225	1093323	keystroke_i	i	n/a
546.7965	0.18	1093593	keystroke_o	o	n/a
547.0965	0.12	1094193	keystroke_n	n	n/a
547.4265	0.225	1094853	keystroke_e	e	n/a
547.562	0.1645	1095124	keystroke_r	r	n/a
547.7565	0.105	1095513	keystroke_Key.space	Key.space	n/a
547.9215	0.1205	1095843	keystroke_a	a	n/a
548.087	0.075	1096174	keystroke_l	l	n/a
548.267	0.075	1096534	keystroke_l	l	n/a
548.417	0.165	1096834	keystroke_o	o	n/a
548.567	0.165	1097134	keystroke_w	w	n/a
548.702	0.24	1097404	keystroke_e	e	n/a
550.307	0.195	1100614	keystroke_d	d	n/a
550.607	0.09	1101214	keystroke_Key.space	Key.space	n/a
550.862	0.12	1101724	keystroke_o	o	n/a
551.447	0.135	1102894	keystroke_Key.backspace	Key.backspace	n/a
552.107	0.135	1104214	keystroke_m	m	n/a
552.602	0.075	1105204	keystroke_o	o	n/a
552.797	0.105	1105594	keystroke_d	d	n/a
553.022	0.18	1106044	keystroke_e	e	n/a
553.127	0.15	1106254	keystroke_r	r	n/a
553.352	0.0895	1106704	keystroke_n	n	n/a
553.9675	0.12	1107935	keystroke_Key.enter	Key.enter	n/a
554.095	9.5785	1108190	prompt	n/a	drinks valley fixed filme\n
554.927	0.195	1109854	keystroke_d	d	n/a
555.122	0.135	1110244	keystroke_r	r	n/a
555.212	0.1645	1110424	keystroke_i	i	n/a
555.317	0.1355	1110634	keystroke_n	n	n/a
555.5265	0.15	1111053	keystroke_k	k	n/a
555.7515	0.181	1111503	keystroke_s	s	n/a
556.1115	0.12	1112223	keystroke_Key.space	Key.space	n/a
557.6715	0.15	1115343	keystroke_v	v	n/a
557.8365	0.15	1115673	keystroke_a	a	n/a
558.1065	0.075	1116213	keystroke_l	l	n/a
558.2565	0.12	1116513	keystroke_l	l	n/a
558.602	0.09	1117204	keystroke_y	y	n/a
558.947	0.075	1117894	keystroke_Key.space	Key.space	n/a
559.4575	0.15	1118915	keystroke_f	f	n/a
559.6075	0.09	1119215	keystroke_i	i	n/a
559.9375	0.0595	1119875	keystroke_c	c	n/a
560.102	0.1055	1120204	keystroke_x	x	n/a
560.8225	0.09	1121645	keystroke_e	e	n/a
561.0325	0.135	1122065	keystroke_d	d	n/a
561.1675	0.09	1122335	keystroke_Key.space	Key.space	n/a
561.9775	0.15	1123955	keystroke_f	f	n/a
562.7425	0.105	1125485	keystroke_i	i	n/a
562.9225	0.135	1125845	keystroke_l	l	n/a
563.2225	0.045	1126445	keystroke_m	m	n/a
563.3125	0.164	1126625	keystroke_e	e	n/a
563.5365	0.135	1127073	keystroke_Key.enter	Key.enter	n/a
563.687	23.822	1127374	prompt	n/a	vacuum replies court secretariat\n
564.4665	0.135	1128933	keystroke_v	v	n/a
564.7515	0.151	1129503	keystroke_a	a	n/a
565.2165	0.12	1130433	keystroke_c	c	n/a
565.5465	0.105	1131093	keystroke_u	u	n/a
565.7115	0.12	1131423	keystroke_u	u	n/a
566.0415	0.1205	1132083	keystroke_m	m	n/a
566.462	0.0895	1132924	keystroke_Key.space	Key.space	n/a
566.8965	0.12	1133793	keystroke_p	p	n/a
567.4065	0.135	1134813	keystroke_Key.backspace	Key.backspace	n/a
567.977	0.2545	1135954	keystroke_r	r	n/a
568.1865	0.195	1136373	keystroke_e	e	n/a
568.6815	0.09	1137363	keystroke_p	p	n/a
568.9215	0.12	1137843	keystroke_l	l	n/a
569.1315	0.12	1138263	keystroke_i	i	n/a
569.2665	0.15	1138533	keystroke_e	e	n/a
569.5215	0.165	1139043	keystroke_s	s	n/a
570.7665	0.1055	1141533	keystroke_Key.space	Key.space	n/a
571.097	0.12	1142194	keystroke_c	c	n/a
572.042	0.165	1144084	keystroke_o	o	n/a
572.1015	0.1655	1144203	keystroke_u	u	n/a
572.2965	0.1355	1144593	keystroke_r	r	n/a
572.5515	0.1505	1145103	keystroke_t	t	n/a
572.912	0.12	1145824	keystroke_Key.space	Key.space	n/a
573.5415	0.12	1147083	keystroke_s	s	n/a
573.7365	0.195	1147473	keystroke_e	e	n/a
574.4575	0.135	1148915	keystroke_c	c	n/a
575.717	0.15	1151434	keystroke_r	r	n/a
575.897	0.195	1151794	keystroke_e	e	n/a
576.317	0.135	1152634	keystroke_c	c	n/a
576.542	0.135	1153084	keystroke_t	t	n/a
576.7825	0.15	1153565	keystroke_e	e	n/a
577.2015	0.135	1154403	keystroke_a	a	n/a
577.3965	0.15	1154793	keystroke_t	t	n/a
577.7715	0.045	1155543	keystroke_\	\	n/a
579.797	0.105	1159594	keystroke_Key.backspace	Key.backspace	n/a
580.217	0.06	1160434	keystroke_Key.backspace	Key.backspace	n/a
580.397	0.09	1160794	keystroke_Key.backspace	Key.backspace	n/a
580.607	0.06	1161214	keystroke_Key.backspace	Key.backspace	n/a
580.757	0.0755	1161514	keystroke_Key.backspace	Key.backspace	n/a
580.9375	0.06	1161875	keystroke_Key.backspace	Key.backspace	n/a
581.1465	0.06	1162293	keystroke_Key.backspace	Key.backspace	n/a
581.6865	0.045	1163373	keystroke_Key.backspace	Key.backspace	n/a
584.1495	0.087	1168299	keystroke_r	r	n/a
584.2525	0.135	1168505	keystroke_e	e	n/a
584.8225	0.134	1169645	keystroke_t	t	n/a
585.1665	0.195	1170333	keystroke_a	a	n/a
585.377	0.1945	1170754	keystroke_r	r	n/a
585.9625	0.134	1171925	keystroke_i	i	n/a
586.6975	0.135	1173395	keystroke_a	a	n/a
586.8465	0.165	1173693	keystroke_t	t	n/a
587.4315	0.075	1174863	keystroke_Key.enter	Key.enter	n/a
587.52	9.8285	1175040	prompt	n/a	quarters national config responded\n
588.512	0.165	1177024	keystroke_q	q	n/a
588.752	0.12	1177504	keystroke_u	u	n/a
588.947	0.255	1177894	keystroke_a	a	n/a
589.172	0.135	1178344	keystroke_r	r	n/a
589.562	0.12	1179124	keystroke_t	t	n/a
589.802	0.15	1179604	keystroke_e	e	n/a
589.907	0.15	1179814	keystroke_r	r	n/a
590.1325	0.15	1180265	keystroke_s	s	n/a
590.3125	0.12	1180625	keystroke_Key.space	Key.space	n/a
590.5975	0.105	1181195	keystroke_n	n	n/a
590.7175	0.21	1181435	keystroke_a	a	n/a
590.8975	0.135	1181795	keystroke_t	t	n/a
590.9875	0.21	1181975	keystroke_i	i	n/a
591.1075	0.1645	1182215	keystroke_o	o	n/a
591.302	0.135	1182604	keystroke_n	n	n/a
591.977	0.09	1183954	keystroke_a	a	n/a
592.082	0.105	1184164	keystroke_l	l	n/a
592.247	0.12	1184494	keystroke_Key.space	Key.space	n/a
592.652	0.12	1185304	keystroke_c	c	n/a
592.757	0.165	1185514	keystroke_o	o	n/a
592.847	0.12	1185694	keystroke_n	n	n/a
593.222	0.135	1186444	keystroke_f	f	n/a
593.342	0.1345	1186684	keystroke_i	i	n/a
593.6725	0.089	1187345	keystroke_d	d	n/a
594.0915	0.135	1188183	keystroke_Key.backspace	Key.backspace	n/a
594.2415	0.075	1188483	keystroke_g	g	n/a
594.5415	0.09	1189083	keystroke_Key.space	Key.space	n/a
595.0215	0.21	1190043	keystroke_r	r	n/a
595.2015	0.165	1190403	keystroke_e	e	n/a
595.4865	0.135	1190973	keystroke_s	s	n/a
595.8165	0.09	1191633	keystroke_p	p	n/a
595.9515	0.135	1191903	keystroke_o	o	n/a
596.2065	0.12	1192413	keystroke_n	n	n/a
596.3715	0.135	1192743	keystroke_d	d	n/a
596.6115	0.105	1193223	keystroke_e	e	n/a
596.8225	0.165	1193645	keystroke_d	d	n/a
597.2265	0.12	1194453	keystroke_Key.enter	Key.enter	n/a
597.3505	11.9985	1194701	prompt	n/a	memo romania influences interfaces\n
598.1415	0.105	1196283	keystroke_m	m	n/a
598.3215	0.1655	1196643	keystroke_e	e	n/a
598.5015	0.15	1197003	keystroke_m	m	n/a
598.6965	0.18	1197393	keystroke_o	o	n/a
599.3265	0.0905	1198653	keystroke_Key.space	Key.space	n/a
599.687	0.165	1199374	keystroke_r	r	n/a
600.092	0.15	1200184	keystroke_o	o	n/a
600.347	0.12	1200694	keystroke_m	m	n/a
600.587	0.135	1201174	keystroke_a	a	n/a
601.037	0.135	1202074	keystroke_n	n	n/a
601.337	0.12	1202674	keystroke_i	i	n/a
601.562	0.15	1203124	keystroke_a	a	n/a
601.892	0.105	1203784	keystroke_Key.space	Key.space	n/a
602.357	0.165	1204714	keystroke_i	i	n/a
602.432	0.135	1204864	keystroke_n	n	n/a
602.897	0.165	1205794	keystroke_f	f	n/a
603.047	0.165	1206094	keystroke_l	l	n/a
603.302	0.135	1206604	keystroke_u	u	n/a
603.782	0.1495	1207564	keystroke_e	e	n/a
603.9015	0.1505	1207803	keystroke_n	n	n/a
604.202	0.105	1208404	keystroke_c	c	n/a
604.412	0.21	1208824	keystroke_e	e	n/a
604.592	0.15	1209184	keystroke_s	s	n/a
604.772	0.105	1209544	keystroke_Key.space	Key.space	n/a
605.042	0.105	1210084	keystroke_i	i	n/a
605.087	0.12	1210174	keystroke_n	n	n/a
605.177	0.12	1210354	keystroke_t	t	n/a
605.3425	0.195	1210685	keystroke_e	e	n/a
605.4625	0.15	1210925	keystroke_r	r	n/a
608.2395	0.043	1216479	keystroke_f	f	n/a
608.3125	0.15	1216625	keystroke_a	a	n/a
608.5665	0.106	1217133	keystroke_c	c	n/a
608.7925	0.225	1217585	keystroke_e	e	n/a
608.9725	0.18	1217945	keystroke_s	s	n/a
609.2425	0.105	1218485	keystroke_Key.enter	Key.enter	n/a
609.36	10.2635	1218720	prompt	n/a	programmers dept need chris\n
610.1865	0.106	1220373	keystroke_p	p	n/a
610.3375	0.165	1220675	keystroke_r	r	n/a
610.5475	0.119	1221095	keystroke_o	o	n/a
611.162	0.1355	1222324	keystroke_g	g	n/a
611.4025	0.195	1222805	keystroke_r	r	n/a
611.5975	0.135	1223195	keystroke_a	a	n/a
612.4975	0.06	1224995	keystroke_m	m	n/a
612.6315	0.105	1225263	keystroke_m	m	n/a
612.7815	0.075	1225563	keystroke_e	e	n/a
612.7975	0.179	1225595	keystroke_r	r	n/a
613.0365	0.165	1226073	keystroke_s	s	n/a
613.1865	0.105	1226373	keystroke_Key.space	Key.space	n/a
613.5165	0.105	1227033	keystroke_d	d	n/a
613.7265	0.18	1227453	keystroke_e	e	n/a
613.8915	0.135	1227783	keystroke_p	p	n/a
614.0565	0.15	1228113	keystroke_t	t	n/a
614.7765	0.105	1229553	keystroke_Key.space	Key.space	n/a
614.9865	0.105	1229973	keystroke_n	n	n/a
615.1365	0.12	1230273	keystroke_e	e	n/a
615.3315	0.105	1230663	keystroke_e	e	n/a
615.6015	0.15	1231203	keystroke_d	d	n/a
615.7815	0.105	1231563	keystroke_Key.space	Key.space	n/a
616.2615	0.135	1232523	keystroke_c	c	n/a
616.9665	0.135	1233933	keystroke_h	h	n/a
617.2365	0.135	1234473	keystroke_r	r	n/a
617.507	0.1355	1235014	keystroke_i	i	n/a
617.6575	0.1495	1235315	keystroke_s	s	n/a
618.347	0.15	1236694	keystroke_\	\	n/a
619.127	0.12	1238254	keystroke_Key.backspace	Key.backspace	n/a
619.457	0.165	1238914	keystroke_Key.enter	Key.enter	n/a
619.626	18.538	1239252	prompt	n/a	zimbabwe walked advertisement gabriel\n
620.6265	0.15	1241253	keystroke_z	z	n/a
621.3025	0.105	1242605	keystroke_i	i	n/a
621.5125	0.12	1243025	keystroke_m	m	n/a
622.2625	0.135	1244525	keystroke_v	v	n/a
622.6965	0.15	1245393	keystroke_a	a	n/a
623.477	0.105	1246954	keystroke_Key.backspace	Key.backspace	n/a
623.642	0.12	1247284	keystroke_Key.backspace	Key.backspace	n/a
624.062	0.195	1248124	keystroke_b	b	n/a
624.272	0.1645	1248544	keystroke_a	a	n/a
624.4215	0.18	1248843	keystroke_b	b	n/a
625.0215	0.135	1250043	keystroke_w	w	n/a
625.3065	0.135	1250613	keystroke_e	e	n/a
625.5765	0.09	1251153	keystroke_Key.space	Key.space	n/a
625.8765	0.195	1251753	keystroke_w	w	n/a
626.1315	0.135	1252263	keystroke_a	a	n/a
626.2365	0.196	1252473	keystroke_l	l	n/a
626.3725	0.18	1252745	keystroke_k	k	n/a
626.7325	0.135	1253465	keystroke_d	d	n/a
626.9725	0.09	1253945	keystroke_e	e	n/a
627.1675	0.18	1254335	keystroke_d	d	n/a
627.3325	0.09	1254665	keystroke_Key.space	Key.space	n/a
628.0825	0.105	1256165	keystroke_a	a	n/a
628.2625	0.165	1256525	keystroke_d	d	n/a
629.1025	0.12	1258205	keystroke_v	v	n/a
629.3275	0.195	1258655	keystroke_e	e	n/a
629.4325	0.15	1258865	keystroke_r	r	n/a
630.1375	0.135	1260275	keystroke_t	t	n/a
630.2875	0.105	1260575	keystroke_i	i	n/a
630.4825	0.165	1260965	keystroke_s	s	n/a
631.2625	0.15	1262525	keystroke_e	e	n/a
631.5925	0.12	1263185	keystroke_m	m	n/a
631.7275	0.15	1263455	keystroke_e	e	n/a
631.8475	0.135	1263695	keystroke_n	n	n/a
631.9675	0.15	1263935	keystroke_t	t	n/a
632.2675	0.105	1264535	keystroke_Key.space	Key.space	n/a
632.9575	0.135	1265915	keystroke_g	g	n/a
634.667	0.135	1269334	keystroke_a	a	n/a
634.817	0.165	1269634	keystroke_b	b	n/a
635.402	0.135	1270804	keystroke_r	r	n/a
635.552	0.135	1271104	keystroke_i	i	n/a
636.917	0.15	1273834	keystroke_e	e	n/a
637.097	0.09	1274194	keystroke_l	l	n/a
638.0565	0.105	1276113	keystroke_Key.enter	Key.enter	n/a
638.1745	13.249	1276349	prompt	n/a	advertiser orleans receipt anne\n
639.0915	0.181	1278183	keystroke_a	a	n/a
639.6615	0.135	1279323	keystroke_d	d	n/a
640.0065	0.12	1280013	keystroke_v	v	n/a
640.1715	0.2105	1280343	keystroke_e	e	n/a
640.322	0.135	1280644	keystroke_r	r	n/a
640.787	0.15	1281574	keystroke_r	r	n/a
640.952	0.105	1281904	keystroke_i	i	n/a
641.372	0.165	1282744	keystroke_s	s	n/a
641.687	0.09	1283374	keystroke_t	t	n/a
642.152	0.12	1284304	keystroke_Key.backspace	Key.backspace	n/a
642.332	0.21	1284664	keystroke_e	e	n/a
642.452	0.18	1284904	keystroke_r	r	n/a
642.692	0.135	1285384	keystroke_Key.space	Key.space	n/a
643.4575	0.075	1286915	keystroke_o	o	n/a
643.7725	0.135	1287545	keystroke_r	r	n/a
645.6475	0.09	1291295	keystroke_l	l	n/a
646.1425	0.165	1292285	keystroke_e	e	n/a
646.3225	0.135	1292645	keystroke_a	a	n/a
646.4725	0.135	1292945	keystroke_n	n	n/a
646.6225	0.18	1293245	keystroke_s	s	n/a
646.8625	0.105	1293725	keystroke_Key.space	Key.space	n/a
647.2825	0.2395	1294565	keystroke_r	r	n/a
647.402	0.195	1294804	keystroke_e	e	n/a
647.957	0.12	1295914	keystroke_c	c	n/a
648.242	0.09	1296484	keystroke_i	i	n/a
648.602	0.165	1297204	keystroke_e	e	n/a
648.887	0.105	1297774	keystroke_p	p	n/a
649.097	0.15	1298194	keystroke_t	t	n/a
649.532	0.105	1299064	keystroke_Key.space	Key.space	n/a
649.727	0.12	1299454	keystroke_a	a	n/a
649.892	0.09	1299784	keystroke_n	n	n/a
650.057	0.09	1300114	keystroke_n	n	n/a
650.267	0.15	1300534	keystroke_e	e	n/a
651.317	0.105	1302634	keystroke_Key.enter	Key.enter	n/a
651.426	12.628	1302852	prompt	n/a	should've necklace findlaw removing\n
652.652	0.165	1305304	keystroke_s	s	n/a
652.787	0.135	1305574	keystroke_h	h	n/a
653.282	0.195	1306564	keystroke_o	o	n/a
653.357	0.15	1306714	keystroke_u	u	n/a
654.437	0.135	1308874	keystroke_l	l	n/a
654.6325	0.195	1309265	keystroke_d	d	n/a
655.832	0.09	1311664	keystroke_'	'	n/a
656.207	0.15	1312414	keystroke_v	v	n/a
656.447	0.18	1312894	keystroke_e	e	n/a
656.612	0.105	1313224	keystroke_Key.space	Key.space	n/a
656.882	0.135	1313764	keystroke_n	n	n/a
657.032	0.135	1314064	keystroke_e	e	n/a
657.317	0.15	1314634	keystroke_c	c	n/a
657.4375	0.105	1314875	keystroke_k	k	n/a
657.662	0.1205	1315324	keystroke_l	l	n/a
657.812	0.1355	1315624	keystroke_a	a	n/a
658.052	0.136	1316104	keystroke_c	c	n/a
658.293	0.135	1316586	keystroke_e	e	n/a
658.413	0.1195	1316826	keystroke_Key.space	Key.space	n/a
659.4775	0.135	1318955	keystroke_f	f	n/a
659.6275	0.195	1319255	keystroke_i	i	n/a
659.7625	0.15	1319525	keystroke_n	n	n/a
660.0625	0.12	1320125	keystroke_d	d	n/a
661.1725	0.1055	1322345	keystroke_l	l	n/a
661.472	0.18	1322944	keystroke_a	a	n/a
661.697	0.015	1323394	keystroke_a	a	n/a
661.727	0.15	1323454	keystroke_w	w	n/a
661.907	0.105	1323814	keystroke_Key.space	Key.space	n/a
662.252	0.241	1324504	keystroke_r	r	n/a
662.387	0.135	1324774	keystroke_e	e	n/a
662.6125	0.165	1325225	keystroke_m	m	n/a
662.7325	0.135	1325465	keystroke_o	o	n/a
662.9575	0.18	1325915	keystroke_v	v	n/a
663.2425	0.2095	1326485	keystroke_i	i	n/a
663.407	0.165	1326814	keystroke_n	n	n/a
663.588	0.134	1327176	keystroke_g	g	n/a
663.9325	0.12	1327865	keystroke_Key.enter	Key.enter	n/a
664.0565	13.8875	1328113	prompt	n/a	clinic predicted ordering donate\n
664.9375	0.135	1329875	keystroke_c	c	n/a
665.1175	0.12	1330235	keystroke_i	i	n/a
665.3125	0.135	1330625	keystroke_l	l	n/a
665.4625	0.21	1330925	keystroke_i	i	n/a
665.867	0.18	1331734	keystroke_c	c	n/a
666.647	0.0905	1333294	keystroke_Key.backspace	Key.backspace	n/a
666.8125	0.06	1333625	keystroke_Key.backspace	Key.backspace	n/a
666.9325	0.075	1333865	keystroke_Key.backspace	Key.backspace	n/a
668.612	0.09	1337224	keystroke_Key.backspace	Key.backspace	n/a
669.018	0.089	1338036	keystroke_l	l	n/a
669.197	0.2255	1338394	keystroke_i	i	n/a
669.347	0.1355	1338694	keystroke_n	n	n/a
669.7225	0.135	1339445	keystroke_i	i	n/a
669.8425	0.12	1339685	keystroke_c	c	n/a
670.3975	0.075	1340795	keystroke_Key.space	Key.space	n/a
671.1475	0.075	1342295	keystroke_p	p	n/a
671.3425	0.18	1342685	keystroke_r	r	n/a
671.4625	0.135	1342925	keystroke_e	e	n/a
671.9875	0.1655	1343975	keystroke_d	d	n/a
672.198	0.15	1344396	keystroke_i	i	n/a
672.723	0.195	1345446	keystroke_c	c	n/a
673.428	0.105	1346856	keystroke_t	t	n/a
673.608	0.12	1347216	keystroke_e	e	n/a
673.848	0.164	1347696	keystroke_d	d	n/a
673.997	0.075	1347994	keystroke_Key.space	Key.space	n/a
674.208	0.12	1348416	keystroke_o	o	n/a
674.342	0.166	1348684	keystroke_r	r	n/a
674.642	0.136	1349284	keystroke_d	d	n/a
674.898	0.225	1349796	keystroke_e	e	n/a
675.033	0.18	1350066	keystroke_r	r	n/a
675.393	0.15	1350786	keystroke_i	i	n/a
675.498	0.105	1350996	keystroke_n	n	n/a
675.558	0.135	1351116	keystroke_g	g	n/a
675.933	0.09	1351866	keystroke_Key.space	Key.space	n/a
676.548	0.135	1353096	keystroke_d	d	n/a
676.698	0.105	1353396	keystroke_o	o	n/a
676.923	0.09	1353846	keystroke_n	n	n/a
677.148	0.135	1354296	keystroke_a	a	n/a
677.328	0.12	1354656	keystroke_t	t	n/a
677.493	0.165	1354986	keystroke_e	e	n/a
677.838	0.105	1355676	keystroke_Key.enter	Key.enter	n/a
677.957	10.2025	1355914	prompt	n/a	monthly favorite pink scott\n
679.068	0.09	1358136	keystroke_m	m	n/a
679.278	0.195	1358556	keystroke_o	o	n/a
679.413	0.135	1358826	keystroke_n	n	n/a
680.313	0.15	1360626	keystroke_t	t	n/a
680.478	0.105	1360956	keystroke_h	h	n/a
680.748	0.15	1361496	keystroke_l	l	n/a
680.943	0.15	1361886	keystroke_y	y	n/a
681.123	0.12	1362246	keystroke_Key.space	Key.space	n/a
681.453	0.18	1362906	keystroke_f	f	n/a
681.618	0.21	1363236	keystroke_a	a	n/a
682.3985	0.1495	1364797	keystroke_v	v	n/a
682.563	0.105	1365126	keystroke_o	o	n/a
682.788	0.18	1365576	keystroke_r	r	n/a
683.043	0.18	1366086	keystroke_i	i	n/a
683.208	0.15	1366416	keystroke_t	t	n/a
684.0935	0.12	1368187	keystroke_e	e	n/a
684.3035	0.09	1368607	keystroke_Key.space	Key.space	n/a
684.6485	0.135	1369297	keystroke_p	p	n/a
684.8275	0.09	1369655	keystroke_i	i	n/a
685.1435	0.105	1370287	keystroke_n	n	n/a
685.3525	0.12	1370705	keystroke_k	k	n/a
685.6835	0.044	1371367	keystroke_Key.space	Key.space	n/a
686.148	0.135	1372296	keystroke_s	s	n/a
686.448	0.135	1372896	keystroke_c	c	n/a
686.793	0.06	1373586	keystroke_o	o	n/a
686.928	0.09	1373856	keystroke_o	o	n/a
687.1525	0.135	1374305	keystroke_t	t	n/a
688.068	0.09	1376136	keystroke_Key.enter	Key.enter	n/a
688.1635	8.426	1376327	prompt	n/a	considers wide toolkit built\n
689.028	0.09	1378056	keystroke_c	c	n/a
689.163	0.15	1378326	keystroke_o	o	n/a
689.238	0.15	1378476	keystroke_n	n	n/a
689.508	0.15	1379016	keystroke_s	s	n/a
689.733	0.1355	1379466	keystroke_i	i	n/a
689.973	0.12	1379946	keystroke_d	d	n/a
690.1985	0.1345	1380397	keystroke_e	e	n/a
690.273	0.135	1380546	keystroke_r	r	n/a
690.468	0.15	1380936	keystroke_s	s	n/a
690.663	0.0905	1381326	keystroke_Key.space	Key.space	n/a
691.0085	0.15	1382017	keystroke_w	w	n/a
691.1735	0.105	1382347	keystroke_i	i	n/a
691.3535	0.12	1382707	keystroke_d	d	n/a
691.5635	0.135	1383127	keystroke_e	e	n/a
691.7135	0.06	1383427	keystroke_Key.space	Key.space	n/a
691.9535	0.134	1383907	keystroke_t	t	n/a
692.0885	0.104	1384177	keystroke_o	o	n/a
692.7635	0.089	1385527	keystroke_o	o	n/a
693.0035	0.12	1386007	keystroke_l	l	n/a
693.3775	0.12	1386755	keystroke_k	k	n/a
693.6025	0.105	1387205	keystroke_i	i	n/a
693.7685	0.12	1387537	keystroke_t	t	n/a
694.5635	0.104	1389127	keystroke_Key.space	Key.space	n/a
694.8625	0.151	1389725	keystroke_b	b	n/a
694.9975	0.165	1389995	keystroke_i	i	n/a
695.298	0.1645	1390596	keystroke_o	o	n/a
695.4775	0.15	1390955	keystroke_;	;	n/a
696.0175	0.1505	1392035	keystroke_t	t	n/a
696.453	0.135	1392906	keystroke_Key.enter	Key.enter	n/a
696.592	13.3625	1393184	prompt	n/a	book reaching telecommunications zero\n
697.428	0.105	1394856	keystroke_r	r	n/a
698.073	0.165	1396146	keystroke_Key.backspace	Key.backspace	n/a
698.583	0.12	1397166	keystroke_b	b	n/a
698.823	0.075	1397646	keystroke_o	o	n/a
698.973	0.12	1397946	keystroke_o	o	n/a
699.273	0.105	1398546	keystroke_k	k	n/a
699.498	0.075	1398996	keystroke_Key.space	Key.space	n/a
699.798	0.165	1399596	keystroke_r	r	n/a
700.068	0.195	1400136	keystroke_a	a	n/a
700.818	0.12	1401636	keystroke_Key.backspace	Key.backspace	n/a
701.223	0.015	1402446	keystroke_e	e	n/a
701.253	0.105	1402506	keystroke_a	a	n/a
701.478	0.165	1402956	keystroke_c	c	n/a
701.598	0.105	1403196	keystroke_h	h	n/a
701.808	0.18	1403616	keystroke_o	o	n/a
701.928	0.12	1403856	keystroke_n	n	n/a
701.973	0.165	1403946	keystroke_g	g	n/a
702.483	0.09	1404966	keystroke_Key.space	Key.space	n/a
703.2325	0.166	1406465	keystroke_r	r	n/a
704.2085	0.12	1408417	keystroke_;	;	n/a
704.3735	0.165	1408747	keystroke_e	e	n/a
704.913	0.135	1409826	keystroke_c	c	n/a
704.973	0.135	1409946	keystroke_p	p	n/a
705.303	0.045	1410606	keystroke_m	m	n/a
705.453	0.105	1410906	keystroke_m	m	n/a
705.798	0.105	1411596	keystroke_u	u	n/a
706.053	0.09	1412106	keystroke_m	m	n/a
706.593	0.195	1413186	keystroke_c	c	n/a
706.758	0.21	1413516	keystroke_a	a	n/a
707.013	0.165	1414026	keystroke_t	t	n/a
707.148	0.165	1414296	keystroke_i	i	n/a
707.193	0.195	1414386	keystroke_p	p	n/a
707.208	0.12	1414416	keystroke_o	o	n/a
707.493	0.105	1414986	keystroke_n	n	n/a
707.958	0.105	1415916	keystroke_Key.space	Key.space	n/a
708.423	0.15	1416846	keystroke_z	z	n/a
708.783	0.2405	1417566	keystroke_e	e	n/a
708.9185	0.195	1417837	keystroke_r	r	n/a
709.2335	0.135	1418467	keystroke_p	p	n/a
709.8335	0.12	1419667	keystroke_Key.enter	Key.enter	n/a
709.9595	23.2755	1419919	prompt	n/a	acknowledged indexes stakeholders regions\n
710.7635	0.135	1421527	keystroke_a	a	n/a
711.0335	0.135	1422067	keystroke_c	c	n/a
712.3085	0.089	1424617	keystroke_k	k	n/a
712.5025	0.045	1425005	keystroke_Key.space	Key.space	n/a
713.3725	0.075	1426745	keystroke_Key.backspace	Key.backspace	n/a
715.775	0.028	1431550	keystroke_o	o	n/a
715.848	0.15	1431696	keystroke_w	w	n/a
716.418	0.09	1432836	keystroke_l	l	n/a
717.003	0.135	1434006	keystroke_e	e	n/a
717.4835	0.134	1434967	keystroke_d	d	n/a
717.7675	0.135	1435535	keystroke_f	f	n/a
718.278	0.12	1436556	keystroke_Key.backspace	Key.backspace	n/a
718.428	0.12	1436856	keystroke_g	g	n/a
718.623	0.15	1437246	keystroke_e	e	n/a
718.923	0.165	1437846	keystroke_d	d	n/a
719.5375	0.0905	1439075	keystroke_Key.space	Key.space	n/a
721.0985	0.09	1442197	keystroke_n	n	n/a
721.2485	0.165	1442497	keystroke_e	e	n/a
722.2385	0.09	1444477	keystroke_Key.backspace	Key.backspace	n/a
722.4035	0.1195	1444807	keystroke_Key.backspace	Key.backspace	n/a
723.4085	0.135	1446817	keystroke_i	i	n/a
723.4685	0.12	1446937	keystroke_n	n	n/a
724.908	0.09	1449816	keystroke_d	d	n/a
725.118	0.12	1450236	keystroke_e	e	n/a
725.3885	0.12	1450777	keystroke_x	x	n/a
725.6135	0.1495	1451227	keystroke_e	e	n/a
725.793	0.15	1451586	keystroke_s	s	n/a
726.348	0.09	1452696	keystroke_Key.space	Key.space	n/a
727.008	0.15	1454016	keystroke_s	s	n/a
727.488	0.15	1454976	keystroke_t	t	n/a
727.668	0.135	1455336	keystroke_a	a	n/a
727.818	0.105	1455636	keystroke_k	k	n/a
727.983	0.1505	1455966	keystroke_e	e	n/a
728.4935	0.105	1456987	keystroke_h	h	n/a
729.0185	0.12	1458037	keystroke_o	o	n/a
729.2585	0.134	1458517	keystroke_l	l	n/a
729.4085	0.135	1458817	keystroke_d	d	n/a
729.7085	0.165	1459417	keystroke_e	e	n/a
729.7685	0.029	1459537	keystroke_w	w	n/a
729.8135	0.179	1459627	keystroke_r	r	n/a
730.2775	0.061	1460555	keystroke_Key.space	Key.space	n/a
730.6085	0.2545	1461217	keystroke_r	r	n/a
730.728	0.195	1461456	keystroke_e	e	n/a
731.148	0.09	1462296	keystroke_i	i	n/a
731.898	0.165	1463796	keystroke_g	g	n/a
732.1075	0.211	1464215	keystroke_o	o	n/a
732.2875	0.12	1464575	keystroke_n	n	n/a
732.8425	0.12	1465685	keystroke_s	s	n/a
733.1125	0.12	1466225	keystroke_Key.enter	Key.enter	n/a
733.2455	10.249	1466491	prompt	n/a	acres knee industries ordered\n
733.878	0.18	1467756	keystroke_a	a	n/a
734.193	0.12	1468386	keystroke_c	c	n/a
734.493	0.18	1468986	keystroke_r	r	n/a
734.583	0.1495	1469166	keystroke_e	e	n/a
734.7625	0.1655	1469525	keystroke_s	s	n/a
734.973	0.12	1469946	keystroke_Key.space	Key.space	n/a
735.378	0.165	1470756	keystroke_k	k	n/a
735.468	0.15	1470936	keystroke_n	n	n/a
735.783	0.165	1471566	keystroke_e	e	n/a
736.338	0.105	1472676	keystroke_e	e	n/a
736.563	0.135	1473126	keystroke_s	s	n/a
737.133	0.12	1474266	keystroke_Key.backspace	Key.backspace	n/a
737.4635	0.12	1474927	keystroke_Key.space	Key.space	n/a
737.7335	0.165	1475467	keystroke_i	i	n/a
737.8085	0.135	1475617	keystroke_n	n	n/a
738.0635	0.135	1476127	keystroke_d	d	n/a
738.3335	0.15	1476667	keystroke_u	u	n/a
738.6335	0.18	1477267	keystroke_s	s	n/a
739.0075	0.135	1478015	keystroke_t	t	n/a
739.3225	0.135	1478645	keystroke_r	r	n/a
739.5025	0.105	1479005	keystroke_i	i	n/a
739.6525	0.091	1479305	keystroke_e	e	n/a
739.8475	0.15	1479695	keystroke_s	s	n/a
740.253	0.0895	1480506	keystroke_Key.space	Key.space	n/a
740.7925	0.105	1481585	keystroke_o	o	n/a
740.9885	0.195	1481977	keystroke_r	r	n/a
742.1885	0.105	1484377	keystroke_d	d	n/a
742.4135	0.165	1484827	keystroke_e	e	n/a
742.5035	0.18	1485007	keystroke_r	r	n/a
742.7285	0.1645	1485457	keystroke_e	e	n/a
742.998	0.195	1485996	keystroke_d	d	n/a
743.388	0.105	1486776	keystroke_Key.enter	Key.enter	n/a
743.498	16.002	1486996	prompt	n/a	substances relevant pulse doctors\n
744.198	0.15	1488396	keystroke_s	s	n/a
744.468	0.15	1488936	keystroke_u	u	n/a
744.693	0.15	1489386	keystroke_b	b	n/a
744.993	0.18	1489986	keystroke_s	s	n/a
745.203	0.075	1490406	keystroke_t	t	n/a
746.808	0.15	1493616	keystroke_a	a	n/a
746.928	0.1495	1493856	keystroke_n	n	n/a
747.8725	0.105	1495745	keystroke_c	c	n/a
748.1275	0.18	1496255	keystroke_e	e	n/a
748.3375	0.165	1496675	keystroke_s	s	n/a
748.4875	0.105	1496975	keystroke_Key.space	Key.space	n/a
748.7575	0.15	1497515	keystroke_r	r	n/a
748.9225	0.15	1497845	keystroke_l	l	n/a
749.0575	0.285	1498115	keystroke_e	e	n/a
750.048	0.21	1500096	keystroke_Key.backspace	Key.backspace	n/a
750.3325	0.09	1500665	keystroke_Key.backspace	Key.backspace	n/a
750.7825	0.15	1501565	keystroke_e	e	n/a
750.9175	0.12	1501835	keystroke_l	l	n/a
751.1275	0.15	1502255	keystroke_e	e	n/a
751.4875	0.12	1502975	keystroke_v	v	n/a
753.1225	0.12	1506245	keystroke_a	a	n/a
753.2275	0.135	1506455	keystroke_n	n	n/a
753.4675	0.15	1506935	keystroke_t	t	n/a
753.6775	0.105	1507355	keystroke_Key.space	Key.space	n/a
754.038	0.15	1508076	keystroke_p	p	n/a
754.4125	0.015	1508825	keystroke_u	u	n/a
754.5325	0.0905	1509065	keystroke_l	l	n/a
754.698	0.045	1509396	keystroke_e	e	n/a
754.908	0.12	1509816	keystroke_s	s	n/a
755.268	0.075	1510536	keystroke_Key.backspace	Key.backspace	n/a
755.403	0.105	1510806	keystroke_Key.backspace	Key.backspace	n/a
755.568	0.165	1511136	keystroke_s	s	n/a
755.703	0.15	1511406	keystroke_e	e	n/a
755.943	0.105	1511886	keystroke_Key.space	Key.space	n/a
756.468	0.105	1512936	keystroke_d	d	n/a
756.588	0.105	1513176	keystroke_o	o	n/a
756.843	0.135	1513686	keystroke_c	c	n/a
757.188	0.135	1514376	keystroke_t	t	n/a
757.353	0.105	1514706	keystroke_o	o	n/a
757.803	0.1795	1515606	keystroke_e	e	n/a
757.9375	0.135	1515875	keystroke_r	r	n/a
758.4925	0.09	1516985	keystroke_Key.backspace	Key.backspace	n/a
758.6425	0.105	1517285	keystroke_Key.backspace	Key.backspace	n/a
758.7925	0.12	1517585	keystroke_r	r	n/a
758.9575	0.165	1517915	keystroke_s	s	n/a
759.393	0.105	1518786	keystroke_Key.enter	Key.enter	n/a
759.5105	11.899	1519021	prompt	n/a	describing beads march explain\n
760.2625	0.135	1520525	keystroke_d	d	n/a
760.7425	0.135	1521485	keystroke_u	u	n/a
761.2525	0.1205	1522505	keystroke_Key.backspace	Key.backspace	n/a
761.5075	0.135	1523015	keystroke_e	e	n/a
761.7475	0.165	1523495	keystroke_s	s	n/a
762.2125	0.12	1524425	keystroke_c	c	n/a
764.48	0.103	1528960	keystroke_t	t	n/a
764.718	0.12	1529436	keystroke_o	o	n/a
764.943	0.15	1529886	keystroke_b	b	n/a
765.138	0.18	1530276	keystroke_i	i	n/a
765.228	0.165	1530456	keystroke_n	n	n/a
765.3785	0.1495	1530757	keystroke_g	g	n/a
766.008	0.09	1532016	keystroke_Key.space	Key.space	n/a
766.398	0.12	1532796	keystroke_b	b	n/a
767.193	0.165	1534386	keystroke_e	e	n/a
767.433	0.18	1534866	keystroke_a	a	n/a
767.8835	0.18	1535767	keystroke_d	d	n/a
768.1085	0.15	1536217	keystroke_s	s	n/a
768.3335	0.075	1536667	keystroke_Key.space	Key.space	n/a
768.6035	0.135	1537207	keystroke_m	m	n/a
768.7235	0.18	1537447	keystroke_a	a	n/a
768.8285	0.15	1537657	keystroke_r	r	n/a
769.1435	0.135	1538287	keystroke_c	c	n/a
769.2185	0.15	1538437	keystroke_h	h	n/a
769.3985	0.075	1538797	keystroke_Key.space	Key.space	n/a
769.9385	0.135	1539877	keystroke_e	e	n/a
770.3435	0.12	1540687	keystroke_x	x	n/a
770.4485	0.09	1540897	keystroke_p	p	n/a
770.6435	0.15	1541287	keystroke_l	l	n/a
770.8235	0.15	1541647	keystroke_a	a	n/a
770.9285	0.195	1541857	keystroke_i	i	n/a
771.0635	0.12	1542127	keystroke_n	n	n/a
771.3485	0.059	1542697	keystroke_Key.enter	Key.enter	n/a
771.3485	0.075	1542697	keystroke_]	]	n/a
771.412	7.7525	1542824	prompt	n/a	thirty fisheries virus quest\n
772.2635	0.105	1544527	keystroke_t	t	n/a
772.3385	0.149	1544677	keystroke_h	h	n/a
772.5935	0.12	1545187	keystroke_r	r	n/a
772.7435	0.135	1545487	keystroke_i	i	n/a
772.938	0.18	1545876	keystroke_t	t	n/a
773.088	0.165	1546176	keystroke_y	y	n/a
773.283	0.0895	1546566	keystroke_Key.space	Key.space	n/a
774.108	0.135	1548216	keystroke_f	f	n/a
774.258	0.105	1548516	keystroke_i	i	n/a
774.558	0.135	1549116	keystroke_s	s	n/a
774.678	0.135	1549356	keystroke_h	h	n/a
774.978	0.225	1549956	keystroke_e	e	n/a
775.143	0.135	1550286	keystroke_r	r	n/a
775.458	0.18	1550916	keystroke_i	i	n/a
775.593	0.18	1551186	keystroke_e	e	n/a
775.788	0.195	1551576	keystroke_s	s	n/a
775.998	0.075	1551996	keystroke_Key.space	Key.space	n/a
776.373	0.15	1552746	keystroke_v	v	n/a
776.538	0.135	1553076	keystroke_i	i	n/a
776.748	0.165	1553496	keystroke_r	r	n/a
777.048	0.075	1554096	keystroke_Key.down	Key.down	n/a
777.108	0.15	1554216	keystroke_u	u	n/a
777.288	0.1805	1554576	keystroke_s	s	n/a
777.4085	0.045	1554817	keystroke_Key.down	Key.down	n/a
777.4835	0.06	1554967	keystroke_Key.space	Key.space	n/a
777.8285	0.105	1555657	keystroke_q	q	n/a
777.9035	0.135	1555807	keystroke_Key.down	Key.down	n/a
777.9935	0.15	1555987	keystroke_u	u	n/a
778.1585	0.15	1556317	keystroke_e	e	n/a
778.3985	0.2095	1556797	keystroke_s	s	n/a
778.6385	0.18	1557277	keystroke_t	t	n/a
779.013	0.15	1558026	keystroke_Key.enter	Key.enter	n/a
779.168	11.622	1558336	prompt	n/a	standards noted mrna inherited\n
779.8835	0.18	1559767	keystroke_s	s	n/a
780.1085	0.15	1560217	keystroke_t	t	n/a
780.2735	0.225	1560547	keystroke_a	a	n/a
781.2935	0.1195	1562587	keystroke_n	n	n/a
781.518	0.135	1563036	keystroke_d	d	n/a
781.863	0.195	1563726	keystroke_a	a	n/a
781.983	0.18	1563966	keystroke_r	r	n/a
782.268	0.18	1564536	keystroke_d	d	n/a
782.433	0.1045	1564866	keystroke_Key.space	Key.space	n/a
782.8825	0.1205	1565765	keystroke_n	n	n/a
783.063	0.135	1566126	keystroke_o	o	n/a
783.3035	0.12	1566607	keystroke_t	t	n/a
783.7235	0.135	1567447	keystroke_e	e	n/a
784.0235	0.165	1568047	keystroke_d	d	n/a
784.1575	0.105	1568315	keystroke_Key.space	Key.space	n/a
784.8925	0.105	1569785	keystroke_m	m	n/a
785.5825	0.15	1571165	keystroke_r	r	n/a
785.7785	0.135	1571557	keystroke_n	n	n/a
786.0175	0.18	1572035	keystroke_a	a	n/a
786.2575	0.135	1572515	keystroke_Key.space	Key.space	n/a
786.6025	0.165	1573205	keystroke_i	i	n/a
786.6925	0.135	1573385	keystroke_n	n	n/a
787.3225	0.061	1574645	keystroke_Key.down	Key.down	n/a
787.6985	0.105	1575397	keystroke_h	h	n/a
788.013	0.24	1576026	keystroke_e	e	n/a
788.178	0.165	1576356	keystroke_r	r	n/a
788.493	0.135	1576986	keystroke_i	i	n/a
788.763	0.135	1577526	keystroke_t	t	n/a
788.973	0.18	1577946	keystroke_e	e	n/a
789.093	0.165	1578186	keystroke_r	r	n/a
789.6035	0.18	1579207	keystroke_d	d	n/a
790.6685	0.1195	1581337	keystroke_Key.enter	Key.enter	n/a
790.758	0.06	1581516	keystroke_\	\	n/a
790.801	12.0785	1581602	prompt	n/a	export dark yours reproduce\n
791.7635	0.15	1583527	keystroke_e	e	n/a
792.0635	0.12	1584127	keystroke_x	x	n/a
792.2435	0.12	1584487	keystroke_p	p	n/a
792.4085	0.15	1584817	keystroke_o	o	n/a
792.6035	0.165	1585207	keystroke_r	r	n/a
792.8285	0.1655	1585657	keystroke_t	t	n/a
792.9785	0.12	1585957	keystroke_Key.space	Key.space	n/a
793.2335	0.165	1586467	keystroke_d	d	n/a
793.3985	0.18	1586797	keystroke_a	a	n/a
793.5185	0.18	1587037	keystroke_r	r	n/a
793.6685	0.15	1587337	keystroke_k	k	n/a
793.8335	0.12	1587667	keystroke_Key.space	Key.space	n/a
794.1635	0.105	1588327	keystroke_y	y	n/a
794.2985	0.165	1588597	keystroke_o	o	n/a
794.3875	0.211	1588775	keystroke_u	u	n/a
794.5385	0.165	1589077	keystroke_r	r	n/a
794.7635	0.195	1589527	keystroke_s	s	n/a
794.9875	0.106	1589975	keystroke_Key.space	Key.space	n/a
795.6785	0.254	1591357	keystroke_r	r	n/a
795.8125	0.181	1591625	keystroke_e	e	n/a
796.5775	0.121	1593155	keystroke_p	p	n/a
796.8775	0.151	1593755	keystroke_r	r	n/a
796.9985	0.12	1593997	keystroke_o	o	n/a
797.6275	0.105	1595255	keystroke_u	u	n/a
801.1825	0.105	1602365	keystroke_Key.backspace	Key.backspace	n/a
801.7975	0.12	1603595	keystroke_d	d	n/a
801.9475	0.135	1603895	keystroke_u	u	n/a
802.0975	0.135	1604195	keystroke_c	c	n/a
802.3675	0.1355	1604735	keystroke_e	e	n/a
802.7725	0.105	1605545	keystroke_Key.enter	Key.enter	n/a
802.8845	13.6005	1605769	prompt	n/a	myspace edition blend sciences\n
803.9275	0.135	1607855	keystroke_m	m	n/a
804.2275	0.105	1608455	keystroke_y	y	n/a
804.7835	0.149	1609567	keystroke_s	s	n/a
805.0975	0.151	1610195	keystroke_a	a	n/a
805.1885	0.149	1610377	keystroke_p	p	n/a
805.728	0.09	1611456	keystroke_Key.backspace	Key.backspace	n/a
805.878	0.105	1611756	keystroke_Key.backspace	Key.backspace	n/a
806.178	0.15	1612356	keystroke_p	p	n/a
806.583	0.15	1613166	keystroke_a	a	n/a
806.838	0.105	1613676	keystroke_c	c	n/a
807.033	0.135	1614066	keystroke_e	e	n/a
807.168	0.12	1614336	keystroke_Key.space	Key.space	n/a
807.408	0.135	1614816	keystroke_d	d	n/a
807.933	0.15	1615866	keystroke_Key.backspace	Key.backspace	n/a
808.143	0.15	1616286	keystroke_e	e	n/a
808.593	0.165	1617186	keystroke_d	d	n/a
808.773	0.12	1617546	keystroke_i	i	n/a
810.363	0.135	1620726	keystroke_t	t	n/a
810.453	0.18	1620906	keystroke_i	i	n/a
810.558	0.105	1621116	keystroke_o	o	n/a
810.783	0.1345	1621566	keystroke_n	n	n/a
811.0385	0.104	1622077	keystroke_Key.space	Key.space	n/a
811.413	0.135	1622826	keystroke_b	b	n/a
811.548	0.105	1623096	keystroke_l	l	n/a
811.968	0.12	1623936	keystroke_e	e	n/a
812.088	0.135	1624176	keystroke_n	n	n/a
812.238	0.18	1624476	keystroke_d	d	n/a
812.478	0.09	1624956	keystroke_Key.space	Key.space	n/a
812.748	0.165	1625496	keystroke_s	s	n/a
813.243	0.12	1626486	keystroke_c	c	n/a
813.693	0.105	1627386	keystroke_i	i	n/a
814.038	0.195	1628076	keystroke_e	e	n/a
814.188	0.12	1628376	keystroke_n	n	n/a
814.713	0.105	1629426	keystroke_c	c	n/a
814.968	0.195	1629936	keystroke_e	e	n/a
815.133	0.165	1630266	keystroke_s	s	n/a
815.4175	0.12	1630835	keystroke_\	\	n/a
816.243	0.24	1632486	keystroke_Key.enter	Key.enter	n/a
816.4965	8.028	1632993	prompt	n/a	brands headline yale column\n
817.3975	0.135	1634795	keystroke_b	b	n/a
817.9075	0.12	1635815	keystroke_r	r	n/a
818.0725	0.12	1636145	keystroke_a	a	n/a
818.1775	0.12	1636355	keystroke_n	n	n/a
818.343	0.1945	1636686	keystroke_d	d	n/a
818.5525	0.21	1637105	keystroke_s	s	n/a
818.8375	0.105	1637675	keystroke_Key.space	Key.space	n/a
819.1525	0.135	1638305	keystroke_h	h	n/a
819.3025	0.165	1638605	keystroke_e	e	n/a
819.4225	0.255	1638845	keystroke_a	a	n/a
819.6475	0.135	1639295	keystroke_d	d	n/a
819.8125	0.12	1639625	keystroke_l	l	n/a
819.9925	0.21	1639985	keystroke_i	i	n/a
820.1275	0.18	1640255	keystroke_n	n	n/a
820.293	0.1795	1640586	keystroke_e	e	n/a
820.5025	0.09	1641005	keystroke_Key.space	Key.space	n/a
820.968	0.15	1641936	keystroke_y	y	n/a
821.418	0.12	1642836	keystroke_a	a	n/a
821.553	0.105	1643106	keystroke_l	l	n/a
821.673	0.18	1643346	keystroke_e	e	n/a
822.153	0.12	1644306	keystroke_Key.space	Key.space	n/a
822.648	0.15	1645296	keystroke_c	c	n/a
822.768	0.12	1645536	keystroke_o	o	n/a
823.053	0.045	1646106	keystroke_l	l	n/a
823.293	0.15	1646586	keystroke_u	u	n/a
823.908	0.105	1647816	keystroke_m	m	n/a
824.088	0.105	1648176	keystroke_n	n	n/a
824.373	0.1495	1648746	keystroke_Key.enter	Key.enter	n/a
824.527	7.7075	1649054	prompt	n/a	terror honduras wide bear\n
825.408	0.135	1650816	keystroke_t	t	n/a
825.618	0.165	1651236	keystroke_e	e	n/a
825.903	0.105	1651806	keystroke_r	r	n/a
826.068	0.135	1652136	keystroke_r	r	n/a
826.263	0.12	1652526	keystroke_o	o	n/a
826.398	0.15	1652796	keystroke_r	r	n/a
826.713	0.09	1653426	keystroke_Key.space	Key.space	n/a
827.013	0.105	1654026	keystroke_h	h	n/a
827.223	0.135	1654446	keystroke_o	o	n/a
827.478	0.105	1654956	keystroke_n	n	n/a
827.673	0.165	1655346	keystroke_d	d	n/a
827.958	0.165	1655916	keystroke_u	u	n/a
828.318	0.18	1656636	keystroke_r	r	n/a
828.933	0.18	1657866	keystroke_a	a	n/a
829.158	0.195	1658316	keystroke_s	s	n/a
829.503	0.12	1659006	keystroke_Key.space	Key.space	n/a
829.983	0.18	1659966	keystroke_w	w	n/a
830.133	0.135	1660266	keystroke_i	i	n/a
830.328	0.135	1660656	keystroke_d	d	n/a
830.538	0.165	1661076	keystroke_e	e	n/a
830.658	0.12	1661316	keystroke_Key.space	Key.space	n/a
830.988	0.105	1661976	keystroke_b	b	n/a
831.243	0.21	1662486	keystroke_e	e	n/a
831.423	0.18	1662846	keystroke_a	a	n/a
831.543	0.15	1663086	keystroke_r	r	n/a
832.038	0.195	1664076	keystroke_Key.enter	Key.enter	n/a
832.245	10.5495	1664490	prompt	n/a	assume terrain tuning support\n
832.968	0.12	1665936	keystroke_a	a	n/a
833.178	0.105	1666356	keystroke_s	s	n/a
833.358	0.1345	1666716	keystroke_s	s	n/a
833.5675	0.12	1667135	keystroke_u	u	n/a
833.8375	0.12	1667675	keystroke_m	m	n/a
833.9425	0.15	1667885	keystroke_e	e	n/a
834.1225	0.105	1668245	keystroke_Key.space	Key.space	n/a
834.4225	0.105	1668845	keystroke_t	t	n/a
834.6775	0.12	1669355	keystroke_r	r	n/a
835.458	0.105	1670916	keystroke_Key.backspace	Key.backspace	n/a
835.878	0.15	1671756	keystroke_e	e	n/a
836.118	0.09	1672236	keystroke_r	r	n/a
836.268	0.15	1672536	keystroke_r	r	n/a
836.538	0.195	1673076	keystroke_a	a	n/a
836.688	0.21	1673376	keystroke_o	o	n/a
836.913	0.12	1673826	keystroke_n	n	n/a
837.123	0.12	1674246	keystroke_Key.space	Key.space	n/a
837.363	0.15	1674726	keystroke_t	t	n/a
837.573	0.135	1675146	keystroke_u	u	n/a
837.948	0.12	1675896	keystroke_n	n	n/a
838.202	0.241	1676404	keystroke_i	i	n/a
838.308	0.164	1676616	keystroke_n	n	n/a
838.428	0.164	1676856	keystroke_g	g	n/a
838.742	0.105	1677484	keystroke_Key.space	Key.space	n/a
839.178	0.135	1678356	keystroke_s	s	n/a
839.5225	0.06	1679045	keystroke_u	u	n/a
839.6585	0.089	1679317	keystroke_u	u	n/a
840.6025	0.09	1681205	keystroke_p	p	n/a
840.7675	0.12	1681535	keystroke_p	p	n/a
841.233	0.075	1682466	keystroke_i	i	n/a
842.178	0.105	1684356	keystroke_t	t	n/a
842.193	0.075	1684386	keystroke_y	y	n/a
842.703	0.09	1685406	keystroke_Key.enter	Key.enter	n/a
842.7995	19.6	1685599	prompt	n/a	customized illinois benchmark crops\n
843.933	0.12	1687866	keystroke_c	c	n/a
844.038	0.135	1688076	keystroke_i	i	n/a
844.218	0.09	1688436	keystroke_s	s	n/a
844.368	0.165	1688736	keystroke_t	t	n/a
844.503	0.075	1689006	keystroke_0	0	n/a
844.608	0.105	1689216	keystroke_o	o	n/a
846.288	0.06	1692576	keystroke_Key.backspace	Key.backspace	n/a
846.483	0.06	1692966	keystroke_Key.backspace	Key.backspace	n/a
846.678	0.06	1693356	keystroke_Key.backspace	Key.backspace	n/a
846.963	0.075	1693926	keystroke_Key.backspace	Key.backspace	n/a
847.143	0.105	1694286	keystroke_Key.backspace	Key.backspace	n/a
848.808	0.09	1697616	keystroke_u	u	n/a
849.018	0.135	1698036	keystroke_s	s	n/a
849.453	0.135	1698906	keystroke_t	t	n/a
849.573	0.225	1699146	keystroke_o	o	n/a
849.708	0.135	1699416	keystroke_m	m	n/a
850.038	0.12	1700076	keystroke_i	i	n/a
850.848	0.12	1701696	keystroke_z	z	n/a
851.028	0.165	1702056	keystroke_e	e	n/a
851.268	0.1645	1702536	keystroke_d	d	n/a
851.4335	0.089	1702867	keystroke_Key.space	Key.space	n/a
851.7025	0.195	1703405	keystroke_i	i	n/a
852.183	0.06	1704366	keystroke_l	l	n/a
852.363	0.09	1704726	keystroke_l	l	n/a
854.57	0.058	1709140	keystroke_i	i	n/a
855.243	0.09	1710486	keystroke_n	n	n/a
856.7725	0.105	1713545	keystroke_o	o	n/a
857.0725	0.105	1714145	keystroke_i	i	n/a
857.1925	0.1505	1714385	keystroke_s	s	n/a
857.5525	0.06	1715105	keystroke_Key.space	Key.space	n/a
857.9275	0.091	1715855	keystroke_b	b	n/a
858.4835	0.119	1716967	keystroke_e	e	n/a
859.0675	0.106	1718135	keystroke_n	n	n/a
859.443	0.12	1718886	keystroke_c	c	n/a
859.578	0.135	1719156	keystroke_h	h	n/a
860.0275	0.105	1720055	keystroke_m	m	n/a
860.2075	0.24	1720415	keystroke_a	a	n/a
860.3875	0.24	1720775	keystroke_r	r	n/a
860.5825	0.105	1721165	keystroke_k	k	n/a
860.8375	0.105	1721675	keystroke_Key.space	Key.space	n/a
861.0775	0.135	1722155	keystroke_c	c	n/a
861.4675	0.15	1722935	keystroke_r	r	n/a
861.5575	0.15	1723115	keystroke_o	o	n/a
861.6925	0.15	1723385	keystroke_p	p	n/a
861.8575	0.15	1723715	keystroke_s	s	n/a
