onset	duration	sample	value	key	prompt_text
12.347	12.878	24694	prompt	n/a	the quick brown fox jumps over a lazy dog\n
14.0195	0.056	28039	keystroke	t	n/a
14.0605	0.12	28121	keystroke	h	n/a
14.1955	0.12	28391	keystroke	e	n/a
14.3165	0.134	28633	keystroke	Key.space	n/a
14.5405	0.165	29081	keystroke	q	n/a
14.6905	0.135	29381	keystroke	u	n/a
14.7955	0.12	29591	keystroke	i	n/a
14.9305	0.165	29861	keystroke	c	n/a
15.0655	0.15	30131	keystroke	k	n/a
15.2305	0.045	30461	keystroke	k	n/a
15.2455	0.12	30491	keystroke	Key.space	n/a
15.4705	0.136	30941	keystroke	b	n/a
15.5905	0.105	31181	keystroke	r	n/a
15.7105	0.195	31421	keystroke	o	n/a
15.8905	0.09	31781	keystroke	w	n/a
16.5955	0.075	33191	keystroke	Key.backspace	n/a
16.7755	0.06	33551	keystroke	Key.backspace	n/a
16.9255	0.075	33851	keystroke	Key.backspace	n/a
17.1055	0.09	34211	keystroke	Key.backspace	n/a
17.2705	0.09	34541	keystroke	Key.backspace	n/a
17.6905	0.09	35381	keystroke	Key.backspace	n/a
18.2755	0.09	36551	keystroke	Key.space	n/a
18.5905	0.105	37181	keystroke	b	n/a
18.6805	0.12	37361	keystroke	r	n/a
18.9055	0.135	37811	keystroke	o	n/a
19.1455	0.105	38291	keystroke	w	n/a
19.2355	0.105	38471	keystroke	n	n/a
19.4605	0.135	38921	keystroke	Key.space	n/a
19.6705	0.12	39341	keystroke	f	n/a
19.8655	0.15	39731	keystroke	o	n/a
20.0005	0.135	40001	keystroke	x	n/a
20.1505	0.135	40301	keystroke	Key.space	n/a
20.3755	0.105	40751	keystroke	j	n/a
20.5555	0.12	41111	keystroke	u	n/a
20.8705	0.195	41741	keystroke	m	n/a
20.9605	0.18	41921	keystroke	p	n/a
21.1555	0.075	42311	keystroke	w	n/a
21.6955	0.12	43391	keystroke	Key.backspace	n/a
21.9505	0.12	43901	keystroke	s	n/a
22.3255	0.12	44651	keystroke	Key.space	n/a
22.6705	0.15	45341	keystroke	o	n/a
22.7755	0.135	45551	keystroke	v	n/a
22.9555	0.165	45911	keystroke	e	n/a
23.0605	0.18	46121	keystroke	r	n/a
23.2105	0.15	46421	keystroke	Key.space	n/a
23.3755	0.135	46751	keystroke	a	n/a
23.5255	0.12	47051	keystroke	Key.space	n/a
23.7505	0.18	47501	keystroke	l	n/a
23.7955	0.105	47591	keystroke	a	n/a
24.0655	0.135	48131	keystroke	z	n/a
24.2155	0.12	48431	keystroke	y	n/a
24.4705	0.12	48941	keystroke	Key.space	n/a
24.5905	0.12	49181	keystroke	d	n/a
24.7255	0.135	49451	keystroke	o	n/a
24.9055	0.12	49811	keystroke	g	n/a
25.0855	0.135	50171	keystroke	Key.enter	n/a
25.232	7.0255	50464	prompt	n/a	conclusion cons members studies\n
25.9855	0.12	51971	keystroke	c	n/a
26.0905	0.135	52181	keystroke	o	n/a
26.3005	0.135	52601	keystroke	n	n/a
26.5255	0.12	53051	keystroke	c	n/a
26.6155	0.165	53231	keystroke	l	n/a
26.7815	0.134	53563	keystroke	u	n/a
26.9305	0.09	53861	keystroke	s	n/a
27.1705	0.135	54341	keystroke	i	n/a
27.2905	0.18	54581	keystroke	o	n/a
27.4255	0.105	54851	keystroke	n	n/a
27.7855	0.12	55571	keystroke	Key.space	n/a
27.9955	0.135	55991	keystroke	c	n/a
28.1155	0.225	56231	keystroke	o	n/a
28.2355	0.15	56471	keystroke	n	n/a
28.4005	0.105	56801	keystroke	s	n/a
28.6555	0.12	57311	keystroke	Key.space	n/a
28.9105	0.09	57821	keystroke	m	n/a
29.0015	0.104	58003	keystroke	e	n/a
29.1355	0.12	58271	keystroke	m	n/a
29.8705	0.165	59741	keystroke	b	n/a
29.9905	0.18	59981	keystroke	e	n/a
30.1555	0.195	60311	keystroke	r	n/a
30.3055	0.15	60611	keystroke	s	n/a
30.5455	0.12	61091	keystroke	Key.space	n/a
30.8305	0.18	61661	keystroke	s	n/a
31.0255	0.135	62051	keystroke	t	n/a
31.2355	0.12	62471	keystroke	u	n/a
31.3705	0.135	62741	keystroke	d	n/a
31.5655	0.18	63131	keystroke	i	n/a
31.7305	0.18	63461	keystroke	e	n/a
31.8655	0.165	63731	keystroke	s	n/a
32.1205	0.135	64241	keystroke	Key.enter	n/a
32.2615	7.8305	64523	prompt	n/a	arrest satin would realized\n
32.9905	0.195	65981	keystroke	a	n/a
33.1705	0.12	66341	keystroke	r	n/a
33.4105	0.225	66821	keystroke	r	n/a
33.5755	0.21	67151	keystroke	e	n/a
33.7405	0.21	67481	keystroke	s	n/a
33.9355	0.12	67871	keystroke	t	n/a
34.3405	0.12	68681	keystroke	Key.space	n/a
34.4755	0.21	68951	keystroke	s	n/a
34.6105	0.195	69221	keystroke	a	n/a
34.8505	0.18	69701	keystroke	t	n/a
35.0455	0.195	70091	keystroke	i	n/a
35.2105	0.18	70421	keystroke	n	n/a
35.4655	0.135	70931	keystroke	Key.space	n/a
35.6455	0.12	71291	keystroke	w	n/a
35.7955	0.21	71591	keystroke	o	n/a
35.9455	0.195	71891	keystroke	u	n/a
36.1255	0.165	72251	keystroke	l	n/a
36.2605	0.12	72521	keystroke	d	n/a
36.4105	0.135	72821	keystroke	Key.space	n/a
36.5305	0.15	73061	keystroke	r	n/a
36.6205	0.165	73241	keystroke	e	n/a
36.7265	0.18	73453	keystroke	a	n/a
36.9205	0.21	73841	keystroke	l	n/a
37.0715	0.119	74143	keystroke	i	n/a
37.2055	0.09	74411	keystroke	z	n/a
37.4005	0.12	74801	keystroke	e	n/a
37.6705	0.105	75341	keystroke	d	n/a
38.1355	0.15	76271	keystroke	'	n/a
39.6805	0.06	79361	keystroke	Key.backspace	n/a
40.026	0.06	80052	keystroke	Key.enter	n/a
40.097	6.5465	80194	prompt	n/a	enabling behind mainland scholar\n
41.211	0.15	82422	keystroke	e	n/a
41.511	0.105	83022	keystroke	n	n/a
41.691	0.135	83382	keystroke	a	n/a
41.841	0.165	83682	keystroke	b	n/a
41.991	0.195	83982	keystroke	l	n/a
42.171	0.195	84342	keystroke	i	n/a
42.276	0.105	84552	keystroke	n	n/a
42.411	0.135	84822	keystroke	g	n/a
42.531	0.12	85062	keystroke	Key.space	n/a
42.966	0.12	85932	keystroke	b	n/a
43.221	0.135	86442	keystroke	e	n/a
43.386	0.15	86772	keystroke	h	n/a
43.551	0.24	87102	keystroke	i	n/a
43.701	0.12	87402	keystroke	n	n/a
43.806	0.0905	87612	keystroke	d	n/a
44.001	0.105	88002	keystroke	Key.space	n/a
44.256	0.12	88512	keystroke	m	n/a
44.331	0.18	88662	keystroke	a	n/a
44.481	0.195	88962	keystroke	i	n/a
44.586	0.165	89172	keystroke	n	n/a
44.736	0.195	89472	keystroke	l	n/a
44.901	0.12	89802	keystroke	a	n/a
45.0965	0.1045	90193	keystroke	n	n/a
45.216	0.12	90432	keystroke	d	n/a
45.351	0.12	90702	keystroke	Key.space	n/a
45.456	0.15	90912	keystroke	s	n/a
45.636	0.135	91272	keystroke	c	n/a
45.756	0.135	91512	keystroke	h	n/a
45.801	0.135	91602	keystroke	o	n/a
46.041	0.15	92082	keystroke	l	n/a
46.176	0.165	92352	keystroke	a	n/a
46.281	0.15	92562	keystroke	r	n/a
46.476	0.165	92952	keystroke	Key.enter	n/a
46.6495	10.509	93299	prompt	n/a	mary translated hollow analysis\n
47.451	0.105	94902	keystroke	m	n/a
47.571	0.21	95142	keystroke	a	n/a
47.736	0.135	95472	keystroke	r	n/a
47.916	0.105	95832	keystroke	y	n/a
48.066	0.135	96132	keystroke	Key.space	n/a
48.261	0.15	96522	keystroke	t	n/a
48.516	0.165	97032	keystroke	r	n/a
49.3115	0.0745	98623	keystroke	Key.backspace	n/a
49.506	0.105	99012	keystroke	Key.backspace	n/a
49.716	0.12	99432	keystroke	Key.backspace	n/a
50.526	0.12	101052	keystroke	Key.space	n/a
50.856	0.105	101712	keystroke	t	n/a
51.066	0.18	102132	keystroke	r	n/a
51.156	0.18	102312	keystroke	a	n/a
51.381	0.15	102762	keystroke	n	n/a
51.516	0.1055	103032	keystroke	s	n/a
51.786	0.15	103572	keystroke	l	n/a
51.876	0.195	103752	keystroke	a	n/a
52.086	0.09	104172	keystroke	t	n/a
52.3555	0.15	104711	keystroke	e	n/a
52.657	0.1035	105314	keystroke	d	n/a
52.776	0.1195	105552	keystroke	Key.space	n/a
53.0305	0.165	106061	keystroke	h	n/a
53.151	0.1195	106302	keystroke	o	n/a
53.3755	0.075	106751	keystroke	l	n/a
53.5105	0.09	107021	keystroke	l	n/a
53.7055	0.135	107411	keystroke	o	n/a
53.8705	0.12	107741	keystroke	w	n/a
54.1555	0.105	108311	keystroke	Key.space	n/a
54.2755	0.15	108551	keystroke	a	n/a
54.4405	0.091	108881	keystroke	n	n/a
55.026	0.0755	110052	keystroke	y	n/a
55.3705	0.1205	110741	keystroke	Key.backspace	n/a
55.7465	0.1195	111493	keystroke	a	n/a
56.031	0.105	112062	keystroke	l	n/a
56.241	0.09	112482	keystroke	y	n/a
56.346	0.0905	112692	keystroke	s	n/a
56.511	0.165	113022	keystroke	i	n/a
56.646	0.09	113292	keystroke	s	n/a
56.9915	0.165	113983	keystroke	Key.enter	n/a
57.1635	6.835	114327	prompt	n/a	fool deemed jenny mission\n
57.876	0.15	115752	keystroke	f	n/a
58.086	0.105	116172	keystroke	o	n/a
58.281	0.075	116562	keystroke	o	n/a
58.476	0.105	116952	keystroke	l	n/a
58.656	0.135	117312	keystroke	Key.space	n/a
58.836	0.135	117672	keystroke	d	n/a
59.061	0.105	118122	keystroke	e	n/a
59.256	0.12	118512	keystroke	e	n/a
59.421	0.1655	118842	keystroke	m	n/a
59.5715	0.1045	119143	keystroke	e	n/a
59.841	0.135	119682	keystroke	d	n/a
60.036	0.165	120072	keystroke	Key.space	n/a
60.276	0.09	120552	keystroke	j	n/a
60.456	0.105	120912	keystroke	e	n/a
60.5915	0.0895	121183	keystroke	n	n/a
60.741	0.105	121482	keystroke	n	n/a
61.041	0.105	122082	keystroke	y	n/a
61.2065	0.1495	122413	keystroke	Key.space	n/a
61.416	0.255	122832	keystroke	m	n/a
61.611	0.165	123222	keystroke	i	n/a
61.746	0.09	123492	keystroke	s	n/a
61.941	0.105	123882	keystroke	s	n/a
62.061	0.12	124122	keystroke	i	n/a
62.151	0.195	124302	keystroke	o	n/a
62.316	0.135	124632	keystroke	n	n/a
62.511	0.135	125022	keystroke	'	n/a
63.561	0.075	127122	keystroke	Key.backspace	n/a
63.9365	0.0595	127873	keystroke	Key.enter	n/a
64.0055	11.2135	128011	prompt	n/a	developer gloves unlock millennium\n
64.761	0.09	129522	keystroke	d	n/a
64.926	0.135	129852	keystroke	e	n/a
65.136	0.195	130272	keystroke	v	n/a
65.301	0.18	130602	keystroke	e	n/a
65.511	0.135	131022	keystroke	l	n/a
65.841	0.03	131682	keystroke	o	n/a
65.886	0.12	131772	keystroke	o	n/a
66.186	0.09	132372	keystroke	p	n/a
66.456	0.12	132912	keystroke	Key.backspace	n/a
66.666	0.105	133332	keystroke	Key.backspace	n/a
67.146	0.15	134292	keystroke	p	n/a
67.461	0.18	134922	keystroke	e	n/a
67.611	0.15	135222	keystroke	r	n/a
67.881	0.135	135762	keystroke	Key.space	n/a
68.181	0.15	136362	keystroke	g	n/a
68.316	0.09	136632	keystroke	l	n/a
68.511	0.135	137022	keystroke	o	n/a
68.616	0.15	137232	keystroke	v	n/a
68.751	0.165	137502	keystroke	e	n/a
68.886	0.15	137772	keystroke	s	n/a
68.976	0.12	137952	keystroke	Key.space	n/a
69.201	0.09	138402	keystroke	u	n/a
69.441	0.105	138882	keystroke	n	n/a
69.726	0.225	139452	keystroke	l	n/a
69.966	0.12	139932	keystroke	i	n/a
70.101	0.135	140202	keystroke	c	n/a
70.281	0.12	140562	keystroke	k	n/a
70.611	0.015	141222	keystroke	Key.backspace	n/a
70.701	0.091	141402	keystroke	Key.backspace	n/a
70.866	0.105	141732	keystroke	Key.backspace	n/a
71.061	0.09	142122	keystroke	Key.backspace	n/a
71.886	0.12	143772	keystroke	l	n/a
72.156	0.12	144312	keystroke	o	n/a
72.306	0.166	144612	keystroke	c	n/a
72.456	0.12	144912	keystroke	k	n/a
72.666	0.105	145332	keystroke	Key.space	n/a
72.921	0.18	145842	keystroke	m	n/a
73.071	0.135	146142	keystroke	i	n/a
73.176	0.15	146352	keystroke	l	n/a
73.401	0.18	146802	keystroke	l	n/a
73.746	0.09	147492	keystroke	e	n/a
74.106	0.105	148212	keystroke	n	n/a
74.346	0.135	148692	keystroke	i	n/a
74.616	0.075	149232	keystroke	u	n/a
74.826	0.105	149652	keystroke	m	n/a
75.096	0.12	150192	keystroke	Key.enter	n/a
75.2235	6.4755	150447	prompt	n/a	kinds thereby one functioning\n
75.936	0.12	151872	keystroke	k	n/a
76.161	0.195	152322	keystroke	i	n/a
76.296	0.195	152592	keystroke	n	n/a
76.446	0.12	152892	keystroke	d	n/a
76.536	0.135	153072	keystroke	s	n/a
76.851	0.12	153702	keystroke	Key.space	n/a
77.211	0.136	154422	keystroke	t	n/a
77.331	0.12	154662	keystroke	h	n/a
77.421	0.105	154842	keystroke	e	n/a
77.541	0.15	155082	keystroke	r	n/a
77.646	0.151	155292	keystroke	e	n/a
77.931	0.105	155862	keystroke	b	n/a
78.366	0.12	156732	keystroke	y	n/a
78.651	0.135	157302	keystroke	Key.space	n/a
79.041	0.195	158082	keystroke	o	n/a
79.161	0.15	158322	keystroke	n	n/a
79.312	0.135	158624	keystroke	e	n/a
79.476	0.135	158952	keystroke	Key.space	n/a
79.701	0.18	159402	keystroke	f	n/a
79.866	0.12	159732	keystroke	u	n/a
80.106	0.12	160212	keystroke	n	n/a
80.241	0.135	160482	keystroke	c	n/a
80.586	0.12	161172	keystroke	t	n/a
80.676	0.1505	161352	keystroke	i	n/a
80.766	0.181	161532	keystroke	o	n/a
80.8865	0.165	161773	keystroke	n	n/a
81.0815	0.225	162163	keystroke	i	n/a
81.2015	0.1205	162403	keystroke	n	n/a
81.3365	0.1205	162673	keystroke	g	n/a
81.5615	0.135	163123	keystroke	Key.enter	n/a
81.704	10.2395	163408	prompt	n/a	closes location mustn't rated\n
82.417	0.09	164834	keystroke	d	n/a
82.687	0.12	165374	keystroke	Key.backspace	n/a
82.852	0.18	165704	keystroke	c	n/a
83.107	0.09	166214	keystroke	o	n/a
83.122	0.06	166244	keystroke	l	n/a
83.542	0.105	167084	keystroke	Key.backspace	n/a
83.737	0.105	167474	keystroke	Key.backspace	n/a
84.2315	0.12	168463	keystroke	l	n/a
84.4565	0.105	168913	keystroke	o	n/a
84.547	0.1795	169094	keystroke	s	n/a
84.6965	0.195	169393	keystroke	e	n/a
84.847	0.15	169694	keystroke	s	n/a
85.297	0.1045	170594	keystroke	Key.space	n/a
85.5215	0.105	171043	keystroke	l	n/a
85.7315	0.12	171463	keystroke	o	n/a
85.8065	0.18	171613	keystroke	c	n/a
85.9415	0.21	171883	keystroke	a	n/a
86.1365	0.135	172273	keystroke	t	n/a
86.2865	0.135	172573	keystroke	i	n/a
86.3615	0.18	172723	keystroke	o	n/a
86.5115	0.12	173023	keystroke	n	n/a
86.6915	0.12	173383	keystroke	Key.space	n/a
86.8715	0.105	173743	keystroke	m	n/a
87.1265	0.12	174253	keystroke	u	n/a
87.2625	0.119	174525	keystroke	s	n/a
87.6965	0.03	175393	keystroke	t	n/a
88.0865	0.03	176173	keystroke	n	n/a
88.2965	0.075	176593	keystroke	Key.backspace	n/a
88.4465	0.105	176893	keystroke	Key.backspace	n/a
88.7915	0.24	177583	keystroke	n	n/a
88.9865	0.105	177973	keystroke	'	n/a
89.3915	0.105	178783	keystroke	t	n/a
89.6315	0.12	179263	keystroke	Key.space	n/a
90.0365	0.18	180073	keystroke	r	n/a
90.2765	0.15	180553	keystroke	a	n/a
90.4265	0.135	180853	keystroke	t	n/a
90.5165	0.15	181033	keystroke	e	n/a
90.8315	0.105	181663	keystroke	d	n/a
91.8365	0.105	183673	keystroke	Key.enter	n/a
91.9485	7.7945	183897	prompt	n/a	wikipedia its areas assessments\n
93.1865	0.135	186373	keystroke	w	n/a
93.3365	0.06	186673	keystroke	i	n/a
93.5165	0.09	187033	keystroke	k	n/a
93.7115	0.105	187423	keystroke	i	n/a
93.9515	0.12	187903	keystroke	p	n/a
94.0265	0.09	188053	keystroke	e	n/a
94.2515	0.09	188503	keystroke	d	n/a
94.3715	0.12	188743	keystroke	i	n/a
94.5065	0.15	189013	keystroke	a	n/a
94.7465	0.135	189493	keystroke	Key.space	n/a
95.0615	0.135	190123	keystroke	i	n/a
95.2115	0.195	190423	keystroke	t	n/a
95.7215	0.105	191443	keystroke	s	n/a
96.2915	0.15	192583	keystroke	Key.space	n/a
96.4565	0.165	192913	keystroke	a	n/a
96.6365	0.18	193273	keystroke	r	n/a
96.8015	0.18	193603	keystroke	e	n/a
96.9515	0.27	193903	keystroke	a	n/a
97.1615	0.135	194323	keystroke	s	n/a
97.4465	0.15	194893	keystroke	Key.space	n/a
97.6565	0.18	195313	keystroke	a	n/a
97.7915	0.105	195583	keystroke	s	n/a
97.9865	0.15	195973	keystroke	s	n/a
98.1815	0.195	196363	keystroke	e	n/a
98.3315	0.15	196663	keystroke	s	n/a
98.5715	0.135	197143	keystroke	s	n/a
98.8415	0.135	197683	keystroke	m	n/a
98.9465	0.135	197893	keystroke	e	n/a
99.1115	0.15	198223	keystroke	n	n/a
99.2465	0.15	198493	keystroke	t	n/a
99.3515	0.18	198703	keystroke	s	n/a
99.6815	0.06	199363	keystroke	Key.enter	n/a
99.7475	8.517	199495	prompt	n/a	teachers specializing doesn't parcel\n
100.7915	0.135	201583	keystroke	t	n/a
100.8815	0.15	201763	keystroke	e	n/a
100.9865	0.18	201973	keystroke	a	n/a
101.1515	0.15	202303	keystroke	c	n/a
101.2865	0.105	202573	keystroke	h	n/a
101.4365	0.18	202873	keystroke	e	n/a
101.5415	0.195	203083	keystroke	r	n/a
101.7215	0.18	203443	keystroke	s	n/a
101.9315	0.18	203863	keystroke	Key.space	n/a
102.1415	0.12	204283	keystroke	e	n/a
102.4865	0.12	204973	keystroke	Key.backspace	n/a
102.6215	0.165	205243	keystroke	s	n/a
103.1915	0.135	206383	keystroke	p	n/a
103.3115	0.135	206623	keystroke	e	n/a
103.6865	0.135	207373	keystroke	c	n/a
103.8515	0.15	207703	keystroke	i	n/a
103.9715	0.15	207943	keystroke	a	n/a
104.2715	0.225	208543	keystroke	l	n/a
104.4815	0.12	208963	keystroke	i	n/a
104.7815	0.15	209563	keystroke	z	n/a
104.9615	0.225	209923	keystroke	i	n/a
105.0815	0.135	210163	keystroke	n	n/a
105.2465	0.165	210493	keystroke	g	n/a
105.3965	0.12	210793	keystroke	Key.space	n/a
105.5465	0.12	211093	keystroke	d	n/a
105.7115	0.15	211423	keystroke	o	n/a
105.8165	0.165	211633	keystroke	e	n/a
105.9215	0.18	211843	keystroke	s	n/a
106.1165	0.195	212233	keystroke	n	n/a
106.1615	0.18	212323	keystroke	'	n/a
106.3865	0.12	212773	keystroke	t	n/a
106.7465	0.135	213493	keystroke	Key.space	n/a
107.1215	0.15	214243	keystroke	p	n/a
107.2115	0.195	214423	keystroke	a	n/a
107.3315	0.106	214663	keystroke	r	n/a
107.6015	0.18	215203	keystroke	c	n/a
107.7365	0.18	215473	keystroke	e	n/a
107.8565	0.12	215713	keystroke	l	n/a
108.1115	0.15	216223	keystroke	Key.enter	n/a
108.269	8.5	216538	prompt	n/a	carter arlington herein remedies\n
108.9965	0.195	217993	keystroke	c	n/a
109.1615	0.225	218323	keystroke	a	n/a
109.3265	0.135	218653	keystroke	r	n/a
109.5515	0.18	219103	keystroke	t	n/a
109.7465	0.151	219493	keystroke	e	n/a
109.8515	0.166	219703	keystroke	r	n/a
109.9865	0.135	219973	keystroke	Key.space	n/a
110.0615	0.27	220123	keystroke	a	n/a
110.2865	0.135	220573	keystroke	r	n/a
110.5265	0.105	221053	keystroke	l	n/a
110.8565	0.211	221713	keystroke	i	n/a
111.0215	0.12	222043	keystroke	n	n/a
111.1265	0.12	222253	keystroke	g	n/a
111.3515	0.165	222703	keystroke	t	n/a
111.4565	0.166	222913	keystroke	o	n/a
111.5765	0.075	223153	keystroke	n	n/a
111.6815	0.06	223363	keystroke	n	n/a
111.8015	0.135	223603	keystroke	Key.space	n/a
112.192	0.075	224384	keystroke	Key.backspace	n/a
112.357	0.09	224714	keystroke	Key.backspace	n/a
112.822	0.105	225644	keystroke	Key.space	n/a
113.062	0.12	226124	keystroke	h	n/a
113.167	0.15	226334	keystroke	e	n/a
113.287	0.15	226574	keystroke	r	n/a
113.602	0.15	227204	keystroke	e	n/a
114.022	0.21	228044	keystroke	i	n/a
114.127	0.135	228254	keystroke	n	n/a
114.367	0.135	228734	keystroke	Key.space	n/a
114.682	0.15	229364	keystroke	r	n/a
114.772	0.18	229544	keystroke	e	n/a
114.997	0.12	229994	keystroke	m	n/a
115.117	0.105	230234	keystroke	e	n/a
115.402	0.165	230804	keystroke	d	n/a
115.672	0.165	231344	keystroke	i	n/a
115.792	0.24	231584	keystroke	e	n/a
115.957	0.165	231914	keystroke	s	n/a
116.602	0.165	233204	keystroke	Key.enter	n/a
116.784	19.3195	233568	prompt	n/a	abandoned varieties karl registration\n
117.532	0.135	235064	keystroke	a	n/a
117.772	0.135	235544	keystroke	b	n/a
117.937	0.135	235874	keystroke	a	n/a
118.132	0.135	236264	keystroke	n	n/a
118.312	0.105	236624	keystroke	d	n/a
118.432	0.15	236864	keystroke	o	n/a
118.552	0.135	237104	keystroke	n	n/a
118.702	0.105	237404	keystroke	e	n/a
118.972	0.12	237944	keystroke	d	n/a
119.227	0.12	238454	keystroke	Key.space	n/a
119.692	0.075	239384	keystroke	v	n/a
119.962	0.12	239924	keystroke	Key.backspace	n/a
120.277	0.03	240554	keystroke	v	n/a
120.682	0.27	241364	keystroke	a	n/a
120.847	0.21	241694	keystroke	r	n/a
121.297	0.135	242594	keystroke	i	n/a
121.447	0.225	242894	keystroke	e	n/a
121.717	0.135	243434	keystroke	t	n/a
122.017	0.105	244034	keystroke	i	n/a
122.347	0.18	244694	keystroke	e	n/a
122.482	0.15	244964	keystroke	s	n/a
122.752	0.15	245504	keystroke	Key.space	n/a
123.157	0.15	246314	keystroke	k	n/a
123.292	0.18	246584	keystroke	a	n/a
123.412	0.135	246824	keystroke	r	n/a
123.562	0.12	247124	keystroke	l	n/a
123.742	0.135	247484	keystroke	Key.space	n/a
124.237	0.165	248474	keystroke	r	n/a
124.342	0.18	248684	keystroke	e	n/a
124.597	0.12	249194	keystroke	g	n/a
124.822	0.135	249644	keystroke	i	n/a
124.927	0.165	249854	keystroke	s	n/a
125.857	0.105	251714	keystroke	Key.backspace	n/a
126.067	0.12	252134	keystroke	Key.backspace	n/a
126.217	0.12	252434	keystroke	s	n/a
126.443	0.149	252886	keystroke	i	n/a
126.652	0.075	253304	keystroke	g	n/a
126.997	0.135	253994	keystroke	n	n/a
127.117	0.09	254234	keystroke	a	n/a
127.822	0.09	255644	keystroke	Key.backspace	n/a
127.987	0.075	255974	keystroke	Key.backspace	n/a
128.137	0.075	256274	keystroke	Key.backspace	n/a
128.302	0.09	256604	keystroke	Key.backspace	n/a
128.497	0.105	256994	keystroke	Key.backspace	n/a
129.112	0.15	258224	keystroke	Key.backspace	n/a
129.307	0.12	258614	keystroke	s	n/a
129.697	0.1195	259394	keystroke	i	n/a
129.9215	0.1205	259843	keystroke	g	n/a
130.2365	0.1055	260473	keystroke	n	n/a
130.357	0.1645	260714	keystroke	a	n/a
130.4615	0.2105	260923	keystroke	t	n/a
130.6265	0.195	261253	keystroke	i	n/a
130.7465	0.195	261493	keystroke	o	n/a
130.897	0.0595	261794	keystroke	n	n/a
131.1365	0.075	262273	keystroke	Key.backspace	n/a
131.272	0.06	262544	keystroke	Key.backspace	n/a
131.4065	0.09	262813	keystroke	Key.backspace	n/a
131.5715	0.09	263143	keystroke	Key.backspace	n/a
131.7515	0.075	263503	keystroke	Key.backspace	n/a
131.902	0.1045	263804	keystroke	Key.backspace	n/a
132.0815	0.12	264163	keystroke	Key.backspace	n/a
132.3665	0.105	264733	keystroke	Key.backspace	n/a
133.5965	0.075	267193	keystroke	g	n/a
133.7315	0.15	267463	keystroke	i	n/a
133.8965	0.15	267793	keystroke	s	n/a
134.0315	0.09	268063	keystroke	t	n/a
134.9765	0.165	269953	keystroke	r	n/a
135.0515	0.21	270103	keystroke	a	n/a
135.2915	0.105	270583	keystroke	t	n/a
135.4565	0.135	270913	keystroke	i	n/a
135.5615	0.18	271123	keystroke	o	n/a
135.7115	0.09	271423	keystroke	n	n/a
135.9515	0.15	271903	keystroke	Key.enter	n/a
136.1095	7.254	272219	prompt	n/a	sites chair decrease cookie\n
136.8515	0.06	273703	keystroke	s	n/a
136.9865	0.045	273973	keystroke	s	n/a
137.4965	0.165	274993	keystroke	Key.backspace	n/a
138.0215	0.12	276043	keystroke	i	n/a
138.1565	0.15	276313	keystroke	t	n/a
138.2165	0.18	276433	keystroke	e	n/a
138.3215	0.135	276643	keystroke	s	n/a
138.5315	0.135	277063	keystroke	Key.space	n/a
138.8765	0.15	277753	keystroke	c	n/a
139.0115	0.12	278023	keystroke	h	n/a
139.1465	0.15	278293	keystroke	a	n/a
139.2815	0.135	278563	keystroke	i	n/a
139.4315	0.105	278863	keystroke	r	n/a
139.5515	0.12	279103	keystroke	Key.space	n/a
139.8665	0.075	279733	keystroke	c	n/a
140.1515	0.12	280303	keystroke	Key.backspace	n/a
140.2565	0.135	280513	keystroke	d	n/a
140.4665	0.12	280933	keystroke	e	n/a
140.7065	0.15	281413	keystroke	c	n/a
141.1715	0.12	282343	keystroke	r	n/a
141.3515	0.18	282703	keystroke	e	n/a
141.4865	0.195	282973	keystroke	a	n/a
141.6365	0.195	283273	keystroke	s	n/a
141.7715	0.135	283543	keystroke	e	n/a
141.9515	0.135	283903	keystroke	Key.space	n/a
142.1165	0.165	284233	keystroke	c	n/a
142.2665	0.09	284533	keystroke	o	n/a
142.4465	0.09	284893	keystroke	o	n/a
142.5515	0.135	285103	keystroke	k	n/a
142.8215	0.09	285643	keystroke	i	n/a
142.9265	0.135	285853	keystroke	e	n/a
143.2415	0.12	286483	keystroke	Key.enter	n/a
143.3685	7.6455	286737	prompt	n/a	isn't brush discussed cannon\n
144.0965	0.135	288193	keystroke	i	n/a
144.2015	0.105	288403	keystroke	s	n/a
144.3215	0.195	288643	keystroke	n	n/a
144.4565	0.165	288913	keystroke	'	n/a
144.6365	0.12	289273	keystroke	t	n/a
144.7715	0.075	289543	keystroke	Key.space	n/a
144.9815	0.136	289963	keystroke	b	n/a
145.1315	0.12	290263	keystroke	r	n/a
145.2965	0.15	290593	keystroke	u	n/a
145.4615	0.105	290923	keystroke	s	n/a
145.6425	0.104	291285	keystroke	h	n/a
145.9115	0.12	291823	keystroke	Key.space	n/a
146.1215	0.091	292243	keystroke	d	n/a
146.2715	0.136	292543	keystroke	i	n/a
146.4215	0.18	292843	keystroke	s	n/a
146.7665	0.121	293533	keystroke	c	n/a
147.0215	0.09	294043	keystroke	u	n/a
147.3215	0.135	294643	keystroke	s	n/a
147.5615	0.151	295123	keystroke	s	n/a
147.6515	0.166	295303	keystroke	e	n/a
147.9365	0.121	295873	keystroke	d	n/a
148.0415	0.135	296083	keystroke	Key.space	n/a
148.2375	0.18	296475	keystroke	c	n/a
148.3565	0.18	296713	keystroke	a	n/a
148.5215	0.09	297043	keystroke	n	n/a
148.6865	0.151	297373	keystroke	n	n/a
148.8225	0.209	297645	keystroke	o	n/a
149.0015	0.135	298003	keystroke	n	n/a
149.8265	0.105	299653	keystroke	[	n/a
150.6665	0.06	301333	keystroke	Key.backspace	n/a
150.9365	0.076	301873	keystroke	Key.enter	n/a
151.02	6.114	302040	prompt	n/a	expedia they estimate must\n
151.7765	0.105	303553	keystroke	e	n/a
152.0175	0.12	304035	keystroke	x	n/a
152.1815	0.165	304363	keystroke	p	n/a
152.3325	0.074	304665	keystroke	e	n/a
152.5875	0.119	305175	keystroke	d	n/a
152.7815	0.15	305563	keystroke	i	n/a
152.9175	0.149	305835	keystroke	a	n/a
153.0515	0.135	306103	keystroke	Key.space	n/a
153.2465	0.165	306493	keystroke	t	n/a
153.4265	0.12	306853	keystroke	h	n/a
153.5015	0.135	307003	keystroke	e	n/a
153.6665	0.105	307333	keystroke	y	n/a
153.7865	0.15	307573	keystroke	Key.space	n/a
154.0415	0.21	308083	keystroke	e	n/a
154.2065	0.15	308413	keystroke	s	n/a
154.4015	0.166	308803	keystroke	t	n/a
154.6715	0.195	309343	keystroke	i	n/a
154.7915	0.165	309583	keystroke	m	n/a
154.9415	0.21	309883	keystroke	a	n/a
155.1525	0.134	310305	keystroke	t	n/a
155.4965	0.12	310993	keystroke	e	n/a
156.1265	0.135	312253	keystroke	Key.space	n/a
156.4265	0.061	312853	keystroke	m	n/a
156.6365	0.136	313273	keystroke	u	n/a
156.7425	0.164	313485	keystroke	s	n/a
156.8765	0.12	313753	keystroke	t	n/a
156.9815	0.15	313963	keystroke	Key.enter	n/a
157.1385	8.5755	314277	prompt	n/a	dubai representing backing recorder\n
157.8815	0.105	315763	keystroke	d	n/a
158.0915	0.09	316183	keystroke	u	n/a
158.3315	0.135	316663	keystroke	b	n/a
158.4965	0.165	316993	keystroke	a	n/a
158.6915	0.135	317383	keystroke	i	n/a
158.9615	0.12	317923	keystroke	Key.space	n/a
159.1715	0.135	318343	keystroke	r	n/a
159.2465	0.18	318493	keystroke	e	n/a
160.0865	0.151	320173	keystroke	p	n/a
160.4015	0.135	320803	keystroke	r	n/a
160.4615	0.21	320923	keystroke	e	n/a
160.5965	0.21	321193	keystroke	s	n/a
160.8375	0.135	321675	keystroke	e	n/a
161.0315	0.12	322063	keystroke	n	n/a
161.2425	0.12	322485	keystroke	t	n/a
161.3915	0.21	322783	keystroke	i	n/a
161.4965	0.12	322993	keystroke	n	n/a
161.6765	0.136	323353	keystroke	g	n/a
161.7965	0.12	323593	keystroke	Key.space	n/a
162.0675	0.104	324135	keystroke	b	n/a
162.1725	0.15	324345	keystroke	a	n/a
162.3975	0.164	324795	keystroke	c	n/a
162.5015	0.135	325003	keystroke	k	n/a
162.7565	0.195	325513	keystroke	i	n/a
162.8465	0.135	325693	keystroke	n	n/a
162.9675	0.12	325935	keystroke	g	n/a
163.1015	0.12	326203	keystroke	Key.space	n/a
163.3415	0.165	326683	keystroke	r	n/a
163.6275	0.135	327255	keystroke	e	n/a
164.4375	0.149	328875	keystroke	c	n/a
164.6015	0.166	329203	keystroke	o	n/a
164.7525	0.104	329505	keystroke	r	n/a
164.9925	0.104	329985	keystroke	d	n/a
165.2015	0.166	330403	keystroke	e	n/a
165.3215	0.15	330643	keystroke	r	n/a
165.5465	0.165	331093	keystroke	Key.enter	n/a
165.7215	12.683	331443	prompt	n/a	injured jeremy endangered prominent\n
166.7625	0.15	333525	keystroke	i	n/a
167.6925	0.105	335385	keystroke	n	n/a
168.2625	0.165	336525	keystroke	j	n/a
168.6675	0.12	337335	keystroke	u	n/a
168.8025	0.12	337605	keystroke	r	n/a
168.8915	0.121	337783	keystroke	e	n/a
169.1475	0.135	338295	keystroke	d	n/a
169.2665	0.136	338533	keystroke	Key.space	n/a
169.4775	0.12	338955	keystroke	j	n/a
169.5825	0.12	339165	keystroke	e	n/a
169.6875	0.134	339375	keystroke	r	n/a
169.8075	0.165	339615	keystroke	e	n/a
170.0475	0.119	340095	keystroke	m	n/a
170.5425	0.09	341085	keystroke	y	n/a
170.8425	0.134	341685	keystroke	Key.space	n/a
171.4725	0.12	342945	keystroke	Key.backspace	n/a
172.8365	0.12	345673	keystroke	Key.space	n/a
173.0325	0.12	346065	keystroke	d	n/a
173.6175	0.135	347235	keystroke	Key.backspace	n/a
173.7825	0.12	347565	keystroke	e	n/a
173.9475	0.12	347895	keystroke	n	n/a
174.2475	0.06	348495	keystroke	d	n/a
174.6825	0.24	349365	keystroke	a	n/a
174.8475	0.105	349695	keystroke	n	n/a
175.0575	0.18	350115	keystroke	g	n/a
175.2075	0.21	350415	keystroke	e	n/a
175.4325	0.105	350865	keystroke	r	n/a
175.5075	0.165	351015	keystroke	e	n/a
175.8075	0.195	351615	keystroke	d	n/a
175.9715	0.136	351943	keystroke	Key.space	n/a
176.3775	0.18	352755	keystroke	p	n/a
176.5425	0.15	353085	keystroke	r	n/a
176.7225	0.255	353445	keystroke	o	n/a
176.9325	0.18	353865	keystroke	m	n/a
177.2475	0.24	354495	keystroke	i	n/a
177.4125	0.18	354825	keystroke	n	n/a
177.5775	0.165	355155	keystroke	e	n/a
177.7875	0.12	355575	keystroke	n	n/a
177.9225	0.135	355845	keystroke	t	n/a
178.2375	0.165	356475	keystroke	Key.enter	n/a
178.4115	10.6725	356823	prompt	n/a	broker tyler thousands physical\n
180.5205	0.072	361041	keystroke	b	n/a
180.6375	0.15	361275	keystroke	r	n/a
180.8175	0.12	361635	keystroke	o	n/a
181.0125	0.195	362025	keystroke	k	n/a
181.1475	0.18	362295	keystroke	e	n/a
181.2975	0.195	362595	keystroke	r	n/a
181.5075	0.165	363015	keystroke	Key.space	n/a
181.8675	0.15	363735	keystroke	t	n/a
182.1225	0.15	364245	keystroke	y	n/a
182.5725	0.18	365145	keystroke	l	n/a
182.7075	0.18	365415	keystroke	e	n/a
182.8275	0.18	365655	keystroke	r	n/a
183.1125	0.135	366225	keystroke	Key.space	n/a
184.2225	0.09	368445	keystroke	t	n/a
184.3575	0.135	368715	keystroke	h	n/a
184.5075	0.18	369015	keystroke	o	n/a
184.6125	0.15	369225	keystroke	u	n/a
184.8675	0.15	369735	keystroke	s	n/a
184.9875	0.18	369975	keystroke	a	n/a
185.1685	0.164	370337	keystroke	n	n/a
185.3475	0.165	370695	keystroke	d	n/a
185.4525	0.165	370905	keystroke	s	n/a
185.6325	0.12	371265	keystroke	Key.space	n/a
185.8575	0.165	371715	keystroke	p	n/a
186.1425	0.15	372285	keystroke	h	n/a
186.4125	0.105	372825	keystroke	y	n/a
186.5325	0.12	373065	keystroke	s	n/a
186.6825	0.12	373365	keystroke	i	n/a
186.8325	0.135	373665	keystroke	c	n/a
186.9225	0.15	373845	keystroke	a	n/a
187.0875	0.075	374175	keystroke	'	n/a
188.1825	0.09	376365	keystroke	Key.backspace	n/a
188.6925	0.075	377385	keystroke	l	n/a
188.9475	0.135	377895	keystroke	Key.enter	n/a
189.0885	6.2055	378177	prompt	n/a	clothing producer describes flex\n
189.8325	0.165	379665	keystroke	c	n/a
190.0875	0.105	380175	keystroke	l	n/a
190.2975	0.15	380595	keystroke	o	n/a
190.4485	0.134	380897	keystroke	t	n/a
190.5675	0.165	381135	keystroke	h	n/a
190.7175	0.195	381435	keystroke	i	n/a
190.8375	0.135	381675	keystroke	n	n/a
190.9425	0.135	381885	keystroke	g	n/a
191.0325	0.135	382065	keystroke	Key.space	n/a
191.2125	0.18	382425	keystroke	p	n/a
191.3475	0.12	382695	keystroke	r	n/a
191.4825	0.18	382965	keystroke	o	n/a
191.6025	0.09	383205	keystroke	d	n/a
191.7375	0.135	383475	keystroke	u	n/a
191.8425	0.15	383685	keystroke	c	n/a
192.0075	0.18	384015	keystroke	e	n/a
192.1275	0.165	384255	keystroke	r	n/a
192.3075	0.12	384615	keystroke	Key.space	n/a
192.5025	0.12	385005	keystroke	d	n/a
192.7275	0.21	385455	keystroke	e	n/a
192.8775	0.135	385755	keystroke	s	n/a
193.0575	0.18	386115	keystroke	c	n/a
193.3725	0.12	386745	keystroke	r	n/a
193.4775	0.135	386955	keystroke	i	n/a
193.7025	0.12	387405	keystroke	b	n/a
193.7925	0.18	387585	keystroke	e	n/a
193.8975	0.135	387795	keystroke	s	n/a
194.1525	0.15	388305	keystroke	Key.space	n/a
194.3175	0.135	388635	keystroke	f	n/a
194.4675	0.12	388935	keystroke	l	n/a
194.5425	0.165	389085	keystroke	e	n/a
194.8875	0.135	389775	keystroke	x	n/a
195.1425	0.15	390285	keystroke	Key.enter	n/a
195.2975	5.7575	390595	prompt	n/a	casting beginner smile morgan\n
196.1625	0.21	392325	keystroke	c	n/a
196.1925	0.3755	392385	keystroke	a	n/a
196.4175	0.255	392835	keystroke	s	n/a
196.6875	0.15	393375	keystroke	t	n/a
196.8675	0.24	393735	keystroke	i	n/a
197.0025	0.135	394005	keystroke	n	n/a
197.1825	0.12	394365	keystroke	g	n/a
197.3625	0.09	394725	keystroke	Key.space	n/a
197.6025	0.105	395205	keystroke	b	n/a
197.6775	0.12	395355	keystroke	e	n/a
197.9175	0.105	395835	keystroke	g	n/a
198.0675	0.18	396135	keystroke	i	n/a
198.2175	0.09	396435	keystroke	n	n/a
198.3975	0.105	396795	keystroke	n	n/a
198.5625	0.21	397125	keystroke	i	n/a
198.6675	0.135	397335	keystroke	n	n/a
198.7875	0.135	397575	keystroke	g	n/a
198.9375	0.12	397875	keystroke	Key.space	n/a
199.0425	0.12	398085	keystroke	s	n/a
199.1775	0.15	398355	keystroke	m	n/a
199.2825	0.1645	398565	keystroke	i	n/a
199.3575	0.165	398715	keystroke	l	n/a
199.4925	0.1195	398985	keystroke	e	n/a
199.627	0.1205	399254	keystroke	Key.space	n/a
199.867	0.12	399734	keystroke	m	n/a
199.927	0.1805	399854	keystroke	o	n/a
200.047	0.1055	400094	keystroke	r	n/a
200.272	0.24	400544	keystroke	g	n/a
200.452	0.2105	400904	keystroke	a	n/a
200.6775	0.1195	401355	keystroke	n	n/a
200.8875	0.1645	401775	keystroke	Key.enter	n/a
201.06	5.5895	402120	prompt	n/a	julian campus sailing national\n
201.832	0.09	403664	keystroke	j	n/a
202.027	0.18	404054	keystroke	u	n/a
202.192	0.195	404384	keystroke	l	n/a
202.3725	0.15	404745	keystroke	i	n/a
202.537	0.15	405074	keystroke	a	n/a
202.657	0.15	405314	keystroke	n	n/a
202.822	0.12	405644	keystroke	Key.space	n/a
203.1225	0.18	406245	keystroke	c	n/a
203.227	0.196	406454	keystroke	a	n/a
203.392	0.15	406784	keystroke	m	n/a
203.617	0.1355	407234	keystroke	p	n/a
203.842	0.09	407684	keystroke	u	n/a
203.947	0.09	407894	keystroke	s	n/a
204.067	0.15	408134	keystroke	Key.space	n/a
204.232	0.165	408464	keystroke	s	n/a
204.352	0.2255	408704	keystroke	a	n/a
204.487	0.15	408974	keystroke	i	n/a
204.592	0.255	409184	keystroke	l	n/a
204.787	0.225	409574	keystroke	i	n/a
204.967	0.15	409934	keystroke	n	n/a
205.102	0.12	410204	keystroke	g	n/a
205.267	0.09	410534	keystroke	Key.space	n/a
205.507	0.12	411014	keystroke	n	n/a
205.597	0.165	411194	keystroke	a	n/a
205.747	0.135	411494	keystroke	t	n/a
205.837	0.12	411674	keystroke	i	n/a
205.912	0.15	411824	keystroke	o	n/a
206.017	0.15	412034	keystroke	n	n/a
206.137	0.15	412274	keystroke	a	n/a
206.272	0.105	412544	keystroke	l	n/a
206.512	0.135	413024	keystroke	Key.enter	n/a
206.6545	6.5355	413309	prompt	n/a	resorts kinds chairman approximate\n
207.322	0.225	414644	keystroke	r	n/a
207.428	0.209	414856	keystroke	e	n/a
207.562	0.15	415124	keystroke	s	n/a
207.772	0.165	415544	keystroke	o	n/a
207.922	0.09	415844	keystroke	r	n/a
208.162	0.165	416324	keystroke	t	n/a
208.267	0.165	416534	keystroke	s	n/a
208.492	0.18	416984	keystroke	Key.space	n/a
208.687	0.105	417374	keystroke	k	n/a
208.898	0.224	417796	keystroke	i	n/a
209.062	0.135	418124	keystroke	n	n/a
209.152	0.105	418304	keystroke	d	n/a
209.228	0.119	418456	keystroke	s	n/a
209.437	0.12	418874	keystroke	Key.space	n/a
209.602	0.181	419204	keystroke	c	n/a
209.783	0.134	419566	keystroke	h	n/a
209.872	0.165	419744	keystroke	a	n/a
210.112	0.135	420224	keystroke	i	n/a
210.277	0.09	420554	keystroke	r	n/a
210.457	0.105	420914	keystroke	m	n/a
210.577	0.135	421154	keystroke	a	n/a
210.697	0.12	421394	keystroke	n	n/a
210.847	0.165	421694	keystroke	Key.space	n/a
211.027	0.105	422054	keystroke	a	n/a
211.147	0.135	422294	keystroke	p	n/a
211.342	0.135	422684	keystroke	p	n/a
211.462	0.12	422924	keystroke	r	n/a
211.597	0.165	423194	keystroke	o	n/a
211.867	0.195	423734	keystroke	x	n/a
212.107	0.135	424214	keystroke	i	n/a
212.377	0.135	424754	keystroke	m	n/a
212.527	0.18	425054	keystroke	a	n/a
212.722	0.135	425444	keystroke	t	n/a
212.797	0.166	425594	keystroke	e	n/a
213.022	0.165	426044	keystroke	Key.enter	n/a
213.195	6.7145	426390	prompt	n/a	hero undefined mercedes helps\n
213.833	0.15	427666	keystroke	h	n/a
213.952	0.15	427904	keystroke	e	n/a
214.087	0.135	428174	keystroke	r	n/a
214.282	0.12	428564	keystroke	o	n/a
214.552	0.105	429104	keystroke	Key.space	n/a
214.942	0.12	429884	keystroke	u	n/a
215.212	0.12	430424	keystroke	n	n/a
215.362	0.12	430724	keystroke	d	n/a
215.617	0.166	431234	keystroke	e	n/a
215.737	0.165	431474	keystroke	f	n/a
216.172	0.151	432344	keystroke	i	n/a
216.292	0.121	432584	keystroke	n	n/a
216.398	0.119	432796	keystroke	e	n/a
216.653	0.12	433306	keystroke	d	n/a
216.757	0.105	433514	keystroke	Key.space	n/a
216.953	0.135	433906	keystroke	m	n/a
217.072	0.151	434144	keystroke	e	n/a
217.177	0.15	434354	keystroke	r	n/a
217.627	0.181	435254	keystroke	c	n/a
217.763	0.134	435526	keystroke	e	n/a
218.063	0.165	436126	keystroke	d	n/a
218.362	0.21	436724	keystroke	e	n/a
218.497	0.18	436994	keystroke	s	n/a
218.707	0.12	437414	keystroke	Key.space	n/a
218.917	0.121	437834	keystroke	h	n/a
219.052	0.106	438104	keystroke	e	n/a
219.217	0.09	438434	keystroke	l	n/a
219.458	0.149	438916	keystroke	p	n/a
219.592	0.121	439184	keystroke	s	n/a
219.788	0.12	439576	keystroke	Key.enter	n/a
219.915	9.49	439830	prompt	n/a	lecture basement tutorial outlined\n
221.7825	0.105	443565	keystroke	l	n/a
221.8575	0.12	443715	keystroke	e	n/a
222.0375	0.165	444075	keystroke	c	n/a
222.3975	0.15	444795	keystroke	t	n/a
222.5925	0.12	445185	keystroke	u	n/a
222.7725	0.135	445545	keystroke	r	n/a
222.8775	0.15	445755	keystroke	e	n/a
223.0875	0.135	446175	keystroke	Key.space	n/a
223.4025	0.12	446805	keystroke	b	n/a
223.4925	0.255	446985	keystroke	a	n/a
223.6425	0.255	447285	keystroke	s	n/a
223.8825	0.135	447765	keystroke	e	n/a
224.2425	0.105	448485	keystroke	m	n/a
224.3775	0.105	448755	keystroke	e	n/a
224.5275	0.12	449055	keystroke	n	n/a
224.6485	0.134	449297	keystroke	t	n/a
224.7975	0.15	449595	keystroke	Key.space	n/a
225.2175	0.105	450435	keystroke	t	n/a
225.5175	0.105	451035	keystroke	u	n/a
226.1925	0.135	452385	keystroke	t	n/a
226.3425	0.18	452685	keystroke	o	n/a
226.5075	0.105	453015	keystroke	r	n/a
226.6725	0.135	453345	keystroke	i	n/a
226.7925	0.135	453585	keystroke	a	n/a
226.9275	0.15	453855	keystroke	l	n/a
227.1225	0.135	454245	keystroke	Key.space	n/a
227.4835	0.149	454967	keystroke	o	n/a
227.5875	0.15	455175	keystroke	u	n/a
227.7075	0.15	455415	keystroke	t	n/a
227.9325	0.165	455865	keystroke	l	n/a
228.0525	0.18	456105	keystroke	i	n/a
228.1725	0.135	456345	keystroke	n	n/a
228.2025	0.255	456405	keystroke	e	n/a
228.3975	0.135	456795	keystroke	s	n/a
228.8475	0.15	457695	keystroke	Key.backspace	n/a
228.9675	0.15	457935	keystroke	d	n/a
229.2375	0.165	458475	keystroke	Key.enter	n/a
229.4095	8.711	458819	prompt	n/a	aaron delivered regulations listen\n
231.7305	0.087	463461	keystroke	a	n/a
232.0125	0.045	464025	keystroke	a	n/a
232.2825	0.135	464565	keystroke	r	n/a
232.5375	0.21	465075	keystroke	o	n/a
232.6875	0.105	465375	keystroke	n	n/a
232.9575	0.15	465915	keystroke	Key.space	n/a
233.2875	0.09	466575	keystroke	d	n/a
233.4525	0.165	466905	keystroke	e	n/a
233.6325	0.195	467265	keystroke	l	n/a
233.9475	0.12	467895	keystroke	i	n/a
234.1275	0.15	468255	keystroke	v	n/a
234.3225	0.18	468645	keystroke	e	n/a
234.4875	0.15	468975	keystroke	r	n/a
234.5775	0.135	469155	keystroke	e	n/a
234.8625	0.12	469725	keystroke	d	n/a
235.0725	0.135	470145	keystroke	Key.space	n/a
235.3575	0.135	470715	keystroke	r	n/a
235.4475	0.135	470895	keystroke	e	n/a
235.7625	0.12	471525	keystroke	g	n/a
235.9275	0.18	471855	keystroke	u	n/a
236.0625	0.21	472125	keystroke	l	n/a
236.2875	0.18	472575	keystroke	a	n/a
236.4375	0.135	472875	keystroke	t	n/a
236.5425	0.12	473085	keystroke	i	n/a
236.6325	0.18	473265	keystroke	o	n/a
236.7525	0.165	473505	keystroke	n	n/a
236.8425	0.135	473685	keystroke	s	n/a
237.0375	0.165	474075	keystroke	Key.space	n/a
237.1875	0.15	474375	keystroke	l	n/a
237.2625	0.15	474525	keystroke	i	n/a
237.3675	0.165	474735	keystroke	s	n/a
237.4875	0.12	474975	keystroke	t	n/a
237.5625	0.15	475125	keystroke	e	n/a
237.6975	0.165	475395	keystroke	n	n/a
237.9675	0.15	475935	keystroke	Key.enter	n/a
238.124	6.4305	476248	prompt	n/a	schedule force modern rarely\n
238.9135	0.179	477827	keystroke	s	n/a
239.1675	0.18	478335	keystroke	c	n/a
239.3485	0.149	478697	keystroke	h	n/a
239.4675	0.12	478935	keystroke	e	n/a
239.7225	0.12	479445	keystroke	d	n/a
239.8435	0.135	479687	keystroke	u	n/a
239.9475	0.135	479895	keystroke	l	n/a
240.0525	0.12	480105	keystroke	e	n/a
240.2025	0.165	480405	keystroke	Key.space	n/a
240.3525	0.12	480705	keystroke	f	n/a
240.4875	0.15	480975	keystroke	o	n/a
240.6075	0.135	481215	keystroke	r	n/a
240.8925	0.151	481785	keystroke	c	n/a
240.9975	0.165	481995	keystroke	e	n/a
241.2225	0.12	482445	keystroke	Key.space	n/a
241.6275	0.165	483255	keystroke	m	n/a
241.7325	0.18	483465	keystroke	o	n/a
241.8525	0.105	483705	keystroke	d	n/a
242.0925	0.105	484185	keystroke	e	n/a
242.2125	0.121	484425	keystroke	r	n/a
242.2875	0.121	484575	keystroke	n	n/a
242.4675	0.1355	484935	keystroke	Key.space	n/a
242.618	0.135	485236	keystroke	l	n/a
242.768	0.12	485536	keystroke	a	n/a
243.083	0.09	486166	keystroke	Key.backspace	n/a
243.233	0.09	486466	keystroke	Key.backspace	n/a
243.443	0.165	486886	keystroke	r	n/a
243.548	0.21	487096	keystroke	a	n/a
243.743	0.165	487486	keystroke	r	n/a
243.833	0.15	487666	keystroke	e	n/a
243.998	0.12	487996	keystroke	l	n/a
244.208	0.075	488416	keystroke	y	n/a
244.403	0.15	488806	keystroke	Key.enter	n/a
244.56	5.8295	489120	prompt	n/a	failing prison shares terrorism\n
245.228	0.2095	490456	keystroke	f	n/a
245.348	0.1795	490696	keystroke	a	n/a
245.4975	0.15	490995	keystroke	i	n/a
245.6025	0.27	491205	keystroke	l	n/a
245.7675	0.18	491535	keystroke	i	n/a
245.9175	0.15	491835	keystroke	n	n/a
246.1275	0.1355	492255	keystroke	g	n/a
246.2325	0.1355	492465	keystroke	Key.space	n/a
246.443	0.18	492886	keystroke	p	n/a
246.578	0.105	493156	keystroke	r	n/a
246.713	0.105	493426	keystroke	i	n/a
246.848	0.135	493696	keystroke	s	n/a
246.968	0.21	493936	keystroke	o	n/a
247.118	0.135	494236	keystroke	n	n/a
247.268	0.105	494536	keystroke	Key.space	n/a
247.448	0.12	494896	keystroke	s	n/a
247.598	0.105	495196	keystroke	h	n/a
247.688	0.18	495376	keystroke	a	n/a
247.853	0.1795	495706	keystroke	r	n/a
247.9425	0.2105	495885	keystroke	e	n/a
248.1075	0.12	496215	keystroke	s	n/a
248.258	0.1345	496516	keystroke	Key.space	n/a
248.4675	0.165	496935	keystroke	t	n/a
248.6335	0.194	497267	keystroke	e	n/a
248.8125	0.12	497625	keystroke	r	n/a
249.023	0.0745	498046	keystroke	r	n/a
249.2325	0.1505	498465	keystroke	o	n/a
249.5025	0.105	499005	keystroke	r	n/a
249.7125	0.1355	499425	keystroke	i	n/a
249.8625	0.12	499725	keystroke	s	n/a
250.0275	0.1355	500055	keystroke	m	n/a
250.2225	0.165	500445	keystroke	Key.enter	n/a
250.395	8.7995	500790	prompt	n/a	armed that'd additionally transparency\n
251.1375	0.15	502275	keystroke	a	n/a
251.5425	0.165	503085	keystroke	r	n/a
251.8125	0.15	503625	keystroke	m	n/a
251.9475	0.1355	503895	keystroke	e	n/a
252.2175	0.12	504435	keystroke	d	n/a
252.4425	0.12	504885	keystroke	Key.space	n/a
252.6375	0.12	505275	keystroke	t	n/a
252.7725	0.165	505545	keystroke	h	n/a
252.8775	0.195	505755	keystroke	a	n/a
253.0125	0.135	506025	keystroke	t	n/a
253.1925	0.15	506385	keystroke	'	n/a
253.5075	0.135	507015	keystroke	d	n/a
253.6725	0.12	507345	keystroke	Key.space	n/a
254.0775	0.135	508155	keystroke	a	n/a
254.3325	0.075	508665	keystroke	d	n/a
254.5125	0.15	509025	keystroke	d	n/a
254.7075	0.12	509415	keystroke	i	n/a
254.9025	0.135	509805	keystroke	t	n/a
255.0225	0.12	510045	keystroke	i	n/a
255.0675	0.225	510135	keystroke	o	n/a
255.2175	0.15	510435	keystroke	n	n/a
255.3525	0.135	510705	keystroke	a	n/a
255.5025	0.09	511005	keystroke	l	n/a
255.6675	0.12	511335	keystroke	l	n/a
255.8775	0.105	511755	keystroke	y	n/a
256.0575	0.15	512115	keystroke	Key.space	n/a
256.3725	0.106	512745	keystroke	t	n/a
256.5975	0.15	513195	keystroke	r	n/a
256.6725	0.15	513345	keystroke	a	n/a
256.8375	0.135	513675	keystroke	n	n/a
257.0025	0.135	514005	keystroke	s	n/a
257.2875	0.18	514575	keystroke	p	n/a
257.5425	0.135	515085	keystroke	a	n/a
257.7075	0.15	515415	keystroke	r	n/a
258.0225	0.15	516045	keystroke	e	n/a
258.2325	0.15	516465	keystroke	n	n/a
258.5325	0.195	517065	keystroke	c	n/a
258.7425	0.09	517485	keystroke	y	n/a
259.0425	0.15	518085	keystroke	Key.enter	n/a
259.199	7.526	518398	prompt	n/a	easter living learners convention\n
260.2875	0.06	520575	keystroke	j	n/a
260.6475	0.105	521295	keystroke	Key.backspace	n/a
260.8125	0.195	521625	keystroke	e	n/a
260.9625	0.195	521925	keystroke	a	n/a
261.1425	0.15	522285	keystroke	r	n/a
261.5775	0.15	523155	keystroke	Key.backspace	n/a
261.7125	0.18	523425	keystroke	s	n/a
261.8635	0.179	523727	keystroke	t	n/a
262.0725	0.195	524145	keystroke	e	n/a
262.2235	0.149	524447	keystroke	r	n/a
262.3575	0.165	524715	keystroke	Key.space	n/a
262.5075	0.195	525015	keystroke	l	n/a
262.6275	0.165	525255	keystroke	i	n/a
262.7775	0.195	525555	keystroke	v	n/a
262.9275	0.285	525855	keystroke	i	n/a
263.0925	0.135	526185	keystroke	n	n/a
263.2575	0.15	526515	keystroke	g	n/a
263.4225	0.12	526845	keystroke	Key.space	n/a
263.6775	0.135	527355	keystroke	l	n/a
263.7675	0.165	527535	keystroke	e	n/a
263.8875	0.18	527775	keystroke	a	n/a
263.9925	0.15	527985	keystroke	r	n/a
264.1285	0.119	528257	keystroke	n	n/a
264.3525	0.18	528705	keystroke	e	n/a
264.5025	0.196	529005	keystroke	r	n/a
264.6835	0.134	529367	keystroke	s	n/a
264.8625	0.12	529725	keystroke	Key.space	n/a
265.2075	0.18	530415	keystroke	c	n/a
265.3275	0.196	530655	keystroke	o	n/a
265.4475	0.15	530895	keystroke	n	n/a
265.5825	0.15	531165	keystroke	v	n/a
265.7335	0.134	531467	keystroke	e	n/a
265.8525	0.135	531705	keystroke	n	n/a
266.078	0.1195	532156	keystroke	t	n/a
266.1675	0.165	532335	keystroke	i	n/a
266.2575	0.18	532515	keystroke	o	n/a
266.4075	0.12	532815	keystroke	n	n/a
266.5575	0.165	533115	keystroke	Key.enter	n/a
266.7295	10.225	533459	prompt	n/a	replication intent scsi commitments\n
268.0125	0.12	536025	keystroke	r	n/a
268.0725	0.15	536145	keystroke	e	n/a
268.4475	0.09	536895	keystroke	l	n/a
268.8075	0.12	537615	keystroke	Key.backspace	n/a
269.2125	0.165	538425	keystroke	p	n/a
269.5875	0.241	539175	keystroke	l	n/a
269.8425	0.12	539685	keystroke	i	n/a
269.9775	0.165	539955	keystroke	c	n/a
270.0825	0.195	540165	keystroke	a	n/a
270.2925	0.15	540585	keystroke	t	n/a
270.4285	0.164	540857	keystroke	i	n/a
270.5475	0.18	541095	keystroke	o	n/a
270.6825	0.135	541365	keystroke	n	n/a
270.8185	0.149	541637	keystroke	Key.space	n/a
271.0725	0.225	542145	keystroke	i	n/a
271.1785	0.164	542357	keystroke	n	n/a
271.3285	0.134	542657	keystroke	t	n/a
271.4175	0.18	542835	keystroke	e	n/a
271.6275	0.135	543255	keystroke	n	n/a
271.7925	0.12	543585	keystroke	t	n/a
271.9875	0.135	543975	keystroke	Key.space	n/a
272.2125	0.15	544425	keystroke	s	n/a
272.4985	0.149	544997	keystroke	c	n/a
273.1285	0.119	546257	keystroke	s	n/a
273.7425	0.106	547485	keystroke	i	n/a
274.4625	0.105	548925	keystroke	Key.space	n/a
274.5975	0.165	549195	keystroke	c	n/a
274.6875	0.165	549375	keystroke	o	n/a
274.8375	0.061	549675	keystroke	m	n/a
274.9875	0.135	549975	keystroke	m	n/a
275.6325	0.12	551265	keystroke	i	n/a
275.8735	0.119	551747	keystroke	t	n/a
276.0375	0.121	552075	keystroke	m	n/a
276.1125	0.165	552225	keystroke	e	n/a
276.2935	0.149	552587	keystroke	n	n/a
276.4435	0.15	552887	keystroke	t	n/a
276.5785	0.12	553157	keystroke	s	n/a
276.8025	0.15	553605	keystroke	Key.enter	n/a
276.9585	6.6865	553917	prompt	n/a	rush spirits maritime porcelain\n
277.8985	0.18	555797	keystroke	r	n/a
278.1225	0.121	556245	keystroke	u	n/a
278.2285	0.149	556457	keystroke	s	n/a
278.4235	0.119	556847	keystroke	h	n/a
278.7075	0.135	557415	keystroke	Key.space	n/a
278.9325	0.136	557865	keystroke	s	n/a
279.0535	0.18	558107	keystroke	p	n/a
279.1735	0.18	558347	keystroke	i	n/a
279.3685	0.12	558737	keystroke	r	n/a
279.5935	0.15	559187	keystroke	i	n/a
279.7585	0.165	559517	keystroke	t	n/a
279.8925	0.136	559785	keystroke	s	n/a
280.4175	0.12	560835	keystroke	Key.space	n/a
281.1535	0.12	562307	keystroke	m	n/a
281.2885	0.165	562577	keystroke	a	n/a
281.4075	0.151	562815	keystroke	r	n/a
281.8885	0.104	563777	keystroke	t	n/a
282.2625	0.09	564525	keystroke	Key.backspace	n/a
282.5185	0.15	565037	keystroke	i	n/a
282.7735	0.075	565547	keystroke	t	n/a
282.9535	0.224	565907	keystroke	i	n/a
283.1035	0.18	566207	keystroke	m	n/a
283.2385	0.105	566477	keystroke	e	n/a
283.5085	0.134	567017	keystroke	Key.enter	n/a
283.6495	8.8455	567299	prompt	n/a	proc lancaster team respond\n
284.6935	0.165	569387	keystroke	p	n/a
284.8285	0.1195	569657	keystroke	r	n/a
284.963	0.135	569926	keystroke	o	n/a
285.128	0.149	570256	keystroke	c	n/a
285.308	0.12	570616	keystroke	Key.space	n/a
285.517	0.136	571034	keystroke	l	n/a
285.743	0.1205	571486	keystroke	a	n/a
285.818	0.15	571636	keystroke	n	n/a
286.133	0.1055	572266	keystroke	c	n/a
286.9435	0.15	573887	keystroke	c	n/a
287.048	0.075	574096	keystroke	a	n/a
287.318	0.075	574636	keystroke	a	n/a
287.528	0.06	575056	keystroke	Key.backspace	n/a
287.707	0.106	575414	keystroke	Key.backspace	n/a
287.857	0.076	575714	keystroke	Key.backspace	n/a
287.918	0.21	575836	keystroke	a	n/a
288.098	0.21	576196	keystroke	s	n/a
288.173	0.06	576346	keystroke	a	n/a
288.863	0.135	577726	keystroke	Key.backspace	n/a
289.013	0.18	578026	keystroke	t	n/a
289.208	0.18	578416	keystroke	e	n/a
289.313	0.15	578626	keystroke	r	n/a
289.508	0.165	579016	keystroke	Key.space	n/a
289.973	0.195	579946	keystroke	t	n/a
290.078	0.225	580156	keystroke	e	n/a
290.243	0.15	580486	keystroke	a	n/a
290.408	0.09	580816	keystroke	m	n/a
290.618	0.135	581236	keystroke	Key.space	n/a
291.218	0.165	582436	keystroke	r	n/a
291.338	0.165	582676	keystroke	e	n/a
291.4285	0.1345	582857	keystroke	s	n/a
291.578	0.15	583156	keystroke	p	n/a
291.683	0.24	583366	keystroke	o	n/a
291.803	0.165	583606	keystroke	n	n/a
291.938	0.225	583876	keystroke	d	n/a
292.118	0.12	584236	keystroke	s	n/a
292.343	0.15	584686	keystroke	Key.enter	n/a
292.4995	14.2165	584999	prompt	n/a	accepting example intellectual parcel\n
293.603	0.15	587206	keystroke	q	n/a
293.948	0.12	587896	keystroke	f	n/a
294.353	0.105	588706	keystroke	Key.backspace	n/a
294.518	0.12	589036	keystroke	Key.backspace	n/a
294.758	0.165	589516	keystroke	q	n/a
295.028	0.12	590056	keystroke	d	n/a
295.523	0.135	591046	keystroke	Key.backspace	n/a
295.733	0.105	591466	keystroke	Key.backspace	n/a
295.883	0.06	591766	keystroke	r	n/a
296.438	0.135	592876	keystroke	Key.backspace	n/a
297.638	0.195	595276	keystroke	a	n/a
297.998	0.135	595996	keystroke	c	n/a
298.118	0.105	596236	keystroke	e	n/a
298.358	0.105	596716	keystroke	e	n/a
298.703	0.105	597406	keystroke	Key.backspace	n/a
298.868	0.105	597736	keystroke	Key.backspace	n/a
298.988	0.105	597976	keystroke	c	n/a
299.033	0.18	598066	keystroke	e	n/a
299.378	0.15	598756	keystroke	p	n/a
299.558	0.12	599116	keystroke	t	n/a
299.693	0.27	599386	keystroke	i	n/a
299.843	0.135	599686	keystroke	n	n/a
300.023	0.09	600046	keystroke	g	n/a
300.218	0.135	600436	keystroke	Key.space	n/a
300.428	0.18	600856	keystroke	e	n/a
300.803	0.195	601606	keystroke	x	n/a
301.313	0.15	602626	keystroke	a	n/a
301.448	0.165	602896	keystroke	m	n/a
301.583	0.135	603166	keystroke	p	n/a
301.823	0.135	603646	keystroke	l	n/a
301.943	0.12	603886	keystroke	e	n/a
302.078	0.12	604156	keystroke	Key.space	n/a
302.258	0.195	604516	keystroke	i	n/a
302.378	0.12	604756	keystroke	n	n/a
302.468	0.135	604936	keystroke	t	n/a
302.558	0.195	605116	keystroke	e	n/a
302.723	0.09	605446	keystroke	l	n/a
302.903	0.06	605806	keystroke	o	n/a
302.963	0.105	605926	keystroke	e	n/a
303.353	0.075	606706	keystroke	Key.backspace	n/a
303.503	0.105	607006	keystroke	Key.backspace	n/a
303.758	0.15	607516	keystroke	l	n/a
303.863	0.12	607726	keystroke	e	n/a
304.103	0.135	608206	keystroke	c	n/a
304.343	0.18	608686	keystroke	t	n/a
304.508	0.15	609016	keystroke	u	n/a
304.673	0.15	609346	keystroke	a	n/a
304.838	0.105	609676	keystroke	l	n/a
305.258	0.135	610516	keystroke	Key.space	n/a
305.573	0.15	611146	keystroke	p	n/a
305.678	0.21	611356	keystroke	a	n/a
305.843	0.105	611686	keystroke	r	n/a
306.113	0.18	612226	keystroke	c	n/a
306.218	0.18	612436	keystroke	e	n/a
306.338	0.105	612676	keystroke	l	n/a
306.563	0.15	613126	keystroke	Key.enter	n/a
306.7215	7.2695	613443	prompt	n/a	neighbor pale automotive relatively\n
307.358	0.15	614716	keystroke	n	n/a
307.448	0.135	614896	keystroke	e	n/a
307.613	0.15	615226	keystroke	i	n/a
307.778	0.105	615556	keystroke	g	n/a
307.868	0.105	615736	keystroke	h	n/a
308.108	0.15	616216	keystroke	b	n/a
308.228	0.18	616456	keystroke	o	n/a
308.363	0.15	616726	keystroke	r	n/a
308.933	0.105	617866	keystroke	Key.space	n/a
309.158	0.165	618316	keystroke	p	n/a
309.308	0.12	618616	keystroke	a	n/a
309.488	0.15	618976	keystroke	l	n/a
309.623	0.12	619246	keystroke	e	n/a
309.803	0.12	619606	keystroke	Key.space	n/a
309.924	0.134	619848	keystroke	a	n/a
310.088	0.12	620176	keystroke	u	n/a
310.268	0.12	620536	keystroke	t	n/a
310.418	0.15	620836	keystroke	o	n/a
310.793	0.135	621586	keystroke	m	n/a
310.958	0.18	621916	keystroke	o	n/a
311.183	0.135	622366	keystroke	t	n/a
311.348	0.12	622696	keystroke	i	n/a
311.513	0.165	623026	keystroke	v	n/a
311.648	0.165	623296	keystroke	e	n/a
311.798	0.12	623596	keystroke	Key.space	n/a
312.278	0.135	624556	keystroke	r	n/a
312.353	0.135	624706	keystroke	e	n/a
312.473	0.165	624946	keystroke	l	n/a
312.593	0.225	625186	keystroke	a	n/a
312.788	0.105	625576	keystroke	t	n/a
312.908	0.105	625816	keystroke	i	n/a
313.073	0.165	626146	keystroke	v	n/a
313.223	0.165	626446	keystroke	e	n/a
313.403	0.12	626806	keystroke	l	n/a
313.598	0.09	627196	keystroke	y	n/a
313.838	0.15	627676	keystroke	Key.enter	n/a
313.9945	7.886	627989	prompt	n/a	aspect character chocolate votes\n
314.649	0.194	629298	keystroke	a	n/a
314.828	0.135	629656	keystroke	s	n/a
315.023	0.15	630046	keystroke	c	n/a
315.188	0.165	630376	keystroke	p	n/a
315.323	0.15	630646	keystroke	e	n/a
315.638	0.045	631276	keystroke	Key.backspace	n/a
315.773	0.09	631546	keystroke	Key.backspace	n/a
315.923	0.075	631846	keystroke	Key.backspace	n/a
316.734	0.149	633468	keystroke	p	n/a
316.838	0.105	633676	keystroke	e	n/a
317.063	0.15	634126	keystroke	c	n/a
317.378	0.105	634756	keystroke	t	n/a
317.498	0.135	634996	keystroke	Key.space	n/a
317.948	0.15	635896	keystroke	c	n/a
318.083	0.09	636166	keystroke	h	n/a
318.158	0.225	636316	keystroke	a	n/a
318.338	0.135	636676	keystroke	r	n/a
318.698	0.15	637396	keystroke	a	n/a
318.923	0.135	637846	keystroke	c	n/a
319.193	0.18	638386	keystroke	t	n/a
319.358	0.195	638716	keystroke	e	n/a
319.494	0.119	638988	keystroke	r	n/a
319.598	0.135	639196	keystroke	Key.space	n/a
319.793	0.135	639586	keystroke	c	n/a
319.943	0.12	639886	keystroke	h	n/a
320.003	0.15	640006	keystroke	o	n/a
320.183	0.18	640366	keystroke	c	n/a
320.273	0.12	640546	keystroke	o	n/a
320.483	0.121	640966	keystroke	l	n/a
320.573	0.18	641146	keystroke	a	n/a
320.708	0.135	641416	keystroke	t	n/a
320.813	0.12	641626	keystroke	e	n/a
320.918	0.135	641836	keystroke	Key.space	n/a
321.113	0.105	642226	keystroke	v	n/a
321.203	0.15	642406	keystroke	o	n/a
321.383	0.21	642766	keystroke	t	n/a
321.518	0.15	643036	keystroke	e	n/a
321.608	0.12	643216	keystroke	s	n/a
321.713	0.165	643426	keystroke	Key.enter	n/a
321.885	5.966	643770	prompt	n/a	burning oldest loud electricity\n
322.463	0.105	644926	keystroke	b	n/a
322.688	0.075	645376	keystroke	u	n/a
322.823	0.135	645646	keystroke	r	n/a
322.988	0.12	645976	keystroke	n	n/a
323.198	0.21	646396	keystroke	i	n/a
323.288	0.135	646576	keystroke	n	n/a
323.453	0.12	646906	keystroke	g	n/a
323.558	0.09	647116	keystroke	Key.space	n/a
323.708	0.105	647416	keystroke	o	n/a
323.918	0.135	647836	keystroke	l	n/a
324.054	0.119	648108	keystroke	d	n/a
324.278	0.135	648556	keystroke	e	n/a
324.369	0.135	648738	keystroke	r	n/a
324.563	0.12	649126	keystroke	Key.space	n/a
324.698	0.165	649396	keystroke	l	n/a
324.983	0.18	649966	keystroke	o	n/a
325.104	0.119	650208	keystroke	u	n/a
325.238	0.106	650476	keystroke	d	n/a
325.419	0.074	650838	keystroke	Key.space	n/a
325.538	0.151	651076	keystroke	e	n/a
325.733	0.135	651466	keystroke	l	n/a
325.853	0.135	651706	keystroke	e	n/a
326.108	0.12	652216	keystroke	c	n/a
326.378	0.12	652756	keystroke	t	n/a
326.619	0.119	653238	keystroke	r	n/a
326.739	0.104	653478	keystroke	i	n/a
326.903	0.15	653806	keystroke	c	n/a
327.054	0.149	654108	keystroke	i	n/a
327.248	0.105	654496	keystroke	t	n/a
327.368	0.061	654736	keystroke	y	n/a
327.714	0.134	655428	keystroke	Key.enter	n/a
327.8565	9.518	655713	prompt	n/a	kansas motel operators dakota\n
328.524	0.15	657048	keystroke	k	n/a
328.644	0.12	657288	keystroke	a	n/a
328.838	0.105	657676	keystroke	n	n/a
329.108	0.135	658216	keystroke	s	n/a
329.558	0.105	659116	keystroke	Key.backspace	n/a
329.739	0.255	659478	keystroke	a	n/a
329.949	0.12	659898	keystroke	s	n/a
330.278	0.09	660556	keystroke	Key.backspace	n/a
330.428	0.105	660856	keystroke	Key.backspace	n/a
330.548	0.121	661096	keystroke	a	n/a
330.608	0.15	661216	keystroke	s	n/a
331.073	0.12	662146	keystroke	Key.backspace	n/a
331.328	0.09	662656	keystroke	Key.backspace	n/a
331.614	0.119	663228	keystroke	s	n/a
331.794	0.285	663588	keystroke	a	n/a
331.989	0.149	663978	keystroke	s	n/a
332.363	0.12	664726	keystroke	Key.space	n/a
332.6485	0.15	665297	keystroke	m	n/a
332.7525	0.166	665505	keystroke	o	n/a
332.9035	0.105	665807	keystroke	t	n/a
332.9635	0.135	665927	keystroke	e	n/a
333.0825	0.166	666165	keystroke	l	n/a
333.3075	0.135	666615	keystroke	Key.space	n/a
333.5485	0.135	667097	keystroke	o	n/a
333.6535	0.179	667307	keystroke	p	n/a
333.8025	0.166	667605	keystroke	e	n/a
333.9235	0.18	667847	keystroke	r	n/a
334.6885	0.164	669377	keystroke	a	n/a
334.9135	0.135	669827	keystroke	t	n/a
335.0485	0.164	670097	keystroke	o	n/a
335.2275	0.151	670455	keystroke	r	n/a
335.4535	0.18	670907	keystroke	s	n/a
335.8275	0.105	671655	keystroke	Key.space	n/a
336.0385	0.18	672077	keystroke	d	n/a
336.2485	0.179	672497	keystroke	a	n/a
336.4575	0.136	672915	keystroke	k	n/a
336.6525	0.151	673305	keystroke	o	n/a
336.8635	0.21	673727	keystroke	t	n/a
337.0285	0.15	674057	keystroke	a	n/a
337.1935	0.179	674387	keystroke	Key.enter	n/a
337.382	7.0275	674764	prompt	n/a	mounted called webmasters sherman\n
338.0485	0.105	676097	keystroke	m	n/a
338.2285	0.165	676457	keystroke	o	n/a
338.2885	0.12	676577	keystroke	u	n/a
338.4985	0.15	676997	keystroke	n	n/a
338.6335	0.165	677267	keystroke	t	n/a
338.8585	0.105	677717	keystroke	e	n/a
339.0985	0.15	678197	keystroke	d	n/a
339.2175	0.136	678435	keystroke	Key.space	n/a
339.3835	0.195	678767	keystroke	c	n/a
339.5035	0.15	679007	keystroke	a	n/a
339.6235	0.104	679247	keystroke	l	n/a
339.8035	0.135	679607	keystroke	l	n/a
339.9085	0.12	679817	keystroke	e	n/a
340.1935	0.135	680387	keystroke	d	n/a
340.3875	0.12	680775	keystroke	Key.space	n/a
340.5385	0.21	681077	keystroke	w	n/a
340.6735	0.194	681347	keystroke	e	n/a
340.8535	0.09	681707	keystroke	b	n/a
341.1085	0.044	682217	keystroke	s	n/a
341.4085	0.105	682817	keystroke	Key.backspace	n/a
341.7085	0.12	683417	keystroke	m	n/a
341.7985	0.21	683597	keystroke	a	n/a
341.9485	0.195	683897	keystroke	s	n/a
342.1135	0.18	684227	keystroke	t	n/a
342.2785	0.255	684557	keystroke	e	n/a
342.4285	0.225	684857	keystroke	r	n/a
342.5635	0.165	685127	keystroke	s	n/a
342.9075	0.151	685815	keystroke	Key.space	n/a
343.0885	0.105	686177	keystroke	s	n/a
343.2985	0.105	686597	keystroke	h	n/a
343.3585	0.15	686717	keystroke	e	n/a
343.4785	0.15	686957	keystroke	r	n/a
343.6585	0.12	687317	keystroke	m	n/a
343.8685	0.15	687737	keystroke	a	n/a
344.0335	0.12	688067	keystroke	n	n/a
344.2735	0.134	688547	keystroke	Key.enter	n/a
344.415	9.2215	688830	prompt	n/a	petition invitations shame lately\n
345.0835	0.21	690167	keystroke	p	n/a
345.3685	0.105	690737	keystroke	e	n/a
345.6235	0.12	691247	keystroke	i	n/a
345.8035	0.12	691607	keystroke	t	n/a
346.1335	0.075	692267	keystroke	Key.backspace	n/a
346.2685	0.105	692537	keystroke	Key.backspace	n/a
346.4185	0.12	692837	keystroke	t	n/a
346.5835	0.105	693167	keystroke	i	n/a
346.7335	0.12	693467	keystroke	t	n/a
346.8385	0.135	693677	keystroke	i	n/a
346.9435	0.225	693887	keystroke	o	n/a
347.0935	0.105	694187	keystroke	n	n/a
347.3035	0.12	694607	keystroke	a	n/a
347.8585	0.09	695717	keystroke	Key.backspace	n/a
348.2785	0.15	696557	keystroke	Key.space	n/a
348.6985	0.27	697397	keystroke	i	n/a
348.8335	0.15	697667	keystroke	n	n/a
349.4635	0.09	698927	keystroke	v	n/a
349.6585	0.105	699317	keystroke	i	n/a
349.8835	0.195	699767	keystroke	t	n/a
350.0485	0.195	700097	keystroke	a	n/a
350.2585	0.12	700517	keystroke	t	n/a
350.3935	0.12	700787	keystroke	i	n/a
350.4685	0.21	700937	keystroke	o	n/a
350.5885	0.15	701177	keystroke	n	n/a
351.0985	0.105	702197	keystroke	s	n/a
351.3985	0.15	702797	keystroke	Key.space	n/a
351.6235	0.105	703247	keystroke	s	n/a
351.7735	0.12	703547	keystroke	h	n/a
351.9085	0.15	703817	keystroke	a	n/a
352.0735	0.135	704147	keystroke	m	n/a
352.2385	0.12	704477	keystroke	e	n/a
352.4185	0.135	704837	keystroke	Key.space	n/a
352.5685	0.165	705137	keystroke	l	n/a
352.7185	0.18	705437	keystroke	a	n/a
352.8685	0.12	705737	keystroke	t	n/a
352.9435	0.105	705887	keystroke	e	n/a
353.0635	0.12	706127	keystroke	l	n/a
353.3185	0.105	706637	keystroke	y	n/a
353.5435	0.09	707087	keystroke	Key.enter	n/a
353.6415	6.6695	707283	prompt	n/a	reed borough stones doubt\n
354.9985	0.09	709997	keystroke	r	n/a
355.0445	0.149	710089	keystroke	e	n/a
355.6135	0.135	711227	keystroke	e	n/a
355.9135	0.15	711827	keystroke	d	n/a
356.0485	0.105	712097	keystroke	Key.space	n/a
356.2285	0.15	712457	keystroke	b	n/a
356.3635	0.15	712727	keystroke	o	n/a
356.4985	0.105	712997	keystroke	r	n/a
356.6185	0.21	713237	keystroke	o	n/a
356.7835	0.15	713567	keystroke	u	n/a
356.9485	0.09	713897	keystroke	g	n/a
357.0685	0.105	714137	keystroke	h	n/a
357.2335	0.15	714467	keystroke	Key.space	n/a
357.4735	0.195	714947	keystroke	s	n/a
357.6385	0.15	715277	keystroke	t	n/a
357.8035	0.21	715607	keystroke	o	n/a
357.9085	0.15	715817	keystroke	n	n/a
358.0435	0.225	716087	keystroke	e	n/a
358.1635	0.195	716327	keystroke	s	n/a
358.4485	0.12	716897	keystroke	Key.space	n/a
358.5835	0.15	717167	keystroke	d	n/a
358.7345	0.104	717469	keystroke	o	n/a
358.7635	0.105	717527	keystroke	u	n/a
359.1085	0.09	718217	keystroke	t	n/a
359.5735	0.105	719147	keystroke	Key.backspace	n/a
359.8735	0.09	719747	keystroke	b	n/a
360.0535	0.075	720107	keystroke	t	n/a
360.1735	0.135	720347	keystroke	Key.enter	n/a
360.315	11.831	720630	prompt	n/a	platinum stockholm adipex finite\n
363.0565	0.072	726113	keystroke	p	n/a
363.2935	0.135	726587	keystroke	l	n/a
363.5035	0.24	727007	keystroke	a	n/a
363.7135	0.15	727427	keystroke	t	n/a
364.0885	0.165	728177	keystroke	i	n/a
364.5235	0.09	729047	keystroke	n	n/a
364.8085	0.12	729617	keystroke	u	n/a
365.1085	0.09	730217	keystroke	m	n/a
365.2885	0.135	730577	keystroke	Key.space	n/a
365.8285	0.18	731657	keystroke	s	n/a
365.9785	0.12	731957	keystroke	t	n/a
366.0835	0.165	732167	keystroke	o	n/a
366.3385	0.165	732677	keystroke	c	n/a
366.4585	0.105	732917	keystroke	k	n/a
367.0735	0.135	734147	keystroke	h	n/a
367.1485	0.15	734297	keystroke	o	n/a
367.4185	0.15	734837	keystroke	l	n/a
367.6135	0.12	735227	keystroke	m	n/a
368.0335	0.135	736067	keystroke	Key.space	n/a
368.1835	0.12	736367	keystroke	a	n/a
368.4085	0.18	736817	keystroke	d	n/a
368.6035	0.12	737207	keystroke	i	n/a
369.0535	0.12	738107	keystroke	p	n/a
369.2185	0.105	738437	keystroke	e	n/a
369.7135	0.15	739427	keystroke	x	n/a
370.2685	0.15	740537	keystroke	Key.space	n/a
370.9435	0.105	741887	keystroke	f	n/a
371.0185	0.135	742037	keystroke	i	n/a
371.1385	0.24	742277	keystroke	n	n/a
371.2735	0.18	742547	keystroke	i	n/a
371.4235	0.105	742847	keystroke	t	n/a
371.8285	0.09	743657	keystroke	e	n/a
372.0235	0.12	744047	keystroke	Key.enter	n/a
372.1505	7.9605	744301	prompt	n/a	pending xhtml we're variation\n
373.9285	0.1345	747857	keystroke	p	n/a
374.033	0.1355	748066	keystroke	e	n/a
374.228	0.135	748456	keystroke	n	n/a
374.378	0.165	748756	keystroke	d	n/a
374.603	0.1965	749206	keystroke	i	n/a
374.7085	0.1195	749417	keystroke	n	n/a
374.8295	0.1335	749659	keystroke	g	n/a
374.978	0.135	749956	keystroke	Key.space	n/a
375.2335	0.12	750467	keystroke	x	n/a
375.3835	0.1345	750767	keystroke	h	n/a
375.7735	0.1195	751547	keystroke	t	n/a
375.968	0.135	751936	keystroke	m	n/a
376.118	0.15	752236	keystroke	a	n/a
376.283	0.12	752566	keystroke	l	n/a
376.5685	0.1195	753137	keystroke	Key.space	n/a
377.033	0.1955	754066	keystroke	w	n/a
377.138	0.195	754276	keystroke	e	n/a
377.438	0.18	754876	keystroke	'	n/a
377.573	0.135	755146	keystroke	r	n/a
377.648	0.18	755296	keystroke	e	n/a
377.843	0.135	755686	keystroke	Key.space	n/a
378.083	0.075	756166	keystroke	a	n/a
378.428	0.105	756856	keystroke	Key.backspace	n/a
378.488	0.1805	756976	keystroke	v	n/a
378.578	0.3	757156	keystroke	a	n/a
378.863	0.15	757726	keystroke	r	n/a
379.178	0.12	758356	keystroke	i	n/a
379.313	0.195	758626	keystroke	a	n/a
379.4785	0.1355	758957	keystroke	t	n/a
379.568	0.135	759136	keystroke	i	n/a
379.659	0.179	759318	keystroke	o	n/a
379.764	0.164	759528	keystroke	n	n/a
379.988	0.12	759976	keystroke	Key.enter	n/a
380.116	10.1345	760232	prompt	n/a	defence annotated lights webcast\n
383.457	0.101	766914	keystroke	d	n/a
383.664	0.164	767328	keystroke	e	n/a
383.769	0.284	767538	keystroke	f	n/a
383.994	0.194	767988	keystroke	e	n/a
384.233	0.151	768466	keystroke	n	n/a
384.414	0.134	768828	keystroke	c	n/a
384.503	0.165	769006	keystroke	e	n/a
384.698	0.135	769396	keystroke	Key.space	n/a
384.819	0.18	769638	keystroke	a	n/a
384.984	0.075	769968	keystroke	n	n/a
385.118	0.196	770236	keystroke	n	n/a
385.253	0.165	770506	keystroke	o	n/a
385.629	0.165	771258	keystroke	t	n/a
385.764	0.15	771528	keystroke	a	n/a
385.914	0.164	771828	keystroke	t	n/a
386.034	0.149	772068	keystroke	e	n/a
386.318	0.12	772636	keystroke	d	n/a
386.453	0.18	772906	keystroke	Key.space	n/a
386.649	0.15	773298	keystroke	l	n/a
386.723	0.18	773446	keystroke	i	n/a
386.874	0.119	773748	keystroke	g	n/a
387.038	0.121	774076	keystroke	h	n/a
387.129	0.165	774258	keystroke	t	n/a
387.248	0.196	774496	keystroke	s	n/a
387.458	0.12	774916	keystroke	Key.space	n/a
387.699	0.119	775398	keystroke	w	n/a
387.744	0.165	775488	keystroke	e	n/a
387.984	0.135	775968	keystroke	b	n/a
388.178	0.121	776356	keystroke	s	n/a
388.509	0.164	777018	keystroke	c	n/a
388.703	0.121	777406	keystroke	Key.backspace	n/a
388.898	0.075	777796	keystroke	Key.backspace	n/a
389.004	0.135	778008	keystroke	c	n/a
389.049	0.3	778098	keystroke	a	n/a
389.243	0.241	778486	keystroke	s	n/a
389.499	0.165	778998	keystroke	t	n/a
390.114	0.134	780228	keystroke	Key.enter	n/a
390.255	15.6175	780510	prompt	n/a	assumption integrate posts meter\n
390.819	0.255	781638	keystroke	a	n/a
391.029	0.105	782058	keystroke	s	n/a
391.239	0.105	782478	keystroke	s	n/a
391.374	0.105	782748	keystroke	u	n/a
391.599	0.135	783198	keystroke	m	n/a
391.794	0.149	783588	keystroke	p	n/a
392.003	0.121	784006	keystroke	t	n/a
392.139	0.15	784278	keystroke	i	n/a
392.259	0.21	784518	keystroke	o	n/a
392.394	0.135	784788	keystroke	n	n/a
392.634	0.1335	785268	keystroke	Key.space	n/a
392.9325	0.164	785865	keystroke	i	n/a
393.037	0.1345	786074	keystroke	n	n/a
393.186	0.194	786372	keystroke	t	n/a
393.3205	0.224	786641	keystroke	e	n/a
393.5145	0.1345	787029	keystroke	r	n/a
393.8725	0.1045	787745	keystroke	g	n/a
394.0965	0.194	788193	keystroke	r	n/a
394.186	0.1935	788372	keystroke	a	n/a
394.485	0.2245	788970	keystroke	t	n/a
394.664	0.135	789328	keystroke	s	n/a
395.2345	0.104	790469	keystroke	Key.backspace	n/a
395.3685	0.1665	790737	keystroke	e	n/a
395.625	0.1345	791250	keystroke	Key.space	n/a
396.645	0.149	793290	keystroke	p	n/a
396.824	0.1495	793648	keystroke	o	n/a
398.61	0.1045	797220	keystroke	Key.backspace	n/a
398.789	0.209	797578	keystroke	Key.backspace	n/a
399.0895	0.06	798179	keystroke	Key.backspace	n/a
399.239	0.075	798478	keystroke	Key.backspace	n/a
399.3735	0.0895	798747	keystroke	Key.backspace	n/a
399.5675	0.077	799135	keystroke	Key.backspace	n/a
399.764	0.1195	799528	keystroke	Key.backspace	n/a
400.0325	0.107	800065	keystroke	Key.backspace	n/a
400.513	0.1065	801026	keystroke	g	n/a
400.784	0.09	801568	keystroke	Key.backspace	n/a
400.9785	0.0745	801957	keystroke	Key.backspace	n/a
401.068	0.1065	802136	keystroke	g	n/a
401.8195	0.194	803639	keystroke	r	n/a
401.9685	0.196	803937	keystroke	a	n/a
402.1645	0.1495	804329	keystroke	t	n/a
402.2845	0.164	804569	keystroke	e	n/a
403.4685	0.1195	806937	keystroke	Key.space	n/a
403.68	0.209	807360	keystroke	p	n/a
403.8295	0.179	807659	keystroke	o	n/a
403.964	0.1045	807928	keystroke	s	n/a
404.3245	0.209	808649	keystroke	t	n/a
404.4735	0.1495	808947	keystroke	s	n/a
404.7145	0.1345	809429	keystroke	Key.space	n/a
404.9835	0.1045	809967	keystroke	m	n/a
405.074	0.119	810148	keystroke	e	n/a
405.2395	0.1495	810479	keystroke	t	n/a
405.3595	0.134	810719	keystroke	e	n/a
405.5085	0.105	811017	keystroke	r	n/a
405.735	0.1345	811470	keystroke	Key.enter	n/a
405.8775	8.754	811755	prompt	n/a	baker designated plugins cardiovascular\n
406.633	0.1365	813266	keystroke	b	n/a
406.7395	0.1195	813479	keystroke	a	n/a
406.979	0.149	813958	keystroke	k	n/a
407.188	0.1065	814376	keystroke	e	n/a
407.235	0.1655	814470	keystroke	r	n/a
407.4145	0.1345	814829	keystroke	Key.space	n/a
407.5935	0.1215	815187	keystroke	d	n/a
407.8345	0.1795	815669	keystroke	e	n/a
407.969	0.1645	815938	keystroke	s	n/a
408.178	0.151	816356	keystroke	i	n/a
408.659	0.1355	817318	keystroke	g	n/a
408.914	0.1195	817828	keystroke	n	n/a
409.0485	0.1945	818097	keystroke	a	n/a
409.213	0.1515	818426	keystroke	t	n/a
409.3205	0.1635	818641	keystroke	e	n/a
409.6485	0.1045	819297	keystroke	d	n/a
409.768	0.1365	819536	keystroke	Key.space	n/a
409.9345	0.1355	819869	keystroke	p	n/a
410.1745	0.1815	820349	keystroke	l	n/a
410.37	0.0895	820740	keystroke	u	n/a
410.64	0.0895	821280	keystroke	g	n/a
410.851	0.223	821702	keystroke	i	n/a
410.9695	0.1345	821939	keystroke	n	n/a
411.134	0.1045	822268	keystroke	s	n/a
411.3445	0.105	822689	keystroke	Key.space	n/a
411.48	0.1635	822960	keystroke	c	n/a
411.5995	0.2255	823199	keystroke	a	n/a
411.779	0.1205	823558	keystroke	r	n/a
412.019	0.1045	824038	keystroke	d	n/a
412.424	0.135	824848	keystroke	i	n/a
412.6045	0.1645	825209	keystroke	o	n/a
412.9045	0.1645	825809	keystroke	v	n/a
413.0095	0.239	826019	keystroke	a	n/a
413.1885	0.165	826377	keystroke	s	n/a
413.579	0.1205	827158	keystroke	c	n/a
413.7445	0.181	827489	keystroke	u	n/a
413.8645	0.1945	827729	keystroke	l	n/a
414.0445	0.209	828089	keystroke	a	n/a
414.179	0.1665	828358	keystroke	r	n/a
414.4805	0.1485	828961	keystroke	Key.enter	n/a
414.6365	9.176	829273	prompt	n/a	ourselves bowling these album\n
416.5805	0.1645	833161	keystroke	o	n/a
416.684	0.1505	833368	keystroke	u	n/a
416.8495	0.1515	833699	keystroke	r	n/a
417.3585	0.182	834717	keystroke	s	n/a
417.4485	0.152	834897	keystroke	e	n/a
417.72	0.1345	835440	keystroke	v	n/a
417.9445	0.0915	835889	keystroke	l	n/a
418.1995	0.0745	836399	keystroke	Key.backspace	n/a
418.349	0.0755	836698	keystroke	Key.backspace	n/a
418.6355	0.1345	837271	keystroke	l	n/a
418.74	0.1645	837480	keystroke	v	n/a
418.845	0.1645	837690	keystroke	e	n/a
418.9335	0.137	837867	keystroke	s	n/a
419.1295	0.1795	838259	keystroke	Key.space	n/a
419.4595	0.226	838919	keystroke	b	n/a
419.579	0.211	839158	keystroke	o	n/a
419.925	0.1035	839850	keystroke	w	n/a
420.151	0.1945	840302	keystroke	l	n/a
420.3305	0.2395	840661	keystroke	i	n/a
420.45	0.1645	840900	keystroke	n	n/a
420.6295	0.136	841259	keystroke	g	n/a
420.8095	0.1195	841619	keystroke	Key.space	n/a
421.0495	0.12	842099	keystroke	t	n/a
421.184	0.151	842368	keystroke	h	n/a
421.2895	0.1355	842579	keystroke	e	n/a
421.485	0.1945	842970	keystroke	s	n/a
421.6045	0.136	843209	keystroke	e	n/a
421.889	0.106	843778	keystroke	Key.space	n/a
422.3105	0.135	844621	keystroke	a	n/a
422.4295	0.0905	844859	keystroke	l	n/a
422.6845	0.1515	845369	keystroke	b	n/a
423.09	0.045	846180	keystroke	u	n/a
423.4205	0.1345	846841	keystroke	m	n/a
423.69	0.1205	847380	keystroke	Key.enter	n/a
423.818	7.434	847636	prompt	n/a	shipment genre certification forbidden\n
424.53	0.12	849060	keystroke	s	n/a
424.635	0.1955	849270	keystroke	h	n/a
424.7545	0.151	849509	keystroke	i	n/a
424.8605	0.15	849721	keystroke	p	n/a
425.16	0.1195	850320	keystroke	m	n/a
425.2645	0.151	850529	keystroke	e	n/a
425.4305	0.12	850861	keystroke	n	n/a
425.5655	0.1045	851131	keystroke	t	n/a
425.7	0.121	851400	keystroke	Key.space	n/a
425.9705	0.1195	851941	keystroke	g	n/a
426.21	0.1205	852420	keystroke	e	n/a
426.3755	0.135	852751	keystroke	n	n/a
426.555	0.135	853110	keystroke	r	n/a
426.63	0.18	853260	keystroke	e	n/a
426.8705	0.135	853741	keystroke	Key.space	n/a
427.065	0.18	854130	keystroke	c	n/a
427.23	0.195	854460	keystroke	e	n/a
427.3655	0.1195	854731	keystroke	r	n/a
427.6645	0.105	855329	keystroke	t	n/a
427.8305	0.135	855661	keystroke	i	n/a
428.1	0.1345	856200	keystroke	f	n/a
428.2645	0.1655	856529	keystroke	i	n/a
428.3855	0.1795	856771	keystroke	c	n/a
428.49	0.2245	856980	keystroke	a	n/a
428.7445	0.121	857489	keystroke	t	n/a
428.8505	0.135	857701	keystroke	i	n/a
428.9555	0.1945	857911	keystroke	o	n/a
429.075	0.165	858150	keystroke	n	n/a
429.225	0.1205	858450	keystroke	Key.space	n/a
429.3905	0.1645	858781	keystroke	f	n/a
429.585	0.09	859170	keystroke	o	n/a
429.8705	0.1045	859741	keystroke	r	n/a
430.155	0.1195	860310	keystroke	b	n/a
430.3195	0.151	860639	keystroke	i	n/a
430.4555	0.09	860911	keystroke	d	n/a
430.6205	0.1045	861241	keystroke	d	n/a
430.815	0.1355	861630	keystroke	e	n/a
430.9355	0.09	861871	keystroke	n	n/a
431.16	0.09	862320	keystroke	Key.enter	n/a
431.2595	6.3225	862519	prompt	n/a	increase passive charm wisconsin\n
431.82	0.1805	863640	keystroke	i	n/a
431.9555	0.1045	863911	keystroke	n	n/a
432.075	0.15	864150	keystroke	c	n/a
432.3295	0.166	864659	keystroke	r	n/a
432.4195	0.1655	864839	keystroke	e	n/a
432.5255	0.2245	865051	keystroke	a	n/a
432.675	0.1795	865350	keystroke	s	n/a
432.7945	0.136	865589	keystroke	e	n/a
432.9145	0.136	865829	keystroke	Key.space	n/a
433.0955	0.165	866191	keystroke	p	n/a
433.2005	0.2395	866401	keystroke	a	n/a
433.365	0.121	866730	keystroke	s	n/a
433.5755	0.09	867151	keystroke	s	n/a
433.7255	0.1645	867451	keystroke	i	n/a
433.935	0.166	867870	keystroke	v	n/a
434.101	0.1195	868202	keystroke	e	n/a
434.2505	0.12	868501	keystroke	Key.space	n/a
434.415	0.1505	868830	keystroke	c	n/a
434.5355	0.135	869071	keystroke	h	n/a
434.6255	0.2095	869251	keystroke	a	n/a
434.79	0.135	869580	keystroke	r	n/a
434.895	0.1205	869790	keystroke	m	n/a
435.1205	0.1495	870241	keystroke	Key.space	n/a
435.255	0.105	870510	keystroke	w	n/a
435.405	0.1205	870810	keystroke	i	n/a
435.5405	0.105	871081	keystroke	s	n/a
435.885	0.1045	871770	keystroke	c	n/a
435.9905	0.18	871981	keystroke	o	n/a
436.1555	0.15	872311	keystroke	n	n/a
436.38	0.135	872760	keystroke	i	n/a
436.8455	0.1045	873691	keystroke	Key.backspace	n/a
436.98	0.1655	873960	keystroke	s	n/a
437.1305	0.195	874261	keystroke	i	n/a
437.2805	0.1195	874561	keystroke	n	n/a
437.49	0.0905	874980	keystroke	Key.enter	n/a
437.5865	11.3365	875173	prompt	n/a	species agreed abandoned radius\n
440.9135	0.0415	881827	keystroke	s	n/a
440.97	0.18	881940	keystroke	p	n/a
441.135	0.1355	882270	keystroke	e	n/a
441.3905	0.1495	882781	keystroke	c	n/a
441.585	0.1345	883170	keystroke	i	n/a
442.215	0.2105	884430	keystroke	e	n/a
442.4105	0.105	884821	keystroke	s	n/a
442.755	0.121	885510	keystroke	Key.space	n/a
443.0405	0.2095	886081	keystroke	a	n/a
443.296	0.1195	886592	keystroke	g	n/a
443.5805	0.12	887161	keystroke	r	n/a
443.6405	0.1195	887281	keystroke	e	n/a
443.8355	0.15	887671	keystroke	e	n/a
444.15	0.105	888300	keystroke	d	n/a
444.3605	0.15	888721	keystroke	Key.space	n/a
444.555	0.135	889110	keystroke	a	n/a
444.705	0.12	889410	keystroke	b	n/a
445.11	0.165	890220	keystroke	a	n/a
445.335	0.1205	890670	keystroke	n	n/a
445.4855	0.15	890971	keystroke	d	n/a
445.6505	0.2095	891301	keystroke	o	n/a
445.77	0.1505	891540	keystroke	n	n/a
445.9355	0.105	891871	keystroke	e	n/a
446.1455	0.1645	892291	keystroke	d	n/a
446.295	0.121	892590	keystroke	Key.space	n/a
446.446	0.2245	892892	keystroke	r	n/a
446.5805	0.195	893161	keystroke	a	n/a
447.0905	0.12	894181	keystroke	d	n/a
447.7805	0.12	895561	keystroke	i	n/a
448.1105	0.105	896221	keystroke	u	n/a
448.2305	0.105	896461	keystroke	s	n/a
448.7855	0.135	897571	keystroke	Key.enter	n/a
448.9295	6.9985	897859	prompt	n/a	wayne acquired sony farms\n
451.4285	0.1315	902857	keystroke	w	n/a
451.455	0.1955	902910	keystroke	a	n/a
451.6655	0.12	903331	keystroke	y	n/a
452.01	0.1205	904020	keystroke	n	n/a
452.1905	0.12	904381	keystroke	e	n/a
452.415	0.15	904830	keystroke	Key.space	n/a
452.58	0.1505	905160	keystroke	a	n/a
452.7605	0.135	905521	keystroke	c	n/a
453.0455	0.1355	906091	keystroke	q	n/a
453.4505	0.15	906901	keystroke	u	n/a
453.5705	0.165	907141	keystroke	i	n/a
453.7205	0.12	907441	keystroke	r	n/a
453.8105	0.105	907621	keystroke	e	n/a
454.05	0.1355	908100	keystroke	d	n/a
454.1705	0.15	908341	keystroke	Key.space	n/a
454.3215	0.1345	908643	keystroke	s	n/a
454.425	0.18	908850	keystroke	o	n/a
454.56	0.1205	909120	keystroke	n	n/a
454.8305	0.12	909661	keystroke	y	n/a
454.9655	0.1495	909931	keystroke	Key.space	n/a
455.055	0.1355	910110	keystroke	f	n/a
455.13	0.2255	910260	keystroke	a	n/a
455.3105	0.135	910621	keystroke	r	n/a
455.4155	0.1495	910831	keystroke	m	n/a
455.61	0.1205	911220	keystroke	s	n/a
455.7905	0.135	911581	keystroke	Key.enter	n/a
455.934	8.8135	911868	prompt	n/a	wake woman toolbox instrument\n
457.5155	0.1645	915031	keystroke	w	n/a
457.726	0.2245	915452	keystroke	a	n/a
458.2805	0.12	916561	keystroke	k	n/a
458.4605	0.09	916921	keystroke	e	n/a
458.6555	0.1655	917311	keystroke	Key.space	n/a
458.9855	0.135	917971	keystroke	w	n/a
459.1355	0.18	918271	keystroke	o	n/a
459.2255	0.18	918451	keystroke	m	n/a
459.3905	0.18	918781	keystroke	a	n/a
459.5405	0.105	919081	keystroke	n	n/a
459.7055	0.165	919411	keystroke	Key.space	n/a
460.0055	0.1495	920011	keystroke	t	n/a
460.125	0.09	920250	keystroke	o	n/a
460.3055	0.091	920611	keystroke	o	n/a
461.0105	0.135	922021	keystroke	l	n/a
461.2955	0.1515	922591	keystroke	b	n/a
461.401	0.1945	922802	keystroke	o	n/a
461.6105	0.135	923221	keystroke	x	n/a
461.881	0.1645	923762	keystroke	Key.space	n/a
462.2255	0.24	924451	keystroke	i	n/a
462.361	0.1495	924722	keystroke	n	n/a
462.4965	0.179	924993	keystroke	s	n/a
462.6305	0.12	925261	keystroke	t	n/a
462.8565	0.134	925713	keystroke	r	n/a
462.9455	0.075	925891	keystroke	i	n/a
463.4555	0.12	926911	keystroke	Key.backspace	n/a
463.7255	0.166	927451	keystroke	u	n/a
464.0705	0.18	928141	keystroke	m	n/a
464.2355	0.12	928471	keystroke	e	n/a
464.3705	0.1365	928741	keystroke	n	n/a
464.491	0.09	928982	keystroke	t	n/a
464.656	0.0895	929312	keystroke	Key.enter	n/a
464.753	8.1705	929506	prompt	n/a	analyze lace wiki isaac\n
466.3815	0.1055	932763	keystroke	a	n/a
466.501	0.1495	933002	keystroke	n	n/a
466.6205	0.15	933241	keystroke	a	n/a
466.8765	0.1345	933753	keystroke	l	n/a
467.221	0.1055	934442	keystroke	z	n/a
467.521	0.09	935042	keystroke	Key.backspace	n/a
467.776	0.121	935552	keystroke	u	n/a
468.2115	0.075	936423	keystroke	Key.backspace	n/a
468.5865	0.12	937173	keystroke	y	n/a
468.7515	0.165	937503	keystroke	z	n/a
468.9765	0.165	937953	keystroke	e	n/a
469.336	0.12	938672	keystroke	Key.space	n/a
469.5915	0.1495	939183	keystroke	l	n/a
469.6815	0.1645	939363	keystroke	a	n/a
469.876	0.15	939752	keystroke	c	n/a
469.996	0.12	939992	keystroke	e	n/a
470.101	0.12	940202	keystroke	Key.space	n/a
470.251	0.15	940502	keystroke	w	n/a
470.371	0.09	940742	keystroke	i	n/a
470.566	0.0905	941132	keystroke	k	n/a
470.761	0.105	941522	keystroke	i	n/a
470.881	0.12	941762	keystroke	Key.space	n/a
471.2715	0.105	942543	keystroke	i	n/a
471.3915	0.105	942783	keystroke	s	n/a
471.601	0.15	943202	keystroke	s	n/a
472.036	0.12	944072	keystroke	Key.backspace	n/a
472.141	0.12	944282	keystroke	a	n/a
472.411	0.135	944822	keystroke	a	n/a
472.606	0.135	945212	keystroke	c	n/a
472.771	0.15	945542	keystroke	Key.enter	n/a
472.928	13.421	945856	prompt	n/a	decade dealers christina backgrounds\n
473.506	0.0895	947012	keystroke	d	n/a
473.701	0.12	947402	keystroke	e	n/a
473.896	0.18	947792	keystroke	c	n/a
474.016	0.1655	948032	keystroke	a	n/a
474.2115	0.15	948423	keystroke	d	n/a
474.466	0.09	948932	keystroke	e	n/a
474.571	0.045	949142	keystroke	e	n/a
474.586	0.12	949172	keystroke	Key.space	n/a
474.796	0.09	949592	keystroke	d	n/a
475.006	0.09	950012	keystroke	e	n/a
475.2615	0.06	950523	keystroke	Key.backspace	n/a
475.4415	0.0745	950883	keystroke	Key.backspace	n/a
475.6815	0.045	951363	keystroke	Key.backspace	n/a
475.8165	0.0445	951633	keystroke	Key.backspace	n/a
476.521	0.12	953042	keystroke	Key.space	n/a
476.7465	0.075	953493	keystroke	d	n/a
476.9415	0.1645	953883	keystroke	e	n/a
477.061	0.1955	954122	keystroke	a	n/a
477.2415	0.165	954483	keystroke	l	n/a
477.3765	0.105	954753	keystroke	d	n/a
477.5715	0.3	955143	keystroke	e	n/a
477.7515	0.165	955503	keystroke	r	n/a
477.8565	0.165	955713	keystroke	s	n/a
478.1865	0.06	956373	keystroke	Key.backspace	n/a
478.321	0.075	956642	keystroke	Key.backspace	n/a
478.456	0.075	956912	keystroke	Key.backspace	n/a
478.621	0.09	957242	keystroke	Key.backspace	n/a
478.741	0.2555	957482	keystroke	e	n/a
478.8465	0.21	957693	keystroke	r	n/a
478.9815	0.1945	957963	keystroke	s	n/a
479.3565	0.135	958713	keystroke	Key.space	n/a
479.6115	0.12	959223	keystroke	c	n/a
479.7465	0.1045	959493	keystroke	h	n/a
479.912	0.179	959824	keystroke	r	n/a
480.301	0.1955	960602	keystroke	s	n/a
480.4815	0.1045	960963	keystroke	t	n/a
480.766	0.09	961532	keystroke	Key.backspace	n/a
480.9315	0.09	961863	keystroke	Key.backspace	n/a
481.2615	0.105	962523	keystroke	s	n/a
482.056	0.075	964112	keystroke	Key.backspace	n/a
482.461	0.09	964922	keystroke	i	n/a
482.731	0.1505	965462	keystroke	s	n/a
483.0315	0.135	966063	keystroke	t	n/a
483.1365	0.225	966273	keystroke	i	n/a
483.2725	0.104	966545	keystroke	n	n/a
483.3625	0.149	966725	keystroke	a	n/a
483.8715	0.135	967743	keystroke	Key.space	n/a
484.2165	0.12	968433	keystroke	b	n/a
484.3065	0.15	968613	keystroke	a	n/a
484.5015	0.15	969003	keystroke	c	n/a
484.6215	0.135	969243	keystroke	k	n/a
484.9815	0.1495	969963	keystroke	g	n/a
485.266	0.135	970532	keystroke	r	n/a
485.386	0.1655	970772	keystroke	o	n/a
485.416	0.1505	970832	keystroke	u	n/a
485.7465	0.105	971493	keystroke	n	n/a
485.8365	0.135	971673	keystroke	d	n/a
485.9565	0.105	971913	keystroke	s	n/a
486.2265	0.12	972453	keystroke	Key.enter	n/a
486.3545	8.8	972709	prompt	n/a	brighton denver these digest\n
488.8245	0.042	977649	keystroke	b	n/a
489.0465	0.135	978093	keystroke	r	n/a
489.211	0.15	978422	keystroke	i	n/a
489.376	0.12	978752	keystroke	g	n/a
489.526	0.12	979052	keystroke	h	n/a
489.871	0.12	979742	keystroke	t	n/a
490.021	0.2255	980042	keystroke	o	n/a
490.1715	0.1195	980343	keystroke	n	n/a
490.426	0.105	980852	keystroke	Key.space	n/a
490.561	0.075	981122	keystroke	d	n/a
490.726	0.1505	981452	keystroke	e	n/a
490.846	0.105	981692	keystroke	n	n/a
491.1465	0.165	982293	keystroke	v	n/a
491.3415	0.181	982683	keystroke	e	n/a
491.4915	0.195	982983	keystroke	r	n/a
491.7015	0.12	983403	keystroke	s	n/a
492.2265	0.1045	984453	keystroke	Key.backspace	n/a
492.601	0.165	985202	keystroke	Key.space	n/a
492.796	0.15	985592	keystroke	t	n/a
492.931	0.12	985862	keystroke	h	n/a
493.036	0.18	986072	keystroke	e	n/a
493.171	0.165	986342	keystroke	s	n/a
493.291	0.181	986582	keystroke	e	n/a
493.891	0.15	987782	keystroke	Key.space	n/a
494.086	0.106	988172	keystroke	d	n/a
494.2365	0.15	988473	keystroke	i	n/a
494.4175	0.179	988835	keystroke	g	n/a
494.5675	0.1505	989135	keystroke	e	n/a
494.6715	0.195	989343	keystroke	s	n/a
494.8215	0.15	989643	keystroke	t	n/a
495.0165	0.1355	990033	keystroke	Key.enter	n/a
495.1585	9.0405	990317	prompt	n/a	go landing however mattress\n
496.7425	0.15	993485	keystroke	g	n/a
496.8615	0.12	993723	keystroke	o	n/a
497.0415	0.151	994083	keystroke	Key.space	n/a
497.2215	0.15	994443	keystroke	l	n/a
497.3425	0.179	994685	keystroke	a	n/a
497.4765	0.151	994953	keystroke	n	n/a
497.6415	0.106	995283	keystroke	d	n/a
497.8225	0.2395	995645	keystroke	i	n/a
497.987	0.12	995974	keystroke	n	n/a
498.122	0.12	996244	keystroke	g	n/a
498.422	0.135	996844	keystroke	Key.space	n/a
498.737	0.15	997474	keystroke	h	n/a
498.812	0.165	997624	keystroke	o	n/a
498.932	0.15	997864	keystroke	w	n/a
499.037	0.12	998074	keystroke	e	n/a
499.2615	0.1205	998523	keystroke	v	n/a
499.562	0.1795	999124	keystroke	e	n/a
499.622	0.075	999244	keystroke	r	n/a
500.252	0.135	1000504	keystroke	Key.space	n/a
500.522	0.12	1001044	keystroke	m	n/a
500.582	0.21	1001164	keystroke	a	n/a
500.762	0.105	1001524	keystroke	t	n/a
500.972	0.195	1001944	keystroke	t	n/a
501.212	0.165	1002424	keystroke	e	n/a
501.302	0.165	1002604	keystroke	r	n/a
502.187	0.1045	1004374	keystroke	s	n/a
502.712	0.0745	1005424	keystroke	Key.backspace	n/a
502.8615	0.1205	1005723	keystroke	Key.backspace	n/a
503.177	0.105	1006354	keystroke	Key.backspace	n/a
503.327	0.165	1006654	keystroke	r	n/a
503.447	0.165	1006894	keystroke	e	n/a
503.552	0.12	1007104	keystroke	s	n/a
503.762	0.135	1007524	keystroke	s	n/a
504.062	0.135	1008124	keystroke	Key.enter	n/a
504.2035	8.7855	1008407	prompt	n/a	friends terrain joel brad\n
508.715	0.072	1017430	keystroke	f	n/a
508.877	0.135	1017754	keystroke	r	n/a
509.072	0.135	1018144	keystroke	i	n/a
509.162	0.12	1018324	keystroke	e	n/a
509.312	0.195	1018624	keystroke	n	n/a
509.447	0.165	1018894	keystroke	d	n/a
509.582	0.135	1019164	keystroke	s	n/a
509.852	0.18	1019704	keystroke	Key.space	n/a
510.077	0.195	1020154	keystroke	t	n/a
510.257	0.18	1020514	keystroke	e	n/a
510.422	0.12	1020844	keystroke	r	n/a
510.767	0.135	1021534	keystroke	r	n/a
511.037	0.165	1022074	keystroke	a	n/a
511.203	0.224	1022406	keystroke	i	n/a
511.337	0.135	1022674	keystroke	n	n/a
511.457	0.15	1022914	keystroke	Key.space	n/a
511.637	0.165	1023274	keystroke	j	n/a
511.727	0.135	1023454	keystroke	o	n/a
511.832	0.105	1023664	keystroke	e	n/a
511.982	0.12	1023964	keystroke	l	n/a
512.147	0.12	1024294	keystroke	Key.space	n/a
512.312	0.151	1024624	keystroke	b	n/a
512.432	0.15	1024864	keystroke	r	n/a
512.492	0.165	1024984	keystroke	a	n/a
512.702	0.135	1025404	keystroke	d	n/a
512.837	0.15	1025674	keystroke	Key.enter	n/a
513.0065	6.613	1026013	prompt	n/a	resident inform perl identical\n
513.662	0.106	1027324	keystroke	f	n/a
513.992	0.09	1027984	keystroke	Key.backspace	n/a
514.053	0.149	1028106	keystroke	r	n/a
514.127	0.255	1028254	keystroke	e	n/a
514.352	0.12	1028704	keystroke	s	n/a
514.652	0.15	1029304	keystroke	i	n/a
514.772	0.075	1029544	keystroke	d	n/a
514.982	0.1495	1029964	keystroke	e	n/a
515.102	0.1045	1030204	keystroke	n	n/a
515.2665	0.1055	1030533	keystroke	t	n/a
515.357	0.165	1030714	keystroke	Key.space	n/a
515.537	0.225	1031074	keystroke	i	n/a
515.643	0.15	1031286	keystroke	n	n/a
515.777	0.12	1031554	keystroke	f	n/a
515.912	0.181	1031824	keystroke	o	n/a
516.032	0.135	1032064	keystroke	r	n/a
516.182	0.165	1032364	keystroke	m	n/a
516.482	0.15	1032964	keystroke	Key.space	n/a
516.9025	0.18	1033805	keystroke	p	n/a
517.0075	0.1495	1034015	keystroke	e	n/a
517.142	0.18	1034284	keystroke	r	n/a
517.382	0.136	1034764	keystroke	l	n/a
517.622	0.165	1035244	keystroke	Key.space	n/a
517.788	0.179	1035576	keystroke	i	n/a
517.983	0.135	1035966	keystroke	d	n/a
518.222	0.15	1036444	keystroke	e	n/a
518.357	0.135	1036714	keystroke	n	n/a
518.553	0.135	1037106	keystroke	t	n/a
518.717	0.15	1037434	keystroke	i	n/a
518.927	0.21	1037854	keystroke	c	n/a
519.092	0.165	1038184	keystroke	a	n/a
519.272	0.12	1038544	keystroke	l	n/a
519.512	0.105	1039024	keystroke	Key.enter	n/a
519.627	8.347	1039254	prompt	n/a	combining murray serve adipex\n
521.237	0.165	1042474	keystroke	c	n/a
521.417	0.18	1042834	keystroke	o	n/a
521.522	0.15	1043044	keystroke	m	n/a
521.837	0.06	1043674	keystroke	b	n/a
522.137	0.2545	1044274	keystroke	i	n/a
522.3615	0.1805	1044723	keystroke	n	n/a
522.647	0.24	1045294	keystroke	i	n/a
522.798	0.134	1045596	keystroke	n	n/a
522.947	0.12	1045894	keystroke	g	n/a
523.112	0.12	1046224	keystroke	Key.space	n/a
523.322	0.121	1046644	keystroke	m	n/a
523.593	0.119	1047186	keystroke	u	n/a
523.697	0.09	1047394	keystroke	r	n/a
523.877	0.195	1047754	keystroke	r	n/a
524.042	0.18	1048084	keystroke	a	n/a
524.268	0.104	1048536	keystroke	y	n/a
524.537	0.12	1049074	keystroke	Key.space	n/a
524.733	0.194	1049466	keystroke	s	n/a
524.882	0.181	1049764	keystroke	e	n/a
525.002	0.1655	1050004	keystroke	r	n/a
525.438	0.179	1050876	keystroke	v	n/a
525.632	0.181	1051264	keystroke	e	n/a
525.827	0.165	1051654	keystroke	Key.space	n/a
525.948	0.179	1051896	keystroke	a	n/a
526.263	0.134	1052526	keystroke	i	n/a
526.682	0.12	1053364	keystroke	Key.backspace	n/a
526.818	0.074	1053636	keystroke	d	n/a
526.998	0.15	1053996	keystroke	i	n/a
527.2525	0.1505	1054505	keystroke	p	n/a
527.372	0.106	1054744	keystroke	e	n/a
527.673	0.1355	1055346	keystroke	x	n/a
527.822	0.15	1055644	keystroke	Key.enter	n/a
527.9785	8.696	1055957	prompt	n/a	nose emerging partnership philip\n
528.813	0.18	1057626	keystroke	n	n/a
528.917	0.181	1057834	keystroke	o	n/a
529.022	0.226	1058044	keystroke	s	n/a
529.218	0.135	1058436	keystroke	e	n/a
529.368	0.12	1058736	keystroke	Key.space	n/a
529.608	0.105	1059216	keystroke	e	n/a
529.742	0.105	1059484	keystroke	m	n/a
529.893	0.12	1059786	keystroke	e	n/a
529.997	0.121	1059994	keystroke	r	n/a
530.253	0.12	1060506	keystroke	g	n/a
530.403	0.18	1060806	keystroke	i	n/a
530.538	0.105	1061076	keystroke	n	n/a
530.703	0.1355	1061406	keystroke	g	n/a
530.8085	0.1345	1061617	keystroke	Key.space	n/a
530.988	0.165	1061976	keystroke	p	n/a
531.123	0.195	1062246	keystroke	a	n/a
531.258	0.15	1062516	keystroke	r	n/a
531.543	0.104	1063086	keystroke	t	n/a
531.737	0.136	1063474	keystroke	n	n/a
531.858	0.15	1063716	keystroke	e	n/a
531.947	0.196	1063894	keystroke	r	n/a
532.278	0.12	1064556	keystroke	s	n/a
532.383	0.18	1064766	keystroke	h	n/a
532.488	0.105	1064976	keystroke	i	n/a
532.578	0.15	1065156	keystroke	p	n/a
532.863	0.135	1065726	keystroke	Key.space	n/a
533.463	0.12	1066926	keystroke	j	n/a
534.378	0.105	1068756	keystroke	Key.backspace	n/a
534.873	0.135	1069746	keystroke	p	n/a
535.098	0.15	1070196	keystroke	h	n/a
535.278	0.15	1070556	keystroke	i	n/a
535.368	0.15	1070736	keystroke	l	n/a
535.818	0.015	1071636	keystroke	i	n/a
535.848	0.12	1071696	keystroke	p	n/a
536.598	0.075	1073196	keystroke	Key.enter	n/a
536.679	8.0065	1073358	prompt	n/a	chance antigua andreas spice\n
537.7985	0.135	1075597	keystroke	c	n/a
537.9485	0.12	1075897	keystroke	h	n/a
538.083	0.12	1076166	keystroke	a	n/a
538.233	0.165	1076466	keystroke	n	n/a
538.383	0.18	1076766	keystroke	c	n/a
538.473	0.21	1076946	keystroke	e	n/a
539.073	0.105	1078146	keystroke	Key.space	n/a
539.208	0.135	1078416	keystroke	a	n/a
539.358	0.12	1078716	keystroke	n	n/a
539.763	0.1055	1079526	keystroke	t	n/a
539.9135	0.15	1079827	keystroke	i	n/a
540.1835	0.12	1080367	keystroke	g	n/a
540.3785	0.135	1080757	keystroke	u	n/a
540.5435	0.2545	1081087	keystroke	a	n/a
540.9185	0.12	1081837	keystroke	Key.space	n/a
541.1135	0.1345	1082227	keystroke	a	n/a
541.368	0.0905	1082736	keystroke	n	n/a
541.4735	0.165	1082947	keystroke	d	n/a
542.088	0.195	1084176	keystroke	r	n/a
542.163	0.36	1084326	keystroke	e	n/a
542.343	0.165	1084686	keystroke	s	n/a
542.463	0.345	1084926	keystroke	a	n/a
542.9435	0.09	1085887	keystroke	Key.backspace	n/a
543.1225	0.076	1086245	keystroke	Key.backspace	n/a
543.1535	0.24	1086307	keystroke	a	n/a
543.3635	0.15	1086727	keystroke	s	n/a
543.6035	0.1345	1087207	keystroke	Key.space	n/a
543.8735	0.105	1087747	keystroke	s	n/a
543.9935	0.18	1087987	keystroke	p	n/a
544.1285	0.165	1088257	keystroke	i	n/a
544.2785	0.15	1088557	keystroke	c	n/a
544.3535	0.165	1088707	keystroke	e	n/a
544.5335	0.15	1089067	keystroke	Key.enter	n/a
544.69	10.405	1089380	prompt	n/a	shipments must supplement interact\n
548.7815	0.102	1097563	keystroke	s	n/a
548.8385	0.165	1097677	keystroke	h	n/a
548.8985	0.15	1097797	keystroke	i	n/a
549.0635	0.15	1098127	keystroke	p	n/a
549.3935	0.15	1098787	keystroke	m	n/a
549.5285	0.165	1099057	keystroke	e	n/a
549.6945	0.1335	1099389	keystroke	n	n/a
549.858	0.1505	1099716	keystroke	t	n/a
549.9185	0.15	1099837	keystroke	s	n/a
550.1135	0.15	1100227	keystroke	Key.space	n/a
550.413	0.075	1100826	keystroke	m	n/a
550.623	0.12	1101246	keystroke	u	n/a
550.728	0.165	1101456	keystroke	s	n/a
550.848	0.18	1101696	keystroke	t	n/a
550.983	0.135	1101966	keystroke	Key.space	n/a
551.1785	0.12	1102357	keystroke	s	n/a
551.3135	0.1495	1102627	keystroke	u	n/a
551.448	0.12	1102896	keystroke	p	n/a
551.6285	0.12	1103257	keystroke	p	n/a
552.108	0.1505	1104216	keystroke	l	n/a
552.4385	0.1045	1104877	keystroke	e	n/a
552.7685	0.18	1105537	keystroke	m	n/a
552.9335	0.135	1105867	keystroke	e	n/a
553.1285	0.12	1106257	keystroke	n	n/a
553.2935	0.135	1106587	keystroke	t	n/a
553.4135	0.15	1106827	keystroke	Key.space	n/a
553.6085	0.225	1107217	keystroke	i	n/a
553.7285	0.15	1107457	keystroke	n	n/a
553.8485	0.105	1107697	keystroke	t	n/a
553.9235	0.2095	1107847	keystroke	e	n/a
554.103	0.15	1108206	keystroke	r	n/a
554.298	0.1805	1108596	keystroke	a	n/a
554.523	0.165	1109046	keystroke	c	n/a
554.823	0.1205	1109646	keystroke	t	n/a
554.9735	0.1195	1109947	keystroke	Key.enter	n/a
555.1	8.275	1110200	prompt	n/a	vanilla alot worldwide certainly\n
556.0385	0.24	1112077	keystroke	v	n/a
556.2335	0.18	1112467	keystroke	a	n/a
556.4435	0.1945	1112887	keystroke	n	n/a
556.623	0.1505	1113246	keystroke	i	n/a
556.7285	0.12	1113457	keystroke	l	n/a
556.9535	0.1345	1113907	keystroke	l	n/a
557.0735	0.165	1114147	keystroke	a	n/a
557.2985	0.15	1114597	keystroke	Key.space	n/a
557.4785	0.1495	1114957	keystroke	a	n/a
557.613	0.075	1115226	keystroke	l	n/a
557.7935	0.15	1115587	keystroke	o	n/a
557.9135	0.135	1115827	keystroke	t	n/a
558.123	0.1355	1116246	keystroke	Key.space	n/a
558.4085	0.12	1116817	keystroke	w	n/a
558.5135	0.1495	1117027	keystroke	o	n/a
558.633	0.135	1117266	keystroke	r	n/a
558.783	0.135	1117566	keystroke	l	n/a
558.903	0.1505	1117806	keystroke	d	n/a
559.263	0.105	1118526	keystroke	w	n/a
559.3985	0.135	1118797	keystroke	o	n/a
560.163	0.0755	1120326	keystroke	d	n/a
560.4635	0.075	1120927	keystroke	Key.backspace	n/a
560.6435	0.075	1121287	keystroke	Key.backspace	n/a
560.9135	0.12	1121827	keystroke	i	n/a
561.0345	0.104	1122069	keystroke	d	n/a
561.2585	0.105	1122517	keystroke	e	n/a
561.3785	0.135	1122757	keystroke	Key.space	n/a
561.6185	0.195	1123237	keystroke	c	n/a
561.8135	0.27	1123627	keystroke	e	n/a
562.0385	0.195	1124077	keystroke	r	n/a
562.3385	0.165	1124677	keystroke	t	n/a
562.4435	0.21	1124887	keystroke	a	n/a
562.6235	0.1495	1125247	keystroke	i	n/a
562.743	0.135	1125486	keystroke	n	n/a
562.863	0.1205	1125726	keystroke	l	n/a
563.0585	0.105	1126117	keystroke	y	n/a
563.268	0.105	1126536	keystroke	Key.enter	n/a
563.38	14.8455	1126760	prompt	n/a	kick britannica geological ottawa\n
564.0635	0.105	1128127	keystroke	k	n/a
564.2885	0.09	1128577	keystroke	i	n/a
564.3935	0.15	1128787	keystroke	c	n/a
564.5285	0.105	1129057	keystroke	k	n/a
564.7085	0.09	1129417	keystroke	Key.space	n/a
564.9185	0.135	1129837	keystroke	b	n/a
565.1585	0.135	1130317	keystroke	r	n/a
565.3085	0.135	1130617	keystroke	i	n/a
565.5185	0.15	1131037	keystroke	t	n/a
565.9985	0.15	1131997	keystroke	a	n/a
566.1785	0.1195	1132357	keystroke	n	n/a
566.3735	0.105	1132747	keystroke	n	n/a
566.5385	0.06	1133077	keystroke	n	n/a
566.5535	0.18	1133107	keystroke	i	n/a
566.7185	0.18	1133437	keystroke	c	n/a
566.8385	0.09	1133677	keystroke	a	n/a
567.0485	0.075	1134097	keystroke	Key.backspace	n/a
567.2285	0.0745	1134457	keystroke	Key.backspace	n/a
567.7085	0.1795	1135417	keystroke	a	n/a
568.053	0.135	1136106	keystroke	Key.backspace	n/a
568.128	0.1355	1136256	keystroke	c	n/a
568.189	0.179	1136378	keystroke	a	n/a
568.5785	0.135	1137157	keystroke	Key.space	n/a
568.893	0.1805	1137786	keystroke	g	n/a
569.0885	0.135	1138177	keystroke	e	n/a
569.2385	0.1495	1138477	keystroke	o	n/a
570.0035	0.09	1140007	keystroke	l	n/a
570.1985	0.135	1140397	keystroke	o	n/a
570.393	0.135	1140786	keystroke	c	n/a
570.543	0.1205	1141086	keystroke	i	n/a
570.7685	0.045	1141537	keystroke	a	n/a
570.888	0.1655	1141776	keystroke	a	n/a
571.2785	0.0895	1142557	keystroke	Key.backspace	n/a
571.6385	0.09	1143277	keystroke	Key.backspace	n/a
572.013	0.09	1144026	keystroke	Key.backspace	n/a
573.2585	0.105	1146517	keystroke	Key.backspace	n/a
573.4685	0.105	1146937	keystroke	Key.backspace	n/a
574.488	0.1655	1148976	keystroke	o	n/a
575.5385	0.1045	1151077	keystroke	g	n/a
575.763	0.1505	1151526	keystroke	i	n/a
575.9135	0.18	1151827	keystroke	c	n/a
576.003	0.1655	1152006	keystroke	a	n/a
576.1385	0.12	1152277	keystroke	l	n/a
576.2885	0.135	1152577	keystroke	Key.space	n/a
576.7685	0.1505	1153537	keystroke	o	n/a
577.0685	0.12	1154137	keystroke	t	n/a
577.294	0.135	1154588	keystroke	t	n/a
577.43	0.1485	1154860	keystroke	o	n/a
577.5935	0.15	1155187	keystroke	w	n/a
578.1035	0.1205	1156207	keystroke	Key.enter	n/a
578.231	8.545	1156462	prompt	n/a	induction humidity listed alabama\n
579.1085	0.2255	1158217	keystroke	i	n/a
579.2435	0.1205	1158487	keystroke	n	n/a
579.319	0.15	1158638	keystroke	d	n/a
579.5285	0.1205	1159057	keystroke	u	n/a
579.619	0.15	1159238	keystroke	c	n/a
579.904	0.165	1159808	keystroke	t	n/a
580.024	0.135	1160048	keystroke	i	n/a
580.129	0.195	1160258	keystroke	o	n/a
580.264	0.15	1160528	keystroke	n	n/a
580.369	0.12	1160738	keystroke	Key.space	n/a
580.564	0.12	1161128	keystroke	h	n/a
580.774	0.105	1161548	keystroke	u	n/a
581.044	0.21	1162088	keystroke	m	n/a
581.239	0.15	1162478	keystroke	i	n/a
581.614	0.105	1163228	keystroke	t	n/a
582.0485	0.1205	1164097	keystroke	Key.backspace	n/a
582.199	0.135	1164398	keystroke	d	n/a
582.379	0.1795	1164758	keystroke	i	n/a
582.5735	0.12	1165147	keystroke	t	n/a
582.7085	0.1055	1165417	keystroke	y	n/a
582.889	0.1495	1165778	keystroke	Key.space	n/a
583.1135	0.0755	1166227	keystroke	i	n/a
583.174	0.15	1166348	keystroke	l	n/a
583.489	0.045	1166978	keystroke	Key.backspace	n/a
583.609	0.105	1167218	keystroke	Key.backspace	n/a
583.909	0.21	1167818	keystroke	l	n/a
584.074	0.165	1168148	keystroke	i	n/a
584.194	0.165	1168388	keystroke	s	n/a
584.329	0.1205	1168658	keystroke	t	n/a
584.4195	0.1795	1168839	keystroke	e	n/a
584.734	0.09	1169468	keystroke	d	n/a
584.869	0.12	1169738	keystroke	Key.space	n/a
585.0935	0.1355	1170187	keystroke	a	n/a
585.214	0.15	1170428	keystroke	l	n/a
585.334	0.1645	1170668	keystroke	a	n/a
585.799	0.045	1171598	keystroke	b	n/a
586.114	0.15	1172228	keystroke	a	n/a
586.279	0.15	1172558	keystroke	m	n/a
586.399	0.165	1172798	keystroke	a	n/a
586.654	0.12	1173308	keystroke	Key.enter	n/a
586.7815	12.4595	1173563	prompt	n/a	intro newbie schedules movements\n
588.004	0.225	1176008	keystroke	i	n/a
588.109	0.135	1176218	keystroke	n	n/a
588.274	0.21	1176548	keystroke	t	n/a
588.529	0.2395	1177058	keystroke	e	n/a
588.7385	0.1505	1177477	keystroke	r	n/a
588.844	0.12	1177688	keystroke	o	n/a
589.1435	0.075	1178287	keystroke	Key.backspace	n/a
589.2935	0.0905	1178587	keystroke	Key.backspace	n/a
589.489	0.12	1178978	keystroke	r	n/a
590.059	0.135	1180118	keystroke	Key.backspace	n/a
590.374	0.09	1180748	keystroke	Key.backspace	n/a
590.509	0.1345	1181018	keystroke	r	n/a
591.3485	0.15	1182697	keystroke	o	n/a
591.5285	0.105	1183057	keystroke	Key.space	n/a
591.7395	0.164	1183479	keystroke	n	n/a
591.8735	0.15	1183747	keystroke	e	n/a
591.9785	0.135	1183957	keystroke	w	n/a
592.4735	0.12	1184947	keystroke	b	n/a
593.7185	0.18	1187437	keystroke	i	n/a
593.8835	0.1515	1187767	keystroke	e	n/a
594.2135	0.135	1188427	keystroke	Key.space	n/a
594.694	0.1045	1189388	keystroke	s	n/a
594.8435	0.165	1189687	keystroke	c	n/a
594.9795	0.149	1189959	keystroke	h	n/a
595.1135	0.105	1190227	keystroke	e	n/a
595.3535	0.09	1190707	keystroke	d	n/a
595.4895	0.18	1190979	keystroke	u	n/a
595.6085	0.165	1191217	keystroke	l	n/a
595.7295	0.134	1191459	keystroke	e	n/a
595.8485	0.106	1191697	keystroke	s	n/a
596.0435	0.12	1192087	keystroke	Key.space	n/a
596.2245	0.15	1192449	keystroke	m	n/a
596.3295	0.194	1192659	keystroke	o	n/a
596.4785	0.136	1192957	keystroke	v	n/a
596.5995	0.119	1193199	keystroke	e	n/a
597.635	0.165	1195270	keystroke	m	n/a
597.815	0.1485	1195630	keystroke	e	n/a
598.024	0.091	1196048	keystroke	n	n/a
598.129	0.15	1196258	keystroke	t	n/a
598.22	0.135	1196440	keystroke	s	n/a
599.0885	0.1505	1198177	keystroke	Key.enter	n/a
599.2465	9.0395	1198493	prompt	n/a	tokyo subjects animated ballet\n
600.1845	0.135	1200369	keystroke	y	n/a
600.3195	0.105	1200639	keystroke	o	n/a
600.8585	0.076	1201717	keystroke	Key.backspace	n/a
600.9935	0.105	1201987	keystroke	Key.backspace	n/a
601.0695	0.135	1202139	keystroke	t	n/a
601.3095	0.195	1202619	keystroke	o	n/a
601.8795	0.135	1203759	keystroke	k	n/a
602.2695	0.15	1204539	keystroke	y	n/a
602.3895	0.15	1204779	keystroke	o	n/a
602.7185	0.121	1205437	keystroke	Key.space	n/a
602.9445	0.12	1205889	keystroke	s	n/a
603.0345	0.09	1206069	keystroke	u	n/a
603.2595	0.105	1206519	keystroke	b	n/a
603.4995	0.135	1206999	keystroke	j	n/a
603.8445	0.075	1207689	keystroke	e	n/a
604.1745	0.1055	1208349	keystroke	Key.backspace	n/a
604.52	0.1195	1209040	keystroke	e	n/a
604.7145	0.12	1209429	keystroke	c	n/a
604.97	0.1945	1209940	keystroke	t	n/a
605.09	0.1645	1210180	keystroke	s	n/a
605.2995	0.15	1210599	keystroke	Key.space	n/a
605.9445	0.15	1211889	keystroke	a	n/a
606.0195	0.15	1212039	keystroke	n	n/a
606.1695	0.18	1212339	keystroke	i	n/a
606.2895	0.15	1212579	keystroke	m	n/a
606.4695	0.135	1212939	keystroke	a	n/a
606.6195	0.105	1213239	keystroke	t	n/a
606.6645	0.165	1213329	keystroke	e	n/a
606.9495	0.15	1213899	keystroke	d	n/a
607.0845	0.105	1214169	keystroke	Key.space	n/a
607.3695	0.105	1214739	keystroke	b	n/a
607.4595	0.1495	1214919	keystroke	a	n/a
607.5795	0.0895	1215159	keystroke	l	n/a
607.7595	0.09	1215519	keystroke	l	n/a
607.8195	0.165	1215639	keystroke	e	n/a
608.0145	0.105	1216029	keystroke	t	n/a
608.164	0.1205	1216328	keystroke	Key.enter	n/a
608.2905	8.291	1216581	prompt	n/a	detroit pants prefix breast\n
609.0345	0.135	1218069	keystroke	d	n/a
609.2295	0.165	1218459	keystroke	e	n/a
609.4245	0.135	1218849	keystroke	t	n/a
609.6945	0.105	1219389	keystroke	r	n/a
609.8145	0.165	1219629	keystroke	o	n/a
609.9045	0.15	1219809	keystroke	i	n/a
610.0395	0.1205	1220079	keystroke	r	n/a
610.7445	0.12	1221489	keystroke	Key.backspace	n/a
610.8945	0.09	1221789	keystroke	t	n/a
611.1795	0.165	1222359	keystroke	Key.space	n/a
612.0195	0.1365	1224039	keystroke	p	n/a
