onset	duration	sample	value	key	prompt_text
1.3885	9.525	2777	prompt	n/a	the quick brown fox jumps over a lazy dog\n
2.95	0.027	5900	keystroke_t	t	n/a
3.022	0.075	6044	keystroke_h	h	n/a
3.083	0.09	6166	keystroke_e	e	n/a
3.187	0.12	6374	keystroke_Key.space	Key.space	n/a
3.457	0.12	6914	keystroke_q	q	n/a
3.622	0.12	7244	keystroke_u	u	n/a
3.863	0.059	7726	keystroke_i	i	n/a
4.042	0.12	8084	keystroke_c	c	n/a
4.192	0.075	8384	keystroke_k	k	n/a
4.552	0.136	9104	keystroke_Key.space	Key.space	n/a
4.8675	0.105	9735	keystroke_b	b	n/a
5.1225	0.105	10245	keystroke_r	r	n/a
5.2125	0.075	10425	keystroke_o	o	n/a
5.3625	0.09	10725	keystroke_w	w	n/a
5.4375	0.0905	10875	keystroke_n	n	n/a
5.543	0.105	11086	keystroke_Key.space	Key.space	n/a
5.858	0.101	11716	keystroke_f	f	n/a
5.989	0.075	11978	keystroke_o	o	n/a
6.124	0.12	12248	keystroke_x	x	n/a
6.274	0.105	12548	keystroke_Key.space	Key.space	n/a
6.545	0.105	13090	keystroke_j	j	n/a
6.755	0.06	13510	keystroke_u	u	n/a
6.9505	0.21	13901	keystroke_m	m	n/a
7.1305	0.106	14261	keystroke_p	p	n/a
7.2955	0.09	14591	keystroke_s	s	n/a
7.5055	0.105	15011	keystroke_Key.space	Key.space	n/a
7.9855	0.09	15971	keystroke_o	o	n/a
8.0905	0.12	16181	keystroke_v	v	n/a
8.2255	0.1205	16451	keystroke_e	e	n/a
8.315	0.1055	16630	keystroke_r	r	n/a
8.405	0.09	16810	keystroke_Key.space	Key.space	n/a
8.675	0.1205	17350	keystroke_a	a	n/a
8.8705	0.105	17741	keystroke_Key.space	Key.space	n/a
9.201	0.075	18402	keystroke_l	l	n/a
9.306	0.105	18612	keystroke_a	a	n/a
9.591	0.105	19182	keystroke_z	z	n/a
9.711	0.06	19422	keystroke_y	y	n/a
9.876	0.135	19752	keystroke_Key.space	Key.space	n/a
10.116	0.15	20232	keystroke_d	d	n/a
10.296	0.075	20592	keystroke_o	o	n/a
10.461	0.09	20922	keystroke_g	g	n/a
10.8355	0.075	21671	keystroke_Key.enter	Key.enter	n/a
10.92	9.3675	21840	prompt	n/a	virus worn grill conspiracy\n
11.7055	0.15	23411	keystroke_v	v	n/a
11.8855	0.075	23771	keystroke_i	i	n/a
12.0205	0.1205	24041	keystroke_r	r	n/a
12.275	0.06	24550	keystroke_s	s	n/a
12.32	0.06	24640	keystroke_u	u	n/a
12.875	0.06	25750	keystroke_Key.backspace	Key.backspace	n/a
13.025	0.06	26050	keystroke_Key.backspace	Key.backspace	n/a
13.28	0.045	26560	keystroke_u	u	n/a
13.37	0.105	26740	keystroke_s	s	n/a
13.49	0.105	26980	keystroke_Key.space	Key.space	n/a
14.1205	0.12	28241	keystroke_w	w	n/a
14.4505	0.09	28901	keystroke_o	o	n/a
14.6455	0.12	29291	keystroke_r	r	n/a
14.7805	0.135	29561	keystroke_n	n	n/a
14.9455	0.12	29891	keystroke_Key.space	Key.space	n/a
15.4555	0.09	30911	keystroke_g	g	n/a
15.6805	0.12	31361	keystroke_r	r	n/a
15.8155	0.075	31631	keystroke_i	i	n/a
16.0555	0.075	32111	keystroke_l	l	n/a
16.2055	0.09	32411	keystroke_l	l	n/a
16.3105	0.12	32621	keystroke_Key.space	Key.space	n/a
16.5955	0.1495	33191	keystroke_c	c	n/a
16.73	0.091	33460	keystroke_o	o	n/a
16.805	0.135	33610	keystroke_n	n	n/a
17.1805	0.106	34361	keystroke_s	s	n/a
17.3765	0.089	34753	keystroke_p	p	n/a
18.126	0.075	36252	keystroke_i	i	n/a
18.276	0.104	36552	keystroke_r	r	n/a
18.591	0.1345	37182	keystroke_c	c	n/a
19.0405	0.075	38081	keystroke_Key.backspace	Key.backspace	n/a
19.1005	0.105	38201	keystroke_a	a	n/a
19.3255	0.09	38651	keystroke_c	c	n/a
19.476	0.075	38952	keystroke_y	y	n/a
20.226	0.06	40452	keystroke_Key.enter	Key.enter	n/a
20.295	8.0925	40590	prompt	n/a	bean exam mistake recruiting\n
21.006	0.105	42012	keystroke_b	b	n/a
21.216	0.165	42432	keystroke_e	e	n/a
21.335	0.121	42670	keystroke_a	a	n/a
21.516	0.149	43032	keystroke_n	n	n/a
21.695	0.09	43390	keystroke_Key.space	Key.space	n/a
22.46	0.105	44920	keystroke_e	e	n/a
22.685	0.21	45370	keystroke_x	x	n/a
22.85	0.135	45700	keystroke_a	a	n/a
23.045	0.135	46090	keystroke_m	m	n/a
23.465	0.12	46930	keystroke_Key.space	Key.space	n/a
23.78	0.15	47560	keystroke_m	m	n/a
23.915	0.12	47830	keystroke_i	i	n/a
24.095	0.135	48190	keystroke_s	s	n/a
24.275	0.15	48550	keystroke_t	t	n/a
24.41	0.15	48820	keystroke_a	a	n/a
24.575	0.09	49150	keystroke_k	k	n/a
24.68	0.075	49360	keystroke_e	e	n/a
24.77	0.12	49540	keystroke_Key.space	Key.space	n/a
25.115	0.12	50230	keystroke_r	r	n/a
25.205	0.105	50410	keystroke_e	e	n/a
25.445	0.12	50890	keystroke_c	c	n/a
26.6455	0.135	53291	keystroke_r	r	n/a
26.7955	0.15	53591	keystroke_u	u	n/a
27.0355	0.12	54071	keystroke_i	i	n/a
27.2305	0.135	54461	keystroke_t	t	n/a
27.3355	0.12	54671	keystroke_i	i	n/a
27.4255	0.15	54851	keystroke_n	n	n/a
27.5605	0.105	55121	keystroke_g	g	n/a
27.6505	0.09	55301	keystroke_Key.space	Key.space	n/a
28.3105	0.075	56621	keystroke_Key.enter	Key.enter	n/a
28.393	11.395	56786	prompt	n/a	microphone find represent medical\n
29.1355	0.165	58271	keystroke_m	m	n/a
29.2855	0.12	58571	keystroke_i	i	n/a
29.4955	0.15	58991	keystroke_c	c	n/a
29.7655	0.135	59531	keystroke_r	r	n/a
30.0055	0.15	60011	keystroke_o	o	n/a
30.1405	0.12	60281	keystroke_p	p	n/a
30.4555	0.105	60911	keystroke_h	h	n/a
30.5755	0.135	61151	keystroke_o	o	n/a
30.6805	0.1055	61361	keystroke_n	n	n/a
30.816	0.09	61632	keystroke_e	e	n/a
30.92	0.091	61840	keystroke_Key.space	Key.space	n/a
31.551	0.15	63102	keystroke_f	f	n/a
31.641	0.09	63282	keystroke_i	i	n/a
31.731	0.105	63462	keystroke_n	n	n/a
31.866	0.105	63732	keystroke_d	d	n/a
32.015	0.09	64030	keystroke_Key.space	Key.space	n/a
32.541	0.149	65082	keystroke_r	r	n/a
32.66	0.075	65320	keystroke_e	e	n/a
34.295	0.075	68590	keystroke_p	p	n/a
34.6855	0.105	69371	keystroke_r	r	n/a
34.7605	0.105	69521	keystroke_e	e	n/a
34.9555	0.165	69911	keystroke_s	s	n/a
35.1055	0.15	70211	keystroke_e	e	n/a
35.3155	0.09	70631	keystroke_n	n	n/a
35.8255	0.135	71651	keystroke_d	d	n/a
36.5455	0.06	73091	keystroke_Key.backspace	Key.backspace	n/a
36.6805	0.105	73361	keystroke_t	t	n/a
37.6855	0.1195	75371	keystroke_Key.space	Key.space	n/a
37.9705	0.165	75941	keystroke_m	m	n/a
38.1805	0.105	76361	keystroke_e	e	n/a
38.4055	0.105	76811	keystroke_d	d	n/a
38.4955	0.105	76991	keystroke_i	i	n/a
38.7205	0.195	77441	keystroke_c	c	n/a
38.9005	0.135	77801	keystroke_a	a	n/a
39.3355	0.09	78671	keystroke_l	l	n/a
39.7105	0.075	79421	keystroke_Key.enter	Key.enter	n/a
39.794	12.369	79588	prompt	n/a	openings municipal scenic placing\n
40.6855	0.15	81371	keystroke_o	o	n/a
40.8055	0.135	81611	keystroke_p	p	n/a
41.0305	0.075	82061	keystroke_e	e	n/a
41.1655	0.1205	82331	keystroke_n	n	n/a
41.301	0.12	82602	keystroke_i	i	n/a
41.391	0.105	82782	keystroke_n	n	n/a
41.526	0.09	83052	keystroke_g	g	n/a
42.036	0.09	84072	keystroke_s	s	n/a
42.261	0.09	84522	keystroke_Key.space	Key.space	n/a
42.936	0.135	85872	keystroke_m	m	n/a
43.206	0.105	86412	keystroke_u	u	n/a
43.536	0.09	87072	keystroke_n	n	n/a
44.496	0.104	88992	keystroke_c	c	n/a
44.975	0.06	89950	keystroke_Key.backspace	Key.backspace	n/a
45.216	0.045	90432	keystroke_i	i	n/a
45.306	0.105	90612	keystroke_c	c	n/a
46.0105	0.09	92021	keystroke_i	i	n/a
46.5355	0.105	93071	keystroke_p	p	n/a
46.9105	0.09	93821	keystroke_a	a	n/a
47.0155	0.105	94031	keystroke_l	l	n/a
47.1505	0.105	94301	keystroke_Key.space	Key.space	n/a
47.5555	0.12	95111	keystroke_s	s	n/a
47.8255	0.105	95651	keystroke_e	e	n/a
48.2605	0.0605	96521	keystroke_Key.backspace	Key.backspace	n/a
48.366	0.09	96732	keystroke_c	c	n/a
48.561	0.075	97122	keystroke_e	e	n/a
48.741	0.045	97482	keystroke_n	n	n/a
49.761	0.06	99522	keystroke_i	i	n/a
49.941	0.119	99882	keystroke_c	c	n/a
50.105	0.105	100210	keystroke_Key.space	Key.space	n/a
50.7205	0.09	101441	keystroke_p	p	n/a
50.8705	0.1205	101741	keystroke_l	l	n/a
51.021	0.1195	102042	keystroke_a	a	n/a
51.291	0.12	102582	keystroke_c	c	n/a
51.531	0.135	103062	keystroke_i	i	n/a
51.636	0.105	103272	keystroke_n	n	n/a
51.786	0.09	103572	keystroke_g	g	n/a
52.101	0.06	104202	keystroke_Key.enter	Key.enter	n/a
52.17	15.278	104340	prompt	n/a	missouri ericsson kuwait basically\n
54.293	0.057	108586	keystroke_m	m	n/a
54.395	0.061	108790	keystroke_i	i	n/a
54.635	0.06	109270	keystroke_s	s	n/a
54.801	0.104	109602	keystroke_s	s	n/a
54.98	0.06	109960	keystroke_o	o	n/a
55.775	0.06	111550	keystroke_u	u	n/a
56.015	0.091	112030	keystroke_r	r	n/a
56.615	0.06	113230	keystroke_i	i	n/a
56.96	0.09	113920	keystroke_Key.space	Key.space	n/a
59.153	0.042	118306	keystroke_e	e	n/a
59.39	0.12	118780	keystroke_r	r	n/a
59.7655	0.09	119531	keystroke_i	i	n/a
59.9905	0.12	119981	keystroke_c	c	n/a
61.0255	0.045	122051	keystroke_s	s	n/a
61.1905	0.075	122381	keystroke_s	s	n/a
61.4455	0.15	122891	keystroke_o	o	n/a
61.5805	0.15	123161	keystroke_n	n	n/a
61.7455	0.105	123491	keystroke_Key.space	Key.space	n/a
61.9705	0.135	123941	keystroke_k	k	n/a
62.3305	0.105	124661	keystroke_u	u	n/a
62.5705	0.165	125141	keystroke_w	w	n/a
62.6905	0.105	125381	keystroke_a	a	n/a
62.8255	0.075	125651	keystroke_i	i	n/a
62.9755	0.09	125951	keystroke_t	t	n/a
63.0805	0.105	126161	keystroke_Key.space	Key.space	n/a
63.4105	0.135	126821	keystroke_b	b	n/a
63.5305	0.135	127061	keystroke_a	a	n/a
64.4305	0.105	128861	keystroke_c	c	n/a
65.0455	0.045	130091	keystroke_Key.backspace	Key.backspace	n/a
65.1055	0.12	130211	keystroke_s	s	n/a
66.0205	0.09	132041	keystroke_i	i	n/a
66.1405	0.135	132281	keystroke_c	c	n/a
66.635	0.075	133270	keystroke_a	a	n/a
66.77	0.045	133540	keystroke_l	l	n/a
66.89	0.105	133780	keystroke_l	l	n/a
67.116	0.089	134232	keystroke_y	y	n/a
67.37	0.075	134740	keystroke_Key.enter	Key.enter	n/a
67.454	11.429	134908	prompt	n/a	provincial helping launches asthma\n
68.3905	0.105	136781	keystroke_p	p	n/a
69.1555	0.105	138311	keystroke_r	r	n/a
69.5455	0.06	139091	keystroke_o	o	n/a
69.8455	0.135	139691	keystroke_v	v	n/a
70.2505	0.09	140501	keystroke_i	i	n/a
70.4455	0.12	140891	keystroke_n	n	n/a
70.8355	0.135	141671	keystroke_c	c	n/a
71.1205	0.09	142241	keystroke_i	i	n/a
71.4955	0.09	142991	keystroke_a	a	n/a
71.6305	0.1205	143261	keystroke_l	l	n/a
71.796	0.135	143592	keystroke_Key.space	Key.space	n/a
72.2155	0.105	144431	keystroke_h	h	n/a
72.3805	0.09	144761	keystroke_e	e	n/a
72.4405	0.15	144881	keystroke_l	l	n/a
72.5755	0.105	145151	keystroke_p	p	n/a
72.7405	0.165	145481	keystroke_i	i	n/a
72.8755	0.135	145751	keystroke_n	n	n/a
73.0255	0.12	146051	keystroke_g	g	n/a
73.1305	0.09	146261	keystroke_Key.space	Key.space	n/a
73.6555	0.09	147311	keystroke_l	l	n/a
73.9855	0.12	147971	keystroke_a	a	n/a
74.2405	0.045	148481	keystroke_u	u	n/a
74.5855	0.06	149171	keystroke_n	n	n/a
74.7505	0.12	149501	keystroke_c	c	n/a
74.8555	0.075	149711	keystroke_h	h	n/a
75.2155	0.09	150431	keystroke_e	e	n/a
75.4405	0.06	150881	keystroke_d	d	n/a
75.8305	0.075	151661	keystroke_Key.backspace	Key.backspace	n/a
75.9505	0.09	151901	keystroke_s	s	n/a
76.1155	0.09	152231	keystroke_Key.space	Key.space	n/a
76.851	0.09	153702	keystroke_a	a	n/a
77.076	0.09	154152	keystroke_s	s	n/a
77.676	0.105	155352	keystroke_t	t	n/a
78.006	0.09	156012	keystroke_h	h	n/a
78.321	0.15	156642	keystroke_m	m	n/a
78.456	0.12	156912	keystroke_a	a	n/a
78.8	0.075	157600	keystroke_Key.enter	Key.enter	n/a
78.8845	7.583	157769	prompt	n/a	fact cassette base romantic\n
79.791	0.15	159582	keystroke_f	f	n/a
79.88	0.15	159760	keystroke_a	a	n/a
80.076	0.149	160152	keystroke_c	c	n/a
80.315	0.105	160630	keystroke_t	t	n/a
80.435	0.09	160870	keystroke_Key.space	Key.space	n/a
80.781	0.135	161562	keystroke_c	c	n/a
80.901	0.149	161802	keystroke_a	a	n/a
81.2305	0.06	162461	keystroke_s	s	n/a
81.4105	0.075	162821	keystroke_s	s	n/a
81.8305	0.09	163661	keystroke_e	e	n/a
82.0705	0.06	164141	keystroke_t	t	n/a
82.2355	0.06	164471	keystroke_t	t	n/a
82.4155	0.0895	164831	keystroke_e	e	n/a
82.6555	0.12	165311	keystroke_Key.space	Key.space	n/a
82.8955	0.12	165791	keystroke_b	b	n/a
82.9855	0.15	165971	keystroke_a	a	n/a
83.2555	0.135	166511	keystroke_s	s	n/a
83.4355	0.135	166871	keystroke_e	e	n/a
84.0055	0.135	168011	keystroke_Key.space	Key.space	n/a
84.3805	0.12	168761	keystroke_r	r	n/a
84.4855	0.105	168971	keystroke_o	o	n/a
84.6355	0.12	169271	keystroke_m	m	n/a
84.9055	0.06	169811	keystroke_a	a	n/a
85.4305	0.075	170861	keystroke_n	n	n/a
85.8055	0.135	171611	keystroke_t	t	n/a
85.9705	0.075	171941	keystroke_i	i	n/a
86.1655	0.12	172331	keystroke_c	c	n/a
86.3905	0.075	172781	keystroke_Key.enter	Key.enter	n/a
86.4725	9.3845	172945	prompt	n/a	mess authorized cindy previews\n
87.3055	0.135	174611	keystroke_m	m	n/a
87.4705	0.0905	174941	keystroke_e	e	n/a
87.711	0.075	175422	keystroke_s	s	n/a
87.891	0.045	175782	keystroke_s	s	n/a
88.7005	0.105	177401	keystroke_Key.space	Key.space	n/a
88.8805	0.12	177761	keystroke_a	a	n/a
89.1505	0.075	178301	keystroke_u	u	n/a
89.3755	0.15	178751	keystroke_t	t	n/a
89.5405	0.12	179081	keystroke_h	h	n/a
89.6905	0.105	179381	keystroke_o	o	n/a
89.9155	0.105	179831	keystroke_r	r	n/a
90.4255	0.075	180851	keystroke_i	i	n/a
90.6355	0.12	181271	keystroke_z	z	n/a
90.9205	0.075	181841	keystroke_e	e	n/a
91.1305	0.09	182261	keystroke_d	d	n/a
91.2655	0.105	182531	keystroke_Key.space	Key.space	n/a
91.7155	0.135	183431	keystroke_c	c	n/a
91.8655	0.075	183731	keystroke_i	i	n/a
92.0005	0.135	184001	keystroke_n	n	n/a
92.1505	0.105	184301	keystroke_d	d	n/a
92.3455	0.045	184691	keystroke_y	y	n/a
92.5405	0.12	185081	keystroke_Key.space	Key.space	n/a
94.0105	0.12	188021	keystroke_p	p	n/a
94.2805	0.15	188561	keystroke_r	r	n/a
94.4005	0.105	188801	keystroke_e	e	n/a
94.6405	0.12	189281	keystroke_v	v	n/a
94.7605	0.075	189521	keystroke_i	i	n/a
94.8805	0.18	189761	keystroke_e	e	n/a
95.0305	0.09	190061	keystroke_w	w	n/a
95.6605	0.075	191321	keystroke_s	s	n/a
95.7805	0.075	191561	keystroke_Key.enter	Key.enter	n/a
95.8635	9.983	191727	prompt	n/a	good replica compaq puzzles\n
96.7405	0.105	193481	keystroke_g	g	n/a
96.9055	0.045	193811	keystroke_o	o	n/a
97.0405	0.06	194081	keystroke_o	o	n/a
97.1605	0.09	194321	keystroke_d	d	n/a
97.2505	0.105	194501	keystroke_Key.space	Key.space	n/a
97.5805	0.12	195161	keystroke_r	r	n/a
97.6705	0.105	195341	keystroke_e	e	n/a
97.9855	0.09	195971	keystroke_p	p	n/a
98.646	0.09	197292	keystroke_l	l	n/a
98.795	0.075	197590	keystroke_i	i	n/a
98.931	0.179	197862	keystroke_c	c	n/a
99.08	0.105	198160	keystroke_a	a	n/a
99.245	0.09	198490	keystroke_Key.space	Key.space	n/a
99.89	0.106	199780	keystroke_c	c	n/a
99.966	0.12	199932	keystroke_o	o	n/a
100.146	0.075	200292	keystroke_n	n	n/a
100.97	0.06	201940	keystroke_Key.backspace	Key.backspace	n/a
101.226	0.164	202452	keystroke_m	m	n/a
101.51	0.075	203020	keystroke_p	p	n/a
102.695	0.09	205390	keystroke_a	a	n/a
102.92	0.091	205840	keystroke_q	q	n/a
103.445	0.105	206890	keystroke_Key.space	Key.space	n/a
103.895	0.09	207790	keystroke_p	p	n/a
104.195	0.06	208390	keystroke_u	u	n/a
104.63	0.03	209260	keystroke_z	z	n/a
104.735	0.105	209470	keystroke_z	z	n/a
104.9605	0.075	209921	keystroke_l	l	n/a
105.0955	0.12	210191	keystroke_e	e	n/a
105.5755	0.06	211151	keystroke_s	s	n/a
105.7705	0.075	211541	keystroke_Key.enter	Key.enter	n/a
105.851	7.601	211702	prompt	n/a	cricket done everything ahead\n
106.985	0.151	213970	keystroke_c	c	n/a
107.255	0.12	214510	keystroke_r	r	n/a
107.42	0.075	214840	keystroke_i	i	n/a
107.96	0.105	215920	keystroke_c	c	n/a
108.65	0.06	217300	keystroke_k	k	n/a
108.83	0.105	217660	keystroke_e	e	n/a
108.995	0.1055	217990	keystroke_t	t	n/a
109.115	0.105	218230	keystroke_Key.space	Key.space	n/a
109.31	0.12	218620	keystroke_d	d	n/a
109.445	0.09	218890	keystroke_o	o	n/a
109.536	0.104	219072	keystroke_n	n	n/a
109.835	0.075	219670	keystroke_e	e	n/a
109.97	0.09	219940	keystroke_Key.space	Key.space	n/a
110.57	0.09	221140	keystroke_e	e	n/a
110.765	0.12	221530	keystroke_v	v	n/a
110.9	0.12	221800	keystroke_e	e	n/a
111.005	0.105	222010	keystroke_r	r	n/a
111.245	0.105	222490	keystroke_y	y	n/a
111.455	0.135	222910	keystroke_t	t	n/a
111.56	0.105	223120	keystroke_h	h	n/a
111.665	0.135	223330	keystroke_i	i	n/a
111.77	0.09	223540	keystroke_n	n	n/a
111.875	0.09	223750	keystroke_g	g	n/a
111.98	0.075	223960	keystroke_Key.space	Key.space	n/a
112.5655	0.105	225131	keystroke_a	a	n/a
112.7755	0.075	225551	keystroke_h	h	n/a
112.9405	0.12	225881	keystroke_e	e	n/a
113.0455	0.12	226091	keystroke_a	a	n/a
113.1955	0.105	226391	keystroke_d	d	n/a
113.3755	0.075	226751	keystroke_Key.enter	Key.enter	n/a
113.4565	9.926	226913	prompt	n/a	loops electronic pursue albania\n
114.3655	0.03	228731	keystroke_l	l	n/a
114.5305	0.045	229061	keystroke_o	o	n/a
114.6505	0.09	229301	keystroke_o	o	n/a
114.8605	0.075	229721	keystroke_p	p	n/a
115.0405	0.075	230081	keystroke_s	s	n/a
115.2955	0.09	230591	keystroke_Key.space	Key.space	n/a
115.9555	0.12	231911	keystroke_e	e	n/a
116.3155	0.06	232631	keystroke_l	l	n/a
116.4355	0.12	232871	keystroke_e	e	n/a
116.6905	0.12	233381	keystroke_c	c	n/a
116.9605	0.06	233921	keystroke_t	t	n/a
117.1555	0.12	234311	keystroke_r	r	n/a
117.6955	0.105	235391	keystroke_o	o	n/a
117.8155	0.12	235631	keystroke_n	n	n/a
118.1455	0.075	236291	keystroke_i	i	n/a
118.2955	0.12	236591	keystroke_c	c	n/a
118.6405	0.12	237281	keystroke_Key.space	Key.space	n/a
119.0755	0.1055	238151	keystroke_p	p	n/a
119.5705	0.06	239141	keystroke_u	u	n/a
119.7805	0.105	239561	keystroke_r	r	n/a
120.0955	0.09	240191	keystroke_s	s	n/a
120.3205	0.06	240641	keystroke_u	u	n/a
120.4855	0.09	240971	keystroke_e	e	n/a
120.6205	0.105	241241	keystroke_Key.space	Key.space	n/a
121.0705	0.075	242141	keystroke_a	a	n/a
121.2205	0.06	242441	keystroke_l	l	n/a
122.0905	0.075	244181	keystroke_b	b	n/a
122.3455	0.105	244691	keystroke_a	a	n/a
122.6605	0.12	245321	keystroke_n	n	n/a
122.8855	0.075	245771	keystroke_i	i	n/a
123.0655	0.09	246131	keystroke_a	a	n/a
123.305	0.075	246610	keystroke_Key.enter	Key.enter	n/a
123.3885	6.189	246777	prompt	n/a	optics config bingo pics\n
124.385	0.135	248770	keystroke_o	o	n/a
124.505	0.12	249010	keystroke_p	p	n/a
124.715	0.12	249430	keystroke_t	t	n/a
124.82	0.09	249640	keystroke_i	i	n/a
125.015	0.12	250030	keystroke_c	c	n/a
125.255	0.075	250510	keystroke_s	s	n/a
125.375	0.105	250750	keystroke_Key.space	Key.space	n/a
125.9305	0.15	251861	keystroke_c	c	n/a
126.0355	0.09	252071	keystroke_o	o	n/a
126.1105	0.12	252221	keystroke_n	n	n/a
126.2605	0.135	252521	keystroke_f	f	n/a
126.3805	0.06	252761	keystroke_i	i	n/a
126.6955	0.06	253391	keystroke_g	g	n/a
126.8605	0.105	253721	keystroke_Key.space	Key.space	n/a
127.4455	0.105	254891	keystroke_b	b	n/a
127.521	0.1045	255042	keystroke_i	i	n/a
127.6405	0.105	255281	keystroke_n	n	n/a
127.7605	0.105	255521	keystroke_g	g	n/a
127.9705	0.075	255941	keystroke_o	o	n/a
128.1805	0.105	256361	keystroke_Key.space	Key.space	n/a
128.6755	0.105	257351	keystroke_p	p	n/a
128.8555	0.09	257711	keystroke_i	i	n/a
128.9905	0.165	257981	keystroke_c	c	n/a
129.2005	0.12	258401	keystroke_s	s	n/a
129.5005	0.075	259001	keystroke_Key.enter	Key.enter	n/a
129.583	13.4945	259166	prompt	n/a	sunshine erotica eugene hydrogen\n
130.4455	0.12	260891	keystroke_s	s	n/a
130.6555	0.075	261311	keystroke_u	u	n/a
130.8955	0.105	261791	keystroke_n	n	n/a
131.4655	0.09	262931	keystroke_s	s	n/a
131.616	0.105	263232	keystroke_h	h	n/a
131.706	0.15	263412	keystroke_i	i	n/a
131.841	0.105	263682	keystroke_n	n	n/a
131.976	0.105	263952	keystroke_e	e	n/a
132.231	0.09	264462	keystroke_Key.space	Key.space	n/a
133.221	0.09	266442	keystroke_e	e	n/a
133.686	0.135	267372	keystroke_r	r	n/a
133.956	0.09	267912	keystroke_o	o	n/a
134.121	0.12	268242	keystroke_t	t	n/a
134.285	0.06	268570	keystroke_i	i	n/a
134.496	0.119	268992	keystroke_c	c	n/a
134.961	0.06	269922	keystroke_a	a	n/a
135.125	0.105	270250	keystroke_Key.space	Key.space	n/a
135.47	0.106	270940	keystroke_e	e	n/a
135.875	0.075	271750	keystroke_u	u	n/a
136.055	0.09	272110	keystroke_g	g	n/a
136.28	0.09	272560	keystroke_e	e	n/a
136.415	0.09	272830	keystroke_n	n	n/a
136.745	0.09	273490	keystroke_e	e	n/a
137.405	0.12	274810	keystroke_Key.space	Key.space	n/a
138.0655	0.105	276131	keystroke_h	h	n/a
138.3055	0.075	276611	keystroke_y	y	n/a
139.1155	0.135	278231	keystroke_d	d	n/a
139.5355	0.12	279071	keystroke_r	r	n/a
139.9705	0.18	279941	keystroke_o	o	n/a
140.1055	0.105	280211	keystroke_p	p	n/a
140.5105	0.12	281021	keystroke_g	g	n/a
140.6155	0.09	281231	keystroke_e	e	n/a
140.8705	0.09	281741	keystroke_n	n	n/a
141.3205	0.06	282641	keystroke_Key.backspace	Key.backspace	n/a
141.4855	0.045	282971	keystroke_Key.backspace	Key.backspace	n/a
141.6355	0.045	283271	keystroke_Key.backspace	Key.backspace	n/a
141.7705	0.075	283541	keystroke_Key.backspace	Key.backspace	n/a
141.9055	0.12	283811	keystroke_g	g	n/a
141.9955	0.09	283991	keystroke_e	e	n/a
142.1905	0.075	284381	keystroke_n	n	n/a
143.0005	0.075	286001	keystroke_Key.enter	Key.enter	n/a
143.082	8.0355	286164	prompt	n/a	measuring ports icon belts\n
144.0205	0.12	288041	keystroke_m	m	n/a
144.1555	0.135	288311	keystroke_e	e	n/a
144.2455	0.105	288491	keystroke_a	a	n/a
144.5005	0.12	289001	keystroke_s	s	n/a
144.6955	0.075	289391	keystroke_u	u	n/a
144.7855	0.135	289571	keystroke_r	r	n/a
144.8905	0.06	289781	keystroke_e	e	n/a
145.3855	0.075	290771	keystroke_Key.backspace	Key.backspace	n/a
145.6405	0.09	291281	keystroke_i	i	n/a
145.7305	0.105	291461	keystroke_n	n	n/a
145.8505	0.075	291701	keystroke_g	g	n/a
145.9405	0.075	291881	keystroke_Key.space	Key.space	n/a
146.5705	0.09	293141	keystroke_p	p	n/a
146.7355	0.09	293471	keystroke_o	o	n/a
146.8855	0.09	293771	keystroke_r	r	n/a
147.0805	0.06	294161	keystroke_t	t	n/a
147.2605	0.09	294521	keystroke_s	s	n/a
147.3805	0.105	294761	keystroke_Key.space	Key.space	n/a
147.8305	0.075	295661	keystroke_i	i	n/a
148.0255	0.135	296051	keystroke_c	c	n/a
148.1455	0.105	296291	keystroke_o	o	n/a
148.2355	0.12	296471	keystroke_n	n	n/a
148.416	0.1035	296832	keystroke_Key.space	Key.space	n/a
149.255	0.105	298510	keystroke_b	b	n/a
149.375	0.105	298750	keystroke_e	e	n/a
149.676	0.074	299352	keystroke_t	t	n/a
150.32	0.06	300640	keystroke_Key.backspace	Key.backspace	n/a
150.531	0.074	301062	keystroke_l	l	n/a
150.621	0.074	301242	keystroke_t	t	n/a
150.83	0.105	301660	keystroke_s	s	n/a
151.056	0.059	302112	keystroke_Key.enter	Key.enter	n/a
151.125	10.707	302250	prompt	n/a	technological discussions aqua disable\n
152.181	0.119	304362	keystroke_t	t	n/a
152.315	0.091	304630	keystroke_e	e	n/a
152.915	0.105	305830	keystroke_c	c	n/a
153.095	0.075	306190	keystroke_h	h	n/a
153.32	0.12	306640	keystroke_n	n	n/a
153.47	0.06	306940	keystroke_o	o	n/a
153.635	0.09	307270	keystroke_l	l	n/a
153.83	0.045	307660	keystroke_o	o	n/a
153.995	0.076	307990	keystroke_g	g	n/a
154.595	0.135	309190	keystroke_i	i	n/a
154.745	0.09	309490	keystroke_c	c	n/a
154.835	0.09	309670	keystroke_a	a	n/a
154.97	0.075	309940	keystroke_l	l	n/a
155.105	0.09	310210	keystroke_Key.space	Key.space	n/a
155.795	0.12	311590	keystroke_d	d	n/a
155.99	0.075	311980	keystroke_i	i	n/a
156.185	0.09	312370	keystroke_s	s	n/a
156.425	0.12	312850	keystroke_c	c	n/a
156.68	0.075	313360	keystroke_u	u	n/a
157.085	0.06	314170	keystroke_s	s	n/a
157.251	0.059	314502	keystroke_s	s	n/a
157.43	0.15	314860	keystroke_i	i	n/a
157.535	0.12	315070	keystroke_o	o	n/a
157.625	0.12	315250	keystroke_n	n	n/a
157.805	0.075	315610	keystroke_s	s	n/a
157.94	0.105	315880	keystroke_Key.space	Key.space	n/a
158.705	0.105	317410	keystroke_a	a	n/a
159.05	0.09	318100	keystroke_q	q	n/a
159.545	0.045	319090	keystroke_u	u	n/a
159.74	0.09	319480	keystroke_a	a	n/a
160.37	0.105	320740	keystroke_Key.space	Key.space	n/a
160.595	0.12	321190	keystroke_d	d	n/a
160.73	0.06	321460	keystroke_i	i	n/a
160.85	0.075	321700	keystroke_s	s	n/a
161.09	0.09	322180	keystroke_a	a	n/a
161.285	0.09	322570	keystroke_b	b	n/a
161.42	0.09	322840	keystroke_l	l	n/a
161.555	0.075	323110	keystroke_e	e	n/a
161.75	0.075	323500	keystroke_Key.enter	Key.enter	n/a
161.832	9.16	323664	prompt	n/a	offense english auckland would\n
162.74	0.075	325480	keystroke_o	o	n/a
162.875	0.075	325750	keystroke_f	f	n/a
163.0555	0.105	326111	keystroke_f	f	n/a
163.73	0.09	327460	keystroke_e	e	n/a
163.865	0.075	327730	keystroke_n	n	n/a
164.03	0.09	328060	keystroke_s	s	n/a
164.255	0.0905	328510	keystroke_Key.space	Key.space	n/a
164.5405	0.105	329081	keystroke_e	e	n/a
165.2155	0.09	330431	keystroke_Key.backspace	Key.backspace	n/a
165.3205	0.075	330641	keystroke_Key.backspace	Key.backspace	n/a
165.4555	0.09	330911	keystroke_e	e	n/a
165.6055	0.075	331211	keystroke_Key.space	Key.space	n/a
165.8905	0.09	331781	keystroke_e	e	n/a
166.0405	0.0745	332081	keystroke_n	n	n/a
166.3405	0.105	332681	keystroke_g	g	n/a
166.5655	0.135	333131	keystroke_l	l	n/a
166.6855	0.075	333371	keystroke_i	i	n/a
166.7905	0.105	333581	keystroke_s	s	n/a
167.0155	0.075	334031	keystroke_h	h	n/a
167.6005	0.12	335201	keystroke_Key.space	Key.space	n/a
167.9605	0.09	335921	keystroke_a	a	n/a
168.3205	0.09	336641	keystroke_u	u	n/a
168.9805	0.12	337961	keystroke_c	c	n/a
169.2655	0.09	338531	keystroke_k	k	n/a
169.4755	0.09	338951	keystroke_l	l	n/a
169.5805	0.12	339161	keystroke_a	a	n/a
169.7455	0.075	339491	keystroke_n	n	n/a
169.8055	0.09	339611	keystroke_d	d	n/a
169.9105	0.12	339821	keystroke_Key.space	Key.space	n/a
170.2705	0.12	340541	keystroke_w	w	n/a
170.4205	0.075	340841	keystroke_o	o	n/a
170.5255	0.105	341051	keystroke_r	r	n/a
170.7655	0.105	341531	keystroke_d	d	n/a
170.9155	0.075	341831	keystroke_Key.enter	Key.enter	n/a
170.9975	10.0605	341995	prompt	n/a	honors pubs morrison announcements\n
172.1905	0.105	344381	keystroke_h	h	n/a
172.3105	0.105	344621	keystroke_o	o	n/a
172.4155	0.12	344831	keystroke_n	n	n/a
172.8955	0.075	345791	keystroke_o	o	n/a
173.1355	0.105	346271	keystroke_r	r	n/a
173.3455	0.12	346691	keystroke_s	s	n/a
173.4495	0.121	346899	keystroke_Key.space	Key.space	n/a
173.8105	0.0595	347621	keystroke_p	p	n/a
173.916	0.105	347832	keystroke_u	u	n/a
174.156	0.105	348312	keystroke_b	b	n/a
174.35	0.106	348700	keystroke_s	s	n/a
174.515	0.106	349030	keystroke_Key.space	Key.space	n/a
175.145	0.12	350290	keystroke_m	m	n/a
175.295	0.09	350590	keystroke_o	o	n/a
175.55	0.06	351100	keystroke_r	r	n/a
175.73	0.06	351460	keystroke_r	r	n/a
176.315	0.075	352630	keystroke_i	i	n/a
176.525	0.12	353050	keystroke_s	s	n/a
176.75	0.105	353500	keystroke_o	o	n/a
176.87	0.12	353740	keystroke_n	n	n/a
177.02	0.105	354040	keystroke_Key.space	Key.space	n/a
177.41	0.09	354820	keystroke_a	a	n/a
177.53	0.075	355060	keystroke_n	n	n/a
177.6955	0.09	355391	keystroke_n	n	n/a
178.3105	0.1505	356621	keystroke_o	o	n/a
178.431	0.075	356862	keystroke_u	u	n/a
178.671	0.075	357342	keystroke_n	n	n/a
179.391	0.09	358782	keystroke_c	c	n/a
179.615	0.091	359230	keystroke_e	e	n/a
180.186	0.089	360372	keystroke_m	m	n/a
180.306	0.119	360612	keystroke_e	e	n/a
180.41	0.076	360820	keystroke_n	n	n/a
180.561	0.089	361122	keystroke_t	t	n/a
180.786	0.105	361572	keystroke_s	s	n/a
180.981	0.074	361962	keystroke_Key.enter	Key.enter	n/a
181.0655	13.5515	362131	prompt	n/a	meanwhile link impact measuring\n
182.031	0.119	364062	keystroke_m	m	n/a
182.195	0.136	364390	keystroke_e	e	n/a
182.286	0.119	364572	keystroke_a	a	n/a
182.495	0.09	364990	keystroke_n	n	n/a
183.56	0.105	367120	keystroke_w	w	n/a
183.77	0.135	367540	keystroke_h	h	n/a
183.845	0.165	367690	keystroke_i	i	n/a
183.95	0.12	367900	keystroke_l	l	n/a
184.1	0.09	368200	keystroke_e	e	n/a
187.763	0.102	375526	keystroke_Key.space	Key.space	n/a
187.881	0.12	375762	keystroke_l	l	n/a
188.015	0.105	376030	keystroke_i	i	n/a
188.151	0.164	376302	keystroke_n	n	n/a
188.27	0.121	376540	keystroke_k	k	n/a
188.84	0.135	377680	keystroke_Key.space	Key.space	n/a
189.05	0.105	378100	keystroke_i	i	n/a
189.215	0.21	378430	keystroke_m	m	n/a
189.44	0.09	378880	keystroke_p	p	n/a
189.695	0.105	379390	keystroke_a	a	n/a
189.92	0.135	379840	keystroke_c	c	n/a
190.145	0.12	380290	keystroke_t	t	n/a
190.235	0.105	380470	keystroke_Key.space	Key.space	n/a
190.73	0.135	381460	keystroke_m	m	n/a
190.85	0.09	381700	keystroke_e	e	n/a
191.075	0.135	382150	keystroke_s	s	n/a
192.005	0.06	384010	keystroke_Key.backspace	Key.backspace	n/a
192.05	0.12	384100	keystroke_a	a	n/a
192.455	0.09	384910	keystroke_s	s	n/a
192.965	0.09	385930	keystroke_u	u	n/a
193.16	0.15	386320	keystroke_r	r	n/a
193.82	0.12	387640	keystroke_i	i	n/a
193.91	0.135	387820	keystroke_n	n	n/a
194.06	0.09	388120	keystroke_g	g	n/a
194.5555	0.06	389111	keystroke_Key.enter	Key.enter	n/a
194.6245	15.5625	389249	prompt	n/a	trading consequence carnival inner\n
195.5005	0.09	391001	keystroke_t	t	n/a
195.7105	0.12	391421	keystroke_r	r	n/a
195.8755	0.09	391751	keystroke_a	a	n/a
195.9505	0.105	391901	keystroke_d	d	n/a
196.3405	0.06	392681	keystroke_i	i	n/a
196.3855	0.12	392771	keystroke_n	n	n/a
196.5505	0.09	393101	keystroke_g	g	n/a
196.6105	0.09	393221	keystroke_Key.space	Key.space	n/a
197.0005	0.12	394001	keystroke_c	c	n/a
197.0605	0.09	394121	keystroke_o	o	n/a
197.1355	0.12	394271	keystroke_n	n	n/a
197.8105	0.135	395621	keystroke_s	s	n/a
198.0505	0.105	396101	keystroke_q	q	n/a
198.3955	0.105	396791	keystroke_u	u	n/a
198.9955	0.12	397991	keystroke_e	e	n/a
199.2355	0.09	398471	keystroke_n	n	n/a
200.18	0.09	400360	keystroke_c	c	n/a
200.375	0.09	400750	keystroke_e	e	n/a
200.555	0.105	401110	keystroke_Key.space	Key.space	n/a
202.1	0.075	404200	keystroke_Key.backspace	Key.backspace	n/a
202.31	0.075	404620	keystroke_Key.backspace	Key.backspace	n/a
202.505	0.06	405010	keystroke_Key.backspace	Key.backspace	n/a
202.655	0.06	405310	keystroke_Key.backspace	Key.backspace	n/a
202.805	0.06	405610	keystroke_Key.backspace	Key.backspace	n/a
202.97	0.075	405940	keystroke_Key.backspace	Key.backspace	n/a
203.12	0.09	406240	keystroke_Key.backspace	Key.backspace	n/a
203.555	0.12	407110	keystroke_e	e	n/a
203.96	0.105	407920	keystroke_q	q	n/a
204.35	0.09	408700	keystroke_u	u	n/a
204.95	0.12	409900	keystroke_e	e	n/a
205.085	0.075	410170	keystroke_n	n	n/a
205.655	0.075	411310	keystroke_c	c	n/a
205.865	0.09	411730	keystroke_e	e	n/a
206.045	0.09	412090	keystroke_Key.space	Key.space	n/a
206.54	0.165	413080	keystroke_c	c	n/a
206.825	0.135	413650	keystroke_a	a	n/a
207.14	0.0905	414280	keystroke_r	r	n/a
207.725	0.12	415450	keystroke_n	n	n/a
207.995	0.06	415990	keystroke_i	i	n/a
208.28	0.195	416560	keystroke_v	v	n/a
208.46	0.09	416920	keystroke_a	a	n/a
208.61	0.105	417220	keystroke_l	l	n/a
208.79	0.12	417580	keystroke_Key.space	Key.space	n/a
209.18	0.09	418360	keystroke_i	i	n/a
209.36	0.06	418720	keystroke_n	n	n/a
209.525	0.075	419050	keystroke_n	n	n/a
209.705	0.1355	419410	keystroke_e	e	n/a
209.8255	0.12	419651	keystroke_r	r	n/a
210.1105	0.075	420221	keystroke_Key.enter	Key.enter	n/a
210.194	8.3935	420388	prompt	n/a	alternatively jewish vary orlando\n
211.1305	0.105	422261	keystroke_a	a	n/a
211.2955	0.09	422591	keystroke_l	l	n/a
211.5205	0.135	423041	keystroke_t	t	n/a
211.6855	0.135	423371	keystroke_e	e	n/a
211.7905	0.105	423581	keystroke_r	r	n/a
212.0755	0.09	424151	keystroke_n	n	n/a
212.2105	0.12	424421	keystroke_a	a	n/a
212.4355	0.105	424871	keystroke_t	t	n/a
212.6005	0.09	425201	keystroke_i	i	n/a
212.7955	0.12	425591	keystroke_v	v	n/a
213.1105	0.105	426221	keystroke_e	e	n/a
213.2605	0.105	426521	keystroke_l	l	n/a
213.4855	0.06	426971	keystroke_y	y	n/a
213.5905	0.15	427181	keystroke_Key.space	Key.space	n/a
213.9055	0.105	427811	keystroke_j	j	n/a
214.0855	0.225	428171	keystroke_e	e	n/a
214.2355	0.105	428471	keystroke_w	w	n/a
214.8055	0.075	429611	keystroke_i	i	n/a
214.9245	0.1205	429849	keystroke_s	s	n/a
215.075	0.075	430150	keystroke_h	h	n/a
215.195	0.105	430390	keystroke_Key.space	Key.space	n/a
215.48	0.18	430960	keystroke_v	v	n/a
215.6	0.15	431200	keystroke_a	a	n/a
216.59	0.15	433180	keystroke_r	r	n/a
216.755	0.075	433510	keystroke_y	y	n/a
216.875	0.15	433750	keystroke_Key.space	Key.space	n/a
217.205	0.075	434410	keystroke_o	o	n/a
217.385	0.105	434770	keystroke_r	r	n/a
217.55	0.075	435100	keystroke_l	l	n/a
217.685	0.105	435370	keystroke_a	a	n/a
217.82	0.075	435640	keystroke_n	n	n/a
217.925	0.105	435850	keystroke_d	d	n/a
218.1805	0.1045	436361	keystroke_o	o	n/a
218.5105	0.075	437021	keystroke_Key.enter	Key.enter	n/a
218.5935	13.8685	437187	prompt	n/a	houses asthma fraction recipes\n
219.5305	0.121	439061	keystroke_h	h	n/a
219.6355	0.135	439271	keystroke_o	o	n/a
219.7405	0.09	439481	keystroke_u	u	n/a
219.8455	0.2095	439691	keystroke_s	s	n/a
221.2405	0.105	442481	keystroke_e	e	n/a
221.4805	0.09	442961	keystroke_s	s	n/a
221.6145	0.12	443229	keystroke_Key.space	Key.space	n/a
222.0355	0.09	444071	keystroke_a	a	n/a
222.3345	0.105	444669	keystroke_s	s	n/a
222.9355	0.1345	445871	keystroke_t	t	n/a
223.1	0.075	446200	keystroke_h	h	n/a
223.416	0.134	446832	keystroke_m	m	n/a
223.565	0.09	447130	keystroke_a	a	n/a
223.775	0.045	447550	keystroke_Key.space	Key.space	n/a
224.375	0.165	448750	keystroke_f	f	n/a
224.78	0.12	449560	keystroke_r	r	n/a
224.93	0.105	449860	keystroke_a	a	n/a
225.065	0.135	450130	keystroke_c	c	n/a
225.29	0.12	450580	keystroke_t	t	n/a
225.395	0.18	450790	keystroke_i	i	n/a
225.47	0.12	450940	keystroke_o	o	n/a
225.56	0.135	451120	keystroke_n	n	n/a
225.98	0.135	451960	keystroke_r	r	n/a
226.07	0.105	452140	keystroke_e	e	n/a
226.34	0.135	452680	keystroke_c	c	n/a
226.67	0.075	453340	keystroke_i	i	n/a
226.91	0.105	453820	keystroke_e	e	n/a
227.33	0.075	454660	keystroke_Key.backspace	Key.backspace	n/a
227.495	0.045	454990	keystroke_Key.backspace	Key.backspace	n/a
227.645	0.045	455290	keystroke_Key.backspace	Key.backspace	n/a
227.78	0.06	455560	keystroke_Key.backspace	Key.backspace	n/a
227.93	0.105	455860	keystroke_Key.backspace	Key.backspace	n/a
228.395	0.075	456790	keystroke_Key.space	Key.space	n/a
228.8005	0.135	457601	keystroke_r	r	n/a
228.9055	0.105	457811	keystroke_e	e	n/a
229.145	0.105	458290	keystroke_c	c	n/a
229.9405	0.18	459881	keystroke_i	i	n/a
230.3305	0.06	460661	keystroke_p	p	n/a
230.7055	0.105	461411	keystroke_s	s	n/a
231.2005	0.059	462401	keystroke_Key.backspace	Key.backspace	n/a
231.2895	0.106	462579	keystroke_e	e	n/a
231.5305	0.074	463061	keystroke_s	s	n/a
232.4005	0.059	464801	keystroke_Key.enter	Key.enter	n/a
232.4665	11.6355	464933	prompt	n/a	assignment arctic sold watts\n
233.6605	0.104	467321	keystroke_a	a	n/a
233.9295	0.075	467859	keystroke_s	s	n/a
234.1095	0.075	468219	keystroke_s	s	n/a
234.2445	0.075	468489	keystroke_i	i	n/a
234.9195	0.075	469839	keystroke_g	g	n/a
235.145	0.09	470290	keystroke_n	n	n/a
235.415	0.12	470830	keystroke_m	m	n/a
235.565	0.105	471130	keystroke_e	e	n/a
235.67	0.075	471340	keystroke_n	n	n/a
235.775	0.09	471550	keystroke_t	t	n/a
237.17	0.075	474340	keystroke_Key.space	Key.space	n/a
238.0105	0.12	476021	keystroke_a	a	n/a
238.3405	0.12	476681	keystroke_r	r	n/a
238.8055	0.12	477611	keystroke_c	c	n/a
239.1355	0.135	478271	keystroke_t	t	n/a
239.4205	0.075	478841	keystroke_i	i	n/a
239.6005	0.135	479201	keystroke_c	c	n/a
239.9295	0.105	479859	keystroke_Key.space	Key.space	n/a
240.3505	0.12	480701	keystroke_s	s	n/a
240.4555	0.075	480911	keystroke_o	o	n/a
240.6355	0.075	481271	keystroke_l	l	n/a
240.7555	0.075	481511	keystroke_d	d	n/a
240.8605	0.074	481721	keystroke_Key.space	Key.space	n/a
242.0305	0.18	484061	keystroke_w	w	n/a
242.1505	0.12	484301	keystroke_a	a	n/a
243.2755	0.06	486551	keystroke_t	t	n/a
243.4395	0.091	486879	keystroke_t	t	n/a
243.6955	0.09	487391	keystroke_s	s	n/a
244.0245	0.075	488049	keystroke_Key.enter	Key.enter	n/a
244.1085	14.679	488217	prompt	n/a	czech sole bailey murphy\n
244.925	0.151	489850	keystroke_c	c	n/a
245.225	0.105	490450	keystroke_r	r	n/a
245.51	0.105	491020	keystroke_z	z	n/a
246.35	0.075	492700	keystroke_Key.backspace	Key.backspace	n/a
246.485	0.105	492970	keystroke_e	e	n/a
246.77	0.12	493540	keystroke_z	z	n/a
247.4	0.045	494800	keystroke_Key.backspace	Key.backspace	n/a
247.475	0.12	494950	keystroke_c	c	n/a
247.82	0.075	495640	keystroke_h	h	n/a
248.225	0.135	496450	keystroke_Key.space	Key.space	n/a
250.5975	0.013	501195	keystroke_Key.backspace	Key.backspace	n/a
250.7005	0.06	501401	keystroke_Key.backspace	Key.backspace	n/a
250.8505	0.06	501701	keystroke_Key.backspace	Key.backspace	n/a
251.0005	0.06	502001	keystroke_Key.backspace	Key.backspace	n/a
251.1505	0.06	502301	keystroke_Key.backspace	Key.backspace	n/a
251.5405	0.12	503081	keystroke_z	z	n/a
252.1855	0.09	504371	keystroke_e	e	n/a
252.4555	0.12	504911	keystroke_c	c	n/a
252.6055	0.09	505211	keystroke_h	h	n/a
252.7555	0.105	505511	keystroke_Key.space	Key.space	n/a
253.5055	0.12	507011	keystroke_s	s	n/a
253.6405	0.045	507281	keystroke_o	o	n/a
253.8055	0.06	507611	keystroke_l	l	n/a
253.9705	0.045	507941	keystroke_o	o	n/a
254.3895	0.045	508779	keystroke_Key.backspace	Key.backspace	n/a
254.5555	0.09	509111	keystroke_e	e	n/a
255.1405	0.06	510281	keystroke_Key.space	Key.space	n/a
255.6205	0.12	511241	keystroke_b	b	n/a
255.8145	0.106	511629	keystroke_a	a	n/a
256.0845	0.076	512169	keystroke_i	i	n/a
256.2355	0.1045	512471	keystroke_l	l	n/a
256.446	0.104	512892	keystroke_e	e	n/a
256.581	0.074	513162	keystroke_y	y	n/a
256.715	0.105	513430	keystroke_Key.space	Key.space	n/a
257.106	0.134	514212	keystroke_m	m	n/a
257.39	0.075	514780	keystroke_u	u	n/a
257.556	0.149	515112	keystroke_r	r	n/a
257.78	0.135	515560	keystroke_p	p	n/a
257.976	0.104	515952	keystroke_h	h	n/a
258.245	0.06	516490	keystroke_y	y	n/a
258.71	0.075	517420	keystroke_Key.enter	Key.enter	n/a
258.7935	8.7245	517587	prompt	n/a	outcome mail monitor universal\n
259.595	0.18	519190	keystroke_o	o	n/a
259.76	0.06	519520	keystroke_u	u	n/a
259.865	0.105	519730	keystroke_t	t	n/a
260.15	0.135	520300	keystroke_c	c	n/a
260.33	0.15	520660	keystroke_o	o	n/a
260.495	0.12	520990	keystroke_m	m	n/a
260.63	0.09	521260	keystroke_e	e	n/a
260.765	0.09	521530	keystroke_Key.space	Key.space	n/a
261.23	0.12	522460	keystroke_m	m	n/a
261.365	0.105	522730	keystroke_a	a	n/a
261.455	0.12	522910	keystroke_i	i	n/a
261.53	0.135	523060	keystroke_l	l	n/a
261.68	0.09	523360	keystroke_Key.space	Key.space	n/a
262.37	0.135	524740	keystroke_m	m	n/a
262.551	0.059	525102	keystroke_o	o	n/a
262.611	0.104	525222	keystroke_n	n	n/a
263.105	0.105	526210	keystroke_i	i	n/a
263.27	0.135	526540	keystroke_t	t	n/a
263.495	0.075	526990	keystroke_o	o	n/a
263.705	0.105	527410	keystroke_r	r	n/a
264.4705	0.105	528941	keystroke_Key.space	Key.space	n/a
264.7855	0.045	529571	keystroke_u	u	n/a
264.9655	0.09	529931	keystroke_n	n	n/a
265.611	0.06	531222	keystroke_i	i	n/a
265.776	0.149	531552	keystroke_v	v	n/a
266.315	0.18	532630	keystroke_e	e	n/a
266.48	0.09	532960	keystroke_r	r	n/a
266.736	0.149	533472	keystroke_s	s	n/a
266.961	0.104	533922	keystroke_a	a	n/a
267.125	0.09	534250	keystroke_l	l	n/a
267.425	0.09	534850	keystroke_Key.enter	Key.enter	n/a
267.526	14.5415	535052	prompt	n/a	announces perception centre headquarters\n
268.34	0.105	536680	keystroke_a	a	n/a
268.595	0.015	537190	keystroke_n	n	n/a
268.685	0.06	537370	keystroke_n	n	n/a
269.375	0.15	538750	keystroke_o	o	n/a
269.51	0.0605	539020	keystroke_u	u	n/a
269.72	0.06	539440	keystroke_n	n	n/a
270.23	0.105	540460	keystroke_c	c	n/a
270.5155	0.015	541031	keystroke_e	e	n/a
270.6355	0.075	541271	keystroke_s	s	n/a
270.7705	0.075	541541	keystroke_Key.space	Key.space	n/a
271.3555	0.015	542711	keystroke_p	p	n/a
271.3855	0.045	542771	keystroke_e	e	n/a
271.4155	0.105	542831	keystroke_r	r	n/a
271.8205	0.105	543641	keystroke_c	c	n/a
272.0305	0.075	544061	keystroke_e	e	n/a
272.2105	0.09	544421	keystroke_p	p	n/a
272.6455	0.09	545291	keystroke_t	t	n/a
272.7505	0.135	545501	keystroke_i	i	n/a
272.8255	0.135	545651	keystroke_o	o	n/a
272.9455	0.09	545891	keystroke_n	n	n/a
273.3955	0.075	546791	keystroke_Key.space	Key.space	n/a
273.8455	0.105	547691	keystroke_c	c	n/a
274.0705	0.075	548141	keystroke_e	e	n/a
274.1755	0.06	548351	keystroke_n	n	n/a
274.3105	0.075	548621	keystroke_t	t	n/a
274.536	0.09	549072	keystroke_r	r	n/a
274.986	0.074	549972	keystroke_e	e	n/a
275.4205	0.09	550841	keystroke_Key.space	Key.space	n/a
275.7955	0.06	551591	keystroke_h	h	n/a
275.9005	0.135	551801	keystroke_e	e	n/a
275.9755	0.135	551951	keystroke_a	a	n/a
276.2005	0.075	552401	keystroke_d	d	n/a
279.6525	0.028	559305	keystroke_q	q	n/a
279.8455	0.0755	559691	keystroke_u	u	n/a
280.176	0.105	560352	keystroke_a	a	n/a
280.761	0.105	561522	keystroke_r	r	n/a
280.985	0.075	561970	keystroke_t	t	n/a
281.165	0.18	562330	keystroke_e	e	n/a
281.33	0.091	562660	keystroke_r	r	n/a
281.63	0.075	563260	keystroke_s	s	n/a
281.975	0.09	563950	keystroke_Key.enter	Key.enter	n/a
282.0755	13.4765	564151	prompt	n/a	kernel machinery referring tradition\n
283.115	0.0905	566230	keystroke_k	k	n/a
283.3405	0.135	566681	keystroke_e	e	n/a
283.4765	0.104	566953	keystroke_r	r	n/a
283.6855	0.09	567371	keystroke_n	n	n/a
283.8355	0.1045	567671	keystroke_a	a	n/a
284.12	0.09	568240	keystroke_l	l	n/a
284.6155	0.075	569231	keystroke_Key.backspace	Key.backspace	n/a
284.7655	0.075	569531	keystroke_Key.backspace	Key.backspace	n/a
284.9005	0.075	569801	keystroke_e	e	n/a
285.0355	0.075	570071	keystroke_l	l	n/a
285.2155	0.075	570431	keystroke_Key.space	Key.space	n/a
285.9205	0.12	571841	keystroke_m	m	n/a
286.0705	0.105	572141	keystroke_a	a	n/a
286.4905	0.105	572981	keystroke_c	c	n/a
286.7155	0.105	573431	keystroke_h	h	n/a
286.9705	0.09	573941	keystroke_i	i	n/a
287.1205	0.09	574241	keystroke_n	n	n/a
287.3305	0.15	574661	keystroke_e	e	n/a
287.5255	0.12	575051	keystroke_r	r	n/a
287.8105	0.075	575621	keystroke_y	y	n/a
287.9905	0.09	575981	keystroke_Key.space	Key.space	n/a
288.771	0.12	577542	keystroke_r	r	n/a
288.861	0.105	577722	keystroke_e	e	n/a
289.716	0.149	579432	keystroke_f	f	n/a
289.88	0.151	579760	keystroke_e	e	n/a
290.015	0.12	580030	keystroke_r	r	n/a
290.51	0.136	581020	keystroke_r	r	n/a
290.63	0.105	581260	keystroke_i	i	n/a
290.751	0.059	581502	keystroke_n	n	n/a
290.855	0.105	581710	keystroke_g	g	n/a
291.005	0.09	582010	keystroke_Key.space	Key.space	n/a
291.605	0.045	583210	keystroke_t	t	n/a
291.77	0.12	583540	keystroke_r	r	n/a
291.965	0.105	583930	keystroke_a	a	n/a
292.49	0.105	584980	keystroke_d	d	n/a
293.165	0.06	586330	keystroke_i	i	n/a
293.27	0.09	586540	keystroke_t	t	n/a
294.365	0.1955	588730	keystroke_i	i	n/a
294.5005	0.135	589001	keystroke_o	o	n/a
294.6055	0.12	589211	keystroke_n	n	n/a
295.4905	0.06	590981	keystroke_Key.enter	Key.enter	n/a
295.5575	8.8445	591115	prompt	n/a	weather clusters quick applications\n
296.4055	0.225	592811	keystroke_w	w	n/a
297.0655	0.165	594131	keystroke_e	e	n/a
297.1855	0.15	594371	keystroke_a	a	n/a
297.4255	0.135	594851	keystroke_t	t	n/a
297.7255	0.06	595451	keystroke_h	h	n/a
297.8305	0.105	595661	keystroke_e	e	n/a
297.9205	0.135	595841	keystroke_r	r	n/a
298.2205	0.03	596441	keystroke_Key.space	Key.space	n/a
298.8205	0.135	597641	keystroke_c	c	n/a
298.9855	0.105	597971	keystroke_l	l	n/a
299.2555	0.045	598511	keystroke_u	u	n/a
299.4205	0.09	598841	keystroke_s	s	n/a
299.8105	0.135	599621	keystroke_t	t	n/a
300.0205	0.135	600041	keystroke_e	e	n/a
300.1255	0.12	600251	keystroke_r	r	n/a
300.3655	0.105	600731	keystroke_s	s	n/a
300.6205	0.09	601241	keystroke_Key.space	Key.space	n/a
300.9805	0.105	601961	keystroke_q	q	n/a
301.2055	0.12	602411	keystroke_u	u	n/a
301.3405	0.0905	602681	keystroke_i	i	n/a
301.506	0.105	603012	keystroke_c	c	n/a
301.626	0.09	603252	keystroke_k	k	n/a
301.986	0.045	603972	keystroke_Key.space	Key.space	n/a
302.361	0.105	604722	keystroke_a	a	n/a
302.601	0.09	605202	keystroke_p	p	n/a
302.796	0.06	605592	keystroke_p	p	n/a
303.006	0.105	606012	keystroke_l	l	n/a
303.1555	0.075	606311	keystroke_i	i	n/a
303.3355	0.1505	606671	keystroke_c	c	n/a
303.501	0.089	607002	keystroke_a	a	n/a
303.666	0.09	607332	keystroke_t	t	n/a
303.726	0.165	607452	keystroke_i	i	n/a
303.801	0.105	607602	keystroke_o	o	n/a
303.906	0.105	607812	keystroke_n	n	n/a
304.07	0.105	608140	keystroke_s	s	n/a
304.325	0.0755	608650	keystroke_Key.enter	Key.enter	n/a
304.407	10.15	608814	prompt	n/a	subject periods indicate united\n
305.226	0.0895	610452	keystroke_s	s	n/a
305.4355	0.075	610871	keystroke_u	u	n/a
305.5705	0.09	611141	keystroke_b	b	n/a
306.1705	0.105	612341	keystroke_j	j	n/a
306.3655	0.075	612731	keystroke_e	e	n/a
306.5755	0.12	613151	keystroke_c	c	n/a
306.7855	0.09	613571	keystroke_t	t	n/a
306.8905	0.105	613781	keystroke_Key.space	Key.space	n/a
307.3405	0.105	614681	keystroke_p	p	n/a
307.5205	0.15	615041	keystroke_e	e	n/a
307.6405	0.105	615281	keystroke_r	r	n/a
308.1655	0.105	616331	keystroke_i	i	n/a
308.6305	0.105	617261	keystroke_o	o	n/a
308.9305	0.12	617861	keystroke_s	s	n/a
309.515	0.061	619030	keystroke_Key.backspace	Key.backspace	n/a
309.59	0.151	619180	keystroke_d	d	n/a
309.771	0.105	619542	keystroke_s	s	n/a
309.98	0.09	619960	keystroke_Key.space	Key.space	n/a
310.7455	0.075	621491	keystroke_i	i	n/a
310.8655	0.105	621731	keystroke_n	n	n/a
311.0155	0.105	622031	keystroke_d	d	n/a
311.1505	0.06	622301	keystroke_i	i	n/a
311.2705	0.165	622541	keystroke_c	c	n/a
311.4055	0.105	622811	keystroke_a	a	n/a
311.6455	0.105	623291	keystroke_t	t	n/a
311.7655	0.12	623531	keystroke_e	e	n/a
312.9795	0.105	625959	keystroke_Key.space	Key.space	n/a
313.2505	0.0745	626501	keystroke_u	u	n/a
313.446	0.1195	626892	keystroke_n	n	n/a
313.5955	0.075	627191	keystroke_i	i	n/a
313.6855	0.12	627371	keystroke_t	t	n/a
314.0605	0.075	628121	keystroke_e	e	n/a
314.2555	0.09	628511	keystroke_d	d	n/a
314.4805	0.075	628961	keystroke_Key.enter	Key.enter	n/a
314.565	10.4465	629130	prompt	n/a	accounting johnny consultancy exams\n
315.6805	0.18	631361	keystroke_a	a	n/a
315.9205	0.075	631841	keystroke_c	c	n/a
316.0855	0.09	632171	keystroke_c	c	n/a
316.2355	0.12	632471	keystroke_o	o	n/a
316.3105	0.09	632621	keystroke_u	u	n/a
316.5205	0.09	633041	keystroke_n	n	n/a
317.1655	0.12	634331	keystroke_t	t	n/a
317.2855	0.09	634571	keystroke_i	i	n/a
317.3455	0.12	634691	keystroke_n	n	n/a
317.4955	0.09	634991	keystroke_g	g	n/a
317.5705	0.09	635141	keystroke_Key.space	Key.space	n/a
317.9005	0.135	635801	keystroke_j	j	n/a
318.0355	0.09	636071	keystroke_o	o	n/a
318.876	0.0595	637752	keystroke_h	h	n/a
319.1755	0.075	638351	keystroke_n	n	n/a
319.3255	0.105	638651	keystroke_n	n	n/a
319.5655	0.045	639131	keystroke_y	y	n/a
319.716	0.074	639432	keystroke_Key.space	Key.space	n/a
320.075	0.136	640150	keystroke_c	c	n/a
320.165	0.105	640330	keystroke_o	o	n/a
320.241	0.104	640482	keystroke_n	n	n/a
320.525	0.075	641050	keystroke_s	s	n/a
320.855	0.06	641710	keystroke_u	u	n/a
321.035	0.091	642070	keystroke_l	l	n/a
321.395	0.12	642790	keystroke_t	t	n/a
321.575	0.136	643150	keystroke_a	a	n/a
321.755	0.09	643510	keystroke_n	n	n/a
322.145	0.135	644290	keystroke_c	c	n/a
322.37	0.06	644740	keystroke_y	y	n/a
323.69	0.105	647380	keystroke_Key.space	Key.space	n/a
324.02	0.105	648040	keystroke_e	e	n/a
324.245	0.195	648490	keystroke_x	x	n/a
324.41	0.12	648820	keystroke_a	a	n/a
324.59	0.12	649180	keystroke_m	m	n/a
324.725	0.105	649450	keystroke_s	s	n/a
324.935	0.075	649870	keystroke_Key.enter	Key.enter	n/a
325.0165	11.7255	650033	prompt	n/a	polo greatly dual statutory\n
325.88	0.12	651760	keystroke_p	p	n/a
326.27	0.075	652540	keystroke_o	o	n/a
326.45	0.09	652900	keystroke_l	l	n/a
326.63	0.06	653260	keystroke_o	o	n/a
326.81	0.09	653620	keystroke_Key.space	Key.space	n/a
327.455	0.105	654910	keystroke_g	g	n/a
327.83	0.15	655660	keystroke_r	r	n/a
327.935	0.15	655870	keystroke_e	e	n/a
328.04	0.135	656080	keystroke_a	a	n/a
328.79	0.105	657580	keystroke_t	t	n/a
329.03	0.105	658060	keystroke_l	l	n/a
329.285	0.06	658570	keystroke_y	y	n/a
329.39	0.135	658780	keystroke_Key.space	Key.space	n/a
329.63	0.12	659260	keystroke_d	d	n/a
329.78	0.09	659560	keystroke_u	u	n/a
329.93	0.12	659860	keystroke_a	a	n/a
330.065	0.105	660130	keystroke_l	l	n/a
330.515	0.12	661030	keystroke_Key.space	Key.space	n/a
331.025	0.135	662050	keystroke_s	s	n/a
331.145	0.135	662290	keystroke_a	a	n/a
331.4	0.105	662800	keystroke_t	t	n/a
332.555	0.045	665110	keystroke_Key.backspace	Key.backspace	n/a
332.765	0.015	665530	keystroke_Key.backspace	Key.backspace	n/a
333.875	0.075	667750	keystroke_t	t	n/a
334.01	0.135	668020	keystroke_a	a	n/a
334.805	0.105	669610	keystroke_t	t	n/a
335.09	0.045	670180	keystroke_u	u	n/a
335.54	0.105	671080	keystroke_t	t	n/a
336.095	0.075	672190	keystroke_o	o	n/a
336.26	0.105	672520	keystroke_r	r	n/a
336.425	0.075	672850	keystroke_y	y	n/a
336.665	0.075	673330	keystroke_Key.enter	Key.enter	n/a
336.7485	6.9385	673497	prompt	n/a	if vienna allocation planner\n
337.505	0.075	675010	keystroke_i	i	n/a
337.67	0.12	675340	keystroke_f	f	n/a
337.805	0.105	675610	keystroke_Key.space	Key.space	n/a
338.135	0.12	676270	keystroke_v	v	n/a
338.5705	0.0595	677141	keystroke_i	i	n/a
338.9605	0.12	677921	keystroke_e	e	n/a
339.3205	0.06	678641	keystroke_n	n	n/a
339.4555	0.09	678911	keystroke_n	n	n/a
339.5905	0.09	679181	keystroke_a	a	n/a
339.6955	0.105	679391	keystroke_Key.space	Key.space	n/a
339.9955	0.09	679991	keystroke_a	a	n/a
340.1605	0.045	680321	keystroke_l	l	n/a
340.2955	0.075	680591	keystroke_l	l	n/a
340.5655	0.06	681131	keystroke_o	o	n/a
340.8505	0.135	681701	keystroke_c	c	n/a
341.0005	0.105	682001	keystroke_a	a	n/a
341.2105	0.09	682421	keystroke_t	t	n/a
341.3155	0.105	682631	keystroke_i	i	n/a
341.3605	0.12	682721	keystroke_o	o	n/a
341.4655	0.12	682931	keystroke_n	n	n/a
341.6305	0.105	683261	keystroke_Key.space	Key.space	n/a
342.0055	0.074	684011	keystroke_p	p	n/a
342.2455	0.075	684491	keystroke_l	l	n/a
342.5155	0.135	685031	keystroke_a	a	n/a
342.8455	0.06	685691	keystroke_n	n	n/a
343.0105	0.06	686021	keystroke_n	n	n/a
343.1445	0.12	686289	keystroke_e	e	n/a
343.2505	0.105	686501	keystroke_r	r	n/a
343.5645	0.12	687129	keystroke_Key.enter	Key.enter	n/a
343.695	9.517	687390	prompt	n/a	fighter fault circulation alex\n
344.5695	0.135	689139	keystroke_f	f	n/a
344.7055	0.089	689411	keystroke_i	i	n/a
344.8545	0.12	689709	keystroke_g	g	n/a
344.9895	0.075	689979	keystroke_h	h	n/a
345.545	0.105	691090	keystroke_t	t	n/a
345.725	0.12	691450	keystroke_e	e	n/a
345.815	0.105	691630	keystroke_r	r	n/a
346.04	0.075	692080	keystroke_Key.space	Key.space	n/a
346.61	0.15	693220	keystroke_f	f	n/a
346.715	0.12	693430	keystroke_a	a	n/a
347.12	0.06	694240	keystroke_u	u	n/a
347.405	0.09	694810	keystroke_l	l	n/a
347.57	0.09	695140	keystroke_t	t	n/a
348.26	0.09	696520	keystroke_Key.space	Key.space	n/a
348.77	0.12	697540	keystroke_c	c	n/a
348.98	0.06	697960	keystroke_i	i	n/a
349.67	0.1205	699340	keystroke_r	r	n/a
350.0155	0.12	700031	keystroke_c	c	n/a
350.2255	0.06	700451	keystroke_u	u	n/a
350.4345	0.076	700869	keystroke_l	l	n/a
350.5395	0.135	701079	keystroke_a	a	n/a
350.7795	0.09	701559	keystroke_t	t	n/a
351.1245	0.24	702249	keystroke_i	i	n/a
351.2455	0.134	702491	keystroke_o	o	n/a
351.351	0.1185	702702	keystroke_n	n	n/a
351.6945	0.075	703389	keystroke_Key.space	Key.space	n/a
352.34	0.12	704680	keystroke_a	a	n/a
352.49	0.09	704980	keystroke_l	l	n/a
352.626	0.104	705252	keystroke_e	e	n/a
352.851	0.149	705702	keystroke_x	x	n/a
353.135	0.075	706270	keystroke_Key.enter	Key.enter	n/a
353.2175	8.965	706435	prompt	n/a	crash certified papua dresses\n
353.975	0.15	707950	keystroke_c	c	n/a
354.245	0.15	708490	keystroke_r	r	n/a
354.35	0.135	708700	keystroke_a	a	n/a
354.68	0.09	709360	keystroke_s	s	n/a
354.98	0.075	709960	keystroke_h	h	n/a
355.175	0.075	710350	keystroke_Key.space	Key.space	n/a
355.7	0.105	711400	keystroke_c	c	n/a
355.94	0.12	711880	keystroke_e	e	n/a
356.045	0.12	712090	keystroke_r	r	n/a
356.3	0.09	712600	keystroke_t	t	n/a
356.585	0.06	713170	keystroke_i	i	n/a
356.75	0.09	713500	keystroke_f	f	n/a
356.885	0.06	713770	keystroke_i	i	n/a
357.11	0.09	714220	keystroke_e	e	n/a
357.32	0.075	714640	keystroke_d	d	n/a
357.5	0.09	715000	keystroke_Key.space	Key.space	n/a
358.0555	0.105	716111	keystroke_p	p	n/a
358.4155	0.09	716831	keystroke_a	a	n/a
358.6105	0.075	717221	keystroke_p	p	n/a
359.0755	0.09	718151	keystroke_u	u	n/a
359.2555	0.09	718511	keystroke_a	a	n/a
359.3905	0.105	718781	keystroke_Key.space	Key.space	n/a
359.7505	0.12	719501	keystroke_d	d	n/a
360.4255	0.135	720851	keystroke_r	r	n/a
360.5905	0.15	721181	keystroke_e	e	n/a
360.9205	0.06	721841	keystroke_s	s	n/a
361.0855	0.075	722171	keystroke_s	s	n/a
361.34	0.09	722680	keystroke_e	e	n/a
361.55	0.09	723100	keystroke_s	s	n/a
362.09	0.09	724180	keystroke_Key.enter	Key.enter	n/a
362.1875	11.68	724375	prompt	n/a	contrast seas resource properly\n
363.005	0.135	726010	keystroke_c	c	n/a
363.11	0.075	726220	keystroke_o	o	n/a
363.17	0.105	726340	keystroke_n	n	n/a
363.62	0.09	727240	keystroke_t	t	n/a
363.845	0.15	727690	keystroke_r	r	n/a
364.6705	0.105	729341	keystroke_a	a	n/a
364.8655	0.12	729731	keystroke_s	s	n/a
365.1055	0.105	730211	keystroke_t	t	n/a
365.2705	0.09	730541	keystroke_Key.space	Key.space	n/a
365.9005	0.105	731801	keystroke_s	s	n/a
366.0355	0.18	732071	keystroke_e	e	n/a
366.1705	0.135	732341	keystroke_a	a	n/a
366.4705	0.075	732941	keystroke_s	s	n/a
366.8755	0.075	733751	keystroke_Key.space	Key.space	n/a
367.2505	0.12	734501	keystroke_r	r	n/a
367.3405	0.105	734681	keystroke_e	e	n/a
368.3005	0.09	736601	keystroke_s	s	n/a
368.8545	0.151	737709	keystroke_o	o	n/a
369.0205	0.074	738041	keystroke_u	u	n/a
369.2445	0.106	738489	keystroke_r	r	n/a
369.5755	0.089	739151	keystroke_c	c	n/a
369.7705	0.074	739541	keystroke_e	e	n/a
369.9045	0.105	739809	keystroke_Key.space	Key.space	n/a
370.4755	0.105	740951	keystroke_p	p	n/a
370.8355	0.12	741671	keystroke_r	r	n/a
371.0005	0.09	742001	keystroke_o	o	n/a
372.0355	0.075	744071	keystroke_p	p	n/a
372.6655	0.15	745331	keystroke_e	e	n/a
372.7855	0.135	745571	keystroke_r	r	n/a
372.9955	0.12	745991	keystroke_l	l	n/a
373.2655	0.075	746531	keystroke_y	y	n/a
373.7755	0.09	747551	keystroke_Key.enter	Key.enter	n/a
373.8725	9.9545	747745	prompt	n/a	jennifer component maybe clock\n
374.6755	0.105	749351	keystroke_j	j	n/a
374.8555	0.09	749711	keystroke_e	e	n/a
375.0505	0.075	750101	keystroke_n	n	n/a
375.6505	0.075	751301	keystroke_n	n	n/a
375.8455	0.06	751691	keystroke_i	i	n/a
376.0405	0.15	752081	keystroke_f	f	n/a
376.1755	0.15	752351	keystroke_e	e	n/a
376.2955	0.105	752591	keystroke_r	r	n/a
377.0745	0.105	754149	keystroke_Key.space	Key.space	n/a
377.3305	0.134	754661	keystroke_c	c	n/a
377.4195	0.09	754839	keystroke_o	o	n/a
378.5895	0.105	757179	keystroke_m	m	n/a
379.1	0.1045	758200	keystroke_p	p	n/a
379.3245	0.1055	758649	keystroke_o	o	n/a
379.49	0.09	758980	keystroke_n	n	n/a
380.015	0.105	760030	keystroke_e	e	n/a
380.165	0.075	760330	keystroke_n	n	n/a
380.345	0.09	760690	keystroke_t	t	n/a
380.495	0.09	760990	keystroke_Key.space	Key.space	n/a
381.17	0.15	762340	keystroke_m	m	n/a
381.305	0.135	762610	keystroke_a	a	n/a
381.515	0.075	763030	keystroke_y	y	n/a
381.68	0.135	763360	keystroke_b	b	n/a
381.845	0.12	763690	keystroke_e	e	n/a
381.995	0.105	763990	keystroke_Key.space	Key.space	n/a
382.715	0.12	765430	keystroke_c	c	n/a
383.03	0.06	766060	keystroke_l	l	n/a
383.18	0.06	766360	keystroke_o	o	n/a
383.33	0.105	766660	keystroke_c	c	n/a
383.42	0.105	766840	keystroke_k	k	n/a
383.75	0.075	767500	keystroke_Key.enter	Key.enter	n/a
383.8325	13.5995	767665	prompt	n/a	headquarters error aggregate briefs\n
384.65	0.075	769300	keystroke_h	h	n/a
384.755	0.12	769510	keystroke_e	e	n/a
384.845	0.105	769690	keystroke_a	a	n/a
385.146	0.0745	770292	keystroke_d	d	n/a
385.7905	0.1195	771581	keystroke_q	q	n/a
385.9705	0.105	771941	keystroke_u	u	n/a
386.4655	0.135	772931	keystroke_a	a	n/a
386.7355	0.105	773471	keystroke_r	r	n/a
386.9455	0.09	773891	keystroke_t	t	n/a
388.8505	0.165	777701	keystroke_e	e	n/a
389.0005	0.105	778001	keystroke_r	r	n/a
389.1805	0.089	778361	keystroke_s	s	n/a
389.3445	0.105	778689	keystroke_Key.space	Key.space	n/a
389.5705	0.105	779141	keystroke_e	e	n/a
389.7945	0.061	779589	keystroke_r	r	n/a
389.9455	0.09	779891	keystroke_r	r	n/a
390.0795	0.076	780159	keystroke_o	o	n/a
390.1695	0.09	780339	keystroke_r	r	n/a
390.3195	0.075	780639	keystroke_Key.space	Key.space	n/a
391.3545	0.106	782709	keystroke_a	a	n/a
391.6545	0.075	783309	keystroke_g	g	n/a
391.8355	0.074	783671	keystroke_g	g	n/a
392.675	0.165	785350	keystroke_r	r	n/a
392.855	0.075	785710	keystroke_e	e	n/a
393.35	0.135	786700	keystroke_g	g	n/a
393.5	0.075	787000	keystroke_a	a	n/a
393.59	0.135	787180	keystroke_t	t	n/a
393.71	0.09	787420	keystroke_e	e	n/a
394.4005	0.075	788801	keystroke_Key.space	Key.space	n/a
394.6855	0.09	789371	keystroke_b	b	n/a
394.9405	0.09	789881	keystroke_r	r	n/a
395.7955	0.09	791591	keystroke_e	e	n/a
396.3045	0.061	792609	keystroke_Key.backspace	Key.backspace	n/a
396.5755	0.044	793151	keystroke_i	i	n/a
396.6805	0.09	793361	keystroke_e	e	n/a
396.8905	0.104	793781	keystroke_f	f	n/a
397.1455	0.09	794291	keystroke_s	s	n/a
397.3555	0.074	794711	keystroke_Key.enter	Key.enter	n/a
397.437	12.0995	794874	prompt	n/a	cradle round forums cornell\n
398.2995	0.165	796599	keystroke_c	c	n/a
398.45	0.1205	796900	keystroke_a	a	n/a
399.305	0.075	798610	keystroke_Key.backspace	Key.backspace	n/a
399.47	0.15	798940	keystroke_r	r	n/a
399.635	0.12	799270	keystroke_a	a	n/a
400.475	0.12	800950	keystroke_d	d	n/a
400.67	0.075	801340	keystroke_l	l	n/a
400.805	0.075	801610	keystroke_e	e	n/a
400.925	0.09	801850	keystroke_Key.space	Key.space	n/a
402.05	0.135	804100	keystroke_r	r	n/a
402.17	0.105	804340	keystroke_o	o	n/a
402.23	0.09	804460	keystroke_u	u	n/a
402.455	0.075	804910	keystroke_n	n	n/a
402.545	0.09	805090	keystroke_d	d	n/a
402.605	0.105	805210	keystroke_Key.space	Key.space	n/a
402.905	0.135	805810	keystroke_f	f	n/a
403.205	0.09	806410	keystroke_o	o	n/a
403.4	0.09	806800	keystroke_r	r	n/a
404.09	0.105	808180	keystroke_u	u	n/a
404.39	0.12	808780	keystroke_m	m	n/a
404.6	0.09	809200	keystroke_s	s	n/a
404.705	0.09	809410	keystroke_Key.space	Key.space	n/a
405.08	0.135	810160	keystroke_c	c	n/a
405.2	0.075	810400	keystroke_o	o	n/a
405.29	0.09	810580	keystroke_n	n	n/a
405.605	0.105	811210	keystroke_r	r	n/a
406.865	0.06	813730	keystroke_Key.backspace	Key.backspace	n/a
407.015	0.09	814030	keystroke_Key.backspace	Key.backspace	n/a
407.225	0.105	814450	keystroke_r	r	n/a
407.375	0.076	814750	keystroke_n	n	n/a
408.17	0.045	816340	keystroke_e	e	n/a
408.86	0.06	817720	keystroke_l	l	n/a
409.19	0.105	818380	keystroke_l	l	n/a
409.445	0.09	818890	keystroke_Key.enter	Key.enter	n/a
409.5415	10.3605	819083	prompt	n/a	mentioned picture commonly bankruptcy\n
410.39	0.135	820780	keystroke_m	m	n/a
410.705	0.105	821410	keystroke_e	e	n/a
410.825	0.075	821650	keystroke_n	n	n/a
411.05	0.09	822100	keystroke_t	t	n/a
411.245	0.165	822490	keystroke_i	i	n/a
411.35	0.105	822700	keystroke_o	o	n/a
411.44	0.105	822880	keystroke_n	n	n/a
411.635	0.09	823270	keystroke_e	e	n/a
411.845	0.105	823690	keystroke_d	d	n/a
411.965	0.105	823930	keystroke_Key.space	Key.space	n/a
412.34	0.15	824680	keystroke_p	p	n/a
412.475	0.09	824950	keystroke_i	i	n/a
412.685	0.135	825370	keystroke_c	c	n/a
413	0.105	826000	keystroke_t	t	n/a
413.27	0.09	826540	keystroke_u	u	n/a
413.42	0.15	826840	keystroke_r	r	n/a
413.66	0.1355	827320	keystroke_e	e	n/a
414.2305	0.135	828461	keystroke_Key.space	Key.space	n/a
414.5155	0.15	829031	keystroke_c	c	n/a
414.6205	0.075	829241	keystroke_o	o	n/a
414.8755	0.075	829751	keystroke_m	m	n/a
415.0255	0.09	830051	keystroke_m	m	n/a
415.5805	0.105	831161	keystroke_o	o	n/a
415.7005	0.15	831401	keystroke_n	n	n/a
415.8205	0.135	831641	keystroke_l	l	n/a
416.0605	0.06	832121	keystroke_y	y	n/a
416.1505	0.12	832301	keystroke_Key.space	Key.space	n/a
416.5855	0.12	833171	keystroke_b	b	n/a
416.7055	0.105	833411	keystroke_a	a	n/a
416.8255	0.105	833651	keystroke_n	n	n/a
416.9605	0.075	833921	keystroke_k	k	n/a
417.9495	0.136	835899	keystroke_r	r	n/a
418.2195	0.151	836439	keystroke_u	u	n/a
418.3555	0.105	836711	keystroke_p	p	n/a
418.8645	0.12	837729	keystroke_t	t	n/a
419.1795	0.121	838359	keystroke_c	c	n/a
419.3145	0.075	838629	keystroke_y	y	n/a
419.7795	0.12	839559	keystroke_Key.enter	Key.enter	n/a
419.9085	8.588	839817	prompt	n/a	inch polls selection moments\n
420.7095	0.075	841419	keystroke_i	i	n/a
420.8145	0.12	841629	keystroke_n	n	n/a
421.0105	0.134	842021	keystroke_c	c	n/a
421.1145	0.075	842229	keystroke_h	h	n/a
421.6695	0.12	843339	keystroke_Key.space	Key.space	n/a
422.045	0.0895	844090	keystroke_p	p	n/a
422.2695	0.075	844539	keystroke_o	o	n/a
422.6	0.06	845200	keystroke_l	l	n/a
422.735	0.075	845470	keystroke_l	l	n/a
423.02	0.075	846040	keystroke_s	s	n/a
423.155	0.09	846310	keystroke_Key.space	Key.space	n/a
423.65	0.105	847300	keystroke_s	s	n/a
423.905	0.075	847810	keystroke_e	e	n/a
424.04	0.075	848080	keystroke_l	l	n/a
424.13	0.105	848260	keystroke_e	e	n/a
424.445	0.12	848890	keystroke_c	c	n/a
424.67	0.09	849340	keystroke_t	t	n/a
424.775	0.165	849550	keystroke_i	i	n/a
424.865	0.12	849730	keystroke_o	o	n/a
424.97	0.12	849940	keystroke_n	n	n/a
425.135	0.09	850270	keystroke_Key.space	Key.space	n/a
425.885	0.135	851770	keystroke_m	m	n/a
426.035	0.135	852070	keystroke_o	o	n/a
426.575	0.105	853150	keystroke_m	m	n/a
426.875	0.075	853750	keystroke_m	m	n/a
427.385	0.0595	854770	keystroke_Key.backspace	Key.backspace	n/a
427.6095	0.105	855219	keystroke_e	e	n/a
427.7445	0.06	855489	keystroke_n	n	n/a
427.8945	0.0905	855789	keystroke_t	t	n/a
428.165	0.0895	856330	keystroke_s	s	n/a
428.42	0.075	856840	keystroke_Key.enter	Key.enter	n/a
428.503	7.974	857006	prompt	n/a	players cafe museum closely\n
429.38	0.105	858760	keystroke_p	p	n/a
429.56	0.135	859120	keystroke_l	l	n/a
429.71	0.105	859420	keystroke_a	a	n/a
429.845	0.06	859690	keystroke_y	y	n/a
430.22	0.12	860440	keystroke_Key.space	Key.space	n/a
430.46	0.165	860920	keystroke_c	c	n/a
430.595	0.135	861190	keystroke_a	a	n/a
430.91	0.18	861820	keystroke_f	f	n/a
431.075	0.105	862150	keystroke_e	e	n/a
431.3	0.09	862600	keystroke_Key.space	Key.space	n/a
431.945	0.135	863890	keystroke_m	m	n/a
432.26	0.105	864520	keystroke_u	u	n/a
432.575	0.165	865150	keystroke_s	s	n/a
433.235	0.12	866470	keystroke_e	e	n/a
433.46	0.09	866920	keystroke_u	u	n/a
433.82	0.165	867640	keystroke_m	m	n/a
434	0.12	868000	keystroke_Key.space	Key.space	n/a
434.4955	0.135	868991	keystroke_c	c	n/a
434.6155	0.09	869231	keystroke_l	l	n/a
434.7805	0.075	869561	keystroke_o	o	n/a
434.9155	0.18	869831	keystroke_s	s	n/a
435.38	0.12	870760	keystroke_e	e	n/a
435.53	0.1205	871060	keystroke_l	l	n/a
435.8005	0.06	871601	keystroke_y	y	n/a
436.3855	0.09	872771	keystroke_Key.enter	Key.enter	n/a
436.482	9.8795	872964	prompt	n/a	samples revenue trails uses\n
437.4505	0.165	874901	keystroke_s	s	n/a
437.5555	0.135	875111	keystroke_a	a	n/a
437.7055	0.195	875411	keystroke_m	m	n/a
437.9605	0.105	875921	keystroke_p	p	n/a
438.1105	0.12	876221	keystroke_l	l	n/a
438.2895	0.091	876579	keystroke_e	e	n/a
438.8305	0.09	877661	keystroke_s	s	n/a
438.9795	0.09	877959	keystroke_Key.space	Key.space	n/a
439.3255	0.12	878651	keystroke_r	r	n/a
439.4155	0.089	878831	keystroke_e	e	n/a
439.6395	0.09	879279	keystroke_v	v	n/a
439.7745	0.076	879549	keystroke_i	i	n/a
439.8795	0.166	879759	keystroke_e	e	n/a
440.0145	0.075	880029	keystroke_w	w	n/a
440.5695	0.06	881139	keystroke_Key.backspace	Key.backspace	n/a
440.7345	0.06	881469	keystroke_Key.backspace	Key.backspace	n/a
440.8695	0.075	881739	keystroke_Key.backspace	Key.backspace	n/a
441.7845	0.105	883569	keystroke_e	e	n/a
441.9205	0.104	883841	keystroke_n	n	n/a
442.2045	0.06	884409	keystroke_u	u	n/a
442.9545	0.105	885909	keystroke_e	e	n/a
443.1945	0.105	886389	keystroke_Key.space	Key.space	n/a
443.795	0.075	887590	keystroke_t	t	n/a
443.99	0.135	887980	keystroke_r	r	n/a
444.14	0.105	888280	keystroke_a	a	n/a
444.32	0.075	888640	keystroke_i	i	n/a
444.515	0.075	889030	keystroke_l	l	n/a
445.1	0.105	890200	keystroke_s	s	n/a
445.22	0.135	890440	keystroke_Key.space	Key.space	n/a
445.58	0.045	891160	keystroke_u	u	n/a
445.655	0.18	891310	keystroke_s	s	n/a
445.79	0.12	891580	keystroke_e	e	n/a
446.045	0.105	892090	keystroke_s	s	n/a
446.285	0.075	892570	keystroke_Key.enter	Key.enter	n/a
446.366	14.261	892732	prompt	n/a	attitudes scan managing stats\n
447.095	0.105	894190	keystroke_a	a	n/a
447.365	0.06	894730	keystroke_t	t	n/a
447.545	0.06	895090	keystroke_t	t	n/a
448.175	0.06	896350	keystroke_i	i	n/a
448.385	0.09	896770	keystroke_t	t	n/a
448.82	0.06	897640	keystroke_u	u	n/a
448.955	0.0895	897910	keystroke_d	d	n/a
449.1645	0.06	898329	keystroke_e	e	n/a
449.4055	0.075	898811	keystroke_s	s	n/a
449.5095	0.091	899019	keystroke_Key.space	Key.space	n/a
449.9755	0.104	899951	keystroke_s	s	n/a
450.2595	0.151	900519	keystroke_c	c	n/a
450.3795	0.09	900759	keystroke_a	a	n/a
450.5895	0.075	901179	keystroke_n	n	n/a
451.0995	0.106	902199	keystroke_m	m	n/a
451.2495	0.09	902499	keystroke_a	a	n/a
451.3995	0.075	902799	keystroke_n	n	n/a
451.5495	0.105	903099	keystroke_a	a	n/a
452.5545	0.075	905109	keystroke_Key.backspace	Key.backspace	n/a
452.7195	0.075	905439	keystroke_Key.backspace	Key.backspace	n/a
452.8845	0.06	905769	keystroke_Key.backspace	Key.backspace	n/a
453.0345	0.06	906069	keystroke_Key.backspace	Key.backspace	n/a
453.1695	0.06	906339	keystroke_Key.backspace	Key.backspace	n/a
453.9495	0.075	907899	keystroke_n	n	n/a
454.1295	0.075	908259	keystroke_Key.space	Key.space	n/a
454.9095	0.09	909819	keystroke_m	m	n/a
455.1045	0.105	910209	keystroke_a	a	n/a
455.2545	0.06	910509	keystroke_n	n	n/a
455.4195	0.105	910839	keystroke_a	a	n/a
455.8995	0.135	911799	keystroke_g	g	n/a
456.0945	0.12	912189	keystroke_e	e	n/a
457.865	0.0745	915730	keystroke_Key.backspace	Key.backspace	n/a
458.135	0.12	916270	keystroke_i	i	n/a
458.3	0.105	916600	keystroke_n	n	n/a
458.585	0.09	917170	keystroke_g	g	n/a
458.735	0.09	917470	keystroke_Key.space	Key.space	n/a
459.2	0.12	918400	keystroke_s	s	n/a
459.365	0.09	918730	keystroke_t	t	n/a
459.5	0.165	919000	keystroke_a	a	n/a
459.68	0.09	919360	keystroke_t	t	n/a
460.22	0.09	920440	keystroke_s	s	n/a
460.55	0.075	921100	keystroke_Key.enter	Key.enter	n/a
460.6325	8.634	921265	prompt	n/a	pope lived fruits wrap\n
461.54	0.105	923080	keystroke_p	p	n/a
461.735	0.165	923470	keystroke_o	o	n/a
461.87	0.135	923740	keystroke_p	p	n/a
462.605	0.075	925210	keystroke_e	e	n/a
462.77	0.135	925540	keystroke_Key.space	Key.space	n/a
463.04	0.105	926080	keystroke_l	l	n/a
463.19	0.09	926380	keystroke_i	i	n/a
463.34	0.135	926680	keystroke_v	v	n/a
463.535	0.12	927070	keystroke_e	e	n/a
463.805	0.075	927610	keystroke_d	d	n/a
464	0.119	928000	keystroke_Key.space	Key.space	n/a
464.4055	0.1035	928811	keystroke_f	f	n/a
464.7655	0.1195	929531	keystroke_r	r	n/a
465.2305	0.075	930461	keystroke_u	u	n/a
465.4095	0.091	930819	keystroke_i	i	n/a
465.6055	0.104	931211	keystroke_t	t	n/a
465.9805	0.075	931961	keystroke_s	s	n/a
466.1745	0.105	932349	keystroke_Key.space	Key.space	n/a
466.8805	0.119	933761	keystroke_r	r	n/a
467.3445	0.075	934689	keystroke_Key.backspace	Key.backspace	n/a
467.4505	0.18	934901	keystroke_w	w	n/a
468.0945	0.12	936189	keystroke_r	r	n/a
468.1995	0.135	936399	keystroke_a	a	n/a
468.4845	0.075	936969	keystroke_p	p	n/a
469.175	0.09	938350	keystroke_Key.enter	Key.enter	n/a
469.271	9.0855	938542	prompt	n/a	relatively posting his terry\n
470.33	0.135	940660	keystroke_r	r	n/a
470.435	0.105	940870	keystroke_e	e	n/a
470.66	0.075	941320	keystroke_l	l	n/a
470.81	0.105	941620	keystroke_a	a	n/a
471.02	0.09	942040	keystroke_t	t	n/a
471.155	0.075	942310	keystroke_i	i	n/a
471.29	0.12	942580	keystroke_v	v	n/a
471.605	0.075	943210	keystroke_e	e	n/a
471.8	0.09	943600	keystroke_l	l	n/a
472.04	0.06	944080	keystroke_y	y	n/a
472.19	0.104	944380	keystroke_Key.space	Key.space	n/a
472.655	0.105	945310	keystroke_p	p	n/a
472.85	0.075	945700	keystroke_o	o	n/a
473.089	0.105	946178	keystroke_s	s	n/a
473.3	0.104	946600	keystroke_t	t	n/a
473.389	0.1055	946778	keystroke_i	i	n/a
473.479	0.1055	946958	keystroke_n	n	n/a
473.6005	0.089	947201	keystroke_g	g	n/a
473.6595	0.09	947319	keystroke_Key.space	Key.space	n/a
474.08	0.075	948160	keystroke_h	h	n/a
474.275	0.06	948550	keystroke_i	i	n/a
474.53	0.105	949060	keystroke_s	s	n/a
474.725	0.075	949450	keystroke_Key.space	Key.space	n/a
475.28	0.075	950560	keystroke_t	t	n/a
475.46	0.12	950920	keystroke_e	e	n/a
475.685	0.09	951370	keystroke_r	r	n/a
476.09	0.015	952180	keystroke_y	y	n/a
476.465	0.06	952930	keystroke_r	r	n/a
476.84	0.09	953680	keystroke_Key.backspace	Key.backspace	n/a
476.99	0.075	953980	keystroke_Key.backspace	Key.backspace	n/a
477.185	0.09	954370	keystroke_r	r	n/a
477.35	0.06	954700	keystroke_y	y	n/a
478.2945	0.06	956589	keystroke_Key.enter	Key.enter	n/a
478.362	13.66	956724	prompt	n/a	ranch watson well eligible\n
483.532	0.088	967064	keystroke_r	r	n/a
483.98	0.105	967960	keystroke_a	a	n/a
484.505	0.09	969010	keystroke_n	n	n/a
484.61	0.15	969220	keystroke_c	c	n/a
484.745	0.075	969490	keystroke_h	h	n/a
484.895	0.09	969790	keystroke_Key.space	Key.space	n/a
485.225	0.12	970450	keystroke_w	w	n/a
485.315	0.135	970630	keystroke_a	a	n/a
485.87	0.075	971740	keystroke_t	t	n/a
486.11	0.09	972220	keystroke_s	s	n/a
486.23	0.075	972460	keystroke_o	o	n/a
486.32	0.135	972640	keystroke_n	n	n/a
486.44	0.105	972880	keystroke_Key.space	Key.space	n/a
486.665	0.21	973330	keystroke_w	w	n/a
486.86	0.12	973720	keystroke_e	e	n/a
487.055	0.075	974110	keystroke_l	l	n/a
487.205	0.075	974410	keystroke_l	l	n/a
487.4455	0.089	974891	keystroke_Key.space	Key.space	n/a
488.405	0.1055	976810	keystroke_e	e	n/a
488.9605	0.09	977921	keystroke_l	l	n/a
489.1405	0.059	978281	keystroke_i	i	n/a
489.8905	0.105	979781	keystroke_g	g	n/a
490.1455	0.075	980291	keystroke_i	i	n/a
490.3245	0.106	980649	keystroke_b	b	n/a
490.5645	0.075	981129	keystroke_l	l	n/a
490.6845	0.09	981369	keystroke_e	e	n/a
491.9445	0.075	983889	keystroke_Key.enter	Key.enter	n/a
492.029	7.478	984058	prompt	n/a	casey slideshow hook benz\n
492.9795	0.18	985959	keystroke_c	c	n/a
493.1295	0.135	986259	keystroke_a	a	n/a
493.4145	0.09	986829	keystroke_s	s	n/a
493.7445	0.105	987489	keystroke_e	e	n/a
493.9845	0.06	987969	keystroke_y	y	n/a
494.1345	0.1055	988269	keystroke_Key.space	Key.space	n/a
494.45	0.12	988900	keystroke_s	s	n/a
495.005	0.105	990010	keystroke_l	l	n/a
495.155	0.075	990310	keystroke_i	i	n/a
495.335	0.105	990670	keystroke_d	d	n/a
495.635	0.09	991270	keystroke_e	e	n/a
495.905	0.09	991810	keystroke_s	s	n/a
496.19	0.21	992380	keystroke_h	h	n/a
496.37	0.075	992740	keystroke_o	o	n/a
496.505	0.09	993010	keystroke_w	w	n/a
496.955	0.015	993910	keystroke_Key.space	Key.space	n/a
497.69	0.075	995380	keystroke_h	h	n/a
497.87	0.06	995740	keystroke_o	o	n/a
498.005	0.075	996010	keystroke_o	o	n/a
498.29	0.105	996580	keystroke_d	d	n/a
498.41	0.105	996820	keystroke_Key.space	Key.space	n/a
498.725	0.09	997450	keystroke_b	b	n/a
498.89	0.105	997780	keystroke_e	e	n/a
499.01	0.09	998020	keystroke_n	n	n/a
499.265	0.105	998530	keystroke_z	z	n/a
499.415	0.09	998830	keystroke_Key.enter	Key.enter	n/a
499.513	6.5635	999026	prompt	n/a	print roots bottom putting\n
500.42	0.12	1000840	keystroke_p	p	n/a
500.6	0.135	1001200	keystroke_r	r	n/a
500.66	0.15	1001320	keystroke_i	i	n/a
500.78	0.105	1001560	keystroke_n	n	n/a
500.9	0.105	1001800	keystroke_t	t	n/a
501.335	0.105	1002670	keystroke_Key.space	Key.space	n/a
501.785	0.15	1003570	keystroke_r	r	n/a
501.965	0.045	1003930	keystroke_o	o	n/a
502.085	0.075	1004170	keystroke_o	o	n/a
502.22	0.105	1004440	keystroke_t	t	n/a
502.46	0.075	1004920	keystroke_s	s	n/a
502.565	0.105	1005130	keystroke_Key.space	Key.space	n/a
503.09	0.09	1006180	keystroke_b	b	n/a
503.615	0.06	1007230	keystroke_o	o	n/a
503.705	0.075	1007410	keystroke_t	t	n/a
503.885	0.09	1007770	keystroke_t	t	n/a
504.125	0.12	1008250	keystroke_o	o	n/a
504.275	0.1355	1008550	keystroke_m	m	n/a
504.4395	0.105	1008879	keystroke_Key.space	Key.space	n/a
504.8305	0.09	1009661	keystroke_p	p	n/a
504.9945	0.061	1009989	keystroke_u	u	n/a
505.2345	0.06	1010469	keystroke_t	t	n/a
505.3695	0.135	1010739	keystroke_t	t	n/a
505.4895	0.091	1010979	keystroke_i	i	n/a
505.5645	0.121	1011129	keystroke_n	n	n/a
505.6855	0.074	1011371	keystroke_g	g	n/a
506.0005	0.074	1012001	keystroke_Key.enter	Key.enter	n/a
506.0815	7.57	1012163	prompt	n/a	minority oven bathrooms yard\n
506.9005	0.134	1013801	keystroke_m	m	n/a
507.0795	0.105	1014159	keystroke_i	i	n/a
507.1695	0.165	1014339	keystroke_n	n	n/a
507.4695	0.075	1014939	keystroke_o	o	n/a
507.7705	0.104	1015541	keystroke_r	r	n/a
507.9945	0.075	1015989	keystroke_i	i	n/a
508.1145	0.09	1016229	keystroke_t	t	n/a
508.2495	0.075	1016499	keystroke_y	y	n/a
508.4005	0.1045	1016801	keystroke_Key.space	Key.space	n/a
508.61	0.075	1017220	keystroke_o	o	n/a
508.73	0.195	1017460	keystroke_v	v	n/a
508.97	0.06	1017940	keystroke_e	e	n/a
509.54	0.105	1019080	keystroke_n	n	n/a
509.72	0.09	1019440	keystroke_Key.space	Key.space	n/a
510.44	0.015	1020880	keystroke_b	b	n/a
510.5	0.105	1021000	keystroke_a	a	n/a
510.725	0.09	1021450	keystroke_t	t	n/a
510.86	0.06	1021720	keystroke_h	h	n/a
511.355	0.12	1022710	keystroke_r	r	n/a
511.505	0.06	1023010	keystroke_o	o	n/a
511.64	0.075	1023280	keystroke_o	o	n/a
511.94	0.059	1023880	keystroke_m	m	n/a
512.18	0.075	1024360	keystroke_s	s	n/a
512.569	0.09	1025138	keystroke_Key.space	Key.space	n/a
512.854	0.045	1025708	keystroke_y	y	n/a
512.974	0.136	1025948	keystroke_a	a	n/a
513.155	0.059	1026310	keystroke_r	r	n/a
513.3645	0.091	1026729	keystroke_d	d	n/a
513.5755	0.074	1027151	keystroke_Key.enter	Key.enter	n/a
513.657	9.565	1027314	prompt	n/a	evolution surrey promotes dial\n
514.5055	0.104	1029011	keystroke_e	e	n/a
514.7295	0.105	1029459	keystroke_v	v	n/a
515.6445	0.076	1031289	keystroke_o	o	n/a
515.9145	0.12	1031829	keystroke_l	l	n/a
516.1095	0.06	1032219	keystroke_u	u	n/a
516.4695	0.075	1032939	keystroke_t	t	n/a
516.5745	0.15	1033149	keystroke_i	i	n/a
516.6795	0.105	1033359	keystroke_o	o	n/a
516.7695	0.09	1033539	keystroke_n	n	n/a
516.9645	0.09	1033929	keystroke_Key.space	Key.space	n/a
517.3695	0.12	1034739	keystroke_s	s	n/a
517.5495	0.075	1035099	keystroke_u	u	n/a
517.8345	0.09	1035669	keystroke_r	r	n/a
518.0145	0.105	1036029	keystroke_r	r	n/a
518.915	0.105	1037830	keystroke_e	e	n/a
519.155	0.06	1038310	keystroke_y	y	n/a
519.395	0.09	1038790	keystroke_Key.space	Key.space	n/a
520.13	0.075	1040260	keystroke_p	p	n/a
520.4	0.105	1040800	keystroke_r	r	n/a
520.535	0.06	1041070	keystroke_o	o	n/a
520.94	0.09	1041880	keystroke_m	m	n/a
521.045	0.075	1042090	keystroke_o	o	n/a
521.21	0.12	1042420	keystroke_t	t	n/a
521.3455	0.0895	1042691	keystroke_e	e	n/a
521.66	0.075	1043320	keystroke_s	s	n/a
521.855	0.105	1043710	keystroke_Key.space	Key.space	n/a
522.125	0.105	1044250	keystroke_d	d	n/a
522.32	0.045	1044640	keystroke_i	i	n/a
522.59	0.105	1045180	keystroke_a	a	n/a
522.815	0.09	1045630	keystroke_l	l	n/a
523.16	0.06	1046320	keystroke_Key.enter	Key.enter	n/a
523.231	10.4755	1046462	prompt	n/a	traveling explosion grass finite\n
524	0.06	1048000	keystroke_t	t	n/a
524.18	0.15	1048360	keystroke_r	r	n/a
524.345	0.12	1048690	keystroke_a	a	n/a
524.66	0.105	1049320	keystroke_v	v	n/a
524.96	0.075	1049920	keystroke_e	e	n/a
525.395	0.09	1050790	keystroke_l	l	n/a
525.605	0.06	1051210	keystroke_i	i	n/a
525.695	0.09	1051390	keystroke_n	n	n/a
525.86	0.06	1051720	keystroke_g	g	n/a
525.935	0.074	1051870	keystroke_Key.space	Key.space	n/a
526.295	0.105	1052590	keystroke_e	e	n/a
526.5505	0.135	1053101	keystroke_x	x	n/a
527.3905	0.09	1054781	keystroke_p	p	n/a
527.6305	0.105	1055261	keystroke_l	l	n/a
527.8545	0.06	1055709	keystroke_o	o	n/a
529.3705	0.089	1058741	keystroke_s	s	n/a
529.5795	0.195	1059159	keystroke_i	i	n/a
529.7155	0.119	1059431	keystroke_o	o	n/a
529.8045	0.105	1059609	keystroke_n	n	n/a
530.2095	0.09	1060419	keystroke_Key.space	Key.space	n/a
530.6595	0.09	1061319	keystroke_g	g	n/a
530.8995	0.135	1061799	keystroke_r	r	n/a
531.0045	0.12	1062009	keystroke_a	a	n/a
531.4095	0.075	1062819	keystroke_s	s	n/a
531.5895	0.06	1063179	keystroke_s	s	n/a
531.8145	0.105	1063629	keystroke_Key.space	Key.space	n/a
532.2945	0.105	1064589	keystroke_f	f	n/a
532.4295	0.09	1064859	keystroke_i	i	n/a
532.5645	0.12	1065129	keystroke_n	n	n/a
532.7295	0.075	1065459	keystroke_i	i	n/a
532.9995	0.12	1065999	keystroke_t	t	n/a
533.0895	0.09	1066179	keystroke_e	e	n/a
533.6295	0.0755	1067259	keystroke_Key.enter	Key.enter	n/a
533.712	13.6745	1067424	prompt	n/a	reward manitoba assignments airlines\n
535.31	0.135	1070620	keystroke_r	r	n/a
535.43	0.03	1070860	keystroke_e	e	n/a
535.58	0.165	1071160	keystroke_w	w	n/a
536.54	0.12	1073080	keystroke_a	a	n/a
536.735	0.075	1073470	keystroke_r	r	n/a
536.96	0.075	1073920	keystroke_d	d	n/a
537.14	0.075	1074280	keystroke_Key.space	Key.space	n/a
537.47	0.105	1074940	keystroke_m	m	n/a
537.59	0.09	1075180	keystroke_a	a	n/a
537.695	0.075	1075390	keystroke_n	n	n/a
538.205	0.06	1076410	keystroke_i	i	n/a
538.31	0.09	1076620	keystroke_t	t	n/a
538.91	0.075	1077820	keystroke_o	o	n/a
539.045	0.09	1078090	keystroke_b	b	n/a
539.315	0.105	1078630	keystroke_a	a	n/a
539.6	0.09	1079200	keystroke_Key.space	Key.space	n/a
539.93	0.09	1079860	keystroke_a	a	n/a
540.1855	0.06	1080371	keystroke_s	s	n/a
540.3355	0.075	1080671	keystroke_s	s	n/a
540.5455	0.045	1081091	keystroke_i	i	n/a
542.375	0.045	1084750	keystroke_g	g	n/a
542.51	0.075	1085020	keystroke_n	n	n/a
543.05	0.105	1086100	keystroke_m	m	n/a
543.185	0.135	1086370	keystroke_e	e	n/a
543.305	0.045	1086610	keystroke_n	n	n/a
543.425	0.075	1086850	keystroke_t	t	n/a
543.635	0.09	1087270	keystroke_s	s	n/a
543.785	0.105	1087570	keystroke_Key.space	Key.space	n/a
544.025	0.12	1088050	keystroke_a	a	n/a
544.295	0.06	1088590	keystroke_i	i	n/a
544.415	0.105	1088830	keystroke_r	r	n/a
545.06	0.12	1090120	keystroke_l	l	n/a
545.225	0.105	1090450	keystroke_i	i	n/a
545.345	0.12	1090690	keystroke_n	n	n/a
545.51	0.09	1091020	keystroke_e	e	n/a
545.75	0.075	1091500	keystroke_s	s	n/a
547.31	0.075	1094620	keystroke_Key.enter	Key.enter	n/a
547.392	11.8145	1094784	prompt	n/a	antique 'tis claims happened\n
548.4505	0.12	1096901	keystroke_a	a	n/a
548.6155	0.105	1097231	keystroke_n	n	n/a
548.7655	0.089	1097531	keystroke_t	t	n/a
548.9155	0.06	1097831	keystroke_i	i	n/a
549.2455	0.104	1098491	keystroke_q	q	n/a
549.4545	0.075	1098909	keystroke_u	u	n/a
549.7555	0.09	1099511	keystroke_e	e	n/a
551.2095	0.105	1102419	keystroke_Key.space	Key.space	n/a
552.125	0.09	1104250	keystroke_'	'	n/a
552.32	0.105	1104640	keystroke_t	t	n/a
552.47	0.06	1104940	keystroke_i	i	n/a
552.62	0.075	1105240	keystroke_s	s	n/a
552.8145	0.09	1105629	keystroke_Key.space	Key.space	n/a
553.5205	0.105	1107041	keystroke_c	c	n/a
553.6405	0.075	1107281	keystroke_l	l	n/a
553.76	0.1055	1107520	keystroke_a	a	n/a
553.8805	0.105	1107761	keystroke_i	i	n/a
554.0305	0.135	1108061	keystroke_m	m	n/a
554.2095	0.09	1108419	keystroke_s	s	n/a
554.705	0.09	1109410	keystroke_Key.space	Key.space	n/a
555.05	0.09	1110100	keystroke_h	h	n/a
555.17	0.105	1110340	keystroke_a	a	n/a
555.38	0.06	1110760	keystroke_p	p	n/a
555.515	0.09	1111030	keystroke_p	p	n/a
555.77	0.12	1111540	keystroke_e	e	n/a
556.04	0.06	1112080	keystroke_n	n	n/a
556.22	0.105	1112440	keystroke_s	s	n/a
557.645	0.06	1115290	keystroke_Key.backspace	Key.backspace	n/a
557.885	0.105	1115770	keystroke_e	e	n/a
558.125	0.105	1116250	keystroke_d	d	n/a
559.16	0.045	1118320	keystroke_Key.enter	Key.enter	n/a
559.211	7.181	1118422	prompt	n/a	loan trying suite needle\n
560.09	0.075	1120180	keystroke_l	l	n/a
560.255	0.06	1120510	keystroke_o	o	n/a
560.915	0.075	1121830	keystroke_a	a	n/a
561.155	0.075	1122310	keystroke_n	n	n/a
561.395	0.105	1122790	keystroke_Key.space	Key.space	n/a
561.83	0.075	1123660	keystroke_t	t	n/a
562.01	0.12	1124020	keystroke_r	r	n/a
562.16	0.09	1124320	keystroke_y	y	n/a
562.565	0.09	1125130	keystroke_i	i	n/a
562.625	0.12	1125250	keystroke_n	n	n/a
562.79	0.075	1125580	keystroke_g	g	n/a
562.85	0.09	1125700	keystroke_Key.space	Key.space	n/a
563.165	0.09	1126330	keystroke_s	s	n/a
563.39	0.135	1126780	keystroke_u	u	n/a
563.54	0.09	1127080	keystroke_i	i	n/a
563.75	0.12	1127500	keystroke_t	t	n/a
563.885	0.06	1127770	keystroke_e	e	n/a
564.2	0.09	1128400	keystroke_Key.space	Key.space	n/a
564.455	0.075	1128910	keystroke_n	n	n/a
564.59	0.075	1129180	keystroke_e	e	n/a
565.235	0.075	1130470	keystroke_e	e	n/a
565.76	0.06	1131520	keystroke_d	d	n/a
565.925	0.075	1131850	keystroke_l	l	n/a
566.045	0.09	1132090	keystroke_e	e	n/a
566.33	0.06	1132660	keystroke_Key.enter	Key.enter	n/a
566.3965	8.545	1132793	prompt	n/a	future saves worker copying\n
567.32	0.105	1134640	keystroke_f	f	n/a
568.1755	0.074	1136351	keystroke_u	u	n/a
568.4455	0.119	1136891	keystroke_t	t	n/a
568.6405	0.06	1137281	keystroke_u	u	n/a
568.7595	0.15	1137519	keystroke_r	r	n/a
568.9245	0.091	1137849	keystroke_e	e	n/a
569.2695	0.09	1138539	keystroke_Key.space	Key.space	n/a
569.9755	0.15	1139951	keystroke_s	s	n/a
570.0805	0.134	1140161	keystroke_a	a	n/a
570.2155	0.119	1140431	keystroke_v	v	n/a
570.3045	0.105	1140609	keystroke_e	e	n/a
570.4845	0.09	1140969	keystroke_Key.space	Key.space	n/a
570.83	0.1495	1141660	keystroke_w	w	n/a
571.2945	0.075	1142589	keystroke_o	o	n/a
571.4595	0.12	1142919	keystroke_r	r	n/a
572.1195	0.075	1144239	keystroke_k	k	n/a
572.3145	0.135	1144629	keystroke_e	e	n/a
572.4345	0.09	1144869	keystroke_r	r	n/a
572.6595	0.135	1145319	keystroke_s	s	n/a
573.2295	0.06	1146459	keystroke_Key.backspace	Key.backspace	n/a
573.4395	0.075	1146879	keystroke_Key.space	Key.space	n/a
573.7095	0.15	1147419	keystroke_c	c	n/a
573.8445	0.105	1147689	keystroke_o	o	n/a
574.0245	0.06	1148049	keystroke_p	p	n/a
574.2045	0.045	1148409	keystroke_y	y	n/a
574.4445	0.12	1148889	keystroke_i	i	n/a
574.5495	0.0905	1149099	keystroke_n	n	n/a
574.685	0.09	1149370	keystroke_g	g	n/a
574.85	0.09	1149700	keystroke_Key.enter	Key.enter	n/a
574.9465	10.96	1149893	prompt	n/a	fitness samba bloom watch\n
576.14	0.1205	1152280	keystroke_f	f	n/a
576.2605	0.09	1152521	keystroke_i	i	n/a
577.1455	0.09	1154291	keystroke_t	t	n/a
577.3695	0.09	1154739	keystroke_n	n	n/a
577.5945	0.105	1155189	keystroke_e	e	n/a
577.8345	0.075	1155669	keystroke_s	s	n/a
578.0895	0.015	1156179	keystroke_s	s	n/a
578.1495	0.091	1156299	keystroke_Key.space	Key.space	n/a
578.4645	0.135	1156929	keystroke_s	s	n/a
578.6295	0.045	1157259	keystroke_s	s	n/a
578.6445	0.12	1157289	keystroke_a	a	n/a
578.8995	0.135	1157799	keystroke_m	m	n/a
579.5295	0.06	1159059	keystroke_Key.backspace	Key.backspace	n/a
579.6945	0.06	1159389	keystroke_Key.backspace	Key.backspace	n/a
579.8295	0.075	1159659	keystroke_Key.backspace	Key.backspace	n/a
581.525	0.105	1163050	keystroke_a	a	n/a
581.735	0.12	1163470	keystroke_m	m	n/a
581.915	0.105	1163830	keystroke_b	b	n/a
582.305	0.105	1164610	keystroke_a	a	n/a
582.59	0.09	1165180	keystroke_Key.space	Key.space	n/a
582.95	0.105	1165900	keystroke_b	b	n/a
583.055	0.075	1166110	keystroke_l	l	n/a
583.265	0.045	1166530	keystroke_o	o	n/a
583.4	0.075	1166800	keystroke_o	o	n/a
583.625	0.105	1167250	keystroke_m	m	n/a
583.775	0.09	1167550	keystroke_Key.space	Key.space	n/a
584.015	0.15	1168030	keystroke_w	w	n/a
584.135	0.09	1168270	keystroke_a	a	n/a
584.39	0.09	1168780	keystroke_t	t	n/a
584.66	0.105	1169320	keystroke_c	c	n/a
584.78	0.06	1169560	keystroke_h	h	n/a
585.83	0.075	1171660	keystroke_Key.enter	Key.enter	n/a
585.9115	11.155	1171823	prompt	n/a	optimize inner removed authorization\n
587.465	0.06	1174930	keystroke_o	o	n/a
587.645	0.045	1175290	keystroke_p	p	n/a
588.62	0.105	1177240	keystroke_t	t	n/a
588.755	0.075	1177510	keystroke_i	i	n/a
589.6555	0.105	1179311	keystroke_m	m	n/a
589.8655	0.06	1179731	keystroke_i	i	n/a
590.0755	0.135	1180151	keystroke_z	z	n/a
590.4495	0.12	1180899	keystroke_e	e	n/a
591.1405	0.089	1182281	keystroke_Key.space	Key.space	n/a
591.6055	0.09	1183211	keystroke_i	i	n/a
591.9205	0.074	1183841	keystroke_n	n	n/a
592.0695	0.075	1184139	keystroke_n	n	n/a
592.2955	0.104	1184591	keystroke_e	e	n/a
592.3845	0.12	1184769	keystroke_r	r	n/a
592.5195	0.09	1185039	keystroke_Key.space	Key.space	n/a
592.9995	0.15	1185999	keystroke_r	r	n/a
593.1195	0.12	1186239	keystroke_e	e	n/a
593.2845	0.135	1186569	keystroke_m	m	n/a
593.3895	0.091	1186779	keystroke_o	o	n/a
593.4495	0.12	1186899	keystroke_v	v	n/a
593.5245	0.12	1187049	keystroke_e	e	n/a
593.705	0.0745	1187410	keystroke_Key.space	Key.space	n/a
594.4695	0.105	1188939	keystroke_a	a	n/a
594.7395	0.075	1189479	keystroke_u	u	n/a
594.9345	0.12	1189869	keystroke_t	t	n/a
595.0395	0.09	1190079	keystroke_h	h	n/a
595.2945	0.075	1190589	keystroke_o	o	n/a
595.4745	0.135	1190949	keystroke_r	r	n/a
595.6995	0.09	1191399	keystroke_i	i	n/a
595.8495	0.12	1191699	keystroke_z	z	n/a
596.2095	0.105	1192419	keystroke_t	t	n/a
596.3445	0.165	1192689	keystroke_i	i	n/a
596.4345	0.1205	1192869	keystroke_o	o	n/a
596.5245	0.1355	1193049	keystroke_n	n	n/a
596.975	0.09	1193950	keystroke_Key.enter	Key.enter	n/a
597.073	7.734	1194146	prompt	n/a	shower reason football catalogs\n
597.965	0.135	1195930	keystroke_s	s	n/a
598.115	0.12	1196230	keystroke_h	h	n/a
598.22	0.09	1196440	keystroke_o	o	n/a
598.325	0.165	1196650	keystroke_w	w	n/a
598.46	0.165	1196920	keystroke_e	e	n/a
598.58	0.12	1197160	keystroke_r	r	n/a
598.715	0.105	1197430	keystroke_Key.space	Key.space	n/a
599.12	0.15	1198240	keystroke_r	r	n/a
599.195	0.18	1198390	keystroke_e	e	n/a
599.66	0.12	1199320	keystroke_a	a	n/a
599.915	0.09	1199830	keystroke_s	s	n/a
600.05	0.09	1200100	keystroke_o	o	n/a
600.155	0.135	1200310	keystroke_n	n	n/a
600.305	0.105	1200610	keystroke_Key.space	Key.space	n/a
600.71	0.135	1201420	keystroke_f	f	n/a
600.92	0.09	1201840	keystroke_o	o	n/a
601.1	0.075	1202200	keystroke_o	o	n/a
601.295	0.105	1202590	keystroke_t	t	n/a
601.805	0.15	1203610	keystroke_b	b	n/a
601.925	0.15	1203850	keystroke_a	a	n/a
602.12	0.075	1204240	keystroke_l	l	n/a
602.255	0.105	1204510	keystroke_l	l	n/a
602.375	0.105	1204750	keystroke_Key.space	Key.space	n/a
602.705	0.135	1205410	keystroke_c	c	n/a
602.855	0.12	1205710	keystroke_a	a	n/a
603.14	0.105	1206280	keystroke_t	t	n/a
603.605	0.105	1207210	keystroke_a	a	n/a
603.905	0.075	1207810	keystroke_l	l	n/a
604.07	0.06	1208140	keystroke_o	o	n/a
604.19	0.09	1208380	keystroke_g	g	n/a
604.4455	0.105	1208891	keystroke_s	s	n/a
604.7455	0.06	1209491	keystroke_Key.enter	Key.enter	n/a
604.812	8.6195	1209624	prompt	n/a	heater twisted dumb exhibitions\n
605.7805	0.105	1211561	keystroke_h	h	n/a
605.9005	0.135	1211801	keystroke_e	e	n/a
605.9755	0.15	1211951	keystroke_a	a	n/a
606.2005	0.06	1212401	keystroke_t	t	n/a
606.2755	0.149	1212551	keystroke_e	e	n/a
606.3955	0.105	1212791	keystroke_r	r	n/a
606.5295	0.105	1213059	keystroke_Key.space	Key.space	n/a
606.8455	0.104	1213691	keystroke_w	w	n/a
607.3995	0.06	1214799	keystroke_Key.backspace	Key.backspace	n/a
607.5055	0.164	1215011	keystroke_t	t	n/a
608.1345	0.105	1216269	keystroke_w	w	n/a
608.3445	0.075	1216689	keystroke_i	i	n/a
608.6145	0.165	1217229	keystroke_s	s	n/a
608.7645	0.09	1217529	keystroke_t	t	n/a
608.9745	0.075	1217949	keystroke_e	e	n/a
609.1695	0.09	1218339	keystroke_d	d	n/a
609.2895	0.12	1218579	keystroke_Key.space	Key.space	n/a
609.5145	0.135	1219029	keystroke_d	d	n/a
609.6795	0.075	1219359	keystroke_u	u	n/a
609.9045	0.105	1219809	keystroke_m	m	n/a
610.07	0.0895	1220140	keystroke_b	b	n/a
610.1745	0.105	1220349	keystroke_Key.space	Key.space	n/a
610.61	0.105	1221220	keystroke_e	e	n/a
611.045	0.105	1222090	keystroke_x	x	n/a
611.39	0.09	1222780	keystroke_h	h	n/a
611.825	0.075	1223650	keystroke_i	i	n/a
612.02	0.12	1224040	keystroke_b	b	n/a
612.155	0.075	1224310	keystroke_i	i	n/a
612.335	0.09	1224670	keystroke_t	t	n/a
612.455	0.21	1224910	keystroke_i	i	n/a
612.575	0.135	1225150	keystroke_o	o	n/a
612.6805	0.1345	1225361	keystroke_n	n	n/a
612.86	0.105	1225720	keystroke_s	s	n/a
613.355	0.075	1226710	keystroke_Key.enter	Key.enter	n/a
613.4355	8.9815	1226871	prompt	n/a	improve make words sheriff\n
614.285	0.105	1228570	keystroke_i	i	n/a
614.465	0.225	1228930	keystroke_m	m	n/a
614.675	0.12	1229350	keystroke_p	p	n/a
615.455	0.135	1230910	keystroke_r	r	n/a
615.605	0.06	1231210	keystroke_o	o	n/a
615.8	0.135	1231600	keystroke_v	v	n/a
615.92	0.12	1231840	keystroke_e	e	n/a
616.25	0.105	1232500	keystroke_d	d	n/a
616.9555	0.075	1233911	keystroke_Key.backspace	Key.backspace	n/a
617.1355	0.075	1234271	keystroke_Key.space	Key.space	n/a
617.3605	0.135	1234721	keystroke_m	m	n/a
617.5105	0.12	1235021	keystroke_a	a	n/a
617.9455	0.06	1235891	keystroke_k	k	n/a
618.0655	0.075	1236131	keystroke_e	e	n/a
618.1705	0.089	1236341	keystroke_Key.space	Key.space	n/a
618.6355	0.105	1237271	keystroke_w	w	n/a
619.2505	0.09	1238501	keystroke_o	o	n/a
619.4605	0.09	1238921	keystroke_r	r	n/a
619.6855	0.089	1239371	keystroke_d	d	n/a
619.8045	0.12	1239609	keystroke_Key.space	Key.space	n/a
620.0745	0.105	1240149	keystroke_s	s	n/a
620.2105	0.075	1240421	keystroke_h	h	n/a
620.3745	0.091	1240749	keystroke_e	e	n/a
621.2895	0.121	1242579	keystroke_r	r	n/a
621.4245	0.075	1242849	keystroke_i	i	n/a
621.5895	0.12	1243179	keystroke_f	f	n/a
622.0555	0.104	1244111	keystroke_f	f	n/a
622.3245	0.09	1244649	keystroke_Key.enter	Key.enter	n/a
622.4235	7.883	1244847	prompt	n/a	animals paintings sport safer\n
623.2245	0.105	1246449	keystroke_a	a	n/a
623.3445	0.12	1246689	keystroke_n	n	n/a
623.4795	0.135	1246959	keystroke_i	i	n/a
624.245	0.15	1248490	keystroke_m	m	n/a
624.44	0.12	1248880	keystroke_a	a	n/a
624.605	0.09	1249210	keystroke_l	l	n/a
624.86	0.105	1249720	keystroke_s	s	n/a
625.01	0.09	1250020	keystroke_Key.space	Key.space	n/a
625.43	0.09	1250860	keystroke_p	p	n/a
625.58	0.12	1251160	keystroke_a	a	n/a
625.775	0.135	1251550	keystroke_i	i	n/a
625.925	0.135	1251850	keystroke_n	n	n/a
626.21	0.075	1252420	keystroke_t	t	n/a
626.495	0.12	1252990	keystroke_i	i	n/a
626.6	0.135	1253200	keystroke_n	n	n/a
626.765	0.105	1253530	keystroke_g	g	n/a
627.02	0.105	1254040	keystroke_s	s	n/a
627.695	0.135	1255390	keystroke_Key.space	Key.space	n/a
628.055	0.105	1256110	keystroke_s	s	n/a
628.16	0.105	1256320	keystroke_p	p	n/a
628.31	0.09	1256620	keystroke_o	o	n/a
628.43	0.09	1256860	keystroke_r	r	n/a
628.58	0.12	1257160	keystroke_t	t	n/a
628.73	0.105	1257460	keystroke_Key.space	Key.space	n/a
628.955	0.21	1257910	keystroke_s	s	n/a
629.12	0.195	1258240	keystroke_a	a	n/a
629.36	0.15	1258720	keystroke_f	f	n/a
629.48	0.195	1258960	keystroke_e	e	n/a
629.645	0.135	1259290	keystroke_r	r	n/a
630.23	0.075	1260460	keystroke_Key.enter	Key.enter	n/a
630.3145	11.3945	1260629	prompt	n/a	immunology never millennium aspects\n
631.1	0.105	1262200	keystroke_i	i	n/a
631.355	0.09	1262710	keystroke_m	m	n/a
631.55	0.09	1263100	keystroke_m	m	n/a
631.955	0.105	1263910	keystroke_u	u	n/a
632.5845	0.135	1265169	keystroke_n	n	n/a
632.7645	0.075	1265529	keystroke_o	o	n/a
632.9445	0.075	1265889	keystroke_l	l	n/a
633.1245	0.0755	1266249	keystroke_o	o	n/a
633.305	0.105	1266610	keystroke_g	g	n/a
633.65	0.075	1267300	keystroke_y	y	n/a
633.83	0.12	1267660	keystroke_Key.space	Key.space	n/a
634.19	0.105	1268380	keystroke_n	n	n/a
634.31	0.12	1268620	keystroke_e	e	n/a
634.46	0.15	1268920	keystroke_v	v	n/a
634.595	0.15	1269190	keystroke_e	e	n/a
634.73	0.105	1269460	keystroke_r	r	n/a
634.85	0.06	1269700	keystroke_Key.space	Key.space	n/a
635.165	0.135	1270330	keystroke_m	m	n/a
635.315	0.105	1270630	keystroke_i	i	n/a
635.78	0.045	1271560	keystroke_l	l	n/a
635.9	0.09	1271800	keystroke_l	l	n/a
636.425	0.105	1272850	keystroke_e	e	n/a
636.56	0.09	1273120	keystroke_n	n	n/a
636.935	0.105	1273870	keystroke_n	n	n/a
637.355	0.075	1274710	keystroke_i	i	n/a
637.64	0.06	1275280	keystroke_u	u	n/a
637.88	0.12	1275760	keystroke_m	m	n/a
638.015	0.09	1276030	keystroke_Key.space	Key.space	n/a
638.33	0.075	1276660	keystroke_s	s	n/a
638.81	0.075	1277620	keystroke_Key.backspace	Key.backspace	n/a
638.93	0.105	1277860	keystroke_a	a	n/a
639.395	0.105	1278790	keystroke_s	s	n/a
639.995	0.0755	1279990	keystroke_p	p	n/a
640.535	0.12	1281070	keystroke_e	e	n/a
640.79	0.15	1281580	keystroke_c	c	n/a
641.06	0.105	1282120	keystroke_t	t	n/a
641.3	0.105	1282600	keystroke_s	s	n/a
641.63	0.075	1283260	keystroke_Key.enter	Key.enter	n/a
641.7165	8.7195	1283433	prompt	n/a	activities reads focuses fruits\n
642.485	0.12	1284970	keystroke_a	a	n/a
642.755	0.12	1285510	keystroke_c	c	n/a
642.995	0.105	1285990	keystroke_t	t	n/a
643.16	0.075	1286320	keystroke_i	i	n/a
643.325	0.12	1286650	keystroke_v	v	n/a
643.43	0.09	1286860	keystroke_i	i	n/a
643.64	0.09	1287280	keystroke_t	t	n/a
643.955	0.075	1287910	keystroke_i	i	n/a
644.105	0.105	1288210	keystroke_e	e	n/a
644.33	0.075	1288660	keystroke_s	s	n/a
644.42	0.105	1288840	keystroke_Key.space	Key.space	n/a
644.705	0.135	1289410	keystroke_r	r	n/a
644.825	0.09	1289650	keystroke_e	e	n/a
644.885	0.165	1289770	keystroke_a	a	n/a
645.035	0.09	1290070	keystroke_d	d	n/a
645.59	0.09	1291180	keystroke_s	s	n/a
645.8	0.06	1291600	keystroke_Key.space	Key.space	n/a
646.3995	0.1055	1292799	keystroke_f	f	n/a
647.0605	0.0595	1294121	keystroke_o	o	n/a
647.2555	0.1045	1294511	keystroke_c	c	n/a
647.735	0.06	1295470	keystroke_u	u	n/a
647.84	0.09	1295680	keystroke_s	s	n/a
648.2605	0.119	1296521	keystroke_e	e	n/a
648.4705	0.09	1296941	keystroke_s	s	n/a
648.6045	0.105	1297209	keystroke_Key.space	Key.space	n/a
648.8755	0.12	1297751	keystroke_f	f	n/a
649.2205	0.134	1298441	keystroke_r	r	n/a
649.5805	0.059	1299161	keystroke_u	u	n/a
649.7755	0.09	1299551	keystroke_i	i	n/a
649.8955	0.09	1299791	keystroke_t	t	n/a
650.1505	0.089	1300301	keystroke_s	s	n/a
650.36	0.075	1300720	keystroke_Key.enter	Key.enter	n/a
650.4405	7.826	1300881	prompt	n/a	packed breeds eden confused\n
651.395	0.105	1302790	keystroke_p	p	n/a
651.545	0.135	1303090	keystroke_a	a	n/a
651.77	0.12	1303540	keystroke_c	c	n/a
651.875	0.0745	1303750	keystroke_k	k	n/a
652.04	0.075	1304080	keystroke_e	e	n/a
652.235	0.075	1304470	keystroke_d	d	n/a
652.355	0.075	1304710	keystroke_Key.space	Key.space	n/a
652.505	0.09	1305010	keystroke_b	b	n/a
652.895	0.105	1305790	keystroke_r	r	n/a
653.15	0.075	1306300	keystroke_e	e	n/a
653.315	0.09	1306630	keystroke_e	e	n/a
653.54	0.105	1307080	keystroke_d	d	n/a
653.675	0.09	1307350	keystroke_Key.space	Key.space	n/a
653.96	0.105	1307920	keystroke_e	e	n/a
654.455	0.105	1308910	keystroke_d	d	n/a
654.68	0.12	1309360	keystroke_e	e	n/a
654.875	0.12	1309750	keystroke_n	n	n/a
655.13	0.045	1310260	keystroke_Key.space	Key.space	n/a
655.385	0.135	1310770	keystroke_c	c	n/a
655.475	0.075	1310950	keystroke_o	o	n/a
655.565	0.105	1311130	keystroke_n	n	n/a
655.79	0.1505	1311580	keystroke_f	f	n/a
656.06	0.06	1312120	keystroke_u	u	n/a
656.24	0.075	1312480	keystroke_s	s	n/a
657.77	0.075	1315540	keystroke_e	e	n/a
657.965	0.105	1315930	keystroke_d	d	n/a
658.19	0.075	1316380	keystroke_Key.enter	Key.enter	n/a
658.273	9.638	1316546	prompt	n/a	themes secondary mason closely\n
659.3295	0.12	1318659	keystroke_t	t	n/a
659.4645	0.09	1318929	keystroke_h	h	n/a
659.6595	0.105	1319319	keystroke_e	e	n/a
659.9895	0.105	1319979	keystroke_m	m	n/a
660.3495	0.105	1320699	keystroke_e	e	n/a
660.6045	0.105	1321209	keystroke_s	s	n/a
660.7695	0.105	1321539	keystroke_Key.space	Key.space	n/a
661.1895	0.135	1322379	keystroke_s	s	n/a
661.4145	0.135	1322829	keystroke_e	e	n/a
661.7145	0.105	1323429	keystroke_c	c	n/a
661.985	0.09	1323970	keystroke_o	o	n/a
662.09	0.09	1324180	keystroke_n	n	n/a
662.42	0.135	1324840	keystroke_d	d	n/a
662.705	0.12	1325410	keystroke_a	a	n/a
662.93	0.105	1325860	keystroke_r	r	n/a
663.08	0.06	1326160	keystroke_y	y	n/a
663.215	0.134	1326430	keystroke_Key.space	Key.space	n/a
663.545	0.12	1327090	keystroke_m	m	n/a
663.68	0.09	1327360	keystroke_a	a	n/a
663.8905	0.089	1327781	keystroke_s	s	n/a
664.0105	0.09	1328021	keystroke_o	o	n/a
664.0855	0.149	1328171	keystroke_n	n	n/a
664.2795	0.075	1328559	keystroke_Key.space	Key.space	n/a
664.6095	0.135	1329219	keystroke_c	c	n/a
664.8045	0.09	1329609	keystroke_l	l	n/a
664.9995	0.06	1329999	keystroke_o	o	n/a
665.6745	0.075	1331349	keystroke_s	s	n/a
665.8555	0.104	1331711	keystroke_l	l	n/a
666.0195	0.12	1332039	keystroke_e	e	n/a
666.3045	0.045	1332609	keystroke_y	y	n/a
666.6945	0.06	1333389	keystroke_Key.backspace	Key.backspace	n/a
666.8595	0.06	1333719	keystroke_Key.backspace	Key.backspace	n/a
666.9795	0.09	1333959	keystroke_Key.backspace	Key.backspace	n/a
667.1445	0.09	1334289	keystroke_e	e	n/a
667.2645	0.105	1334529	keystroke_l	l	n/a
667.5495	0.06	1335099	keystroke_y	y	n/a
667.8345	0.075	1335669	keystroke_Key.enter	Key.enter	n/a
667.9155	14.831	1335831	prompt	n/a	providence harris prix boxed\n
668.7945	0.12	1337589	keystroke_p	p	n/a
668.9745	0.15	1337949	keystroke_r	r	n/a
669.1095	0.09	1338219	keystroke_o	o	n/a
669.3195	0.135	1338639	keystroke_v	v	n/a
669.4995	0.06	1338999	keystroke_i	i	n/a
669.6195	0.09	1339239	keystroke_d	d	n/a
669.8145	0.09	1339629	keystroke_e	e	n/a
669.9795	0.06	1339959	keystroke_n	n	n/a
672.6965	0.058	1345393	keystroke_c	c	n/a
672.875	0.0895	1345750	keystroke_e	e	n/a
673.175	0.075	1346350	keystroke_Key.space	Key.space	n/a
673.91	0.0895	1347820	keystroke_h	h	n/a
674.0145	0.12	1348029	keystroke_a	a	n/a
674.345	0.045	1348690	keystroke_r	r	n/a
674.51	0.09	1349020	keystroke_r	r	n/a
674.66	0.06	1349320	keystroke_i	i	n/a
674.81	0.09	1349620	keystroke_s	s	n/a
674.93	0.09	1349860	keystroke_Key.space	Key.space	n/a
675.29	0.105	1350580	keystroke_p	p	n/a
676.2645	0.12	1352529	keystroke_r	r	n/a
676.3995	0.045	1352799	keystroke_i	i	n/a
676.6395	0.165	1353279	keystroke_x	x	n/a
677.6295	0.105	1355259	keystroke_b	b	n/a
677.7495	0.075	1355499	keystroke_o	o	n/a
677.9145	0.12	1355829	keystroke_x	x	n/a
678.4245	0.06	1356849	keystroke_Key.backspace	Key.backspace	n/a
678.5745	0.06	1357149	keystroke_Key.backspace	Key.backspace	n/a
678.7245	0.075	1357449	keystroke_Key.backspace	Key.backspace	n/a
678.9645	0.075	1357929	keystroke_Key.space	Key.space	n/a
679.6395	0.09	1359279	keystroke_b	b	n/a
679.8495	0.06	1359699	keystroke_o	o	n/a
679.9845	0.135	1359969	keystroke_x	x	n/a
680.3895	0.09	1360779	keystroke_e	e	n/a
680.6295	0.075	1361259	keystroke_s	s	n/a
681.3795	0.075	1362759	keystroke_Key.backspace	Key.backspace	n/a
681.5145	0.105	1363029	keystroke_d	d	n/a
682.6845	0.06	1365369	keystroke_Key.enter	Key.enter	n/a
682.7525	11.0795	1365505	prompt	n/a	trout opportunity structure recording\n
684.47	0.09	1368940	keystroke_t	t	n/a
684.77	0.135	1369540	keystroke_r	r	n/a
685.07	0.135	1370140	keystroke_o	o	n/a
685.175	0.09	1370350	keystroke_u	u	n/a
685.445	0.105	1370890	keystroke_t	t	n/a
685.655	0.105	1371310	keystroke_Key.space	Key.space	n/a
686.12	0.09	1372240	keystroke_o	o	n/a
686.39	0.045	1372780	keystroke_p	p	n/a
686.54	0.06	1373080	keystroke_p	p	n/a
686.735	0.075	1373470	keystroke_o	o	n/a
686.989	0.091	1373978	keystroke_r	r	n/a
687.185	0.09	1374370	keystroke_t	t	n/a
687.65	0.06	1375300	keystroke_u	u	n/a
687.859	0.091	1375718	keystroke_n	n	n/a
687.979	0.09	1375958	keystroke_i	i	n/a
688.114	0.106	1376228	keystroke_t	t	n/a
688.234	0.075	1376468	keystroke_y	y	n/a
688.369	0.0905	1376738	keystroke_Key.space	Key.space	n/a
688.8195	0.12	1377639	keystroke_s	s	n/a
689.0445	0.075	1378089	keystroke_t	t	n/a
689.4795	0.09	1378959	keystroke_r	r	n/a
689.7345	0.075	1379469	keystroke_u	u	n/a
689.9145	0.135	1379829	keystroke_c	c	n/a
690.1855	0.089	1380371	keystroke_t	t	n/a
690.7695	0.105	1381539	keystroke_u	u	n/a
690.8895	0.09	1381779	keystroke_r	r	n/a
690.9495	0.09	1381899	keystroke_e	e	n/a
691.0995	0.09	1382199	keystroke_Key.space	Key.space	n/a
691.5345	0.12	1383069	keystroke_r	r	n/a
691.6395	0.09	1383279	keystroke_e	e	n/a
691.8495	0.135	1383699	keystroke_c	c	n/a
692.0305	0.074	1384061	keystroke_o	o	n/a
692.1645	0.12	1384329	keystroke_r	r	n/a
692.4345	0.105	1384869	keystroke_d	d	n/a
692.5695	0.09	1385139	keystroke_i	i	n/a
692.6295	0.12	1385259	keystroke_n	n	n/a
692.7645	0.075	1385529	keystroke_g	g	n/a
693.7245	0.105	1387449	keystroke_Key.enter	Key.enter	n/a
693.839	8.3175	1387678	prompt	n/a	accomplished sleeps ranks its\n
694.565	0.105	1389130	keystroke_a	a	n/a
694.865	0.06	1389730	keystroke_c	c	n/a
695.045	0.074	1390090	keystroke_c	c	n/a
695.4645	0.03	1390929	keystroke_o	o	n/a
695.7505	0.1485	1391501	keystroke_m	m	n/a
696.0645	0.09	1392129	keystroke_p	p	n/a
696.4845	0.075	1392969	keystroke_l	l	n/a
696.7095	0.06	1393419	keystroke_i	i	n/a
696.8745	0.075	1393749	keystroke_s	s	n/a
697.0095	0.075	1394019	keystroke_h	h	n/a
697.3545	0.09	1394709	keystroke_e	e	n/a
697.5645	0.09	1395129	keystroke_d	d	n/a
697.6695	0.105	1395339	keystroke_Key.space	Key.space	n/a
698.1345	0.09	1396269	keystroke_s	s	n/a
698.3595	0.06	1396719	keystroke_l	l	n/a
698.5395	0.06	1397079	keystroke_e	e	n/a
698.6895	0.09	1397379	keystroke_e	e	n/a
698.8695	0.09	1397739	keystroke_p	p	n/a
699.4695	0.075	1398939	keystroke_s	s	n/a
699.6645	0.075	1399329	keystroke_Key.space	Key.space	n/a
699.9795	0.15	1399959	keystroke_r	r	n/a
700.1145	0.105	1400229	keystroke_a	a	n/a
700.2645	0.105	1400529	keystroke_n	n	n/a
700.4295	0.09	1400859	keystroke_k	k	n/a
700.9545	0.09	1401909	keystroke_Key.space	Key.space	n/a
701.2695	0.09	1402539	keystroke_i	i	n/a
701.4045	0.09	1402809	keystroke_t	t	n/a
701.66	0.09	1403320	keystroke_s	s	n/a
702.08	0.075	1404160	keystroke_Key.enter	Key.enter	n/a
702.162	12.52	1404324	prompt	n/a	oops nursery creation charlotte\n
703.07	0.105	1406140	keystroke_o	o	n/a
703.4	0.06	1406800	keystroke_p	p	n/a
703.565	0.06	1407130	keystroke_p	p	n/a
704.15	0.075	1408300	keystroke_s	s	n/a
704.9	0.045	1409800	keystroke_Key.backspace	Key.backspace	n/a
705.065	0.03	1410130	keystroke_Key.backspace	Key.backspace	n/a
705.2	0.045	1410400	keystroke_Key.backspace	Key.backspace	n/a
706.085	0.06	1412170	keystroke_o	o	n/a
706.25	0.075	1412500	keystroke_p	p	n/a
706.505	0.075	1413010	keystroke_s	s	n/a
706.729	0.09	1413458	keystroke_Key.space	Key.space	n/a
707.5245	0.106	1415049	keystroke_n	n	n/a
707.7795	0.046	1415559	keystroke_u	u	n/a
707.9745	0.105	1415949	keystroke_r	r	n/a
708.2295	0.135	1416459	keystroke_s	s	n/a
708.9195	0.15	1417839	keystroke_e	e	n/a
709.0845	0.136	1418169	keystroke_r	r	n/a
709.6545	0.06	1419309	keystroke_y	y	n/a
