onset	duration	sample	value	key	prompt_text
12.8395	10.3215	25679	prompt	n/a	the quick brown fox jumps over a lazy dog\n
14.384	0.0425	28768	keystroke_t	t	n/a
14.4415	0.0905	28883	keystroke_h	h	n/a
14.562	0.075	29124	keystroke_e	e	n/a
14.7565	0.06	29513	keystroke_Key.space	Key.space	n/a
14.8315	0.105	29663	keystroke_q	q	n/a
14.9965	0.075	29993	keystroke_u	u	n/a
15.1465	0.09	30293	keystroke_i	i	n/a
15.312	0.104	30624	keystroke_c	c	n/a
15.4315	0.09	30863	keystroke_k	k	n/a
15.566	0.0905	31132	keystroke_Key.space	Key.space	n/a
15.852	0.09	31704	keystroke_b	b	n/a
15.9865	0.09	31973	keystroke_r	r	n/a
17.0065	0.075	34013	keystroke_o	o	n/a
17.157	0.1045	34314	keystroke_w	w	n/a
17.3215	0.075	34643	keystroke_n	n	n/a
17.4565	0.0895	34913	keystroke_Key.space	Key.space	n/a
17.562	0.0745	35124	keystroke_f	f	n/a
17.7265	0.075	35453	keystroke_o	o	n/a
17.952	0.089	35904	keystroke_x	x	n/a
18.056	0.0755	36112	keystroke_Key.space	Key.space	n/a
18.192	0.075	36384	keystroke_j	j	n/a
18.3265	0.09	36653	keystroke_u	u	n/a
18.521	0.091	37042	keystroke_m	m	n/a
18.7165	0.105	37433	keystroke_p	p	n/a
18.8365	0.0905	37673	keystroke_s	s	n/a
19.8415	0.1205	39683	keystroke_Key.space	Key.space	n/a
20.3065	0.0745	40613	keystroke_o	o	n/a
20.6065	0.0895	41213	keystroke_v	v	n/a
20.711	0.1955	41422	keystroke_e	e	n/a
20.8315	0.135	41663	keystroke_r	r	n/a
20.9505	0.0905	41901	keystroke_Key.space	Key.space	n/a
21.2515	0.0905	42503	keystroke_a	a	n/a
21.551	0.09	43102	keystroke_Key.space	Key.space	n/a
21.701	0.105	43402	keystroke_l	l	n/a
21.971	0.031	43942	keystroke_a	a	n/a
22.197	0.1195	44394	keystroke_z	z	n/a
22.3315	0.09	44663	keystroke_y	y	n/a
22.4665	0.09	44933	keystroke_Key.space	Key.space	n/a
22.602	0.1045	45204	keystroke_d	d	n/a
22.7215	0.105	45443	keystroke_o	o	n/a
22.8715	0.0905	45743	keystroke_g	g	n/a
23.036	0.1205	46072	keystroke_Key.enter	Key.enter	n/a
23.1695	5.914	46339	prompt	n/a	gordon rain reached outlets\n
24.1765	0.0895	48353	keystroke_g	g	n/a
24.3115	0.105	48623	keystroke_o	o	n/a
24.4915	0.105	48983	keystroke_r	r	n/a
24.746	0.0905	49492	keystroke_d	d	n/a
25.017	0.0895	50034	keystroke_o	o	n/a
25.2115	0.12	50423	keystroke_n	n	n/a
25.3765	0.09	50753	keystroke_Key.space	Key.space	n/a
25.4965	0.1505	50993	keystroke_r	r	n/a
25.6615	0.135	51323	keystroke_a	a	n/a
25.8115	0.075	51623	keystroke_i	i	n/a
26.0665	0.105	52133	keystroke_n	n	n/a
26.2615	0.105	52523	keystroke_Key.space	Key.space	n/a
26.5015	0.105	53003	keystroke_r	r	n/a
26.8165	0.15	53633	keystroke_e	e	n/a
26.982	0.119	53964	keystroke_a	a	n/a
27.2215	0.075	54443	keystroke_c	c	n/a
27.3565	0.09	54713	keystroke_h	h	n/a
27.4765	0.15	54953	keystroke_e	e	n/a
27.612	0.1045	55224	keystroke_d	d	n/a
27.7615	0.06	55523	keystroke_Key.space	Key.space	n/a
27.8515	0.1045	55703	keystroke_o	o	n/a
28.032	0.105	56064	keystroke_u	u	n/a
28.122	0.105	56244	keystroke_t	t	n/a
28.272	0.119	56544	keystroke_l	l	n/a
28.4065	0.1805	56813	keystroke_e	e	n/a
28.571	0.121	57142	keystroke_t	t	n/a
28.872	0.075	57744	keystroke_s	s	n/a
28.991	0.09	57982	keystroke_Key.enter	Key.enter	n/a
29.088	9.941	58176	prompt	n/a	modified calendars myanmar subcommittee\n
29.7865	0.075	59573	keystroke_m	m	n/a
30.087	0.0145	60174	keystroke_o	o	n/a
30.1165	0.09	60233	keystroke_d	d	n/a
30.267	0.1045	60534	keystroke_i	i	n/a
30.672	0.045	61344	keystroke_f	f	n/a
30.747	0.09	61494	keystroke_i	i	n/a
30.896	0.1955	61792	keystroke_e	e	n/a
31.0765	0.121	62153	keystroke_d	d	n/a
31.2115	0.12	62423	keystroke_Key.space	Key.space	n/a
31.392	0.1195	62784	keystroke_c	c	n/a
31.5715	0.135	63143	keystroke_a	a	n/a
31.7215	0.0905	63443	keystroke_l	l	n/a
31.902	0.105	63804	keystroke_e	e	n/a
32.187	0.1045	64374	keystroke_n	n	n/a
32.3515	0.1205	64703	keystroke_d	d	n/a
32.5315	0.15	65063	keystroke_a	a	n/a
32.7115	0.105	65423	keystroke_r	r	n/a
32.9065	0.1355	65813	keystroke_s	s	n/a
33.0715	0.105	66143	keystroke_Key.space	Key.space	n/a
33.281	0.076	66562	keystroke_m	m	n/a
33.612	0.089	67224	keystroke_y	y	n/a
33.777	0.105	67554	keystroke_r	r	n/a
33.987	0.105	67974	keystroke_a	a	n/a
34.121	0.105	68242	keystroke_n	n	n/a
34.3615	0.0755	68723	keystroke_m	m	n/a
34.422	0.119	68844	keystroke_a	a	n/a
34.632	0.105	69264	keystroke_r	r	n/a
34.752	0.09	69504	keystroke_Key.space	Key.space	n/a
35.0065	0.09	70013	keystroke_s	s	n/a
35.397	0.0895	70794	keystroke_u	u	n/a
35.577	0.09	71154	keystroke_b	b	n/a
35.937	0.075	71874	keystroke_c	c	n/a
36.072	0.12	72144	keystroke_o	o	n/a
36.342	0.09	72684	keystroke_m	m	n/a
37.0165	0.09	74033	keystroke_m	m	n/a
38.201	0.076	76402	keystroke_i	i	n/a
38.3965	0.0755	76793	keystroke_t	t	n/a
38.561	0.106	77122	keystroke_t	t	n/a
38.772	0.119	77544	keystroke_e	e	n/a
38.922	0.105	77844	keystroke_Key.enter	Key.enter	n/a
39.034	10.15	78068	prompt	n/a	functions somerset inns biblical\n
39.792	0.075	79584	keystroke_f	f	n/a
39.897	0.06	79794	keystroke_u	u	n/a
40.0625	0.104	80125	keystroke_n	n	n/a
40.182	0.06	80364	keystroke_c	c	n/a
40.467	0.09	80934	keystroke_t	t	n/a
40.602	0.03	81204	keystroke_i	i	n/a
40.662	0.105	81324	keystroke_o	o	n/a
41.037	0.09	82074	keystroke_n	n	n/a
41.307	0.135	82614	keystroke_s	s	n/a
41.472	0.075	82944	keystroke_Key.space	Key.space	n/a
41.682	0.12	83364	keystroke_s	s	n/a
41.817	0.105	83634	keystroke_o	o	n/a
42.0415	0.0905	84083	keystroke_m	m	n/a
42.1465	0.18	84293	keystroke_e	e	n/a
42.2965	0.105	84593	keystroke_r	r	n/a
42.536	0.136	85072	keystroke_s	s	n/a
42.657	0.165	85314	keystroke_e	e	n/a
42.867	0.105	85734	keystroke_t	t	n/a
43.002	0.104	86004	keystroke_Key.space	Key.space	n/a
43.1965	0.075	86393	keystroke_i	i	n/a
43.4215	0.0305	86843	keystroke_n	n	n/a
43.5715	0.0605	87143	keystroke_n	n	n/a
43.7215	0.12	87443	keystroke_s	s	n/a
43.9765	0.1205	87953	keystroke_Key.space	Key.space	n/a
47.5485	0.028	95097	keystroke_b	b	n/a
47.757	0.09	95514	keystroke_i	i	n/a
47.9665	0.09	95933	keystroke_b	b	n/a
48.1775	0.1045	96355	keystroke_l	l	n/a
48.3565	0.1205	96713	keystroke_i	i	n/a
48.462	0.165	96924	keystroke_c	c	n/a
48.6115	0.15	97223	keystroke_a	a	n/a
48.7475	0.12	97495	keystroke_l	l	n/a
49.062	0.1195	98124	keystroke_Key.enter	Key.enter	n/a
49.1885	5.725	98377	prompt	n/a	custom nylon associate drew\n
49.872	0.0755	99744	keystroke_c	c	n/a
49.9615	0.0755	99923	keystroke_u	u	n/a
50.0665	0.105	100133	keystroke_s	s	n/a
50.277	0.0905	100554	keystroke_t	t	n/a
50.3815	0.075	100763	keystroke_o	o	n/a
50.622	0.0605	101244	keystroke_m	m	n/a
50.697	0.105	101394	keystroke_Key.space	Key.space	n/a
50.922	0.0905	101844	keystroke_n	n	n/a
51.147	0.075	102294	keystroke_y	y	n/a
51.402	0.135	102804	keystroke_l	l	n/a
51.612	0.1055	103224	keystroke_o	o	n/a
51.897	0.09	103794	keystroke_n	n	n/a
52.032	0.09	104064	keystroke_Key.space	Key.space	n/a
52.2115	0.1655	104423	keystroke_a	a	n/a
52.4065	0.12	104813	keystroke_s	s	n/a
52.617	0.0895	105234	keystroke_s	s	n/a
52.857	0.105	105714	keystroke_o	o	n/a
53.157	0.075	106314	keystroke_c	c	n/a
53.292	0.105	106584	keystroke_i	i	n/a
53.427	0.1205	106854	keystroke_a	a	n/a
53.652	0.1045	107304	keystroke_t	t	n/a
53.832	0.0745	107664	keystroke_e	e	n/a
53.952	0.1195	107904	keystroke_Key.space	Key.space	n/a
54.1015	0.076	108203	keystroke_d	d	n/a
54.357	0.165	108714	keystroke_r	r	n/a
54.4775	0.18	108955	keystroke_e	e	n/a
54.6275	0.149	109255	keystroke_w	w	n/a
54.807	0.1045	109614	keystroke_Key.enter	Key.enter	n/a
54.9175	6.3875	109835	prompt	n/a	betty might hitting include\n
55.557	0.0595	111114	keystroke_b	b	n/a
55.7515	0.106	111503	keystroke_t	t	n/a
56.306	0.0905	112612	keystroke_Key.backspace	Key.backspace	n/a
56.442	0.1355	112884	keystroke_e	e	n/a
56.5615	0.121	113123	keystroke_t	t	n/a
56.8465	0.1055	113693	keystroke_t	t	n/a
57.0265	0.09	114053	keystroke_y	y	n/a
57.237	0.0895	114474	keystroke_Key.space	Key.space	n/a
57.492	0.06	114984	keystroke_m	m	n/a
57.657	0.0905	115314	keystroke_i	i	n/a
57.7765	0.0905	115553	keystroke_g	g	n/a
57.8825	0.1195	115765	keystroke_h	h	n/a
58.017	0.12	116034	keystroke_t	t	n/a
58.122	0.09	116244	keystroke_Key.space	Key.space	n/a
58.3315	0.105	116663	keystroke_h	h	n/a
58.5415	0.1055	117083	keystroke_i	i	n/a
58.662	0.1045	117324	keystroke_t	t	n/a
58.827	0.1055	117654	keystroke_t	t	n/a
58.9625	0.0745	117925	keystroke_i	i	n/a
59.1275	0.1195	118255	keystroke_n	n	n/a
59.2325	0.105	118465	keystroke_g	g	n/a
59.3515	0.075	118703	keystroke_Key.space	Key.space	n/a
59.517	0.0745	119034	keystroke_i	i	n/a
59.6965	0.1055	119393	keystroke_n	n	n/a
60.117	0.09	120234	keystroke_c	c	n/a
60.2965	0.1055	120593	keystroke_l	l	n/a
60.522	0.09	121044	keystroke_u	u	n/a
60.6865	0.15	121373	keystroke_d	d	n/a
60.8515	0.105	121703	keystroke_e	e	n/a
61.2125	0.0895	122425	keystroke_Key.enter	Key.enter	n/a
61.31	11.379	122620	prompt	n/a	cambridge carol verified workforce\n
62.247	0.1045	124494	keystroke_c	c	n/a
62.367	0.1495	124734	keystroke_a	a	n/a
62.5015	0.075	125003	keystroke_m	m	n/a
62.757	0.1055	125514	keystroke_b	b	n/a
62.8915	0.09	125783	keystroke_r	r	n/a
63.0875	0.104	126175	keystroke_i	i	n/a
63.732	0.105	127464	keystroke_d	d	n/a
64.032	0.075	128064	keystroke_g	g	n/a
64.197	0.09	128394	keystroke_e	e	n/a
64.392	0.09	128784	keystroke_Key.space	Key.space	n/a
64.662	0.09	129324	keystroke_c	c	n/a
65.082	0.135	130164	keystroke_a	a	n/a
65.3815	0.105	130763	keystroke_r	r	n/a
65.517	0.1045	131034	keystroke_o	o	n/a
65.7265	0.09	131453	keystroke_l	l	n/a
65.967	0.074	131934	keystroke_Key.space	Key.space	n/a
66.207	0.045	132414	keystroke_v	v	n/a
66.3715	0.1505	132743	keystroke_e	e	n/a
66.552	0.105	133104	keystroke_r	r	n/a
66.972	0.0745	133944	keystroke_t	t	n/a
67.2115	0.045	134423	keystroke_i	i	n/a
67.482	0.0595	134964	keystroke_Key.backspace	Key.backspace	n/a
67.617	0.0445	135234	keystroke_Key.backspace	Key.backspace	n/a
67.9175	0.059	135835	keystroke_i	i	n/a
68.607	0.0455	137214	keystroke_f	f	n/a
68.727	0.09	137454	keystroke_i	i	n/a
68.9675	0.119	137935	keystroke_e	e	n/a
69.4015	0.0905	138803	keystroke_d	d	n/a
69.6715	0.1205	139343	keystroke_Key.space	Key.space	n/a
70.0475	0.1345	140095	keystroke_w	w	n/a
70.152	0.09	140304	keystroke_o	o	n/a
70.317	0.075	140634	keystroke_r	r	n/a
70.437	0.1055	140874	keystroke_k	k	n/a
71.382	0.0905	142764	keystroke_f	f	n/a
71.562	0.12	143124	keystroke_o	o	n/a
71.742	0.09	143484	keystroke_r	r	n/a
72.102	0.105	144204	keystroke_c	c	n/a
72.342	0.105	144684	keystroke_e	e	n/a
72.597	0.0895	145194	keystroke_Key.enter	Key.enter	n/a
72.6965	10.462	145393	prompt	n/a	hunting assuming journalist belts\n
73.3915	0.0755	146783	keystroke_h	h	n/a
73.5275	0.0895	147055	keystroke_u	u	n/a
73.692	0.105	147384	keystroke_n	n	n/a
73.812	0.0905	147624	keystroke_t	t	n/a
74.187	0.09	148374	keystroke_i	i	n/a
74.382	0.09	148764	keystroke_n	n	n/a
74.487	0.105	148974	keystroke_g	g	n/a
74.637	0.0595	149274	keystroke_Key.space	Key.space	n/a
74.832	0.0445	149664	keystroke_s	s	n/a
75.147	0.0745	150294	keystroke_Key.backspace	Key.backspace	n/a
75.297	0.1195	150594	keystroke_a	a	n/a
75.657	0.09	151314	keystroke_s	s	n/a
75.8675	0.1195	151735	keystroke_s	s	n/a
75.957	0.0895	151914	keystroke_u	u	n/a
76.242	0.0905	152484	keystroke_m	m	n/a
76.422	0.075	152844	keystroke_i	i	n/a
76.6165	0.075	153233	keystroke_n	n	n/a
76.7225	0.104	153445	keystroke_g	g	n/a
76.842	0.075	153684	keystroke_Key.space	Key.space	n/a
77.202	0.0755	154404	keystroke_h	h	n/a
77.547	0.06	155094	keystroke_o	o	n/a
77.712	0.075	155424	keystroke_u	u	n/a
78.3415	0.0755	156683	keystroke_Key.backspace	Key.backspace	n/a
78.5215	0.09	157043	keystroke_Key.backspace	Key.backspace	n/a
79.3165	0.06	158633	keystroke_Key.backspace	Key.backspace	n/a
79.662	0.0745	159324	keystroke_j	j	n/a
79.782	0.12	159564	keystroke_o	o	n/a
79.992	0.105	159984	keystroke_u	u	n/a
80.487	0.1045	160974	keystroke_r	r	n/a
80.6975	0.089	161395	keystroke_n	n	n/a
80.832	0.165	161664	keystroke_a	a	n/a
80.9825	0.104	161965	keystroke_l	l	n/a
81.2815	0.105	162563	keystroke_i	i	n/a
81.4915	0.0905	162983	keystroke_s	s	n/a
81.687	0.0905	163374	keystroke_t	t	n/a
81.7915	0.09	163583	keystroke_Key.space	Key.space	n/a
82.0465	0.0605	164093	keystroke_b	b	n/a
82.1365	0.091	164273	keystroke_e	e	n/a
82.317	0.09	164634	keystroke_l	l	n/a
82.467	0.09	164934	keystroke_t	t	n/a
82.782	0.0905	165564	keystroke_s	s	n/a
83.037	0.119	166074	keystroke_Key.enter	Key.enter	n/a
83.163	6.2505	166326	prompt	n/a	chick kathy vocal save\n
83.847	0.09	167694	keystroke_c	c	n/a
83.967	0.0745	167934	keystroke_h	h	n/a
84.162	0.1045	168324	keystroke_i	i	n/a
84.3115	0.0905	168623	keystroke_c	c	n/a
84.4165	0.09	168833	keystroke_k	k	n/a
84.5665	0.0605	169133	keystroke_Key.space	Key.space	n/a
84.8815	0.09	169763	keystroke_k	k	n/a
84.987	0.165	169974	keystroke_a	a	n/a
85.287	0.105	170574	keystroke_t	t	n/a
85.377	0.0745	170754	keystroke_h	h	n/a
85.5565	0.1205	171113	keystroke_y	y	n/a
85.7365	0.09	171473	keystroke_Key.space	Key.space	n/a
86.022	0.09	172044	keystroke_c	c	n/a
86.487	0.089	172974	keystroke_Key.backspace	Key.backspace	n/a
86.667	0.12	173334	keystroke_v	v	n/a
86.892	0.105	173784	keystroke_o	o	n/a
87.762	0.1045	175524	keystroke_c	c	n/a
87.9425	0.1345	175885	keystroke_a	a	n/a
88.0615	0.135	176123	keystroke_l	l	n/a
88.272	0.1195	176544	keystroke_Key.space	Key.space	n/a
88.7065	0.136	177413	keystroke_s	s	n/a
88.8565	0.135	177713	keystroke_a	a	n/a
88.977	0.09	177954	keystroke_v	v	n/a
89.112	0.105	178224	keystroke_e	e	n/a
89.322	0.09	178644	keystroke_Key.enter	Key.enter	n/a
89.4185	6.655	178837	prompt	n/a	senior writing rich current\n
89.982	0.12	179964	keystroke_s	s	n/a
90.147	0.12	180294	keystroke_e	e	n/a
90.297	0.075	180594	keystroke_n	n	n/a
90.4915	0.1055	180983	keystroke_i	i	n/a
90.627	0.105	181254	keystroke_o	o	n/a
90.747	0.0895	181494	keystroke_r	r	n/a
90.897	0.1195	181794	keystroke_Key.space	Key.space	n/a
91.182	0.075	182364	keystroke_w	w	n/a
91.361	0.0605	182722	keystroke_r	r	n/a
91.4675	0.0895	182935	keystroke_i	i	n/a
91.586	0.091	183172	keystroke_t	t	n/a
91.692	0.075	183384	keystroke_i	i	n/a
91.8715	0.105	183743	keystroke_n	n	n/a
91.991	0.076	183982	keystroke_g	g	n/a
92.081	0.0755	184162	keystroke_Key.space	Key.space	n/a
92.4125	0.059	184825	keystroke_r	r	n/a
92.592	0.0905	185184	keystroke_i	i	n/a
92.757	0.1195	185514	keystroke_g	g	n/a
92.892	0.09	185784	keystroke_h	h	n/a
93.447	0.059	186894	keystroke_Key.backspace	Key.backspace	n/a
93.582	0.06	187164	keystroke_Key.backspace	Key.backspace	n/a
94.2415	0.1055	188483	keystroke_c	c	n/a
94.3315	0.1055	188663	keystroke_h	h	n/a
94.497	0.0895	188994	keystroke_Key.space	Key.space	n/a
94.8565	0.091	189713	keystroke_c	c	n/a
95.0215	0.0755	190043	keystroke_u	u	n/a
95.247	0.0445	190494	keystroke_r	r	n/a
95.412	0.1345	190824	keystroke_r	r	n/a
95.562	0.09	191124	keystroke_e	e	n/a
95.667	0.105	191334	keystroke_n	n	n/a
95.8025	0.0895	191605	keystroke_t	t	n/a
95.982	0.0895	191964	keystroke_Key.enter	Key.enter	n/a
96.078	8.2755	192156	prompt	n/a	infant finland justify fancy\n
96.912	0.075	193824	keystroke_i	i	n/a
97.122	0.09	194244	keystroke_n	n	n/a
97.332	0.1505	194664	keystroke_f	f	n/a
97.5115	0.1505	195023	keystroke_a	a	n/a
97.722	0.0745	195444	keystroke_n	n	n/a
97.857	0.1045	195714	keystroke_t	t	n/a
98.007	0.074	196014	keystroke_Key.space	Key.space	n/a
98.322	0.105	196644	keystroke_f	f	n/a
98.456	0.0905	196912	keystroke_i	i	n/a
98.652	0.105	197304	keystroke_n	n	n/a
99.417	0.105	198834	keystroke_l	l	n/a
99.582	0.15	199164	keystroke_a	a	n/a
99.762	0.09	199524	keystroke_n	n	n/a
100.197	0.105	200394	keystroke_d	d	n/a
100.377	0.09	200754	keystroke_Key.space	Key.space	n/a
100.947	0.0145	201894	keystroke_j	j	n/a
100.9765	0.03	201953	keystroke_u	u	n/a
101.0515	0.09	202103	keystroke_s	s	n/a
101.262	0.09	202524	keystroke_t	t	n/a
101.367	0.0895	202734	keystroke_i	i	n/a
101.8915	0.0905	203783	keystroke_f	f	n/a
102.0415	0.105	204083	keystroke_y	y	n/a
102.447	0.09	204894	keystroke_Key.space	Key.space	n/a
102.912	0.03	205824	keystroke_f	f	n/a
103.4675	0.0595	206935	keystroke_a	a	n/a
103.662	0.06	207324	keystroke_n	n	n/a
103.8275	0.0745	207655	keystroke_c	c	n/a
104.021	0.0755	208042	keystroke_y	y	n/a
104.262	0.09	208524	keystroke_Key.enter	Key.enter	n/a
104.358	12.761	208716	prompt	n/a	victor she'll initiated radio\n
105.0725	0.075	210145	keystroke_v	v	n/a
105.1765	0.106	210353	keystroke_i	i	n/a
105.2825	0.105	210565	keystroke_c	c	n/a
105.777	0.0905	211554	keystroke_t	t	n/a
105.9715	0.105	211943	keystroke_o	o	n/a
106.152	0.1045	212304	keystroke_r	r	n/a
106.317	0.1045	212634	keystroke_Key.space	Key.space	n/a
106.692	0.12	213384	keystroke_s	s	n/a
106.8125	0.1045	213625	keystroke_h	h	n/a
107.0075	0.0595	214015	keystroke_e	e	n/a
107.547	0.1045	215094	keystroke_;	;	n/a
107.921	0.016	215842	keystroke_l	l	n/a
108.0565	0.0755	216113	keystroke_l	l	n/a
108.2515	0.0755	216503	keystroke_Key.space	Key.space	n/a
108.447	0.09	216894	keystroke_i	i	n/a
108.672	0.105	217344	keystroke_n	n	n/a
109.5415	0.09	219083	keystroke_Key.backspace	Key.backspace	n/a
109.7515	0.0755	219503	keystroke_Key.backspace	Key.backspace	n/a
109.9165	0.09	219833	keystroke_Key.backspace	Key.backspace	n/a
110.1265	0.0755	220253	keystroke_Key.backspace	Key.backspace	n/a
110.3215	0.105	220643	keystroke_Key.backspace	Key.backspace	n/a
110.7565	0.105	221513	keystroke_Key.backspace	Key.backspace	n/a
112.0475	0.074	224095	keystroke_'	'	n/a
112.647	0.21	225294	keystroke_l	l	n/a
112.872	0.045	225744	keystroke_l	l	n/a
113.097	0.1045	226194	keystroke_Key.space	Key.space	n/a
113.322	0.09	226644	keystroke_i	i	n/a
113.5475	0.1045	227095	keystroke_n	n	n/a
113.7715	0.105	227543	keystroke_i	i	n/a
114.086	0.1205	228172	keystroke_t	t	n/a
114.2365	0.09	228473	keystroke_i	i	n/a
114.4765	0.1655	228953	keystroke_a	a	n/a
115.2115	0.1055	230423	keystroke_t	t	n/a
115.422	0.18	230844	keystroke_e	e	n/a
115.602	0.15	231204	keystroke_d	d	n/a
115.812	0.135	231624	keystroke_Key.space	Key.space	n/a
116.052	0.105	232104	keystroke_r	r	n/a
116.187	0.165	232374	keystroke_a	a	n/a
116.3965	0.09	232793	keystroke_d	d	n/a
116.517	0.1045	233034	keystroke_i	i	n/a
116.7115	0.091	233423	keystroke_o	o	n/a
116.9965	0.12	233993	keystroke_Key.enter	Key.enter	n/a
117.1245	6.324	234249	prompt	n/a	compared dale deer african\n
117.747	0.0905	235494	keystroke_c	c	n/a
117.867	0.075	235734	keystroke_o	o	n/a
117.987	0.105	235974	keystroke_m	m	n/a
118.1975	0.0895	236395	keystroke_p	p	n/a
118.3325	0.1195	236665	keystroke_a	a	n/a
118.542	0.12	237084	keystroke_r	r	n/a
118.6165	0.181	237233	keystroke_e	e	n/a
119.127	0.0905	238254	keystroke_d	d	n/a
119.382	0.1195	238764	keystroke_Key.space	Key.space	n/a
119.8325	0.135	239665	keystroke_d	d	n/a
119.9965	0.1505	239993	keystroke_a	a	n/a
120.1475	0.1195	240295	keystroke_l	l	n/a
120.3115	0.09	240623	keystroke_e	e	n/a
120.4315	0.1205	240863	keystroke_Key.space	Key.space	n/a
120.642	0.09	241284	keystroke_d	d	n/a
120.822	0.09	241644	keystroke_e	e	n/a
121.0765	0.061	242153	keystroke_e	e	n/a
121.7065	0.076	243413	keystroke_r	r	n/a
121.8415	0.12	243683	keystroke_Key.space	Key.space	n/a
122.141	0.136	244282	keystroke_a	a	n/a
122.351	0.091	244702	keystroke_f	f	n/a
122.5465	0.0755	245093	keystroke_r	r	n/a
122.6975	0.1045	245395	keystroke_i	i	n/a
122.817	0.12	245634	keystroke_c	c	n/a
122.967	0.135	245934	keystroke_a	a	n/a
123.102	0.09	246204	keystroke_n	n	n/a
123.357	0.09	246714	keystroke_Key.enter	Key.enter	n/a
123.4545	9.0545	246909	prompt	n/a	handy november create supplied\n
124.2115	0.0905	248423	keystroke_h	h	n/a
124.317	0.135	248634	keystroke_a	a	n/a
124.527	0.105	249054	keystroke_n	n	n/a
124.857	0.09	249714	keystroke_d	d	n/a
124.977	0.12	249954	keystroke_y	y	n/a
125.172	0.104	250344	keystroke_Key.space	Key.space	n/a
125.637	0.015	251274	keystroke_n	n	n/a
125.727	0.135	251454	keystroke_o	o	n/a
125.892	0.09	251784	keystroke_v	v	n/a
126.027	0.105	252054	keystroke_m	m	n/a
126.192	0.09	252384	keystroke_e	e	n/a
126.732	0.1045	253464	keystroke_b	b	n/a
126.822	0.165	253644	keystroke_e	e	n/a
126.972	0.15	253944	keystroke_r	r	n/a
127.1365	0.1045	254273	keystroke_Key.space	Key.space	n/a
127.407	0.075	254814	keystroke_c	c	n/a
127.662	0.1495	255324	keystroke_r	r	n/a
127.7965	0.1355	255593	keystroke_e	e	n/a
127.917	0.09	255834	keystroke_a	a	n/a
128.0665	0.0905	256133	keystroke_t	t	n/a
129.972	0.1205	259944	keystroke_e	e	n/a
130.5565	0.06	261113	keystroke_Key.space	Key.space	n/a
130.932	0.0595	261864	keystroke_s	s	n/a
131.187	0.09	262374	keystroke_u	u	n/a
131.5025	0.0595	263005	keystroke_p	p	n/a
131.637	0.075	263274	keystroke_p	p	n/a
131.832	0.09	263664	keystroke_l	l	n/a
131.9965	0.09	263993	keystroke_i	i	n/a
132.0725	0.1945	264145	keystroke_e	e	n/a
132.222	0.1495	264444	keystroke_d	d	n/a
132.402	0.1045	264804	keystroke_Key.enter	Key.enter	n/a
132.5145	8.7685	265029	prompt	n/a	offset implementation empty fees\n
133.152	0.1495	266304	keystroke_o	o	n/a
133.331	0.106	266662	keystroke_f	f	n/a
133.542	0.105	267084	keystroke_f	f	n/a
133.7525	0.1795	267505	keystroke_s	s	n/a
133.902	0.135	267804	keystroke_e	e	n/a
134.097	0.105	268194	keystroke_t	t	n/a
134.232	0.09	268464	keystroke_Key.space	Key.space	n/a
134.427	0.104	268854	keystroke_i	i	n/a
134.6815	0.0905	269363	keystroke_m	m	n/a
134.907	0.09	269814	keystroke_p	p	n/a
135.057	0.15	270114	keystroke_r	r	n/a
135.717	0.075	271434	keystroke_Key.backspace	Key.backspace	n/a
136.0025	0.1185	272005	keystroke_l	l	n/a
136.287	0.0595	272574	keystroke_e	e	n/a
136.6615	0.06	273323	keystroke_m	m	n/a
136.8415	0.105	273683	keystroke_e	e	n/a
137.0065	0.09	274013	keystroke_n	n	n/a
137.1715	0.12	274343	keystroke_t	t	n/a
137.3515	0.1795	274703	keystroke_a	a	n/a
137.5015	0.1195	275003	keystroke_t	t	n/a
137.637	0.104	275274	keystroke_i	i	n/a
137.772	0.119	275544	keystroke_o	o	n/a
137.981	0.121	275962	keystroke_n	n	n/a
138.146	0.091	276292	keystroke_Key.space	Key.space	n/a
138.401	0.121	276802	keystroke_e	e	n/a
138.507	0.0895	277014	keystroke_m	m	n/a
138.702	0.0895	277404	keystroke_p	p	n/a
138.9115	0.076	277823	keystroke_t	t	n/a
139.2415	0.0905	278483	keystroke_y	y	n/a
139.4815	0.09	278963	keystroke_Key.space	Key.space	n/a
139.7515	0.105	279503	keystroke_f	f	n/a
139.932	0.1195	279864	keystroke_e	e	n/a
140.1415	0.1505	280283	keystroke_e	e	n/a
140.337	0.165	280674	keystroke_d	d	n/a
140.8915	0.045	281783	keystroke_Key.backspace	Key.backspace	n/a
140.982	0.104	281964	keystroke_s	s	n/a
141.206	0.075	282412	keystroke_Key.enter	Key.enter	n/a
141.288	9.0105	282576	prompt	n/a	nicaragua mardi architecture along\n
141.942	0.104	283884	keystroke_n	n	n/a
142.331	0.0915	284662	keystroke_a	a	n/a
142.902	0.09	285804	keystroke_Key.backspace	Key.backspace	n/a
143.247	0.074	286494	keystroke_i	i	n/a
143.397	0.1345	286794	keystroke_c	c	n/a
143.562	0.149	287124	keystroke_a	a	n/a
144.0425	0.1185	288085	keystroke_r	r	n/a
144.2225	0.164	288445	keystroke_a	a	n/a
144.611	0.061	289222	keystroke_g	g	n/a
144.792	0.09	289584	keystroke_u	u	n/a
144.9265	0.1645	289853	keystroke_a	a	n/a
145.122	0.1195	290244	keystroke_Key.space	Key.space	n/a
145.497	0.0895	290994	keystroke_m	m	n/a
145.5865	0.1505	291173	keystroke_a	a	n/a
145.842	0.09	291684	keystroke_r	r	n/a
146.082	0.0905	292164	keystroke_d	d	n/a
146.187	0.119	292374	keystroke_i	i	n/a
146.3965	0.075	292793	keystroke_Key.space	Key.space	n/a
146.652	0.12	293304	keystroke_a	a	n/a
146.787	0.09	293574	keystroke_r	r	n/a
147.072	0.075	294144	keystroke_c	c	n/a
147.207	0.075	294414	keystroke_h	h	n/a
147.342	0.075	294684	keystroke_i	i	n/a
147.597	0.075	295194	keystroke_t	t	n/a
147.702	0.105	295404	keystroke_e	e	n/a
147.9115	0.075	295823	keystroke_c	c	n/a
148.0015	0.1055	296003	keystroke_t	t	n/a
148.2415	0.1055	296483	keystroke_u	u	n/a
148.3315	0.1655	296663	keystroke_r	r	n/a
148.512	0.1045	297024	keystroke_e	e	n/a
148.662	0.105	297324	keystroke_Key.space	Key.space	n/a
148.8415	0.165	297683	keystroke_a	a	n/a
149.3515	0.135	298703	keystroke_l	l	n/a
149.607	0.105	299214	keystroke_o	o	n/a
149.8465	0.0905	299693	keystroke_n	n	n/a
149.967	0.09	299934	keystroke_g	g	n/a
150.1915	0.1055	300383	keystroke_Key.enter	Key.enter	n/a
150.303	7.1805	300606	prompt	n/a	habits matches promoting specials\n
150.972	0.06	301944	keystroke_h	h	n/a
151.0475	0.1645	302095	keystroke_a	a	n/a
151.1665	0.105	302333	keystroke_b	b	n/a
151.377	0.12	302754	keystroke_i	i	n/a
151.482	0.105	302964	keystroke_t	t	n/a
151.737	0.105	303474	keystroke_s	s	n/a
151.871	0.09	303742	keystroke_Key.space	Key.space	n/a
152.082	0.075	304164	keystroke_m	m	n/a
152.172	0.12	304344	keystroke_a	a	n/a
152.456	0.076	304912	keystroke_t	t	n/a
152.592	0.09	305184	keystroke_c	c	n/a
152.727	0.09	305454	keystroke_h	h	n/a
152.8615	0.1805	305723	keystroke_e	e	n/a
153.0265	0.1505	306053	keystroke_s	s	n/a
153.477	0.15	306954	keystroke_Key.space	Key.space	n/a
153.702	0.15	307404	keystroke_p	p	n/a
153.867	0.104	307734	keystroke_r	r	n/a
154.002	0.105	308004	keystroke_o	o	n/a
154.242	0.0895	308484	keystroke_m	m	n/a
154.587	0.0745	309174	keystroke_o	o	n/a
154.707	0.12	309414	keystroke_t	t	n/a
154.8575	0.089	309715	keystroke_i	i	n/a
155.052	0.12	310104	keystroke_n	n	n/a
155.247	0.1195	310494	keystroke_g	g	n/a
155.3965	0.1505	310793	keystroke_Key.space	Key.space	n/a
156.0875	0.0895	312175	keystroke_s	s	n/a
156.1775	0.119	312355	keystroke_p	p	n/a
156.2815	0.1055	312563	keystroke_e	e	n/a
156.567	0.15	313134	keystroke_c	c	n/a
156.7765	0.105	313553	keystroke_i	i	n/a
156.897	0.135	313794	keystroke_a	a	n/a
157.062	0.12	314124	keystroke_l	l	n/a
157.197	0.09	314394	keystroke_s	s	n/a
157.392	0.09	314784	keystroke_Key.enter	Key.enter	n/a
157.489	11.934	314978	prompt	n/a	reply equilibrium dawn productive\n
158.2625	0.104	316525	keystroke_r	r	n/a
158.382	0.0745	316764	keystroke_e	e	n/a
158.472	0.09	316944	keystroke_p	p	n/a
158.667	0.12	317334	keystroke_l	l	n/a
158.982	0.105	317964	keystroke_y	y	n/a
159.192	0.105	318384	keystroke_Key.space	Key.space	n/a
159.807	0.105	319614	keystroke_q	q	n/a
160.752	0.105	321504	keystroke_Key.backspace	Key.backspace	n/a
160.917	0.2255	321834	keystroke_w	w	n/a
161.1715	0.1055	322343	keystroke_q	q	n/a
161.4865	0.075	322973	keystroke_Key.backspace	Key.backspace	n/a
161.667	0.0595	323334	keystroke_Key.backspace	Key.backspace	n/a
161.9675	0.12	323935	keystroke_e	e	n/a
162.057	0.1495	324114	keystroke_w	w	n/a
162.6565	0.0905	325313	keystroke_Key.backspace	Key.backspace	n/a
163.0165	0.0905	326033	keystroke_q	q	n/a
163.347	0.0745	326694	keystroke_u	u	n/a
163.557	0.09	327114	keystroke_i	i	n/a
163.7665	0.1355	327533	keystroke_l	l	n/a
164.0065	0.0755	328013	keystroke_i	i	n/a
164.217	0.075	328434	keystroke_b	b	n/a
164.6515	0.0905	329303	keystroke_r	r	n/a
164.7715	0.0755	329543	keystroke_i	i	n/a
164.9665	0.0905	329933	keystroke_u	u	n/a
165.2365	0.1055	330473	keystroke_m	m	n/a
165.566	0.1055	331132	keystroke_Key.space	Key.space	n/a
165.792	0.1645	331584	keystroke_d	d	n/a
165.972	0.1945	331944	keystroke_a	a	n/a
166.2115	0.0905	332423	keystroke_w	w	n/a
166.5715	0.09	333143	keystroke_n	n	n/a
166.7065	0.12	333413	keystroke_Key.space	Key.space	n/a
166.9165	0.135	333833	keystroke_p	p	n/a
167.0665	0.0605	334133	keystroke_r	r	n/a
167.1415	0.1355	334283	keystroke_o	o	n/a
167.9515	0.0745	335903	keystroke_d	d	n/a
168.132	0.06	336264	keystroke_u	u	n/a
168.222	0.075	336444	keystroke_c	c	n/a
168.447	0.06	336894	keystroke_t	t	n/a
168.837	0.09	337674	keystroke_i	i	n/a
168.972	0.135	337944	keystroke_v	v	n/a
169.1965	0.105	338393	keystroke_e	e	n/a
169.3315	0.0905	338663	keystroke_Key.enter	Key.enter	n/a
169.4305	7.8715	338861	prompt	n/a	democrat butler scale mega\n
170.112	0.1345	340224	keystroke_d	d	n/a
170.262	0.105	340524	keystroke_e	e	n/a
170.397	0.09	340794	keystroke_m	m	n/a
170.562	0.135	341124	keystroke_o	o	n/a
171.087	0.12	342174	keystroke_v	v	n/a
171.6115	0.075	343223	keystroke_Key.backspace	Key.backspace	n/a
171.8975	0.0595	343795	keystroke_c	c	n/a
172.1515	0.1505	344303	keystroke_r	r	n/a
172.317	0.1495	344634	keystroke_a	a	n/a
172.5715	0.105	345143	keystroke_t	t	n/a
172.7365	0.1055	345473	keystroke_Key.space	Key.space	n/a
173.1265	0.0755	346253	keystroke_b	b	n/a
173.3365	0.1055	346673	keystroke_u	u	n/a
173.457	0.09	346914	keystroke_t	t	n/a
173.652	0.1205	347304	keystroke_l	l	n/a
173.802	0.18	347604	keystroke_e	e	n/a
173.967	0.105	347934	keystroke_t	t	n/a
174.087	0.105	348174	keystroke_Key.space	Key.space	n/a
174.582	0.15	349164	keystroke_s	s	n/a
174.852	0.12	349704	keystroke_c	c	n/a
175.032	0.1045	350064	keystroke_a	a	n/a
175.211	0.106	350422	keystroke_l	l	n/a
175.452	0.1045	350904	keystroke_e	e	n/a
175.631	0.12	351262	keystroke_Key.space	Key.space	n/a
176.786	0.031	353572	keystroke_m	m	n/a
176.801	0.031	353602	keystroke_e	e	n/a
176.907	0.09	353814	keystroke_g	g	n/a
177.0265	0.1495	354053	keystroke_a	a	n/a
177.206	0.09	354412	keystroke_Key.enter	Key.enter	n/a
177.307	7.1925	354614	prompt	n/a	sometimes sitting enough account\n
177.8825	0.1345	355765	keystroke_s	s	n/a
178.2715	0.105	356543	keystroke_o	o	n/a
178.752	0.12	357504	keystroke_m	m	n/a
178.932	0.09	357864	keystroke_e	e	n/a
179.232	0.12	358464	keystroke_t	t	n/a
179.337	0.06	358674	keystroke_i	i	n/a
179.487	0.105	358974	keystroke_m	m	n/a
179.637	0.135	359274	keystroke_e	e	n/a
179.787	0.12	359574	keystroke_Key.space	Key.space	n/a
180.252	0.075	360504	keystroke_Key.backspace	Key.backspace	n/a
180.432	0.075	360864	keystroke_s	s	n/a
180.552	0.075	361104	keystroke_Key.space	Key.space	n/a
180.912	0.105	361824	keystroke_s	s	n/a
181.0915	0.1055	362183	keystroke_i	i	n/a
181.2715	0.061	362543	keystroke_t	t	n/a
181.4225	0.0895	362845	keystroke_t	t	n/a
181.5265	0.076	363053	keystroke_i	i	n/a
181.677	0.105	363354	keystroke_n	n	n/a
181.7965	0.09	363593	keystroke_g	g	n/a
181.9165	0.0755	363833	keystroke_Key.space	Key.space	n/a
182.097	0.135	364194	keystroke_e	e	n/a
182.217	0.0895	364434	keystroke_n	n	n/a
182.412	0.1195	364824	keystroke_o	o	n/a
182.607	0.105	365214	keystroke_u	u	n/a
182.742	0.104	365484	keystroke_g	g	n/a
182.861	0.1055	365722	keystroke_h	h	n/a
183.0415	0.105	366083	keystroke_Key.space	Key.space	n/a
183.252	0.09	366504	keystroke_a	a	n/a
183.462	0.075	366924	keystroke_c	c	n/a
183.627	0.105	367254	keystroke_c	c	n/a
183.762	0.09	367524	keystroke_o	o	n/a
183.897	0.0895	367794	keystroke_u	u	n/a
184.0765	0.105	368153	keystroke_n	n	n/a
184.1965	0.091	368393	keystroke_t	t	n/a
184.4815	0.015	368963	keystroke_Key.enter	Key.enter	n/a
184.505	5.3965	369010	prompt	n/a	have nurse sunny hints\n
185.1575	0.089	370315	keystroke_h	h	n/a
185.262	0.1345	370524	keystroke_a	a	n/a
185.4265	0.1055	370853	keystroke_v	v	n/a
185.592	0.0745	371184	keystroke_e	e	n/a
185.7415	0.12	371483	keystroke_Key.space	Key.space	n/a
186.4765	0.0905	372953	keystroke_n	n	n/a
186.672	0.09	373344	keystroke_u	u	n/a
186.7765	0.0905	373553	keystroke_r	r	n/a
187.002	0.164	374004	keystroke_s	s	n/a
187.167	0.12	374334	keystroke_e	e	n/a
187.3165	0.09	374633	keystroke_Key.space	Key.space	n/a
187.6165	0.105	375233	keystroke_s	s	n/a
187.737	0.09	375474	keystroke_u	u	n/a
187.932	0.075	375864	keystroke_n	n	n/a
188.097	0.06	376194	keystroke_n	n	n/a
188.2915	0.106	376583	keystroke_y	y	n/a
188.441	0.061	376882	keystroke_Key.space	Key.space	n/a
188.5765	0.1055	377153	keystroke_h	h	n/a
188.787	0.09	377574	keystroke_i	i	n/a
188.967	0.075	377934	keystroke_n	n	n/a
189.1025	0.089	378205	keystroke_t	t	n/a
189.492	0.135	378984	keystroke_s	s	n/a
189.747	0.15	379494	keystroke_Key.enter	Key.enter	n/a
189.9065	8.812	379813	prompt	n/a	education didn't kitchen screensavers\n
190.542	0.0895	381084	keystroke_e	e	n/a
190.767	0.1045	381534	keystroke_d	d	n/a
191.037	0.1205	382074	keystroke_u	u	n/a
191.2615	0.105	382523	keystroke_c	c	n/a
191.4115	0.135	382823	keystroke_a	a	n/a
191.667	0.0895	383334	keystroke_t	t	n/a
191.7415	0.09	383483	keystroke_i	i	n/a
191.877	0.09	383754	keystroke_o	o	n/a
192.042	0.09	384084	keystroke_n	n	n/a
192.1765	0.1055	384353	keystroke_Key.space	Key.space	n/a
192.417	0.0595	384834	keystroke_d	d	n/a
192.491	0.106	384982	keystroke_i	i	n/a
192.626	0.076	385252	keystroke_d	d	n/a
192.777	0.12	385554	keystroke_n	n	n/a
193.107	0.1045	386214	keystroke_'	'	n/a
193.317	0.1045	386634	keystroke_t	t	n/a
193.6015	0.09	387203	keystroke_Key.space	Key.space	n/a
193.947	0.09	387894	keystroke_k	k	n/a
194.1415	0.0605	388283	keystroke_i	i	n/a
194.382	0.06	388764	keystroke_t	t	n/a
194.472	0.0895	388944	keystroke_c	c	n/a
194.6515	0.075	389303	keystroke_h	h	n/a
195.147	0.1045	390294	keystroke_e	e	n/a
195.417	0.09	390834	keystroke_n	n	n/a
195.5815	0.1055	391163	keystroke_Key.space	Key.space	n/a
195.882	0.1205	391764	keystroke_s	s	n/a
196.1665	0.091	392333	keystroke_c	c	n/a
196.467	0.12	392934	keystroke_r	r	n/a
196.617	0.0745	393234	keystroke_e	e	n/a
196.827	0.06	393654	keystroke_e	e	n/a
197.0225	0.12	394045	keystroke_n	n	n/a
197.202	0.18	394404	keystroke_s	s	n/a
197.3665	0.1505	394733	keystroke_a	a	n/a
197.592	0.105	395184	keystroke_v	v	n/a
197.7265	0.1805	395453	keystroke_e	e	n/a
197.877	0.12	395754	keystroke_r	r	n/a
198.462	0.1045	396924	keystroke_s	s	n/a
198.6115	0.105	397223	keystroke_Key.enter	Key.enter	n/a
198.7235	12.715	397447	prompt	n/a	footwear canyon gasoline uniprotkb\n
199.482	0.1045	398964	keystroke_f	f	n/a
199.6015	0.105	399203	keystroke_o	o	n/a
199.7815	0.0755	399563	keystroke_o	o	n/a
199.8865	0.121	399773	keystroke_t	t	n/a
200.2165	0.135	400433	keystroke_w	w	n/a
201.057	0.045	402114	keystroke_e	e	n/a
201.372	0.135	402744	keystroke_a	a	n/a
201.552	0.105	403104	keystroke_r	r	n/a
201.732	0.135	403464	keystroke_Key.space	Key.space	n/a
202.092	0.105	404184	keystroke_c	c	n/a
202.407	0.105	404814	keystroke_a	a	n/a
202.5715	0.105	405143	keystroke_n	n	n/a
202.827	0.0905	405654	keystroke_t	t	n/a
203.007	0.105	406014	keystroke_o	o	n/a
203.3215	0.0905	406643	keystroke_Key.backspace	Key.backspace	n/a
203.4715	0.06	406943	keystroke_Key.backspace	Key.backspace	n/a
203.606	0.09	407212	keystroke_y	y	n/a
203.786	0.12	407572	keystroke_o	o	n/a
204.162	0.075	408324	keystroke_n	n	n/a
204.312	0.089	408624	keystroke_Key.space	Key.space	n/a
204.5825	0.0895	409165	keystroke_g	g	n/a
204.702	0.135	409404	keystroke_a	a	n/a
205.062	0.1045	410124	keystroke_s	s	n/a
205.227	0.0895	410454	keystroke_o	o	n/a
205.467	0.09	410934	keystroke_l	l	n/a
205.632	0.1055	411264	keystroke_i	i	n/a
205.842	0.1045	411684	keystroke_n	n	n/a
205.932	0.1045	411864	keystroke_e	e	n/a
206.067	0.0895	412134	keystroke_Key.space	Key.space	n/a
206.382	0.09	412764	keystroke_u	u	n/a
206.9665	0.0755	413933	keystroke_n	n	n/a
207.297	0.09	414594	keystroke_i	i	n/a
207.6265	0.1355	415253	keystroke_p	p	n/a
207.822	0.105	415644	keystroke_r	r	n/a
208.392	0.1045	416784	keystroke_o	o	n/a
208.617	0.1205	417234	keystroke_t	t	n/a
210.132	0.075	420264	keystroke_k	k	n/a
210.987	0.015	421974	keystroke_b	b	n/a
211.302	0.134	422604	keystroke_Key.enter	Key.enter	n/a
211.443	7.1955	422886	prompt	n/a	every reprints slope planning\n
212.142	0.09	424284	keystroke_e	e	n/a
212.292	0.09	424584	keystroke_v	v	n/a
212.396	0.211	424792	keystroke_e	e	n/a
212.547	0.1345	425094	keystroke_r	r	n/a
212.6965	0.1355	425393	keystroke_y	y	n/a
212.982	0.105	425964	keystroke_Key.space	Key.space	n/a
213.372	0.12	426744	keystroke_r	r	n/a
213.537	0.105	427074	keystroke_e	e	n/a
213.747	0.0145	427494	keystroke_p	p	n/a
214.3165	0.045	428633	keystroke_r	r	n/a
214.4225	0.09	428845	keystroke_i	i	n/a
214.647	0.09	429294	keystroke_n	n	n/a
214.767	0.105	429534	keystroke_t	t	n/a
215.082	0.1345	430164	keystroke_s	s	n/a
215.262	0.105	430524	keystroke_Key.space	Key.space	n/a
215.457	0.09	430914	keystroke_s	s	n/a
215.577	0.074	431154	keystroke_l	l	n/a
215.757	0.105	431514	keystroke_o	o	n/a
215.922	0.1345	431844	keystroke_p	p	n/a
216.207	0.0895	432414	keystroke_e	e	n/a
216.3415	0.12	432683	keystroke_Key.space	Key.space	n/a
216.492	0.075	432984	keystroke_s	s	n/a
216.882	0.1045	433764	keystroke_Key.backspace	Key.backspace	n/a
217.182	0.09	434364	keystroke_p	p	n/a
217.392	0.09	434784	keystroke_l	l	n/a
217.4975	0.1195	434995	keystroke_a	a	n/a
217.677	0.075	435354	keystroke_n	n	n/a
217.8115	0.0905	435623	keystroke_n	n	n/a
218.0065	0.0755	436013	keystroke_i	i	n/a
218.187	0.075	436374	keystroke_n	n	n/a
218.322	0.09	436644	keystroke_g	g	n/a
218.5465	0.09	437093	keystroke_Key.enter	Key.enter	n/a
218.6445	11.739	437289	prompt	n/a	universe whole purposes agriculture\n
219.4165	0.09	438833	keystroke_u	u	n/a
219.627	0.1045	439254	keystroke_n	n	n/a
219.852	0.0595	439704	keystroke_i	i	n/a
220.0765	0.075	440153	keystroke_v	v	n/a
220.182	0.225	440364	keystroke_e	e	n/a
220.437	0.12	440874	keystroke_r	r	n/a
220.737	0.135	441474	keystroke_s	s	n/a
220.8875	0.119	441775	keystroke_e	e	n/a
221.067	0.1045	442134	keystroke_Key.space	Key.space	n/a
221.292	0.0895	442584	keystroke_w	w	n/a
221.4265	0.075	442853	keystroke_h	h	n/a
221.6515	0.0605	443303	keystroke_i	i	n/a
221.8165	0.12	443633	keystroke_l	l	n/a
221.9665	0.075	443933	keystroke_e	e	n/a
222.2365	0.12	444473	keystroke_Key.space	Key.space	n/a
222.641	0.075	445282	keystroke_Key.backspace	Key.backspace	n/a
222.821	0.075	445642	keystroke_Key.backspace	Key.backspace	n/a
223.017	0.075	446034	keystroke_Key.backspace	Key.backspace	n/a
223.242	0.075	446484	keystroke_Key.backspace	Key.backspace	n/a
223.7065	0.06	447413	keystroke_o	o	n/a
223.8715	0.1055	447743	keystroke_l	l	n/a
224.0065	0.1205	448013	keystroke_e	e	n/a
224.0965	0.105	448193	keystroke_Key.space	Key.space	n/a
224.232	0.12	448464	keystroke_p	p	n/a
224.5015	0.0905	449003	keystroke_u	u	n/a
224.667	0.09	449334	keystroke_r	r	n/a
225.162	0.12	450324	keystroke_p	p	n/a
225.342	0.105	450684	keystroke_o	o	n/a
225.6115	0.15	451223	keystroke_s	s	n/a
225.732	0.1655	451464	keystroke_e	e	n/a
225.9565	0.1205	451913	keystroke_Key.space	Key.space	n/a
226.662	0.074	453324	keystroke_Key.backspace	Key.backspace	n/a
226.752	0.074	453504	keystroke_s	s	n/a
226.886	0.0755	453772	keystroke_Key.space	Key.space	n/a
227.157	0.1045	454314	keystroke_a	a	n/a
227.952	0.0745	455904	keystroke_g	g	n/a
228.072	0.075	456144	keystroke_r	r	n/a
228.507	0.09	457014	keystroke_i	i	n/a
228.912	0.09	457824	keystroke_c	c	n/a
229.062	0.09	458124	keystroke_u	u	n/a
229.257	0.1355	458514	keystroke_l	l	n/a
229.5115	0.105	459023	keystroke_t	t	n/a
229.6765	0.105	459353	keystroke_u	u	n/a
229.946	0.12	459892	keystroke_r	r	n/a
230.081	0.106	460162	keystroke_e	e	n/a
230.322	0.06	460644	keystroke_Key.enter	Key.enter	n/a
230.389	8.289	460778	prompt	n/a	ground nextel hobbies various\n
231.1015	0.105	462203	keystroke_g	g	n/a
231.267	0.0895	462534	keystroke_r	r	n/a
231.3715	0.1355	462743	keystroke_o	o	n/a
231.582	0.09	463164	keystroke_u	u	n/a
231.762	0.135	463524	keystroke_n	n	n/a
232.542	0.0595	465084	keystroke_d	d	n/a
232.6175	0.1195	465235	keystroke_Key.space	Key.space	n/a
232.812	0.09	465624	keystroke_n	n	n/a
233.067	0.1355	466134	keystroke_e	e	n/a
234.177	0.075	468354	keystroke_x	x	n/a
234.461	0.136	468922	keystroke_t	t	n/a
234.641	0.136	469282	keystroke_e	e	n/a
234.762	0.104	469524	keystroke_l	l	n/a
234.896	0.1205	469792	keystroke_Key.space	Key.space	n/a
235.1215	0.09	470243	keystroke_h	h	n/a
235.3015	0.0905	470603	keystroke_o	o	n/a
235.632	0.06	471264	keystroke_b	b	n/a
235.797	0.075	471594	keystroke_b	b	n/a
236.037	0.105	472074	keystroke_i	i	n/a
236.307	0.18	472614	keystroke_e	e	n/a
236.4565	0.15	472913	keystroke_s	s	n/a
236.6215	0.075	473243	keystroke_Key.space	Key.space	n/a
236.832	0.06	473664	keystroke_b	b	n/a
237.206	0.075	474412	keystroke_Key.backspace	Key.backspace	n/a
237.357	0.12	474714	keystroke_v	v	n/a
237.507	0.12	475014	keystroke_a	a	n/a
237.702	0.119	475404	keystroke_r	r	n/a
237.851	0.09	475702	keystroke_i	i	n/a
237.972	0.134	475944	keystroke_o	o	n/a
238.166	0.091	476332	keystroke_u	u	n/a
238.301	0.091	476602	keystroke_s	s	n/a
238.602	0.074	477204	keystroke_Key.enter	Key.enter	n/a
238.682	10.901	477364	prompt	n/a	reynolds blah further javascript\n
239.6065	0.1205	479213	keystroke_r	r	n/a
239.787	0.0895	479574	keystroke_e	e	n/a
240.027	0.075	480054	keystroke_y	y	n/a
241.3015	0.0895	482603	keystroke_n	n	n/a
241.542	0.09	483084	keystroke_o	o	n/a
241.7515	0.09	483503	keystroke_l	l	n/a
241.962	0.1645	483924	keystroke_d	d	n/a
242.172	0.1345	484344	keystroke_s	s	n/a
242.337	0.089	484674	keystroke_Key.space	Key.space	n/a
243.372	0.1195	486744	keystroke_b	b	n/a
243.762	0.12	487524	keystroke_l	l	n/a
243.912	0.15	487824	keystroke_a	a	n/a
244.4065	0.1355	488813	keystroke_h	h	n/a
244.7365	0.1205	489473	keystroke_Key.space	Key.space	n/a
245.322	0.1045	490644	keystroke_f	f	n/a
245.4865	0.105	490973	keystroke_u	u	n/a
245.6815	0.105	491363	keystroke_r	r	n/a
246.087	0.105	492174	keystroke_t	t	n/a
246.2515	0.1055	492503	keystroke_h	h	n/a
246.417	0.195	492834	keystroke_e	e	n/a
246.597	0.135	493194	keystroke_r	r	n/a
246.8365	0.105	493673	keystroke_Key.space	Key.space	n/a
247.422	0.0895	494844	keystroke_j	j	n/a
247.5265	0.12	495053	keystroke_a	a	n/a
247.7065	0.135	495413	keystroke_v	v	n/a
247.7965	0.09	495593	keystroke_a	a	n/a
248.2915	0.09	496583	keystroke_s	s	n/a
248.457	0.0895	496914	keystroke_c	c	n/a
248.6965	0.12	497393	keystroke_r	r	n/a
248.8315	0.105	497663	keystroke_i	i	n/a
249.0415	0.105	498083	keystroke_p	p	n/a
249.1765	0.1055	498353	keystroke_t	t	n/a
249.491	0.091	498982	keystroke_Key.enter	Key.enter	n/a
249.587	13.5115	499174	prompt	n/a	restricted participating controversy windows\n
250.1665	0.1355	500333	keystroke_r	r	n/a
250.3165	0.1655	500633	keystroke_e	e	n/a
250.5415	0.1055	501083	keystroke_s	s	n/a
250.9315	0.075	501863	keystroke_t	t	n/a
251.306	0.061	502612	keystroke_i	i	n/a
251.726	0.0755	503452	keystroke_Key.backspace	Key.backspace	n/a
251.861	0.0755	503722	keystroke_r	r	n/a
252.0415	0.09	504083	keystroke_i	i	n/a
252.296	0.076	504592	keystroke_c	c	n/a
252.5815	0.09	505163	keystroke_t	t	n/a
252.747	0.18	505494	keystroke_e	e	n/a
252.942	0.12	505884	keystroke_d	d	n/a
253.137	0.105	506274	keystroke_Key.space	Key.space	n/a
253.467	0.135	506934	keystroke_p	p	n/a
253.857	0.1345	507714	keystroke_a	a	n/a
254.0215	0.105	508043	keystroke_r	r	n/a
254.2915	0.06	508583	keystroke_t	t	n/a
254.487	0.0895	508974	keystroke_i	i	n/a
254.6815	0.1055	509363	keystroke_c	c	n/a
254.802	0.1045	509604	keystroke_i	i	n/a
255.0415	0.1055	510083	keystroke_p	p	n/a
255.1615	0.1055	510323	keystroke_a	a	n/a
255.4015	0.0755	510803	keystroke_t	t	n/a
255.4915	0.0755	510983	keystroke_i	i	n/a
255.6865	0.105	511373	keystroke_n	n	n/a
256.391	0.0905	512782	keystroke_g	g	n/a
256.541	0.1055	513082	keystroke_Key.space	Key.space	n/a
257.217	0.09	514434	keystroke_c	c	n/a
257.412	0.09	514824	keystroke_o	o	n/a
257.6665	0.0905	515333	keystroke_n	n	n/a
257.922	0.104	515844	keystroke_t	t	n/a
258.102	0.104	516204	keystroke_r	r	n/a
258.267	0.15	516534	keystroke_o	o	n/a
258.776	0.105	517552	keystroke_v	v	n/a
259.017	0.18	518034	keystroke_e	e	n/a
259.212	0.105	518424	keystroke_r	r	n/a
259.526	0.106	519052	keystroke_s	s	n/a
259.7515	0.1205	519503	keystroke_y	y	n/a
260.0065	0.075	520013	keystroke_Key.space	Key.space	n/a
260.4415	0.1205	520883	keystroke_w	w	n/a
260.577	0.06	521154	keystroke_i	i	n/a
260.7565	0.105	521513	keystroke_n	n	n/a
260.9965	0.105	521993	keystroke_s	s	n/a
261.597	0.045	523194	keystroke_Key.backspace	Key.backspace	n/a
261.657	0.09	523314	keystroke_d	d	n/a
262.1515	0.1355	524303	keystroke_o	o	n/a
262.467	0.0745	524934	keystroke_w	w	n/a
262.7365	0.1045	525473	keystroke_s	s	n/a
263.0065	0.0905	526013	keystroke_Key.enter	Key.enter	n/a
263.104	13.2395	526208	prompt	n/a	stud weren't meal extension\n
263.772	0.1045	527544	keystroke_s	s	n/a
264.042	0.0745	528084	keystroke_t	t	n/a
264.2965	0.1055	528593	keystroke_u	u	n/a
264.867	0.06	529734	keystroke_d	d	n/a
265.017	0.1045	530034	keystroke_Key.space	Key.space	n/a
265.272	0.15	530544	keystroke_w	w	n/a
265.706	0.0905	531412	keystroke_e	e	n/a
265.9315	0.1045	531863	keystroke_r	r	n/a
266.037	0.105	532074	keystroke_e	e	n/a
266.3365	0.12	532673	keystroke_'	'	n/a
267.267	0.09	534534	keystroke_Key.backspace	Key.backspace	n/a
267.642	0.105	535284	keystroke_m	m	n/a
268.256	0.105	536512	keystroke_Key.backspace	Key.backspace	n/a
269.097	0.12	538194	keystroke_n	n	n/a
269.4565	0.12	538913	keystroke_'	'	n/a
269.697	0.135	539394	keystroke_t	t	n/a
270.2065	0.09	540413	keystroke_Key.space	Key.space	n/a
270.4915	0.075	540983	keystroke_m	m	n/a
270.5815	0.18	541163	keystroke_e	e	n/a
270.7465	0.15	541493	keystroke_a	a	n/a
270.8665	0.1205	541733	keystroke_l	l	n/a
271.0315	0.0905	542063	keystroke_Key.space	Key.space	n/a
271.227	0.105	542454	keystroke_e	e	n/a
271.527	0.1345	543054	keystroke_c	c	n/a
272.022	0.09	544044	keystroke_Key.backspace	Key.backspace	n/a
272.217	0.1645	544434	keystroke_x	x	n/a
273.267	0.105	546534	keystroke_t	t	n/a
273.522	0.119	547044	keystroke_e	e	n/a
273.731	0.105	547462	keystroke_n	n	n/a
275.4115	0.105	550823	keystroke_s	s	n/a
275.6365	0.1495	551273	keystroke_i	i	n/a
275.801	0.121	551602	keystroke_o	o	n/a
275.966	0.1205	551932	keystroke_n	n	n/a
276.237	0.1045	552474	keystroke_Key.enter	Key.enter	n/a
276.351	9.323	552702	prompt	n/a	warrant piece of attitude\n
277.0465	0.165	554093	keystroke_w	w	n/a
277.2265	0.1495	554453	keystroke_a	a	n/a
277.571	0.09	555142	keystroke_r	r	n/a
277.7515	0.1355	555503	keystroke_r	r	n/a
277.9315	0.165	555863	keystroke_a	a	n/a
278.1115	0.12	556223	keystroke_n	n	n/a
278.3215	0.12	556643	keystroke_t	t	n/a
278.531	0.136	557062	keystroke_Key.space	Key.space	n/a
281.8035	0.028	563607	keystroke_p	p	n/a
282.0565	0.09	564113	keystroke_i	i	n/a
282.252	0.105	564504	keystroke_e	e	n/a
282.582	0.12	565164	keystroke_c	c	n/a
282.8375	0.1195	565675	keystroke_e	e	n/a
283.167	0.105	566334	keystroke_Key.space	Key.space	n/a
283.332	0.105	566664	keystroke_o	o	n/a
283.4665	0.1355	566933	keystroke_f	f	n/a
283.617	0.104	567234	keystroke_Key.space	Key.space	n/a
283.752	0.164	567504	keystroke_a	a	n/a
284.022	0.03	568044	keystroke_t	t	n/a
284.202	0.09	568404	keystroke_t	t	n/a
284.412	0.105	568824	keystroke_i	i	n/a
284.6365	0.1055	569273	keystroke_t	t	n/a
284.9365	0.105	569873	keystroke_u	u	n/a
285.162	0.15	570324	keystroke_d	d	n/a
285.342	0.12	570684	keystroke_e	e	n/a
285.5665	0.1055	571133	keystroke_Key.enter	Key.enter	n/a
285.679	8.3495	571358	prompt	n/a	latter everywhere optics seminars\n
286.6165	0.105	573233	keystroke_l	l	n/a
286.977	0.195	573954	keystroke_a	a	n/a
287.202	0.12	574404	keystroke_t	t	n/a
287.4715	0.09	574943	keystroke_t	t	n/a
287.6665	0.18	575333	keystroke_e	e	n/a
287.847	0.12	575694	keystroke_r	r	n/a
288.0265	0.075	576053	keystroke_Key.space	Key.space	n/a
288.2065	0.12	576413	keystroke_e	e	n/a
288.387	0.1045	576774	keystroke_v	v	n/a
288.507	0.225	577014	keystroke_e	e	n/a
288.987	0.12	577974	keystroke_r	r	n/a
289.167	0.105	578334	keystroke_y	y	n/a
289.392	0.1345	578784	keystroke_w	w	n/a
289.5715	0.12	579143	keystroke_h	h	n/a
289.7065	0.1655	579413	keystroke_e	e	n/a
289.842	0.1495	579684	keystroke_r	r	n/a
290.007	0.09	580014	keystroke_e	e	n/a
290.127	0.12	580254	keystroke_Key.space	Key.space	n/a
290.3815	0.135	580763	keystroke_o	o	n/a
290.561	0.151	581122	keystroke_p	p	n/a
290.817	0.1045	581634	keystroke_t	t	n/a
290.982	0.1045	581964	keystroke_i	i	n/a
291.207	0.105	582414	keystroke_c	c	n/a
291.462	0.135	582924	keystroke_s	s	n/a
291.657	0.135	583314	keystroke_Key.space	Key.space	n/a
292.002	0.12	584004	keystroke_s	s	n/a
292.377	0.09	584754	keystroke_e	e	n/a
292.602	0.09	585204	keystroke_m	m	n/a
292.797	0.075	585594	keystroke_i	i	n/a
292.9765	0.0905	585953	keystroke_n	n	n/a
293.217	0.195	586434	keystroke_a	a	n/a
293.412	0.12	586824	keystroke_r	r	n/a
293.667	0.1645	587334	keystroke_s	s	n/a
293.937	0.0895	587874	keystroke_Key.enter	Key.enter	n/a
294.033	11.8455	588066	prompt	n/a	bucks fantasy east genes\n
294.9265	0.1505	589853	keystroke_n	n	n/a
295.557	0.09	591114	keystroke_Key.backspace	Key.backspace	n/a
296.007	0.1195	592014	keystroke_b	b	n/a
296.592	0.105	593184	keystroke_u	u	n/a
296.8625	0.1335	593725	keystroke_c	c	n/a
297.071	0.136	594142	keystroke_k	k	n/a
297.386	0.136	594772	keystroke_s	s	n/a
297.6715	0.1055	595343	keystroke_Key.space	Key.space	n/a
297.987	0.1495	595974	keystroke_f	f	n/a
298.2115	0.136	596423	keystroke_a	a	n/a
298.422	0.0895	596844	keystroke_n	n	n/a
299.0665	0.1655	598133	keystroke_y	y	n/a
299.7265	0.12	599453	keystroke_Key.backspace	Key.backspace	n/a
300.0115	0.1355	600023	keystroke_t	t	n/a
300.327	0.18	600654	keystroke_a	a	n/a
300.5225	0.134	601045	keystroke_s	s	n/a
300.8965	0.1055	601793	keystroke_t	t	n/a
301.5715	0.12	603143	keystroke_Key.backspace	Key.backspace	n/a
301.9615	0.1055	603923	keystroke_h	h	n/a
302.742	0.0745	605484	keystroke_Key.backspace	Key.backspace	n/a
303.012	0.0745	606024	keystroke_y	y	n/a
303.6265	0.1195	607253	keystroke_Key.space	Key.space	n/a
303.852	0.15	607704	keystroke_e	e	n/a
304.047	0.224	608094	keystroke_a	a	n/a
304.257	0.12	608514	keystroke_s	s	n/a
304.422	0.12	608844	keystroke_t	t	n/a
304.6165	0.12	609233	keystroke_Key.space	Key.space	n/a
304.8715	0.061	609743	keystroke_g	g	n/a
304.9465	0.09	609893	keystroke_e	e	n/a
305.112	0.091	610224	keystroke_n	n	n/a
305.187	0.21	610374	keystroke_e	e	n/a
305.427	0.15	610854	keystroke_s	s	n/a
305.772	0.1045	611544	keystroke_Key.enter	Key.enter	n/a
305.8835	14.2	611767	prompt	n/a	transportation literally indonesian particularly\n
306.5515	0.1505	613103	keystroke_t	t	n/a
306.717	0.165	613434	keystroke_r	r	n/a
306.9115	0.1655	613823	keystroke_a	a	n/a
307.1365	0.06	614273	keystroke_n	n	n/a
307.4065	0.1205	614813	keystroke_s	s	n/a
307.542	0.1045	615084	keystroke_p	p	n/a
307.7065	0.135	615413	keystroke_o	o	n/a
307.9765	0.1055	615953	keystroke_r	r	n/a
308.337	0.075	616674	keystroke_t	t	n/a
308.427	0.1795	616854	keystroke_a	a	n/a
308.5925	0.1345	617185	keystroke_t	t	n/a
308.7565	0.1205	617513	keystroke_i	i	n/a
308.922	0.0905	617844	keystroke_o	o	n/a
309.1315	0.1055	618263	keystroke_n	n	n/a
309.2665	0.09	618533	keystroke_Key.space	Key.space	n/a
309.4465	0.105	618893	keystroke_l	l	n/a
309.6565	0.09	619313	keystroke_i	i	n/a
309.777	0.12	619554	keystroke_t	t	n/a
310.017	0.195	620034	keystroke_e	e	n/a
310.2265	0.1655	620453	keystroke_r	r	n/a
310.407	0.1355	620814	keystroke_a	a	n/a
310.647	0.06	621294	keystroke_l	l	n/a
310.8125	0.1045	621625	keystroke_l	l	n/a
311.096	0.091	622192	keystroke_y	y	n/a
311.3665	0.09	622733	keystroke_Key.space	Key.space	n/a
311.562	0.09	623124	keystroke_i	i	n/a
311.801	0.091	623602	keystroke_n	n	n/a
312.522	0.1045	625044	keystroke_d	d	n/a
312.9715	0.105	625943	keystroke_o	o	n/a
313.287	0.075	626574	keystroke_n	n	n/a
313.4215	0.18	626843	keystroke_e	e	n/a
313.6025	0.1195	627205	keystroke_s	s	n/a
313.8415	0.1055	627683	keystroke_i	i	n/a
314.037	0.105	628074	keystroke_a	a	n/a
314.1565	0.0895	628313	keystroke_n	n	n/a
314.351	0.0605	628702	keystroke_Key.space	Key.space	n/a
314.532	0.105	629064	keystroke_p	p	n/a
314.6515	0.1055	629303	keystroke_a	a	n/a
314.817	0.12	629634	keystroke_r	r	n/a
315.102	0.09	630204	keystroke_t	t	n/a
315.521	0.106	631042	keystroke_i	i	n/a
315.896	0.09	631792	keystroke_c	c	n/a
316.001	0.121	632002	keystroke_u	u	n/a
316.332	0.119	632664	keystroke_l	l	n/a
316.572	0.15	633144	keystroke_a	a	n/a
316.812	0.09	633624	keystroke_r	r	n/a
316.977	0.1345	633954	keystroke_l	l	n/a
317.2165	0.1205	634433	keystroke_u	u	n/a
317.9515	0.0755	635903	keystroke_t	t	n/a
318.041	0.09	636082	keystroke_Key.backspace	Key.backspace	n/a
318.357	0.0895	636714	keystroke_Key.backspace	Key.backspace	n/a
318.5965	0.135	637193	keystroke_t	t	n/a
319.166	0.12	638332	keystroke_Key.backspace	Key.backspace	n/a
319.4365	0.1345	638873	keystroke_y	y	n/a
319.932	0.15	639864	keystroke_Key.enter	Key.enter	n/a
320.0875	6.431	640175	prompt	n/a	debt unit durable counted\n
321.462	0.134	642924	keystroke_d	d	n/a
321.582	0.135	643164	keystroke_e	e	n/a
321.7325	0.1345	643465	keystroke_b	b	n/a
321.912	0.12	643824	keystroke_t	t	n/a
322.047	0.104	644094	keystroke_Key.space	Key.space	n/a
322.422	0.075	644844	keystroke_u	u	n/a
322.647	0.0745	645294	keystroke_n	n	n/a
322.7965	0.1355	645593	keystroke_i	i	n/a
322.9465	0.09	645893	keystroke_t	t	n/a
323.0515	0.135	646103	keystroke_Key.space	Key.space	n/a
323.3815	0.09	646763	keystroke_d	d	n/a
323.577	0.1055	647154	keystroke_u	u	n/a
323.742	0.12	647484	keystroke_r	r	n/a
323.952	0.09	647904	keystroke_a	a	n/a
324.132	0.104	648264	keystroke_b	b	n/a
324.447	0.12	648894	keystroke_l	l	n/a
324.5965	0.1355	649193	keystroke_e	e	n/a
324.792	0.105	649584	keystroke_Key.space	Key.space	n/a
325.0915	0.0755	650183	keystroke_c	c	n/a
325.182	0.09	650364	keystroke_o	o	n/a
325.347	0.09	650694	keystroke_u	u	n/a
325.632	0.0145	651264	keystroke_n	n	n/a
325.6465	0.09	651293	keystroke_t	t	n/a
325.827	0.195	651654	keystroke_e	e	n/a
326.0815	0.075	652163	keystroke_d	d	n/a
326.427	0.09	652854	keystroke_Key.enter	Key.enter	n/a
326.5235	9.5645	653047	prompt	n/a	streets prisoners texture recover\n
327.177	0.105	654354	keystroke_s	s	n/a
327.387	0.12	654774	keystroke_t	t	n/a
327.567	0.1195	655134	keystroke_r	r	n/a
327.7315	0.1055	655463	keystroke_e	e	n/a
327.972	0.135	655944	keystroke_e	e	n/a
328.167	0.075	656334	keystroke_t	t	n/a
328.3165	0.105	656633	keystroke_s	s	n/a
328.467	0.09	656934	keystroke_Key.space	Key.space	n/a
328.662	0.1195	657324	keystroke_p	p	n/a
328.7965	0.1055	657593	keystroke_r	r	n/a
328.9615	0.1505	657923	keystroke_i	i	n/a
329.247	0.135	658494	keystroke_s	s	n/a
329.367	0.09	658734	keystroke_o	o	n/a
329.607	0.075	659214	keystroke_n	n	n/a
329.726	0.226	659452	keystroke_e	e	n/a
329.8915	0.195	659783	keystroke_r	r	n/a
330.0715	0.12	660143	keystroke_s	s	n/a
330.2065	0.1055	660413	keystroke_Key.space	Key.space	n/a
330.4165	0.0905	660833	keystroke_t	t	n/a
330.613	0.119	661226	keystroke_e	e	n/a
331.062	0.1045	662124	keystroke_c	c	n/a
331.557	0.104	663114	keystroke_Key.backspace	Key.backspace	n/a
331.767	0.1045	663534	keystroke_c	c	n/a
332.2765	0.1205	664553	keystroke_Key.backspace	Key.backspace	n/a
332.8165	0.09	665633	keystroke_x	x	n/a
333.1615	0.105	666323	keystroke_t	t	n/a
333.717	0.074	667434	keystroke_u	u	n/a
333.8665	0.1355	667733	keystroke_r	r	n/a
334.002	0.119	668004	keystroke_e	e	n/a
334.166	0.0905	668332	keystroke_Key.space	Key.space	n/a
334.7815	0.1055	669563	keystroke_r	r	n/a
334.9015	0.12	669803	keystroke_e	e	n/a
335.1865	0.09	670373	keystroke_c	c	n/a
335.262	0.1045	670524	keystroke_o	o	n/a
335.5765	0.09	671153	keystroke_v	v	n/a
335.682	0.1495	671364	keystroke_e	e	n/a
335.7865	0.12	671573	keystroke_r	r	n/a
335.9665	0.12	671933	keystroke_Key.enter	Key.enter	n/a
336.092	11.711	672184	prompt	n/a	formats accordingly cheaper address\n
336.8215	0.1055	673643	keystroke_f	f	n/a
336.927	0.09	673854	keystroke_o	o	n/a
337.077	0.09	674154	keystroke_r	r	n/a
337.1965	0.09	674393	keystroke_m	m	n/a
337.347	0.149	674694	keystroke_a	a	n/a
337.602	0.09	675204	keystroke_t	t	n/a
337.872	0.1195	675744	keystroke_s	s	n/a
338.0515	0.0895	676103	keystroke_Key.space	Key.space	n/a
338.172	0.105	676344	keystroke_a	a	n/a
338.4265	0.0755	676853	keystroke_c	c	n/a
338.622	0.06	677244	keystroke_c	c	n/a
338.802	0.09	677604	keystroke_o	o	n/a
338.937	0.12	677874	keystroke_r	r	n/a
339.282	0.09	678564	keystroke_s	s	n/a
339.7615	0.075	679523	keystroke_Key.backspace	Key.backspace	n/a
339.8965	0.105	679793	keystroke_d	d	n/a
340.092	0.075	680184	keystroke_i	i	n/a
340.3015	0.075	680603	keystroke_n	n	n/a
340.5125	0.1045	681025	keystroke_g	g	n/a
340.887	0.18	681774	keystroke_l	l	n/a
341.142	0.135	682284	keystroke_u	u	n/a
341.3365	0.09	682673	keystroke_Key.space	Key.space	n/a
341.4715	0.1055	682943	keystroke_c	c	n/a
341.802	0.06	683604	keystroke_Key.backspace	Key.backspace	n/a
341.967	0.0595	683934	keystroke_Key.backspace	Key.backspace	n/a
342.1015	0.06	684203	keystroke_Key.backspace	Key.backspace	n/a
342.582	0.075	685164	keystroke_y	y	n/a
342.732	0.09	685464	keystroke_Key.space	Key.space	n/a
342.867	0.0895	685734	keystroke_c	c	n/a
342.972	0.105	685944	keystroke_h	h	n/a
343.4065	0.135	686813	keystroke_e	e	n/a
343.542	0.135	687084	keystroke_a	a	n/a
344.6965	0.12	689393	keystroke_p	p	n/a
344.8315	0.2105	689663	keystroke_e	e	n/a
344.952	0.15	689904	keystroke_r	r	n/a
345.1325	0.119	690265	keystroke_Key.space	Key.space	n/a
345.402	0.15	690804	keystroke_a	a	n/a
346.242	0.045	692484	keystroke_d	d	n/a
346.3615	0.045	692723	keystroke_d	d	n/a
346.6165	0.1355	693233	keystroke_r	r	n/a
346.7065	0.1805	693413	keystroke_e	e	n/a
346.9165	0.09	693833	keystroke_s	s	n/a
347.396	0.12	694792	keystroke_s	s	n/a
347.712	0.089	695424	keystroke_Key.enter	Key.enter	n/a
347.8065	9.191	695613	prompt	n/a	intermediate stopping voltage coding\n
348.4165	0.0755	696833	keystroke_i	i	n/a
348.5825	0.134	697165	keystroke_n	n	n/a
348.762	0.1195	697524	keystroke_t	t	n/a
349.0165	0.195	698033	keystroke_e	e	n/a
349.197	0.089	698394	keystroke_r	r	n/a
349.601	0.106	699202	keystroke_m	m	n/a
349.752	0.1345	699504	keystroke_e	e	n/a
350.111	0.1055	700222	keystroke_d	d	n/a
350.277	0.0895	700554	keystroke_i	i	n/a
350.4425	0.134	700885	keystroke_a	a	n/a
350.7865	0.106	701573	keystroke_t	t	n/a
350.981	0.121	701962	keystroke_e	e	n/a
351.132	0.105	702264	keystroke_Key.space	Key.space	n/a
351.387	0.09	702774	keystroke_s	s	n/a
351.582	0.09	703164	keystroke_t	t	n/a
351.687	0.105	703374	keystroke_o	o	n/a
351.867	0.075	703734	keystroke_p	p	n/a
352.017	0.105	704034	keystroke_p	p	n/a
352.257	0.0895	704514	keystroke_i	i	n/a
352.482	0.105	704964	keystroke_n	n	n/a
352.602	0.0895	705204	keystroke_g	g	n/a
352.752	0.06	705504	keystroke_Key.space	Key.space	n/a
353.1415	0.0755	706283	keystroke_c	c	n/a
353.2465	0.06	706493	keystroke_o	o	n/a
353.5315	0.0605	707063	keystroke_Key.backspace	Key.backspace	n/a
353.682	0.03	707364	keystroke_Key.backspace	Key.backspace	n/a
353.832	0.075	707664	keystroke_v	v	n/a
353.967	0.075	707934	keystroke_o	o	n/a
354.162	0.09	708324	keystroke_l	l	n/a
354.342	0.105	708684	keystroke_t	t	n/a
354.477	0.15	708954	keystroke_a	a	n/a
354.672	0.06	709344	keystroke_g	g	n/a
355.137	0.1045	710274	keystroke_e	e	n/a
355.3015	0.1055	710603	keystroke_Key.space	Key.space	n/a
355.6915	0.075	711383	keystroke_c	c	n/a
355.7815	0.12	711563	keystroke_o	o	n/a
355.9165	0.1055	711833	keystroke_d	d	n/a
356.037	0.0895	712074	keystroke_i	i	n/a
356.2765	0.03	712553	keystroke_n	n	n/a
356.6515	0.09	713303	keystroke_g	g	n/a
356.891	0.1055	713782	keystroke_Key.enter	Key.enter	n/a
357.001	11.1875	714002	prompt	n/a	continuously beatles breeds instances\n
357.642	0.1195	715284	keystroke_c	c	n/a
357.776	0.09	715552	keystroke_o	o	n/a
357.971	0.106	715942	keystroke_n	n	n/a
358.182	0.104	716364	keystroke_t	t	n/a
358.4815	0.06	716963	keystroke_i	i	n/a
358.706	0.09	717412	keystroke_n	n	n/a
358.932	0.09	717864	keystroke_u	u	n/a
359.3365	0.1055	718673	keystroke_o	o	n/a
359.546	0.09	719092	keystroke_u	u	n/a
359.7565	0.1355	719513	keystroke_s	s	n/a
360.042	0.12	720084	keystroke_e	e	n/a
360.6265	0.105	721253	keystroke_Key.backspace	Key.backspace	n/a
360.9115	0.12	721823	keystroke_l	l	n/a
361.482	0.0895	722964	keystroke_y	y	n/a
361.722	0.089	723444	keystroke_Key.space	Key.space	n/a
362.022	0.12	724044	keystroke_b	b	n/a
362.1565	0.1355	724313	keystroke_e	e	n/a
362.276	0.151	724552	keystroke_a	a	n/a
362.6065	0.1205	725213	keystroke_t	t	n/a
362.802	0.105	725604	keystroke_l	l	n/a
363.042	0.1945	726084	keystroke_e	e	n/a
363.627	0.0895	727254	keystroke_Key.backspace	Key.backspace	n/a
364.107	0.2095	728214	keystroke_e	e	n/a
364.272	0.18	728544	keystroke_s	s	n/a
364.4815	0.12	728963	keystroke_Key.space	Key.space	n/a
364.8415	0.091	729683	keystroke_b	b	n/a
364.9615	0.15	729923	keystroke_r	r	n/a
365.142	0.0755	730284	keystroke_e	e	n/a
365.3515	0.1505	730703	keystroke_e	e	n/a
365.8015	0.0305	731603	keystroke_d	d	n/a
365.8165	0.1205	731633	keystroke_s	s	n/a
366.0565	0.105	732113	keystroke_Key.space	Key.space	n/a
366.4615	0.0305	732923	keystroke_i	i	n/a
366.6415	0.075	733283	keystroke_n	n	n/a
366.8665	0.0895	733733	keystroke_s	s	n/a
367.0165	0.1045	734033	keystroke_t	t	n/a
367.152	0.12	734304	keystroke_a	a	n/a
367.347	0.105	734694	keystroke_n	n	n/a
367.482	0.105	734964	keystroke_c	c	n/a
367.662	0.165	735324	keystroke_e	e	n/a
367.887	0.15	735774	keystroke_s	s	n/a
368.097	0.09	736194	keystroke_Key.enter	Key.enter	n/a
368.1935	12.85	736387	prompt	n/a	python expertise sophisticated confidential\n
368.832	0.105	737664	keystroke_p	p	n/a
369.8065	0.1055	739613	keystroke_y	y	n/a
370.152	0.105	740304	keystroke_t	t	n/a
370.3325	0.1195	740665	keystroke_h	h	n/a
370.5865	0.105	741173	keystroke_o	o	n/a
370.8715	0.075	741743	keystroke_n	n	n/a
371.051	0.1055	742102	keystroke_Key.space	Key.space	n/a
371.3665	0.0905	742733	keystroke_e	e	n/a
371.7275	0.1045	743455	keystroke_x	x	n/a
371.967	0.104	743934	keystroke_p	p	n/a
372.086	0.181	744172	keystroke_e	e	n/a
372.252	0.104	744504	keystroke_r	r	n/a
372.522	0.1045	745044	keystroke_t	t	n/a
372.7165	0.0905	745433	keystroke_i	i	n/a
372.927	0.165	745854	keystroke_s	s	n/a
373.2715	0.0905	746543	keystroke_e	e	n/a
373.4515	0.1055	746903	keystroke_Key.space	Key.space	n/a
373.6465	0.12	747293	keystroke_s	s	n/a
373.7965	0.1355	747593	keystroke_o	o	n/a
373.9765	0.09	747953	keystroke_p	p	n/a
374.217	0.09	748434	keystroke_h	h	n/a
374.457	0.09	748914	keystroke_i	i	n/a
374.7265	0.1505	749453	keystroke_s	s	n/a
375.1765	0.105	750353	keystroke_t	t	n/a
375.3565	0.105	750713	keystroke_i	i	n/a
375.897	0.105	751794	keystroke_c	c	n/a
376.062	0.15	752124	keystroke_a	a	n/a
376.286	0.076	752572	keystroke_t	t	n/a
377.0515	0.1055	754103	keystroke_e	e	n/a
377.2765	0.1055	754553	keystroke_d	d	n/a
377.4415	0.1355	754883	keystroke_Key.space	Key.space	n/a
377.832	0.1045	755664	keystroke_c	c	n/a
377.9665	0.1045	755933	keystroke_o	o	n/a
378.2065	0.0905	756413	keystroke_n	n	n/a
378.852	0.135	757704	keystroke_f	f	n/a
379.302	0.09	758604	keystroke_i	i	n/a
379.6165	0.12	759233	keystroke_d	d	n/a
379.7975	0.134	759595	keystroke_e	e	n/a
379.9765	0.135	759953	keystroke_n	n	n/a
380.1865	0.09	760373	keystroke_t	t	n/a
380.3365	0.1055	760673	keystroke_i	i	n/a
380.472	0.1345	760944	keystroke_a	a	n/a
380.6365	0.1205	761273	keystroke_l	l	n/a
380.9515	0.09	761903	keystroke_Key.enter	Key.enter	n/a
381.048	10.9155	762096	prompt	n/a	accessible drawn permits thehun\n
381.6565	0.1355	763313	keystroke_a	a	n/a
382.3465	0.1195	764693	keystroke_c	c	n/a
382.9465	0.12	765893	keystroke_c	c	n/a
383.2015	0.165	766403	keystroke_e	e	n/a
383.3965	0.12	766793	keystroke_s	s	n/a
383.681	0.121	767362	keystroke_s	s	n/a
383.8315	0.0905	767663	keystroke_i	i	n/a
384.477	0.149	768954	keystroke_n	n	n/a
385.092	0.09	770184	keystroke_Key.backspace	Key.backspace	n/a
385.376	0.091	770752	keystroke_b	b	n/a
385.676	0.106	771352	keystroke_l	l	n/a
385.841	0.106	771682	keystroke_e	e	n/a
386.036	0.09	772072	keystroke_Key.space	Key.space	n/a
386.9815	0.075	773963	keystroke_d	d	n/a
387.2065	0.09	774413	keystroke_r	r	n/a
387.3565	0.165	774713	keystroke_a	a	n/a
388.1965	0.15	776393	keystroke_w	w	n/a
388.4665	0.1355	776933	keystroke_n	n	n/a
388.6315	0.135	777263	keystroke_Key.space	Key.space	n/a
389.051	0.106	778102	keystroke_p	p	n/a
389.172	0.18	778344	keystroke_e	e	n/a
389.292	0.105	778584	keystroke_r	r	n/a
389.412	0.09	778824	keystroke_m	m	n/a
389.607	0.105	779214	keystroke_i	i	n/a
389.742	0.105	779484	keystroke_t	t	n/a
389.847	0.105	779694	keystroke_Key.space	Key.space	n/a
390.146	0.091	780292	keystroke_t	t	n/a
390.297	0.089	780594	keystroke_h	h	n/a
391.032	0.105	782064	keystroke_e	e	n/a
391.3015	0.03	782603	keystroke_h	h	n/a
391.3915	0.09	782783	keystroke_u	u	n/a
391.5715	0.0905	783143	keystroke_n	n	n/a
391.8565	0.1055	783713	keystroke_Key.enter	Key.enter	n/a
391.9705	5.5875	783941	prompt	n/a	post bruce girls counters\n
392.577	0.105	785154	keystroke_p	p	n/a
392.922	0.075	785844	keystroke_o	o	n/a
393.072	0.1195	786144	keystroke_s	s	n/a
393.282	0.0895	786564	keystroke_t	t	n/a
393.3865	0.09	786773	keystroke_Key.space	Key.space	n/a
393.7015	0.1055	787403	keystroke_b	b	n/a
393.8515	0.09	787703	keystroke_r	r	n/a
394.017	0.0895	788034	keystroke_u	u	n/a
394.2565	0.0905	788513	keystroke_c	c	n/a
394.466	0.1055	788932	keystroke_e	e	n/a
394.616	0.0755	789232	keystroke_Key.space	Key.space	n/a
394.842	0.09	789684	keystroke_g	g	n/a
395.0965	0.09	790193	keystroke_i	i	n/a
395.4415	0.09	790883	keystroke_r	r	n/a
395.6365	0.1055	791273	keystroke_l	l	n/a
395.7865	0.105	791573	keystroke_s	s	n/a
395.9215	0.09	791843	keystroke_Key.space	Key.space	n/a
396.1315	0.0905	792263	keystroke_c	c	n/a
396.2365	0.105	792473	keystroke_o	o	n/a
396.417	0.09	792834	keystroke_u	u	n/a
396.6115	0.1055	793223	keystroke_n	n	n/a
396.732	0.0895	793464	keystroke_t	t	n/a
396.9415	0.165	793883	keystroke_e	e	n/a
397.062	0.165	794124	keystroke_r	r	n/a
397.242	0.179	794484	keystroke_s	s	n/a
397.436	0.1205	794872	keystroke_Key.enter	Key.enter	n/a
397.5615	13.4965	795123	prompt	n/a	revolution qualities employer investors\n
398.4415	0.03	796883	keystroke_t	t	n/a
398.877	0.104	797754	keystroke_Key.backspace	Key.backspace	n/a
399.071	0.1655	798142	keystroke_r	r	n/a
399.2215	0.105	798443	keystroke_e	e	n/a
399.566	0.1205	799132	keystroke_v	v	n/a
399.732	0.089	799464	keystroke_o	o	n/a
400.3615	0.1345	800723	keystroke_l	l	n/a
400.7965	0.03	801593	keystroke_i	i	n/a
401.3665	0.075	802733	keystroke_Key.backspace	Key.backspace	n/a
402.027	0.045	804054	keystroke_u	u	n/a
402.1175	0.0895	804235	keystroke_t	t	n/a
402.222	0.1045	804444	keystroke_i	i	n/a
402.3565	0.12	804713	keystroke_o	o	n/a
403.122	0.09	806244	keystroke_n	n	n/a
403.3315	0.1045	806663	keystroke_Key.space	Key.space	n/a
403.7215	0.0905	807443	keystroke_q	q	n/a
403.902	0.1045	807804	keystroke_u	u	n/a
404.0515	0.1505	808103	keystroke_a	a	n/a
404.217	0.1045	808434	keystroke_l	l	n/a
404.442	0.0895	808884	keystroke_i	i	n/a
404.577	0.1195	809154	keystroke_t	t	n/a
404.7115	0.1205	809423	keystroke_i	i	n/a
404.8765	0.24	809753	keystroke_e	e	n/a
405.0565	0.165	810113	keystroke_s	s	n/a
405.2665	0.09	810533	keystroke_Key.space	Key.space	n/a
405.4165	0.12	810833	keystroke_e	e	n/a
405.582	0.075	811164	keystroke_m	m	n/a
405.777	0.12	811554	keystroke_p	p	n/a
406.092	0.1195	812184	keystroke_l	l	n/a
406.317	0.045	812634	keystroke_o	o	n/a
406.706	0.1205	813412	keystroke_y	y	n/a
406.9465	0.2105	813893	keystroke_e	e	n/a
407.1115	0.15	814223	keystroke_r	r	n/a
407.3965	0.09	814793	keystroke_Key.space	Key.space	n/a
407.5915	0.0905	815183	keystroke_i	i	n/a
407.8615	0.09	815723	keystroke_n	n	n/a
408.372	0.12	816744	keystroke_v	v	n/a
408.852	0.1645	817704	keystroke_e	e	n/a
409.0165	0.165	818033	keystroke_s	s	n/a
409.362	0.1345	818724	keystroke_t	t	n/a
409.587	0.1345	819174	keystroke_o	o	n/a
410.052	0.06	820104	keystroke_s	s	n/a
410.3665	0.12	820733	keystroke_Key.backspace	Key.backspace	n/a
410.562	0.135	821124	keystroke_r	r	n/a
410.8165	0.15	821633	keystroke_s	s	n/a
410.9815	0.075	821963	keystroke_Key.enter	Key.enter	n/a
411.062	11.3065	822124	prompt	n/a	sufficiently adds strand beaver\n
411.732	0.12	823464	keystroke_s	s	n/a
412.122	0.1045	824244	keystroke_u	u	n/a
412.422	0.0895	824844	keystroke_f	f	n/a
412.6165	0.09	825233	keystroke_f	f	n/a
412.7815	0.1055	825563	keystroke_i	i	n/a
412.9915	0.09	825983	keystroke_e	e	n/a
413.4715	0.075	826943	keystroke_Key.backspace	Key.backspace	n/a
413.727	0.09	827454	keystroke_c	c	n/a
413.9515	0.09	827903	keystroke_i	i	n/a
414.117	0.1195	828234	keystroke_e	e	n/a
414.2515	0.09	828503	keystroke_n	n	n/a
414.3865	0.1055	828773	keystroke_t	t	n/a
414.5515	0.15	829103	keystroke_;	;	n/a
414.8515	0.105	829703	keystroke_u	u	n/a
415.377	0.0895	830754	keystroke_Key.backspace	Key.backspace	n/a
415.5565	0.075	831113	keystroke_Key.backspace	Key.backspace	n/a
416.187	0.1045	832374	keystroke_l	l	n/a
416.7265	0.1505	833453	keystroke_u	u	n/a
417.281	0.1055	834562	keystroke_Key.backspace	Key.backspace	n/a
417.6265	0.075	835253	keystroke_y	y	n/a
417.852	0.1795	835704	keystroke_a	a	n/a
418.392	0.105	836784	keystroke_Key.backspace	Key.backspace	n/a
418.6315	0.0595	837263	keystroke_Key.space	Key.space	n/a
418.7215	0.21	837443	keystroke_a	a	n/a
419.4565	0.075	838913	keystroke_d	d	n/a
419.6515	0.135	839303	keystroke_d	d	n/a
419.8015	0.1655	839603	keystroke_s	s	n/a
419.9965	0.12	839993	keystroke_Key.space	Key.space	n/a
420.462	0.12	840924	keystroke_s	s	n/a
420.626	0.06	841252	keystroke_t	t	n/a
420.747	0.104	841494	keystroke_r	r	n/a
420.911	0.15	841822	keystroke_a	a	n/a
421.0475	0.1185	842095	keystroke_n	n	n/a
421.226	0.12	842452	keystroke_d	d	n/a
421.331	0.091	842662	keystroke_Key.space	Key.space	n/a
421.5265	0.105	843053	keystroke_b	b	n/a
421.6325	0.1495	843265	keystroke_e	e	n/a
421.752	0.149	843504	keystroke_a	a	n/a
421.842	0.105	843684	keystroke_v	v	n/a
421.962	0.1645	843924	keystroke_e	e	n/a
422.1115	0.1205	844223	keystroke_r	r	n/a
422.262	0.105	844524	keystroke_Key.enter	Key.enter	n/a
422.373	12.07	844746	prompt	n/a	adventure meetings viruses furthermore\n
422.967	0.15	845934	keystroke_a	a	n/a
423.2065	0.09	846413	keystroke_d	d	n/a
423.762	0.1045	847524	keystroke_v	v	n/a
423.9115	0.135	847823	keystroke_a	a	n/a
424.062	0.0895	848124	keystroke_n	n	n/a
424.6615	0.09	849323	keystroke_t	t	n/a
425.442	0.06	850884	keystroke_Key.backspace	Key.backspace	n/a
425.592	0.0745	851184	keystroke_Key.backspace	Key.backspace	n/a
425.7715	0.0755	851543	keystroke_Key.backspace	Key.backspace	n/a
425.982	0.12	851964	keystroke_e	e	n/a
426.177	0.0755	852354	keystroke_n	n	n/a
426.567	0.06	853134	keystroke_t	t	n/a
426.747	0.119	853494	keystroke_u	u	n/a
426.926	0.135	853852	keystroke_r	r	n/a
427.2565	0.0905	854513	keystroke_e	e	n/a
427.482	0.105	854964	keystroke_Key.space	Key.space	n/a
428.052	0.09	856104	keystroke_m	m	n/a
428.202	0.09	856404	keystroke_e	e	n/a
428.442	0.12	856884	keystroke_e	e	n/a
428.9515	0.1055	857903	keystroke_t	t	n/a
429.5215	0.075	859043	keystroke_i	i	n/a
429.7765	0.075	859553	keystroke_n	n	n/a
429.942	0.09	859884	keystroke_g	g	n/a
430.167	0.1195	860334	keystroke_s	s	n/a
430.271	0.076	860542	keystroke_Key.space	Key.space	n/a
431.1565	0.075	862313	keystroke_v	v	n/a
431.322	0.09	862644	keystroke_i	i	n/a
431.4715	0.0905	862943	keystroke_r	r	n/a
431.607	0.0895	863214	keystroke_u	u	n/a
431.7115	0.1805	863423	keystroke_s	s	n/a
431.862	0.18	863724	keystroke_e	e	n/a
432.0865	0.135	864173	keystroke_s	s	n/a
432.2665	0.105	864533	keystroke_Key.space	Key.space	n/a
432.4915	0.1355	864983	keystroke_f	f	n/a
432.732	0.1045	865464	keystroke_u	u	n/a
433.0315	0.09	866063	keystroke_r	r	n/a
433.257	0.105	866514	keystroke_t	t	n/a
433.377	0.09	866754	keystroke_h	h	n/a
433.482	0.195	866964	keystroke_e	e	n/a
433.617	0.12	867234	keystroke_r	r	n/a
433.782	0.105	867564	keystroke_m	m	n/a
433.932	0.1355	867864	keystroke_o	o	n/a
434.007	0.135	868014	keystroke_r	r	n/a
434.096	0.15	868192	keystroke_e	e	n/a
434.3215	0.1195	868643	keystroke_Key.enter	Key.enter	n/a
434.4465	12.7325	868893	prompt	n/a	literacy incidents unknown ordinance\n
435.057	0.105	870114	keystroke_l	l	n/a
435.267	0.135	870534	keystroke_i	i	n/a
435.492	0.105	870984	keystroke_t	t	n/a
436.002	0.1795	872004	keystroke_e	e	n/a
436.1365	0.151	872273	keystroke_r	r	n/a
436.4675	0.1495	872935	keystroke_a	a	n/a
437.277	0.1045	874554	keystroke_c	c	n/a
437.6365	0.105	875273	keystroke_y	y	n/a
437.9065	0.09	875813	keystroke_Key.space	Key.space	n/a
438.102	0.0895	876204	keystroke_i	i	n/a
438.3565	0.105	876713	keystroke_n	n	n/a
439.437	0.18	878874	keystroke_v	v	n/a
439.932	0.09	879864	keystroke_Key.backspace	Key.backspace	n/a
440.082	0.15	880164	keystroke_c	c	n/a
440.5615	0.075	881123	keystroke_i	i	n/a
440.802	0.134	881604	keystroke_d	d	n/a
440.9965	0.1505	881993	keystroke_e	e	n/a
441.176	0.1055	882352	keystroke_n	n	n/a
441.297	0.12	882594	keystroke_t	t	n/a
441.492	0.12	882984	keystroke_s	s	n/a
441.597	0.089	883194	keystroke_Key.space	Key.space	n/a
441.762	0.12	883524	keystroke_u	u	n/a
442.032	0.09	884064	keystroke_n	n	n/a
442.347	0.1195	884694	keystroke_k	k	n/a
442.917	0.059	885834	keystroke_n	n	n/a
443.202	0.09	886404	keystroke_o	o	n/a
443.412	0.105	886824	keystroke_w	w	n/a
443.6365	0.0905	887273	keystroke_n	n	n/a
443.9215	0.0905	887843	keystroke_Key.space	Key.space	n/a
444.3415	0.0605	888683	keystroke_o	o	n/a
444.567	0.0895	889134	keystroke_r	r	n/a
444.896	0.105	889792	keystroke_d	d	n/a
445.061	0.0905	890122	keystroke_i	i	n/a
445.286	0.09	890572	keystroke_n	n	n/a
445.902	0.195	891804	keystroke_a	a	n/a
446.1115	0.1045	892223	keystroke_n	n	n/a
446.457	0.1345	892914	keystroke_c	c	n/a
446.771	0.121	893542	keystroke_e	e	n/a
447.071	0.106	894142	keystroke_Key.enter	Key.enter	n/a
447.183	10.7805	894366	prompt	n/a	requirements accent ministry nick\n
447.852	0.15	895704	keystroke_r	r	n/a
448.017	0.1495	896034	keystroke_e	e	n/a
448.3165	0.1055	896633	keystroke_q	q	n/a
448.5415	0.1205	897083	keystroke_u	u	n/a
448.751	0.136	897502	keystroke_i	i	n/a
448.902	0.134	897804	keystroke_r	r	n/a
449.052	0.12	898104	keystroke_e	e	n/a
449.2765	0.09	898553	keystroke_m	m	n/a
449.3965	0.1055	898793	keystroke_e	e	n/a
449.5165	0.12	899033	keystroke_n	n	n/a
449.7265	0.0155	899453	keystroke_t	t	n/a
450.402	0.135	900804	keystroke_s	s	n/a
450.552	0.105	901104	keystroke_Key.space	Key.space	n/a
450.762	0.075	901524	keystroke_a	a	n/a
451.062	0.0895	902124	keystroke_c	c	n/a
451.272	0.0895	902544	keystroke_c	c	n/a
451.497	0.105	902994	keystroke_e	e	n/a
451.677	0.1045	903354	keystroke_n	n	n/a
451.7965	0.075	903593	keystroke_t	t	n/a
452.067	0.1195	904134	keystroke_Key.space	Key.space	n/a
452.3365	0.075	904673	keystroke_m	m	n/a
452.577	0.0895	905154	keystroke_i	i	n/a
452.832	0.105	905664	keystroke_n	n	n/a
453.1465	0.0905	906293	keystroke_i	i	n/a
453.4915	0.0605	906983	keystroke_s	s	n/a
454.332	0.135	908664	keystroke_t	t	n/a
454.947	0.015	909894	keystroke_r	r	n/a
455.637	0.12	911274	keystroke_y	y	n/a
456.117	0.0895	912234	keystroke_Key.space	Key.space	n/a
456.3725	0.0895	912745	keystroke_s	s	n/a
456.7315	0.06	913463	keystroke_Key.backspace	Key.backspace	n/a
457.0015	0.1055	914003	keystroke_n	n	n/a
457.241	0.106	914482	keystroke_i	i	n/a
457.392	0.105	914784	keystroke_c	c	n/a
457.541	0.106	915082	keystroke_k	k	n/a
457.872	0.0895	915744	keystroke_Key.enter	Key.enter	n/a
457.9685	11.17	915937	prompt	n/a	kits pass display sullivan\n
458.982	0.1195	917964	keystroke_k	k	n/a
459.3115	0.0455	918623	keystroke_i	i	n/a
459.597	0.0895	919194	keystroke_t	t	n/a
459.8365	0.15	919673	keystroke_s	s	n/a
460.032	0.104	920064	keystroke_Key.space	Key.space	n/a
460.2565	0.1195	920513	keystroke_p	p	n/a
460.3165	0.1805	920633	keystroke_a	a	n/a
460.556	0.091	921112	keystroke_s	s	n/a
460.737	0.089	921474	keystroke_s	s	n/a
460.901	0.121	921802	keystroke_Key.space	Key.space	n/a
461.4725	0.0445	922945	keystroke_p	p	n/a
461.801	0.06	923602	keystroke_Key.backspace	Key.backspace	n/a
461.921	0.151	923842	keystroke_d	d	n/a
462.207	0.09	924414	keystroke_i	i	n/a
462.371	0.1205	924742	keystroke_s	s	n/a
462.582	0.105	925164	keystroke_p	p	n/a
463.0015	0.0905	926003	keystroke_l	l	n/a
463.1365	0.1205	926273	keystroke_a	a	n/a
463.4515	0.1055	926903	keystroke_y	y	n/a
464.007	0.0895	928014	keystroke_Key.space	Key.space	n/a
464.397	0.1495	928794	keystroke_s	s	n/a
465.206	0.151	930412	keystroke_u	u	n/a
465.746	0.0905	931492	keystroke_l	l	n/a
467.202	0.12	934404	keystroke_l	l	n/a
467.441	0.091	934882	keystroke_i	i	n/a
467.862	0.03	935724	keystroke_c	c	n/a
468.297	0.09	936594	keystroke_Key.backspace	Key.backspace	n/a
468.447	0.12	936894	keystroke_v	v	n/a
468.5815	0.15	937163	keystroke_a	a	n/a
468.7465	0.0755	937493	keystroke_n	n	n/a
469.047	0.09	938094	keystroke_Key.enter	Key.enter	n/a
469.143	13.496	938286	prompt	n/a	comm mandatory technical insurance\n
470.247	0.12	940494	keystroke_c	c	n/a
473.564	0.028	947128	keystroke_c	c	n/a
473.8765	0.09	947753	keystroke_Key.backspace	Key.backspace	n/a
474.9725	0.1045	949945	keystroke_o	o	n/a
475.617	0.075	951234	keystroke_m	m	n/a
475.812	0.075	951624	keystroke_m	m	n/a
476.022	0.09	952044	keystroke_Key.space	Key.space	n/a
476.2315	0.075	952463	keystroke_m	m	n/a
476.352	0.1195	952704	keystroke_a	a	n/a
476.487	0.09	952974	keystroke_n	n	n/a
477.2665	0.1505	954533	keystroke_d	d	n/a
477.5815	0.1955	955163	keystroke_a	a	n/a
477.912	0.0605	955824	keystroke_t	t	n/a
478.077	0.12	956154	keystroke_o	o	n/a
478.242	0.0755	956484	keystroke_r	r	n/a
478.347	0.135	956694	keystroke_y	y	n/a
478.617	0.06	957234	keystroke_Key.space	Key.space	n/a
478.932	0.15	957864	keystroke_t	t	n/a
479.172	0.09	958344	keystroke_e	e	n/a
479.3825	0.0895	958765	keystroke_c	c	n/a
479.4865	0.0895	958973	keystroke_h	h	n/a
479.682	0.105	959364	keystroke_n	n	n/a
479.9515	0.09	959903	keystroke_i	i	n/a
480.071	0.105	960142	keystroke_c	c	n/a
480.267	0.15	960534	keystroke_a	a	n/a
480.387	0.12	960774	keystroke_l	l	n/a
480.5365	0.1205	961073	keystroke_Key.space	Key.space	n/a
480.837	0.075	961674	keystroke_i	i	n/a
481.0315	0.09	962063	keystroke_n	n	n/a
481.1815	0.1205	962363	keystroke_s	s	n/a
481.347	0.105	962694	keystroke_u	u	n/a
481.497	0.18	962994	keystroke_r	r	n/a
481.737	0.1645	963474	keystroke_a	a	n/a
482.007	0.09	964014	keystroke_n	n	n/a
482.156	0.091	964312	keystroke_c	c	n/a
482.3525	0.0895	964705	keystroke_e	e	n/a
482.517	0.1195	965034	keystroke_Key.enter	Key.enter	n/a
482.643	9.7905	965286	prompt	n/a	transcripts delhi noise felt\n
483.372	0.09	966744	keystroke_t	t	n/a
483.9425	0.1495	967885	keystroke_r	r	n/a
484.152	0.165	968304	keystroke_a	a	n/a
484.3315	0.1205	968663	keystroke_n	n	n/a
484.497	0.1205	968994	keystroke_s	s	n/a
485.112	0.0895	970224	keystroke_c	c	n/a
485.622	0.105	971244	keystroke_r	r	n/a
485.862	0.105	971724	keystroke_i	i	n/a
486.0875	0.1195	972175	keystroke_p	p	n/a
486.252	0.135	972504	keystroke_t	t	n/a
486.8215	0.1205	973643	keystroke_s	s	n/a
486.957	0.135	973914	keystroke_Key.space	Key.space	n/a
487.3015	0.1205	974603	keystroke_d	d	n/a
487.4815	0.135	974963	keystroke_e	e	n/a
487.9015	0.1055	975803	keystroke_l	l	n/a
488.742	0.0605	977484	keystroke_h	h	n/a
489.087	0.1345	978174	keystroke_i	i	n/a
489.2515	0.1355	978503	keystroke_Key.space	Key.space	n/a
490.016	0.1065	980032	keystroke_n	n	n/a
490.272	0.1055	980544	keystroke_o	o	n/a
490.452	0.0895	980904	keystroke_i	i	n/a
490.5865	0.045	981173	keystroke_c	c	n/a
490.9615	0.075	981923	keystroke_Key.backspace	Key.backspace	n/a
491.0815	0.1805	982163	keystroke_s	s	n/a
491.232	0.105	982464	keystroke_e	e	n/a
491.3965	0.0905	982793	keystroke_Key.space	Key.space	n/a
491.712	0.135	983424	keystroke_f	f	n/a
491.862	0.15	983724	keystroke_e	e	n/a
491.997	0.12	983994	keystroke_l	l	n/a
492.1625	0.1045	984325	keystroke_t	t	n/a
492.327	0.105	984654	keystroke_Key.enter	Key.enter	n/a
492.4375	14.7115	984875	prompt	n/a	chrysler susan gadgets window\n
493.0925	0.119	986185	keystroke_c	c	n/a
493.317	0.1045	986634	keystroke_h	h	n/a
493.6165	0.1055	987233	keystroke_r	r	n/a
493.9015	0.0905	987803	keystroke_u	u	n/a
494.7115	0.09	989423	keystroke_Key.backspace	Key.backspace	n/a
495.657	0.0905	991314	keystroke_y	y	n/a
495.986	0.1065	991972	keystroke_l	l	n/a
496.977	0.09	993954	keystroke_Key.backspace	Key.backspace	n/a
497.1275	0.1345	994255	keystroke_s	s	n/a
497.382	0.105	994764	keystroke_l	l	n/a
497.547	0.224	995094	keystroke_e	e	n/a
497.7115	0.1505	995423	keystroke_r	r	n/a
497.921	0.105	995842	keystroke_Key.space	Key.space	n/a
498.222	0.09	996444	keystroke_s	s	n/a
498.327	0.105	996654	keystroke_u	u	n/a
498.462	0.18	996924	keystroke_s	s	n/a
498.7015	0.135	997403	keystroke_a	a	n/a
498.9265	0.105	997853	keystroke_n	n	n/a
499.1365	0.09	998273	keystroke_Key.space	Key.space	n/a
499.422	0.135	998844	keystroke_f	f	n/a
499.632	0.165	999264	keystroke_a	a	n/a
499.992	0.075	999984	keystroke_Key.backspace	Key.backspace	n/a
500.157	0.075	1000314	keystroke_Key.backspace	Key.backspace	n/a
500.5615	0.12	1001123	keystroke_g	g	n/a
500.742	0.1955	1001484	keystroke_a	a	n/a
502.0315	0.075	1004063	keystroke_d	d	n/a
503.441	0.1215	1006882	keystroke_g	g	n/a
503.727	0.09	1007454	keystroke_e	e	n/a
504.7465	0.195	1009493	keystroke_t	t	n/a
505.2415	0.165	1010483	keystroke_s	s	n/a
505.437	0.12	1010874	keystroke_Key.space	Key.space	n/a
505.662	0.105	1011324	keystroke_w	w	n/a
505.782	0.06	1011564	keystroke_i	i	n/a
505.932	0.09	1011864	keystroke_n	n	n/a
506.052	0.12	1012104	keystroke_d	d	n/a
506.187	0.09	1012374	keystroke_o	o	n/a
506.2915	0.1505	1012583	keystroke_w	w	n/a
507.057	0.09	1014114	keystroke_Key.enter	Key.enter	n/a
507.1535	6.853	1014307	prompt	n/a	pilot macro software plates\n
507.807	0.09	1015614	keystroke_p	p	n/a
508.272	0.06	1016544	keystroke_i	i	n/a
508.4665	0.1355	1016933	keystroke_l	l	n/a
508.7215	0.076	1017443	keystroke_o	o	n/a
508.8415	0.105	1017683	keystroke_t	t	n/a
508.961	0.091	1017922	keystroke_Key.space	Key.space	n/a
509.292	0.075	1018584	keystroke_m	m	n/a
509.412	0.12	1018824	keystroke_a	a	n/a
509.757	0.075	1019514	keystroke_c	c	n/a
509.982	0.12	1019964	keystroke_r	r	n/a
510.297	0.12	1020594	keystroke_o	o	n/a
510.552	0.0595	1021104	keystroke_Key.space	Key.space	n/a
510.8665	0.0755	1021733	keystroke_s	s	n/a
510.957	0.0905	1021914	keystroke_o	o	n/a
511.107	0.06	1022214	keystroke_f	f	n/a
511.3025	0.089	1022605	keystroke_t	t	n/a
511.5565	0.1355	1023113	keystroke_w	w	n/a
511.707	0.135	1023414	keystroke_a	a	n/a
511.977	0.135	1023954	keystroke_r	r	n/a
512.127	0.105	1024254	keystroke_e	e	n/a
512.247	0.09	1024494	keystroke_Key.space	Key.space	n/a
512.412	0.075	1024824	keystroke_p	p	n/a
512.5765	0.1205	1025153	keystroke_l	l	n/a
512.712	0.0895	1025424	keystroke_a	a	n/a
513.4615	0.0755	1026923	keystroke_t	t	n/a
513.5815	0.1955	1027163	keystroke_e	e	n/a
513.732	0.1645	1027464	keystroke_s	s	n/a
513.8815	0.12	1027763	keystroke_Key.enter	Key.enter	n/a
514.019	9.7645	1028038	prompt	n/a	ecuador cable finder juvenile\n
514.647	0.12	1029294	keystroke_e	e	n/a
515.156	0.106	1030312	keystroke_c	c	n/a
515.307	0.075	1030614	keystroke_u	u	n/a
515.411	0.121	1030822	keystroke_a	a	n/a
515.682	0.1045	1031364	keystroke_d	d	n/a
515.847	0.1195	1031694	keystroke_o	o	n/a
516.0565	0.0455	1032113	keystroke_r	r	n/a
516.2215	0.0905	1032443	keystroke_Key.space	Key.space	n/a
516.462	0.1195	1032924	keystroke_c	c	n/a
516.626	0.136	1033252	keystroke_a	a	n/a
516.8815	0.1355	1033763	keystroke_b	b	n/a
517.511	0.091	1035022	keystroke_l	l	n/a
517.676	0.091	1035352	keystroke_e	e	n/a
517.856	0.09	1035712	keystroke_Key.space	Key.space	n/a
518.142	0.1195	1036284	keystroke_f	f	n/a
518.291	0.0755	1036582	keystroke_i	i	n/a
518.4715	0.09	1036943	keystroke_n	n	n/a
518.5765	0.1955	1037153	keystroke_e	e	n/a
518.742	0.105	1037484	keystroke_r	r	n/a
519.282	0.075	1038564	keystroke_Key.backspace	Key.backspace	n/a
519.432	0.06	1038864	keystroke_Key.backspace	Key.backspace	n/a
519.567	0.06	1039134	keystroke_d	d	n/a
520.0765	0.121	1040153	keystroke_e	e	n/a
520.5115	0.105	1041023	keystroke_r	r	n/a
520.6915	0.105	1041383	keystroke_Key.space	Key.space	n/a
521.697	0.09	1043394	keystroke_j	j	n/a
521.952	0.09	1043904	keystroke_u	u	n/a
522.672	0.0605	1045344	keystroke_v	v	n/a
522.8515	0.0755	1045703	keystroke_e	e	n/a
522.9565	0.0755	1045913	keystroke_n	n	n/a
523.137	0.09	1046274	keystroke_i	i	n/a
523.3015	0.135	1046603	keystroke_l	l	n/a
523.467	0.1045	1046934	keystroke_e	e	n/a
523.6915	0.09	1047383	keystroke_Key.enter	Key.enter	n/a
523.794	7.1905	1047588	prompt	n/a	majority owen repair inline\n
524.411	0.091	1048822	keystroke_m	m	n/a
524.5625	0.1345	1049125	keystroke_a	a	n/a
524.6975	0.105	1049395	keystroke_j	j	n/a
524.8625	0.1345	1049725	keystroke_o	o	n/a
524.982	0.09	1049964	keystroke_r	r	n/a
525.102	0.09	1050204	keystroke_i	i	n/a
525.267	0.105	1050534	keystroke_t	t	n/a
525.522	0.09	1051044	keystroke_y	y	n/a
525.671	0.121	1051342	keystroke_Key.space	Key.space	n/a
525.987	0.074	1051974	keystroke_o	o	n/a
526.151	0.106	1052302	keystroke_w	w	n/a
526.346	0.061	1052692	keystroke_n	n	n/a
526.827	0.03	1053654	keystroke_Key.backspace	Key.backspace	n/a
527.007	0.2545	1054014	keystroke_e	e	n/a
527.472	0.12	1054944	keystroke_n	n	n/a
527.6215	0.105	1055243	keystroke_Key.space	Key.space	n/a
528.1015	0.1055	1056203	keystroke_r	r	n/a
528.222	0.12	1056444	keystroke_e	e	n/a
528.402	0.135	1056804	keystroke_p	p	n/a
528.522	0.1345	1057044	keystroke_a	a	n/a
528.777	0.0895	1057554	keystroke_i	i	n/a
528.942	0.104	1057884	keystroke_r	r	n/a
529.076	0.105	1058152	keystroke_Key.space	Key.space	n/a
529.316	0.061	1058632	keystroke_i	i	n/a
529.571	0.076	1059142	keystroke_n	n	n/a
529.827	0.105	1059654	keystroke_l	l	n/a
530.052	0.09	1060104	keystroke_i	i	n/a
530.261	0.09	1060522	keystroke_n	n	n/a
530.411	0.105	1060822	keystroke_e	e	n/a
530.501	0.091	1061002	keystroke_Key.space	Key.space	n/a
530.892	0.0895	1061784	keystroke_Key.enter	Key.enter	n/a
530.9885	9.8645	1061977	prompt	n/a	coach mustang nike controversial\n
531.6565	0.1045	1063313	keystroke_c	c	n/a
531.747	0.105	1063494	keystroke_o	o	n/a
531.881	0.136	1063762	keystroke_a	a	n/a
532.3475	0.1045	1064695	keystroke_c	c	n/a
532.7815	0.105	1065563	keystroke_h	h	n/a
532.9465	0.1055	1065893	keystroke_Key.space	Key.space	n/a
533.1565	0.09	1066313	keystroke_m	m	n/a
533.382	0.0745	1066764	keystroke_u	u	n/a
533.5165	0.105	1067033	keystroke_s	s	n/a
533.8915	0.1355	1067783	keystroke_a	a	n/a
534.117	0.1045	1068234	keystroke_n	n	n/a
534.461	0.06	1068922	keystroke_Key.backspace	Key.backspace	n/a
534.6115	0.075	1069223	keystroke_Key.backspace	Key.backspace	n/a
534.7465	0.1355	1069493	keystroke_t	t	n/a
534.897	0.165	1069794	keystroke_a	a	n/a
535.076	0.0905	1070152	keystroke_n	n	n/a
535.722	0.09	1071444	keystroke_g	g	n/a
535.992	0.119	1071984	keystroke_Key.space	Key.space	n/a
536.562	0.089	1073124	keystroke_r	r	n/a
536.667	0.074	1073334	keystroke_i	i	n/a
536.997	0.045	1073994	keystroke_Key.backspace	Key.backspace	n/a
537.1465	0.045	1074293	keystroke_Key.backspace	Key.backspace	n/a
537.627	0.0755	1075254	keystroke_n	n	n/a
537.8215	0.075	1075643	keystroke_i	i	n/a
538.0465	0.0755	1076093	keystroke_k	k	n/a
538.3015	0.1055	1076603	keystroke_e	e	n/a
538.4365	0.1055	1076873	keystroke_Key.space	Key.space	n/a
538.677	0.09	1077354	keystroke_c	c	n/a
538.737	0.075	1077474	keystroke_o	o	n/a
538.9465	0.075	1077893	keystroke_n	n	n/a
539.0515	0.1205	1078103	keystroke_t	t	n/a
539.187	0.12	1078374	keystroke_r	r	n/a
539.2765	0.075	1078553	keystroke_o	o	n/a
539.6665	0.0755	1079333	keystroke_v	v	n/a
539.7865	0.1355	1079573	keystroke_e	e	n/a
539.907	0.135	1079814	keystroke_r	r	n/a
540.102	0.1195	1080204	keystroke_s	s	n/a
540.2065	0.0905	1080413	keystroke_i	i	n/a
540.327	0.135	1080654	keystroke_a	a	n/a
540.402	0.149	1080804	keystroke_l	l	n/a
540.761	0.091	1081522	keystroke_Key.enter	Key.enter	n/a
540.8565	5.8765	1081713	prompt	n/a	keeps mariah cnet athens\n
541.6015	0.1045	1083203	keystroke_k	k	n/a
542.0065	0.0755	1084013	keystroke_e	e	n/a
542.2465	0.045	1084493	keystroke_e	e	n/a
542.352	0.1045	1084704	keystroke_p	p	n/a
542.5015	0.1505	1085003	keystroke_s	s	n/a
542.6365	0.0905	1085273	keystroke_Key.space	Key.space	n/a
542.8765	0.0605	1085753	keystroke_m	m	n/a
542.9965	0.1355	1085993	keystroke_a	a	n/a
543.267	0.1055	1086534	keystroke_r	r	n/a
543.4015	0.106	1086803	keystroke_i	i	n/a
543.5365	0.1205	1087073	keystroke_a	a	n/a
543.8065	0.105	1087613	keystroke_h	h	n/a
543.9565	0.1205	1087913	keystroke_Key.space	Key.space	n/a
544.5425	0.089	1089085	keystroke_c	c	n/a
544.782	0.075	1089564	keystroke_n	n	n/a
544.917	0.165	1089834	keystroke_e	e	n/a
545.157	0.1045	1090314	keystroke_t	t	n/a
545.2465	0.12	1090493	keystroke_Key.space	Key.space	n/a
545.6375	0.119	1091275	keystroke_a	a	n/a
545.8165	0.0905	1091633	keystroke_t	t	n/a
545.892	0.09	1091784	keystroke_h	h	n/a
545.997	0.1505	1091994	keystroke_e	e	n/a
546.117	0.1055	1092234	keystroke_n	n	n/a
546.3415	0.1655	1092683	keystroke_s	s	n/a
546.627	0.105	1093254	keystroke_Key.enter	Key.enter	n/a
546.737	11.6665	1093474	prompt	n/a	proven productivity violin virtually\n
547.422	0.105	1094844	keystroke_p	p	n/a
547.6175	0.0895	1095235	keystroke_r	r	n/a
547.707	0.12	1095414	keystroke_o	o	n/a
547.996	0.101	1095992	keystroke_v	v	n/a
548.3225	0.1195	1096645	keystroke_e	e	n/a
548.457	0.105	1096914	keystroke_n	n	n/a
548.592	0.105	1097184	keystroke_Key.space	Key.space	n/a
548.832	0.105	1097664	keystroke_p	p	n/a
548.982	0.105	1097964	keystroke_r	r	n/a
549.132	0.12	1098264	keystroke_o	o	n/a
549.462	0.09	1098924	keystroke_f	f	n/a
550.017	0.12	1100034	keystroke_Key.backspace	Key.backspace	n/a
550.287	0.075	1100574	keystroke_d	d	n/a
550.512	0.06	1101024	keystroke_u	u	n/a
550.6625	0.0745	1101325	keystroke_c	c	n/a
550.947	0.075	1101894	keystroke_t	t	n/a
552.0115	0.076	1104023	keystroke_i	i	n/a
552.1465	0.075	1104293	keystroke_v	v	n/a
552.267	0.09	1104534	keystroke_i	i	n/a
552.5065	0.1805	1105013	keystroke_t	t	n/a
552.9575	0.1045	1105915	keystroke_u	u	n/a
553.4665	0.075	1106933	keystroke_Key.backspace	Key.backspace	n/a
553.767	0.075	1107534	keystroke_y	y	n/a
554.0965	0.105	1108193	keystroke_Key.space	Key.space	n/a
554.697	0.1195	1109394	keystroke_v	v	n/a
554.832	0.0905	1109664	keystroke_i	i	n/a
554.9525	0.1185	1109905	keystroke_o	o	n/a
555.2375	0.195	1110475	keystroke_l	l	n/a
555.447	0.1355	1110894	keystroke_i	i	n/a
555.7015	0.121	1111403	keystroke_n	n	n/a
555.8815	0.121	1111763	keystroke_Key.space	Key.space	n/a
556.1675	0.119	1112335	keystroke_v	v	n/a
556.3925	0.105	1112785	keystroke_i	i	n/a
556.617	0.12	1113234	keystroke_r	r	n/a
556.932	0.09	1113864	keystroke_t	t	n/a
557.082	0.15	1114164	keystroke_u	u	n/a
557.262	0.165	1114524	keystroke_a	a	n/a
557.412	0.075	1114824	keystroke_l	l	n/a
557.562	0.09	1115124	keystroke_l	l	n/a
557.922	0.1055	1115844	keystroke_y	y	n/a
558.057	0.12	1116114	keystroke_Key.space	Key.space	n/a
558.2965	0.1055	1116593	keystroke_Key.enter	Key.enter	n/a
558.409	10.9595	1116818	prompt	n/a	suited section reflected substances\n
559.1215	0.1355	1118243	keystroke_s	s	n/a
559.3315	0.1205	1118663	keystroke_u	u	n/a
559.4825	0.134	1118965	keystroke_i	i	n/a
559.632	0.12	1119264	keystroke_t	t	n/a
559.812	0.225	1119624	keystroke_e	e	n/a
560.9515	0.121	1121903	keystroke_d	d	n/a
561.3115	0.135	1122623	keystroke_Key.space	Key.space	n/a
561.6115	0.1515	1123223	keystroke_s	s	n/a
561.777	0.105	1123554	keystroke_e	e	n/a
562.048	0.104	1124096	keystroke_c	c	n/a
562.3775	0.1045	1124755	keystroke_t	t	n/a
562.5715	0.076	1125143	keystroke_i	i	n/a
562.991	0.09	1125982	keystroke_o	o	n/a
563.276	0.1215	1126552	keystroke_n	n	n/a
563.441	0.121	1126882	keystroke_Key.space	Key.space	n/a
563.787	0.15	1127574	keystroke_r	r	n/a
563.907	0.18	1127814	keystroke_e	e	n/a
564.4325	0.1045	1128865	keystroke_f	f	n/a
564.6425	0.104	1129285	keystroke_l	l	n/a
564.822	0.0905	1129644	keystroke_e	e	n/a
565.1815	0.0605	1130363	keystroke_c	c	n/a
565.4515	0.105	1130903	keystroke_t	t	n/a
565.6465	0.225	1131293	keystroke_e	e	n/a
565.8865	0.105	1131773	keystroke_d	d	n/a
566.097	0.09	1132194	keystroke_Key.space	Key.space	n/a
566.307	0.1195	1132614	keystroke_s	s	n/a
566.4415	0.09	1132883	keystroke_u	u	n/a
566.7115	0.1205	1133423	keystroke_b	b	n/a
567.0125	0.1485	1134025	keystroke_s	s	n/a
567.3575	0.105	1134715	keystroke_t	t	n/a
567.5375	0.1345	1135075	keystroke_a	a	n/a
567.7915	0.1055	1135583	keystroke_n	n	n/a
568.3015	0.0905	1136603	keystroke_c	c	n/a
568.6625	0.2095	1137325	keystroke_e	e	n/a
568.887	0.1645	1137774	keystroke_s	s	n/a
569.2615	0.1055	1138523	keystroke_Key.enter	Key.enter	n/a
569.3725	9.0865	1138745	prompt	n/a	achieved baghdad rain insertion\n
570.0715	0.1505	1140143	keystroke_a	a	n/a
570.372	0.12	1140744	keystroke_c	c	n/a
570.552	0.09	1141104	keystroke_h	h	n/a
570.746	0.106	1141492	keystroke_i	i	n/a
570.912	0.09	1141824	keystroke_e	e	n/a
571.167	0.12	1142334	keystroke_v	v	n/a
571.3915	0.091	1142783	keystroke_e	e	n/a
571.6765	0.166	1143353	keystroke_d	d	n/a
571.9765	0.1205	1143953	keystroke_Key.space	Key.space	n/a
572.592	0.12	1145184	keystroke_b	b	n/a
572.757	0.1655	1145514	keystroke_a	a	n/a
573.0415	0.135	1146083	keystroke_g	g	n/a
573.1925	0.1045	1146385	keystroke_h	h	n/a
574.092	0.1345	1148184	keystroke_d	d	n/a
574.3325	0.1945	1148665	keystroke_a	a	n/a
574.542	0.15	1149084	keystroke_d	d	n/a
574.8715	0.1505	1149743	keystroke_Key.space	Key.space	n/a
575.3215	0.09	1150643	keystroke_r	r	n/a
575.487	0.1645	1150974	keystroke_a	a	n/a
575.6665	0.0905	1151333	keystroke_i	i	n/a
575.907	0.12	1151814	keystroke_n	n	n/a
576.1315	0.075	1152263	keystroke_Key.space	Key.space	n/a
576.4465	0.09	1152893	keystroke_i	i	n/a
576.6415	0.1055	1153283	keystroke_n	n	n/a
576.9575	0.1195	1153915	keystroke_s	s	n/a
577.227	0.18	1154454	keystroke_e	e	n/a
577.377	0.12	1154754	keystroke_r	r	n/a
577.632	0.09	1155264	keystroke_t	t	n/a
577.737	0.1205	1155474	keystroke_i	i	n/a
577.872	0.1205	1155744	keystroke_o	o	n/a
578.112	0.09	1156224	keystroke_n	n	n/a
578.337	0.12	1156674	keystroke_Key.enter	Key.enter	n/a
578.464	12.235	1156928	prompt	n/a	cologne proven champagne partnerships\n
579.297	0.12	1158594	keystroke_c	c	n/a
579.477	0.0445	1158954	keystroke_o	o	n/a
579.732	0.1195	1159464	keystroke_l	l	n/a
579.9725	0.105	1159945	keystroke_o	o	n/a
580.1815	0.1055	1160363	keystroke_g	g	n/a
580.512	0.0895	1161024	keystroke_n	n	n/a
580.7225	0.09	1161445	keystroke_e	e	n/a
580.977	0.105	1161954	keystroke_Key.space	Key.space	n/a
581.2165	0.1655	1162433	keystroke_p	p	n/a
581.367	0.1345	1162734	keystroke_r	r	n/a
581.5315	0.1055	1163063	keystroke_o	o	n/a
581.832	0.1345	1163664	keystroke_v	v	n/a
582.132	0.1045	1164264	keystroke_e	e	n/a
582.3415	0.12	1164683	keystroke_n	n	n/a
582.567	0.0895	1165134	keystroke_Key.space	Key.space	n/a
583.167	0.105	1166334	keystroke_c	c	n/a
583.332	0.0755	1166664	keystroke_h	h	n/a
583.617	0.135	1167234	keystroke_a	a	n/a
583.827	0.075	1167654	keystroke_m	m	n/a
584.052	0.105	1168104	keystroke_p	p	n/a
584.3375	0.1195	1168675	keystroke_a	a	n/a
584.6815	0.015	1169363	keystroke_h	h	n/a
584.7425	0.029	1169485	keystroke_h	h	n/a
585.2515	0.0905	1170503	keystroke_Key.backspace	Key.backspace	n/a
585.417	0.075	1170834	keystroke_Key.backspace	Key.backspace	n/a
585.7325	0.1345	1171465	keystroke_g	g	n/a
586.392	0.1345	1172784	keystroke_n	n	n/a
586.752	0.1045	1173504	keystroke_e	e	n/a
587.0065	0.105	1174013	keystroke_Key.space	Key.space	n/a
587.2615	0.1055	1174523	keystroke_p	p	n/a
587.3815	0.1505	1174763	keystroke_a	a	n/a
587.652	0.105	1175304	keystroke_r	r	n/a
587.907	0.09	1175814	keystroke_t	t	n/a
588.477	0.1195	1176954	keystroke_n	n	n/a
588.6415	0.24	1177283	keystroke_e	e	n/a
588.7915	0.15	1177583	keystroke_r	r	n/a
589.317	0.075	1178634	keystroke_s	s	n/a
589.4675	0.12	1178935	keystroke_h	h	n/a
589.932	0.12	1179864	keystroke_i	i	n/a
590.292	0.12	1180584	keystroke_p	p	n/a
590.6065	0.09	1181213	keystroke_Key.enter	Key.enter	n/a
590.7035	10.3915	1181407	prompt	n/a	greeting limited cycle theoretical\n
591.702	0.045	1183404	keystroke_g	g	n/a
592.092	0.0895	1184184	keystroke_r	r	n/a
592.317	0.1045	1184634	keystroke_e	e	n/a
592.542	0.09	1185084	keystroke_e	e	n/a
592.962	0.1045	1185924	keystroke_t	t	n/a
593.4415	0.076	1186883	keystroke_i	i	n/a
593.667	0.105	1187334	keystroke_n	n	n/a
594.027	0.1355	1188054	keystroke_g	g	n/a
594.5815	0.1055	1189163	keystroke_Key.space	Key.space	n/a
594.822	0.0745	1189644	keystroke_l	l	n/a
594.972	0.09	1189944	keystroke_i	i	n/a
595.152	0.1195	1190304	keystroke_m	m	n/a
595.3765	0.0905	1190753	keystroke_i	i	n/a
595.542	0.0905	1191084	keystroke_t	t	n/a
596.0525	0.1345	1192105	keystroke_e	e	n/a
596.457	0.0895	1192914	keystroke_d	d	n/a
596.607	0.105	1193214	keystroke_Key.space	Key.space	n/a
596.832	0.06	1193664	keystroke_c	c	n/a
596.9825	0.0895	1193965	keystroke_y	y	n/a
597.1475	0.074	1194295	keystroke_c	c	n/a
597.312	0.105	1194624	keystroke_l	l	n/a
597.462	0.15	1194924	keystroke_e	e	n/a
597.597	0.105	1195194	keystroke_Key.space	Key.space	n/a
597.822	0.105	1195644	keystroke_t	t	n/a
597.957	0.09	1195914	keystroke_h	h	n/a
598.0925	0.1795	1196185	keystroke_e	e	n/a
598.242	0.12	1196484	keystroke_r	r	n/a
598.8565	0.075	1197713	keystroke_Key.backspace	Key.backspace	n/a
599.112	0.12	1198224	keystroke_o	o	n/a
599.3365	0.0605	1198673	keystroke_r	r	n/a
599.787	0.135	1199574	keystroke_e	e	n/a
600.0565	0.0905	1200113	keystroke_t	t	n/a
600.162	0.105	1200324	keystroke_i	i	n/a
600.387	0.105	1200774	keystroke_c	c	n/a
600.5515	0.1205	1201103	keystroke_a	a	n/a
600.702	0.105	1201404	keystroke_l	l	n/a
600.972	0.12	1201944	keystroke_Key.enter	Key.enter	n/a
601.1055	15.633	1202211	prompt	n/a	mats scientific experiencing covers\n
601.947	0.105	1203894	keystroke_m	m	n/a
602.112	0.15	1204224	keystroke_a	a	n/a
602.277	0.135	1204554	keystroke_y	y	n/a
602.517	0.105	1205034	keystroke_s	s	n/a
602.832	0.075	1205664	keystroke_Key.backspace	Key.backspace	n/a
602.997	0.0595	1205994	keystroke_Key.backspace	Key.backspace	n/a
603.117	0.12	1206234	keystroke_t	t	n/a
603.4465	0.136	1206893	keystroke_s	s	n/a
603.687	0.089	1207374	keystroke_Key.space	Key.space	n/a
603.926	0.105	1207852	keystroke_s	s	n/a
604.152	0.105	1208304	keystroke_c	c	n/a
604.3625	0.104	1208725	keystroke_i	i	n/a
604.7515	0.151	1209503	keystroke_e	e	n/a
605.3365	0.09	1210673	keystroke_n	n	n/a
605.5765	0.09	1211153	keystroke_t	t	n/a
605.727	0.1055	1211454	keystroke_i	i	n/a
606.027	0.06	1212054	keystroke_f	f	n/a
606.417	0.075	1212834	keystroke_i	i	n/a
606.6875	0.1645	1213375	keystroke_v	v	n/a
607.2565	0.105	1214513	keystroke_Key.backspace	Key.backspace	n/a
607.3915	0.135	1214783	keystroke_c	c	n/a
607.8265	0.045	1215653	keystroke_Key.space	Key.space	n/a
608.172	0.1055	1216344	keystroke_e	e	n/a
608.4265	0.1055	1216853	keystroke_c	c	n/a
608.5615	0.135	1217123	keystroke_p	p	n/a
608.712	0.0745	1217424	keystroke_e	e	n/a
608.982	0.0745	1217964	keystroke_Key.backspace	Key.backspace	n/a
609.147	0.06	1218294	keystroke_Key.backspace	Key.backspace	n/a
609.311	0.1055	1218622	keystroke_Key.backspace	Key.backspace	n/a
609.942	0.135	1219884	keystroke_x	x	n/a
610.5115	0.0905	1221023	keystroke_p	p	n/a
610.617	0.195	1221234	keystroke_e	e	n/a
610.797	0.105	1221594	keystroke_r	r	n/a
611.127	0.0595	1222254	keystroke_i	i	n/a
611.457	0.1055	1222914	keystroke_e	e	n/a
612.057	0.06	1224114	keystroke_n	n	n/a
612.357	0.12	1224714	keystroke_v	v	n/a
612.6565	0.0755	1225313	keystroke_i	i	n/a
612.9715	0.0755	1225943	keystroke_Key.backspace	Key.backspace	n/a
613.1215	0.105	1226243	keystroke_Key.backspace	Key.backspace	n/a
613.347	0.135	1226694	keystroke_v	v	n/a
613.797	0.105	1227594	keystroke_Key.backspace	Key.backspace	n/a
613.9475	0.1195	1227895	keystroke_c	c	n/a
614.4415	0.076	1228883	keystroke_i	i	n/a
614.637	0.105	1229274	keystroke_n	n	n/a
614.772	0.12	1229544	keystroke_g	g	n/a
614.922	0.105	1229844	keystroke_Key.space	Key.space	n/a
615.282	0.09	1230564	keystroke_c	c	n/a
615.387	0.105	1230774	keystroke_o	o	n/a
615.717	0.0895	1231434	keystroke_v	v	n/a
615.972	0.2245	1231944	keystroke_e	e	n/a
616.1665	0.121	1232333	keystroke_r	r	n/a
616.4965	0.12	1232993	keystroke_s	s	n/a
616.6315	0.1055	1233263	keystroke_Key.enter	Key.enter	n/a
616.743	7.4655	1233486	prompt	n/a	motels greeting generous clara\n
617.472	0.09	1234944	keystroke_m	m	n/a
617.712	0.12	1235424	keystroke_o	o	n/a
617.9225	0.105	1235845	keystroke_t	t	n/a
618.312	0.09	1236624	keystroke_e	e	n/a
618.4765	0.1205	1236953	keystroke_l	l	n/a
618.612	0.12	1237224	keystroke_s	s	n/a
618.7325	0.0895	1237465	keystroke_Key.space	Key.space	n/a
618.942	0.1195	1237884	keystroke_g	g	n/a
619.287	0.12	1238574	keystroke_r	r	n/a
619.437	0.09	1238874	keystroke_e	e	n/a
619.6775	0.09	1239355	keystroke_e	e	n/a
620.3975	0.1045	1240795	keystroke_t	t	n/a
620.562	0.0895	1241124	keystroke_i	i	n/a
620.7565	0.1205	1241513	keystroke_n	n	n/a
620.8915	0.09	1241783	keystroke_g	g	n/a
621.0115	0.0905	1242023	keystroke_Key.space	Key.space	n/a
621.2675	0.1045	1242535	keystroke_g	g	n/a
621.4765	0.075	1242953	keystroke_e	e	n/a
621.6425	0.12	1243285	keystroke_n	n	n/a
621.7765	0.195	1243553	keystroke_e	e	n/a
621.9865	0.18	1243973	keystroke_r	r	n/a
622.3175	0.1045	1244635	keystroke_o	o	n/a
622.5265	0.105	1245053	keystroke_u	u	n/a
622.6765	0.1205	1245353	keystroke_s	s	n/a
622.8115	0.105	1245623	keystroke_Key.space	Key.space	n/a
623.067	0.105	1246134	keystroke_c	c	n/a
623.232	0.105	1246464	keystroke_l	l	n/a
623.382	0.1645	1246764	keystroke_a	a	n/a
623.6515	0.166	1247303	keystroke_r	r	n/a
623.8315	0.135	1247663	keystroke_a	a	n/a
624.1165	0.09	1248233	keystroke_Key.enter	Key.enter	n/a
624.2155	5.843	1248431	prompt	n/a	evening died belle sheet\n
624.8225	0.12	1249645	keystroke_e	e	n/a
625.332	0.135	1250664	keystroke_v	v	n/a
625.692	0.1195	1251384	keystroke_e	e	n/a
626.292	0.09	1252584	keystroke_n	n	n/a
626.5025	0.089	1253005	keystroke_i	i	n/a
626.6825	0.12	1253365	keystroke_n	n	n/a
626.817	0.0745	1253634	keystroke_g	g	n/a
626.9065	0.09	1253813	keystroke_Key.space	Key.space	n/a
627.2065	0.076	1254413	keystroke_d	d	n/a
627.3715	0.0905	1254743	keystroke_i	i	n/a
627.523	0.179	1255046	keystroke_e	e	n/a
627.717	0.0895	1255434	keystroke_d	d	n/a
627.8665	0.075	1255733	keystroke_Key.space	Key.space	n/a
628.0765	0.091	1256153	keystroke_b	b	n/a
628.2265	0.105	1256453	keystroke_e	e	n/a
628.362	0.0895	1256724	keystroke_l	l	n/a
628.5415	0.0905	1257083	keystroke_l	l	n/a
628.6775	0.1345	1257355	keystroke_e	e	n/a
628.842	0.0745	1257684	keystroke_Key.space	Key.space	n/a
629.052	0.12	1258104	keystroke_s	s	n/a
629.156	0.091	1258312	keystroke_h	h	n/a
629.321	0.0915	1258642	keystroke_e	e	n/a
629.577	0.135	1259154	keystroke_e	e	n/a
629.802	0.0905	1259604	keystroke_t	t	n/a
629.951	0.105	1259902	keystroke_Key.enter	Key.enter	n/a
630.063	18.205	1260126	prompt	n/a	ticket francisco cancellation positioning\n
630.6715	0.1205	1261343	keystroke_t	t	n/a
