onset	duration	sample	value	key	prompt_text
4.4885	6.6155	8977	prompt	n/a	the quick brown fox jumps over a lazy dog\n
5.7755	0.0725	11551	keystroke_t	t	n/a
5.7755	0.1175	11551	keystroke_h	h	n/a
5.924	0.1325	11848	keystroke_e	e	n/a
5.9965	0.1055	11993	keystroke_Key.space	Key.space	n/a
6.1315	0.135	12263	keystroke_q	q	n/a
6.222	0.1205	12444	keystroke_u	u	n/a
6.3275	0.1205	12655	keystroke_i	i	n/a
6.4165	0.107	12833	keystroke_c	c	n/a
6.5375	0.106	13075	keystroke_k	k	n/a
6.673	0.09	13346	keystroke_Key.space	Key.space	n/a
6.7335	0.089	13467	keystroke_b	b	n/a
6.868	0.121	13736	keystroke_r	r	n/a
6.974	0.09	13948	keystroke_o	o	n/a
7.0785	0.1355	14157	keystroke_w	w	n/a
7.1545	0.134	14309	keystroke_n	n	n/a
7.304	0.09	14608	keystroke_Key.space	Key.space	n/a
7.3785	0.1205	14757	keystroke_f	f	n/a
7.483	0.0905	14966	keystroke_o	o	n/a
7.6045	0.135	15209	keystroke_x	x	n/a
7.7395	0.089	15479	keystroke_Key.space	Key.space	n/a
7.8885	0.0905	15777	keystroke_j	j	n/a
8.0685	0.0605	16137	keystroke_u	u	n/a
8.2645	0.059	16529	keystroke_m	m	n/a
8.4285	0.105	16857	keystroke_p	p	n/a
8.5635	0.1355	17127	keystroke_s	s	n/a
8.744	0.0595	17488	keystroke_Key.space	Key.space	n/a
8.8645	0.1645	17729	keystroke_o	o	n/a
8.9845	0.0895	17969	keystroke_v	v	n/a
9.179	0.075	18358	keystroke_e	e	n/a
9.2685	0.106	18537	keystroke_r	r	n/a
9.4785	0.105	18957	keystroke_Key.space	Key.space	n/a
9.6585	0.0755	19317	keystroke_a	a	n/a
9.8535	0.0895	19707	keystroke_Key.space	Key.space	n/a
10.004	0.0905	20008	keystroke_l	l	n/a
10.1085	0.0905	20217	keystroke_a	a	n/a
10.3035	0.135	20607	keystroke_z	z	n/a
10.3785	0.1055	20757	keystroke_y	y	n/a
10.4985	0.09	20997	keystroke_Key.space	Key.space	n/a
10.619	0.135	21238	keystroke_d	d	n/a
10.7235	0.151	21447	keystroke_o	o	n/a
10.8585	0.1205	21717	keystroke_g	g	n/a
10.994	0.1045	21988	keystroke_Key.enter	Key.enter	n/a
11.1135	4.4145	22227	prompt	n/a	disk posing besides hartford\n
11.7435	0.1205	23487	keystroke_d	d	n/a
11.8035	0.0905	23607	keystroke_i	i	n/a
11.9535	0.106	23907	keystroke_s	s	n/a
12.029	0.0895	24058	keystroke_k	k	n/a
12.1785	0.1055	24357	keystroke_Key.space	Key.space	n/a
12.299	0.195	24598	keystroke_p	p	n/a
12.4635	0.0905	24927	keystroke_o	o	n/a
12.5685	0.105	25137	keystroke_s	s	n/a
12.6895	0.09	25379	keystroke_i	i	n/a
12.8835	0.136	25767	keystroke_n	n	n/a
12.9885	0.105	25977	keystroke_g	g	n/a
13.079	0.0895	26158	keystroke_Key.space	Key.space	n/a
13.139	0.1345	26278	keystroke_b	b	n/a
13.2435	0.0905	26487	keystroke_e	e	n/a
13.409	0.12	26818	keystroke_s	s	n/a
13.484	0.165	26968	keystroke_i	i	n/a
13.604	0.075	27208	keystroke_d	d	n/a
13.784	0.06	27568	keystroke_e	e	n/a
13.9345	0.12	27869	keystroke_s	s	n/a
14.0235	0.075	28047	keystroke_Key.space	Key.space	n/a
14.1135	0.121	28227	keystroke_h	h	n/a
14.219	0.045	28438	keystroke_a	a	n/a
14.489	0.0905	28978	keystroke_r	r	n/a
14.669	0.09	29338	keystroke_t	t	n/a
14.8795	0.09	29759	keystroke_f	f	n/a
14.9695	0.1045	29939	keystroke_o	o	n/a
15.0895	0.1045	30179	keystroke_r	r	n/a
15.3145	0.1195	30629	keystroke_d	d	n/a
15.4035	0.1205	30807	keystroke_Key.enter	Key.enter	n/a
15.533	6.804	31066	prompt	n/a	protecting consideration parks notification\n
16.184	0.105	32368	keystroke_p	p	n/a
16.334	0.12	32668	keystroke_r	r	n/a
16.424	0.105	32848	keystroke_o	o	n/a
16.604	0.09	33208	keystroke_t	t	n/a
16.7545	0.1045	33509	keystroke_e	e	n/a
16.9635	0.06	33927	keystroke_c	c	n/a
17.1745	0.1345	34349	keystroke_t	t	n/a
17.3095	0.15	34619	keystroke_i	i	n/a
17.5635	0.1205	35127	keystroke_n	n	n/a
17.6385	0.09	35277	keystroke_g	g	n/a
17.7585	0.1205	35517	keystroke_Key.space	Key.space	n/a
17.909	0.12	35818	keystroke_c	c	n/a
17.9685	0.0755	35937	keystroke_o	o	n/a
18.119	0.105	36238	keystroke_n	n	n/a
18.1935	0.12	36387	keystroke_s	s	n/a
18.3435	0.166	36687	keystroke_i	i	n/a
18.4185	0.106	36837	keystroke_d	d	n/a
18.599	0.09	37198	keystroke_e	e	n/a
18.719	0.1045	37438	keystroke_r	r	n/a
18.929	0.06	37858	keystroke_a	a	n/a
19.094	0.09	38188	keystroke_t	t	n/a
19.1095	0.119	38219	keystroke_i	i	n/a
19.169	0.0895	38338	keystroke_o	o	n/a
19.364	0.0745	38728	keystroke_n	n	n/a
19.4385	0.09	38877	keystroke_Key.space	Key.space	n/a
19.5435	0.105	39087	keystroke_p	p	n/a
19.6645	0.0745	39329	keystroke_a	a	n/a
19.8285	0.106	39657	keystroke_r	r	n/a
19.9035	0.105	39807	keystroke_k	k	n/a
20.039	0.12	40078	keystroke_s	s	n/a
20.129	0.1045	40258	keystroke_Key.space	Key.space	n/a
20.219	0.075	40438	keystroke_n	n	n/a
20.369	0.105	40738	keystroke_o	o	n/a
20.459	0.075	40918	keystroke_t	t	n/a
20.594	0.0905	41188	keystroke_i	i	n/a
20.699	0.105	41398	keystroke_f	f	n/a
21.2085	0.105	42417	keystroke_i	i	n/a
21.2995	0.09	42599	keystroke_c	c	n/a
21.5085	0.045	43017	keystroke_a	a	n/a
21.7045	0.09	43409	keystroke_t	t	n/a
21.7485	0.151	43497	keystroke_i	i	n/a
21.8085	0.1205	43617	keystroke_o	o	n/a
22.0345	0.0745	44069	keystroke_n	n	n/a
22.229	0.105	44458	keystroke_Key.enter	Key.enter	n/a
22.345	5.5565	44690	prompt	n/a	completely worlds journals guitar\n
22.9945	0.1345	45989	keystroke_c	c	n/a
23.0835	0.076	46167	keystroke_o	o	n/a
23.2495	0.075	46499	keystroke_m	m	n/a
23.4135	0.075	46827	keystroke_p	p	n/a
23.5945	0.0895	47189	keystroke_l	l	n/a
23.6535	0.076	47307	keystroke_e	e	n/a
23.8035	0.106	47607	keystroke_t	t	n/a
23.9685	0.106	47937	keystroke_e	e	n/a
24.0295	0.0895	48059	keystroke_l	l	n/a
24.1785	0.0905	48357	keystroke_y	y	n/a
24.2835	0.09	48567	keystroke_Key.space	Key.space	n/a
24.4495	0.104	48899	keystroke_w	w	n/a
24.5395	0.164	49079	keystroke_o	o	n/a
24.6735	0.121	49347	keystroke_r	r	n/a
24.8395	0.179	49679	keystroke_l	l	n/a
24.974	0.1045	49948	keystroke_d	d	n/a
25.244	0.0745	50488	keystroke_s	s	n/a
25.3335	0.09	50667	keystroke_Key.space	Key.space	n/a
25.679	0.09	51358	keystroke_j	j	n/a
25.904	0.06	51808	keystroke_o	o	n/a
26.054	0.105	52108	keystroke_u	u	n/a
26.174	0.1055	52348	keystroke_r	r	n/a
26.249	0.105	52498	keystroke_n	n	n/a
26.3995	0.1195	52799	keystroke_a	a	n/a
26.474	0.075	52948	keystroke_l	l	n/a
26.6245	0.09	53249	keystroke_s	s	n/a
26.6985	0.105	53397	keystroke_Key.space	Key.space	n/a
27.029	0.0905	54058	keystroke_g	g	n/a
27.104	0.165	54208	keystroke_u	u	n/a
27.194	0.119	54388	keystroke_i	i	n/a
27.3295	0.0895	54659	keystroke_t	t	n/a
27.539	0.09	55078	keystroke_a	a	n/a
27.734	0.09	55468	keystroke_r	r	n/a
27.794	0.105	55588	keystroke_Key.enter	Key.enter	n/a
27.906	6.13	55812	prompt	n/a	extend myself coming coupons\n
28.53	0.089	57060	keystroke_w	w	n/a
28.5885	0.0605	57177	keystroke_e	e	n/a
28.9785	0.06	57957	keystroke_Key.backspace	Key.backspace	n/a
29.1435	0.0605	58287	keystroke_Key.backspace	Key.backspace	n/a
29.2045	0.0895	58409	keystroke_e	e	n/a
29.399	0.0895	58798	keystroke_x	x	n/a
29.6395	0.089	59279	keystroke_t	t	n/a
29.7885	0.1355	59577	keystroke_e	e	n/a
29.9085	0.1205	59817	keystroke_n	n	n/a
30.0135	0.106	60027	keystroke_d	d	n/a
30.179	0.105	60358	keystroke_Key.space	Key.space	n/a
30.719	0.06	61438	keystroke_m	m	n/a
30.9285	0.1205	61857	keystroke_y	y	n/a
31.0335	0.105	62067	keystroke_s	s	n/a
31.1985	0.09	62397	keystroke_e	e	n/a
31.2745	0.104	62549	keystroke_l	l	n/a
31.424	0.1195	62848	keystroke_f	f	n/a
31.8435	0.1205	63687	keystroke_Key.space	Key.space	n/a
31.979	0.09	63958	keystroke_c	c	n/a
32.0995	0.0595	64199	keystroke_o	o	n/a
32.2795	0.0745	64559	keystroke_m	m	n/a
32.4595	0.0745	64919	keystroke_i	i	n/a
32.609	0.12	65218	keystroke_n	n	n/a
32.699	0.09	65398	keystroke_g	g	n/a
32.804	0.105	65608	keystroke_Key.space	Key.space	n/a
32.954	0.105	65908	keystroke_c	c	n/a
33.074	0.12	66148	keystroke_o	o	n/a
33.2095	0.0745	66419	keystroke_u	u	n/a
33.374	0.12	66748	keystroke_p	p	n/a
33.524	0.105	67048	keystroke_o	o	n/a
33.704	0.135	67408	keystroke_n	n	n/a
33.824	0.105	67648	keystroke_s	s	n/a
33.944	0.09	67888	keystroke_Key.enter	Key.enter	n/a
34.0415	6.7755	68083	prompt	n/a	pamela candidate means uzbekistan\n
34.634	0.06	69268	keystroke_p	p	n/a
34.739	0.135	69478	keystroke_a	a	n/a
34.844	0.105	69688	keystroke_m	m	n/a
34.964	0.105	69928	keystroke_e	e	n/a
35.099	0.165	70198	keystroke_l	l	n/a
35.279	0.09	70558	keystroke_a	a	n/a
35.399	0.12	70798	keystroke_Key.space	Key.space	n/a
35.534	0.0895	71068	keystroke_c	c	n/a
35.744	0.0895	71488	keystroke_a	a	n/a
35.819	0.15	71638	keystroke_n	n	n/a
35.954	0.1195	71908	keystroke_d	d	n/a
36.1035	0.1655	72207	keystroke_i	i	n/a
36.5545	0.0895	73109	keystroke_d	d	n/a
36.944	0.075	73888	keystroke_a	a	n/a
37.139	0.0905	74278	keystroke_t	t	n/a
37.274	0.1355	74548	keystroke_e	e	n/a
37.379	0.105	74758	keystroke_Key.space	Key.space	n/a
37.694	0.1055	75388	keystroke_m	m	n/a
37.724	0.12	75448	keystroke_e	e	n/a
37.934	0.105	75868	keystroke_a	a	n/a
38.024	0.135	76048	keystroke_n	n	n/a
38.1745	0.0895	76349	keystroke_s	s	n/a
38.2335	0.0905	76467	keystroke_Key.space	Key.space	n/a
38.339	0.09	76678	keystroke_u	u	n/a
38.699	0.105	77398	keystroke_z	z	n/a
39.0895	0.1035	78179	keystroke_b	b	n/a
39.2095	0.0745	78419	keystroke_e	e	n/a
39.524	0.09	79048	keystroke_k	k	n/a
39.689	0.1055	79378	keystroke_i	i	n/a
40.124	0.075	80248	keystroke_s	s	n/a
40.319	0.06	80638	keystroke_t	t	n/a
40.514	0.0755	81028	keystroke_a	a	n/a
40.5595	0.1045	81119	keystroke_n	n	n/a
40.7235	0.0905	81447	keystroke_Key.enter	Key.enter	n/a
40.827	8.6135	81654	prompt	n/a	widescreen venue embedded atmospheric\n
41.4435	0.106	82887	keystroke_w	w	n/a
41.5335	0.1205	83067	keystroke_i	i	n/a
41.6835	0.12	83367	keystroke_d	d	n/a
41.8935	0.075	83787	keystroke_e	e	n/a
42.029	0.12	84058	keystroke_s	s	n/a
42.2095	0.0745	84419	keystroke_c	c	n/a
42.419	0.105	84838	keystroke_r	r	n/a
42.5845	0.1045	85169	keystroke_e	e	n/a
42.749	0.135	85498	keystroke_e	e	n/a
42.809	0.15	85618	keystroke_n	n	n/a
43.019	0.1345	86038	keystroke_Key.space	Key.space	n/a
43.5285	0.0905	87057	keystroke_v	v	n/a
43.7385	0.12	87477	keystroke_e	e	n/a
43.8595	0.119	87719	keystroke_n	n	n/a
44.099	0.12	88198	keystroke_u	u	n/a
44.2045	0.1345	88409	keystroke_e	e	n/a
44.324	0.105	88648	keystroke_Key.space	Key.space	n/a
44.489	0.105	88978	keystroke_e	e	n/a
44.5795	0.09	89159	keystroke_m	m	n/a
44.7895	0.164	89579	keystroke_b	b	n/a
44.939	0.1195	89878	keystroke_e	e	n/a
45.1945	0.074	90389	keystroke_d	d	n/a
45.3735	0.0755	90747	keystroke_d	d	n/a
45.5685	0.09	91137	keystroke_e	e	n/a
45.7495	0.0895	91499	keystroke_d	d	n/a
45.8685	0.1205	91737	keystroke_Key.space	Key.space	n/a
46.109	0.0895	92218	keystroke_a	a	n/a
46.379	0.1045	92758	keystroke_t	t	n/a
46.664	0.075	93328	keystroke_m	m	n/a
46.8135	0.105	93627	keystroke_o	o	n/a
46.9035	0.105	93807	keystroke_s	s	n/a
47.579	0.075	95158	keystroke_p	p	n/a
48.389	0.12	96778	keystroke_h	h	n/a
48.539	0.12	97078	keystroke_e	e	n/a
48.779	0.105	97558	keystroke_r	r	n/a
48.869	0.15	97738	keystroke_i	i	n/a
49.034	0.105	98068	keystroke_c	c	n/a
49.319	0.12	98638	keystroke_Key.enter	Key.enter	n/a
49.445	5.5455	98890	prompt	n/a	painting pound cleaning leslie\n
50.039	0.0895	100078	keystroke_p	p	n/a
50.144	0.09	100288	keystroke_a	a	n/a
50.249	0.09	100498	keystroke_i	i	n/a
50.414	0.12	100828	keystroke_n	n	n/a
50.489	0.0745	100978	keystroke_t	t	n/a
50.6095	0.09	101219	keystroke_i	i	n/a
50.7445	0.119	101489	keystroke_n	n	n/a
50.8345	0.104	101669	keystroke_g	g	n/a
50.9235	0.105	101847	keystroke_Key.space	Key.space	n/a
51.0435	0.1665	102087	keystroke_p	p	n/a
51.1795	0.1045	102359	keystroke_o	o	n/a
51.389	0.075	102778	keystroke_u	u	n/a
51.569	0.12	103138	keystroke_n	n	n/a
51.644	0.105	103288	keystroke_d	d	n/a
51.779	0.075	103558	keystroke_Key.space	Key.space	n/a
51.869	0.075	103738	keystroke_c	c	n/a
51.989	0.09	103978	keystroke_l	l	n/a
52.094	0.075	104188	keystroke_e	e	n/a
52.304	0.105	104608	keystroke_a	a	n/a
52.379	0.075	104758	keystroke_n	n	n/a
52.574	0.06	105148	keystroke_i	i	n/a
52.724	0.09	105448	keystroke_n	n	n/a
52.829	0.09	105658	keystroke_g	g	n/a
52.9485	0.075	105897	keystroke_Key.space	Key.space	n/a
53.3685	0.1055	106737	keystroke_l	l	n/a
53.444	0.0895	106888	keystroke_e	e	n/a
53.594	0.135	107188	keystroke_s	s	n/a
53.833	0.106	107666	keystroke_l	l	n/a
54.014	0.12	108028	keystroke_i	i	n/a
54.149	0.09	108298	keystroke_e	e	n/a
54.794	0.195	109588	keystroke_Key.enter	Key.enter	n/a
54.994	5.0365	109988	prompt	n/a	automobiles name love locked\n
55.7535	0.105	111507	keystroke_a	a	n/a
55.829	0.1055	111658	keystroke_u	u	n/a
55.9795	0.1195	111959	keystroke_t	t	n/a
56.114	0.09	112228	keystroke_o	o	n/a
56.339	0.1055	112678	keystroke_m	m	n/a
56.669	0.09	113338	keystroke_o	o	n/a
56.849	0.09	113698	keystroke_b	b	n/a
56.9545	0.089	113909	keystroke_i	i	n/a
57.1335	0.1205	114267	keystroke_l	l	n/a
57.2085	0.09	114417	keystroke_e	e	n/a
57.3745	0.119	114749	keystroke_s	s	n/a
57.434	0.1195	114868	keystroke_Key.space	Key.space	n/a
57.584	0.1045	115168	keystroke_n	n	n/a
57.7045	0.059	115409	keystroke_a	a	n/a
57.7935	0.105	115587	keystroke_m	m	n/a
57.869	0.1195	115738	keystroke_e	e	n/a
58.184	0.12	116368	keystroke_Key.space	Key.space	n/a
58.379	0.09	116758	keystroke_l	l	n/a
58.574	0.105	117148	keystroke_o	o	n/a
58.694	0.075	117388	keystroke_v	v	n/a
58.874	0.135	117748	keystroke_e	e	n/a
58.964	0.12	117928	keystroke_Key.space	Key.space	n/a
59.069	0.0605	118138	keystroke_l	l	n/a
59.219	0.12	118438	keystroke_o	o	n/a
59.324	0.105	118648	keystroke_c	c	n/a
59.4895	0.1195	118979	keystroke_k	k	n/a
59.638	0.076	119276	keystroke_e	e	n/a
59.834	0.105	119668	keystroke_d	d	n/a
59.9235	0.1045	119847	keystroke_Key.enter	Key.enter	n/a
60.0355	6.715	120071	prompt	n/a	supporting productivity lonely houston\n
60.704	0.105	121408	keystroke_s	s	n/a
60.779	0.0755	121558	keystroke_u	u	n/a
61.094	0.09	122188	keystroke_p	p	n/a
61.274	0.165	122548	keystroke_p	p	n/a
61.364	0.1495	122728	keystroke_o	o	n/a
61.424	0.105	122848	keystroke_r	r	n/a
61.5735	0.106	123147	keystroke_t	t	n/a
61.634	0.0905	123268	keystroke_i	i	n/a
61.8885	0.1055	123777	keystroke_n	n	n/a
61.964	0.105	123928	keystroke_g	g	n/a
62.084	0.09	124168	keystroke_Key.space	Key.space	n/a
62.189	0.1205	124378	keystroke_p	p	n/a
62.279	0.105	124558	keystroke_r	r	n/a
62.3995	0.1195	124799	keystroke_o	o	n/a
62.5345	0.1045	125069	keystroke_d	d	n/a
62.729	0.165	125458	keystroke_u	u	n/a
62.8645	0.0895	125729	keystroke_c	c	n/a
63.088	0.091	126176	keystroke_t	t	n/a
63.164	0.1645	126328	keystroke_i	i	n/a
63.3145	0.0895	126629	keystroke_v	v	n/a
63.4195	0.134	126839	keystroke_i	i	n/a
63.584	0.09	127168	keystroke_t	t	n/a
64.0495	0.0895	128099	keystroke_y	y	n/a
64.1685	0.12	128337	keystroke_Key.space	Key.space	n/a
64.469	0.09	128938	keystroke_l	l	n/a
64.649	0.0755	129298	keystroke_o	o	n/a
64.799	0.135	129598	keystroke_n	n	n/a
64.9485	0.0755	129897	keystroke_e	e	n/a
65.054	0.09	130108	keystroke_l	l	n/a
65.2485	0.1055	130497	keystroke_y	y	n/a
65.369	0.12	130738	keystroke_Key.space	Key.space	n/a
65.519	0.105	131038	keystroke_h	h	n/a
65.684	0.09	131368	keystroke_o	o	n/a
65.819	0.0905	131638	keystroke_u	u	n/a
66.014	0.075	132028	keystroke_s	s	n/a
66.209	0.105	132418	keystroke_t	t	n/a
66.2995	0.0745	132599	keystroke_o	o	n/a
66.434	0.1355	132868	keystroke_n	n	n/a
66.629	0.12	133258	keystroke_Key.enter	Key.enter	n/a
66.7545	4.826	133509	prompt	n/a	dual contracting herald facts\n
67.379	0.1355	134758	keystroke_d	d	n/a
67.454	0.12	134908	keystroke_u	u	n/a
67.634	0.105	135268	keystroke_a	a	n/a
67.679	0.105	135358	keystroke_l	l	n/a
67.934	0.1495	135868	keystroke_Key.space	Key.space	n/a
68.1285	0.0905	136257	keystroke_c	c	n/a
68.263	0.0755	136526	keystroke_o	o	n/a
68.4285	0.136	136857	keystroke_n	n	n/a
68.5045	0.0745	137009	keystroke_t	t	n/a
68.5945	0.044	137189	keystroke_r	r	n/a
68.789	0.0745	137578	keystroke_a	a	n/a
68.969	0.075	137938	keystroke_c	c	n/a
69.164	0.09	138328	keystroke_t	t	n/a
69.269	0.0895	138538	keystroke_i	i	n/a
69.404	0.1345	138808	keystroke_n	n	n/a
69.4795	0.104	138959	keystroke_g	g	n/a
69.6135	0.075	139227	keystroke_Key.space	Key.space	n/a
69.674	0.1355	139348	keystroke_h	h	n/a
69.7645	0.104	139529	keystroke_e	e	n/a
69.959	0.0745	139918	keystroke_r	r	n/a
70.154	0.105	140308	keystroke_a	a	n/a
70.229	0.09	140458	keystroke_l	l	n/a
70.334	0.12	140668	keystroke_d	d	n/a
70.468	0.135	140936	keystroke_Key.space	Key.space	n/a
70.739	0.044	141478	keystroke_f	f	n/a
70.873	0.076	141746	keystroke_a	a	n/a
71.0245	0.0895	142049	keystroke_c	c	n/a
71.249	0.074	142498	keystroke_t	t	n/a
71.3995	0.12	142799	keystroke_s	s	n/a
71.489	0.09	142978	keystroke_Key.enter	Key.enter	n/a
71.593	6.3025	143186	prompt	n/a	cheapest kitchen backup harry\n
72.254	0.105	144508	keystroke_c	c	n/a
72.3435	0.12	144687	keystroke_h	h	n/a
72.4645	0.105	144929	keystroke_e	e	n/a
72.718	0.091	145436	keystroke_a	a	n/a
72.809	0.104	145618	keystroke_p	p	n/a
72.9735	0.12	145947	keystroke_e	e	n/a
73.2135	0.045	146427	keystroke_s	s	n/a
73.379	0.09	146758	keystroke_t	t	n/a
73.4985	0.105	146997	keystroke_Key.space	Key.space	n/a
73.9785	0.075	147957	keystroke_k	k	n/a
74.1435	0.1055	148287	keystroke_i	i	n/a
74.2335	0.075	148467	keystroke_t	t	n/a
74.4585	0.0605	148917	keystroke_c	c	n/a
74.5485	0.135	149097	keystroke_h	h	n/a
74.8185	0.105	149637	keystroke_e	e	n/a
74.9685	0.211	149937	keystroke_n	n	n/a
75.2085	0.12	150417	keystroke_Key.space	Key.space	n/a
75.749	0.12	151498	keystroke_b	b	n/a
75.8835	0.0905	151767	keystroke_a	a	n/a
76.0495	0.1345	152099	keystroke_c	c	n/a
76.124	0.135	152248	keystroke_k	k	n/a
76.364	0.075	152728	keystroke_u	u	n/a
76.559	0.075	153118	keystroke_p	p	n/a
76.724	0.09	153448	keystroke_Key.space	Key.space	n/a
77.054	0.105	154108	keystroke_h	h	n/a
77.174	0.1045	154348	keystroke_a	a	n/a
77.3535	0.1055	154707	keystroke_r	r	n/a
77.5035	0.1055	155007	keystroke_r	r	n/a
77.5635	0.105	155127	keystroke_y	y	n/a
77.789	0.1045	155578	keystroke_Key.enter	Key.enter	n/a
77.901	6.9245	155802	prompt	n/a	calvin gone usage implementation\n
78.614	0.09	157228	keystroke_c	c	n/a
78.839	0.0905	157678	keystroke_a	a	n/a
78.914	0.09	157828	keystroke_l	l	n/a
79.109	0.09	158218	keystroke_v	v	n/a
79.2145	0.075	158429	keystroke_i	i	n/a
79.364	0.1205	158728	keystroke_n	n	n/a
79.5885	0.0905	159177	keystroke_Key.space	Key.space	n/a
79.754	0.1045	159508	keystroke_g	g	n/a
80.0835	0.0605	160167	keystroke_o	o	n/a
80.2495	0.1195	160499	keystroke_n	n	n/a
80.354	0.1355	160708	keystroke_e	e	n/a
80.534	0.105	161068	keystroke_Key.space	Key.space	n/a
80.894	0.135	161788	keystroke_u	u	n/a
81.014	0.105	162028	keystroke_s	s	n/a
81.2385	0.12	162477	keystroke_a	a	n/a
81.3135	0.105	162627	keystroke_g	g	n/a
81.4335	0.1055	162867	keystroke_e	e	n/a
81.734	0.1345	163468	keystroke_Key.space	Key.space	n/a
82.139	0.105	164278	keystroke_i	i	n/a
82.3335	0.09	164667	keystroke_m	m	n/a
82.4835	0.1055	164967	keystroke_p	p	n/a
82.679	0.0895	165358	keystroke_l	l	n/a
82.7545	0.089	165509	keystroke_e	e	n/a
83.159	0.12	166318	keystroke_m	m	n/a
83.5045	0.105	167009	keystroke_e	e	n/a
83.6385	0.1205	167277	keystroke_n	n	n/a
83.834	0.09	167668	keystroke_t	t	n/a
84.074	0.045	168148	keystroke_a	a	n/a
84.2695	0.0745	168539	keystroke_t	t	n/a
84.284	0.12	168568	keystroke_i	i	n/a
84.359	0.09	168718	keystroke_o	o	n/a
84.554	0.09	169108	keystroke_n	n	n/a
84.704	0.12	169408	keystroke_Key.enter	Key.enter	n/a
84.8305	6.746	169661	prompt	n/a	updating expect instrument inquire\n
85.499	0.09	170998	keystroke_u	u	n/a
85.649	0.12	171298	keystroke_p	p	n/a
85.739	0.075	171478	keystroke_d	d	n/a
85.904	0.06	171808	keystroke_a	a	n/a
86.0685	0.1205	172137	keystroke_t	t	n/a
86.1745	0.074	172349	keystroke_i	i	n/a
86.3085	0.121	172617	keystroke_n	n	n/a
86.3835	0.1055	172767	keystroke_g	g	n/a
86.5035	0.105	173007	keystroke_Key.space	Key.space	n/a
86.6995	0.1045	173399	keystroke_e	e	n/a
86.9385	0.0905	173877	keystroke_x	x	n/a
87.0135	0.1055	174027	keystroke_p	p	n/a
87.164	0.1195	174328	keystroke_e	e	n/a
87.4035	0.0605	174807	keystroke_c	c	n/a
87.6585	0.105	175317	keystroke_t	t	n/a
87.869	0.12	175738	keystroke_Key.space	Key.space	n/a
88.169	0.09	176338	keystroke_i	i	n/a
88.409	0.105	176818	keystroke_n	n	n/a
88.529	0.09	177058	keystroke_s	s	n/a
88.724	0.09	177448	keystroke_t	t	n/a
88.859	0.09	177718	keystroke_r	r	n/a
88.934	0.105	177868	keystroke_u	u	n/a
89.084	0.0595	178168	keystroke_c	c	n/a
89.4285	0.06	178857	keystroke_Key.backspace	Key.backspace	n/a
89.609	0.1195	179218	keystroke_m	m	n/a
89.744	0.0745	179488	keystroke_e	e	n/a
89.894	0.15	179788	keystroke_n	n	n/a
89.999	0.1055	179998	keystroke_t	t	n/a
90.2085	0.09	180417	keystroke_Key.space	Key.space	n/a
90.5535	0.075	181107	keystroke_i	i	n/a
90.719	0.1205	181438	keystroke_n	n	n/a
90.8545	0.09	181709	keystroke_q	q	n/a
90.974	0.21	181948	keystroke_u	u	n/a
91.079	0.165	182158	keystroke_i	i	n/a
91.229	0.12	182458	keystroke_r	r	n/a
91.364	0.135	182728	keystroke_e	e	n/a
91.484	0.09	182968	keystroke_Key.enter	Key.enter	n/a
91.581	11.0495	183162	prompt	n/a	shouldn't've fundraising somebody powerful\n
92.2035	0.136	184407	keystroke_s	s	n/a
92.2935	0.1055	184587	keystroke_h	h	n/a
92.444	0.12	184888	keystroke_o	o	n/a
92.5945	0.089	185189	keystroke_u	u	n/a
93.0435	0.09	186087	keystroke_n	n	n/a
93.1485	0.0905	186297	keystroke_t	t	n/a
93.704	0.09	187408	keystroke_Key.backspace	Key.backspace	n/a
93.869	0.09	187738	keystroke_Key.backspace	Key.backspace	n/a
94.2295	0.105	188459	keystroke_l	l	n/a
94.3645	0.0895	188729	keystroke_d	d	n/a
94.5145	0.1495	189029	keystroke_n	n	n/a
94.739	0.1205	189478	keystroke_t	t	n/a
95.894	0.045	191788	keystroke_Key.backspace	Key.backspace	n/a
96.839	0.09	193678	keystroke_'	'	n/a
96.9895	0.1495	193979	keystroke_t	t	n/a
97.289	0.075	194578	keystroke_'	'	n/a
97.424	0.1055	194848	keystroke_v	v	n/a
97.649	0.1345	195298	keystroke_e	e	n/a
97.7535	0.106	195507	keystroke_Key.space	Key.space	n/a
98.264	0.1205	196528	keystroke_f	f	n/a
98.3395	0.1045	196679	keystroke_u	u	n/a
98.5795	0.135	197159	keystroke_n	n	n/a
98.848	0.1205	197696	keystroke_d	d	n/a
99.1335	0.105	198267	keystroke_r	r	n/a
99.3445	0.089	198689	keystroke_a	a	n/a
99.4195	0.09	198839	keystroke_i	i	n/a
99.5395	0.09	199079	keystroke_s	s	n/a
99.6295	0.075	199259	keystroke_i	i	n/a
99.7795	0.09	199559	keystroke_n	n	n/a
99.8535	0.076	199707	keystroke_g	g	n/a
99.9585	0.091	199917	keystroke_Key.space	Key.space	n/a
100.109	0.09	200218	keystroke_s	s	n/a
100.244	0.075	200488	keystroke_o	o	n/a
100.439	0.06	200878	keystroke_m	m	n/a
100.514	0.075	201028	keystroke_e	e	n/a
100.649	0.0905	201298	keystroke_b	b	n/a
100.829	0.0905	201658	keystroke_o	o	n/a
100.9345	0.1045	201869	keystroke_d	d	n/a
101.024	0.12	202048	keystroke_y	y	n/a
101.158	0.075	202316	keystroke_Key.space	Key.space	n/a
101.309	0.105	202618	keystroke_p	p	n/a
101.549	0.1495	203098	keystroke_o	o	n/a
101.654	0.075	203308	keystroke_w	w	n/a
101.7435	0.09	203487	keystroke_e	e	n/a
101.8635	0.075	203727	keystroke_r	r	n/a
102.119	0.09	204238	keystroke_f	f	n/a
102.164	0.075	204328	keystroke_u	u	n/a
102.374	0.105	204748	keystroke_l	l	n/a
102.569	0.06	205138	keystroke_Key.enter	Key.enter	n/a
102.6345	10.5565	205269	prompt	n/a	stops methodology previous access\n
103.4685	0.091	206937	keystroke_s	s	n/a
103.6935	0.106	207387	keystroke_t	t	n/a
103.7535	0.15	207507	keystroke_o	o	n/a
103.8295	0.105	207659	keystroke_p	p	n/a
103.9785	0.106	207957	keystroke_s	s	n/a
104.0985	0.075	208197	keystroke_Key.space	Key.space	n/a
104.2935	0.0755	208587	keystroke_m	m	n/a
104.339	0.06	208678	keystroke_e	e	n/a
104.654	0.105	209308	keystroke_t	t	n/a
104.744	0.09	209488	keystroke_h	h	n/a
104.909	0.09	209818	keystroke_o	o	n/a
105.119	0.0605	210238	keystroke_l	l	n/a
105.3285	0.106	210657	keystroke_o	o	n/a
105.629	0.105	211258	keystroke_d	d	n/a
106.844	0.1055	213688	keystroke_=	=	n/a
107.0385	0.06	214077	keystroke_=	=	n/a
107.219	0.09	214438	keystroke_Key.backspace	Key.backspace	n/a
107.9085	0.1055	215817	keystroke_Key.backspace	Key.backspace	n/a
108.0885	0.0905	216177	keystroke_Key.backspace	Key.backspace	n/a
108.269	0.09	216538	keystroke_Key.backspace	Key.backspace	n/a
108.4485	0.1055	216897	keystroke_Key.backspace	Key.backspace	n/a
108.809	0.0745	217618	keystroke_Key.backspace	Key.backspace	n/a
109.5285	0.0905	219057	keystroke_o	o	n/a
109.6195	0.074	219239	keystroke_d	d	n/a
109.769	0.075	219538	keystroke_o	o	n/a
109.949	0.075	219898	keystroke_l	l	n/a
110.3395	0.0745	220679	keystroke_o	o	n/a
110.444	0.1355	220888	keystroke_g	g	n/a
110.594	0.105	221188	keystroke_y	y	n/a
110.759	0.09	221518	keystroke_Key.space	Key.space	n/a
111.014	0.105	222028	keystroke_p	p	n/a
111.1345	0.0895	222269	keystroke_r	r	n/a
111.254	0.09	222508	keystroke_e	e	n/a
111.4635	0.0605	222927	keystroke_v	v	n/a
111.5085	0.1345	223017	keystroke_i	i	n/a
111.584	0.0905	223168	keystroke_o	o	n/a
111.7335	0.106	223467	keystroke_u	u	n/a
111.854	0.105	223708	keystroke_s	s	n/a
111.944	0.12	223888	keystroke_Key.space	Key.space	n/a
112.049	0.0745	224098	keystroke_a	a	n/a
112.1985	0.106	224397	keystroke_c	c	n/a
112.3795	0.1345	224759	keystroke_c	c	n/a
112.634	0.105	225268	keystroke_e	e	n/a
112.814	0.09	225628	keystroke_s	s	n/a
112.964	0.12	225928	keystroke_s	s	n/a
113.069	0.12	226138	keystroke_Key.enter	Key.enter	n/a
113.1985	4.6575	226397	prompt	n/a	glossary formed beth started\n
113.8495	0.1045	227699	keystroke_g	g	n/a
113.9085	0.1055	227817	keystroke_l	l	n/a
114.0895	0.104	228179	keystroke_o	o	n/a
114.179	0.1045	228358	keystroke_s	s	n/a
114.3435	0.1355	228687	keystroke_s	s	n/a
114.5835	0.076	229167	keystroke_a	a	n/a
114.7185	0.12	229437	keystroke_r	r	n/a
114.7635	0.135	229527	keystroke_y	y	n/a
114.884	0.135	229768	keystroke_Key.space	Key.space	n/a
115.0345	0.1345	230069	keystroke_f	f	n/a
115.124	0.075	230248	keystroke_o	o	n/a
115.2145	0.1045	230429	keystroke_r	r	n/a
115.3035	0.135	230607	keystroke_m	m	n/a
115.4235	0.106	230847	keystroke_e	e	n/a
115.5895	0.1345	231179	keystroke_d	d	n/a
115.694	0.12	231388	keystroke_Key.space	Key.space	n/a
116.0395	0.1495	232079	keystroke_b	b	n/a
116.0845	0.0895	232169	keystroke_e	e	n/a
116.2495	0.1195	232499	keystroke_t	t	n/a
116.324	0.1645	232648	keystroke_h	h	n/a
116.474	0.1345	232948	keystroke_Key.space	Key.space	n/a
116.564	0.0895	233128	keystroke_s	s	n/a
116.7435	0.09	233487	keystroke_t	t	n/a
116.9685	0.075	233937	keystroke_a	a	n/a
117.1495	0.0745	234299	keystroke_r	r	n/a
117.3135	0.09	234627	keystroke_t	t	n/a
117.4635	0.1355	234927	keystroke_e	e	n/a
117.6435	0.15	235287	keystroke_d	d	n/a
117.7785	0.075	235557	keystroke_Key.enter	Key.enter	n/a
117.86	7.03	235720	prompt	n/a	cardiovascular hands fired passage\n
118.5895	0.104	237179	keystroke_c	c	n/a
118.814	0.03	237628	keystroke_a	a	n/a
118.964	0.075	237928	keystroke_r	r	n/a
119.114	0.135	238228	keystroke_d	d	n/a
119.1885	0.195	238377	keystroke_i	i	n/a
119.2635	0.151	238527	keystroke_o	o	n/a
119.4295	0.09	238859	keystroke_v	v	n/a
119.654	0.0595	239308	keystroke_a	a	n/a
119.744	0.0745	239488	keystroke_s	s	n/a
119.984	0.09	239968	keystroke_c	c	n/a
120.059	0.0905	240118	keystroke_u	u	n/a
120.224	0.135	240448	keystroke_l	l	n/a
120.329	0.06	240658	keystroke_a	a	n/a
120.599	0.09	241198	keystroke_r	r	n/a
120.794	0.06	241588	keystroke_Key.space	Key.space	n/a
121.139	0.0905	242278	keystroke_h	h	n/a
121.274	0.06	242548	keystroke_a	a	n/a
121.3495	0.1045	242699	keystroke_n	n	n/a
121.844	0.105	243688	keystroke_d	d	n/a
122.0695	0.0905	244139	keystroke_s	s	n/a
122.264	0.12	244528	keystroke_Key.space	Key.space	n/a
122.879	0.105	245758	keystroke_f	f	n/a
122.954	0.1205	245908	keystroke_i	i	n/a
123.0745	0.089	246149	keystroke_r	r	n/a
123.254	0.0895	246508	keystroke_e	e	n/a
123.4335	0.0755	246867	keystroke_d	d	n/a
123.4785	0.105	246957	keystroke_Key.space	Key.space	n/a
123.764	0.1345	247528	keystroke_p	p	n/a
123.884	0.0905	247768	keystroke_a	a	n/a
124.034	0.105	248068	keystroke_s	s	n/a
124.244	0.105	248488	keystroke_s	s	n/a
124.439	0.09	248878	keystroke_a	a	n/a
124.544	0.135	249088	keystroke_g	g	n/a
124.664	0.12	249328	keystroke_e	e	n/a
124.814	0.075	249628	keystroke_Key.enter	Key.enter	n/a
124.893	5.563	249786	prompt	n/a	city exec counts coated\n
125.7135	0.1355	251427	keystroke_c	c	n/a
125.8795	0.104	251759	keystroke_i	i	n/a
126.029	0.105	252058	keystroke_t	t	n/a
126.1345	0.1195	252269	keystroke_y	y	n/a
126.254	0.12	252508	keystroke_Key.space	Key.space	n/a
126.359	0.09	252718	keystroke_e	e	n/a
126.629	0.0145	253258	keystroke_c	c	n/a
127.1535	0.0905	254307	keystroke_Key.backspace	Key.backspace	n/a
127.229	0.12	254458	keystroke_x	x	n/a
127.6035	0.0905	255207	keystroke_e	e	n/a
127.8135	0.09	255627	keystroke_c	c	n/a
127.9045	0.134	255809	keystroke_Key.space	Key.space	n/a
128.3685	0.105	256737	keystroke_c	c	n/a
128.4435	0.09	256887	keystroke_o	o	n/a
128.564	0.1045	257128	keystroke_u	u	n/a
128.7745	0.1345	257549	keystroke_n	n	n/a
128.8335	0.091	257667	keystroke_t	t	n/a
129.074	0.075	258148	keystroke_s	s	n/a
129.164	0.105	258328	keystroke_Key.space	Key.space	n/a
129.4635	0.1205	258927	keystroke_c	c	n/a
129.554	0.135	259108	keystroke_o	o	n/a
129.719	0.075	259438	keystroke_a	a	n/a
129.914	0.105	259828	keystroke_t	t	n/a
130.079	0.135	260158	keystroke_e	e	n/a
130.2735	0.0905	260547	keystroke_d	d	n/a
130.3335	0.1205	260667	keystroke_Key.enter	Key.enter	n/a
130.46	6.1155	260920	prompt	n/a	powers ready europe drive\n
131.174	0.195	262348	keystroke_p	p	n/a
131.339	0.1345	262678	keystroke_o	o	n/a
131.459	0.09	262918	keystroke_w	w	n/a
131.609	0.1045	263218	keystroke_e	e	n/a
131.7585	0.0755	263517	keystroke_r	r	n/a
132.044	0.09	264088	keystroke_s	s	n/a
132.118	0.135	264236	keystroke_Key.space	Key.space	n/a
132.629	0.09	265258	keystroke_r	r	n/a
132.764	0.12	265528	keystroke_e	e	n/a
132.974	0.1195	265948	keystroke_a	a	n/a
133.109	0.1355	266218	keystroke_d	d	n/a
133.1835	0.135	266367	keystroke_y	y	n/a
133.3035	0.135	266607	keystroke_Key.space	Key.space	n/a
133.829	0.1055	267658	keystroke_e	e	n/a
134.3545	0.0745	268709	keystroke_u	u	n/a
134.579	0.12	269158	keystroke_r	r	n/a
134.714	0.21	269428	keystroke_o	o	n/a
134.8495	0.1195	269699	keystroke_p	p	n/a
134.984	0.105	269968	keystroke_e	e	n/a
135.104	0.15	270208	keystroke_Key.space	Key.space	n/a
135.239	0.09	270478	keystroke_d	d	n/a
135.674	0.0895	271348	keystroke_r	r	n/a
135.6895	0.06	271379	keystroke_i	i	n/a
136.1985	0.06	272397	keystroke_v	v	n/a
136.3635	0.12	272727	keystroke_e	e	n/a
136.4985	0.0755	272997	keystroke_Key.enter	Key.enter	n/a
136.581	5.95	273162	prompt	n/a	terminals nova carefully midnight\n
137.2335	0.105	274467	keystroke_t	t	n/a
137.3995	0.104	274799	keystroke_e	e	n/a
137.519	0.1205	275038	keystroke_r	r	n/a
137.5635	0.09	275127	keystroke_m	m	n/a
137.729	0.0755	275458	keystroke_i	i	n/a
137.8785	0.09	275757	keystroke_n	n	n/a
137.9385	0.091	275877	keystroke_a	a	n/a
138.089	0.09	276178	keystroke_l	l	n/a
138.194	0.105	276388	keystroke_s	s	n/a
138.299	0.0905	276598	keystroke_Key.space	Key.space	n/a
138.359	0.0895	276718	keystroke_n	n	n/a
138.5695	0.0895	277139	keystroke_o	o	n/a
138.629	0.0595	277258	keystroke_v	v	n/a
138.824	0.0895	277648	keystroke_a	a	n/a
138.9285	0.12	277857	keystroke_Key.space	Key.space	n/a
139.2435	0.0755	278487	keystroke_c	c	n/a
139.4235	0.061	278847	keystroke_a	a	n/a
139.6195	0.074	279239	keystroke_r	r	n/a
139.724	0.105	279448	keystroke_e	e	n/a
139.889	0.105	279778	keystroke_f	f	n/a
139.949	0.06	279898	keystroke_u	u	n/a
140.1295	0.0595	280259	keystroke_l	l	n/a
140.264	0.075	280528	keystroke_l	l	n/a
140.324	0.075	280648	keystroke_y	y	n/a
140.504	0.105	281008	keystroke_Key.space	Key.space	n/a
140.774	0.0605	281548	keystroke_m	m	n/a
140.9545	0.1045	281909	keystroke_i	i	n/a
141.074	0.105	282148	keystroke_d	d	n/a
141.224	0.12	282448	keystroke_n	n	n/a
141.659	0.1055	283318	keystroke_i	i	n/a
141.765	0.134	283530	keystroke_g	g	n/a
141.914	0.1505	283828	keystroke_h	h	n/a
142.0485	0.1355	284097	keystroke_t	t	n/a
142.4685	0.06	284937	keystroke_Key.enter	Key.enter	n/a
142.548	9.343	285096	prompt	n/a	expense struct quantitative cabinets\n
143.2335	0.0905	286467	keystroke_e	e	n/a
143.5635	0.06	287127	keystroke_p	p	n/a
143.894	0.0745	287788	keystroke_Key.backspace	Key.backspace	n/a
143.984	0.09	287968	keystroke_x	x	n/a
144.149	0.105	288298	keystroke_p	p	n/a
144.2995	0.1045	288599	keystroke_e	e	n/a
144.509	0.1355	289018	keystroke_n	n	n/a
144.599	0.0895	289198	keystroke_s	s	n/a
144.7785	0.106	289557	keystroke_e	e	n/a
145.094	0.075	290188	keystroke_Key.space	Key.space	n/a
146.0085	0.09	292017	keystroke_s	s	n/a
146.234	0.06	292468	keystroke_t	t	n/a
146.354	0.1045	292708	keystroke_r	r	n/a
146.4735	0.1055	292947	keystroke_u	u	n/a
146.5945	0.0595	293189	keystroke_c	c	n/a
146.819	0.105	293638	keystroke_t	t	n/a
146.9385	0.1505	293877	keystroke_Key.space	Key.space	n/a
147.449	0.105	294898	keystroke_q	q	n/a
147.5235	0.09	295047	keystroke_u	u	n/a
147.704	0.06	295408	keystroke_a	a	n/a
147.794	0.105	295588	keystroke_n	n	n/a
147.944	0.1045	295888	keystroke_t	t	n/a
148.1545	0.0745	296309	keystroke_i	i	n/a
148.6335	0.075	297267	keystroke_t	t	n/a
148.8735	0.0755	297747	keystroke_a	a	n/a
149.114	0.0895	298228	keystroke_t	t	n/a
149.1885	0.121	298377	keystroke_i	i	n/a
149.354	0.075	298708	keystroke_v	v	n/a
149.5485	0.12	299097	keystroke_e	e	n/a
149.6385	0.12	299277	keystroke_Key.space	Key.space	n/a
150.104	0.075	300208	keystroke_c	c	n/a
150.299	0.075	300598	keystroke_a	a	n/a
150.3595	0.0745	300719	keystroke_b	b	n/a
150.8395	0.074	301679	keystroke_i	i	n/a
151.0195	0.119	302039	keystroke_n	n	n/a
151.1085	0.105	302217	keystroke_e	e	n/a
151.2885	0.105	302577	keystroke_t	t	n/a
151.5585	0.106	303117	keystroke_s	s	n/a
151.7985	0.09	303597	keystroke_Key.enter	Key.enter	n/a
151.896	6.9415	303792	prompt	n/a	so're angels electric suites\n
152.8045	0.12	305609	keystroke_s	s	n/a
152.9245	0.1045	305849	keystroke_o	o	n/a
153.794	0.105	307588	keystroke_'	'	n/a
153.854	0.0905	307708	keystroke_r	r	n/a
154.0195	0.1345	308039	keystroke_e	e	n/a
154.139	0.105	308278	keystroke_Key.space	Key.space	n/a
154.469	0.09	308938	keystroke_s	s	n/a
154.829	0.015	309658	keystroke_=	=	n/a
155.114	0.075	310228	keystroke_Key.backspace	Key.backspace	n/a
155.279	0.06	310558	keystroke_Key.backspace	Key.backspace	n/a
155.414	0.09	310828	keystroke_a	a	n/a
155.519	0.12	311038	keystroke_n	n	n/a
155.654	0.0895	311308	keystroke_g	g	n/a
155.8485	0.1055	311697	keystroke_e	e	n/a
155.8935	0.0905	311787	keystroke_l	l	n/a
156.074	0.0895	312148	keystroke_s	s	n/a
156.1185	0.135	312237	keystroke_Key.space	Key.space	n/a
156.3435	0.106	312687	keystroke_e	e	n/a
156.4635	0.12	312927	keystroke_l	l	n/a
156.5685	0.09	313137	keystroke_e	e	n/a
156.7785	0.075	313557	keystroke_c	c	n/a
156.989	0.105	313978	keystroke_t	t	n/a
157.124	0.09	314248	keystroke_r	r	n/a
157.229	0.12	314458	keystroke_i	i	n/a
157.364	0.09	314728	keystroke_c	c	n/a
157.484	0.12	314968	keystroke_Key.space	Key.space	n/a
157.829	0.12	315658	keystroke_s	s	n/a
157.965	0.1195	315930	keystroke_u	u	n/a
158.099	0.1345	316198	keystroke_i	i	n/a
158.204	0.075	316408	keystroke_t	t	n/a
158.3535	0.136	316707	keystroke_e	e	n/a
158.6085	0.0755	317217	keystroke_s	s	n/a
158.774	0.06	317548	keystroke_Key.enter	Key.enter	n/a
158.841	4.7045	317682	prompt	n/a	suite free least edited\n
159.464	0.105	318928	keystroke_s	s	n/a
159.569	0.21	319138	keystroke_u	u	n/a
159.6735	0.136	319347	keystroke_i	i	n/a
159.7935	0.0755	319587	keystroke_t	t	n/a
159.9585	0.1205	319917	keystroke_e	e	n/a
160.1235	0.105	320247	keystroke_Key.space	Key.space	n/a
160.379	0.0905	320758	keystroke_f	f	n/a
160.6935	0.0755	321387	keystroke_e	e	n/a
161.144	0.09	322288	keystroke_Key.backspace	Key.backspace	n/a
161.219	0.0905	322438	keystroke_r	r	n/a
161.354	0.105	322708	keystroke_e	e	n/a
161.519	0.1495	323038	keystroke_e	e	n/a
161.594	0.1195	323188	keystroke_Key.space	Key.space	n/a
161.6985	0.136	323397	keystroke_l	l	n/a
161.8035	0.091	323607	keystroke_e	e	n/a
161.969	0.105	323938	keystroke_a	a	n/a
162.044	0.075	324088	keystroke_s	s	n/a
162.254	0.105	324508	keystroke_t	t	n/a
162.3435	0.1345	324687	keystroke_Key.space	Key.space	n/a
162.4645	0.1045	324929	keystroke_e	e	n/a
162.763	0.106	325526	keystroke_d	d	n/a
162.824	0.1645	325648	keystroke_i	i	n/a
163.0035	0.09	326007	keystroke_t	t	n/a
163.1535	0.1505	326307	keystroke_e	e	n/a
163.319	0.12	326638	keystroke_d	d	n/a
163.454	0.09	326908	keystroke_Key.enter	Key.enter	n/a
163.55	6.461	327100	prompt	n/a	marion copies swedish aquarium\n
164.219	0.12	328438	keystroke_m	m	n/a
164.414	0.12	328828	keystroke_a	a	n/a
164.624	0.12	329248	keystroke_r	r	n/a
164.699	0.18	329398	keystroke_i	i	n/a
164.789	0.12	329578	keystroke_o	o	n/a
164.999	0.135	329998	keystroke_n	n	n/a
165.119	0.12	330238	keystroke_Key.space	Key.space	n/a
165.224	0.1045	330448	keystroke_c	c	n/a
165.3435	0.1655	330687	keystroke_o	o	n/a
165.4945	0.12	330989	keystroke_p	p	n/a
165.8385	0.1955	331677	keystroke_i	i	n/a
166.004	0.0895	332008	keystroke_e	e	n/a
166.1685	0.166	332337	keystroke_s	s	n/a
166.3035	0.1355	332607	keystroke_Key.space	Key.space	n/a
166.709	0.105	333418	keystroke_s	s	n/a
166.919	0.105	333838	keystroke_w	w	n/a
167.114	0.12	334228	keystroke_e	e	n/a
167.504	0.105	335008	keystroke_d	d	n/a
167.624	0.105	335248	keystroke_i	i	n/a
167.7595	0.1345	335519	keystroke_s	s	n/a
167.864	0.1195	335728	keystroke_h	h	n/a
168.0435	0.12	336087	keystroke_Key.space	Key.space	n/a
168.448	0.076	336896	keystroke_a	a	n/a
168.644	0.1055	337288	keystroke_q	q	n/a
168.794	0.12	337588	keystroke_u	u	n/a
168.929	0.0445	337858	keystroke_a	a	n/a
169.0945	0.104	338189	keystroke_r	r	n/a
169.169	0.12	338338	keystroke_i	i	n/a
169.394	0.0755	338788	keystroke_u	u	n/a
169.6035	0.1055	339207	keystroke_m	m	n/a
169.904	0.105	339808	keystroke_Key.enter	Key.enter	n/a
170.0155	5.5305	340031	prompt	n/a	book amend freeware analyst\n
170.7295	0.015	341459	keystroke_b	b	n/a
171.0145	0.0595	342029	keystroke_o	o	n/a
171.1635	0.1205	342327	keystroke_o	o	n/a
171.2535	0.1505	342507	keystroke_k	k	n/a
171.4185	0.09	342837	keystroke_Key.space	Key.space	n/a
171.5385	0.09	343077	keystroke_a	a	n/a
171.6135	0.12	343227	keystroke_m	m	n/a
171.7495	0.134	343499	keystroke_e	e	n/a
171.8695	0.1945	343739	keystroke_n	n	n/a
171.989	0.1205	343978	keystroke_d	d	n/a
172.154	0.1195	344308	keystroke_Key.space	Key.space	n/a
172.4685	0.1355	344937	keystroke_f	f	n/a
172.9485	0.136	345897	keystroke_r	r	n/a
173.144	0.09	346288	keystroke_e	e	n/a
173.2935	0.1505	346587	keystroke_e	e	n/a
173.474	0.12	346948	keystroke_w	w	n/a
173.714	0.0745	347428	keystroke_a	a	n/a
173.909	0.075	347818	keystroke_r	r	n/a
174.059	0.135	348118	keystroke_e	e	n/a
174.224	0.12	348448	keystroke_Key.space	Key.space	n/a
174.4495	0.1045	348899	keystroke_a	a	n/a
174.524	0.12	349048	keystroke_n	n	n/a
174.644	0.105	349288	keystroke_a	a	n/a
174.764	0.075	349528	keystroke_l	l	n/a
174.974	0.135	349948	keystroke_y	y	n/a
175.064	0.075	350128	keystroke_s	s	n/a
175.2745	0.075	350549	keystroke_t	t	n/a
175.409	0.135	350818	keystroke_Key.enter	Key.enter	n/a
175.5535	6.562	351107	prompt	n/a	besides telling competitors clients\n
176.354	0.105	352708	keystroke_b	b	n/a
176.399	0.12	352798	keystroke_e	e	n/a
176.594	0.1345	353188	keystroke_s	s	n/a
176.6685	0.21	353337	keystroke_i	i	n/a
176.804	0.09	353608	keystroke_d	d	n/a
176.9835	0.0905	353967	keystroke_e	e	n/a
177.209	0.0445	354418	keystroke_s	s	n/a
177.2235	0.0755	354447	keystroke_Key.space	Key.space	n/a
177.449	0.075	354898	keystroke_t	t	n/a
177.6135	0.135	355227	keystroke_e	e	n/a
177.7035	0.1055	355407	keystroke_l	l	n/a
177.869	0.0595	355738	keystroke_l	l	n/a
177.989	0.0895	355978	keystroke_i	i	n/a
178.1835	0.12	356367	keystroke_n	n	n/a
178.2585	0.1055	356517	keystroke_g	g	n/a
178.379	0.105	356758	keystroke_Key.space	Key.space	n/a
178.484	0.12	356968	keystroke_c	c	n/a
178.5885	0.0755	357177	keystroke_o	o	n/a
178.7235	0.12	357447	keystroke_m	m	n/a
178.9035	0.105	357807	keystroke_p	p	n/a
178.9785	0.105	357957	keystroke_e	e	n/a
179.174	0.12	358348	keystroke_t	t	n/a
179.264	0.135	358528	keystroke_i	i	n/a
179.4145	0.1045	358829	keystroke_t	t	n/a
179.579	0.105	359158	keystroke_o	o	n/a
179.729	0.105	359458	keystroke_r	r	n/a
179.984	0.105	359968	keystroke_s	s	n/a
180.104	0.12	360208	keystroke_Key.space	Key.space	n/a
180.5395	0.0895	361079	keystroke_c	c	n/a
180.704	0.09	361408	keystroke_l	l	n/a
180.884	0.09	361768	keystroke_i	i	n/a
180.974	0.12	361948	keystroke_e	e	n/a
181.0645	0.1195	362129	keystroke_n	n	n/a
181.214	0.075	362428	keystroke_t	t	n/a
181.709	0.06	363418	keystroke_s	s	n/a
182.0385	0.075	364077	keystroke_Key.enter	Key.enter	n/a
182.1205	5.14	364241	prompt	n/a	chevy wonderful penalty edge\n
182.954	0.104	365908	keystroke_c	c	n/a
183.044	0.105	366088	keystroke_h	h	n/a
183.194	0.105	366388	keystroke_e	e	n/a
183.284	0.09	366568	keystroke_v	v	n/a
183.4945	0.1495	366989	keystroke_y	y	n/a
183.6585	0.09	367317	keystroke_Key.space	Key.space	n/a
183.734	0.1345	367468	keystroke_w	w	n/a
183.8535	0.075	367707	keystroke_o	o	n/a
184.004	0.12	368008	keystroke_n	n	n/a
184.064	0.075	368128	keystroke_d	d	n/a
184.244	0.075	368488	keystroke_e	e	n/a
184.379	0.12	368758	keystroke_r	r	n/a
184.559	0.135	369118	keystroke_f	f	n/a
184.619	0.09	369238	keystroke_u	u	n/a
184.784	0.12	369568	keystroke_l	l	n/a
184.964	0.105	369928	keystroke_Key.space	Key.space	n/a
185.264	0.12	370528	keystroke_p	p	n/a
185.354	0.105	370708	keystroke_e	e	n/a
185.504	0.135	371008	keystroke_n	n	n/a
185.669	0.0895	371338	keystroke_a	a	n/a
185.7885	0.0905	371577	keystroke_l	l	n/a
186.089	0.0745	372178	keystroke_t	t	n/a
186.2545	0.119	372509	keystroke_y	y	n/a
186.359	0.105	372718	keystroke_Key.space	Key.space	n/a
186.5235	0.1345	373047	keystroke_e	e	n/a
186.719	0.135	373438	keystroke_d	d	n/a
186.869	0.1505	373738	keystroke_g	g	n/a
186.989	0.12	373978	keystroke_e	e	n/a
187.154	0.104	374308	keystroke_Key.enter	Key.enter	n/a
187.2655	8.275	374531	prompt	n/a	gratuit eval atmosphere eric\n
188.054	0.135	376108	keystroke_g	g	n/a
188.2645	0.1045	376529	keystroke_r	r	n/a
188.774	0.135	377548	keystroke_a	a	n/a
189.4035	0.136	378807	keystroke_t	t	n/a
189.524	0.0895	379048	keystroke_i	i	n/a
190.1385	0.18	380277	keystroke_Key.backspace	Key.backspace	n/a
190.574	0.1795	381148	keystroke_u	u	n/a
190.6785	0.1355	381357	keystroke_i	i	n/a
190.829	0.12	381658	keystroke_t	t	n/a
190.9785	0.1505	381957	keystroke_Key.space	Key.space	n/a
191.3835	0.1055	382767	keystroke_e	e	n/a
191.4895	0.105	382979	keystroke_v	v	n/a
191.669	0.1345	383338	keystroke_a	a	n/a
191.7285	0.105	383457	keystroke_l	l	n/a
191.8935	0.105	383787	keystroke_Key.space	Key.space	n/a
192.149	0.075	384298	keystroke_a	a	n/a
192.539	0.105	385078	keystroke_t	t	n/a
193.049	0.09	386098	keystroke_m	m	n/a
193.244	0.0745	386488	keystroke_o	o	n/a
193.3785	0.12	386757	keystroke_s	s	n/a
193.5135	0.09	387027	keystroke_p	p	n/a
193.6935	0.105	387387	keystroke_h	h	n/a
193.7835	0.1055	387567	keystroke_e	e	n/a
193.9195	0.1345	387839	keystroke_r	r	n/a
194.054	0.12	388108	keystroke_e	e	n/a
194.159	0.105	388318	keystroke_Key.space	Key.space	n/a
194.294	0.1195	388588	keystroke_e	e	n/a
194.4435	0.0755	388887	keystroke_i	i	n/a
194.488	0.1055	388976	keystroke_r	r	n/a
194.8185	0.0605	389637	keystroke_Key.backspace	Key.backspace	n/a
194.9685	0.06	389937	keystroke_Key.backspace	Key.backspace	n/a
195.044	0.105	390088	keystroke_r	r	n/a
195.118	0.1215	390236	keystroke_i	i	n/a
195.283	0.1365	390566	keystroke_c	c	n/a
195.4195	0.119	390839	keystroke_Key.enter	Key.enter	n/a
195.5435	4.707	391087	prompt	n/a	models dozens terms rocky\n
196.1385	0.1055	392277	keystroke_m	m	n/a
196.3485	0.09	392697	keystroke_o	o	n/a
196.4085	0.105	392817	keystroke_d	d	n/a
196.589	0.1345	393178	keystroke_e	e	n/a
196.6785	0.135	393357	keystroke_l	l	n/a
196.829	0.1045	393658	keystroke_s	s	n/a
196.9485	0.12	393897	keystroke_Key.space	Key.space	n/a
197.1585	0.1055	394317	keystroke_d	d	n/a
197.249	0.0895	394498	keystroke_o	o	n/a
197.5785	0.135	395157	keystroke_z	z	n/a
197.8185	0.1355	395637	keystroke_e	e	n/a
197.8785	0.135	395757	keystroke_n	n	n/a
198.0285	0.0905	396057	keystroke_s	s	n/a
198.119	0.1195	396238	keystroke_Key.space	Key.space	n/a
198.2695	0.089	396539	keystroke_t	t	n/a
198.4495	0.1345	396899	keystroke_e	e	n/a
198.5695	0.089	397139	keystroke_r	r	n/a
198.6295	0.134	397259	keystroke_m	m	n/a
198.7945	0.104	397589	keystroke_s	s	n/a
198.8995	0.104	397799	keystroke_Key.space	Key.space	n/a
199.4545	0.0895	398909	keystroke_r	r	n/a
199.619	0.105	399238	keystroke_o	o	n/a
199.738	0.0765	399476	keystroke_c	c	n/a
199.829	0.165	399658	keystroke_k	k	n/a
200.0085	0.1055	400017	keystroke_y	y	n/a
200.129	0.12	400258	keystroke_Key.enter	Key.enter	n/a
200.255	4.6905	400510	prompt	n/a	ivory larry elegant britain\n
200.8335	0.15	401667	keystroke_i	i	n/a
200.9685	0.09	401937	keystroke_v	v	n/a
201.269	0.09	402538	keystroke_o	o	n/a
201.374	0.135	402748	keystroke_r	r	n/a
201.524	0.1195	403048	keystroke_y	y	n/a
201.659	0.1195	403318	keystroke_Key.space	Key.space	n/a
201.884	0.0745	403768	keystroke_l	l	n/a
201.9285	0.0455	403857	keystroke_a	a	n/a
202.0945	0.0745	404189	keystroke_r	r	n/a
202.244	0.105	404488	keystroke_r	r	n/a
202.319	0.104	404638	keystroke_y	y	n/a
202.409	0.104	404818	keystroke_Key.space	Key.space	n/a
202.4835	0.0895	404967	keystroke_e	e	n/a
202.618	0.121	405236	keystroke_l	l	n/a
202.679	0.0895	405358	keystroke_e	e	n/a
202.889	0.09	405778	keystroke_g	g	n/a
203.114	0.105	406228	keystroke_a	a	n/a
203.174	0.135	406348	keystroke_n	n	n/a
203.339	0.105	406678	keystroke_t	t	n/a
203.4585	0.0895	406917	keystroke_Key.space	Key.space	n/a
203.594	0.09	407188	keystroke_b	b	n/a
203.7745	0.1195	407549	keystroke_r	r	n/a
203.879	0.09	407758	keystroke_i	i	n/a
203.999	0.105	407998	keystroke_t	t	n/a
204.254	0.09	408508	keystroke_a	a	n/a
204.329	0.12	408658	keystroke_i	i	n/a
204.5995	0.119	409199	keystroke_n	n	n/a
204.854	0.09	409708	keystroke_Key.enter	Key.enter	n/a
204.9505	6.4005	409901	prompt	n/a	fast notices mirrors drilling\n
205.7085	0.0605	411417	keystroke_f	f	n/a
206.2495	0.134	412499	keystroke_a	a	n/a
206.3845	0.0895	412769	keystroke_s	s	n/a
206.4585	0.1055	412917	keystroke_t	t	n/a
206.609	0.0895	413218	keystroke_Key.space	Key.space	n/a
206.7735	0.075	413547	keystroke_n	n	n/a
206.939	0.1195	413878	keystroke_o	o	n/a
207.0435	0.09	414087	keystroke_t	t	n/a
207.2535	0.165	414507	keystroke_i	i	n/a
207.4035	0.105	414807	keystroke_c	c	n/a
207.6435	0.0905	415287	keystroke_e	e	n/a
207.8385	0.121	415677	keystroke_s	s	n/a
207.9135	0.1355	415827	keystroke_Key.space	Key.space	n/a
208.259	0.09	416518	keystroke_m	m	n/a
208.424	0.1045	416848	keystroke_i	i	n/a
208.649	0.09	417298	keystroke_r	r	n/a
208.8295	0.0895	417659	keystroke_r	r	n/a
208.859	0.225	417718	keystroke_o	o	n/a
209.234	0.09	418468	keystroke_r	r	n/a
209.459	0.1045	418918	keystroke_s	s	n/a
209.5645	0.1345	419129	keystroke_Key.space	Key.space	n/a
210.088	0.091	420176	keystroke_d	d	n/a
210.2835	0.12	420567	keystroke_r	r	n/a
210.3435	0.105	420687	keystroke_i	i	n/a
210.539	0.0745	421078	keystroke_l	l	n/a
210.6895	0.0895	421379	keystroke_l	l	n/a
210.839	0.105	421678	keystroke_i	i	n/a
211.003	0.166	422006	keystroke_n	n	n/a
211.109	0.1195	422218	keystroke_g	g	n/a
211.274	0.0745	422548	keystroke_Key.enter	Key.enter	n/a
211.3555	4.315	422711	prompt	n/a	assumes diff within apple\n
212.0235	0.1055	424047	keystroke_a	a	n/a
212.144	0.09	424288	keystroke_s	s	n/a
212.294	0.12	424588	keystroke_s	s	n/a
212.384	0.09	424768	keystroke_u	u	n/a
212.5785	0.15	425157	keystroke_m	m	n/a
212.6535	0.09	425307	keystroke_e	e	n/a
212.819	0.1195	425638	keystroke_s	s	n/a
212.9235	0.135	425847	keystroke_Key.space	Key.space	n/a
213.1945	0.119	426389	keystroke_d	d	n/a
213.2685	0.1955	426537	keystroke_i	i	n/a
213.434	0.105	426868	keystroke_f	f	n/a
213.6585	0.0895	427317	keystroke_f	f	n/a
213.7635	0.12	427527	keystroke_Key.space	Key.space	n/a
214.034	0.091	428068	keystroke_w	w	n/a
214.094	0.1045	428188	keystroke_i	i	n/a
214.229	0.1195	428458	keystroke_t	t	n/a
214.2735	0.135	428547	keystroke_h	h	n/a
214.4235	0.075	428847	keystroke_i	i	n/a
214.5745	0.119	429149	keystroke_n	n	n/a
214.7085	0.1345	429417	keystroke_Key.space	Key.space	n/a
214.829	0.105	429658	keystroke_a	a	n/a
214.9645	0.0745	429929	keystroke_p	p	n/a
215.1445	0.0745	430289	keystroke_p	p	n/a
215.324	0.12	430648	keystroke_l	l	n/a
215.414	0.0905	430828	keystroke_e	e	n/a
215.578	0.09	431156	keystroke_Key.enter	Key.enter	n/a
215.675	6.4905	431350	prompt	n/a	from meat regular graham\n
216.824	0.1055	433648	keystroke_f	f	n/a
216.944	0.15	433888	keystroke_r	r	n/a
217.034	0.075	434068	keystroke_o	o	n/a
217.1995	0.104	434399	keystroke_m	m	n/a
217.333	0.1205	434666	keystroke_Key.space	Key.space	n/a
217.664	0.045	435328	keystroke_r	r	n/a
217.828	0.091	435656	keystroke_m	m	n/a
218.099	0.0595	436198	keystroke_Key.backspace	Key.backspace	n/a
218.264	0.0145	436528	keystroke_Key.backspace	Key.backspace	n/a
218.4585	0.12	436917	keystroke_m	m	n/a
218.5945	0.074	437189	keystroke_e	e	n/a
218.804	0.074	437608	keystroke_a	a	n/a
218.983	0.121	437966	keystroke_t	t	n/a
219.073	0.1055	438146	keystroke_Key.space	Key.space	n/a
219.374	0.03	438748	keystroke_s	s	n/a
219.719	0.09	439438	keystroke_Key.backspace	Key.backspace	n/a
219.824	0.09	439648	keystroke_r	r	n/a
219.959	0.075	439918	keystroke_e	e	n/a
220.109	0.105	440218	keystroke_g	g	n/a
220.184	0.09	440368	keystroke_u	u	n/a
220.364	0.1055	440728	keystroke_l	l	n/a
220.454	0.075	440908	keystroke_a	a	n/a
220.6345	0.1045	441269	keystroke_r	r	n/a
220.724	0.1345	441448	keystroke_Key.space	Key.space	n/a
221.174	0.12	442348	keystroke_g	g	n/a
221.3245	0.0885	442649	keystroke_r	r	n/a
221.5345	0.104	443069	keystroke_a	a	n/a
221.5635	0.105	443127	keystroke_h	h	n/a
221.7435	0.09	443487	keystroke_a	a	n/a
221.8035	0.15	443607	keystroke_m	m	n/a
222.119	0.045	444238	keystroke_Key.enter	Key.enter	n/a
222.171	5.725	444342	prompt	n/a	decide assault blessed keen\n
223.004	0.075	446008	keystroke_d	d	n/a
223.184	0.09	446368	keystroke_e	e	n/a
223.3935	0.105	446787	keystroke_c	c	n/a
223.439	0.195	446878	keystroke_i	i	n/a
223.6185	0.1055	447237	keystroke_d	d	n/a
223.844	0.09	447688	keystroke_e	e	n/a
223.919	0.1045	447838	keystroke_Key.space	Key.space	n/a
224.0685	0.09	448137	keystroke_a	a	n/a
224.2185	0.06	448437	keystroke_s	s	n/a
224.3535	0.075	448707	keystroke_s	s	n/a
224.5185	0.0755	449037	keystroke_a	a	n/a
224.6085	0.0905	449217	keystroke_u	u	n/a
224.8035	0.105	449607	keystroke_l	l	n/a
224.9385	0.0905	449877	keystroke_t	t	n/a
225.1035	0.135	450207	keystroke_Key.space	Key.space	n/a
225.554	0.1055	451108	keystroke_b	b	n/a
225.764	0.09	451528	keystroke_l	l	n/a
225.824	0.1055	451648	keystroke_e	e	n/a
226.0195	0.104	452039	keystroke_s	s	n/a
226.1985	0.0905	452397	keystroke_s	s	n/a
226.3645	0.089	452729	keystroke_e	e	n/a
226.5585	0.06	453117	keystroke_d	d	n/a
226.6185	0.1355	453237	keystroke_Key.space	Key.space	n/a
227.249	0.12	454498	keystroke_k	k	n/a
227.34	0.089	454680	keystroke_e	e	n/a
227.504	0.105	455008	keystroke_e	e	n/a
227.564	0.12	455128	keystroke_n	n	n/a
227.804	0.09	455608	keystroke_Key.enter	Key.enter	n/a
227.9	6.191	455800	prompt	n/a	handbook areas genome remainder\n
228.854	0.12	457708	keystroke_h	h	n/a
229.004	0.09	458008	keystroke_a	a	n/a
229.079	0.18	458158	keystroke_n	n	n/a
229.199	0.09	458398	keystroke_d	d	n/a
229.3645	0.1195	458729	keystroke_b	b	n/a
229.619	0.0895	459238	keystroke_o	o	n/a
229.814	0.075	459628	keystroke_o	o	n/a
229.9195	0.1195	459839	keystroke_k	k	n/a
230.098	0.106	460196	keystroke_Key.space	Key.space	n/a
230.324	0.09	460648	keystroke_a	a	n/a
230.564	0.105	461128	keystroke_r	r	n/a
230.6995	0.1045	461399	keystroke_e	e	n/a
230.879	0.09	461758	keystroke_a	a	n/a
231.0145	0.0895	462029	keystroke_s	s	n/a
231.118	0.121	462236	keystroke_Key.space	Key.space	n/a
231.404	0.0905	462808	keystroke_g	g	n/a
231.5545	0.12	463109	keystroke_e	e	n/a
231.614	0.075	463228	keystroke_n	n	n/a
231.764	0.075	463528	keystroke_o	o	n/a
231.914	0.12	463828	keystroke_m	m	n/a
232.019	0.12	464038	keystroke_e	e	n/a
232.169	0.12	464338	keystroke_Key.space	Key.space	n/a
232.499	0.12	464998	keystroke_r	r	n/a
232.694	0.1055	465388	keystroke_e	e	n/a
232.754	0.105	465508	keystroke_m	m	n/a
232.979	0.09	465958	keystroke_a	a	n/a
233.084	0.09	466168	keystroke_i	i	n/a
233.234	0.1805	466468	keystroke_n	n	n/a
233.579	0.075	467158	keystroke_d	d	n/a
233.7585	0.0755	467517	keystroke_e	e	n/a
233.8795	0.1045	467759	keystroke_r	r	n/a
233.999	0.09	467998	keystroke_Key.enter	Key.enter	n/a
234.0975	4.583	468195	prompt	n/a	aged stronger derek ross\n
234.869	0.105	469738	keystroke_a	a	n/a
235.034	0.1205	470068	keystroke_g	g	n/a
235.1245	0.105	470249	keystroke_e	e	n/a
235.3345	0.089	470669	keystroke_d	d	n/a
235.3935	0.12	470787	keystroke_Key.space	Key.space	n/a
235.709	0.0745	471418	keystroke_s	s	n/a
235.9035	0.0755	471807	keystroke_t	t	n/a
236.024	0.09	472048	keystroke_r	r	n/a
236.0695	0.0895	472139	keystroke_o	o	n/a
236.219	0.135	472438	keystroke_n	n	n/a
236.279	0.09	472558	keystroke_g	g	n/a
236.459	0.09	472918	keystroke_e	e	n/a
236.5935	0.1205	473187	keystroke_r	r	n/a
236.684	0.15	473368	keystroke_Key.space	Key.space	n/a
236.984	0.0905	473968	keystroke_d	d	n/a
237.179	0.0905	474358	keystroke_e	e	n/a
237.344	0.105	474688	keystroke_r	r	n/a
237.4795	0.1345	474959	keystroke_e	e	n/a
237.584	0.1055	475168	keystroke_k	k	n/a
237.749	0.165	475498	keystroke_Key.space	Key.space	n/a
237.854	0.105	475708	keystroke_r	r	n/a
237.944	0.105	475888	keystroke_o	o	n/a
238.274	0.09	476548	keystroke_s	s	n/a
238.454	0.1045	476908	keystroke_s	s	n/a
238.5435	0.135	477087	keystroke_Key.enter	Key.enter	n/a
238.6865	5.034	477373	prompt	n/a	generators improve mars unto\n
239.4445	0.0895	478889	keystroke_g	g	n/a
239.6095	0.09	479219	keystroke_e	e	n/a
239.684	0.1355	479368	keystroke_n	n	n/a
239.7895	0.12	479579	keystroke_e	e	n/a
239.8935	0.1055	479787	keystroke_r	r	n/a
240.119	0.0445	480238	keystroke_a	a	n/a
240.2835	0.09	480567	keystroke_t	t	n/a
240.3135	0.135	480627	keystroke_o	o	n/a
240.464	0.09	480928	keystroke_r	r	n/a
240.6595	0.09	481319	keystroke_s	s	n/a
240.719	0.0745	481438	keystroke_Key.space	Key.space	n/a
240.929	0.105	481858	keystroke_i	i	n/a
241.139	0.075	482278	keystroke_m	m	n/a
241.289	0.1195	482578	keystroke_p	p	n/a
241.364	0.105	482728	keystroke_r	r	n/a
241.484	0.135	482968	keystroke_o	o	n/a
241.604	0.105	483208	keystroke_v	v	n/a
241.8135	0.1205	483627	keystroke_e	e	n/a
241.9185	0.0905	483837	keystroke_Key.space	Key.space	n/a
242.0695	0.1645	484139	keystroke_m	m	n/a
242.1595	0.09	484319	keystroke_a	a	n/a
242.3545	0.1045	484709	keystroke_r	r	n/a
242.5645	0.105	485129	keystroke_s	s	n/a
242.6835	0.105	485367	keystroke_Key.space	Key.space	n/a
242.894	0.09	485788	keystroke_u	u	n/a
243.0745	0.0895	486149	keystroke_n	n	n/a
243.1795	0.104	486359	keystroke_t	t	n/a
243.329	0.2105	486658	keystroke_o	o	n/a
243.6285	0.0905	487257	keystroke_Key.enter	Key.enter	n/a
243.7255	5.7845	487451	prompt	n/a	austin referrals piano formatting\n
244.4395	0.1045	488879	keystroke_a	a	n/a
244.5145	0.1495	489029	keystroke_u	u	n/a
244.664	0.135	489328	keystroke_s	s	n/a
244.919	0.0895	489838	keystroke_t	t	n/a
244.964	0.1945	489928	keystroke_i	i	n/a
245.2785	0.136	490557	keystroke_n	n	n/a
245.444	0.135	490888	keystroke_Key.space	Key.space	n/a
245.549	0.105	491098	keystroke_r	r	n/a
245.684	0.12	491368	keystroke_e	e	n/a
245.879	0.0905	491758	keystroke_f	f	n/a
246.044	0.09	492088	keystroke_e	e	n/a
246.2085	0.0905	492417	keystroke_r	r	n/a
246.3735	0.1055	492747	keystroke_r	r	n/a
246.5695	0.119	493139	keystroke_a	a	n/a
246.6145	0.1045	493229	keystroke_l	l	n/a
246.8085	0.105	493617	keystroke_s	s	n/a
246.9435	0.09	493887	keystroke_Key.space	Key.space	n/a
247.079	0.1205	494158	keystroke_p	p	n/a
247.229	0.1045	494458	keystroke_i	i	n/a
247.3485	0.105	494697	keystroke_a	a	n/a
247.4545	0.09	494909	keystroke_n	n	n/a
247.6485	0.061	495297	keystroke_o	o	n/a
247.8135	0.1205	495627	keystroke_Key.space	Key.space	n/a
247.979	0.09	495958	keystroke_f	f	n/a
248.174	0.0755	496348	keystroke_o	o	n/a
248.354	0.1055	496708	keystroke_r	r	n/a
248.444	0.1195	496888	keystroke_m	m	n/a
248.6535	0.06	497307	keystroke_a	a	n/a
248.8645	0.075	497729	keystroke_t	t	n/a
249.0145	0.09	498029	keystroke_t	t	n/a
249.0895	0.075	498179	keystroke_i	i	n/a
249.2095	0.135	498419	keystroke_n	n	n/a
249.329	0.1055	498658	keystroke_g	g	n/a
249.419	0.0895	498838	keystroke_Key.enter	Key.enter	n/a
249.5135	6.7025	499027	prompt	n/a	sheets colleges selecting laboratory\n
250.169	0.09	500338	keystroke_s	s	n/a
250.514	0.09	501028	keystroke_h	h	n/a
250.664	0.1055	501328	keystroke_e	e	n/a
250.829	0.12	501658	keystroke_e	e	n/a
251.054	0.0895	502108	keystroke_t	t	n/a
251.219	0.12	502438	keystroke_s	s	n/a
251.294	0.105	502588	keystroke_Key.space	Key.space	n/a
251.4295	0.09	502859	keystroke_c	c	n/a
251.489	0.0595	502978	keystroke_o	o	n/a
251.6695	0.059	503339	keystroke_l	l	n/a
251.804	0.0895	503608	keystroke_l	l	n/a
251.8795	0.104	503759	keystroke_e	e	n/a
252.044	0.12	504088	keystroke_g	g	n/a
252.1495	0.0745	504299	keystroke_e	e	n/a
252.3445	0.1345	504689	keystroke_s	s	n/a
252.449	0.12	504898	keystroke_Key.space	Key.space	n/a
252.989	0.105	505978	keystroke_s	s	n/a
253.169	0.0745	506338	keystroke_e	e	n/a
253.304	0.1195	506608	keystroke_l	l	n/a
253.4085	0.09	506817	keystroke_e	e	n/a
253.619	0.0745	507238	keystroke_c	c	n/a
253.8295	0.1045	507659	keystroke_t	t	n/a
253.979	0.075	507958	keystroke_i	i	n/a
254.1145	0.1345	508229	keystroke_n	n	n/a
254.219	0.12	508438	keystroke_g	g	n/a
254.369	0.075	508738	keystroke_Key.space	Key.space	n/a
254.594	0.09	509188	keystroke_l	l	n/a
254.699	0.105	509398	keystroke_a	a	n/a
254.864	0.0905	509728	keystroke_b	b	n/a
255.074	0.075	510148	keystroke_o	o	n/a
255.179	0.09	510358	keystroke_r	r	n/a
255.4045	0.0895	510809	keystroke_a	a	n/a
255.599	0.1195	511198	keystroke_t	t	n/a
255.6885	0.105	511377	keystroke_o	o	n/a
255.8095	0.104	511619	keystroke_r	r	n/a
255.9285	0.0905	511857	keystroke_y	y	n/a
256.109	0.1045	512218	keystroke_Key.enter	Key.enter	n/a
256.221	4.4945	512442	prompt	n/a	fair channels professor ghana\n
256.8885	0.0905	513777	keystroke_f	f	n/a
257.039	0.1345	514078	keystroke_a	a	n/a
257.1295	0.134	514259	keystroke_i	i	n/a
257.2795	0.074	514559	keystroke_r	r	n/a
257.369	0.0895	514738	keystroke_Key.space	Key.space	n/a
257.4885	0.105	514977	keystroke_c	c	n/a
257.5485	0.091	515097	keystroke_h	h	n/a
257.699	0.0905	515398	keystroke_a	a	n/a
257.7595	0.045	515519	keystroke_n	n	n/a
257.8935	0.091	515787	keystroke_n	n	n/a
257.9995	0.119	515999	keystroke_e	e	n/a
258.104	0.0755	516208	keystroke_l	l	n/a
258.2395	0.105	516479	keystroke_s	s	n/a
258.3285	0.1055	516657	keystroke_Key.space	Key.space	n/a
258.569	0.075	517138	keystroke_p	p	n/a
258.7195	0.0895	517439	keystroke_r	r	n/a
258.839	0.15	517678	keystroke_o	o	n/a
258.959	0.0905	517918	keystroke_f	f	n/a
259.139	0.105	518278	keystroke_e	e	n/a
259.319	0.0895	518638	keystroke_s	s	n/a
259.4985	0.09	518997	keystroke_s	s	n/a
259.559	0.0905	519118	keystroke_o	o	n/a
259.6935	0.09	519387	keystroke_r	r	n/a
259.7685	0.105	519537	keystroke_Key.space	Key.space	n/a
259.904	0.0905	519808	keystroke_g	g	n/a
260.0545	0.134	520109	keystroke_h	h	n/a
260.2195	0.074	520439	keystroke_a	a	n/a
260.3235	0.1355	520647	keystroke_n	n	n/a
260.4435	0.1355	520887	keystroke_a	a	n/a
260.594	0.12	521188	keystroke_Key.enter	Key.enter	n/a
260.7195	6.8355	521439	prompt	n/a	respected continues internship constantly\n
261.3295	0.104	522659	keystroke_r	r	n/a
261.4645	0.104	522929	keystroke_e	e	n/a
261.6895	0.105	523379	keystroke_s	s	n/a
261.779	0.0745	523558	keystroke_p	p	n/a
261.9745	0.044	523949	keystroke_e	e	n/a
262.259	0.0445	524518	keystroke_c	c	n/a
262.454	0.075	524908	keystroke_t	t	n/a
262.679	0.0455	525358	keystroke_e	e	n/a
262.754	0.09	525508	keystroke_d	d	n/a
262.874	0.105	525748	keystroke_Key.space	Key.space	n/a
262.979	0.09	525958	keystroke_c	c	n/a
263.084	0.09	526168	keystroke_o	o	n/a
263.204	0.12	526408	keystroke_n	n	n/a
263.4895	0.1045	526979	keystroke_t	t	n/a
263.564	0.06	527128	keystroke_i	i	n/a
263.7135	0.0605	527427	keystroke_n	n	n/a
263.8345	0.104	527669	keystroke_u	u	n/a
263.9085	0.1055	527817	keystroke_e	e	n/a
264.119	0.105	528238	keystroke_s	s	n/a
264.209	0.09	528418	keystroke_Key.space	Key.space	n/a
264.344	0.0755	528688	keystroke_i	i	n/a
264.51	0.1345	529020	keystroke_n	n	n/a
264.614	0.045	529228	keystroke_t	t	n/a
264.734	0.105	529468	keystroke_e	e	n/a
264.854	0.105	529708	keystroke_r	r	n/a
264.944	0.0895	529888	keystroke_n	n	n/a
265.1085	0.106	530217	keystroke_s	s	n/a
265.229	0.09	530458	keystroke_h	h	n/a
265.4235	0.09	530847	keystroke_i	i	n/a
265.5745	0.0895	531149	keystroke_p	p	n/a
265.723	0.12	531446	keystroke_Key.space	Key.space	n/a
265.8295	0.1195	531659	keystroke_c	c	n/a
265.9195	0.0745	531839	keystroke_o	o	n/a
266.0685	0.1355	532137	keystroke_n	n	n/a
266.219	0.06	532438	keystroke_s	s	n/a
266.549	0.0895	533098	keystroke_t	t	n/a
266.7895	0.1195	533579	keystroke_a	a	n/a
266.939	0.1195	533878	keystroke_n	n	n/a
267.074	0.0905	534148	keystroke_t	t	n/a
267.209	0.1045	534418	keystroke_l	l	n/a
267.359	0.09	534718	keystroke_y	y	n/a
267.4635	0.0905	534927	keystroke_Key.enter	Key.enter	n/a
267.5675	5.688	535135	prompt	n/a	streets clinical struck currencies\n
268.1845	0.0745	536369	keystroke_s	s	n/a
268.334	0.12	536668	keystroke_t	t	n/a
268.484	0.12	536968	keystroke_r	r	n/a
268.679	0.105	537358	keystroke_e	e	n/a
268.874	0.135	537748	keystroke_e	e	n/a
269.114	0.105	538228	keystroke_t	t	n/a
269.3235	0.09	538647	keystroke_s	s	n/a
269.3685	0.12	538737	keystroke_Key.space	Key.space	n/a
269.5195	0.1045	539039	keystroke_c	c	n/a
269.639	0.1205	539278	keystroke_l	l	n/a
269.834	0.0745	539668	keystroke_i	i	n/a
269.9835	0.106	539967	keystroke_n	n	n/a
270.119	0.12	540238	keystroke_i	i	n/a
270.209	0.075	540418	keystroke_c	c	n/a
270.4035	0.075	540807	keystroke_a	a	n/a
270.4485	0.12	540897	keystroke_l	l	n/a
270.584	0.1195	541168	keystroke_Key.space	Key.space	n/a
270.6885	0.0605	541377	keystroke_s	s	n/a
270.868	0.075	541736	keystroke_t	t	n/a
270.974	0.134	541948	keystroke_r	r	n/a
271.064	0.12	542128	keystroke_u	u	n/a
271.213	0.105	542426	keystroke_c	c	n/a
271.303	0.1205	542606	keystroke_k	k	n/a
271.4835	0.1205	542967	keystroke_Key.space	Key.space	n/a
271.6635	0.1055	543327	keystroke_c	c	n/a
271.9635	0.1205	543927	keystroke_u	u	n/a
272.069	0.0745	544138	keystroke_r	r	n/a
272.2335	0.0905	544467	keystroke_r	r	n/a
272.369	0.12	544738	keystroke_e	e	n/a
272.459	0.135	544918	keystroke_n	n	n/a
272.639	0.12	545278	keystroke_c	c	n/a
272.729	0.195	545458	keystroke_i	i	n/a
272.8935	0.09	545787	keystroke_e	e	n/a
273.074	0.105	546148	keystroke_s	s	n/a
273.164	0.089	546328	keystroke_Key.enter	Key.enter	n/a
273.261	6.402	546522	prompt	n/a	wall rally derived mathematical\n
273.9145	0.089	547829	keystroke_w	w	n/a
274.0935	0.09	548187	keystroke_a	a	n/a
274.124	0.0905	548248	keystroke_l	l	n/a
274.289	0.1045	548578	keystroke_l	l	n/a
274.4385	0.12	548877	keystroke_Key.space	Key.space	n/a
274.4695	0.09	548939	keystroke_r	r	n/a
274.814	0.0755	549628	keystroke_a	a	n/a
274.904	0.06	549808	keystroke_l	l	n/a
275.054	0.09	550108	keystroke_l	l	n/a
275.159	0.105	550318	keystroke_y	y	n/a
275.279	0.105	550558	keystroke_Key.space	Key.space	n/a
275.624	0.059	551248	keystroke_a	a	n/a
275.939	0.1045	551878	keystroke_Key.backspace	Key.backspace	n/a
276.014	0.0755	552028	keystroke_d	d	n/a
276.1795	0.0745	552359	keystroke_e	e	n/a
276.3145	0.089	552629	keystroke_r	r	n/a
276.448	0.1515	552896	keystroke_i	i	n/a
276.5695	0.12	553139	keystroke_v	v	n/a
276.7795	0.1045	553559	keystroke_e	e	n/a
276.9745	0.09	553949	keystroke_d	d	n/a
277.049	0.09	554098	keystroke_Key.space	Key.space	n/a
277.259	0.105	554518	keystroke_m	m	n/a
277.304	0.0755	554608	keystroke_a	a	n/a
277.514	0.0755	555028	keystroke_t	t	n/a
277.619	0.105	555238	keystroke_h	h	n/a
277.739	0.105	555478	keystroke_e	e	n/a
278.414	0.135	556828	keystroke_m	m	n/a
278.744	0.03	557488	keystroke_a	a	n/a
278.9085	0.076	557817	keystroke_t	t	n/a
278.969	0.105	557938	keystroke_i	i	n/a
279.1335	0.075	558267	keystroke_c	c	n/a
279.3285	0.09	558657	keystroke_a	a	n/a
279.389	0.0905	558778	keystroke_l	l	n/a
279.554	0.1045	559108	keystroke_Key.enter	Key.enter	n/a
279.667	8.6335	559334	prompt	n/a	layout positioning determination zinc\n
280.274	0.0745	560548	keystroke_l	l	n/a
280.499	0.0755	560998	keystroke_a	a	n/a
280.649	0.105	561298	keystroke_y	y	n/a
280.8595	0.1045	561719	keystroke_o	o	n/a
281.039	0.105	562078	keystroke_u	u	n/a
281.384	0.09	562768	keystroke_t	t	n/a
281.429	0.105	562858	keystroke_Key.space	Key.space	n/a
281.549	0.165	563098	keystroke_p	p	n/a
281.699	0.12	563398	keystroke_o	o	n/a
281.834	0.105	563668	keystroke_s	s	n/a
281.954	0.12	563908	keystroke_i	i	n/a
282.1335	0.0905	564267	keystroke_t	t	n/a
282.1785	0.165	564357	keystroke_i	i	n/a
282.2685	0.105	564537	keystroke_o	o	n/a
282.4945	0.0595	564989	keystroke_n	n	n/a
282.5985	0.105	565197	keystroke_i	i	n/a
282.7495	0.15	565499	keystroke_n	n	n/a
282.8835	0.076	565767	keystroke_g	g	n/a
282.9735	0.1195	565947	keystroke_Key.space	Key.space	n/a
283.484	0.0755	566968	keystroke_d	d	n/a
283.6635	0.0455	567327	keystroke_e	e	n/a
283.814	0.0895	567628	keystroke_t	t	n/a
283.9645	0.0895	567929	keystroke_e	e	n/a
284.039	0.1345	568078	keystroke_r	r	n/a
284.1585	0.0905	568317	keystroke_m	m	n/a
285.1785	0.0755	570357	keystroke_i	i	n/a
285.3295	0.1345	570659	keystroke_n	n	n/a
286.0485	0.091	572097	keystroke_a	a	n/a
286.2595	0.1045	572519	keystroke_t	t	n/a
286.3495	0.1195	572699	keystroke_i	i	n/a
286.3945	0.119	572789	keystroke_o	o	n/a
286.5585	0.136	573117	keystroke_n	n	n/a
286.739	0.1345	573478	keystroke_Key.space	Key.space	n/a
287.0695	0.135	574139	keystroke_z	z	n/a
287.189	0.0755	574378	keystroke_i	i	n/a
287.324	0.1195	574648	keystroke_n	n	n/a
288.074	0.1045	576148	keystroke_c	c	n/a
288.1935	0.1055	576387	keystroke_Key.enter	Key.enter	n/a
288.3045	7.5705	576609	prompt	n/a	writers arkansas guardian formula\n
289.1085	0.091	578217	keystroke_w	w	n/a
289.3335	0.09	578667	keystroke_r	r	n/a
289.5445	0.1045	579089	keystroke_i	i	n/a
289.6345	0.089	579269	keystroke_t	t	n/a
289.799	0.12	579598	keystroke_e	e	n/a
290.0535	0.1055	580107	keystroke_s	s	n/a
290.189	0.15	580378	keystroke_Key.space	Key.space	n/a
290.444	0.045	580888	keystroke_a	a	n/a
290.759	0.15	581518	keystroke_k	k	n/a
291.1185	0.0755	582237	keystroke_Key.backspace	Key.backspace	n/a
291.239	0.105	582478	keystroke_r	r	n/a
291.314	0.135	582628	keystroke_k	k	n/a
291.704	0.1045	583408	keystroke_a	a	n/a
291.7935	0.136	583587	keystroke_n	n	n/a
291.9745	0.09	583949	keystroke_s	s	n/a
292.214	0.075	584428	keystroke_a	a	n/a
292.394	0.1045	584788	keystroke_s	s	n/a
292.4835	0.12	584967	keystroke_Key.space	Key.space	n/a
293.009	0.15	586018	keystroke_g	g	n/a
293.1745	0.1345	586349	keystroke_u	u	n/a
293.294	0.09	586588	keystroke_a	a	n/a
293.474	0.075	586948	keystroke_r	r	n/a
293.654	0.119	587308	keystroke_d	d	n/a
293.759	0.09	587518	keystroke_i	i	n/a
293.894	0.09	587788	keystroke_a	a	n/a
293.954	0.1355	587908	keystroke_n	n	n/a
294.104	0.075	588208	keystroke_Key.space	Key.space	n/a
294.359	0.09	588718	keystroke_f	f	n/a
294.5385	0.09	589077	keystroke_o	o	n/a
294.7785	0.0905	589557	keystroke_r	r	n/a
295.0195	0.089	590039	keystroke_m	m	n/a
295.229	0.09	590458	keystroke_u	u	n/a
295.454	0.165	590908	keystroke_l	l	n/a
295.588	0.106	591176	keystroke_a	a	n/a
295.769	0.105	591538	keystroke_Key.enter	Key.enter	n/a
295.8775	7.4075	591755	prompt	n/a	newport carroll slave citizen\n
296.729	0.1355	593458	keystroke_n	n	n/a
296.8185	0.1355	593637	keystroke_e	e	n/a
297.074	0.105	594148	keystroke_w	w	n/a
297.734	0.21	595468	keystroke_p	p	n/a
297.884	0.135	595768	keystroke_o	o	n/a
298.064	0.09	596128	keystroke_r	r	n/a
298.214	0.15	596428	keystroke_t	t	n/a
298.4085	0.1355	596817	keystroke_Key.space	Key.space	n/a
298.7545	0.09	597509	keystroke_c	c	n/a
298.9635	0.045	597927	keystroke_a	a	n/a
299.1135	0.105	598227	keystroke_r	r	n/a
299.279	0.0745	598558	keystroke_o	o	n/a
299.639	0.075	599278	keystroke_Key.backspace	Key.backspace	n/a
299.774	0.09	599548	keystroke_r	r	n/a
299.834	0.105	599668	keystroke_o	o	n/a
300.059	0.0445	600118	keystroke_o	o	n/a
300.4335	0.075	600867	keystroke_Key.backspace	Key.backspace	n/a
300.6435	0.09	601287	keystroke_l	l	n/a
300.8245	0.074	601649	keystroke_l	l	n/a
301.0045	0.119	602009	keystroke_Key.space	Key.space	n/a
301.1385	0.12	602277	keystroke_s	s	n/a
301.3635	0.106	602727	keystroke_l	l	n/a
301.5135	0.075	603027	keystroke_a	a	n/a
301.6345	0.0895	603269	keystroke_v	v	n/a
301.7545	0.1345	603509	keystroke_e	e	n/a
301.8585	0.105	603717	keystroke_Key.space	Key.space	n/a
302.024	0.105	604048	keystroke_c	c	n/a
302.114	0.105	604228	keystroke_i	i	n/a
302.264	0.105	604528	keystroke_t	t	n/a
302.339	0.12	604678	keystroke_i	i	n/a
302.594	0.12	605188	keystroke_z	z	n/a
302.834	0.12	605668	keystroke_e	e	n/a
302.924	0.135	605848	keystroke_n	n	n/a
303.194	0.09	606388	keystroke_Key.enter	Key.enter	n/a
303.289	6.251	606578	prompt	n/a	budgets cancelled announces slides\n
304.079	0.1055	608158	keystroke_b	b	n/a
304.274	0.104	608548	keystroke_u	u	n/a
304.409	0.12	608818	keystroke_d	d	n/a
304.513	0.1055	609026	keystroke_g	g	n/a
304.6495	0.045	609299	keystroke_e	e	n/a
304.9335	0.075	609867	keystroke_t	t	n/a
305.1735	0.06	610347	keystroke_s	s	n/a
305.2035	0.105	610407	keystroke_Key.space	Key.space	n/a
305.4895	0.0595	610979	keystroke_c	c	n/a
305.6835	0.0905	611367	keystroke_a	a	n/a
305.8345	0.1195	611669	keystroke_n	n	n/a
305.969	0.06	611938	keystroke_c	c	n/a
306.179	0.1045	612358	keystroke_e	e	n/a
306.2535	0.0905	612507	keystroke_l	l	n/a
306.419	0.09	612838	keystroke_l	l	n/a
306.449	0.105	612898	keystroke_e	e	n/a
306.644	0.0895	613288	keystroke_d	d	n/a
306.704	0.12	613408	keystroke_Key.space	Key.space	n/a
306.9745	0.09	613949	keystroke_a	a	n/a
307.0345	0.075	614069	keystroke_n	n	n/a
307.1985	0.046	614397	keystroke_n	n	n/a
307.3635	0.1655	614727	keystroke_o	o	n/a
307.574	0.0895	615148	keystroke_u	u	n/a
307.7535	0.136	615507	keystroke_n	n	n/a
307.8135	0.09	615627	keystroke_c	c	n/a
308.0535	0.1205	616107	keystroke_e	e	n/a
308.309	0.09	616618	keystroke_s	s	n/a
308.384	0.0895	616768	keystroke_Key.space	Key.space	n/a
308.6535	0.1355	617307	keystroke_s	s	n/a
308.7595	0.0745	617519	keystroke_l	l	n/a
308.8935	0.151	617787	keystroke_i	i	n/a
308.9835	0.075	617967	keystroke_d	d	n/a
309.1635	0.075	618327	keystroke_e	e	n/a
309.3435	0.09	618687	keystroke_s	s	n/a
309.4195	0.1185	618839	keystroke_Key.enter	Key.enter	n/a
309.546	7.2845	619092	prompt	n/a	administration cord loops bleeding\n
310.154	0.0745	620308	keystroke_a	a	n/a
310.484	0.0745	620968	keystroke_d	d	n/a
310.5435	0.1055	621087	keystroke_m	m	n/a
310.724	0.1195	621448	keystroke_i	i	n/a
310.889	0.0895	621778	keystroke_s	s	n/a
311.369	0.075	622738	keystroke_Key.backspace	Key.backspace	n/a
311.594	0.1055	623188	keystroke_n	n	n/a
312.0745	0.0745	624149	keystroke_i	i	n/a
312.194	0.105	624388	keystroke_s	s	n/a
312.434	0.0605	624868	keystroke_t	t	n/a
312.7335	0.0905	625467	keystroke_r	r	n/a
312.974	0.0455	625948	keystroke_a	a	n/a
313.139	0.105	626278	keystroke_t	t	n/a
313.169	0.1355	626338	keystroke_i	i	n/a
313.259	0.06	626518	keystroke_o	o	n/a
313.424	0.135	626848	keystroke_n	n	n/a
313.544	0.075	627088	keystroke_Key.space	Key.space	n/a
313.649	0.061	627298	keystroke_c	c	n/a
313.8585	0.106	627717	keystroke_o	o	n/a
313.9485	0.0755	627897	keystroke_r	r	n/a
314.129	0.0905	628258	keystroke_d	d	n/a
314.399	0.105	628798	keystroke_Key.space	Key.space	n/a
314.5345	0.0895	629069	keystroke_l	l	n/a
314.7295	0.0895	629459	keystroke_o	o	n/a
314.909	0.135	629818	keystroke_o	o	n/a
314.954	0.135	629908	keystroke_p	p	n/a
315.119	0.105	630238	keystroke_s	s	n/a
315.2085	0.09	630417	keystroke_Key.space	Key.space	n/a
315.3135	0.09	630627	keystroke_b	b	n/a
315.494	0.105	630988	keystroke_l	l	n/a
315.569	0.1205	631138	keystroke_e	e	n/a
315.7935	0.061	631587	keystroke_e	e	n/a
315.9585	0.091	631917	keystroke_d	d	n/a
316.034	0.075	632068	keystroke_i	i	n/a
316.1695	0.1645	632339	keystroke_n	n	n/a
316.3795	0.105	632759	keystroke_g	g	n/a
316.7085	0.1205	633417	keystroke_Key.enter	Key.enter	n/a
316.8335	7.4815	633667	prompt	n/a	tucson throwing narrative vegetarian\n
317.6095	0.1045	635219	keystroke_t	t	n/a
317.804	0.1205	635608	keystroke_u	u	n/a
318.014	0.105	636028	keystroke_c	c	n/a
318.7785	0.1505	637557	keystroke_s	s	n/a
318.8545	0.09	637709	keystroke_o	o	n/a
319.0345	0.105	638069	keystroke_n	n	n/a
319.1985	0.105	638397	keystroke_Key.space	Key.space	n/a
319.3195	0.1345	638639	keystroke_t	t	n/a
319.394	0.105	638788	keystroke_h	h	n/a
319.529	0.1205	639058	keystroke_r	r	n/a
319.619	0.12	639238	keystroke_o	o	n/a
319.7695	0.119	639539	keystroke_w	w	n/a
319.844	0.075	639688	keystroke_i	i	n/a
319.994	0.1205	639988	keystroke_n	n	n/a
320.129	0.0605	640258	keystroke_g	g	n/a
320.1735	0.12	640347	keystroke_Key.space	Key.space	n/a
320.3235	0.121	640647	keystroke_n	n	n/a
320.3685	0.1205	640737	keystroke_a	a	n/a
320.5645	0.104	641129	keystroke_r	r	n/a
320.7295	0.104	641459	keystroke_r	r	n/a
320.9235	0.0455	641847	keystroke_a	a	n/a
321.0745	0.09	642149	keystroke_t	t	n/a
321.134	0.12	642268	keystroke_i	i	n/a
321.2995	0.0745	642599	keystroke_v	v	n/a
321.464	0.1205	642928	keystroke_e	e	n/a
321.494	0.075	642988	keystroke_Key.space	Key.space	n/a
321.7045	0.1345	643409	keystroke_v	v	n/a
321.824	0.09	643648	keystroke_e	e	n/a
322.2595	0.09	644519	keystroke_g	g	n/a
322.454	0.09	644908	keystroke_e	e	n/a
322.829	0.09	645658	keystroke_t	t	n/a
323.069	0.0605	646138	keystroke_a	a	n/a
323.234	0.1205	646468	keystroke_r	r	n/a
323.3395	0.1195	646679	keystroke_i	i	n/a
323.549	0.075	647098	keystroke_a	a	n/a
323.579	0.135	647158	keystroke_n	n	n/a
324.2685	0.0455	648537	keystroke_Key.enter	Key.enter	n/a
324.319	8.187	648638	prompt	n/a	cleaning keeps maritime miscellaneous\n
324.929	0.1055	649858	keystroke_c	c	n/a
325.049	0.12	650098	keystroke_l	l	n/a
325.1545	0.1195	650309	keystroke_e	e	n/a
325.3645	0.1035	650729	keystroke_a	a	n/a
325.424	0.09	650848	keystroke_n	n	n/a
325.574	0.0905	651148	keystroke_i	i	n/a
325.709	0.135	651418	keystroke_n	n	n/a
325.8145	0.105	651629	keystroke_g	g	n/a
325.874	0.15	651748	keystroke_Key.space	Key.space	n/a
326.054	0.1205	652108	keystroke_k	k	n/a
326.2195	0.0895	652439	keystroke_e	e	n/a
326.399	0.12	652798	keystroke_e	e	n/a
326.459	0.09	652918	keystroke_p	p	n/a
326.6395	0.0895	653279	keystroke_s	s	n/a
326.744	0.09	653488	keystroke_Key.space	Key.space	n/a
326.8345	0.1495	653669	keystroke_m	m	n/a
326.954	0.075	653908	keystroke_a	a	n/a
327.149	0.105	654298	keystroke_r	r	n/a
327.239	0.15	654478	keystroke_i	i	n/a
327.4345	0.1195	654869	keystroke_t	t	n/a
327.584	0.1055	655168	keystroke_i	i	n/a
327.8545	0.0745	655709	keystroke_m	m	n/a
327.989	0.105	655978	keystroke_e	e	n/a
328.1235	0.09	656247	keystroke_Key.space	Key.space	n/a
328.3485	0.0755	656697	keystroke_m	m	n/a
328.4985	0.105	656997	keystroke_i	i	n/a
328.5735	0.09	657147	keystroke_s	s	n/a
328.739	0.105	657478	keystroke_c	c	n/a
328.934	0.1195	657868	keystroke_e	e	n/a
329.0385	0.06	658077	keystroke_l	l	n/a
329.2035	0.0905	658407	keystroke_l	l	n/a
331.456	0.058	662912	keystroke_a	a	n/a
331.469	0.12	662938	keystroke_n	n	n/a
331.649	0.1055	663298	keystroke_e	e	n/a
332.0095	0.1045	664019	keystroke_o	o	n/a
332.144	0.135	664288	keystroke_u	u	n/a
332.264	0.12	664528	keystroke_s	s	n/a
332.399	0.1045	664798	keystroke_Key.enter	Key.enter	n/a
332.51	6.8985	665020	prompt	n/a	beatles qualifying collectible mountains\n
333.089	0.09	666178	keystroke_b	b	n/a
333.149	0.12	666298	keystroke_e	e	n/a
333.6435	0.06	667287	keystroke_a	a	n/a
333.8245	0.1045	667649	keystroke_t	t	n/a
333.944	0.0905	667888	keystroke_l	l	n/a
334.154	0.12	668308	keystroke_e	e	n/a
334.319	0.12	668638	keystroke_s	s	n/a
334.454	0.1045	668908	keystroke_Key.space	Key.space	n/a
334.6185	0.136	669237	keystroke_q	q	n/a
334.7085	0.0905	669417	keystroke_u	u	n/a
334.8745	0.1045	669749	keystroke_a	a	n/a
334.994	0.06	669988	keystroke_l	l	n/a
335.1595	0.1045	670319	keystroke_i	i	n/a
335.3235	0.106	670647	keystroke_f	f	n/a
335.5785	0.076	671157	keystroke_y	y	n/a
335.759	0.09	671518	keystroke_i	i	n/a
335.909	0.1345	671818	keystroke_n	n	n/a
336.0295	0.0745	672059	keystroke_g	g	n/a
336.0885	0.1205	672177	keystroke_Key.space	Key.space	n/a
336.2385	0.1355	672477	keystroke_c	c	n/a
336.3285	0.0755	672657	keystroke_o	o	n/a
336.509	0.075	673018	keystroke_l	l	n/a
336.644	0.1045	673288	keystroke_l	l	n/a
336.7185	0.0905	673437	keystroke_e	e	n/a
336.9285	0.075	673857	keystroke_c	c	n/a
337.1545	0.104	674309	keystroke_t	t	n/a
337.2445	0.09	674489	keystroke_i	i	n/a
337.409	0.105	674818	keystroke_b	b	n/a
337.619	0.09	675238	keystroke_l	l	n/a
337.724	0.09	675448	keystroke_e	e	n/a
337.829	0.09	675658	keystroke_Key.space	Key.space	n/a
337.949	0.075	675898	keystroke_m	m	n/a
338.189	0.075	676378	keystroke_o	o	n/a
338.3395	0.09	676679	keystroke_u	u	n/a
338.519	0.135	677038	keystroke_n	n	n/a
338.594	0.075	677188	keystroke_t	t	n/a
338.8185	0.1055	677637	keystroke_a	a	n/a
338.879	0.0895	677758	keystroke_i	i	n/a
339.029	0.1345	678058	keystroke_n	n	n/a
339.1645	0.0745	678329	keystroke_s	s	n/a
339.2685	0.1355	678537	keystroke_Key.enter	Key.enter	n/a
339.4265	5.634	678853	prompt	n/a	tribunal tight caution stevens\n
339.989	0.1045	679978	keystroke_t	t	n/a
340.139	0.12	680278	keystroke_r	r	n/a
340.229	0.12	680458	keystroke_i	i	n/a
340.379	0.12	680758	keystroke_b	b	n/a
340.484	0.09	680968	keystroke_u	u	n/a
340.769	0.105	681538	keystroke_n	n	n/a
340.9195	0.104	681839	keystroke_a	a	n/a
341.0095	0.074	682019	keystroke_l	l	n/a
341.1435	0.105	682287	keystroke_Key.space	Key.space	n/a
341.594	0.075	683188	keystroke_t	t	n/a
341.654	0.105	683308	keystroke_i	i	n/a
341.804	0.1205	683608	keystroke_g	g	n/a
341.894	0.12	683788	keystroke_h	h	n/a
341.999	0.12	683998	keystroke_t	t	n/a
342.134	0.119	684268	keystroke_Key.space	Key.space	n/a
342.284	0.075	684568	keystroke_c	c	n/a
342.4795	0.104	684959	keystroke_a	a	n/a
342.599	0.09	685198	keystroke_u	u	n/a
342.719	0.12	685438	keystroke_t	t	n/a
342.824	0.18	685648	keystroke_i	i	n/a
342.9145	0.1045	685829	keystroke_o	o	n/a
343.109	0.1205	686218	keystroke_n	n	n/a
343.259	0.09	686518	keystroke_Key.space	Key.space	n/a
343.469	0.015	686938	keystroke_c	c	n/a
343.8435	0.09	687687	keystroke_Key.backspace	Key.backspace	n/a
343.9485	0.061	687897	keystroke_s	s	n/a
344.099	0.105	688198	keystroke_t	t	n/a
344.279	0.1195	688558	keystroke_e	e	n/a
344.3995	0.089	688799	keystroke_v	v	n/a
344.519	0.12	689038	keystroke_e	e	n/a
344.6535	0.12	689307	keystroke_n	n	n/a
344.789	0.09	689578	keystroke_s	s	n/a
344.9535	0.105	689907	keystroke_Key.enter	Key.enter	n/a
345.0655	6.5955	690131	prompt	n/a	msie crawford signature sbjct\n
345.8995	0.12	691799	keystroke_m	m	n/a
346.033	0.121	692066	keystroke_s	s	n/a
346.139	0.1055	692278	keystroke_i	i	n/a
346.2585	0.105	692517	keystroke_e	e	n/a
346.3785	0.105	692757	keystroke_Key.space	Key.space	n/a
346.5295	0.1045	693059	keystroke_c	c	n/a
346.7695	0.0895	693539	keystroke_r	r	n/a
346.979	0.09	693958	keystroke_a	a	n/a
347.129	0.105	694258	keystroke_w	w	n/a
347.339	0.1195	694678	keystroke_f	f	n/a
347.429	0.105	694858	keystroke_o	o	n/a
347.5195	0.104	695039	keystroke_r	r	n/a
347.7135	0.1055	695427	keystroke_d	d	n/a
347.8035	0.12	695607	keystroke_Key.space	Key.space	n/a
347.9985	0.121	695997	keystroke_s	s	n/a
348.0885	0.09	696177	keystroke_i	i	n/a
348.239	0.1055	696478	keystroke_g	g	n/a
348.3585	0.1205	696717	keystroke_n	n	n/a
348.494	0.09	696988	keystroke_a	a	n/a
348.689	0.105	697378	keystroke_t	t	n/a
348.749	0.135	697498	keystroke_u	u	n/a
348.8395	0.1045	697679	keystroke_r	r	n/a
349.019	0.1055	698038	keystroke_e	e	n/a
349.168	0.151	698336	keystroke_Key.space	Key.space	n/a
350.519	0.0605	701038	keystroke_s	s	n/a
350.5635	0.106	701127	keystroke_b	b	n/a
350.7895	0.21	701579	keystroke_j	j	n/a
351.164	0.1055	702328	keystroke_c	c	n/a
351.4345	0.0895	702869	keystroke_t	t	n/a
351.554	0.1045	703108	keystroke_Key.enter	Key.enter	n/a
351.665	6.446	703330	prompt	n/a	skilled virtually syria separated\n
352.304	0.1355	704608	keystroke_s	s	n/a
352.4545	0.06	704909	keystroke_k	k	n/a
352.6045	0.09	705209	keystroke_i	i	n/a
352.7995	0.059	705599	keystroke_l	l	n/a
352.9485	0.105	705897	keystroke_l	l	n/a
353.0395	0.089	706079	keystroke_e	e	n/a
353.204	0.1345	706408	keystroke_d	d	n/a
353.3235	0.12	706647	keystroke_Key.space	Key.space	n/a
353.6395	0.09	707279	keystroke_v	v	n/a
353.7435	0.135	707487	keystroke_i	i	n/a
353.8795	0.119	707759	keystroke_r	r	n/a
354.0585	0.12	708117	keystroke_t	t	n/a
354.1185	0.12	708237	keystroke_u	u	n/a
354.3135	0.0905	708627	keystroke_a	a	n/a
354.3745	0.074	708749	keystroke_l	l	n/a
354.554	0.0755	709108	keystroke_l	l	n/a
354.644	0.1055	709288	keystroke_y	y	n/a
354.7335	0.135	709467	keystroke_Key.space	Key.space	n/a
355.0345	0.12	710069	keystroke_s	s	n/a
355.1985	0.135	710397	keystroke_y	y	n/a
355.8135	0.12	711627	keystroke_r	r	n/a
355.919	0.12	711838	keystroke_i	i	n/a
356.0835	0.09	712167	keystroke_a	a	n/a
356.2785	0.12	712557	keystroke_Key.space	Key.space	n/a
356.4585	0.105	712917	keystroke_s	s	n/a
356.7595	0.0595	713519	keystroke_e	e	n/a
356.9235	0.076	713847	keystroke_r	r	n/a
357.0445	0.074	714089	keystroke_p	p	n/a
357.224	0.0755	714448	keystroke_a	a	n/a
357.4185	0.0755	714837	keystroke_r	r	n/a
357.584	0.0895	715168	keystroke_t	t	n/a
357.8695	0.0145	715739	keystroke_e	e	n/a
357.9295	0.119	715859	keystroke_d	d	n/a
358.0035	0.105	716007	keystroke_Key.enter	Key.enter	n/a
358.1165	8.9795	716233	prompt	n/a	monitoring conservation incidence requested\n
358.6795	0.104	717359	keystroke_m	m	n/a
358.8735	0.091	717747	keystroke_o	o	n/a
359.0985	0.09	718197	keystroke_n	n	n/a
359.249	0.09	718498	keystroke_i	i	n/a
359.354	0.135	718708	keystroke_t	t	n/a
359.5335	0.09	719067	keystroke_o	o	n/a
359.6385	0.075	719277	keystroke_r	r	n/a
359.744	0.09	719488	keystroke_i	i	n/a
359.879	0.12	719758	keystroke_n	n	n/a
359.9835	0.1065	719967	keystroke_g	g	n/a
360.104	0.0895	720208	keystroke_Key.space	Key.space	n/a
360.4945	0.105	720989	keystroke_c	c	n/a
360.584	0.0745	721168	keystroke_o	o	n/a
361.1685	0.0755	722337	keystroke_n	n	n/a
361.3185	0.105	722637	keystroke_s	s	n/a
361.4845	0.104	722969	keystroke_e	e	n/a
361.694	0.045	723388	keystroke_v	v	n/a
361.829	0.09	723658	keystroke_r	r	n/a
362.069	0.075	724138	keystroke_Key.backspace	Key.backspace	n/a
362.234	0.075	724468	keystroke_Key.backspace	Key.backspace	n/a
362.294	0.075	724588	keystroke_r	r	n/a
362.4895	0.09	724979	keystroke_v	v	n/a
362.699	0.075	725398	keystroke_a	a	n/a
362.8785	0.105	725757	keystroke_t	t	n/a
362.9085	0.12	725817	keystroke_i	i	n/a
362.9685	0.106	725937	keystroke_o	o	n/a
363.179	0.1195	726358	keystroke_n	n	n/a
363.3135	0.105	726627	keystroke_Key.space	Key.space	n/a
363.494	0.0745	726988	keystroke_i	i	n/a
363.6585	0.1055	727317	keystroke_n	n	n/a
363.8235	0.105	727647	keystroke_c	c	n/a
363.9735	0.1055	727947	keystroke_i	i	n/a
364.064	0.12	728128	keystroke_d	d	n/a
364.304	0.09	728608	keystroke_e	e	n/a
364.469	0.12	728938	keystroke_n	n	n/a
364.619	0.0755	729238	keystroke_c	c	n/a
364.829	0.105	729658	keystroke_e	e	n/a
364.919	0.1045	729838	keystroke_Key.space	Key.space	n/a
365.114	0.12	730228	keystroke_r	r	n/a
365.249	0.135	730498	keystroke_e	e	n/a
365.954	0.135	731908	keystroke_q	q	n/a
366.0595	0.1335	732119	keystroke_u	u	n/a
366.179	0.105	732358	keystroke_e	e	n/a
366.359	0.075	732718	keystroke_s	s	n/a
366.569	0.075	733138	keystroke_t	t	n/a
366.704	0.105	733408	keystroke_e	e	n/a
366.854	0.15	733708	keystroke_d	d	n/a
366.959	0.135	733918	keystroke_Key.enter	Key.enter	n/a
367.102	5.634	734204	prompt	n/a	earned affairs maintaining remember\n
367.784	0.1055	735568	keystroke_e	e	n/a
368.009	0.045	736018	keystroke_a	a	n/a
368.159	0.0895	736318	keystroke_r	r	n/a
368.189	0.105	736378	keystroke_n	n	n/a
368.3085	0.1205	736617	keystroke_e	e	n/a
368.474	0.12	736948	keystroke_d	d	n/a
368.579	0.135	737158	keystroke_Key.space	Key.space	n/a
368.6985	0.045	737397	keystroke_a	a	n/a
368.819	0.1045	737638	keystroke_f	f	n/a
369.0135	0.0755	738027	keystroke_f	f	n/a
369.1635	0.12	738327	keystroke_a	a	n/a
369.2985	0.106	738597	keystroke_i	i	n/a
369.3895	0.0745	738779	keystroke_r	r	n/a
369.6135	0.105	739227	keystroke_s	s	n/a
369.7035	0.105	739407	keystroke_Key.space	Key.space	n/a
369.9895	0.089	739979	keystroke_m	m	n/a
370.124	0.0905	740248	keystroke_a	a	n/a
370.2285	0.075	740457	keystroke_i	i	n/a
370.3645	0.09	740729	keystroke_n	n	n/a
370.5435	0.09	741087	keystroke_t	t	n/a
370.7995	0.0595	741599	keystroke_a	a	n/a
370.8435	0.0755	741687	keystroke_i	i	n/a
370.9795	0.104	741959	keystroke_n	n	n/a
371.174	0.0895	742348	keystroke_i	i	n/a
371.324	0.135	742648	keystroke_n	n	n/a
371.4295	0.1045	742859	keystroke_g	g	n/a
371.549	0.104	743098	keystroke_Key.space	Key.space	n/a
371.684	0.105	743368	keystroke_r	r	n/a
371.8195	0.1345	743639	keystroke_e	e	n/a
371.9245	0.12	743849	keystroke_m	m	n/a
372.059	0.12	744118	keystroke_e	e	n/a
372.134	0.075	744268	keystroke_m	m	n/a
372.314	0.1195	744628	keystroke_b	b	n/a
372.374	0.1045	744748	keystroke_e	e	n/a
372.494	0.1645	744988	keystroke_r	r	n/a
372.629	0.105	745258	keystroke_Key.enter	Key.enter	n/a
372.7405	7.87	745481	prompt	n/a	cylinder endorsement tournament existed\n
373.379	0.1355	746758	keystroke_c	c	n/a
373.499	0.09	746998	keystroke_y	y	n/a
373.724	0.0755	747448	keystroke_l	l	n/a
373.874	0.075	747748	keystroke_i	i	n/a
374.039	0.1195	748078	keystroke_n	n	n/a
374.129	0.105	748258	keystroke_d	d	n/a
374.339	0.09	748678	keystroke_e	e	n/a
374.459	0.12	748918	keystroke_r	r	n/a
374.549	0.105	749098	keystroke_Key.space	Key.space	n/a
374.669	0.1355	749338	keystroke_e	e	n/a
374.789	0.105	749578	keystroke_n	n	n/a
374.939	0.105	749878	keystroke_d	d	n/a
375.059	0.1055	750118	keystroke_o	o	n/a
375.374	0.12	750748	keystroke_r	r	n/a
375.5395	0.104	751079	keystroke_e	e	n/a
375.7485	0.091	751497	keystroke_s	s	n/a
376.1085	0.0905	752217	keystroke_Key.backspace	Key.backspace	n/a
376.2735	0.0605	752547	keystroke_Key.backspace	Key.backspace	n/a
376.499	0.0895	752998	keystroke_s	s	n/a
376.664	0.1195	753328	keystroke_e	e	n/a
376.799	0.0905	753598	keystroke_m	m	n/a
376.949	0.135	753898	keystroke_e	e	n/a
377.069	0.1495	754138	keystroke_n	n	n/a
377.249	0.0895	754498	keystroke_t	t	n/a
377.459	0.104	754918	keystroke_Key.space	Key.space	n/a
377.8035	0.121	755607	keystroke_t	t	n/a
377.894	0.1055	755788	keystroke_o	o	n/a
378.0145	0.0895	756029	keystroke_u	u	n/a
378.0895	0.119	756179	keystroke_r	r	n/a
378.2245	0.1045	756449	keystroke_n	n	n/a
378.524	0.105	757048	keystroke_a	a	n/a
378.659	0.1355	757318	keystroke_m	m	n/a
378.899	0.1055	757798	keystroke_e	e	n/a
379.0485	0.105	758097	keystroke_n	n	n/a
379.139	0.1195	758278	keystroke_t	t	n/a
379.274	0.1195	758548	keystroke_Key.space	Key.space	n/a
379.4535	0.1055	758907	keystroke_e	e	n/a
379.664	0.1055	759328	keystroke_x	x	n/a
379.7835	0.105	759567	keystroke_i	i	n/a
379.9035	0.1205	759807	keystroke_s	s	n/a
380.1435	0.06	760287	keystroke_t	t	n/a
380.2795	0.09	760559	keystroke_e	e	n/a
380.4285	0.106	760857	keystroke_d	d	n/a
380.5345	0.074	761069	keystroke_Key.enter	Key.enter	n/a
380.617	5.6635	761234	prompt	n/a	treated notes villa checked\n
381.1645	0.12	762329	keystroke_t	t	n/a
381.329	0.135	762658	keystroke_r	r	n/a
381.569	0.09	763138	keystroke_e	e	n/a
381.7345	0.09	763469	keystroke_a	a	n/a
381.944	0.0755	763888	keystroke_t	t	n/a
382.064	0.0905	764128	keystroke_e	e	n/a
382.169	0.15	764338	keystroke_d	d	n/a
382.304	0.09	764608	keystroke_Key.space	Key.space	n/a
382.409	0.075	764818	keystroke_n	n	n/a
382.5895	0.1045	765179	keystroke_o	o	n/a
382.664	0.09	765328	keystroke_t	t	n/a
382.814	0.105	765628	keystroke_e	e	n/a
382.994	0.135	765988	keystroke_s	s	n/a
383.099	0.1345	766198	keystroke_Key.space	Key.space	n/a
383.3535	0.06	766707	keystroke_n	n	n/a
383.714	0.0755	767428	keystroke_v	v	n/a
383.9235	0.0755	767847	keystroke_Key.backspace	Key.backspace	n/a
384.0735	0.0905	768147	keystroke_Key.backspace	Key.backspace	n/a
384.2235	0.135	768447	keystroke_v	v	n/a
384.3595	0.1045	768719	keystroke_i	i	n/a
384.5685	0.075	769137	keystroke_l	l	n/a
384.7335	0.1055	769467	keystroke_l	l	n/a
384.8235	0.091	769647	keystroke_a	a	n/a
384.959	0.1345	769918	keystroke_Key.space	Key.space	n/a
385.2295	0.105	770459	keystroke_c	c	n/a
385.3195	0.089	770639	keystroke_h	h	n/a
385.439	0.1195	770878	keystroke_e	e	n/a
385.6495	0.105	771299	keystroke_c	c	n/a
385.7085	0.1205	771417	keystroke_k	k	n/a
385.8735	0.106	771747	keystroke_e	e	n/a
386.0685	0.0755	772137	keystroke_d	d	n/a
386.2035	0.0755	772407	keystroke_Key.enter	Key.enter	n/a
386.2855	6.1905	772571	prompt	n/a	inches scene automobile charges\n
386.9395	0.104	773879	keystroke_i	i	n/a
387.1345	0.104	774269	keystroke_n	n	n/a
387.1945	0.12	774389	keystroke_c	c	n/a
387.329	0.1345	774658	keystroke_h	h	n/a
387.4495	0.09	774899	keystroke_e	e	n/a
387.644	0.1205	775288	keystroke_s	s	n/a
387.734	0.12	775468	keystroke_Key.space	Key.space	n/a
387.869	0.09	775738	keystroke_s	s	n/a
388.0335	0.076	776067	keystroke_c	c	n/a
388.2295	0.119	776459	keystroke_e	e	n/a
388.289	0.2105	776578	keystroke_n	n	n/a
388.4385	0.12	776877	keystroke_e	e	n/a
388.6335	0.12	777267	keystroke_Key.space	Key.space	n/a
389.1585	0.0905	778317	keystroke_a	a	n/a
389.204	0.135	778408	keystroke_u	u	n/a
389.399	0.12	778798	keystroke_t	t	n/a
389.489	0.075	778978	keystroke_o	o	n/a
389.669	0.06	779338	keystroke_m	m	n/a
389.849	0.105	779698	keystroke_o	o	n/a
390.854	0.09	781708	keystroke_b	b	n/a
390.8995	0.105	781799	keystroke_i	i	n/a
391.064	0.105	782128	keystroke_l	l	n/a
391.1845	0.1045	782369	keystroke_e	e	n/a
391.304	0.105	782608	keystroke_Key.space	Key.space	n/a
391.424	0.09	782848	keystroke_c	c	n/a
391.5145	0.0895	783029	keystroke_h	h	n/a
391.6635	0.046	783327	keystroke_a	a	n/a
391.8285	0.106	783657	keystroke_r	r	n/a
391.9485	0.1355	783897	keystroke_g	g	n/a
392.0685	0.1205	784137	keystroke_e	e	n/a
392.264	0.135	784528	keystroke_s	s	n/a
392.384	0.09	784768	keystroke_Key.enter	Key.enter	n/a
392.481	5.5145	784962	prompt	n/a	press reservoir four bills\n
393.149	0.0905	786298	keystroke_p	p	n/a
393.2085	0.091	786417	keystroke_r	r	n/a
393.3285	0.105	786657	keystroke_e	e	n/a
393.4945	0.0895	786989	keystroke_s	s	n/a
393.704	0.12	787408	keystroke_s	s	n/a
393.779	0.15	787558	keystroke_Key.space	Key.space	n/a
393.914	0.105	787828	keystroke_r	r	n/a
394.034	0.12	788068	keystroke_e	e	n/a
394.4845	0.105	788969	keystroke_s	s	n/a
395.264	0.0755	790528	keystroke_e	e	n/a
395.3845	0.09	790769	keystroke_r	r	n/a
395.6395	0.135	791279	keystroke_v	v	n/a
395.7585	0.136	791517	keystroke_o	o	n/a
395.8785	0.151	791757	keystroke_i	i	n/a
396.0145	0.1195	792029	keystroke_r	r	n/a
396.149	0.135	792298	keystroke_Key.space	Key.space	n/a
396.4195	0.1195	792839	keystroke_f	f	n/a
396.4945	0.1795	792989	keystroke_o	o	n/a
396.584	0.15	793168	keystroke_u	u	n/a
396.719	0.105	793438	keystroke_r	r	n/a
396.839	0.12	793678	keystroke_Key.space	Key.space	n/a
396.974	0.03	793948	keystroke_b	b	n/a
397.2445	0.0445	794489	keystroke_i	i	n/a
397.4235	0.06	794847	keystroke_l	l	n/a
397.5885	0.135	795177	keystroke_l	l	n/a
397.649	0.1195	795298	keystroke_s	s	n/a
397.9035	0.09	795807	keystroke_Key.enter	Key.enter	n/a
398.0005	7.105	796001	prompt	n/a	slope vendor drinking indigenous\n
398.684	0.12	797368	keystroke_s	s	n/a
399.074	0.1055	798148	keystroke_l	l	n/a
399.2535	0.24	798507	keystroke_o	o	n/a
399.404	0.1195	798808	keystroke_p	p	n/a
399.5385	0.135	799077	keystroke_e	e	n/a
399.659	0.105	799318	keystroke_Key.space	Key.space	n/a
400.0185	0.106	800037	keystroke_v	v	n/a
400.1995	0.134	800399	keystroke_e	e	n/a
400.2595	0.105	800519	keystroke_n	n	n/a
400.4385	0.061	800877	keystroke_d	d	n/a
400.4845	0.075	800969	keystroke_o	o	n/a
400.6945	0.105	801389	keystroke_r	r	n/a
400.7995	0.105	801599	keystroke_Key.space	Key.space	n/a
400.9635	0.121	801927	keystroke_b	b	n/a
401.0695	0.12	802139	keystroke_r	r	n/a
401.3095	0.09	802619	keystroke_Key.backspace	Key.backspace	n/a
401.4885	0.0905	802977	keystroke_Key.backspace	Key.backspace	n/a
401.549	0.09	803098	keystroke_d	d	n/a
401.714	0.1205	803428	keystroke_r	r	n/a
401.8345	0.0745	803669	keystroke_i	i	n/a
401.9985	0.0755	803997	keystroke_n	n	n/a
402.134	0.105	804268	keystroke_k	k	n/a
402.314	0.0905	804628	keystroke_i	i	n/a
402.464	0.12	804928	keystroke_n	n	n/a
402.539	0.12	805078	keystroke_g	g	n/a
402.644	0.105	805288	keystroke_Key.space	Key.space	n/a
402.7345	0.0745	805469	keystroke_i	i	n/a
402.854	0.1045	805708	keystroke_n	n	n/a
403.0045	0.12	806009	keystroke_d	d	n/a
403.139	0.1195	806278	keystroke_i	i	n/a
403.5745	0.09	807149	keystroke_g	g	n/a
403.769	0.105	807538	keystroke_e	e	n/a
403.904	0.0755	807808	keystroke_n	n	n/a
404.6095	0.134	809219	keystroke_o	o	n/a
404.7145	0.15	809429	keystroke_u	u	n/a
404.834	0.135	809668	keystroke_s	s	n/a
404.999	0.1045	809998	keystroke_Key.enter	Key.enter	n/a
405.1105	5.8155	810221	prompt	n/a	acid railway julian canal\n
405.674	0.1205	811348	keystroke_a	a	n/a
405.9295	0.044	811859	keystroke_d	d	n/a
406.2285	0.105	812457	keystroke_Key.backspace	Key.backspace	n/a
406.3485	0.09	812697	keystroke_c	c	n/a
406.4535	0.1505	812907	keystroke_i	i	n/a
406.589	0.105	813178	keystroke_d	d	n/a
406.7535	0.105	813507	keystroke_Key.space	Key.space	n/a
406.979	0.1055	813958	keystroke_r	r	n/a
407.1285	0.105	814257	keystroke_e	e	n/a
407.3685	0.0755	814737	keystroke_a	a	n/a
407.579	0.09	815158	keystroke_Key.backspace	Key.backspace	n/a
407.759	0.075	815518	keystroke_Key.backspace	Key.backspace	n/a
407.849	0.12	815698	keystroke_a	a	n/a
407.939	0.09	815878	keystroke_i	i	n/a
408.1045	0.09	816209	keystroke_l	l	n/a
408.329	0.105	816658	keystroke_w	w	n/a
408.509	0.12	817018	keystroke_a	a	n/a
408.553	0.136	817106	keystroke_y	y	n/a
408.674	0.12	817348	keystroke_Key.space	Key.space	n/a
408.914	0.1055	817828	keystroke_j	j	n/a
409.124	0.06	818248	keystroke_u	u	n/a
409.379	0.105	818758	keystroke_l	l	n/a
409.604	0.105	819208	keystroke_i	i	n/a
409.7385	0.09	819477	keystroke_a	a	n/a
409.8435	0.1505	819687	keystroke_n	n	n/a
409.964	0.105	819928	keystroke_Key.space	Key.space	n/a
410.114	0.1345	820228	keystroke_c	c	n/a
410.3835	0.075	820767	keystroke_a	a	n/a
410.4135	0.1055	820827	keystroke_n	n	n/a
410.5635	0.09	821127	keystroke_a	a	n/a
410.639	0.1505	821278	keystroke_l	l	n/a
410.8335	0.0905	821667	keystroke_Key.enter	Key.enter	n/a
410.9435	6.988	821887	prompt	n/a	intervals departmental scales know\n
411.509	0.075	823018	keystroke_i	i	n/a
411.659	0.15	823318	keystroke_n	n	n/a
411.779	0.0755	823558	keystroke_t	t	n/a
411.9435	0.075	823887	keystroke_e	e	n/a
412.0485	0.1205	824097	keystroke_r	r	n/a
412.154	0.1205	824308	keystroke_v	v	n/a
413.039	0.12	826078	keystroke_a	a	n/a
413.144	0.075	826288	keystroke_l	l	n/a
413.414	0.075	826828	keystroke_s	s	n/a
413.489	0.09	826978	keystroke_Key.space	Key.space	n/a
413.729	0.06	827458	keystroke_d	d	n/a
413.9095	0.1045	827819	keystroke_e	e	n/a
414.074	0.12	828148	keystroke_p	p	n/a
414.284	0.0905	828568	keystroke_a	a	n/a
414.479	0.09	828958	keystroke_r	r	n/a
414.6595	0.0895	829319	keystroke_t	t	n/a
414.7195	0.119	829439	keystroke_m	m	n/a
414.8695	0.119	829739	keystroke_e	e	n/a
414.974	0.09	829948	keystroke_n	n	n/a
415.0785	0.1055	830157	keystroke_t	t	n/a
415.3645	0.0595	830729	keystroke_a	a	n/a
415.409	0.0755	830818	keystroke_l	l	n/a
415.543	0.151	831086	keystroke_Key.space	Key.space	n/a
415.709	0.075	831418	keystroke_s	s	n/a
415.8745	0.0745	831749	keystroke_c	c	n/a
416.069	0.12	832138	keystroke_a	a	n/a
416.234	0.1055	832468	keystroke_l	l	n/a
416.309	0.1345	832618	keystroke_e	e	n/a
416.5035	0.1355	833007	keystroke_s	s	n/a
416.594	0.0895	833188	keystroke_Key.space	Key.space	n/a
416.7145	0.104	833429	keystroke_k	k	n/a
416.8485	0.09	833697	keystroke_n	n	n/a
417.119	0.0605	834238	keystroke_w	w	n/a
417.404	0.09	834808	keystroke_Key.backspace	Key.backspace	n/a
417.569	0.1355	835138	keystroke_o	o	n/a
417.734	0.1345	835468	keystroke_w	w	n/a
417.8535	0.0755	835707	keystroke_Key.enter	Key.enter	n/a
417.936	4.645	835872	prompt	n/a	rooms rest hostels hockey\n
418.5885	0.1205	837177	keystroke_r	r	n/a
418.694	0.09	837388	keystroke_o	o	n/a
418.874	0.06	837748	keystroke_o	o	n/a
419.024	0.1055	838048	keystroke_m	m	n/a
419.114	0.12	838228	keystroke_s	s	n/a
419.219	0.1195	838438	keystroke_Key.space	Key.space	n/a
419.3545	0.104	838709	keystroke_r	r	n/a
419.5045	0.104	839009	keystroke_e	e	n/a
419.6845	0.089	839369	keystroke_s	s	n/a
419.8795	0.105	839759	keystroke_t	t	n/a
419.954	0.1045	839908	keystroke_Key.space	Key.space	n/a
420.0745	0.0895	840149	keystroke_h	h	n/a
420.239	0.135	840478	keystroke_o	o	n/a
420.509	0.0895	841018	keystroke_s	s	n/a
420.719	0.06	841438	keystroke_t	t	n/a
420.8385	0.1355	841677	keystroke_e	e	n/a
420.9285	0.0905	841857	keystroke_l	l	n/a
421.154	0.12	842308	keystroke_s	s	n/a
421.304	0.135	842608	keystroke_Key.space	Key.space	n/a
421.484	0.075	842968	keystroke_h	h	n/a
421.679	0.105	843358	keystroke_o	o	n/a
421.754	0.12	843508	keystroke_c	c	n/a
421.934	0.06	843868	keystroke_k	k	n/a
422.009	0.075	844018	keystroke_e	e	n/a
422.3545	0.09	844709	keystroke_y	y	n/a
422.5035	0.0755	845007	keystroke_Key.enter	Key.enter	n/a
422.5855	5.14	845171	prompt	n/a	watershed focal stuff suicide\n
423.1945	0.12	846389	keystroke_w	w	n/a
423.4345	0.105	846869	keystroke_a	a	n/a
423.6595	0.104	847319	keystroke_t	t	n/a
423.8395	0.1195	847679	keystroke_e	e	n/a
424.079	0.09	848158	keystroke_r	r	n/a
424.333	0.1215	848666	keystroke_s	s	n/a
424.4245	0.12	848849	keystroke_h	h	n/a
424.5595	0.1045	849119	keystroke_e	e	n/a
424.7245	0.104	849449	keystroke_d	d	n/a
424.7985	0.105	849597	keystroke_Key.space	Key.space	n/a
424.9795	0.119	849959	keystroke_f	f	n/a
425.1585	0.121	850317	keystroke_o	o	n/a
425.3085	0.091	850617	keystroke_c	c	n/a
425.5345	0.104	851069	keystroke_a	a	n/a
425.684	0.135	851368	keystroke_l	l	n/a
425.849	0.12	851698	keystroke_Key.space	Key.space	n/a
425.939	0.105	851878	keystroke_s	s	n/a
426.119	0.1055	852238	keystroke_t	t	n/a
426.1935	0.1205	852387	keystroke_u	u	n/a
426.329	0.0905	852658	keystroke_f	f	n/a
426.494	0.0905	852988	keystroke_f	f	n/a
426.5685	0.1205	853137	keystroke_Key.space	Key.space	n/a
426.7345	0.149	853469	keystroke_s	s	n/a
426.8685	0.12	853737	keystroke_u	u	n/a
426.9585	0.12	853917	keystroke_i	i	n/a
427.0645	0.104	854129	keystroke_c	c	n/a
427.1845	0.134	854369	keystroke_i	i	n/a
427.334	0.105	854668	keystroke_d	d	n/a
427.529	0.105	855058	keystroke_e	e	n/a
427.619	0.105	855238	keystroke_Key.enter	Key.enter	n/a
427.7305	5.395	855461	prompt	n/a	grenada justify played tunnel\n
428.3985	0.0905	856797	keystroke_g	g	n/a
428.7595	0.1195	857519	keystroke_r	r	n/a
428.894	0.12	857788	keystroke_e	e	n/a
428.999	0.1355	857998	keystroke_n	n	n/a
429.2395	0.0745	858479	keystroke_a	a	n/a
429.374	0.09	858748	keystroke_d	d	n/a
429.764	0.0905	859528	keystroke_a	a	n/a
429.884	0.1195	859768	keystroke_Key.space	Key.space	n/a
430.1085	0.0755	860217	keystroke_j	j	n/a
430.2595	0.135	860519	keystroke_u	u	n/a
430.3345	0.0745	860669	keystroke_s	s	n/a
430.514	0.1045	861028	keystroke_t	t	n/a
430.5745	0.1345	861149	keystroke_i	i	n/a
430.7695	0.119	861539	keystroke_f	f	n/a
430.9185	0.09	861837	keystroke_y	y	n/a
431.0235	0.12	862047	keystroke_Key.space	Key.space	n/a
431.2195	0.104	862439	keystroke_p	p	n/a
431.3985	0.136	862797	keystroke_l	l	n/a
431.519	0.1205	863038	keystroke_a	a	n/a
431.684	0.135	863368	keystroke_y	y	n/a
431.774	0.105	863548	keystroke_e	e	n/a
431.939	0.1355	863878	keystroke_d	d	n/a
432.029	0.15	864058	keystroke_Key.space	Key.space	n/a
432.194	0.105	864388	keystroke_t	t	n/a
432.284	0.09	864568	keystroke_u	u	n/a
432.494	0.06	864988	keystroke_n	n	n/a
432.644	0.06	865288	keystroke_n	n	n/a
432.719	0.105	865438	keystroke_e	e	n/a
432.7945	0.12	865589	keystroke_l	l	n/a
433.004	0.12	866008	keystroke_Key.enter	Key.enter	n/a
433.1295	8.4415	866259	prompt	n/a	miller divorce blackjack qualified\n
433.7845	0.0895	867569	keystroke_m	m	n/a
433.979	0.075	867958	keystroke_i	i	n/a
434.204	0.09	868408	keystroke_l	l	n/a
434.444	0.105	868888	keystroke_l	l	n/a
434.774	0.09	869548	keystroke_e	e	n/a
434.9245	0.1045	869849	keystroke_r	r	n/a
435.059	0.135	870118	keystroke_Key.space	Key.space	n/a
435.314	0.06	870628	keystroke_d	d	n/a
435.344	0.135	870688	keystroke_i	i	n/a
435.539	0.0895	871078	keystroke_v	v	n/a
435.6435	0.0905	871287	keystroke_o	o	n/a
435.794	0.1055	871588	keystroke_r	r	n/a
436.0195	0.0895	872039	keystroke_c	c	n/a
436.2145	0.12	872429	keystroke_e	e	n/a
436.304	0.09	872608	keystroke_Key.space	Key.space	n/a
436.4095	0.1345	872819	keystroke_b	b	n/a
436.8295	0.1345	873659	keystroke_l	l	n/a
436.8885	0.1055	873777	keystroke_a	a	n/a
437.054	0.165	874108	keystroke_c	c	n/a
437.144	0.09	874288	keystroke_k	k	n/a
437.43	0.029	874860	keystroke_h	h	n/a
437.594	0.075	875188	keystroke_a	a	n/a
437.744	0.12	875488	keystroke_c	c	n/a
437.804	0.12	875608	keystroke_j	j	n/a
438.104	0.1345	876208	keystroke_Key.space	Key.space	n/a
438.4195	0.075	876839	keystroke_Key.backspace	Key.backspace	n/a
438.584	0.09	877168	keystroke_Key.backspace	Key.backspace	n/a
438.749	0.09	877498	keystroke_Key.backspace	Key.backspace	n/a
438.929	0.075	877858	keystroke_Key.backspace	Key.backspace	n/a
439.289	0.0895	878578	keystroke_Key.backspace	Key.backspace	n/a
439.6645	0.105	879329	keystroke_j	j	n/a
439.7545	0.09	879509	keystroke_a	a	n/a
439.9345	0.105	879869	keystroke_c	c	n/a
440.0095	0.0895	880019	keystroke_k	k	n/a
440.159	0.135	880318	keystroke_Key.space	Key.space	n/a
440.429	0.1055	880858	keystroke_q	q	n/a
440.519	0.09	881038	keystroke_u	u	n/a
