onset	duration	sample	value	key	prompt_text
16.751	43.2015	33502	prompt	n/a	the quick brown fox jumps over a lazy dog\n
18.612	0.086	37224	keystroke_t	t	n/a
18.7435	0.105	37487	keystroke_h	h	n/a
18.9535	0.165	37907	keystroke_e	e	n/a
19.1635	0.1495	38327	keystroke_Key.space	Key.space	n/a
19.5835	0.165	39167	keystroke_q	q	n/a
19.854	0.135	39708	keystroke_u	u	n/a
20.1235	0.12	40247	keystroke_i	i	n/a
20.409	0.134	40818	keystroke_c	c	n/a
21.6835	0.1195	43367	keystroke_k	k	n/a
21.983	0.166	43966	keystroke_Key.space	Key.space	n/a
22.238	0.1355	44476	keystroke_b	b	n/a
22.644	0.1045	45288	keystroke_r	r	n/a
22.9585	0.165	45917	keystroke_o	o	n/a
23.3035	0.15	46607	keystroke_w	w	n/a
23.5885	0.135	47177	keystroke_n	n	n/a
23.7985	0.1795	47597	keystroke_Key.space	Key.space	n/a
24.264	0.135	48528	keystroke_f	f	n/a
24.504	0.134	49008	keystroke_i	i	n/a
25.8685	0.15	51737	keystroke_Key.backspace	Key.backspace	n/a
27.5185	0.12	55037	keystroke_0	0	n/a
28.3435	0.18	56687	keystroke_z	z	n/a
30.2935	0.112	60587	keystroke_Key.backspace	Key.backspace	n/a
30.5105	0.115	61021	keystroke_Key.backspace	Key.backspace	n/a
32.0055	0.0875	64011	keystroke_o	o	n/a
32.349	0.165	64698	keystroke_x	x	n/a
32.754	0.089	65508	keystroke_n	n	n/a
34.8135	0.092	69627	keystroke_Key.backspace	Key.backspace	n/a
37.9455	0.1335	75891	keystroke_Key.space	Key.space	n/a
38.3185	0.09	76637	keystroke_j	j	n/a
38.559	0.0895	77118	keystroke_u	u	n/a
39.294	0.18	78588	keystroke_j	j	n/a
40.194	0.1345	80388	keystroke_s	s	n/a
42.1325	0.136	84265	keystroke_Key.backspace	Key.backspace	n/a
42.335	0.1145	84670	keystroke_Key.backspace	Key.backspace	n/a
43.361	0.088	86722	keystroke_m	m	n/a
43.854	0.15	87708	keystroke_p	p	n/a
44.139	0.1205	88278	keystroke_s	s	n/a
44.364	0.135	88728	keystroke_Key.space	Key.space	n/a
45.5045	0.1495	91009	keystroke_o	o	n/a
45.729	0.1195	91458	keystroke_v	v	n/a
45.9985	0.165	91997	keystroke_e	e	n/a
46.508	0.106	93016	keystroke_Key.space	Key.space	n/a
47.986	0.113	95972	keystroke_Key.backspace	Key.backspace	n/a
49.7365	0	99473	keystroke_r	r	n/a
49.8995	0.075	99799	keystroke_n	n	n/a
50.0795	0.165	100159	keystroke_a	a	n/a
52.2045	0.114	104409	keystroke_Key.backspace	Key.backspace	n/a
53.784	0.111	107568	keystroke_Key.backspace	Key.backspace	n/a
54.657	0.0725	109314	keystroke_Key.space	Key.space	n/a
54.864	0.135	109728	keystroke_a	a	n/a
55.1495	0.165	110299	keystroke_Key.space	Key.space	n/a
56.229	0.15	112458	keystroke_l	l	n/a
56.4245	0.1195	112849	keystroke_a	a	n/a
56.844	0.12	113688	keystroke_z	z	n/a
57.4595	0.089	114919	keystroke_y	y	n/a
57.6995	0.165	115399	keystroke_Key.space	Key.space	n/a
57.909	0.1345	115818	keystroke_d	d	n/a
58.9595	0.135	117919	keystroke_o	o	n/a
59.259	0.09	118518	keystroke_g	g	n/a
59.829	0.1205	119658	keystroke_Key.enter	Key.enter	n/a
59.9615	10.0095	119923	prompt	n/a	titled week victory burst\n
61.134	0.09	122268	keystroke_t	t	n/a
61.659	0.135	123318	keystroke_i	i	n/a
61.9145	0.12	123829	keystroke_t	t	n/a
62.139	0.15	124278	keystroke_l	l	n/a
62.349	0.09	124698	keystroke_e	e	n/a
62.619	0.1355	125238	keystroke_d	d	n/a
62.7685	0.15	125537	keystroke_Key.space	Key.space	n/a
63.0395	0.135	126079	keystroke_w	w	n/a
63.3095	0.09	126619	keystroke_e	e	n/a
63.5195	0.12	127039	keystroke_e	e	n/a
63.6545	0.105	127309	keystroke_k	k	n/a
63.9095	0.1495	127819	keystroke_Key.space	Key.space	n/a
64.5995	0.105	129199	keystroke_i	i	n/a
65.4985	0.1205	130997	keystroke_Key.backspace	Key.backspace	n/a
66.054	0.0905	132108	keystroke_v	v	n/a
66.264	0.105	132528	keystroke_i	i	n/a
66.444	0.1655	132888	keystroke_c	c	n/a
66.849	0.105	133698	keystroke_t	t	n/a
66.984	0.1495	133968	keystroke_o	o	n/a
67.2545	0.1345	134509	keystroke_r	r	n/a
67.4495	0.0895	134899	keystroke_y	y	n/a
67.7785	0.1355	135557	keystroke_Key.space	Key.space	n/a
67.9595	0.12	135919	keystroke_b	b	n/a
68.2445	0.09	136489	keystroke_u	u	n/a
68.4845	0.1195	136969	keystroke_r	r	n/a
68.7995	0.164	137599	keystroke_s	s	n/a
69.129	0.105	138258	keystroke_t	t	n/a
69.8495	0.119	139699	keystroke_Key.enter	Key.enter	n/a
69.978	10.4655	139956	prompt	n/a	change recruiting usage since\n
71.0945	0.1495	142189	keystroke_c	c	n/a
71.319	0.06	142638	keystroke_h	h	n/a
71.604	0.15	143208	keystroke_a	a	n/a
71.799	0.0895	143598	keystroke_n	n	n/a
72.024	0.105	144048	keystroke_g	g	n/a
72.279	0.135	144558	keystroke_e	e	n/a
72.489	0.165	144978	keystroke_Key.space	Key.space	n/a
72.699	0.15	145398	keystroke_r	r	n/a
72.954	0.105	145908	keystroke_e	e	n/a
73.329	0.15	146658	keystroke_c	c	n/a
73.644	0.15	147288	keystroke_r	r	n/a
74.169	0.165	148338	keystroke_u	u	n/a
74.454	0.15	148908	keystroke_i	i	n/a
74.7395	0.1195	149479	keystroke_t	t	n/a
74.904	0.105	149808	keystroke_i	i	n/a
76.1785	0.106	152357	keystroke_n	n	n/a
76.419	0.1205	152838	keystroke_g	g	n/a
76.569	0.12	153138	keystroke_Key.space	Key.space	n/a
76.869	0.12	153738	keystroke_u	u	n/a
77.0795	0.1195	154159	keystroke_s	s	n/a
77.304	0.1505	154608	keystroke_a	a	n/a
77.5745	0.1195	155149	keystroke_g	g	n/a
77.7985	0.1665	155597	keystroke_e	e	n/a
77.9785	0.09	155957	keystroke_Key.space	Key.space	n/a
78.219	0.1345	156438	keystroke_s	s	n/a
78.3395	0.1045	156679	keystroke_i	i	n/a
79.1195	0.1045	158239	keystroke_n	n	n/a
79.359	0.105	158718	keystroke_c	c	n/a
79.6445	0.149	159289	keystroke_e	e	n/a
80.349	0.09	160698	keystroke_Key.enter	Key.enter	n/a
80.4505	16.6865	160901	prompt	n/a	promotional liable bent delivers\n
81.5195	0.165	163039	keystroke_p	p	n/a
81.834	0.105	163668	keystroke_r	r	n/a
82.4795	0.149	164959	keystroke_o	o	n/a
83.3495	0.104	166699	keystroke_m	m	n/a
83.6935	0.15	167387	keystroke_o	o	n/a
84.1295	0.135	168259	keystroke_t	t	n/a
84.279	0.1355	168558	keystroke_i	i	n/a
84.4885	0.151	168977	keystroke_o	o	n/a
84.998	0.1365	169996	keystroke_a	a	n/a
87.069	0.1115	174138	keystroke_Key.backspace	Key.backspace	n/a
88.3905	0.058	176781	keystroke_n	n	n/a
88.569	0.15	177138	keystroke_a	a	n/a
88.734	0.12	177468	keystroke_l	l	n/a
89.0185	0.1205	178037	keystroke_Key.space	Key.space	n/a
89.2895	0.105	178579	keystroke_l	l	n/a
89.5445	0.1045	179089	keystroke_i	i	n/a
89.6945	0.18	179389	keystroke_a	a	n/a
89.9795	0.1495	179959	keystroke_b	b	n/a
90.144	0.12	180288	keystroke_l	l	n/a
90.339	0.135	180678	keystroke_e	e	n/a
90.6985	0.121	181397	keystroke_d	d	n/a
90.954	0.1795	181908	keystroke_e	e	n/a
91.1185	0.091	182237	keystroke_n	n	n/a
92.2585	0.1055	184517	keystroke_Key.backspace	Key.backspace	n/a
92.499	0.075	184998	keystroke_Key.backspace	Key.backspace	n/a
92.769	0.09	185538	keystroke_Key.backspace	Key.backspace	n/a
93.338	0.15	186676	keystroke_Key.space	Key.space	n/a
93.864	0.15	187728	keystroke_b	b	n/a
94.1495	0.1645	188299	keystroke_e	e	n/a
94.2845	0.105	188569	keystroke_n	n	n/a
94.554	0.1205	189108	keystroke_t	t	n/a
94.6885	0.1355	189377	keystroke_Key.space	Key.space	n/a
94.899	0.105	189798	keystroke_d	d	n/a
95.1535	0.1355	190307	keystroke_e	e	n/a
95.2735	0.136	190547	keystroke_l	l	n/a
95.5895	0.12	191179	keystroke_i	i	n/a
95.7385	0.151	191477	keystroke_v	v	n/a
96.024	0.21	192048	keystroke_e	e	n/a
96.2195	0.1495	192439	keystroke_r	r	n/a
96.504	0.1645	193008	keystroke_s	s	n/a
97.029	0.105	194058	keystroke_Key.enter	Key.enter	n/a
97.142	26.4995	194284	prompt	n/a	warranties paradise logitech applicant\n
98.004	0.1495	196008	keystroke_w	w	n/a
98.3045	0.165	196609	keystroke_a	a	n/a
98.6335	0.106	197267	keystroke_r	r	n/a
98.8735	0.121	197747	keystroke_r	r	n/a
99.0985	0.226	198197	keystroke_a	a	n/a
99.2945	0.104	198589	keystroke_n	n	n/a
100.5235	0.121	201047	keystroke_t	t	n/a
100.719	0.12	201438	keystroke_i	i	n/a
100.884	0.12	201768	keystroke_e	e	n/a
101.1385	0.165	202277	keystroke_s	s	n/a
101.319	0.1045	202638	keystroke_Key.space	Key.space	n/a
101.5735	0.165	203147	keystroke_p	p	n/a
101.7695	0.1645	203539	keystroke_a	a	n/a
102.069	0.1195	204138	keystroke_r	r	n/a
102.3085	0.165	204617	keystroke_a	a	n/a
102.789	0.1055	205578	keystroke_s	s	n/a
103.734	0.105	207468	keystroke_Key.backspace	Key.backspace	n/a
103.9295	0.135	207859	keystroke_d	d	n/a
104.1695	0.119	208339	keystroke_i	i	n/a
104.3485	0.15	208697	keystroke_s	s	n/a
104.6035	0.181	209207	keystroke_e	e	n/a
106.2835	0.15	212567	keystroke_n	n	n/a
107.349	0.105	214698	keystroke_Key.backspace	Key.backspace	n/a
109.164	0.18	218328	keystroke_Key.space	Key.space	n/a
109.674	0.105	219348	keystroke_l	l	n/a
109.944	0.1205	219888	keystroke_o	o	n/a
110.229	0.1205	220458	keystroke_g	g	n/a
110.409	0.1205	220818	keystroke_i	i	n/a
110.6645	0.1345	221329	keystroke_t	t	n/a
110.9195	0.1195	221839	keystroke_e	e	n/a
111.264	0.135	222528	keystroke_c	c	n/a
111.519	0.12	223038	keystroke_h	h	n/a
112.0595	0.15	224119	keystroke_a	a	n/a
112.989	0.1205	225978	keystroke_Key.backspace	Key.backspace	n/a
113.949	0.12	227898	keystroke_n	n	n/a
114.3095	0.1495	228619	keystroke_a	a	n/a
114.639	0.09	229278	keystroke_p	p	n/a
116.214	0.12	232428	keystroke_Key.backspace	Key.backspace	n/a
116.514	0.105	233028	keystroke_Key.backspace	Key.backspace	n/a
117.774	0.104	235548	keystroke_Key.backspace	Key.backspace	n/a
119.3035	0.1505	238607	keystroke_Key.space	Key.space	n/a
120.054	0.134	240108	keystroke_a	a	n/a
120.519	0.1055	241038	keystroke_p	p	n/a
120.714	0.135	241428	keystroke_p	p	n/a
121.0585	0.1355	242117	keystroke_l	l	n/a
121.345	0.149	242690	keystroke_i	i	n/a
121.5835	0.105	243167	keystroke_c	c	n/a
121.854	0.1345	243708	keystroke_a	a	n/a
122.0645	0.1195	244129	keystroke_n	n	n/a
122.379	0.09	244758	keystroke_t	t	n/a
123.534	0.105	247068	keystroke_Key.enter	Key.enter	n/a
123.647	23.83	247294	prompt	n/a	vault jacksonville telecharger iowa\n
125.529	0.15	251058	keystroke_v	v	n/a
125.7995	0.1495	251599	keystroke_a	a	n/a
126.1595	0.1645	252319	keystroke_u	u	n/a
126.579	0.1795	253158	keystroke_l	l	n/a
126.9835	0.12	253967	keystroke_t	t	n/a
127.2695	0.105	254539	keystroke_n	n	n/a
127.569	0.105	255138	keystroke_j	j	n/a
127.7795	0.119	255559	keystroke_a	a	n/a
128.814	0.135	257628	keystroke_Key.backspace	Key.backspace	n/a
129.0835	0.1505	258167	keystroke_Key.backspace	Key.backspace	n/a
129.609	0.12	259218	keystroke_Key.backspace	Key.backspace	n/a
130.194	0.149	260388	keystroke_Key.space	Key.space	n/a
130.674	0.1355	261348	keystroke_j	j	n/a
130.9295	0.1495	261859	keystroke_a	a	n/a
131.274	0.1645	262548	keystroke_c	c	n/a
132.6085	0.135	265217	keystroke_k	k	n/a
132.8935	0.1505	265787	keystroke_s	s	n/a
133.134	0.12	266268	keystroke_o	o	n/a
134.184	0.105	268368	keystroke_n	n	n/a
134.514	0.135	269028	keystroke_v	v	n/a
134.784	0.105	269568	keystroke_i	i	n/a
135.519	0.015	271038	keystroke_l	l	n/a
135.624	0.135	271248	keystroke_l	l	n/a
135.804	0.165	271608	keystroke_e	e	n/a
136.434	0.105	272868	keystroke_t	t	n/a
137.214	0.12	274428	keystroke_Key.backspace	Key.backspace	n/a
137.799	0.135	275598	keystroke_t	t	n/a
138.099	0.135	276198	keystroke_e	e	n/a
138.3085	0.151	276617	keystroke_l	l	n/a
138.5195	0.105	277039	keystroke_e	e	n/a
139.899	0.105	279798	keystroke_Key.backspace	Key.backspace	n/a
140.169	0.09	280338	keystroke_Key.backspace	Key.backspace	n/a
140.3935	0.075	280787	keystroke_Key.backspace	Key.backspace	n/a
140.8885	0.1205	281777	keystroke_Key.backspace	Key.backspace	n/a
141.6385	0.1805	283277	keystroke_Key.space	Key.space	n/a
141.9235	0.105	283847	keystroke_t	t	n/a
142.209	0.1645	284418	keystroke_e	e	n/a
142.4035	0.15	284807	keystroke_l	l	n/a
142.6735	0.1505	285347	keystroke_e	e	n/a
143.0185	0.151	286037	keystroke_c	c	n/a
143.214	0.09	286428	keystroke_h	h	n/a
143.7695	0.18	287539	keystroke_a	a	n/a
144.0985	0.106	288197	keystroke_r	r	n/a
144.384	0.12	288768	keystroke_g	g	n/a
144.639	0.15	289278	keystroke_e	e	n/a
144.9245	0.134	289849	keystroke_r	r	n/a
145.2085	0.165	290417	keystroke_Key.space	Key.space	n/a
145.7195	0.12	291439	keystroke_i	i	n/a
145.9435	0.15	291887	keystroke_o	o	n/a
146.1245	0.1195	292249	keystroke_w	w	n/a
146.3785	0.1655	292757	keystroke_a	a	n/a
147.339	0.135	294678	keystroke_Key.enter	Key.enter	n/a
147.4825	12.968	294965	prompt	n/a	wheels nigeria foam pillow\n
148.3745	0.1345	296749	keystroke_w	w	n/a
148.644	0.12	297288	keystroke_h	h	n/a
148.884	0.0755	297768	keystroke_e	e	n/a
149.094	0.09	298188	keystroke_e	e	n/a
149.2895	0.1495	298579	keystroke_l	l	n/a
149.4985	0.166	298997	keystroke_s	s	n/a
149.799	0.1495	299598	keystroke_Key.space	Key.space	n/a
150.174	0.1195	300348	keystroke_n	n	n/a
150.4735	0.1505	300947	keystroke_i	i	n/a
151.779	0.12	303558	keystroke_g	g	n/a
152.034	0.165	304068	keystroke_e	e	n/a
152.319	0.15	304638	keystroke_r	r	n/a
152.559	0.1345	305118	keystroke_i	i	n/a
152.7845	0.179	305569	keystroke_a	a	n/a
153.6985	0.1205	307397	keystroke_n	n	n/a
153.9985	0.165	307997	keystroke_f	f	n/a
154.7035	0.09	309407	keystroke_Key.backspace	Key.backspace	n/a
154.8985	0.1055	309797	keystroke_Key.backspace	Key.backspace	n/a
155.499	0.18	310998	keystroke_Key.space	Key.space	n/a
156.039	0.1645	312078	keystroke_f	f	n/a
156.324	0.15	312648	keystroke_o	o	n/a
156.5945	0.165	313189	keystroke_a	a	n/a
156.8785	0.105	313757	keystroke_m	m	n/a
157.194	0.03	314388	keystroke_Key.space	Key.space	n/a
157.509	0.0895	315018	keystroke_p	p	n/a
157.809	0.105	315618	keystroke_i	i	n/a
158.0935	0.105	316187	keystroke_l	l	n/a
158.319	0.1045	316638	keystroke_l	l	n/a
158.619	0.1795	317238	keystroke_o	o	n/a
158.8135	0.151	317627	keystroke_w	w	n/a
160.283	0.1655	320566	keystroke_Key.enter	Key.enter	n/a
160.4595	16.297	320919	prompt	n/a	mature malta craig suggesting\n
161.3635	0.121	322727	keystroke_m	m	n/a
161.574	0.195	323148	keystroke_a	a	n/a
162.879	0.12	325758	keystroke_t	t	n/a
163.194	0.135	326388	keystroke_u	u	n/a
163.479	0.135	326958	keystroke_r	r	n/a
163.719	0.165	327438	keystroke_e	e	n/a
164.4835	0.15	328967	keystroke_n	n	n/a
165.399	0.135	330798	keystroke_Key.backspace	Key.backspace	n/a
165.984	0.105	331968	keystroke_Key.space	Key.space	n/a
166.854	0.12	333708	keystroke_m	m	n/a
167.169	0.135	334338	keystroke_a	a	n/a
167.4685	0.1655	334937	keystroke_l	l	n/a
168.2945	0.1495	336589	keystroke_t	t	n/a
168.669	0.15	337338	keystroke_a	a	n/a
169.418	0.12	338836	keystroke_Key.space	Key.space	n/a
170.124	0.195	340248	keystroke_c	c	n/a
170.5585	0.1055	341117	keystroke_r	r	n/a
170.829	0.165	341658	keystroke_a	a	n/a
171.069	0.12	342138	keystroke_i	i	n/a
171.309	0.12	342618	keystroke_g	g	n/a
172.164	0.12	344328	keystroke_Key.space	Key.space	n/a
172.4935	0.1505	344987	keystroke_s	s	n/a
172.7935	0.1055	345587	keystroke_u	u	n/a
173.094	0.09	346188	keystroke_g	g	n/a
173.3185	0.12	346637	keystroke_g	g	n/a
173.6185	0.12	347237	keystroke_e	e	n/a
173.889	0.165	347778	keystroke_s	s	n/a
174.8035	0.0905	349607	keystroke_t	t	n/a
175.179	0.105	350358	keystroke_i	i	n/a
175.464	0.106	350928	keystroke_n	n	n/a
175.704	0.15	351408	keystroke_g	g	n/a
176.6185	0.135	353237	keystroke_Key.enter	Key.enter	n/a
176.7625	17.4845	353525	prompt	n/a	technological permit kenneth knives\n
177.7585	0.1055	355517	keystroke_t	t	n/a
178.1035	0.1205	356207	keystroke_e	e	n/a
178.659	0.1345	357318	keystroke_c	c	n/a
178.959	0.1045	357918	keystroke_h	h	n/a
179.2885	0.1205	358577	keystroke_n	n	n/a
179.603	0.165	359206	keystroke_o	o	n/a
180.144	0.1345	360288	keystroke_l	l	n/a
180.474	0.1645	360948	keystroke_o	o	n/a
180.8635	0.1055	361727	keystroke_g	g	n/a
181.1185	0.105	362237	keystroke_i	i	n/a
181.4485	0.12	362897	keystroke_c	c	n/a
181.839	0.1195	363678	keystroke_a	a	n/a
182.1085	0.1355	364217	keystroke_l	l	n/a
182.5885	0.165	365177	keystroke_Key.space	Key.space	n/a
183.309	0.135	366618	keystroke_p	p	n/a
183.5485	0.165	367097	keystroke_e	e	n/a
183.849	0.1495	367698	keystroke_r	r	n/a
184.0735	0.105	368147	keystroke_m	m	n/a
184.329	0.1195	368658	keystroke_i	i	n/a
184.5685	0.1355	369137	keystroke_t	t	n/a
187.4355	0.103	374871	keystroke_Key.space	Key.space	n/a
187.974	0.1195	375948	keystroke_k	k	n/a
188.2285	0.135	376457	keystroke_e	e	n/a
188.4685	0.105	376937	keystroke_n	n	n/a
188.6935	0.105	377387	keystroke_n	n	n/a
188.8885	0.165	377777	keystroke_e	e	n/a
189.323	0.1205	378646	keystroke_t	t	n/a
189.5635	0.105	379127	keystroke_h	h	n/a
190.9585	0.1495	381917	keystroke_Key.space	Key.space	n/a
191.978	0.09	383956	keystroke_k	k	n/a
192.2045	0.1035	384409	keystroke_n	n	n/a
192.4735	0.135	384947	keystroke_i	i	n/a
192.698	0.136	385396	keystroke_v	v	n/a
192.954	0.1195	385908	keystroke_e	e	n/a
193.208	0.165	386416	keystroke_s	s	n/a
194.123	0.12	388246	keystroke_Key.enter	Key.enter	n/a
194.2525	15.383	388505	prompt	n/a	drives achieve radius licenses\n
195.1735	0.15	390347	keystroke_d	d	n/a
195.519	0.1195	391038	keystroke_r	r	n/a
195.728	0.1205	391456	keystroke_i	i	n/a
196.959	0.1345	393918	keystroke_v	v	n/a
197.348	0.1205	394696	keystroke_e	e	n/a
197.618	0.165	395236	keystroke_s	s	n/a
198.458	0.181	396916	keystroke_a	a	n/a
199.403	0.15	398806	keystroke_Key.backspace	Key.backspace	n/a
200.558	0.1355	401116	keystroke_Key.space	Key.space	n/a
200.888	0.15	401776	keystroke_a	a	n/a
201.2635	0.15	402527	keystroke_c	c	n/a
201.758	0.1205	403516	keystroke_h	h	n/a
201.998	0.1495	403996	keystroke_i	i	n/a
202.2085	0.135	404417	keystroke_e	e	n/a
202.5085	0.1355	405017	keystroke_v	v	n/a
202.808	0.166	405616	keystroke_e	e	n/a
203.1685	0.15	406337	keystroke_Key.space	Key.space	n/a
204.6985	0.105	409397	keystroke_r	r	n/a
204.9235	0.15	409847	keystroke_a	a	n/a
205.254	0.149	410508	keystroke_d	d	n/a
205.5385	0.1495	411077	keystroke_i	i	n/a
205.854	0.1495	411708	keystroke_u	u	n/a
206.123	0.1805	412246	keystroke_s	s	n/a
206.3935	0.1345	412787	keystroke_Key.space	Key.space	n/a
206.858	0.1655	413716	keystroke_l	l	n/a
207.188	0.1355	414376	keystroke_i	i	n/a
207.4735	0.135	414947	keystroke_c	c	n/a
207.818	0.12	415636	keystroke_e	e	n/a
208.044	0.1345	416088	keystroke_n	n	n/a
208.2835	0.1505	416567	keystroke_s	s	n/a
208.5685	0.135	417137	keystroke_e	e	n/a
208.839	0.165	417678	keystroke_s	s	n/a
209.513	0.12	419026	keystroke_Key.enter	Key.enter	n/a
209.641	30.415	419282	prompt	n/a	transcription sociology gossip veterinary\n
210.7135	0.1055	421427	keystroke_t	t	n/a
210.9985	0.1195	421997	keystroke_r	r	n/a
211.2535	0.15	422507	keystroke_a	a	n/a
211.4775	0.1065	422955	keystroke_n	n	n/a
211.7185	0.15	423437	keystroke_s	s	n/a
212.0335	0.18	424067	keystroke_c	c	n/a
213.249	0.119	426498	keystroke_r	r	n/a
213.578	0.136	427156	keystroke_i	i	n/a
213.8635	0.195	427727	keystroke_p	p	n/a
214.2835	0.1345	428567	keystroke_t	t	n/a
214.5085	0.1045	429017	keystroke_i	i	n/a
214.688	0.1655	429376	keystroke_o	o	n/a
215.0335	0.1205	430067	keystroke_n	n	n/a
215.7685	0.18	431537	keystroke_s	s	n/a
216.789	0.1345	433578	keystroke_Key.backspace	Key.backspace	n/a
217.2085	0.165	434417	keystroke_Key.space	Key.space	n/a
217.6135	0.165	435227	keystroke_s	s	n/a
217.9585	0.1805	435917	keystroke_o	o	n/a
218.244	0.18	436488	keystroke_c	c	n/a
218.544	0.15	437088	keystroke_i	i	n/a
218.814	0.164	437628	keystroke_o	o	n/a
219.158	0.1355	438316	keystroke_l	l	n/a
219.4585	0.1795	438917	keystroke_o	o	n/a
220.584	0.1195	441168	keystroke_g	g	n/a
220.8385	0.09	441677	keystroke_y	y	n/a
221.7085	0.06	443417	keystroke_g	g	n/a
222.6385	0.135	445277	keystroke_Key.backspace	Key.backspace	n/a
223.0285	0.1345	446057	keystroke_n	n	n/a
223.298	0.166	446596	keystroke_g	g	n/a
223.5385	0.1955	447077	keystroke_o	o	n/a
223.8385	0.09	447677	keystroke_s	s	n/a
224.0635	0.1205	448127	keystroke_s	s	n/a
224.244	0.1345	448488	keystroke_i	i	n/a
224.5435	0.165	449087	keystroke_p	p	n/a
225.564	0.089	451128	keystroke_Key.backspace	Key.backspace	n/a
225.773	0.076	451546	keystroke_Key.backspace	Key.backspace	n/a
225.968	0.0605	451936	keystroke_Key.backspace	Key.backspace	n/a
226.149	0.06	452298	keystroke_Key.backspace	Key.backspace	n/a
226.3285	0.075	452657	keystroke_Key.backspace	Key.backspace	n/a
226.779	0.105	453558	keystroke_Key.backspace	Key.backspace	n/a
227.0035	0.105	454007	keystroke_Key.backspace	Key.backspace	n/a
227.754	0.165	455508	keystroke_n	n	n/a
228.113	0.105	456226	keystroke_g	g	n/a
228.369	0.1795	456738	keystroke_o	o	n/a
228.6385	0.0595	457277	keystroke_s	s	n/a
228.849	0.1195	457698	keystroke_s	s	n/a
229.7185	0.09	459437	keystroke_Key.backspace	Key.backspace	n/a
229.944	0.0745	459888	keystroke_Key.backspace	Key.backspace	n/a
230.1835	0.075	460367	keystroke_Key.backspace	Key.backspace	n/a
230.4685	0.0895	460937	keystroke_Key.backspace	Key.backspace	n/a
230.7835	0.0755	461567	keystroke_Key.backspace	Key.backspace	n/a
231.5785	0.1645	463157	keystroke_Key.space	Key.space	n/a
232.329	0.1345	464658	keystroke_g	g	n/a
232.6285	0.15	465257	keystroke_o	o	n/a
233.018	0.0905	466036	keystroke_s	s	n/a
233.258	0.121	466516	keystroke_s	s	n/a
233.454	0.104	466908	keystroke_i	i	n/a
233.724	0.165	467448	keystroke_p	p	n/a
234.324	0.134	468648	keystroke_Key.space	Key.space	n/a
235.029	0.119	470058	keystroke_v	v	n/a
235.344	0.134	470688	keystroke_e	e	n/a
236.784	0.105	473568	keystroke_t	t	n/a
237.0985	0.1795	474197	keystroke_e	e	n/a
237.4145	0.134	474829	keystroke_r	r	n/a
237.6985	0.135	475397	keystroke_i	i	n/a
238.0135	0.12	476027	keystroke_n	n	n/a
238.269	0.1495	476538	keystroke_a	a	n/a
238.584	0.135	477168	keystroke_r	r	n/a
238.884	0.105	477768	keystroke_y	y	n/a
239.904	0.1495	479808	keystroke_Key.enter	Key.enter	n/a
240.0615	19.525	480123	prompt	n/a	beans precipitation messages vary\n
241.0585	0.09	482117	keystroke_b	b	n/a
241.4035	0.1205	482807	keystroke_e	e	n/a
241.6735	0.1355	483347	keystroke_a	a	n/a
241.839	0.09	483678	keystroke_n	n	n/a
242.079	0.135	484158	keystroke_s	s	n/a
242.709	0.18	485418	keystroke_Key.space	Key.space	n/a
243.3085	0.1355	486617	keystroke_p	p	n/a
243.594	0.135	487188	keystroke_r	r	n/a
243.834	0.12	487668	keystroke_e	e	n/a
246.19	0.059	492380	keystroke_c	c	n/a
246.444	0.135	492888	keystroke_i	i	n/a
246.789	0.1495	493578	keystroke_p	p	n/a
247.103	0.12	494206	keystroke_i	i	n/a
247.373	0.1055	494746	keystroke_t	t	n/a
247.644	0.18	495288	keystroke_a	a	n/a
248.0195	0.1045	496039	keystroke_t	t	n/a
248.199	0.135	496398	keystroke_i	i	n/a
248.409	0.15	496818	keystroke_o	o	n/a
248.724	0.105	497448	keystroke_n	n	n/a
249.099	0.1645	498198	keystroke_Key.space	Key.space	n/a
249.429	0.135	498858	keystroke_m	m	n/a
249.699	0.15	499398	keystroke_e	e	n/a
250.149	0.105	500298	keystroke_s	s	n/a
250.389	0.105	500778	keystroke_s	s	n/a
250.659	0.119	501318	keystroke_a	a	n/a
251.814	0.12	503628	keystroke_g	g	n/a
252.099	0.12	504198	keystroke_e	e	n/a
252.3535	0.1505	504707	keystroke_s	s	n/a
253.3285	0.15	506657	keystroke_v	v	n/a
254.3785	0.15	508757	keystroke_Key.backspace	Key.backspace	n/a
254.994	0.1495	509988	keystroke_v	v	n/a
255.2635	0.165	510527	keystroke_a	a	n/a
255.5945	0.134	511189	keystroke_r	r	n/a
256.3435	0.12	512687	keystroke_Key.backspace	Key.backspace	n/a
256.5835	0.09	513167	keystroke_Key.backspace	Key.backspace	n/a
257.079	0.1195	514158	keystroke_Key.backspace	Key.backspace	n/a
257.6035	0.135	515207	keystroke_Key.space	Key.space	n/a
257.9335	0.135	515867	keystroke_v	v	n/a
258.1885	0.1655	516377	keystroke_a	a	n/a
258.504	0.15	517008	keystroke_r	r	n/a
258.759	0.105	517518	keystroke_y	y	n/a
259.419	0.165	518838	keystroke_Key.enter	Key.enter	n/a
259.592	12.069	519184	prompt	n/a	bias accurately deborah utils\n
260.934	0.1795	521868	keystroke_b	b	n/a
261.249	0.1205	522498	keystroke_i	i	n/a
261.4735	0.1505	522947	keystroke_a	a	n/a
261.759	0.15	523518	keystroke_s	s	n/a
262.043	0.1655	524086	keystroke_Key.space	Key.space	n/a
262.3445	0.164	524689	keystroke_a	a	n/a
262.749	0.1195	525498	keystroke_c	c	n/a
263.0045	0.104	526009	keystroke_c	c	n/a
263.469	0.135	526938	keystroke_u	u	n/a
263.7235	0.105	527447	keystroke_r	r	n/a
263.9785	0.1805	527957	keystroke_a	a	n/a
264.3095	0.1045	528619	keystroke_t	t	n/a
264.5645	0.1645	529129	keystroke_e	e	n/a
264.8785	0.15	529757	keystroke_l	l	n/a
265.2985	0.12	530597	keystroke_y	y	n/a
265.629	0.1645	531258	keystroke_Key.space	Key.space	n/a
265.914	0.12	531828	keystroke_d	d	n/a
266.199	0.135	532398	keystroke_e	e	n/a
267.0535	0.165	534107	keystroke_b	b	n/a
267.4435	0.15	534887	keystroke_o	o	n/a
267.7145	0.1195	535429	keystroke_r	r	n/a
267.999	0.1505	535998	keystroke_a	a	n/a
268.284	0.105	536568	keystroke_h	h	n/a
268.689	0.15	537378	keystroke_Key.space	Key.space	n/a
269.2285	0.12	538457	keystroke_u	u	n/a
269.979	0.135	539958	keystroke_t	t	n/a
270.204	0.0895	540408	keystroke_i	i	n/a
270.4735	0.15	540947	keystroke_l	l	n/a
270.744	0.1495	541488	keystroke_s	s	n/a
271.4935	0.165	542987	keystroke_Key.enter	Key.enter	n/a
271.666	25.7805	543332	prompt	n/a	erik surplus representatives windows\n
272.844	0.18	545688	keystroke_e	e	n/a
273.174	0.135	546348	keystroke_r	r	n/a
273.429	0.12	546858	keystroke_i	i	n/a
273.924	0.135	547848	keystroke_k	k	n/a
274.359	0.15	548718	keystroke_Key.space	Key.space	n/a
275.214	0.135	550428	keystroke_s	s	n/a
275.513	0.135	551026	keystroke_u	u	n/a
276.819	0.135	553638	keystroke_r	r	n/a
277.224	0.1805	554448	keystroke_p	p	n/a
278.079	0.164	556158	keystroke_l	l	n/a
278.409	0.15	556818	keystroke_u	u	n/a
278.664	0.15	557328	keystroke_s	s	n/a
279.6535	0.18	559307	keystroke_Key.space	Key.space	n/a
280.0285	0.135	560057	keystroke_r	r	n/a
280.2535	0.1655	560507	keystroke_e	e	n/a
280.944	0.24	561888	keystroke_p	p	n/a
281.364	0.18	562728	keystroke_r	r	n/a
281.649	0.165	563298	keystroke_e	e	n/a
282.0385	0.18	564077	keystroke_s	s	n/a
282.3985	0.1805	564797	keystroke_e	e	n/a
282.714	0.135	565428	keystroke_n	n	n/a
284.5585	0.1655	569117	keystroke_t	t	n/a
284.919	0.165	569838	keystroke_a	a	n/a
285.2785	0.135	570557	keystroke_t	t	n/a
285.549	0.1505	571098	keystroke_i	i	n/a
285.8185	0.151	571637	keystroke_v	v	n/a
286.809	0.165	573618	keystroke_e	e	n/a
287.1235	0.1955	574247	keystroke_s	s	n/a
289.871	0.088	579742	keystroke_n	n	n/a
290.154	0.15	580308	keystroke_w	w	n/a
290.454	0.12	580908	keystroke_i	i	n/a
290.694	0.135	581388	keystroke_n	n	n/a
290.933	0.181	581866	keystroke_d	d	n/a
291.129	0.1955	582258	keystroke_o	o	n/a
292.4785	0.1055	584957	keystroke_Key.backspace	Key.backspace	n/a
292.6885	0.09	585377	keystroke_Key.backspace	Key.backspace	n/a
292.899	0.0595	585798	keystroke_Key.backspace	Key.backspace	n/a
293.0635	0.09	586127	keystroke_Key.backspace	Key.backspace	n/a
293.4685	0.12	586937	keystroke_Key.backspace	Key.backspace	n/a
293.859	0.1045	587718	keystroke_Key.backspace	Key.backspace	n/a
294.444	0.165	588888	keystroke_Key.space	Key.space	n/a
294.834	0.15	589668	keystroke_w	w	n/a
295.0885	0.105	590177	keystroke_i	i	n/a
295.3285	0.136	590657	keystroke_n	n	n/a
295.554	0.165	591108	keystroke_d	d	n/a
295.779	0.1795	591558	keystroke_o	o	n/a
296.0485	0.1205	592097	keystroke_w	w	n/a
296.334	0.15	592668	keystroke_s	s	n/a
297.2935	0.1505	594587	keystroke_Key.enter	Key.enter	n/a
297.4515	20.9035	594903	prompt	n/a	segments civilian acquisition visitor\n
298.3135	0.121	596627	keystroke_s	s	n/a
298.583	0.166	597166	keystroke_e	e	n/a
299.079	0.135	598158	keystroke_g	g	n/a
299.379	0.135	598758	keystroke_m	m	n/a
299.6335	0.1505	599267	keystroke_e	e	n/a
299.814	0.1655	599628	keystroke_n	n	n/a
302.1715	0.0725	604343	keystroke_t	t	n/a
302.5895	0.1645	605179	keystroke_s	s	n/a
303.2335	0.1805	606467	keystroke_n	n	n/a
305.486	0.343	610972	keystroke_Key.backspace	Key.backspace	n/a
306.264	0.195	612528	keystroke_Key.space	Key.space	n/a
307.1035	0.165	614207	keystroke_c	c	n/a
307.449	0.1195	614898	keystroke_i	i	n/a
307.7185	0.165	615437	keystroke_v	v	n/a
308.004	0.105	616008	keystroke_i	i	n/a
308.634	0.15	617268	keystroke_l	l	n/a
308.9645	0.149	617929	keystroke_i	i	n/a
309.1885	0.151	618377	keystroke_a	a	n/a
310.374	0.119	620748	keystroke_n	n	n/a
310.673	0.182	621346	keystroke_Key.space	Key.space	n/a
310.914	0.15	621828	keystroke_a	a	n/a
311.214	0.1645	622428	keystroke_c	c	n/a
311.6935	0.15	623387	keystroke_q	q	n/a
311.9635	0.1205	623927	keystroke_u	u	n/a
312.818	0.121	625636	keystroke_i	i	n/a
313.164	0.15	626328	keystroke_s	s	n/a
313.3885	0.1205	626777	keystroke_i	i	n/a
313.853	0.121	627706	keystroke_t	t	n/a
314.078	0.106	628156	keystroke_i	i	n/a
314.273	0.15	628546	keystroke_o	o	n/a
314.6025	0.1355	629205	keystroke_n	n	n/a
315.068	0.165	630136	keystroke_Key.space	Key.space	n/a
315.5635	0.1055	631127	keystroke_v	v	n/a
315.7585	0.12	631517	keystroke_i	i	n/a
315.9685	0.1805	631937	keystroke_s	s	n/a
316.163	0.121	632326	keystroke_i	i	n/a
316.718	0.12	633436	keystroke_t	t	n/a
317.033	0.165	634066	keystroke_o	o	n/a
317.348	0.1655	634696	keystroke_r	r	n/a
318.203	0.15	636406	keystroke_Key.enter	Key.enter	n/a
318.361	36.67	636722	prompt	n/a	border graphical construction mean\n
319.8985	0.1505	639797	keystroke_b	b	n/a
320.169	0.165	640338	keystroke_o	o	n/a
320.424	0.135	640848	keystroke_r	r	n/a
320.7535	0.12	641507	keystroke_d	d	n/a
321.0235	0.165	642047	keystroke_e	e	n/a
322.134	0.1195	644268	keystroke_r	r	n/a
322.4035	0.119	644807	keystroke_n	n	n/a
322.6275	0.105	645255	keystroke_g	g	n/a
322.899	0.119	645798	keystroke_r	r	n/a
323.1385	0.18	646277	keystroke_a	a	n/a
323.334	0.134	646668	keystroke_p	p	n/a
323.5735	0.12	647147	keystroke_h	h	n/a
323.8285	0.135	647657	keystroke_i	i	n/a
324.0835	0.135	648167	keystroke_c	c	n/a
324.398	0.1505	648796	keystroke_a	a	n/a
324.608	0.1355	649216	keystroke_l	l	n/a
331.6205	0.112	663241	keystroke_Key.backspace	Key.backspace	n/a
333.5205	0.073	667041	keystroke_Key.space	Key.space	n/a
336.7455	0.0435	673491	keystroke_Key.backspace	Key.backspace	n/a
338.1385	0.1355	676277	keystroke_r	r	n/a
338.4235	0.12	676847	keystroke_Key.space	Key.space	n/a
342.0835	0.068	684167	keystroke_Key.backspace	Key.backspace	n/a
346.8405	0.103	693681	keystroke_Key.space	Key.space	n/a
347.1235	0.1355	694247	keystroke_c	c	n/a
347.394	0.165	694788	keystroke_o	o	n/a
347.6495	0.15	695299	keystroke_n	n	n/a
347.874	0.195	695748	keystroke_s	s	n/a
348.279	0.09	696558	keystroke_t	t	n/a
348.534	0.12	697068	keystroke_r	r	n/a
348.774	0.105	697548	keystroke_u	u	n/a
349.044	0.1645	698088	keystroke_c	c	n/a
350.4985	0.091	700997	keystroke_t	t	n/a
350.904	0.135	701808	keystroke_i	i	n/a
351.114	0.135	702228	keystroke_o	o	n/a
351.384	0.1345	702768	keystroke_n	n	n/a
352.6435	0.1205	705287	keystroke_Key.space	Key.space	n/a
353.0045	0.135	706009	keystroke_m	m	n/a
353.2135	0.1205	706427	keystroke_e	e	n/a
353.499	0.15	706998	keystroke_a	a	n/a
353.664	0.075	707328	keystroke_n	n	n/a
354.909	0.12	709818	keystroke_Key.enter	Key.enter	n/a
355.036	19.765	710072	prompt	n/a	parents abroad thailand opponents\n
356.094	0.165	712188	keystroke_p	p	n/a
356.274	0.165	712548	keystroke_a	a	n/a
356.649	0.15	713298	keystroke_r	r	n/a
356.8885	0.1805	713777	keystroke_e	e	n/a
357.099	0.1055	714198	keystroke_n	n	n/a
357.354	0.12	714708	keystroke_t	t	n/a
357.669	0.165	715338	keystroke_s	s	n/a
359.3035	0.165	718607	keystroke_Key.space	Key.space	n/a
359.6185	0.15	719237	keystroke_a	a	n/a
359.9495	0.12	719899	keystroke_b	b	n/a
360.309	0.135	720618	keystroke_r	r	n/a
360.519	0.165	721038	keystroke_o	o	n/a
360.7435	0.1355	721487	keystroke_a	a	n/a
361.044	0.18	722088	keystroke_d	d	n/a
362.964	0.149	725928	keystroke_Key.space	Key.space	n/a
363.369	0.105	726738	keystroke_t	t	n/a
364.4785	0.12	728957	keystroke_h	h	n/a
364.7935	0.151	729587	keystroke_a	a	n/a
365.124	0.1505	730248	keystroke_i	i	n/a
365.484	0.165	730968	keystroke_l	l	n/a
365.769	0.105	731538	keystroke_a	a	n/a
365.979	0.12	731958	keystroke_n	n	n/a
366.25	0.149	732500	keystroke_d	d	n/a
367.2995	0.149	734599	keystroke_Key.space	Key.space	n/a
368.094	0.1805	736188	keystroke_o	o	n/a
368.454	0.105	736908	keystroke_p	p	n/a
368.754	0.12	737508	keystroke_p	p	n/a
369.024	0.15	738048	keystroke_o	o	n/a
369.6095	0.105	739219	keystroke_n	n	n/a
370.2535	0.1505	740507	keystroke_e	e	n/a
370.554	0.0895	741108	keystroke_n	n	n/a
370.839	0.0905	741678	keystroke_t	t	n/a
371.1685	0.1205	742337	keystroke_s	s	n/a
374.7405	0.0585	749481	keystroke_Key.enter	Key.enter	n/a
374.8075	20.214	749615	prompt	n/a	investigator characterized configuration gene\n
376.059	0.1205	752118	keystroke_i	i	n/a
376.3285	0.106	752657	keystroke_n	n	n/a
376.599	0.105	753198	keystroke_v	v	n/a
376.8545	0.135	753709	keystroke_e	e	n/a
377.1385	0.1805	754277	keystroke_s	s	n/a
377.6195	0.12	755239	keystroke_t	t	n/a
377.9635	0.016	755927	keystroke_i	i	n/a
378.0995	0.09	756199	keystroke_g	g	n/a
378.3685	0.1655	756737	keystroke_a	a	n/a
378.7585	0.12	757517	keystroke_t	t	n/a
379.0745	0.1795	758149	keystroke_o	o	n/a
379.389	0.105	758778	keystroke_r	r	n/a
379.9885	0.135	759977	keystroke_Key.space	Key.space	n/a
381.234	0.165	762468	keystroke_c	c	n/a
382.059	0.12	764118	keystroke_h	h	n/a
382.33	0.164	764660	keystroke_a	a	n/a
382.7185	0.1055	765437	keystroke_r	r	n/a
383.604	0.075	767208	keystroke_a	a	n/a
384.1145	0.15	768229	keystroke_c	c	n/a
384.6085	0.1205	769217	keystroke_t	t	n/a
385.014	0.135	770028	keystroke_e	e	n/a
385.344	0.105	770688	keystroke_r	r	n/a
385.584	0.105	771168	keystroke_i	i	n/a
386.559	0.1965	773118	keystroke_z	z	n/a
387.009	0.105	774018	keystroke_e	e	n/a
387.279	0.135	774558	keystroke_d	d	n/a
388.4485	0.15	776897	keystroke_Key.space	Key.space	n/a
389.0495	0.18	778099	keystroke_c	c	n/a
389.3945	0.135	778789	keystroke_o	o	n/a
389.6495	0.1345	779299	keystroke_n	n	n/a
389.9195	0.135	779839	keystroke_f	f	n/a
390.144	0.0905	780288	keystroke_i	i	n/a
390.4285	0.136	780857	keystroke_g	g	n/a
390.6985	0.091	781397	keystroke_u	u	n/a
390.984	0.1205	781968	keystroke_r	r	n/a
391.374	0.18	782748	keystroke_a	a	n/a
391.779	0.1205	783558	keystroke_t	t	n/a
392.004	0.105	784008	keystroke_i	i	n/a
392.214	0.135	784428	keystroke_o	o	n/a
392.499	0.12	784998	keystroke_n	n	n/a
392.8895	0.18	785779	keystroke_Key.space	Key.space	n/a
393.4145	0.1495	786829	keystroke_g	g	n/a
393.7135	0.1355	787427	keystroke_e	e	n/a
393.8945	0.105	787789	keystroke_n	n	n/a
394.0895	0.12	788179	keystroke_e	e	n/a
394.8995	0.12	789799	keystroke_Key.enter	Key.enter	n/a
395.028	14.2285	790056	prompt	n/a	trades wonder styles vacation\n
395.9945	0.1045	791989	keystroke_t	t	n/a
396.2495	0.12	792499	keystroke_r	r	n/a
396.474	0.135	792948	keystroke_a	a	n/a
396.7745	0.1345	793549	keystroke_d	d	n/a
397.0285	0.1505	794057	keystroke_e	e	n/a
397.314	0.18	794628	keystroke_s	s	n/a
399.0095	0.1795	798019	keystroke_Key.space	Key.space	n/a
399.4285	0.15	798857	keystroke_w	w	n/a
399.6845	0.149	799369	keystroke_o	o	n/a
399.9095	0.1195	799819	keystroke_n	n	n/a
400.0745	0.12	800149	keystroke_d	d	n/a
400.3285	0.18	800657	keystroke_e	e	n/a
400.6295	0.15	801259	keystroke_r	r	n/a
402.429	0.09	804858	keystroke_Key.space	Key.space	n/a
402.834	0.1655	805668	keystroke_s	s	n/a
403.269	0.12	806538	keystroke_t	t	n/a
403.4645	0.12	806929	keystroke_y	y	n/a
403.8545	0.1495	807709	keystroke_l	l	n/a
404.0645	0.1345	808129	keystroke_e	e	n/a
404.334	0.1645	808668	keystroke_s	s	n/a
405.2335	0.165	810467	keystroke_Key.space	Key.space	n/a
406.269	0.1505	812538	keystroke_v	v	n/a
406.539	0.12	813078	keystroke_a	a	n/a
406.824	0.135	813648	keystroke_c	c	n/a
407.109	0.15	814218	keystroke_a	a	n/a
407.4535	0.136	814907	keystroke_t	t	n/a
407.7395	0.12	815479	keystroke_i	i	n/a
407.9195	0.15	815839	keystroke_o	o	n/a
408.2045	0.149	816409	keystroke_n	n	n/a
409.119	0.1355	818238	keystroke_Key.enter	Key.enter	n/a
409.2705	15.4655	818541	prompt	n/a	radar investigations seeing atlantic\n
410.379	0.12	820758	keystroke_r	r	n/a
410.664	0.1355	821328	keystroke_a	a	n/a
411.0695	0.135	822139	keystroke_d	d	n/a
411.4595	0.12	822919	keystroke_a	a	n/a
411.819	0.12	823638	keystroke_r	r	n/a
412.3145	0.1495	824629	keystroke_Key.space	Key.space	n/a
413.379	0.135	826758	keystroke_i	i	n/a
413.6945	0.1495	827389	keystroke_n	n	n/a
414.0095	0.1345	828019	keystroke_v	v	n/a
414.294	0.1355	828588	keystroke_e	e	n/a
414.5945	0.165	829189	keystroke_s	s	n/a
415.1035	0.121	830207	keystroke_t	t	n/a
415.3895	0.1345	830779	keystroke_i	i	n/a
415.734	0.1205	831468	keystroke_g	g	n/a
416.0335	0.136	832067	keystroke_a	a	n/a
416.4245	0.119	832849	keystroke_t	t	n/a
416.7695	0.135	833539	keystroke_i	i	n/a
417.0245	0.1345	834049	keystroke_o	o	n/a
417.294	0.1355	834588	keystroke_n	n	n/a
417.5645	0.165	835129	keystroke_s	s	n/a
417.849	0.165	835698	keystroke_Key.space	Key.space	n/a
418.1945	0.1495	836389	keystroke_s	s	n/a
418.539	0.12	837078	keystroke_e	e	n/a
418.764	0.135	837528	keystroke_e	e	n/a
419.004	0.12	838008	keystroke_i	i	n/a
419.275	0.104	838550	keystroke_n	n	n/a
420.5345	0.12	841069	keystroke_g	g	n/a
420.9085	0.1205	841817	keystroke_Key.space	Key.space	n/a
421.224	0.165	842448	keystroke_a	a	n/a
421.629	0.09	843258	keystroke_t	t	n/a
422.125	0.1495	844250	keystroke_l	l	n/a
422.394	0.1505	844788	keystroke_a	a	n/a
422.5585	0.106	845117	keystroke_n	n	n/a
422.8295	0.104	845659	keystroke_t	t	n/a
423.0395	0.1195	846079	keystroke_i	i	n/a
423.804	0.135	847608	keystroke_c	c	n/a
424.584	0.1505	849168	keystroke_Key.enter	Key.enter	n/a
424.741	19.9	849482	prompt	n/a	triumph asthma hawaiian stockholm\n
426.5945	0.105	853189	keystroke_t	t	n/a
426.8495	0.09	853699	keystroke_r	r	n/a
427.1195	0.15	854239	keystroke_i	i	n/a
427.4045	0.09	854809	keystroke_u	u	n/a
429.264	0.1655	858528	keystroke_m	m	n/a
430.0895	0.195	860179	keystroke_p	p	n/a
430.5095	0.06	861019	keystroke_h	h	n/a
431.9935	0.136	863987	keystroke_Key.space	Key.space	n/a
432.9545	0.15	865909	keystroke_a	a	n/a
433.2845	0.165	866569	keystroke_s	s	n/a
433.989	0.135	867978	keystroke_t	t	n/a
434.199	0.09	868398	keystroke_h	h	n/a
434.5595	0.1195	869119	keystroke_m	m	n/a
434.784	0.1355	869568	keystroke_a	a	n/a
435.1445	0.165	870289	keystroke_Key.space	Key.space	n/a
435.759	0.12	871518	keystroke_h	h	n/a
435.9695	0.135	871939	keystroke_a	a	n/a
436.3145	0.12	872629	keystroke_w	w	n/a
436.5845	0.165	873169	keystroke_a	a	n/a
436.8395	0.105	873679	keystroke_i	i	n/a
437.079	0.12	874158	keystroke_i	i	n/a
437.394	0.1505	874788	keystroke_a	a	n/a
437.6195	0.1195	875239	keystroke_n	n	n/a
438.8035	0.166	877607	keystroke_Key.space	Key.space	n/a
439.104	0.1795	878208	keystroke_s	s	n/a
439.539	0.12	879078	keystroke_t	t	n/a
439.764	0.165	879528	keystroke_o	o	n/a
440.079	0.1505	880158	keystroke_c	c	n/a
440.244	0.135	880488	keystroke_k	k	n/a
440.574	0.1045	881148	keystroke_h	h	n/a
440.859	0.12	881718	keystroke_o	o	n/a
441.609	0.1655	883218	keystroke_l	l	n/a
441.924	0.1205	883848	keystroke_m	m	n/a
444.5665	0.073	889133	keystroke_Key.enter	Key.enter	n/a
444.6465	16.8245	889293	prompt	n/a	mins bradford morocco necessary\n
445.899	0.1355	891798	keystroke_m	m	n/a
446.184	0.075	892368	keystroke_i	i	n/a
446.364	0.12	892728	keystroke_n	n	n/a
446.62	0.1795	893240	keystroke_s	s	n/a
447.774	0.165	895548	keystroke_Key.space	Key.space	n/a
448.5995	0.15	897199	keystroke_b	b	n/a
449.0645	0.1195	898129	keystroke_r	r	n/a
449.2895	0.12	898579	keystroke_a	a	n/a
449.545	0.239	899090	keystroke_d	d	n/a
450.5195	0.0895	901039	keystroke_f	f	n/a
450.6995	0.1645	901399	keystroke_o	o	n/a
450.9695	0.12	901939	keystroke_r	r	n/a
451.269	0.165	902538	keystroke_d	d	n/a
451.5545	0.105	903109	keystroke_n	n	n/a
452.6495	0.135	905299	keystroke_Key.backspace	Key.backspace	n/a
453.1445	0.1345	906289	keystroke_n	n	n/a
453.954	0.1655	907908	keystroke_Key.backspace	Key.backspace	n/a
454.524	0.1505	909048	keystroke_Key.space	Key.space	n/a
454.974	0.091	909948	keystroke_m	m	n/a
455.26	0.1335	910520	keystroke_o	o	n/a
455.589	0.12	911178	keystroke_r	r	n/a
455.829	0.1355	911658	keystroke_o	o	n/a
456.1445	0.0895	912289	keystroke_c	c	n/a
456.355	0.134	912710	keystroke_c	c	n/a
456.594	0.15	913188	keystroke_o	o	n/a
457.4345	0.1345	914869	keystroke_Key.space	Key.space	n/a
457.8395	0.1045	915679	keystroke_n	n	n/a
458.0645	0.09	916129	keystroke_e	e	n/a
458.4245	0.12	916849	keystroke_c	c	n/a
458.725	0.1795	917450	keystroke_e	e	n/a
459.0845	0.12	918169	keystroke_s	s	n/a
459.3395	0.1205	918679	keystroke_s	s	n/a
459.6695	0.1645	919339	keystroke_a	a	n/a
460.134	0.105	920268	keystroke_r	r	n/a
460.5245	0.135	921049	keystroke_y	y	n/a
461.3345	0.135	922669	keystroke_Key.enter	Key.enter	n/a
461.476	15.266	922952	prompt	n/a	translations guinea junction louise\n
463.134	0.1205	926268	keystroke_t	t	n/a
463.4795	0.135	926959	keystroke_r	r	n/a
463.794	0.1505	927588	keystroke_a	a	n/a
464.095	0.1045	928190	keystroke_n	n	n/a
464.3195	0.15	928639	keystroke_s	s	n/a
465.31	0.1495	930620	keystroke_l	l	n/a
465.4895	0.18	930979	keystroke_a	a	n/a
465.9095	0.12	931819	keystroke_t	t	n/a
466.1045	0.105	932209	keystroke_i	i	n/a
466.2995	0.12	932599	keystroke_o	o	n/a
466.539	0.1205	933078	keystroke_n	n	n/a
466.764	0.166	933528	keystroke_s	s	n/a
467.409	0.135	934818	keystroke_Key.space	Key.space	n/a
467.7845	0.135	935569	keystroke_g	g	n/a
468.0845	0.1195	936169	keystroke_u	u	n/a
468.3245	0.1055	936649	keystroke_i	i	n/a
468.6095	0.105	937219	keystroke_n	n	n/a
468.88	0.1195	937760	keystroke_e	e	n/a
469.1645	0.1345	938329	keystroke_a	a	n/a
470.0645	0.165	940129	keystroke_Key.space	Key.space	n/a
470.4995	0.09	940999	keystroke_j	j	n/a
470.7395	0.075	941479	keystroke_u	u	n/a
470.9795	0.1045	941959	keystroke_n	n	n/a
471.3695	0.209	942739	keystroke_c	c	n/a
471.8345	0.12	943669	keystroke_t	t	n/a
471.9835	0.106	943967	keystroke_i	i	n/a
472.1935	0.105	944387	keystroke_o	o	n/a
472.4785	0.106	944957	keystroke_n	n	n/a
473.019	0.1055	946038	keystroke_Key.space	Key.space	n/a
473.7095	0.12	947419	keystroke_l	l	n/a
474.024	0.135	948048	keystroke_o	o	n/a
474.3095	0.09	948619	keystroke_u	u	n/a
475.0895	0.135	950179	keystroke_i	i	n/a
475.4495	0.12	950899	keystroke_s	s	n/a
475.749	0.165	951498	keystroke_e	e	n/a
476.649	0.0905	953298	keystroke_Key.enter	Key.enter	n/a
476.747	14.514	953494	prompt	n/a	pursuit couples humanitarian contract\n
477.9095	0.1495	955819	keystroke_p	p	n/a
478.254	0.0755	956508	keystroke_u	u	n/a
478.5845	0.135	957169	keystroke_r	r	n/a
478.974	0.1505	957948	keystroke_s	s	n/a
479.1695	0.09	958339	keystroke_u	u	n/a
479.4245	0.1045	958849	keystroke_i	i	n/a
479.7395	0.1195	959479	keystroke_t	t	n/a
480.144	0.15	960288	keystroke_Key.space	Key.space	n/a
480.684	0.165	961368	keystroke_c	c	n/a
480.9995	0.27	961999	keystroke_o	o	n/a
481.2545	0.15	962509	keystroke_u	u	n/a
481.5995	0.1645	963199	keystroke_p	p	n/a
481.929	0.1805	963858	keystroke_l	l	n/a
482.139	0.135	964278	keystroke_e	e	n/a
482.3935	0.1805	964787	keystroke_s	s	n/a
482.919	0.135	965838	keystroke_Key.space	Key.space	n/a
483.5785	0.091	967157	keystroke_h	h	n/a
483.8495	0.0745	967699	keystroke_u	u	n/a
484.164	0.1045	968328	keystroke_m	m	n/a
484.435	0.135	968870	keystroke_a	a	n/a
484.6445	0.1205	969289	keystroke_n	n	n/a
484.959	0.105	969918	keystroke_i	i	n/a
485.349	0.12	970698	keystroke_t	t	n/a
486.295	0.179	972590	keystroke_a	a	n/a
486.6545	0.1355	973309	keystroke_r	r	n/a
486.9245	0.105	973849	keystroke_i	i	n/a
487.1645	0.15	974329	keystroke_a	a	n/a
487.4195	0.1205	974839	keystroke_n	n	n/a
488.004	0.12	976008	keystroke_Key.space	Key.space	n/a
488.41	0.1645	976820	keystroke_c	c	n/a
488.6495	0.135	977299	keystroke_o	o	n/a
488.9045	0.105	977809	keystroke_n	n	n/a
489.235	0.105	978470	keystroke_t	t	n/a
489.52	0.104	979040	keystroke_r	r	n/a
489.774	0.151	979548	keystroke_a	a	n/a
490.134	0.166	980268	keystroke_c	c	n/a
490.585	0.119	981170	keystroke_t	t	n/a
491.1395	0.12	982279	keystroke_Key.enter	Key.enter	n/a
491.267	10.5705	982534	prompt	n/a	fake once dallas succeed\n
492.22	0.149	984440	keystroke_f	f	n/a
493.1645	0.135	986329	keystroke_a	a	n/a
493.45	0.1195	986900	keystroke_k	k	n/a
493.6445	0.135	987289	keystroke_e	e	n/a
494.4845	0.12	988969	keystroke_Key.space	Key.space	n/a
495.2045	0.1355	990409	keystroke_o	o	n/a
495.505	0.1045	991010	keystroke_n	n	n/a
495.744	0.12	991488	keystroke_c	c	n/a
496.06	0.134	992120	keystroke_e	e	n/a
496.4645	0.1195	992929	keystroke_Key.space	Key.space	n/a
496.8095	0.1345	993619	keystroke_d	d	n/a
497.125	0.105	994250	keystroke_a	a	n/a
497.8445	0.1055	995689	keystroke_l	l	n/a
498.0845	0.105	996169	keystroke_l	l	n/a
498.2795	0.1355	996559	keystroke_a	a	n/a
498.5945	0.1355	997189	keystroke_s	s	n/a
498.8945	0.1195	997789	keystroke_Key.space	Key.space	n/a
499.239	0.105	998478	keystroke_s	s	n/a
499.6895	0.09	999379	keystroke_u	u	n/a
499.915	0.0895	999830	keystroke_c	c	n/a
500.1395	0.0755	1000279	keystroke_c	c	n/a
500.514	0.12	1001028	keystroke_e	e	n/a
500.754	0.106	1001508	keystroke_e	e	n/a
501.055	0.1045	1002110	keystroke_d	d	n/a
501.7145	0.12	1003429	keystroke_Key.enter	Key.enter	n/a
501.843	15.309	1003686	prompt	n/a	hammer voyuer meditation peter\n
502.9295	0.1055	1005859	keystroke_h	h	n/a
503.2	0.135	1006400	keystroke_a	a	n/a
503.455	0.06	1006910	keystroke_m	m	n/a
503.65	0.075	1007300	keystroke_m	m	n/a
503.875	0.1495	1007750	keystroke_e	e	n/a
505.21	0.105	1010420	keystroke_r	r	n/a
505.599	0.1055	1011198	keystroke_Key.space	Key.space	n/a
506.6805	0.104	1013361	keystroke_v	v	n/a
506.965	0.1795	1013930	keystroke_o	o	n/a
508.135	0.105	1016270	keystroke_y	y	n/a
508.645	0.105	1017290	keystroke_u	u	n/a
508.9445	0.1355	1017889	keystroke_e	e	n/a
509.3195	0.12	1018639	keystroke_r	r	n/a
509.89	0.135	1019780	keystroke_Key.space	Key.space	n/a
510.235	0.075	1020470	keystroke_m	m	n/a
510.445	0.104	1020890	keystroke_e	e	n/a
510.7145	0.1505	1021429	keystroke_d	d	n/a
510.924	0.1205	1021848	keystroke_i	i	n/a
511.255	0.104	1022510	keystroke_t	t	n/a
511.599	0.1515	1023198	keystroke_a	a	n/a
512.049	0.1055	1024098	keystroke_t	t	n/a
512.349	0.106	1024698	keystroke_i	i	n/a
512.59	0.135	1025180	keystroke_o	o	n/a
513.0695	0.09	1026139	keystroke_n	n	n/a
513.5945	0.12	1027189	keystroke_Key.space	Key.space	n/a
515.6355	0.015	1031271	keystroke_p	p	n/a
515.7545	0.136	1031509	keystroke_e	e	n/a
516.0845	0.105	1032169	keystroke_t	t	n/a
516.3695	0.1355	1032739	keystroke_e	e	n/a
516.6545	0.1355	1033309	keystroke_r	r	n/a
517.045	0.105	1034090	keystroke_Key.enter	Key.enter	n/a
517.158	14.0045	1034316	prompt	n/a	demonstrates behalf investors hotmail\n
517.914	0.1205	1035828	keystroke_d	d	n/a
518.184	0.121	1036368	keystroke_e	e	n/a
518.3945	0.106	1036789	keystroke_m	m	n/a
518.6655	0.089	1037331	keystroke_o	o	n/a
518.9055	0.105	1037811	keystroke_n	n	n/a
519.22	0.1355	1038440	keystroke_s	s	n/a
520.3905	0.149	1040781	keystroke_t	t	n/a
520.645	0.12	1041290	keystroke_r	r	n/a
520.915	0.165	1041830	keystroke_a	a	n/a
521.1995	0.1205	1042399	keystroke_t	t	n/a
521.47	0.1205	1042940	keystroke_e	e	n/a
521.7405	0.15	1043481	keystroke_s	s	n/a
522.52	0.135	1045040	keystroke_Key.space	Key.space	n/a
523.1055	0.12	1046211	keystroke_b	b	n/a
523.375	0.15	1046750	keystroke_e	e	n/a
524.5155	0.104	1049031	keystroke_h	h	n/a
524.755	0.135	1049510	keystroke_a	a	n/a
524.9955	0.135	1049991	keystroke_l	l	n/a
525.2345	0.136	1050469	keystroke_f	f	n/a
525.5655	0.1045	1051131	keystroke_Key.space	Key.space	n/a
526.0155	0.105	1052031	keystroke_i	i	n/a
526.27	0.1045	1052540	keystroke_n	n	n/a
526.5555	0.0145	1053111	keystroke_v	v	n/a
526.6905	0.119	1053381	keystroke_e	e	n/a
526.945	0.1345	1053890	keystroke_s	s	n/a
527.2905	0.1045	1054581	keystroke_t	t	n/a
527.455	0.1805	1054910	keystroke_o	o	n/a
527.695	0.09	1055390	keystroke_r	r	n/a
527.98	0.1505	1055960	keystroke_s	s	n/a
528.475	0.12	1056950	keystroke_Key.space	Key.space	n/a
528.9555	0.0895	1057911	keystroke_h	h	n/a
529.165	0.15	1058330	keystroke_o	o	n/a
529.39	0.105	1058780	keystroke_t	t	n/a
529.675	0.1055	1059350	keystroke_m	m	n/a
529.915	0.1505	1059830	keystroke_a	a	n/a
530.0805	0.075	1060161	keystroke_i	i	n/a
530.3205	0.165	1060641	keystroke_l	l	n/a
531.0255	0.1345	1062051	keystroke_Key.enter	Key.enter	n/a
531.1665	10.631	1062333	prompt	n/a	couple nerve laugh motivated\n
532.1805	0.15	1064361	keystroke_c	c	n/a
532.3905	0.195	1064781	keystroke_o	o	n/a
532.7205	0.12	1065441	keystroke_u	u	n/a
532.96	0.1355	1065920	keystroke_p	p	n/a
533.2455	0.15	1066491	keystroke_l	l	n/a
533.4105	0.135	1066821	keystroke_e	e	n/a
534.0555	0.12	1068111	keystroke_Key.space	Key.space	n/a
534.5505	0.09	1069101	keystroke_n	n	n/a
534.7455	0.15	1069491	keystroke_e	e	n/a
535.0455	0.0895	1070091	keystroke_r	r	n/a
535.3905	0.12	1070781	keystroke_v	v	n/a
535.645	0.1655	1071290	keystroke_e	e	n/a
536.05	0.165	1072100	keystroke_Key.space	Key.space	n/a
536.725	0.18	1073450	keystroke_l	l	n/a
536.951	0.1195	1073902	keystroke_a	a	n/a
537.22	0.09	1074440	keystroke_u	u	n/a
537.4755	0.1045	1074951	keystroke_g	g	n/a
537.626	0.0895	1075252	keystroke_h	h	n/a
538.045	0.1655	1076090	keystroke_Key.space	Key.space	n/a
538.706	0.1045	1077412	keystroke_m	m	n/a
538.9605	0.12	1077921	keystroke_o	o	n/a
539.2445	0.1205	1078489	keystroke_t	t	n/a
539.5605	0.0145	1079121	keystroke_i	i	n/a
539.695	0.1205	1079390	keystroke_v	v	n/a
539.9495	0.165	1079899	keystroke_a	a	n/a
540.2805	0.1505	1080561	keystroke_t	t	n/a
540.581	0.104	1081162	keystroke_e	e	n/a
540.835	0.12	1081670	keystroke_d	d	n/a
541.6755	0.1195	1083351	keystroke_Key.enter	Key.enter	n/a
541.803	16.8245	1083606	prompt	n/a	terminal optimize convicted occupied\n
542.785	0.105	1085570	keystroke_t	t	n/a
543.025	0.1655	1086050	keystroke_e	e	n/a
543.3105	0.135	1086621	keystroke_r	r	n/a
543.5195	0.121	1087039	keystroke_m	m	n/a
543.761	0.1045	1087522	keystroke_i	i	n/a
544.001	0.119	1088002	keystroke_n	n	n/a
544.285	0.165	1088570	keystroke_a	a	n/a
544.495	0.135	1088990	keystroke_l	l	n/a
545.8745	0.136	1091749	keystroke_Key.space	Key.space	n/a
546.3405	0.135	1092681	keystroke_o	o	n/a
546.6705	0.164	1093341	keystroke_p	p	n/a
547.0005	0.15	1094001	keystroke_t	t	n/a
547.2105	0.075	1094421	keystroke_i	i	n/a
547.6905	0.12	1095381	keystroke_i	i	n/a
548.8305	0.134	1097661	keystroke_Key.backspace	Key.backspace	n/a
549.2205	0.1045	1098441	keystroke_m	m	n/a
549.445	0.1205	1098890	keystroke_i	i	n/a
549.7	0.1655	1099400	keystroke_z	z	n/a
550.0605	0.179	1100121	keystroke_e	e	n/a
550.72	0.12	1101440	keystroke_Key.space	Key.space	n/a
551.186	0.1345	1102372	keystroke_c	c	n/a
552.1745	0.135	1104349	keystroke_o	o	n/a
552.4305	0.135	1104861	keystroke_n	n	n/a
552.7605	0.12	1105521	keystroke_v	v	n/a
552.9705	0.1195	1105941	keystroke_i	i	n/a
553.165	0.1955	1106330	keystroke_c	c	n/a
553.645	0.15	1107290	keystroke_t	t	n/a
553.945	0.1355	1107890	keystroke_e	e	n/a
554.2305	0.15	1108461	keystroke_d	d	n/a
554.5755	0.165	1109151	keystroke_Key.space	Key.space	n/a
555.3405	0.09	1110681	keystroke_o	o	n/a
555.5505	0.089	1111101	keystroke_c	c	n/a
555.761	0.104	1111522	keystroke_c	c	n/a
556.4505	0.165	1112901	keystroke_u	u	n/a
556.751	0.164	1113502	keystroke_p	p	n/a
557.0205	0.135	1114041	keystroke_i	i	n/a
557.2155	0.12	1114431	keystroke_e	e	n/a
557.4705	0.165	1114941	keystroke_d	d	n/a
558.4755	0.15	1116951	keystroke_Key.enter	Key.enter	n/a
558.634	12.9845	1117268	prompt	n/a	rows reduced locking haven't\n
559.7355	0.12	1119471	keystroke_r	r	n/a
560.0055	0.1495	1120011	keystroke_o	o	n/a
560.2605	0.1195	1120521	keystroke_w	w	n/a
560.605	0.1505	1121210	keystroke_s	s	n/a
561.085	0.15	1122170	keystroke_Key.space	Key.space	n/a
562.225	0.121	1124450	keystroke_r	r	n/a
563.0205	0.1195	1126041	keystroke_e	e	n/a
563.291	0.135	1126582	keystroke_d	d	n/a
563.4845	0.1055	1126969	keystroke_u	u	n/a
563.7255	0.134	1127451	keystroke_c	c	n/a
564.041	0.1045	1128082	keystroke_e	e	n/a
564.295	0.151	1128590	keystroke_d	d	n/a
565.5705	0.135	1131141	keystroke_Key.space	Key.space	n/a
565.9455	0.135	1131891	keystroke_l	l	n/a
566.2455	0.15	1132491	keystroke_o	o	n/a
566.5005	0.15	1133001	keystroke_c	c	n/a
566.6955	0.105	1133391	keystroke_k	k	n/a
566.9805	0.075	1133961	keystroke_i	i	n/a
567.205	0.1205	1134410	keystroke_n	n	n/a
568.2555	0.105	1136511	keystroke_g	g	n/a
568.4805	0.1345	1136961	keystroke_Key.space	Key.space	n/a
568.7805	0.105	1137561	keystroke_h	h	n/a
568.945	0.1655	1137890	keystroke_a	a	n/a
569.2755	0.135	1138551	keystroke_v	v	n/a
569.53	0.18	1139060	keystroke_e	e	n/a
569.7555	0.1195	1139511	keystroke_n	n	n/a
570.4	0.165	1140800	keystroke_'	'	n/a
570.5955	0.1045	1141191	keystroke_t	t	n/a
571.48	0.135	1142960	keystroke_Key.enter	Key.enter	n/a
571.628	13.3855	1143256	prompt	n/a	striking showcase closing acrylic\n
572.62	0.195	1145240	keystroke_s	s	n/a
572.995	0.075	1145990	keystroke_t	t	n/a
573.2065	0.119	1146413	keystroke_r	r	n/a
573.4155	0.105	1146831	keystroke_i	i	n/a
573.6855	0.09	1147371	keystroke_k	k	n/a
573.9555	0.0895	1147911	keystroke_i	i	n/a
574.1505	0.1045	1148301	keystroke_n	n	n/a
574.345	0.135	1148690	keystroke_g	g	n/a
574.645	0.15	1149290	keystroke_Key.space	Key.space	n/a
574.93	0.1355	1149860	keystroke_s	s	n/a
575.0955	0.09	1150191	keystroke_h	h	n/a
575.3055	0.1805	1150611	keystroke_o	o	n/a
575.5305	0.0905	1151061	keystroke_w	w	n/a
575.9655	0.105	1151931	keystroke_c	c	n/a
576.2205	0.135	1152441	keystroke_a	a	n/a
576.4605	0.12	1152921	keystroke_s	s	n/a
576.7305	0.18	1153461	keystroke_e	e	n/a
577.15	0.195	1154300	keystroke_Key.space	Key.space	n/a
577.466	0.164	1154932	keystroke_c	c	n/a
577.6755	0.135	1155351	keystroke_l	l	n/a
577.976	0.149	1155952	keystroke_o	o	n/a
578.14	0.151	1156280	keystroke_s	s	n/a
578.3345	0.075	1156669	keystroke_i	i	n/a
578.545	0.0905	1157090	keystroke_n	n	n/a
578.8155	0.12	1157631	keystroke_g	g	n/a
579.1305	0.1645	1158261	keystroke_Key.space	Key.space	n/a
579.385	0.12	1158770	keystroke_a	a	n/a
579.701	0.194	1159402	keystroke_c	c	n/a
580.2255	0.06	1160451	keystroke_t	t	n/a
580.405	0.105	1160810	keystroke_y	y	n/a
580.6905	0.1195	1161381	keystroke_l	l	n/a
581.6055	0.1345	1163211	keystroke_Key.backspace	Key.backspace	n/a
581.8755	0.135	1163751	keystroke_Key.backspace	Key.backspace	n/a
582.5205	0.135	1165041	keystroke_Key.backspace	Key.backspace	n/a
582.88	0.12	1165760	keystroke_r	r	n/a
583.2405	0.1055	1166481	keystroke_y	y	n/a
583.525	0.135	1167050	keystroke_l	l	n/a
583.796	0.104	1167592	keystroke_i	i	n/a
583.915	0.135	1167830	keystroke_c	c	n/a
584.89	0.12	1169780	keystroke_Key.enter	Key.enter	n/a
585.0185	16.873	1170037	prompt	n/a	springfield pepper specialized paper\n
585.8805	0.1195	1171761	keystroke_s	s	n/a
586.2255	0.135	1172451	keystroke_p	p	n/a
586.5545	0.106	1173109	keystroke_r	r	n/a
586.6755	0.059	1173351	keystroke_i	i	n/a
586.8855	0.1195	1173771	keystroke_n	n	n/a
587.1555	0.0895	1174311	keystroke_g	g	n/a
587.5305	0.135	1175061	keystroke_f	f	n/a
587.6955	0.15	1175391	keystroke_i	i	n/a
587.8905	0.121	1175781	keystroke_e	e	n/a
588.1305	0.12	1176261	keystroke_l	l	n/a
588.31	0.1355	1176620	keystroke_d	d	n/a
588.61	0.03	1177220	keystroke_Key.space	Key.space	n/a
588.8955	0.1345	1177791	keystroke_p	p	n/a
589.1055	0.15	1178211	keystroke_e	e	n/a
589.45	0.0905	1178900	keystroke_p	p	n/a
589.675	0.135	1179350	keystroke_p	p	n/a
589.87	0.18	1179740	keystroke_e	e	n/a
590.26	0.1205	1180520	keystroke_r	r	n/a
591.025	0.1355	1182050	keystroke_s	s	n/a
591.94	0.1045	1183880	keystroke_Key.backspace	Key.backspace	n/a
592.45	0.1205	1184900	keystroke_Key.space	Key.space	n/a
592.8105	0.135	1185621	keystroke_s	s	n/a
593.156	0.1495	1186312	keystroke_p	p	n/a
593.335	0.12	1186670	keystroke_e	e	n/a
593.77	0.09	1187540	keystroke_i	i	n/a
594.0405	0.1195	1188081	keystroke_a	a	n/a
595.0155	0.09	1190031	keystroke_Key.backspace	Key.backspace	n/a
595.1945	0.136	1190389	keystroke_Key.backspace	Key.backspace	n/a
595.555	0.181	1191110	keystroke_c	c	n/a
596.125	0.1205	1192250	keystroke_i	i	n/a
596.305	0.166	1192610	keystroke_a	a	n/a
596.485	0.12	1192970	keystroke_l	l	n/a
596.7555	0.1045	1193511	keystroke_i	i	n/a
596.95	0.1805	1193900	keystroke_z	z	n/a
597.3105	0.15	1194621	keystroke_e	e	n/a
597.6105	0.15	1195221	keystroke_d	d	n/a
599.305	0.135	1198610	keystroke_Key.space	Key.space	n/a
599.68	0.1355	1199360	keystroke_p	p	n/a
599.8755	0.135	1199751	keystroke_a	a	n/a
600.0405	0.135	1200081	keystroke_p	p	n/a
600.2655	0.15	1200531	keystroke_e	e	n/a
601.405	0.105	1202810	keystroke_r	r	n/a
601.7655	0.1195	1203531	keystroke_Key.enter	Key.enter	n/a
601.897	22.1455	1203794	prompt	n/a	intellectual florida latest temperature\n
602.9945	0.076	1205989	keystroke_i	i	n/a
603.4	0.12	1206800	keystroke_n	n	n/a
603.6705	0.0745	1207341	keystroke_t	t	n/a
603.9105	0.1495	1207821	keystroke_e	e	n/a
604.2555	0.105	1208511	keystroke_l	l	n/a
604.4805	0.15	1208961	keystroke_l	l	n/a
604.6455	0.12	1209291	keystroke_e	e	n/a
605.7705	0.1195	1211541	keystroke_c	c	n/a
606.1755	0.105	1212351	keystroke_t	t	n/a
606.355	0.1205	1212710	keystroke_u	u	n/a
606.5955	0.165	1213191	keystroke_a	a	n/a
606.7455	0.12	1213491	keystroke_l	l	n/a
607.0755	0.1045	1214151	keystroke_Key.space	Key.space	n/a
607.3755	0.135	1214751	keystroke_f	f	n/a
607.5255	0.12	1215051	keystroke_l	l	n/a
607.8555	0.15	1215711	keystroke_o	o	n/a
608.0505	0.1205	1216101	keystroke_c	c	n/a
609.0095	0.136	1218019	keystroke_Key.backspace	Key.backspace	n/a
609.2805	0.09	1218561	keystroke_r	r	n/a
609.6555	0.105	1219311	keystroke_d	d	n/a
614.6975	0.0725	1229395	keystroke_Key.backspace	Key.backspace	n/a
616.001	0.15	1232002	keystroke_i	i	n/a
616.211	0.149	1232422	keystroke_d	d	n/a
616.526	0.149	1233052	keystroke_a	a	n/a
617.02	0.1955	1234040	keystroke_Key.space	Key.space	n/a
617.545	0.18	1235090	keystroke_l	l	n/a
617.726	0.18	1235452	keystroke_a	a	n/a
618.0555	0.1195	1236111	keystroke_t	t	n/a
618.356	0.119	1236712	keystroke_e	e	n/a
618.5955	0.18	1237191	keystroke_s	s	n/a
618.956	0.119	1237912	keystroke_t	t	n/a
619.4055	0.18	1238811	keystroke_Key.space	Key.space	n/a
619.916	0.1495	1239832	keystroke_t	t	n/a
620.2155	0.15	1240431	keystroke_e	e	n/a
620.4405	0.15	1240881	keystroke_m	m	n/a
620.7855	0.165	1241571	keystroke_p	p	n/a
621.0255	0.195	1242051	keystroke_e	e	n/a
621.296	0.1045	1242592	keystroke_r	r	n/a
621.536	0.1495	1243072	keystroke_a	a	n/a
621.8205	0.105	1243641	keystroke_t	t	n/a
622.615	0.121	1245230	keystroke_u	u	n/a
622.87	0.135	1245740	keystroke_r	r	n/a
623.141	0.1195	1246282	keystroke_e	e	n/a
623.9205	0.12	1247841	keystroke_Key.enter	Key.enter	n/a
624.0485	23.799	1248097	prompt	n/a	ugly moments jamaica publicly\n
625.1055	0.12	1250211	keystroke_u	u	n/a
625.3755	0.105	1250751	keystroke_g	g	n/a
626.0805	0.15	1252161	keystroke_l	l	n/a
626.7255	0.09	1253451	keystroke_y	y	n/a
627.9255	0.15	1255851	keystroke_Key.space	Key.space	n/a
628.33	0.1205	1256660	keystroke_m	m	n/a
628.6155	0.1045	1257231	keystroke_o	o	n/a
628.9005	0.1045	1257801	keystroke_m	m	n/a
629.1555	0.135	1258311	keystroke_e	e	n/a
629.3505	0.0905	1258701	keystroke_n	n	n/a
629.6055	0.105	1259211	keystroke_t	t	n/a
629.9655	0.12	1259931	keystroke_s	s	n/a
632.8925	0.0725	1265785	keystroke_n	n	n/a
634.3455	0.1195	1268691	keystroke_Key.backspace	Key.backspace	n/a
634.7655	0.0895	1269531	keystroke_Key.space	Key.space	n/a
636.191	0.044	1272382	keystroke_Key.space	Key.space	n/a
637.151	0.12	1274302	keystroke_Key.backspace	Key.backspace	n/a
637.886	0.1345	1275772	keystroke_a	a	n/a
638.9355	0.1355	1277871	keystroke_Key.backspace	Key.backspace	n/a
639.671	0.12	1279342	keystroke_j	j	n/a
639.896	0.165	1279792	keystroke_a	a	n/a
640.106	0.12	1280212	keystroke_m	m	n/a
640.361	0.165	1280722	keystroke_a	a	n/a
640.6455	0.12	1281291	keystroke_i	i	n/a
640.87	0.15	1281740	keystroke_c	c	n/a
641.1705	0.1495	1282341	keystroke_a	a	n/a
641.68	0.211	1283360	keystroke_Key.space	Key.space	n/a
642.551	0.1645	1285102	keystroke_p	p	n/a
642.9555	0.12	1285911	keystroke_u	u	n/a
643.676	0.135	1287352	keystroke_b	b	n/a
644.621	0.1945	1289242	keystroke_l	l	n/a
645.0855	0.1205	1290171	keystroke_i	i	n/a
645.386	0.134	1290772	keystroke_c	c	n/a
645.715	0.166	1291430	keystroke_l	l	n/a
646.136	0.0595	1292272	keystroke_y	y	n/a
647.7255	0.12	1295451	keystroke_Key.enter	Key.enter	n/a
647.853	18.01	1295706	prompt	n/a	electric disabled nottingham corrected\n
648.7005	0.12	1297401	keystroke_e	e	n/a
648.8955	0.165	1297791	keystroke_l	l	n/a
649.106	0.09	1298212	keystroke_e	e	n/a
649.376	0.179	1298752	keystroke_c	c	n/a
649.765	0.106	1299530	keystroke_t	t	n/a
650.021	0.1195	1300042	keystroke_r	r	n/a
650.1855	0.12	1300371	keystroke_i	i	n/a
650.4255	0.15	1300851	keystroke_c	c	n/a
651.0555	0.15	1302111	keystroke_Key.space	Key.space	n/a
651.3855	0.1505	1302771	keystroke_d	d	n/a
651.761	0.135	1303522	keystroke_i	i	n/a
652.031	0.09	1304062	keystroke_s	s	n/a
652.286	0.0895	1304572	keystroke_a	a	n/a
653.065	0.181	1306130	keystroke_v	v	n/a
654.1305	0.1355	1308261	keystroke_Key.backspace	Key.backspace	n/a
654.446	0.1345	1308892	keystroke_b	b	n/a
654.7155	0.1655	1309431	keystroke_l	l	n/a
654.956	0.12	1309912	keystroke_e	e	n/a
655.241	0.135	1310482	keystroke_d	d	n/a
655.541	0.1645	1311082	keystroke_Key.space	Key.space	n/a
656.62	0.12	1313240	keystroke_n	n	n/a
656.906	0.15	1313812	keystroke_o	o	n/a
657.221	0.0595	1314442	keystroke_t	t	n/a
657.4005	0.09	1314801	keystroke_t	t	n/a
657.5205	0.12	1315041	keystroke_i	i	n/a
658.751	0.12	1317502	keystroke_n	n	n/a
658.976	0.1345	1317952	keystroke_g	g	n/a
659.231	0.09	1318462	keystroke_h	h	n/a
659.8755	0.135	1319751	keystroke_a	a	n/a
660.101	0.1195	1320202	keystroke_m	m	n/a
660.8205	0.1195	1321641	keystroke_Key.space	Key.space	n/a
661.195	0.18	1322390	keystroke_c	c	n/a
661.48	0.1505	1322960	keystroke_o	o	n/a
661.795	0.075	1323590	keystroke_r	r	n/a
662.0055	0.1045	1324011	keystroke_r	r	n/a
662.2155	0.1345	1324431	keystroke_e	e	n/a
663.986	0.18	1327972	keystroke_c	c	n/a
664.42	0.151	1328840	keystroke_t	t	n/a
664.7205	0.1055	1329441	keystroke_e	e	n/a
664.961	0.12	1329922	keystroke_d	d	n/a
665.8	0.0605	1331600	keystroke_Key.enter	Key.enter	n/a
665.8675	19.8845	1331735	prompt	n/a	structured entrepreneurs vancouver subject\n
666.7305	0.195	1333461	keystroke_s	s	n/a
667.1355	0.09	1334271	keystroke_t	t	n/a
667.4055	0.105	1334811	keystroke_r	r	n/a
667.7055	0.135	1335411	keystroke_u	u	n/a
668.1855	0.195	1336371	keystroke_c	c	n/a
668.6805	0.09	1337361	keystroke_t	t	n/a
668.9805	0.1045	1337961	keystroke_u	u	n/a
669.221	0.1045	1338442	keystroke_r	r	n/a
669.4305	0.1205	1338861	keystroke_e	e	n/a
670.1205	0.1645	1340241	keystroke_d	d	n/a
670.7205	0.15	1341441	keystroke_Key.space	Key.space	n/a
671.456	0.15	1342912	keystroke_e	e	n/a
671.696	0.089	1343392	keystroke_n	n	n/a
672.0255	0.0745	1344051	keystroke_t	t	n/a
672.281	0.105	1344562	keystroke_r	r	n/a
672.521	0.165	1345042	keystroke_e	e	n/a
673.646	0.195	1347292	keystroke_p	p	n/a
673.961	0.1345	1347922	keystroke_r	r	n/a
674.1855	0.1355	1348371	keystroke_e	e	n/a
674.47	0.091	1348940	keystroke_n	n	n/a
674.755	0.1355	1349510	keystroke_e	e	n/a
675.0405	0.105	1350081	keystroke_u	u	n/a
676.4805	0.015	1352961	keystroke_e	e	n/a
676.6155	0.105	1353231	keystroke_r	r	n/a
676.976	0.1495	1353952	keystroke_s	s	n/a
677.4705	0.135	1354941	keystroke_Key.space	Key.space	n/a
679.0755	0.1345	1358151	keystroke_v	v	n/a
679.316	0.1495	1358632	keystroke_a	a	n/a
679.5405	0.12	1359081	keystroke_n	n	n/a
679.8255	0.15	1359651	keystroke_c	c	n/a
680.276	0.2095	1360552	keystroke_o	o	n/a
680.74	0.12	1361480	keystroke_u	u	n/a
681.116	0.15	1362232	keystroke_v	v	n/a
681.4305	0.18	1362861	keystroke_e	e	n/a
681.821	0.12	1363642	keystroke_r	r	n/a
682.511	0.149	1365022	keystroke_Key.space	Key.space	n/a
682.871	0.134	1365742	keystroke_s	s	n/a
683.14	0.1055	1366280	keystroke_u	u	n/a
684.04	0.121	1368080	keystroke_b	b	n/a
684.296	0.119	1368592	keystroke_j	j	n/a
684.4605	0.1205	1368921	keystroke_e	e	n/a
684.776	0.165	1369552	keystroke_c	c	n/a
685.181	0.134	1370362	keystroke_t	t	n/a
685.645	0.105	1371290	keystroke_Key.enter	Key.enter	n/a
685.7575	10.5245	1371515	prompt	n/a	docs we casual ranger\n
686.7705	0.1205	1373541	keystroke_d	d	n/a
687.1455	0.165	1374291	keystroke_o	o	n/a
687.4755	0.12	1374951	keystroke_c	c	n/a
687.7905	0.135	1375581	keystroke_s	s	n/a
688.2255	0.135	1376451	keystroke_Key.space	Key.space	n/a
688.826	0.15	1377652	keystroke_w	w	n/a
689.126	0.1495	1378252	keystroke_e	e	n/a
689.8455	0.195	1379691	keystroke_Key.space	Key.space	n/a
690.28	0.135	1380560	keystroke_c	c	n/a
690.55	0.12	1381100	keystroke_a	a	n/a
690.835	0.165	1381670	keystroke_s	s	n/a
691.1055	0.12	1382211	keystroke_u	u	n/a
691.3605	0.1355	1382721	keystroke_a	a	n/a
691.5705	0.15	1383141	keystroke_l	l	n/a
692.605	0.15	1385210	keystroke_Key.space	Key.space	n/a
693.071	0.1045	1386142	keystroke_r	r	n/a
693.281	0.1795	1386562	keystroke_a	a	n/a
693.4455	0.119	1386891	keystroke_n	n	n/a
694.4205	0.1205	1388841	keystroke_g	g	n/a
694.6605	0.18	1389321	keystroke_e	e	n/a
695.7705	0.1505	1391541	keystroke_r	r	n/a
696.0995	0.181	1392199	keystroke_Key.enter	Key.enter	n/a
696.2855	27.507	1392571	prompt	n/a	update fundraising informal telecharger\n
697.4515	0.134	1394903	keystroke_u	u	n/a
697.6905	0.18	1395381	keystroke_p	p	n/a
697.946	0.164	1395892	keystroke_d	d	n/a
698.216	0.179	1396432	keystroke_a	a	n/a
698.515	0.12	1397030	keystroke_t	t	n/a
698.83	0.166	1397660	keystroke_e	e	n/a
699.116	0.149	1398232	keystroke_n	n	n/a
700.0905	0.1045	1400181	keystroke_f	f	n/a
700.2705	0.09	1400541	keystroke_u	u	n/a
703.3475	0.088	1406695	keystroke_Key.backspace	Key.backspace	n/a
703.901	0.1195	1407802	keystroke_Key.backspace	Key.backspace	n/a
705.0255	0.135	1410051	keystroke_Key.backspace	Key.backspace	n/a
710.0675	0.043	1420135	keystroke_Key.space	Key.space	n/a
710.291	0.135	1420582	keystroke_f	f	n/a
710.606	0.015	1421212	keystroke_u	u	n/a
710.801	0.105	1421602	keystroke_n	n	n/a
711.041	0.1645	1422082	keystroke_d	d	n/a
711.3855	0.1205	1422771	keystroke_r	r	n/a
711.611	0.1645	1423222	keystroke_a	a	n/a
711.8355	0.15	1423671	keystroke_i	i	n/a
713.275	0.1505	1426550	keystroke_s	s	n/a
713.56	0.1205	1427120	keystroke_i	i	n/a
713.8155	0.12	1427631	keystroke_n	n	n/a
714.0555	0.135	1428111	keystroke_g	g	n/a
714.4	0.151	1428800	keystroke_Key.space	Key.space	n/a
716.5305	0.12	1433061	keystroke_i	i	n/a
716.801	0.1345	1433602	keystroke_n	n	n/a
717.0855	0.1805	1434171	keystroke_f	f	n/a
717.2815	0.1485	1434563	keystroke_o	o	n/a
717.521	0.1645	1435042	keystroke_r	r	n/a
717.761	0.15	1435522	keystroke_m	m	n/a
718.031	0.165	1436062	keystroke_a	a	n/a
718.256	0.15	1436512	keystroke_l	l	n/a
718.646	0.164	1437292	keystroke_Key.space	Key.space	n/a
719.0205	0.136	1438041	keystroke_t	t	n/a
719.2755	0.15	1438551	keystroke_e	e	n/a
719.4855	0.135	1438971	keystroke_l	l	n/a
719.6505	0.1195	1439301	keystroke_e	e	n/a
720.731	0.1645	1441462	keystroke_c	c	n/a
720.986	0.074	1441972	keystroke_h	h	n/a
721.2255	0.165	1442451	keystroke_a	a	n/a
721.5405	0.1205	1443081	keystroke_r	r	n/a
722.381	0.1345	1444762	keystroke_g	g	n/a
722.7105	0.18	1445421	keystroke_e	e	n/a
723.0105	0.135	1446021	keystroke_r	r	n/a
723.6855	0.1045	1447371	keystroke_Key.enter	Key.enter	n/a
723.7975	10.915	1447595	prompt	n/a	deeper printing reprint grammar\n
724.6005	0.135	1449201	keystroke_d	d	n/a
724.9155	0.105	1449831	keystroke_e	e	n/a
725.14	0.1205	1450280	keystroke_e	e	n/a
725.396	0.1645	1450792	keystroke_p	p	n/a
725.6355	0.1805	1451271	keystroke_e	e	n/a
725.951	0.1045	1451902	keystroke_r	r	n/a
726.2805	0.165	1452561	keystroke_Key.space	Key.space	n/a
726.82	0.1655	1453640	keystroke_p	p	n/a
727.106	0.119	1454212	keystroke_r	r	n/a
727.286	0.074	1454572	keystroke_i	i	n/a
727.526	0.119	1455052	keystroke_n	n	n/a
727.795	0.136	1455590	keystroke_t	t	n/a
728.0355	0.09	1456071	keystroke_i	i	n/a
728.2755	0.09	1456551	keystroke_n	n	n/a
728.561	0.0895	1457122	keystroke_g	g	n/a
728.95	0.15	1457900	keystroke_Key.space	Key.space	n/a
729.2955	0.15	1458591	keystroke_r	r	n/a
729.535	0.195	1459070	keystroke_e	e	n/a
730.1805	0.165	1460361	keystroke_p	p	n/a
730.5705	0.15	1461141	keystroke_r	r	n/a
730.7805	0.09	1461561	keystroke_i	i	n/a
731.021	0.0895	1462042	keystroke_n	n	n/a
731.53	0.135	1463060	keystroke_t	t	n/a
731.8455	0.135	1463691	keystroke_Key.space	Key.space	n/a
732.1005	0.135	1464201	keystroke_g	g	n/a
732.416	0.1195	1464832	keystroke_r	r	n/a
732.6555	0.18	1465311	keystroke_a	a	n/a
732.8955	0.1045	1465791	keystroke_m	m	n/a
733.136	0.105	1466272	keystroke_m	m	n/a
733.346	0.15	1466692	keystroke_a	a	n/a
733.721	0.12	1467442	keystroke_r	r	n/a
734.5305	0.1795	1469061	keystroke_Key.enter	Key.enter	n/a
734.718	15.5195	1469436	prompt	n/a	void thus poems metropolitan\n
735.626	0.135	1471252	keystroke_v	v	n/a
735.941	0.12	1471882	keystroke_o	o	n/a
736.1955	0.105	1472391	keystroke_i	i	n/a
736.421	0.1945	1472842	keystroke_d	d	n/a
736.8555	0.15	1473711	keystroke_Key.space	Key.space	n/a
737.3205	0.1195	1474641	keystroke_t	t	n/a
738.205	0.076	1476410	keystroke_h	h	n/a
738.4605	0.105	1476921	keystroke_u	u	n/a
738.6105	0.165	1477221	keystroke_s	s	n/a
739.2705	0.045	1478541	keystroke_Key.space	Key.space	n/a
739.9305	0.135	1479861	keystroke_p	p	n/a
741.5805	0.09	1483161	keystroke_Key.backspace	Key.backspace	n/a
741.7755	0.0905	1483551	keystroke_Key.backspace	Key.backspace	n/a
742.555	0.135	1485110	keystroke_Key.space	Key.space	n/a
743.216	0.164	1486432	keystroke_p	p	n/a
743.47	0.15	1486940	keystroke_o	o	n/a
743.755	0.136	1487510	keystroke_e	e	n/a
744.31	0.1205	1488620	keystroke_m	m	n/a
744.88	0.1355	1489760	keystroke_s	s	n/a
745.27	0.121	1490540	keystroke_Key.space	Key.space	n/a
746.26	0.105	1492520	keystroke_m	m	n/a
746.5	0.1655	1493000	keystroke_e	e	n/a
746.8455	0.0905	1493691	keystroke_t	t	n/a
747.085	0.135	1494170	keystroke_r	r	n/a
747.3405	0.1955	1494681	keystroke_o	o	n/a
747.731	0.1495	1495462	keystroke_p	p	n/a
748.001	0.149	1496002	keystroke_o	o	n/a
748.3005	0.105	1496601	keystroke_l	l	n/a
748.571	0.105	1497142	keystroke_i	i	n/a
748.856	0.1045	1497712	keystroke_t	t	n/a
749.08	0.1655	1498160	keystroke_a	a	n/a
749.276	0.1195	1498552	keystroke_n	n	n/a
750.116	0.119	1500232	keystroke_Key.enter	Key.enter	n/a
750.246	9.891	1500492	prompt	n/a	probe bedroom sussex karl\n
751.2105	0.1655	1502421	keystroke_p	p	n/a
751.571	0.1045	1503142	keystroke_r	r	n/a
751.7205	0.165	1503441	keystroke_o	o	n/a
752.021	0.12	1504042	keystroke_b	b	n/a
752.3055	0.15	1504611	keystroke_e	e	n/a
752.8005	0.135	1505601	keystroke_Key.space	Key.space	n/a
753.131	0.12	1506262	keystroke_b	b	n/a
753.401	0.1195	1506802	keystroke_e	e	n/a
753.6855	0.1795	1507371	keystroke_d	d	n/a
754.076	0.15	1508152	keystroke_r	r	n/a
754.301	0.134	1508602	keystroke_o	o	n/a
754.541	0.135	1509082	keystroke_o	o	n/a
754.8555	0.135	1509711	keystroke_m	m	n/a
755.2155	0.1495	1510431	keystroke_Key.space	Key.space	n/a
755.53	0.15	1511060	keystroke_s	s	n/a
755.875	0.121	1511750	keystroke_u	u	n/a
756.146	0.119	1512292	keystroke_s	s	n/a
756.37	0.1055	1512740	keystroke_s	s	n/a
756.85	0.1355	1513700	keystroke_e	e	n/a
757.271	0.135	1514542	keystroke_x	x	n/a
757.8855	0.15	1515771	keystroke_Key.space	Key.space	n/a
758.5005	0.105	1517001	keystroke_k	k	n/a
758.7105	0.1505	1517421	keystroke_a	a	n/a
759.0405	0.1345	1518081	keystroke_r	r	n/a
759.236	0.1495	1518472	keystroke_l	l	n/a
760.0005	0.135	1520001	keystroke_Key.enter	Key.enter	n/a
760.1425	12.835	1520285	prompt	n/a	ratios alpha ships walked\n
761.0955	0.075	1522191	keystroke_r	r	n/a
761.35	0.165	1522700	keystroke_a	a	n/a
761.7705	0.105	1523541	keystroke_t	t	n/a
761.9805	0.105	1523961	keystroke_i	i	n/a
762.1755	0.165	1524351	keystroke_o	o	n/a
762.4455	0.1505	1524891	keystroke_s	s	n/a
763.6605	0.165	1527321	keystroke_Key.space	Key.space	n/a
763.9755	0.15	1527951	keystroke_a	a	n/a
764.291	0.1345	1528582	keystroke_l	l	n/a
764.6505	0.09	1529301	keystroke_p	p	n/a
764.936	0.029	1529872	keystroke_h	h	n/a
765.4005	0.15	1530801	keystroke_a	a	n/a
767.9675	0.103	1535935	keystroke_Key.space	Key.space	n/a
768.3555	0.12	1536711	keystroke_s	s	n/a
768.6705	0.1205	1537341	keystroke_h	h	n/a
768.94	0.1055	1537880	keystroke_i	i	n/a
769.1655	0.1655	1538331	keystroke_p	p	n/a
769.3905	0.1505	1538781	keystroke_s	s	n/a
769.795	0.136	1539590	keystroke_Key.space	Key.space	n/a
770.305	0.105	1540610	keystroke_w	w	n/a
770.5305	0.15	1541061	keystroke_a	a	n/a
771.28	0.106	1542560	keystroke_l	l	n/a
771.5205	0.1345	1543041	keystroke_k	k	n/a
771.7	0.1055	1543400	keystroke_e	e	n/a
771.955	0.12	1543910	keystroke_d	d	n/a
772.7805	0.195	1545561	keystroke_Key.enter	Key.enter	n/a
772.985	12.9375	1545970	prompt	n/a	streaming round enhanced constraint\n
773.7555	0.1645	1547511	keystroke_s	s	n/a
774.161	0.104	1548322	keystroke_t	t	n/a
774.43	0.106	1548860	keystroke_r	r	n/a
774.6705	0.15	1549341	keystroke_e	e	n/a
775.0005	0.165	1550001	keystroke_a	a	n/a
775.3005	0.09	1550601	keystroke_m	m	n/a
775.601	0.0895	1551202	keystroke_i	i	n/a
775.8255	0.105	1551651	keystroke_n	n	n/a
776.0955	0.1355	1552191	keystroke_g	g	n/a
776.5755	0.15	1553151	keystroke_Key.space	Key.space	n/a
777.011	0.12	1554022	keystroke_r	r	n/a
777.2805	0.195	1554561	keystroke_o	o	n/a
777.581	0.09	1555162	keystroke_u	u	n/a
777.865	0.12	1555730	keystroke_n	n	n/a
778.151	0.1645	1556302	keystroke_d	d	n/a
778.645	0.1655	1557290	keystroke_Key.space	Key.space	n/a
779.0655	0.135	1558131	keystroke_e	e	n/a
779.321	0.119	1558642	keystroke_n	n	n/a
779.6805	0.105	1559361	keystroke_h	h	n/a
779.9055	0.15	1559811	keystroke_a	a	n/a
780.0705	0.12	1560141	keystroke_n	n	n/a
780.371	0.15	1560742	keystroke_c	c	n/a
780.7155	0.12	1561431	keystroke_e	e	n/a
781.016	0.134	1562032	keystroke_d	d	n/a
781.9	0.2105	1563800	keystroke_Key.space	Key.space	n/a
782.275	0.1355	1564550	keystroke_c	c	n/a
782.516	0.134	1565032	keystroke_o	o	n/a
782.785	0.121	1565570	keystroke_n	n	n/a
783.0555	0.165	1566111	keystroke_s	s	n/a
783.5205	0.1055	1567041	keystroke_t	t	n/a
783.8355	0.105	1567671	keystroke_r	r	n/a
784.0905	0.15	1568181	keystroke_a	a	n/a
784.3905	0.105	1568781	keystroke_i	i	n/a
784.631	0.1345	1569262	keystroke_n	n	n/a
784.916	0.1345	1569832	keystroke_t	t	n/a
785.785	0.135	1571570	keystroke_Key.enter	Key.enter	n/a
785.928	12.0255	1571856	prompt	n/a	recorders crash occur accepts\n
786.97	0.106	1573940	keystroke_r	r	n/a
787.196	0.1205	1574392	keystroke_e	e	n/a
787.5255	0.15	1575051	keystroke_c	c	n/a
787.7505	0.18	1575501	keystroke_o	o	n/a
788.0205	0.12	1576041	keystroke_r	r	n/a
788.3205	0.12	1576641	keystroke_d	d	n/a
788.6055	0.165	1577211	keystroke_e	e	n/a
788.906	0.1195	1577812	keystroke_r	r	n/a
789.2205	0.165	1578441	keystroke_s	s	n/a
789.7755	0.18	1579551	keystroke_Key.space	Key.space	n/a
790.1055	0.1805	1580211	keystroke_c	c	n/a
790.466	0.15	1580932	keystroke_r	r	n/a
790.6905	0.06	1581381	keystroke_a	a	n/a
791.6655	0.135	1583331	keystroke_s	s	n/a
791.9655	0.105	1583931	keystroke_h	h	n/a
792.5355	0.15	1585071	keystroke_Key.space	Key.space	n/a
793.2405	0.1505	1586481	keystroke_o	o	n/a
793.4655	0.075	1586931	keystroke_c	c	n/a
793.66	0.1205	1587320	keystroke_c	c	n/a
793.945	0.105	1587890	keystroke_u	u	n/a
794.125	0.135	1588250	keystroke_r	r	n/a
794.6205	0.15	1589241	keystroke_Key.space	Key.space	n/a
794.95	0.121	1589900	keystroke_a	a	n/a
795.266	0.089	1590532	keystroke_c	c	n/a
795.446	0.09	1590892	keystroke_c	c	n/a
795.7605	0.135	1591521	keystroke_e	e	n/a
796.0305	0.1655	1592061	keystroke_p	p	n/a
796.345	0.075	1592690	keystroke_t	t	n/a
797.0955	0.1195	1594191	keystroke_s	s	n/a
797.8005	0.15	1595601	keystroke_Key.enter	Key.enter	n/a
797.957	11.561	1595914	prompt	n/a	loud cache brokers career\n
798.986	0.164	1597972	keystroke_l	l	n/a
799.331	0.15	1598662	keystroke_o	o	n/a
799.586	0.119	1599172	keystroke_u	u	n/a
799.826	0.1645	1599652	keystroke_d	d	n/a
800.245	0.1655	1600490	keystroke_Key.space	Key.space	n/a
800.5305	0.15	1601061	keystroke_c	c	n/a
801.3555	0.135	1602711	keystroke_a	a	n/a
801.7005	0.135	1603401	keystroke_c	c	n/a
801.8805	0.12	1603761	keystroke_h	h	n/a
803.6355	0.15	1607271	keystroke_e	e	n/a
804.07	0.15	1608140	keystroke_Key.space	Key.space	n/a
804.49	0.105	1608980	keystroke_b	b	n/a
804.836	0.135	1609672	keystroke_r	r	n/a
805.091	0.12	1610182	keystroke_o	o	n/a
805.361	0.105	1610722	keystroke_k	k	n/a
805.51	0.181	1611020	keystroke_e	e	n/a
805.7805	0.12	1611561	keystroke_r	r	n/a
806.1255	0.15	1612251	keystroke_s	s	n/a
806.3955	0.135	1612791	keystroke_Key.space	Key.space	n/a
806.6505	0.135	1613301	keystroke_c	c	n/a
806.9955	0.15	1613991	keystroke_a	a	n/a
808.106	0.1345	1616212	keystroke_r	r	n/a
808.3905	0.105	1616781	keystroke_e	e	n/a
808.585	0.121	1617170	keystroke_e	e	n/a
808.8705	0.1205	1617741	keystroke_r	r	n/a
809.3505	0.165	1618701	keystroke_Key.enter	Key.enter	n/a
809.5235	13.4795	1619047	prompt	n/a	integral prescription specific grad\n
810.8505	0.12	1621701	keystroke_i	i	n/a
811.1355	0.1205	1622271	keystroke_n	n	n/a
811.3755	0.105	1622751	keystroke_t	t	n/a
811.6305	0.1505	1623261	keystroke_e	e	n/a
812.005	0.1205	1624010	keystroke_g	g	n/a
812.3055	0.15	1624611	keystroke_r	r	n/a
812.5605	0.1505	1625121	keystroke_a	a	n/a
813.101	0.21	1626202	keystroke_l	l	n/a
813.656	0.1945	1627312	keystroke_Key.space	Key.space	n/a
814.6005	0.135	1629201	keystroke_p	p	n/a
814.8705	0.1355	1629741	keystroke_r	r	n/a
815.0805	0.1355	1630161	keystroke_e	e	n/a
815.3655	0.165	1630731	keystroke_s	s	n/a
815.696	0.165	1631392	keystroke_c	c	n/a
816.071	0.165	1632142	keystroke_r	r	n/a
816.281	0.135	1632562	keystroke_i	i	n/a
816.551	0.1645	1633102	keystroke_p	p	n/a
816.9405	0.12	1633881	keystroke_t	t	n/a
817.0755	0.1045	1634151	keystroke_i	i	n/a
817.301	0.135	1634602	keystroke_o	o	n/a
817.601	0.135	1635202	keystroke_n	n	n/a
818.0505	0.1795	1636101	keystroke_Key.space	Key.space	n/a
818.396	0.15	1636792	keystroke_s	s	n/a
818.65	0.18	1637300	keystroke_p	p	n/a
818.875	0.1205	1637750	keystroke_e	e	n/a
819.2055	0.12	1638411	keystroke_c	c	n/a
819.3705	0.105	1638741	keystroke_i	i	n/a
819.6555	0.1205	1639311	keystroke_f	f	n/a
819.8055	0.1205	1639611	keystroke_i	i	n/a
820.0605	0.15	1640121	keystroke_c	c	n/a
820.4505	0.1495	1640901	keystroke_Key.space	Key.space	n/a
820.811	0.119	1641622	keystroke_g	g	n/a
821.1405	0.09	1642281	keystroke_r	r	n/a
821.396	0.1345	1642792	keystroke_a	a	n/a
822.115	0.12	1644230	keystroke_d	d	n/a
822.91	0.0905	1645820	keystroke_Key.enter	Key.enter	n/a
823.007	12.251	1646014	prompt	n/a	exactly greg most anyone\n
823.7655	0.12	1647531	keystroke_e	e	n/a
824.126	0.1195	1648252	keystroke_x	x	n/a
824.4855	0.1345	1648971	keystroke_a	a	n/a
824.77	0.1655	1649540	keystroke_c	c	n/a
825.161	0.105	1650322	keystroke_t	t	n/a
825.3855	0.15	1650771	keystroke_l	l	n/a
826.5265	0.1045	1653053	keystroke_y	y	n/a
827.56	0.135	1655120	keystroke_Key.space	Key.space	n/a
827.846	0.105	1655692	keystroke_g	g	n/a
828.116	0.15	1656232	keystroke_r	r	n/a
828.281	0.165	1656562	keystroke_e	e	n/a
828.595	0.136	1657190	keystroke_g	g	n/a
830.005	0.18	1660010	keystroke_Key.space	Key.space	n/a
830.4115	0.0885	1660823	keystroke_m	m	n/a
831.1455	0.1955	1662291	keystroke_o	o	n/a
831.326	0.165	1662652	keystroke_s	s	n/a
831.685	0.12	1663370	keystroke_t	t	n/a
832.5405	0.165	1665081	keystroke_Key.space	Key.space	n/a
832.871	0.1645	1665742	keystroke_a	a	n/a
833.0505	0.0755	1666101	keystroke_n	n	n/a
833.3955	0.1345	1666791	keystroke_y	y	n/a
833.756	0.12	1667512	keystroke_o	o	n/a
834.011	0.1045	1668022	keystroke_n	n	n/a
834.221	0.105	1668442	keystroke_e	e	n/a
835.09	0.166	1670180	keystroke_Key.enter	Key.enter	n/a
835.262	11.56	1670524	prompt	n/a	cameras using conf agree\n
836.186	0.135	1672372	keystroke_c	c	n/a
836.44	0.151	1672880	keystroke_a	a	n/a
836.666	0.105	1673332	keystroke_m	m	n/a
836.876	0.149	1673752	keystroke_e	e	n/a
837.146	0.1195	1674292	keystroke_r	r	n/a
837.371	0.15	1674742	keystroke_a	a	n/a
837.641	0.15	1675282	keystroke_s	s	n/a
837.956	0.075	1675912	keystroke_Key.space	Key.space	n/a
839.29	0.1205	1678580	keystroke_Key.space	Key.space	n/a
840.1605	0.1205	1680321	keystroke_Key.backspace	Key.backspace	n/a
840.566	0.1195	1681132	keystroke_u	u	n/a
840.7755	0.1805	1681551	keystroke_s	s	n/a
841.196	0.075	1682392	keystroke_n	n	n/a
842.2905	0.135	1684581	keystroke_Key.backspace	Key.backspace	n/a
842.6965	0.09	1685393	keystroke_i	i	n/a
842.906	0.1195	1685812	keystroke_n	n	n/a
843.1605	0.135	1686321	keystroke_g	g	n/a
843.4305	0.15	1686861	keystroke_Key.space	Key.space	n/a
843.716	0.165	1687432	keystroke_c	c	n/a
843.956	0.12	1687912	keystroke_o	o	n/a
844.1955	0.1205	1688391	keystroke_n	n	n/a
844.451	0.15	1688902	keystroke_f	f	n/a
844.75	0.151	1689500	keystroke_Key.space	Key.space	n/a
845.051	0.18	1690102	keystroke_a	a	n/a
845.336	0.09	1690672	keystroke_g	g	n/a
845.666	0.135	1691332	keystroke_r	r	n/a
845.876	0.135	1691752	keystroke_e	e	n/a
846.116	0.12	1692232	keystroke_e	e	n/a
846.7005	0.12	1693401	keystroke_Key.enter	Key.enter	n/a
846.827	13.4655	1693654	prompt	n/a	brazilian wound supplier ventures\n
848.1855	0.09	1696371	keystroke_b	b	n/a
848.5455	0.105	1697091	keystroke_r	r	n/a
848.7405	0.12	1697481	keystroke_a	a	n/a
849.1155	0.15	1698231	keystroke_z	z	n/a
849.401	0.1195	1698802	keystroke_i	i	n/a
849.701	0.1345	1699402	keystroke_l	l	n/a
849.9855	0.12	1699971	keystroke_i	i	n/a
850.211	0.15	1700422	keystroke_a	a	n/a
850.391	0.12	1700782	keystroke_n	n	n/a
850.721	0.149	1701442	keystroke_Key.space	Key.space	n/a
851.065	0.1355	1702130	keystroke_w	w	n/a
851.336	0.2105	1702672	keystroke_o	o	n/a
851.6655	0.09	1703331	keystroke_u	u	n/a
851.9655	0.12	1703931	keystroke_n	n	n/a
852.2215	0.1345	1704443	keystroke_d	d	n/a
855.0565	0.104	1710113	keystroke_Key.space	Key.space	n/a
855.3105	0.1205	1710621	keystroke_s	s	n/a
855.566	0.135	1711132	keystroke_u	u	n/a
855.836	0.12	1711672	keystroke_p	p	n/a
856.0315	0.1645	1712063	keystroke_p	p	n/a
856.376	0.135	1712752	keystroke_l	l	n/a
856.676	0.105	1713352	keystroke_i	i	n/a
856.841	0.15	1713682	keystroke_e	e	n/a
857.14	0.12	1714280	keystroke_r	r	n/a
857.6355	0.1345	1715271	keystroke_Key.space	Key.space	n/a
858.0105	0.1195	1716021	keystroke_v	v	n/a
858.251	0.195	1716502	keystroke_e	e	n/a
858.4005	0.1195	1716801	keystroke_n	n	n/a
858.671	0.0895	1717342	keystroke_t	t	n/a
858.8805	0.1205	1717761	keystroke_u	u	n/a
859.0605	0.12	1718121	keystroke_r	r	n/a
859.226	0.1345	1718452	keystroke_e	e	n/a
859.5255	0.15	1719051	keystroke_s	s	n/a
860.1555	0.135	1720311	keystroke_Key.enter	Key.enter	n/a
860.2965	21.3855	1720593	prompt	n/a	indicator scholarships controversy huge\n
861.3105	0.0305	1722621	keystroke_i	i	n/a
861.475	0.105	1722950	keystroke_n	n	n/a
861.821	0.1195	1723642	keystroke_d	d	n/a
861.986	0.1195	1723972	keystroke_i	i	n/a
862.1655	0.1055	1724331	keystroke_c	c	n/a
862.4505	0.12	1724901	keystroke_a	a	n/a
862.7355	0.105	1725471	keystroke_t	t	n/a
862.8855	0.1205	1725771	keystroke_o	o	n/a
863.1255	0.1205	1726251	keystroke_r	r	n/a
864.0405	0.1495	1728081	keystroke_Key.space	Key.space	n/a
864.28	0.12	1728560	keystroke_s	s	n/a
864.521	0.149	1729042	keystroke_c	c	n/a
865.165	0.12	1730330	keystroke_h	h	n/a
865.45	0.1505	1730900	keystroke_o	o	n/a
865.7655	0.1355	1731531	keystroke_l	l	n/a
865.9455	0.15	1731891	keystroke_a	a	n/a
866.2455	0.1055	1732491	keystroke_r	r	n/a
866.5155	0.15	1733031	keystroke_s	s	n/a
867.2805	0.1805	1734561	keystroke_h	h	n/a
867.8655	0.135	1735731	keystroke_i	i	n/a
868.1055	0.165	1736211	keystroke_p	p	n/a
868.9755	0.1495	1737951	keystroke_s	s	n/a
870.0255	0.1945	1740051	keystroke_Key.space	Key.space	n/a
870.325	0.15	1740650	keystroke_c	c	n/a
870.58	0.196	1741160	keystroke_o	o	n/a
870.806	0.15	1741612	keystroke_n	n	n/a
871.135	0.046	1742270	keystroke_t	t	n/a
871.4355	0.1505	1742871	keystroke_o	o	n/a
872.785	0.12	1745570	keystroke_Key.backspace	Key.backspace	n/a
873.0855	0.09	1746171	keystroke_r	r	n/a
873.2505	0.18	1746501	keystroke_o	o	n/a
873.5355	0.135	1747071	keystroke_v	v	n/a
873.7755	0.225	1747551	keystroke_e	e	n/a
874.0155	0.12	1748031	keystroke_r	r	n/a
874.3755	0.1655	1748751	keystroke_s	s	n/a
874.57	0.105	1749140	keystroke_y	y	n/a
876.822	0.043	1753644	keystroke_h	h	n/a
877.855	0.1055	1755710	keystroke_Key.backspace	Key.backspace	n/a
878.276	0.1345	1756552	keystroke_Key.space	Key.space	n/a
879.9555	0.135	1759911	keystroke_h	h	n/a
880.27	0.12	1760540	keystroke_u	u	n/a
880.466	0.1195	1760932	keystroke_g	g	n/a
880.6905	0.15	1761381	keystroke_e	e	n/a
881.5605	0.1195	1763121	keystroke_Key.enter	Key.enter	n/a
881.688	13.8245	1763376	prompt	n/a	glenn albert sunglasses my\n
882.7155	0.15	1765431	keystroke_g	g	n/a
883.8255	0.18	1767651	keystroke_l	l	n/a
884.065	0.18	1768130	keystroke_e	e	n/a
884.336	0.104	1768672	keystroke_n	n	n/a
884.5605	0.1195	1769121	keystroke_n	n	n/a
885.0255	0.1795	1770051	keystroke_Key.space	Key.space	n/a
885.4155	0.18	1770831	keystroke_a	a	n/a
885.91	0.211	1771820	keystroke_l	l	n/a
886.2705	0.1355	1772541	keystroke_b	b	n/a
886.5555	0.225	1773111	keystroke_e	e	n/a
886.9005	0.105	1773801	keystroke_r	r	n/a
887.2	0.1355	1774400	keystroke_t	t	n/a
888.2655	0.18	1776531	keystroke_Key.space	Key.space	n/a
888.5955	0.135	1777191	keystroke_s	s	n/a
888.8355	0.091	1777671	keystroke_u	u	n/a
889.105	0.1205	1778210	keystroke_n	n	n/a
889.39	0.12	1778780	keystroke_g	g	n/a
889.6455	0.165	1779291	keystroke_l	l	n/a
889.8705	0.165	1779741	keystroke_a	a	n/a
890.1405	0.105	1780281	keystroke_s	s	n/a
890.3505	0.12	1780701	keystroke_s	s	n/a
890.6205	0.15	1781241	keystroke_e	e	n/a
891.205	0.135	1782410	keystroke_s	s	n/a
891.6105	0.12	1783221	keystroke_Key.space	Key.space	n/a
892.0155	0.09	1784031	keystroke_m	m	n/a
894.8685	0.057	1789737	keystroke_y	y	n/a
895.3605	0.149	1790721	keystroke_Key.enter	Key.enter	n/a
895.529	11.8035	1791058	prompt	n/a	speeches lawsuit thirty crash\n
896.336	0.179	1792672	keystroke_s	s	n/a
896.8755	0.18	1793751	keystroke_p	p	n/a
897.145	0.12	1794290	keystroke_e	e	n/a
897.385	0.09	1794770	keystroke_e	e	n/a
897.686	0.134	1795372	keystroke_c	c	n/a
898.0305	0.12	1796061	keystroke_h	h	n/a
898.2405	0.1055	1796481	keystroke_e	e	n/a
898.4805	0.195	1796961	keystroke_s	s	n/a
898.9755	0.1495	1797951	keystroke_Key.space	Key.space	n/a
899.4855	0.209	1798971	keystroke_l	l	n/a
899.6805	0.165	1799361	keystroke_a	a	n/a
900.5505	0.135	1801101	keystroke_w	w	n/a
900.911	0.1795	1801822	keystroke_s	s	n/a
901.0605	0.1505	1802121	keystroke_u	u	n/a
902.3505	0.1495	1804701	keystroke_i	i	n/a
902.5905	0.1045	1805181	keystroke_t	t	n/a
902.965	0.135	1805930	keystroke_Key.space	Key.space	n/a
903.535	0.1055	1807070	keystroke_t	t	n/a
903.6555	0.1045	1807311	keystroke_h	h	n/a
903.925	0.135	1807850	keystroke_i	i	n/a
904.0905	0.09	1808181	keystroke_r	r	n/a
904.39	0.121	1808780	keystroke_t	t	n/a
904.525	0.0905	1809050	keystroke_y	y	n/a
904.9605	0.1495	1809921	keystroke_Key.space	Key.space	n/a
905.23	0.18	1810460	keystroke_c	c	n/a
905.6355	0.12	1811271	keystroke_r	r	n/a
905.8305	0.165	1811661	keystroke_a	a	n/a
906.1455	0.15	1812291	keystroke_s	s	n/a
906.3105	0.12	1812621	keystroke_h	h	n/a
907.1955	0.135	1814391	keystroke_Key.enter	Key.enter	n/a
907.337	14.0055	1814674	prompt	n/a	fiji admissions hairy surprised\n
908.5755	0.104	1817151	keystroke_f	f	n/a
908.8745	0.12	1817749	keystroke_i	i	n/a
909.1745	0.121	1818349	keystroke_j	j	n/a
909.4295	0.106	1818859	keystroke_i	i	n/a
909.8055	0.1945	1819611	keystroke_Key.space	Key.space	n/a
910.465	0.1045	1820930	keystroke_Key.space	Key.space	n/a
911.395	0.15	1822790	keystroke_Key.backspace	Key.backspace	n/a
911.635	0.1355	1823270	keystroke_a	a	n/a
911.9055	0.1795	1823811	keystroke_d	d	n/a
912.19	0.1205	1824380	keystroke_m	m	n/a
912.49	0.15	1824980	keystroke_i	i	n/a
912.7005	0.135	1825401	keystroke_s	s	n/a
912.94	0.1505	1825880	keystroke_s	s	n/a
913.105	0.1205	1826210	keystroke_i	i	n/a
913.3155	0.12	1826631	keystroke_o	o	n/a
913.54	0.12	1827080	keystroke_n	n	n/a
913.825	0.15	1827650	keystroke_s	s	n/a
914.1555	0.0745	1828311	keystroke_Key.space	Key.space	n/a
915.6255	0.1195	1831251	keystroke_h	h	n/a
915.9105	0.1345	1831821	keystroke_a	a	n/a
916.165	0.151	1832330	keystroke_i	i	n/a
916.435	0.135	1832870	keystroke_r	r	n/a
916.735	0.105	1833470	keystroke_y	y	n/a
917.695	0.135	1835390	keystroke_Key.space	Key.space	n/a
917.995	0.1355	1835990	keystroke_s	s	n/a
918.2055	0.1195	1836411	keystroke_u	u	n/a
918.505	0.12	1837010	keystroke_r	r	n/a
918.7455	0.0445	1837491	keystroke_p	p	n/a
918.9855	0.0905	1837971	keystroke_r	r	n/a
919.5705	0.1195	1839141	keystroke_i	i	n/a
919.976	0.1185	1839952	keystroke_s	s	n/a
920.2455	0.119	1840491	keystroke_e	e	n/a
920.5145	0.135	1841029	keystroke_d	d	n/a
921.22	0.12	1842440	keystroke_Key.enter	Key.enter	n/a
921.3475	14.2745	1842695	prompt	n/a	palm learning believe shower\n
922.406	0.134	1844812	keystroke_p	p	n/a
922.66	0.105	1845320	keystroke_a	a	n/a
922.8555	0.12	1845711	keystroke_l	l	n/a
923.1105	0.1045	1846221	keystroke_m	m	n/a
923.59	0.135	1847180	keystroke_Key.space	Key.space	n/a
923.98	0.1355	1847960	keystroke_l	l	n/a
924.2055	0.105	1848411	keystroke_e	e	n/a
924.4605	0.135	1848921	keystroke_a	a	n/a
924.8355	0.12	1849671	keystroke_r	r	n/a
925.6155	0.135	1851231	keystroke_n	n	n/a
925.9005	0.195	1851801	keystroke_i	i	n/a
926.4255	0.1355	1852851	keystroke_g	g	n/a
927.7595	0.12	1855519	keystroke_Key.backspace	Key.backspace	n/a
928.165	0.105	1856330	keystroke_n	n	n/a
928.3605	0.1345	1856721	keystroke_g	g	n/a
928.705	0.135	1857410	keystroke_Key.space	Key.space	n/a
929.005	0.12	1858010	keystroke_b	b	n/a
929.291	0.1345	1858582	keystroke_e	e	n/a
929.485	0.1505	1858970	keystroke_l	l	n/a
929.845	0.15	1859690	keystroke_i	i	n/a
929.981	0.149	1859962	keystroke_e	e	n/a
930.8205	0.15	1861641	keystroke_v	v	n/a
932.1555	0.1345	1864311	keystroke_e	e	n/a
932.575	0.135	1865150	keystroke_Key.space	Key.space	n/a
932.891	0.1185	1865782	keystroke_s	s	n/a
933.1605	0.105	1866321	keystroke_h	h	n/a
933.3995	0.1515	1866799	keystroke_o	o	n/a
933.5955	0.135	1867191	keystroke_w	w	n/a
933.8655	0.18	1867731	keystroke_e	e	n/a
934.6305	0.12	1869261	keystroke_r	r	n/a
935.5005	0.12	1871001	keystroke_Key.enter	Key.enter	n/a
935.627	12.775	1871254	prompt	n/a	sized pencil patents sharing\n
936.4	0.1365	1872800	keystroke_s	s	n/a
936.731	0.134	1873462	keystroke_i	i	n/a
936.971	0.165	1873942	keystroke_z	z	n/a
937.315	0.135	1874630	keystroke_e	e	n/a
937.615	0.12	1875230	keystroke_d	d	n/a
937.945	0.1805	1875890	keystroke_Key.space	Key.space	n/a
938.5905	0.15	1877181	keystroke_p	p	n/a
938.8455	0.1345	1877691	keystroke_e	e	n/a
938.9955	0.1055	1877991	keystroke_n	n	n/a
939.4005	0.165	1878801	keystroke_c	c	n/a
939.5955	0.12	1879191	keystroke_i	i	n/a
939.8955	0.165	1879791	keystroke_l	l	n/a
940.2405	0.165	1880481	keystroke_Key.space	Key.space	n/a
940.5705	0.15	1881141	keystroke_p	p	n/a
940.9455	0.18	1881891	keystroke_a	a	n/a
941.3355	0.12	1882671	keystroke_t	t	n/a
941.6055	0.165	1883211	keystroke_e	e	n/a
941.83	0.0905	1883660	keystroke_n	n	n/a
942.0555	0.075	1884111	keystroke_e	e	n/a
942.5655	0.1345	1885131	keystroke_=	=	n/a
943.5105	0.06	1887021	keystroke_Key.backspace	Key.backspace	n/a
943.6905	0.09	1887381	keystroke_Key.backspace	Key.backspace	n/a
944.0205	0.1355	1888041	keystroke_t	t	n/a
944.605	0.1505	1889210	keystroke_s	s	n/a
945.6105	0.1195	1891221	keystroke_Key.space	Key.space	n/a
945.941	0.1495	1891882	keystroke_s	s	n/a
946.2705	0.1055	1892541	keystroke_h	h	n/a
946.4505	0.15	1892901	keystroke_a	a	n/a
946.7955	0.165	1893591	keystroke_r	r	n/a
946.9455	0.09	1893891	keystroke_i	i	n/a
947.1855	0.12	1894371	keystroke_n	n	n/a
947.4105	0.1055	1894821	keystroke_g	g	n/a
948.266	0.134	1896532	keystroke_Key.enter	Key.enter	n/a
948.407	12.7455	1896814	prompt	n/a	actually interventions commit times\n
949.18	0.105	1898360	keystroke_a	a	n/a
949.465	0.165	1898930	keystroke_c	c	n/a
949.886	0.1195	1899772	keystroke_t	t	n/a
950.0805	0.105	1900161	keystroke_u	u	n/a
950.3055	0.1655	1900611	keystroke_a	a	n/a
950.5	0.1055	1901000	keystroke_l	l	n/a
950.7405	0.1345	1901481	keystroke_l	l	n/a
951.086	0.1195	1902172	keystroke_y	y	n/a
951.6405	0.135	1903281	keystroke_Key.space	Key.space	n/a
952.12	0.1205	1904240	keystroke_i	i	n/a
952.406	0.119	1904812	keystroke_n	n	n/a
952.7205	0.1355	1905441	keystroke_t	t	n/a
952.975	0.196	1905950	keystroke_e	e	n/a
954.326	0.105	1908652	keystroke_r	r	n/a
954.731	0.135	1909462	keystroke_v	v	n/a
955.031	0.1795	1910062	keystroke_e	e	n/a
955.2555	0.1045	1910511	keystroke_n	n	n/a
955.5555	0.12	1911111	keystroke_t	t	n/a
955.826	0.1045	1911652	keystroke_i	i	n/a
956.0055	0.135	1912011	keystroke_o	o	n/a
956.29	0.106	1912580	keystroke_n	n	n/a
956.5455	0.135	1913091	keystroke_s	s	n/a
956.981	0.1195	1913962	keystroke_Key.space	Key.space	n/a
957.3105	0.165	1914621	keystroke_c	c	n/a
957.5205	0.135	1915041	keystroke_o	o	n/a
957.8055	0.0755	1915611	keystroke_m	m	n/a
958.015	0.09	1916030	keystroke_m	m	n/a
958.285	0.106	1916570	keystroke_i	i	n/a
958.5405	0.12	1917081	keystroke_t	t	n/a
958.855	0.105	1917710	keystroke_Key.space	Key.space	n/a
959.3355	0.135	1918671	keystroke_t	t	n/a
959.5305	0.105	1919061	keystroke_i	i	n/a
959.8005	0.105	1919601	keystroke_m	m	n/a
959.996	0.105	1919992	keystroke_e	e	n/a
960.221	0.1945	1920442	keystroke_s	s	n/a
961.0455	0.1045	1922091	keystroke_Key.enter	Key.enter	n/a
961.158	18.459	1922316	prompt	n/a	astronomy bright quantitative tabs\n
962.1855	0.15	1924371	keystroke_a	a	n/a
962.47	0.1655	1924940	keystroke_s	s	n/a
962.861	0.0745	1925722	keystroke_t	t	n/a
963.101	0.1345	1926202	keystroke_r	r	n/a
963.401	0.135	1926802	keystroke_o	o	n/a
963.6705	0.105	1927341	keystroke_n	n	n/a
963.9405	0.135	1927881	keystroke_o	o	n/a
965.0355	0.135	1930071	keystroke_m	m	n/a
966.401	0.0895	1932802	keystroke_y	y	n/a
966.91	0.165	1933820	keystroke_Key.space	Key.space	n/a
967.915	0.1205	1935830	keystroke_b	b	n/a
968.2455	0.1495	1936491	keystroke_r	r	n/a
968.425	0.1355	1936850	keystroke_i	i	n/a
968.6505	0.135	1937301	keystroke_g	g	n/a
968.7705	0.075	1937541	keystroke_h	h	n/a
968.9805	0.12	1937961	keystroke_t	t	n/a
969.2955	0.15	1938591	keystroke_Key.space	Key.space	n/a
969.8955	0.15	1939791	keystroke_q	q	n/a
970.0305	0.0905	1940061	keystroke_u	u	n/a
970.3305	0.1045	1940661	keystroke_q	q	n/a
970.6305	0.12	1941261	keystroke_n	n	n/a
971.0205	0.09	1942041	keystroke_t	t	n/a
972.2655	0.105	1944531	keystroke_Key.backspace	Key.backspace	n/a
972.49	0.1205	1944980	keystroke_Key.backspace	Key.backspace	n/a
973.2555	0.135	1946511	keystroke_Key.backspace	Key.backspace	n/a
973.7655	0.2105	1947531	keystroke_a	a	n/a
973.9605	0.12	1947921	keystroke_n	n	n/a
974.321	0.1195	1948642	keystroke_t	t	n/a
975.056	0.1195	1950112	keystroke_i	i	n/a
975.34	0.1355	1950680	keystroke_t	t	n/a
975.671	0.165	1951342	keystroke_a	a	n/a
976.0005	0.12	1952001	keystroke_t	t	n/a
976.1505	0.1195	1952301	keystroke_i	i	n/a
976.42	0.135	1952840	keystroke_v	v	n/a
976.72	0.195	1953440	keystroke_e	e	n/a
977.3205	0.1505	1954641	keystroke_Key.space	Key.space	n/a
977.6205	0.105	1955241	keystroke_t	t	n/a
977.8455	0.12	1955691	keystroke_a	a	n/a
978.7895	0.121	1957579	keystroke_b	b	n/a
979.1055	0.15	1958211	keystroke_s	s	n/a
979.435	0.18	1958870	keystroke_Key.enter	Key.enter	n/a
979.623	13.104	1959246	prompt	n/a	summary reputation stocks check\n
980.3655	0.135	1960731	keystroke_s	s	n/a
980.8005	0.075	1961601	keystroke_u	u	n/a
981.206	0.0445	1962412	keystroke_m	m	n/a
981.3105	0.105	1962621	keystroke_m	m	n/a
981.491	0.1795	1962982	keystroke_a	a	n/a
981.8055	0.12	1963611	keystroke_r	r	n/a
981.9855	0.0905	1963971	keystroke_y	y	n/a
983.1105	0.105	1966221	keystroke_Key.space	Key.space	n/a
983.3955	0.15	1966791	keystroke_r	r	n/a
983.6205	0.135	1967241	keystroke_e	e	n/a
983.9055	0.15	1967811	keystroke_p	p	n/a
984.2055	0.09	1968411	keystroke_u	u	n/a
984.5205	0.0745	1969041	keystroke_t	t	n/a
984.79	0.1505	1969580	keystroke_a	a	n/a
985.0905	0.1055	1970181	keystroke_t	t	n/a
986.1555	0.1195	1972311	keystroke_i	i	n/a
986.365	0.105	1972730	keystroke_o	o	n/a
986.62	0.1055	1973240	keystroke_n	n	n/a
987.0855	0.135	1974171	keystroke_Key.space	Key.space	n/a
987.5955	0.15	1975191	keystroke_s	s	n/a
987.9855	0.105	1975971	keystroke_t	t	n/a
988.135	0.1205	1976270	keystroke_o	o	n/a
988.465	0.121	1976930	keystroke_c	c	n/a
988.571	0.104	1977142	keystroke_k	k	n/a
988.855	0.1355	1977710	keystroke_s	s	n/a
989.215	0.1355	1978430	keystroke_Key.space	Key.space	n/a
989.936	0.149	1979872	keystroke_c	c	n/a
990.16	0.0905	1980320	keystroke_h	h	n/a
991.0605	0.12	1982121	keystroke_e	e	n/a
991.4055	0.12	1982811	keystroke_c	c	n/a
991.57	0.1205	1983140	keystroke_k	k	n/a
992.5305	0.1945	1985061	keystroke_Key.enter	Key.enter	n/a
992.7335	12.3845	1985467	prompt	n/a	driver father recorder papua\n
993.565	0.165	1987130	keystroke_d	d	n/a
994.5105	0.12	1989021	keystroke_r	r	n/a
994.7355	0.1205	1989471	keystroke_i	i	n/a
994.9905	0.1345	1989981	keystroke_v	v	n/a
995.2905	0.165	1990581	keystroke_e	e	n/a
995.6195	0.1355	1991239	keystroke_r	r	n/a
996.3555	0.1795	1992711	keystroke_Key.space	Key.space	n/a
996.55	0.09	1993100	keystroke_f	f	n/a
996.7755	0.15	1993551	keystroke_a	a	n/a
997.0605	0.105	1994121	keystroke_t	t	n/a
997.271	0.089	1994542	keystroke_h	h	n/a
997.466	0.135	1994932	keystroke_e	e	n/a
997.736	0.119	1995472	keystroke_r	r	n/a
998.0345	0.12	1996069	keystroke_Key.space	Key.space	n/a
998.9655	0.12	1997931	keystroke_r	r	n/a
999.175	0.1205	1998350	keystroke_e	e	n/a
999.52	0.1505	1999040	keystroke_c	c	n/a
999.7305	0.1495	1999461	keystroke_o	o	n/a
1000	0.12	2000000	keystroke_r	r	n/a
1000.3305	0.1045	2000661	keystroke_d	d	n/a
1000.5855	0.1645	2001171	keystroke_e	e	n/a
1001.7705	0.1195	2003541	keystroke_r	r	n/a
1002.1005	0.135	2004201	keystroke_Key.space	Key.space	n/a
1002.8355	0.1345	2005671	keystroke_p	p	n/a
1003.06	0.1205	2006120	keystroke_a	a	n/a
1003.556	0.1495	2007112	keystroke_p	p	n/a
1003.916	0.09	2007832	keystroke_u	u	n/a
1004.185	0.135	2008370	keystroke_a	a	n/a
1004.9505	0.165	2009901	keystroke_Key.enter	Key.enter	n/a
1005.124	12.8935	2010248	prompt	n/a	scheduled volume midi happy\n
1005.9555	0.105	2011911	keystroke_s	s	n/a
1006.2255	0.1345	2012451	keystroke_c	c	n/a
1006.451	0.104	2012902	keystroke_h	h	n/a
1006.676	0.1195	2013352	keystroke_e	e	n/a
1006.96	0.165	2013920	keystroke_d	d	n/a
1007.14	0.1055	2014280	keystroke_u	u	n/a
1007.4555	0.165	2014911	keystroke_l	l	n/a
1007.6355	0.105	2015271	keystroke_e	e	n/a
1007.9205	0.135	2015841	keystroke_d	d	n/a
1008.3555	0.1645	2016711	keystroke_Key.space	Key.space	n/a
1009.255	0.1055	2018510	keystroke_v	v	n/a
1009.5695	0.136	2019139	keystroke_o	o	n/a
1009.8705	0.165	2019741	keystroke_l	l	n/a
1010.2155	0.0895	2020431	keystroke_u	u	n/a
1010.471	0.134	2020942	keystroke_m	m	n/a
1010.77	0.09	2021540	keystroke_e	e	n/a
1011.4	0.105	2022800	keystroke_Key.space	Key.space	n/a
1012.345	0.1205	2024690	keystroke_m	m	n/a
1012.66	0.0905	2025320	keystroke_i	i	n/a
1012.93	0.18	2025860	keystroke_d	d	n/a
1013.2	0.09	2026400	keystroke_i	i	n/a
1013.635	0.1505	2027270	keystroke_Key.space	Key.space	n/a
1014.116	0.12	2028232	keystroke_h	h	n/a
1014.4	0.18	2028800	keystroke_a	a	n/a
1014.7005	0.1045	2029401	keystroke_p	p	n/a
1014.911	0.134	2029822	keystroke_p	p	n/a
1017.01	0.136	2034020	keystroke_y	y	n/a
1017.865	0.1505	2035730	keystroke_Key.enter	Key.enter	n/a
1018.0225	17.368	2036045	prompt	n/a	password improved brochure miscellaneous\n
1019.2455	0.1505	2038491	keystroke_p	p	n/a
1019.501	0.1345	2039002	keystroke_a	a	n/a
1019.7555	0.105	2039511	keystroke_s	s	n/a
1019.966	0.1495	2039932	keystroke_s	s	n/a
1020.3555	0.15	2040711	keystroke_w	w	n/a
1020.5795	0.181	2041159	keystroke_o	o	n/a
1020.8505	0.12	2041701	keystroke_r	r	n/a
1021.211	0.1345	2042422	keystroke_d	d	n/a
1022.2005	0.165	2044401	keystroke_Key.space	Key.space	n/a
1022.6955	0.105	2045391	keystroke_i	i	n/a
1022.9505	0.12	2045901	keystroke_m	m	n/a
1023.2355	0.1495	2046471	keystroke_p	p	n/a
1023.55	0.1355	2047100	keystroke_r	r	n/a
1023.7005	0.1355	2047401	keystroke_o	o	n/a
1025.2	0.135	2050400	keystroke_v	v	n/a
1025.5455	0.1195	2051091	keystroke_e	e	n/a
1025.8455	0.1355	2051691	keystroke_d	d	n/a
1026.73	0.18	2053460	keystroke_Key.space	Key.space	n/a
1027.015	0.12	2054030	keystroke_b	b	n/a
1027.3605	0.1345	2054721	keystroke_r	r	n/a
1027.57	0.1655	2055140	keystroke_o	o	n/a
1027.9005	0.18	2055801	keystroke_c	c	n/a
1028.7255	0.0905	2057451	keystroke_h	h	n/a
1029.0405	0.134	2058081	keystroke_u	u	n/a
1029.265	0.1515	2058530	keystroke_r	r	n/a
1029.5805	0.165	2059161	keystroke_e	e	n/a
1030.1205	0.165	2060241	keystroke_Key.space	Key.space	n/a
1030.6905	0.1205	2061381	keystroke_m	m	n/a
1030.975	0.15	2061950	keystroke_i	i	n/a
1031.1405	0.135	2062281	keystroke_s	s	n/a
1031.4105	0.135	2062821	keystroke_c	c	n/a
1031.8755	0.135	2063751	keystroke_e	e	n/a
1032.2505	0.105	2064501	keystroke_l	l	n/a
1032.5205	0.12	2065041	keystroke_l	l	n/a
1032.7005	0.135	2065401	keystroke_a	a	n/a
1033.0155	0.12	2066031	keystroke_n	n	n/a
1033.3305	0.135	2066661	keystroke_e	e	n/a
1033.5695	0.18	2067139	keystroke_o	o	n/a
1034.0345	0.151	2068069	keystroke_u	u	n/a
1034.2905	0.1345	2068581	keystroke_s	s	n/a
1035.2505	0.135	2070501	keystroke_Key.enter	Key.enter	n/a
1035.401	12.751	2070802	prompt	n/a	podcasts msgstr nathan winston\n
1036.4805	0.1195	2072961	keystroke_p	p	n/a
1036.795	0.15	2073590	keystroke_o	o	n/a
1037.1405	0.1205	2074281	keystroke_d	d	n/a
1037.44	0.106	2074880	keystroke_c	c	n/a
1037.696	0.134	2075392	keystroke_a	a	n/a
1037.9355	0.18	2075871	keystroke_s	s	n/a
1038.3405	0.12	2076681	keystroke_t	t	n/a
1038.7005	0.134	2077401	keystroke_s	s	n/a
1039.1505	0.18	2078301	keystroke_Key.space	Key.space	n/a
1039.7505	0.135	2079501	keystroke_m	m	n/a
1040.1855	0.165	2080371	keystroke_s	s	n/a
1040.6205	0.12	2081241	keystroke_g	g	n/a
1040.98	0.165	2081960	keystroke_s	s	n/a
1041.385	0.1045	2082770	keystroke_t	t	n/a
1041.7745	0.091	2083549	keystroke_r	r	n/a
1042.375	0.135	2084750	keystroke_Key.space	Key.space	n/a
1042.8855	0.12	2085771	keystroke_n	n	n/a
1043.095	0.166	2086190	keystroke_a	a	n/a
1043.4705	0.135	2086941	keystroke_t	t	n/a
1044.2505	0.09	2088501	keystroke_h	h	n/a
1044.5205	0.1495	2089041	keystroke_a	a	n/a
1044.685	0.075	2089370	keystroke_n	n	n/a
1045.2105	0.15	2090421	keystroke_Key.space	Key.space	n/a
1045.586	0.1345	2091172	keystroke_w	w	n/a
1045.8405	0.09	2091681	keystroke_i	i	n/a
1046.05	0.12	2092100	keystroke_n	n	n/a
1046.23	0.195	2092460	keystroke_s	s	n/a
1046.605	0.105	2093210	keystroke_t	t	n/a
