onset	duration	sample	value	key	prompt_text
2.607	24.079	5214	prompt	n/a	the quick brown fox jumps over a lazy dog\n
5.413	0.088	10826	keystroke_t	t	n/a
5.485	0.1955	10970	keystroke_h	h	n/a
5.7255	0.15	11451	keystroke_e	e	n/a
6.115	0.15	12230	keystroke_Key.space	Key.space	n/a
6.34	0.1945	12680	keystroke_q	q	n/a
6.5645	0.165	13129	keystroke_u	u	n/a
6.8195	0.123	13639	keystroke_i	i	n/a
7.0325	0.15	14065	keystroke_c	c	n/a
7.1675	0.12	14335	keystroke_k	k	n/a
11.971	0.1025	23942	keystroke_Key.space	Key.space	n/a
12.029	0.1195	24058	keystroke_b	b	n/a
12.2825	0.1655	24565	keystroke_r	r	n/a
12.3725	0.2105	24745	keystroke_i	i	n/a
12.628	0.195	25256	keystroke_w	w	n/a
12.883	0.09	25766	keystroke_b	b	n/a
13.168	0.075	26336	keystroke_=	=	n/a
13.438	0.015	26876	keystroke_=	=	n/a
14.3075	0.03	28615	keystroke_Key.backspace	Key.backspace	n/a
14.4725	0.045	28945	keystroke_Key.backspace	Key.backspace	n/a
14.6385	0.045	29277	keystroke_Key.backspace	Key.backspace	n/a
14.7885	0.015	29577	keystroke_Key.backspace	Key.backspace	n/a
15.9725	0.046	31945	keystroke_Key.backspace	Key.backspace	n/a
17.5325	0.15	35065	keystroke_w	w	n/a
18.0275	0.045	36055	keystroke_Key.backspace	Key.backspace	n/a
18.8225	0.1655	37645	keystroke_o	o	n/a
19.3785	0.15	38757	keystroke_w	w	n/a
19.5585	0.1345	39117	keystroke_n	n	n/a
19.903	0.105	39806	keystroke_Key.space	Key.space	n/a
20.5635	0.18	41127	keystroke_f	f	n/a
20.7585	0.15	41517	keystroke_o	o	n/a
21.2385	0.165	42477	keystroke_x	x	n/a
21.7185	0.15	43437	keystroke_Key.space	Key.space	n/a
22.2135	0.15	44427	keystroke_j	j	n/a
22.4685	0.135	44937	keystroke_u	u	n/a
22.7535	0.2095	45507	keystroke_m	m	n/a
23.023	0.165	46046	keystroke_p	p	n/a
23.218	0.135	46436	keystroke_s	s	n/a
23.338	0.105	46676	keystroke_Key.space	Key.space	n/a
23.563	0.15	47126	keystroke_o	o	n/a
23.683	0.12	47366	keystroke_v	v	n/a
23.893	0.165	47786	keystroke_e	e	n/a
24.088	0.12	48176	keystroke_r	r	n/a
24.283	0.12	48566	keystroke_Key.space	Key.space	n/a
24.4935	0.135	48987	keystroke_a	a	n/a
24.6135	0.075	49227	keystroke_Key.space	Key.space	n/a
24.8085	0.12	49617	keystroke_l	l	n/a
24.9135	0.105	49827	keystroke_a	a	n/a
25.2585	0.18	50517	keystroke_z	z	n/a
25.5285	0.135	51057	keystroke_y	y	n/a
25.6785	0.135	51357	keystroke_Key.space	Key.space	n/a
25.8435	0.165	51687	keystroke_d	d	n/a
25.9935	0.12	51987	keystroke_o	o	n/a
26.1885	0.12	52377	keystroke_g	g	n/a
26.563	0.12	53126	keystroke_Key.enter	Key.enter	n/a
26.6905	10.435	53381	prompt	n/a	watson switched warren graduated\n
27.3435	0.105	54687	keystroke_w	w	n/a
27.5685	0.135	55137	keystroke_a	a	n/a
27.8235	0.105	55647	keystroke_t	t	n/a
28.0935	0.105	56187	keystroke_s	s	n/a
28.1685	0.225	56337	keystroke_o	o	n/a
28.3335	0.1645	56667	keystroke_n	n	n/a
28.498	0.09	56996	keystroke_Key.space	Key.space	n/a
28.648	0.09	57296	keystroke_s	s	n/a
28.873	0.15	57746	keystroke_w	w	n/a
29.008	0.1505	58016	keystroke_i	i	n/a
29.1885	0.104	58377	keystroke_t	t	n/a
29.3535	0.1345	58707	keystroke_h	h	n/a
30.1485	0.1345	60297	keystroke_c	c	n/a
31.213	0.045	62426	keystroke_Key.backspace	Key.backspace	n/a
31.363	0.045	62726	keystroke_Key.backspace	Key.backspace	n/a
31.513	0.12	63026	keystroke_c	c	n/a
31.7685	0.1345	63537	keystroke_h	h	n/a
32.113	0.075	64226	keystroke_e	e	n/a
32.353	0.1055	64706	keystroke_d	d	n/a
32.5035	0.12	65007	keystroke_Key.space	Key.space	n/a
32.6985	0.105	65397	keystroke_w	w	n/a
32.9385	0.105	65877	keystroke_a	a	n/a
33.1485	0.105	66297	keystroke_r	r	n/a
33.3585	0.075	66717	keystroke_r	r	n/a
33.5535	0.12	67107	keystroke_e	e	n/a
33.6885	0.1495	67377	keystroke_n	n	n/a
33.853	0.12	67706	keystroke_Key.space	Key.space	n/a
34.183	0.075	68366	keystroke_g	g	n/a
34.423	0.1055	68846	keystroke_r	r	n/a
34.7385	0.105	69477	keystroke_a	a	n/a
34.9485	0.135	69897	keystroke_d	d	n/a
35.1285	0.1195	70257	keystroke_u	u	n/a
36.028	0.12	72056	keystroke_a	a	n/a
36.298	0.12	72596	keystroke_t	t	n/a
36.493	0.106	72986	keystroke_e	e	n/a
36.7335	0.09	73467	keystroke_d	d	n/a
37.0185	0.105	74037	keystroke_Key.enter	Key.enter	n/a
37.129	11.9515	74258	prompt	n/a	macromedia parties negative riding\n
37.889	0.1045	75778	keystroke_m	m	n/a
38.024	0.1345	76048	keystroke_a	a	n/a
38.3835	0.12	76767	keystroke_c	c	n/a
38.6685	0.105	77337	keystroke_r	r	n/a
39.3285	0.125	78657	keystroke_o	o	n/a
39.5685	0.12	79137	keystroke_m	m	n/a
39.7335	0.105	79467	keystroke_e	e	n/a
41.114	0.12	82228	keystroke_d	d	n/a
41.414	0.1195	82828	keystroke_i	i	n/a
41.6235	0.12	83247	keystroke_a	a	n/a
41.8335	0.09	83667	keystroke_Key.space	Key.space	n/a
42.0885	0.165	84177	keystroke_p	p	n/a
42.1485	0.15	84297	keystroke_a	a	n/a
42.4035	0.09	84807	keystroke_r	r	n/a
42.5985	0.09	85197	keystroke_t	t	n/a
42.7185	0.12	85437	keystroke_i	i	n/a
42.8985	0.09	85797	keystroke_e	e	n/a
43.1535	0.09	86307	keystroke_s	s	n/a
43.2735	0.1055	86547	keystroke_Key.space	Key.space	n/a
43.544	0.09	87088	keystroke_m	m	n/a
45.344	0.015	90688	keystroke_Key.backspace	Key.backspace	n/a
45.914	0.12	91828	keystroke_n	n	n/a
46.0485	0.12	92097	keystroke_e	e	n/a
46.3035	0.105	92607	keystroke_g	g	n/a
46.5135	0.105	93027	keystroke_a	a	n/a
46.724	0.089	93448	keystroke_t	t	n/a
46.829	0.089	93658	keystroke_i	i	n/a
46.993	0.09	93986	keystroke_v	v	n/a
47.188	0.105	94376	keystroke_e	e	n/a
47.338	0.0905	94676	keystroke_Key.space	Key.space	n/a
47.6535	0.15	95307	keystroke_r	r	n/a
47.7885	0.165	95577	keystroke_i	i	n/a
48.0135	0.12	96027	keystroke_d	d	n/a
48.1345	0.149	96269	keystroke_i	i	n/a
48.3135	0.135	96627	keystroke_n	n	n/a
48.4185	0.135	96837	keystroke_g	g	n/a
49.033	0.045	98066	keystroke_Key.enter	Key.enter	n/a
49.084	14.4265	98168	prompt	n/a	booty mines reference contractor\n
50.0385	0.12	100077	keystroke_b	b	n/a
50.1885	0.06	100377	keystroke_o	o	n/a
50.3385	0.075	100677	keystroke_o	o	n/a
50.534	0.12	101068	keystroke_t	t	n/a
50.759	0.1195	101518	keystroke_y	y	n/a
50.8935	0.15	101787	keystroke_Key.space	Key.space	n/a
51.2085	0.15	102417	keystroke_m	m	n/a
51.4485	0.135	102897	keystroke_i	i	n/a
51.5985	0.135	103197	keystroke_n	n	n/a
51.7785	0.12	103557	keystroke_e	e	n/a
52.0335	0.075	104067	keystroke_s	s	n/a
52.1235	0.12	104247	keystroke_Key.space	Key.space	n/a
52.6035	0.12	105207	keystroke_r	r	n/a
52.874	0.195	105748	keystroke_e	e	n/a
53.339	0.105	106678	keystroke_f	f	n/a
53.564	0.135	107128	keystroke_e	e	n/a
53.759	0.105	107518	keystroke_r	r	n/a
53.984	0.105	107968	keystroke_n	n	n/a
54.314	0.075	108628	keystroke_c	c	n/a
54.554	0.045	109108	keystroke_e	e	n/a
55.7685	0.06	111537	keystroke_Key.backspace	Key.backspace	n/a
55.9935	0.045	111987	keystroke_Key.backspace	Key.backspace	n/a
56.1885	0.0595	112377	keystroke_Key.backspace	Key.backspace	n/a
57.104	0.0895	114208	keystroke_e	e	n/a
57.299	0.135	114598	keystroke_n	n	n/a
57.5685	0.09	115137	keystroke_c	c	n/a
57.8235	0.075	115647	keystroke_e	e	n/a
57.9285	0.105	115857	keystroke_Key.space	Key.space	n/a
58.1985	0.1355	116397	keystroke_o	o	n/a
58.3185	0.165	116637	keystroke_n	n	n/a
58.4385	0.09	116877	keystroke_t	t	n/a
58.6335	0.105	117267	keystroke_r	r	n/a
59.5935	0.1505	119187	keystroke_a	a	n/a
60.104	0.06	120208	keystroke_Key.backspace	Key.backspace	n/a
60.314	0.045	120628	keystroke_Key.backspace	Key.backspace	n/a
60.464	0.06	120928	keystroke_Key.backspace	Key.backspace	n/a
60.599	0.075	121198	keystroke_Key.backspace	Key.backspace	n/a
60.749	0.045	121498	keystroke_Key.backspace	Key.backspace	n/a
61.1985	0.105	122397	keystroke_c	c	n/a
61.3485	0.18	122697	keystroke_o	o	n/a
61.5135	0.12	123027	keystroke_n	n	n/a
61.6635	0.105	123327	keystroke_t	t	n/a
61.8585	0.105	123717	keystroke_r	r	n/a
62.1285	0.105	124257	keystroke_a	a	n/a
62.3685	0.075	124737	keystroke_c	c	n/a
62.6085	0.075	125217	keystroke_t	t	n/a
62.6845	0.089	125369	keystroke_o	o	n/a
62.8635	0.105	125727	keystroke_r	r	n/a
63.404	0.105	126808	keystroke_Key.enter	Key.enter	n/a
63.514	7.211	127028	prompt	n/a	priced genre shark freeware\n
64.454	0.195	128908	keystroke_p	p	n/a
64.664	0.105	129328	keystroke_r	r	n/a
64.769	0.135	129538	keystroke_i	i	n/a
64.964	0.12	129928	keystroke_c	c	n/a
65.1885	0.105	130377	keystroke_e	e	n/a
65.4135	0.09	130827	keystroke_d	d	n/a
65.5635	0.12	131127	keystroke_Key.space	Key.space	n/a
65.8785	0.12	131757	keystroke_g	g	n/a
66.1485	0.12	132297	keystroke_e	e	n/a
66.2835	0.1505	132567	keystroke_n	n	n/a
66.5685	0.165	133137	keystroke_r	r	n/a
67.2135	0.075	134427	keystroke_e	e	n/a
67.3935	0.09	134787	keystroke_Key.space	Key.space	n/a
67.5885	0.1505	135177	keystroke_s	s	n/a
67.754	0.09	135508	keystroke_h	h	n/a
67.964	0.12	135928	keystroke_a	a	n/a
68.204	0.12	136408	keystroke_r	r	n/a
68.444	0.165	136888	keystroke_k	k	n/a
68.684	0.09	137368	keystroke_Key.space	Key.space	n/a
68.894	0.075	137788	keystroke_f	f	n/a
69.044	0.15	138088	keystroke_r	r	n/a
69.209	0.0895	138418	keystroke_e	e	n/a
69.4035	0.06	138807	keystroke_e	e	n/a
69.6585	0.12	139317	keystroke_w	w	n/a
69.9135	0.135	139827	keystroke_a	a	n/a
70.1385	0.12	140277	keystroke_r	r	n/a
70.3035	0.105	140607	keystroke_e	e	n/a
70.6335	0.0905	141267	keystroke_Key.enter	Key.enter	n/a
70.7285	9.0725	141457	prompt	n/a	adjustments swap atom principal\n
71.6235	0.135	143247	keystroke_a	a	n/a
72.569	0.12	145138	keystroke_d	d	n/a
72.959	0.105	145918	keystroke_j	j	n/a
73.169	0.135	146338	keystroke_u	u	n/a
73.244	0.0895	146488	keystroke_s	s	n/a
73.4385	0.105	146877	keystroke_t	t	n/a
73.5885	0.135	147177	keystroke_m	m	n/a
73.6935	0.12	147387	keystroke_e	e	n/a
73.8285	0.15	147657	keystroke_n	n	n/a
73.9185	0.12	147837	keystroke_t	t	n/a
74.2185	0.105	148437	keystroke_s	s	n/a
74.4135	0.09	148827	keystroke_Key.space	Key.space	n/a
74.5485	0.03	149097	keystroke_w	w	n/a
75.1785	0.075	150357	keystroke_Key.backspace	Key.backspace	n/a
75.2685	0.105	150537	keystroke_s	s	n/a
75.5235	0.09	151047	keystroke_w	w	n/a
75.7335	0.18	151467	keystroke_a	a	n/a
75.9735	0.165	151947	keystroke_p	p	n/a
76.2435	0.105	152487	keystroke_Key.space	Key.space	n/a
76.5135	0.15	153027	keystroke_a	a	n/a
76.7985	0.075	153597	keystroke_t	t	n/a
76.9185	0.09	153837	keystroke_o	o	n/a
77.0685	0.165	154137	keystroke_m	m	n/a
77.2635	0.12	154527	keystroke_Key.space	Key.space	n/a
77.504	0.15	155008	keystroke_p	p	n/a
77.669	0.12	155338	keystroke_r	r	n/a
77.894	0.12	155788	keystroke_i	i	n/a
78.089	0.12	156178	keystroke_n	n	n/a
78.434	0.15	156868	keystroke_c	c	n/a
78.569	0.105	157138	keystroke_i	i	n/a
78.8085	0.15	157617	keystroke_p	p	n/a
78.9735	0.15	157947	keystroke_a	a	n/a
79.2285	0.165	158457	keystroke_l	l	n/a
79.6785	0.12	159357	keystroke_Key.enter	Key.enter	n/a
79.805	9.5805	159610	prompt	n/a	rent sympathy measures lowest\n
80.5045	0.119	161009	keystroke_r	r	n/a
80.6535	0.09	161307	keystroke_e	e	n/a
80.7735	0.12	161547	keystroke_n	n	n/a
80.9085	0.075	161817	keystroke_t	t	n/a
81.0435	0.06	162087	keystroke_Key.space	Key.space	n/a
81.374	0.1195	162748	keystroke_y	y	n/a
81.479	0.1345	162958	keystroke_s	s	n/a
82.259	0.105	164518	keystroke_m	m	n/a
82.589	0.165	165178	keystroke_p	p	n/a
82.9935	0.045	165987	keystroke_Key.backspace	Key.backspace	n/a
83.1435	0.045	166287	keystroke_Key.backspace	Key.backspace	n/a
83.2485	0.075	166497	keystroke_Key.backspace	Key.backspace	n/a
83.4135	0.03	166827	keystroke_Key.backspace	Key.backspace	n/a
83.8335	0.075	167667	keystroke_s	s	n/a
84.1485	0.1205	168297	keystroke_y	y	n/a
84.479	0.18	168958	keystroke_m	m	n/a
84.674	0.165	169348	keystroke_p	p	n/a
84.794	0.12	169588	keystroke_a	a	n/a
85.034	0.105	170068	keystroke_t	t	n/a
85.154	0.165	170308	keystroke_h	h	n/a
85.454	0.09	170908	keystroke_y	y	n/a
85.634	0.134	171268	keystroke_Key.space	Key.space	n/a
85.859	0.135	171718	keystroke_m	m	n/a
86.009	0.09	172018	keystroke_e	e	n/a
86.279	0.09	172558	keystroke_a	a	n/a
86.489	0.12	172978	keystroke_s	s	n/a
86.624	0.135	173248	keystroke_u	u	n/a
86.744	0.12	173488	keystroke_r	r	n/a
86.894	0.09	173788	keystroke_e	e	n/a
87.1335	0.105	174267	keystroke_s	s	n/a
87.2535	0.105	174507	keystroke_Key.space	Key.space	n/a
87.4935	0.09	174987	keystroke_l	l	n/a
87.6885	0.105	175377	keystroke_o	o	n/a
87.8085	0.09	175617	keystroke_w	w	n/a
87.9585	0.12	175917	keystroke_e	e	n/a
88.664	0.0745	177328	keystroke_s	s	n/a
88.9635	0.09	177927	keystroke_t	t	n/a
89.263	0.12	178526	keystroke_Key.enter	Key.enter	n/a
89.3905	23.095	178781	prompt	n/a	basics deutschland ethernet classical\n
90.0585	0.075	180117	keystroke_b	b	n/a
90.2835	0.15	180567	keystroke_a	a	n/a
90.508	0.1355	181016	keystroke_s	s	n/a
90.6885	0.15	181377	keystroke_k	k	n/a
90.988	0.0905	181976	keystroke_i	i	n/a
91.0635	0.1355	182127	keystroke_c	c	n/a
91.289	0.09	182578	keystroke_Key.space	Key.space	n/a
91.4985	0.1055	182997	keystroke_d	d	n/a
91.814	0.1495	183628	keystroke_e	e	n/a
92.534	0.06	185068	keystroke_Key.backspace	Key.backspace	n/a
92.684	0.06	185368	keystroke_Key.backspace	Key.backspace	n/a
92.819	0.06	185638	keystroke_Key.backspace	Key.backspace	n/a
92.954	0.075	185908	keystroke_Key.backspace	Key.backspace	n/a
93.254	0.075	186508	keystroke_Key.backspace	Key.backspace	n/a
93.674	0.075	187348	keystroke_Key.backspace	Key.backspace	n/a
94.304	0.015	188608	keystroke_i	i	n/a
95.054	0.0745	190108	keystroke_c	c	n/a
95.7885	0.105	191577	keystroke_Key.space	Key.space	n/a
96.1035	0.09	192207	keystroke_d	d	n/a
96.3135	0.105	192627	keystroke_e	e	n/a
96.599	0.12	193198	keystroke_u	u	n/a
96.959	0.105	193918	keystroke_t	t	n/a
97.229	0.075	194458	keystroke_s	s	n/a
97.5285	0.165	195057	keystroke_c	c	n/a
97.7235	0.075	195447	keystroke_h	h	n/a
98.773	0.06	197546	keystroke_l	l	n/a
98.984	0.135	197968	keystroke_a	a	n/a
99.2385	0.09	198477	keystroke_n	n	n/a
99.4635	0.105	198927	keystroke_d	d	n/a
99.7485	0.105	199497	keystroke_Key.space	Key.space	n/a
100.1685	0.075	200337	keystroke_e	e	n/a
100.6185	0.165	201237	keystroke_h	h	n/a
100.7685	0.135	201537	keystroke_t	t	n/a
100.9785	0.12	201957	keystroke_e	e	n/a
101.1585	0.12	202317	keystroke_r	r	n/a
101.353	0.12	202706	keystroke_n	n	n/a
101.488	0.12	202976	keystroke_e	e	n/a
101.714	0.1195	203428	keystroke_t	t	n/a
101.8485	0.09	203697	keystroke_Key.space	Key.space	n/a
102.134	0.105	204268	keystroke_c	c	n/a
102.284	0.12	204568	keystroke_l	l	n/a
102.464	0.135	204928	keystroke_a	a	n/a
104.024	0.06	208048	keystroke_Key.backspace	Key.backspace	n/a
104.264	0.044	208528	keystroke_Key.backspace	Key.backspace	n/a
104.489	0.06	208978	keystroke_Key.backspace	Key.backspace	n/a
104.6985	0.09	209397	keystroke_Key.backspace	Key.backspace	n/a
104.9685	0.045	209937	keystroke_Key.backspace	Key.backspace	n/a
105.1935	0.045	210387	keystroke_Key.backspace	Key.backspace	n/a
105.7035	0.06	211407	keystroke_Key.backspace	Key.backspace	n/a
105.8985	0.045	211797	keystroke_Key.backspace	Key.backspace	n/a
106.0635	0.165	212127	keystroke_Key.backspace	Key.backspace	n/a
106.6185	0.12	213237	keystroke_Key.backspace	Key.backspace	n/a
107.0235	0.045	214047	keystroke_Key.backspace	Key.backspace	n/a
107.879	0.135	215758	keystroke_t	t	n/a
108.044	0.15	216088	keystroke_h	h	n/a
108.164	0.15	216328	keystroke_e	e	n/a
108.374	0.1195	216748	keystroke_r	r	n/a
108.5385	0.135	217077	keystroke_n	n	n/a
108.6885	0.105	217377	keystroke_e	e	n/a
108.9585	0.105	217917	keystroke_t	t	n/a
109.214	0.09	218428	keystroke_Key.space	Key.space	n/a
109.454	0.105	218908	keystroke_c	c	n/a
109.634	0.135	219268	keystroke_l	l	n/a
109.814	0.12	219628	keystroke_a	a	n/a
110.069	0.1195	220138	keystroke_s	s	n/a
110.3385	0.045	220677	keystroke_i	i	n/a
110.804	0.12	221608	keystroke_Key.backspace	Key.backspace	n/a
110.999	0.09	221998	keystroke_s	s	n/a
111.4935	0.12	222987	keystroke_i	i	n/a
111.6735	0.135	223347	keystroke_c	c	n/a
111.8835	0.12	223767	keystroke_a	a	n/a
111.9885	0.135	223977	keystroke_l	l	n/a
112.3785	0.105	224757	keystroke_Key.enter	Key.enter	n/a
112.4905	10.4195	224981	prompt	n/a	boating hydrogen reaction electric\n
113.3985	0.165	226797	keystroke_b	b	n/a
113.5785	0.09	227157	keystroke_o	o	n/a
113.7735	0.135	227547	keystroke_a	a	n/a
114.0135	0.12	228027	keystroke_t	t	n/a
114.1185	0.1955	228237	keystroke_i	i	n/a
114.284	0.164	228568	keystroke_n	n	n/a
114.434	0.105	228868	keystroke_g	g	n/a
114.598	0.12	229196	keystroke_Key.space	Key.space	n/a
115.138	0.121	230276	keystroke_h	h	n/a
115.439	0.12	230878	keystroke_y	y	n/a
115.574	0.12	231148	keystroke_d	d	n/a
115.799	0.09	231598	keystroke_r	r	n/a
115.919	0.135	231838	keystroke_o	o	n/a
116.069	0.09	232138	keystroke_g	g	n/a
116.233	0.121	232466	keystroke_e	e	n/a
116.354	0.1645	232708	keystroke_n	n	n/a
116.5785	0.135	233157	keystroke_Key.space	Key.space	n/a
116.8185	0.15	233637	keystroke_r	r	n/a
117.0135	0.1195	234027	keystroke_e	e	n/a
117.298	0.12	234596	keystroke_a	a	n/a
117.5535	0.105	235107	keystroke_c	c	n/a
117.8235	0.12	235647	keystroke_t	t	n/a
118.0035	0.09	236007	keystroke_i	i	n/a
118.0795	0.2845	236159	keystroke_o	o	n/a
118.334	0.21	236668	keystroke_n	n	n/a
118.604	0.12	237208	keystroke_Key.space	Key.space	n/a
119.114	0.135	238228	keystroke_e	e	n/a
119.399	0.06	238798	keystroke_l	l	n/a
120.6285	0.105	241257	keystroke_e	e	n/a
120.9885	0.12	241977	keystroke_t	t	n/a
121.2285	0.09	242457	keystroke_r	r	n/a
121.5135	0.12	243027	keystroke_i	i	n/a
122.4885	0.12	244977	keystroke_c	c	n/a
122.7885	0.12	245577	keystroke_Key.enter	Key.enter	n/a
122.9135	24.432	245827	prompt	n/a	estimate discounted happened xanax\n
123.629	0.105	247258	keystroke_e	e	n/a
123.8685	0.12	247737	keystroke_s	s	n/a
124.0935	0.105	248187	keystroke_t	t	n/a
124.2135	0.1205	248427	keystroke_i	i	n/a
124.349	0.1495	248698	keystroke_m	m	n/a
124.5585	0.135	249117	keystroke_a	a	n/a
124.7985	0.09	249597	keystroke_t	t	n/a
124.9635	0.105	249927	keystroke_e	e	n/a
125.2485	0.015	250497	keystroke_Key.space	Key.space	n/a
125.3685	0.1055	250737	keystroke_d	d	n/a
125.519	0.09	251038	keystroke_i	i	n/a
125.699	0.045	251398	keystroke_s	s	n/a
126.254	0.105	252508	keystroke_c	c	n/a
126.509	0.06	253018	keystroke_a	a	n/a
126.524	0.1045	253048	keystroke_o	o	n/a
126.7035	0.105	253407	keystroke_u	u	n/a
126.9885	0.21	253977	keystroke_n	n	n/a
127.1235	0.12	254247	keystroke_t	t	n/a
127.3635	0.12	254727	keystroke_e	e	n/a
128.2185	0.06	256437	keystroke_d	d	n/a
128.954	0.09	257908	keystroke_Key.space	Key.space	n/a
129.329	0.045	258658	keystroke_Key.backspace	Key.backspace	n/a
129.539	0.06	259078	keystroke_Key.backspace	Key.backspace	n/a
129.734	0.06	259468	keystroke_Key.backspace	Key.backspace	n/a
129.929	0.105	259858	keystroke_Key.backspace	Key.backspace	n/a
130.064	0.09	260128	keystroke_Key.backspace	Key.backspace	n/a
130.229	0.075	260458	keystroke_Key.backspace	Key.backspace	n/a
130.409	0.06	260818	keystroke_Key.backspace	Key.backspace	n/a
130.8435	0.0745	261687	keystroke_Key.backspace	Key.backspace	n/a
131.488	0.12	262976	keystroke_o	o	n/a
131.713	0.106	263426	keystroke_u	u	n/a
131.9535	0.15	263907	keystroke_n	n	n/a
132.0735	0.12	264147	keystroke_t	t	n/a
132.2835	0.0905	264567	keystroke_e	e	n/a
132.509	0.105	265018	keystroke_d	d	n/a
132.5995	0.0895	265199	keystroke_Key.space	Key.space	n/a
132.824	0.165	265648	keystroke_h	h	n/a
132.959	0.15	265918	keystroke_a	a	n/a
133.154	0.105	266308	keystroke_p	p	n/a
133.349	0.1495	266698	keystroke_p	p	n/a
133.5285	0.135	267057	keystroke_e	e	n/a
133.9485	0.1655	267897	keystroke_n	n	n/a
134.129	0.12	268258	keystroke_e	e	n/a
134.519	0.105	269038	keystroke_d	d	n/a
134.714	0.12	269428	keystroke_Key.space	Key.space	n/a
135.3585	0.195	270717	keystroke_z	z	n/a
136.168	0.075	272336	keystroke_Key.backspace	Key.backspace	n/a
138.0135	0.075	276027	keystroke_x	x	n/a
139.739	0.135	279478	keystroke_a	a	n/a
139.994	0.1195	279988	keystroke_n	n	n/a
140.6685	0.15	281337	keystroke_x	x	n/a
141.0435	0.135	282087	keystroke_a	a	n/a
142.5585	0.045	285117	keystroke_Key.backspace	Key.backspace	n/a
142.7385	0.135	285477	keystroke_Key.backspace	Key.backspace	n/a
144.719	0.15	289438	keystroke_a	a	n/a
146.684	0.119	293368	keystroke_x	x	n/a
147.313	0.03	294626	keystroke_Key.enter	Key.enter	n/a
147.349	24.4465	294698	prompt	n/a	immigrants poem hunt famous\n
148.2585	0.105	296517	keystroke_i	i	n/a
148.4685	0.12	296937	keystroke_m	m	n/a
148.7385	0.015	297477	keystroke_m	m	n/a
149.0235	0.0895	298047	keystroke_m	m	n/a
149.4435	0.045	298887	keystroke_Key.backspace	Key.backspace	n/a
149.9385	0.1355	299877	keystroke_i	i	n/a
150.089	0.1195	300178	keystroke_g	g	n/a
150.3285	0.09	300657	keystroke_r	r	n/a
150.5535	0.165	301107	keystroke_a	a	n/a
150.6435	0.105	301287	keystroke_n	n	n/a
151.139	0.09	302278	keystroke_s	s	n/a
152.1135	0.03	304227	keystroke_Key.backspace	Key.backspace	n/a
152.2935	0.09	304587	keystroke_t	t	n/a
152.579	0.09	305158	keystroke_s	s	n/a
152.7885	0.135	305577	keystroke_Key.space	Key.space	n/a
153.1635	0.24	306327	keystroke_p	p	n/a
153.5535	0.015	307107	keystroke_p	p	n/a
164.761	0.001	329522	keystroke_f	f	n/a
166.0045	0.06	332009	keystroke_Key.backspace	Key.backspace	n/a
166.2145	0.045	332429	keystroke_Key.backspace	Key.backspace	n/a
167.5485	0.016	335097	keystroke_o	o	n/a
167.5795	0.134	335159	keystroke_e	e	n/a
167.8335	0.136	335667	keystroke_m	m	n/a
168.1635	0.12	336327	keystroke_Key.space	Key.space	n/a
168.6145	0.105	337229	keystroke_h	h	n/a
168.824	0.09	337648	keystroke_u	u	n/a
169.064	0.18	338128	keystroke_n	n	n/a
169.259	0.09	338518	keystroke_t	t	n/a
169.439	0.06	338878	keystroke_Key.space	Key.space	n/a
169.619	0.075	339238	keystroke_f	f	n/a
169.889	0.075	339778	keystroke_a	a	n/a
169.979	0.135	339958	keystroke_m	m	n/a
170.2195	0.06	340439	keystroke_o	o	n/a
170.444	0.09	340888	keystroke_u	u	n/a
170.594	0.105	341188	keystroke_s	s	n/a
171.6895	0.105	343379	keystroke_Key.enter	Key.enter	n/a
171.799	17.2765	343598	prompt	n/a	department biology jackie affected\n
172.514	0.075	345028	keystroke_d	d	n/a
172.754	0.075	345508	keystroke_e	e	n/a
172.994	0.135	345988	keystroke_p	p	n/a
173.369	0.135	346738	keystroke_a	a	n/a
173.639	0.045	347278	keystroke_r	r	n/a
173.924	0.03	347848	keystroke_t	t	n/a
174.389	0.1205	348778	keystroke_m	m	n/a
174.5245	0.135	349049	keystroke_e	e	n/a
174.6745	0.12	349349	keystroke_n	n	n/a
174.8095	0.104	349619	keystroke_t	t	n/a
175.0485	0.075	350097	keystroke_Key.space	Key.space	n/a
175.2885	0.106	350577	keystroke_b	b	n/a
175.4545	0.104	350909	keystroke_i	i	n/a
175.6785	0.136	351357	keystroke_l	l	n/a
175.9485	0.09	351897	keystroke_o	o	n/a
176.264	0.105	352528	keystroke_o	o	n/a
176.399	0.135	352798	keystroke_g	g	n/a
176.669	0.135	353338	keystroke_y	y	n/a
176.849	0.0895	353698	keystroke_Key.space	Key.space	n/a
177.0885	0.12	354177	keystroke_j	j	n/a
177.2685	0.105	354537	keystroke_a	a	n/a
177.5685	0.15	355137	keystroke_c	c	n/a
178.1235	0.06	356247	keystroke_Key.backspace	Key.backspace	n/a
178.3335	0.045	356667	keystroke_Key.backspace	Key.backspace	n/a
178.739	0.045	357478	keystroke_Key.backspace	Key.backspace	n/a
178.9185	0.1205	357837	keystroke_Key.backspace	Key.backspace	n/a
179.129	0.06	358258	keystroke_Key.backspace	Key.backspace	n/a
179.3235	0.046	358647	keystroke_Key.backspace	Key.backspace	n/a
179.5945	0.045	359189	keystroke_Key.backspace	Key.backspace	n/a
179.8795	0.075	359759	keystroke_g	g	n/a
180.3445	0.045	360689	keystroke_Key.backspace	Key.backspace	n/a
181.349	0.075	362698	keystroke_Key.backspace	Key.backspace	n/a
181.649	0.075	363298	keystroke_Key.backspace	Key.backspace	n/a
182.159	0.06	364318	keystroke_o	o	n/a
182.504	0.12	365008	keystroke_l	l	n/a
182.7445	0.09	365489	keystroke_o	o	n/a
182.9845	0.135	365969	keystroke_g	g	n/a
183.2395	0.12	366479	keystroke_y	y	n/a
183.5095	0.105	367019	keystroke_Key.space	Key.space	n/a
183.8545	0.134	367709	keystroke_j	j	n/a
184.0485	0.106	368097	keystroke_a	a	n/a
184.3345	0.1345	368669	keystroke_c	c	n/a
184.544	0.12	369088	keystroke_k	k	n/a
184.829	0.135	369658	keystroke_i	i	n/a
185.069	0.105	370138	keystroke_e	e	n/a
185.8935	0.151	371787	keystroke_Key.space	Key.space	n/a
186.0595	0.135	372119	keystroke_a	a	n/a
186.3445	0.09	372689	keystroke_f	f	n/a
186.5695	0.12	373139	keystroke_f	f	n/a
187.3945	0.105	374789	keystroke_e	e	n/a
187.7845	0.0745	375569	keystroke_c	c	n/a
188.054	0.105	376108	keystroke_t	t	n/a
188.339	0.09	376678	keystroke_e	e	n/a
188.639	0.09	377278	keystroke_d	d	n/a
188.924	0.15	377848	keystroke_Key.enter	Key.enter	n/a
189.079	13.3765	378158	prompt	n/a	reasons typing clearing monitors\n
189.9585	0.121	379917	keystroke_r	r	n/a
190.1695	0.12	380339	keystroke_e	e	n/a
190.439	0.12	380878	keystroke_a	a	n/a
190.7085	0.135	381417	keystroke_s	s	n/a
190.8735	0.211	381747	keystroke_o	o	n/a
191.0685	0.195	382137	keystroke_n	n	n/a
191.2785	0.15	382557	keystroke_Key.space	Key.space	n/a
191.5485	0.1055	383097	keystroke_t	t	n/a
191.789	0.1645	383578	keystroke_y	y	n/a
192.4945	0.135	384989	keystroke_o	o	n/a
193.3345	0.135	386669	keystroke_Key.backspace	Key.backspace	n/a
194.1745	0.1195	388349	keystroke_p	p	n/a
194.444	0.21	388888	keystroke_o	o	n/a
194.6685	0.195	389337	keystroke_i	i	n/a
194.879	0.2255	389758	keystroke_n	n	n/a
195.3595	0.15	390719	keystroke_g	g	n/a
195.8395	0.075	391679	keystroke_Key.backspace	Key.backspace	n/a
196.034	0.06	392068	keystroke_Key.backspace	Key.backspace	n/a
196.199	0.075	392398	keystroke_Key.backspace	Key.backspace	n/a
196.364	0.0755	392728	keystroke_Key.backspace	Key.backspace	n/a
196.8445	0.18	393689	keystroke_i	i	n/a
197.0545	0.12	394109	keystroke_n	n	n/a
197.2645	0.1645	394529	keystroke_g	g	n/a
197.474	0.105	394948	keystroke_Key.space	Key.space	n/a
197.969	0.135	395938	keystroke_c	c	n/a
198.164	0.165	396328	keystroke_l	l	n/a
198.389	0.12	396778	keystroke_e	e	n/a
198.644	0.1495	397288	keystroke_a	a	n/a
198.8685	0.12	397737	keystroke_r	r	n/a
199.0635	0.166	398127	keystroke_i	i	n/a
199.2135	0.135	398427	keystroke_n	n	n/a
199.3935	0.075	398787	keystroke_g	g	n/a
199.5435	0.12	399087	keystroke_Key.space	Key.space	n/a
199.8135	0.136	399627	keystroke_m	m	n/a
200.0395	0.15	400079	keystroke_o	o	n/a
200.2035	0.106	400407	keystroke_n	n	n/a
201.3285	0.105	402657	keystroke_i	i	n/a
201.494	0.12	402988	keystroke_t	t	n/a
201.659	0.075	403318	keystroke_o	o	n/a
201.7495	0.1045	403499	keystroke_r	r	n/a
202.1245	0.09	404249	keystroke_s	s	n/a
202.349	0.105	404698	keystroke_Key.enter	Key.enter	n/a
202.4595	10.541	404919	prompt	n/a	discretion harassment advert receives\n
203.504	0.105	407008	keystroke_d	d	n/a
203.6695	0.09	407339	keystroke_i	i	n/a
203.8645	0.09	407729	keystroke_s	s	n/a
204.1045	0.134	408209	keystroke_c	c	n/a
204.3735	0.1205	408747	keystroke_r	r	n/a
204.599	0.135	409198	keystroke_e	e	n/a
204.9295	0.09	409859	keystroke_t	t	n/a
205.1095	0.105	410219	keystroke_i	i	n/a
205.2295	0.195	410459	keystroke_o	o	n/a
205.4095	0.1645	410819	keystroke_n	n	n/a
205.604	0.165	411208	keystroke_Key.space	Key.space	n/a
206.279	0.135	412558	keystroke_h	h	n/a
206.415	0.1345	412830	keystroke_a	a	n/a
206.6695	0.075	413339	keystroke_r	r	n/a
207.359	0.105	414718	keystroke_a	a	n/a
207.734	0.075	415468	keystroke_s	s	n/a
207.914	0.105	415828	keystroke_s	s	n/a
208.184	0.1205	416368	keystroke_m	m	n/a
208.3195	0.12	416639	keystroke_e	e	n/a
208.4845	0.09	416969	keystroke_n	n	n/a
208.5895	0.119	417179	keystroke_t	t	n/a
208.7385	0.105	417477	keystroke_Key.space	Key.space	n/a
209.1295	0.15	418259	keystroke_a	a	n/a
209.3995	0.12	418799	keystroke_d	d	n/a
209.639	0.12	419278	keystroke_v	v	n/a
209.834	0.1795	419668	keystroke_e	e	n/a
210.0295	0.135	420059	keystroke_r	r	n/a
210.2685	0.12	420537	keystroke_t	t	n/a
210.449	0.105	420898	keystroke_Key.space	Key.space	n/a
210.644	0.12	421288	keystroke_r	r	n/a
210.869	0.105	421738	keystroke_e	e	n/a
211.2735	0.075	422547	keystroke_c	c	n/a
211.4385	0.12	422877	keystroke_i	i	n/a
211.5885	0.105	423177	keystroke_e	e	n/a
211.934	0.12	423868	keystroke_v	v	n/a
212.189	0.0605	424378	keystroke_e	e	n/a
212.474	0.09	424948	keystroke_s	s	n/a
212.939	0.06	425878	keystroke_Key.enter	Key.enter	n/a
213.004	13.1665	426008	prompt	n/a	oval rachel streets psychological\n
213.989	0.105	427978	keystroke_o	o	n/a
214.124	0.09	428248	keystroke_v	v	n/a
214.319	0.135	428638	keystroke_a	a	n/a
214.544	0.1505	429088	keystroke_l	l	n/a
214.7995	0.105	429599	keystroke_Key.space	Key.space	n/a
215.1585	0.165	430317	keystroke_r	r	n/a
215.654	0.09	431308	keystroke_a	a	n/a
215.954	0.135	431908	keystroke_c	c	n/a
216.209	0.12	432418	keystroke_h	h	n/a
216.419	0.0905	432838	keystroke_e	e	n/a
216.6745	0.255	433349	keystroke_l	l	n/a
217.6195	0.15	435239	keystroke_Key.space	Key.space	n/a
217.8295	0.105	435659	keystroke_s	s	n/a
218.0695	0.12	436139	keystroke_t	t	n/a
218.3245	0.12	436649	keystroke_r	r	n/a
220.8465	0.012	441693	keystroke_e	e	n/a
220.9795	0.105	441959	keystroke_e	e	n/a
221.2485	0.061	442497	keystroke_t	t	n/a
221.4735	0.091	442947	keystroke_Key.space	Key.space	n/a
222.1785	0.136	444357	keystroke_p	p	n/a
222.6145	0.165	445229	keystroke_y	y	n/a
222.884	0.12	445768	keystroke_s	s	n/a
223.199	0.135	446398	keystroke_c	c	n/a
224.129	0.15	448258	keystroke_h	h	n/a
224.354	0.09	448708	keystroke_o	o	n/a
224.609	0.0905	449218	keystroke_l	l	n/a
224.819	0.105	449638	keystroke_o	o	n/a
224.9995	0.105	449999	keystroke_g	g	n/a
225.1195	0.105	450239	keystroke_i	i	n/a
225.3595	0.12	450719	keystroke_c	c	n/a
225.5695	0.1045	451139	keystroke_a	a	n/a
225.689	0.15	451378	keystroke_l	l	n/a
226.064	0.105	452128	keystroke_Key.enter	Key.enter	n/a
226.174	18.972	452348	prompt	n/a	flood logo erotica marvel\n
226.904	0.12	453808	keystroke_f	f	n/a
227.084	0.075	454168	keystroke_l	l	n/a
227.249	0.105	454498	keystroke_l	l	n/a
227.474	0.09	454948	keystroke_o	o	n/a
228.479	0.045	456958	keystroke_Key.backspace	Key.backspace	n/a
228.9295	0.06	457859	keystroke_Key.backspace	Key.backspace	n/a
239.4015	0.001	478803	keystroke_o	o	n/a
239.684	0.075	479368	keystroke_o	o	n/a
239.924	0.06	479848	keystroke_d	d	n/a
240.6895	0.12	481379	keystroke_Key.space	Key.space	n/a
240.9145	0.12	481829	keystroke_l	l	n/a
241.1395	0.15	482279	keystroke_o	o	n/a
241.3045	0.105	482609	keystroke_g	g	n/a
241.4695	0.105	482939	keystroke_o	o	n/a
241.6495	0.105	483299	keystroke_Key.space	Key.space	n/a
241.8895	0.135	483779	keystroke_e	e	n/a
242.1895	0.09	484379	keystroke_r	r	n/a
242.4145	0.12	484829	keystroke_o	o	n/a
242.5645	0.09	485129	keystroke_t	t	n/a
242.7145	0.12	485429	keystroke_i	i	n/a
242.8945	0.09	485789	keystroke_c	c	n/a
243.1045	0.105	486209	keystroke_a	a	n/a
243.2395	0.135	486479	keystroke_l	l	n/a
243.4045	0.105	486809	keystroke_Key.space	Key.space	n/a
243.614	0.195	487228	keystroke_m	m	n/a
243.764	0.12	487528	keystroke_a	a	n/a
244.004	0.105	488008	keystroke_r	r	n/a
244.304	0.135	488608	keystroke_v	v	n/a
244.514	0.135	489028	keystroke_e	e	n/a
244.739	0.105	489478	keystroke_l	l	n/a
245.0545	0.09	490109	keystroke_Key.enter	Key.enter	n/a
245.149	12.7015	490298	prompt	n/a	cancer orleans hole differential\n
246.3735	0.076	492747	keystroke_c	c	n/a
246.524	0.15	493048	keystroke_a	a	n/a
246.659	0.12	493318	keystroke_n	n	n/a
246.839	0.105	493678	keystroke_c	c	n/a
247.064	0.135	494128	keystroke_e	e	n/a
247.259	0.105	494518	keystroke_r	r	n/a
247.409	0.135	494818	keystroke_Key.space	Key.space	n/a
247.664	0.09	495328	keystroke_o	o	n/a
247.934	0.15	495868	keystroke_l	l	n/a
248.399	0.12	496798	keystroke_r	r	n/a
249.089	0.045	498178	keystroke_Key.backspace	Key.backspace	n/a
249.2535	0.0605	498507	keystroke_Key.backspace	Key.backspace	n/a
249.509	0.105	499018	keystroke_r	r	n/a
249.689	0.135	499378	keystroke_l	l	n/a
249.869	0.105	499738	keystroke_e	e	n/a
250.139	0.12	500278	keystroke_a	a	n/a
250.304	0.15	500608	keystroke_n	n	n/a
250.469	0.1205	500938	keystroke_s	s	n/a
250.6495	0.105	501299	keystroke_Key.space	Key.space	n/a
250.904	0.1805	501808	keystroke_h	h	n/a
251.0995	0.09	502199	keystroke_o	o	n/a
251.3695	0.15	502739	keystroke_l	l	n/a
251.6695	0.075	503339	keystroke_e	e	n/a
252.374	0.135	504748	keystroke_Key.space	Key.space	n/a
252.719	0.12	505438	keystroke_d	d	n/a
252.9595	0.1045	505919	keystroke_i	i	n/a
253.124	0.09	506248	keystroke_f	f	n/a
253.2885	0.1055	506577	keystroke_f	f	n/a
253.514	0.105	507028	keystroke_e	e	n/a
253.754	0.12	507508	keystroke_r	r	n/a
254.7745	0.1045	509549	keystroke_e	e	n/a
255.1945	0.15	510389	keystroke_n	n	n/a
255.6295	0.1495	511259	keystroke_t	t	n/a
255.9145	0.105	511829	keystroke_i	i	n/a
256.3345	0.1795	512669	keystroke_a	a	n/a
256.484	0.12	512968	keystroke_l	l	n/a
257.744	0.105	515488	keystroke_Key.enter	Key.enter	n/a
257.8535	20.818	515707	prompt	n/a	motor genuine vote survival\n
258.569	0.105	517138	keystroke_m	m	n/a
258.824	0.15	517648	keystroke_o	o	n/a
271.757	0.088	543514	keystroke_t	t	n/a
271.845	0.15	543690	keystroke_o	o	n/a
271.98	0.15	543960	keystroke_r	r	n/a
272.19	0.12	544380	keystroke_Key.space	Key.space	n/a
272.475	0.15	544950	keystroke_g	g	n/a
272.79	0.12	545580	keystroke_e	e	n/a
273.345	0.12	546690	keystroke_n	n	n/a
273.9	0.12	547800	keystroke_u	u	n/a
274.215	0.165	548430	keystroke_i	i	n/a
274.454	0.151	548908	keystroke_n	n	n/a
274.619	0.15	549238	keystroke_e	e	n/a
274.799	0.105	549598	keystroke_Key.space	Key.space	n/a
275.084	0.166	550168	keystroke_v	v	n/a
275.235	0.12	550470	keystroke_o	o	n/a
275.445	0.12	550890	keystroke_t	t	n/a
275.669	0.136	551338	keystroke_e	e	n/a
275.8795	0.09	551759	keystroke_Key.space	Key.space	n/a
276.0595	0.12	552119	keystroke_s	s	n/a
276.2395	0.15	552479	keystroke_u	u	n/a
276.4045	0.12	552809	keystroke_r	r	n/a
276.6895	0.15	553379	keystroke_v	v	n/a
276.8695	0.09	553739	keystroke_i	i	n/a
277.1395	0.12	554279	keystroke_v	v	n/a
277.4995	0.135	554999	keystroke_a	a	n/a
277.7095	0.1655	555419	keystroke_l	l	n/a
278.595	0.075	557190	keystroke_Key.enter	Key.enter	n/a
278.676	8.6955	557352	prompt	n/a	neil skip pierce future\n
279.375	0.135	558750	keystroke_n	n	n/a
279.645	0.135	559290	keystroke_e	e	n/a
279.945	0.105	559890	keystroke_i	i	n/a
280.2	0.135	560400	keystroke_l	l	n/a
280.41	0.075	560820	keystroke_Key.space	Key.space	n/a
280.545	0.12	561090	keystroke_s	s	n/a
280.68	0.15	561360	keystroke_k	k	n/a
281.115	0.12	562230	keystroke_i	i	n/a
281.385	0.165	562770	keystroke_p	p	n/a
281.595	0.12	563190	keystroke_Key.space	Key.space	n/a
281.85	0.1345	563700	keystroke_p	p	n/a
282.1045	0.135	564209	keystroke_i	i	n/a
282.3595	0.15	564719	keystroke_e	e	n/a
282.6145	0.105	565229	keystroke_r	r	n/a
282.9595	0.1205	565919	keystroke_c	c	n/a
283.2445	0.12	566489	keystroke_e	e	n/a
283.7245	0.09	567449	keystroke_Key.space	Key.space	n/a
283.9195	0.12	567839	keystroke_f	f	n/a
284.1145	0.135	568229	keystroke_u	u	n/a
284.3545	0.15	568709	keystroke_t	t	n/a
285.36	0.135	570720	keystroke_u	u	n/a
285.525	0.15	571050	keystroke_r	r	n/a
285.78	0.15	571560	keystroke_e	e	n/a
287.265	0.1045	574530	keystroke_Key.enter	Key.enter	n/a
287.374	11.6225	574748	prompt	n/a	dynamic division occurrence increase\n
288.0295	0.165	576059	keystroke_d	d	n/a
288.3595	0.105	576719	keystroke_y	y	n/a
288.975	0.105	577950	keystroke_n	n	n/a
289.38	0.12	578760	keystroke_a	a	n/a
289.545	0.15	579090	keystroke_m	m	n/a
289.875	0.15	579750	keystroke_i	i	n/a
290.13	0.135	580260	keystroke_c	c	n/a
290.385	0.1195	580770	keystroke_Key.space	Key.space	n/a
290.6245	0.165	581249	keystroke_d	d	n/a
290.8645	0.15	581729	keystroke_i	i	n/a
291.0895	0.12	582179	keystroke_v	v	n/a
291.4195	0.15	582839	keystroke_i	i	n/a
291.99	0.119	583980	keystroke_s	s	n/a
292.245	0.105	584490	keystroke_i	i	n/a
292.47	0.225	584940	keystroke_o	o	n/a
292.71	0.1645	585420	keystroke_n	n	n/a
292.8755	0.119	585751	keystroke_Key.space	Key.space	n/a
293.0695	0.135	586139	keystroke_o	o	n/a
293.2795	0.12	586559	keystroke_c	c	n/a
293.4745	0.12	586949	keystroke_c	c	n/a
293.8495	0.015	587699	keystroke_u	u	n/a
293.8945	0.136	587789	keystroke_r	r	n/a
294.15	0.105	588300	keystroke_r	r	n/a
294.6445	0.15	589289	keystroke_e	e	n/a
294.93	0.12	589860	keystroke_n	n	n/a
295.2	0.12	590400	keystroke_c	c	n/a
295.5	0.0745	591000	keystroke_e	e	n/a
295.6795	0.12	591359	keystroke_Key.space	Key.space	n/a
295.9045	0.09	591809	keystroke_i	i	n/a
296.0845	0.105	592169	keystroke_n	n	n/a
296.34	0.12	592680	keystroke_c	c	n/a
296.625	0.105	593250	keystroke_r	r	n/a
296.805	0.195	593610	keystroke_e	e	n/a
297.525	0.18	595050	keystroke_a	a	n/a
298.215	0.105	596430	keystroke_s	s	n/a
298.455	0.135	596910	keystroke_e	e	n/a
298.905	0.09	597810	keystroke_Key.enter	Key.enter	n/a
298.999	10.5425	597998	prompt	n/a	starring virus volkswagen blood\n
299.64	0.135	599280	keystroke_s	s	n/a
299.9245	0.09	599849	keystroke_t	t	n/a
300.1345	0.15	600269	keystroke_a	a	n/a
300.3745	0.0605	600749	keystroke_r	r	n/a
301.545	0.105	603090	keystroke_r	r	n/a
301.725	0.1495	603450	keystroke_i	i	n/a
301.9345	0.18	603869	keystroke_n	n	n/a
302.1	0.1045	604200	keystroke_g	g	n/a
302.2495	0.1205	604499	keystroke_Key.space	Key.space	n/a
302.6095	0.135	605219	keystroke_v	v	n/a
302.7745	0.12	605549	keystroke_i	i	n/a
302.9995	0.135	605999	keystroke_r	r	n/a
303.2245	0.135	606449	keystroke_u	u	n/a
303.4195	0.135	606839	keystroke_s	s	n/a
303.5555	0.149	607111	keystroke_Key.space	Key.space	n/a
303.8395	0.15	607679	keystroke_v	v	n/a
304.3795	0.12	608759	keystroke_o	o	n/a
304.8595	0.135	609719	keystroke_l	l	n/a
305.19	0.225	610380	keystroke_k	k	n/a
305.535	0.105	611070	keystroke_s	s	n/a
305.865	0.09	611730	keystroke_w	w	n/a
306.075	0.18	612150	keystroke_a	a	n/a
306.33	0.1195	612660	keystroke_g	g	n/a
306.6295	0.135	613259	keystroke_e	e	n/a
306.8095	0.136	613619	keystroke_n	n	n/a
306.9905	0.105	613981	keystroke_Key.space	Key.space	n/a
307.2005	0.135	614401	keystroke_b	b	n/a
307.4255	0.09	614851	keystroke_l	l	n/a
308.0705	0.09	616141	keystroke_o	o	n/a
308.3555	0.1345	616711	keystroke_o	o	n/a
309.0305	0.1345	618061	keystroke_d	d	n/a
309.405	0.135	618810	keystroke_Key.enter	Key.enter	n/a
309.545	11.0815	619090	prompt	n/a	heart wikipedia olive conversation\n
310.3945	0.151	620789	keystroke_h	h	n/a
310.5605	0.15	621121	keystroke_e	e	n/a
310.8605	0.1495	621721	keystroke_a	a	n/a
311.1	0.105	622200	keystroke_r	r	n/a
311.325	0.12	622650	keystroke_t	t	n/a
311.475	0.135	622950	keystroke_Key.space	Key.space	n/a
311.73	0.105	623460	keystroke_w	w	n/a
311.8805	0.105	623761	keystroke_i	i	n/a
312.2555	0.12	624511	keystroke_k	k	n/a
312.5105	0.105	625021	keystroke_i	i	n/a
313.0655	0.135	626131	keystroke_p	p	n/a
314.2055	0.1045	628411	keystroke_e	e	n/a
314.49	0.135	628980	keystroke_d	d	n/a
314.64	0.135	629280	keystroke_i	i	n/a
314.88	0.135	629760	keystroke_a	a	n/a
315.165	0.09	630330	keystroke_Key.space	Key.space	n/a
315.405	0.09	630810	keystroke_o	o	n/a
315.795	0.135	631590	keystroke_l	l	n/a
316.05	0.09	632100	keystroke_i	i	n/a
316.125	0.15	632250	keystroke_v	v	n/a
316.365	0.1055	632730	keystroke_e	e	n/a
316.5595	0.075	633119	keystroke_Key.space	Key.space	n/a
316.9205	0.165	633841	keystroke_c	c	n/a
317.1295	0.136	634259	keystroke_o	o	n/a
317.3395	0.151	634679	keystroke_n	n	n/a
317.5045	0.136	635009	keystroke_f	f	n/a
318.1795	0.09	636359	keystroke_Key.backspace	Key.backspace	n/a
318.3445	0.135	636689	keystroke_v	v	n/a
318.5995	0.15	637199	keystroke_e	e	n/a
318.7645	0.12	637529	keystroke_r	r	n/a
319.0495	0.105	638099	keystroke_s	s	n/a
319.3645	0.12	638729	keystroke_a	a	n/a
319.6495	0.09	639299	keystroke_t	t	n/a
319.7845	0.105	639569	keystroke_i	i	n/a
319.8745	0.2555	639749	keystroke_o	o	n/a
320.0245	0.1805	640049	keystroke_n	n	n/a
320.4895	0.135	640979	keystroke_Key.enter	Key.enter	n/a
320.63	15.3715	641260	prompt	n/a	weighted textile margin daddy\n
321.51	0.12	643020	keystroke_w	w	n/a
321.75	0.135	643500	keystroke_e	e	n/a
321.9	0.135	643800	keystroke_i	i	n/a
322.05	0.135	644100	keystroke_g	g	n/a
322.2	0.1495	644400	keystroke_h	h	n/a
322.3345	0.09	644669	keystroke_t	t	n/a
322.5445	0.105	645089	keystroke_e	e	n/a
323.1455	0.105	646291	keystroke_d	d	n/a
323.2955	0.12	646591	keystroke_Key.space	Key.space	n/a
323.5505	0.09	647101	keystroke_t	t	n/a
323.7455	0.09	647491	keystroke_e	e	n/a
325.26	0.165	650520	keystroke_c	c	n/a
325.9195	0.075	651839	keystroke_Key.backspace	Key.backspace	n/a
331.217	0.001	662434	keystroke_x	x	n/a
332.5355	0.12	665071	keystroke_t	t	n/a
332.6705	0.09	665341	keystroke_i	i	n/a
332.8655	0.15	665731	keystroke_l	l	n/a
332.9705	0.105	665941	keystroke_e	e	n/a
333.1505	0.12	666301	keystroke_Key.space	Key.space	n/a
333.3755	0.135	666751	keystroke_m	m	n/a
333.4805	0.135	666961	keystroke_a	a	n/a
333.7055	0.075	667411	keystroke_r	r	n/a
333.93	0.09	667860	keystroke_g	g	n/a
334.08	0.135	668160	keystroke_i	i	n/a
334.215	0.12	668430	keystroke_n	n	n/a
334.395	0.09	668790	keystroke_Key.space	Key.space	n/a
334.575	0.12	669150	keystroke_d	d	n/a
334.8	0.12	669600	keystroke_a	a	n/a
335.04	0.0595	670080	keystroke_d	d	n/a
335.1895	0.075	670379	keystroke_d	d	n/a
335.4895	0.105	670979	keystroke_y	y	n/a
335.9245	0.075	671849	keystroke_Key.enter	Key.enter	n/a
336.004	16.7675	672008	prompt	n/a	oasis continue recruiting guarantee\n
336.9745	0.105	673949	keystroke_o	o	n/a
337.1105	0.119	674221	keystroke_a	a	n/a
337.3795	0.09	674759	keystroke_s	s	n/a
337.5155	0.105	675031	keystroke_i	i	n/a
337.6645	0.12	675329	keystroke_s	s	n/a
337.8745	0.1205	675749	keystroke_Key.space	Key.space	n/a
338.16	0.135	676320	keystroke_c	c	n/a
338.25	0.15	676500	keystroke_o	o	n/a
338.37	0.165	676740	keystroke_n	n	n/a
338.535	0.12	677070	keystroke_t	t	n/a
338.7	0.105	677400	keystroke_i	i	n/a
339.045	0.045	678090	keystroke_n	n	n/a
339.27	0.135	678540	keystroke_u	u	n/a
339.45	0.15	678900	keystroke_e	e	n/a
339.675	0.105	679350	keystroke_Key.space	Key.space	n/a
340.23	0.12	680460	keystroke_Key.space	Key.space	n/a
340.74	0.15	681480	keystroke_r	r	n/a
340.995	0.315	681990	keystroke_e	e	n/a
341.85	0.06	683700	keystroke_Key.backspace	Key.backspace	n/a
341.985	0.09	683970	keystroke_Key.backspace	Key.backspace	n/a
342.165	0.075	684330	keystroke_Key.backspace	Key.backspace	n/a
346.337	0.073	692674	keystroke_c	c	n/a
346.9505	0.09	693901	keystroke_Key.backspace	Key.backspace	n/a
347.0855	0.12	694171	keystroke_r	r	n/a
347.2955	0.105	694591	keystroke_e	e	n/a
347.5955	0.135	695191	keystroke_c	c	n/a
347.8655	0.105	695731	keystroke_r	r	n/a
348.0005	0.09	696001	keystroke_u	u	n/a
348.1505	0.135	696301	keystroke_i	i	n/a
348.2705	0.09	696541	keystroke_t	t	n/a
348.3755	0.1645	696751	keystroke_i	i	n/a
348.525	0.15	697050	keystroke_n	n	n/a
348.63	0.105	697260	keystroke_g	g	n/a
348.72	0.12	697440	keystroke_Key.space	Key.space	n/a
349.425	0.12	698850	keystroke_g	g	n/a
349.635	0.135	699270	keystroke_u	u	n/a
349.815	0.12	699630	keystroke_a	a	n/a
350.04	0.0755	700080	keystroke_r	r	n/a
350.6405	0.15	701281	keystroke_a	a	n/a
351.3005	0.104	702601	keystroke_n	n	n/a
351.4795	0.106	702959	keystroke_t	t	n/a
351.7055	0.075	703411	keystroke_e	e	n/a
351.8545	0.076	703709	keystroke_e	e	n/a
352.6805	0.089	705361	keystroke_Key.enter	Key.enter	n/a
352.775	11.4715	705550	prompt	n/a	generate cabinets transcription jaguar\n
353.4155	0.09	706831	keystroke_g	g	n/a
353.5795	0.106	707159	keystroke_e	e	n/a
353.7305	0.15	707461	keystroke_n	n	n/a
353.8355	0.12	707671	keystroke_e	e	n/a
354.0295	0.091	708059	keystroke_r	r	n/a
354.3005	0.12	708601	keystroke_a	a	n/a
354.5405	0.105	709081	keystroke_t	t	n/a
355.6045	0.075	711209	keystroke_e	e	n/a
355.8155	0.105	711631	keystroke_Key.space	Key.space	n/a
356.1005	0.09	712201	keystroke_c	c	n/a
356.28	0.135	712560	keystroke_a	a	n/a
356.61	0.1055	713220	keystroke_b	b	n/a
356.8205	0.18	713641	keystroke_i	i	n/a
356.9855	0.135	713971	keystroke_n	n	n/a
357.1355	0.12	714271	keystroke_e	e	n/a
357.3755	0.075	714751	keystroke_t	t	n/a
357.66	0.09	715320	keystroke_s	s	n/a
357.765	0.105	715530	keystroke_Key.space	Key.space	n/a
357.9755	0.09	715951	keystroke_t	t	n/a
358.1705	0.09	716341	keystroke_r	r	n/a
358.44	0.1805	716880	keystroke_a	a	n/a
359.46	0.075	718920	keystroke_n	n	n/a
359.67	0.075	719340	keystroke_s	s	n/a
359.895	0.165	719790	keystroke_c	c	n/a
360.15	0.1195	720300	keystroke_r	r	n/a
360.3145	0.1205	720629	keystroke_i	i	n/a
361.1855	0.135	722371	keystroke_p	p	n/a
361.3805	0.105	722761	keystroke_t	t	n/a
361.4855	0.12	722971	keystroke_i	i	n/a
361.6205	0.24	723241	keystroke_o	o	n/a
361.8155	0.15	723631	keystroke_n	n	n/a
361.9805	0.0895	723961	keystroke_Key.space	Key.space	n/a
362.22	0.1505	724440	keystroke_j	j	n/a
362.6095	0.135	725219	keystroke_a	a	n/a
363.09	0.12	726180	keystroke_q	q	n/a
363.3	0.135	726600	keystroke_u	u	n/a
363.51	0.15	727020	keystroke_a	a	n/a
363.7795	0.09	727559	keystroke_r	r	n/a
364.1245	0.12	728249	keystroke_Key.enter	Key.enter	n/a
364.2495	7.4525	728499	prompt	n/a	ships publisher nuke indiana\n
364.9795	0.1055	729959	keystroke_s	s	n/a
365.1605	0.1045	730321	keystroke_h	h	n/a
365.325	0.105	730650	keystroke_i	i	n/a
365.565	0.18	731130	keystroke_p	p	n/a
365.7	0.105	731400	keystroke_s	s	n/a
365.865	0.15	731730	keystroke_Key.space	Key.space	n/a
366.1345	0.136	732269	keystroke_p	p	n/a
366.3905	0.105	732781	keystroke_u	u	n/a
366.7355	0.12	733471	keystroke_b	b	n/a
366.9305	0.149	733861	keystroke_l	l	n/a
367.1255	0.12	734251	keystroke_i	i	n/a
367.2755	0.09	734551	keystroke_s	s	n/a
367.4245	0.121	734849	keystroke_h	h	n/a
367.5905	0.135	735181	keystroke_e	e	n/a
367.7705	0.12	735541	keystroke_r	r	n/a
367.8595	0.136	735719	keystroke_Key.space	Key.space	n/a
368.1155	0.12	736231	keystroke_n	n	n/a
368.3855	0.09	736771	keystroke_u	u	n/a
368.655	0.195	737310	keystroke_k	k	n/a
368.865	0.105	737730	keystroke_e	e	n/a
369.03	0.09	738060	keystroke_Key.space	Key.space	n/a
369.2555	0.15	738511	keystroke_i	i	n/a
369.4195	0.136	738839	keystroke_n	n	n/a
369.5845	0.12	739169	keystroke_d	d	n/a
369.7645	0.135	739529	keystroke_i	i	n/a
370.3645	0.1205	740729	keystroke_a	a	n/a
370.575	0.12	741150	keystroke_n	n	n/a
371.31	0.075	742620	keystroke_a	a	n/a
371.61	0.09	743220	keystroke_Key.enter	Key.enter	n/a
371.705	5.7265	743410	prompt	n/a	adams pulled updated sale\n
372.315	0.12	744630	keystroke_a	a	n/a
372.495	0.12	744990	keystroke_d	d	n/a
372.66	0.135	745320	keystroke_a	a	n/a
372.87	0.135	745740	keystroke_m	m	n/a
373.05	0.06	746100	keystroke_s	s	n/a
373.125	0.105	746250	keystroke_Key.space	Key.space	n/a
373.41	0.12	746820	keystroke_p	p	n/a
373.635	0.105	747270	keystroke_u	u	n/a
373.89	0.1055	747780	keystroke_l	l	n/a
374.0405	0.12	748081	keystroke_l	l	n/a
374.2355	0.09	748471	keystroke_e	e	n/a
374.475	0.09	748950	keystroke_d	d	n/a
374.61	0.105	749220	keystroke_Key.space	Key.space	n/a
374.835	0.135	749670	keystroke_u	u	n/a
375.075	0.165	750150	keystroke_p	p	n/a
375.225	0.12	750450	keystroke_d	d	n/a
375.405	0.135	750810	keystroke_a	a	n/a
375.66	0.105	751320	keystroke_t	t	n/a
375.945	0.0755	751890	keystroke_e	e	n/a
376.1705	0.06	752341	keystroke_d	d	n/a
376.3205	0.105	752641	keystroke_Key.space	Key.space	n/a
376.4405	0.105	752881	keystroke_s	s	n/a
376.6655	0.165	753331	keystroke_a	a	n/a
376.8455	0.12	753691	keystroke_l	l	n/a
376.9955	0.105	753991	keystroke_e	e	n/a
377.3555	0.075	754711	keystroke_Key.enter	Key.enter	n/a
377.4345	6.912	754869	prompt	n/a	dies woods compilation town\n
378.0905	0.105	756181	keystroke_d	d	n/a
378.1805	0.12	756361	keystroke_i	i	n/a
378.3605	0.135	756721	keystroke_e	e	n/a
378.6155	0.135	757231	keystroke_s	s	n/a
378.9305	0.105	757861	keystroke_Key.space	Key.space	n/a
379.1105	0.105	758221	keystroke_w	w	n/a
379.2305	0.075	758461	keystroke_o	o	n/a
379.4555	0.075	758911	keystroke_o	o	n/a
379.7105	0.09	759421	keystroke_d	d	n/a
379.95	0.0755	759900	keystroke_s	s	n/a
380.1305	0.075	760261	keystroke_Key.space	Key.space	n/a
380.4005	0.1495	760801	keystroke_c	c	n/a
380.565	0.1945	761130	keystroke_o	o	n/a
380.7455	0.18	761491	keystroke_m	m	n/a
380.9555	0.135	761911	keystroke_p	p	n/a
382.095	0.09	764190	keystroke_i	i	n/a
382.32	0.1495	764640	keystroke_l	l	n/a
382.5445	0.12	765089	keystroke_a	a	n/a
382.7845	0.09	765569	keystroke_t	t	n/a
382.8895	0.136	765779	keystroke_i	i	n/a
382.9945	0.196	765989	keystroke_o	o	n/a
383.1445	0.151	766289	keystroke_n	n	n/a
383.3095	0.075	766619	keystroke_Key.space	Key.space	n/a
383.4895	0.105	766979	keystroke_t	t	n/a
383.5795	0.1205	767159	keystroke_o	o	n/a
383.76	0.12	767520	keystroke_w	w	n/a
383.91	0.105	767820	keystroke_n	n	n/a
384.285	0.06	768570	keystroke_Key.enter	Key.enter	n/a
384.3515	8.44	768703	prompt	n/a	qatar baby season edwards\n
385.5755	0.165	771151	keystroke_q	q	n/a
385.9355	0.135	771871	keystroke_a	a	n/a
386.2355	0.075	772471	keystroke_t	t	n/a
386.505	0.165	773010	keystroke_a	a	n/a
386.82	0.0905	773640	keystroke_r	r	n/a
387.255	0.105	774510	keystroke_Key.space	Key.space	n/a
387.525	0.105	775050	keystroke_b	b	n/a
387.75	0.135	775500	keystroke_a	a	n/a
388.11	0.105	776220	keystroke_b	b	n/a
388.41	0.075	776820	keystroke_y	y	n/a
388.545	0.09	777090	keystroke_Key.space	Key.space	n/a
388.665	0.105	777330	keystroke_s	s	n/a
388.905	0.075	777810	keystroke_e	e	n/a
389.5345	0.1055	779069	keystroke_a	a	n/a
389.865	0.09	779730	keystroke_s	s	n/a
390.21	0.165	780420	keystroke_o	o	n/a
390.376	0.1645	780752	keystroke_n	n	n/a
390.5855	0.06	781171	keystroke_Key.space	Key.space	n/a
390.7805	0.09	781561	keystroke_e	e	n/a
391.125	0.105	782250	keystroke_d	d	n/a
391.485	0.045	782970	keystroke_w	w	n/a
391.665	0.1355	783330	keystroke_a	a	n/a
391.8905	0.09	783781	keystroke_r	r	n/a
392.1755	0.09	784351	keystroke_d	d	n/a
392.4305	0.06	784861	keystroke_s	s	n/a
392.7145	0.075	785429	keystroke_Key.enter	Key.enter	n/a
392.795	8.9965	785590	prompt	n/a	waterproof leonard lots forums\n
393.4655	0.074	786931	keystroke_w	w	n/a
393.6455	0.1645	787291	keystroke_a	a	n/a
393.885	0.12	787770	keystroke_t	t	n/a
394.14	0.15	788280	keystroke_e	e	n/a
394.365	0.09	788730	keystroke_r	r	n/a
394.965	0.1195	789930	keystroke_p	p	n/a
395.2495	0.0455	790499	keystroke_o	o	n/a
395.7	0.075	791400	keystroke_Key.backspace	Key.backspace	n/a
396.09	0.105	792180	keystroke_r	r	n/a
396.2705	0.0595	792541	keystroke_o	o	n/a
396.405	0.105	792810	keystroke_o	o	n/a
396.645	0.12	793290	keystroke_f	f	n/a
396.93	0.12	793860	keystroke_Key.space	Key.space	n/a
397.215	0.12	794430	keystroke_l	l	n/a
397.395	0.09	794790	keystroke_e	e	n/a
397.62	0.09	795240	keystroke_a	a	n/a
397.815	0.075	795630	keystroke_n	n	n/a
398.01	0.12	796020	keystroke_a	a	n/a
398.25	0.09	796500	keystroke_r	r	n/a
398.52	0.105	797040	keystroke_d	d	n/a
398.745	0.09	797490	keystroke_Key.space	Key.space	n/a
399.0005	0.09	798001	keystroke_l	l	n/a
399.2255	0.075	798451	keystroke_o	o	n/a
399.4355	0.09	798871	keystroke_t	t	n/a
399.7505	0.075	799501	keystroke_s	s	n/a
399.9155	0.105	799831	keystroke_Key.space	Key.space	n/a
400.1255	0.105	800251	keystroke_f	f	n/a
400.2455	0.12	800491	keystroke_o	o	n/a
400.4555	0.1195	800911	keystroke_r	r	n/a
400.665	0.105	801330	keystroke_u	u	n/a
400.9055	0.15	801811	keystroke_m	m	n/a
401.3405	0.045	802681	keystroke_s	s	n/a
401.7005	0.09	803401	keystroke_Key.enter	Key.enter	n/a
401.7945	7.0775	803589	prompt	n/a	legally accuracy greatest for\n
402.63	0.075	805260	keystroke_l	l	n/a
402.855	0.09	805710	keystroke_e	e	n/a
403.155	0.075	806310	keystroke_g	g	n/a
403.44	0.15	806880	keystroke_a	a	n/a
403.935	0.06	807870	keystroke_l	l	n/a
404.085	0.09	808170	keystroke_l	l	n/a
404.37	0.12	808740	keystroke_y	y	n/a
404.505	0.135	809010	keystroke_Key.space	Key.space	n/a
404.625	0.12	809250	keystroke_a	a	n/a
404.895	0.06	809790	keystroke_c	c	n/a
405.045	0.15	810090	keystroke_c	c	n/a
405.24	0.135	810480	keystroke_u	u	n/a
405.405	0.09	810810	keystroke_r	r	n/a
405.615	0.09	811230	keystroke_a	a	n/a
405.855	0.1045	811710	keystroke_c	c	n/a
406.0355	0.12	812071	keystroke_y	y	n/a
406.1995	0.105	812399	keystroke_Key.space	Key.space	n/a
406.3795	0.09	812759	keystroke_g	g	n/a
406.62	0.0745	813240	keystroke_r	r	n/a
406.8	0.075	813600	keystroke_e	e	n/a
407.085	0.1495	814170	keystroke_a	a	n/a
407.325	0.09	814650	keystroke_t	t	n/a
407.505	0.105	815010	keystroke_e	e	n/a
407.835	0.105	815670	keystroke_s	s	n/a
408.015	0.105	816030	keystroke_Key.space	Key.space	n/a
408.1645	0.105	816329	keystroke_f	f	n/a
408.3295	0.06	816659	keystroke_o	o	n/a
408.4495	0.09	816899	keystroke_r	r	n/a
408.8095	0.0605	817619	keystroke_Key.enter	Key.enter	n/a
408.8755	16.001	817751	prompt	n/a	replaced concentration sims landscapes\n
409.935	0.105	819870	keystroke_r	r	n/a
410.34	0.12	820680	keystroke_e	e	n/a
410.535	0.135	821070	keystroke_p	p	n/a
410.865	0.12	821730	keystroke_l	l	n/a
411.045	0.105	822090	keystroke_a	a	n/a
411.315	0.105	822630	keystroke_c	c	n/a
411.555	0.06	823110	keystroke_e	e	n/a
411.75	0.105	823500	keystroke_d	d	n/a
411.93	0.105	823860	keystroke_Key.space	Key.space	n/a
412.155	0.12	824310	keystroke_c	c	n/a
412.26	0.15	824520	keystroke_o	o	n/a
412.38	0.105	824760	keystroke_n	n	n/a
412.62	0.09	825240	keystroke_c	c	n/a
412.875	0.075	825750	keystroke_e	e	n/a
413.1145	0.09	826229	keystroke_t	t	n/a
413.3395	0.18	826679	keystroke_r	r	n/a
413.805	0.0905	827610	keystroke_a	a	n/a
414.0605	0.06	828121	keystroke_t	t	n/a
414.2245	0.091	828449	keystroke_i	i	n/a
414.3295	0.196	828659	keystroke_o	o	n/a
414.4655	0.089	828931	keystroke_n	n	n/a
416.115	0.09	832230	keystroke_Key.backspace	Key.backspace	n/a
416.325	0.06	832650	keystroke_Key.backspace	Key.backspace	n/a
416.46	0.06	832920	keystroke_Key.backspace	Key.backspace	n/a
416.595	0.06	833190	keystroke_Key.backspace	Key.backspace	n/a
416.73	0.06	833460	keystroke_Key.backspace	Key.backspace	n/a
416.8795	0.06	833759	keystroke_Key.backspace	Key.backspace	n/a
416.9995	0.075	833999	keystroke_Key.backspace	Key.backspace	n/a
417.1045	0.075	834209	keystroke_Key.backspace	Key.backspace	n/a
418.1255	0.1945	836251	keystroke_e	e	n/a
418.35	0.105	836700	keystroke_n	n	n/a
418.5295	0.09	837059	keystroke_t	t	n/a
418.7395	0.105	837479	keystroke_r	r	n/a
419.0245	0.135	838049	keystroke_a	a	n/a
419.2645	0.075	838529	keystroke_t	t	n/a
419.3545	0.12	838709	keystroke_i	i	n/a
419.4445	0.195	838889	keystroke_o	o	n/a
419.5795	0.15	839159	keystroke_n	n	n/a
419.7445	0.105	839489	keystroke_Key.space	Key.space	n/a
420.1795	0.105	840359	keystroke_s	s	n/a
420.2855	0.119	840571	keystroke_i	i	n/a
420.4645	0.105	840929	keystroke_m	m	n/a
420.7045	0.075	841409	keystroke_s	s	n/a
420.8995	0.075	841799	keystroke_Key.space	Key.space	n/a
421.1545	0.135	842309	keystroke_l	l	n/a
421.5295	0.135	843059	keystroke_a	a	n/a
421.7395	0.12	843479	keystroke_n	n	n/a
421.9045	0.09	843809	keystroke_d	d	n/a
422.1445	0.09	844289	keystroke_s	s	n/a
422.3695	0.12	844739	keystroke_c	c	n/a
422.5345	0.195	845069	keystroke_a	a	n/a
422.8195	0.135	845639	keystroke_p	p	n/a
424.1695	0.09	848339	keystroke_e	e	n/a
424.4245	0.09	848849	keystroke_s	s	n/a
424.8295	0.045	849659	keystroke_Key.enter	Key.enter	n/a
424.8815	10.555	849763	prompt	n/a	software acting allah we've\n
425.5945	0.03	851189	keystroke_d	d	n/a
425.8195	0.075	851639	keystroke_s	s	n/a
426.1345	0.03	852269	keystroke_Key.backspace	Key.backspace	n/a
426.2395	0.075	852479	keystroke_Key.backspace	Key.backspace	n/a
426.4945	0.105	852989	keystroke_s	s	n/a
426.7345	0.091	853469	keystroke_o	o	n/a
426.8395	0.12	853679	keystroke_f	f	n/a
427.1245	0.105	854249	keystroke_t	t	n/a
427.5155	0.074	855031	keystroke_w	w	n/a
427.7095	0.135	855419	keystroke_a	a	n/a
427.9345	0.09	855869	keystroke_r	r	n/a
428.0995	0.12	856199	keystroke_e	e	n/a
428.31	0.09	856620	keystroke_Key.space	Key.space	n/a
428.505	0.12	857010	keystroke_a	a	n/a
428.745	0.12	857490	keystroke_c	c	n/a
428.9855	0.075	857971	keystroke_t	t	n/a
429.0905	0.2095	858181	keystroke_i	i	n/a
430.02	0.105	860040	keystroke_n	n	n/a
430.17	0.135	860340	keystroke_g	g	n/a
430.32	0.09	860640	keystroke_Key.space	Key.space	n/a
430.515	0.12	861030	keystroke_a	a	n/a
430.665	0.06	861330	keystroke_l	l	n/a
430.8145	0.075	861629	keystroke_l	l	n/a
431.0545	0.106	862109	keystroke_a	a	n/a
431.3845	0.105	862769	keystroke_h	h	n/a
431.6395	0.075	863279	keystroke_Key.space	Key.space	n/a
431.865	0.135	863730	keystroke_w	w	n/a
432.5105	0.075	865021	keystroke_e	e	n/a
433.6655	0.12	867331	keystroke_'	'	n/a
433.8905	0.09	867781	keystroke_v	v	n/a
434.1005	0.045	868201	keystroke_e	e	n/a
435.345	0.09	870690	keystroke_Key.enter	Key.enter	n/a
435.44	14.0515	870880	prompt	n/a	lately lightbox enquiries words\n
436.1995	0.076	872399	keystroke_l	l	n/a
436.3055	0.165	872611	keystroke_a	a	n/a
436.5155	0.12	873031	keystroke_t	t	n/a
436.6945	0.106	873389	keystroke_e	e	n/a
436.9055	0.12	873811	keystroke_l	l	n/a
437.2195	0.105	874439	keystroke_y	y	n/a
437.3395	0.105	874679	keystroke_Key.space	Key.space	n/a
437.5955	0.09	875191	keystroke_l	l	n/a
437.7905	0.12	875581	keystroke_i	i	n/a
437.9245	0.106	875849	keystroke_g	g	n/a
438.0755	0.105	876151	keystroke_h	h	n/a
438.2105	0.105	876421	keystroke_t	t	n/a
438.4805	0.1045	876961	keystroke_o	o	n/a
438.675	0.1195	877350	keystroke_b	b	n/a
439.155	0.105	878310	keystroke_x	x	n/a
440.07	0.075	880140	keystroke_Key.space	Key.space	n/a
440.9845	0.045	881969	keystroke_Key.backspace	Key.backspace	n/a
441.1195	0.06	882239	keystroke_Key.backspace	Key.backspace	n/a
441.2395	0.075	882479	keystroke_Key.backspace	Key.backspace	n/a
441.6145	0.06	883229	keystroke_Key.backspace	Key.backspace	n/a
441.8095	0.105	883619	keystroke_b	b	n/a
441.9595	0.09	883919	keystroke_o	o	n/a
442.59	0.18	885180	keystroke_x	x	n/a
443.28	0.12	886560	keystroke_Key.space	Key.space	n/a
443.565	0.12	887130	keystroke_e	e	n/a
443.76	0.09	887520	keystroke_n	n	n/a
444.1645	0.105	888329	keystroke_q	q	n/a
444.2995	0.12	888599	keystroke_u	u	n/a
444.5095	0.12	889019	keystroke_i	i	n/a
444.6445	0.1355	889289	keystroke_r	r	n/a
444.885	0.075	889770	keystroke_e	e	n/a
445.26	0.105	890520	keystroke_s	s	n/a
447.18	0.1345	894360	keystroke_Key.space	Key.space	n/a
448.08	0.105	896160	keystroke_w	w	n/a
448.23	0.12	896460	keystroke_o	o	n/a
448.365	0.1045	896730	keystroke_r	r	n/a
448.6795	0.0905	897359	keystroke_d	d	n/a
448.935	0.06	897870	keystroke_s	s	n/a
449.4	0.09	898800	keystroke_Key.enter	Key.enter	n/a
449.495	12.3565	898990	prompt	n/a	approve particle least laden\n
450.09	0.15	900180	keystroke_a	a	n/a
450.33	0.06	900660	keystroke_p	p	n/a
450.495	0.09	900990	keystroke_p	p	n/a
450.735	0.135	901470	keystroke_o	o	n/a
450.855	0.105	901710	keystroke_r	r	n/a
451.11	0.135	902220	keystroke_v	v	n/a
451.32	0.105	902640	keystroke_e	e	n/a
451.515	0.09	903030	keystroke_Key.space	Key.space	n/a
451.74	0.135	903480	keystroke_p	p	n/a
451.8	0.135	903600	keystroke_a	a	n/a
452.025	0.075	904050	keystroke_r	r	n/a
452.22	0.0895	904440	keystroke_t	t	n/a
452.9395	0.06	905879	keystroke_Key.backspace	Key.backspace	n/a
453.0895	0.06	906179	keystroke_Key.backspace	Key.backspace	n/a
453.2395	0.06	906479	keystroke_Key.backspace	Key.backspace	n/a
453.3895	0.06	906779	keystroke_Key.backspace	Key.backspace	n/a
453.5395	0.045	907079	keystroke_Key.backspace	Key.backspace	n/a
453.6595	0.09	907319	keystroke_Key.backspace	Key.backspace	n/a
453.8095	0.2255	907619	keystroke_Key.backspace	Key.backspace	n/a
454.215	0.09	908430	keystroke_Key.backspace	Key.backspace	n/a
454.665	0.075	909330	keystroke_Key.backspace	Key.backspace	n/a
454.86	0.0895	909720	keystroke_r	r	n/a
455.0395	0.106	910079	keystroke_o	o	n/a
455.1895	0.105	910379	keystroke_v	v	n/a
455.3995	0.075	910799	keystroke_e	e	n/a
455.6395	0.075	911279	keystroke_Key.space	Key.space	n/a
456.0895	0.15	912179	keystroke_p	p	n/a
456.2245	0.12	912449	keystroke_a	a	n/a
456.4495	0.075	912899	keystroke_r	r	n/a
456.6595	0.09	913319	keystroke_t	t	n/a
456.7795	0.105	913559	keystroke_i	i	n/a
456.9755	0.135	913951	keystroke_c	c	n/a
457.1255	0.1195	914251	keystroke_l	l	n/a
457.305	0.09	914610	keystroke_e	e	n/a
457.485	0.075	914970	keystroke_Key.space	Key.space	n/a
457.74	0.15	915480	keystroke_l	l	n/a
457.86	0.09	915720	keystroke_e	e	n/a
458.07	0.105	916140	keystroke_a	a	n/a
458.25	0.12	916500	keystroke_s	s	n/a
458.49	0.045	916980	keystroke_t	t	n/a
458.61	0.075	917220	keystroke_Key.space	Key.space	n/a
458.8195	0.136	917639	keystroke_l	l	n/a
458.9395	0.091	917879	keystroke_a	a	n/a
459.1205	0.074	918241	keystroke_d	d	n/a
459.3145	0.105	918629	keystroke_e	e	n/a
459.4645	0.1205	918929	keystroke_n	n	n/a
461.8215	0.028	923643	keystroke_Key.enter	Key.enter	n/a
461.8545	23.7425	923709	prompt	n/a	fireplace constitutional climate judgment\n
467.087	0.0585	934174	keystroke_f	f	n/a
467.1605	0.135	934321	keystroke_i	i	n/a
467.2655	0.12	934531	keystroke_r	r	n/a
467.4455	0.1195	934891	keystroke_e	e	n/a
467.775	0.15	935550	keystroke_p	p	n/a
468.12	0.165	936240	keystroke_l	l	n/a
468.255	0.15	936510	keystroke_a	a	n/a
468.81	0.09	937620	keystroke_c	c	n/a
469.05	0.105	938100	keystroke_e	e	n/a
469.23	0.12	938460	keystroke_Key.space	Key.space	n/a
469.5	0.0905	939000	keystroke_c	c	n/a
469.6205	0.1345	939241	keystroke_o	o	n/a
469.77	0.09	939540	keystroke_n	n	n/a
469.8	0.15	939600	keystroke_s	s	n/a
470.4455	0.105	940891	keystroke_t	t	n/a
470.6555	0.1195	941311	keystroke_i	i	n/a
478.0825	0.058	956165	keystroke_t	t	n/a
478.5905	0.135	957181	keystroke_u	u	n/a
478.8155	0.09	957631	keystroke_t	t	n/a
478.9205	0.135	957841	keystroke_i	i	n/a
479.1005	0.21	958201	keystroke_o	o	n/a
479.3855	0.135	958771	keystroke_n	n	n/a
479.5805	0.135	959161	keystroke_a	a	n/a
479.7455	0.135	959491	keystroke_l	l	n/a
479.9705	0.12	959941	keystroke_Key.space	Key.space	n/a
480.4505	0.12	960901	keystroke_c	c	n/a
480.6755	0.105	961351	keystroke_l	l	n/a
480.915	0.076	961830	keystroke_i	i	n/a
481.095	0.135	962190	keystroke_m	m	n/a
481.216	0.12	962432	keystroke_a	a	n/a
481.44	0.105	962880	keystroke_t	t	n/a
481.68	0.1205	963360	keystroke_e	e	n/a
481.8755	0.075	963751	keystroke_Key.space	Key.space	n/a
482.1605	0.135	964321	keystroke_j	j	n/a
482.4305	0.165	964861	keystroke_u	u	n/a
483.1205	0.135	966241	keystroke_d	d	n/a
483.2855	0.105	966571	keystroke_g	g	n/a
483.5855	0.1195	967171	keystroke_e	e	n/a
483.825	0.15	967650	keystroke_m	m	n/a
484.6505	0.21	969301	keystroke_e	e	n/a
484.8905	0.12	969781	keystroke_n	n	n/a
485.0255	0.105	970051	keystroke_t	t	n/a
485.521	0.074	971042	keystroke_Key.enter	Key.enter	n/a
485.6005	7.9615	971201	prompt	n/a	functionality types gotta classes\n
486.211	0.135	972422	keystroke_f	f	n/a
486.391	0.0895	972782	keystroke_u	u	n/a
486.7505	0.12	973501	keystroke_n	n	n/a
486.9305	0.15	973861	keystroke_c	c	n/a
487.245	0.105	974490	keystroke_t	t	n/a
487.455	0.135	974910	keystroke_i	i	n/a
487.65	0.18	975300	keystroke_o	o	n/a
487.8	0.135	975600	keystroke_n	n	n/a
487.965	0.135	975930	keystroke_a	a	n/a
488.115	0.135	976230	keystroke_l	l	n/a
488.716	0.15	977432	keystroke_i	i	n/a
488.881	0.105	977762	keystroke_t	t	n/a
489.046	0.1345	978092	keystroke_y	y	n/a
489.1655	0.12	978331	keystroke_Key.space	Key.space	n/a
489.4205	0.105	978841	keystroke_t	t	n/a
489.5855	0.12	979171	keystroke_y	y	n/a
489.8405	0.195	979681	keystroke_p	p	n/a
489.9755	0.105	979951	keystroke_e	e	n/a
490.2305	0.12	980461	keystroke_s	s	n/a
490.3805	0.12	980761	keystroke_Key.space	Key.space	n/a
490.6205	0.09	981241	keystroke_g	g	n/a
490.7705	0.1195	981541	keystroke_o	o	n/a
490.965	0.075	981930	keystroke_t	t	n/a
491.1	0.075	982200	keystroke_t	t	n/a
491.505	0.105	983010	keystroke_a	a	n/a
491.6855	0.0745	983371	keystroke_Key.space	Key.space	n/a
491.956	0.06	983912	keystroke_c	c	n/a
492.1205	0.165	984241	keystroke_l	l	n/a
492.3455	0.105	984691	keystroke_a	a	n/a
492.6155	0.06	985231	keystroke_s	s	n/a
492.7505	0.075	985501	keystroke_s	s	n/a
492.99	0.06	985980	keystroke_e	e	n/a
493.215	0.075	986430	keystroke_s	s	n/a
493.4855	0.075	986971	keystroke_Key.enter	Key.enter	n/a
493.565	12.9155	987130	prompt	n/a	stored duncan honest baptist\n
494.5655	0.135	989131	keystroke_s	s	n/a
494.8205	0.06	989641	keystroke_t	t	n/a
494.8955	0.105	989791	keystroke_o	o	n/a
495.1655	0.15	990331	keystroke_r	r	n/a
496.05	0.135	992100	keystroke_e	e	n/a
496.59	0.075	993180	keystroke_d	d	n/a
496.815	0.09	993630	keystroke_Key.space	Key.space	n/a
497.025	0.09	994050	keystroke_d	d	n/a
497.16	0.075	994320	keystroke_u	u	n/a
497.3855	0.09	994771	keystroke_n	n	n/a
497.5505	0.105	995101	keystroke_c	c	n/a
497.7305	0.135	995461	keystroke_a	a	n/a
497.8955	0.12	995791	keystroke_n	n	n/a
498.1055	0.075	996211	keystroke_Key.space	Key.space	n/a
498.3605	0.1805	996721	keystroke_h	h	n/a
498.556	0.0745	997112	keystroke_o	o	n/a
498.7805	0.12	997561	keystroke_n	n	n/a
498.9605	0.105	997921	keystroke_e	e	n/a
499.2305	0.12	998461	keystroke_s	s	n/a
500.7605	0.06	1001521	keystroke_t	t	n/a
500.9555	0.105	1001911	keystroke_Key.space	Key.space	n/a
501.3005	0.0895	1002601	keystroke_b	b	n/a
501.541	0.119	1003082	keystroke_a	a	n/a
502.125	0.165	1004250	keystroke_p	p	n/a
502.275	0.12	1004550	keystroke_t	t	n/a
502.44	0.12	1004880	keystroke_i	i	n/a
502.605	0.1205	1005210	keystroke_s	s	n/a
502.8005	0.1045	1005601	keystroke_h	h	n/a
503.85	0.045	1007700	keystroke_Key.backspace	Key.backspace	n/a
504.03	0.0755	1008060	keystroke_t	t	n/a
506.478	0	1012956	keystroke_Key.enter	Key.enter	n/a
506.4845	12.2775	1012969	prompt	n/a	separate relief italia inches\n
512.178	0.012	1024356	keystroke_s	s	n/a
512.311	0.03	1024622	keystroke_e	e	n/a
512.415	0.1505	1024830	keystroke_p	p	n/a
512.94	0.15	1025880	keystroke_a	a	n/a
513.18	0.075	1026360	keystroke_r	r	n/a
513.48	0.12	1026960	keystroke_a	a	n/a
513.705	0.075	1027410	keystroke_t	t	n/a
513.9	0.106	1027800	keystroke_e	e	n/a
514.125	0.09	1028250	keystroke_Key.space	Key.space	n/a
514.35	0.1505	1028700	keystroke_r	r	n/a
514.5455	0.12	1029091	keystroke_e	e	n/a
514.9355	0.1055	1029871	keystroke_l	l	n/a
515.191	0.12	1030382	keystroke_i	i	n/a
515.3255	0.105	1030651	keystroke_e	e	n/a
515.5505	0.12	1031101	keystroke_f	f	n/a
515.7305	0.1055	1031461	keystroke_Key.space	Key.space	n/a
515.986	0.104	1031972	keystroke_i	i	n/a
516.196	0.105	1032392	keystroke_t	t	n/a
516.511	0.15	1033022	keystroke_a	a	n/a
516.6905	0.135	1033381	keystroke_l	l	n/a
516.9155	0.075	1033831	keystroke_i	i	n/a
517.0355	0.09	1034071	keystroke_a	a	n/a
517.1705	0.12	1034341	keystroke_Key.space	Key.space	n/a
517.44	0.105	1034880	keystroke_i	i	n/a
517.83	0.15	1035660	keystroke_c	c	n/a
517.9955	0.1205	1035991	keystroke_h	h	n/a
518.161	0.105	1036322	keystroke_e	e	n/a
518.416	0.1045	1036832	keystroke_s	s	n/a
518.6705	0.09	1037341	keystroke_Key.enter	Key.enter	n/a
518.765	22.5575	1037530	prompt	n/a	fascinating pasta czech double\n
519.6755	0.06	1039351	keystroke_f	f	n/a
519.7055	0.06	1039411	keystroke_g	g	n/a
519.9305	0.15	1039861	keystroke_a	a	n/a
520.5005	0.045	1041001	keystroke_Key.backspace	Key.backspace	n/a
520.6505	0.03	1041301	keystroke_Key.backspace	Key.backspace	n/a
520.7855	0.12	1041571	keystroke_a	a	n/a
521.1005	0.09	1042201	keystroke_s	s	n/a
521.3705	0.12	1042741	keystroke_c	c	n/a
521.5055	0.165	1043011	keystroke_i	i	n/a
521.6405	0.135	1043281	keystroke_n	n	n/a
521.911	0.135	1043822	keystroke_a	a	n/a
522.151	0.105	1044302	keystroke_t	t	n/a
522.3	0.165	1044600	keystroke_i	i	n/a
522.406	0.134	1044812	keystroke_o	o	n/a
522.496	0.165	1044992	keystroke_n	n	n/a
522.646	0.119	1045292	keystroke_Key.space	Key.space	n/a
523.0205	0.195	1046041	keystroke_p	p	n/a
523.1105	0.12	1046221	keystroke_a	a	n/a
523.306	0.12	1046612	keystroke_s	s	n/a
523.516	0.075	1047032	keystroke_t	t	n/a
523.725	0.12	1047450	keystroke_a	a	n/a
523.92	0.075	1047840	keystroke_Key.space	Key.space	n/a
524.13	0.121	1048260	keystroke_c	c	n/a
525.706	0.089	1051412	keystroke_z	z	n/a
526.0505	0.1045	1052101	keystroke_c	c	n/a
526.41	0.0905	1052820	keystroke_h	h	n/a
527.6855	0.075	1055371	keystroke_e	e	n/a
527.971	0.075	1055942	keystroke_c	c	n/a
528.271	0.09	1056542	keystroke_Key.space	Key.space	n/a
528.975	0.075	1057950	keystroke_Key.backspace	Key.backspace	n/a
529.156	0.059	1058312	keystroke_Key.backspace	Key.backspace	n/a
530.7455	0.075	1061491	keystroke_h	h	n/a
530.9855	0.105	1061971	keystroke_Key.space	Key.space	n/a
531.66	0.09	1063320	keystroke_Key.backspace	Key.backspace	n/a
531.825	0.15	1063650	keystroke_Key.backspace	Key.backspace	n/a
532.065	0.075	1064130	keystroke_Key.backspace	Key.backspace	n/a
535.278	0.012	1070556	keystroke_Key.backspace	Key.backspace	n/a
535.5155	0.045	1071031	keystroke_Key.backspace	Key.backspace	n/a
536.971	0.105	1073942	keystroke_e	e	n/a
537.661	0.1345	1075322	keystroke_c	c	n/a
537.9005	0.15	1075801	keystroke_h	h	n/a
538.2155	0.15	1076431	keystroke_Key.space	Key.space	n/a
538.4705	0.135	1076941	keystroke_d	d	n/a
538.6805	0.1355	1077361	keystroke_o	o	n/a
539.4155	0.075	1078831	keystroke_u	u	n/a
540.4505	0.09	1080901	keystroke_b	b	n/a
540.751	0.1345	1081502	keystroke_l	l	n/a
540.9305	0.105	1081861	keystroke_e	e	n/a
541.2305	0.09	1082461	keystroke_Key.enter	Key.enter	n/a
541.3255	9.222	1082651	prompt	n/a	underlying assignment brings signs\n
542.026	0.075	1084052	keystroke_u	u	n/a
542.3255	0.105	1084651	keystroke_n	n	n/a
542.4155	0.105	1084831	keystroke_d	d	n/a
542.6555	0.135	1085311	keystroke_e	e	n/a
542.8055	0.09	1085611	keystroke_r	r	n/a
543.0155	0.12	1086031	keystroke_l	l	n/a
543.2855	0.12	1086571	keystroke_y	y	n/a
543.5255	0.165	1087051	keystroke_i	i	n/a
543.7055	0.195	1087411	keystroke_n	n	n/a
543.8855	0.12	1087771	keystroke_g	g	n/a
543.9905	0.105	1087981	keystroke_Key.space	Key.space	n/a
544.2005	0.105	1088401	keystroke_a	a	n/a
544.441	0.06	1088882	keystroke_s	s	n/a
544.576	0.135	1089152	keystroke_s	s	n/a
544.741	0.15	1089482	keystroke_i	i	n/a
545.281	0.105	1090562	keystroke_g	g	n/a
545.506	0.12	1091012	keystroke_n	n	n/a
546.706	0.12	1093412	keystroke_m	m	n/a
546.931	0.09	1093862	keystroke_e	e	n/a
547.036	0.135	1094072	keystroke_n	n	n/a
547.216	0.09	1094432	keystroke_t	t	n/a
547.351	0.105	1094702	keystroke_Key.space	Key.space	n/a
547.621	0.1195	1095242	keystroke_b	b	n/a
547.9055	0.0895	1095811	keystroke_r	r	n/a
548.04	0.1205	1096080	keystroke_i	i	n/a
548.25	0.135	1096500	keystroke_n	n	n/a
548.431	0.105	1096862	keystroke_g	g	n/a
548.716	0.105	1097432	keystroke_s	s	n/a
548.896	0.135	1097792	keystroke_Key.space	Key.space	n/a
549.061	0.1345	1098122	keystroke_s	s	n/a
549.1805	0.12	1098361	keystroke_i	i	n/a
549.4805	0.12	1098961	keystroke_g	g	n/a
549.7205	0.12	1099441	keystroke_n	n	n/a
550.0505	0.105	1100101	keystroke_s	s	n/a
550.4255	0.12	1100851	keystroke_Key.enter	Key.enter	n/a
550.551	9.6265	1101102	prompt	n/a	negative religious unknown colleges\n
551.3565	0.119	1102713	keystroke_n	n	n/a
551.5355	0.12	1103071	keystroke_e	e	n/a
551.821	0.105	1103642	keystroke_g	g	n/a
552.031	0.12	1104062	keystroke_a	a	n/a
552.241	0.075	1104482	keystroke_t	t	n/a
552.376	0.1345	1104752	keystroke_i	i	n/a
552.5255	0.15	1105051	keystroke_v	v	n/a
552.7355	0.12	1105471	keystroke_e	e	n/a
553.2755	0.09	1106551	keystroke_Key.space	Key.space	n/a
553.5005	0.135	1107001	keystroke_r	r	n/a
553.7255	0.12	1107451	keystroke_e	e	n/a
554.2205	0.135	1108441	keystroke_l	l	n/a
554.5805	0.105	1109161	keystroke_i	i	n/a
554.8355	0.105	1109671	keystroke_g	g	n/a
555.0005	0.105	1110001	keystroke_i	i	n/a
555.2105	0.09	1110421	keystroke_o	o	n/a
555.3905	0.12	1110781	keystroke_u	u	n/a
555.5705	0.09	1111141	keystroke_s	s	n/a
555.7205	0.135	1111441	keystroke_Key.space	Key.space	n/a
556.0655	0.09	1112131	keystroke_u	u	n/a
556.3205	0.105	1112641	keystroke_n	n	n/a
556.576	0.165	1113152	keystroke_k	k	n/a
556.801	0.195	1113602	keystroke_n	n	n/a
556.981	0.12	1113962	keystroke_o	o	n/a
557.191	0.1045	1114382	keystroke_w	w	n/a
557.4455	0.105	1114891	keystroke_n	n	n/a
557.7005	0.105	1115401	keystroke_Key.space	Key.space	n/a
558.1055	0.135	1116211	keystroke_c	c	n/a
558.2705	0.075	1116541	keystroke_o	o	n/a
558.51	0.09	1117020	keystroke_l	l	n/a
558.7205	0.09	1117441	keystroke_l	l	n/a
558.9005	0.1195	1117801	keystroke_e	e	n/a
559.185	0.12	1118370	keystroke_g	g	n/a
559.4705	0.09	1118941	keystroke_e	e	n/a
559.7555	0.105	1119511	keystroke_s	s	n/a
560.056	0.12	1120112	keystroke_Key.enter	Key.enter	n/a
560.1805	10.272	1120361	prompt	n/a	consequently trails concrete dimension\n
560.8655	0.12	1121731	keystroke_c	c	n/a
561.0155	0.165	1122031	keystroke_o	o	n/a
561.436	0.15	1122872	keystroke_n	n	n/a
561.691	0.075	1123382	keystroke_s	s	n/a
562.156	0.105	1124312	keystroke_e	e	n/a
562.561	0.1195	1125122	keystroke_q	q	n/a
562.7555	0.135	1125511	keystroke_u	u	n/a
562.9055	0.1655	1125811	keystroke_e	e	n/a
563.101	0.135	1126202	keystroke_n	n	n/a
563.251	0.09	1126502	keystroke_t	t	n/a
563.536	0.15	1127072	keystroke_l	l	n/a
563.851	0.12	1127702	keystroke_y	y	n/a
564.015	0.15	1128030	keystroke_Key.space	Key.space	n/a
564.255	0.076	1128510	keystroke_t	t	n/a
564.466	0.0895	1128932	keystroke_r	r	n/a
564.766	0.18	1129532	keystroke_a	a	n/a
564.961	0.09	1129922	keystroke_i	i	n/a
565.171	0.15	1130342	keystroke_l	l	n/a
565.306	0.105	1130612	keystroke_s	s	n/a
565.426	0.105	1130852	keystroke_Key.space	Key.space	n/a
565.696	0.135	1131392	keystroke_c	c	n/a
565.771	0.135	1131542	keystroke_o	o	n/a
565.936	0.165	1131872	keystroke_n	n	n/a
566.086	0.12	1132172	keystroke_c	c	n/a
566.866	0.15	1133732	keystroke_r	r	n/a
567.121	0.105	1134242	keystroke_e	e	n/a
567.391	0.075	1134782	keystroke_t	t	n/a
567.616	0.015	1135232	keystroke_t	t	n/a
568.096	0.0745	1136192	keystroke_Key.backspace	Key.backspace	n/a
568.2155	0.105	1136431	keystroke_e	e	n/a
568.3955	0.1205	1136791	keystroke_Key.space	Key.space	n/a
568.786	0.1495	1137572	keystroke_d	d	n/a
568.921	0.1195	1137842	keystroke_i	i	n/a
569.1305	0.12	1138261	keystroke_m	m	n/a
569.2355	0.105	1138471	keystroke_e	e	n/a
569.3855	0.135	1138771	keystroke_n	n	n/a
569.5655	0.135	1139131	keystroke_s	s	n/a
569.7605	0.105	1139521	keystroke_i	i	n/a
569.8955	0.18	1139791	keystroke_o	o	n/a
570.0305	0.135	1140061	keystroke_n	n	n/a
570.3905	0.0595	1140781	keystroke_Key.enter	Key.enter	n/a
570.4565	11.066	1140913	prompt	n/a	associated graduated maximize entitled\n
571.246	0.119	1142492	keystroke_a	a	n/a
571.486	0.06	1142972	keystroke_s	s	n/a
571.636	0.06	1143272	keystroke_s	s	n/a
571.8905	0.12	1143781	keystroke_o	o	n/a
572.0555	0.135	1144111	keystroke_c	c	n/a
572.2055	0.1055	1144411	keystroke_i	i	n/a
572.326	0.105	1144652	keystroke_a	a	n/a
572.5505	0.09	1145101	keystroke_t	t	n/a
572.7005	0.105	1145401	keystroke_e	e	n/a
572.9555	0.075	1145911	keystroke_d	d	n/a
573.1355	0.135	1146271	keystroke_Key.space	Key.space	n/a
573.4055	0.09	1146811	keystroke_g	g	n/a
573.631	0.09	1147262	keystroke_r	r	n/a
573.886	0.105	1147772	keystroke_a	a	n/a
574.141	0.135	1148282	keystroke_d	d	n/a
574.336	0.1045	1148672	keystroke_u	u	n/a
574.486	0.135	1148972	keystroke_a	a	n/a
574.711	0.105	1149422	keystroke_t	t	n/a
574.891	0.1045	1149782	keystroke_e	e	n/a
575.1605	0.09	1150321	keystroke_d	d	n/a
575.3105	0.075	1150621	keystroke_Key.space	Key.space	n/a
575.5805	0.105	1151161	keystroke_m	m	n/a
575.7305	0.09	1151461	keystroke_a	a	n/a
576.661	0.105	1153322	keystroke_x	x	n/a
577.291	0.075	1154582	keystroke_i	i	n/a
577.471	0.12	1154942	keystroke_m	m	n/a
577.7105	0.09	1155421	keystroke_i	i	n/a
578.1455	0.135	1156291	keystroke_z	z	n/a
578.986	0.0905	1157972	keystroke_e	e	n/a
579.2265	0.074	1158453	keystroke_Key.space	Key.space	n/a
579.5265	0.12	1159053	keystroke_e	e	n/a
579.7515	0.134	1159503	keystroke_m	m	n/a
579.9615	0.09	1159923	keystroke_t	t	n/a
580.2455	0.091	1160491	keystroke_i	i	n/a
580.501	0.15	1161002	keystroke_l	l	n/a
580.666	0.06	1161332	keystroke_t	t	n/a
580.936	0.06	1161872	keystroke_e	e	n/a
581.176	0.06	1162352	keystroke_d	d	n/a
581.431	0.09	1162862	keystroke_Key.enter	Key.enter	n/a
581.525	8.9075	1163050	prompt	n/a	theatre madness reporter products\n
582.256	0.105	1164512	keystroke_t	t	n/a
582.376	0.1195	1164752	keystroke_h	h	n/a
582.5105	0.135	1165021	keystroke_e	e	n/a
582.8705	0.1355	1165741	keystroke_a	a	n/a
583.141	0.09	1166282	keystroke_t	t	n/a
583.351	0.075	1166702	keystroke_r	r	n/a
583.756	0.09	1167512	keystroke_e	e	n/a
583.9955	0.105	1167991	keystroke_Key.space	Key.space	n/a
584.2205	0.121	1168441	keystroke_m	m	n/a
584.3855	0.1205	1168771	keystroke_a	a	n/a
584.626	0.12	1169252	keystroke_d	d	n/a
584.911	0.09	1169822	keystroke_n	n	n/a
585.106	0.075	1170212	keystroke_e	e	n/a
585.406	0.075	1170812	keystroke_s	s	n/a
585.556	0.075	1171112	keystroke_s	s	n/a
585.661	0.15	1171322	keystroke_Key.space	Key.space	n/a
585.946	0.135	1171892	keystroke_r	r	n/a
586.171	0.12	1172342	keystroke_e	e	n/a
586.396	0.105	1172792	keystroke_p	p	n/a
586.621	0.0745	1173242	keystroke_o	o	n/a
586.7105	0.0905	1173421	keystroke_r	r	n/a
586.951	0.09	1173902	keystroke_t	t	n/a
587.341	0.09	1174682	keystroke_e	e	n/a
588.3155	0.075	1176631	keystroke_r	r	n/a
588.5105	0.0905	1177021	keystroke_Key.space	Key.space	n/a
588.766	0.15	1177532	keystroke_p	p	n/a
588.961	0.09	1177922	keystroke_r	r	n/a
589.066	0.105	1178132	keystroke_o	o	n/a
589.261	0.105	1178522	keystroke_d	d	n/a
589.411	0.12	1178822	keystroke_u	u	n/a
589.546	0.12	1179092	keystroke_c	c	n/a
589.816	0.075	1179632	keystroke_t	t	n/a
590.116	0.075	1180232	keystroke_s	s	n/a
590.3705	0.06	1180741	keystroke_Key.enter	Key.enter	n/a
590.436	13.3615	1180872	prompt	n/a	continuous scientists be would've\n
591.1355	0.135	1182271	keystroke_c	c	n/a
591.2855	0.1205	1182571	keystroke_o	o	n/a
591.436	0.15	1182872	keystroke_n	n	n/a
591.601	0.09	1183202	keystroke_t	t	n/a
591.721	0.105	1183442	keystroke_i	i	n/a
591.961	0.135	1183922	keystroke_n	n	n/a
592.261	0.09	1184522	keystroke_u	u	n/a
592.501	0.165	1185002	keystroke_o	o	n/a
592.6955	0.12	1185391	keystroke_u	u	n/a
592.9055	0.1355	1185811	keystroke_s	s	n/a
593.086	0.105	1186172	keystroke_Key.space	Key.space	n/a
593.341	0.105	1186682	keystroke_s	s	n/a
593.596	0.179	1187192	keystroke_c	c	n/a
594.5555	0.12	1189111	keystroke_i	i	n/a
594.6905	0.12	1189381	keystroke_e	e	n/a
594.8555	0.12	1189711	keystroke_n	n	n/a
594.9905	0.09	1189981	keystroke_t	t	n/a
595.1705	0.075	1190341	keystroke_i	i	n/a
595.3355	0.1355	1190671	keystroke_s	s	n/a
595.636	0.135	1191272	keystroke_h	h	n/a
596.1455	0.105	1192291	keystroke_Key.backspace	Key.backspace	n/a
596.3255	0.1055	1192651	keystroke_t	t	n/a
596.686	0.075	1193372	keystroke_s	s	n/a
596.986	0.12	1193972	keystroke_Key.space	Key.space	n/a
597.286	0.105	1194572	keystroke_b	b	n/a
597.541	0.059	1195082	keystroke_e	e	n/a
597.736	0.09	1195472	keystroke_Key.space	Key.space	n/a
597.961	0.105	1195922	keystroke_w	w	n/a
598.096	0.075	1196192	keystroke_o	o	n/a
598.501	0.165	1197002	keystroke_l	l	n/a
598.771	0.0595	1197542	keystroke_l	l	n/a
599.026	0.1045	1198052	keystroke_d	d	n/a
599.956	0.045	1199912	keystroke_Key.backspace	Key.backspace	n/a
600.091	0.075	1200182	keystroke_Key.backspace	Key.backspace	n/a
600.466	0.075	1200932	keystroke_Key.backspace	Key.backspace	n/a
600.886	0.12	1201772	keystroke_u	u	n/a
601.201	0.12	1202402	keystroke_l	l	n/a
601.396	0.12	1202792	keystroke_d	d	n/a
602.746	0.1495	1205492	keystroke_'	'	n/a
602.9555	0.0905	1205911	keystroke_v	v	n/a
603.256	0.075	1206512	keystroke_e	e	n/a
603.676	0.12	1207352	keystroke_Key.enter	Key.enter	n/a
603.801	10.9315	1207602	prompt	n/a	chicago thousands heads analyst\n
604.9505	0.165	1209901	keystroke_c	c	n/a
605.1305	0.12	1210261	keystroke_h	h	n/a
605.3405	0.12	1210681	keystroke_i	i	n/a
605.7155	0.105	1211431	keystroke_g	g	n/a
606.0605	0.09	1212121	keystroke_a	a	n/a
606.8855	0.015	1213771	keystroke_Key.backspace	Key.backspace	n/a
606.991	0.06	1213982	keystroke_Key.backspace	Key.backspace	n/a
607.171	0.105	1214342	keystroke_c	c	n/a
607.366	0.135	1214732	keystroke_a	a	n/a
607.561	0.09	1215122	keystroke_g	g	n/a
607.741	0.06	1215482	keystroke_o	o	n/a
608.296	0.12	1216592	keystroke_Key.space	Key.space	n/a
608.461	0.12	1216922	keystroke_t	t	n/a
608.656	0.12	1217312	keystroke_h	h	n/a
608.851	0.15	1217702	keystroke_o	o	n/a
609.0915	0.104	1218183	keystroke_u	u	n/a
609.2105	0.105	1218421	keystroke_s	s	n/a
609.4655	0.12	1218931	keystroke_a	a	n/a
609.6005	0.1355	1219201	keystroke_n	n	n/a
609.796	0.12	1219592	keystroke_d	d	n/a
610.7855	0.09	1221571	keystroke_s	s	n/a
610.9805	0.09	1221961	keystroke_Key.space	Key.space	n/a
611.2055	0.135	1222411	keystroke_h	h	n/a
611.3255	0.09	1222651	keystroke_e	e	n/a
611.5505	0.09	1223101	keystroke_a	a	n/a
612.046	0.105	1224092	keystroke_d	d	n/a
612.271	0.12	1224542	keystroke_s	s	n/a
612.451	0.09	1224902	keystroke_Key.space	Key.space	n/a
612.661	0.135	1225322	keystroke_a	a	n/a
612.796	0.12	1225592	keystroke_n	n	n/a
612.961	0.15	1225922	keystroke_a	a	n/a
613.3655	0.15	1226731	keystroke_l	l	n/a
613.7105	0.12	1227421	keystroke_y	y	n/a
613.8315	0.104	1227663	keystroke_s	s	n/a
614.0705	0.105	1228141	keystroke_t	t	n/a
614.6255	0.105	1229251	keystroke_Key.enter	Key.enter	n/a
614.736	10.7515	1229472	prompt	n/a	forty states purchase southampton\n
615.4955	0.15	1230991	keystroke_f	f	n/a
615.6905	0.105	1231381	keystroke_o	o	n/a
615.8105	0.0755	1231621	keystroke_r	r	n/a
615.991	0.105	1231982	keystroke_t	t	n/a
616.156	0.135	1232312	keystroke_y	y	n/a
616.321	0.1495	1232642	keystroke_Key.space	Key.space	n/a
616.4555	0.12	1232911	keystroke_s	s	n/a
616.6805	0.09	1233361	keystroke_t	t	n/a
616.9505	0.15	1233901	keystroke_a	a	n/a
617.1905	0.0905	1234381	keystroke_t	t	n/a
617.415	0.121	1234830	keystroke_e	e	n/a
617.776	0.09	1235552	keystroke_s	s	n/a
617.941	0.105	1235882	keystroke_Key.space	Key.space	n/a
618.226	0.135	1236452	keystroke_p	p	n/a
618.4655	0.135	1236931	keystroke_u	u	n/a
618.5855	0.09	1237171	keystroke_r	r	n/a
618.856	0.105	1237712	keystroke_c	c	n/a
618.946	0.135	1237892	keystroke_h	h	n/a
619.066	0.105	1238132	keystroke_a	a	n/a
619.305	0.075	1238610	keystroke_s	s	n/a
619.485	0.076	1238970	keystroke_e	e	n/a
619.6805	0.12	1239361	keystroke_Key.space	Key.space	n/a
619.9805	0.15	1239961	keystroke_s	s	n/a
620.1155	0.12	1240231	keystroke_o	o	n/a
620.3555	0.1205	1240711	keystroke_u	u	n/a
620.611	0.075	1241222	keystroke_t	t	n/a
620.836	0.12	1241672	keystroke_h	h	n/a
622.7705	0.15	1245541	keystroke_a	a	n/a
623.2355	0.015	1246471	keystroke_m	m	n/a
623.2655	0.135	1246531	keystroke_p	p	n/a
623.431	0.1045	1246862	keystroke_t	t	n/a
623.5505	0.09	1247101	keystroke_o	o	n/a
623.941	0.09	1247882	keystroke_n	n	n/a
625.3805	0.105	1250761	keystroke_Key.enter	Key.enter	n/a
625.4935	11.679	1250987	prompt	n/a	ontario swiss loving florence\n
627.558	0.043	1255116	keystroke_o	o	n/a
627.661	0.165	1255322	keystroke_n	n	n/a
627.811	0.075	1255622	keystroke_t	t	n/a
628.036	0.12	1256072	keystroke_a	a	n/a
628.321	0.105	1256642	keystroke_r	r	n/a
628.5605	0.09	1257121	keystroke_i	i	n/a
628.6955	0.165	1257391	keystroke_o	o	n/a
628.8755	0.105	1257751	keystroke_Key.space	Key.space	n/a
629.0705	0.12	1258141	keystroke_s	s	n/a
629.3555	0.105	1258711	keystroke_w	w	n/a
629.521	0.09	1259042	keystroke_i	i	n/a
629.761	0.06	1259522	keystroke_l	l	n/a
629.881	0.075	1259762	keystroke_l	l	n/a
630.466	0.045	1260932	keystroke_Key.backspace	Key.backspace	n/a
630.631	0.09	1261262	keystroke_s	s	n/a
630.9605	0.06	1261921	keystroke_=	=	n/a
631.1255	0.015	1262251	keystroke_=	=	n/a
631.276	0.075	1262552	keystroke_s	s	n/a
632.026	0.015	1264052	keystroke_Key.backspace	Key.backspace	n/a
632.191	0.045	1264382	keystroke_Key.backspace	Key.backspace	n/a
632.326	0.06	1264652	keystroke_Key.backspace	Key.backspace	n/a
632.701	0.045	1265402	keystroke_Key.backspace	Key.backspace	n/a
633.241	0.27	1266482	keystroke_Key.backspace	Key.backspace	n/a
633.526	0.015	1267052	keystroke_s	s	n/a
633.7505	0.075	1267501	keystroke_s	s	n/a
634.141	0.105	1268282	keystroke_Key.space	Key.space	n/a
634.411	0.105	1268822	keystroke_l	l	n/a
634.6205	0.105	1269241	keystroke_o	o	n/a
634.6965	0.105	1269393	keystroke_v	v	n/a
634.8915	0.1345	1269783	keystroke_i	i	n/a
635.041	0.135	1270082	keystroke_n	n	n/a
635.161	0.105	1270322	keystroke_g	g	n/a
635.281	0.075	1270562	keystroke_Key.space	Key.space	n/a
635.521	0.09	1271042	keystroke_f	f	n/a
635.626	0.12	1271252	keystroke_l	l	n/a
635.881	0.105	1271762	keystroke_o	o	n/a
636.0915	0.104	1272183	keystroke_r	r	n/a
636.2565	0.104	1272513	keystroke_e	e	n/a
636.4205	0.105	1272841	keystroke_n	n	n/a
636.6005	0.075	1273201	keystroke_c	c	n/a
636.8255	0.06	1273651	keystroke_e	e	n/a
637.0805	0.09	1274161	keystroke_Key.enter	Key.enter	n/a
637.1755	8.127	1274351	prompt	n/a	shopper google lanka findlaw\n
638.1155	0.105	1276231	keystroke_s	s	n/a
638.2355	0.12	1276471	keystroke_h	h	n/a
638.4155	0.0905	1276831	keystroke_o	o	n/a
638.626	0.09	1277252	keystroke_p	p	n/a
638.8055	0.12	1277611	keystroke_p	p	n/a
638.9555	0.15	1277911	keystroke_e	e	n/a
639.1355	0.12	1278271	keystroke_r	r	n/a
639.3905	0.12	1278781	keystroke_Key.space	Key.space	n/a
639.6905	0.09	1279381	keystroke_g	g	n/a
639.8405	0.06	1279681	keystroke_o	o	n/a
639.9605	0.105	1279921	keystroke_o	o	n/a
640.2005	0.06	1280401	keystroke_g	g	n/a
640.4105	0.15	1280821	keystroke_l	l	n/a
640.576	0.105	1281152	keystroke_e	e	n/a
640.7405	0.12	1281481	keystroke_Key.space	Key.space	n/a
641.0405	0.18	1282081	keystroke_l	l	n/a
641.2655	0.165	1282531	keystroke_a	a	n/a
641.4155	0.12	1282831	keystroke_n	n	n/a
641.7155	0.15	1283431	keystroke_k	k	n/a
641.9255	0.165	1283851	keystroke_a	a	n/a
642.1205	0.075	1284241	keystroke_Key.space	Key.space	n/a
642.3605	0.15	1284721	keystroke_f	f	n/a
642.4955	0.165	1284991	keystroke_i	i	n/a
642.6455	0.15	1285291	keystroke_n	n	n/a
642.8255	0.12	1285651	keystroke_d	d	n/a
644.1755	0.12	1288351	keystroke_l	l	n/a
644.3555	0.1205	1288711	keystroke_a	a	n/a
644.776	0.09	1289552	keystroke_w	w	n/a
645.2255	0.075	1290451	keystroke_Key.enter	Key.enter	n/a
645.3055	6.747	1290611	prompt	n/a	from holidays albert yeah\n
645.8705	0.09	1291741	keystroke_f	f	n/a
646.0655	0.12	1292131	keystroke_r	r	n/a
646.2155	0.195	1292431	keystroke_o	o	n/a
646.3655	0.1655	1292731	keystroke_m	m	n/a
646.546	0.105	1293092	keystroke_Key.space	Key.space	n/a
646.801	0.135	1293602	keystroke_h	h	n/a
646.996	0.105	1293992	keystroke_o	o	n/a
647.281	0.12	1294562	keystroke_l	l	n/a
647.926	0.0895	1295852	keystroke_i	i	n/a
648.0755	0.1055	1296151	keystroke_d	d	n/a
648.301	0.1345	1296602	keystroke_a	a	n/a
648.4805	0.135	1296961	keystroke_y	y	n/a
648.6305	0.0905	1297261	keystroke_s	s	n/a
648.751	0.15	1297502	keystroke_Key.space	Key.space	n/a
649.051	0.15	1298102	keystroke_a	a	n/a
649.231	0.135	1298462	keystroke_l	l	n/a
649.531	0.135	1299062	keystroke_b	b	n/a
649.8005	0.1355	1299601	keystroke_e	e	n/a
649.996	0.105	1299992	keystroke_r	r	n/a
650.221	0.135	1300442	keystroke_t	t	n/a
650.371	0.1045	1300742	keystroke_Key.space	Key.space	n/a
650.641	0.165	1301282	keystroke_y	y	n/a
650.821	0.105	1301642	keystroke_e	e	n/a
651.076	0.09	1302152	keystroke_a	a	n/a
651.556	0.12	1303112	keystroke_h	h	n/a
651.961	0.09	1303922	keystroke_Key.enter	Key.enter	n/a
652.056	11.8465	1304112	prompt	n/a	guyana liabilities covering gamespot\n
653.056	0.1345	1306112	keystroke_g	g	n/a
653.3255	0.165	1306651	keystroke_u	u	n/a
653.6555	0.105	1307311	keystroke_y	y	n/a
653.8055	0.135	1307611	keystroke_a	a	n/a
654.046	0.135	1308092	keystroke_n	n	n/a
655.2465	0.105	1310493	keystroke_a	a	n/a
655.561	0.105	1311122	keystroke_Key.space	Key.space	n/a
655.846	0.12	1311692	keystroke_l	l	n/a
656.116	0.12	1312232	keystroke_i	i	n/a
657.7805	0.12	1315561	keystroke_a	a	n/a
658.0205	0.12	1316041	keystroke_b	b	n/a
658.2305	0.09	1316461	keystroke_i	i	n/a
658.471	0.135	1316942	keystroke_l	l	n/a
658.666	0.15	1317332	keystroke_i	i	n/a
658.906	0.105	1317812	keystroke_t	t	n/a
659.056	0.18	1318112	keystroke_i	i	n/a
659.251	0.12	1318502	keystroke_e	e	n/a
659.5215	0.134	1319043	keystroke_s	s	n/a
659.6855	0.12	1319371	keystroke_Key.space	Key.space	n/a
659.9555	0.105	1319911	keystroke_c	c	n/a
660.0455	0.15	1320091	keystroke_o	o	n/a
660.2255	0.105	1320451	keystroke_v	v	n/a
660.4655	0.12	1320931	keystroke_e	e	n/a
660.6305	0.12	1321261	keystroke_r	r	n/a
660.7955	0.18	1321591	keystroke_i	i	n/a
660.9305	0.18	1321861	keystroke_n	n	n/a
661.0955	0.105	1322191	keystroke_g	g	n/a
661.2015	0.089	1322403	keystroke_Key.space	Key.space	n/a
661.5305	0.105	1323061	keystroke_g	g	n/a
661.8155	0.135	1323631	keystroke_a	a	n/a
662.0255	0.165	1324051	keystroke_m	m	n/a
662.206	0.09	1324412	keystroke_e	e	n/a
662.4455	0.135	1324891	keystroke_s	s	n/a
662.896	0.105	1325792	keystroke_p	p	n/a
663.121	0.135	1326242	keystroke_o	o	n/a
663.391	0.09	1326782	keystroke_t	t	n/a
663.8105	0.09	1327621	keystroke_Key.enter	Key.enter	n/a
663.9055	12.387	1327811	prompt	n/a	defines picked luxury thai\n
664.606	0.09	1329212	keystroke_d	d	n/a
664.8155	0.105	1329631	keystroke_e	e	n/a
665.101	0.12	1330202	keystroke_f	f	n/a
665.251	0.135	1330502	keystroke_i	i	n/a
665.401	0.165	1330802	keystroke_n	n	n/a
665.671	0.1195	1331342	keystroke_s	s	n/a
665.9555	0.09	1331911	keystroke_Key.space	Key.space	n/a
666.286	0.15	1332572	keystroke_p	p	n/a
667.096	0.045	1334192	keystroke_Key.backspace	Key.backspace	n/a
667.261	0.09	1334522	keystroke_Key.backspace	Key.backspace	n/a
667.426	0.09	1334852	keystroke_Key.backspace	Key.backspace	n/a
667.6815	0.119	1335363	keystroke_e	e	n/a
668.146	0.135	1336292	keystroke_s	s	n/a
668.386	0.09	1336772	keystroke_Key.space	Key.space	n/a
668.791	0.1205	1337582	keystroke_p	p	n/a
669.0165	0.12	1338033	keystroke_i	i	n/a
669.1505	0.121	1338301	keystroke_c	c	n/a
669.3315	0.1645	1338663	keystroke_k	k	n/a
669.466	0.105	1338932	keystroke_e	e	n/a
669.736	0.12	1339472	keystroke_d	d	n/a
670.6055	0.12	1341211	keystroke_Key.space	Key.space	n/a
670.876	0.135	1341752	keystroke_l	l	n/a
671.1465	0.1185	1342293	keystroke_u	u	n/a
671.445	0.181	1342890	keystroke_x	x	n/a
672.4065	0.134	1344813	keystroke_u	u	n/a
672.6465	0.104	1345293	keystroke_r	r	n/a
673.0215	0.104	1346043	keystroke_a	a	n/a
673.306	0.12	1346612	keystroke_y	y	n/a
673.996	0.06	1347992	keystroke_Key.backspace	Key.backspace	n/a
674.131	0.09	1348262	keystroke_Key.backspace	Key.backspace	n/a
674.416	0.1055	1348832	keystroke_y	y	n/a
675.075	0.1055	1350150	keystroke_Key.space	Key.space	n/a
675.3005	0.105	1350601	keystroke_t	t	n/a
675.435	0.151	1350870	keystroke_h	h	n/a
675.645	0.1655	1351290	keystroke_a	a	n/a
675.7955	0.1055	1351591	keystroke_i	i	n/a
676.171	0.12	1352342	keystroke_Key.enter	Key.enter	n/a
676.2955	16.767	1352591	prompt	n/a	economics thong suggestion failure\n
676.9955	0.09	1353991	keystroke_e	e	n/a
677.2955	0.135	1354591	keystroke_c	c	n/a
677.4905	0.075	1354981	keystroke_o	o	n/a
677.7915	0.105	1355583	keystroke_n	n	n/a
686.838	0.118	1373676	keystroke_o	o	n/a
687.091	0.135	1374182	keystroke_m	m	n/a
687.316	0.135	1374632	keystroke_i	i	n/a
687.526	0.12	1375052	keystroke_c	c	n/a
687.826	0.105	1375652	keystroke_s	s	n/a
687.991	0.105	1375982	keystroke_Key.space	Key.space	n/a
688.2615	0.12	1376523	keystroke_t	t	n/a
688.3665	0.1645	1376733	keystroke_h	h	n/a
688.516	0.15	1377032	keystroke_o	o	n/a
688.771	0.09	1377542	keystroke_g	g	n/a
688.981	0.105	1377962	keystroke_n	n	n/a
689.221	0.105	1378442	keystroke_Key.space	Key.space	n/a
689.371	0.12	1378742	keystroke_s	s	n/a
689.506	0.12	1379012	keystroke_u	u	n/a
689.671	0.09	1379342	keystroke_g	g	n/a
689.881	0.075	1379762	keystroke_g	g	n/a
690.106	0.135	1380212	keystroke_e	e	n/a
690.451	0.1055	1380902	keystroke_s	s	n/a
690.6915	0.1345	1381383	keystroke_t	t	n/a
690.841	0.105	1381682	keystroke_i	i	n/a
690.916	0.195	1381832	keystroke_o	o	n/a
691.096	0.225	1382192	keystroke_n	n	n/a
691.276	0.12	1382552	keystroke_Key.space	Key.space	n/a
691.441	0.105	1382882	keystroke_f	f	n/a
691.666	0.18	1383332	keystroke_a	a	n/a
691.861	0.09	1383722	keystroke_i	i	n/a
692.101	0.105	1384202	keystroke_l	l	n/a
692.341	0.12	1384682	keystroke_u	u	n/a
692.506	0.12	1385012	keystroke_r	r	n/a
692.701	0.12	1385402	keystroke_e	e	n/a
692.956	0.105	1385912	keystroke_Key.enter	Key.enter	n/a
693.066	10.1065	1386132	prompt	n/a	states colombia difficult handling\n
693.706	0.1055	1387412	keystroke_s	s	n/a
693.9315	0.0895	1387863	keystroke_t	t	n/a
694.186	0.15	1388372	keystroke_a	a	n/a
694.426	0.0905	1388852	keystroke_t	t	n/a
694.936	0.105	1389872	keystroke_e	e	n/a
695.206	0.105	1390412	keystroke_s	s	n/a
695.416	0.12	1390832	keystroke_Key.space	Key.space	n/a
695.641	0.135	1391282	keystroke_c	c	n/a
695.821	0.09	1391642	keystroke_o	o	n/a
696.076	0.15	1392152	keystroke_l	l	n/a
696.5565	0.105	1393113	keystroke_o	o	n/a
696.8865	0.119	1393773	keystroke_m	m	n/a
697.1705	0.121	1394341	keystroke_b	b	n/a
697.366	0.12	1394732	keystroke_i	i	n/a
697.546	0.1495	1395092	keystroke_a	a	n/a
697.666	0.105	1395332	keystroke_Key.space	Key.space	n/a
697.921	0.1505	1395842	keystroke_d	d	n/a
698.1765	0.15	1396353	keystroke_i	i	n/a
699.796	0.045	1399592	keystroke_f	f	n/a
699.946	0.06	1399892	keystroke_f	f	n/a
700.126	0.09	1400252	keystroke_i	i	n/a
700.276	0.135	1400552	keystroke_c	c	n/a
700.412	0.104	1400824	keystroke_u	u	n/a
700.996	0.12	1401992	keystroke_l	l	n/a
701.131	0.12	1402262	keystroke_t	t	n/a
701.296	0.12	1402592	keystroke_Key.space	Key.space	n/a
701.536	0.105	1403072	keystroke_h	h	n/a
701.656	0.1505	1403312	keystroke_a	a	n/a
701.821	0.105	1403642	keystroke_n	n	n/a
701.971	0.135	1403942	keystroke_d	d	n/a
702.136	0.15	1404272	keystroke_l	l	n/a
702.421	0.1795	1404842	keystroke_i	i	n/a
702.5855	0.18	1405171	keystroke_n	n	n/a
702.7805	0.0905	1405561	keystroke_g	g	n/a
703.0655	0.105	1406131	keystroke_Key.enter	Key.enter	n/a
703.176	8.457	1406352	prompt	n/a	dragon bankruptcy salvation odds\n
703.876	0.12	1407752	keystroke_d	d	n/a
704.116	0.075	1408232	keystroke_r	r	n/a
704.401	0.1505	1408802	keystroke_a	a	n/a
704.6705	0.0755	1409341	keystroke_g	g	n/a
704.8965	0.105	1409793	keystroke_o	o	n/a
705.031	0.18	1410062	keystroke_n	n	n/a
705.2405	0.121	1410481	keystroke_Key.space	Key.space	n/a
705.4655	0.091	1410931	keystroke_b	b	n/a
705.6755	0.136	1411351	keystroke_a	a	n/a
705.7955	0.121	1411591	keystroke_n	n	n/a
706.0965	0.15	1412193	keystroke_k	k	n/a
706.5165	0.105	1413033	keystroke_r	r	n/a
706.7265	0.105	1413453	keystroke_u	u	n/a
706.9815	0.18	1413963	keystroke_p	p	n/a
707.2365	0.105	1414473	keystroke_t	t	n/a
707.5965	0.1495	1415193	keystroke_c	c	n/a
707.836	0.135	1415672	keystroke_y	y	n/a
708.076	0.1495	1416152	keystroke_Key.space	Key.space	n/a
708.3015	0.0895	1416603	keystroke_s	s	n/a
708.526	0.195	1417052	keystroke_a	a	n/a
708.706	0.1205	1417412	keystroke_l	l	n/a
708.991	0.1195	1417982	keystroke_v	v	n/a
709.201	0.1355	1418402	keystroke_a	a	n/a
709.4405	0.0755	1418881	keystroke_t	t	n/a
709.636	0.12	1419272	keystroke_i	i	n/a
709.786	0.1805	1419572	keystroke_o	o	n/a
709.921	0.1655	1419842	keystroke_n	n	n/a
710.1465	0.12	1420293	keystroke_Key.space	Key.space	n/a
710.416	0.12	1420832	keystroke_o	o	n/a
710.596	0.135	1421192	keystroke_d	d	n/a
710.851	0.06	1421702	keystroke_d	d	n/a
711.211	0.0605	1422422	keystroke_s	s	n/a
711.5415	0.09	1423083	keystroke_Key.enter	Key.enter	n/a
711.636	15.462	1423272	prompt	n/a	ship motels night solved\n
712.2315	0.135	1424463	keystroke_s	s	n/a
712.3815	0.1045	1424763	keystroke_h	h	n/a
712.546	0.12	1425092	keystroke_i	i	n/a
712.786	0.135	1425572	keystroke_p	p	n/a
713.026	0.1055	1426052	keystroke_Key.space	Key.space	n/a
713.2815	0.1345	1426563	keystroke_m	m	n/a
713.476	0.15	1426952	keystroke_o	o	n/a
713.686	0.105	1427372	keystroke_t	t	n/a
713.8815	0.105	1427763	keystroke_e	e	n/a
714.227	0.0745	1428454	keystroke_s	s	n/a
714.4215	0.1345	1428843	keystroke_l	l	n/a
714.676	0.075	1429352	keystroke_Key.space	Key.space	n/a
714.8565	0.105	1429713	keystroke_n	n	n/a
715.0815	0.09	1430163	keystroke_i	i	n/a
715.2165	0.105	1430433	keystroke_g	g	n/a
715.3515	0.1495	1430703	keystroke_h	h	n/a
715.591	0.1055	1431182	keystroke_t	t	n/a
715.8165	0.09	1431633	keystroke_Key.space	Key.space	n/a
716.776	0.06	1433552	keystroke_Key.backspace	Key.backspace	n/a
717.0165	0.045	1434033	keystroke_Key.backspace	Key.backspace	n/a
717.1965	0.075	1434393	keystroke_Key.backspace	Key.backspace	n/a
717.3915	0.105	1434783	keystroke_Key.backspace	Key.backspace	n/a
717.6015	0.075	1435203	keystroke_Key.backspace	Key.backspace	n/a
717.7665	0.1345	1435533	keystroke_Key.backspace	Key.backspace	n/a
717.976	0.09	1435952	keystroke_Key.backspace	Key.backspace	n/a
718.1715	0.104	1436343	keystroke_Key.backspace	Key.backspace	n/a
718.606	0.1195	1437212	keystroke_Key.backspace	Key.backspace	n/a
719.0115	0.12	1438023	keystroke_t	t	n/a
719.956	0.045	1439912	keystroke_Key.backspace	Key.backspace	n/a
720.842	0.059	1441684	keystroke_l	l	n/a
721.3815	0.075	1442763	keystroke_s	s	n/a
722.0715	0.105	1444143	keystroke_Key.space	Key.space	n/a
722.4165	0.09	1444833	keystroke_n	n	n/a
722.5815	0.105	1445163	keystroke_i	i	n/a
722.7015	0.105	1445403	keystroke_g	g	n/a
722.8215	0.105	1445643	keystroke_h	h	n/a
723.3615	0.105	1446723	keystroke_t	t	n/a
723.5415	0.15	1447083	keystroke_Key.space	Key.space	n/a
723.8115	0.1045	1447623	keystroke_s	s	n/a
723.901	0.12	1447802	keystroke_o	o	n/a
724.126	0.12	1448252	keystroke_v	v	n/a
724.306	0.165	1448612	keystroke_l	l	n/a
725.1765	0.0295	1450353	keystroke_Key.backspace	Key.backspace	n/a
725.2815	0.06	1450563	keystroke_Key.backspace	Key.backspace	n/a
725.926	0.1355	1451852	keystroke_l	l	n/a
726.0465	0.105	1452093	keystroke_v	v	n/a
726.3015	0.0895	1452603	keystroke_e	e	n/a
726.541	0.0905	1453082	keystroke_d	d	n/a
727.0215	0.0745	1454043	keystroke_Key.enter	Key.enter	n/a
727.1015	10.1815	1454203	prompt	n/a	gauge electron removing liberia\n
728.0115	0.06	1456023	keystroke_g	g	n/a
728.2365	0.09	1456473	keystroke_a	a	n/a
728.3865	0.1345	1456773	keystroke_u	u	n/a
728.581	0.105	1457162	keystroke_g	g	n/a
728.821	0.0905	1457642	keystroke_e	e	n/a
729.0015	0.12	1458003	keystroke_Key.space	Key.space	n/a
729.2565	0.12	1458513	keystroke_e	e	n/a
729.481	0.105	1458962	keystroke_l	l	n/a
729.601	0.12	1459202	keystroke_e	e	n/a
729.901	0.1205	1459802	keystroke_c	c	n/a
730.1415	0.105	1460283	keystroke_t	t	n/a
730.3365	0.09	1460673	keystroke_r	r	n/a
730.441	0.18	1460882	keystroke_o	o	n/a
730.576	0.165	1461152	keystroke_n	n	n/a
730.756	0.135	1461512	keystroke_Key.space	Key.space	n/a
730.936	0.105	1461872	keystroke_r	r	n/a
731.266	0.105	1462532	keystroke_e	e	n/a
731.731	0.15	1463462	keystroke_m	m	n/a
732.5715	0.09	1465143	keystroke_v	v	n/a
732.6765	0.09	1465353	keystroke_o	o	n/a
733.861	0.06	1467722	keystroke_Key.backspace	Key.backspace	n/a
733.996	0.09	1467992	keystroke_Key.backspace	Key.backspace	n/a
734.5065	0.105	1469013	keystroke_o	o	n/a
734.6265	0.15	1469253	keystroke_v	v	n/a
734.7615	0.135	1469523	keystroke_i	i	n/a
734.971	0.18	1469942	keystroke_n	n	n/a
735.121	0.135	1470242	keystroke_g	g	n/a
735.256	0.15	1470512	keystroke_Key.space	Key.space	n/a
735.571	0.135	1471142	keystroke_l	l	n/a
735.826	0.09	1471652	keystroke_i	i	n/a
736.051	0.135	1472102	keystroke_b	b	n/a
736.336	0.105	1472672	keystroke_e	e	n/a
736.516	0.12	1473032	keystroke_r	r	n/a
736.696	0.105	1473392	keystroke_i	i	n/a
736.891	0.135	1473782	keystroke_a	a	n/a
737.176	0.105	1474352	keystroke_Key.enter	Key.enter	n/a
737.288	8.47	1474576	prompt	n/a	turning advisors reported spatial\n
738.3465	0.15	1476693	keystroke_t	t	n/a
738.5115	0.015	1477023	keystroke_u	u	n/a
738.5415	0.12	1477083	keystroke_r	r	n/a
738.7215	0.1355	1477443	keystroke_n	n	n/a
738.902	0.12	1477804	keystroke_i	i	n/a
739.082	0.15	1478164	keystroke_n	n	n/a
739.246	0.12	1478492	keystroke_g	g	n/a
740.101	0.136	1480202	keystroke_Key.space	Key.space	n/a
740.266	0.135	1480532	keystroke_a	a	n/a
740.476	0.105	1480952	keystroke_d	d	n/a
740.656	0.12	1481312	keystroke_v	v	n/a
740.806	0.12	1481612	keystroke_i	i	n/a
740.911	0.166	1481822	keystroke_s	s	n/a
741.061	0.135	1482122	keystroke_o	o	n/a
741.241	0.09	1482482	keystroke_r	r	n/a
741.526	0.12	1483052	keystroke_s	s	n/a
741.631	0.12	1483262	keystroke_Key.space	Key.space	n/a
741.916	0.15	1483832	keystroke_r	r	n/a
742.096	0.12	1484192	keystroke_e	e	n/a
742.351	0.105	1484702	keystroke_p	p	n/a
742.561	0.135	1485122	keystroke_o	o	n/a
742.636	0.12	1485272	keystroke_r	r	n/a
742.891	0.105	1485782	keystroke_t	t	n/a
743.161	0.09	1486322	keystroke_e	e	n/a
743.401	0.0905	1486802	keystroke_d	d	n/a
743.521	0.105	1487042	keystroke_Key.space	Key.space	n/a
743.746	0.135	1487492	keystroke_s	s	n/a
743.911	0.1505	1487822	keystroke_p	p	n/a
744.376	0.1205	1488752	keystroke_a	a	n/a
744.6615	0.075	1489323	keystroke_t	t	n/a
744.8565	0.12	1489713	keystroke_i	i	n/a
745.1865	0.075	1490373	keystroke_a	a	n/a
745.3065	0.1205	1490613	keystroke_l	l	n/a
745.652	0.104	1491304	keystroke_Key.enter	Key.enter	n/a
745.761	5.562	1491522	prompt	n/a	tone keys dirty harry\n
746.8215	0.105	1493643	keystroke_t	t	n/a
746.9415	0.165	1493883	keystroke_o	o	n/a
747.0915	0.135	1494183	keystroke_n	n	n/a
747.2415	0.105	1494483	keystroke_e	e	n/a
747.3915	0.12	1494783	keystroke_Key.space	Key.space	n/a
747.7215	0.135	1495443	keystroke_k	k	n/a
747.8415	0.09	1495683	keystroke_e	e	n/a
748.471	0.045	1496942	keystroke_y	y	n/a
748.561	0.1205	1497122	keystroke_s	s	n/a
748.7115	0.105	1497423	keystroke_Key.space	Key.space	n/a
748.9365	0.12	1497873	keystroke_d	d	n/a
749.0715	0.1345	1498143	keystroke_i	i	n/a
749.236	0.105	1498472	keystroke_r	r	n/a
749.506	0.091	1499012	keystroke_t	t	n/a
749.687	0.119	1499374	keystroke_y	y	n/a
749.821	0.15	1499642	keystroke_Key.space	Key.space	n/a
750.062	0.165	1500124	keystroke_h	h	n/a
750.181	0.121	1500362	keystroke_a	a	n/a
750.406	0.061	1500812	keystroke_r	r	n/a
750.541	0.091	1501082	keystroke_r	r	n/a
750.796	0.106	1501592	keystroke_y	y	n/a
751.231	0.09	1502462	keystroke_Key.enter	Key.enter	n/a
751.326	7.467	1502652	prompt	n/a	below device remainder jones\n
752.041	0.09	1504082	keystroke_b	b	n/a
752.2815	0.09	1504563	keystroke_e	e	n/a
752.4165	0.1195	1504833	keystroke_l	l	n/a
752.672	0.104	1505344	keystroke_o	o	n/a
752.791	0.12	1505582	keystroke_w	w	n/a
752.941	0.135	1505882	keystroke_Key.space	Key.space	n/a
753.151	0.12	1506302	keystroke_d	d	n/a
753.391	0.075	1506782	keystroke_e	e	n/a
753.586	0.12	1507172	keystroke_v	v	n/a
753.707	0.104	1507414	keystroke_i	i	n/a
753.931	0.105	1507862	keystroke_c	c	n/a
754.172	0.074	1508344	keystroke_e	e	n/a
754.306	0.105	1508612	keystroke_Key.space	Key.space	n/a
