onset	duration	sample	value	key	prompt_text
3.809	8.18	7618	prompt	n/a	the quick brown fox jumps over a lazy dog\n
5.374	0.0735	10748	keystroke_t	t	n/a
5.4625	0.045	10925	keystroke_h	h	n/a
5.594	0.135	11188	keystroke_e	e	n/a
5.7135	0.1055	11427	keystroke_Key.space	Key.space	n/a
5.834	0.1195	11668	keystroke_q	q	n/a
6.4795	0.18	12959	keystroke_u	u	n/a
6.6	0.1345	13200	keystroke_i	i	n/a
6.7195	0.1055	13439	keystroke_c	c	n/a
6.8395	0.09	13679	keystroke_k	k	n/a
6.974	0.105	13948	keystroke_Key.space	Key.space	n/a
7.095	0.09	14190	keystroke_b	b	n/a
7.185	0.105	14370	keystroke_r	r	n/a
7.32	0.06	14640	keystroke_i	i	n/a
7.395	0.045	14790	keystroke_w	w	n/a
7.785	0.09	15570	keystroke_Key.backspace	Key.backspace	n/a
7.935	0.0895	15870	keystroke_Key.backspace	Key.backspace	n/a
8.145	0.09	16290	keystroke_o	o	n/a
8.2795	0.0895	16559	keystroke_w	w	n/a
8.3995	0.12	16799	keystroke_n	n	n/a
8.5345	0.0905	17069	keystroke_Key.space	Key.space	n/a
8.5945	0.1055	17189	keystroke_f	f	n/a
8.73	0.105	17460	keystroke_o	o	n/a
8.835	0.1195	17670	keystroke_x	x	n/a
8.9695	0.105	17939	keystroke_Key.space	Key.space	n/a
9.2545	0.0755	18509	keystroke_j	j	n/a
9.405	0.075	18810	keystroke_u	u	n/a
9.615	0.075	19230	keystroke_m	m	n/a
9.765	0.1045	19530	keystroke_p	p	n/a
9.84	0.12	19680	keystroke_s	s	n/a
9.945	0.12	19890	keystroke_Key.space	Key.space	n/a
10.0655	0.1345	20131	keystroke_o	o	n/a
10.1695	0.0755	20339	keystroke_v	v	n/a
10.38	0.0295	20760	keystroke_e	e	n/a
10.4245	0.121	20849	keystroke_r	r	n/a
10.53	0.105	21060	keystroke_Key.space	Key.space	n/a
10.6495	0.121	21299	keystroke_a	a	n/a
10.7545	0.1055	21509	keystroke_Key.space	Key.space	n/a
10.875	0.12	21750	keystroke_l	l	n/a
10.9805	0.089	21961	keystroke_a	a	n/a
11.16	0.1355	22320	keystroke_z	z	n/a
11.25	0.12	22500	keystroke_y	y	n/a
11.355	0.1195	22710	keystroke_Key.space	Key.space	n/a
11.4895	0.121	22979	keystroke_d	d	n/a
11.58	0.1345	23160	keystroke_o	o	n/a
11.73	0.09	23460	keystroke_g	g	n/a
11.865	0.1195	23730	keystroke_Key.enter	Key.enter	n/a
11.997	5.3305	23994	prompt	n/a	shall mortgages adjusted releases\n
12.7195	0.1205	25439	keystroke_s	s	n/a
12.78	0.09	25560	keystroke_h	h	n/a
12.945	0.09	25890	keystroke_a	a	n/a
13.02	0.1045	26040	keystroke_l	l	n/a
13.215	0.06	26430	keystroke_l	l	n/a
13.245	0.1495	26490	keystroke_Key.space	Key.space	n/a
13.3805	0.0745	26761	keystroke_m	m	n/a
13.5145	0.1055	27029	keystroke_o	o	n/a
13.845	0.075	27690	keystroke_r	r	n/a
13.995	0.1055	27990	keystroke_t	t	n/a
14.085	0.09	28170	keystroke_g	g	n/a
14.28	0.12	28560	keystroke_a	a	n/a
14.385	0.1205	28770	keystroke_g	g	n/a
14.475	0.1045	28950	keystroke_e	e	n/a
14.6395	0.105	29279	keystroke_s	s	n/a
14.715	0.12	29430	keystroke_Key.space	Key.space	n/a
14.8645	0.0755	29729	keystroke_a	a	n/a
15.015	0.1045	30030	keystroke_d	d	n/a
15.1045	0.076	30209	keystroke_j	j	n/a
15.27	0.1195	30540	keystroke_u	u	n/a
15.33	0.075	30660	keystroke_s	s	n/a
15.495	0.075	30990	keystroke_t	t	n/a
15.645	0.105	31290	keystroke_e	e	n/a
15.81	0.09	31620	keystroke_d	d	n/a
15.87	0.1045	31740	keystroke_Key.space	Key.space	n/a
16.0195	0.1055	32039	keystroke_r	r	n/a
16.125	0.1355	32250	keystroke_e	e	n/a
16.23	0.135	32460	keystroke_l	l	n/a
16.3345	0.106	32669	keystroke_e	e	n/a
16.575	0.1345	33150	keystroke_a	a	n/a
16.815	0.09	33630	keystroke_s	s	n/a
16.949	0.106	33898	keystroke_e	e	n/a
17.115	0.09	34230	keystroke_s	s	n/a
17.2195	0.105	34439	keystroke_Key.enter	Key.enter	n/a
17.3325	4.528	34665	prompt	n/a	tender volumes lycos meaning\n
17.88	0.105	35760	keystroke_t	t	n/a
18.03	0.105	36060	keystroke_e	e	n/a
18.105	0.135	36210	keystroke_n	n	n/a
18.225	0.075	36450	keystroke_d	d	n/a
18.3895	0.0905	36779	keystroke_e	e	n/a
18.495	0.09	36990	keystroke_r	r	n/a
18.5695	0.09	37139	keystroke_Key.space	Key.space	n/a
18.705	0.1055	37410	keystroke_v	v	n/a
18.765	0.105	37530	keystroke_o	o	n/a
18.9145	0.105	37829	keystroke_l	l	n/a
19.125	0.0745	38250	keystroke_u	u	n/a
19.32	0.1205	38640	keystroke_m	m	n/a
19.365	0.1045	38730	keystroke_e	e	n/a
19.53	0.105	39060	keystroke_s	s	n/a
19.65	0.09	39300	keystroke_Key.space	Key.space	n/a
19.8145	0.105	39629	keystroke_l	l	n/a
20.0255	0.0895	40051	keystroke_y	y	n/a
20.3545	0.1055	40709	keystroke_c	c	n/a
20.4445	0.1355	40889	keystroke_o	o	n/a
20.61	0.09	41220	keystroke_s	s	n/a
20.73	0.09	41460	keystroke_Key.space	Key.space	n/a
20.865	0.12	41730	keystroke_m	m	n/a
20.925	0.1045	41850	keystroke_e	e	n/a
21.09	0.135	42180	keystroke_a	a	n/a
21.21	0.09	42420	keystroke_n	n	n/a
21.3595	0.1055	42719	keystroke_i	i	n/a
21.4795	0.1355	42959	keystroke_n	n	n/a
21.6	0.075	43200	keystroke_g	g	n/a
21.765	0.09	43530	keystroke_Key.enter	Key.enter	n/a
21.882	7.19	43764	prompt	n/a	cottage sorts christianity sponsors\n
22.515	0.09	45030	keystroke_c	c	n/a
22.59	0.1045	45180	keystroke_o	o	n/a
22.7245	0.0605	45449	keystroke_t	t	n/a
22.86	0.075	45720	keystroke_t	t	n/a
23.0255	0.105	46051	keystroke_a	a	n/a
23.1145	0.0905	46229	keystroke_g	g	n/a
23.22	0.105	46440	keystroke_e	e	n/a
23.34	0.105	46680	keystroke_Key.space	Key.space	n/a
23.55	0.1055	47100	keystroke_s	s	n/a
23.6245	0.1055	47249	keystroke_o	o	n/a
23.76	0.0745	47520	keystroke_r	r	n/a
23.925	0.0595	47850	keystroke_t	t	n/a
24.06	0.105	48120	keystroke_s	s	n/a
24.18	0.09	48360	keystroke_Key.space	Key.space	n/a
24.27	0.075	48540	keystroke_c	c	n/a
24.39	0.075	48780	keystroke_h	h	n/a
24.585	0.09	49170	keystroke_r	r	n/a
24.7955	0.0895	49591	keystroke_i	i	n/a
25.065	0.0455	50130	keystroke_s	s	n/a
25.2755	0.075	50551	keystroke_t	t	n/a
25.3945	0.1055	50789	keystroke_i	i	n/a
25.59	0.075	51180	keystroke_a	a	n/a
25.7105	0.074	51421	keystroke_n	n	n/a
25.92	0.0905	51840	keystroke_i	i	n/a
26.07	0.0895	52140	keystroke_t	t	n/a
26.1895	0.121	52379	keystroke_y	y	n/a
26.2945	0.12	52589	keystroke_Key.space	Key.space	n/a
26.43	0.1205	52860	keystroke_s	s	n/a
26.5355	0.1945	53071	keystroke_p	p	n/a
26.6245	0.136	53249	keystroke_o	o	n/a
27.2855	0.15	54571	keystroke_n	n	n/a
27.4805	0.105	54961	keystroke_s	s	n/a
27.6755	0.12	55351	keystroke_o	o	n/a
27.8255	0.09	55651	keystroke_r	r	n/a
28.0505	0.105	56101	keystroke_s	s	n/a
28.935	0.1345	57870	keystroke_Key.enter	Key.enter	n/a
29.0775	7.676	58155	prompt	n/a	pounds astronomy john jump\n
29.79	0.1655	59580	keystroke_p	p	n/a
30	0.1045	60000	keystroke_o	o	n/a
30.1945	0.1505	60389	keystroke_u	u	n/a
30.45	0.1955	60900	keystroke_n	n	n/a
30.54	0.12	61080	keystroke_d	d	n/a
30.6755	0.135	61351	keystroke_s	s	n/a
30.7805	0.119	61561	keystroke_Key.space	Key.space	n/a
30.9145	0.105	61829	keystroke_a	a	n/a
31.0945	0.0605	62189	keystroke_d	d	n/a
31.4095	0.1055	62819	keystroke_Key.backspace	Key.backspace	n/a
31.4995	0.075	62999	keystroke_s	s	n/a
31.7255	0.105	63451	keystroke_t	t	n/a
32.0705	0.105	64141	keystroke_r	r	n/a
32.235	0.24	64470	keystroke_o	o	n/a
32.37	0.045	64740	keystroke_Key.right	Key.right	n/a
32.7455	0.239	65491	keystroke_n	n	n/a
33.105	0.075	66210	keystroke_o	o	n/a
33.2705	0.1645	66541	keystroke_m	m	n/a
33.3755	0.0895	66751	keystroke_y	y	n/a
33.54	0.12	67080	keystroke_Key.space	Key.space	n/a
33.9455	0.105	67891	keystroke_j	j	n/a
34.1405	0.09	68281	keystroke_o	o	n/a
34.3805	0.15	68761	keystroke_h	h	n/a
34.6655	0.12	69331	keystroke_n	n	n/a
34.8155	0.1045	69631	keystroke_Key.space	Key.space	n/a
34.921	0.074	69842	keystroke_h	h	n/a
35.385	0.06	70770	keystroke_Key.backspace	Key.backspace	n/a
35.6105	0.074	71221	keystroke_j	j	n/a
35.805	0.015	71610	keystroke_u	u	n/a
35.9855	0.0745	71971	keystroke_m	m	n/a
36.1955	0.0595	72391	keystroke_p	p	n/a
36.7055	0.045	73411	keystroke_Key.enter	Key.enter	n/a
36.7585	7.4855	73517	prompt	n/a	accessories optimization selling donna\n
37.3655	0.1195	74731	keystroke_a	a	n/a
37.665	0.0905	75330	keystroke_c	c	n/a
37.9355	0.105	75871	keystroke_c	c	n/a
38.1605	0.105	76321	keystroke_e	e	n/a
38.3105	0.09	76621	keystroke_s	s	n/a
38.4755	0.105	76951	keystroke_s	s	n/a
38.7005	0.12	77401	keystroke_o	o	n/a
38.8505	0.105	77701	keystroke_r	r	n/a
38.9555	0.12	77911	keystroke_i	i	n/a
39.21	0.0905	78420	keystroke_e	e	n/a
39.3905	0.09	78781	keystroke_s	s	n/a
39.4645	0.12	78929	keystroke_Key.space	Key.space	n/a
39.9155	0.135	79831	keystroke_o	o	n/a
39.9905	0.135	79981	keystroke_p	p	n/a
40.1405	0.105	80281	keystroke_t	t	n/a
40.2605	0.075	80521	keystroke_i	i	n/a
40.44	0.0755	80880	keystroke_m	m	n/a
40.5755	0.12	81151	keystroke_i	i	n/a
40.8155	0.0295	81631	keystroke_x	x	n/a
41.131	0.09	82262	keystroke_z	z	n/a
41.3705	0.09	82741	keystroke_Key.backspace	Key.backspace	n/a
41.5355	0.06	83071	keystroke_Key.backspace	Key.backspace	n/a
41.5805	0.0905	83161	keystroke_z	z	n/a
41.7905	0.06	83581	keystroke_a	a	n/a
41.9855	0.105	83971	keystroke_t	t	n/a
42.0305	0.165	84061	keystroke_i	i	n/a
42.1355	0.105	84271	keystroke_o	o	n/a
42.3455	0.0905	84691	keystroke_n	n	n/a
42.4205	0.105	84841	keystroke_Key.space	Key.space	n/a
42.481	0.1045	84962	keystroke_s	s	n/a
42.6455	0.09	85291	keystroke_e	e	n/a
42.7205	0.09	85441	keystroke_l	l	n/a
42.8855	0.09	85771	keystroke_l	l	n/a
43.0355	0.09	86071	keystroke_i	i	n/a
43.1855	0.1195	86371	keystroke_n	n	n/a
43.2455	0.105	86491	keystroke_g	g	n/a
43.3805	0.119	86761	keystroke_Key.space	Key.space	n/a
43.5155	0.075	87031	keystroke_d	d	n/a
43.5605	0.09	87121	keystroke_o	o	n/a
43.7105	0.0605	87421	keystroke_n	n	n/a
43.845	0.105	87690	keystroke_n	n	n/a
43.9955	0.1045	87991	keystroke_a	a	n/a
44.115	0.12	88230	keystroke_Key.enter	Key.enter	n/a
44.2525	4.448	88505	prompt	n/a	nerve postage ending budapest\n
44.8505	0.12	89701	keystroke_n	n	n/a
44.9255	0.075	89851	keystroke_e	e	n/a
45.0455	0.105	90091	keystroke_r	r	n/a
45.1805	0.135	90361	keystroke_v	v	n/a
45.3005	0.12	90601	keystroke_e	e	n/a
45.4055	0.105	90811	keystroke_Key.space	Key.space	n/a
45.5405	0.21	91081	keystroke_p	p	n/a
45.661	0.1495	91322	keystroke_o	o	n/a
45.7805	0.09	91561	keystroke_s	s	n/a
45.975	0.0605	91950	keystroke_t	t	n/a
46.1555	0.1205	92311	keystroke_a	a	n/a
46.2605	0.0905	92521	keystroke_g	g	n/a
46.3355	0.12	92671	keystroke_e	e	n/a
46.4255	0.12	92851	keystroke_Key.space	Key.space	n/a
46.5605	0.105	93121	keystroke_e	e	n/a
46.6505	0.0745	93301	keystroke_n	n	n/a
46.74	0.121	93480	keystroke_d	d	n/a
46.8455	0.09	93691	keystroke_i	i	n/a
46.9655	0.1195	93931	keystroke_n	n	n/a
47.056	0.09	94112	keystroke_g	g	n/a
47.161	0.119	94322	keystroke_Key.space	Key.space	n/a
47.265	0.105	94530	keystroke_b	b	n/a
47.431	0.1195	94862	keystroke_u	u	n/a
47.7005	0.12	95401	keystroke_d	d	n/a
47.8805	0.09	95761	keystroke_a	a	n/a
48.0005	0.12	96001	keystroke_p	p	n/a
48.1055	0.09	96211	keystroke_e	e	n/a
48.2705	0.075	96541	keystroke_s	s	n/a
48.4655	0.09	96931	keystroke_t	t	n/a
48.5855	0.105	97171	keystroke_Key.enter	Key.enter	n/a
48.7045	4.6675	97409	prompt	n/a	fifth lease group stockholm\n
49.2605	0.1055	98521	keystroke_f	f	n/a
49.3505	0.12	98701	keystroke_i	i	n/a
49.4855	0.0295	98971	keystroke_f	f	n/a
49.62	0.09	99240	keystroke_t	t	n/a
49.68	0.12	99360	keystroke_h	h	n/a
49.8155	0.1495	99631	keystroke_Key.space	Key.space	n/a
49.98	0.121	99960	keystroke_l	l	n/a
50.056	0.089	100112	keystroke_e	e	n/a
50.236	0.149	100472	keystroke_a	a	n/a
50.355	0.046	100710	keystroke_s	s	n/a
50.626	0.104	101252	keystroke_e	e	n/a
50.8055	0.12	101611	keystroke_Key.space	Key.space	n/a
50.955	0.1205	101910	keystroke_g	g	n/a
51.1955	0.09	102391	keystroke_r	r	n/a
51.2555	0.135	102511	keystroke_o	o	n/a
51.3755	0.12	102751	keystroke_u	u	n/a
51.5555	0.12	103111	keystroke_p	p	n/a
51.7055	0.135	103411	keystroke_Key.space	Key.space	n/a
51.8255	0.0755	103651	keystroke_s	s	n/a
51.991	0.1045	103982	keystroke_t	t	n/a
52.0655	0.1205	104131	keystroke_o	o	n/a
52.2305	0.12	104461	keystroke_c	c	n/a
52.3055	0.135	104611	keystroke_k	k	n/a
52.5605	0.0755	105121	keystroke_h	h	n/a
52.7405	0.0905	105481	keystroke_o	o	n/a
52.891	0.12	105782	keystroke_l	l	n/a
53.0705	0.1205	106141	keystroke_m	m	n/a
53.2505	0.1195	106501	keystroke_Key.enter	Key.enter	n/a
53.3775	4.8245	106755	prompt	n/a	totally podcast cuts charger\n
54.0315	0.1045	108063	keystroke_t	t	n/a
54.12	0.121	108240	keystroke_o	o	n/a
54.255	0.0755	108510	keystroke_t	t	n/a
54.435	0.121	108870	keystroke_a	a	n/a
54.5405	0.0755	109081	keystroke_l	l	n/a
54.7055	0.105	109411	keystroke_l	l	n/a
54.7955	0.09	109591	keystroke_y	y	n/a
54.8705	0.12	109741	keystroke_Key.space	Key.space	n/a
54.9755	0.225	109951	keystroke_p	p	n/a
55.1555	0.09	110311	keystroke_o	o	n/a
55.1705	0.045	110341	keystroke_d	d	n/a
55.606	0.089	111212	keystroke_c	c	n/a
55.8	0.091	111600	keystroke_a	a	n/a
56.025	0.12	112050	keystroke_s	s	n/a
56.265	0.075	112530	keystroke_t	t	n/a
56.355	0.106	112710	keystroke_Key.space	Key.space	n/a
56.491	0.089	112982	keystroke_c	c	n/a
56.581	0.105	113162	keystroke_u	u	n/a
56.7	0.1055	113400	keystroke_t	t	n/a
56.911	0.1045	113822	keystroke_s	s	n/a
57.06	0.135	114120	keystroke_Key.space	Key.space	n/a
57.301	0.075	114602	keystroke_c	c	n/a
57.4055	0.1195	114811	keystroke_h	h	n/a
57.481	0.074	114962	keystroke_a	a	n/a
57.6455	0.105	115291	keystroke_r	r	n/a
57.765	0.1205	115530	keystroke_g	g	n/a
57.8555	0.075	115711	keystroke_e	e	n/a
57.9605	0.105	115921	keystroke_r	r	n/a
58.0805	0.12	116161	keystroke_Key.enter	Key.enter	n/a
58.2065	8.216	116413	prompt	n/a	posing personal suggesting yellow\n
59.386	0.0895	118772	keystroke_o	o	n/a
60.2105	0.09	120421	keystroke_Key.backspace	Key.backspace	n/a
60.705	0.0455	121410	keystroke_p	p	n/a
60.81	0.1355	121620	keystroke_o	o	n/a
61.1105	0.0755	122221	keystroke_s	s	n/a
61.186	0.089	122372	keystroke_i	i	n/a
61.3955	0.0905	122791	keystroke_n	n	n/a
61.4705	0.075	122941	keystroke_g	g	n/a
61.5905	0.105	123181	keystroke_Key.space	Key.space	n/a
61.7105	0.12	123421	keystroke_p	p	n/a
61.8315	0.0585	123663	keystroke_e	e	n/a
61.936	0.075	123872	keystroke_r	r	n/a
62.1005	0.0905	124201	keystroke_s	s	n/a
62.2205	0.09	124441	keystroke_o	o	n/a
62.446	0.0895	124892	keystroke_n	n	n/a
62.656	0.1335	125312	keystroke_a	a	n/a
62.7445	0.09	125489	keystroke_l	l	n/a
62.88	0.1505	125760	keystroke_Key.space	Key.space	n/a
63.0455	0.18	126091	keystroke_s	s	n/a
63.1955	0.09	126391	keystroke_u	u	n/a
63.3605	0.0755	126721	keystroke_g	g	n/a
63.5405	0.06	127081	keystroke_g	g	n/a
63.6755	0.075	127351	keystroke_e	e	n/a
63.7955	0.105	127591	keystroke_s	s	n/a
63.9755	0.12	127951	keystroke_t	t	n/a
64.0655	0.075	128131	keystroke_i	i	n/a
64.2005	0.0895	128401	keystroke_n	n	n/a
64.3055	0.0455	128611	keystroke_g	g	n/a
64.365	0.0755	128730	keystroke_Key.space	Key.space	n/a
64.5605	0.1055	129121	keystroke_y	y	n/a
64.6805	0.0895	129361	keystroke_e	e	n/a
64.845	0.0755	129690	keystroke_k	k	n/a
65.0255	0.09	130051	keystroke_k	k	n/a
65.37	0.09	130740	keystroke_Key.backspace	Key.backspace	n/a
65.5355	0.0745	131071	keystroke_Key.backspace	Key.backspace	n/a
65.7455	0.0905	131491	keystroke_l	l	n/a
65.911	0.0745	131822	keystroke_l	l	n/a
66.0755	0.0755	132151	keystroke_o	o	n/a
66.2105	0.075	132421	keystroke_w	w	n/a
66.3155	0.105	132631	keystroke_Key.enter	Key.enter	n/a
66.4275	5.5295	132855	prompt	n/a	who'd've subject canal export\n
67.0355	0.12	134071	keystroke_w	w	n/a
67.0955	0.09	134191	keystroke_h	h	n/a
67.2455	0.12	134491	keystroke_o	o	n/a
67.711	0.1345	135422	keystroke_'	'	n/a
67.831	0.09	135662	keystroke_d	d	n/a
68.026	0.134	136052	keystroke_'	'	n/a
68.251	0.0595	136502	keystroke_v	v	n/a
68.43	0.1055	136860	keystroke_e	e	n/a
68.565	0.09	137130	keystroke_Key.space	Key.space	n/a
68.716	0.09	137432	keystroke_s	s	n/a
68.8515	0.104	137703	keystroke_u	u	n/a
69.0305	0.09	138061	keystroke_b	b	n/a
69.2405	0.105	138481	keystroke_j	j	n/a
69.3005	0.09	138601	keystroke_e	e	n/a
69.5105	0.09	139021	keystroke_c	c	n/a
69.735	0.1055	139470	keystroke_t	t	n/a
69.825	0.105	139650	keystroke_Key.space	Key.space	n/a
69.961	0.089	139922	keystroke_c	c	n/a
70.17	0.106	140340	keystroke_a	a	n/a
70.2905	0.1195	140581	keystroke_n	n	n/a
70.38	0.106	140760	keystroke_a	a	n/a
70.5605	0.09	141121	keystroke_l	l	n/a
70.7555	0.12	141511	keystroke_Key.space	Key.space	n/a
70.9355	0.1045	141871	keystroke_e	e	n/a
71.115	0.1505	142230	keystroke_x	x	n/a
71.2055	0.21	142411	keystroke_p	p	n/a
71.3255	0.165	142651	keystroke_o	o	n/a
71.476	0.1195	142952	keystroke_r	r	n/a
71.7005	0.105	143401	keystroke_t	t	n/a
71.8355	0.12	143671	keystroke_Key.enter	Key.enter	n/a
71.9625	5.0055	143925	prompt	n/a	formatting gilbert kate unusual\n
72.6005	0.1205	145201	keystroke_f	f	n/a
72.705	0.091	145410	keystroke_o	o	n/a
72.8105	0.105	145621	keystroke_r	r	n/a
72.901	0.12	145802	keystroke_m	m	n/a
73.036	0.09	146072	keystroke_a	a	n/a
73.231	0.09	146462	keystroke_t	t	n/a
73.411	0.09	146822	keystroke_t	t	n/a
73.486	0.075	146972	keystroke_i	i	n/a
73.606	0.1195	147212	keystroke_n	n	n/a
73.681	0.0745	147362	keystroke_g	g	n/a
73.8305	0.0895	147661	keystroke_Key.space	Key.space	n/a
73.905	0.105	147810	keystroke_g	g	n/a
73.996	0.0895	147992	keystroke_i	i	n/a
74.296	0.1045	148592	keystroke_l	l	n/a
74.581	0.12	149162	keystroke_b	b	n/a
74.6705	0.0745	149341	keystroke_e	e	n/a
74.79	0.105	149580	keystroke_r	r	n/a
74.97	0.106	149940	keystroke_t	t	n/a
75.045	0.1355	150090	keystroke_Key.space	Key.space	n/a
75.181	0.134	150362	keystroke_k	k	n/a
75.3	0.091	150600	keystroke_a	a	n/a
75.511	0.075	151022	keystroke_t	t	n/a
75.646	0.134	151292	keystroke_e	e	n/a
75.766	0.09	151532	keystroke_Key.space	Key.space	n/a
75.84	0.091	151680	keystroke_u	u	n/a
76.021	0.0745	152042	keystroke_n	n	n/a
76.1705	0.1055	152341	keystroke_u	u	n/a
76.291	0.105	152582	keystroke_s	s	n/a
76.411	0.0895	152822	keystroke_u	u	n/a
76.5455	0.12	153091	keystroke_a	a	n/a
76.6505	0.15	153301	keystroke_l	l	n/a
76.8455	0.12	153691	keystroke_Key.enter	Key.enter	n/a
76.9725	5.7855	153945	prompt	n/a	nick marketplace finder how'd\n
77.521	0.1045	155042	keystroke_n	n	n/a
77.7455	0.1205	155491	keystroke_i	i	n/a
77.8505	0.105	155701	keystroke_c	c	n/a
77.9705	0.12	155941	keystroke_k	k	n/a
78.1055	0.12	156211	keystroke_Key.space	Key.space	n/a
78.2405	0.15	156481	keystroke_m	m	n/a
78.3005	0.075	156601	keystroke_a	a	n/a
78.4955	0.09	156991	keystroke_r	r	n/a
78.856	0.149	157712	keystroke_k	k	n/a
78.991	0.105	157982	keystroke_e	e	n/a
79.17	0.076	158340	keystroke_t	t	n/a
79.261	0.104	158522	keystroke_p	p	n/a
79.4555	0.105	158911	keystroke_l	l	n/a
79.5455	0.075	159091	keystroke_a	a	n/a
79.726	0.0595	159452	keystroke_c	c	n/a
79.9055	0.105	159811	keystroke_e	e	n/a
79.9955	0.09	159991	keystroke_Key.space	Key.space	n/a
80.116	0.0895	160232	keystroke_f	f	n/a
80.1905	0.09	160381	keystroke_i	i	n/a
80.3255	0.15	160651	keystroke_n	n	n/a
80.4305	0.075	160861	keystroke_d	d	n/a
80.6255	0.105	161251	keystroke_e	e	n/a
80.7605	0.105	161521	keystroke_r	r	n/a
80.8805	0.09	161761	keystroke_Key.space	Key.space	n/a
81.0305	0.1055	162061	keystroke_h	h	n/a
81.225	0.09	162450	keystroke_w	w	n/a
81.6005	0.075	163201	keystroke_Key.backspace	Key.backspace	n/a
81.7355	0.1355	163471	keystroke_o	o	n/a
81.8555	0.0905	163711	keystroke_w	w	n/a
82.32	0.03	164640	keystroke_'	'	n/a
82.335	0.075	164670	keystroke_d	d	n/a
82.6805	0.075	165361	keystroke_Key.enter	Key.enter	n/a
82.7635	4.989	165527	prompt	n/a	talent employed immune lives\n
83.491	0.059	166982	keystroke_t	t	n/a
83.7155	0.12	167431	keystroke_a	a	n/a
83.8205	0.09	167641	keystroke_l	l	n/a
83.9405	0.075	167881	keystroke_e	e	n/a
84.0605	0.12	168121	keystroke_n	n	n/a
84.1355	0.105	168271	keystroke_t	t	n/a
84.2855	0.12	168571	keystroke_Key.space	Key.space	n/a
84.5855	0.09	169171	keystroke_e	e	n/a
84.6605	0.12	169321	keystroke_m	m	n/a
84.8705	0.075	169741	keystroke_p	p	n/a
85.051	0.09	170102	keystroke_l	l	n/a
85.2455	0.105	170491	keystroke_o	o	n/a
85.4555	0.12	170911	keystroke_y	y	n/a
85.5905	0.09	171181	keystroke_e	e	n/a
85.7855	0.09	171571	keystroke_d	d	n/a
85.8455	0.105	171691	keystroke_Key.space	Key.space	n/a
85.9955	0.06	171991	keystroke_i	i	n/a
86.1605	0.045	172321	keystroke_m	m	n/a
86.2955	0.0905	172591	keystroke_m	m	n/a
86.446	0.105	172892	keystroke_u	u	n/a
86.64	0.106	173280	keystroke_n	n	n/a
86.701	0.1345	173402	keystroke_e	e	n/a
86.8205	0.0895	173641	keystroke_Key.space	Key.space	n/a
86.956	0.075	173912	keystroke_l	l	n/a
87.1055	0.1355	174211	keystroke_i	i	n/a
87.1805	0.075	174361	keystroke_v	v	n/a
87.3305	0.105	174661	keystroke_e	e	n/a
87.5255	0.0905	175051	keystroke_s	s	n/a
87.6445	0.106	175289	keystroke_Key.enter	Key.enter	n/a
87.757	4.256	175514	prompt	n/a	stations resist font blah\n
88.335	0.091	176670	keystroke_s	s	n/a
88.576	0.075	177152	keystroke_t	t	n/a
88.815	0.061	177630	keystroke_a	a	n/a
89.0105	0.09	178021	keystroke_t	t	n/a
89.071	0.1345	178142	keystroke_i	i	n/a
89.1315	0.104	178263	keystroke_o	o	n/a
89.3405	0.0905	178681	keystroke_n	n	n/a
89.4005	0.105	178801	keystroke_s	s	n/a
89.6405	0.12	179281	keystroke_Key.space	Key.space	n/a
89.7455	0.105	179491	keystroke_r	r	n/a
89.8805	0.105	179761	keystroke_e	e	n/a
90.0455	0.12	180091	keystroke_s	s	n/a
90.1955	0.1355	180391	keystroke_i	i	n/a
90.316	0.0895	180632	keystroke_s	s	n/a
90.5105	0.105	181021	keystroke_t	t	n/a
90.6005	0.0905	181201	keystroke_Key.space	Key.space	n/a
90.796	0.06	181592	keystroke_f	f	n/a
90.8405	0.075	181681	keystroke_o	o	n/a
91.006	0.0895	182012	keystroke_n	n	n/a
91.0805	0.0905	182161	keystroke_t	t	n/a
91.215	0.091	182430	keystroke_Key.space	Key.space	n/a
91.321	0.075	182642	keystroke_b	b	n/a
91.5305	0.075	183061	keystroke_l	l	n/a
91.6355	0.09	183271	keystroke_a	a	n/a
91.7705	0.075	183541	keystroke_h	h	n/a
91.9205	0.09	183841	keystroke_Key.enter	Key.enter	n/a
92.0175	4.315	184035	prompt	n/a	magical pool regime catch\n
92.6255	0.1355	185251	keystroke_m	m	n/a
92.7755	0.0755	185551	keystroke_a	a	n/a
92.9555	0.1055	185911	keystroke_g	g	n/a
93.0305	0.105	186061	keystroke_i	i	n/a
93.211	0.0745	186422	keystroke_c	c	n/a
93.375	0.0905	186750	keystroke_a	a	n/a
93.435	0.105	186870	keystroke_l	l	n/a
93.555	0.12	187110	keystroke_Key.space	Key.space	n/a
93.78	0.0905	187560	keystroke_p	p	n/a
93.9755	0.045	187951	keystroke_o	o	n/a
94.0955	0.09	188191	keystroke_o	o	n/a
94.2905	0.09	188581	keystroke_l	l	n/a
94.4255	0.15	188851	keystroke_Key.space	Key.space	n/a
94.5305	0.105	189061	keystroke_r	r	n/a
94.6655	0.09	189331	keystroke_e	e	n/a
94.8155	0.09	189631	keystroke_g	g	n/a
94.8755	0.0905	189751	keystroke_i	i	n/a
95.086	0.105	190172	keystroke_m	m	n/a
95.176	0.0895	190352	keystroke_e	e	n/a
95.2805	0.105	190561	keystroke_Key.space	Key.space	n/a
95.4005	0.075	190801	keystroke_c	c	n/a
95.6105	0.045	191221	keystroke_a	a	n/a
95.7755	0.0895	191551	keystroke_t	t	n/a
95.9855	0.074	191971	keystroke_c	c	n/a
96.0755	0.075	192151	keystroke_h	h	n/a
96.2255	0.1055	192451	keystroke_Key.enter	Key.enter	n/a
96.337	7.9305	192674	prompt	n/a	notebooks recommends neighbors tractor\n
97.0955	0.105	194191	keystroke_n	n	n/a
97.35	0.1505	194700	keystroke_o	o	n/a
97.456	0.09	194912	keystroke_t	t	n/a
97.636	0.09	195272	keystroke_e	e	n/a
97.8005	0.0755	195601	keystroke_b	b	n/a
98.011	0.075	196022	keystroke_o	o	n/a
98.145	0.1355	196290	keystroke_o	o	n/a
98.265	0.135	196530	keystroke_k	k	n/a
98.415	0.0755	196830	keystroke_s	s	n/a
98.5205	0.1195	197041	keystroke_Key.space	Key.space	n/a
98.625	0.0755	197250	keystroke_r	r	n/a
98.73	0.1055	197460	keystroke_e	e	n/a
99.1505	0.1205	198301	keystroke_c	c	n/a
99.256	0.105	198512	keystroke_o	o	n/a
99.4505	0.1195	198901	keystroke_m	m	n/a
99.8405	0.0905	199681	keystroke_m	m	n/a
99.991	0.119	199982	keystroke_e	e	n/a
100.125	0.136	200250	keystroke_n	n	n/a
100.245	0.09	200490	keystroke_d	d	n/a
100.4105	0.09	200821	keystroke_s	s	n/a
100.485	0.105	200970	keystroke_Key.space	Key.space	n/a
100.68	0.1055	201360	keystroke_n	n	n/a
100.771	0.089	201542	keystroke_e	e	n/a
101.025	0.12	202050	keystroke_i	i	n/a
101.191	0.104	202382	keystroke_g	g	n/a
101.31	0.1205	202620	keystroke_h	h	n/a
101.6105	0.075	203221	keystroke_b	b	n/a
101.821	0.09	203642	keystroke_o	o	n/a
101.941	0.059	203882	keystroke_r	r	n/a
102.1655	0.075	204331	keystroke_d	d	n/a
102.5555	0.0895	205111	keystroke_Key.backspace	Key.backspace	n/a
102.6755	0.1205	205351	keystroke_s	s	n/a
102.825	0.136	205650	keystroke_Key.space	Key.space	n/a
103.1105	0.09	206221	keystroke_t	t	n/a
103.2605	0.0895	206521	keystroke_r	r	n/a
103.425	0.106	206850	keystroke_a	a	n/a
103.606	0.06	207212	keystroke_c	c	n/a
103.771	0.12	207542	keystroke_t	t	n/a
103.86	0.12	207720	keystroke_o	o	n/a
103.981	0.09	207962	keystroke_r	r	n/a
104.1155	0.15	208231	keystroke_Key.enter	Key.enter	n/a
104.2755	5.6465	208551	prompt	n/a	constraints momentum newer expected\n
104.866	0.105	209732	keystroke_c	c	n/a
105.0155	0.09	210031	keystroke_o	o	n/a
105.1955	0.1355	210391	keystroke_n	n	n/a
105.316	0.0895	210632	keystroke_s	s	n/a
105.5105	0.09	211021	keystroke_t	t	n/a
105.6455	0.075	211291	keystroke_r	r	n/a
105.8255	0.075	211651	keystroke_a	a	n/a
105.9005	0.075	211801	keystroke_i	i	n/a
106.0055	0.165	212011	keystroke_n	n	n/a
106.0955	0.09	212191	keystroke_t	t	n/a
106.2905	0.105	212581	keystroke_s	s	n/a
106.3805	0.12	212761	keystroke_Key.space	Key.space	n/a
106.4555	0.09	212911	keystroke_m	m	n/a
106.6205	0.075	213241	keystroke_o	o	n/a
106.7405	0.12	213481	keystroke_m	m	n/a
106.8615	0.104	213723	keystroke_e	e	n/a
106.9805	0.1205	213961	keystroke_n	n	n/a
107.116	0.1045	214232	keystroke_t	t	n/a
107.2355	0.1055	214471	keystroke_u	u	n/a
107.4305	0.105	214861	keystroke_m	m	n/a
107.5655	0.105	215131	keystroke_Key.space	Key.space	n/a
107.6855	0.12	215371	keystroke_n	n	n/a
107.7605	0.105	215521	keystroke_e	e	n/a
107.9105	0.105	215821	keystroke_w	w	n/a
108.0605	0.12	216121	keystroke_e	e	n/a
108.211	0.119	216422	keystroke_r	r	n/a
108.3915	0.119	216783	keystroke_Key.space	Key.space	n/a
108.5255	0.1045	217051	keystroke_e	e	n/a
108.751	0.074	217502	keystroke_x	x	n/a
108.811	0.0895	217622	keystroke_p	p	n/a
108.946	0.104	217892	keystroke_e	e	n/a
109.155	0.076	218310	keystroke_c	c	n/a
109.3655	0.1055	218731	keystroke_t	t	n/a
109.516	0.1045	219032	keystroke_e	e	n/a
109.6505	0.1355	219301	keystroke_d	d	n/a
109.815	0.105	219630	keystroke_Key.enter	Key.enter	n/a
109.9255	5.472	219851	prompt	n/a	claim arrival mirrors bennett\n
110.5955	0.09	221191	keystroke_c	c	n/a
110.6855	0.1055	221371	keystroke_l	l	n/a
110.8205	0.1195	221641	keystroke_a	a	n/a
110.955	0.0455	221910	keystroke_i	i	n/a
111.1355	0.09	222271	keystroke_m	m	n/a
111.2705	0.12	222541	keystroke_Key.space	Key.space	n/a
111.421	0.119	222842	keystroke_a	a	n/a
111.661	0.195	223322	keystroke_r	r	n/a
112.186	0.104	224372	keystroke_r	r	n/a
112.3055	0.1055	224611	keystroke_i	i	n/a
112.425	0.106	224850	keystroke_v	v	n/a
112.6355	0.1195	225271	keystroke_a	a	n/a
112.71	0.09	225420	keystroke_l	l	n/a
112.815	0.12	225630	keystroke_Key.space	Key.space	n/a
112.951	0.0595	225902	keystroke_m	m	n/a
113.1305	0.12	226261	keystroke_i	i	n/a
113.206	0.0895	226412	keystroke_r	r	n/a
113.3705	0.105	226741	keystroke_r	r	n/a
113.4455	0.105	226891	keystroke_o	o	n/a
113.791	0.1045	227582	keystroke_r	r	n/a
114.0005	0.104	228001	keystroke_s	s	n/a
114.0755	0.1045	228151	keystroke_Key.space	Key.space	n/a
114.1955	0.135	228391	keystroke_b	b	n/a
114.301	0.1045	228602	keystroke_e	e	n/a
114.4815	0.119	228963	keystroke_n	n	n/a
114.6905	0.09	229381	keystroke_n	n	n/a
114.7955	0.105	229591	keystroke_e	e	n/a
115.081	0.014	230162	keystroke_t	t	n/a
115.14	0.106	230280	keystroke_t	t	n/a
115.2905	0.1045	230581	keystroke_Key.enter	Key.enter	n/a
115.402	4.405	230804	prompt	n/a	audio word diseases laden\n
116.116	0.0595	232232	keystroke_a	a	n/a
116.1905	0.105	232381	keystroke_u	u	n/a
116.3405	0.1495	232681	keystroke_d	d	n/a
116.4455	0.225	232891	keystroke_i	i	n/a
116.566	0.119	233132	keystroke_o	o	n/a
116.73	0.1355	233460	keystroke_Key.space	Key.space	n/a
116.8205	0.1195	233641	keystroke_w	w	n/a
116.9255	0.1055	233851	keystroke_o	o	n/a
117	0.0755	234000	keystroke_r	r	n/a
117.1655	0.12	234331	keystroke_d	d	n/a
117.2705	0.12	234541	keystroke_Key.space	Key.space	n/a
117.4055	0.0755	234811	keystroke_d	d	n/a
117.466	0.134	234932	keystroke_i	i	n/a
117.646	0.06	235292	keystroke_s	s	n/a
117.781	0.09	235562	keystroke_e	e	n/a
117.975	0.106	235950	keystroke_a	a	n/a
118.4855	0.09	236971	keystroke_s	s	n/a
118.6355	0.09	237271	keystroke_e	e	n/a
118.8455	0.06	237691	keystroke_s	s	n/a
118.8755	0.105	237751	keystroke_Key.space	Key.space	n/a
119.0105	0.105	238021	keystroke_l	l	n/a
119.1155	0.0755	238231	keystroke_a	a	n/a
119.2505	0.09	238501	keystroke_d	d	n/a
119.4305	0.075	238861	keystroke_e	e	n/a
119.5215	0.104	239043	keystroke_n	n	n/a
119.7155	0.09	239431	keystroke_Key.enter	Key.enter	n/a
119.811	4.9185	239622	prompt	n/a	refuse unexpected general shoe\n
120.4655	0.105	240931	keystroke_r	r	n/a
120.6005	0.09	241201	keystroke_e	e	n/a
120.8105	0.1055	241621	keystroke_f	f	n/a
120.93	0.091	241860	keystroke_u	u	n/a
121.096	0.0895	242192	keystroke_s	s	n/a
121.245	0.136	242490	keystroke_e	e	n/a
121.3355	0.1345	242671	keystroke_Key.space	Key.space	n/a
121.485	0.075	242970	keystroke_u	u	n/a
121.6505	0.0895	243301	keystroke_n	n	n/a
121.7705	0.1045	243541	keystroke_e	e	n/a
121.9955	0.0745	243991	keystroke_x	x	n/a
122.055	0.09	244110	keystroke_p	p	n/a
122.205	0.105	244410	keystroke_e	e	n/a
122.415	0.091	244830	keystroke_c	c	n/a
122.4905	0.1205	244981	keystroke_t	t	n/a
122.6405	0.09	245281	keystroke_e	e	n/a
122.791	0.104	245582	keystroke_d	d	n/a
122.835	0.135	245670	keystroke_Key.space	Key.space	n/a
123.075	0.0755	246150	keystroke_g	g	n/a
123.346	0.09	246692	keystroke_e	e	n/a
123.451	0.104	246902	keystroke_n	n	n/a
123.541	0.09	247082	keystroke_e	e	n/a
123.645	0.1055	247290	keystroke_r	r	n/a
123.855	0.1055	247710	keystroke_a	a	n/a
123.946	0.1045	247892	keystroke_l	l	n/a
124.065	0.12	248130	keystroke_Key.space	Key.space	n/a
124.155	0.0905	248310	keystroke_s	s	n/a
124.2305	0.09	248461	keystroke_h	h	n/a
124.3955	0.09	248791	keystroke_o	o	n/a
124.4855	0.12	248971	keystroke_e	e	n/a
124.606	0.119	249212	keystroke_Key.enter	Key.enter	n/a
124.7345	7.898	249469	prompt	n/a	lauderdale confidential costumes walk\n
125.4005	0.12	250801	keystroke_l	l	n/a
125.476	0.1045	250952	keystroke_a	a	n/a
125.6105	0.1205	251221	keystroke_u	u	n/a
125.9705	0.075	251941	keystroke_d	d	n/a
126.1505	0.075	252301	keystroke_e	e	n/a
126.2555	0.105	252511	keystroke_r	r	n/a
126.556	0.09	253112	keystroke_d	d	n/a
126.765	0.09	253530	keystroke_a	a	n/a
126.8405	0.0895	253681	keystroke_l	l	n/a
126.96	0.106	253920	keystroke_e	e	n/a
127.081	0.105	254162	keystroke_Key.space	Key.space	n/a
127.2455	0.1055	254491	keystroke_c	c	n/a
127.321	0.075	254642	keystroke_o	o	n/a
127.5005	0.0905	255001	keystroke_n	n	n/a
127.65	0.091	255300	keystroke_f	f	n/a
127.846	0.1045	255692	keystroke_i	i	n/a
128.0415	0.104	256083	keystroke_t	t	n/a
128.1605	0.105	256321	keystroke_i	i	n/a
128.5355	0.06	257071	keystroke_Key.backspace	Key.backspace	n/a
128.7005	0.0745	257401	keystroke_Key.backspace	Key.backspace	n/a
129.345	0.0905	258690	keystroke_d	d	n/a
129.5405	0.105	259081	keystroke_e	e	n/a
129.6005	0.09	259201	keystroke_n	n	n/a
129.751	0.1045	259502	keystroke_t	t	n/a
129.8855	0.09	259771	keystroke_i	i	n/a
130.0205	0.12	260041	keystroke_a	a	n/a
130.126	0.075	260252	keystroke_l	l	n/a
130.2605	0.105	260521	keystroke_Key.space	Key.space	n/a
130.6805	0.09	261361	keystroke_c	c	n/a
130.7555	0.09	261511	keystroke_o	o	n/a
131.1155	0.0455	262231	keystroke_s	s	n/a
131.2355	0.105	262471	keystroke_t	t	n/a
131.2965	0.059	262593	keystroke_u	u	n/a
131.476	0.1045	262952	keystroke_m	m	n/a
131.5055	0.105	263011	keystroke_e	e	n/a
131.6705	0.1055	263341	keystroke_s	s	n/a
131.7905	0.1205	263581	keystroke_Key.space	Key.space	n/a
131.956	0.1045	263912	keystroke_w	w	n/a
132.1655	0.0905	264331	keystroke_a	a	n/a
132.2255	0.2555	264451	keystroke_l	l	n/a
132.3455	0.12	264691	keystroke_k	k	n/a
132.5255	0.105	265051	keystroke_Key.enter	Key.enter	n/a
132.637	5.02	265274	prompt	n/a	birds black charles nightlife\n
133.3355	0.1055	266671	keystroke_b	b	n/a
133.501	0.119	267002	keystroke_i	i	n/a
133.605	0.0905	267210	keystroke_r	r	n/a
133.786	0.1045	267572	keystroke_d	d	n/a
133.95	0.106	267900	keystroke_s	s	n/a
134.01	0.105	268020	keystroke_Key.space	Key.space	n/a
134.146	0.0745	268292	keystroke_b	b	n/a
134.355	0.12	268710	keystroke_l	l	n/a
134.431	0.0895	268862	keystroke_a	a	n/a
134.6105	0.09	269221	keystroke_c	c	n/a
134.6855	0.1345	269371	keystroke_k	k	n/a
134.8805	0.1195	269761	keystroke_Key.space	Key.space	n/a
134.985	0.075	269970	keystroke_c	c	n/a
135.075	0.135	270150	keystroke_h	h	n/a
135.1805	0.09	270361	keystroke_a	a	n/a
135.3905	0.0755	270781	keystroke_r	r	n/a
135.5105	0.1955	271021	keystroke_l	l	n/a
135.6605	0.0905	271321	keystroke_e	e	n/a
135.8245	0.091	271649	keystroke_s	s	n/a
135.9295	0.105	271859	keystroke_Key.space	Key.space	n/a
135.991	0.1345	271982	keystroke_n	n	n/a
136.1405	0.1205	272281	keystroke_i	i	n/a
136.246	0.1045	272492	keystroke_g	g	n/a
136.3355	0.105	272671	keystroke_h	h	n/a
136.4405	0.12	272881	keystroke_t	t	n/a
136.6205	0.105	273241	keystroke_l	l	n/a
136.786	0.1045	273572	keystroke_i	i	n/a
137.2955	0.1045	274591	keystroke_f	f	n/a
137.461	0.104	274922	keystroke_e	e	n/a
137.5355	0.1195	275071	keystroke_Key.enter	Key.enter	n/a
137.6605	4.8715	275321	prompt	n/a	springs find something sensors\n
138.405	0.1055	276810	keystroke_s	s	n/a
138.495	0.1055	276990	keystroke_p	p	n/a
138.645	0.0905	277290	keystroke_r	r	n/a
138.705	0.1055	277410	keystroke_i	i	n/a
138.855	0.136	277710	keystroke_n	n	n/a
138.946	0.0595	277892	keystroke_g	g	n/a
139.08	0.0905	278160	keystroke_s	s	n/a
139.155	0.12	278310	keystroke_Key.space	Key.space	n/a
139.29	0.09	278580	keystroke_f	f	n/a
139.366	0.089	278732	keystroke_i	i	n/a
139.501	0.135	279002	keystroke_n	n	n/a
139.605	0.09	279210	keystroke_d	d	n/a
139.755	0.105	279510	keystroke_Key.space	Key.space	n/a
139.9055	0.105	279811	keystroke_s	s	n/a
140.026	0.045	280052	keystroke_o	o	n/a
140.251	0.105	280502	keystroke_m	m	n/a
140.266	0.06	280532	keystroke_e	e	n/a
140.91	0.0905	281820	keystroke_t	t	n/a
140.9705	0.105	281941	keystroke_h	h	n/a
141.1205	0.0905	282241	keystroke_i	i	n/a
141.2555	0.135	282511	keystroke_n	n	n/a
141.361	0.0895	282722	keystroke_g	g	n/a
141.4655	0.1045	282931	keystroke_Key.space	Key.space	n/a
141.5555	0.0755	283111	keystroke_s	s	n/a
141.7055	0.1195	283411	keystroke_e	e	n/a
141.811	0.135	283622	keystroke_n	n	n/a
141.931	0.104	283862	keystroke_s	s	n/a
142.095	0.105	284190	keystroke_o	o	n/a
142.1555	0.09	284311	keystroke_r	r	n/a
142.351	0.09	284702	keystroke_s	s	n/a
142.425	0.1055	284850	keystroke_Key.enter	Key.enter	n/a
142.5375	6.25	285075	prompt	n/a	enzyme narrow assisted thinking\n
143.1905	0.075	286381	keystroke_e	e	n/a
143.6855	0.09	287371	keystroke_n	n	n/a
143.82	0.0905	287640	keystroke_x	x	n/a
144.255	0.076	288510	keystroke_Key.backspace	Key.backspace	n/a
144.3905	0.105	288781	keystroke_z	z	n/a
144.4805	0.105	288961	keystroke_y	y	n/a
144.7355	0.15	289471	keystroke_m	m	n/a
144.8555	0.12	289711	keystroke_e	e	n/a
144.9905	0.0905	289981	keystroke_Key.space	Key.space	n/a
145.096	0.104	290192	keystroke_n	n	n/a
145.23	0.106	290460	keystroke_a	a	n/a
145.44	0.046	290880	keystroke_r	r	n/a
145.576	0.0595	291152	keystroke_r	r	n/a
145.6205	0.1795	291241	keystroke_o	o	n/a
145.8155	0.0745	291631	keystroke_w	w	n/a
145.92	0.135	291840	keystroke_Key.space	Key.space	n/a
146.235	0.106	292470	keystroke_a	a	n/a
146.416	0.0895	292832	keystroke_s	s	n/a
146.581	0.104	293162	keystroke_s	s	n/a
146.7005	0.1055	293401	keystroke_i	i	n/a
146.806	0.089	293612	keystroke_s	s	n/a
147.03	0.0905	294060	keystroke_t	t	n/a
147.21	0.075	294420	keystroke_e	e	n/a
147.3605	0.0895	294721	keystroke_d	d	n/a
147.465	0.105	294930	keystroke_Key.space	Key.space	n/a
147.571	0.089	295142	keystroke_t	t	n/a
147.705	0.1055	295410	keystroke_h	h	n/a
147.8555	0.09	295711	keystroke_i	i	n/a
147.9605	0.1045	295921	keystroke_n	n	n/a
148.125	0.0755	296250	keystroke_k	k	n/a
148.306	0.089	296612	keystroke_i	i	n/a
148.4405	0.12	296881	keystroke_n	n	n/a
148.575	0.075	297150	keystroke_g	g	n/a
148.68	0.105	297360	keystroke_Key.enter	Key.enter	n/a
148.793	5.604	297586	prompt	n/a	iron lives included brochures\n
149.445	0.1205	298890	keystroke_i	i	n/a
149.536	0.089	299072	keystroke_r	r	n/a
149.6705	0.075	299341	keystroke_o	o	n/a
149.8205	0.105	299641	keystroke_n	n	n/a
149.9105	0.135	299821	keystroke_Key.space	Key.space	n/a
150.0605	0.105	300121	keystroke_l	l	n/a
150.241	0.135	300482	keystroke_i	i	n/a
150.33	0.091	300660	keystroke_v	v	n/a
150.555	0.061	301110	keystroke_e	e	n/a
150.7205	0.1045	301441	keystroke_s	s	n/a
150.7955	0.09	301591	keystroke_Key.space	Key.space	n/a
150.87	0.0905	301740	keystroke_i	i	n/a
151.021	0.104	302042	keystroke_n	n	n/a
151.111	0.0595	302222	keystroke_c	c	n/a
151.276	0.0745	302552	keystroke_l	l	n/a
151.4105	0.1355	302821	keystroke_u	u	n/a
151.5	0.0905	303000	keystroke_d	d	n/a
151.7105	0.09	303421	keystroke_e	e	n/a
151.876	0.0895	303752	keystroke_d	d	n/a
151.9355	0.12	303871	keystroke_Key.space	Key.space	n/a
152.0555	0.105	304111	keystroke_b	b	n/a
152.1755	0.091	304351	keystroke_r	r	n/a
152.2955	0.105	304591	keystroke_o	o	n/a
152.5355	0.12	305071	keystroke_c	c	n/a
152.67	0.12	305340	keystroke_h	h	n/a
152.791	0.09	305582	keystroke_e	e	n/a
153.2855	0.0745	306571	keystroke_Key.backspace	Key.backspace	n/a
153.4805	0.1195	306961	keystroke_u	u	n/a
153.57	0.09	307140	keystroke_r	r	n/a
153.705	0.121	307410	keystroke_e	e	n/a
154.0805	0.0905	308161	keystroke_s	s	n/a
154.245	0.15	308490	keystroke_Key.enter	Key.enter	n/a
154.4015	6.146	308803	prompt	n/a	increase fairly were entering\n
155.0705	0.09	310141	keystroke_i	i	n/a
155.236	0.135	310472	keystroke_n	n	n/a
155.3105	0.105	310621	keystroke_c	c	n/a
155.535	0.1055	311070	keystroke_r	r	n/a
155.7005	0.075	311401	keystroke_e	e	n/a
155.851	0.1795	311702	keystroke_a	a	n/a
156.016	0.06	312032	keystroke_s	s	n/a
156.1805	0.0905	312361	keystroke_e	e	n/a
156.54	0.12	313080	keystroke_Key.space	Key.space	n/a
156.765	0.0905	313530	keystroke_f	f	n/a
157.0505	0.015	314101	keystroke_a	a	n/a
157.0805	0.045	314161	keystroke_i	i	n/a
157.7105	0.1195	315421	keystroke_r	r	n/a
158.011	0.03	316022	keystroke_l	l	n/a
158.026	0.089	316052	keystroke_y	y	n/a
158.1605	0.1195	316321	keystroke_Key.space	Key.space	n/a
158.566	0.09	317132	keystroke_w	w	n/a
158.716	0.09	317432	keystroke_e	e	n/a
158.836	0.12	317672	keystroke_r	r	n/a
159	0.105	318000	keystroke_e	e	n/a
159.151	0.1495	318302	keystroke_Key.space	Key.space	n/a
159.315	0.151	318630	keystroke_e	e	n/a
159.48	0.15	318960	keystroke_n	n	n/a
159.5705	0.1045	319141	keystroke_t	t	n/a
159.795	0.075	319590	keystroke_e	e	n/a
159.8855	0.1205	319771	keystroke_r	r	n/a
160.036	0.1045	320072	keystroke_i	i	n/a
160.2155	0.105	320431	keystroke_n	n	n/a
160.2755	0.105	320551	keystroke_g	g	n/a
160.441	0.1045	320882	keystroke_Key.enter	Key.enter	n/a
160.5525	4.7045	321105	prompt	n/a	edges his head appearance\n
161.2205	0.09	322441	keystroke_e	e	n/a
161.3405	0.0605	322681	keystroke_d	d	n/a
161.536	0.0895	323072	keystroke_g	g	n/a
161.731	0.1045	323462	keystroke_e	e	n/a
161.9405	0.105	323881	keystroke_s	s	n/a
162.0305	0.12	324061	keystroke_Key.space	Key.space	n/a
162.1355	0.12	324271	keystroke_h	h	n/a
162.2705	0.12	324541	keystroke_i	i	n/a
162.3455	0.09	324691	keystroke_s	s	n/a
162.5105	0.105	325021	keystroke_Key.space	Key.space	n/a
162.6455	0.165	325291	keystroke_h	h	n/a
162.7205	0.12	325441	keystroke_e	e	n/a
162.9455	0.09	325891	keystroke_a	a	n/a
163.095	0.1355	326190	keystroke_d	d	n/a
163.2005	0.105	326401	keystroke_Key.space	Key.space	n/a
163.3355	0.105	326671	keystroke_a	a	n/a
163.4405	0.075	326881	keystroke_p	p	n/a
163.6055	0.0905	327211	keystroke_p	p	n/a
163.8755	0.105	327751	keystroke_e	e	n/a
164.1155	0.045	328231	keystroke_a	a	n/a
164.2805	0.075	328561	keystroke_r	r	n/a
164.4605	0.09	328921	keystroke_a	a	n/a
164.5655	0.12	329131	keystroke_n	n	n/a
164.6865	0.0885	329373	keystroke_c	c	n/a
164.94	0.0455	329880	keystroke_e	e	n/a
165.1505	0.105	330301	keystroke_Key.enter	Key.enter	n/a
165.2625	6.22	330525	prompt	n/a	danish webpage contrast gratis\n
165.9155	0.1505	331831	keystroke_d	d	n/a
166.08	0.075	332160	keystroke_a	a	n/a
166.125	0.105	332250	keystroke_n	n	n/a
166.395	0.06	332790	keystroke_i	i	n/a
166.4705	0.105	332941	keystroke_s	s	n/a
166.7105	0.1505	333421	keystroke_h	h	n/a
166.935	0.15	333870	keystroke_Key.space	Key.space	n/a
167.13	0.106	334260	keystroke_w	w	n/a
167.2655	0.1645	334531	keystroke_e	e	n/a
167.37	0.1205	334740	keystroke_b	b	n/a
167.5805	0.12	335161	keystroke_p	p	n/a
167.6845	0.061	335369	keystroke_a	a	n/a
167.9405	0.105	335881	keystroke_g	g	n/a
168.0305	0.105	336061	keystroke_e	e	n/a
168.1495	0.121	336299	keystroke_Key.space	Key.space	n/a
168.2855	0.1045	336571	keystroke_c	c	n/a
168.3755	0.0745	336751	keystroke_o	o	n/a
168.526	0.1795	337052	keystroke_n	n	n/a
169.0955	0.09	338191	keystroke_t	t	n/a
169.2305	0.12	338461	keystroke_r	r	n/a
169.47	0.0905	338940	keystroke_a	a	n/a
169.71	0.105	339420	keystroke_s	s	n/a
169.965	0.075	339930	keystroke_t	t	n/a
170.055	0.1355	340110	keystroke_Key.space	Key.space	n/a
170.206	0.1195	340412	keystroke_g	g	n/a
170.4605	0.09	340921	keystroke_r	r	n/a
170.7155	0.105	341431	keystroke_a	a	n/a
170.94	0.1045	341880	keystroke_t	t	n/a
171.0905	0.12	342181	keystroke_i	i	n/a
171.2255	0.09	342451	keystroke_s	s	n/a
171.3455	0.135	342691	keystroke_Key.enter	Key.enter	n/a
171.4865	5.696	342973	prompt	n/a	handed don't appendix enquiries\n
172.111	0.119	344222	keystroke_h	h	n/a
172.2155	0.12	344431	keystroke_a	a	n/a
172.336	0.149	344672	keystroke_n	n	n/a
172.426	0.104	344852	keystroke_d	d	n/a
172.605	0.1055	345210	keystroke_e	e	n/a
172.8155	0.105	345631	keystroke_d	d	n/a
172.8905	0.105	345781	keystroke_Key.space	Key.space	n/a
173.04	0.09	346080	keystroke_d	d	n/a
173.086	0.179	346172	keystroke_o	o	n/a
173.3105	0.105	346621	keystroke_n	n	n/a
173.6405	0.105	347281	keystroke_'	'	n/a
174.0155	0.12	348031	keystroke_t	t	n/a
174.1205	0.12	348241	keystroke_Key.space	Key.space	n/a
174.2705	0.12	348541	keystroke_a	a	n/a
174.3605	0.09	348721	keystroke_p	p	n/a
174.5555	0.075	349111	keystroke_p	p	n/a
174.6605	0.105	349321	keystroke_e	e	n/a
174.7805	0.105	349561	keystroke_n	n	n/a
174.9005	0.09	349801	keystroke_d	d	n/a
175.0055	0.09	350011	keystroke_i	i	n/a
175.2155	0.105	350431	keystroke_x	x	n/a
175.3355	0.105	350671	keystroke_Key.space	Key.space	n/a
175.4555	0.135	350911	keystroke_e	e	n/a
175.5755	0.105	351151	keystroke_n	n	n/a
175.8755	0.09	351751	keystroke_q	q	n/a
175.9955	0.18	351991	keystroke_u	u	n/a
176.0855	0.165	352171	keystroke_i	i	n/a
176.22	0.12	352440	keystroke_r	r	n/a
176.3555	0.1195	352711	keystroke_i	i	n/a
176.7755	0.09	353551	keystroke_e	e	n/a
176.97	0.105	353940	keystroke_s	s	n/a
177.09	0.09	354180	keystroke_Key.enter	Key.enter	n/a
177.185	8.2925	354370	prompt	n/a	gamma queries forecast financial\n
177.87	0.09	355740	keystroke_g	g	n/a
178.0955	0.09	356191	keystroke_a	a	n/a
178.215	0.0905	356430	keystroke_m	m	n/a
178.4105	0.119	356821	keystroke_m	m	n/a
178.5145	0.105	357029	keystroke_a	a	n/a
178.68	0.1195	357360	keystroke_Key.space	Key.space	n/a
179.28	0.0905	358560	keystroke_q	q	n/a
179.6105	0.105	359221	keystroke_u	u	n/a
179.7005	0.1045	359401	keystroke_e	e	n/a
179.88	0.075	359760	keystroke_s	s	n/a
180.24	0.09	360480	keystroke_r	r	n/a
180.36	0.12	360720	keystroke_i	i	n/a
180.9155	0.0595	361831	keystroke_Key.backspace	Key.backspace	n/a
181.0655	0.0895	362131	keystroke_Key.backspace	Key.backspace	n/a
181.2905	0.1045	362581	keystroke_r	r	n/a
181.41	0.0905	362820	keystroke_i	i	n/a
181.665	0.0905	363330	keystroke_Key.backspace	Key.backspace	n/a
181.8595	0.045	363719	keystroke_Key.backspace	Key.backspace	n/a
181.9805	0.09	363961	keystroke_Key.backspace	Key.backspace	n/a
182.1005	0.135	364201	keystroke_r	r	n/a
182.2205	0.12	364441	keystroke_i	i	n/a
182.3705	0.1195	364741	keystroke_e	e	n/a
182.5805	0.105	365161	keystroke_s	s	n/a
182.655	0.1205	365310	keystroke_Key.space	Key.space	n/a
182.97	0.105	365940	keystroke_f	f	n/a
183.031	0.104	366062	keystroke_o	o	n/a
183.12	0.0905	366240	keystroke_r	r	n/a
183.301	0.089	366602	keystroke_e	e	n/a
183.5105	0.0595	367021	keystroke_c	c	n/a
183.69	0.1345	367380	keystroke_a	a	n/a
183.8255	0.0895	367651	keystroke_s	s	n/a
184.066	0.0895	368132	keystroke_t	t	n/a
184.1395	0.105	368279	keystroke_Key.space	Key.space	n/a
184.29	0.1055	368580	keystroke_f	f	n/a
184.3655	0.0755	368731	keystroke_i	i	n/a
184.5155	0.089	369031	keystroke_n	n	n/a
184.636	0.0895	369272	keystroke_a	a	n/a
184.6945	0.0765	369389	keystroke_n	n	n/a
184.845	0.1055	369690	keystroke_c	c	n/a
184.9805	0.105	369961	keystroke_i	i	n/a
185.1005	0.0895	370201	keystroke_a	a	n/a
185.22	0.106	370440	keystroke_l	l	n/a
185.3705	0.1045	370741	keystroke_Key.enter	Key.enter	n/a
185.482	4.75	370964	prompt	n/a	crawford valid throughout urge\n
186.181	0.104	372362	keystroke_c	c	n/a
186.405	0.0905	372810	keystroke_r	r	n/a
186.6155	0.09	373231	keystroke_a	a	n/a
186.7655	0.09	373531	keystroke_w	w	n/a
186.9605	0.12	373921	keystroke_f	f	n/a
187.0505	0.12	374101	keystroke_o	o	n/a
187.1715	0.0885	374343	keystroke_r	r	n/a
187.3655	0.0745	374731	keystroke_d	d	n/a
187.4255	0.151	374851	keystroke_Key.space	Key.space	n/a
187.6055	0.075	375211	keystroke_v	v	n/a
187.7855	0.105	375571	keystroke_a	a	n/a
187.8455	0.0895	375691	keystroke_l	l	n/a
187.9955	0.12	375991	keystroke_i	i	n/a
188.07	0.0905	376140	keystroke_d	d	n/a
188.22	0.105	376440	keystroke_Key.space	Key.space	n/a
188.31	0.121	376620	keystroke_t	t	n/a
188.415	0.105	376830	keystroke_h	h	n/a
188.535	0.09	377070	keystroke_r	r	n/a
188.61	0.12	377220	keystroke_o	o	n/a
188.745	0.1055	377490	keystroke_u	u	n/a
188.88	0.09	377760	keystroke_g	g	n/a
188.9555	0.0895	377911	keystroke_h	h	n/a
189.105	0.121	378210	keystroke_o	o	n/a
189.2105	0.105	378421	keystroke_u	u	n/a
189.3155	0.105	378631	keystroke_t	t	n/a
189.4355	0.105	378871	keystroke_Key.space	Key.space	n/a
189.5555	0.105	379111	keystroke_u	u	n/a
189.7655	0.105	379531	keystroke_r	r	n/a
189.885	0.105	379770	keystroke_g	g	n/a
190.005	0.09	380010	keystroke_e	e	n/a
190.1405	0.09	380281	keystroke_Key.enter	Key.enter	n/a
190.2375	4.4795	380475	prompt	n/a	cost knows costumes wherever\n
190.8755	0.06	381751	keystroke_c	c	n/a
190.9505	0.1345	381901	keystroke_o	o	n/a
191.1	0.121	382200	keystroke_s	s	n/a
191.34	0.0905	382680	keystroke_t	t	n/a
191.4	0.1055	382800	keystroke_Key.space	Key.space	n/a
191.4755	0.149	382951	keystroke_k	k	n/a
191.6095	0.0905	383219	keystroke_n	n	n/a
191.7605	0.089	383521	keystroke_o	o	n/a
191.836	0.0895	383672	keystroke_w	w	n/a
191.985	0.1205	383970	keystroke_s	s	n/a
192.0905	0.09	384181	keystroke_Key.space	Key.space	n/a
192.4355	0.09	384871	keystroke_c	c	n/a
192.5105	0.105	385021	keystroke_o	o	n/a
192.646	0.0745	385292	keystroke_s	s	n/a
192.8105	0.105	385621	keystroke_t	t	n/a
192.8855	0.0745	385771	keystroke_u	u	n/a
193.065	0.135	386130	keystroke_m	m	n/a
193.11	0.105	386220	keystroke_e	e	n/a
193.3205	0.0905	386641	keystroke_s	s	n/a
193.3955	0.075	386791	keystroke_Key.space	Key.space	n/a
193.531	0.1045	387062	keystroke_w	w	n/a
193.6205	0.12	387241	keystroke_h	h	n/a
193.7255	0.075	387451	keystroke_e	e	n/a
193.8755	0.12	387751	keystroke_r	r	n/a
194.0105	0.105	388021	keystroke_e	e	n/a
194.1905	0.135	388381	keystroke_v	v	n/a
194.2955	0.135	388591	keystroke_e	e	n/a
194.4905	0.1055	388981	keystroke_r	r	n/a
194.5805	0.135	389161	keystroke_Key.enter	Key.enter	n/a
194.7215	6.3255	389443	prompt	n/a	printed warranties dear identified\n
195.3155	0.135	390631	keystroke_p	p	n/a
195.4205	0.12	390841	keystroke_r	r	n/a
195.5255	0.0905	391051	keystroke_i	i	n/a
195.6755	0.1495	391351	keystroke_n	n	n/a
195.7655	0.0755	391531	keystroke_t	t	n/a
195.945	0.0755	391890	keystroke_e	e	n/a
196.1105	0.105	392221	keystroke_d	d	n/a
196.2005	0.105	392401	keystroke_Key.space	Key.space	n/a
196.3655	0.075	392731	keystroke_w	w	n/a
196.5155	0.105	393031	keystroke_a	a	n/a
196.7395	0.0615	393479	keystroke_r	r	n/a
196.89	0.075	393780	keystroke_r	r	n/a
197.0705	0.09	394141	keystroke_a	a	n/a
197.1745	0.091	394349	keystroke_n	n	n/a
197.3105	0.1055	394621	keystroke_t	t	n/a
197.4305	0.105	394861	keystroke_i	i	n/a
197.5205	0.075	395041	keystroke_e	e	n/a
197.6855	0.075	395371	keystroke_s	s	n/a
197.7605	0.12	395521	keystroke_Key.space	Key.space	n/a
197.8955	0.075	395791	keystroke_d	d	n/a
198.0755	0.1205	396151	keystroke_e	e	n/a
198.2855	0.09	396571	keystroke_a	a	n/a
198.4805	0.105	396961	keystroke_r	r	n/a
198.6305	0.0895	397261	keystroke_Key.space	Key.space	n/a
198.781	0.0895	397562	keystroke_i	i	n/a
199.2605	0.0905	398521	keystroke_d	d	n/a
199.4705	0.075	398941	keystroke_e	e	n/a
199.6355	0.09	399271	keystroke_n	n	n/a
199.7405	0.105	399481	keystroke_t	t	n/a
199.8755	0.09	399751	keystroke_i	i	n/a
200.2955	0.1045	400591	keystroke_f	f	n/a
200.4305	0.12	400861	keystroke_i	i	n/a
200.58	0.1055	401160	keystroke_e	e	n/a
200.8055	0.06	401611	keystroke_d	d	n/a
200.9255	0.12	401851	keystroke_Key.enter	Key.enter	n/a
201.0505	5.758	402101	prompt	n/a	sites exception carl pound\n
202.26	0.1205	404520	keystroke_s	s	n/a
202.635	0.15	405270	keystroke_i	i	n/a
202.7555	0.0745	405511	keystroke_t	t	n/a
202.9355	0.075	405871	keystroke_e	e	n/a
203.115	0.09	406230	keystroke_s	s	n/a
203.22	0.12	406440	keystroke_Key.space	Key.space	n/a
203.325	0.091	406650	keystroke_e	e	n/a
203.536	0.134	407072	keystroke_x	x	n/a
203.76	0.09	407520	keystroke_c	c	n/a
204.0005	0.105	408001	keystroke_e	e	n/a
204.12	0.12	408240	keystroke_p	p	n/a
204.2255	0.12	408451	keystroke_t	t	n/a
204.3605	0.165	408721	keystroke_i	i	n/a
204.466	0.1045	408932	keystroke_o	o	n/a
204.661	0.1045	409322	keystroke_n	n	n/a
204.7505	0.1345	409501	keystroke_Key.space	Key.space	n/a
204.8405	0.0305	409681	keystroke_c	c	n/a
205.1555	0.0895	410311	keystroke_a	a	n/a
205.335	0.1055	410670	keystroke_r	r	n/a
205.381	0.1045	410762	keystroke_l	l	n/a
205.5295	0.0915	411059	keystroke_Key.space	Key.space	n/a
205.6355	0.21	411271	keystroke_p	p	n/a
205.756	0.1345	411512	keystroke_o	o	n/a
206.0705	0.015	412141	keystroke_u	u	n/a
206.4305	0.12	412861	keystroke_n	n	n/a
206.5205	0.105	413041	keystroke_d	d	n/a
206.7005	0.105	413401	keystroke_Key.enter	Key.enter	n/a
206.8125	5.8	413625	prompt	n/a	dover sustainability loans knew\n
207.436	0.0895	414872	keystroke_d	d	n/a
207.5105	0.09	415021	keystroke_o	o	n/a
207.6305	0.09	415261	keystroke_v	v	n/a
207.8255	0.0905	415651	keystroke_e	e	n/a
207.931	0.1195	415862	keystroke_r	r	n/a
208.0355	0.09	416071	keystroke_Key.space	Key.space	n/a
208.1555	0.105	416311	keystroke_s	s	n/a
208.2305	0.12	416461	keystroke_u	u	n/a
208.351	0.059	416702	keystroke_s	s	n/a
208.516	0.074	417032	keystroke_t	t	n/a
208.816	0.0455	417632	keystroke_a	a	n/a
209.1905	0.09	418381	keystroke_i	i	n/a
209.4305	0.0905	418861	keystroke_n	n	n/a
209.6555	0.1345	419311	keystroke_a	a	n/a
209.835	0.061	419670	keystroke_b	b	n/a
210.345	0.06	420690	keystroke_i	i	n/a
210.5105	0.0605	421021	keystroke_l	l	n/a
210.6305	0.1045	421261	keystroke_i	i	n/a
210.72	0.0605	421440	keystroke_t	t	n/a
210.87	0.09	421740	keystroke_y	y	n/a
210.945	0.105	421890	keystroke_Key.space	Key.space	n/a
211.141	0.0745	422282	keystroke_l	l	n/a
211.2905	0.105	422581	keystroke_o	o	n/a
211.3805	0.105	422761	keystroke_a	a	n/a
211.5005	0.1045	423001	keystroke_n	n	n/a
211.636	0.104	423272	keystroke_s	s	n/a
211.741	0.0895	423482	keystroke_Key.space	Key.space	n/a
211.845	0.1055	423690	keystroke_k	k	n/a
211.966	0.09	423932	keystroke_n	n	n/a
212.2665	0.1345	424533	keystroke_e	e	n/a
212.4155	0.0895	424831	keystroke_w	w	n/a
212.521	0.0895	425042	keystroke_Key.enter	Key.enter	n/a
212.617	4.6305	425234	prompt	n/a	stud engineer polar singing\n
213.226	0.074	426452	keystroke_s	s	n/a
213.405	0.076	426810	keystroke_t	t	n/a
213.466	0.1045	426932	keystroke_u	u	n/a
213.601	0.0745	427202	keystroke_f	f	n/a
213.945	0.09	427890	keystroke_Key.backspace	Key.backspace	n/a
214.051	0.0895	428102	keystroke_d	d	n/a
214.17	0.105	428340	keystroke_Key.space	Key.space	n/a
214.3055	0.12	428611	keystroke_e	e	n/a
214.395	0.105	428790	keystroke_n	n	n/a
214.695	0.105	429390	keystroke_g	g	n/a
214.7555	0.06	429511	keystroke_i	i	n/a
214.89	0.105	429780	keystroke_n	n	n/a
214.981	0.0595	429962	keystroke_e	e	n/a
215.1455	0.0895	430291	keystroke_e	e	n/a
215.2505	0.135	430501	keystroke_r	r	n/a
215.371	0.0745	430742	keystroke_Key.space	Key.space	n/a
215.4755	0.195	430951	keystroke_p	p	n/a
215.6105	0.1055	431221	keystroke_o	o	n/a
215.8055	0.091	431611	keystroke_l	l	n/a
215.851	0.09	431702	keystroke_a	a	n/a
216.0305	0.105	432061	keystroke_r	r	n/a
216.1205	0.1345	432241	keystroke_Key.space	Key.space	n/a
216.271	0.105	432542	keystroke_s	s	n/a
216.435	0.106	432870	keystroke_i	i	n/a
216.601	0.12	433202	keystroke_n	n	n/a
216.676	0.105	433352	keystroke_g	g	n/a
216.8105	0.105	433621	keystroke_i	i	n/a
216.9305	0.105	433861	keystroke_n	n	n/a
217.0205	0.105	434041	keystroke_g	g	n/a
217.1555	0.09	434311	keystroke_Key.enter	Key.enter	n/a
217.256	6.5315	434512	prompt	n/a	belkin sample noted reduced\n
217.8605	0.12	435721	keystroke_b	b	n/a
217.9655	0.105	435931	keystroke_e	e	n/a
218.086	0.09	436172	keystroke_l	l	n/a
218.2355	0.105	436471	keystroke_k	k	n/a
218.4305	0.06	436861	keystroke_i	i	n/a
218.581	0.1195	437162	keystroke_n	n	n/a
218.7605	0.135	437521	keystroke_Key.space	Key.space	n/a
219.1655	0.09	438331	keystroke_s	s	n/a
219.361	0.09	438722	keystroke_a	a	n/a
219.421	0.075	438842	keystroke_m	m	n/a
219.571	0.09	439142	keystroke_p	p	n/a
219.751	0.104	439502	keystroke_l	l	n/a
219.84	0.091	439680	keystroke_e	e	n/a
219.945	0.121	439890	keystroke_Key.space	Key.space	n/a
220.081	0.075	440162	keystroke_s	s	n/a
220.186	0.105	440372	keystroke_n	n	n/a
220.426	0.074	440852	keystroke_Key.backspace	Key.backspace	n/a
220.5755	0.06	441151	keystroke_Key.backspace	Key.backspace	n/a
220.741	0.09	441482	keystroke_n	n	n/a
220.9055	0.09	441811	keystroke_o	o	n/a
220.9655	0.105	441931	keystroke_t	t	n/a
221.161	0.0895	442322	keystroke_e	e	n/a
221.566	0.015	443132	keystroke_d	d	n/a
221.625	0.135	443250	keystroke_Key.space	Key.space	n/a
221.941	0.0595	443882	keystroke_r	r	n/a
222.0305	0.09	444061	keystroke_e	e	n/a
222.1955	0.1205	444391	keystroke_f	f	n/a
222.331	0.1045	444662	keystroke_u	u	n/a
222.7205	0.06	445441	keystroke_Key.backspace	Key.backspace	n/a
222.8855	0.06	445771	keystroke_Key.backspace	Key.backspace	n/a
222.9605	0.09	445921	keystroke_d	d	n/a
223.096	0.1195	446192	keystroke_u	u	n/a
223.171	0.09	446342	keystroke_c	c	n/a
223.381	0.104	446762	keystroke_e	e	n/a
223.606	0.075	447212	keystroke_d	d	n/a
223.696	0.09	447392	keystroke_Key.enter	Key.enter	n/a
223.7925	6.8045	447585	prompt	n/a	thong rebecca workplace wanna\n
224.4305	0.1205	448861	keystroke_t	t	n/a
224.5055	0.09	449011	keystroke_h	h	n/a
224.656	0.0895	449312	keystroke_o	o	n/a
224.8055	0.12	449611	keystroke_n	n	n/a
224.955	0.0905	449910	keystroke_g	g	n/a
225.06	0.136	450120	keystroke_Key.space	Key.space	n/a
225.226	0.0895	450452	keystroke_r	r	n/a
225.376	0.089	450752	keystroke_e	e	n/a
225.586	0.075	451172	keystroke_v	v	n/a
225.751	0.089	451502	keystroke_e	e	n/a
225.945	0.0755	451890	keystroke_c	c	n/a
226.1105	0.075	452221	keystroke_c	c	n/a
226.3355	0.105	452671	keystroke_Key.backspace	Key.backspace	n/a
226.5455	0.045	453091	keystroke_Key.backspace	Key.backspace	n/a
226.68	0.075	453360	keystroke_Key.backspace	Key.backspace	n/a
226.845	0.0755	453690	keystroke_Key.backspace	Key.backspace	n/a
227.416	0.09	454832	keystroke_b	b	n/a
227.491	0.104	454982	keystroke_e	e	n/a
227.685	0.076	455370	keystroke_c	c	n/a
227.836	0.089	455672	keystroke_c	c	n/a
227.94	0.0905	455880	keystroke_a	a	n/a
228.06	0.135	456120	keystroke_Key.space	Key.space	n/a
228.4355	0.0755	456871	keystroke_w	w	n/a
228.571	0.089	457142	keystroke_o	o	n/a
228.6905	0.12	457381	keystroke_r	r	n/a
228.826	0.0745	457652	keystroke_k	k	n/a
229.095	0.06	458190	keystroke_p	p	n/a
229.2455	0.1045	458491	keystroke_l	l	n/a
229.3355	0.0895	458671	keystroke_a	a	n/a
229.485	0.09	458970	keystroke_c	c	n/a
229.6655	0.105	459331	keystroke_e	e	n/a
229.7555	0.09	459511	keystroke_Key.space	Key.space	n/a
229.86	0.09	459720	keystroke_w	w	n/a
229.9955	0.1345	459991	keystroke_a	a	n/a
230.116	0.089	460232	keystroke_n	n	n/a
230.2805	0.1195	460561	keystroke_n	n	n/a
230.385	0.1355	460770	keystroke_a	a	n/a
230.49	0.105	460980	keystroke_Key.enter	Key.enter	n/a
230.601	4.4665	461202	prompt	n/a	seeing costs warnings julian\n
231.1655	0.09	462331	keystroke_s	s	n/a
231.315	0.09	462630	keystroke_e	e	n/a
231.481	0.089	462962	keystroke_e	e	n/a
231.5555	0.0745	463111	keystroke_i	i	n/a
231.69	0.12	463380	keystroke_n	n	n/a
231.7655	0.0905	463531	keystroke_g	g	n/a
231.916	0.0895	463832	keystroke_Key.space	Key.space	n/a
231.976	0.0895	463952	keystroke_c	c	n/a
232.1255	0.0905	464251	keystroke_o	o	n/a
232.171	0.074	464342	keystroke_s	s	n/a
232.3655	0.06	464731	keystroke_t	t	n/a
232.53	0.09	465060	keystroke_s	s	n/a
232.621	0.1345	465242	keystroke_Key.space	Key.space	n/a
232.7405	0.0895	465481	keystroke_w	w	n/a
232.875	0.106	465750	keystroke_a	a	n/a
233.0705	0.0905	466141	keystroke_r	r	n/a
233.1155	0.12	466231	keystroke_n	n	n/a
233.266	0.0895	466532	keystroke_i	i	n/a
233.4	0.105	466800	keystroke_n	n	n/a
233.491	0.1045	466982	keystroke_g	g	n/a
233.79	0.0905	467580	keystroke_s	s	n/a
233.9105	0.1195	467821	keystroke_Key.space	Key.space	n/a
234.045	0.135	468090	keystroke_j	j	n/a
234.24	0.0905	468480	keystroke_u	u	n/a
234.4205	0.105	468841	keystroke_l	l	n/a
234.5705	0.105	469141	keystroke_i	i	n/a
234.6915	0.1035	469383	keystroke_a	a	n/a
234.781	0.104	469562	keystroke_n	n	n/a
234.96	0.105	469920	keystroke_Key.enter	Key.enter	n/a
235.0715	6.806	470143	prompt	n/a	lesbian kijiji shares word\n
235.6955	0.12	471391	keystroke_l	l	n/a
235.7705	0.105	471541	keystroke_e	e	n/a
235.981	0.075	471962	keystroke_s	s	n/a
236.056	0.105	472112	keystroke_b	b	n/a
236.2505	0.105	472501	keystroke_i	i	n/a
236.5205	0.075	473041	keystroke_a	a	n/a
236.611	0.1345	473222	keystroke_n	n	n/a
236.761	0.134	473522	keystroke_Key.space	Key.space	n/a
236.9855	0.12	473971	keystroke_k	k	n/a
237.2555	0.12	474511	keystroke_i	i	n/a
238.1105	0.15	476221	keystroke_j	j	n/a
238.471	0.12	476942	keystroke_i	i	n/a
239.0255	0.24	478051	keystroke_j	j	n/a
239.7005	0.2555	479401	keystroke_i	i	n/a
240.0755	0.15	480151	keystroke_Key.space	Key.space	n/a
240.2405	0.105	480481	keystroke_s	s	n/a
240.3605	0.12	480721	keystroke_h	h	n/a
240.4955	0.105	480991	keystroke_a	a	n/a
240.721	0.0895	481442	keystroke_r	r	n/a
240.8555	0.1055	481711	keystroke_e	e	n/a
241.051	0.105	482102	keystroke_s	s	n/a
241.185	0.0905	482370	keystroke_Key.space	Key.space	n/a
241.2905	0.105	482581	keystroke_w	w	n/a
241.381	0.0895	482762	keystroke_o	o	n/a
241.4705	0.0905	482941	keystroke_r	r	n/a
241.681	0.0745	483362	keystroke_d	d	n/a
241.7705	0.105	483541	keystroke_Key.enter	Key.enter	n/a
241.8815	6.6265	483763	prompt	n/a	finger para evaluate coordinator\n
242.611	0.1045	485222	keystroke_f	f	n/a
242.7155	0.105	485431	keystroke_i	i	n/a
242.8655	0.15	485731	keystroke_n	n	n/a
242.9405	0.09	485881	keystroke_g	g	n/a
243.1055	0.075	486211	keystroke_e	e	n/a
243.2555	0.09	486511	keystroke_r	r	n/a
243.3005	0.09	486601	keystroke_Key.space	Key.space	n/a
243.4805	0.1205	486961	keystroke_p	p	n/a
243.5705	0.09	487141	keystroke_a	a	n/a
243.736	0.09	487472	keystroke_r	r	n/a
243.9305	0.09	487861	keystroke_a	a	n/a
244.0355	0.135	488071	keystroke_Key.space	Key.space	n/a
244.306	0.0745	488612	keystroke_e	e	n/a
244.5155	0.0605	489031	keystroke_v	v	n/a
244.7555	0.12	489511	keystroke_a	a	n/a
244.8915	0.0895	489783	keystroke_l	l	n/a
245.476	0.075	490952	keystroke_u	u	n/a
245.566	0.075	491132	keystroke_a	a	n/a
245.7605	0.075	491521	keystroke_t	t	n/a
245.9105	0.12	491821	keystroke_e	e	n/a
246.0455	0.09	492091	keystroke_Key.space	Key.space	n/a
246.1655	0.09	492331	keystroke_c	c	n/a
246.241	0.0595	492482	keystroke_o	o	n/a
246.4205	0.09	492841	keystroke_o	o	n/a
246.4955	0.0905	492991	keystroke_r	r	n/a
246.675	0.0905	493350	keystroke_d	d	n/a
246.7505	0.075	493501	keystroke_i	i	n/a
246.8705	0.1205	493741	keystroke_n	n	n/a
246.9455	0.0905	493891	keystroke_a	a	n/a
247.126	0.105	494252	keystroke_t	t	n/a
247.26	0.0755	494520	keystroke_o	o	n/a
247.6205	0.06	495241	keystroke_Key.backspace	Key.backspace	n/a
248.0705	0.1655	496141	keystroke_o	o	n/a
248.191	0.075	496382	keystroke_r	r	n/a
248.4155	0.0895	496831	keystroke_Key.enter	Key.enter	n/a
248.525	5.5475	497050	prompt	n/a	perspective replaced lost let's\n
249.226	0.105	498452	keystroke_p	p	n/a
249.2705	0.12	498541	keystroke_e	e	n/a
249.4055	0.09	498811	keystroke_r	r	n/a
249.5855	0.105	499171	keystroke_s	s	n/a
249.6755	0.105	499351	keystroke_p	p	n/a
249.7955	0.09	499591	keystroke_e	e	n/a
250.0055	0.06	500011	keystroke_c	c	n/a
250.2005	0.075	500401	keystroke_t	t	n/a
250.2905	0.105	500581	keystroke_i	i	n/a
250.441	0.06	500882	keystroke_v	v	n/a
250.9805	0.105	501961	keystroke_e	e	n/a
251.1005	0.135	502201	keystroke_Key.space	Key.space	n/a
251.2205	0.09	502441	keystroke_r	r	n/a
251.4155	0.105	502831	keystroke_e	e	n/a
251.491	0.0905	502982	keystroke_p	p	n/a
251.671	0.1045	503342	keystroke_l	l	n/a
251.79	0.076	503580	keystroke_a	a	n/a
251.9705	0.09	503941	keystroke_c	c	n/a
252.1655	0.09	504331	keystroke_e	e	n/a
252.346	0.09	504692	keystroke_d	d	n/a
252.436	0.105	504872	keystroke_Key.space	Key.space	n/a
252.556	0.105	505112	keystroke_l	l	n/a
252.721	0.15	505442	keystroke_o	o	n/a
252.811	0.0605	505622	keystroke_s	s	n/a
252.961	0.1045	505922	keystroke_t	t	n/a
253.0205	0.15	506041	keystroke_Key.space	Key.space	n/a
253.156	0.1195	506312	keystroke_l	l	n/a
253.261	0.0745	506522	keystroke_e	e	n/a
253.396	0.104	506792	keystroke_t	t	n/a
253.561	0.1345	507122	keystroke_'	'	n/a
253.711	0.134	507422	keystroke_s	s	n/a
253.9655	0.1045	507931	keystroke_Key.enter	Key.enter	n/a
254.078	6.054	508156	prompt	n/a	decline expansion showing successful\n
254.7305	0.0895	509461	keystroke_d	d	n/a
254.911	0.0895	509822	keystroke_e	e	n/a
255.1055	0.105	510211	keystroke_c	c	n/a
255.1955	0.09	510391	keystroke_l	l	n/a
255.3455	0.105	510691	keystroke_i	i	n/a
255.5105	0.15	511021	keystroke_n	n	n/a
255.586	0.0895	511172	keystroke_c	c	n/a
255.796	0.1195	511592	keystroke_e	e	n/a
255.9155	0.075	511831	keystroke_Key.space	Key.space	n/a
256.0055	0.075	512011	keystroke_e	e	n/a
256.245	0.075	512490	keystroke_x	x	n/a
256.305	0.09	512610	keystroke_p	p	n/a
256.471	0.089	512942	keystroke_a	a	n/a
256.575	0.0905	513150	keystroke_n	n	n/a
256.786	0.0895	513572	keystroke_s	s	n/a
256.8905	0.1495	513781	keystroke_i	i	n/a
256.965	0.1355	513930	keystroke_o	o	n/a
257.1455	0.12	514291	keystroke_n	n	n/a
257.2505	0.09	514501	keystroke_Key.space	Key.space	n/a
257.326	0.1045	514652	keystroke_s	s	n/a
257.4305	0.0895	514861	keystroke_h	h	n/a
257.5805	0.1055	515161	keystroke_o	o	n/a
257.701	0.074	515402	keystroke_w	w	n/a
257.776	0.089	515552	keystroke_i	i	n/a
257.925	0.1205	515850	keystroke_n	n	n/a
258.076	0.075	516152	keystroke_g	g	n/a
258.135	0.0905	516270	keystroke_Key.space	Key.space	n/a
258.2705	0.09	516541	keystroke_s	s	n/a
258.3455	0.1195	516691	keystroke_u	u	n/a
258.72	0.046	517440	keystroke_c	c	n/a
258.871	0.0595	517742	keystroke_c	c	n/a
259.05	0.12	518100	keystroke_e	e	n/a
259.245	0.09	518490	keystroke_s	s	n/a
259.3955	0.105	518791	keystroke_s	s	n/a
259.575	0.09	519150	keystroke_f	f	n/a
259.65	0.0755	519300	keystroke_u	u	n/a
259.845	0.105	519690	keystroke_l	l	n/a
260.025	0.105	520050	keystroke_Key.enter	Key.enter	n/a
260.136	6.266	520272	prompt	n/a	temperature motherboard lake styles\n
260.716	0.09	521432	keystroke_t	t	n/a
260.85	0.135	521700	keystroke_e	e	n/a
260.97	0.105	521940	keystroke_m	m	n/a
261.166	0.105	522332	keystroke_p	p	n/a
261.316	0.09	522632	keystroke_e	e	n/a
261.525	0.091	523050	keystroke_r	r	n/a
261.811	0.074	523622	keystroke_a	a	n/a
262.0055	0.09	524011	keystroke_t	t	n/a
262.0805	0.1205	524161	keystroke_u	u	n/a
262.186	0.06	524372	keystroke_r	r	n/a
262.366	0.09	524732	keystroke_e	e	n/a
262.441	0.0895	524882	keystroke_Key.space	Key.space	n/a
262.516	0.105	525032	keystroke_m	m	n/a
262.6955	0.1055	525391	keystroke_o	o	n/a
262.7855	0.105	525571	keystroke_t	t	n/a
262.9055	0.1505	525811	keystroke_h	h	n/a
262.9955	0.0905	525991	keystroke_e	e	n/a
263.071	0.135	526142	keystroke_r	r	n/a
263.19	0.106	526380	keystroke_b	b	n/a
263.446	0.015	526892	keystroke_o	o	n/a
263.461	0.089	526922	keystroke_a	a	n/a
263.6555	0.105	527311	keystroke_r	r	n/a
263.8655	0.0905	527731	keystroke_d	d	n/a
264.1205	0.105	528241	keystroke_Key.space	Key.space	n/a
264.5105	0.165	529021	keystroke_l	l	n/a
264.586	0.0745	529172	keystroke_a	a	n/a
264.796	0.1045	529592	keystroke_k	k	n/a
264.8855	0.105	529771	keystroke_e	e	n/a
265.0505	0.135	530101	keystroke_Key.space	Key.space	n/a
265.2155	0.075	530431	keystroke_s	s	n/a
265.4105	0.075	530821	keystroke_t	t	n/a
265.5445	0.106	531089	keystroke_y	y	n/a
265.666	0.134	531332	keystroke_l	l	n/a
265.816	0.105	531632	keystroke_e	e	n/a
266.01	0.0905	532020	keystroke_s	s	n/a
266.2655	0.135	532531	keystroke_Key.enter	Key.enter	n/a
266.4075	3.2495	532815	prompt	n/a	my taste hosts suit\n
267.046	0.135	534092	keystroke_m	m	n/a
267.1655	0.1195	534331	keystroke_y	y	n/a
267.286	0.1345	534572	keystroke_Key.space	Key.space	n/a
267.421	0.1195	534842	keystroke_t	t	n/a
267.6455	0.1345	535291	keystroke_a	a	n/a
267.7955	0.1345	535591	keystroke_s	s	n/a
267.915	0.135	535830	keystroke_t	t	n/a
268.02	0.135	536040	keystroke_e	e	n/a
268.1405	0.1045	536281	keystroke_Key.space	Key.space	n/a
268.231	0.12	536462	keystroke_h	h	n/a
268.4105	0.135	536821	keystroke_o	o	n/a
268.5005	0.075	537001	keystroke_s	s	n/a
268.6655	0.09	537331	keystroke_t	t	n/a
268.8305	0.1195	537661	keystroke_s	s	n/a
268.965	0.0905	537930	keystroke_Key.space	Key.space	n/a
269.1	0.09	538200	keystroke_s	s	n/a
269.175	0.2105	538350	keystroke_u	u	n/a
269.2955	0.1355	538591	keystroke_i	i	n/a
269.415	0.1055	538830	keystroke_t	t	n/a
269.535	0.1205	539070	keystroke_Key.enter	Key.enter	n/a
269.6615	6.3855	539323	prompt	n/a	gift link endorsement humanity\n
270.615	0.075	541230	keystroke_g	g	n/a
270.7055	0.1055	541411	keystroke_i	i	n/a
270.825	0.1055	541650	keystroke_f	f	n/a
271.0205	0.1055	542041	keystroke_t	t	n/a
271.095	0.121	542190	keystroke_Key.space	Key.space	n/a
271.231	0.074	542462	keystroke_l	l	n/a
271.3655	0.0895	542731	keystroke_i	i	n/a
271.53	0.091	543060	keystroke_n	n	n/a
271.6355	0.1355	543271	keystroke_k	k	n/a
271.8	0.106	543600	keystroke_Key.space	Key.space	n/a
271.936	0.12	543872	keystroke_e	e	n/a
272.0255	0.105	544051	keystroke_n	n	n/a
272.1905	0.0755	544381	keystroke_s	s	n/a
272.5955	0.0155	545191	keystroke_Key.backspace	Key.backspace	n/a
272.6255	0.105	545251	keystroke_d	d	n/a
272.7455	0.105	545491	keystroke_o	o	n/a
272.8955	0.09	545791	keystroke_r	r	n/a
273.7505	0.09	547501	keystroke_s	s	n/a
273.916	0.089	547832	keystroke_e	e	n/a
274.05	0.106	548100	keystroke_m	m	n/a
274.1705	0.1055	548341	keystroke_e	e	n/a
274.291	0.12	548582	keystroke_n	n	n/a
274.516	0.12	549032	keystroke_t	t	n/a
274.6055	0.105	549211	keystroke_Key.space	Key.space	n/a
274.696	0.1495	549392	keystroke_h	h	n/a
274.8155	0.1055	549631	keystroke_u	u	n/a
275.0105	0.1205	550021	keystroke_m	m	n/a
275.1005	0.1355	550201	keystroke_a	a	n/a
275.2505	0.0445	550501	keystroke_n	n	n/a
275.446	0.105	550892	keystroke_i	i	n/a
275.5655	0.1055	551131	keystroke_t	t	n/a
275.7455	0.0905	551491	keystroke_y	y	n/a
275.941	0.1045	551882	keystroke_Key.enter	Key.enter	n/a
276.0555	5.9325	552111	prompt	n/a	teeth evolution tiles consists\n
276.6755	0.075	553351	keystroke_t	t	n/a
276.826	0.0745	553652	keystroke_e	e	n/a
276.9905	0.1045	553981	keystroke_e	e	n/a
277.141	0.12	554282	keystroke_t	t	n/a
277.216	0.119	554432	keystroke_h	h	n/a
277.321	0.134	554642	keystroke_Key.space	Key.space	n/a
277.56	0.09	555120	keystroke_e	e	n/a
277.786	0.1045	555572	keystroke_v	v	n/a
277.8755	0.045	555751	keystroke_o	o	n/a
278.0255	0.06	556051	keystroke_l	l	n/a
278.1455	0.12	556291	keystroke_u	u	n/a
278.2655	0.0905	556531	keystroke_t	t	n/a
278.3845	0.211	556769	keystroke_i	i	n/a
278.5355	0.105	557071	keystroke_o	o	n/a
278.7455	0.1045	557491	keystroke_n	n	n/a
278.835	0.1055	557670	keystroke_Key.space	Key.space	n/a
278.91	0.105	557820	keystroke_t	t	n/a
279	0.0755	558000	keystroke_i	i	n/a
279.166	0.119	558332	keystroke_l	l	n/a
279.2405	0.105	558481	keystroke_e	e	n/a
279.3905	0.12	558781	keystroke_s	s	n/a
279.5255	0.105	559051	keystroke_Key.space	Key.space	n/a
279.7055	0.12	559411	keystroke_c	c	n/a
279.8105	0.075	559621	keystroke_o	o	n/a
279.946	0.1495	559892	keystroke_n	n	n/a
280.0805	0.0755	560161	keystroke_s	s	n/a
280.276	0.074	560552	keystroke_t	t	n/a
280.366	0.1495	560732	keystroke_i	i	n/a
280.83	0.075	561660	keystroke_Key.backspace	Key.backspace	n/a
281.131	0.089	562262	keystroke_Key.backspace	Key.backspace	n/a
281.3255	0.15	562651	keystroke_i	i	n/a
281.4005	0.1055	562801	keystroke_s	s	n/a
281.5805	0.09	563161	keystroke_t	t	n/a
281.7905	0.0905	563581	keystroke_s	s	n/a
281.9105	0.0745	563821	keystroke_Key.enter	Key.enter	n/a
281.995	5.783	563990	prompt	n/a	educational secrets clone hopefully\n
282.5555	0.105	565111	keystroke_e	e	n/a
282.7655	0.09	565531	keystroke_d	d	n/a
282.826	0.119	565652	keystroke_u	u	n/a
282.96	0.061	565920	keystroke_c	c	n/a
283.141	0.045	566282	keystroke_a	a	n/a
283.275	0.135	566550	keystroke_t	t	n/a
283.35	0.166	566700	keystroke_i	i	n/a
283.4405	0.0905	566881	keystroke_o	o	n/a
283.6205	0.105	567241	keystroke_n	n	n/a
283.7405	0.075	567481	keystroke_a	a	n/a
283.8305	0.09	567661	keystroke_l	l	n/a
283.9205	0.15	567841	keystroke_Key.space	Key.space	n/a
283.996	0.0895	567992	keystroke_s	s	n/a
284.161	0.0895	568322	keystroke_e	e	n/a
284.7305	0.105	569461	keystroke_c	c	n/a
284.971	0.1055	569942	keystroke_r	r	n/a
285.1505	0.09	570301	keystroke_e	e	n/a
285.331	0.1045	570662	keystroke_t	t	n/a
285.5105	0.12	571021	keystroke_s	s	n/a
285.6155	0.135	571231	keystroke_Key.space	Key.space	n/a
285.7655	0.105	571531	keystroke_c	c	n/a
285.8405	0.075	571681	keystroke_l	l	n/a
286.021	0.06	572042	keystroke_o	o	n/a
286.141	0.1345	572282	keystroke_n	n	n/a
286.215	0.12	572430	keystroke_e	e	n/a
286.336	0.104	572672	keystroke_Key.space	Key.space	n/a
286.4105	0.105	572821	keystroke_h	h	n/a
286.666	0.18	573332	keystroke_o	o	n/a
286.7855	0.1055	573571	keystroke_p	p	n/a
286.86	0.135	573720	keystroke_e	e	n/a
287.086	0.075	574172	keystroke_f	f	n/a
287.146	0.075	574292	keystroke_u	u	n/a
287.311	0.105	574622	keystroke_l	l	n/a
287.4765	0.1495	574953	keystroke_l	l	n/a
287.581	0.09	575162	keystroke_y	y	n/a
287.686	0.089	575372	keystroke_Key.enter	Key.enter	n/a
287.782	5.6205	575564	prompt	n/a	admission find prince proposition\n
288.481	0.015	576962	keystroke_a	a	n/a
288.541	0.119	577082	keystroke_d	d	n/a
288.631	0.075	577262	keystroke_m	m	n/a
288.7955	0.105	577591	keystroke_i	i	n/a
288.871	0.09	577742	keystroke_s	s	n/a
289.036	0.12	578072	keystroke_s	s	n/a
289.171	0.1495	578342	keystroke_i	i	n/a
289.246	0.1345	578492	keystroke_o	o	n/a
289.4255	0.135	578851	keystroke_n	n	n/a
289.5755	0.1205	579151	keystroke_Key.space	Key.space	n/a
289.7255	0.12	579451	keystroke_f	f	n/a
289.8305	0.106	579661	keystroke_i	i	n/a
290.011	0.1945	580022	keystroke_n	n	n/a
290.3555	0.09	580711	keystroke_d	d	n/a
290.4605	0.105	580921	keystroke_Key.space	Key.space	n/a
290.656	0.0895	581312	keystroke_p	p	n/a
290.7305	0.105	581461	keystroke_r	r	n/a
290.8505	0.105	581701	keystroke_i	i	n/a
291.18	0.15	582360	keystroke_n	n	n/a
291.255	0.105	582510	keystroke_c	c	n/a
291.496	0.0745	582992	keystroke_e	e	n/a
291.5855	0.105	583171	keystroke_Key.space	Key.space	n/a
291.7355	0.12	583471	keystroke_p	p	n/a
291.8255	0.1055	583651	keystroke_r	r	n/a
291.961	0.1195	583922	keystroke_o	o	n/a
292.051	0.165	584102	keystroke_p	p	n/a
292.201	0.12	584402	keystroke_o	o	n/a
292.426	0.09	584852	keystroke_s	s	n/a
292.516	0.12	585032	keystroke_i	i	n/a
292.696	0.12	585392	keystroke_t	t	n/a
292.786	0.225	585572	keystroke_i	i	n/a
292.906	0.134	585812	keystroke_o	o	n/a
293.116	0.09	586232	keystroke_n	n	n/a
293.2805	0.12	586561	keystroke_Key.enter	Key.enter	n/a
293.4125	7.0395	586825	prompt	n/a	greene became surfing insured\n
294.121	0.1045	588242	keystroke_g	g	n/a
294.3005	0.075	588601	keystroke_r	r	n/a
294.4955	0.075	588991	keystroke_e	e	n/a
294.6605	0.1055	589321	keystroke_e	e	n/a
294.7055	0.12	589411	keystroke_n	n	n/a
294.8705	0.0755	589741	keystroke_e	e	n/a
294.9905	0.0895	589981	keystroke_Key.space	Key.space	n/a
295.156	0.104	590312	keystroke_b	b	n/a
295.35	0.0905	590700	keystroke_e	e	n/a
295.5755	0.045	591151	keystroke_c	c	n/a
295.7405	0.1055	591481	keystroke_a	a	n/a
295.8155	0.105	591631	keystroke_m	m	n/a
295.9355	0.1505	591871	keystroke_e	e	n/a
296.0405	0.09	592081	keystroke_Key.space	Key.space	n/a
296.146	0.0895	592292	keystroke_s	s	n/a
296.2505	0.12	592501	keystroke_u	u	n/a
296.5055	0.06	593011	keystroke_r	r	n/a
296.7155	0.075	593431	keystroke_g	g	n/a
296.7915	0.074	593583	keystroke_i	i	n/a
296.94	0.1355	593880	keystroke_n	n	n/a
297.5105	0.06	595021	keystroke_Key.backspace	Key.backspace	n/a
297.6755	0.075	595351	keystroke_Key.backspace	Key.backspace	n/a
297.8405	0.045	595681	keystroke_Key.backspace	Key.backspace	n/a
298.3955	0.105	596791	keystroke_f	f	n/a
298.471	0.075	596942	keystroke_i	i	n/a
298.5905	0.15	597181	keystroke_n	n	n/a
298.86	0.105	597720	keystroke_g	g	n/a
298.9505	0.1205	597901	keystroke_Key.space	Key.space	n/a
299.191	0.09	598382	keystroke_i	i	n/a
299.326	0.119	598652	keystroke_n	n	n/a
299.4155	0.12	598831	keystroke_s	s	n/a
299.566	0.104	599132	keystroke_u	u	n/a
299.656	0.0895	599312	keystroke_r	r	n/a
299.821	0.1045	599642	keystroke_e	e	n/a
300.2105	0.09	600421	keystroke_d	d	n/a
300.3305	0.12	600661	keystroke_Key.enter	Key.enter	n/a
300.457	5.1405	600914	prompt	n/a	excitement handed grow twin\n
301.186	0.074	602372	keystroke_e	e	n/a
301.365	0.0905	602730	keystroke_x	x	n/a
301.4705	0.1055	602941	keystroke_c	c	n/a
301.711	0.105	603422	keystroke_i	i	n/a
301.891	0.0895	603782	keystroke_t	t	n/a
302.1155	0.105	604231	keystroke_e	e	n/a
302.206	0.1195	604412	keystroke_m	m	n/a
302.326	0.12	604652	keystroke_e	e	n/a
302.461	0.105	604922	keystroke_n	n	n/a
302.6115	0.0885	605223	keystroke_t	t	n/a
302.745	0.0755	605490	keystroke_Key.space	Key.space	n/a
302.8955	0.1045	605791	keystroke_h	h	n/a
303.0305	0.09	606061	keystroke_a	a	n/a
303.1205	0.135	606241	keystroke_n	n	n/a
303.2105	0.12	606421	keystroke_d	d	n/a
303.42	0.121	606840	keystroke_e	e	n/a
303.586	0.1045	607172	keystroke_d	d	n/a
303.7055	0.12	607411	keystroke_Key.space	Key.space	n/a
303.8105	0.09	607621	keystroke_g	g	n/a
303.9605	0.12	607921	keystroke_r	r	n/a
304.096	0.1045	608192	keystroke_o	o	n/a
304.2155	0.105	608431	keystroke_w	w	n/a
304.3355	0.12	608671	keystroke_Key.space	Key.space	n/a
304.5155	0.0895	609031	keystroke_t	t	n/a
304.635	0.0605	609270	keystroke_i	i	n/a
304.9505	0.075	609901	keystroke_Key.backspace	Key.backspace	n/a
305.056	0.09	610112	keystroke_w	w	n/a
305.1305	0.09	610261	keystroke_i	i	n/a
305.3255	0.09	610651	keystroke_n	n	n/a
305.5205	0.075	611041	keystroke_Key.enter	Key.enter	n/a
305.6015	7.0755	611203	prompt	n/a	opponents walt hash discrimination\n
306.3005	0.1505	612601	keystroke_o	o	n/a
306.4655	0.0905	612931	keystroke_p	p	n/a
306.6455	0.1655	613291	keystroke_p	p	n/a
306.826	0.1495	613652	keystroke_o	o	n/a
307.1405	0.105	614281	keystroke_n	n	n/a
307.2755	0.12	614551	keystroke_e	e	n/a
307.4105	0.135	614821	keystroke_n	n	n/a
307.5605	0.06	615121	keystroke_t	t	n/a
307.7405	0.075	615481	keystroke_s	s	n/a
307.8305	0.15	615661	keystroke_Key.space	Key.space	n/a
307.9505	0.12	615901	keystroke_w	w	n/a
308.16	0.121	616320	keystroke_a	a	n/a
308.4005	0.135	616801	keystroke_l	l	n/a
308.6255	0.0895	617251	keystroke_t	t	n/a
308.7605	0.1345	617521	keystroke_Key.space	Key.space	n/a
308.986	0.09	617972	keystroke_h	h	n/a
309.1205	0.075	618241	keystroke_a	a	n/a
309.3	0.105	618600	keystroke_s	s	n/a
309.3605	0.1345	618721	keystroke_h	h	n/a
309.5105	0.0895	619021	keystroke_Key.space	Key.space	n/a
309.72	0.136	619440	keystroke_d	d	n/a
309.7955	0.1205	619591	keystroke_i	i	n/a
309.946	0.09	619892	keystroke_s	s	n/a
310.14	0.061	620280	keystroke_c	c	n/a
310.456	0.104	620912	keystroke_r	r	n/a
310.59	0.09	621180	keystroke_i	i	n/a
310.845	0.045	621690	keystroke_m	m	n/a
311.0855	0.12	622171	keystroke_i	i	n/a
311.4605	0.0745	622921	keystroke_n	n	n/a
311.6555	0.075	623311	keystroke_a	a	n/a
311.85	0.121	623700	keystroke_t	t	n/a
311.911	0.1195	623822	keystroke_i	i	n/a
312.0755	0.1045	624151	keystroke_o	o	n/a
312.1055	0.06	624211	keystroke_n	n	n/a
312.5555	0.12	625111	keystroke_Key.enter	Key.enter	n/a
312.6795	5.113	625359	prompt	n/a	hotels rating sorted trackbacks\n
313.2755	0.0895	626551	keystroke_h	h	n/a
313.4555	0.0295	626911	keystroke_o	o	n/a
313.501	0.1045	627002	keystroke_t	t	n/a
313.725	0.135	627450	keystroke_e	e	n/a
313.846	0.09	627692	keystroke_l	l	n/a
313.9955	0.1205	627991	keystroke_s	s	n/a
314.131	0.1045	628262	keystroke_Key.space	Key.space	n/a
314.37	0.09	628740	keystroke_r	r	n/a
314.581	0.089	629162	keystroke_a	a	n/a
314.7905	0.105	629581	keystroke_t	t	n/a
314.8505	0.105	629701	keystroke_i	i	n/a
315.061	0.1195	630122	keystroke_n	n	n/a
315.1355	0.09	630271	keystroke_g	g	n/a
315.2545	0.105	630509	keystroke_Key.space	Key.space	n/a
315.346	0.09	630692	keystroke_s	s	n/a
315.4805	0.165	630961	keystroke_o	o	n/a
315.5855	0.075	631171	keystroke_r	r	n/a
315.7355	0.09	631471	keystroke_t	t	n/a
315.9155	0.09	631831	keystroke_e	e	n/a
316.11	0.076	632220	keystroke_d	d	n/a
316.186	0.119	632372	keystroke_Key.space	Key.space	n/a
316.3355	0.105	632671	keystroke_t	t	n/a
316.47	0.105	632940	keystroke_r	r	n/a
316.68	0.0755	633360	keystroke_a	a	n/a
316.831	0.0895	633662	keystroke_c	c	n/a
316.8905	0.09	633781	keystroke_k	k	n/a
317.1	0.1055	634200	keystroke_b	b	n/a
317.1755	0.0745	634351	keystroke_a	a	n/a
317.3405	0.105	634681	keystroke_c	c	n/a
317.4755	0.105	634951	keystroke_k	k	n/a
317.5955	0.075	635191	keystroke_s	s	n/a
317.7005	0.09	635401	keystroke_Key.enter	Key.enter	n/a
317.7955	7.437	635591	prompt	n/a	nevada interaction brandon outlets\n
318.5705	0.1355	637141	keystroke_n	n	n/a
318.661	0.1345	637322	keystroke_e	e	n/a
318.8555	0.1195	637711	keystroke_v	v	n/a
319.02	0.105	638040	keystroke_a	a	n/a
319.1855	0.1045	638371	keystroke_d	d	n/a
319.366	0.105	638732	keystroke_e	e	n/a
319.831	0.0895	639662	keystroke_Key.backspace	Key.backspace	n/a
319.951	0.074	639902	keystroke_a	a	n/a
320.041	0.1495	640082	keystroke_Key.space	Key.space	n/a
320.205	0.105	640410	keystroke_i	i	n/a
320.43	0.165	640860	keystroke_n	n	n/a
320.566	0.0745	641132	keystroke_t	t	n/a
321.2855	0.045	642571	keystroke_e	e	n/a
321.3455	0.015	642691	keystroke_r	r	n/a
321.585	0.09	643170	keystroke_a	a	n/a
322.0805	0.0145	644161	keystroke_c	c	n/a
322.246	0.089	644492	keystroke_t	t	n/a
322.351	0.2245	644702	keystroke_i	i	n/a
322.485	0.121	644970	keystroke_o	o	n/a
322.7105	0.1345	645421	keystroke_n	n	n/a
322.86	0.105	645720	keystroke_Key.space	Key.space	n/a
323.086	0.1045	646172	keystroke_b	b	n/a
323.2055	0.09	646411	keystroke_r	r	n/a
323.4005	0.1055	646801	keystroke_a	a	n/a
323.476	0.0895	646952	keystroke_n	n	n/a
323.5955	0.1205	647191	keystroke_d	d	n/a
323.701	0.075	647402	keystroke_o	o	n/a
323.805	0.121	647610	keystroke_n	n	n/a
323.94	0.1055	647880	keystroke_Key.space	Key.space	n/a
324.196	0.09	648392	keystroke_o	o	n/a
324.346	0.12	648692	keystroke_u	u	n/a
324.481	0.06	648962	keystroke_t	t	n/a
324.571	0.12	649142	keystroke_l	l	n/a
324.676	0.105	649352	keystroke_e	e	n/a
324.841	0.09	649682	keystroke_t	t	n/a
324.991	0.119	649982	keystroke_s	s	n/a
325.1255	0.1045	650251	keystroke_Key.enter	Key.enter	n/a
325.237	7.3155	650474	prompt	n/a	organisations bridal relocation fees\n
325.861	0.105	651722	keystroke_o	o	n/a
325.951	0.075	651902	keystroke_r	r	n/a
326.2205	0.0755	652441	keystroke_g	g	n/a
326.52	0.106	653040	keystroke_n	n	n/a
326.866	0.044	653732	keystroke_Key.backspace	Key.backspace	n/a
327.076	0.105	654152	keystroke_a	a	n/a
327.241	0.075	654482	keystroke_n	n	n/a
327.436	0.09	654872	keystroke_i	i	n/a
328.2155	0.09	656431	keystroke_s	s	n/a
328.426	0.0595	656852	keystroke_a	a	n/a
328.621	0.09	657242	keystroke_t	t	n/a
328.681	0.164	657362	keystroke_o	o	n/a
328.6955	0.0905	657391	keystroke_i	i	n/a
328.8605	0.1355	657721	keystroke_n	n	n/a
328.966	0.0895	657932	keystroke_s	s	n/a
329.0705	0.105	658141	keystroke_Key.space	Key.space	n/a
329.1605	0.09	658321	keystroke_b	b	n/a
329.2805	0.105	658561	keystroke_r	r	n/a
329.401	0.0895	658802	keystroke_i	i	n/a
329.5655	0.09	659131	keystroke_d	d	n/a
329.7305	0.1055	659461	keystroke_a	a	n/a
329.8205	0.12	659641	keystroke_l	l	n/a
329.956	0.1345	659912	keystroke_Key.space	Key.space	n/a
330.061	0.0745	660122	keystroke_r	r	n/a
330.1655	0.12	660331	keystroke_e	e	n/a
330.4955	0.09	660991	keystroke_l	l	n/a
330.676	0.1195	661352	keystroke_o	o	n/a
330.721	0.1045	661442	keystroke_c	c	n/a
330.9305	0.075	661861	keystroke_a	a	n/a
331.0955	0.1195	662191	keystroke_t	t	n/a
331.156	0.1495	662312	keystroke_i	i	n/a
331.2305	0.1045	662461	keystroke_o	o	n/a
331.426	0.1345	662852	keystroke_n	n	n/a
331.545	0.12	663090	keystroke_Key.space	Key.space	n/a
331.6205	0.09	663241	keystroke_f	f	n/a
331.77	0.105	663540	keystroke_e	e	n/a
331.965	0.0905	663930	keystroke_e	e	n/a
332.145	0.09	664290	keystroke_d	d	n/a
332.31	0.075	664620	keystroke_s	s	n/a
332.476	0.0745	664952	keystroke_Key.enter	Key.enter	n/a
332.556	6.311	665112	prompt	n/a	tracker switching depression peas\n
333.616	0.1045	667232	keystroke_t	t	n/a
333.7655	0.105	667531	keystroke_r	r	n/a
333.9755	0.09	667951	keystroke_a	a	n/a
334.1555	0.105	668311	keystroke_c	c	n/a
334.2305	0.12	668461	keystroke_k	k	n/a
334.4105	0.105	668821	keystroke_e	e	n/a
334.5455	0.135	669091	keystroke_r	r	n/a
334.6355	0.12	669271	keystroke_Key.space	Key.space	n/a
334.831	0.12	669662	keystroke_s	s	n/a
335.0255	0.075	670051	keystroke_w	w	n/a
335.1455	0.1195	670291	keystroke_i	i	n/a
335.325	0.1055	670650	keystroke_t	t	n/a
335.88	0.09	671760	keystroke_c	c	n/a
335.9555	0.105	671911	keystroke_h	h	n/a
336.12	0.091	672240	keystroke_i	i	n/a
336.2705	0.0895	672541	keystroke_n	n	n/a
336.375	0.0905	672750	keystroke_g	g	n/a
336.48	0.1205	672960	keystroke_Key.space	Key.space	n/a
336.5855	0.105	673171	keystroke_d	d	n/a
336.7655	0.105	673531	keystroke_e	e	n/a
336.8555	0.09	673711	keystroke_p	p	n/a
336.961	0.0895	673922	keystroke_r	r	n/a
337.0655	0.105	674131	keystroke_e	e	n/a
337.2605	0.09	674521	keystroke_s	s	n/a
337.456	0.1045	674912	keystroke_s	s	n/a
337.5455	0.1805	675091	keystroke_i	i	n/a
337.636	0.1195	675272	keystroke_o	o	n/a
337.845	0.1355	675690	keystroke_n	n	n/a
337.9505	0.15	675901	keystroke_Key.space	Key.space	n/a
338.1155	0.1045	676231	keystroke_p	p	n/a
338.206	0.0895	676412	keystroke_e	e	n/a
338.37	0.1055	676740	keystroke_a	a	n/a
338.4905	0.12	676981	keystroke_s	s	n/a
338.7155	0.15	677431	keystroke_Key.enter	Key.enter	n/a
338.873	5.6645	677746	prompt	n/a	patch abuse limiting conservative\n
339.5105	0.12	679021	keystroke_p	p	n/a
339.5855	0.09	679171	keystroke_a	a	n/a
339.7805	0.075	679561	keystroke_t	t	n/a
340.0055	0.075	680011	keystroke_c	c	n/a
340.0655	0.135	680131	keystroke_h	h	n/a
340.2155	0.12	680431	keystroke_Key.space	Key.space	n/a
340.4855	0.105	680971	keystroke_a	a	n/a
340.5755	0.105	681151	keystroke_b	b	n/a
340.7555	0.1055	681511	keystroke_u	u	n/a
340.8305	0.09	681661	keystroke_s	s	n/a
340.9805	0.12	681961	keystroke_e	e	n/a
341.0705	0.09	682141	keystroke_Key.space	Key.space	n/a
341.2205	0.0905	682441	keystroke_l	l	n/a
341.3855	0.075	682771	keystroke_i	i	n/a
341.5505	0.075	683101	keystroke_m	m	n/a
341.6855	0.12	683371	keystroke_i	i	n/a
341.79	0.091	683580	keystroke_t	t	n/a
342.106	0.075	684212	keystroke_i	i	n/a
342.2405	0.12	684481	keystroke_n	n	n/a
342.3755	0.0595	684751	keystroke_g	g	n/a
342.4505	0.0895	684901	keystroke_Key.space	Key.space	n/a
342.585	0.09	685170	keystroke_c	c	n/a
342.66	0.105	685320	keystroke_o	o	n/a
342.8705	0.105	685741	keystroke_n	n	n/a
342.9605	0.0895	685921	keystroke_s	s	n/a
343.14	0.075	686280	keystroke_e	e	n/a
343.245	0.1205	686490	keystroke_r	r	n/a
343.5005	0.06	687001	keystroke_v	v	n/a
343.6505	0.0905	687301	keystroke_a	a	n/a
343.876	0.089	687752	keystroke_t	t	n/a
343.92	0.121	687840	keystroke_i	i	n/a
344.1305	0.06	688261	keystroke_v	v	n/a
344.2955	0.105	688591	keystroke_e	e	n/a
344.4155	0.1205	688831	keystroke_Key.enter	Key.enter	n/a
344.542	6.19	689084	prompt	n/a	inter transfer miniature bridge\n
345.166	0.0895	690332	keystroke_i	i	n/a
345.3305	0.1355	690661	keystroke_n	n	n/a
345.391	0.089	690782	keystroke_t	t	n/a
345.5555	0.0755	691111	keystroke_e	e	n/a
345.6455	0.12	691291	keystroke_r	r	n/a
345.78	0.1055	691560	keystroke_Key.space	Key.space	n/a
345.916	0.0595	691832	keystroke_r	r	n/a
346.23	0.09	692460	keystroke_Key.backspace	Key.backspace	n/a
346.3355	0.1355	692671	keystroke_t	t	n/a
346.5155	0.1055	693031	keystroke_r	r	n/a
346.7705	0.135	693541	keystroke_a	a	n/a
346.9355	0.1345	693871	keystroke_n	n	n/a
347.056	0.104	694112	keystroke_s	s	n/a
347.311	0.09	694622	keystroke_f	f	n/a
347.476	0.104	694952	keystroke_e	e	n/a
347.5955	0.1045	695191	keystroke_r	r	n/a
347.655	0.105	695310	keystroke_Key.space	Key.space	n/a
347.806	0.135	695612	keystroke_m	m	n/a
348.03	0.061	696060	keystroke_i	i	n/a
348.135	0.105	696270	keystroke_n	n	n/a
348.285	0.135	696570	keystroke_i	i	n/a
348.4055	0.1195	696811	keystroke_a	a	n/a
348.6455	0.09	697291	keystroke_t	t	n/a
348.721	0.104	697442	keystroke_u	u	n/a
348.8105	0.09	697621	keystroke_r	r	n/a
349.035	0.09	698070	keystroke_e	e	n/a
349.1855	0.1045	698371	keystroke_Key.space	Key.space	n/a
349.291	0.0895	698582	keystroke_b	b	n/a
349.426	0.089	698852	keystroke_r	r	n/a
349.53	0.12	699060	keystroke_i	i	n/a
349.68	0.105	699360	keystroke_d	d	n/a
349.9055	0.0745	699811	keystroke_e	e	n/a
350.235	0.1055	700470	keystroke_Key.backspace	Key.backspace	n/a
350.325	0.0755	700650	keystroke_g	g	n/a
350.4755	0.105	700951	keystroke_e	e	n/a
350.5955	0.1345	701191	keystroke_Key.enter	Key.enter	n/a
350.737	4.9605	701474	prompt	n/a	handy decline payments bundle\n
351.4355	0.1195	702871	keystroke_h	h	n/a
351.6005	0.135	703201	keystroke_a	a	n/a
351.72	0.105	703440	keystroke_n	n	n/a
351.8555	0.1045	703711	keystroke_d	d	n/a
352.0355	0.135	704071	keystroke_y	y	n/a
352.1555	0.12	704311	keystroke_Key.space	Key.space	n/a
352.2595	0.1065	704519	keystroke_d	d	n/a
352.4705	0.0755	704941	keystroke_e	e	n/a
352.6805	0.105	705361	keystroke_c	c	n/a
352.8155	0.105	705631	keystroke_l	l	n/a
353.0105	0.075	706021	keystroke_i	i	n/a
353.1905	0.12	706381	keystroke_n	n	n/a
353.28	0.1505	706560	keystroke_e	e	n/a
353.4155	0.105	706831	keystroke_Key.space	Key.space	n/a
353.5505	0.1205	707101	keystroke_p	p	n/a
353.7005	0.09	707401	keystroke_a	a	n/a
353.8205	0.09	707641	keystroke_y	y	n/a
354.0605	0.105	708121	keystroke_m	m	n/a
354.1805	0.0895	708361	keystroke_e	e	n/a
354.271	0.135	708542	keystroke_n	n	n/a
354.375	0.075	708750	keystroke_t	t	n/a
354.54	0.106	709080	keystroke_s	s	n/a
354.69	0.1055	709380	keystroke_Key.space	Key.space	n/a
354.78	0.09	709560	keystroke_b	b	n/a
354.9305	0.0905	709861	keystroke_u	u	n/a
355.125	0.105	710250	keystroke_n	n	n/a
355.186	0.0895	710372	keystroke_d	d	n/a
355.4555	0.03	710911	keystroke_l	l	n/a
355.4705	0.105	710941	keystroke_e	e	n/a
355.59	0.1055	711180	keystroke_Key.enter	Key.enter	n/a
355.7025	10.2405	711405	prompt	n/a	herbal manitoba proceedings photograph\n
356.371	0.12	712742	keystroke_h	h	n/a
356.4455	0.0745	712891	keystroke_a	a	n/a
356.881	0.09	713762	keystroke_Key.backspace	Key.backspace	n/a
356.971	0.1195	713942	keystroke_e	e	n/a
357.1205	0.12	714241	keystroke_r	r	n/a
357.226	0.1195	714452	keystroke_b	b	n/a
357.4055	0.09	714811	keystroke_a	a	n/a
357.5265	0.074	715053	keystroke_l	l	n/a
357.7955	0.1045	715591	keystroke_Key.space	Key.space	n/a
357.901	0.105	715802	keystroke_m	m	n/a
358.05	0.0755	716100	keystroke_a	a	n/a
358.74	0.12	717480	keystroke_n	n	n/a
359.041	0.105	718082	keystroke_i	i	n/a
359.206	0.12	718412	keystroke_t	t	n/a
359.401	0.06	718802	keystroke_o	o	n/a
359.566	0.1045	719132	keystroke_b	b	n/a
359.716	0.105	719432	keystroke_a	a	n/a
359.88	0.076	719760	keystroke_Key.space	Key.space	n/a
360.241	0.12	720482	keystroke_p	p	n/a
360.376	0.09	720752	keystroke_r	r	n/a
360.481	0.12	720962	keystroke_o	o	n/a
360.616	0.09	721232	keystroke_c	c	n/a
360.8265	0.0895	721653	keystroke_e	e	n/a
361.0205	0.1055	722041	keystroke_e	e	n/a
361.2305	0.1055	722461	keystroke_d	d	n/a
361.306	0.0745	722612	keystroke_i	i	n/a
361.4555	0.105	722911	keystroke_n	n	n/a
361.576	0.0745	723152	keystroke_g	g	n/a
361.7705	0.105	723541	keystroke_s	s	n/a
361.8455	0.09	723691	keystroke_Key.space	Key.space	n/a
361.9505	0.1205	723901	keystroke_p	p	n/a
362.0555	0.075	724111	keystroke_r	r	n/a
362.236	0.074	724472	keystroke_h	h	n/a
362.5055	0.06	725011	keystroke_Key.backspace	Key.backspace	n/a
362.6405	0.0905	725281	keystroke_Key.backspace	Key.backspace	n/a
362.761	0.1195	725522	keystroke_h	h	n/a
362.8955	0.135	725791	keystroke_o	o	n/a
363.376	0.1045	726752	keystroke_t	t	n/a
363.45	0.12	726900	keystroke_o	o	n/a
364.455	0.091	728910	keystroke_g	g	n/a
364.606	0.089	729212	keystroke_r	r	n/a
364.816	0.104	729632	keystroke_a	a	n/a
364.8905	0.1205	729781	keystroke_p	p	n/a
365.101	0.105	730202	keystroke_h	h	n/a
365.8355	0.1055	731671	keystroke_Key.enter	Key.enter	n/a
365.947	4.661	731894	prompt	n/a	argued holiday ones oxygen\n
366.7355	0.06	733471	keystroke_a	a	n/a
366.9155	0.09	733831	keystroke_r	r	n/a
367.0355	0.09	734071	keystroke_g	g	n/a
367.2005	0.105	734401	keystroke_u	u	n/a
367.2905	0.105	734581	keystroke_e	e	n/a
367.501	0.0895	735002	keystroke_d	d	n/a
367.576	0.1045	735152	keystroke_Key.space	Key.space	n/a
367.74	0.06	735480	keystroke_h	h	n/a
367.891	0.09	735782	keystroke_o	o	n/a
368.056	0.1045	736112	keystroke_l	l	n/a
368.2655	0.106	736531	keystroke_i	i	n/a
368.386	0.0745	736772	keystroke_d	d	n/a
368.5655	0.09	737131	keystroke_a	a	n/a
368.6105	0.135	737221	keystroke_y	y	n/a
368.7305	0.12	737461	keystroke_Key.space	Key.space	n/a
368.896	0.0745	737792	keystroke_o	o	n/a
369.0155	0.135	738031	keystroke_n	n	n/a
369.1055	0.1045	738211	keystroke_e	e	n/a
369.256	0.1345	738512	keystroke_s	s	n/a
369.346	0.12	738692	keystroke_Key.space	Key.space	n/a
369.4805	0.075	738961	keystroke_o	o	n/a
369.7205	0.12	739441	keystroke_x	x	n/a
369.8105	0.105	739621	keystroke_y	y	n/a
370.0355	0.105	740071	keystroke_g	g	n/a
370.126	0.1045	740252	keystroke_e	e	n/a
370.2905	0.105	740581	keystroke_n	n	n/a
370.5155	0.09	741031	keystroke_Key.enter	Key.enter	n/a
370.6125	4.7795	741225	prompt	n/a	turkish fatal ought hood\n
371.221	0.0595	742442	keystroke_t	t	n/a
371.4305	0.105	742861	keystroke_u	u	n/a
371.5505	0.105	743101	keystroke_r	r	n/a
371.8655	0.135	743731	keystroke_k	k	n/a
372.076	0.105	744152	keystroke_i	i	n/a
372.2255	0.1205	744451	keystroke_s	s	n/a
372.315	0.1505	744630	keystroke_h	h	n/a
372.45	0.15	744900	keystroke_Key.space	Key.space	n/a
372.586	0.12	745172	keystroke_f	f	n/a
372.81	0.121	745620	keystroke_a	a	n/a
372.9155	0.1205	745831	keystroke_t	t	n/a
373.021	0.105	746042	keystroke_a	a	n/a
373.2765	0.119	746553	keystroke_l	l	n/a
373.575	0.12	747150	keystroke_Key.space	Key.space	n/a
373.696	0.15	747392	keystroke_o	o	n/a
373.905	0.1055	747810	keystroke_u	u	n/a
374.2205	0.12	748441	keystroke_g	g	n/a
374.31	0.136	748620	keystroke_h	h	n/a
374.4305	0.1055	748861	keystroke_t	t	n/a
374.5505	0.1195	749101	keystroke_Key.space	Key.space	n/a
374.7	0.1055	749400	keystroke_h	h	n/a
374.911	0.06	749822	keystroke_o	o	n/a
375.03	0.136	750060	keystroke_o	o	n/a
375.135	0.12	750270	keystroke_d	d	n/a
375.24	0.15	750480	keystroke_Key.enter	Key.enter	n/a
375.3965	5.321	750793	prompt	n/a	author usually graphs filtering\n
376.021	0.105	752042	keystroke_a	a	n/a
376.126	0.09	752252	keystroke_u	u	n/a
376.245	0.135	752490	keystroke_t	t	n/a
376.3655	0.0595	752731	keystroke_h	h	n/a
376.501	0.1195	753002	keystroke_o	o	n/a
376.635	0.0755	753270	keystroke_r	r	n/a
376.7255	0.1045	753451	keystroke_Key.space	Key.space	n/a
376.9205	0.1045	753841	keystroke_u	u	n/a
377.04	0.1055	754080	keystroke_s	s	n/a
377.161	0.09	754322	keystroke_u	u	n/a
377.2655	0.105	754531	keystroke_a	a	n/a
377.4005	0.075	754801	keystroke_l	l	n/a
377.5805	0.09	755161	keystroke_l	l	n/a
377.701	0.1045	755402	keystroke_y	y	n/a
377.761	0.1195	755522	keystroke_Key.space	Key.space	n/a
377.986	0.135	755972	keystroke_g	g	n/a
378.286	0.104	756572	keystroke_r	r	n/a
378.495	0.121	756990	keystroke_a	a	n/a
378.631	0.09	757262	keystroke_p	p	n/a
378.7805	0.12	757561	keystroke_h	h	n/a
378.8705	0.1055	757741	keystroke_s	s	n/a
379.006	0.105	758012	keystroke_Key.space	Key.space	n/a
379.141	0.105	758282	keystroke_f	f	n/a
379.231	0.075	758462	keystroke_i	i	n/a
379.411	0.105	758822	keystroke_l	l	n/a
379.531	0.12	759062	keystroke_t	t	n/a
379.741	0.06	759482	keystroke_e	e	n/a
379.891	0.1045	759782	keystroke_r	r	n/a
379.9965	0.0895	759993	keystroke_i	i	n/a
380.1305	0.135	760261	keystroke_n	n	n/a
380.2355	0.075	760471	keystroke_g	g	n/a
380.5955	0.1195	761191	keystroke_Key.enter	Key.enter	n/a
380.7215	4.661	761443	prompt	n/a	catch gaming kruger tragedy\n
381.346	0.075	762692	keystroke_c	c	n/a
381.4955	0.1055	762991	keystroke_a	a	n/a
381.6905	0.1055	763381	keystroke_t	t	n/a
381.9155	0.106	763831	keystroke_c	c	n/a
382.0055	0.18	764011	keystroke_h	h	n/a
382.1405	0.105	764281	keystroke_Key.space	Key.space	n/a
382.216	0.09	764432	keystroke_g	g	n/a
382.44	0.105	764880	keystroke_a	a	n/a
382.53	0.09	765060	keystroke_m	m	n/a
382.6955	0.0895	765391	keystroke_i	i	n/a
382.845	0.135	765690	keystroke_n	n	n/a
382.936	0.105	765872	keystroke_g	g	n/a
383.056	0.1195	766112	keystroke_Key.space	Key.space	n/a
383.2355	0.15	766471	keystroke_k	k	n/a
383.3555	0.1205	766711	keystroke_r	r	n/a
383.506	0.21	767012	keystroke_u	u	n/a
383.6715	0.0895	767343	keystroke_g	g	n/a
383.836	0.104	767672	keystroke_e	e	n/a
383.956	0.12	767912	keystroke_r	r	n/a
384.09	0.1355	768180	keystroke_Key.space	Key.space	n/a
384.2105	0.1055	768421	keystroke_t	t	n/a
384.3455	0.106	768691	keystroke_r	r	n/a
384.571	0.075	769142	keystroke_a	a	n/a
384.6905	0.15	769381	keystroke_g	g	n/a
384.7955	0.0905	769591	keystroke_e	e	n/a
385.0055	0.09	770011	keystroke_d	d	n/a
385.0655	0.12	770131	keystroke_y	y	n/a
385.2605	0.1205	770521	keystroke_Key.enter	Key.enter	n/a
385.3865	4.9005	770773	prompt	n/a	kick mambo occupied agenda\n
386.0415	0.104	772083	keystroke_k	k	n/a
386.235	0.1205	772470	keystroke_i	i	n/a
386.416	0.1195	772832	keystroke_c	c	n/a
386.596	0.149	773192	keystroke_k	k	n/a
386.82	0.1055	773640	keystroke_Key.space	Key.space	n/a
386.9855	0.135	773971	keystroke_m	m	n/a
387.1055	0.09	774211	keystroke_a	a	n/a
387.226	0.1495	774452	keystroke_m	m	n/a
387.526	0.135	775052	keystroke_b	b	n/a
387.645	0.105	775290	keystroke_o	o	n/a
387.7805	0.1055	775561	keystroke_Key.space	Key.space	n/a
387.916	0.12	775832	keystroke_o	o	n/a
388.0505	0.1055	776101	keystroke_c	c	n/a
388.216	0.12	776432	keystroke_c	c	n/a
388.32	0.075	776640	keystroke_u	u	n/a
388.456	0.119	776912	keystroke_p	p	n/a
388.695	0.12	777390	keystroke_i	i	n/a
388.786	0.104	777572	keystroke_e	e	n/a
388.995	0.075	777990	keystroke_d	d	n/a
389.04	0.121	778080	keystroke_Key.space	Key.space	n/a
389.326	0.075	778652	keystroke_a	a	n/a
389.461	0.105	778922	keystroke_g	g	n/a
389.581	0.0895	779162	keystroke_e	e	n/a
389.6855	0.12	779371	keystroke_n	n	n/a
389.851	0.045	779702	keystroke_d	d	n/a
390.0755	0.09	780151	keystroke_a	a	n/a
390.1805	0.105	780361	keystroke_Key.enter	Key.enter	n/a
390.2905	5.3065	780581	prompt	n/a	offense extending thong remain\n
390.8555	0.075	781711	keystroke_o	o	n/a
390.9455	0.15	781891	keystroke_f	f	n/a
391.1855	0.075	782371	keystroke_f	f	n/a
391.3205	0.1205	782641	keystroke_e	e	n/a
391.4255	0.15	782851	keystroke_n	n	n/a
391.5305	0.075	783061	keystroke_s	s	n/a
391.6655	0.12	783331	keystroke_e	e	n/a
391.8005	0.1355	783601	keystroke_Key.space	Key.space	n/a
391.891	0.0895	783782	keystroke_e	e	n/a
392.1605	0.045	784321	keystroke_x	x	n/a
392.4005	0.09	784801	keystroke_t	t	n/a
392.5955	0.09	785191	keystroke_e	e	n/a
392.7605	0.1345	785521	keystroke_n	n	n/a
393.031	0.0895	786062	keystroke_d	d	n/a
393.3155	0.0155	786631	keystroke_i	i	n/a
393.42	0.12	786840	keystroke_n	n	n/a
393.5865	0.0595	787173	keystroke_g	g	n/a
393.66	0.1055	787320	keystroke_Key.space	Key.space	n/a
393.8105	0.09	787621	keystroke_t	t	n/a
393.8855	0.075	787771	keystroke_h	h	n/a
394.006	0.1045	788012	keystroke_o	o	n/a
394.1565	0.134	788313	keystroke_n	n	n/a
394.2605	0.1055	788521	keystroke_g	g	n/a
394.411	0.1205	788822	keystroke_Key.space	Key.space	n/a
394.6365	0.1035	789273	keystroke_r	r	n/a
394.786	0.1195	789572	keystroke_e	e	n/a
394.86	0.106	789720	keystroke_m	m	n/a
395.0405	0.135	790081	keystroke_a	a	n/a
395.1605	0.1055	790321	keystroke_i	i	n/a
395.3255	0.105	790651	keystroke_n	n	n/a
395.4905	0.1055	790981	keystroke_Key.enter	Key.enter	n/a
395.6005	6.342	791201	prompt	n/a	compared obesity surrounding lincoln\n
396.2705	0.105	792541	keystroke_c	c	n/a
396.3005	0.0905	792601	keystroke_o	o	n/a
396.481	0.0895	792962	keystroke_m	m	n/a
396.66	0.1055	793320	keystroke_p	p	n/a
396.7505	0.0605	793501	keystroke_a	a	n/a
396.931	0.165	793862	keystroke_r	r	n/a
397.2155	0.1055	794431	keystroke_e	e	n/a
397.395	0.1055	794790	keystroke_d	d	n/a
397.47	0.106	794940	keystroke_Key.space	Key.space	n/a
397.605	0.105	795210	keystroke_o	o	n/a
397.906	0.03	795812	keystroke_b	b	n/a
397.921	0.09	795842	keystroke_e	e	n/a
398.041	0.135	796082	keystroke_s	s	n/a
398.266	0.1195	796532	keystroke_i	i	n/a
398.3865	0.104	796773	keystroke_t	t	n/a
398.596	0.1195	797192	keystroke_y	y	n/a
398.7005	0.135	797401	keystroke_Key.space	Key.space	n/a
399.016	0.1205	798032	keystroke_s	s	n/a
399.1205	0.1055	798241	keystroke_u	u	n/a
399.2555	0.06	798511	keystroke_r	r	n/a
399.42	0.076	798840	keystroke_r	r	n/a
399.466	0.15	798932	keystroke_o	o	n/a
399.586	0.09	799172	keystroke_u	u	n/a
399.781	0.105	799562	keystroke_n	n	n/a
399.826	0.12	799652	keystroke_d	d	n/a
399.99	0.076	799980	keystroke_i	i	n/a
400.156	0.06	800312	keystroke_n	n	n/a
400.246	0.089	800492	keystroke_g	g	n/a
400.351	0.104	800702	keystroke_Key.space	Key.space	n/a
400.441	0.104	800882	keystroke_l	l	n/a
400.92	0.0605	801840	keystroke_i	i	n/a
401.071	0.119	802142	keystroke_n	n	n/a
401.1755	0.1055	802351	keystroke_c	c	n/a
401.281	0.1045	802562	keystroke_o	o	n/a
401.491	0.074	802982	keystroke_l	l	n/a
401.626	0.104	803252	keystroke_n	n	n/a
401.836	0.104	803672	keystroke_Key.enter	Key.enter	n/a
401.949	5.1685	803898	prompt	n/a	lines worker aspect safely\n
402.571	0.105	805142	keystroke_l	l	n/a
402.736	0.09	805472	keystroke_i	i	n/a
402.9155	0.135	805831	keystroke_n	n	n/a
402.9605	0.105	805921	keystroke_e	e	n/a
403.1705	0.075	806341	keystroke_s	s	n/a
403.276	0.1045	806552	keystroke_Key.space	Key.space	n/a
403.381	0.12	806762	keystroke_w	w	n/a
403.516	0.0745	807032	keystroke_o	o	n/a
403.6055	0.09	807211	keystroke_r	r	n/a
403.7405	0.12	807481	keystroke_k	k	n/a
403.846	0.1045	807692	keystroke_e	e	n/a
403.9805	0.105	807961	keystroke_r	r	n/a
404.1005	0.12	808201	keystroke_Key.space	Key.space	n/a
404.2355	0.12	808471	keystroke_a	a	n/a
404.43	0.1055	808860	keystroke_s	s	n/a
404.536	0.09	809072	keystroke_p	p	n/a
404.6405	0.0905	809281	keystroke_e	e	n/a
404.851	0.0595	809702	keystroke_c	c	n/a
405.0605	0.0905	810121	keystroke_t	t	n/a
405.151	0.0895	810302	keystroke_Key.space	Key.space	n/a
405.2555	0.105	810511	keystroke_s	s	n/a
405.4805	0.1055	810961	keystroke_a	a	n/a
406.0965	0.119	812193	keystroke_f	f	n/a
406.261	0.12	812522	keystroke_e	e	n/a
406.396	0.1195	812792	keystroke_l	l	n/a
406.636	0.0745	813272	keystroke_y	y	n/a
407.01	0.106	814020	keystroke_Key.enter	Key.enter	n/a
407.122	5.1855	814244	prompt	n/a	pads invasion chicago well\n
407.7905	0.0905	815581	keystroke_p	p	n/a
407.866	0.105	815732	keystroke_a	a	n/a
408.1205	0.1055	816241	keystroke_d	d	n/a
408.2855	0.091	816571	keystroke_s	s	n/a
408.3905	0.09	816781	keystroke_Key.space	Key.space	n/a
408.4655	0.06	816931	keystroke_i	i	n/a
408.616	0.1045	817232	keystroke_n	n	n/a
408.84	0.031	817680	keystroke_v	v	n/a
409.006	0.1045	818012	keystroke_a	a	n/a
409.2605	0.0745	818521	keystroke_s	s	n/a
409.35	0.1655	818700	keystroke_i	i	n/a
409.4105	0.12	818821	keystroke_o	o	n/a
409.6365	0.104	819273	keystroke_n	n	n/a
409.7255	0.1045	819451	keystroke_Key.space	Key.space	n/a
409.8005	0.1355	819601	keystroke_c	c	n/a
409.951	0.09	819902	keystroke_h	h	n/a
410.026	0.12	820052	keystroke_i	i	n/a
410.1155	0.0905	820231	keystroke_c	c	n/a
410.3705	0.045	820741	keystroke_a	a	n/a
410.611	0.09	821222	keystroke_g	g	n/a
410.7155	0.105	821431	keystroke_o	o	n/a
410.8355	0.1355	821671	keystroke_Key.space	Key.space	n/a
411.316	0.0595	822632	keystroke_w	w	n/a
411.451	0.12	822902	keystroke_e	e	n/a
411.526	0.12	823052	keystroke_l	l	n/a
411.721	0.149	823442	keystroke_l	l	n/a
412.201	0.105	824402	keystroke_Key.enter	Key.enter	n/a
412.31	6.138	824620	prompt	n/a	precisely gentle coach throughout\n
413.311	0.089	826622	keystroke_p	p	n/a
413.4155	0.0445	826831	keystroke_e	e	n/a
413.746	0.09	827492	keystroke_Key.backspace	Key.backspace	n/a
413.88	0.106	827760	keystroke_r	r	n/a
414.031	0.09	828062	keystroke_e	e	n/a
414.2265	0.1195	828453	keystroke_c	c	n/a
414.3155	0.135	828631	keystroke_i	i	n/a
414.6615	0.0595	829323	keystroke_s	s	n/a
414.7955	0.1055	829591	keystroke_e	e	n/a
