onset	duration	sample	value	key	prompt_text
6.0945	8.5735	12189	prompt	n/a	the quick brown fox jumps over a lazy dog\n
7.468	0.013	14936	keystroke	t	n/a
7.496	0.1055	14992	keystroke	h	n/a
7.5865	0.105	15173	keystroke	e	n/a
7.6465	0.15	15293	keystroke	Key.space	n/a
7.8415	0.12	15683	keystroke	q	n/a
7.9765	0.075	15953	keystroke	u	n/a
8.1265	0.09	16253	keystroke	i	n/a
8.2165	0.105	16433	keystroke	c	n/a
8.3365	0.0745	16673	keystroke	k	n/a
8.456	0.12	16912	keystroke	Key.space	n/a
8.785	0.106	17570	keystroke	b	n/a
8.861	0.105	17722	keystroke	r	n/a
8.98	0.061	17960	keystroke	o	n/a
9.056	0.0745	18112	keystroke	w	n/a
9.1605	0.09	18321	keystroke	n	n/a
9.2655	0.09	18531	keystroke	Key.space	n/a
9.46	0.09	18920	keystroke	f	n/a
9.565	0.09	19130	keystroke	o	n/a
9.715	0.136	19430	keystroke	x	n/a
9.866	0.105	19732	keystroke	Key.space	n/a
10.0755	0.06	20151	keystroke	j	n/a
10.39	0.061	20780	keystroke	u	n/a
10.631	0.045	21262	keystroke	m	n/a
10.811	0.045	21622	keystroke	p	n/a
11.1405	0.12	22281	keystroke	s	n/a
11.5605	0.09	23121	keystroke	Key.space	n/a
11.6955	0.09	23391	keystroke	o	n/a
11.7705	0.105	23541	keystroke	v	n/a
11.9055	0.135	23811	keystroke	e	n/a
11.9955	0.12	23991	keystroke	r	n/a
12.0555	0.135	24111	keystroke	Key.space	n/a
12.1755	0.165	24351	keystroke	a	n/a
12.2955	0.135	24591	keystroke	Key.space	n/a
12.731	0.1195	25462	keystroke	l	n/a
12.865	0.106	25730	keystroke	a	n/a
13.045	0.12	26090	keystroke	z	n/a
13.4355	0.09	26871	keystroke	y	n/a
13.5255	0.15	27051	keystroke	Key.space	n/a
13.6905	0.135	27381	keystroke	d	n/a
13.8855	0.09	27771	keystroke	o	n/a
14.0205	0.0745	28041	keystroke	g	n/a
14.5455	0.12	29091	keystroke	Key.enter	n/a
14.6725	6.7	29345	prompt	n/a	duration check benefits locations\n
15.2955	0.135	30591	keystroke	d	n/a
15.4155	0.105	30831	keystroke	u	n/a
15.4755	0.09	30951	keystroke	r	n/a
15.5805	0.1505	31161	keystroke	a	n/a
15.746	0.105	31492	keystroke	c	n/a
16.106	0.09	32212	keystroke	Key.backspace	n/a
16.346	0.105	32692	keystroke	t	n/a
16.465	0.286	32930	keystroke	i	n/a
16.601	0.135	33202	keystroke	o	n/a
16.676	0.165	33352	keystroke	n	n/a
16.796	0.105	33592	keystroke	Key.space	n/a
16.946	0.105	33892	keystroke	c	n/a
17.021	0.105	34042	keystroke	h	n/a
17.081	0.12	34162	keystroke	e	n/a
17.171	0.105	34342	keystroke	c	n/a
17.261	0.12	34522	keystroke	k	n/a
17.396	0.135	34792	keystroke	Key.space	n/a
17.621	0.09	35242	keystroke	b	n/a
17.711	0.075	35422	keystroke	e	n/a
17.801	0.105	35602	keystroke	n	n/a
17.861	0.105	35722	keystroke	e	n/a
18.041	0.105	36082	keystroke	f	n/a
18.251	0.089	36502	keystroke	i	n/a
18.355	0.12	36710	keystroke	t	n/a
18.49	0.135	36980	keystroke	s	n/a
18.55	0.15	37100	keystroke	Key.space	n/a
18.731	0.089	37462	keystroke	l	n/a
18.911	0.045	37822	keystroke	c	n/a
18.926	0.059	37852	keystroke	o	n/a
19.045	0.091	38090	keystroke	c	n/a
19.5255	0.06	39051	keystroke	Key.backspace	n/a
19.675	0.06	39350	keystroke	Key.backspace	n/a
19.796	0.089	39592	keystroke	Key.backspace	n/a
20.3355	0.105	40671	keystroke	o	n/a
20.4255	0.105	40851	keystroke	c	n/a
20.4855	0.135	40971	keystroke	a	n/a
20.7105	0.09	41421	keystroke	t	n/a
20.8005	0.24	41601	keystroke	i	n/a
20.8755	0.135	41751	keystroke	o	n/a
20.9655	0.135	41931	keystroke	n	n/a
21.0705	0.105	42141	keystroke	s	n/a
21.2955	0.075	42591	keystroke	Key.enter	n/a
21.376	5.3965	42752	prompt	n/a	raising batch spam joined\n
22.1205	0.0755	44241	keystroke	r	n/a
22.2405	0.075	44481	keystroke	i	n/a
22.2705	0.135	44541	keystroke	a	n/a
23.1555	0.0595	46311	keystroke	Key.backspace	n/a
23.3055	0.0605	46611	keystroke	Key.backspace	n/a
23.486	0.12	46972	keystroke	a	n/a
23.591	0.075	47182	keystroke	i	n/a
23.756	0.09	47512	keystroke	s	n/a
23.861	0.09	47722	keystroke	i	n/a
23.9055	0.1055	47811	keystroke	n	n/a
24.041	0.12	48082	keystroke	g	n/a
24.146	0.1045	48292	keystroke	Key.space	n/a
24.311	0.1045	48622	keystroke	b	n/a
24.3855	0.1655	48771	keystroke	a	n/a
24.581	0.0745	49162	keystroke	t	n/a
24.775	0.105	49550	keystroke	c	n/a
24.895	0.091	49790	keystroke	h	n/a
24.971	0.1045	49942	keystroke	Key.space	n/a
25.121	0.104	50242	keystroke	s	n/a
25.27	0.105	50540	keystroke	p	n/a
25.39	0.09	50780	keystroke	a	n/a
25.496	0.074	50992	keystroke	m	n/a
25.585	0.12	51170	keystroke	Key.space	n/a
25.735	0.0905	51470	keystroke	j	n/a
25.9305	0.09	51861	keystroke	o	n/a
26.126	0.135	52252	keystroke	i	n/a
26.2005	0.1355	52401	keystroke	n	n/a
26.351	0.105	52702	keystroke	e	n/a
26.561	0.09	53122	keystroke	d	n/a
26.696	0.075	53392	keystroke	Key.enter	n/a
26.777	4.5555	53554	prompt	n/a	generated superb wars it\n
27.4755	0.075	54951	keystroke	g	n/a
27.6105	0.075	55221	keystroke	e	n/a
27.7305	0.105	55461	keystroke	n	n/a
27.7905	0.12	55581	keystroke	e	n/a
27.8655	0.12	55731	keystroke	r	n/a
28.0155	0.15	56031	keystroke	a	n/a
28.1205	0.12	56241	keystroke	t	n/a
28.2255	0.105	56451	keystroke	e	n/a
28.421	0.119	56842	keystroke	d	n/a
28.48	0.165	56960	keystroke	Key.space	n/a
28.63	0.105	57260	keystroke	s	n/a
28.765	0.105	57530	keystroke	u	n/a
29.08	0.105	58160	keystroke	p	n/a
29.26	0.1205	58520	keystroke	e	n/a
29.32	0.1205	58640	keystroke	r	n/a
29.5005	0.12	59001	keystroke	b	n/a
29.6505	0.135	59301	keystroke	Key.space	n/a
29.9205	0.1795	59841	keystroke	w	n/a
30.025	0.1505	60050	keystroke	a	n/a
30.1455	0.135	60291	keystroke	r	n/a
30.3255	0.18	60651	keystroke	s	n/a
30.4305	0.1795	60861	keystroke	Key.space	n/a
30.625	0.1055	61250	keystroke	i	n/a
30.7155	0.09	61431	keystroke	t	n/a
31.2255	0.105	62451	keystroke	Key.enter	n/a
31.3365	6.5965	62673	prompt	n/a	flooring implemented pasta surround\n
31.96	0.12	63920	keystroke	f	n/a
32.065	0.076	64130	keystroke	l	n/a
32.246	0.06	64492	keystroke	o	n/a
32.351	0.105	64702	keystroke	o	n/a
32.471	0.12	64942	keystroke	r	n/a
32.621	0.105	65242	keystroke	i	n/a
32.681	0.12	65362	keystroke	n	n/a
32.755	0.106	65510	keystroke	g	n/a
32.831	0.12	65662	keystroke	Key.space	n/a
33.071	0.15	66142	keystroke	i	n/a
33.176	0.105	66352	keystroke	m	n/a
33.386	0.134	66772	keystroke	p	n/a
33.446	0.134	66892	keystroke	l	n/a
33.595	0.061	67190	keystroke	r	n/a
34.045	0.105	68090	keystroke	Key.backspace	n/a
34.5555	0.0605	69111	keystroke	e	n/a
34.616	0.12	69232	keystroke	m	n/a
34.736	0.0895	69472	keystroke	e	n/a
34.8555	0.09	69711	keystroke	n	n/a
35.051	0.0895	70102	keystroke	t	n/a
35.1705	0.0755	70341	keystroke	e	n/a
35.3805	0.105	70761	keystroke	d	n/a
35.4405	0.135	70881	keystroke	Key.space	n/a
35.6355	0.105	71271	keystroke	p	n/a
35.7255	0.12	71451	keystroke	a	n/a
35.7855	0.12	71571	keystroke	s	n/a
36.056	0.045	72112	keystroke	t	n/a
36.191	0.15	72382	keystroke	a	n/a
36.476	0.105	72952	keystroke	Key.space	n/a
36.806	0.12	73612	keystroke	s	n/a
36.956	0.105	73912	keystroke	u	n/a
37.016	0.06	74032	keystroke	r	n/a
37.136	0.105	74272	keystroke	r	n/a
37.286	0.165	74572	keystroke	o	n/a
37.391	0.09	74782	keystroke	u	n/a
37.571	0.105	75142	keystroke	n	n/a
37.661	0.09	75322	keystroke	d	n/a
37.871	0.06	75742	keystroke	Key.enter	n/a
37.9365	4.826	75873	prompt	n/a	till situated engaged attention\n
38.756	0.075	77512	keystroke	t	n/a
38.816	0.06	77632	keystroke	i	n/a
39.011	0.045	78022	keystroke	l	n/a
39.131	0.09	78262	keystroke	l	n/a
39.236	0.12	78472	keystroke	Key.space	n/a
39.341	0.1045	78682	keystroke	s	n/a
39.4305	0.105	78861	keystroke	i	n/a
39.5205	0.09	79041	keystroke	t	n/a
39.6255	0.105	79251	keystroke	u	n/a
39.7155	0.15	79431	keystroke	a	n/a
39.8505	0.105	79701	keystroke	t	n/a
39.9705	0.09	79941	keystroke	e	n/a
40.1655	0.105	80331	keystroke	d	n/a
40.2255	0.1505	80451	keystroke	Key.space	n/a
40.391	0.105	80782	keystroke	e	n/a
40.541	0.12	81082	keystroke	n	n/a
40.631	0.105	81262	keystroke	g	n/a
40.796	0.12	81592	keystroke	a	n/a
40.931	0.09	81862	keystroke	g	n/a
41.0805	0.09	82161	keystroke	e	n/a
41.2755	0.105	82551	keystroke	d	n/a
41.3505	0.105	82701	keystroke	Key.space	n/a
41.4705	0.075	82941	keystroke	a	n/a
41.6655	0.06	83331	keystroke	t	n/a
41.7855	0.12	83571	keystroke	t	n/a
41.8905	0.105	83781	keystroke	e	n/a
42.0555	0.09	84111	keystroke	n	n/a
42.1305	0.105	84261	keystroke	t	n/a
42.1905	0.2405	84381	keystroke	i	n/a
42.2805	0.1355	84561	keystroke	o	n/a
42.3255	0.1505	84651	keystroke	n	n/a
42.6555	0.105	85311	keystroke	Key.enter	n/a
42.7665	9.8065	85533	prompt	n/a	radar fragrance omega priorities\n
43.3605	0.09	86721	keystroke	r	n/a
43.4805	0.12	86961	keystroke	a	n/a
43.5855	0.105	87171	keystroke	d	n/a
43.6915	0.1945	87383	keystroke	a	n/a
43.871	0.135	87742	keystroke	r	n/a
44.02	0.12	88040	keystroke	Key.space	n/a
44.636	0.105	89272	keystroke	f	n/a
44.801	0.105	89602	keystroke	r	n/a
44.921	0.09	89842	keystroke	a	n/a
45.071	0.1045	90142	keystroke	g	n/a
46.556	0.075	93112	keystroke	r	n/a
46.706	0.105	93412	keystroke	a	n/a
46.841	0.12	93682	keystroke	n	n/a
46.901	0.105	93802	keystroke	c	n/a
46.976	0.105	93952	keystroke	e	n/a
47.051	0.12	94102	keystroke	Key.space	n/a
47.336	0.09	94672	keystroke	e	n/a
47.831	0.135	95662	keystroke	Key.backspace	n/a
48.1755	0.1505	96351	keystroke	o	n/a
48.2655	0.12	96531	keystroke	m	n/a
48.4455	0.12	96891	keystroke	e	n/a
48.656	0.0745	97312	keystroke	g	n/a
48.8055	0.135	97611	keystroke	a	n/a
48.9855	0.105	97971	keystroke	Key.space	n/a
49.2255	0.075	98451	keystroke	p	n/a
49.3305	0.105	98661	keystroke	r	n/a
49.4505	0.075	98901	keystroke	i	n/a
49.4655	0.075	98931	keystroke	u	n/a
49.6755	0.075	99351	keystroke	o	n/a
50.2305	0.06	100461	keystroke	Key.backspace	n/a
50.41	0.045	100820	keystroke	Key.backspace	n/a
51.2355	0.09	102471	keystroke	o	n/a
51.3855	0.09	102771	keystroke	r	n/a
51.5055	0.075	103011	keystroke	i	n/a
51.5955	0.06	103191	keystroke	t	n/a
51.686	0.104	103372	keystroke	i	n/a
51.775	0.105	103550	keystroke	e	n/a
51.82	0.1505	103640	keystroke	s	n/a
52.5255	0.0455	105051	keystroke	Key.enter	n/a
52.578	5.3645	105156	prompt	n/a	adequate care coordinate pursue\n
53.275	0.1655	106550	keystroke	a	n/a
53.4105	0.12	106821	keystroke	d	n/a
53.6505	0.15	107301	keystroke	e	n/a
53.8605	0.105	107721	keystroke	q	n/a
54.1155	0.12	108231	keystroke	u	n/a
54.2055	0.12	108411	keystroke	a	n/a
54.4755	0.09	108951	keystroke	t	n/a
54.5355	0.15	109071	keystroke	e	n/a
54.6555	0.12	109311	keystroke	Key.space	n/a
54.896	0.09	109792	keystroke	c	n/a
54.971	0.12	109942	keystroke	a	n/a
55.181	0.12	110362	keystroke	r	n/a
55.241	0.135	110482	keystroke	e	n/a
55.346	0.105	110692	keystroke	Key.space	n/a
55.496	0.09	110992	keystroke	c	n/a
55.646	0.06	111292	keystroke	o	n/a
55.766	0.105	111532	keystroke	o	n/a
55.856	0.045	111712	keystroke	r	n/a
56.006	0.105	112012	keystroke	d	n/a
56.096	0.105	112192	keystroke	i	n/a
56.156	0.105	112312	keystroke	n	n/a
56.246	0.075	112492	keystroke	a	n/a
56.4405	0.09	112881	keystroke	t	n/a
56.4855	0.15	112971	keystroke	e	n/a
56.6205	0.12	113241	keystroke	Key.space	n/a
56.921	0.075	113842	keystroke	p	n/a
57.146	0.105	114292	keystroke	u	n/a
57.236	0.09	114472	keystroke	r	n/a
57.4005	0.105	114801	keystroke	s	n/a
57.5205	0.105	115041	keystroke	u	n/a
57.6105	0.075	115221	keystroke	e	n/a
57.8655	0.075	115731	keystroke	Key.enter	n/a
57.9455	5.3965	115891	prompt	n/a	korea heart amateur hazardous\n
58.5555	0.09	117111	keystroke	k	n/a
58.7355	0.105	117471	keystroke	o	n/a
58.8255	0.135	117651	keystroke	r	n/a
58.9155	0.135	117831	keystroke	e	n/a
59.0055	0.165	118011	keystroke	a	n/a
59.1255	0.135	118251	keystroke	Key.space	n/a
59.606	0.12	119212	keystroke	h	n/a
59.665	0.136	119330	keystroke	e	n/a
59.755	0.15	119510	keystroke	a	n/a
59.86	0.12	119720	keystroke	r	n/a
60.04	0.1055	120080	keystroke	t	n/a
60.1305	0.105	120261	keystroke	Key.space	n/a
60.2805	0.0745	120561	keystroke	a	n/a
60.371	0.105	120742	keystroke	m	n/a
60.4455	0.1195	120891	keystroke	a	n/a
60.7005	0.09	121401	keystroke	t	n/a
60.9855	0.09	121971	keystroke	e	n/a
61.1355	0.135	122271	keystroke	u	n/a
61.2555	0.06	122511	keystroke	r	n/a
61.3605	0.12	122721	keystroke	Key.space	n/a
61.5705	0.09	123141	keystroke	h	n/a
61.6305	0.075	123261	keystroke	a	n/a
61.9455	0.12	123891	keystroke	z	n/a
62.1705	0.075	124341	keystroke	a	n/a
62.3655	0.0755	124731	keystroke	r	n/a
62.561	0.12	125122	keystroke	d	n/a
62.8755	0.18	125751	keystroke	o	n/a
62.9805	0.135	125961	keystroke	u	n/a
63.0855	0.09	126171	keystroke	s	n/a
63.2505	0.09	126501	keystroke	Key.enter	n/a
63.347	6.73	126694	prompt	n/a	yukon fantastic francis flavor\n
64.3455	0.09	128691	keystroke	y	n/a
64.4805	0.09	128961	keystroke	u	n/a
64.8335	0.082	129667	keystroke	k	n/a
65.0055	0.09	130011	keystroke	o	n/a
65.2005	0.12	130401	keystroke	n	n/a
65.3505	0.135	130701	keystroke	Key.space	n/a
65.5605	0.12	131121	keystroke	f	n/a
65.771	0.1055	131542	keystroke	a	n/a
65.981	0.1045	131962	keystroke	n	n/a
66.1755	0.12	132351	keystroke	t	n/a
66.341	0.18	132682	keystroke	a	n/a
66.491	0.135	132982	keystroke	s	n/a
66.611	0.105	133222	keystroke	t	n/a
66.791	0.09	133582	keystroke	i	n/a
66.911	0.1195	133822	keystroke	c	n/a
67.1055	0.135	134211	keystroke	Key.space	n/a
67.3605	0.135	134721	keystroke	f	n/a
67.6605	0.015	135321	keystroke	r	n/a
67.6905	0.09	135381	keystroke	a	n/a
67.8105	0.12	135621	keystroke	n	n/a
67.8855	0.12	135771	keystroke	c	n/a
68.0655	0.12	136131	keystroke	i	n/a
68.1555	0.105	136311	keystroke	s	n/a
68.3205	0.12	136641	keystroke	Key.space	n/a
68.621	0.15	137242	keystroke	f	n/a
68.756	0.12	137512	keystroke	l	n/a
69.416	0.09	138832	keystroke	a	n/a
69.641	0.0895	139282	keystroke	v	n/a
69.7605	0.09	139521	keystroke	o	n/a
69.8655	0.075	139731	keystroke	r	n/a
70.0005	0.075	140001	keystroke	Key.enter	n/a
70.0805	7.392	140161	prompt	n/a	spectrum tsunami hazard convinced\n
70.871	0.12	141742	keystroke	s	n/a
70.976	0.12	141952	keystroke	p	n/a
71.111	0.135	142222	keystroke	e	n/a
71.186	0.105	142372	keystroke	c	n/a
71.426	0.12	142852	keystroke	t	n/a
71.501	0.12	143002	keystroke	r	n/a
71.591	0.09	143182	keystroke	u	n/a
71.771	0.12	143542	keystroke	m	n/a
71.906	0.12	143812	keystroke	Key.space	n/a
72.176	0.18	144352	keystroke	t	n/a
72.296	0.135	144592	keystroke	s	n/a
72.3855	0.1355	144771	keystroke	u	n/a
72.536	0.12	145072	keystroke	n	n/a
72.731	0.09	145462	keystroke	a	n/a
72.836	0.075	145672	keystroke	m	n/a
72.971	0.09	145942	keystroke	i	n/a
73.136	0.135	146272	keystroke	Key.space	n/a
73.346	0.09	146692	keystroke	h	n/a
73.421	0.09	146842	keystroke	a	n/a
73.616	0.09	147232	keystroke	z	n/a
73.781	0.105	147562	keystroke	a	n/a
73.991	0.075	147982	keystroke	r	n/a
74.156	0.135	148312	keystroke	d	n/a
74.261	0.105	148522	keystroke	Key.space	n/a
74.426	0.105	148852	keystroke	c	n/a
74.546	0.075	149092	keystroke	o	n/a
74.696	0.105	149392	keystroke	n	n/a
74.786	0.09	149572	keystroke	v	n/a
74.951	0.105	149902	keystroke	i	n/a
75.071	0.0895	150142	keystroke	c	n/a
75.1755	0.09	150351	keystroke	n	n/a
75.896	0.06	151792	keystroke	Key.backspace	n/a
76.0305	0.075	152061	keystroke	Key.backspace	n/a
76.3005	0.061	152601	keystroke	n	n/a
76.4205	0.12	152841	keystroke	c	n/a
76.6465	0.06	153293	keystroke	e	n/a
76.8265	0.09	153653	keystroke	d	n/a
77.3955	0.075	154791	keystroke	Key.enter	n/a
77.4755	4.812	154951	prompt	n/a	concept leaving lenses ghana\n
78.131	0.075	156262	keystroke	c	n/a
78.176	0.09	156352	keystroke	o	n/a
78.296	0.12	156592	keystroke	n	n/a
78.401	0.135	156802	keystroke	c	n/a
78.941	0.09	157882	keystroke	e	n/a
79.091	0.09	158182	keystroke	p	n/a
79.196	0.12	158392	keystroke	t	n/a
79.286	0.135	158572	keystroke	Key.space	n/a
79.526	0.105	159052	keystroke	l	n/a
79.616	0.12	159232	keystroke	e	n/a
79.706	0.105	159412	keystroke	a	n/a
79.9305	0.09	159861	keystroke	v	n/a
80.0355	0.105	160071	keystroke	i	n/a
80.0815	0.149	160163	keystroke	n	n/a
80.1555	0.105	160311	keystroke	g	n/a
80.2455	0.075	160491	keystroke	Key.space	n/a
80.351	0.09	160702	keystroke	l	n/a
80.426	0.135	160852	keystroke	e	n/a
80.5905	0.1055	161181	keystroke	n	n/a
80.711	0.1345	161422	keystroke	s	n/a
80.8155	0.135	161631	keystroke	e	n/a
80.9355	0.1645	161871	keystroke	s	n/a
81.0855	0.1345	162171	keystroke	Key.space	n/a
81.64	0.0915	163280	keystroke	g	n/a
81.7155	0.091	163431	keystroke	h	n/a
81.8065	0.0885	163613	keystroke	a	n/a
81.926	0.09	163852	keystroke	n	n/a
82.001	0.09	164002	keystroke	a	n/a
82.211	0.075	164422	keystroke	Key.enter	n/a
82.291	5.6365	164582	prompt	n/a	newspaper should've moms it'll\n
82.901	0.12	165802	keystroke	n	n/a
82.976	0.105	165952	keystroke	e	n/a
83.036	0.105	166072	keystroke	w	n/a
83.261	0.0895	166522	keystroke	s	n/a
83.4405	0.075	166881	keystroke	p	n/a
83.5305	0.09	167061	keystroke	a	n/a
83.666	0.075	167332	keystroke	p	n/a
84.581	0.135	169162	keystroke	e	n/a
84.671	0.105	169342	keystroke	r	n/a
84.731	0.09	169462	keystroke	Key.space	n/a
84.866	0.105	169732	keystroke	s	n/a
84.941	0.075	169882	keystroke	h	n/a
85.046	0.135	170092	keystroke	o	n/a
85.151	0.075	170302	keystroke	u	n/a
85.256	0.12	170512	keystroke	l	n/a
85.361	0.09	170722	keystroke	d	n/a
85.481	0.12	170962	keystroke	'	n/a
85.601	0.1045	171202	keystroke	v	n/a
85.7205	0.09	171441	keystroke	e	n/a
85.7805	0.105	171561	keystroke	Key.space	n/a
85.9015	0.104	171803	keystroke	m	n/a
86.0205	0.12	172041	keystroke	o	n/a
86.1255	0.09	172251	keystroke	m	n/a
86.6055	0.135	173211	keystroke	s	n/a
86.7255	0.12	173451	keystroke	Key.space	n/a
86.8755	0.12	173751	keystroke	i	n/a
86.9805	0.09	173961	keystroke	t	n/a
87.2505	0.12	174501	keystroke	'	n/a
87.5515	0.06	175103	keystroke	l	n/a
87.6865	0.0745	175373	keystroke	l	n/a
87.851	0.075	175702	keystroke	Key.enter	n/a
87.9305	4.317	175861	prompt	n/a	happiness pending scene connections\n
88.5555	0.09	177111	keystroke	h	n/a
88.6605	0.12	177321	keystroke	a	n/a
88.7655	0.075	177531	keystroke	p	n/a
88.9155	0.075	177831	keystroke	p	n/a
89.1105	0.075	178221	keystroke	i	n/a
89.2305	0.105	178461	keystroke	n	n/a
89.3655	0.06	178731	keystroke	e	n/a
89.5755	0.045	179151	keystroke	s	n/a
89.6955	0.105	179391	keystroke	s	n/a
89.7855	0.105	179571	keystroke	Key.space	n/a
89.996	0.075	179992	keystroke	p	n/a
90.131	0.075	180262	keystroke	e	n/a
90.221	0.075	180442	keystroke	n	n/a
90.311	0.09	180622	keystroke	d	n/a
90.371	0.105	180742	keystroke	i	n/a
90.431	0.12	180862	keystroke	n	n/a
90.521	0.105	181042	keystroke	g	n/a
90.596	0.09	181192	keystroke	Key.space	n/a
90.731	0.15	181462	keystroke	s	n/a
90.836	0.12	181672	keystroke	c	n/a
91.001	0.09	182002	keystroke	n	n/a
91.451	0.0895	182902	keystroke	Key.backspace	n/a
91.6305	0.076	183261	keystroke	e	n/a
91.7515	0.09	183503	keystroke	n	n/a
91.8715	0.074	183743	keystroke	e	n/a
92.1405	0.105	184281	keystroke	Key.enter	n/a
92.251	2.0065	184502	prompt	n/a	bookings bill styles resolved\n
92.771	0.135	185542	keystroke	c	n/a
92.891	0.09	185782	keystroke	o	n/a
93.0855	0.045	186171	keystroke	n	n/a
93.1905	0.12	186381	keystroke	n	n/a
93.2955	0.18	186591	keystroke	e	n/a
93.3855	0.091	186771	keystroke	c	n/a
93.6255	0.09	187251	keystroke	t	n/a
93.6855	0.225	187371	keystroke	i	n/a
93.7755	0.12	187551	keystroke	o	n/a
93.8355	0.135	187671	keystroke	n	n/a
93.9715	0.089	187943	keystroke	s	n/a
94.1655	0.0905	188331	keystroke	Key.enter	n/a
94.2615	9.476	188523	prompt	n/a	dive summary graduates enterprises\n
98.293	0.028	196586	keystroke	d	n/a
98.3515	0.105	196703	keystroke	i	n/a
98.4415	0.135	196883	keystroke	v	n/a
98.5465	0.12	197093	keystroke	e	n/a
98.6365	0.1195	197273	keystroke	Key.space	n/a
98.816	0.105	197632	keystroke	s	n/a
98.891	0.09	197782	keystroke	u	n/a
99.101	0.03	198202	keystroke	m	n/a
99.191	0.105	198382	keystroke	m	n/a
99.326	0.135	198652	keystroke	a	n/a
99.401	0.12	198802	keystroke	r	n/a
99.671	0.09	199342	keystroke	y	n/a
99.731	0.1055	199462	keystroke	Key.space	n/a
100.3015	0.075	200603	keystroke	g	n/a
100.4515	0.105	200903	keystroke	r	n/a
100.5715	0.15	201143	keystroke	a	n/a
100.6615	0.12	201323	keystroke	d	n/a
100.8115	0.105	201623	keystroke	u	n/a
100.8715	0.075	201743	keystroke	a	n/a
101.0665	0.15	202133	keystroke	t	n/a
101.1855	0.15	202371	keystroke	e	n/a
101.2455	0.15	202491	keystroke	s	n/a
101.3505	0.1355	202701	keystroke	Key.space	n/a
102.116	0.09	204232	keystroke	e	n/a
102.266	0.09	204532	keystroke	n	n/a
102.326	0.09	204652	keystroke	t	n/a
102.446	0.135	204892	keystroke	e	n/a
102.536	0.105	205072	keystroke	r	n/a
102.686	0.105	205372	keystroke	p	n/a
102.761	0.15	205522	keystroke	r	n/a
103.016	0.09	206032	keystroke	i	n/a
103.121	0.135	206242	keystroke	s	n/a
103.226	0.15	206452	keystroke	e	n/a
103.361	0.12	206722	keystroke	s	n/a
103.646	0.09	207292	keystroke	Key.enter	n/a
103.741	6.9415	207482	prompt	n/a	hospitals launch unauthorized weeks\n
104.5005	0.075	209001	keystroke	h	n/a
104.6505	0.105	209301	keystroke	o	n/a
104.7705	0.165	209541	keystroke	s	n/a
104.8765	0.074	209753	keystroke	p	n/a
105.0405	0.0755	210081	keystroke	i	n/a
105.131	0.165	210262	keystroke	t	n/a
105.251	0.18	210502	keystroke	a	n/a
105.461	0.105	210922	keystroke	l	n/a
105.626	0.12	211252	keystroke	s	n/a
105.851	0.12	211702	keystroke	Key.space	n/a
106.076	0.075	212152	keystroke	l	n/a
106.436	0.105	212872	keystroke	a	n/a
106.556	0.0905	213112	keystroke	u	n/a
106.7065	0.12	213413	keystroke	n	n/a
106.8415	0.09	213683	keystroke	c	n/a
106.9765	0.09	213953	keystroke	h	n/a
107.1415	0.15	214283	keystroke	Key.space	n/a
107.4415	0.12	214883	keystroke	u	n/a
107.5165	0.135	215033	keystroke	n	n/a
107.7115	0.1645	215423	keystroke	a	n/a
107.861	0.105	215722	keystroke	u	n/a
108.026	0.0905	216052	keystroke	t	n/a
108.1765	0.105	216353	keystroke	h	n/a
108.5065	0.09	217013	keystroke	o	n/a
108.6415	0.09	217283	keystroke	r	n/a
108.8665	0.09	217733	keystroke	i	n/a
108.9715	0.165	217943	keystroke	z	n/a
109.1515	0.075	218303	keystroke	e	n/a
109.3465	0.075	218693	keystroke	d	n/a
109.3765	0.15	218753	keystroke	Key.space	n/a
109.5415	0.075	219083	keystroke	w	n/a
109.7665	0.045	219533	keystroke	e	n/a
109.8715	0.075	219743	keystroke	e	n/a
110.366	0.075	220732	keystroke	k	n/a
110.471	0.1055	220942	keystroke	s	n/a
110.5915	0.09	221183	keystroke	Key.enter	n/a
110.686	5.6365	221372	prompt	n/a	catholic minimal pools grateful\n
111.3565	0.1195	222713	keystroke	c	n/a
111.491	0.09	222982	keystroke	a	n/a
111.671	0.09	223342	keystroke	t	n/a
111.776	0.075	223552	keystroke	h	n/a
111.896	0.09	223792	keystroke	o	n/a
112.061	0.09	224122	keystroke	l	n/a
112.256	0.09	224512	keystroke	i	n/a
112.376	0.1205	224752	keystroke	c	n/a
112.5115	0.105	225023	keystroke	Key.space	n/a
112.6765	0.09	225353	keystroke	m	n/a
112.7965	0.12	225593	keystroke	i	n/a
112.9015	0.09	225803	keystroke	n	n/a
112.9915	0.1195	225983	keystroke	i	n/a
113.261	0.075	226522	keystroke	m	n/a
113.396	0.105	226792	keystroke	a	n/a
113.516	0.105	227032	keystroke	l	n/a
113.636	0.105	227272	keystroke	Key.space	n/a
113.846	0.09	227692	keystroke	p	n/a
114.056	0.075	228112	keystroke	o	n/a
114.191	0.09	228382	keystroke	o	n/a
114.356	0.09	228712	keystroke	l	n/a
114.416	0.135	228832	keystroke	s	n/a
114.521	0.15	229042	keystroke	Key.space	n/a
114.6405	0.0455	229281	keystroke	g	n/a
115.1815	0.1045	230363	keystroke	r	n/a
115.316	0.105	230632	keystroke	a	n/a
115.511	0.09	231022	keystroke	t	n/a
115.571	0.105	231142	keystroke	e	n/a
115.751	0.1055	231502	keystroke	f	n/a
115.841	0.0905	231682	keystroke	u	n/a
116.0515	0.075	232103	keystroke	l	n/a
116.2465	0.075	232493	keystroke	Key.enter	n/a
116.327	5.3055	232654	prompt	n/a	warned visiting instructions wilderness\n
116.921	0.15	233842	keystroke	w	n/a
117.011	0.165	234022	keystroke	a	n/a
117.146	0.09	234292	keystroke	r	n/a
117.296	0.12	234592	keystroke	n	n/a
117.386	0.075	234772	keystroke	e	n/a
117.551	0.105	235102	keystroke	d	n/a
117.611	0.105	235222	keystroke	Key.space	n/a
117.776	0.09	235552	keystroke	v	n/a
117.821	0.075	235642	keystroke	i	n/a
117.956	0.105	235912	keystroke	s	n/a
118.046	0.09	236092	keystroke	i	n/a
118.181	0.09	236362	keystroke	t	n/a
118.256	0.105	236512	keystroke	i	n/a
118.316	0.12	236632	keystroke	n	n/a
118.391	0.12	236782	keystroke	g	n/a
118.466	0.12	236932	keystroke	Key.space	n/a
118.631	0.135	237262	keystroke	i	n/a
118.706	0.18	237412	keystroke	n	n/a
118.976	0.135	237952	keystroke	s	n/a
119.141	0.12	238282	keystroke	t	n/a
119.216	0.09	238432	keystroke	r	n/a
119.336	0.09	238672	keystroke	u	n/a
119.426	0.09	238852	keystroke	c	n/a
119.636	0.09	239272	keystroke	t	n/a
119.696	0.2245	239392	keystroke	i	n/a
119.786	0.1045	239572	keystroke	o	n/a
119.8305	0.165	239661	keystroke	n	n/a
119.9355	0.135	239871	keystroke	s	n/a
120.0555	0.135	240111	keystroke	Key.space	n/a
120.1755	0.135	240351	keystroke	w	n/a
120.2805	0.1355	240561	keystroke	i	n/a
120.4455	0.15	240891	keystroke	l	n/a
120.5815	0.089	241163	keystroke	d	n/a
120.7305	0.12	241461	keystroke	e	n/a
120.8065	0.134	241613	keystroke	r	n/a
120.9555	0.1055	241911	keystroke	n	n/a
121.046	0.09	242092	keystroke	e	n/a
121.2865	0.06	242573	keystroke	s	n/a
121.4065	0.1045	242813	keystroke	s	n/a
121.526	0.1055	243052	keystroke	Key.enter	n/a
121.6395	6.3385	243279	prompt	n/a	factory satellite cancel virgin\n
122.3965	0.1195	244793	keystroke	f	n/a
122.546	0.1505	245092	keystroke	a	n/a
122.6815	0.075	245363	keystroke	c	n/a
122.8755	0.075	245751	keystroke	t	n/a
123.0105	0.091	246021	keystroke	o	n/a
123.0705	0.091	246141	keystroke	r	n/a
123.266	0.0895	246532	keystroke	y	n/a
123.3255	0.09	246651	keystroke	Key.space	n/a
123.4755	0.151	246951	keystroke	s	n/a
123.6415	0.1345	247283	keystroke	t	n/a
124.181	0.0755	248362	keystroke	Key.backspace	n/a
124.3165	0.15	248633	keystroke	a	n/a
124.3915	0.12	248783	keystroke	t	n/a
124.601	0.09	249202	keystroke	e	n/a
124.706	0.075	249412	keystroke	l	n/a
124.871	0.09	249742	keystroke	l	n/a
125.051	0.135	250102	keystroke	i	n/a
125.141	0.12	250282	keystroke	t	n/a
125.291	0.135	250582	keystroke	e	n/a
125.441	0.12	250882	keystroke	Key.space	n/a
125.726	0.09	251452	keystroke	c	n/a
125.861	0.12	251722	keystroke	a	n/a
126.011	0.1055	252022	keystroke	n	n/a
126.1315	0.09	252263	keystroke	c	n/a
126.3265	0.075	252653	keystroke	e	n/a
126.4765	0.09	252953	keystroke	l	n/a
126.5815	0.09	253163	keystroke	Key.space	n/a
127.0465	0.075	254093	keystroke	v	n/a
127.1365	0.12	254273	keystroke	i	n/a
127.2715	0.075	254543	keystroke	r	n/a
127.4665	0.0895	254933	keystroke	g	n/a
127.571	0.105	255142	keystroke	i	n/a
127.616	0.12	255232	keystroke	n	n/a
127.901	0.075	255802	keystroke	Key.enter	n/a
127.9825	5.4855	255965	prompt	n/a	shakira richard hewlett soil\n
128.741	0.12	257482	keystroke	s	n/a
128.862	0.074	257724	keystroke	h	n/a
128.951	0.09	257902	keystroke	a	n/a
129.056	0.075	258112	keystroke	k	n/a
129.266	0.105	258532	keystroke	i	n/a
129.431	0.135	258862	keystroke	r	n/a
129.731	0.09	259462	keystroke	a	n/a
129.896	0.12	259792	keystroke	Key.space	n/a
130.151	0.075	260302	keystroke	r	n/a
130.211	0.105	260422	keystroke	i	n/a
130.361	0.09	260722	keystroke	c	n/a
130.436	0.105	260872	keystroke	h	n/a
130.691	0.195	261382	keystroke	a	n/a
130.841	0.075	261682	keystroke	r	n/a
131.021	0.12	262042	keystroke	d	n/a
131.111	0.12	262222	keystroke	Key.space	n/a
131.5615	0.12	263123	keystroke	h	n/a
131.6365	0.0895	263273	keystroke	e	n/a
131.831	0.09	263662	keystroke	w	n/a
131.951	0.09	263902	keystroke	l	n/a
132.101	0.09	264202	keystroke	e	n/a
132.401	0.045	264802	keystroke	t	n/a
132.491	0.1355	264982	keystroke	t	n/a
132.6415	0.075	265283	keystroke	Key.space	n/a
132.7615	0.105	265523	keystroke	s	n/a
132.8365	0.09	265673	keystroke	o	n/a
132.9865	0.09	265973	keystroke	i	n/a
133.1515	0.09	266303	keystroke	l	n/a
133.3915	0.075	266783	keystroke	Key.enter	n/a
133.4715	6.1315	266943	prompt	n/a	bibliography mins destruction lock\n
134.156	0.075	268312	keystroke	b	n/a
134.336	0.09	268672	keystroke	i	n/a
134.501	0.075	269002	keystroke	b	n/a
134.681	0.06	269362	keystroke	i	n/a
135.071	0.0755	270142	keystroke	Key.backspace	n/a
135.431	0.09	270862	keystroke	l	n/a
135.611	0.12	271222	keystroke	i	n/a
135.671	0.09	271342	keystroke	o	n/a
135.9115	0.075	271823	keystroke	g	n/a
136.0615	0.09	272123	keystroke	r	n/a
136.1665	0.12	272333	keystroke	a	n/a
136.2565	0.09	272513	keystroke	p	n/a
136.466	0.105	272932	keystroke	h	n/a
136.616	0.105	273232	keystroke	y	n/a
136.706	0.12	273412	keystroke	Key.space	n/a
136.901	0.09	273802	keystroke	m	n/a
137.006	0.12	274012	keystroke	i	n/a
137.096	0.12	274192	keystroke	n	n/a
137.201	0.105	274402	keystroke	s	n/a
137.261	0.12	274522	keystroke	Key.space	n/a
137.411	0.075	274822	keystroke	d	n/a
137.561	0.1205	275122	keystroke	e	n/a
137.6515	0.0895	275303	keystroke	s	n/a
137.786	0.135	275572	keystroke	t	n/a
137.861	0.105	275722	keystroke	r	n/a
137.996	0.105	275992	keystroke	u	n/a
138.086	0.075	276172	keystroke	c	n/a
138.296	0.075	276592	keystroke	t	n/a
138.356	0.2255	276712	keystroke	i	n/a
138.4305	0.1355	276861	keystroke	o	n/a
138.5055	0.1505	277011	keystroke	n	n/a
138.7455	0.1055	277491	keystroke	Key.space	n/a
138.986	0.06	277972	keystroke	l	n/a
139.1355	0.091	278271	keystroke	o	n/a
139.2115	0.09	278423	keystroke	c	n/a
139.3165	0.09	278633	keystroke	k	n/a
139.5115	0.09	279023	keystroke	Key.enter	n/a
139.607	6.071	279214	prompt	n/a	lookup calgary ingredients determine\n
140.1715	0.09	280343	keystroke	l	n/a
140.382	0.059	280764	keystroke	o	n/a
140.516	0.1655	281032	keystroke	o	n/a
140.6215	0.09	281243	keystroke	k	n/a
140.8465	0.075	281693	keystroke	u	n/a
141.0715	0.06	282143	keystroke	p	n/a
141.2215	0.105	282443	keystroke	Key.space	n/a
141.551	0.135	283102	keystroke	c	n/a
141.641	0.105	283282	keystroke	a	n/a
141.716	0.105	283432	keystroke	l	n/a
141.926	0.075	283852	keystroke	g	n/a
142.061	0.18	284122	keystroke	a	n/a
142.196	0.105	284392	keystroke	r	n/a
142.406	0.075	284812	keystroke	y	n/a
142.451	0.105	284902	keystroke	Key.space	n/a
142.5865	0.12	285173	keystroke	i	n/a
142.6615	0.195	285323	keystroke	n	n/a
142.7815	0.105	285563	keystroke	g	n/a
142.9915	0.165	285983	keystroke	r	n/a
143.0965	0.12	286193	keystroke	e	n/a
143.3365	0.09	286673	keystroke	d	n/a
143.6215	0.09	287243	keystroke	i	n/a
143.7415	0.105	287483	keystroke	e	n/a
143.8765	0.105	287753	keystroke	n	n/a
143.9515	0.12	287903	keystroke	t	n/a
144.0415	0.165	288083	keystroke	s	n/a
144.1615	0.135	288323	keystroke	Key.space	n/a
144.386	0.09	288772	keystroke	d	n/a
144.536	0.075	289072	keystroke	e	n/a
144.686	0.09	289372	keystroke	t	n/a
144.791	0.12	289582	keystroke	e	n/a
144.881	0.12	289762	keystroke	r	n/a
145.046	0.105	290092	keystroke	m	n/a
145.211	0.136	290422	keystroke	i	n/a
145.302	0.119	290604	keystroke	n	n/a
145.391	0.075	290782	keystroke	e	n/a
145.601	0.075	291202	keystroke	Key.enter	n/a
145.681	3.702	291362	prompt	n/a	chronic mind refinance at\n
146.2915	0.105	292583	keystroke	c	n/a
146.3815	0.09	292763	keystroke	h	n/a
146.5165	0.09	293033	keystroke	r	n/a
146.5765	0.09	293153	keystroke	o	n/a
146.7265	0.09	293453	keystroke	n	n/a
146.8315	0.12	293663	keystroke	i	n/a
146.9365	0.105	293873	keystroke	c	n/a
147.0565	0.09	294113	keystroke	Key.space	n/a
147.2515	0.06	294503	keystroke	m	n/a
147.3415	0.105	294683	keystroke	i	n/a
147.4315	0.1045	294863	keystroke	n	n/a
147.521	0.12	295042	keystroke	d	n/a
147.596	0.135	295192	keystroke	Key.space	n/a
147.881	0.135	295762	keystroke	r	n/a
147.956	0.105	295912	keystroke	e	n/a
148.151	0.105	296302	keystroke	f	n/a
148.256	0.105	296512	keystroke	i	n/a
148.301	0.12	296602	keystroke	n	n/a
148.436	0.09	296872	keystroke	a	n/a
148.556	0.135	297112	keystroke	n	n/a
148.661	0.1205	297322	keystroke	c	n/a
148.7515	0.105	297503	keystroke	e	n/a
148.8265	0.135	297653	keystroke	Key.space	n/a
148.9465	0.105	297893	keystroke	a	n/a
149.1565	0.06	298313	keystroke	t	n/a
149.3065	0.075	298613	keystroke	Key.enter	n/a
149.386	6.0265	298772	prompt	n/a	consistency spaces inbox sufficient\n
149.951	0.09	299902	keystroke	c	n/a
150.056	0.105	300112	keystroke	o	n/a
150.146	0.09	300292	keystroke	n	n/a
150.281	0.0755	300562	keystroke	s	n/a
150.3865	0.105	300773	keystroke	i	n/a
150.7765	0.105	301553	keystroke	s	n/a
151.0465	0.075	302093	keystroke	t	n/a
151.1665	0.075	302333	keystroke	e	n/a
151.2865	0.105	302573	keystroke	n	n/a
151.3465	0.09	302693	keystroke	c	n/a
151.6165	0.075	303233	keystroke	y	n/a
151.7215	0.135	303443	keystroke	Key.space	n/a
152.1265	0.075	304253	keystroke	s	n/a
152.2165	0.105	304433	keystroke	p	n/a
152.351	0.12	304702	keystroke	a	n/a
152.532	0.135	305064	keystroke	c	n/a
152.636	0.165	305272	keystroke	e	n/a
152.727	0.135	305454	keystroke	s	n/a
152.816	0.135	305632	keystroke	Key.space	n/a
153.056	0.121	306112	keystroke	i	n/a
153.117	0.12	306234	keystroke	n	n/a
153.477	0.074	306954	keystroke	b	n/a
153.6865	0.06	307373	keystroke	o	n/a
153.8215	0.105	307643	keystroke	x	n/a
153.9415	0.135	307883	keystroke	Key.space	n/a
154.0915	0.09	308183	keystroke	s	n/a
154.1665	0.105	308333	keystroke	u	n/a
154.2865	0.06	308573	keystroke	f	n/a
154.4065	0.075	308813	keystroke	f	n/a
154.5115	0.09	309023	keystroke	i	n/a
154.5865	0.1045	309173	keystroke	c	n/a
154.706	0.105	309412	keystroke	i	n/a
154.841	0.09	309682	keystroke	e	n/a
154.932	0.1195	309864	keystroke	n	n/a
155.1115	0.0895	310223	keystroke	t	n/a
155.3215	0.09	310643	keystroke	Key.enter	n/a
155.4165	4.8415	310833	prompt	n/a	integrating bills stories rouge\n
155.9965	0.105	311993	keystroke	i	n/a
156.0565	0.12	312113	keystroke	n	n/a
156.3115	0.105	312623	keystroke	t	n/a
156.4915	0.09	312983	keystroke	e	n/a
156.7615	0.075	313523	keystroke	g	n/a
156.9415	0.09	313883	keystroke	r	n/a
157.0315	0.09	314063	keystroke	a	n/a
157.1815	0.09	314363	keystroke	t	n/a
157.2865	0.135	314573	keystroke	i	n/a
157.3465	0.12	314693	keystroke	n	n/a
157.4515	0.09	314903	keystroke	g	n/a
157.5265	0.135	315053	keystroke	Key.space	n/a
157.7515	0.06	315503	keystroke	b	n/a
157.8565	0.105	315713	keystroke	i	n/a
158.0965	0.045	316193	keystroke	l	n/a
158.336	0.03	316672	keystroke	l	n/a
158.351	0.105	316702	keystroke	s	n/a
158.441	0.165	316882	keystroke	Key.space	n/a
158.576	0.15	317152	keystroke	s	n/a
158.711	0.075	317422	keystroke	t	n/a
158.801	0.105	317602	keystroke	o	n/a
158.906	0.075	317812	keystroke	r	n/a
159.026	0.105	318052	keystroke	i	n/a
159.116	0.12	318232	keystroke	e	n/a
159.191	0.165	318382	keystroke	s	n/a
159.326	0.135	318652	keystroke	Key.space	n/a
159.521	0.12	319042	keystroke	r	n/a
159.596	0.1505	319192	keystroke	o	n/a
159.7015	0.105	319403	keystroke	u	n/a
159.8215	0.075	319643	keystroke	g	n/a
159.9115	0.105	319823	keystroke	h	n/a
160.0015	0.09	320003	keystroke	e	n/a
160.1515	0.105	320303	keystroke	Key.enter	n/a
160.261	5.847	320522	prompt	n/a	foundation surplus champions club\n
161.396	0.105	322792	keystroke	f	n/a
161.456	0.12	322912	keystroke	o	n/a
161.531	0.09	323062	keystroke	u	n/a
161.696	0.105	323392	keystroke	n	n/a
161.786	0.105	323572	keystroke	d	n/a
162.056	0.165	324112	keystroke	a	n/a
162.356	0.0605	324712	keystroke	t	n/a
162.4315	0.27	324863	keystroke	i	n/a
162.5065	0.18	325013	keystroke	o	n/a
162.5965	0.15	325193	keystroke	n	n/a
162.6715	0.12	325343	keystroke	Key.space	n/a
162.8515	0.105	325703	keystroke	s	n/a
162.9265	0.105	325853	keystroke	u	n/a
163.0915	0.09	326183	keystroke	r	n/a
163.2115	0.09	326423	keystroke	p	n/a
163.4815	0.09	326963	keystroke	l	n/a
163.7065	0.105	327413	keystroke	u	n/a
163.8715	0.135	327743	keystroke	s	n/a
163.9615	0.105	327923	keystroke	Key.space	n/a
164.1115	0.0905	328223	keystroke	c	n/a
164.1715	0.1055	328343	keystroke	h	n/a
164.2615	0.12	328523	keystroke	a	n/a
164.3965	0.06	328793	keystroke	m	n/a
164.5765	0.0605	329153	keystroke	p	n/a
164.771	0.255	329542	keystroke	i	n/a
164.846	0.135	329692	keystroke	o	n/a
164.936	0.15	329872	keystroke	n	n/a
165.1015	0.12	330203	keystroke	s	n/a
165.1915	0.105	330383	keystroke	Key.space	n/a
165.3265	0.0895	330653	keystroke	c	n/a
165.3865	0.0745	330773	keystroke	l	n/a
165.566	0.12	331132	keystroke	u	n/a
165.686	0.1205	331372	keystroke	b	n/a
166.0315	0.0745	332063	keystroke	Key.enter	n/a
166.1115	5.6815	332223	prompt	n/a	exec stability senegal submissions\n
166.7215	0.075	333443	keystroke	e	n/a
166.9465	0.09	333893	keystroke	x	n/a
167.2165	0.105	334433	keystroke	e	n/a
167.4115	0.1045	334823	keystroke	c	n/a
167.591	0.105	335182	keystroke	Key.space	n/a
167.816	0.12	335632	keystroke	s	n/a
167.951	0.12	335902	keystroke	t	n/a
168.056	0.18	336112	keystroke	a	n/a
168.221	0.1205	336442	keystroke	b	n/a
168.326	0.1805	336652	keystroke	i	n/a
168.4015	0.09	336803	keystroke	l	n/a
168.5965	0.105	337193	keystroke	i	n/a
168.6715	0.09	337343	keystroke	t	n/a
168.8665	0.105	337733	keystroke	y	n/a
168.9565	0.135	337913	keystroke	Key.space	n/a
169.1215	0.1645	338243	keystroke	s	n/a
169.256	0.1205	338512	keystroke	e	n/a
169.4965	0.105	338993	keystroke	n	n/a
169.6165	0.09	339233	keystroke	e	n/a
169.8115	0.09	339623	keystroke	g	n/a
169.9915	0.09	339983	keystroke	a	n/a
170.0965	0.09	340193	keystroke	l	n/a
170.1865	0.12	340373	keystroke	Key.space	n/a
170.3665	0.12	340733	keystroke	s	n/a
170.4565	0.1195	340913	keystroke	u	n/a
170.532	0.105	341064	keystroke	b	n/a
170.757	0.075	341514	keystroke	m	n/a
170.892	0.089	341784	keystroke	i	n/a
171.042	0.059	342084	keystroke	s	n/a
171.1615	0.105	342323	keystroke	s	n/a
171.2815	0.195	342563	keystroke	i	n/a
171.3415	0.12	342683	keystroke	o	n/a
171.4015	0.135	342803	keystroke	n	n/a
171.5065	0.105	343013	keystroke	s	n/a
171.6865	0.105	343373	keystroke	Key.enter	n/a
171.796	7.152	343592	prompt	n/a	august filling source immediate\n
172.361	0.0305	344722	keystroke	e	n/a
172.7515	0.075	345503	keystroke	Key.backspace	n/a
173.0365	0.135	346073	keystroke	a	n/a
173.1265	0.12	346253	keystroke	u	n/a
173.2765	0.09	346553	keystroke	g	n/a
173.3815	0.12	346763	keystroke	u	n/a
173.4715	0.15	346943	keystroke	s	n/a
173.5915	0.12	347183	keystroke	t	n/a
173.6665	0.165	347333	keystroke	Key.space	n/a
174.1165	0.135	348233	keystroke	f	n/a
174.2515	0.075	348503	keystroke	i	n/a
174.4915	0.09	348983	keystroke	l	n/a
176.1115	0.0595	352223	keystroke	l	n/a
176.306	0.12	352612	keystroke	i	n/a
176.366	0.136	352732	keystroke	n	n/a
176.471	0.12	352942	keystroke	g	n/a
176.546	0.15	353092	keystroke	Key.space	n/a
176.741	0.135	353482	keystroke	s	n/a
176.817	0.134	353634	keystroke	o	n/a
176.921	0.121	353842	keystroke	u	n/a
176.966	0.09	353932	keystroke	r	n/a
177.161	0.1355	354322	keystroke	c	n/a
177.2515	0.12	354503	keystroke	e	n/a
177.3265	0.1195	354653	keystroke	Key.space	n/a
177.461	0.105	354922	keystroke	i	n/a
177.641	0.075	355282	keystroke	m	n/a
177.776	0.1055	355552	keystroke	m	n/a
177.8965	0.09	355793	keystroke	e	n/a
178.0915	0.09	356183	keystroke	d	n/a
178.1965	0.09	356393	keystroke	i	n/a
178.2865	0.1195	356573	keystroke	a	n/a
178.511	0.12	357022	keystroke	t	n/a
178.571	0.12	357142	keystroke	e	n/a
178.842	0.105	357684	keystroke	Key.enter	n/a
178.9515	5.7875	357903	prompt	n/a	join generating marked chronicles\n
179.547	0.09	359094	keystroke	j	n/a
179.682	0.0745	359364	keystroke	o	n/a
179.8615	0.135	359723	keystroke	i	n/a
179.9365	0.12	359873	keystroke	n	n/a
180.0115	0.12	360023	keystroke	Key.space	n/a
180.4015	0.09	360803	keystroke	g	n/a
180.5965	0.045	361193	keystroke	e	n/a
180.6715	0.105	361343	keystroke	n	n/a
180.7465	0.165	361493	keystroke	e	n/a
180.8665	0.1195	361733	keystroke	r	n/a
181.302	0.164	362604	keystroke	a	n/a
181.451	0.09	362902	keystroke	t	n/a
181.556	0.165	363112	keystroke	i	n/a
181.676	0.12	363352	keystroke	n	n/a
181.766	0.105	363532	keystroke	g	n/a
181.976	0.105	363952	keystroke	Key.space	n/a
182.201	0.09	364402	keystroke	m	n/a
182.276	0.1205	364552	keystroke	a	n/a
182.366	0.105	364732	keystroke	r	n/a
182.456	0.09	364912	keystroke	k	n/a
182.531	0.075	365062	keystroke	e	n/a
182.681	0.12	365362	keystroke	d	n/a
182.771	0.091	365542	keystroke	Key.space	n/a
182.907	0.075	365814	keystroke	c	n/a
182.952	0.135	365904	keystroke	h	n/a
183.132	0.104	366264	keystroke	r	n/a
183.252	0.09	366504	keystroke	o	n/a
183.402	0.12	366804	keystroke	n	n/a
183.762	0.09	367524	keystroke	i	n/a
184.002	0.075	368004	keystroke	c	n/a
184.167	0.104	368334	keystroke	l	n/a
184.347	0.164	368694	keystroke	e	n/a
184.467	0.12	368934	keystroke	s	n/a
184.647	0.09	369294	keystroke	Key.enter	n/a
184.744	5.049	369488	prompt	n/a	falling traditional james solving\n
185.382	0.09	370764	keystroke	f	n/a
185.501	0.1055	371002	keystroke	a	n/a
185.6215	0.075	371243	keystroke	l	n/a
185.7715	0.075	371543	keystroke	l	n/a
185.9815	0.12	371963	keystroke	i	n/a
186.0415	0.15	372083	keystroke	n	n/a
186.1465	0.105	372293	keystroke	g	n/a
186.2065	0.1495	372413	keystroke	Key.space	n/a
186.402	0.044	372804	keystroke	t	n/a
186.536	0.12	373072	keystroke	r	n/a
186.657	0.134	373314	keystroke	a	n/a
187.061	0.075	374122	keystroke	d	n/a
187.241	0.09	374482	keystroke	i	n/a
187.406	0.075	374812	keystroke	t	n/a
187.511	0.18	375022	keystroke	i	n/a
187.556	0.12	375112	keystroke	o	n/a
187.631	0.135	375262	keystroke	n	n/a
187.736	0.09	375472	keystroke	a	n/a
187.857	0.104	375714	keystroke	l	n/a
187.991	0.105	375982	keystroke	Key.space	n/a
188.306	0.09	376612	keystroke	j	n/a
188.411	0.075	376822	keystroke	a	n/a
188.516	0.105	377032	keystroke	m	n/a
188.606	0.121	377212	keystroke	e	n/a
188.667	0.135	377334	keystroke	s	n/a
188.756	0.1205	377512	keystroke	Key.space	n/a
188.9215	0.12	377843	keystroke	s	n/a
188.9965	0.075	377993	keystroke	o	n/a
189.1315	0.105	378263	keystroke	l	n/a
189.2665	0.105	378533	keystroke	v	n/a
189.3565	0.12	378713	keystroke	i	n/a
189.4165	0.105	378833	keystroke	n	n/a
189.5065	0.075	379013	keystroke	g	n/a
189.732	0.06	379464	keystroke	Key.enter	n/a
189.796	5.847	379592	prompt	n/a	progressive life southeast friends\n
190.5865	0.0895	381173	keystroke	p	n/a
190.691	0.045	381382	keystroke	r	n/a
190.781	0.105	381562	keystroke	o	n/a
190.871	0.045	381742	keystroke	g	n/a
190.901	0.016	381802	keystroke	f	n/a
191.0065	0.1055	382013	keystroke	r	n/a
191.4565	0.06	382913	keystroke	Key.backspace	n/a
191.6215	0.0905	383243	keystroke	Key.backspace	n/a
192.027	0.1195	384054	keystroke	r	n/a
192.1615	0.0905	384323	keystroke	e	n/a
192.3715	0.0605	384743	keystroke	s	n/a
192.492	0.09	384984	keystroke	s	n/a
192.597	0.12	385194	keystroke	i	n/a
192.672	0.12	385344	keystroke	v	n/a
192.777	0.105	385554	keystroke	e	n/a
192.852	0.135	385704	keystroke	Key.space	n/a
192.957	0.09	385914	keystroke	l	n/a
193.122	0.105	386244	keystroke	i	n/a
193.197	0.15	386394	keystroke	f	n/a
193.257	0.105	386514	keystroke	e	n/a
193.332	0.165	386664	keystroke	Key.space	n/a
193.482	0.165	386964	keystroke	s	n/a
193.542	0.135	387084	keystroke	o	n/a
193.632	0.1195	387264	keystroke	u	n/a
193.7365	0.105	387473	keystroke	t	n/a
193.8565	0.12	387713	keystroke	h	n/a
194.0515	0.12	388103	keystroke	e	n/a
194.2315	0.21	388463	keystroke	a	n/a
194.3665	0.12	388733	keystroke	s	n/a
194.5765	0.105	389153	keystroke	t	n/a
194.6665	0.105	389333	keystroke	Key.space	n/a
194.8165	0.075	389633	keystroke	f	n/a
194.9815	0.075	389963	keystroke	r	n/a
195.0715	0.09	390143	keystroke	i	n/a
195.1465	0.09	390293	keystroke	e	n/a
195.252	0.09	390504	keystroke	n	n/a
195.326	0.121	390652	keystroke	d	n/a
195.402	0.105	390804	keystroke	s	n/a
195.552	0.089	391104	keystroke	Key.enter	n/a
195.646	5.502	391292	prompt	n/a	belief recommended gotten diversity\n
196.3015	0.105	392603	keystroke	b	n/a
196.3915	0.0745	392783	keystroke	e	n/a
196.481	0.045	392962	keystroke	l	n/a
196.601	0.09	393202	keystroke	i	n/a
196.661	0.09	393322	keystroke	e	n/a
196.796	0.12	393592	keystroke	f	n/a
196.961	0.12	393922	keystroke	Key.space	n/a
197.306	0.12	394612	keystroke	r	n/a
197.381	0.105	394762	keystroke	e	n/a
197.561	0.09	395122	keystroke	c	n/a
197.666	0.075	395332	keystroke	o	n/a
197.847	0.06	395694	keystroke	m	n/a
197.967	0.09	395934	keystroke	m	n/a
198.117	0.09	396234	keystroke	e	n/a
198.222	0.09	396444	keystroke	n	n/a
198.432	0.09	396864	keystroke	d	n/a
198.597	0.075	397194	keystroke	e	n/a
198.777	0.09	397554	keystroke	d	n/a
198.837	0.12	397674	keystroke	Key.space	n/a
199.107	0.0895	398214	keystroke	g	n/a
199.1975	0.074	398395	keystroke	o	n/a
199.3315	0.045	398663	keystroke	t	n/a
199.4365	0.09	398873	keystroke	t	n/a
199.5715	0.09	399143	keystroke	e	n/a
199.6915	0.105	399383	keystroke	n	n/a
199.7515	0.12	399503	keystroke	Key.space	n/a
199.9015	0.075	399803	keystroke	d	n/a
200.0065	0.12	400013	keystroke	i	n/a
200.0965	0.09	400193	keystroke	v	n/a
200.2765	0.0755	400553	keystroke	e	n/a
200.337	0.045	400674	keystroke	r	n/a
200.487	0.1195	400974	keystroke	s	n/a
200.6215	0.105	401243	keystroke	i	n/a
200.7275	0.074	401455	keystroke	t	n/a
200.9065	0.06	401813	keystroke	y	n/a
201.1015	0.045	402203	keystroke	Key.enter	n/a
201.1515	5.5765	402303	prompt	n/a	takes constructed level rica\n
202.017	0.0895	404034	keystroke	t	n/a
202.1965	0.06	404393	keystroke	a	n/a
202.2715	0.09	404543	keystroke	k	n/a
202.3465	0.1505	404693	keystroke	e	n/a
202.452	0.12	404904	keystroke	s	n/a
202.527	0.165	405054	keystroke	Key.space	n/a
202.677	0.09	405354	keystroke	s	n/a
203.096	0.075	406192	keystroke	Key.backspace	n/a
203.3665	0.12	406733	keystroke	c	n/a
203.4715	0.075	406943	keystroke	o	n/a
203.6815	0.06	407363	keystroke	n	n/a
203.6965	0.09	407393	keystroke	s	n/a
203.8315	0.135	407663	keystroke	t	n/a
203.9065	0.09	407813	keystroke	r	n/a
204.0115	0.105	408023	keystroke	u	n/a
204.1015	0.105	408203	keystroke	c	n/a
204.3115	0.1055	408623	keystroke	t	n/a
204.432	0.09	408864	keystroke	e	n/a
204.582	0.135	409164	keystroke	d	n/a
204.672	0.135	409344	keystroke	Key.space	n/a
204.912	0.15	409824	keystroke	l	n/a
205.137	0.105	410274	keystroke	e	n/a
205.332	0.075	410664	keystroke	v	n/a
205.452	0.06	410904	keystroke	e	n/a
205.797	0.09	411594	keystroke	l	n/a
205.932	0.12	411864	keystroke	Key.space	n/a
206.112	0.075	412224	keystroke	r	n/a
206.187	0.12	412374	keystroke	i	n/a
206.322	0.105	412644	keystroke	c	n/a
206.397	0.12	412794	keystroke	a	n/a
206.652	0.075	413304	keystroke	Key.enter	n/a
206.731	5.6525	413462	prompt	n/a	instrument path transformation reducing\n
207.387	0.12	414774	keystroke	i	n/a
207.462	0.12	414924	keystroke	n	n/a
207.492	0.105	414984	keystroke	s	n/a
207.642	0.105	415284	keystroke	t	n/a
207.717	0.06	415434	keystroke	r	n/a
207.762	0.09	415524	keystroke	u	n/a
208.017	0.075	416034	keystroke	m	n/a
208.122	0.0895	416244	keystroke	e	n/a
208.2265	0.075	416453	keystroke	n	n/a
208.2865	0.1205	416573	keystroke	t	n/a
208.377	0.105	416754	keystroke	Key.space	n/a
208.767	0.075	417534	keystroke	p	n/a
208.872	0.12	417744	keystroke	a	n/a
208.947	0.09	417894	keystroke	t	n/a
209.022	0.105	418044	keystroke	h	n/a
209.142	0.12	418284	keystroke	Key.space	n/a
209.472	0.135	418944	keystroke	t	n/a
209.547	0.09	419094	keystroke	r	n/a
209.727	0.09	419454	keystroke	a	n/a
209.847	0.105	419694	keystroke	n	n/a
209.937	0.105	419874	keystroke	s	n/a
210.1615	0.105	420323	keystroke	f	n/a
210.2815	0.1055	420563	keystroke	o	n/a
210.567	0.0895	421134	keystroke	r	n/a
210.7765	0.105	421553	keystroke	m	n/a
210.9265	0.135	421853	keystroke	a	n/a
211.0315	0.105	422063	keystroke	t	n/a
211.0915	0.225	422183	keystroke	i	n/a
211.1665	0.135	422333	keystroke	o	n/a
211.2415	0.135	422483	keystroke	n	n/a
211.3615	0.1505	422723	keystroke	Key.space	n/a
211.4815	0.1355	422963	keystroke	r	n/a
211.557	0.105	423114	keystroke	e	n/a
211.737	0.15	423474	keystroke	d	n/a
211.842	0.105	423684	keystroke	u	n/a
211.932	0.09	423864	keystroke	c	n/a
212.052	0.12	424104	keystroke	i	n/a
212.127	0.09	424254	keystroke	n	n/a
212.187	0.075	424374	keystroke	g	n/a
212.307	0.075	424614	keystroke	Key.enter	n/a
212.386	6.477	424772	prompt	n/a	forget calendar any you'll\n
212.9365	0.165	425873	keystroke	r	n/a
213.0565	0.135	426113	keystroke	e	n/a
213.4765	0.075	426953	keystroke	Key.backspace	n/a
214.1665	0.06	428333	keystroke	Key.backspace	n/a
214.3015	0.0745	428603	keystroke	Key.backspace	n/a
214.662	0.06	429324	keystroke	f	n/a
214.737	0.075	429474	keystroke	o	n/a
214.841	0.09	429682	keystroke	r	n/a
215.021	0.106	430042	keystroke	g	n/a
215.171	0.135	430342	keystroke	e	n/a
215.262	0.105	430524	keystroke	t	n/a
215.336	0.15	430672	keystroke	Key.space	n/a
215.606	0.0905	431212	keystroke	c	n/a
215.7265	0.12	431453	keystroke	a	n/a
216.2215	0.09	432443	keystroke	l	n/a
216.342	0.105	432684	keystroke	e	n/a
216.492	0.09	432984	keystroke	n	n/a
216.567	0.09	433134	keystroke	d	n/a
216.732	0.1645	433464	keystroke	a	n/a
216.882	0.1195	433764	keystroke	r	n/a
216.9865	0.105	433973	keystroke	Key.space	n/a
217.3165	0.09	434633	keystroke	a	n/a
217.4365	0.0905	434873	keystroke	n	n/a
217.542	0.09	435084	keystroke	y	n/a
217.617	0.105	435234	keystroke	Key.space	n/a
217.842	0.075	435684	keystroke	y	n/a
217.902	0.165	435804	keystroke	o	n/a
217.992	0.15	435984	keystroke	u	n/a
218.127	0.135	436254	keystroke	'	n/a
218.397	0.06	436794	keystroke	l	n/a
218.517	0.135	437034	keystroke	l	n/a
218.817	0.045	437634	keystroke	Key.enter	n/a
218.866	7.9775	437732	prompt	n/a	performing missile arctic stuff\n
219.9865	0.09	439973	keystroke	p	n/a
220.0625	0.135	440125	keystroke	e	n/a
220.1365	0.075	440273	keystroke	r	n/a
220.3015	0.0905	440603	keystroke	f	n/a
220.377	0.09	440754	keystroke	o	n/a
220.482	0.09	440964	keystroke	r	n/a
220.587	0.09	441174	keystroke	m	n/a
220.662	0.075	441324	keystroke	e	n/a
221.2015	0.06	442403	keystroke	Key.backspace	n/a
221.8915	0.105	443783	keystroke	i	n/a
221.9365	0.1205	443873	keystroke	n	n/a
221.9815	0.1205	443963	keystroke	g	n/a
222.072	0.135	444144	keystroke	Key.space	n/a
222.357	0.06	444714	keystroke	m	n/a
222.447	0.09	444894	keystroke	i	n/a
222.582	0.06	445164	keystroke	s	n/a
222.702	0.105	445404	keystroke	s	n/a
222.822	0.24	445644	keystroke	i	n/a
222.942	0.165	445884	keystroke	l	n/a
223.077	0.105	446154	keystroke	e	n/a
223.227	0.105	446454	keystroke	Key.space	n/a
223.482	0.165	446964	keystroke	a	n/a
223.617	0.0895	447234	keystroke	r	n/a
223.8265	0.105	447653	keystroke	c	n/a
224.0665	0.045	448133	keystroke	t	n/a
224.1565	0.105	448313	keystroke	i	n/a
224.5465	0.09	449093	keystroke	c	n/a
224.7415	0.1055	449483	keystroke	Key.space	n/a
224.997	0.15	449994	keystroke	s	n/a
225.132	0.105	450264	keystroke	u	n/a
225.192	0.09	450384	keystroke	t	n/a
225.717	0.06	451434	keystroke	Key.backspace	n/a
225.852	0.06	451704	keystroke	Key.backspace	n/a
225.927	0.12	451854	keystroke	t	n/a
226.182	0.105	452364	keystroke	u	n/a
226.302	0.09	452604	keystroke	f	n/a
226.497	0.09	452994	keystroke	f	n/a
226.737	0.105	453474	keystroke	Key.enter	n/a
226.8465	6.072	453693	prompt	n/a	elizabeth skin reporting vocals\n
227.412	0.0895	454824	keystroke	e	n/a
227.5465	0.075	455093	keystroke	l	n/a
227.7415	0.0905	455483	keystroke	i	n/a
227.937	0.09	455874	keystroke	z	n/a
228.147	0.1045	456294	keystroke	a	n/a
228.537	0.09	457074	keystroke	b	n/a
228.657	0.105	457314	keystroke	e	n/a
228.837	0.09	457674	keystroke	t	n/a
228.957	0.105	457914	keystroke	h	n/a
229.077	0.105	458154	keystroke	Key.space	n/a
230.217	0.09	460434	keystroke	s	n/a
230.292	0.0745	460584	keystroke	k	n/a
230.4715	0.105	460943	keystroke	i	n/a
230.5165	0.12	461033	keystroke	n	n/a
230.6215	0.12	461243	keystroke	Key.space	n/a
230.8615	0.135	461723	keystroke	r	n/a
230.9365	0.09	461873	keystroke	e	n/a
231.0115	0.06	462023	keystroke	p	n/a
231.1465	0.09	462293	keystroke	o	n/a
231.1915	0.09	462383	keystroke	r	n/a
231.3415	0.09	462683	keystroke	t	n/a
231.4165	0.105	462833	keystroke	i	n/a
231.4615	0.12	462923	keystroke	n	n/a
231.5365	0.09	463073	keystroke	g	n/a
231.5815	0.09	463163	keystroke	Key.space	n/a
231.927	0.12	463854	keystroke	v	n/a
232.077	0.09	464154	keystroke	o	n/a
232.332	0.135	464664	keystroke	c	n/a
232.4515	0.075	464903	keystroke	a	n/a
232.5715	0.105	465143	keystroke	l	n/a
232.6915	0.09	465383	keystroke	s	n/a
232.8265	0.09	465653	keystroke	Key.enter	n/a
232.9225	4.661	465845	prompt	n/a	products popular jean forwarding\n
233.4865	0.075	466973	keystroke	p	n/a
233.5625	0.089	467125	keystroke	r	n/a
233.6665	0.09	467333	keystroke	o	n/a
233.7715	0.075	467543	keystroke	d	n/a
233.8765	0.09	467753	keystroke	u	n/a
233.9515	0.09	467903	keystroke	c	n/a
234.1615	0.12	468323	keystroke	t	n/a
234.2665	0.1205	468533	keystroke	s	n/a
234.3265	0.1355	468653	keystroke	Key.space	n/a
234.492	0.075	468984	keystroke	p	n/a
234.6715	0.075	469343	keystroke	o	n/a
234.8215	0.09	469643	keystroke	p	n/a
235.0315	0.075	470063	keystroke	u	n/a
235.2115	0.09	470423	keystroke	l	n/a
235.3165	0.1655	470633	keystroke	a	n/a
235.4215	0.15	470843	keystroke	r	n/a
235.6015	0.09	471203	keystroke	Key.space	n/a
235.9165	0.075	471833	keystroke	j	n/a
235.9615	0.105	471923	keystroke	e	n/a
236.0215	0.12	472043	keystroke	a	n/a
236.1565	0.105	472313	keystroke	n	n/a
236.2465	0.12	472493	keystroke	Key.space	n/a
236.3965	0.1055	472793	keystroke	f	n/a
236.486	0.091	472972	keystroke	o	n/a
236.607	0.104	473214	keystroke	r	n/a
236.772	0.134	473544	keystroke	w	n/a
236.831	0.195	473662	keystroke	a	n/a
236.952	0.12	473904	keystroke	r	n/a
237.117	0.09	474234	keystroke	d	n/a
237.237	0.1195	474474	keystroke	i	n/a
237.297	0.0895	474594	keystroke	n	n/a
237.3715	0.075	474743	keystroke	g	n/a
237.492	0.0895	474984	keystroke	Key.enter	n/a
237.587	5.1715	475174	prompt	n/a	unix biol atlas violin\n
238.3615	0.105	476723	keystroke	u	n/a
238.4515	0.06	476903	keystroke	n	n/a
238.572	0.1045	477144	keystroke	i	n/a
238.7065	0.12	477413	keystroke	x	n/a
238.8565	0.105	477713	keystroke	Key.space	n/a
239.277	0.075	478554	keystroke	b	n/a
239.442	0.18	478884	keystroke	i	n/a
239.517	0.12	479034	keystroke	o	n/a
239.727	0.105	479454	keystroke	l	n/a
240.0265	0.105	480053	keystroke	Key.space	n/a
240.1915	0.09	480383	keystroke	a	n/a
240.3265	0.09	480653	keystroke	t	n/a
240.447	0.105	480894	keystroke	l	n/a
240.537	0.18	481074	keystroke	a	n/a
240.672	0.1195	481344	keystroke	s	n/a
240.7615	0.12	481523	keystroke	Key.space	n/a
241.3315	0.1205	482663	keystroke	v	n/a
241.4365	0.1655	482873	keystroke	i	n/a
241.512	0.105	483024	keystroke	o	n/a
241.707	0.09	483414	keystroke	l	n/a
241.902	0.12	483804	keystroke	i	n/a
241.962	0.105	483924	keystroke	n	n/a
242.6815	0.075	485363	keystroke	Key.enter	n/a
242.762	6.6715	485524	prompt	n/a	secret advertising pulse attractive\n
243.537	0.165	487074	keystroke	s	n/a
243.642	0.15	487284	keystroke	e	n/a
243.807	0.105	487614	keystroke	c	n/a
244.032	0.12	488064	keystroke	r	n/a
244.107	0.105	488214	keystroke	e	n/a
244.302	0.09	488604	keystroke	t	n/a
244.347	0.12	488694	keystroke	Key.space	n/a
244.617	0.12	489234	keystroke	d	n/a
245.5465	0.105	491093	keystroke	Key.backspace	n/a
245.6665	0.18	491333	keystroke	a	n/a
245.7715	0.105	491543	keystroke	d	n/a
245.9815	0.076	491963	keystroke	v	n/a
246.1315	0.105	492263	keystroke	e	n/a
246.1915	0.075	492383	keystroke	r	n/a
246.357	0.075	492714	keystroke	t	n/a
246.447	0.0895	492894	keystroke	i	n/a
246.5515	0.075	493103	keystroke	s	n/a
246.6415	0.105	493283	keystroke	i	n/a
246.6865	0.135	493373	keystroke	n	n/a
246.7765	0.105	493553	keystroke	g	n/a
246.8515	0.135	493703	keystroke	Key.space	n/a
247.0465	0.075	494093	keystroke	p	n/a
247.2565	0.075	494513	keystroke	u	n/a
247.4365	0.0905	494873	keystroke	l	n/a
247.542	0.1495	495084	keystroke	s	n/a
247.632	0.1195	495264	keystroke	e	n/a
247.7365	0.105	495473	keystroke	Key.space	n/a
247.8265	0.105	495653	keystroke	a	n/a
248.0515	0.045	496103	keystroke	t	n/a
248.1565	0.105	496313	keystroke	t	n/a
248.337	0.105	496674	keystroke	r	n/a
248.442	0.21	496884	keystroke	a	n/a
248.592	0.105	497184	keystroke	c	n/a
248.802	0.075	497604	keystroke	t	n/a
248.952	0.105	497904	keystroke	i	n/a
249.012	0.135	498024	keystroke	v	n/a
249.132	0.105	498264	keystroke	e	n/a
249.327	0.105	498654	keystroke	Key.enter	n/a
249.438	5.2005	498876	prompt	n/a	sailing became bleeding trustee\n
250.017	0.105	500034	keystroke	s	n/a
250.227	0.12	500454	keystroke	a	n/a
250.332	0.18	500664	keystroke	i	n/a
250.392	0.105	500784	keystroke	l	n/a
250.617	0.12	501234	keystroke	i	n/a
250.677	0.135	501354	keystroke	n	n/a
250.797	0.105	501594	keystroke	g	n/a
250.872	0.1345	501744	keystroke	Key.space	n/a
251.1265	0.075	502253	keystroke	b	n/a
251.3365	0.075	502673	keystroke	e	n/a
251.5465	0.105	503093	keystroke	c	n/a
251.6815	0.09	503363	keystroke	a	n/a
251.8015	0.09	503603	keystroke	m	n/a
251.9065	0.12	503813	keystroke	e	n/a
252.0415	0.105	504083	keystroke	Key.space	n/a
252.2215	0.075	504443	keystroke	b	n/a
252.3415	0.09	504683	keystroke	l	n/a
252.4465	0.075	504893	keystroke	e	n/a
252.5815	0.075	505163	keystroke	e	n/a
252.7615	0.09	505523	keystroke	d	n/a
252.8065	0.12	505613	keystroke	i	n/a
252.8665	0.135	505733	keystroke	n	n/a
252.9415	0.105	505883	keystroke	g	n/a
253.0165	0.105	506033	keystroke	Key.space	n/a
253.1665	0.12	506333	keystroke	t	n/a
253.2415	0.105	506483	keystroke	r	n/a
253.3765	0.105	506753	keystroke	u	n/a
253.8415	0.1045	507683	keystroke	s	n/a
254.052	0.074	508104	keystroke	t	n/a
254.261	0.045	508522	keystroke	e	n/a
254.382	0.09	508764	keystroke	e	n/a
254.547	0.09	509094	keystroke	Key.enter	n/a
254.6415	7.392	509283	prompt	n/a	speeches consumption aggregate sanyo\n
255.4315	0.075	510863	keystroke	s	n/a
255.5365	0.075	511073	keystroke	p	n/a
255.6415	0.06	511283	keystroke	e	n/a
255.7915	0.075	511583	keystroke	e	n/a
255.9565	0.075	511913	keystroke	c	n/a
256.0465	0.09	512093	keystroke	h	n/a
256.1215	0.135	512243	keystroke	e	n/a
256.1815	0.15	512363	keystroke	s	n/a
256.2865	0.12	512573	keystroke	Key.space	n/a
256.4665	0.105	512933	keystroke	c	n/a
256.5865	0.075	513173	keystroke	o	n/a
256.7215	0.105	513443	keystroke	n	n/a
256.8415	0.105	513683	keystroke	s	n/a
256.9315	0.09	513863	keystroke	u	n/a
257.1415	0.06	514283	keystroke	m	n/a
257.3365	0.075	514673	keystroke	p	n/a
257.4865	0.0755	514973	keystroke	t	n/a
257.577	0.195	515154	keystroke	i	n/a
257.637	0.12	515274	keystroke	o	n/a
257.667	0.165	515334	keystroke	n	n/a
257.787	0.12	515574	keystroke	Key.space	n/a
257.907	0.105	515814	keystroke	a	n/a
258.102	0.075	516204	keystroke	g	n/a
258.267	0.06	516534	keystroke	g	n/a
258.4315	0.135	516863	keystroke	r	n/a
258.5215	0.105	517043	keystroke	e	n/a
258.7615	0.105	517523	keystroke	g	n/a
258.9265	0.135	517853	keystroke	a	n/a
259.0915	0.12	518183	keystroke	t	n/a
259.2415	0.105	518483	keystroke	e	n/a
259.9915	0.105	519983	keystroke	Key.space	n/a
260.397	0.105	520794	keystroke	a	n/a
260.8165	0.0905	521633	keystroke	Key.backspace	n/a
261.1015	0.1355	522203	keystroke	s	n/a
261.177	0.135	522354	keystroke	a	n/a
261.267	0.09	522534	keystroke	n	n/a
261.417	0.09	522834	keystroke	y	n/a
261.7315	0.075	523463	keystroke	o	n/a
261.9565	0.075	523913	keystroke	Key.enter	n/a
262.0365	5.637	524073	prompt	n/a	publishers cope blair doug\n
262.692	0.075	525384	keystroke	p	n/a
262.887	0.105	525774	keystroke	u	n/a
263.037	0.09	526074	keystroke	b	n/a
263.202	0.06	526404	keystroke	l	n/a
263.337	0.09	526674	keystroke	i	n/a
263.472	0.105	526944	keystroke	s	n/a
263.532	0.12	527064	keystroke	h	n/a
263.637	0.105	527274	keystroke	e	n/a
263.712	0.165	527424	keystroke	r	n/a
263.832	0.135	527664	keystroke	s	n/a
263.922	0.105	527844	keystroke	Key.space	n/a
264.057	0.135	528114	keystroke	c	n/a
264.177	0.165	528354	keystroke	o	n/a
264.252	0.105	528504	keystroke	p	n/a
264.387	0.135	528774	keystroke	e	n/a
264.492	0.1195	528984	keystroke	Key.space	n/a
264.6715	0.09	529343	keystroke	b	n/a
264.8065	0.075	529613	keystroke	l	n/a
264.9415	0.09	529883	keystroke	a	n/a
265.0615	0.105	530123	keystroke	i	n/a
265.1515	0.12	530303	keystroke	d	n/a
265.2415	0.12	530483	keystroke	Key.space	n/a
265.7815	0.06	531563	keystroke	Key.backspace	n/a
265.9015	0.075	531803	keystroke	Key.backspace	n/a
266.0215	0.09	532043	keystroke	r	n/a
266.0665	0.12	532133	keystroke	Key.space	n/a
266.577	0.135	533154	keystroke	d	n/a
266.667	0.15	533334	keystroke	o	n/a
266.772	0.135	533544	keystroke	u	n/a
266.967	0.12	533934	keystroke	g	n/a
267.597	0.075	535194	keystroke	Key.enter	n/a
267.6765	4.272	535353	prompt	n/a	left insider citizen fallen\n
268.302	0.1045	536604	keystroke	l	n/a
268.3765	0.18	536753	keystroke	e	n/a
268.4815	0.12	536963	keystroke	f	n/a
268.7065	0.075	537413	keystroke	t	n/a
268.7515	0.105	537503	keystroke	Key.space	n/a
268.8865	0.12	537773	keystroke	i	n/a
268.9465	0.09	537893	keystroke	n	n/a
268.9915	0.105	537983	keystroke	s	n/a
269.1115	0.105	538223	keystroke	i	n/a
269.2015	0.09	538403	keystroke	d	n/a
269.3815	0.135	538763	keystroke	e	n/a
269.4715	0.135	538943	keystroke	r	n/a
269.5615	0.12	539123	keystroke	Key.space	n/a
270.0115	0.15	540023	keystroke	c	n/a
270.1765	0.075	540353	keystroke	i	n/a
270.2815	0.0755	540563	keystroke	t	n/a
270.357	0.12	540714	keystroke	i	n/a
270.522	0.12	541044	keystroke	z	n/a
270.747	0.06	541494	keystroke	e	n/a
270.852	0.09	541704	keystroke	n	n/a
270.957	0.12	541914	keystroke	Key.space	n/a
271.137	0.09	542274	keystroke	f	n/a
271.242	0.105	542484	keystroke	a	n/a
271.347	0.06	542694	keystroke	l	n/a
271.497	0.09	542994	keystroke	l	n/a
271.572	0.09	543144	keystroke	e	n/a
271.692	0.075	543384	keystroke	n	n/a
271.872	0.075	543744	keystroke	Key.enter	n/a
271.951	7.2125	543902	prompt	n/a	majority adaptation recommendations citations\n
272.7115	0.076	545423	keystroke	m	n/a
272.8015	0.105	545603	keystroke	a	n/a
272.8925	0.075	545785	keystroke	j	n/a
273.0265	0.091	546053	keystroke	o	n/a
273.1475	0.105	546295	keystroke	r	n/a
273.2815	0.105	546563	keystroke	i	n/a
273.4165	0.106	546833	keystroke	t	n/a
273.6125	0.075	547225	keystroke	y	n/a
273.6565	0.09	547313	keystroke	Key.space	n/a
273.8075	0.1045	547615	keystroke	a	n/a
273.9275	0.12	547855	keystroke	d	n/a
274.0325	0.1195	548065	keystroke	a	n/a
274.212	0.09	548424	keystroke	p	n/a
274.6315	0.06	549263	keystroke	t	n/a
274.8115	0.121	549623	keystroke	a	n/a
274.9915	0.061	549983	keystroke	t	n/a
275.0665	0.166	550133	keystroke	i	n/a
275.1125	0.089	550225	keystroke	o	n/a
275.1865	0.12	550373	keystroke	n	n/a
275.2915	0.105	550583	keystroke	Key.space	n/a
275.817	0.09	551634	keystroke	r	n/a
275.862	0.09	551724	keystroke	e	n/a
276.057	0.09	552114	keystroke	c	n/a
276.162	0.06	552324	keystroke	o	n/a
276.327	0.045	552654	keystroke	m	n/a
276.432	0.09	552864	keystroke	m	n/a
276.582	0.09	553164	keystroke	e	n/a
276.687	0.09	553374	keystroke	n	n/a
276.792	0.09	553584	keystroke	d	n/a
276.912	0.105	553824	keystroke	a	n/a
277.092	0.09	554184	keystroke	t	n/a
277.167	0.18	554334	keystroke	i	n/a
277.227	0.105	554454	keystroke	o	n/a
277.287	0.12	554574	keystroke	n	n/a
277.362	0.12	554724	keystroke	s	n/a
277.437	0.135	554874	keystroke	Key.space	n/a
277.587	0.12	555174	keystroke	c	n/a
277.692	0.105	555384	keystroke	i	n/a
277.827	0.105	555654	keystroke	t	n/a
278.3365	0.12	556673	keystroke	a	n/a
278.4715	0.09	556943	keystroke	t	n/a
278.6215	0.225	557243	keystroke	i	n/a
278.6815	0.135	557363	keystroke	o	n/a
278.7715	0.12	557543	keystroke	n	n/a
278.8615	0.105	557723	keystroke	s	n/a
279.087	0.074	558174	keystroke	Key.enter	n/a
279.168	5.1705	558336	prompt	n/a	picture licence patent material\n
279.867	0.06	559734	keystroke	p	n/a
280.032	0.09	560064	keystroke	i	n/a
280.107	0.075	560214	keystroke	c	n/a
280.287	0.0745	560574	keystroke	t	n/a
280.3915	0.1055	560783	keystroke	u	n/a
280.4515	0.1655	560903	keystroke	r	n/a
280.527	0.12	561054	keystroke	e	n/a
280.617	0.12	561234	keystroke	Key.space	n/a
280.737	0.06	561474	keystroke	l	n/a
280.872	0.12	561744	keystroke	i	n/a
280.932	0.1205	561864	keystroke	c	n/a
281.022	0.105	562044	keystroke	e	n/a
281.157	0.12	562314	keystroke	n	n/a
281.232	0.195	562464	keystroke	c	n/a
281.307	0.135	562614	keystroke	e	n/a
281.472	0.12	562944	keystroke	Key.space	n/a
281.832	0.06	563664	keystroke	p	n/a
281.907	0.135	563814	keystroke	a	n/a
282.087	0.075	564174	keystroke	t	n/a
282.222	0.1345	564444	keystroke	e	n/a
282.4465	0.135	564893	keystroke	n	n/a
282.6415	0.09	565283	keystroke	t	n/a
282.8065	0.15	565613	keystroke	Key.space	n/a
283.347	0.1195	566694	keystroke	m	n/a
283.4065	0.135	566813	keystroke	a	n/a
283.4965	0.09	566993	keystroke	t	n/a
283.6315	0.105	567263	keystroke	e	n/a
283.7075	0.089	567415	keystroke	r	n/a
283.7975	0.075	567595	keystroke	i	n/a
283.9025	0.09	567805	keystroke	a	n/a
284.0075	0.074	568015	keystroke	l	n/a
284.2465	0.0905	568493	keystroke	Key.enter	n/a
284.342	5.1865	568684	prompt	n/a	drums packs dictionaries group\n
285.117	0.09	570234	keystroke	d	n/a
285.267	0.105	570534	keystroke	r	n/a
285.327	0.165	570654	keystroke	u	n/a
286.062	0.105	572124	keystroke	m	n/a
286.152	0.135	572304	keystroke	s	n/a
286.227	0.135	572454	keystroke	Key.space	n/a
286.377	0.0895	572754	keystroke	p	n/a
286.4515	0.151	572903	keystroke	a	n/a
286.5715	0.09	573143	keystroke	c	n/a
286.6465	0.105	573293	keystroke	k	n/a
286.8115	0.09	573623	keystroke	s	n/a
287.0065	0.1205	574013	keystroke	Key.space	n/a
287.247	0.12	574494	keystroke	d	n/a
287.352	0.12	574704	keystroke	i	n/a
287.457	0.09	574914	keystroke	c	n/a
287.652	0.09	575304	keystroke	t	n/a
287.727	0.18	575454	keystroke	i	n/a
287.7715	0.1205	575543	keystroke	o	n/a
287.847	0.135	575694	keystroke	n	n/a
287.997	0.15	575994	keystroke	a	n/a
288.102	0.105	576204	keystroke	r	n/a
288.267	0.12	576534	keystroke	i	n/a
288.357	0.15	576714	keystroke	e	n/a
288.447	0.165	576894	keystroke	s	n/a
288.552	0.135	577104	keystroke	Key.space	n/a
288.717	0.09	577434	keystroke	g	n/a
288.897	0.105	577794	keystroke	r	n/a
288.942	0.15	577884	keystroke	o	n/a
289.032	0.09	578064	keystroke	u	n/a
289.197	0.105	578394	keystroke	p	n/a
289.452	0.075	578904	keystroke	Key.enter	n/a
289.5315	8.007	579063	prompt	n/a	transactions builders joins columnists\n
290.202	0.105	580404	keystroke	t	n/a
290.262	0.09	580524	keystroke	r	n/a
290.457	0.1045	580914	keystroke	a	n/a
290.5915	0.12	581183	keystroke	n	n/a
290.7415	0.09	581483	keystroke	s	n/a
290.9665	0.06	581933	keystroke	c	n/a
291.0125	0.119	582025	keystroke	a	n/a
291.3265	0.06	582653	keystroke	Key.backspace	n/a
291.4465	0.075	582893	keystroke	Key.backspace	n/a
291.5675	0.134	583135	keystroke	a	n/a
291.6565	0.12	583313	keystroke	c	n/a
291.9415	0.075	583883	keystroke	t	n/a
292.0015	0.225	584003	keystroke	i	n/a
292.0765	0.165	584153	keystroke	o	n/a
292.1365	0.135	584273	keystroke	n	n/a
292.2565	0.12	584513	keystroke	s	n/a
292.3315	0.135	584663	keystroke	Key.space	n/a
292.5265	0.09	585053	keystroke	b	n/a
292.5865	0.165	585173	keystroke	u	n/a
292.6615	0.135	585323	keystroke	i	n/a
292.8865	0.105	585773	keystroke	l	n/a
293.0365	0.09	586073	keystroke	d	n/a
293.1415	0.105	586283	keystroke	i	n/a
293.6365	0.045	587273	keystroke	Key.backspace	n/a
293.7865	0.06	587573	keystroke	Key.backspace	n/a
294.5515	0.075	589103	keystroke	d	n/a
294.7165	0.12	589433	keystroke	e	n/a
294.7915	0.151	589583	keystroke	r	n/a
294.8965	0.12	589793	keystroke	s	n/a
294.9715	0.135	589943	keystroke	Key.space	n/a
295.1215	0.09	590243	keystroke	j	n/a
295.2265	0.075	590453	keystroke	o	n/a
295.3765	0.135	590753	keystroke	i	n/a
295.4515	0.105	590903	keystroke	n	n/a
295.5415	0.15	591083	keystroke	s	n/a
295.632	0.1195	591264	keystroke	Key.space	n/a
295.8275	0.104	591655	keystroke	c	n/a
295.9325	0.0895	591865	keystroke	o	n/a
296.112	0.105	592224	keystroke	l	n/a
296.3515	0.076	592703	keystroke	u	n/a
296.5325	0.074	593065	keystroke	m	n/a
296.7125	0.074	593425	keystroke	n	n/a
296.8465	0.09	593693	keystroke	i	n/a
296.9965	0.121	593993	keystroke	s	n/a
297.1025	0.104	594205	keystroke	t	n/a
297.2365	0.105	594473	keystroke	s	n/a
297.4625	0.074	594925	keystroke	Key.enter	n/a
297.542	7.1215	595084	prompt	n/a	feature roster well ethiopia\n
298.1965	0.121	596393	keystroke	f	n/a
298.407	0.15	596814	keystroke	e	n/a
298.482	0.135	596964	keystroke	a	n/a
298.707	0.105	597414	keystroke	t	n/a
298.887	0.105	597774	keystroke	u	n/a
298.962	0.135	597924	keystroke	r	n/a
299.022	0.135	598044	keystroke	e	n/a
299.142	0.12	598284	keystroke	Key.space	n/a
299.607	0.105	599214	keystroke	r	n/a
299.817	0.09	599634	keystroke	o	n/a
299.952	0.15	599904	keystroke	s	n/a
300.117	0.105	600234	keystroke	t	n/a
300.3715	0.12	600743	keystroke	e	n/a
300.4465	0.135	600893	keystroke	r	n/a
300.7615	0.12	601523	keystroke	Key.space	n/a
300.9865	0.09	601973	keystroke	w	n/a
301.1365	0.09	602273	keystroke	e	n/a
301.3165	0.06	602633	keystroke	l	n/a
301.4515	0.15	602903	keystroke	l	n/a
301.5715	0.15	603143	keystroke	Key.space	n/a
301.827	0.105	603654	keystroke	e	n/a
301.977	0.0905	603954	keystroke	t	n/a
302.127	0.075	604254	keystroke	h	n/a
302.2475	0.149	604495	keystroke	i	n/a
302.3375	0.12	604675	keystroke	o	n/a
302.682	0.1205	605364	keystroke	p	n/a
303.9415	0.12	607883	keystroke	i	n/a
304.092	0.0895	608184	keystroke	a	n/a
304.572	0.09	609144	keystroke	Key.enter	n/a
304.667	5.1415	609334	prompt	n/a	crime elderly it'll original\n
305.3975	0.105	610795	keystroke	c	n/a
305.6225	0.075	611245	keystroke	r	n/a
305.6525	0.18	611305	keystroke	i	n/a
305.7725	0.12	611545	keystroke	m	n/a
305.8475	0.105	611695	keystroke	e	n/a
305.9075	0.15	611815	keystroke	Key.space	n/a
306.342	0.09	612684	keystroke	e	n/a
306.447	0.1195	612894	keystroke	l	n/a
306.5815	0.075	613163	keystroke	d	n/a
306.8065	0.045	613613	keystroke	e	n/a
306.8215	0.075	613643	keystroke	r	n/a
306.9265	0.121	613853	keystroke	l	n/a
307.0615	0.09	614123	keystroke	y	n/a
307.1365	0.105	614273	keystroke	Key.space	n/a
307.392	0.135	614784	keystroke	i	n/a
307.512	0.105	615024	keystroke	t	n/a
307.752	0.12	615504	keystroke	'	n/a
308.0065	0.06	616013	keystroke	l	n/a
308.1415	0.1055	616283	keystroke	l	n/a
308.307	0.09	616614	keystroke	Key.space	n/a
308.652	0.12	617304	keystroke	o	n/a
308.787	0.075	617574	keystroke	r	n/a
308.892	0.105	617784	keystroke	i	n/a
308.998	0.074	617996	keystroke	g	n/a
309.087	0.15	618174	keystroke	i	n/a
309.1615	0.135	618323	keystroke	n	n/a
309.2815	0.06	618563	keystroke	a	n/a
309.3865	0.1055	618773	keystroke	l	n/a
309.7325	0.074	619465	keystroke	Key.enter	n/a
309.811	3.9725	619622	prompt	n/a	offline oval returning boats\n
310.4675	0.074	620935	keystroke	o	n/a
310.5865	0.061	621173	keystroke	f	n/a
310.7065	0.106	621413	keystroke	f	n/a
310.8425	0.1195	621685	keystroke	l	n/a
310.9325	0.1795	621865	keystroke	i	n/a
311.052	0.15	622104	keystroke	n	n/a
311.157	0.105	622314	keystroke	e	n/a
311.217	0.105	622434	keystroke	Key.space	n/a
311.382	0.105	622764	keystroke	o	n/a
311.502	0.075	623004	keystroke	v	n/a
311.622	0.09	623244	keystroke	a	n/a
311.727	0.105	623454	keystroke	l	n/a
311.847	0.1045	623694	keystroke	Key.space	n/a
312.1315	0.12	624263	keystroke	r	n/a
312.2225	0.045	624445	keystroke	e	n/a
312.3425	0.075	624685	keystroke	t	n/a
312.4325	0.09	624865	keystroke	u	n/a
312.5075	0.089	625015	keystroke	r	n/a
312.6125	0.06	625225	keystroke	n	n/a
312.7175	0.105	625435	keystroke	i	n/a
312.792	0.105	625584	keystroke	n	n/a
312.837	0.105	625674	keystroke	g	n/a
312.912	0.135	625824	keystroke	Key.space	n/a
313.077	0.06	626154	keystroke	b	n/a
313.227	0.0755	626454	keystroke	o	n/a
313.257	0.105	626514	keystroke	a	n/a
313.452	0.105	626904	keystroke	t	n/a
313.542	0.09	627084	keystroke	s	n/a
313.6925	0.09	627385	keystroke	Key.enter	n/a
313.788	4.9755	627576	prompt	n/a	middle venues mounting positive\n
314.352	0.09	628704	keystroke	m	n/a
314.457	0.09	628914	keystroke	i	n/a
314.562	0.045	629124	keystroke	d	n/a
314.682	0.075	629364	keystroke	d	n/a
314.802	0.105	629604	keystroke	l	n/a
314.877	0.09	629754	keystroke	e	n/a
314.952	0.105	629904	keystroke	Key.space	n/a
315.177	0.075	630354	keystroke	v	n/a
315.312	0.075	630624	keystroke	e	n/a
315.417	0.0895	630834	keystroke	n	n/a
315.5665	0.135	631133	keystroke	u	n/a
315.6565	0.12	631313	keystroke	e	n/a
315.7165	0.15	631433	keystroke	s	n/a
315.8515	0.12	631703	keystroke	Key.space	n/a
316.0765	0.06	632153	keystroke	m	n/a
316.1965	0.135	632393	keystroke	o	n/a
316.2865	0.075	632573	keystroke	u	n/a
316.4215	0.105	632843	keystroke	n	n/a
316.4965	0.075	632993	keystroke	t	n/a
316.6315	0.09	633263	keystroke	i	n/a
316.6765	0.12	633353	keystroke	n	n/a
316.7365	0.09	633473	keystroke	g	n/a
316.8115	0.12	633623	keystroke	Key.space	n/a
317.0365	0.06	634073	keystroke	p	n/a
317.1865	0.06	634373	keystroke	o	n/a
317.8465	0.12	635693	keystroke	s	n/a
318.0265	0.075	636053	keystroke	i	n/a
318.1465	0.0755	636293	keystroke	t	n/a
318.207	0.1505	636414	keystroke	i	n/a
318.3425	0.12	636685	keystroke	v	n/a
318.4325	0.12	636865	keystroke	e	n/a
318.6875	0.075	637375	keystroke	Key.enter	n/a
318.7695	8.1985	637539	prompt	n/a	munich privileges operated candy\n
319.332	0.06	638664	keystroke	m	n/a
319.452	0.0895	638904	keystroke	u	n/a
319.6015	0.09	639203	keystroke	n	n/a
319.9165	0.06	639833	keystroke	i	n/a
320.0365	0.09	640073	keystroke	c	n/a
320.1115	0.09	640223	keystroke	h	n/a
320.2615	0.105	640523	keystroke	Key.space	n/a
320.4865	0.075	640973	keystroke	p	n/a
320.5765	0.09	641153	keystroke	r	n/a
320.7265	0.09	641453	keystroke	i	n/a
320.8315	0.09	641663	keystroke	v	n/a
320.9365	0.075	641873	keystroke	i	n/a
321.5215	0.09	643043	keystroke	Key.backspace	n/a
322.632	0.06	645264	keystroke	i	n/a
322.782	0.12	645564	keystroke	l	n/a
322.857	0.075	645714	keystroke	e	n/a
323.0225	0.105	646045	keystroke	g	n/a
323.1425	0.135	646285	keystroke	e	n/a
323.2325	0.135	646465	keystroke	s	n/a
323.3965	0.121	646793	keystroke	Key.space	n/a
324.237	0.1495	648474	keystroke	o	n/a
324.297	0.1045	648594	keystroke	p	n/a
324.3565	0.18	648713	keystroke	e	n/a
324.4615	0.165	648923	keystroke	r	n/a
324.5815	0.165	649163	keystroke	a	n/a
324.7015	0.135	649403	keystroke	t	n/a
324.8215	0.105	649643	keystroke	e	n/a
325.1215	0.015	650243	keystroke	d	n/a
325.3465	0.12	650693	keystroke	Key.space	n/a
325.7965	0.106	651593	keystroke	c	n/a
325.8715	0.1355	651743	keystroke	a	n/a
326.022	0.075	652044	keystroke	n	n/a
326.127	0.075	652254	keystroke	d	n/a
326.3375	0.075	652675	keystroke	y	n/a
326.8925	0.075	653785	keystroke	Key.enter	n/a
326.9715	5.742	653943	prompt	n/a	processors bradley condos sick\n
327.657	0.075	655314	keystroke	p	n/a
327.747	0.045	655494	keystroke	r	n/a
327.822	0.105	655644	keystroke	o	n/a
327.912	0.12	655824	keystroke	c	n/a
328.002	0.105	656004	keystroke	e	n/a
328.243	0.044	656486	keystroke	s	n/a
328.3465	0.106	656693	keystroke	s	n/a
328.4675	0.09	656935	keystroke	o	n/a
328.5425	0.1345	657085	keystroke	r	n/a
328.6165	0.1055	657233	keystroke	s	n/a
328.662	0.15	657324	keystroke	Key.space	n/a
328.842	0.105	657684	keystroke	b	n/a
329.0215	0.105	658043	keystroke	r	n/a
329.1425	0.164	658285	keystroke	a	n/a
329.2765	0.09	658553	keystroke	d	n/a
329.4115	0.12	658823	keystroke	l	n/a
329.5015	0.105	659003	keystroke	e	n/a
329.7115	0.075	659423	keystroke	y	n/a
329.7715	0.105	659543	keystroke	Key.space	n/a
330.1025	0.104	660205	keystroke	c	n/a
330.1765	0.06	660353	keystroke	o	n/a
330.2815	0.12	660563	keystroke	n	n/a
330.3565	0.106	660713	keystroke	d	n/a
330.6275	0.089	661255	keystroke	o	n/a
330.7915	0.09	661583	keystroke	s	n/a
331.1665	0.075	662333	keystroke	s	n/a
331.587	0.075	663174	keystroke	Key.backspace	n/a
331.827	0.105	663654	keystroke	Key.space	n/a
331.992	0.12	663984	keystroke	s	n/a
332.127	0.105	664254	keystroke	i	n/a
332.247	0.0755	664494	keystroke	c	n/a
332.3365	0.076	664673	keystroke	k	n/a
332.6215	0.09	665243	keystroke	Key.enter	n/a
332.7165	4.692	665433	prompt	n/a	account bike import rainbow\n
333.312	0.09	666624	keystroke	a	n/a
333.492	0.075	666984	keystroke	c	n/a
333.612	0.12	667224	keystroke	c	n/a
333.792	0.165	667584	keystroke	o	n/a
333.912	0.105	667824	keystroke	u	n/a
334.107	0.1045	668214	keystroke	n	n/a
334.197	0.1195	668394	keystroke	t	n/a
334.287	0.1205	668574	keystroke	Key.space	n/a
334.4825	0.09	668965	keystroke	b	n/a
334.5875	0.09	669175	keystroke	i	n/a
334.7525	0.09	669505	keystroke	k	n/a
334.8875	0.12	669775	keystroke	e	n/a
334.9625	0.135	669925	keystroke	Key.space	n/a
335.1125	0.15	670225	keystroke	i	n/a
335.2025	0.12	670405	keystroke	m	n/a
335.4125	0.059	670825	keystroke	p	n/a
335.5465	0.09	671093	keystroke	o	n/a
335.6515	0.075	671303	keystroke	r	n/a
335.8015	0.105	671603	keystroke	t	n/a
335.8765	0.135	671753	keystroke	Key.space	n/a
336.2215	0.1355	672443	keystroke	r	n/a
336.3115	0.1355	672623	keystroke	a	n/a
336.417	0.12	672834	keystroke	i	n/a
336.477	0.105	672954	keystroke	n	n/a
336.897	0.075	673794	keystroke	b	n/a
337.092	0.06	674184	keystroke	o	n/a
337.182	0.075	674364	keystroke	w	n/a
337.3165	0.09	674633	keystroke	Key.enter	n/a
337.411	7.9475	674822	prompt	n/a	classroom option font down\n
337.992	0.075	675984	keystroke	b	n/a
338.1565	0.121	676313	keystroke	l	n/a
338.337	0.09	676674	keystroke	a	n/a
338.547	0.06	677094	keystroke	s	n/a
338.667	0.105	677334	keystroke	s	n/a
338.817	0.09	677634	keystroke	r	n/a
338.967	0.03	677934	keystroke	i	n/a
338.982	0.045	677964	keystroke	u	n/a
339.7615	0.075	679523	keystroke	Key.backspace	n/a
340.2115	0.045	680423	keystroke	Key.backspace	n/a
340.407	0.015	680814	keystroke	Key.backspace	n/a
340.497	0.045	680994	keystroke	Key.backspace	n/a
340.737	0.06	681474	keystroke	Key.backspace	n/a
340.872	0.0595	681744	keystroke	Key.backspace	n/a
341.0365	0.06	682073	keystroke	Key.backspace	n/a
341.1865	0.06	682373	keystroke	Key.backspace	n/a
341.3365	0.075	682673	keystroke	Key.backspace	n/a
341.637	0.1055	683274	keystroke	c	n/a
341.7275	0.105	683455	keystroke	l	n/a
341.8775	0.09	683755	keystroke	a	n/a
342.102	0.0455	684204	keystroke	s	n/a
342.2225	0.1045	684445	keystroke	s	n/a
342.387	0.06	684774	keystroke	r	n/a
342.492	0.06	684984	keystroke	o	n/a
342.627	0.12	685254	keystroke	o	n/a
342.732	0.0905	685464	keystroke	m	n/a
342.9565	0.135	685913	keystroke	Key.space	n/a
343.1525	0.164	686305	keystroke	o	n/a
343.2415	0.091	686483	keystroke	p	n/a
343.3465	0.075	686693	keystroke	t	n/a
343.4365	0.2255	686873	keystroke	i	n/a
343.4675	0.1495	686935	keystroke	o	n/a
343.587	0.135	687174	keystroke	n	n/a
343.752	0.105	687504	keystroke	Key.space	n/a
344.022	0.09	688044	keystroke	f	n/a
344.127	0.06	688254	keystroke	o	n/a
344.292	0.09	688584	keystroke	n	n/a
344.442	0.075	688884	keystroke	t	n/a
344.532	0.105	689064	keystroke	Key.space	n/a
344.682	0.075	689364	keystroke	d	n/a
344.772	0.09	689544	keystroke	o	n/a
344.862	0.06	689724	keystroke	w	n/a
344.997	0.0745	689994	keystroke	n	n/a
345.2665	0.09	690533	keystroke	Key.enter	n/a
345.3615	5.127	690723	prompt	n/a	gardens incidence messaging metal\n
346.407	0.09	692814	keystroke	g	n/a
346.542	0.15	693084	keystroke	a	n/a
346.632	0.075	693264	keystroke	r	n/a
346.782	0.105	693564	keystroke	d	n/a
346.932	0.09	693864	keystroke	e	n/a
347.082	0.075	694164	keystroke	n	n/a
347.142	0.105	694284	keystroke	s	n/a
347.217	0.12	694434	keystroke	Key.space	n/a
347.352	0.105	694704	keystroke	i	n/a
347.412	0.09	694824	keystroke	n	n/a
347.472	0.09	694944	keystroke	c	n/a
347.592	0.135	695184	keystroke	i	n/a
347.712	0.0745	695424	keystroke	d	n/a
347.8765	0.075	695753	keystroke	e	n/a
347.9815	0.105	695963	keystroke	n	n/a
348.042	0.1345	696084	keystroke	c	n/a
348.1465	0.1055	696293	keystroke	e	n/a
348.222	0.12	696444	keystroke	Key.space	n/a
348.387	0.105	696774	keystroke	m	n/a
348.477	0.06	696954	keystroke	e	n/a
348.852	0.075	697704	keystroke	s	n/a
348.987	0.09	697974	keystroke	s	n/a
349.167	0.075	698334	keystroke	a	n/a
349.332	0.075	698664	keystroke	g	n/a
349.452	0.105	698904	keystroke	i	n/a
349.512	0.105	699024	keystroke	n	n/a
349.602	0.075	699204	keystroke	g	n/a
349.662	0.1045	699324	keystroke	Key.space	n/a
349.812	0.09	699624	keystroke	m	n/a
349.887	0.135	699774	keystroke	e	n/a
349.9765	0.0755	699953	keystroke	t	n/a
350.112	0.0895	700224	keystroke	a	n/a
350.217	0.0745	700434	keystroke	l	n/a
350.427	0.06	700854	keystroke	Key.enter	n/a
350.491	8.991	700982	prompt	n/a	products programmes italia competitive\n
351.492	0.075	702984	keystroke	p	n/a
351.552	0.075	703104	keystroke	r	n/a
351.672	0.09	703344	keystroke	o	n/a
351.777	0.0755	703554	keystroke	d	n/a
351.8975	0.09	703795	keystroke	u	n/a
351.9725	0.09	703945	keystroke	c	n/a
352.1825	0.06	704365	keystroke	t	n/a
352.3025	0.12	704605	keystroke	s	n/a
352.4075	0.12	704815	keystroke	Key.space	n/a
352.6175	0.0745	705235	keystroke	p	n/a
352.707	0.06	705414	keystroke	r	n/a
352.797	0.105	705594	keystroke	o	n/a
353.7575	0.075	707515	keystroke	g	n/a
353.9215	0.09	707843	keystroke	r	n/a
354.0275	0.12	708055	keystroke	a	n/a
354.1925	0.06	708385	keystroke	m	n/a
354.3125	0.149	708625	keystroke	m	n/a
354.4165	0.15	708833	keystroke	e	n/a
354.4915	0.135	708983	keystroke	s	n/a
354.5965	0.12	709193	keystroke	Key.space	n/a
354.7315	0.12	709463	keystroke	i	n/a
354.8215	0.09	709643	keystroke	t	n/a
354.9565	0.106	709913	keystroke	a	n/a
355.0465	0.105	710093	keystroke	l	n/a
355.2565	0.12	710513	keystroke	i	n/a
355.3915	0.12	710783	keystroke	a	n/a
355.5565	0.166	711113	keystroke	Key.space	n/a
355.8875	0.0895	711775	keystroke	c	n/a
355.932	0.09	711864	keystroke	o	n/a
355.992	0.075	711984	keystroke	m	n/a
356.127	0.09	712254	keystroke	p	n/a
356.187	0.135	712374	keystroke	e	n/a
356.307	0.105	712614	keystroke	t	n/a
356.502	0.06	713004	keystroke	i	n/a
356.637	0.075	713274	keystroke	t	n/a
356.697	0.12	713394	keystroke	i	n/a
357.207	0.1355	714414	keystroke	v	n/a
357.2825	0.12	714565	keystroke	e	n/a
359.4795	0.001	718959	keystroke	Key.enter	n/a
359.485	4.714	718970	prompt	n/a	had breaking receiving locate\n
360.1775	0.09	720355	keystroke	h	n/a
360.2225	0.165	720445	keystroke	a	n/a
360.2975	0.15	720595	keystroke	d	n/a
360.4025	0.105	720805	keystroke	Key.space	n/a
360.5375	0.09	721075	keystroke	b	n/a
360.6575	0.135	721315	keystroke	r	n/a
360.7475	0.135	721495	keystroke	e	n/a
360.8225	0.15	721645	keystroke	a	n/a
360.9275	0.06	721855	keystroke	k	n/a
361.0925	0.12	722185	keystroke	i	n/a
361.1375	0.135	722275	keystroke	n	n/a
361.2275	0.09	722455	keystroke	g	n/a
361.2575	0.12	722515	keystroke	Key.space	n/a
361.4525	0.09	722905	keystroke	r	n/a
361.4975	0.12	722995	keystroke	e	n/a
361.6925	0.09	723385	keystroke	c	n/a
361.8275	0.075	723655	keystroke	e	n/a
361.9625	0.105	723925	keystroke	i	n/a
362.0975	0.06	724195	keystroke	v	n/a
362.1875	0.12	724375	keystroke	i	n/a
362.2475	0.1345	724495	keystroke	n	n/a
362.337	0.105	724674	keystroke	g	n/a
362.427	0.135	724854	keystroke	Key.space	n/a
362.637	0.075	725274	keystroke	l	n/a
362.787	0.105	725574	keystroke	o	n/a
362.832	0.105	725664	keystroke	c	n/a
362.907	0.12	725814	keystroke	a	n/a
363.117	0.0895	726234	keystroke	t	n/a
363.177	0.0895	726354	keystroke	e	n/a
364.122	0.075	728244	keystroke	Key.enter	n/a
364.202	4.752	728404	prompt	n/a	dimensions locking their formerly\n
364.8575	0.1345	729715	keystroke	d	n/a
364.947	0.12	729894	keystroke	i	n/a
365.022	0.105	730044	keystroke	m	n/a
365.277	0.105	730554	keystroke	e	n/a
365.412	0.075	730824	keystroke	n	n/a
365.517	0.105	731034	keystroke	s	n/a
365.577	0.1945	731154	keystroke	i	n/a
365.637	0.1195	731274	keystroke	o	n/a
365.712	0.1195	731424	keystroke	n	n/a
365.802	0.1195	731604	keystroke	s	n/a
365.9065	0.105	731813	keystroke	Key.space	n/a
366.0415	0.075	732083	keystroke	l	n/a
366.2215	0.075	732443	keystroke	o	n/a
366.3415	0.075	732683	keystroke	c	n/a
366.4175	0.0895	732835	keystroke	k	n/a
366.6275	0.105	733255	keystroke	i	n/a
366.6875	0.105	733375	keystroke	n	n/a
366.8075	0.1045	733615	keystroke	g	n/a
366.882	0.135	733764	keystroke	Key.space	n/a
367.092	0.09	734184	keystroke	t	n/a
367.137	0.075	734274	keystroke	h	n/a
367.257	0.0905	734514	keystroke	e	n/a
367.3325	0.105	734665	keystroke	i	n/a
367.4225	0.105	734845	keystroke	r	n/a
367.4825	0.1045	734965	keystroke	Key.space	n/a
367.647	0.075	735294	keystroke	f	n/a
367.723	0.089	735446	keystroke	o	n/a
367.797	0.09	735594	keystroke	r	n/a
367.902	0.09	735804	keystroke	m	n/a
368.172	0.165	736344	keystroke	e	n/a
368.262	0.1205	736524	keystroke	r	n/a
368.5625	0.075	737125	keystroke	l	n/a
368.6525	0.09	737305	keystroke	y	n/a
368.8625	0.09	737725	keystroke	Key.enter	n/a
368.9565	5.607	737913	prompt	n/a	specific carlos pillow processor\n
369.702	0.09	739404	keystroke	s	n/a
369.807	0.09	739614	keystroke	p	n/a
369.912	0.135	739824	keystroke	e	n/a
370.002	0.105	740004	keystroke	c	n/a
370.152	0.105	740304	keystroke	i	n/a
370.242	0.045	740484	keystroke	f	n/a
370.332	0.105	740664	keystroke	i	n/a
370.392	0.135	740784	keystroke	c	n/a
370.542	0.09	741084	keystroke	Key.space	n/a
370.752	0.12	741504	keystroke	c	n/a
370.842	0.1205	741684	keystroke	a	n/a
371.0225	0.09	742045	keystroke	r	n/a
371.2175	0.075	742435	keystroke	l	n/a
371.3825	0.09	742765	keystroke	o	n/a
371.5025	0.105	743005	keystroke	s	n/a
371.5925	0.12	743185	keystroke	Key.space	n/a
371.7425	0.075	743485	keystroke	p	n/a
371.9375	0.075	743875	keystroke	i	n/a
372.1325	0.06	744265	keystroke	l	n/a
372.2525	0.075	744505	keystroke	l	n/a
372.4175	0.09	744835	keystroke	o	n/a
372.5075	0.1345	745015	keystroke	w	n/a
372.5825	0.1345	745165	keystroke	Key.space	n/a
372.732	0.06	745464	keystroke	p	n/a
372.807	0.045	745614	keystroke	r	n/a
372.912	0.105	745824	keystroke	o	n/a
373.002	0.12	746004	keystroke	c	n/a
373.092	0.12	746184	keystroke	e	n/a
373.347	0.06	746694	keystroke	s	n/a
373.467	0.105	746934	keystroke	s	n/a
373.617	0.105	747234	keystroke	o	n/a
373.707	0.09	747414	keystroke	r	n/a
374.4865	0.075	748973	keystroke	Key.enter	n/a
374.5665	10.1525	749133	prompt	n/a	sublimedirectory groove seminars lawn\n
375.642	0.105	751284	keystroke	s	n/a
375.732	0.12	751464	keystroke	u	n/a
375.822	0.09	751644	keystroke	b	n/a
376.6775	0.105	753355	keystroke	l	n/a
377.3525	0.105	754705	keystroke	i	n/a
378.2375	0.1045	756475	keystroke	m	n/a
378.417	0.075	756834	keystroke	e	n/a
378.597	0.09	757194	keystroke	d	n/a
378.688	0.119	757376	keystroke	i	n/a
379.407	0.09	758814	keystroke	r	n/a
379.8125	0.09	759625	keystroke	e	n/a
379.9775	0.09	759955	keystroke	c	n/a
380.2025	0.06	760405	keystroke	t	n/a
380.352	0.075	760704	keystroke	o	n/a
380.442	0.061	760884	keystroke	r	n/a
380.667	0.075	761334	keystroke	y	n/a
380.743	0.104	761486	keystroke	Key.space	n/a
381.057	0.09	762114	keystroke	g	n/a
381.252	0.075	762504	keystroke	r	n/a
381.447	0.06	762894	keystroke	o	n/a
381.597	0.105	763194	keystroke	o	n/a
381.672	0.075	763344	keystroke	v	n/a
381.807	0.12	763614	keystroke	e	n/a
381.882	0.135	763764	keystroke	Key.space	n/a
382.212	0.105	764424	keystroke	s	n/a
382.3625	0.105	764725	keystroke	e	n/a
382.5125	0.075	765025	keystroke	m	n/a
382.6325	0.12	765265	keystroke	i	n/a
382.7075	0.105	765415	keystroke	n	n/a
382.7675	0.105	765535	keystroke	a	n/a
382.9325	0.15	765865	keystroke	r	n/a
383.0525	0.105	766105	keystroke	s	n/a
383.1425	0.135	766285	keystroke	Key.space	n/a
383.3075	0.12	766615	keystroke	l	n/a
383.3525	0.165	766705	keystroke	a	n/a
383.4575	0.135	766915	keystroke	w	n/a
383.6075	0.09	767215	keystroke	n	n/a
384.672	0.045	769344	keystroke	Key.enter	n/a
384.724	7.03	769448	prompt	n/a	navigation respondents simultaneously entrance\n
385.6475	0.105	771295	keystroke	n	n/a
385.8575	0.09	771715	keystroke	a	n/a
386.0375	0.09	772075	keystroke	v	n/a
386.1425	0.12	772285	keystroke	i	n/a
386.2475	0.06	772495	keystroke	g	n/a
386.352	0.105	772704	keystroke	a	n/a
386.517	0.09	773034	keystroke	t	n/a
386.592	0.2255	773184	keystroke	i	n/a
386.667	0.1205	773334	keystroke	o	n/a
386.7275	0.15	773455	keystroke	n	n/a
386.8325	0.105	773665	keystroke	Key.space	n/a
387.028	0.15	774056	keystroke	r	n/a
387.1175	0.1205	774235	keystroke	e	n/a
387.208	0.12	774416	keystroke	s	n/a
387.313	0.075	774626	keystroke	p	n/a
387.463	0.075	774926	keystroke	o	n/a
387.583	0.12	775166	keystroke	n	n/a
387.718	0.045	775436	keystroke	d	n/a
387.853	0.06	775706	keystroke	e	n/a
387.913	0.12	775826	keystroke	n	n/a
388.213	0.09	776426	keystroke	t	n/a
388.3775	0.15	776755	keystroke	s	n/a
388.4975	0.135	776995	keystroke	Key.space	n/a
388.7075	0.09	777415	keystroke	s	n/a
388.7525	0.165	777505	keystroke	i	n/a
388.8425	0.09	777685	keystroke	m	n/a
389.0225	0.09	778045	keystroke	u	n/a
389.1725	0.105	778345	keystroke	l	n/a
389.3375	0.09	778675	keystroke	t	n/a
389.4425	0.135	778885	keystroke	a	n/a
389.5625	0.105	779125	keystroke	n	n/a
389.7275	0.09	779455	keystroke	e	n/a
390.0125	0.1795	780025	keystroke	o	n/a
390.162	0.105	780324	keystroke	u	n/a
390.282	0.1055	780564	keystroke	s	n/a
390.4025	0.105	780805	keystroke	l	n/a
390.5525	0.105	781105	keystroke	y	n/a
390.6425	0.12	781285	keystroke	Key.space	n/a
390.7925	0.075	781585	keystroke	e	n/a
390.8825	0.15	781765	keystroke	n	n/a
390.9725	0.09	781945	keystroke	t	n/a
391.0175	0.105	782035	keystroke	r	n/a
391.1675	0.135	782335	keystroke	a	n/a
391.3475	0.075	782695	keystroke	n	n/a
391.3925	0.135	782785	keystroke	c	n/a
391.4825	0.12	782965	keystroke	e	n/a
391.6625	0.09	783325	keystroke	Key.enter	n/a
391.7575	5.6065	783515	prompt	n/a	cycle conclusion finnish occurs\n
392.3825	0.105	784765	keystroke	c	n/a
392.6075	0.06	785215	keystroke	y	n/a
392.787	0.09	785574	keystroke	c	n/a
392.923	0.09	785846	keystroke	l	n/a
392.997	0.106	785994	keystroke	e	n/a
393.057	0.12	786114	keystroke	Key.space	n/a
393.207	0.075	786414	keystroke	c	n/a
393.298	0.09	786596	keystroke	o	n/a
393.417	0.09	786834	keystroke	n	n/a
393.612	0.09	787224	keystroke	c	n/a
393.912	0.09	787824	keystroke	l	n/a
394.1225	0.075	788245	keystroke	u	n/a
394.2275	0.09	788455	keystroke	s	n/a
394.3625	0.225	788725	keystroke	i	n/a
394.4375	0.135	788875	keystroke	o	n/a
394.5125	0.15	789025	keystroke	n	n/a
394.6775	0.09	789355	keystroke	Key.space	n/a
394.8425	0.09	789685	keystroke	f	n/a
394.9175	0.12	789835	keystroke	i	n/a
395.1575	0.075	790315	keystroke	n	n/a
395.3075	0.105	790615	keystroke	n	n/a
395.787	0.12	791574	keystroke	i	n/a
395.892	0.09	791784	keystroke	s	n/a
396.027	0.105	792054	keystroke	h	n/a
396.207	0.105	792414	keystroke	Key.space	n/a
396.4625	0.075	792925	keystroke	o	n/a
396.5975	0.075	793195	keystroke	c	n/a
396.7475	0.0745	793495	keystroke	c	n/a
396.882	0.09	793764	keystroke	u	n/a
396.957	0.12	793914	keystroke	r	n/a
397.062	0.105	794124	keystroke	s	n/a
397.287	0.075	794574	keystroke	Key.enter	n/a
397.3675	6.7315	794735	prompt	n/a	restaurant perl volumes blues\n
397.977	0.15	795954	keystroke	r	n/a
398.052	0.1355	796104	keystroke	e	n/a
398.3225	0.165	796645	keystroke	t	n/a
398.8025	0.09	797605	keystroke	Key.backspace	n/a
398.9975	0.12	797995	keystroke	s	n/a
399.0725	0.135	798145	keystroke	t	n/a
399.3275	0.12	798655	keystroke	a	n/a
399.4625	0.1055	798925	keystroke	u	n/a
399.582	0.091	799164	keystroke	r	n/a
399.733	0.119	799466	keystroke	a	n/a
399.868	0.105	799736	keystroke	n	n/a
400.063	0.105	800126	keystroke	t	n/a
400.153	0.119	800306	keystroke	Key.space	n/a
400.3775	0.09	800755	keystroke	p	n/a
400.4825	0.12	800965	keystroke	e	n/a
400.5425	0.12	801085	keystroke	r	n/a
400.6775	0.105	801355	keystroke	l	n/a
400.8125	0.12	801625	keystroke	Key.space	n/a
401.0825	0.075	802165	keystroke	v	n/a
401.1425	0.105	802285	keystroke	o	n/a
401.3075	0.105	802615	keystroke	l	n/a
401.5625	0.09	803125	keystroke	u	n/a
401.8025	0.045	803605	keystroke	m	n/a
402.2825	0.1495	804565	keystroke	e	n/a
402.373	0.149	804746	keystroke	s	n/a
402.882	0.105	805764	keystroke	Key.space	n/a
403.092	0.045	806184	keystroke	b	n/a
403.212	0.075	806424	keystroke	l	n/a
403.362	0.12	806724	keystroke	u	n/a
403.512	0.165	807024	keystroke	e	n/a
403.692	0.15	807384	keystroke	s	n/a
404.007	0.09	808014	keystroke	Key.enter	n/a
404.105	7.509	808210	prompt	n/a	passion democracy excess genre\n
404.8475	0.09	809695	keystroke	p	n/a
404.9525	0.06	809905	keystroke	a	n/a
405.1625	0.045	810325	keystroke	s	n/a
405.2825	0.075	810565	keystroke	s	n/a
405.3725	0.225	810745	keystroke	i	n/a
405.4175	0.12	810835	keystroke	o	n/a
405.5225	0.15	811045	keystroke	n	n/a
405.6125	0.105	811225	keystroke	Key.space	n/a
405.7775	0.09	811555	keystroke	d	n/a
405.9275	0.09	811855	keystroke	e	n/a
406.0775	0.075	812155	keystroke	m	n/a
406.2125	0.105	812425	keystroke	o	n/a
406.617	0.105	813234	keystroke	c	n/a
407.082	0.075	814164	keystroke	r	n/a
407.202	0.18	814404	keystroke	a	n/a
407.367	0.09	814734	keystroke	c	n/a
407.608	0.059	815216	keystroke	y	n/a
407.682	0.18	815364	keystroke	Key.space	n/a
407.922	0.075	815844	keystroke	e	n/a
407.937	0.03	815874	keystroke	w	n/a
408.537	0.09	817074	keystroke	Key.backspace	n/a
409.3175	0.075	818635	keystroke	x	n/a
409.4975	0.12	818995	keystroke	c	n/a
409.5875	0.12	819175	keystroke	e	n/a
409.8725	0.075	819745	keystroke	s	n/a
410.0075	0.15	820015	keystroke	s	n/a
410.1275	0.12	820255	keystroke	Key.space	n/a
410.818	0.06	821636	keystroke	g	n/a
410.937	0.076	821874	keystroke	e	n/a
411.043	0.15	822086	keystroke	n	n/a
411.132	0.136	822264	keystroke	r	n/a
411.208	0.135	822416	keystroke	e	n/a
411.538	0.074	823076	keystroke	Key.enter	n/a
411.6175	10.6465	823235	prompt	n/a	captured insight shadows limit\n
412.243	0.1045	824486	keystroke	c	n/a
412.3625	0.105	824725	keystroke	a	n/a
412.4525	0.06	824905	keystroke	p	n/a
412.5725	0.075	825145	keystroke	t	n/a
412.6625	0.09	825325	keystroke	i	n/a
412.7825	0.1205	825565	keystroke	r	n/a
412.858	0.12	825716	keystroke	e	n/a
413.4125	0.06	826825	keystroke	Key.backspace	n/a
413.5475	0.075	827095	keystroke	Key.backspace	n/a
413.6975	0.075	827395	keystroke	Key.backspace	n/a
414.3125	0.1205	828625	keystroke	u	n/a
414.387	0.12	828774	keystroke	r	n/a
414.462	0.09	828924	keystroke	e	n/a
414.657	0.12	829314	keystroke	d	n/a
414.747	0.135	829494	keystroke	Key.space	n/a
414.927	0.151	829854	keystroke	i	n/a
415.002	0.12	830004	keystroke	n	n/a
415.107	0.105	830214	keystroke	s	n/a
415.213	0.074	830426	keystroke	i	n/a
415.332	0.061	830664	keystroke	g	n/a
415.377	0.09	830754	keystroke	h	n/a
415.497	0.09	830994	keystroke	t	n/a
415.557	0.12	831114	keystroke	Key.space	n/a
415.977	0.105	831954	keystroke	s	n/a
416.067	0.105	832134	keystroke	h	n/a
416.712	0.12	833424	keystroke	a	n/a
416.892	0.09	833784	keystroke	d	n/a
417.102	0.06	834204	keystroke	w	n/a
417.207	0.09	834414	keystroke	o	n/a
417.342	0.105	834684	keystroke	s	n/a
417.492	0.105	834984	keystroke	Key.space	n/a
417.612	0.12	835224	keystroke	l	n/a
417.717	0.18	835434	keystroke	i	n/a
417.837	0.135	835674	keystroke	m	n/a
418.002	0.105	836004	keystroke	i	n/a
418.1975	0.0745	836395	keystroke	t	n/a
418.767	0.06	837534	keystroke	Key.backspace	n/a
418.932	0.045	837864	keystroke	Key.backspace	n/a
419.052	0.0755	838104	keystroke	Key.backspace	n/a
419.2025	0.0745	838405	keystroke	Key.backspace	n/a
419.352	0.06	838704	keystroke	Key.backspace	n/a
419.502	0.09	839004	keystroke	Key.backspace	n/a
419.772	0.075	839544	keystroke	Key.backspace	n/a
420.0425	0.09	840085	keystroke	Key.backspace	n/a
420.4625	0.06	840925	keystroke	Key.backspace	n/a
420.913	0.0745	841826	keystroke	o	n/a
420.9725	0.0755	841945	keystroke	w	n/a
421.1975	0.12	842395	keystroke	s	n/a
421.2875	0.12	842575	keystroke	Key.space	n/a
421.4375	0.18	842875	keystroke	l	n/a
421.5575	0.15	843115	keystroke	i	n/a
421.6475	0.135	843295	keystroke	m	n/a
421.7975	0.135	843595	keystroke	i	n/a
421.9475	0.06	843895	keystroke	t	n/a
422.1875	0.075	844375	keystroke	Key.enter	n/a
422.267	4.5875	844534	prompt	n/a	rows muscles climbing inherited\n
422.9075	0.09	845815	keystroke	r	n/a
423.0275	0.09	846055	keystroke	o	n/a
423.1175	0.06	846235	keystroke	w	n/a
423.2825	0.1345	846565	keystroke	s	n/a
423.372	0.135	846744	keystroke	Key.space	n/a
423.537	0.075	847074	keystroke	m	n/a
423.672	0.105	847344	keystroke	u	n/a
423.747	0.12	847494	keystroke	s	n/a
423.822	0.12	847644	keystroke	c	n/a
423.957	0.09	847914	keystroke	l	n/a
424.062	0.136	848124	keystroke	e	n/a
424.138	0.15	848276	keystroke	s	n/a
424.258	0.1045	848516	keystroke	Key.space	n/a
424.5275	0.105	849055	keystroke	c	n/a
424.6025	0.12	849205	keystroke	l	n/a
424.7525	0.18	849505	keystroke	i	n/a
424.8725	0.12	849745	keystroke	m	n/a
425.0975	0.06	850195	keystroke	b	n/a
425.1875	0.1345	850375	keystroke	i	n/a
425.278	0.134	850556	keystroke	n	n/a
425.397	0.105	850794	keystroke	g	n/a
425.472	0.12	850944	keystroke	Key.space	n/a
425.637	0.15	851274	keystroke	i	n/a
425.757	0.105	851514	keystroke	n	n/a
425.982	0.09	851964	keystroke	h	n/a
426.087	0.09	852174	keystroke	e	n/a
426.132	0.105	852264	keystroke	r	n/a
426.252	0.12	852504	keystroke	i	n/a
426.342	0.105	852684	keystroke	t	n/a
426.477	0.105	852954	keystroke	e	n/a
426.657	0.091	853314	keystroke	d	n/a
426.777	0.075	853554	keystroke	Key.enter	n/a
426.8575	5.7415	853715	prompt	n/a	thongs retain electrical figures\n
427.498	0.075	854996	keystroke	t	n/a
427.5575	0.06	855115	keystroke	h	n/a
427.663	0.1045	855326	keystroke	o	n/a
427.738	0.075	855476	keystroke	u	n/a
428.5625	0.09	857125	keystroke	Key.backspace	n/a
428.878	0.075	857756	keystroke	n	n/a
428.968	0.135	857936	keystroke	g	n/a
429.073	0.1345	858146	keystroke	s	n/a
429.2225	0.075	858445	keystroke	Key.space	n/a
429.5225	0.105	859045	keystroke	r	n/a
429.5825	0.09	859165	keystroke	e	n/a
429.7175	0.105	859435	keystroke	t	n/a
429.8375	0.105	859675	keystroke	a	n/a
429.9275	0.105	859855	keystroke	i	n/a
429.9875	0.135	859975	keystroke	n	n/a
430.0625	0.135	860125	keystroke	Key.space	n/a
430.2275	0.075	860455	keystroke	e	n/a
430.3175	0.105	860635	keystroke	l	n/a
430.4075	0.1045	860815	keystroke	e	n/a
430.6025	0.0745	861205	keystroke	c	n/a
430.797	0.09	861594	keystroke	t	n/a
430.857	0.0605	861714	keystroke	r	n/a
430.9325	0.105	861865	keystroke	i	n/a
431.0375	0.09	862075	keystroke	c	n/a
431.1125	0.105	862225	keystroke	a	n/a
431.2025	0.09	862405	keystroke	l	n/a
431.3075	0.105	862615	keystroke	Key.space	n/a
431.5025	0.09	863005	keystroke	f	n/a
431.8775	0.105	863755	keystroke	i	n/a
431.9975	0.06	863995	keystroke	g	n/a
432.0875	0.12	864175	keystroke	u	n/a
432.1625	0.15	864325	keystroke	r	n/a
432.2675	0.105	864535	keystroke	e	n/a
432.3275	0.12	864655	keystroke	s	n/a
432.5075	0.09	865015	keystroke	Key.enter	n/a
432.602	4.467	865204	prompt	n/a	lost climate chile attempts\n
433.1825	0.075	866365	keystroke	l	n/a
433.3625	0.1045	866725	keystroke	o	n/a
433.452	0.166	866904	keystroke	s	n/a
433.527	0.106	867054	keystroke	t	n/a
433.587	0.091	867174	keystroke	Key.space	n/a
433.783	0.09	867566	keystroke	c	n/a
433.828	0.1795	867656	keystroke	l	n/a
433.948	0.165	867896	keystroke	i	n/a
434.068	0.1495	868136	keystroke	m	n/a
434.3225	0.1055	868645	keystroke	a	n/a
434.533	0.105	869066	keystroke	t	n/a
434.608	0.105	869216	keystroke	e	n/a
434.698	0.09	869396	keystroke	Key.space	n/a
434.893	0.075	869786	keystroke	c	n/a
434.953	0.119	869906	keystroke	h	n/a
435.012	0.211	870024	keystroke	i	n/a
435.118	0.134	870236	keystroke	l	n/a
435.208	0.105	870416	keystroke	e	n/a
435.297	0.12	870594	keystroke	Key.space	n/a
435.432	0.12	870864	keystroke	a	n/a
435.627	0.06	871254	keystroke	t	n/a
435.747	0.09	871494	keystroke	t	n/a
435.912	0.12	871824	keystroke	e	n/a
436.077	0.075	872154	keystroke	m	n/a
436.302	0.09	872604	keystroke	p	n/a
436.452	0.105	872904	keystroke	t	n/a
436.767	0.105	873534	keystroke	s	n/a
436.992	0.075	873984	keystroke	Key.enter	n/a
437.073	6.626	874146	prompt	n/a	vocational filled calvin survivor\n
438.1025	0.09	876205	keystroke	v	n/a
438.1775	0.12	876355	keystroke	o	n/a
438.2825	0.1055	876565	keystroke	c	n/a
438.373	0.09	876746	keystroke	a	n/a
438.568	0.0745	877136	keystroke	t	n/a
438.628	0.1795	877256	keystroke	i	n/a
438.6875	0.09	877375	keystroke	o	n/a
438.7175	0.135	877435	keystroke	n	n/a
438.8675	0.09	877735	keystroke	a	n/a
438.9275	0.12	877855	keystroke	l	n/a
439.0925	0.12	878185	keystroke	Key.space	n/a
439.498	0.105	878996	keystroke	f	n/a
439.573	0.075	879146	keystroke	i	n/a
439.768	0.059	879536	keystroke	l	n/a
439.8875	0.1345	879775	keystroke	l	n/a
439.962	0.075	879924	keystroke	e	n/a
440.217	0.03	880434	keystroke	d	n/a
440.232	0.105	880464	keystroke	Key.space	n/a
440.457	0.12	880914	keystroke	c	n/a
440.532	0.135	881064	keystroke	a	n/a
440.652	0.1055	881304	keystroke	l	n/a
440.8925	0.09	881785	keystroke	v	n/a
441.1325	0.12	882265	keystroke	i	n/a
441.1925	0.12	882385	keystroke	n	n/a
441.3275	0.12	882655	keystroke	Key.space	n/a
441.5375	0.105	883075	keystroke	s	n/a
441.6275	0.12	883255	keystroke	u	n/a
441.7325	0.075	883465	keystroke	r	n/a
441.9575	0.075	883915	keystroke	v	n/a
442.0475	0.09	884095	keystroke	i	n/a
442.1075	0.105	884215	keystroke	v	n/a
442.423	0.105	884846	keystroke	o	n/a
442.588	0.06	885176	keystroke	r	n/a
443.637	0.06	887274	keystroke	Key.enter	n/a
443.702	6.927	887404	prompt	n/a	virtual quite available upcoming\n
444.748	0.09	889496	keystroke	v	n/a
444.838	0.09	889676	keystroke	i	n/a
444.943	0.075	889886	keystroke	r	n/a
445.123	0.0745	890246	keystroke	t	n/a
445.2575	0.09	890515	keystroke	u	n/a
445.3775	0.075	890755	keystroke	a	n/a
445.4975	0.075	890995	keystroke	l	n/a
445.603	0.09	891206	keystroke	Key.space	n/a
445.873	0.105	891746	keystroke	q	n/a
445.993	0.075	891986	keystroke	u	n/a
446.158	0.105	892316	keystroke	i	n/a
446.233	0.1345	892466	keystroke	t	n/a
446.323	0.1045	892646	keystroke	e	n/a
446.3975	0.12	892795	keystroke	Key.space	n/a
446.6075	0.12	893215	keystroke	a	n/a
446.9075	0.06	893815	keystroke	v	n/a
447.0725	0.09	894145	keystroke	a	n/a
447.1775	0.195	894355	keystroke	i	n/a
447.253	0.1345	894506	keystroke	l	n/a
447.3575	0.12	894715	keystroke	a	n/a
447.4775	0.09	894955	keystroke	b	n/a
447.5975	0.135	895195	keystroke	l	n/a
447.7025	0.105	895405	keystroke	e	n/a
447.7625	0.1355	895525	keystroke	Key.space	n/a
448.3175	0.105	896635	keystroke	u	n/a
448.5875	0.075	897175	keystroke	p	n/a
448.7225	0.09	897445	keystroke	c	n/a
448.8275	0.09	897655	keystroke	o	n/a
448.8875	0.105	897775	keystroke	m	n/a
449.0675	0.105	898135	keystroke	i	n/a
449.1275	0.12	898255	keystroke	n	n/a
449.4575	0.075	898915	keystroke	g	n/a
450.5525	0.075	901105	keystroke	Key.enter	n/a
450.632	5.4575	901264	prompt	n/a	eugene happen frozen tonight\n
452.1575	0.09	904315	keystroke	e	n/a
452.2625	0.1205	904525	keystroke	u	n/a
452.398	0.075	904796	keystroke	g	n/a
452.548	0.075	905096	keystroke	e	n/a
452.668	0.0745	905336	keystroke	n	n/a
452.7275	0.06	905455	keystroke	e	n/a
452.9075	0.12	905815	keystroke	Key.space	n/a
453.0725	0.09	906145	keystroke	h	n/a
453.1475	0.09	906295	keystroke	a	n/a
453.2975	0.061	906595	keystroke	p	n/a
453.4175	0.105	906835	keystroke	p	n/a
