onset	duration	sample	value	key	prompt_text
8.0085	6.617	16017	prompt	n/a	the quick brown fox jumps over a lazy dog\n
9.6445	0.0435	19289	keystroke_t	t	n/a
9.6725	0.1055	19345	keystroke_h	h	n/a
9.7175	0.135	19435	keystroke_e	e	n/a
9.823	0.105	19646	keystroke_Key.space	Key.space	n/a
10.033	0.12	20066	keystroke_q	q	n/a
10.1375	0.0905	20275	keystroke_u	u	n/a
10.198	0.0895	20396	keystroke_i	i	n/a
10.3025	0.105	20605	keystroke_c	c	n/a
10.3925	0.075	20785	keystroke_k	k	n/a
10.4685	0.089	20937	keystroke_Key.space	Key.space	n/a
10.6925	0.075	21385	keystroke_b	b	n/a
10.8735	0.074	21747	keystroke_r	r	n/a
10.9325	0.09	21865	keystroke_o	o	n/a
11.0375	0.091	22075	keystroke_w	w	n/a
11.1125	0.105	22225	keystroke_n	n	n/a
11.1875	0.075	22375	keystroke_Key.space	Key.space	n/a
11.3075	0.09	22615	keystroke_f	f	n/a
11.4125	0.105	22825	keystroke_o	o	n/a
11.5185	0.104	23037	keystroke_x	x	n/a
11.5925	0.1205	23185	keystroke_Key.space	Key.space	n/a
11.728	0.06	23456	keystroke_j	j	n/a
11.863	0.09	23726	keystroke_u	u	n/a
12.028	0.15	24056	keystroke_m	m	n/a
12.133	0.135	24266	keystroke_p	p	n/a
12.223	0.12	24446	keystroke_s	s	n/a
12.313	0.075	24626	keystroke_Key.space	Key.space	n/a
12.373	0.105	24746	keystroke_o	o	n/a
12.493	0.075	24986	keystroke_v	v	n/a
12.658	0.09	25316	keystroke_e	e	n/a
12.718	0.105	25436	keystroke_r	r	n/a
12.778	0.075	25556	keystroke_Key.space	Key.space	n/a
12.883	0.135	25766	keystroke_a	a	n/a
12.973	0.105	25946	keystroke_Key.space	Key.space	n/a
13.123	0.1045	26246	keystroke_l	l	n/a
13.2285	0.044	26457	keystroke_a	a	n/a
13.4225	0.1655	26845	keystroke_z	z	n/a
13.603	0.1045	27206	keystroke_y	y	n/a
13.678	0.1195	27356	keystroke_Key.space	Key.space	n/a
13.843	0.0745	27686	keystroke_d	d	n/a
13.903	0.1045	27806	keystroke_o	o	n/a
14.0225	0.0905	28045	keystroke_g	g	n/a
14.503	0.12	29006	keystroke_Key.enter	Key.enter	n/a
14.636	7.6835	29272	prompt	n/a	what're thesaurus permanent code\n
15.508	0.06	31016	keystroke_w	w	n/a
15.598	0.12	31196	keystroke_h	h	n/a
15.658	0.135	31316	keystroke_a	a	n/a
15.733	0.09	31466	keystroke_t	t	n/a
15.838	0.135	31676	keystroke_'	'	n/a
15.988	0.165	31976	keystroke_r	r	n/a
16.108	0.12	32216	keystroke_e	e	n/a
16.168	0.105	32336	keystroke_Key.space	Key.space	n/a
16.7835	0.074	33567	keystroke_t	t	n/a
16.8725	0.106	33745	keystroke_h	h	n/a
16.9325	0.075	33865	keystroke_e	e	n/a
17.2625	0.075	34525	keystroke_s	s	n/a
17.3975	0.1505	34795	keystroke_a	a	n/a
17.533	0.105	35066	keystroke_u	u	n/a
17.653	0.075	35306	keystroke_r	r	n/a
17.863	0.09	35726	keystroke_u	u	n/a
17.998	0.1345	35996	keystroke_s	s	n/a
18.1775	0.12	36355	keystroke_Key.space	Key.space	n/a
18.8675	0.09	37735	keystroke_p	p	n/a
18.9275	0.121	37855	keystroke_e	e	n/a
19.0035	0.105	38007	keystroke_r	r	n/a
19.0935	0.09	38187	keystroke_m	m	n/a
19.198	0.075	38396	keystroke_a	a	n/a
19.288	0.09	38576	keystroke_n	n	n/a
19.7685	0.0895	39537	keystroke_e	e	n/a
19.873	0.12	39746	keystroke_n	n	n/a
20.008	0.105	40016	keystroke_t	t	n/a
20.083	0.105	40166	keystroke_Key.space	Key.space	n/a
20.8935	0.0895	41787	keystroke_c	c	n/a
20.953	0.1205	41906	keystroke_o	o	n/a
21.0285	0.06	42057	keystroke_d	d	n/a
21.1785	0.104	42357	keystroke_e	e	n/a
21.2675	0.106	42535	keystroke_Key.space	Key.space	n/a
22.198	0.12	44396	keystroke_Key.enter	Key.enter	n/a
22.3225	8.8625	44645	prompt	n/a	call bestsellers training textbook\n
24.421	0.057	48842	keystroke_c	c	n/a
24.433	0.135	48866	keystroke_a	a	n/a
24.508	0.045	49016	keystroke_l	l	n/a
24.628	0.105	49256	keystroke_l	l	n/a
24.748	0.075	49496	keystroke_Key.space	Key.space	n/a
25.0475	0.075	50095	keystroke_b	b	n/a
25.1825	0.0755	50365	keystroke_e	e	n/a
25.333	0.12	50666	keystroke_s	s	n/a
25.468	0.1055	50936	keystroke_t	t	n/a
25.7535	0.06	51507	keystroke_s	s	n/a
25.9035	0.0595	51807	keystroke_e	e	n/a
25.978	0.075	51956	keystroke_l	l	n/a
26.068	0.1205	52136	keystroke_l	l	n/a
27.0135	0.105	54027	keystroke_e	e	n/a
27.0885	0.09	54177	keystroke_r	r	n/a
27.2235	0.135	54447	keystroke_s	s	n/a
27.3275	0.12	54655	keystroke_Key.space	Key.space	n/a
27.5225	0.061	55045	keystroke_b	b	n/a
27.8675	0.061	55735	keystroke_Key.backspace	Key.backspace	n/a
28.0185	0.06	56037	keystroke_t	t	n/a
28.1385	0.165	56277	keystroke_r	r	n/a
28.2285	0.135	56457	keystroke_a	a	n/a
28.3485	0.09	56697	keystroke_i	i	n/a
28.4235	0.075	56847	keystroke_n	n	n/a
28.5435	0.105	57087	keystroke_i	i	n/a
28.6185	0.09	57237	keystroke_n	n	n/a
28.6935	0.075	57387	keystroke_g	g	n/a
29.2185	0.12	58437	keystroke_Key.space	Key.space	n/a
29.5035	0.09	59007	keystroke_t	t	n/a
29.6085	0.06	59217	keystroke_e	e	n/a
30.0285	0.135	60057	keystroke_x	x	n/a
30.1035	0.15	60207	keystroke_t	t	n/a
30.4485	0.089	60897	keystroke_b	b	n/a
30.5535	0.045	61107	keystroke_o	o	n/a
30.6585	0.075	61317	keystroke_o	o	n/a
30.7035	0.179	61407	keystroke_k	k	n/a
31.0925	0.09	62185	keystroke_Key.enter	Key.enter	n/a
31.188	6.4315	62376	prompt	n/a	cartridges would prizes polyester\n
31.9035	0.1345	63807	keystroke_c	c	n/a
32.0685	0.1495	64137	keystroke_a	a	n/a
32.173	0.09	64346	keystroke_r	r	n/a
32.338	0.075	64676	keystroke_t	t	n/a
32.503	0.075	65006	keystroke_r	r	n/a
32.638	0.12	65276	keystroke_i	i	n/a
32.743	0.06	65486	keystroke_d	d	n/a
32.908	0.06	65816	keystroke_g	g	n/a
33.073	0.075	66146	keystroke_e	e	n/a
33.268	0.135	66536	keystroke_s	s	n/a
33.4175	0.075	66835	keystroke_Key.space	Key.space	n/a
33.6725	0.09	67345	keystroke_w	w	n/a
33.7775	0.06	67555	keystroke_o	o	n/a
33.8385	0.074	67677	keystroke_u	u	n/a
33.9275	0.2105	67855	keystroke_l	l	n/a
34.018	0.135	68036	keystroke_d	d	n/a
34.123	0.06	68246	keystroke_Key.space	Key.space	n/a
34.363	0.075	68726	keystroke_p	p	n/a
34.439	0.074	68878	keystroke_r	r	n/a
34.528	0.105	69056	keystroke_i	i	n/a
34.618	0.105	69236	keystroke_z	z	n/a
34.768	0.105	69536	keystroke_e	e	n/a
34.888	0.135	69776	keystroke_s	s	n/a
34.993	0.09	69986	keystroke_Key.space	Key.space	n/a
35.158	0.075	70316	keystroke_p	p	n/a
35.338	0.135	70676	keystroke_l	l	n/a
35.893	0.075	71786	keystroke_Key.backspace	Key.backspace	n/a
36.103	0.105	72206	keystroke_o	o	n/a
36.283	0.135	72566	keystroke_l	l	n/a
36.448	0.105	72896	keystroke_y	y	n/a
36.628	0.075	73256	keystroke_e	e	n/a
36.808	0.12	73616	keystroke_s	s	n/a
36.913	0.06	73826	keystroke_t	t	n/a
37.033	0.15	74066	keystroke_e	e	n/a
37.108	0.12	74216	keystroke_r	r	n/a
37.528	0.09	75056	keystroke_Key.enter	Key.enter	n/a
37.623	7.4815	75246	prompt	n/a	cached mild britain baghdad\n
38.2485	0.105	76497	keystroke_c	c	n/a
38.3685	0.12	76737	keystroke_a	a	n/a
38.6385	0.105	77277	keystroke_c	c	n/a
38.7285	0.09	77457	keystroke_h	h	n/a
38.9235	0.06	77847	keystroke_e	e	n/a
39.0435	0.12	78087	keystroke_d	d	n/a
39.1785	0.075	78357	keystroke_Key.space	Key.space	n/a
39.553	0.105	79106	keystroke_m	m	n/a
39.673	0.12	79346	keystroke_i	i	n/a
39.763	0.12	79526	keystroke_l	l	n/a
39.884	0.104	79768	keystroke_d	d	n/a
39.973	0.075	79946	keystroke_Key.space	Key.space	n/a
40.138	0.045	80276	keystroke_b	b	n/a
40.288	0.09	80576	keystroke_r	r	n/a
40.798	0.09	81596	keystroke_i	i	n/a
41.068	0.12	82136	keystroke_t	t	n/a
41.158	0.165	82316	keystroke_a	a	n/a
41.248	0.12	82496	keystroke_i	i	n/a
41.338	0.12	82676	keystroke_n	n	n/a
41.473	0.09	82946	keystroke_Key.space	Key.space	n/a
41.893	0.105	83786	keystroke_b	b	n/a
41.983	0.135	83966	keystroke_a	a	n/a
43.5135	0.12	87027	keystroke_g	g	n/a
43.9185	0.09	87837	keystroke_h	h	n/a
44.2185	0.105	88437	keystroke_d	d	n/a
44.3985	0.135	88797	keystroke_a	a	n/a
44.5485	0.105	89097	keystroke_d	d	n/a
45.0135	0.09	90027	keystroke_Key.enter	Key.enter	n/a
45.114	3.8315	90228	prompt	n/a	graph lucky audit sort\n
45.838	0.045	91676	keystroke_g	g	n/a
45.973	0.12	91946	keystroke_r	r	n/a
46.048	0.135	92096	keystroke_a	a	n/a
46.153	0.135	92306	keystroke_p	p	n/a
46.273	0.075	92546	keystroke_h	h	n/a
46.378	0.075	92756	keystroke_Key.space	Key.space	n/a
46.468	0.12	92936	keystroke_l	l	n/a
46.573	0.075	93146	keystroke_u	u	n/a
46.648	0.12	93296	keystroke_c	c	n/a
46.738	0.1055	93476	keystroke_k	k	n/a
46.933	0.09	93866	keystroke_y	y	n/a
47.068	0.09	94136	keystroke_Key.space	Key.space	n/a
47.203	0.1055	94406	keystroke_a	a	n/a
47.3235	0.075	94647	keystroke_u	u	n/a
47.4135	0.12	94827	keystroke_d	d	n/a
47.5635	0.105	95127	keystroke_i	i	n/a
47.7285	0.089	95457	keystroke_t	t	n/a
47.923	0.075	95846	keystroke_Key.space	Key.space	n/a
48.388	0.09	96776	keystroke_s	s	n/a
48.493	0.105	96986	keystroke_o	o	n/a
48.553	0.06	97106	keystroke_r	r	n/a
48.6735	0.105	97347	keystroke_t	t	n/a
48.8385	0.105	97677	keystroke_Key.enter	Key.enter	n/a
48.948	4.932	97896	prompt	n/a	islamic tight pmid secure\n
49.6635	0.105	99327	keystroke_i	i	n/a
49.753	0.105	99506	keystroke_s	s	n/a
49.873	0.09	99746	keystroke_l	l	n/a
49.948	0.105	99896	keystroke_a	a	n/a
50.0675	0.1055	100135	keystroke_m	m	n/a
50.2035	0.1045	100407	keystroke_i	i	n/a
50.278	0.18	100556	keystroke_c	c	n/a
50.443	0.09	100886	keystroke_Key.space	Key.space	n/a
50.623	0.075	101246	keystroke_t	t	n/a
50.713	0.075	101426	keystroke_i	i	n/a
50.833	0.06	101666	keystroke_g	g	n/a
50.894	0.074	101788	keystroke_h	h	n/a
50.983	0.075	101966	keystroke_t	t	n/a
51.433	0.06	102866	keystroke_Key.space	Key.space	n/a
51.673	0.09	103346	keystroke_p	p	n/a
51.808	0.12	103616	keystroke_m	m	n/a
51.913	0.105	103826	keystroke_i	i	n/a
52.033	0.12	104066	keystroke_d	d	n/a
52.513	0.105	105026	keystroke_Key.space	Key.space	n/a
52.768	0.06	105536	keystroke_s	s	n/a
52.903	0.06	105806	keystroke_e	e	n/a
53.038	0.105	106076	keystroke_c	c	n/a
53.158	0.09	106316	keystroke_u	u	n/a
53.263	0.105	106526	keystroke_r	r	n/a
53.338	0.1055	106676	keystroke_e	e	n/a
53.8025	0.075	107605	keystroke_Key.enter	Key.enter	n/a
53.8845	5.185	107769	prompt	n/a	gray joint studio olympus\n
54.5375	0.045	109075	keystroke_g	g	n/a
54.6875	0.135	109375	keystroke_r	r	n/a
54.7775	0.18	109555	keystroke_a	a	n/a
54.9725	0.091	109945	keystroke_y	y	n/a
55.0925	0.09	110185	keystroke_Key.space	Key.space	n/a
55.363	0.09	110726	keystroke_j	j	n/a
55.513	0.15	111026	keystroke_o	o	n/a
55.633	0.195	111266	keystroke_i	i	n/a
55.768	0.135	111536	keystroke_n	n	n/a
55.918	0.105	111836	keystroke_t	t	n/a
56.083	0.09	112166	keystroke_Key.space	Key.space	n/a
56.4285	0.105	112857	keystroke_s	s	n/a
56.5035	0.105	113007	keystroke_t	t	n/a
56.6235	0.12	113247	keystroke_u	u	n/a
56.7285	0.105	113457	keystroke_d	d	n/a
56.7885	0.15	113577	keystroke_i	i	n/a
56.8635	0.135	113727	keystroke_o	o	n/a
57.0275	0.09	114055	keystroke_Key.space	Key.space	n/a
57.808	0.09	115616	keystroke_o	o	n/a
57.958	0.1205	115916	keystroke_l	l	n/a
58.1535	0.075	116307	keystroke_y	y	n/a
58.3785	0.075	116757	keystroke_m	m	n/a
58.5135	0.09	117027	keystroke_p	p	n/a
58.6035	0.0895	117207	keystroke_u	u	n/a
58.723	0.105	117446	keystroke_s	s	n/a
58.993	0.075	117986	keystroke_Key.enter	Key.enter	n/a
59.0725	5.877	118145	prompt	n/a	killer ne'er mice convenience\n
59.743	0.06	119486	keystroke_k	k	n/a
59.893	0.075	119786	keystroke_i	i	n/a
60.028	0.06	120056	keystroke_l	l	n/a
60.133	0.105	120266	keystroke_l	l	n/a
60.343	0.165	120686	keystroke_e	e	n/a
60.448	0.15	120896	keystroke_r	r	n/a
60.538	0.12	121076	keystroke_Key.space	Key.space	n/a
60.853	0.12	121706	keystroke_n	n	n/a
60.958	0.075	121916	keystroke_e	e	n/a
61.123	0.09	122246	keystroke_'	'	n/a
61.4535	0.165	122907	keystroke_e	e	n/a
61.5585	0.24	123117	keystroke_r	r	n/a
61.7675	0.121	123535	keystroke_Key.space	Key.space	n/a
62.0535	0.0895	124107	keystroke_m	m	n/a
62.128	0.105	124256	keystroke_i	i	n/a
62.203	0.12	124406	keystroke_c	c	n/a
62.324	0.119	124648	keystroke_e	e	n/a
62.413	0.105	124826	keystroke_Key.space	Key.space	n/a
63.208	0.12	126416	keystroke_c	c	n/a
63.2825	0.1055	126565	keystroke_o	o	n/a
63.358	0.09	126716	keystroke_n	n	n/a
63.508	0.09	127016	keystroke_v	v	n/a
63.673	0.0905	127346	keystroke_e	e	n/a
63.7635	0.105	127527	keystroke_n	n	n/a
64.0185	0.105	128037	keystroke_i	i	n/a
64.1985	0.075	128397	keystroke_e	e	n/a
64.2735	0.105	128547	keystroke_n	n	n/a
64.393	0.12	128786	keystroke_c	c	n/a
64.483	0.12	128966	keystroke_e	e	n/a
64.873	0.075	129746	keystroke_Key.enter	Key.enter	n/a
64.9525	11.262	129905	prompt	n/a	fascinating blogger holocaust administrative\n
65.248	0.015	130496	keystroke_f	f	n/a
65.308	0.1805	130616	keystroke_f	f	n/a
65.6685	0.135	131337	keystroke_f	f	n/a
66.1185	0.06	132237	keystroke_Key.backspace	Key.backspace	n/a
66.2985	0.06	132597	keystroke_Key.backspace	Key.backspace	n/a
66.463	0.06	132926	keystroke_Key.backspace	Key.backspace	n/a
66.7935	0.105	133587	keystroke_f	f	n/a
66.9285	0.135	133857	keystroke_a	a	n/a
67.0185	0.165	134037	keystroke_s	s	n/a
67.2735	0.105	134547	keystroke_c	c	n/a
67.408	0.1505	134816	keystroke_i	i	n/a
67.528	0.105	135056	keystroke_n	n	n/a
67.663	0.15	135326	keystroke_a	a	n/a
67.768	0.105	135536	keystroke_t	t	n/a
67.858	0.105	135716	keystroke_i	i	n/a
67.918	0.12	135836	keystroke_n	n	n/a
67.978	0.15	135956	keystroke_g	g	n/a
68.8185	0.09	137637	keystroke_Key.space	Key.space	n/a
69.0135	0.09	138027	keystroke_b	b	n/a
69.1035	0.06	138207	keystroke_l	l	n/a
69.2235	0.135	138447	keystroke_l	l	n/a
69.8385	0.075	139677	keystroke_Key.backspace	Key.backspace	n/a
70.0625	0.121	140125	keystroke_o	o	n/a
70.2285	0.029	140457	keystroke_g	g	n/a
70.3475	0.0605	140695	keystroke_g	g	n/a
70.5575	0.15	141115	keystroke_e	e	n/a
70.6475	0.151	141295	keystroke_r	r	n/a
70.7825	0.0605	141565	keystroke_Key.space	Key.space	n/a
71.608	0.045	143216	keystroke_h	h	n/a
71.8935	0.075	143787	keystroke_o	o	n/a
72.0735	0.06	144147	keystroke_l	l	n/a
72.2385	0.075	144477	keystroke_o	o	n/a
72.4785	0.12	144957	keystroke_c	c	n/a
72.5685	0.105	145137	keystroke_a	a	n/a
72.6585	0.075	145317	keystroke_u	u	n/a
72.7785	0.15	145557	keystroke_s	s	n/a
72.8685	0.18	145737	keystroke_t	t	n/a
73.0185	0.09	146037	keystroke_Key.space	Key.space	n/a
73.753	0.09	147506	keystroke_a	a	n/a
73.888	0.12	147776	keystroke_d	d	n/a
74.023	0.09	148046	keystroke_m	m	n/a
74.128	0.075	148256	keystroke_i	i	n/a
74.263	0.06	148526	keystroke_n	n	n/a
74.308	0.105	148616	keystroke_i	i	n/a
74.428	0.09	148856	keystroke_s	s	n/a
74.533	0.06	149066	keystroke_t	t	n/a
74.683	0.09	149366	keystroke_r	r	n/a
74.774	0.149	149548	keystroke_a	a	n/a
74.878	0.09	149756	keystroke_t	t	n/a
74.9835	0.105	149967	keystroke_i	i	n/a
75.1035	0.075	150207	keystroke_v	v	n/a
75.2535	0.09	150507	keystroke_e	e	n/a
76.1085	0.1045	152217	keystroke_Key.enter	Key.enter	n/a
76.2175	5.862	152435	prompt	n/a	pets playlist clarke place\n
77.0525	0.076	154105	keystroke_p	p	n/a
77.1435	0.105	154287	keystroke_e	e	n/a
77.2335	0.105	154467	keystroke_t	t	n/a
77.368	0.1055	154736	keystroke_s	s	n/a
77.4435	0.105	154887	keystroke_Key.space	Key.space	n/a
77.5935	0.075	155187	keystroke_p	p	n/a
77.7585	0.09	155517	keystroke_l	l	n/a
77.8185	0.12	155637	keystroke_a	a	n/a
77.9235	0.075	155847	keystroke_y	y	n/a
78.2985	0.105	156597	keystroke_l	l	n/a
78.3585	0.1195	156717	keystroke_i	i	n/a
78.4335	0.1495	156867	keystroke_s	s	n/a
78.538	0.15	157076	keystroke_t	t	n/a
78.658	0.09	157316	keystroke_Key.space	Key.space	n/a
78.883	0.09	157766	keystroke_c	c	n/a
78.913	0.12	157826	keystroke_l	l	n/a
79.258	0.1655	158516	keystroke_a	a	n/a
79.348	0.1355	158696	keystroke_r	r	n/a
79.4685	0.12	158937	keystroke_k	k	n/a
79.5735	0.09	159147	keystroke_e	e	n/a
79.9785	0.105	159957	keystroke_Key.space	Key.space	n/a
80.2935	0.09	160587	keystroke_p	p	n/a
80.4435	0.12	160887	keystroke_l	l	n/a
80.5485	0.1645	161097	keystroke_a	a	n/a
80.623	0.24	161246	keystroke_c	c	n/a
80.788	0.18	161576	keystroke_e	e	n/a
81.9735	0.105	163947	keystroke_Key.enter	Key.enter	n/a
82.0835	4.751	164167	prompt	n/a	appearing official nice keyboard\n
82.693	0.15	165386	keystroke_a	a	n/a
82.888	0.06	165776	keystroke_p	p	n/a
83.008	0.09	166016	keystroke_p	p	n/a
83.143	0.21	166286	keystroke_e	e	n/a
83.218	0.136	166436	keystroke_a	a	n/a
83.308	0.1205	166616	keystroke_r	r	n/a
83.4585	0.09	166917	keystroke_i	i	n/a
83.5335	0.105	167067	keystroke_n	n	n/a
83.5785	0.15	167157	keystroke_g	g	n/a
83.6835	0.12	167367	keystroke_Key.space	Key.space	n/a
83.8635	0.0895	167727	keystroke_o	o	n/a
83.938	0.045	167876	keystroke_f	f	n/a
84.028	0.09	168056	keystroke_f	f	n/a
84.148	0.075	168296	keystroke_i	i	n/a
84.238	0.135	168476	keystroke_c	c	n/a
84.328	0.075	168656	keystroke_i	i	n/a
84.418	0.12	168836	keystroke_a	a	n/a
84.463	0.12	168926	keystroke_l	l	n/a
84.613	0.075	169226	keystroke_Key.space	Key.space	n/a
85.214	0.1045	170428	keystroke_n	n	n/a
85.3035	0.1045	170607	keystroke_i	i	n/a
85.3935	0.1495	170787	keystroke_c	c	n/a
85.5275	0.106	171055	keystroke_e	e	n/a
85.603	0.1045	171206	keystroke_Key.space	Key.space	n/a
85.6935	0.09	171387	keystroke_k	k	n/a
85.7975	0.0755	171595	keystroke_e	e	n/a
85.888	0.09	171776	keystroke_y	y	n/a
86.0985	0.074	172197	keystroke_b	b	n/a
86.158	0.105	172316	keystroke_o	o	n/a
86.2635	0.134	172527	keystroke_a	a	n/a
86.338	0.15	172676	keystroke_r	r	n/a
86.473	0.12	172946	keystroke_d	d	n/a
86.7425	0.09	173485	keystroke_Key.enter	Key.enter	n/a
86.837	5.7575	173674	prompt	n/a	format gras illustrated worthy\n
87.5235	0.06	175047	keystroke_f	f	n/a
87.5985	0.09	175197	keystroke_o	o	n/a
87.6735	0.09	175347	keystroke_r	r	n/a
87.7785	0.105	175557	keystroke_m	m	n/a
87.8685	0.1495	175737	keystroke_a	a	n/a
87.943	0.18	175886	keystroke_t	t	n/a
88.108	0.09	176216	keystroke_Key.space	Key.space	n/a
88.318	0.045	176636	keystroke_g	g	n/a
88.438	0.12	176876	keystroke_r	r	n/a
88.498	0.165	176996	keystroke_a	a	n/a
88.648	0.18	177296	keystroke_s	s	n/a
88.783	0.105	177566	keystroke_Key.space	Key.space	n/a
89.113	0.075	178226	keystroke_i	i	n/a
89.248	0.06	178496	keystroke_l	l	n/a
89.368	0.0755	178736	keystroke_l	l	n/a
89.5185	0.075	179037	keystroke_u	u	n/a
89.6085	0.105	179217	keystroke_s	s	n/a
89.7135	0.075	179427	keystroke_t	t	n/a
89.8335	0.105	179667	keystroke_r	r	n/a
89.9535	0.12	179907	keystroke_a	a	n/a
90.0285	0.15	180057	keystroke_t	t	n/a
90.1485	0.09	180297	keystroke_e	e	n/a
90.2985	0.15	180597	keystroke_d	d	n/a
90.4335	0.105	180867	keystroke_Key.space	Key.space	n/a
91.4985	0.09	182997	keystroke_w	w	n/a
91.5885	0.075	183177	keystroke_o	o	n/a
91.6035	0.09	183207	keystroke_r	r	n/a
91.8435	0.09	183687	keystroke_t	t	n/a
91.9485	0.075	183897	keystroke_h	h	n/a
92.113	0.06	184226	keystroke_y	y	n/a
92.518	0.075	185036	keystroke_Key.enter	Key.enter	n/a
92.5975	7.8425	185195	prompt	n/a	interactive european started virginia\n
93.2535	0.06	186507	keystroke_i	i	n/a
93.3735	0.1195	186747	keystroke_n	n	n/a
93.508	0.075	187016	keystroke_t	t	n/a
93.629	0.104	187258	keystroke_e	e	n/a
93.718	0.09	187436	keystroke_r	r	n/a
93.838	0.181	187676	keystroke_a	a	n/a
94.003	0.15	188006	keystroke_c	c	n/a
94.303	0.075	188606	keystroke_t	t	n/a
94.408	0.105	188816	keystroke_i	i	n/a
94.498	0.09	188996	keystroke_v	v	n/a
94.918	0.105	189836	keystroke_e	e	n/a
95.008	0.12	190016	keystroke_Key.space	Key.space	n/a
95.368	0.075	190736	keystroke_e	e	n/a
95.728	0.075	191456	keystroke_u	u	n/a
95.938	0.075	191876	keystroke_r	r	n/a
96.073	0.135	192146	keystroke_o	o	n/a
96.313	0.135	192626	keystroke_p	p	n/a
96.418	0.15	192836	keystroke_e	e	n/a
96.523	0.18	193046	keystroke_a	a	n/a
96.643	0.105	193286	keystroke_n	n	n/a
96.778	0.075	193556	keystroke_Key.space	Key.space	n/a
97.078	0.075	194156	keystroke_s	s	n/a
97.198	0.03	194396	keystroke_t	t	n/a
97.273	0.1355	194546	keystroke_a	a	n/a
97.318	0.06	194636	keystroke_r	r	n/a
97.4685	0.1045	194937	keystroke_t	t	n/a
97.558	0.06	195116	keystroke_e	e	n/a
97.679	0.104	195358	keystroke_d	d	n/a
97.768	0.105	195536	keystroke_Key.space	Key.space	n/a
98.458	0.1055	196916	keystroke_v	v	n/a
98.5785	0.105	197157	keystroke_i	i	n/a
98.6985	0.045	197397	keystroke_r	r	n/a
98.8635	0.0745	197727	keystroke_g	g	n/a
98.939	0.089	197878	keystroke_i	i	n/a
99.013	0.12	198026	keystroke_n	n	n/a
99.118	0.105	198236	keystroke_i	i	n/a
99.238	0.12	198476	keystroke_a	a	n/a
100.3475	0.09	200695	keystroke_Key.enter	Key.enter	n/a
100.4425	7.887	200885	prompt	n/a	xanax eligible ivory specialties\n
101.5185	0.09	203037	keystroke_x	x	n/a
101.6985	0.12	203397	keystroke_a	a	n/a
101.8335	0.12	203667	keystroke_n	n	n/a
101.9385	0.12	203877	keystroke_a	a	n/a
102.2985	0.15	204597	keystroke_x	x	n/a
102.4635	0.09	204927	keystroke_Key.space	Key.space	n/a
102.8535	0.09	205707	keystroke_e	e	n/a
102.9885	0.1495	205977	keystroke_l	l	n/a
103.093	0.09	206186	keystroke_i	i	n/a
103.228	0.075	206456	keystroke_g	g	n/a
103.333	0.1055	206666	keystroke_i	i	n/a
103.4535	0.06	206907	keystroke_b	b	n/a
103.5285	0.045	207057	keystroke_i	i	n/a
103.9635	0.06	207927	keystroke_Key.backspace	Key.backspace	n/a
104.5335	0.09	209067	keystroke_l	l	n/a
104.6085	0.135	209217	keystroke_e	e	n/a
104.7135	0.105	209427	keystroke_Key.space	Key.space	n/a
104.9985	0.075	209997	keystroke_i	i	n/a
105.0885	0.105	210177	keystroke_v	v	n/a
105.1785	0.105	210357	keystroke_o	o	n/a
105.3135	0.1045	210627	keystroke_r	r	n/a
105.448	0.09	210896	keystroke_y	y	n/a
108.2555	0.073	216511	keystroke_Key.enter	Key.enter	n/a
108.335	7.1495	216670	prompt	n/a	historical lotus computers cleared\n
110.7605	0.001	221521	keystroke_h	h	n/a
110.7615	0.087	221523	keystroke_i	i	n/a
110.8185	0.09	221637	keystroke_s	s	n/a
110.9535	0.0745	221907	keystroke_t	t	n/a
111.0135	0.075	222027	keystroke_o	o	n/a
111.1035	0.0895	222207	keystroke_r	r	n/a
111.193	0.09	222386	keystroke_i	i	n/a
111.313	0.105	222626	keystroke_c	c	n/a
111.403	0.12	222806	keystroke_a	a	n/a
111.568	0.045	223136	keystroke_l	l	n/a
112.153	0.12	224306	keystroke_Key.space	Key.space	n/a
112.363	0.06	224726	keystroke_l	l	n/a
112.498	0.1055	224996	keystroke_o	o	n/a
112.5885	0.075	225177	keystroke_t	t	n/a
112.6785	0.09	225357	keystroke_u	u	n/a
112.7835	0.12	225567	keystroke_s	s	n/a
112.9185	0.09	225837	keystroke_Key.space	Key.space	n/a
113.3535	0.1645	226707	keystroke_c	c	n/a
113.413	0.09	226826	keystroke_o	o	n/a
113.504	0.074	227008	keystroke_m	m	n/a
113.593	0.105	227186	keystroke_p	p	n/a
113.683	0.105	227366	keystroke_u	u	n/a
113.758	0.06	227516	keystroke_t	t	n/a
113.863	0.105	227726	keystroke_e	e	n/a
113.923	0.09	227846	keystroke_r	r	n/a
114.073	0.165	228146	keystroke_s	s	n/a
114.223	0.09	228446	keystroke_Key.space	Key.space	n/a
114.6285	0.135	229257	keystroke_c	c	n/a
114.7335	0.12	229467	keystroke_l	l	n/a
114.7935	0.135	229587	keystroke_e	e	n/a
114.8835	0.12	229767	keystroke_a	a	n/a
114.9435	0.105	229887	keystroke_r	r	n/a
115.0335	0.06	230067	keystroke_e	e	n/a
115.1235	0.165	230247	keystroke_d	d	n/a
115.4085	0.075	230817	keystroke_Key.enter	Key.enter	n/a
115.488	4.827	230976	prompt	n/a	nasty plaza polo beth\n
116.3685	0.09	232737	keystroke_n	n	n/a
116.4435	0.18	232887	keystroke_a	a	n/a
116.5335	0.165	233067	keystroke_s	s	n/a
116.6385	0.1345	233277	keystroke_t	t	n/a
116.7585	0.1045	233517	keystroke_y	y	n/a
116.863	0.0605	233726	keystroke_Key.space	Key.space	n/a
117.3285	0.075	234657	keystroke_p	p	n/a
117.463	0.121	234926	keystroke_l	l	n/a
117.538	0.12	235076	keystroke_a	a	n/a
117.748	0.135	235496	keystroke_z	z	n/a
118.0335	0.15	236067	keystroke_a	a	n/a
118.1685	0.105	236337	keystroke_Key.space	Key.space	n/a
118.5435	0.135	237087	keystroke_p	p	n/a
118.6635	0.12	237327	keystroke_o	o	n/a
118.8585	0.075	237717	keystroke_l	l	n/a
119.0235	0.09	238047	keystroke_o	o	n/a
119.2635	0.075	238527	keystroke_Key.space	Key.space	n/a
119.623	0.09	239246	keystroke_b	b	n/a
119.788	0.075	239576	keystroke_e	e	n/a
119.8935	0.09	239787	keystroke_t	t	n/a
119.9835	0.09	239967	keystroke_h	h	n/a
120.2235	0.09	240447	keystroke_Key.enter	Key.enter	n/a
120.3175	9.778	240635	prompt	n/a	unto permanent violations condition\n
121.0635	0.075	242127	keystroke_u	u	n/a
121.2435	0.09	242487	keystroke_n	n	n/a
121.3185	0.06	242637	keystroke_t	t	n/a
121.438	0.075	242876	keystroke_o	o	n/a
121.498	0.09	242996	keystroke_Key.space	Key.space	n/a
121.648	0.105	243296	keystroke_p	p	n/a
121.738	0.12	243476	keystroke_e	e	n/a
121.813	0.12	243626	keystroke_r	r	n/a
121.918	0.09	243836	keystroke_m	m	n/a
122.053	0.09	244106	keystroke_a	a	n/a
122.128	0.075	244256	keystroke_n	n	n/a
122.563	0.09	245126	keystroke_e	e	n/a
122.668	0.09	245336	keystroke_n	n	n/a
122.743	0.105	245486	keystroke_t	t	n/a
122.863	0.075	245726	keystroke_Key.space	Key.space	n/a
123.733	0.12	247466	keystroke_v	v	n/a
123.823	0.09	247646	keystroke_i	i	n/a
123.898	0.06	247796	keystroke_o	o	n/a
124.033	0.151	248066	keystroke_l	l	n/a
124.169	0.134	248338	keystroke_a	a	n/a
124.244	0.12	248488	keystroke_t	t	n/a
124.319	0.1345	248638	keystroke_i	i	n/a
124.379	0.1045	248758	keystroke_o	o	n/a
124.4535	0.105	248907	keystroke_n	n	n/a
124.5135	0.09	249027	keystroke_s	s	n/a
125.0685	0.105	250137	keystroke_Key.space	Key.space	n/a
125.2035	0.12	250407	keystroke_v	v	n/a
125.5335	0.06	251067	keystroke_Key.backspace	Key.backspace	n/a
125.5785	0.135	251157	keystroke_c	c	n/a
125.7285	0.12	251457	keystroke_o	o	n/a
125.7885	0.09	251577	keystroke_n	n	n/a
125.8635	0.09	251727	keystroke_d	d	n/a
125.9685	0.06	251937	keystroke_i	i	n/a
126.1335	0.0445	252267	keystroke_i	i	n/a
126.178	0.075	252356	keystroke_t	t	n/a
126.298	0.15	252596	keystroke_i	i	n/a
126.358	0.12	252716	keystroke_o	o	n/a
126.433	0.12	252866	keystroke_n	n	n/a
126.988	0.015	253976	keystroke_Key.backspace	Key.backspace	n/a
127.138	0.06	254276	keystroke_Key.backspace	Key.backspace	n/a
127.363	0.06	254726	keystroke_Key.backspace	Key.backspace	n/a
127.5885	0.06	255177	keystroke_Key.backspace	Key.backspace	n/a
127.8285	0.06	255657	keystroke_Key.backspace	Key.backspace	n/a
128.4735	0.09	256947	keystroke_t	t	n/a
128.6835	0.15	257367	keystroke_i	i	n/a
128.7735	0.105	257547	keystroke_o	o	n/a
128.8635	0.12	257727	keystroke_n	n	n/a
130.018	0.075	260036	keystroke_Key.enter	Key.enter	n/a
130.0995	5.7105	260199	prompt	n/a	room generating elder lloyd\n
130.948	0.0155	261896	keystroke_r	r	n/a
130.9785	0.015	261957	keystroke_o	o	n/a
131.0085	0.0895	262017	keystroke_o	o	n/a
131.129	0.119	262258	keystroke_m	m	n/a
131.279	0.089	262558	keystroke_Key.space	Key.space	n/a
131.7435	0.135	263487	keystroke_g	g	n/a
131.8185	0.12	263637	keystroke_a	a	n/a
132.1485	0.06	264297	keystroke_Key.backspace	Key.backspace	n/a
132.4035	0.045	264807	keystroke_e	e	n/a
132.4935	0.09	264987	keystroke_n	n	n/a
132.5835	0.12	265167	keystroke_e	e	n/a
132.6735	0.075	265347	keystroke_r	r	n/a
132.7785	0.15	265557	keystroke_a	a	n/a
132.8535	0.09	265707	keystroke_t	t	n/a
132.9135	0.12	265827	keystroke_i	i	n/a
133.003	0.1205	266006	keystroke_n	n	n/a
133.048	0.0905	266096	keystroke_g	g	n/a
133.6035	0.105	267207	keystroke_Key.space	Key.space	n/a
133.8735	0.075	267747	keystroke_e	e	n/a
133.9635	0.12	267927	keystroke_l	l	n/a
134.0385	0.075	268077	keystroke_d	d	n/a
134.2185	0.12	268437	keystroke_e	e	n/a
134.3085	0.105	268617	keystroke_r	r	n/a
134.3835	0.075	268767	keystroke_Key.space	Key.space	n/a
134.9535	0.045	269907	keystroke_l	l	n/a
135.0735	0.06	270147	keystroke_l	l	n/a
135.2385	0.075	270477	keystroke_o	o	n/a
135.3585	0.075	270717	keystroke_y	y	n/a
135.4935	0.105	270987	keystroke_d	d	n/a
135.7185	0.09	271437	keystroke_Key.enter	Key.enter	n/a
135.8125	7.5275	271625	prompt	n/a	hopes technician told mazda\n
136.5585	0.075	273117	keystroke_h	h	n/a
136.6485	0.165	273297	keystroke_o	o	n/a
136.7385	0.135	273477	keystroke_p	p	n/a
136.8885	0.165	273777	keystroke_e	e	n/a
137.3385	0.1645	274677	keystroke_s	s	n/a
137.504	0.119	275008	keystroke_Key.space	Key.space	n/a
138.328	0.1355	276656	keystroke_t	t	n/a
138.433	0.1055	276866	keystroke_e	e	n/a
138.6435	0.09	277287	keystroke_c	c	n/a
138.7485	0.06	277497	keystroke_h	h	n/a
138.8985	0.105	277797	keystroke_n	n	n/a
138.9585	0.06	277917	keystroke_i	i	n/a
139.0335	0.1045	278067	keystroke_c	c	n/a
139.123	0.09	278246	keystroke_i	i	n/a
139.228	0.105	278456	keystroke_a	a	n/a
139.303	0.1055	278606	keystroke_n	n	n/a
139.8735	0.12	279747	keystroke_Key.space	Key.space	n/a
140.6085	0.195	281217	keystroke_t	t	n/a
140.8185	0.015	281637	keystroke_o	o	n/a
140.8485	0.03	281697	keystroke_l	l	n/a
140.8635	0.045	281727	keystroke_d	d	n/a
141.508	0.09	283016	keystroke_Key.space	Key.space	n/a
141.748	0.1055	283496	keystroke_m	m	n/a
141.8385	0.075	283677	keystroke_a	a	n/a
142.0785	0.105	284157	keystroke_z	z	n/a
142.589	0.135	285178	keystroke_d	d	n/a
142.694	0.15	285388	keystroke_a	a	n/a
143.233	0.106	286466	keystroke_Key.enter	Key.enter	n/a
143.343	4.872	286686	prompt	n/a	philips read pubs blow\n
144.1485	0.12	288297	keystroke_p	p	n/a
144.3135	0.09	288627	keystroke_h	h	n/a
144.4335	0.09	288867	keystroke_i	i	n/a
144.6285	0.075	289257	keystroke_l	l	n/a
144.778	0.09	289556	keystroke_i	i	n/a
144.928	0.1205	289856	keystroke_p	p	n/a
145.0495	0.179	290099	keystroke_s	s	n/a
145.2735	0.09	290547	keystroke_Key.space	Key.space	n/a
145.739	0.104	291478	keystroke_r	r	n/a
145.829	0.104	291658	keystroke_e	e	n/a
145.904	0.18	291808	keystroke_a	a	n/a
146.009	0.165	292018	keystroke_d	d	n/a
146.113	0.105	292226	keystroke_Key.space	Key.space	n/a
146.594	0.1045	293188	keystroke_p	p	n/a
146.6835	0.105	293367	keystroke_u	u	n/a
146.7585	0.09	293517	keystroke_b	b	n/a
147.0435	0.15	294087	keystroke_s	s	n/a
147.1635	0.105	294327	keystroke_Key.space	Key.space	n/a
147.448	0.12	294896	keystroke_b	b	n/a
147.508	0.075	295016	keystroke_l	l	n/a
147.628	0.105	295256	keystroke_o	o	n/a
147.703	0.105	295406	keystroke_w	w	n/a
148.1385	0.075	296277	keystroke_Key.enter	Key.enter	n/a
148.2175	4.9025	296435	prompt	n/a	anchor yeah police latvia\n
148.8435	0.105	297687	keystroke_a	a	n/a
148.9335	0.12	297867	keystroke_n	n	n/a
149.0685	0.12	298137	keystroke_c	c	n/a
149.1735	0.09	298347	keystroke_h	h	n/a
149.2485	0.1195	298497	keystroke_o	o	n/a
149.413	0.09	298826	keystroke_r	r	n/a
149.533	0.09	299066	keystroke_Key.space	Key.space	n/a
149.833	0.06	299666	keystroke_y	y	n/a
149.848	0.12	299696	keystroke_e	e	n/a
149.923	0.135	299846	keystroke_a	a	n/a
149.998	0.106	299996	keystroke_h	h	n/a
150.134	0.165	300268	keystroke_Key.space	Key.space	n/a
150.689	0.044	301378	keystroke_p	p	n/a
150.763	0.105	301526	keystroke_o	o	n/a
150.943	0.165	301886	keystroke_l	l	n/a
151.063	0.1055	302126	keystroke_i	i	n/a
151.1535	0.15	302307	keystroke_c	c	n/a
151.2735	0.12	302547	keystroke_e	e	n/a
151.7685	0.135	303537	keystroke_Key.space	Key.space	n/a
152.129	0.105	304258	keystroke_l	l	n/a
152.219	0.15	304438	keystroke_a	a	n/a
152.324	0.075	304648	keystroke_t	t	n/a
152.534	0.09	305068	keystroke_v	v	n/a
152.639	0.105	305278	keystroke_i	i	n/a
152.714	0.135	305428	keystroke_a	a	n/a
153.029	0.09	306058	keystroke_Key.enter	Key.enter	n/a
153.1225	4.9925	306245	prompt	n/a	earn fleet thongs billy\n
153.8235	0.21	307647	keystroke_e	e	n/a
153.9285	0.15	307857	keystroke_a	a	n/a
154.0035	0.165	308007	keystroke_r	r	n/a
154.1385	0.12	308277	keystroke_n	n	n/a
154.2135	0.105	308427	keystroke_Key.space	Key.space	n/a
154.4385	0.09	308877	keystroke_f	f	n/a
154.5585	0.105	309117	keystroke_l	l	n/a
154.6485	0.075	309297	keystroke_e	e	n/a
154.799	0.09	309598	keystroke_e	e	n/a
155.4435	0.105	310887	keystroke_t	t	n/a
155.5785	0.105	311157	keystroke_Key.space	Key.space	n/a
156.0435	0.075	312087	keystroke_t	t	n/a
156.0885	0.075	312177	keystroke_h	h	n/a
156.1485	0.09	312297	keystroke_o	o	n/a
156.2535	0.09	312507	keystroke_n	n	n/a
156.2685	0.12	312537	keystroke_g	g	n/a
156.4035	0.105	312807	keystroke_s	s	n/a
156.9435	0.135	313887	keystroke_Key.space	Key.space	n/a
157.0935	0.105	314187	keystroke_b	b	n/a
157.2135	0.075	314427	keystroke_i	i	n/a
157.379	0.075	314758	keystroke_l	l	n/a
157.514	0.1045	315028	keystroke_l	l	n/a
157.7535	0.075	315507	keystroke_y	y	n/a
158.0235	0.09	316047	keystroke_Key.enter	Key.enter	n/a
158.118	4.6025	316236	prompt	n/a	tones lucia pending pockets\n
159.0285	0.09	318057	keystroke_t	t	n/a
159.1185	0.105	318237	keystroke_o	o	n/a
159.1785	0.105	318357	keystroke_n	n	n/a
159.2535	0.075	318507	keystroke_e	e	n/a
159.3585	0.12	318717	keystroke_s	s	n/a
159.4335	0.105	318867	keystroke_Key.space	Key.space	n/a
159.5535	0.09	319107	keystroke_l	l	n/a
159.6435	0.075	319287	keystroke_u	u	n/a
159.7335	0.06	319467	keystroke_c	c	n/a
159.8085	0.105	319617	keystroke_i	i	n/a
159.9135	0.15	319827	keystroke_a	a	n/a
160.0485	0.105	320097	keystroke_Key.space	Key.space	n/a
160.289	0.135	320578	keystroke_p	p	n/a
160.408	0.046	320816	keystroke_e	e	n/a
160.499	0.075	320998	keystroke_n	n	n/a
160.558	0.09	321116	keystroke_d	d	n/a
160.664	0.119	321328	keystroke_i	i	n/a
160.723	0.105	321446	keystroke_n	n	n/a
160.768	0.075	321536	keystroke_g	g	n/a
161.368	0.1055	322736	keystroke_Key.space	Key.space	n/a
161.698	0.105	323396	keystroke_p	p	n/a
161.804	0.1045	323608	keystroke_o	o	n/a
161.9385	0.135	323877	keystroke_c	c	n/a
162.028	0.0905	324056	keystroke_k	k	n/a
162.178	0.12	324356	keystroke_e	e	n/a
162.268	0.105	324536	keystroke_t	t	n/a
162.358	0.1655	324716	keystroke_s	s	n/a
162.643	0.0755	325286	keystroke_Key.enter	Key.enter	n/a
162.7285	6.0065	325457	prompt	n/a	green spaces gloves watched\n
163.228	0.225	326456	keystroke_f	f	n/a
163.6185	0.12	327237	keystroke_g	g	n/a
164.0835	0.06	328167	keystroke_Key.backspace	Key.backspace	n/a
164.2785	0.075	328557	keystroke_Key.backspace	Key.backspace	n/a
164.4135	0.075	328827	keystroke_g	g	n/a
164.5635	0.105	329127	keystroke_r	r	n/a
164.6685	0.075	329337	keystroke_e	e	n/a
164.8185	0.105	329637	keystroke_e	e	n/a
165.0285	0.12	330057	keystroke_n	n	n/a
165.1035	0.075	330207	keystroke_Key.space	Key.space	n/a
165.2685	0.06	330537	keystroke_s	s	n/a
165.3135	0.1205	330627	keystroke_p	p	n/a
165.418	0.135	330836	keystroke_a	a	n/a
165.508	0.121	331016	keystroke_c	c	n/a
165.629	0.104	331258	keystroke_e	e	n/a
165.748	0.151	331496	keystroke_s	s	n/a
165.808	0.15	331616	keystroke_Key.space	Key.space	n/a
166.633	0.105	333266	keystroke_g	g	n/a
166.694	0.06	333388	keystroke_l	l	n/a
166.828	0.09	333656	keystroke_o	o	n/a
166.903	0.075	333806	keystroke_v	v	n/a
167.038	0.151	334076	keystroke_e	e	n/a
167.158	0.136	334316	keystroke_s	s	n/a
167.263	0.105	334526	keystroke_Key.space	Key.space	n/a
167.7435	0.135	335487	keystroke_w	w	n/a
167.8035	0.15	335607	keystroke_a	a	n/a
167.8935	0.09	335787	keystroke_t	t	n/a
168.0885	0.105	336177	keystroke_c	c	n/a
168.1935	0.09	336387	keystroke_h	h	n/a
168.2685	0.075	336537	keystroke_e	e	n/a
168.3735	0.135	336747	keystroke_d	d	n/a
168.6585	0.075	337317	keystroke_Key.enter	Key.enter	n/a
168.739	9.101	337478	prompt	n/a	attachments thesaurus peter scratch\n
169.4385	0.12	338877	keystroke_a	a	n/a
169.6485	0.045	339297	keystroke_t	t	n/a
169.7685	0.09	339537	keystroke_t	t	n/a
169.9035	0.135	339807	keystroke_a	a	n/a
170.0085	0.105	340017	keystroke_c	c	n/a
170.1135	0.06	340227	keystroke_h	h	n/a
170.2635	0.09	340527	keystroke_m	m	n/a
170.3685	0.075	340737	keystroke_e	e	n/a
170.4585	0.09	340917	keystroke_n	n	n/a
170.5185	0.075	341037	keystroke_t	t	n/a
170.6235	0.1195	341247	keystroke_s	s	n/a
170.7275	0.0905	341455	keystroke_Key.space	Key.space	n/a
170.878	0.105	341756	keystroke_t	t	n/a
171.013	0.075	342026	keystroke_h	h	n/a
171.103	0.045	342206	keystroke_e	e	n/a
171.284	0.06	342568	keystroke_s	s	n/a
171.6735	0.105	343347	keystroke_a	a	n/a
171.7785	0.09	343557	keystroke_u	u	n/a
171.8985	0.075	343797	keystroke_r	r	n/a
172.2885	0.09	344577	keystroke_u	u	n/a
172.3785	0.12	344757	keystroke_s	s	n/a
172.648	0.09	345296	keystroke_Key.space	Key.space	n/a
173.143	0.075	346286	keystroke_b	b	n/a
173.413	0.075	346826	keystroke_Key.backspace	Key.backspace	n/a
173.593	0.135	347186	keystroke_p	p	n/a
173.698	0.105	347396	keystroke_e	e	n/a
173.833	0.0755	347666	keystroke_t	t	n/a
173.9535	0.12	347907	keystroke_e	e	n/a
173.9985	0.195	347997	keystroke_r	r	n/a
174.1335	0.045	348267	keystroke_Key.space	Key.space	n/a
174.2535	0.06	348507	keystroke_Key.space	Key.space	n/a
174.7185	0.06	349437	keystroke_Key.backspace	Key.backspace	n/a
175.739	0.0595	351478	keystroke_s	s	n/a
175.9785	0.105	351957	keystroke_c	c	n/a
176.1435	0.105	352287	keystroke_a	a	n/a
176.623	0.06	353246	keystroke_Key.backspace	Key.backspace	n/a
176.668	0.075	353336	keystroke_r	r	n/a
176.788	0.12	353576	keystroke_a	a	n/a
176.878	0.105	353756	keystroke_t	t	n/a
177.103	0.12	354206	keystroke_c	c	n/a
177.208	0.09	354416	keystroke_h	h	n/a
177.328	0.1055	354656	keystroke_Key.space	Key.space	n/a
177.7485	0.09	355497	keystroke_Key.enter	Key.enter	n/a
177.8435	7.4365	355687	prompt	n/a	dublin requirements vocals shop\n
178.7535	0.09	357507	keystroke_d	d	n/a
178.8885	0.09	357777	keystroke_u	u	n/a
178.9635	0.105	357927	keystroke_b	b	n/a
179.0835	0.09	358167	keystroke_l	l	n/a
179.1435	0.135	358287	keystroke_i	i	n/a
179.2185	0.135	358437	keystroke_n	n	n/a
179.3685	0.075	358737	keystroke_Key.space	Key.space	n/a
179.9535	0.105	359907	keystroke_r	r	n/a
180.0285	0.135	360057	keystroke_e	e	n/a
180.1485	0.12	360297	keystroke_q	q	n/a
180.2235	0.075	360447	keystroke_u	u	n/a
180.2835	0.12	360567	keystroke_i	i	n/a
180.3585	0.105	360717	keystroke_r	r	n/a
180.4335	0.12	360867	keystroke_e	e	n/a
181.168	0.105	362336	keystroke_m	m	n/a
181.288	0.075	362576	keystroke_e	e	n/a
181.393	0.09	362786	keystroke_n	n	n/a
181.453	0.06	362906	keystroke_t	t	n/a
181.588	0.12	363176	keystroke_s	s	n/a
182.8485	0.15	365697	keystroke_Key.space	Key.space	n/a
183.2085	0.135	366417	keystroke_v	v	n/a
183.2985	0.12	366597	keystroke_o	o	n/a
183.4935	0.1495	366987	keystroke_c	c	n/a
183.5835	0.135	367167	keystroke_a	a	n/a
183.658	0.1205	367316	keystroke_l	l	n/a
183.7935	0.105	367587	keystroke_s	s	n/a
184.3785	0.12	368757	keystroke_Key.space	Key.space	n/a
184.5585	0.0895	369117	keystroke_s	s	n/a
184.6635	0.09	369327	keystroke_h	h	n/a
184.7235	0.1795	369447	keystroke_o	o	n/a
184.8285	0.12	369657	keystroke_p	p	n/a
185.1885	0.09	370377	keystroke_Key.enter	Key.enter	n/a
185.2825	6.0875	370565	prompt	n/a	flashers specially anti maryland\n
185.983	0.015	371966	keystroke_s	s	n/a
186.4035	0.075	372807	keystroke_Key.backspace	Key.backspace	n/a
186.6135	0.09	373227	keystroke_f	f	n/a
186.6885	0.12	373377	keystroke_l	l	n/a
186.7935	0.135	373587	keystroke_a	a	n/a
186.8685	0.135	373737	keystroke_s	s	n/a
186.9885	0.09	373977	keystroke_h	h	n/a
187.0935	0.12	374187	keystroke_e	e	n/a
187.1835	0.105	374367	keystroke_r	r	n/a
187.3785	0.105	374757	keystroke_s	s	n/a
187.4685	0.09	374937	keystroke_Key.space	Key.space	n/a
187.9785	0.06	375957	keystroke_s	s	n/a
188.0535	0.12	376107	keystroke_p	p	n/a
188.1435	0.075	376287	keystroke_e	e	n/a
188.2785	0.105	376557	keystroke_c	c	n/a
188.3535	0.09	376707	keystroke_i	i	n/a
188.4285	0.12	376857	keystroke_a	a	n/a
188.5335	0.045	377067	keystroke_l	l	n/a
188.6235	0.12	377247	keystroke_l	l	n/a
188.7885	0.09	377577	keystroke_y	y	n/a
188.893	0.09	377786	keystroke_Key.space	Key.space	n/a
189.178	0.105	378356	keystroke_a	a	n/a
189.253	0.075	378506	keystroke_n	n	n/a
189.373	0.075	378746	keystroke_t	t	n/a
189.449	0.134	378898	keystroke_i	i	n/a
189.568	0.09	379136	keystroke_Key.space	Key.space	n/a
189.808	0.105	379616	keystroke_m	m	n/a
189.868	0.15	379736	keystroke_a	a	n/a
189.958	0.12	379916	keystroke_r	r	n/a
190.108	0.09	380216	keystroke_y	y	n/a
190.3485	0.09	380697	keystroke_l	l	n/a
190.4535	0.105	380907	keystroke_a	a	n/a
190.5735	0.09	381147	keystroke_n	n	n/a
190.6485	0.09	381297	keystroke_d	d	n/a
191.278	0.09	382556	keystroke_Key.enter	Key.enter	n/a
191.3745	7.4955	382749	prompt	n/a	wing investigations conservation faculty\n
192.058	0.106	384116	keystroke_w	w	n/a
192.179	0.12	384358	keystroke_i	i	n/a
192.239	0.105	384478	keystroke_n	n	n/a
192.314	0.09	384628	keystroke_g	g	n/a
192.508	0.091	385016	keystroke_Key.space	Key.space	n/a
193.1085	0.12	386217	keystroke_i	i	n/a
193.1835	0.105	386367	keystroke_n	n	n/a
193.2735	0.075	386547	keystroke_v	v	n/a
193.4235	0.105	386847	keystroke_e	e	n/a
193.5435	0.12	387087	keystroke_s	s	n/a
193.6185	0.105	387237	keystroke_t	t	n/a
193.7385	0.09	387477	keystroke_i	i	n/a
193.8435	0.105	387687	keystroke_g	g	n/a
194.0535	0.12	388107	keystroke_a	a	n/a
194.0985	0.135	388197	keystroke_t	t	n/a
194.1885	0.165	388377	keystroke_i	i	n/a
194.2485	0.12	388497	keystroke_o	o	n/a
194.3235	0.12	388647	keystroke_n	n	n/a
194.3985	0.135	388797	keystroke_s	s	n/a
194.4885	0.105	388977	keystroke_Key.space	Key.space	n/a
195.2535	0.1645	390507	keystroke_c	c	n/a
195.3435	0.105	390687	keystroke_o	o	n/a
195.403	0.1205	390806	keystroke_n	n	n/a
195.4785	0.0895	390957	keystroke_s	s	n/a
195.6435	0.12	391287	keystroke_e	e	n/a
195.7035	0.09	391407	keystroke_r	r	n/a
195.8685	0.12	391737	keystroke_v	v	n/a
196.0485	0.15	392097	keystroke_a	a	n/a
196.1385	0.12	392277	keystroke_t	t	n/a
196.2285	0.195	392457	keystroke_i	i	n/a
196.2885	0.12	392577	keystroke_o	o	n/a
196.3485	0.135	392697	keystroke_n	n	n/a
196.4835	0.075	392967	keystroke_Key.space	Key.space	n/a
197.2485	0.135	394497	keystroke_f	f	n/a
197.4285	0.135	394857	keystroke_a	a	n/a
197.6685	0.18	395337	keystroke_c	c	n/a
197.8035	0.075	395607	keystroke_u	u	n/a
197.9385	0.135	395877	keystroke_l	l	n/a
198.0735	0.075	396147	keystroke_t	t	n/a
198.1785	0.09	396357	keystroke_y	y	n/a
198.7785	0.09	397557	keystroke_Key.enter	Key.enter	n/a
198.874	7.661	397748	prompt	n/a	cosmetic myanmar yacht sport\n
199.3035	0.1045	398607	keystroke_f	f	n/a
200.0085	0.09	400017	keystroke_Key.backspace	Key.backspace	n/a
200.8785	0.12	401757	keystroke_c	c	n/a
201.0135	0.105	402027	keystroke_o	o	n/a
201.0885	0.075	402177	keystroke_s	s	n/a
201.2535	0.105	402507	keystroke_m	m	n/a
201.3585	0.105	402717	keystroke_e	e	n/a
201.5085	0.09	403017	keystroke_t	t	n/a
201.6585	0.105	403317	keystroke_i	i	n/a
201.7935	0.165	403587	keystroke_c	c	n/a
201.9285	0.105	403857	keystroke_Key.space	Key.space	n/a
202.0785	0.12	404157	keystroke_m	m	n/a
202.3335	0.105	404667	keystroke_y	y	n/a
202.4835	0.15	404967	keystroke_a	a	n/a
202.6185	0.12	405237	keystroke_n	n	n/a
202.843	0.12	405686	keystroke_m	m	n/a
202.948	0.18	405896	keystroke_a	a	n/a
203.053	0.18	406106	keystroke_r	r	n/a
203.218	0.09	406436	keystroke_Key.space	Key.space	n/a
203.714	0.075	407428	keystroke_y	y	n/a
203.804	0.1045	407608	keystroke_a	a	n/a
203.9235	0.135	407847	keystroke_c	c	n/a
204.0285	0.105	408057	keystroke_h	h	n/a
204.2685	0.075	408537	keystroke_t	t	n/a
204.5685	0.075	409137	keystroke_Key.space	Key.space	n/a
204.8235	0.105	409647	keystroke_s	s	n/a
204.9135	0.105	409827	keystroke_p	p	n/a
205.0035	0.12	410007	keystroke_o	o	n/a
205.0785	0.06	410157	keystroke_r	r	n/a
205.243	0.09	410486	keystroke_t	t	n/a
206.459	0.075	412918	keystroke_Key.enter	Key.enter	n/a
206.538	6.777	413076	prompt	n/a	laden pearl celebrate featured\n
207.179	0.12	414358	keystroke_l	l	n/a
207.239	0.089	414478	keystroke_a	a	n/a
207.403	0.075	414806	keystroke_d	d	n/a
207.553	0.105	415106	keystroke_e	e	n/a
207.673	0.121	415346	keystroke_n	n	n/a
207.733	0.075	415466	keystroke_Key.space	Key.space	n/a
207.853	0.105	415706	keystroke_p	p	n/a
207.928	0.195	415856	keystroke_e	e	n/a
208.004	0.149	416008	keystroke_a	a	n/a
208.093	0.12	416186	keystroke_r	r	n/a
208.169	0.105	416338	keystroke_l	l	n/a
208.288	0.075	416576	keystroke_Key.space	Key.space	n/a
208.544	0.134	417088	keystroke_c	c	n/a
208.663	0.06	417326	keystroke_e	e	n/a
208.738	0.105	417476	keystroke_l	l	n/a
208.813	0.06	417626	keystroke_e	e	n/a
208.948	0.075	417896	keystroke_b	b	n/a
209.098	0.1655	418196	keystroke_r	r	n/a
209.203	0.1505	418406	keystroke_a	a	n/a
211.0035	0.105	422007	keystroke_t	t	n/a
211.0785	0.15	422157	keystroke_e	e	n/a
211.2135	0.09	422427	keystroke_Key.space	Key.space	n/a
211.9635	0.09	423927	keystroke_f	f	n/a
212.0685	0.15	424137	keystroke_e	e	n/a
212.1435	0.1345	424287	keystroke_a	a	n/a
212.2335	0.0895	424467	keystroke_t	t	n/a
212.338	0.075	424676	keystroke_u	u	n/a
212.3985	0.06	424797	keystroke_r	r	n/a
212.4435	0.075	424887	keystroke_e	e	n/a
212.563	0.1205	425126	keystroke_d	d	n/a
213.2535	0.0595	426507	keystroke_Key.enter	Key.enter	n/a
213.3225	6.6375	426645	prompt	n/a	populations bookmark purposes others\n
213.4935	0.015	426987	keystroke_d	d	n/a
214.0935	0.06	428187	keystroke_Key.backspace	Key.backspace	n/a
214.3335	0.12	428667	keystroke_p	p	n/a
214.4985	0.135	428997	keystroke_o	o	n/a
214.6185	0.09	429237	keystroke_p	p	n/a
214.7535	0.105	429507	keystroke_u	u	n/a
214.9185	0.09	429837	keystroke_l	l	n/a
215.0085	0.15	430017	keystroke_a	a	n/a
215.1135	0.135	430227	keystroke_t	t	n/a
215.2185	0.12	430437	keystroke_i	i	n/a
215.2635	0.105	430527	keystroke_o	o	n/a
215.3535	0.1045	430707	keystroke_n	n	n/a
215.413	0.105	430826	keystroke_s	s	n/a
215.488	0.105	430976	keystroke_Key.space	Key.space	n/a
215.953	0.075	431906	keystroke_b	b	n/a
216.058	0.06	432116	keystroke_o	o	n/a
216.1935	0.075	432387	keystroke_o	o	n/a
216.3135	0.105	432627	keystroke_k	k	n/a
216.4935	0.12	432987	keystroke_m	m	n/a
216.6285	0.15	433257	keystroke_a	a	n/a
216.7035	0.18	433407	keystroke_r	r	n/a
216.8385	0.1055	433677	keystroke_k	k	n/a
216.9735	0.09	433947	keystroke_Key.space	Key.space	n/a
217.2135	0.12	434427	keystroke_p	p	n/a
217.3485	0.06	434697	keystroke_u	u	n/a
217.4535	0.075	434907	keystroke_r	r	n/a
217.5435	0.1055	435087	keystroke_p	p	n/a
217.7235	0.09	435447	keystroke_o	o	n/a
217.9485	0.03	435897	keystroke_s	s	n/a
218.2335	0.09	436467	keystroke_e	e	n/a
218.3685	0.135	436737	keystroke_s	s	n/a
218.5185	0.09	437037	keystroke_Key.space	Key.space	n/a
219.0735	0.075	438147	keystroke_o	o	n/a
219.1635	0.06	438327	keystroke_t	t	n/a
219.2385	0.105	438477	keystroke_h	h	n/a
219.2985	0.105	438597	keystroke_e	e	n/a
219.3735	0.12	438747	keystroke_r	r	n/a
219.4785	0.12	438957	keystroke_s	s	n/a
219.8535	0.105	439707	keystroke_Key.enter	Key.enter	n/a
219.9625	7.6175	439925	prompt	n/a	corporation characters spears letters\n
220.8735	0.0905	441747	keystroke_c	c	n/a
220.964	0.105	441928	keystroke_o	o	n/a
221.054	0.09	442108	keystroke_r	r	n/a
221.189	0.09	442378	keystroke_p	p	n/a
221.264	0.134	442528	keystroke_o	o	n/a
221.384	0.059	442768	keystroke_r	r	n/a
222.4185	0.135	444837	keystroke_a	a	n/a
222.6285	0.09	445257	keystroke_t	t	n/a
222.7335	0.15	445467	keystroke_i	i	n/a
222.7935	0.105	445587	keystroke_o	o	n/a
222.8685	0.1195	445737	keystroke_n	n	n/a
222.973	0.075	445946	keystroke_Key.space	Key.space	n/a
223.393	0.09	446786	keystroke_c	c	n/a
223.468	0.105	446936	keystroke_h	h	n/a
223.873	0.105	447746	keystroke_a	a	n/a
224.023	0.09	448046	keystroke_r	r	n/a
224.128	0.21	448256	keystroke_a	a	n/a
224.263	0.15	448526	keystroke_c	c	n/a
224.563	0.075	449126	keystroke_t	t	n/a
224.683	0.105	449366	keystroke_e	e	n/a
224.758	0.1205	449516	keystroke_r	r	n/a
224.8935	0.15	449787	keystroke_s	s	n/a
224.9685	0.12	449937	keystroke_Key.space	Key.space	n/a
225.7035	0.06	451407	keystroke_s	s	n/a
225.7785	0.105	451557	keystroke_p	p	n/a
225.8535	0.165	451707	keystroke_e	e	n/a
225.9285	0.12	451857	keystroke_a	a	n/a
225.9885	0.12	451977	keystroke_r	r	n/a
226.1835	0.12	452367	keystroke_s	s	n/a
226.3185	0.06	452637	keystroke_Key.space	Key.space	n/a
226.5585	0.12	453117	keystroke_l	l	n/a
226.6635	0.12	453327	keystroke_e	e	n/a
226.7685	0.045	453537	keystroke_t	t	n/a
226.8735	0.06	453747	keystroke_t	t	n/a
226.9635	0.12	453927	keystroke_e	e	n/a
227.0535	0.105	454107	keystroke_r	r	n/a
227.1735	0.135	454347	keystroke_s	s	n/a
227.473	0.105	454946	keystroke_Key.enter	Key.enter	n/a
227.583	9.057	455166	prompt	n/a	documented introducing botswana environments\n
228.3585	0.1055	456717	keystroke_d	d	n/a
228.449	0.105	456898	keystroke_o	o	n/a
228.539	0.135	457078	keystroke_c	c	n/a
228.629	0.075	457258	keystroke_u	u	n/a
228.779	0.105	457558	keystroke_m	m	n/a
228.899	0.06	457798	keystroke_e	e	n/a
228.989	0.09	457978	keystroke_n	n	n/a
229.034	0.075	458068	keystroke_t	t	n/a
229.109	0.075	458218	keystroke_e	e	n/a
229.244	0.135	458488	keystroke_d	d	n/a
229.349	0.104	458698	keystroke_Key.space	Key.space	n/a
229.574	0.119	459148	keystroke_i	i	n/a
229.648	0.1355	459296	keystroke_n	n	n/a
229.754	0.0445	459508	keystroke_t	t	n/a
229.8735	0.075	459747	keystroke_r	r	n/a
229.9335	0.09	459867	keystroke_o	o	n/a
230.0385	0.12	460077	keystroke_d	d	n/a
230.1735	0.09	460347	keystroke_u	u	n/a
230.2785	0.135	460557	keystroke_c	c	n/a
230.5035	0.09	461007	keystroke_i	i	n/a
230.5485	0.105	461097	keystroke_n	n	n/a
230.6085	0.105	461217	keystroke_g	g	n/a
230.7735	0.09	461547	keystroke_Key.space	Key.space	n/a
231.913	0.06	463826	keystroke_b	b	n/a
231.988	0.105	463976	keystroke_o	o	n/a
232.108	0.06	464216	keystroke_t	t	n/a
232.664	0.074	465328	keystroke_s	s	n/a
232.828	0.106	465656	keystroke_w	w	n/a
232.948	0.105	465896	keystroke_a	a	n/a
233.069	0.1195	466138	keystroke_n	n	n/a
233.1285	0.15	466257	keystroke_a	a	n/a
233.2795	0.104	466559	keystroke_Key.space	Key.space	n/a
234.1635	0.09	468327	keystroke_e	e	n/a
234.2985	0.105	468597	keystroke_n	n	n/a
234.4335	0.105	468867	keystroke_v	v	n/a
234.5235	0.075	469047	keystroke_i	i	n/a
234.6435	0.105	469287	keystroke_r	r	n/a
234.7485	0.105	469497	keystroke_o	o	n/a
234.8235	0.09	469647	keystroke_n	n	n/a
235.6185	0.09	471237	keystroke_m	m	n/a
235.7235	0.0895	471447	keystroke_e	e	n/a
235.828	0.105	471656	keystroke_n	n	n/a
235.9185	0.0595	471837	keystroke_t	t	n/a
236.083	0.135	472166	keystroke_s	s	n/a
236.533	0.1055	473066	keystroke_Key.enter	Key.enter	n/a
236.644	5.486	473288	prompt	n/a	laughing stories province texture\n
237.2835	0.09	474567	keystroke_l	l	n/a
237.3585	0.0895	474717	keystroke_a	a	n/a
237.463	0.061	474926	keystroke_u	u	n/a
237.538	0.076	475076	keystroke_g	g	n/a
237.643	0.076	475286	keystroke_h	h	n/a
237.749	0.134	475498	keystroke_i	i	n/a
237.839	0.119	475678	keystroke_n	n	n/a
237.898	0.12	475796	keystroke_g	g	n/a
237.988	0.075	475976	keystroke_Key.space	Key.space	n/a
238.333	0.09	476666	keystroke_s	s	n/a
238.438	0.045	476876	keystroke_t	t	n/a
238.453	0.06	476906	keystroke_o	o	n/a
238.558	0.09	477116	keystroke_r	r	n/a
238.618	0.09	477236	keystroke_i	i	n/a
238.709	0.104	477418	keystroke_e	e	n/a
238.798	0.135	477596	keystroke_s	s	n/a
238.873	0.12	477746	keystroke_Key.space	Key.space	n/a
239.609	0.105	479218	keystroke_p	p	n/a
239.699	0.09	479398	keystroke_r	r	n/a
239.804	0.075	479608	keystroke_o	o	n/a
240.509	0.105	481018	keystroke_v	v	n/a
240.629	0.075	481258	keystroke_i	i	n/a
240.659	0.135	481318	keystroke_n	n	n/a
240.733	0.121	481466	keystroke_c	c	n/a
240.838	0.15	481676	keystroke_e	e	n/a
240.958	0.09	481916	keystroke_Key.space	Key.space	n/a
241.138	0.09	482276	keystroke_t	t	n/a
241.213	0.075	482426	keystroke_e	e	n/a
241.424	0.09	482848	keystroke_x	x	n/a
241.499	0.09	482998	keystroke_t	t	n/a
241.649	0.075	483298	keystroke_u	u	n/a
241.679	0.105	483358	keystroke_r	r	n/a
241.769	0.1045	483538	keystroke_e	e	n/a
242.0535	0.075	484107	keystroke_Key.enter	Key.enter	n/a
242.133	6.3125	484266	prompt	n/a	chief salt omissions contains\n
242.4435	0.3	484887	keystroke_f	f	n/a
242.8935	0.12	485787	keystroke_c	c	n/a
242.9685	0.075	485937	keystroke_h	h	n/a
243.0135	0.075	486027	keystroke_i	i	n/a
243.3135	0.06	486627	keystroke_Key.backspace	Key.backspace	n/a
243.508	0.06	487016	keystroke_Key.backspace	Key.backspace	n/a
243.718	0.06	487436	keystroke_Key.backspace	Key.backspace	n/a
243.913	0.075	487826	keystroke_Key.backspace	Key.backspace	n/a
244.138	0.15	488276	keystroke_c	c	n/a
244.228	0.09	488456	keystroke_h	h	n/a
244.273	0.12	488546	keystroke_i	i	n/a
244.408	0.06	488816	keystroke_e	e	n/a
244.558	0.09	489116	keystroke_f	f	n/a
244.678	0.09	489356	keystroke_Key.space	Key.space	n/a
244.858	0.06	489716	keystroke_s	s	n/a
244.933	0.135	489866	keystroke_a	a	n/a
245.023	0.12	490046	keystroke_l	l	n/a
245.158	0.0905	490316	keystroke_t	t	n/a
245.3235	0.0595	490647	keystroke_Key.space	Key.space	n/a
245.8335	0.09	491667	keystroke_o	o	n/a
245.9685	0.105	491937	keystroke_m	m	n/a
246.0885	0.075	492177	keystroke_i	i	n/a
246.2085	0.075	492417	keystroke_s	s	n/a
246.3435	0.105	492687	keystroke_s	s	n/a
246.4335	0.135	492867	keystroke_i	i	n/a
246.4935	0.105	492987	keystroke_o	o	n/a
246.5535	0.12	493107	keystroke_n	n	n/a
246.6135	0.12	493227	keystroke_s	s	n/a
246.7035	0.09	493407	keystroke_Key.space	Key.space	n/a
247.5135	0.135	495027	keystroke_c	c	n/a
247.6185	0.09	495237	keystroke_o	o	n/a
247.6785	0.12	495357	keystroke_n	n	n/a
247.7685	0.105	495537	keystroke_t	t	n/a
247.8585	0.12	495717	keystroke_a	a	n/a
247.9485	0.105	495897	keystroke_i	i	n/a
248.0085	0.075	496017	keystroke_n	n	n/a
248.1135	0.15	496227	keystroke_s	s	n/a
248.3535	0.09	496707	keystroke_Key.enter	Key.enter	n/a
248.4485	6.4315	496897	prompt	n/a	brick formal departmental specific\n
249.2385	0.075	498477	keystroke_b	b	n/a
249.4035	0.075	498807	keystroke_r	r	n/a
249.5085	0.075	499017	keystroke_i	i	n/a
249.5985	0.105	499197	keystroke_c	c	n/a
249.6885	0.105	499377	keystroke_k	k	n/a
249.7785	0.075	499557	keystroke_Key.space	Key.space	n/a
249.8985	0.075	499797	keystroke_f	f	n/a
249.9585	0.075	499917	keystroke_o	o	n/a
250.0485	0.075	500097	keystroke_r	r	n/a
250.1235	0.09	500247	keystroke_m	m	n/a
250.1985	0.105	500397	keystroke_a	a	n/a
250.2885	0.135	500577	keystroke_l	l	n/a
250.3785	0.075	500757	keystroke_Key.space	Key.space	n/a
250.5285	0.06	501057	keystroke_d	d	n/a
250.6635	0.06	501327	keystroke_e	e	n/a
250.7385	0.12	501477	keystroke_p	p	n/a
250.8435	0.12	501687	keystroke_a	a	n/a
250.9035	0.075	501807	keystroke_r	r	n/a
251.023	0.1055	502046	keystroke_t	t	n/a
251.1435	0.075	502287	keystroke_m	m	n/a
251.2335	0.06	502467	keystroke_e	e	n/a
251.3085	0.105	502617	keystroke_n	n	n/a
251.3835	0.09	502767	keystroke_t	t	n/a
251.4735	0.06	502947	keystroke_Key.space	Key.space	n/a
251.7735	0.135	503547	keystroke_s	s	n/a
251.9385	0.12	503877	keystroke_p	p	n/a
252.0435	0.075	504087	keystroke_e	e	n/a
252.2085	0.225	504417	keystroke_c	c	n/a
252.5535	0.06	505107	keystroke_f	f	n/a
252.5835	0.09	505167	keystroke_i	i	n/a
253.2885	0.045	506577	keystroke_Key.backspace	Key.backspace	n/a
253.4235	0.045	506847	keystroke_Key.backspace	Key.backspace	n/a
253.6035	0.075	507207	keystroke_i	i	n/a
253.6935	0.06	507387	keystroke_f	f	n/a
253.7685	0.105	507537	keystroke_i	i	n/a
253.8735	0.135	507747	keystroke_c	c	n/a
254.7735	0.105	509547	keystroke_Key.enter	Key.enter	n/a
254.8855	12.8495	509771	prompt	n/a	considerable candle glasses prozac\n
258.811	0.028	517622	keystroke_c	c	n/a
258.812	0.087	517624	keystroke_o	o	n/a
258.854	0.09	517708	keystroke_n	n	n/a
258.914	0.06	517828	keystroke_s	s	n/a
259.004	0.105	518008	keystroke_i	i	n/a
259.9935	0.045	519987	keystroke_d	d	n/a
260.1435	0.15	520287	keystroke_e	e	n/a
260.2335	0.15	520467	keystroke_r	r	n/a
260.3535	0.12	520707	keystroke_a	a	n/a
260.5035	0.105	521007	keystroke_b	b	n/a
260.6085	0.12	521217	keystroke_l	l	n/a
260.7285	0.09	521457	keystroke_e	e	n/a
260.7885	0.105	521577	keystroke_Key.space	Key.space	n/a
262.8885	0.135	525777	keystroke_c	c	n/a
262.9635	0.105	525927	keystroke_a	a	n/a
263.0385	0.09	526077	keystroke_n	n	n/a
263.1435	0.06	526287	keystroke_d	d	n/a
263.2035	0.12	526407	keystroke_l	l	n/a
263.2935	0.1045	526587	keystroke_e	e	n/a
263.399	0.104	526798	keystroke_Key.space	Key.space	n/a
264.058	0.09	528116	keystroke_g	g	n/a
264.133	0.105	528266	keystroke_l	l	n/a
264.178	0.12	528356	keystroke_a	a	n/a
264.299	0.074	528598	keystroke_s	s	n/a
264.433	0.06	528866	keystroke_s	s	n/a
264.613	0.075	529226	keystroke_e	e	n/a
264.733	0.12	529466	keystroke_s	s	n/a
264.823	0.105	529646	keystroke_Key.space	Key.space	n/a
265.453	0.075	530906	keystroke_p	p	n/a
265.543	0.09	531086	keystroke_r	r	n/a
265.618	0.105	531236	keystroke_o	o	n/a
265.738	0.135	531476	keystroke_z	z	n/a
266.338	0.151	532676	keystroke_a	a	n/a
266.564	0.1195	533128	keystroke_c	c	n/a
267.6285	0.105	535257	keystroke_Key.enter	Key.enter	n/a
267.741	7.044	535482	prompt	n/a	jill reconstruction exhibit ordering\n
269.5335	0.09	539067	keystroke_j	j	n/a
269.6985	0.075	539397	keystroke_i	i	n/a
269.8185	0.06	539637	keystroke_l	l	n/a
269.9235	0.075	539847	keystroke_l	l	n/a
270.0735	0.09	540147	keystroke_Key.space	Key.space	n/a
270.5535	0.12	541107	keystroke_r	r	n/a
270.6435	0.12	541287	keystroke_e	e	n/a
270.8535	0.15	541707	keystroke_c	c	n/a
271.0045	0.09	542009	keystroke_o	o	n/a
271.0785	0.12	542157	keystroke_n	n	n/a
271.2135	0.105	542427	keystroke_s	s	n/a
271.3035	0.06	542607	keystroke_t	t	n/a
271.4535	0.075	542907	keystroke_r	r	n/a
271.5585	0.105	543117	keystroke_u	u	n/a
271.6485	0.09	543297	keystroke_c	c	n/a
271.8285	0.06	543657	keystroke_t	t	n/a
271.9035	0.135	543807	keystroke_i	i	n/a
271.9485	0.105	543897	keystroke_o	o	n/a
271.9935	0.12	543987	keystroke_n	n	n/a
272.0685	0.075	544137	keystroke_Key.space	Key.space	n/a
272.8185	0.06	545637	keystroke_e	e	n/a
272.9835	0.105	545967	keystroke_x	x	n/a
273.1185	0.09	546237	keystroke_h	h	n/a
273.1935	0.075	546387	keystroke_i	i	n/a
273.3285	0.105	546657	keystroke_b	b	n/a
273.3885	0.105	546777	keystroke_i	i	n/a
273.5235	0.075	547047	keystroke_t	t	n/a
273.6435	0.075	547287	keystroke_Key.space	Key.space	n/a
273.8685	0.09	547737	keystroke_o	o	n/a
273.9285	0.075	547857	keystroke_r	r	n/a
274.0485	0.045	548097	keystroke_d	d	n/a
274.1985	0.12	548397	keystroke_e	e	n/a
274.2435	0.105	548487	keystroke_r	r	n/a
274.3335	0.105	548667	keystroke_i	i	n/a
274.3935	0.12	548787	keystroke_n	n	n/a
274.4535	0.075	548907	keystroke_g	g	n/a
274.6935	0.09	549387	keystroke_Key.enter	Key.enter	n/a
274.788	5.022	549576	prompt	n/a	hope apartment impose acts\n
275.3835	0.12	550767	keystroke_h	h	n/a
275.4735	0.135	550947	keystroke_o	o	n/a
275.5635	0.12	551127	keystroke_p	p	n/a
275.6385	0.12	551277	keystroke_e	e	n/a
275.7435	0.09	551487	keystroke_Key.space	Key.space	n/a
275.9535	0.12	551907	keystroke_a	a	n/a
276.0435	0.12	552087	keystroke_p	p	n/a
276.1485	0.1505	552297	keystroke_a	a	n/a
276.2385	0.0745	552477	keystroke_r	r	n/a
276.373	0.091	552746	keystroke_t	t	n/a
276.478	0.076	552956	keystroke_m	m	n/a
276.568	0.075	553136	keystroke_e	e	n/a
276.628	0.106	553256	keystroke_n	n	n/a
276.808	0.136	553616	keystroke_t	t	n/a
276.898	0.09	553796	keystroke_Key.space	Key.space	n/a
277.619	0.105	555238	keystroke_i	i	n/a
277.694	0.135	555388	keystroke_m	m	n/a
277.814	0.06	555628	keystroke_p	p	n/a
277.858	0.121	555716	keystroke_o	o	n/a
277.994	0.075	555988	keystroke_s	s	n/a
278.5035	0.165	557007	keystroke_e	e	n/a
278.6535	0.075	557307	keystroke_Key.space	Key.space	n/a
279.073	0.136	558146	keystroke_a	a	n/a
279.178	0.075	558356	keystroke_c	c	n/a
279.343	0.06	558686	keystroke_t	t	n/a
279.448	0.12	558896	keystroke_s	s	n/a
279.718	0.09	559436	keystroke_Key.enter	Key.enter	n/a
279.8165	6.3835	559633	prompt	n/a	forty examples molecules scored\n
280.4985	0.075	560997	keystroke_f	f	n/a
280.588	0.12	561176	keystroke_o	o	n/a
280.648	0.075	561296	keystroke_r	r	n/a
280.768	0.105	561536	keystroke_t	t	n/a
280.888	0.09	561776	keystroke_y	y	n/a
280.993	0.075	561986	keystroke_Key.space	Key.space	n/a
281.1585	0.06	562317	keystroke_e	e	n/a
281.3085	0.075	562617	keystroke_x	x	n/a
281.4435	0.165	562887	keystroke_a	a	n/a
281.4885	0.135	562977	keystroke_m	m	n/a
281.5635	0.105	563127	keystroke_p	p	n/a
281.7135	0.12	563427	keystroke_l	l	n/a
281.8035	0.105	563607	keystroke_e	e	n/a
281.8935	0.165	563787	keystroke_s	s	n/a
282.0135	0.12	564027	keystroke_Key.space	Key.space	n/a
282.7935	0.12	565587	keystroke_m	m	n/a
282.8835	0.075	565767	keystroke_o	o	n/a
283.0035	0.015	566007	keystroke_e	e	n/a
283.0485	0.12	566097	keystroke_l	l	n/a
283.4085	0.045	566817	keystroke_Key.backspace	Key.backspace	n/a
283.5135	0.075	567027	keystroke_Key.backspace	Key.backspace	n/a
283.7085	0.09	567417	keystroke_l	l	n/a
283.7835	0.09	567567	keystroke_e	e	n/a
283.9485	0.135	567897	keystroke_c	c	n/a
284.0985	0.06	568197	keystroke_u	u	n/a
284.1735	0.15	568347	keystroke_l	l	n/a
284.2785	0.135	568557	keystroke_e	e	n/a
284.3835	0.12	568767	keystroke_s	s	n/a
284.4585	0.105	568917	keystroke_Key.space	Key.space	n/a
285.1185	0.105	570237	keystroke_s	s	n/a
285.2685	0.09	570537	keystroke_c	c	n/a
285.3735	0.09	570747	keystroke_o	o	n/a
285.4485	0.12	570897	keystroke_r	r	n/a
285.5235	0.09	571047	keystroke_e	e	n/a
285.6885	0.12	571377	keystroke_d	d	n/a
286.1085	0.0895	572217	keystroke_Key.enter	Key.enter	n/a
286.2095	5.706	572419	prompt	n/a	colored themes platinum studied\n
286.873	0.135	573746	keystroke_c	c	n/a
286.933	0.09	573866	keystroke_o	o	n/a
287.083	0.06	574166	keystroke_l	l	n/a
287.203	0.12	574406	keystroke_o	o	n/a
287.308	0.105	574616	keystroke_r	r	n/a
287.3985	0.0445	574797	keystroke_e	e	n/a
287.534	0.089	575068	keystroke_d	d	n/a
287.578	0.105	575156	keystroke_Key.space	Key.space	n/a
287.728	0.075	575456	keystroke_t	t	n/a
287.788	0.075	575576	keystroke_h	h	n/a
287.893	0.06	575786	keystroke_e	e	n/a
287.968	0.105	575936	keystroke_m	m	n/a
288.043	0.09	576086	keystroke_e	e	n/a
288.238	0.105	576476	keystroke_s	s	n/a
288.328	0.105	576656	keystroke_Key.space	Key.space	n/a
288.703	0.09	577406	keystroke_p	p	n/a
288.883	0.12	577766	keystroke_l	l	n/a
289.018	0.12	578036	keystroke_a	a	n/a
289.243	0.12	578486	keystroke_t	t	n/a
289.423	0.105	578846	keystroke_i	i	n/a
289.573	0.09	579146	keystroke_n	n	n/a
289.753	0.075	579506	keystroke_u	u	n/a
289.918	0.105	579836	keystroke_m	m	n/a
290.083	0.09	580166	keystroke_Key.space	Key.space	n/a
290.879	0.09	581758	keystroke_s	s	n/a
290.999	0.075	581998	keystroke_t	t	n/a
291.104	0.075	582208	keystroke_u	u	n/a
291.164	0.09	582328	keystroke_d	d	n/a
291.269	0.12	582538	keystroke_i	i	n/a
291.359	0.075	582718	keystroke_e	e	n/a
291.614	0.015	583228	keystroke_d	d	n/a
291.839	0.075	583678	keystroke_Key.enter	Key.enter	n/a
291.9185	6.4465	583837	prompt	n/a	lady coaching california wedding\n
292.544	0.105	585088	keystroke_l	l	n/a
292.604	0.134	585208	keystroke_a	a	n/a
292.724	0.09	585448	keystroke_d	d	n/a
292.874	0.12	585748	keystroke_y	y	n/a
292.963	0.106	585926	keystroke_Key.space	Key.space	n/a
293.474	0.105	586948	keystroke_c	c	n/a
293.549	0.09	587098	keystroke_o	o	n/a
293.608	0.166	587216	keystroke_a	a	n/a
293.714	0.165	587428	keystroke_c	c	n/a
293.804	0.089	587608	keystroke_h	h	n/a
293.908	0.12	587816	keystroke_i	i	n/a
293.984	0.134	587968	keystroke_n	n	n/a
294.058	0.106	588116	keystroke_g	g	n/a
294.148	0.075	588296	keystroke_Key.space	Key.space	n/a
294.359	0.119	588718	keystroke_c	c	n/a
294.433	0.136	588866	keystroke_a	a	n/a
294.539	0.104	589078	keystroke_l	l	n/a
294.613	0.09	589226	keystroke_i	i	n/a
294.688	0.091	589376	keystroke_f	f	n/a
294.853	0.09	589706	keystroke_o	o	n/a
294.959	0.089	589918	keystroke_r	r	n/a
295.063	0.075	590126	keystroke_n	n	n/a
295.124	0.12	590248	keystroke_i	i	n/a
295.258	0.105	590516	keystroke_a	a	n/a
295.678	0.076	591356	keystroke_Key.space	Key.space	n/a
295.828	0.136	591656	keystroke_w	w	n/a
295.934	0.059	591868	keystroke_e	e	n/a
296.068	0.061	592136	keystroke_d	d	n/a
296.188	0.105	592376	keystroke_d	d	n/a
296.294	0.09	592588	keystroke_i	i	n/a
296.338	0.105	592676	keystroke_n	n	n/a
296.414	0.074	592828	keystroke_g	g	n/a
298.2885	0.075	596577	keystroke_Key.enter	Key.enter	n/a
298.3675	10.3325	596735	prompt	n/a	shore ecommerce expenditure often\n
298.9335	0.06	597867	keystroke_f	f	n/a
299.3535	0.09	598707	keystroke_Key.backspace	Key.backspace	n/a
299.4285	0.09	598857	keystroke_s	s	n/a
299.5335	0.09	599067	keystroke_h	h	n/a
299.5785	0.135	599157	keystroke_o	o	n/a
299.6835	0.12	599367	keystroke_r	r	n/a
299.7585	0.15	599517	keystroke_e	e	n/a
299.8635	0.105	599727	keystroke_Key.space	Key.space	n/a
300.0585	0.09	600117	keystroke_e	e	n/a
300.2535	0.075	600507	keystroke_c	c	n/a
300.4035	0.045	600807	keystroke_c	c	n/a
300.7185	0.045	601437	keystroke_Key.backspace	Key.backspace	n/a
300.9735	0.105	601947	keystroke_o	o	n/a
301.1085	0.09	602217	keystroke_m	m	n/a
301.244	0.09	602488	keystroke_m	m	n/a
301.409	0.15	602818	keystroke_e	e	n/a
301.499	0.105	602998	keystroke_r	r	n/a
301.709	0.15	603418	keystroke_c	c	n/a
301.829	0.15	603658	keystroke_e	e	n/a
301.964	0.1045	603928	keystroke_Key.space	Key.space	n/a
305.8055	0.013	611611	keystroke_e	e	n/a
305.9385	0.15	611877	keystroke_x	x	n/a
306.1635	0.105	612327	keystroke_p	p	n/a
306.4035	0.09	612807	keystroke_e	e	n/a
306.6135	0.105	613227	keystroke_n	n	n/a
306.7335	0.105	613467	keystroke_d	d	n/a
306.8835	0.09	613767	keystroke_i	i	n/a
307.0185	0.075	614037	keystroke_t	t	n/a
307.1235	0.09	614247	keystroke_u	u	n/a
307.1985	0.15	614397	keystroke_r	r	n/a
307.2885	0.165	614577	keystroke_e	e	n/a
307.393	0.1055	614786	keystroke_Key.space	Key.space	n/a
307.738	0.106	615476	keystroke_o	o	n/a
307.858	0.045	615716	keystroke_f	f	n/a
307.978	0.136	615956	keystroke_t	t	n/a
308.053	0.12	616106	keystroke_e	e	n/a
308.143	0.12	616286	keystroke_n	n	n/a
308.608	0.09	617216	keystroke_Key.enter	Key.enter	n/a
308.7035	5.0515	617407	prompt	n/a	soul london induced camera\n
309.328	0.12	618656	keystroke_s	s	n/a
309.418	0.12	618836	keystroke_o	o	n/a
309.493	0.135	618986	keystroke_u	u	n/a
309.613	0.135	619226	keystroke_l	l	n/a
309.763	0.18	619526	keystroke_Key.space	Key.space	n/a
310.093	0.076	620186	keystroke_l	l	n/a
310.273	0.105	620546	keystroke_o	o	n/a
310.363	0.105	620726	keystroke_n	n	n/a
310.438	0.075	620876	keystroke_d	d	n/a
310.588	0.09	621176	keystroke_o	o	n/a
310.663	0.1055	621326	keystroke_n	n	n/a
310.738	0.0755	621476	keystroke_Key.space	Key.space	n/a
310.9335	0.075	621867	keystroke_i	i	n/a
310.9785	0.075	621957	keystroke_n	n	n/a
311.0985	0.09	622197	keystroke_d	d	n/a
311.1585	0.075	622317	keystroke_u	u	n/a
311.2785	0.09	622557	keystroke_c	c	n/a
311.4435	0.045	622887	keystroke_e	e	n/a
312.193	0.151	624386	keystroke_d	d	n/a
312.358	0.136	624716	keystroke_Key.space	Key.space	n/a
312.719	0.15	625438	keystroke_c	c	n/a
312.854	0.12	625708	keystroke_a	a	n/a
312.959	0.105	625918	keystroke_m	m	n/a
313.109	0.105	626218	keystroke_e	e	n/a
313.169	0.12	626338	keystroke_r	r	n/a
313.259	0.135	626518	keystroke_a	a	n/a
313.664	0.089	627328	keystroke_Key.enter	Key.enter	n/a
313.76	3.85	627520	prompt	n/a	grammar today rocks videos\n
314.384	0.06	628768	keystroke_g	g	n/a
314.519	0.135	629038	keystroke_r	r	n/a
314.609	0.15	629218	keystroke_a	a	n/a
314.714	0.075	629428	keystroke_m	m	n/a
314.849	0.09	629698	keystroke_m	m	n/a
314.954	0.105	629908	keystroke_a	a	n/a
315.149	0.105	630298	keystroke_r	r	n/a
315.239	0.075	630478	keystroke_Key.space	Key.space	n/a
315.344	0.09	630688	keystroke_t	t	n/a
315.449	0.09	630898	keystroke_o	o	n/a
315.539	0.09	631078	keystroke_d	d	n/a
315.599	0.135	631198	keystroke_a	a	n/a
315.689	0.105	631378	keystroke_y	y	n/a
315.824	0.075	631648	keystroke_Key.space	Key.space	n/a
316.064	0.075	632128	keystroke_r	r	n/a
316.124	0.06	632248	keystroke_o	o	n/a
316.229	0.09	632458	keystroke_c	c	n/a
316.289	0.075	632578	keystroke_k	k	n/a
316.409	0.105	632818	keystroke_s	s	n/a
316.499	0.09	632998	keystroke_Key.space	Key.space	n/a
316.814	0.09	633628	keystroke_v	v	n/a
316.874	0.09	633748	keystroke_i	i	n/a
316.979	0.06	633958	keystroke_d	d	n/a
317.129	0.06	634258	keystroke_e	e	n/a
317.189	0.075	634378	keystroke_o	o	n/a
317.279	0.09	634558	keystroke_s	s	n/a
317.519	0.09	635038	keystroke_Key.enter	Key.enter	n/a
317.6135	7.7815	635227	prompt	n/a	oxide italiano membership however\n
318.359	0.075	636718	keystroke_o	o	n/a
318.449	0.09	636898	keystroke_x	x	n/a
318.539	0.105	637078	keystroke_i	i	n/a
318.659	0.075	637318	keystroke_d	d	n/a
318.809	0.12	637618	keystroke_e	e	n/a
318.914	0.075	637828	keystroke_Key.space	Key.space	n/a
319.034	0.015	638068	keystroke_l	l	n/a
319.379	0.06	638758	keystroke_Key.backspace	Key.backspace	n/a
319.574	0.09	639148	keystroke_i	i	n/a
319.634	0.1045	639268	keystroke_t	t	n/a
319.724	0.135	639448	keystroke_a	a	n/a
319.844	0.075	639688	keystroke_l	l	n/a
320.774	0.075	641548	keystroke_i	i	n/a
320.879	0.105	641758	keystroke_a	a	n/a
320.969	0.09	641938	keystroke_n	n	n/a
321.029	0.105	642058	keystroke_o	o	n/a
321.179	0.09	642358	keystroke_Key.space	Key.space	n/a
322.6635	0.105	645327	keystroke_m	m	n/a
322.7835	0.09	645567	keystroke_e	e	n/a
322.8885	0.12	645777	keystroke_m	m	n/a
322.9935	0.09	645987	keystroke_b	b	n/a
323.2035	0.075	646407	keystroke_e	e	n/a
323.2485	0.135	646497	keystroke_r	r	n/a
323.3985	0.105	646797	keystroke_s	s	n/a
323.4735	0.09	646947	keystroke_h	h	n/a
323.5935	0.135	647187	keystroke_i	i	n/a
323.7135	0.135	647427	keystroke_p	p	n/a
323.8635	0.09	647727	keystroke_Key.space	Key.space	n/a
324.4935	0.06	648987	keystroke_h	h	n/a
324.5235	0.12	649047	keystroke_o	o	n/a
324.6285	0.075	649257	keystroke_w	w	n/a
324.7185	0.105	649437	keystroke_e	e	n/a
324.8685	0.105	649737	keystroke_v	v	n/a
325.0335	0.105	650067	keystroke_e	e	n/a
325.0935	0.105	650187	keystroke_r	r	n/a
325.3185	0.075	650637	keystroke_Key.enter	Key.enter	n/a
325.3985	8.4865	650797	prompt	n/a	weird hopefully streets refurbished\n
326.2485	0.09	652497	keystroke_w	w	n/a
326.3085	0.135	652617	keystroke_e	e	n/a
326.4585	0.1055	652917	keystroke_i	i	n/a
326.5485	0.12	653097	keystroke_r	r	n/a
326.6385	0.06	653277	keystroke_e	e	n/a
326.7585	0.225	653517	keystroke_d	d	n/a
326.9535	0.12	653907	keystroke_Key.space	Key.space	n/a
327.3585	0.06	654717	keystroke_Key.backspace	Key.backspace	n/a
327.6135	0.09	655227	keystroke_Key.backspace	Key.backspace	n/a
327.9285	0.075	655857	keystroke_Key.backspace	Key.backspace	n/a
328.0935	0.135	656187	keystroke_d	d	n/a
328.1835	0.105	656367	keystroke_Key.space	Key.space	n/a
329.0535	0.075	658107	keystroke_h	h	n/a
329.0985	0.135	658197	keystroke_o	o	n/a
329.1585	0.135	658317	keystroke_p	p	n/a
329.2635	0.075	658527	keystroke_e	e	n/a
329.443	0.075	658886	keystroke_f	f	n/a
329.504	0.059	659008	keystroke_u	u	n/a
329.653	0.061	659306	keystroke_l	l	n/a
329.774	0.059	659548	keystroke_l	l	n/a
329.969	0.09	659938	keystroke_y	y	n/a
330.613	0.12	661226	keystroke_Key.space	Key.space	n/a
330.928	0.105	661856	keystroke_s	s	n/a
331.048	0.045	662096	keystroke_t	t	n/a
331.183	0.091	662366	keystroke_r	r	n/a
331.258	0.06	662516	keystroke_e	e	n/a
331.363	0.105	662726	keystroke_e	e	n/a
331.528	0.09	663056	keystroke_t	t	n/a
331.679	0.104	663358	keystroke_s	s	n/a
331.828	0.09	663656	keystroke_Key.space	Key.space	n/a
332.1885	0.105	664377	keystroke_r	r	n/a
332.2785	0.06	664557	keystroke_e	e	n/a
332.4135	0.105	664827	keystroke_f	f	n/a
332.5785	0.09	665157	keystroke_u	u	n/a
332.6835	0.06	665367	keystroke_r	r	n/a
332.8785	0.105	665757	keystroke_b	b	n/a
332.9985	0.09	665997	keystroke_i	i	n/a
333.1035	0.075	666207	keystroke_s	s	n/a
333.1935	0.09	666387	keystroke_h	h	n/a
333.2685	0.075	666537	keystroke_e	e	n/a
333.3885	0.105	666777	keystroke_d	d	n/a
333.7785	0.105	667557	keystroke_Key.enter	Key.enter	n/a
333.889	8.8465	667778	prompt	n/a	converted doll gratis runs\n
334.6035	0.105	669207	keystroke_c	c	n/a
334.6785	0.09	669357	keystroke_o	o	n/a
334.739	0.0895	669478	keystroke_n	n	n/a
334.8135	0.075	669627	keystroke_v	v	n/a
334.9635	0.105	669927	keystroke_e	e	n/a
335.0385	0.06	670077	keystroke_r	r	n/a
335.1585	0.09	670317	keystroke_t	t	n/a
335.2185	0.075	670437	keystroke_e	e	n/a
335.3535	0.105	670707	keystroke_d	d	n/a
335.4435	0.09	670887	keystroke_Key.space	Key.space	n/a
335.7135	0.075	671427	keystroke_d	d	n/a
335.7895	0.074	671579	keystroke_o	o	n/a
335.9985	0.045	671997	keystroke_l	l	n/a
336.0885	0.1205	672177	keystroke_l	l	n/a
336.194	0.09	672388	keystroke_Key.space	Key.space	n/a
336.464	0.045	672928	keystroke_g	g	n/a
336.599	0.075	673198	keystroke_r	r	n/a
336.659	0.135	673318	keystroke_a	a	n/a
336.749	0.09	673498	keystroke_t	t	n/a
336.839	0.105	673678	keystroke_i	i	n/a
336.959	0.12	673918	keystroke_s	s	n/a
337.094	0.075	674188	keystroke_Key.space	Key.space	n/a
337.409	0.075	674818	keystroke_r	r	n/a
337.469	0.06	674938	keystroke_u	u	n/a
337.589	0.12	675178	keystroke_n	n	n/a
337.664	0.075	675328	keystroke_s	s	n/a
342.7215	0.013	685443	keystroke_Key.enter	Key.enter	n/a
342.738	6.673	685476	prompt	n/a	divide revenue awarded shan't\n
343.5585	0.075	687117	keystroke_d	d	n/a
343.6635	0.076	687327	keystroke_i	i	n/a
343.7235	0.105	687447	keystroke_v	v	n/a
343.8445	0.09	687689	keystroke_i	i	n/a
343.8895	0.074	687779	keystroke_d	d	n/a
344.0385	0.151	688077	keystroke_e	e	n/a
344.1735	0.091	688347	keystroke_Key.space	Key.space	n/a
344.6545	0.09	689309	keystroke_r	r	n/a
344.7295	0.074	689459	keystroke_e	e	n/a
344.8635	0.075	689727	keystroke_v	v	n/a
344.9685	0.075	689937	keystroke_e	e	n/a
345.0445	0.075	690089	keystroke_n	n	n/a
345.1935	0.075	690387	keystroke_u	u	n/a
345.2835	0.106	690567	keystroke_e	e	n/a
345.3735	0.075	690747	keystroke_Key.space	Key.space	n/a
345.5085	0.12	691017	keystroke_a	a	n/a
345.7335	0.075	691467	keystroke_w	w	n/a
345.7935	0.15	691587	keystroke_a	a	n/a
345.9735	0.09	691947	keystroke_r	r	n/a
346.0935	0.075	692187	keystroke_d	d	n/a
346.2445	0.074	692489	keystroke_e	e	n/a
346.3635	0.075	692727	keystroke_d	d	n/a
346.8135	0.105	693627	keystroke_Key.space	Key.space	n/a
346.9785	0.091	693957	keystroke_s	s	n/a
347.0835	0.06	694167	keystroke_h	h	n/a
347.1885	0.12	694377	keystroke_a	a	n/a
348.029	0.12	696058	keystroke_n	n	n/a
348.254	0.105	696508	keystroke_'	'	n/a
348.344	0.09	696688	keystroke_t	t	n/a
348.449	0.09	696898	keystroke_Key.space	Key.space	n/a
349.109	0.0755	698218	keystroke_Key.backspace	Key.backspace	n/a
349.3195	0.09	698639	keystroke_Key.enter	Key.enter	n/a
349.414	6.9865	698828	prompt	n/a	mainland finished instruction naughty\n
351.5565	0.012	703113	keystroke_m	m	n/a
351.5835	0.12	703167	keystroke_a	a	n/a
351.6735	0.09	703347	keystroke_i	i	n/a
351.7185	0.12	703437	keystroke_n	n	n/a
351.9735	0.075	703947	keystroke_l	l	n/a
352.0335	0.105	704067	keystroke_a	a	n/a
352.1235	0.106	704247	keystroke_n	n	n/a
352.2135	0.105	704427	keystroke_d	d	n/a
352.3195	0.104	704639	keystroke_Key.space	Key.space	n/a
352.5735	0.075	705147	keystroke_f	f	n/a
352.6495	0.074	705299	keystroke_i	i	n/a
352.7685	0.09	705537	keystroke_n	n	n/a
352.8285	0.075	705657	keystroke_i	i	n/a
352.9335	0.075	705867	keystroke_s	s	n/a
353.0235	0.09	706047	keystroke_h	h	n/a
353.0985	0.0605	706197	keystroke_e	e	n/a
353.2035	0.135	706407	keystroke_d	d	n/a
353.3235	0.105	706647	keystroke_Key.space	Key.space	n/a
353.7285	0.105	707457	keystroke_i	i	n/a
353.8185	0.12	707637	keystroke_n	n	n/a
353.8785	0.12	707757	keystroke_s	s	n/a
353.9685	0.0605	707937	keystroke_t	t	n/a
354.0885	0.0755	708177	keystroke_r	r	n/a
354.179	0.09	708358	keystroke_u	u	n/a
354.2835	0.09	708567	keystroke_c	c	n/a
354.4335	0.105	708867	keystroke_t	t	n/a
354.5235	0.1365	709047	keystroke_i	i	n/a
354.584	0.091	709168	keystroke_o	o	n/a
354.629	0.12	709258	keystroke_n	n	n/a
354.689	0.075	709378	keystroke_Key.space	Key.space	n/a
355.5135	0.06	711027	keystroke_n	n	n/a
355.5885	0.09	711177	keystroke_a	a	n/a
355.6795	0.059	711359	keystroke_u	u	n/a
355.7685	0.06	711537	keystroke_g	g	n/a
355.8435	0.075	711687	keystroke_h	h	n/a
355.9035	0.075	711807	keystroke_t	t	n/a
356.0085	0.075	712017	keystroke_y	y	n/a
356.2935	0.105	712587	keystroke_Key.enter	Key.enter	n/a
356.4035	10.3925	712807	prompt	n/a	niagara fleece scene chevy\n
358.651	0.013	717302	keystroke_n	n	n/a
358.651	0.073	717302	keystroke_i	i	n/a
358.709	0.09	717418	keystroke_a	a	n/a
358.874	0.075	717748	keystroke_g	g	n/a
362.2965	0.027	724593	keystroke_a	a	n/a
362.3535	0.105	724707	keystroke_r	r	n/a
362.4735	0.1055	724947	keystroke_a	a	n/a
362.624	0.06	725248	keystroke_Key.space	Key.space	n/a
363.104	0.09	726208	keystroke_f	f	n/a
363.224	0.09	726448	keystroke_l	l	n/a
363.299	0.045	726598	keystroke_e	e	n/a
363.404	0.09	726808	keystroke_e	e	n/a
363.569	0.12	727138	keystroke_c	c	n/a
363.674	0.075	727348	keystroke_e	e	n/a
363.764	0.09	727528	keystroke_Key.space	Key.space	n/a
364.409	0.09	728818	keystroke_s	s	n/a
364.529	0.12	729058	keystroke_c	c	n/a
364.664	0.06	729328	keystroke_e	e	n/a
364.7695	0.105	729539	keystroke_n	n	n/a
364.8445	0.105	729689	keystroke_e	e	n/a
365.0095	0.09	730019	keystroke_Key.space	Key.space	n/a
365.9695	0.135	731939	keystroke_c	c	n/a
366.0595	0.09	732119	keystroke_h	h	n/a
366.1195	0.06	732239	keystroke_e	e	n/a
366.2545	0.105	732509	keystroke_v	v	n/a
366.3745	0.075	732749	keystroke_y	y	n/a
366.7045	0.09	733409	keystroke_Key.enter	Key.enter	n/a
366.799	6.762	733598	prompt	n/a	save competitive addiction drums\n
367.4395	0.135	734879	keystroke_s	s	n/a
367.4995	0.165	734999	keystroke_a	a	n/a
367.6345	0.105	735269	keystroke_v	v	n/a
367.7845	0.105	735569	keystroke_e	e	n/a
367.8735	0.06	735747	keystroke_Key.space	Key.space	n/a
367.9795	0.105	735959	keystroke_c	c	n/a
368.0395	0.09	736079	keystroke_o	o	n/a
368.1145	0.105	736229	keystroke_m	m	n/a
368.1745	0.165	736349	keystroke_p	p	n/a
368.3095	0.105	736619	keystroke_e	e	n/a
368.3845	0.074	736769	keystroke_t	t	n/a
368.4595	0.06	736919	keystroke_i	i	n/a
368.5345	0.075	737069	keystroke_t	t	n/a
368.7885	0.121	737577	keystroke_v	v	n/a
368.9695	0.09	737939	keystroke_i	i	n/a
369.3435	0.046	738687	keystroke_Key.backspace	Key.backspace	n/a
369.4485	0.075	738897	keystroke_Key.backspace	Key.backspace	n/a
370.0935	0.076	740187	keystroke_i	i	n/a
370.1535	0.105	740307	keystroke_v	v	n/a
370.3035	0.12	740607	keystroke_e	e	n/a
370.4085	0.09	740817	keystroke_Key.space	Key.space	n/a
371.3685	0.09	742737	keystroke_a	a	n/a
371.5045	0.074	743009	keystroke_d	d	n/a
371.6385	0.09	743277	keystroke_d	d	n/a
371.7435	0.075	743487	keystroke_i	i	n/a
371.8035	0.06	743607	keystroke_c	c	n/a
371.9385	0.075	743877	keystroke_t	t	n/a
371.9985	0.136	743997	keystroke_i	i	n/a
372.0585	0.09	744117	keystroke_o	o	n/a
372.1185	0.105	744237	keystroke_n	n	n/a
372.1935	0.06	744387	keystroke_Key.space	Key.space	n/a
372.8085	0.075	745617	keystroke_d	d	n/a
372.9435	0.09	745887	keystroke_r	r	n/a
373.0185	0.06	746037	keystroke_u	u	n/a
373.1385	0.12	746277	keystroke_m	m	n/a
373.2135	0.105	746427	keystroke_s	s	n/a
373.4835	0.075	746967	keystroke_Key.enter	Key.enter	n/a
373.5635	18.2365	747127	prompt	n/a	model ware medline treasurer\n
374.2185	0.12	748437	keystroke_m	m	n/a
374.3085	0.1205	748617	keystroke_o	o	n/a
374.3835	0.06	748767	keystroke_d	d	n/a
374.504	0.09	749008	keystroke_e	e	n/a
374.579	0.1055	749158	keystroke_l	l	n/a
374.669	0.0605	749338	keystroke_Key.space	Key.space	n/a
374.789	0.15	749578	keystroke_w	w	n/a
374.879	0.1205	749758	keystroke_a	a	n/a
374.939	0.1505	749878	keystroke_r	r	n/a
375.0595	0.12	750119	keystroke_e	e	n/a
375.1495	0.105	750299	keystroke_Key.space	Key.space	n/a
375.6445	0.135	751289	keystroke_m	m	n/a
375.7645	0.06	751529	keystroke_e	e	n/a
375.8845	0.09	751769	keystroke_d	d	n/a
376.1545	0.09	752309	keystroke_i	i	n/a
376.3485	0.105	752697	keystroke_l	l	n/a
376.4395	0.029	752879	keystroke_i	i	n/a
376.5135	0.106	753027	keystroke_i	i	n/a
376.5745	0.105	753149	keystroke_n	n	n/a
376.6485	0.09	753297	keystroke_e	e	n/a
376.7535	0.075	753507	keystroke_Key.space	Key.space	n/a
377.1735	0.06	754347	keystroke_Key.backspace	Key.backspace	n/a
377.3085	0.06	754617	keystroke_Key.backspace	Key.backspace	n/a
377.4435	0.06	754887	keystroke_Key.backspace	Key.backspace	n/a
377.5635	0.06	755127	keystroke_Key.backspace	Key.backspace	n/a
377.6685	0.06	755337	keystroke_Key.backspace	Key.backspace	n/a
378.6435	0.09	757287	keystroke_i	i	n/a
378.7035	0.09	757407	keystroke_n	n	n/a
378.7635	0.105	757527	keystroke_e	e	n/a
378.8535	0.105	757707	keystroke_Key.space	Key.space	n/a
379.8285	0.045	759657	keystroke_Key.backspace	Key.backspace	n/a
380.0385	0.045	760077	keystroke_Key.backspace	Key.backspace	n/a
380.2035	0.045	760407	keystroke_Key.backspace	Key.backspace	n/a
380.3385	0.06	760677	keystroke_Key.backspace	Key.backspace	n/a
380.4585	0.06	760917	keystroke_Key.backspace	Key.backspace	n/a
380.5785	0.09	761157	keystroke_Key.backspace	Key.backspace	n/a
381.4185	0.09	762837	keystroke_i	i	n/a
382.0935	0.075	764187	keystroke_Key.backspace	Key.backspace	n/a
383.159	0.06	766318	keystroke_l	l	n/a
383.249	0.12	766498	keystroke_i	i	n/a
383.339	0.12	766678	keystroke_n	n	n/a
383.429	0.09	766858	keystroke_e	e	n/a
383.504	0.09	767008	keystroke_Key.space	Key.space	n/a
383.729	0.015	767458	keystroke_Key.space	Key.space	n/a
384.329	0.045	768658	keystroke_Key.backspace	Key.backspace	n/a
384.689	0.105	769378	keystroke_Key.space	Key.space	n/a
386.956	0.028	773912	keystroke_Key.backspace	Key.backspace	n/a
387.689	0.06	775378	keystroke_t	t	n/a
387.824	0.12	775648	keystroke_r	r	n/a
387.914	0.12	775828	keystroke_e	e	n/a
387.989	0.075	775978	keystroke_a	a	n/a
388.169	0.075	776338	keystroke_s	s	n/a
388.259	0.075	776518	keystroke_u	u	n/a
388.334	0.09	776668	keystroke_r	r	n/a
388.439	0.06	776878	keystroke_e	e	n/a
388.634	0.075	777268	keystroke_r	r	n/a
388.814	0.075	777628	keystroke_Key.space	Key.space	n/a
391.771	0.028	783542	keystroke_Key.enter	Key.enter	n/a
391.807	5.4685	783614	prompt	n/a	isle knowledge compliant free\n
392.564	0.075	785128	keystroke_i	i	n/a
392.639	0.09	785278	keystroke_s	s	n/a
392.744	0.105	785488	keystroke_l	l	n/a
392.819	0.105	785638	keystroke_e	e	n/a
392.939	0.075	785878	keystroke_Key.space	Key.space	n/a
393.164	0.075	786328	keystroke_k	k	n/a
393.614	0.09	787228	keystroke_n	n	n/a
393.674	0.12	787348	keystroke_o	o	n/a
394.034	0.09	788068	keystroke_w	w	n/a
394.154	0.105	788308	keystroke_l	l	n/a
394.304	0.075	788608	keystroke_e	e	n/a
394.439	0.09	788878	keystroke_d	d	n/a
394.589	0.075	789178	keystroke_g	g	n/a
394.739	0.105	789478	keystroke_e	e	n/a
394.829	0.075	789658	keystroke_Key.space	Key.space	n/a
395.369	0.12	790738	keystroke_c	c	n/a
395.444	0.075	790888	keystroke_o	o	n/a
395.504	0.12	791008	keystroke_m	m	n/a
395.609	0.075	791218	keystroke_p	p	n/a
395.774	0.15	791548	keystroke_l	l	n/a
395.909	0.075	791818	keystroke_i	i	n/a
395.999	0.135	791998	keystroke_a	a	n/a
396.104	0.105	792208	keystroke_n	n	n/a
396.224	0.06	792448	keystroke_t	t	n/a
396.314	0.09	792628	keystroke_Key.space	Key.space	n/a
396.599	0.075	793198	keystroke_f	f	n/a
396.734	0.12	793468	keystroke_r	r	n/a
396.855	0.059	793710	keystroke_e	e	n/a
396.944	0.135	793888	keystroke_e	e	n/a
397.184	0.09	794368	keystroke_Key.enter	Key.enter	n/a
397.278	9.1625	794556	prompt	n/a	constructed plot aside she\n
397.904	0.12	795808	keystroke_c	c	n/a
397.964	0.105	795928	keystroke_o	o	n/a
398.039	0.105	796078	keystroke_n	n	n/a
398.114	0.135	796228	keystroke_s	s	n/a
398.219	0.06	796438	keystroke_t	t	n/a
398.339	0.09	796678	keystroke_r	r	n/a
398.459	0.075	796918	keystroke_u	u	n/a
398.549	0.06	797098	keystroke_c	c	n/a
398.699	0.09	797398	keystroke_t	t	n/a
398.774	0.06	797548	keystroke_e	e	n/a
398.894	0.12	797788	keystroke_d	d	n/a
398.969	0.12	797938	keystroke_Key.space	Key.space	n/a
401.4015	0.042	802803	keystroke_p	p	n/a
401.5185	0.105	803037	keystroke_l	l	n/a
401.7135	0.09	803427	keystroke_o	o	n/a
401.8185	0.105	803637	keystroke_t	t	n/a
401.8935	0.075	803787	keystroke_Key.space	Key.space	n/a
402.3135	0.06	804627	keystroke_s	s	n/a
402.4185	0.0905	804837	keystroke_i	i	n/a
402.524	0.03	805048	keystroke_d	d	n/a
402.824	0.045	805648	keystroke_Key.backspace	Key.backspace	n/a
402.944	0.045	805888	keystroke_Key.backspace	Key.backspace	n/a
403.049	0.075	806098	keystroke_Key.backspace	Key.backspace	n/a
403.139	0.09	806278	keystroke_a	a	n/a
403.244	0.0895	806488	keystroke_i	i	n/a
403.304	0.12	806608	keystroke_s	s	n/a
403.619	0.06	807238	keystroke_d	d	n/a
403.739	0.135	807478	keystroke_e	e	n/a
403.844	0.09	807688	keystroke_Key.space	Key.space	n/a
404.114	0.06	808228	keystroke_Key.backspace	Key.backspace	n/a
404.249	0.06	808498	keystroke_Key.backspace	Key.backspace	n/a
404.384	0.06	808768	keystroke_Key.backspace	Key.backspace	n/a
404.504	0.06	809008	keystroke_Key.backspace	Key.backspace	n/a
404.624	0.075	809248	keystroke_Key.backspace	Key.backspace	n/a
404.759	0.075	809518	keystroke_s	s	n/a
404.849	0.105	809698	keystroke_i	i	n/a
404.939	0.045	809878	keystroke_d	d	n/a
405.044	0.15	810088	keystroke_e	e	n/a
405.149	0.12	810298	keystroke_Key.space	Key.space	n/a
405.824	0.075	811648	keystroke_s	s	n/a
405.914	0.09	811828	keystroke_h	h	n/a
405.974	0.075	811948	keystroke_e	e	n/a
406.364	0.075	812728	keystroke_Key.enter	Key.enter	n/a
406.4435	5.502	812887	prompt	n/a	starting before courtesy cancel\n
407.084	0.09	814168	keystroke_s	s	n/a
407.204	0.075	814408	keystroke_t	t	n/a
407.294	0.15	814588	keystroke_a	a	n/a
407.369	0.06	814738	keystroke_r	r	n/a
407.504	0.09	815008	keystroke_t	t	n/a
407.624	0.12	815248	keystroke_i	i	n/a
407.684	0.15	815368	keystroke_n	n	n/a
407.744	0.105	815488	keystroke_g	g	n/a
407.834	0.06	815668	keystroke_Key.space	Key.space	n/a
407.969	0.045	815938	keystroke_b	b	n/a
408.089	0.075	816178	keystroke_e	e	n/a
408.194	0.06	816388	keystroke_f	f	n/a
408.269	0.09	816538	keystroke_o	o	n/a
408.329	0.105	816658	keystroke_r	r	n/a
408.374	0.135	816748	keystroke_e	e	n/a
408.479	0.075	816958	keystroke_Key.space	Key.space	n/a
408.989	0.105	817978	keystroke_c	c	n/a
409.229	0.09	818458	keystroke_o	o	n/a
409.304	0.09	818608	keystroke_u	u	n/a
409.379	0.06	818758	keystroke_r	r	n/a
409.5595	0.06	819119	keystroke_t	t	n/a
409.8595	0.075	819719	keystroke_e	e	n/a
410.0545	0.105	820109	keystroke_s	s	n/a
410.1745	0.075	820349	keystroke_y	y	n/a
410.2795	0.06	820559	keystroke_Key.space	Key.space	n/a
411.0595	0.119	822119	keystroke_c	c	n/a
411.1495	0.105	822299	keystroke_a	a	n/a
411.2235	0.121	822447	keystroke_n	n	n/a
411.2985	0.136	822597	keystroke_c	c	n/a
411.4045	0.105	822809	keystroke_e	e	n/a
411.4795	0.105	822959	keystroke_l	l	n/a
411.8845	0.059	823769	keystroke_Key.enter	Key.enter	n/a
411.948	15.0275	823896	prompt	n/a	measurement attitudes seminar czech\n
412.7245	0.12	825449	keystroke_m	m	n/a
412.7995	0.12	825599	keystroke_e	e	n/a
412.8745	0.12	825749	keystroke_a	a	n/a
413.2945	0.104	826589	keystroke_s	s	n/a
413.5645	0.09	827129	keystroke_u	u	n/a
413.7295	0.105	827459	keystroke_r	r	n/a
413.8045	0.09	827609	keystroke_e	e	n/a
413.9095	0.089	827819	keystroke_m	m	n/a
413.9995	0.075	827999	keystroke_e	e	n/a
414.0895	0.09	828179	keystroke_n	n	n/a
414.1645	0.075	828329	keystroke_t	t	n/a
414.2535	0.076	828507	keystroke_Key.space	Key.space	n/a
414.9295	0.105	829859	keystroke_a	a	n/a
415.1095	0.045	830219	keystroke_t	t	n/a
415.2295	0.074	830459	keystroke_t	t	n/a
415.3785	0.091	830757	keystroke_i	i	n/a
415.5895	0.075	831179	keystroke_t	t	n/a
415.7695	0.075	831539	keystroke_u	u	n/a
415.8745	0.045	831749	keystroke_d	d	n/a
415.9935	0.091	831987	keystroke_e	e	n/a
416.1295	0.12	832259	keystroke_s	s	n/a
416.2195	0.089	832439	keystroke_Key.space	Key.space	n/a
417.0445	0.06	834089	keystroke_s	s	n/a
417.1495	0.09	834299	keystroke_e	e	n/a
417.2395	0.09	834479	keystroke_m	m	n/a
417.2995	0.09	834599	keystroke_i	i	n/a
417.4795	0.149	834959	keystroke_a	a	n/a
417.5845	0.105	835169	keystroke_r	r	n/a
417.8245	0.089	835649	keystroke_Key.space	Key.space	n/a
418.7985	0.075	837597	keystroke_c	c	n/a
419.1445	0.135	838289	keystroke_z	z	n/a
419.3535	0.076	838707	keystroke_e	e	n/a
419.3685	0.03	838737	keystroke_3	3	n/a
419.5035	0.1355	839007	keystroke_c	c	n/a
419.609	0.105	839218	keystroke_h	h	n/a
419.969	0.045	839938	keystroke_Key.backspace	Key.backspace	n/a
420.119	0.03	840238	keystroke_Key.backspace	Key.backspace	n/a
420.209	0.075	840418	keystroke_Key.backspace	Key.backspace	n/a
420.299	0.105	840598	keystroke_e	e	n/a
420.419	0.12	840838	keystroke_c	c	n/a
420.524	0.105	841048	keystroke_h	h	n/a
420.869	0.045	841738	keystroke_Key.backspace	Key.backspace	n/a
421.004	0.045	842008	keystroke_Key.backspace	Key.backspace	n/a
421.109	0.06	842218	keystroke_Key.backspace	Key.backspace	n/a
421.214	0.135	842428	keystroke_c	c	n/a
421.334	0.06	842668	keystroke_h	h	n/a
422.459	0.045	844918	keystroke_Key.backspace	Key.backspace	n/a
422.639	0.045	845278	keystroke_Key.backspace	Key.backspace	n/a
422.834	0.03	845668	keystroke_Key.backspace	Key.backspace	n/a
423.014	0.045	846028	keystroke_Key.backspace	Key.backspace	n/a
423.209	0.045	846418	keystroke_Key.backspace	Key.backspace	n/a
423.389	0.06	846778	keystroke_Key.backspace	Key.backspace	n/a
423.599	0.045	847198	keystroke_Key.backspace	Key.backspace	n/a
423.809	0.03	847618	keystroke_Key.backspace	Key.backspace	n/a
424.514	0.075	849028	keystroke_n	n	n/a
424.604	0.12	849208	keystroke_a	a	n/a
424.679	0.135	849358	keystroke_r	r	n/a
424.844	0.06	849688	keystroke_Key.space	Key.space	n/a
425.759	0.105	851518	keystroke_c	c	n/a
426.164	0.075	852328	keystroke_z	z	n/a
426.314	0.075	852628	keystroke_e	e	n/a
426.479	0.105	852958	keystroke_c	c	n/a
426.569	0.075	853138	keystroke_h	h	n/a
426.929	0.045	853858	keystroke_Key.enter	Key.enter	n/a
426.981	6.0695	853962	prompt	n/a	molecules reaction asked compromise\n
427.8145	0.09	855629	keystroke_m	m	n/a
427.9495	0.075	855899	keystroke_o	o	n/a
428.0845	0.09	856169	keystroke_l	l	n/a
428.2045	0.105	856409	keystroke_e	e	n/a
428.3995	0.12	856799	keystroke_c	c	n/a
428.4895	0.06	856979	keystroke_u	u	n/a
428.5945	0.15	857189	keystroke_l	l	n/a
428.7295	0.075	857459	keystroke_e	e	n/a
428.8345	0.105	857669	keystroke_s	s	n/a
428.8945	0.09	857789	keystroke_Key.space	Key.space	n/a
429.0145	0.09	858029	keystroke_r	r	n/a
429.1195	0.18	858239	keystroke_e	e	n/a
429.4495	0.135	858899	keystroke_a	a	n/a
429.5395	0.15	859079	keystroke_c	c	n/a
429.7945	0.075	859589	keystroke_t	t	n/a
429.8845	0.15	859769	keystroke_i	i	n/a
429.9595	0.135	859919	keystroke_o	o	n/a
430.0495	0.105	860099	keystroke_n	n	n/a
430.1695	0.075	860339	keystroke_Key.space	Key.space	n/a
430.3495	0.12	860699	keystroke_a	a	n/a
430.4545	0.105	860909	keystroke_s	s	n/a
430.5445	0.105	861089	keystroke_k	k	n/a
430.6345	0.06	861269	keystroke_e	e	n/a
430.7545	0.12	861509	keystroke_d	d	n/a
430.8595	0.105	861719	keystroke_Key.space	Key.space	n/a
431.4895	0.1045	862979	keystroke_c	c	n/a
431.579	0.09	863158	keystroke_o	o	n/a
431.684	0.09	863368	keystroke_m	m	n/a
431.819	0.075	863638	keystroke_p	p	n/a
431.939	0.075	863878	keystroke_r	r	n/a
431.999	0.09	863998	keystroke_o	o	n/a
432.149	0.09	864298	keystroke_m	m	n/a
432.209	0.12	864418	keystroke_i	i	n/a
432.314	0.105	864628	keystroke_s	s	n/a
432.434	0.09	864868	keystroke_e	e	n/a
432.959	0.09	865918	keystroke_Key.enter	Key.enter	n/a
433.055	5.0505	866110	prompt	n/a	tone attribute drove training\n
433.679	0.09	867358	keystroke_t	t	n/a
433.754	0.09	867508	keystroke_o	o	n/a
433.814	0.135	867628	keystroke_n	n	n/a
433.889	0.105	867778	keystroke_e	e	n/a
433.979	0.075	867958	keystroke_Key.space	Key.space	n/a
434.069	0.135	868138	keystroke_a	a	n/a
434.189	0.06	868378	keystroke_t	t	n/a
434.324	0.06	868648	keystroke_t	t	n/a
434.459	0.06	868918	keystroke_r	r	n/a
434.564	0.09	869128	keystroke_i	i	n/a
435.7945	0.075	871589	keystroke_b	b	n/a
435.8845	0.075	871769	keystroke_u	u	n/a
435.9745	0.12	871949	keystroke_t	t	n/a
436.0795	0.12	872159	keystroke_e	e	n/a
436.1695	0.075	872339	keystroke_Key.space	Key.space	n/a
436.3795	0.075	872759	keystroke_d	d	n/a
436.4995	0.06	872999	keystroke_r	r	n/a
436.5895	0.105	873179	keystroke_o	o	n/a
436.6795	0.06	873359	keystroke_v	v	n/a
436.7845	0.12	873569	keystroke_e	e	n/a
436.8745	0.075	873749	keystroke_Key.space	Key.space	n/a
437.159	0.06	874318	keystroke_t	t	n/a
437.324	0.105	874648	keystroke_r	r	n/a
437.399	0.135	874798	keystroke_a	a	n/a
437.489	0.09	874978	keystroke_i	i	n/a
437.58	0.074	875160	keystroke_n	n	n/a
437.669	0.105	875338	keystroke_i	i	n/a
437.759	0.105	875518	keystroke_n	n	n/a
437.849	0.06	875698	keystroke_g	g	n/a
438.029	0.075	876058	keystroke_Key.enter	Key.enter	n/a
438.108	13.2125	876216	prompt	n/a	recorders frontier hostel bathroom\n
438.989	0.12	877978	keystroke_r	r	n/a
439.094	0.09	878188	keystroke_e	e	n/a
439.274	0.09	878548	keystroke_c	c	n/a
439.365	0.104	878730	keystroke_o	o	n/a
439.484	0.075	878968	keystroke_r	r	n/a
439.589	0.06	879178	keystroke_d	d	n/a
439.7545	0.075	879509	keystroke_e	e	n/a
439.8145	0.075	879629	keystroke_r	r	n/a
439.9345	0.12	879869	keystroke_s	s	n/a
440.0095	0.09	880019	keystroke_Key.space	Key.space	n/a
440.1745	0.09	880349	keystroke_f	f	n/a
440.3245	0.09	880649	keystroke_r	r	n/a
440.4145	0.09	880829	keystroke_o	o	n/a
440.4745	0.09	880949	keystroke_n	n	n/a
440.5345	0.075	881069	keystroke_t	t	n/a
440.6545	0.075	881309	keystroke_i	i	n/a
440.7445	0.135	881489	keystroke_e	e	n/a
440.8195	0.12	881639	keystroke_r	r	n/a
440.9245	0.06	881849	keystroke_Key.space	Key.space	n/a
441.794	0.06	883588	keystroke_h	h	n/a
441.839	0.09	883678	keystroke_o	o	n/a
441.914	0.15	883828	keystroke_s	s	n/a
442.049	0.075	884098	keystroke_t	t	n/a
442.154	0.045	884308	keystroke_l	l	n/a
442.244	0.045	884488	keystroke_e	e	n/a
442.484	0.045	884968	keystroke_Key.backspace	Key.backspace	n/a
442.589	0.06	885178	keystroke_Key.backspace	Key.backspace	n/a
442.664	0.09	885328	keystroke_e	e	n/a
442.784	0.09	885568	keystroke_l	l	n/a
450.152	0.042	900304	keystroke_Key.space	Key.space	n/a
450.239	0.075	900478	keystroke_b	b	n/a
450.329	0.135	900658	keystroke_a	a	n/a
450.449	0.06	900898	keystroke_t	t	n/a
450.524	0.06	901048	keystroke_h	h	n/a
450.585	0.074	901170	keystroke_r	r	n/a
450.675	0.044	901350	keystroke_o	o	n/a
450.764	0.075	901528	keystroke_o	o	n/a
450.854	0.09	901708	keystroke_m	m	n/a
451.244	0.075	902488	keystroke_Key.enter	Key.enter	n/a
451.325	5.711	902650	prompt	n/a	offering mathematics summit cayman\n
452.159	0.075	904318	keystroke_o	o	n/a
452.249	0.045	904498	keystroke_f	f	n/a
452.339	0.075	904678	keystroke_f	f	n/a
452.564	0.06	905128	keystroke_e	e	n/a
452.579	0.075	905158	keystroke_r	r	n/a
452.669	0.075	905338	keystroke_i	i	n/a
452.714	0.105	905428	keystroke_n	n	n/a
452.774	0.135	905548	keystroke_g	g	n/a
452.864	0.09	905728	keystroke_Key.space	Key.space	n/a
453.089	0.105	906178	keystroke_m	m	n/a
453.179	0.105	906358	keystroke_a	a	n/a
453.239	0.09	906478	keystroke_t	t	n/a
453.314	0.0755	906628	keystroke_h	h	n/a
453.4045	0.06	906809	keystroke_e	e	n/a
453.4945	0.105	906989	keystroke_m	m	n/a
453.6895	0.135	907379	keystroke_a	a	n/a
453.7795	0.075	907559	keystroke_t	t	n/a
453.8995	0.09	907799	keystroke_i	i	n/a
453.9745	0.09	907949	keystroke_c	c	n/a
454.0945	0.12	908189	keystroke_s	s	n/a
454.1995	0.06	908399	keystroke_Key.space	Key.space	n/a
454.2895	0.075	908579	keystroke_s	s	n/a
454.3495	0.075	908699	keystroke_u	u	n/a
454.5145	0.06	909029	keystroke_m	m	n/a
454.6195	0.06	909239	keystroke_m	m	n/a
454.7245	0.075	909449	keystroke_i	i	n/a
454.8145	0.075	909629	keystroke_t	t	n/a
454.9195	0.075	909839	keystroke_Key.space	Key.space	n/a
455.9245	0.135	911849	keystroke_c	c	n/a
456.0145	0.135	912029	keystroke_a	a	n/a
456.1345	0.075	912269	keystroke_y	y	n/a
456.3445	0.075	912689	keystroke_m	m	n/a
456.4345	0.12	912869	keystroke_a	a	n/a
456.5245	0.075	913049	keystroke_n	n	n/a
456.945	0.0895	913890	keystroke_Key.enter	Key.enter	n/a
457.0385	5.0075	914077	prompt	n/a	peeing snowboard blood aren't\n
457.65	0.0895	915300	keystroke_p	p	n/a
457.7245	0.06	915449	keystroke_e	e	n/a
457.8295	0.1205	915659	keystroke_e	e	n/a
457.9645	0.09	915929	keystroke_i	i	n/a
458.01	0.1195	916020	keystroke_n	n	n/a
458.0695	0.0755	916139	keystroke_g	g	n/a
458.325	0.09	916650	keystroke_Key.space	Key.space	n/a
458.715	0.0895	917430	keystroke_s	s	n/a
458.7895	0.09	917579	keystroke_n	n	n/a
458.8345	0.09	917669	keystroke_o	o	n/a
458.9095	0.09	917819	keystroke_w	w	n/a
459.479	0.105	918958	keystroke_b	b	n/a
459.569	0.09	919138	keystroke_o	o	n/a
459.644	0.12	919288	keystroke_a	a	n/a
459.734	0.12	919468	keystroke_r	r	n/a
459.839	0.15	919678	keystroke_d	d	n/a
459.959	0.09	919918	keystroke_Key.space	Key.space	n/a
460.2295	0.09	920459	keystroke_b	b	n/a
460.3205	0.044	920641	keystroke_l	l	n/a
460.4395	0.075	920879	keystroke_o	o	n/a
460.5745	0.06	921149	keystroke_o	o	n/a
460.6195	0.09	921239	keystroke_d	d	n/a
460.6945	0.075	921389	keystroke_Key.space	Key.space	n/a
461.1145	0.12	922229	keystroke_a	a	n/a
461.2045	0.12	922409	keystroke_r	r	n/a
461.2945	0.09	922589	keystroke_e	e	n/a
461.3545	0.075	922709	keystroke_n	n	n/a
461.4145	0.105	922829	keystroke_'	'	n/a
461.4895	0.06	922979	keystroke_t	t	n/a
462.0295	0.015	924059	keystroke_Key.enter	Key.enter	n/a
462.049	9.837	924098	prompt	n/a	entering venues lindsay placement\n
462.7195	0.075	925439	keystroke_e	e	n/a
462.8545	0.12	925709	keystroke_n	n	n/a
462.9445	0.06	925889	keystroke_t	t	n/a
463.0495	0.105	926099	keystroke_e	e	n/a
463.1095	0.09	926219	keystroke_r	r	n/a
463.4545	0.09	926909	keystroke_i	i	n/a
463.4995	0.105	926999	keystroke_n	n	n/a
463.5895	0.075	927179	keystroke_g	g	n/a
464.0845	0.105	928169	keystroke_Key.space	Key.space	n/a
464.3245	0.075	928649	keystroke_v	v	n/a
464.4595	0.09	928919	keystroke_e	e	n/a
464.5505	0.074	929101	keystroke_n	n	n/a
464.6845	0.075	929369	keystroke_u	u	n/a
464.7745	0.045	929549	keystroke_e	e	n/a
464.8795	0.12	929759	keystroke_s	s	n/a
464.9545	0.105	929909	keystroke_Key.space	Key.space	n/a
465.0895	0.075	930179	keystroke_l	l	n/a
465.1495	0.135	930299	keystroke_i	i	n/a
465.2095	0.105	930419	keystroke_n	n	n/a
465.2695	0.045	930539	keystroke_d	d	n/a
465.5095	0.12	931019	keystroke_s	s	n/a
465.5995	0.15	931199	keystroke_a	a	n/a
465.6895	0.075	931379	keystroke_y	y	n/a
466.0945	0.045	932189	keystroke_Key.space	Key.space	n/a
466.4545	0.075	932909	keystroke_p	p	n/a
466.6195	0.09	933239	keystroke_l	l	n/a
466.6945	0.15	933389	keystroke_a	a	n/a
466.8145	0.165	933629	keystroke_c	c	n/a
466.9495	0.12	933899	keystroke_e	e	n/a
467.2195	0.09	934439	keystroke_m	m	n/a
467.3545	0.0455	934709	keystroke_e	e	n/a
467.4145	0.075	934829	keystroke_n	n	n/a
467.4745	0.075	934949	keystroke_t	t	n/a
471.8565	0.028	943713	keystroke_Key.enter	Key.enter	n/a
471.889	8.712	943778	prompt	n/a	ethernet offline afternoon smilies\n
472.7245	0.075	945449	keystroke_e	e	n/a
473.0095	0.06	946019	keystroke_t	t	n/a
473.0995	0.09	946199	keystroke_h	h	n/a
473.1745	0.105	946349	keystroke_e	e	n/a
473.2495	0.09	946499	keystroke_r	r	n/a
473.3695	0.09	946739	keystroke_n	n	n/a
473.4745	0.15	946949	keystroke_e	e	n/a
473.5645	0.135	947129	keystroke_t	t	n/a
473.6695	0.09	947339	keystroke_Key.space	Key.space	n/a
474.1645	0.075	948329	keystroke_o	o	n/a
474.2695	0.06	948539	keystroke_f	f	n/a
474.3445	0.105	948689	keystroke_f	f	n/a
475.0645	0.105	950129	keystroke_l	l	n/a
475.1395	0.105	950279	keystroke_i	i	n/a
475.1995	0.135	950399	keystroke_n	n	n/a
475.2455	0.119	950491	keystroke_e	e	n/a
475.3345	0.09	950669	keystroke_Key.space	Key.space	n/a
475.7545	0.15	951509	keystroke_a	a	n/a
475.8595	0.06	951719	keystroke_f	f	n/a
476.0095	0.06	952019	keystroke_t	t	n/a
476.1295	0.105	952259	keystroke_e	e	n/a
476.1895	0.105	952379	keystroke_r	r	n/a
476.2795	0.075	952559	keystroke_n	n	n/a
476.3695	0.045	952739	keystroke_o	o	n/a
476.4745	0.09	952949	keystroke_o	o	n/a
476.5945	0.09	953189	keystroke_n	n	n/a
476.6995	0.075	953399	keystroke_Key.space	Key.space	n/a
477.4045	0.09	954809	keystroke_s	s	n/a
477.4795	0.105	954959	keystroke_m	m	n/a
477.5695	0.075	955139	keystroke_i	i	n/a
478.2145	0.06	956429	keystroke_Key.backspace	Key.backspace	n/a
479.2945	0.06	958589	keystroke_i	i	n/a
479.55	0.03	959100	keystroke_l	l	n/a
479.565	0.075	959130	keystroke_i	i	n/a
479.73	0.1495	959460	keystroke_e	e	n/a
479.8345	0.18	959669	keystroke_s	s	n/a
480.5245	0.0755	961049	keystroke_Key.enter	Key.enter	n/a
480.6035	6.6725	961207	prompt	n/a	magnetic lightning jenny compliance\n
481.439	0.106	962878	keystroke_m	m	n/a
481.53	0.105	963060	keystroke_a	a	n/a
481.694	0.105	963388	keystroke_g	g	n/a
481.875	0.104	963750	keystroke_n	n	n/a
482.039	0.136	964078	keystroke_e	e	n/a
482.129	0.09	964258	keystroke_t	t	n/a
482.249	0.105	964498	keystroke_i	i	n/a
482.384	0.12	964768	keystroke_c	c	n/a
482.519	0.075	965038	keystroke_Key.space	Key.space	n/a
482.625	0.135	965250	keystroke_l	l	n/a
482.729	0.091	965458	keystroke_i	i	n/a
482.849	0.075	965698	keystroke_g	g	n/a
482.954	0.075	965908	keystroke_h	h	n/a
483.045	0.075	966090	keystroke_t	t	n/a
483.8845	0.06	967769	keystroke_n	n	n/a
483.9595	0.09	967919	keystroke_i	i	n/a
484.0345	0.105	968069	keystroke_n	n	n/a
484.1095	0.12	968219	keystroke_g	g	n/a
484.1995	0.09	968399	keystroke_Key.space	Key.space	n/a
484.2595	0.09	968519	keystroke_j	j	n/a
484.3945	0.09	968789	keystroke_e	e	n/a
484.4695	0.06	968939	keystroke_n	n	n/a
484.5745	0.09	969149	keystroke_n	n	n/a
484.7695	0.075	969539	keystroke_y	y	n/a
484.8595	0.09	969719	keystroke_Key.space	Key.space	n/a
485.5345	0.15	971069	keystroke_c	c	n/a
485.6245	0.09	971249	keystroke_o	o	n/a
485.6995	0.105	971399	keystroke_m	m	n/a
485.8345	0.09	971669	keystroke_p	p	n/a
485.9995	0.12	971999	keystroke_l	l	n/a
486.0895	0.105	972179	keystroke_i	i	n/a
486.1795	0.135	972359	keystroke_a	a	n/a
486.3295	0.105	972659	keystroke_n	n	n/a
486.4195	0.12	972839	keystroke_c	c	n/a
486.5095	0.12	973019	keystroke_e	e	n/a
487.1995	0.075	974399	keystroke_Key.enter	Key.enter	n/a
487.279	7.482	974558	prompt	n/a	copyrighted railway virtual stanley\n
487.9195	0.12	975839	keystroke_c	c	n/a
488.0245	0.195	976049	keystroke_o	o	n/a
488.2045	0.105	976409	keystroke_p	p	n/a
488.3695	0.105	976739	keystroke_y	y	n/a
489.495	0.06	978990	keystroke_r	r	n/a
489.585	0.09	979170	keystroke_i	i	n/a
489.69	0.06	979380	keystroke_g	g	n/a
489.765	0.09	979530	keystroke_h	h	n/a
489.87	0.075	979740	keystroke_t	t	n/a
490.005	0.06	980010	keystroke_e	e	n/a
490.139	0.121	980278	keystroke_d	d	n/a
490.23	0.105	980460	keystroke_Key.space	Key.space	n/a
490.53	0.165	981060	keystroke_r	r	n/a
490.65	0.12	981300	keystroke_a	a	n/a
490.755	0.12	981510	keystroke_i	i	n/a
490.83	0.15	981660	keystroke_l	l	n/a
490.965	0.15	981930	keystroke_w	w	n/a
491.025	0.18	982050	keystroke_a	a	n/a
491.145	0.09	982290	keystroke_y	y	n/a
491.685	0.104	983370	keystroke_Key.space	Key.space	n/a
492.075	0.09	984150	keystroke_v	v	n/a
492.18	0.105	984360	keystroke_i	i	n/a
492.27	0.045	984540	keystroke_r	r	n/a
492.405	0.075	984810	keystroke_t	t	n/a
492.495	0.075	984990	keystroke_u	u	n/a
492.585	0.135	985170	keystroke_a	a	n/a
492.675	0.105	985350	keystroke_l	l	n/a
