onset	duration	sample	value	key	prompt_text
8.702	8.254	17404	prompt	n/a	the quick brown fox jumps over a lazy dog\n
10.0255	0.028	20051	keystroke_t	t	n/a
10.0385	0.09	20077	keystroke_h	h	n/a
10.0985	0.12	20197	keystroke_e	e	n/a
10.2035	0.075	20407	keystroke_Key.space	Key.space	n/a
10.2935	0.105	20587	keystroke_q	q	n/a
10.4135	0.045	20827	keystroke_y	y	n/a
10.4435	0.105	20887	keystroke_i	i	n/a
10.9985	0.075	21997	keystroke_=	=	n/a
11.1785	0.075	22357	keystroke_=	=	n/a
11.883	0.09	23766	keystroke_Key.backspace	Key.backspace	n/a
12.0785	0.09	24157	keystroke_Key.backspace	Key.backspace	n/a
12.303	0.075	24606	keystroke_Key.backspace	Key.backspace	n/a
12.513	0.075	25026	keystroke_Key.backspace	Key.backspace	n/a
13.188	0.09	26376	keystroke_u	u	n/a
13.233	0.075	26466	keystroke_i	i	n/a
13.323	0.075	26646	keystroke_c	c	n/a
13.428	0.09	26856	keystroke_k	k	n/a
13.473	0.0905	26946	keystroke_Key.space	Key.space	n/a
13.6685	0.075	27337	keystroke_b	b	n/a
13.7585	0.075	27517	keystroke_r	r	n/a
13.8635	0.075	27727	keystroke_o	o	n/a
13.9385	0.09	27877	keystroke_w	w	n/a
14.0435	0.075	28087	keystroke_n	n	n/a
14.0885	0.09	28177	keystroke_Key.space	Key.space	n/a
14.1635	0.075	28327	keystroke_f	f	n/a
14.2535	0.09	28507	keystroke_o	o	n/a
14.3885	0.075	28777	keystroke_x	x	n/a
14.4335	0.09	28867	keystroke_Key.space	Key.space	n/a
14.5985	0.075	29197	keystroke_j	j	n/a
14.7485	0.06	29497	keystroke_u	u	n/a
14.9285	0.105	29857	keystroke_m	m	n/a
15.0485	0.105	30097	keystroke_p	p	n/a
15.1385	0.0445	30277	keystroke_s	s	n/a
15.168	0.106	30336	keystroke_Key.space	Key.space	n/a
15.409	0.105	30818	keystroke_o	o	n/a
15.4985	0.09	30997	keystroke_v	v	n/a
15.6485	0.1195	31297	keystroke_e	e	n/a
15.723	0.06	31446	keystroke_r	r	n/a
15.784	0.089	31568	keystroke_Key.space	Key.space	n/a
15.859	0.12	31718	keystroke_a	a	n/a
15.964	0.075	31928	keystroke_Key.space	Key.space	n/a
16.009	0.12	32018	keystroke_l	l	n/a
16.144	0.09	32288	keystroke_a	a	n/a
16.339	0.105	32678	keystroke_z	z	n/a
16.429	0.075	32858	keystroke_y	y	n/a
16.474	0.09	32948	keystroke_Key.space	Key.space	n/a
16.549	0.09	33098	keystroke_d	d	n/a
16.654	0.105	33308	keystroke_o	o	n/a
16.744	0.06	33488	keystroke_g	g	n/a
16.879	0.075	33758	keystroke_Key.enter	Key.enter	n/a
16.962	2.933	33924	prompt	n/a	permits letter lived node\n
17.599	0.075	35198	keystroke_p	p	n/a
17.689	0.075	35378	keystroke_e	e	n/a
17.734	0.105	35468	keystroke_r	r	n/a
17.824	0.134	35648	keystroke_m	m	n/a
17.869	0.12	35738	keystroke_i	i	n/a
17.974	0.09	35948	keystroke_t	t	n/a
18.019	0.104	36038	keystroke_s	s	n/a
18.078	0.105	36156	keystroke_Key.space	Key.space	n/a
18.2885	0.075	36577	keystroke_l	l	n/a
18.3485	0.09	36697	keystroke_e	e	n/a
18.4085	0.06	36817	keystroke_t	t	n/a
18.5285	0.09	37057	keystroke_t	t	n/a
18.6335	0.12	37267	keystroke_e	e	n/a
18.6935	0.09	37387	keystroke_r	r	n/a
18.7685	0.075	37537	keystroke_Key.space	Key.space	n/a
18.8585	0.105	37717	keystroke_l	l	n/a
18.9485	0.075	37897	keystroke_i	i	n/a
18.9935	0.06	37987	keystroke_v	v	n/a
19.0835	0.15	38167	keystroke_e	e	n/a
19.1735	0.105	38347	keystroke_d	d	n/a
19.2185	0.09	38437	keystroke_Key.space	Key.space	n/a
19.3685	0.105	38737	keystroke_n	n	n/a
19.4585	0.12	38917	keystroke_o	o	n/a
19.5335	0.12	39067	keystroke_d	d	n/a
19.5935	0.12	39187	keystroke_e	e	n/a
19.8035	0.09	39607	keystroke_Key.enter	Key.enter	n/a
19.899	2.8465	39798	prompt	n/a	windows online hits herb\n
20.4635	0.12	40927	keystroke_w	w	n/a
20.5685	0.075	41137	keystroke_i	i	n/a
20.6735	0.09	41347	keystroke_n	n	n/a
20.7335	0.075	41467	keystroke_d	d	n/a
20.8535	0.0755	41707	keystroke_o	o	n/a
20.899	0.045	41798	keystroke_w	w	n/a
21.064	0.09	42128	keystroke_s	s	n/a
21.139	0.075	42278	keystroke_Key.space	Key.space	n/a
21.274	0.075	42548	keystroke_o	o	n/a
21.409	0.075	42818	keystroke_n	n	n/a
21.559	0.09	43118	keystroke_l	l	n/a
21.619	0.06	43238	keystroke_i	i	n/a
21.784	0.074	43568	keystroke_n	n	n/a
21.843	0.105	43686	keystroke_e	e	n/a
21.918	0.076	43836	keystroke_Key.space	Key.space	n/a
22.008	0.091	44016	keystroke_h	h	n/a
22.038	0.12	44076	keystroke_i	i	n/a
22.083	0.106	44166	keystroke_t	t	n/a
22.128	0.12	44256	keystroke_s	s	n/a
22.173	0.06	44346	keystroke_Key.space	Key.space	n/a
22.263	0.106	44526	keystroke_h	h	n/a
22.353	0.106	44706	keystroke_e	e	n/a
22.383	0.105	44766	keystroke_r	r	n/a
22.474	0.074	44948	keystroke_b	b	n/a
22.668	0.075	45336	keystroke_Key.enter	Key.enter	n/a
22.7495	5.5905	45499	prompt	n/a	filed existence central luxury\n
23.509	0.104	47018	keystroke_f	f	n/a
23.569	0.105	47138	keystroke_i	i	n/a
23.628	0.09	47256	keystroke_l	l	n/a
23.733	0.106	47466	keystroke_e	e	n/a
23.779	0.105	47558	keystroke_d	d	n/a
23.823	0.105	47646	keystroke_Key.space	Key.space	n/a
24.078	0.061	48156	keystroke_e	e	n/a
24.259	0.165	48518	keystroke_x	x	n/a
24.544	0.105	49088	keystroke_i	i	n/a
24.619	0.12	49238	keystroke_s	s	n/a
24.709	0.12	49418	keystroke_t	t	n/a
24.799	0.105	49598	keystroke_e	e	n/a
24.888	0.105	49776	keystroke_n	n	n/a
25.038	0.106	50076	keystroke_e	e	n/a
25.083	0.091	50166	keystroke_Key.space	Key.space	n/a
25.5635	0.06	51127	keystroke_Key.backspace	Key.backspace	n/a
25.6985	0.105	51397	keystroke_Key.backspace	Key.backspace	n/a
25.7885	0.075	51577	keystroke_c	c	n/a
25.8185	0.12	51637	keystroke_e	e	n/a
25.9235	0.12	51847	keystroke_Key.space	Key.space	n/a
26.1035	0.06	52207	keystroke_c	c	n/a
26.1335	0.12	52267	keystroke_e	e	n/a
26.2235	0.09	52447	keystroke_n	n	n/a
26.4035	0.06	52807	keystroke_r	r	n/a
26.718	0.06	53436	keystroke_Key.backspace	Key.backspace	n/a
26.763	0.045	53526	keystroke_t	t	n/a
26.913	0.075	53826	keystroke_r	r	n/a
26.928	0.105	53856	keystroke_a	a	n/a
26.989	0.089	53978	keystroke_l	l	n/a
27.048	0.09	54096	keystroke_Key.space	Key.space	n/a
27.273	0.105	54546	keystroke_l	l	n/a
27.363	0.105	54726	keystroke_u	u	n/a
27.483	0.15	54966	keystroke_x	x	n/a
27.634	0.089	55268	keystroke_u	u	n/a
27.783	0.09	55566	keystroke_r	r	n/a
27.888	0.075	55776	keystroke_y	y	n/a
28.263	0.075	56526	keystroke_Key.enter	Key.enter	n/a
28.3445	4.3165	56689	prompt	n/a	population advertising submit households\n
29.058	0.0905	58116	keystroke_p	p	n/a
29.1485	0.1195	58297	keystroke_o	o	n/a
29.238	0.105	58476	keystroke_p	p	n/a
29.4335	0.09	58867	keystroke_u	u	n/a
29.4935	0.09	58987	keystroke_l	l	n/a
29.5685	0.0895	59137	keystroke_a	a	n/a
29.613	0.105	59226	keystroke_t	t	n/a
29.673	0.075	59346	keystroke_i	i	n/a
29.733	0.06	59466	keystroke_o	o	n/a
29.853	0.1055	59706	keystroke_n	n	n/a
29.9435	0.135	59887	keystroke_Key.space	Key.space	n/a
30.0035	0.09	60007	keystroke_a	a	n/a
30.0335	0.105	60067	keystroke_d	d	n/a
30.2435	0.075	60487	keystroke_v	v	n/a
30.3785	0.135	60757	keystroke_e	e	n/a
30.4535	0.09	60907	keystroke_r	r	n/a
30.604	0.0895	61208	keystroke_t	t	n/a
30.7085	0.09	61417	keystroke_i	i	n/a
30.7835	0.0905	61567	keystroke_s	s	n/a
30.8585	0.105	61717	keystroke_i	i	n/a
30.9335	0.105	61867	keystroke_n	n	n/a
30.9785	0.09	61957	keystroke_g	g	n/a
31.0535	0.075	62107	keystroke_Key.space	Key.space	n/a
31.1285	0.09	62257	keystroke_s	s	n/a
31.2185	0.075	62437	keystroke_u	u	n/a
31.3085	0.06	62617	keystroke_b	b	n/a
31.3985	0.105	62797	keystroke_m	m	n/a
31.4585	0.09	62917	keystroke_i	i	n/a
31.5185	0.075	63037	keystroke_t	t	n/a
31.5785	0.09	63157	keystroke_Key.space	Key.space	n/a
31.6835	0.075	63367	keystroke_h	h	n/a
31.803	0.1355	63606	keystroke_o	o	n/a
31.8785	0.09	63757	keystroke_u	u	n/a
31.9235	0.06	63847	keystroke_s	s	n/a
31.9535	0.105	63907	keystroke_e	e	n/a
32.0735	0.0595	64147	keystroke_h	h	n/a
32.178	0.075	64356	keystroke_o	o	n/a
32.343	0.075	64686	keystroke_l	l	n/a
32.403	0.09	64806	keystroke_d	d	n/a
32.448	0.105	64896	keystroke_s	s	n/a
32.568	0.09	65136	keystroke_Key.enter	Key.enter	n/a
32.666	7.8465	65332	prompt	n/a	birmingham hospitals shan't underground\n
33.348	0.09	66696	keystroke_b	b	n/a
33.453	0.12	66906	keystroke_i	i	n/a
34.368	0.105	68736	keystroke_r	r	n/a
34.5935	0.105	69187	keystroke_m	m	n/a
34.7435	0.12	69487	keystroke_i	i	n/a
34.8335	0.105	69667	keystroke_n	n	n/a
34.9535	0.105	69907	keystroke_g	g	n/a
35.1035	0.075	70207	keystroke_h	h	n/a
35.1935	0.1045	70387	keystroke_a	a	n/a
35.313	0.075	70626	keystroke_m	m	n/a
35.358	0.105	70716	keystroke_Key.space	Key.space	n/a
36.0935	0.075	72187	keystroke_h	h	n/a
36.1835	0.045	72367	keystroke_o	o	n/a
36.2435	0.075	72487	keystroke_s	s	n/a
36.3635	0.09	72727	keystroke_p	p	n/a
36.4385	0.105	72877	keystroke_i	i	n/a
36.4985	0.105	72997	keystroke_t	t	n/a
36.5585	0.09	73117	keystroke_a	a	n/a
36.6635	0.0755	73327	keystroke_l	l	n/a
36.7235	0.1055	73447	keystroke_s	s	n/a
36.814	0.12	73628	keystroke_Key.space	Key.space	n/a
36.979	0.075	73958	keystroke_s	s	n/a
37.099	0.089	74198	keystroke_h	h	n/a
37.264	0.06	74528	keystroke_a	a	n/a
37.355	0.059	74710	keystroke_n	n	n/a
37.564	0.09	75128	keystroke_'	'	n/a
37.684	0.105	75368	keystroke_t	t	n/a
37.818	0.076	75636	keystroke_Key.space	Key.space	n/a
38.163	0.06	76326	keystroke_Key.backspace	Key.backspace	n/a
38.584	0.075	77168	keystroke_Key.space	Key.space	n/a
38.764	0.06	77528	keystroke_u	u	n/a
38.899	0.075	77798	keystroke_n	n	n/a
38.944	0.075	77888	keystroke_d	d	n/a
39.063	0.105	78126	keystroke_e	e	n/a
39.1235	0.0905	78247	keystroke_r	r	n/a
39.3185	0.075	78637	keystroke_g	g	n/a
39.3485	0.12	78697	keystroke_r	r	n/a
39.3635	0.105	78727	keystroke_o	o	n/a
39.4235	0.075	78847	keystroke_u	u	n/a
39.6035	0.09	79207	keystroke_n	n	n/a
39.6785	0.105	79357	keystroke_d	d	n/a
40.399	0.104	80798	keystroke_Key.enter	Key.enter	n/a
40.516	5.079	81032	prompt	n/a	narrow euros indicating switching\n
41.178	0.105	82356	keystroke_n	n	n/a
41.268	0.105	82536	keystroke_a	a	n/a
41.343	0.045	82686	keystroke_r	r	n/a
41.463	0.075	82926	keystroke_r	r	n/a
41.508	0.105	83016	keystroke_o	o	n/a
41.598	0.076	83196	keystroke_w	w	n/a
41.703	0.09	83406	keystroke_Key.space	Key.space	n/a
42.5135	0.06	85027	keystroke_e	e	n/a
42.5585	0.105	85117	keystroke_u	u	n/a
42.6785	0.06	85357	keystroke_r	r	n/a
42.7535	0.105	85507	keystroke_o	o	n/a
42.8435	0.09	85687	keystroke_s	s	n/a
42.9185	0.075	85837	keystroke_Key.space	Key.space	n/a
43.0385	0.12	86077	keystroke_i	i	n/a
43.1285	0.105	86257	keystroke_n	n	n/a
43.2635	0.09	86527	keystroke_d	d	n/a
43.3985	0.075	86797	keystroke_i	i	n/a
43.5035	0.09	87007	keystroke_c	c	n/a
43.6085	0.075	87217	keystroke_a	a	n/a
43.7135	0.09	87427	keystroke_t	t	n/a
43.7585	0.105	87517	keystroke_i	i	n/a
43.8185	0.12	87637	keystroke_n	n	n/a
43.9085	0.09	87817	keystroke_g	g	n/a
43.9835	0.105	87967	keystroke_Key.space	Key.space	n/a
44.1185	0.105	88237	keystroke_s	s	n/a
44.3135	0.075	88627	keystroke_i	i	n/a
44.6285	0.09	89257	keystroke_Key.backspace	Key.backspace	n/a
44.7035	0.075	89407	keystroke_w	w	n/a
44.8235	0.09	89647	keystroke_i	i	n/a
44.8685	0.06	89737	keystroke_t	t	n/a
45.0635	0.0755	90127	keystroke_c	c	n/a
45.0935	0.09	90187	keystroke_h	h	n/a
45.154	0.0745	90308	keystroke_i	i	n/a
45.274	0.0895	90548	keystroke_n	n	n/a
45.3485	0.075	90697	keystroke_g	g	n/a
45.4685	0.12	90937	keystroke_Key.enter	Key.enter	n/a
45.602	4.698	91204	prompt	n/a	rooms guide obesity hearings\n
46.0985	0.075	92197	keystroke_n	n	n/a
46.1585	0.06	92317	keystroke_a	a	n/a
46.4735	0.045	92947	keystroke_Key.backspace	Key.backspace	n/a
46.5935	0.075	93187	keystroke_Key.backspace	Key.backspace	n/a
46.6535	0.12	93307	keystroke_r	r	n/a
46.7285	0.06	93457	keystroke_a	a	n/a
46.8935	0.03	93787	keystroke_o	o	n/a
47.2385	0.06	94477	keystroke_Key.backspace	Key.backspace	n/a
47.4035	0.06	94807	keystroke_Key.backspace	Key.backspace	n/a
47.6285	0.045	95257	keystroke_o	o	n/a
47.7485	0.06	95497	keystroke_o	o	n/a
47.8235	0.105	95647	keystroke_m	m	n/a
47.8985	0.06	95797	keystroke_s	s	n/a
47.9885	0.075	95977	keystroke_Key.space	Key.space	n/a
48.0635	0.075	96127	keystroke_g	g	n/a
48.1535	0.12	96307	keystroke_u	u	n/a
48.1835	0.12	96367	keystroke_i	i	n/a
48.2885	0.09	96577	keystroke_d	d	n/a
48.3185	0.12	96637	keystroke_e	e	n/a
48.3635	0.105	96727	keystroke_Key.space	Key.space	n/a
48.6185	0.075	97237	keystroke_o	o	n/a
48.7385	0.105	97477	keystroke_b	b	n/a
48.9185	0.165	97837	keystroke_e	e	n/a
48.9785	0.12	97957	keystroke_s	s	n/a
49.1435	0.1045	98287	keystroke_i	i	n/a
49.278	0.045	98556	keystroke_t	t	n/a
49.413	0.09	98826	keystroke_y	y	n/a
49.488	0.075	98976	keystroke_Key.space	Key.space	n/a
49.6685	0.09	99337	keystroke_h	h	n/a
49.7135	0.09	99427	keystroke_e	e	n/a
49.7735	0.105	99547	keystroke_a	a	n/a
49.8635	0.09	99727	keystroke_r	r	n/a
49.9085	0.105	99817	keystroke_i	i	n/a
49.9835	0.0905	99967	keystroke_n	n	n/a
50.043	0.09	100086	keystroke_g	g	n/a
50.088	0.105	100176	keystroke_s	s	n/a
50.208	0.09	100416	keystroke_Key.enter	Key.enter	n/a
50.3035	3.5065	100607	prompt	n/a	helping coat bids wordpress\n
50.9735	0.03	101947	keystroke_h	h	n/a
51.0185	0.12	102037	keystroke_e	e	n/a
51.183	0.15	102366	keystroke_l	l	n/a
51.228	0.12	102456	keystroke_p	p	n/a
51.498	0.105	102996	keystroke_i	i	n/a
51.573	0.12	103146	keystroke_n	n	n/a
51.618	0.09	103236	keystroke_g	g	n/a
51.723	0.105	103446	keystroke_Key.space	Key.space	n/a
51.843	0.075	103686	keystroke_c	c	n/a
51.903	0.09	103806	keystroke_o	o	n/a
51.978	0.135	103956	keystroke_a	a	n/a
52.083	0.105	104166	keystroke_t	t	n/a
52.143	0.075	104286	keystroke_Key.space	Key.space	n/a
52.308	0.09	104616	keystroke_b	b	n/a
52.368	0.09	104736	keystroke_i	i	n/a
52.473	0.135	104946	keystroke_d	d	n/a
52.503	0.12	105006	keystroke_s	s	n/a
52.548	0.09	105096	keystroke_Key.space	Key.space	n/a
52.728	0.09	105456	keystroke_w	w	n/a
52.803	0.075	105606	keystroke_o	o	n/a
52.893	0.09	105786	keystroke_r	r	n/a
53.103	0.075	106206	keystroke_d	d	n/a
53.163	0.105	106326	keystroke_p	p	n/a
53.283	0.15	106566	keystroke_r	r	n/a
53.358	0.165	106716	keystroke_e	e	n/a
53.418	0.12	106836	keystroke_s	s	n/a
53.583	0.09	107166	keystroke_s	s	n/a
53.703	0.105	107406	keystroke_Key.enter	Key.enter	n/a
53.8135	4.7065	107627	prompt	n/a	intro blackberry faster pipeline\n
54.4235	0.09	108847	keystroke_i	i	n/a
54.5735	0.09	109147	keystroke_n	n	n/a
54.6035	0.12	109207	keystroke_t	t	n/a
54.6785	0.12	109357	keystroke_r	r	n/a
54.7385	0.09	109477	keystroke_o	o	n/a
54.7835	0.105	109567	keystroke_Key.space	Key.space	n/a
54.9335	0.12	109867	keystroke_b	b	n/a
55.0385	0.09	110077	keystroke_l	l	n/a
55.1135	0.1055	110227	keystroke_a	a	n/a
55.174	0.12	110348	keystroke_c	c	n/a
55.279	0.09	110558	keystroke_k	k	n/a
55.564	0.075	111128	keystroke_b	b	n/a
55.669	0.0895	111338	keystroke_e	e	n/a
55.713	0.091	111426	keystroke_r	r	n/a
55.834	0.105	111668	keystroke_r	r	n/a
55.909	0.09	111818	keystroke_y	y	n/a
55.954	0.1345	111908	keystroke_Key.space	Key.space	n/a
56.2085	0.0755	112417	keystroke_f	f	n/a
56.3135	0.1505	112627	keystroke_a	a	n/a
56.3875	0.121	112775	keystroke_s	s	n/a
56.5685	0.0605	113137	keystroke_t	t	n/a
56.629	0.1345	113258	keystroke_e	e	n/a
56.719	0.1195	113438	keystroke_r	r	n/a
56.7775	0.091	113555	keystroke_Key.space	Key.space	n/a
56.8985	0.09	113797	keystroke_p	p	n/a
56.9735	0.12	113947	keystroke_i	i	n/a
57.0635	0.09	114127	keystroke_p	p	n/a
57.1385	0.1195	114277	keystroke_e	e	n/a
57.273	0.105	114546	keystroke_i	i	n/a
57.7985	0.045	115597	keystroke_Key.backspace	Key.backspace	n/a
57.9785	0.12	115957	keystroke_l	l	n/a
58.0535	0.09	116107	keystroke_i	i	n/a
58.2485	0.06	116497	keystroke_n	n	n/a
58.2935	0.105	116587	keystroke_e	e	n/a
58.4435	0.075	116887	keystroke_Key.enter	Key.enter	n/a
58.5235	5.6515	117047	prompt	n/a	baltimore buffalo organizer pieces\n
59.3585	0.045	118717	keystroke_b	b	n/a
59.4785	0.09	118957	keystroke_a	a	n/a
59.898	0.075	119796	keystroke_l	l	n/a
60.048	0.105	120096	keystroke_t	t	n/a
60.168	0.06	120336	keystroke_i	i	n/a
60.303	0.15	120606	keystroke_m	m	n/a
60.378	0.09	120756	keystroke_o	o	n/a
60.423	0.105	120846	keystroke_r	r	n/a
60.483	0.105	120966	keystroke_e	e	n/a
60.543	0.105	121086	keystroke_Key.space	Key.space	n/a
60.783	0.105	121566	keystroke_b	b	n/a
60.828	0.105	121656	keystroke_u	u	n/a
60.993	0.105	121986	keystroke_f	f	n/a
61.744	0.104	123488	keystroke_f	f	n/a
61.803	0.12	123606	keystroke_a	a	n/a
61.893	0.06	123786	keystroke_l	l	n/a
62.058	0.09	124116	keystroke_o	o	n/a
62.118	0.09	124236	keystroke_Key.space	Key.space	n/a
62.3735	0.075	124747	keystroke_o	o	n/a
62.4485	0.06	124897	keystroke_r	r	n/a
62.6285	0.12	125257	keystroke_g	g	n/a
62.6885	0.105	125377	keystroke_a	a	n/a
62.7335	0.075	125467	keystroke_n	n	n/a
62.7635	0.1045	125527	keystroke_i	i	n/a
62.913	0.15	125826	keystroke_z	z	n/a
63.033	0.12	126066	keystroke_e	e	n/a
63.078	0.15	126156	keystroke_r	r	n/a
63.168	0.09	126336	keystroke_Key.space	Key.space	n/a
63.363	0.105	126726	keystroke_p	p	n/a
63.483	0.1355	126966	keystroke_i	i	n/a
63.558	0.1055	127116	keystroke_e	e	n/a
63.6785	0.18	127357	keystroke_c	c	n/a
63.7835	0.15	127567	keystroke_e	e	n/a
63.8735	0.12	127747	keystroke_s	s	n/a
64.0835	0.09	128167	keystroke_Key.enter	Key.enter	n/a
64.178	7.752	128356	prompt	n/a	philippines accident cleaning freeware\n
65.3585	0.06	130717	keystroke_p	p	n/a
65.4485	0.12	130897	keystroke_h	h	n/a
65.5835	0.135	131167	keystroke_i	i	n/a
65.6885	0.075	131377	keystroke_l	l	n/a
65.8535	0.075	131707	keystroke_l	l	n/a
67.6085	0.09	135217	keystroke_Key.backspace	Key.backspace	n/a
67.848	0.09	135696	keystroke_i	i	n/a
68.298	0.045	136596	keystroke_p	p	n/a
68.433	0.06	136866	keystroke_p	p	n/a
68.568	0.09	137136	keystroke_i	i	n/a
68.748	0.09	137496	keystroke_n	n	n/a
68.808	0.165	137616	keystroke_e	e	n/a
68.883	0.105	137766	keystroke_s	s	n/a
68.958	0.09	137916	keystroke_Key.space	Key.space	n/a
69.1835	0.09	138367	keystroke_a	a	n/a
69.2585	0.074	138517	keystroke_c	c	n/a
69.423	0.06	138846	keystroke_c	c	n/a
69.513	0.105	139026	keystroke_i	i	n/a
69.603	0.075	139206	keystroke_d	d	n/a
69.633	0.12	139266	keystroke_e	e	n/a
69.708	0.09	139416	keystroke_n	n	n/a
69.813	0.075	139626	keystroke_t	t	n/a
69.873	0.105	139746	keystroke_Key.space	Key.space	n/a
70.038	0.075	140076	keystroke_c	c	n/a
70.128	0.075	140256	keystroke_l	l	n/a
70.233	0.075	140466	keystroke_e	e	n/a
70.278	0.09	140556	keystroke_a	a	n/a
70.338	0.09	140676	keystroke_n	n	n/a
70.429	0.105	140858	keystroke_i	i	n/a
70.503	0.105	141006	keystroke_n	n	n/a
70.563	0.075	141126	keystroke_g	g	n/a
70.639	0.119	141278	keystroke_Key.space	Key.space	n/a
70.743	0.09	141486	keystroke_f	f	n/a
70.938	0.09	141876	keystroke_r	r	n/a
70.998	0.06	141996	keystroke_e	e	n/a
71.103	0.0905	142206	keystroke_e	e	n/a
71.2835	0.1945	142567	keystroke_w	w	n/a
71.493	0.12	142986	keystroke_a	a	n/a
71.628	0.135	143256	keystroke_r	r	n/a
71.703	0.12	143406	keystroke_e	e	n/a
71.838	0.0905	143676	keystroke_Key.enter	Key.enter	n/a
71.934	4.481	143868	prompt	n/a	achievement merry logging thorough\n
72.4985	0.105	144997	keystroke_a	a	n/a
72.5585	0.12	145117	keystroke_c	c	n/a
72.6635	0.105	145327	keystroke_h	h	n/a
72.7085	0.105	145417	keystroke_i	i	n/a
72.7835	0.089	145567	keystroke_e	e	n/a
72.8585	0.134	145717	keystroke_v	v	n/a
72.9485	0.105	145897	keystroke_e	e	n/a
73.0375	0.106	146075	keystroke_m	m	n/a
73.1285	0.075	146257	keystroke_e	e	n/a
73.2175	0.091	146435	keystroke_n	n	n/a
73.2935	0.104	146587	keystroke_t	t	n/a
73.3675	0.105	146735	keystroke_Key.space	Key.space	n/a
73.5185	0.119	147037	keystroke_m	m	n/a
73.5775	0.09	147155	keystroke_e	e	n/a
73.6235	0.075	147247	keystroke_r	r	n/a
73.7425	0.105	147485	keystroke_r	r	n/a
73.8175	0.091	147635	keystroke_y	y	n/a
73.8625	0.09	147725	keystroke_Key.space	Key.space	n/a
74.0435	0.059	148087	keystroke_l	l	n/a
74.2375	0.03	148475	keystroke_o	o	n/a
74.2525	0.061	148505	keystroke_g	g	n/a
74.3735	0.089	148747	keystroke_g	g	n/a
74.4325	0.09	148865	keystroke_i	i	n/a
74.4925	0.106	148985	keystroke_n	n	n/a
74.5535	0.09	149107	keystroke_g	g	n/a
74.6125	0.09	149225	keystroke_Key.space	Key.space	n/a
74.7935	0.089	149587	keystroke_t	t	n/a
74.8985	0.075	149797	keystroke_h	h	n/a
75.273	0.09	150546	keystroke_o	o	n/a
75.618	0.09	151236	keystroke_r	r	n/a
75.693	0.135	151386	keystroke_o	o	n/a
75.798	0.09	151596	keystroke_u	u	n/a
75.903	0.1055	151806	keystroke_g	g	n/a
75.9935	0.09	151987	keystroke_h	h	n/a
76.3685	0.045	152737	keystroke_Key.enter	Key.enter	n/a
76.418	11.877	152836	prompt	n/a	jump lined debian field\n
77.0575	0.09	154115	keystroke_j	j	n/a
77.253	0.06	154506	keystroke_u	u	n/a
77.448	0.12	154896	keystroke_m	m	n/a
77.538	0.105	155076	keystroke_p	p	n/a
77.598	0.12	155196	keystroke_e	e	n/a
77.6585	0.1045	155317	keystroke_Key.space	Key.space	n/a
77.6735	0.0895	155347	keystroke_d	d	n/a
77.808	0.075	155616	keystroke_l	l	n/a
77.958	0.135	155916	keystroke_i	i	n/a
78.0785	0.105	156157	keystroke_n	n	n/a
78.108	0.105	156216	keystroke_e	e	n/a
78.138	0.135	156276	keystroke_d	d	n/a
78.228	0.1355	156456	keystroke_Key.space	Key.space	n/a
78.393	0.1505	156786	keystroke_d	d	n/a
78.4685	0.105	156937	keystroke_e	e	n/a
78.5585	0.06	157117	keystroke_b	b	n/a
78.6485	0.1045	157297	keystroke_i	i	n/a
78.738	0.12	157476	keystroke_a	a	n/a
78.798	0.09	157596	keystroke_n	n	n/a
78.873	0.105	157746	keystroke_Key.space	Key.space	n/a
79.6085	0.105	159217	keystroke_Key.backspace	Key.backspace	n/a
79.9685	0.089	159937	keystroke_Key.backspace	Key.backspace	n/a
80.2825	0.075	160565	keystroke_Key.backspace	Key.backspace	n/a
80.5825	0.09	161165	keystroke_Key.backspace	Key.backspace	n/a
80.9125	0.075	161825	keystroke_Key.backspace	Key.backspace	n/a
81.228	0.0895	162456	keystroke_Key.backspace	Key.backspace	n/a
81.5285	0.075	163057	keystroke_Key.backspace	Key.backspace	n/a
81.8135	0.09	163627	keystroke_Key.backspace	Key.backspace	n/a
82.0835	0.075	164167	keystroke_Key.backspace	Key.backspace	n/a
82.353	0.075	164706	keystroke_Key.backspace	Key.backspace	n/a
82.608	0.09	165216	keystroke_Key.backspace	Key.backspace	n/a
82.893	0.09	165786	keystroke_Key.backspace	Key.backspace	n/a
83.1635	0.09	166327	keystroke_Key.backspace	Key.backspace	n/a
83.4335	0.09	166867	keystroke_Key.backspace	Key.backspace	n/a
83.7035	0.075	167407	keystroke_Key.backspace	Key.backspace	n/a
83.9585	0.105	167917	keystroke_Key.backspace	Key.backspace	n/a
84.1975	0.151	168395	keystroke_Key.space	Key.space	n/a
84.4675	0.076	168935	keystroke_l	l	n/a
84.6485	0.119	169297	keystroke_i	i	n/a
84.7525	0.136	169505	keystroke_n	n	n/a
84.8735	0.165	169747	keystroke_d	d	n/a
84.9625	0.135	169925	keystroke_Key.space	Key.space	n/a
85.383	0.075	170766	keystroke_Key.backspace	Key.backspace	n/a
85.563	0.105	171126	keystroke_Key.backspace	Key.backspace	n/a
85.683	0.105	171366	keystroke_e	e	n/a
85.7285	0.1345	171457	keystroke_d	d	n/a
85.8035	0.12	171607	keystroke_Key.space	Key.space	n/a
86.553	0.06	173106	keystroke_d	d	n/a
86.5985	0.06	173197	keystroke_e	e	n/a
86.763	0.0905	173526	keystroke_b	b	n/a
86.8685	0.09	173737	keystroke_i	i	n/a
86.9735	0.105	173947	keystroke_a	a	n/a
87.0485	0.105	174097	keystroke_n	n	n/a
87.1085	0.12	174217	keystroke_Key.space	Key.space	n/a
87.3185	0.12	174637	keystroke_f	f	n/a
87.4985	0.105	174997	keystroke_i	i	n/a
87.6035	0.075	175207	keystroke_e	e	n/a
87.7385	0.09	175477	keystroke_l	l	n/a
87.8435	0.1045	175687	keystroke_d	d	n/a
88.158	0.135	176316	keystroke_Key.enter	Key.enter	n/a
88.298	12.5365	176596	prompt	n/a	nylon observations accepted instances\n
88.938	0.105	177876	keystroke_n	n	n/a
89.163	0.09	178326	keystroke_y	y	n/a
89.238	0.06	178476	keystroke_l	l	n/a
89.388	0.09	178776	keystroke_o	o	n/a
89.523	0.075	179046	keystroke_n	n	n/a
89.583	0.075	179166	keystroke_Key.space	Key.space	n/a
89.703	0.09	179406	keystroke_o	o	n/a
89.748	0.09	179496	keystroke_b	b	n/a
89.943	0.105	179886	keystroke_e	e	n/a
90.228	0.135	180456	keystroke_s	s	n/a
90.288	0.135	180576	keystroke_e	e	n/a
90.378	0.075	180756	keystroke_r	r	n/a
90.573	0.075	181146	keystroke_v	v	n/a
90.723	0.105	181446	keystroke_a	a	n/a
90.798	0.09	181596	keystroke_t	t	n/a
91.068	0.105	182136	keystroke_i	i	n/a
91.128	0.075	182256	keystroke_o	o	n/a
91.278	0.075	182556	keystroke_n	n	n/a
91.323	0.105	182646	keystroke_s	s	n/a
91.413	0.12	182826	keystroke_Key.space	Key.space	n/a
91.518	0.12	183036	keystroke_a	a	n/a
91.608	0.12	183216	keystroke_c	c	n/a
91.803	0.105	183606	keystroke_c	c	n/a
91.863	0.1205	183726	keystroke_e	e	n/a
91.968	0.09	183936	keystroke_p	p	n/a
92.553	0.075	185106	keystroke_Key.backspace	Key.backspace	n/a
92.9585	0.015	185917	keystroke_Key.backspace	Key.backspace	n/a
93.1835	0.075	186367	keystroke_Key.backspace	Key.backspace	n/a
93.4385	0.09	186877	keystroke_Key.backspace	Key.backspace	n/a
93.708	0.1045	187416	keystroke_Key.backspace	Key.backspace	n/a
94.0075	0.0905	188015	keystroke_Key.backspace	Key.backspace	n/a
94.293	0.075	188586	keystroke_Key.backspace	Key.backspace	n/a
94.578	0.0895	189156	keystroke_Key.backspace	Key.backspace	n/a
94.878	0.0745	189756	keystroke_Key.backspace	Key.backspace	n/a
95.1635	0.105	190327	keystroke_Key.backspace	Key.backspace	n/a
95.4335	0.09	190867	keystroke_Key.backspace	Key.backspace	n/a
95.6735	0.09	191347	keystroke_Key.backspace	Key.backspace	n/a
95.9285	0.09	191857	keystroke_Key.backspace	Key.backspace	n/a
96.1535	0.105	192307	keystroke_Key.backspace	Key.backspace	n/a
96.438	0.09	192876	keystroke_Key.backspace	Key.backspace	n/a
96.693	0.075	193386	keystroke_Key.backspace	Key.backspace	n/a
97.068	0.09	194136	keystroke_Key.backspace	Key.backspace	n/a
97.4125	0.121	194825	keystroke_s	s	n/a
97.4585	0.134	194917	keystroke_e	e	n/a
97.5475	0.136	195095	keystroke_r	r	n/a
97.819	0.089	195638	keystroke_v	v	n/a
97.9235	0.1345	195847	keystroke_a	a	n/a
98.043	0.075	196086	keystroke_t	t	n/a
98.103	0.105	196206	keystroke_i	i	n/a
98.163	0.075	196326	keystroke_o	o	n/a
98.298	0.09	196596	keystroke_n	n	n/a
98.343	0.15	196686	keystroke_s	s	n/a
98.448	0.12	196896	keystroke_Key.space	Key.space	n/a
98.733	0.135	197466	keystroke_a	a	n/a
98.943	0.09	197886	keystroke_c	c	n/a
99.108	0.135	198216	keystroke_c	c	n/a
99.198	0.12	198396	keystroke_e	e	n/a
99.303	0.075	198606	keystroke_p	p	n/a
99.438	0.09	198876	keystroke_t	t	n/a
99.513	0.15	199026	keystroke_e	e	n/a
99.618	0.12	199236	keystroke_d	d	n/a
99.678	0.12	199356	keystroke_Key.space	Key.space	n/a
99.828	0.09	199656	keystroke_i	i	n/a
99.933	0.15	199866	keystroke_n	n	n/a
99.993	0.105	199986	keystroke_s	s	n/a
100.068	0.12	200136	keystroke_t	t	n/a
100.158	0.105	200316	keystroke_a	a	n/a
100.264	0.104	200528	keystroke_n	n	n/a
100.353	0.1655	200706	keystroke_c	c	n/a
100.443	0.1505	200886	keystroke_e	e	n/a
100.5035	0.105	201007	keystroke_s	s	n/a
100.7135	0.12	201427	keystroke_Key.enter	Key.enter	n/a
100.8375	4.2875	201675	prompt	n/a	appeal gnome grave contacts\n
101.5835	0.045	203167	keystroke_a	a	n/a
101.643	0.015	203286	keystroke_p	p	n/a
101.703	0.075	203406	keystroke_p	p	n/a
101.763	0.09	203526	keystroke_e	e	n/a
101.808	0.105	203616	keystroke_a	a	n/a
101.883	0.105	203766	keystroke_l	l	n/a
101.958	0.12	203916	keystroke_Key.space	Key.space	n/a
102.348	0.09	204696	keystroke_g	g	n/a
102.453	0.0905	204906	keystroke_n	n	n/a
102.6035	0.1045	205207	keystroke_o	o	n/a
102.678	0.135	205356	keystroke_m	m	n/a
102.768	0.105	205536	keystroke_e	e	n/a
102.843	0.15	205686	keystroke_Key.space	Key.space	n/a
102.9635	0.089	205927	keystroke_g	g	n/a
103.128	0.105	206256	keystroke_r	r	n/a
103.2025	0.106	206405	keystroke_a	a	n/a
103.3525	0.1205	206705	keystroke_v	v	n/a
103.398	0.1505	206796	keystroke_e	e	n/a
103.4885	0.12	206977	keystroke_Key.space	Key.space	n/a
103.6235	0.105	207247	keystroke_o	o	n/a
104.0435	0.075	208087	keystroke_Key.backspace	Key.backspace	n/a
104.1635	0.105	208327	keystroke_c	c	n/a
104.2385	0.075	208477	keystroke_o	o	n/a
104.3435	0.135	208687	keystroke_n	n	n/a
104.4335	0.075	208867	keystroke_t	t	n/a
104.4935	0.1195	208987	keystroke_a	a	n/a
104.628	0.105	209256	keystroke_c	c	n/a
104.883	0.09	209766	keystroke_t	t	n/a
104.928	0.105	209856	keystroke_s	s	n/a
105.048	0.075	210096	keystroke_Key.enter	Key.enter	n/a
105.1295	4.63	210259	prompt	n/a	rapid knows symposium scott\n
105.843	0.1055	211686	keystroke_r	r	n/a
105.873	0.1055	211746	keystroke_a	a	n/a
105.9485	0.075	211897	keystroke_p	p	n/a
106.0085	0.105	212017	keystroke_i	i	n/a
106.0985	0.1045	212197	keystroke_d	d	n/a
106.143	0.09	212286	keystroke_Key.space	Key.space	n/a
106.263	0.09	212526	keystroke_k	k	n/a
106.338	0.135	212676	keystroke_n	n	n/a
106.443	0.09	212886	keystroke_o	o	n/a
106.4885	0.0595	212977	keystroke_w	w	n/a
106.6535	0.0745	213307	keystroke_s	s	n/a
106.668	0.1205	213336	keystroke_Key.space	Key.space	n/a
106.8635	0.1045	213727	keystroke_s	s	n/a
107.118	0.09	214236	keystroke_y	y	n/a
107.238	0.105	214476	keystroke_m	m	n/a
107.778	0.135	215556	keystroke_p	p	n/a
107.928	0.1055	215856	keystroke_o	o	n/a
108.0635	0.09	216127	keystroke_s	s	n/a
108.2885	0.12	216577	keystroke_i	i	n/a
108.3785	0.09	216757	keystroke_u	u	n/a
108.5735	0.105	217147	keystroke_m	m	n/a
108.6475	0.105	217295	keystroke_Key.space	Key.space	n/a
108.7675	0.091	217535	keystroke_s	s	n/a
108.8435	0.105	217687	keystroke_c	c	n/a
108.9785	0.104	217957	keystroke_o	o	n/a
109.383	0.0755	218766	keystroke_t	t	n/a
109.533	0.09	219066	keystroke_t	t	n/a
109.653	0.105	219306	keystroke_Key.enter	Key.enter	n/a
109.763	4.512	219526	prompt	n/a	janet scripts teddy switzerland\n
110.4335	0.089	220867	keystroke_j	j	n/a
110.5085	0.12	221017	keystroke_a	a	n/a
110.6435	0.09	221287	keystroke_n	n	n/a
110.7185	0.135	221437	keystroke_e	e	n/a
110.7935	0.105	221587	keystroke_t	t	n/a
110.9135	0.105	221827	keystroke_Key.space	Key.space	n/a
111.0035	0.09	222007	keystroke_s	s	n/a
111.1235	0.12	222247	keystroke_c	c	n/a
111.3485	0.075	222697	keystroke_r	r	n/a
111.4075	0.09	222815	keystroke_i	i	n/a
111.4535	0.09	222907	keystroke_p	p	n/a
111.5575	0.076	223115	keystroke_t	t	n/a
111.5735	0.09	223147	keystroke_s	s	n/a
111.6175	0.12	223235	keystroke_Key.space	Key.space	n/a
111.7535	0.075	223507	keystroke_t	t	n/a
111.8725	0.045	223745	keystroke_e	e	n/a
111.9635	0.075	223927	keystroke_d	d	n/a
112.0825	0.12	224165	keystroke_d	d	n/a
112.1435	0.09	224287	keystroke_y	y	n/a
112.1875	0.09	224375	keystroke_Key.space	Key.space	n/a
112.2935	0.06	224587	keystroke_s	s	n/a
112.4435	0.1195	224887	keystroke_w	w	n/a
112.548	0.09	225096	keystroke_i	i	n/a
112.653	0.105	225306	keystroke_t	t	n/a
112.893	0.12	225786	keystroke_e	e	n/a
113.283	0.09	226566	keystroke_Key.backspace	Key.backspace	n/a
113.328	0.105	226656	keystroke_z	z	n/a
113.374	0.1195	226748	keystroke_e	e	n/a
113.418	0.1055	226836	keystroke_r	r	n/a
113.5835	0.0895	227167	keystroke_l	l	n/a
113.688	0.0755	227376	keystroke_a	a	n/a
113.7775	0.091	227555	keystroke_n	n	n/a
113.838	0.0755	227676	keystroke_d	d	n/a
114.198	0.075	228396	keystroke_Key.enter	Key.enter	n/a
114.278	4.587	228556	prompt	n/a	manufacturing still system candle\n
115.068	0.075	230136	keystroke_m	m	n/a
115.263	0.045	230526	keystroke_a	a	n/a
115.383	0.15	230766	keystroke_n	n	n/a
115.458	0.12	230916	keystroke_u	u	n/a
115.728	0.075	231456	keystroke_f	f	n/a
115.788	0.09	231576	keystroke_a	a	n/a
115.938	0.075	231876	keystroke_c	c	n/a
116.163	0.075	232326	keystroke_t	t	n/a
116.223	0.09	232446	keystroke_u	u	n/a
116.328	0.075	232656	keystroke_r	r	n/a
116.343	0.105	232686	keystroke_i	i	n/a
116.449	0.119	232898	keystroke_n	n	n/a
116.523	0.09	233046	keystroke_g	g	n/a
116.583	0.075	233166	keystroke_Key.space	Key.space	n/a
116.688	0.12	233376	keystroke_s	s	n/a
116.733	0.105	233466	keystroke_t	t	n/a
116.793	0.075	233586	keystroke_i	i	n/a
116.823	0.076	233646	keystroke_l	l	n/a
116.958	0.076	233916	keystroke_l	l	n/a
117.003	0.105	234006	keystroke_Key.space	Key.space	n/a
117.048	0.105	234096	keystroke_s	s	n/a
117.138	0.09	234276	keystroke_y	y	n/a
117.274	0.089	234548	keystroke_s	s	n/a
117.318	0.12	234636	keystroke_t	t	n/a
117.393	0.12	234786	keystroke_e	e	n/a
117.469	0.105	234938	keystroke_m	m	n/a
117.528	0.105	235056	keystroke_Key.space	Key.space	n/a
117.768	0.076	235536	keystroke_c	c	n/a
117.783	0.09	235566	keystroke_a	a	n/a
117.858	0.075	235716	keystroke_n	n	n/a
117.978	0.105	235956	keystroke_d	d	n/a
118.098	0.09	236196	keystroke_l	l	n/a
118.233	0.135	236466	keystroke_e	e	n/a
118.773	0.09	237546	keystroke_Key.enter	Key.enter	n/a
118.872	5.543	237744	prompt	n/a	theatre surrounded vitamin loves\n
119.598	0.075	239196	keystroke_t	t	n/a
119.688	0.09	239376	keystroke_h	h	n/a
119.838	0.12	239676	keystroke_e	e	n/a
119.943	0.09	239886	keystroke_a	a	n/a
120.093	0.075	240186	keystroke_t	t	n/a
120.258	0.135	240516	keystroke_r	r	n/a
120.333	0.105	240666	keystroke_e	e	n/a
120.423	0.075	240846	keystroke_Key.space	Key.space	n/a
120.618	0.06	241236	keystroke_s	s	n/a
120.723	0.075	241446	keystroke_u	u	n/a
120.753	0.06	241506	keystroke_r	r	n/a
120.903	0.1055	241806	keystroke_r	r	n/a
120.9635	0.09	241927	keystroke_o	o	n/a
121.413	0.06	242826	keystroke_u	u	n/a
121.578	0.075	243156	keystroke_n	n	n/a
121.608	0.105	243216	keystroke_d	d	n/a
121.743	0.105	243486	keystroke_e	e	n/a
121.788	0.12	243576	keystroke_d	d	n/a
121.878	0.105	243756	keystroke_Key.space	Key.space	n/a
122.073	0.045	244146	keystroke_c	c	n/a
122.119	0.105	244238	keystroke_i	i	n/a
122.523	0.06	245046	keystroke_Key.backspace	Key.backspace	n/a
122.673	0.075	245346	keystroke_Key.backspace	Key.backspace	n/a
122.763	0.076	245526	keystroke_v	v	n/a
122.898	0.09	245796	keystroke_i	i	n/a
123.019	0.1195	246038	keystroke_t	t	n/a
123.0935	0.09	246187	keystroke_a	a	n/a
123.2285	0.12	246457	keystroke_m	m	n/a
123.3485	0.135	246697	keystroke_i	i	n/a
123.4685	0.135	246937	keystroke_n	n	n/a
123.5735	0.12	247147	keystroke_Key.space	Key.space	n/a
123.8435	0.075	247687	keystroke_l	l	n/a
124.0235	0.09	248047	keystroke_o	o	n/a
124.0385	0.18	248077	keystroke_v	v	n/a
124.0985	0.18	248197	keystroke_e	e	n/a
124.1885	0.12	248377	keystroke_s	s	n/a
124.3235	0.09	248647	keystroke_Key.enter	Key.enter	n/a
124.4175	6.913	248835	prompt	n/a	commissioner testament visitors phoenix\n
125.058	0.105	250116	keystroke_c	c	n/a
125.134	0.059	250268	keystroke_o	o	n/a
125.313	0.075	250626	keystroke_m	m	n/a
125.463	0.12	250926	keystroke_m	m	n/a
125.568	0.105	251136	keystroke_i	i	n/a
126.003	0.09	252006	keystroke_s	s	n/a
126.168	0.075	252336	keystroke_s	s	n/a
126.213	0.12	252426	keystroke_i	i	n/a
126.273	0.075	252546	keystroke_o	o	n/a
126.453	0.09	252906	keystroke_n	n	n/a
126.498	0.12	252996	keystroke_e	e	n/a
126.558	0.105	253116	keystroke_r	r	n/a
126.633	0.135	253266	keystroke_Key.space	Key.space	n/a
127.038	0.12	254076	keystroke_t	t	n/a
127.128	0.1805	254256	keystroke_e	e	n/a
127.173	0.1355	254346	keystroke_s	s	n/a
127.2785	0.12	254557	keystroke_t	t	n/a
128.043	0.075	256086	keystroke_a	a	n/a
128.163	0.105	256326	keystroke_m	m	n/a
128.298	0.075	256596	keystroke_e	e	n/a
128.403	0.0755	256806	keystroke_n	n	n/a
128.4485	0.09	256897	keystroke_t	t	n/a
128.5685	0.09	257137	keystroke_Key.space	Key.space	n/a
128.8535	0.09	257707	keystroke_v	v	n/a
128.9285	0.09	257857	keystroke_i	i	n/a
129.0485	0.09	258097	keystroke_s	s	n/a
129.1535	0.09	258307	keystroke_i	i	n/a
129.2585	0.075	258517	keystroke_t	t	n/a
129.3635	0.09	258727	keystroke_o	o	n/a
129.4835	0.12	258967	keystroke_r	r	n/a
129.5585	0.12	259117	keystroke_s	s	n/a
129.6635	0.105	259327	keystroke_Key.space	Key.space	n/a
130.2635	0.09	260527	keystroke_p	p	n/a
130.3985	0.0745	260797	keystroke_h	h	n/a
130.563	0.09	261126	keystroke_o	o	n/a
130.668	0.105	261336	keystroke_e	e	n/a
130.833	0.12	261666	keystroke_n	n	n/a
130.893	0.12	261786	keystroke_i	i	n/a
130.998	0.105	261996	keystroke_x	x	n/a
131.223	0.105	262446	keystroke_Key.enter	Key.enter	n/a
131.333	5.097	262666	prompt	n/a	lanka payments extreme hardwood\n
131.898	0.075	263796	keystroke_l	l	n/a
132.003	0.09	264006	keystroke_a	a	n/a
132.108	0.075	264216	keystroke_n	n	n/a
132.258	0.09	264516	keystroke_k	k	n/a
132.453	0.075	264906	keystroke_a	a	n/a
132.558	0.09	265116	keystroke_Key.space	Key.space	n/a
133.398	0.09	266796	keystroke_p	p	n/a
133.5335	0.075	267067	keystroke_a	a	n/a
133.6985	0.075	267397	keystroke_y	y	n/a
133.8035	0.075	267607	keystroke_m	m	n/a
133.863	0.09	267726	keystroke_e	e	n/a
133.9685	0.0745	267937	keystroke_n	n	n/a
133.998	0.12	267996	keystroke_t	t	n/a
134.0885	0.1045	268177	keystroke_s	s	n/a
134.1785	0.0445	268357	keystroke_Key.space	Key.space	n/a
134.2685	0.09	268537	keystroke_e	e	n/a
134.7485	0.075	269497	keystroke_x	x	n/a
134.9735	0.06	269947	keystroke_t	t	n/a
135.1085	0.09	270217	keystroke_r	r	n/a
135.1385	0.09	270277	keystroke_e	e	n/a
135.2135	0.105	270427	keystroke_m	m	n/a
135.3035	0.09	270607	keystroke_e	e	n/a
135.3785	0.075	270757	keystroke_Key.space	Key.space	n/a
135.5435	0.105	271087	keystroke_h	h	n/a
135.6035	0.09	271207	keystroke_a	a	n/a
135.6335	0.075	271267	keystroke_r	r	n/a
135.7985	0.09	271597	keystroke_d	d	n/a
135.978	0.06	271956	keystroke_w	w	n/a
136.053	0.045	272106	keystroke_o	o	n/a
136.173	0.075	272346	keystroke_o	o	n/a
136.233	0.09	272466	keystroke_d	d	n/a
136.338	0.09	272676	keystroke_Key.enter	Key.enter	n/a
136.433	5.4415	272866	prompt	n/a	matched volleyball maine drilling\n
137.028	0.09	274056	keystroke_m	m	n/a
137.103	0.09	274206	keystroke_a	a	n/a
137.1635	0.0745	274327	keystroke_t	t	n/a
137.3585	0.09	274717	keystroke_c	c	n/a
137.4185	0.105	274837	keystroke_h	h	n/a
137.5085	0.105	275017	keystroke_e	e	n/a
137.5535	0.12	275107	keystroke_d	d	n/a
137.6585	0.075	275317	keystroke_Key.space	Key.space	n/a
137.7485	0.105	275497	keystroke_v	v	n/a
137.7935	0.09	275587	keystroke_o	o	n/a
138.0185	0.075	276037	keystroke_l	l	n/a
138.1085	0.12	276217	keystroke_e	e	n/a
138.8585	0.075	277717	keystroke_Key.backspace	Key.backspace	n/a
139.0085	0.09	278017	keystroke_Key.backspace	Key.backspace	n/a
139.458	0.0755	278916	keystroke_l	l	n/a
139.624	0.0735	279248	keystroke_l	l	n/a
139.6685	0.135	279337	keystroke_e	e	n/a
139.7275	0.091	279455	keystroke_y	y	n/a
139.953	0.0905	279906	keystroke_b	b	n/a
139.9825	0.106	279965	keystroke_a	a	n/a
140.0735	0.06	280147	keystroke_l	l	n/a
140.2085	0.09	280417	keystroke_l	l	n/a
140.2685	0.075	280537	keystroke_Key.space	Key.space	n/a
140.4035	0.135	280807	keystroke_m	m	n/a
140.4635	0.105	280927	keystroke_a	a	n/a
140.5835	0.075	281167	keystroke_i	i	n/a
140.6435	0.12	281287	keystroke_n	n	n/a
140.6885	0.09	281377	keystroke_e	e	n/a
140.7935	0.09	281587	keystroke_Key.space	Key.space	n/a
140.8985	0.06	281797	keystroke_d	d	n/a
141.0485	0.09	282097	keystroke_r	r	n/a
141.1085	0.09	282217	keystroke_i	i	n/a
141.1535	0.06	282307	keystroke_l	l	n/a
141.2735	0.09	282547	keystroke_l	l	n/a
141.3485	0.0895	282697	keystroke_i	i	n/a
141.528	0.075	283056	keystroke_n	n	n/a
141.573	0.0905	283146	keystroke_g	g	n/a
141.7985	0.075	283597	keystroke_Key.enter	Key.enter	n/a
141.8775	3.7625	283755	prompt	n/a	ripe poverty seconds variable\n
142.5485	0.12	285097	keystroke_r	r	n/a
142.6535	0.045	285307	keystroke_i	i	n/a
142.6835	0.0445	285367	keystroke_p	p	n/a
142.7135	0.0895	285427	keystroke_e	e	n/a
142.758	0.12	285516	keystroke_Key.space	Key.space	n/a
142.863	0.12	285726	keystroke_p	p	n/a
142.953	0.12	285906	keystroke_o	o	n/a
142.968	0.09	285936	keystroke_v	v	n/a
143.1785	0.12	286357	keystroke_e	e	n/a
143.2385	0.09	286477	keystroke_r	r	n/a
143.4185	0.075	286837	keystroke_t	t	n/a
143.5835	0.09	287167	keystroke_y	y	n/a
143.6435	0.105	287287	keystroke_Key.space	Key.space	n/a
143.8235	0.12	287647	keystroke_s	s	n/a
143.8685	0.12	287737	keystroke_e	e	n/a
144.0635	0.09	288127	keystroke_c	c	n/a
144.1085	0.06	288217	keystroke_o	o	n/a
144.2135	0.105	288427	keystroke_n	n	n/a
144.2585	0.105	288517	keystroke_d	d	n/a
144.3335	0.09	288667	keystroke_s	s	n/a
144.3785	0.12	288757	keystroke_Key.space	Key.space	n/a
144.5285	0.105	289057	keystroke_v	v	n/a
144.8585	0.09	289717	keystroke_a	a	n/a
144.9035	0.1195	289807	keystroke_r	r	n/a
145.0375	0.135	290075	keystroke_i	i	n/a
145.1425	0.076	290285	keystroke_a	a	n/a
145.2635	0.075	290527	keystroke_b	b	n/a
145.3235	0.105	290647	keystroke_l	l	n/a
145.4135	0.105	290827	keystroke_e	e	n/a
145.5485	0.09	291097	keystroke_Key.enter	Key.enter	n/a
145.643	8.5315	291286	prompt	n/a	imagination nights jean love\n
146.2235	0.09	292447	keystroke_i	i	n/a
146.3885	0.135	292777	keystroke_m	m	n/a
146.4335	0.1195	292867	keystroke_a	a	n/a
146.5085	0.0895	293017	keystroke_g	g	n/a
146.568	0.09	293136	keystroke_i	i	n/a
146.673	0.12	293346	keystroke_n	n	n/a
147.3935	0.119	294787	keystroke_i	i	n/a
147.5275	0.03	295055	keystroke_a	a	n/a
147.5425	0.06	295085	keystroke_t	t	n/a
147.5725	0.075	295145	keystroke_i	i	n/a
147.6175	0.06	295235	keystroke_o	o	n/a
147.7685	0.075	295537	keystroke_n	n	n/a
147.8125	0.136	295625	keystroke_Key.space	Key.space	n/a
148.608	0.09	297216	keystroke_Key.backspace	Key.backspace	n/a
148.908	0.075	297816	keystroke_Key.backspace	Key.backspace	n/a
149.193	0.09	298386	keystroke_Key.backspace	Key.backspace	n/a
149.478	0.09	298956	keystroke_Key.backspace	Key.backspace	n/a
149.823	0.075	299646	keystroke_Key.backspace	Key.backspace	n/a
150.273	0.105	300546	keystroke_Key.backspace	Key.backspace	n/a
150.588	0.09	301176	keystroke_Key.backspace	Key.backspace	n/a
150.828	0.09	301656	keystroke_a	a	n/a
150.873	0.105	301746	keystroke_t	t	n/a
150.933	0.12	301866	keystroke_i	i	n/a
151.023	0.06	302046	keystroke_o	o	n/a
151.158	0.1055	302316	keystroke_n	n	n/a
151.2035	0.15	302407	keystroke_Key.space	Key.space	n/a
152.0135	0.075	304027	keystroke_r	r	n/a
152.3285	0.045	304657	keystroke_Key.backspace	Key.backspace	n/a
152.4935	0.12	304987	keystroke_n	n	n/a
152.5385	0.135	305077	keystroke_i	i	n/a
152.6585	0.03	305317	keystroke_g	g	n/a
152.7035	0.12	305407	keystroke_h	h	n/a
152.7635	0.12	305527	keystroke_t	t	n/a
152.8535	0.09	305707	keystroke_s	s	n/a
152.8685	0.105	305737	keystroke_Key.space	Key.space	n/a
153.1835	0.09	306367	keystroke_j	j	n/a
153.2435	0.12	306487	keystroke_e	e	n/a
153.3335	0.06	306667	keystroke_a	a	n/a
153.3785	0.09	306757	keystroke_n	n	n/a
153.4385	0.12	306877	keystroke_Key.space	Key.space	n/a
153.678	0.06	307356	keystroke_l	l	n/a
153.8435	0.075	307687	keystroke_o	o	n/a
153.9335	0.104	307867	keystroke_v	v	n/a
153.9785	0.135	307957	keystroke_e	e	n/a
154.0985	0.075	308197	keystroke_Key.enter	Key.enter	n/a
154.179	4.0455	308358	prompt	n/a	polar alloy interviews cambodia\n
154.863	0.075	309726	keystroke_p	p	n/a
154.908	0.0905	309816	keystroke_o	o	n/a
155.0735	0.09	310147	keystroke_l	l	n/a
155.1485	0.09	310297	keystroke_a	a	n/a
155.1935	0.09	310387	keystroke_r	r	n/a
155.2535	0.075	310507	keystroke_Key.space	Key.space	n/a
155.3435	0.09	310687	keystroke_a	a	n/a
155.4035	0.075	310807	keystroke_l	l	n/a
155.5385	0.09	311077	keystroke_l	l	n/a
155.6735	0.09	311347	keystroke_o	o	n/a
155.7335	0.105	311467	keystroke_y	y	n/a
155.7935	0.135	311587	keystroke_Key.space	Key.space	n/a
155.9135	0.105	311827	keystroke_i	i	n/a
155.9735	0.135	311947	keystroke_n	n	n/a
156.0335	0.09	312067	keystroke_t	t	n/a
156.1235	0.135	312247	keystroke_e	e	n/a
156.2135	0.075	312427	keystroke_r	r	n/a
156.3925	0.075	312785	keystroke_v	v	n/a
156.4825	0.106	312965	keystroke_i	i	n/a
156.6025	0.076	313205	keystroke_e	e	n/a
156.6335	0.074	313267	keystroke_w	w	n/a
156.7975	0.091	313595	keystroke_s	s	n/a
156.8725	0.105	313745	keystroke_Key.space	Key.space	n/a
156.9925	0.106	313985	keystroke_c	c	n/a
157.0525	0.09	314105	keystroke_a	a	n/a
157.1135	0.1045	314227	keystroke_m	m	n/a
157.248	0.09	314496	keystroke_b	b	n/a
157.353	0.105	314706	keystroke_o	o	n/a
157.818	0.075	315636	keystroke_d	d	n/a
157.908	0.105	315816	keystroke_i	i	n/a
157.983	0.106	315966	keystroke_a	a	n/a
158.133	0.09	316266	keystroke_Key.enter	Key.enter	n/a
158.2275	6.777	316455	prompt	n/a	collaborative magnitude recorded frequently\n
158.943	0.075	317886	keystroke_c	c	n/a
159.003	0.06	318006	keystroke_o	o	n/a
159.1975	0.031	318395	keystroke_l	l	n/a
159.3175	0.076	318635	keystroke_l	l	n/a
159.3775	0.091	318755	keystroke_a	a	n/a
159.4535	0.089	318907	keystroke_b	b	n/a
159.6485	0.09	319297	keystroke_o	o	n/a
159.7685	0.089	319537	keystroke_r	r	n/a
160.0825	0.091	320165	keystroke_a	a	n/a
160.1425	0.091	320285	keystroke_t	t	n/a
160.2485	0.104	320497	keystroke_i	i	n/a
160.3535	0.1345	320707	keystroke_v	v	n/a
160.3985	0.1345	320797	keystroke_e	e	n/a
160.473	0.105	320946	keystroke_Key.space	Key.space	n/a
160.638	0.12	321276	keystroke_m	m	n/a
160.728	0.09	321456	keystroke_a	a	n/a
160.803	0.105	321606	keystroke_g	g	n/a
160.998	0.12	321996	keystroke_n	n	n/a
161.103	0.1505	322206	keystroke_i	i	n/a
161.2985	0.09	322597	keystroke_t	t	n/a
161.4185	0.105	322837	keystroke_u	u	n/a
161.5085	0.12	323017	keystroke_d	d	n/a
161.5835	0.105	323167	keystroke_e	e	n/a
161.6135	0.09	323227	keystroke_Key.space	Key.space	n/a
161.8685	0.09	323737	keystroke_r	r	n/a
161.9285	0.075	323857	keystroke_e	e	n/a
162.0635	0.09	324127	keystroke_c	c	n/a
162.1685	0.06	324337	keystroke_o	o	n/a
162.2735	0.06	324547	keystroke_r	r	n/a
162.4235	0.105	324847	keystroke_d	d	n/a
162.5135	0.149	325027	keystroke_e	e	n/a
162.6185	0.09	325237	keystroke_d	d	n/a
162.6775	0.106	325355	keystroke_Key.space	Key.space	n/a
162.8285	0.09	325657	keystroke_f	f	n/a
163.1435	0.1195	326287	keystroke_r	r	n/a
163.218	0.15	326436	keystroke_e	e	n/a
163.353	0.12	326706	keystroke_q	q	n/a
163.608	0.09	327216	keystroke_u	u	n/a
163.728	0.075	327456	keystroke_e	e	n/a
164.358	0.075	328716	keystroke_n	n	n/a
164.478	0.09	328956	keystroke_t	t	n/a
164.583	0.09	329166	keystroke_l	l	n/a
164.688	0.09	329376	keystroke_y	y	n/a
164.928	0.075	329856	keystroke_Key.enter	Key.enter	n/a
165.0075	6.057	330015	prompt	n/a	government brief updating settle\n
165.6625	0.091	331325	keystroke_g	g	n/a
165.7385	0.09	331477	keystroke_o	o	n/a
165.8735	0.075	331747	keystroke_v	v	n/a
165.9935	0.12	331987	keystroke_e	e	n/a
166.0685	0.105	332137	keystroke_r	r	n/a
166.1285	0.06	332257	keystroke_n	n	n/a
166.2785	0.075	332557	keystroke_m	m	n/a
166.3085	0.09	332617	keystroke_e	e	n/a
166.4135	0.09	332827	keystroke_n	n	n/a
166.4585	0.075	332917	keystroke_t	t	n/a
166.5485	0.09	333097	keystroke_Key.space	Key.space	n/a
166.6675	0.106	333335	keystroke_r	r	n/a
166.7885	0.09	333577	keystroke_b	b	n/a
167.1635	0.059	334327	keystroke_Key.backspace	Key.backspace	n/a
167.4625	0.06	334925	keystroke_b	b	n/a
167.9585	0.075	335917	keystroke_Key.backspace	Key.backspace	n/a
168.1375	0.0905	336275	keystroke_Key.backspace	Key.backspace	n/a
168.378	0.09	336756	keystroke_b	b	n/a
168.483	0.075	336966	keystroke_r	r	n/a
168.573	0.09	337146	keystroke_i	i	n/a
168.648	0.135	337296	keystroke_e	e	n/a
168.708	0.135	337416	keystroke_f	f	n/a
168.768	0.09	337536	keystroke_Key.space	Key.space	n/a
168.903	0.09	337806	keystroke_u	u	n/a
169.008	0.09	338016	keystroke_p	p	n/a
169.083	0.075	338166	keystroke_d	d	n/a
169.128	0.15	338256	keystroke_a	a	n/a
169.263	0.09	338526	keystroke_t	t	n/a
169.279	0.104	338558	keystroke_i	i	n/a
169.338	0.12	338676	keystroke_n	n	n/a
169.473	0.105	338946	keystroke_Key.space	Key.space	n/a
169.488	0.06	338976	keystroke_g	g	n/a
169.998	0.06	339996	keystroke_Key.backspace	Key.backspace	n/a
170.133	0.09	340266	keystroke_Key.backspace	Key.backspace	n/a
170.224	0.089	340448	keystroke_g	g	n/a
170.313	0.105	340626	keystroke_Key.space	Key.space	n/a
170.433	0.12	340866	keystroke_s	s	n/a
170.478	0.105	340956	keystroke_e	e	n/a
170.523	0.09	341046	keystroke_t	t	n/a
170.673	0.09	341346	keystroke_t	t	n/a
170.748	0.105	341496	keystroke_l	l	n/a
170.838	0.09	341676	keystroke_e	e	n/a
170.943	0.12	341886	keystroke_Key.enter	Key.enter	n/a
171.068	9.7775	342136	prompt	n/a	grateful grande specifically builds\n
171.663	0.09	343326	keystroke_g	g	n/a
171.858	0.105	343716	keystroke_r	r	n/a
171.918	0.105	343836	keystroke_a	a	n/a
172.038	0.09	344076	keystroke_t	t	n/a
172.113	0.105	344226	keystroke_e	e	n/a
172.233	0.105	344466	keystroke_f	f	n/a
172.308	0.105	344616	keystroke_u	u	n/a
172.368	0.09	344736	keystroke_l	l	n/a
172.398	0.135	344796	keystroke_Key.space	Key.space	n/a
172.533	0.075	345066	keystroke_g	g	n/a
172.683	0.12	345366	keystroke_r	r	n/a
172.758	0.1045	345516	keystroke_a	a	n/a
172.8775	0.0605	345755	keystroke_n	n	n/a
172.9225	0.136	345845	keystroke_d	d	n/a
173.0125	0.1355	346025	keystroke_e	e	n/a
173.4475	0.12	346895	keystroke_Key.space	Key.space	n/a
173.7775	0.075	347555	keystroke_s	s	n/a
173.883	0.0745	347766	keystroke_p	p	n/a
175.1875	0.181	350375	keystroke_e	e	n/a
175.293	0.1045	350586	keystroke_c	c	n/a
175.953	0.0755	351906	keystroke_f	f	n/a
176.0885	0.09	352177	keystroke_i	i	n/a
178.476	0.001	356952	keystroke_Key.backspace	Key.backspace	n/a
178.563	0.105	357126	keystroke_Key.backspace	Key.backspace	n/a
178.908	0.12	357816	keystroke_i	i	n/a
179.283	0.075	358566	keystroke_f	f	n/a
179.388	0.105	358776	keystroke_i	i	n/a
179.508	0.09	359016	keystroke_c	c	n/a
179.553	0.105	359106	keystroke_a	a	n/a
179.673	0.045	359346	keystroke_l	l	n/a
179.7925	0.075	359585	keystroke_l	l	n/a
179.8825	0.075	359765	keystroke_y	y	n/a
179.9585	0.089	359917	keystroke_Key.space	Key.space	n/a
180.1375	0.09	360275	keystroke_b	b	n/a
180.2285	0.105	360457	keystroke_u	u	n/a
180.2885	0.075	360577	keystroke_i	i	n/a
180.4685	0.105	360937	keystroke_l	l	n/a
180.5585	0.12	361117	keystroke_d	d	n/a
180.6035	0.105	361207	keystroke_s	s	n/a
180.7385	0.105	361477	keystroke_Key.enter	Key.enter	n/a
180.848	4.0765	361696	prompt	n/a	essays ruled trailers durable\n
181.4735	0.12	362947	keystroke_e	e	n/a
181.5485	0.09	363097	keystroke_s	s	n/a
181.6985	0.075	363397	keystroke_s	s	n/a
181.8335	0.09	363667	keystroke_a	a	n/a
181.9385	0.0895	363877	keystroke_y	y	n/a
181.9835	0.0895	363967	keystroke_s	s	n/a
182.088	0.09	364176	keystroke_Key.space	Key.space	n/a
182.208	0.0755	364416	keystroke_r	r	n/a
182.253	0.1655	364506	keystroke_u	u	n/a
182.448	0.1205	364896	keystroke_l	l	n/a
182.553	0.1355	365106	keystroke_e	e	n/a
182.6135	0.1195	365227	keystroke_d	d	n/a
182.7485	0.06	365497	keystroke_Key.space	Key.space	n/a
182.9885	0.0595	365977	keystroke_t	t	n/a
183.153	0.135	366306	keystroke_r	r	n/a
183.228	0.075	366456	keystroke_a	a	n/a
183.303	0.1055	366606	keystroke_i	i	n/a
183.3485	0.1195	366697	keystroke_l	l	n/a
183.4235	0.165	366847	keystroke_e	e	n/a
183.483	0.1205	366966	keystroke_r	r	n/a
183.5885	0.0745	367177	keystroke_s	s	n/a
183.618	0.12	367236	keystroke_Key.space	Key.space	n/a
184.203	0.075	368406	keystroke_d	d	n/a
184.293	0.09	368586	keystroke_u	u	n/a
184.368	0.09	368736	keystroke_r	r	n/a
184.443	0.12	368886	keystroke_a	a	n/a
184.593	0.075	369186	keystroke_b	b	n/a
184.653	0.105	369306	keystroke_l	l	n/a
184.743	0.09	369486	keystroke_e	e	n/a
184.848	0.075	369696	keystroke_Key.enter	Key.enter	n/a
184.9275	5.112	369855	prompt	n/a	has mediawiki edit county\n
185.628	0.09	371256	keystroke_h	h	n/a
185.703	0.105	371406	keystroke_a	a	n/a
185.748	0.135	371496	keystroke_s	s	n/a
185.838	0.09	371676	keystroke_Key.space	Key.space	n/a
186.064	0.074	372128	keystroke_m	m	n/a
186.093	0.135	372186	keystroke_e	e	n/a
186.168	0.1205	372336	keystroke_d	d	n/a
186.2885	0.105	372577	keystroke_i	i	n/a
186.3635	0.12	372727	keystroke_a	a	n/a
186.5725	0.1055	373145	keystroke_w	w	n/a
186.663	0.045	373326	keystroke_i	i	n/a
186.813	0.06	373626	keystroke_k	k	n/a
186.948	0.1045	373896	keystroke_i	i	n/a
187.008	0.1195	374016	keystroke_Key.space	Key.space	n/a
187.1125	0.165	374225	keystroke_e	e	n/a
187.2035	0.089	374407	keystroke_d	d	n/a
187.3385	0.089	374677	keystroke_i	i	n/a
187.4425	0.075	374885	keystroke_t	t	n/a
187.5325	0.075	375065	keystroke_Key.space	Key.space	n/a
187.6825	0.106	375365	keystroke_c	c	n/a
187.7435	0.135	375487	keystroke_o	o	n/a
187.8335	0.105	375667	keystroke_u	u	n/a
187.9535	0.105	375907	keystroke_t	t	n/a
188.2385	0.105	376477	keystroke_y	y	n/a
188.9285	0.09	377857	keystroke_Key.backspace	Key.backspace	n/a
189.1685	0.12	378337	keystroke_Key.backspace	Key.backspace	n/a
189.4985	0.105	378997	keystroke_n	n	n/a
189.5885	0.12	379177	keystroke_t	t	n/a
189.6485	0.09	379297	keystroke_y	y	n/a
189.9485	0.09	379897	keystroke_Key.enter	Key.enter	n/a
190.0455	4.659	380091	prompt	n/a	loading supervisor depends editions\n
190.7435	0.075	381487	keystroke_l	l	n/a
190.9085	0.06	381817	keystroke_o	o	n/a
190.953	0.09	381906	keystroke_a	a	n/a
190.998	0.0905	381996	keystroke_d	d	n/a
191.058	0.105	382116	keystroke_i	i	n/a
191.1335	0.12	382267	keystroke_n	n	n/a
191.2085	0.075	382417	keystroke_g	g	n/a
191.2835	0.09	382567	keystroke_Key.space	Key.space	n/a
191.3735	0.105	382747	keystroke_s	s	n/a
191.4635	0.045	382927	keystroke_u	u	n/a
191.5835	0.09	383167	keystroke_p	p	n/a
191.7185	0.09	383437	keystroke_e	e	n/a
191.7485	0.12	383497	keystroke_r	r	n/a
192.0935	0.135	384187	keystroke_i	i	n/a
192.4385	0.105	384877	keystroke_Key.backspace	Key.backspace	n/a
192.5735	0.09	385147	keystroke_v	v	n/a
192.6485	0.12	385297	keystroke_i	i	n/a
192.7535	0.075	385507	keystroke_s	s	n/a
192.8435	0.09	385687	keystroke_o	o	n/a
192.9185	0.09	385837	keystroke_r	r	n/a
192.9935	0.105	385987	keystroke_Key.space	Key.space	n/a
193.2035	0.105	386407	keystroke_d	d	n/a
193.2475	0.106	386495	keystroke_e	e	n/a
193.3235	0.06	386647	keystroke_p	p	n/a
193.4135	0.075	386827	keystroke_e	e	n/a
193.5035	0.09	387007	keystroke_n	n	n/a
193.5485	0.135	387097	keystroke_d	d	n/a
193.6085	0.105	387217	keystroke_s	s	n/a
193.6685	0.104	387337	keystroke_Key.space	Key.space	n/a
193.8485	0.12	387697	keystroke_e	e	n/a
193.9235	0.105	387847	keystroke_d	d	n/a
194.0435	0.09	388087	keystroke_i	i	n/a
194.1635	0.09	388327	keystroke_t	t	n/a
194.2385	0.09	388477	keystroke_i	i	n/a
194.2825	0.06	388565	keystroke_o	o	n/a
194.4175	0.105	388835	keystroke_n	n	n/a
194.5075	0.091	389015	keystroke_s	s	n/a
194.5985	0.105	389197	keystroke_Key.enter	Key.enter	n/a
194.708	3.5965	389416	prompt	n/a	rover fires grew disease\n
195.3635	0.075	390727	keystroke_r	r	n/a
195.4235	0.09	390847	keystroke_o	o	n/a
195.5585	0.09	391117	keystroke_v	v	n/a
195.6785	0.165	391357	keystroke_e	e	n/a
195.7975	0.136	391595	keystroke_r	r	n/a
195.9185	0.059	391837	keystroke_Key.space	Key.space	n/a
196.0235	0.06	392047	keystroke_f	f	n/a
196.0835	0.12	392167	keystroke_i	i	n/a
196.1875	0.136	392375	keystroke_r	r	n/a
196.2625	0.135	392525	keystroke_e	e	n/a
196.2935	0.134	392587	keystroke_s	s	n/a
196.4425	0.105	392885	keystroke_Key.space	Key.space	n/a
196.7125	0.0605	393425	keystroke_g	g	n/a
196.878	0.06	393756	keystroke_r	r	n/a
197.013	0.12	394026	keystroke_e	e	n/a
197.073	0.1055	394146	keystroke_w	w	n/a
197.148	0.1055	394296	keystroke_Key.space	Key.space	n/a
197.2985	0.09	394597	keystroke_d	d	n/a
197.4035	0.135	394807	keystroke_i	i	n/a
197.4935	0.15	394987	keystroke_s	s	n/a
197.6135	0.135	395227	keystroke_e	e	n/a
197.7335	0.1345	395467	keystroke_a	a	n/a
197.838	0.135	395676	keystroke_s	s	n/a
197.898	0.12	395796	keystroke_e	e	n/a
198.228	0.075	396456	keystroke_Key.enter	Key.enter	n/a
198.308	4.0765	396616	prompt	n/a	forwarding ampland nike weekend\n
198.9785	0.09	397957	keystroke_f	f	n/a
199.0835	0.09	398167	keystroke_o	o	n/a
199.2185	0.075	398437	keystroke_r	r	n/a
199.3835	0.15	398767	keystroke_w	w	n/a
199.4585	0.105	398917	keystroke_a	a	n/a
199.5035	0.105	399007	keystroke_r	r	n/a
199.7285	0.075	399457	keystroke_d	d	n/a
199.7885	0.12	399577	keystroke_i	i	n/a
199.8635	0.12	399727	keystroke_n	n	n/a
199.9535	0.075	399907	keystroke_g	g	n/a
200.0435	0.075	400087	keystroke_Key.space	Key.space	n/a
200.1035	0.12	400207	keystroke_a	a	n/a
200.1785	0.12	400357	keystroke_m	m	n/a
200.3585	0.09	400717	keystroke_p	p	n/a
200.5385	0.09	401077	keystroke_l	l	n/a
200.6135	0.09	401227	keystroke_a	a	n/a
200.7185	0.075	401437	keystroke_n	n	n/a
200.7635	0.12	401527	keystroke_d	d	n/a
200.8385	0.075	401677	keystroke_Key.space	Key.space	n/a
200.9735	0.105	401947	keystroke_n	n	n/a
201.1085	0.0895	402217	keystroke_i	i	n/a
201.258	0.0905	402516	keystroke_k	k	n/a
201.3185	0.105	402637	keystroke_e	e	n/a
201.4385	0.09	402877	keystroke_Key.space	Key.space	n/a
201.6485	0.09	403297	keystroke_w	w	n/a
201.6935	0.06	403387	keystroke_e	e	n/a
201.8285	0.105	403657	keystroke_e	e	n/a
201.9485	0.09	403897	keystroke_n	n	n/a
202.0685	0.12	404137	keystroke_d	d	n/a
202.2485	0.135	404497	keystroke_Key.enter	Key.enter	n/a
202.3875	5.9675	404775	prompt	n/a	fares german their pose\n
203.8235	0.12	407647	keystroke_f	f	n/a
203.9135	0.104	407827	keystroke_a	a	n/a
204.0335	0.15	408067	keystroke_r	r	n/a
204.1085	0.15	408217	keystroke_e	e	n/a
204.1385	0.15	408277	keystroke_s	s	n/a
204.2425	0.121	408485	keystroke_Key.space	Key.space	n/a
204.4235	0.074	408847	keystroke_g	g	n/a
204.5435	0.12	409087	keystroke_e	e	n/a
204.6035	0.09	409207	keystroke_r	r	n/a
204.6785	0.075	409357	keystroke_m	m	n/a
204.7835	0.105	409567	keystroke_a	a	n/a
205.0985	0.0895	410197	keystroke_n	n	n/a
205.173	0.12	410346	keystroke_Key.space	Key.space	n/a
205.6235	0.0595	411247	keystroke_t	t	n/a
205.6975	0.0755	411395	keystroke_h	h	n/a
205.7575	0.0905	411515	keystroke_e	e	n/a
205.8185	0.104	411637	keystroke_i	i	n/a
205.8925	0.1055	411785	keystroke_r	r	n/a
205.968	0.0745	411936	keystroke_Key.space	Key.space	n/a
206.1025	0.1355	412205	keystroke_p	p	n/a
206.193	0.12	412386	keystroke_o	o	n/a
206.283	0.12	412566	keystroke_s	s	n/a
206.343	0.12	412686	keystroke_e	e	n/a
208.218	0.1355	416436	keystroke_Key.enter	Key.enter	n/a
208.358	6.432	416716	prompt	n/a	citations beaches pregnant pubmed\n
209.1335	0.1045	418267	keystroke_c	c	n/a
209.283	0.1055	418566	keystroke_i	i	n/a
209.403	0.06	418806	keystroke_t	t	n/a
209.493	0.1055	418986	keystroke_a	a	n/a
209.5535	0.105	419107	keystroke_t	t	n/a
209.6285	0.09	419257	keystroke_i	i	n/a
209.6885	0.06	419377	keystroke_o	o	n/a
209.8085	0.09	419617	keystroke_n	n	n/a
209.8535	0.09	419707	keystroke_s	s	n/a
209.9585	0.09	419917	keystroke_Key.space	Key.space	n/a
210.1535	0.105	420307	keystroke_b	b	n/a
210.2285	0.09	420457	keystroke_e	e	n/a
210.2885	0.165	420577	keystroke_a	a	n/a
210.4385	0.09	420877	keystroke_c	c	n/a
210.5585	0.105	421117	keystroke_h	h	n/a
210.6335	0.12	421267	keystroke_e	e	n/a
210.6935	0.105	421387	keystroke_s	s	n/a
210.7385	0.09	421477	keystroke_Key.space	Key.space	n/a
210.903	0.105	421806	keystroke_p	p	n/a
210.993	0.105	421986	keystroke_r	r	n/a
211.203	0.105	422406	keystroke_g	g	n/a
211.893	0.09	423786	keystroke_Key.backspace	Key.backspace	n/a
212.028	0.09	424056	keystroke_e	e	n/a
212.223	0.105	424446	keystroke_g	g	n/a
212.6735	0.105	425347	keystroke_n	n	n/a
212.8085	0.105	425617	keystroke_a	a	n/a
212.9135	0.09	425827	keystroke_n	n	n/a
213.0035	0.09	426007	keystroke_t	t	n/a
213.0935	0.105	426187	keystroke_Key.space	Key.space	n/a
213.3035	0.1045	426607	keystroke_p	p	n/a
213.528	0.0895	427056	keystroke_u	u	n/a
214.083	0.1195	428166	keystroke_b	b	n/a
214.293	0.0905	428586	keystroke_m	m	n/a
214.3975	0.135	428795	keystroke_e	e	n/a
214.443	0.15	428886	keystroke_d	d	n/a
214.7125	0.0755	429425	keystroke_Key.enter	Key.enter	n/a
214.793	5.5765	429586	prompt	n/a	runner word birmingham dictionaries\n
215.5985	0.105	431197	keystroke_r	r	n/a
215.6585	0.09	431317	keystroke_u	u	n/a
215.8235	0.06	431647	keystroke_n	n	n/a
215.9435	0.09	431887	keystroke_n	n	n/a
216.0035	0.1045	432007	keystroke_e	e	n/a
216.0485	0.0895	432097	keystroke_r	r	n/a
216.123	0.105	432246	keystroke_Key.space	Key.space	n/a
216.243	0.06	432486	keystroke_w	w	n/a
216.438	0.105	432876	keystroke_o	o	n/a
216.528	0.09	433056	keystroke_r	r	n/a
216.708	0.12	433416	keystroke_d	d	n/a
216.768	0.135	433536	keystroke_Key.space	Key.space	n/a
217.113	0.09	434226	keystroke_b	b	n/a
217.548	0.12	435096	keystroke_i	i	n/a
217.638	0.105	435276	keystroke_r	r	n/a
217.863	0.135	435726	keystroke_m	m	n/a
218.013	0.105	436026	keystroke_i	i	n/a
218.088	0.12	436176	keystroke_n	n	n/a
218.238	0.06	436476	keystroke_g	g	n/a
218.7035	0.105	437407	keystroke_h	h	n/a
218.8385	0.105	437677	keystroke_a	a	n/a
218.9575	0.1055	437915	keystroke_m	m	n/a
219.0325	0.1205	438065	keystroke_Key.space	Key.space	n/a
219.288	0.06	438576	keystroke_d	d	n/a
219.333	0.135	438666	keystroke_i	i	n/a
219.453	0.06	438906	keystroke_c	c	n/a
219.663	0.06	439326	keystroke_t	t	n/a
219.693	0.09	439386	keystroke_i	i	n/a
219.753	0.045	439506	keystroke_o	o	n/a
219.873	0.12	439746	keystroke_n	n	n/a
219.918	0.105	439836	keystroke_a	a	n/a
219.978	0.075	439956	keystroke_r	r	n/a
220.068	0.075	440136	keystroke_i	i	n/a
220.113	0.12	440226	keystroke_e	e	n/a
220.188	0.075	440376	keystroke_s	s	n/a
220.293	0.075	440586	keystroke_Key.enter	Key.enter	n/a
220.373	7.7665	440746	prompt	n/a	writing darkness historical chronicles\n
221.013	0.075	442026	keystroke_w	w	n/a
221.073	0.105	442146	keystroke_r	r	n/a
221.179	0.074	442358	keystroke_i	i	n/a
221.268	0.12	442536	keystroke_t	t	n/a
221.343	0.09	442686	keystroke_i	i	n/a
221.403	0.135	442806	keystroke_n	n	n/a
221.448	0.105	442896	keystroke_g	g	n/a
221.523	0.105	443046	keystroke_Key.space	Key.space	n/a
221.643	0.09	443286	keystroke_d	d	n/a
221.673	0.1655	443346	keystroke_a	a	n/a
221.8085	0.09	443617	keystroke_r	r	n/a
221.8835	0.06	443767	keystroke_k	k	n/a
221.9885	0.09	443977	keystroke_n	n	n/a
222.0185	0.105	444037	keystroke_e	e	n/a
222.0785	0.06	444157	keystroke_s	s	n/a
222.2135	0.075	444427	keystroke_s	s	n/a
222.2585	0.09	444517	keystroke_Key.space	Key.space	n/a
222.4235	0.09	444847	keystroke_h	h	n/a
222.6035	0.09	445207	keystroke_i	i	n/a
222.6635	0.12	445327	keystroke_s	s	n/a
222.7385	0.09	445477	keystroke_t	t	n/a
222.8285	0.105	445657	keystroke_o	o	n/a
223.1435	0.12	446287	keystroke_r	r	n/a
223.2335	0.06	446467	keystroke_y	y	n/a
223.803	0.075	447606	keystroke_Key.backspace	Key.backspace	n/a
224.358	0.075	448716	keystroke_i	i	n/a
224.448	0.1205	448896	keystroke_c	c	n/a
224.508	0.1195	449016	keystroke_a	a	n/a
224.583	0.09	449166	keystroke_l	l	n/a
224.643	0.12	449286	keystroke_Key.space	Key.space	n/a
225.2585	0.075	450517	keystroke_c	c	n/a
225.363	0.105	450726	keystroke_h	h	n/a
225.513	0.105	451026	keystroke_r	r	n/a
225.843	0.075	451686	keystroke_o	o	n/a
226.098	0.075	452196	keystroke_n	n	n/a
226.728	0.06	453456	keystroke_i	i	n/a
226.803	0.075	453606	keystroke_c	c	n/a
226.923	0.105	453846	keystroke_l	l	n/a
227.043	0.105	454086	keystroke_e	e	n/a
227.103	0.105	454206	keystroke_s	s	n/a
228.033	0.105	456066	keystroke_Key.enter	Key.enter	n/a
228.143	4.092	456286	prompt	n/a	detail schemes guard eugene\n
228.783	0.1355	457566	keystroke_d	d	n/a
228.9035	0.09	457807	keystroke_e	e	n/a
229.0985	0.12	458197	keystroke_t	t	n/a
229.1585	0.12	458317	keystroke_a	a	n/a
229.2035	0.105	458407	keystroke_i	i	n/a
229.2635	0.06	458527	keystroke_l	l	n/a
229.2935	0.135	458587	keystroke_Key.space	Key.space	n/a
229.4425	0.121	458885	keystroke_s	s	n/a
229.5035	0.12	459007	keystroke_c	c	n/a
229.6085	0.075	459217	keystroke_h	h	n/a
229.7135	0.105	459427	keystroke_e	e	n/a
229.8335	0.089	459667	keystroke_m	m	n/a
229.9235	0.15	459847	keystroke_e	e	n/a
229.9835	0.12	459967	keystroke_s	s	n/a
230.0875	0.106	460175	keystroke_Key.space	Key.space	n/a
230.2985	0.075	460597	keystroke_g	g	n/a
230.3885	0.09	460777	keystroke_u	u	n/a
230.4485	0.105	460897	keystroke_a	a	n/a
230.5085	0.075	461017	keystroke_r	r	n/a
230.6585	0.12	461317	keystroke_d	d	n/a
230.7325	0.106	461465	keystroke_Key.space	Key.space	n/a
230.8835	0.09	461767	keystroke_e	e	n/a
230.9885	0.09	461977	keystroke_u	u	n/a
231.318	0.0905	462636	keystroke_g	g	n/a
231.783	0.045	463566	keystroke_e	e	n/a
231.843	0.075	463686	keystroke_n	n	n/a
231.903	0.105	463806	keystroke_e	e	n/a
232.128	0.105	464256	keystroke_Key.enter	Key.enter	n/a
232.238	10.0165	464476	prompt	n/a	only repeated increasing receiver\n
232.8485	0.09	465697	keystroke_o	o	n/a
232.9835	0.06	465967	keystroke_n	n	n/a
233.1035	0.0895	466207	keystroke_l	l	n/a
233.1485	0.1045	466297	keystroke_y	y	n/a
233.238	0.105	466476	keystroke_Key.space	Key.space	n/a
233.388	0.09	466776	keystroke_r	r	n/a
233.943	0.06	467886	keystroke_e	e	n/a
234.108	0.06	468216	keystroke_p	p	n/a
234.183	0.09	468366	keystroke_e	e	n/a
234.228	0.12	468456	keystroke_a	a	n/a
234.363	0.09	468726	keystroke_t	t	n/a
234.438	0.165	468876	keystroke_e	e	n/a
234.558	0.12	469116	keystroke_d	d	n/a
234.633	0.09	469266	keystroke_Key.space	Key.space	n/a
234.798	0.12	469596	keystroke_i	i	n/a
234.888	0.135	469776	keystroke_n	n	n/a
234.933	0.075	469866	keystroke_c	c	n/a
235.143	0.0745	470286	keystroke_r	r	n/a
235.3375	0.1055	470675	keystroke_e	e	n/a
235.3975	0.1655	470795	keystroke_a	a	n/a
235.5185	0.105	471037	keystroke_s	s	n/a
235.6085	0.105	471217	keystroke_i	i	n/a
235.6685	0.1045	471337	keystroke_n	n	n/a
235.7585	0.0895	471517	keystroke_g	g	n/a
235.863	0.12	471726	keystroke_Key.space	Key.space	n/a
236.013	0.105	472026	keystroke_r	r	n/a
236.103	0.1205	472206	keystroke_e	e	n/a
236.358	0.09	472716	keystroke_c	c	n/a
236.628	0.09	473256	keystroke_i	i	n/a
236.703	0.15	473406	keystroke_e	e	n/a
236.8225	0.135	473645	keystroke_v	v	n/a
237.078	0.1355	474156	keystroke_e	e	n/a
237.169	0.1345	474338	keystroke_r	r	n/a
237.3485	0.03	474697	keystroke_r	r	n/a
237.9785	0.12	475957	keystroke_Key.backspace	Key.backspace	n/a
239.373	0.09	478746	keystroke_Key.backspace	Key.backspace	n/a
239.613	0.09	479226	keystroke_Key.backspace	Key.backspace	n/a
239.883	0.075	479766	keystroke_Key.backspace	Key.backspace	n/a
240.108	0.09	480216	keystroke_Key.backspace	Key.backspace	n/a
240.363	0.09	480726	keystroke_Key.backspace	Key.backspace	n/a
240.723	0.075	481446	keystroke_e	e	n/a
241.4435	0.0895	482887	keystroke_i	i	n/a
241.518	0.075	483036	keystroke_v	v	n/a
241.713	0.135	483426	keystroke_e	e	n/a
241.773	0.135	483546	keystroke_r	r	n/a
242.133	0.12	484266	keystroke_Key.enter	Key.enter	n/a
242.258	3.852	484516	prompt	n/a	state anne avoiding indeed\n
242.823	0.09	485646	keystroke_s	s	n/a
242.943	0.076	485886	keystroke_t	t	n/a
243.063	0.135	486126	keystroke_a	a	n/a
243.123	0.135	486246	keystroke_t	t	n/a
243.213	0.12	486426	keystroke_e	e	n/a
243.303	0.1205	486606	keystroke_Key.space	Key.space	n/a
243.4385	0.105	486877	keystroke_a	a	n/a
243.6185	0.045	487237	keystroke_n	n	n/a
243.7385	0.09	487477	keystroke_n	n	n/a
243.7835	0.09	487567	keystroke_e	e	n/a
243.8885	0.09	487777	keystroke_Key.space	Key.space	n/a
243.9635	0.105	487927	keystroke_a	a	n/a
244.0535	0.105	488107	keystroke_v	v	n/a
244.1285	0.1195	488257	keystroke_o	o	n/a
244.2035	0.1045	488407	keystroke_i	i	n/a
244.309	0.089	488618	keystroke_d	d	n/a
244.413	0.09	488826	keystroke_i	i	n/a
244.488	0.105	488976	keystroke_n	n	n/a
244.578	0.105	489156	keystroke_g	g	n/a
244.669	0.134	489338	keystroke_Key.space	Key.space	n/a
245.403	0.105	490806	keystroke_i	i	n/a
245.523	0.105	491046	keystroke_n	n	n/a
245.583	0.135	491166	keystroke_d	d	n/a
245.688	0.075	491376	keystroke_e	e	n/a
245.823	0.135	491646	keystroke_e	e	n/a
245.883	0.15	491766	keystroke_d	d	n/a
245.988	0.12	491976	keystroke_Key.enter	Key.enter	n/a
246.114	4.496	492228	prompt	n/a	wrist organizing moldova daughter\n
246.858	0.12	493716	keystroke_w	w	n/a
246.918	0.135	493836	keystroke_r	r	n/a
247.038	0.09	494076	keystroke_i	i	n/a
247.113	0.0905	494226	keystroke_s	s	n/a
247.143	0.1355	494286	keystroke_t	t	n/a
247.2335	0.105	494467	keystroke_Key.space	Key.space	n/a
247.4575	0.106	494915	keystroke_o	o	n/a
247.5185	0.075	495037	keystroke_r	r	n/a
247.7135	0.12	495427	keystroke_g	g	n/a
247.7735	0.09	495547	keystroke_a	a	n/a
247.8185	0.105	495637	keystroke_n	n	n/a
247.8485	0.105	495697	keystroke_i	i	n/a
247.9685	0.12	495937	keystroke_z	z	n/a
248.1035	0.09	496207	keystroke_i	i	n/a
248.1485	0.12	496297	keystroke_n	n	n/a
248.2085	0.12	496417	keystroke_g	g	n/a
248.3135	0.0905	496627	keystroke_Key.space	Key.space	n/a
248.5385	0.09	497077	keystroke_m	m	n/a
248.7485	0.06	497497	keystroke_o	o	n/a
248.9135	0.105	497827	keystroke_l	l	n/a
249.0335	0.105	498067	keystroke_d	d	n/a
249.274	0.074	498548	keystroke_o	o	n/a
249.363	0.105	498726	keystroke_v	v	n/a
249.4525	0.0905	498905	keystroke_a	a	n/a
249.528	0.106	499056	keystroke_Key.space	Key.space	n/a
249.708	0.09	499416	keystroke_d	d	n/a
249.753	0.105	499506	keystroke_a	a	n/a
249.843	0.1045	499686	keystroke_u	u	n/a
249.9625	0.061	499925	keystroke_g	g	n/a
250.039	0.105	500078	keystroke_h	h	n/a
250.1285	0.075	500257	keystroke_t	t	n/a
250.2175	0.15	500435	keystroke_e	e	n/a
250.2925	0.1805	500585	keystroke_r	r	n/a
250.488	0.1195	500976	keystroke_Key.enter	Key.enter	n/a
250.6125	3.7175	501225	prompt	n/a	daddy clicks pressed brazil\n
251.1935	0.105	502387	keystroke_d	d	n/a
251.2385	0.105	502477	keystroke_a	a	n/a
251.3885	0.075	502777	keystroke_d	d	n/a
251.5235	0.09	503047	keystroke_d	d	n/a
251.5835	0.09	503167	keystroke_y	y	n/a
251.5985	0.135	503197	keystroke_Key.space	Key.space	n/a
251.793	0.06	503586	keystroke_c	c	n/a
251.868	0.075	503736	keystroke_l	l	n/a
251.913	0.105	503826	keystroke_i	i	n/a
252.033	0.06	504066	keystroke_c	c	n/a
252.108	0.09	504216	keystroke_k	k	n/a
252.183	0.09	504366	keystroke_s	s	n/a
252.258	0.09	504516	keystroke_Key.space	Key.space	n/a
252.633	0.075	505266	keystroke_p	p	n/a
252.678	0.135	505356	keystroke_r	r	n/a
252.723	0.135	505446	keystroke_e	e	n/a
252.783	0.105	505566	keystroke_s	s	n/a
252.948	0.135	505896	keystroke_s	s	n/a
253.023	0.1055	506046	keystroke_e	e	n/a
253.084	0.104	506168	keystroke_d	d	n/a
253.173	0.09	506346	keystroke_Key.space	Key.space	n/a
253.353	0.075	506706	keystroke_b	b	n/a
253.548	0.09	507096	keystroke_r	r	n/a
253.728	0.09	507456	keystroke_a	a	n/a
253.908	0.09	507816	keystroke_z	z	n/a
253.953	0.105	507906	keystroke_i	i	n/a
254.013	0.105	508026	keystroke_l	l	n/a
254.238	0.09	508476	keystroke_Key.enter	Key.enter	n/a
254.3345	7.45	508669	prompt	n/a	healthy session qualification withdrawal\n
254.9585	0.09	509917	keystroke_h	h	n/a
255.0335	0.12	510067	keystroke_e	e	n/a
255.1385	0.105	510277	keystroke_a	a	n/a
255.2585	0.09	510517	keystroke_l	l	n/a
255.3635	0.09	510727	keystroke_t	t	n/a
255.4385	0.105	510877	keystroke_h	h	n/a
255.5585	0.06	511117	keystroke_y	y	n/a
255.6035	0.105	511207	keystroke_Key.space	Key.space	n/a
255.7235	0.149	511447	keystroke_e	e	n/a
256.0835	0.089	512167	keystroke_Key.backspace	Key.backspace	n/a
256.1875	0.076	512375	keystroke_s	s	n/a
256.2485	0.12	512497	keystroke_e	e	n/a
256.3385	0.075	512677	keystroke_s	s	n/a
256.4725	0.091	512945	keystroke_s	s	n/a
256.5475	0.091	513095	keystroke_i	i	n/a
256.5935	0.075	513187	keystroke_o	o	n/a
256.7585	0.075	513517	keystroke_n	n	n/a
256.8175	0.09	513635	keystroke_Key.space	Key.space	n/a
256.8785	0.104	513757	keystroke_q	q	n/a
256.9975	0.076	513995	keystroke_u	u	n/a
257.0585	0.12	514117	keystroke_a	a	n/a
257.2085	0.12	514417	keystroke_l	l	n/a
257.3135	0.105	514627	keystroke_i	i	n/a
257.4335	0.06	514867	keystroke_f	f	n/a
257.538	0.09	515076	keystroke_i	i	n/a
257.748	0.09	515496	keystroke_c	c	n/a
259.3385	0.1195	518677	keystroke_a	a	n/a
259.4285	0.0895	518857	keystroke_t	t	n/a
259.503	0.09	519006	keystroke_i	i	n/a
259.548	0.0755	519096	keystroke_o	o	n/a
259.7285	0.075	519457	keystroke_n	n	n/a
259.7735	0.12	519547	keystroke_Key.space	Key.space	n/a
260.0275	0.091	520055	keystroke_w	w	n/a
260.1785	0.105	520357	keystroke_i	i	n/a
260.2985	0.075	520597	keystroke_t	t	n/a
260.3885	0.09	520777	keystroke_h	h	n/a
260.5685	0.075	521137	keystroke_d	d	n/a
260.7485	0.105	521497	keystroke_r	r	n/a
260.9885	0.105	521977	keystroke_a	a	n/a
261.1085	0.12	522217	keystroke_w	w	n/a
261.1835	0.12	522367	keystroke_a	a	n/a
261.453	0.105	522906	keystroke_l	l	n/a
261.693	0.09	523386	keystroke_Key.enter	Key.enter	n/a
261.79	3.8195	523580	prompt	n/a	core commodity velocity fellow\n
262.368	0.075	524736	keystroke_c	c	n/a
262.458	0.09	524916	keystroke_o	o	n/a
262.563	0.09	525126	keystroke_r	r	n/a
262.608	0.09	525216	keystroke_e	e	n/a
262.683	0.075	525366	keystroke_Key.space	Key.space	n/a
262.803	0.09	525606	keystroke_c	c	n/a
262.863	0.09	525726	keystroke_o	o	n/a
263.043	0.06	526086	keystroke_m	m	n/a
263.1935	0.105	526387	keystroke_m	m	n/a
263.2535	0.09	526507	keystroke_o	o	n/a
263.3585	0.12	526717	keystroke_d	d	n/a
263.4935	0.075	526987	keystroke_i	i	n/a
263.5535	0.075	527107	keystroke_t	t	n/a
263.7035	0.09	527407	keystroke_y	y	n/a
263.7635	0.105	527527	keystroke_Key.space	Key.space	n/a
263.9735	0.09	527947	keystroke_v	v	n/a
264.0185	0.12	528037	keystroke_e	e	n/a
264.0785	0.075	528157	keystroke_l	l	n/a
264.2585	0.075	528517	keystroke_o	o	n/a
264.2885	0.075	528577	keystroke_c	c	n/a
264.4385	0.09	528877	keystroke_i	i	n/a
264.5435	0.06	529087	keystroke_t	t	n/a
264.6785	0.09	529357	keystroke_y	y	n/a
264.7385	0.105	529477	keystroke_Key.space	Key.space	n/a
264.9335	0.09	529867	keystroke_f	f	n/a
264.9635	0.135	529927	keystroke_e	e	n/a
265.0835	0.045	530167	keystroke_l	l	n/a
265.203	0.06	530406	keystroke_l	l	n/a
265.353	0.0755	530706	keystroke_o	o	n/a
265.398	0.1195	530796	keystroke_w	w	n/a
265.5325	0.075	531065	keystroke_Key.enter	Key.enter	n/a
265.6125	4.7525	531225	prompt	n/a	services facilities casinos animal\n
266.208	0.105	532416	keystroke_s	s	n/a
266.253	0.12	532506	keystroke_e	e	n/a
266.553	0.09	533106	keystroke_r	r	n/a
266.7935	0.075	533587	keystroke_v	v	n/a
266.9585	0.105	533917	keystroke_i	i	n/a
267.0035	0.165	534007	keystroke_c	c	n/a
267.0785	0.165	534157	keystroke_e	e	n/a
267.1685	0.09	534337	keystroke_s	s	n/a
267.1985	0.135	534397	keystroke_Key.space	Key.space	n/a
267.3785	0.105	534757	keystroke_f	f	n/a
267.4385	0.105	534877	keystroke_a	a	n/a
267.6335	0.105	535267	keystroke_c	c	n/a
267.7535	0.12	535507	keystroke_i	i	n/a
268.0385	0.1195	536077	keystroke_l	l	n/a
268.248	0.105	536496	keystroke_i	i	n/a
268.353	0.075	536706	keystroke_t	t	n/a
268.473	0.0755	536946	keystroke_i	i	n/a
268.5185	0.12	537037	keystroke_e	e	n/a
268.5635	0.09	537127	keystroke_s	s	n/a
268.6235	0.105	537247	keystroke_Key.space	Key.space	n/a
268.7585	0.105	537517	keystroke_c	c	n/a
268.8185	0.135	537637	keystroke_a	a	n/a
268.9235	0.12	537847	keystroke_s	s	n/a
269.0735	0.06	538147	keystroke_i	i	n/a
269.2535	0.06	538507	keystroke_n	n	n/a
269.3585	0.09	538717	keystroke_o	o	n/a
269.4335	0.105	538867	keystroke_s	s	n/a
269.5085	0.119	539017	keystroke_Key.space	Key.space	n/a
269.6735	0.059	539347	keystroke_a	a	n/a
269.7635	0.105	539527	keystroke_n	n	n/a
269.8525	0.105	539705	keystroke_i	i	n/a
269.9725	0.091	539945	keystroke_m	m	n/a
270.0485	0.135	540097	keystroke_a	a	n/a
270.1225	0.106	540245	keystroke_l	l	n/a
270.2585	0.105	540517	keystroke_Key.enter	Key.enter	n/a
270.3715	3.9235	540743	prompt	n/a	central varying demonstrate reno\n
270.9635	0.105	541927	keystroke_c	c	n/a
271.0235	0.12	542047	keystroke_e	e	n/a
271.173	0.09	542346	keystroke_n	n	n/a
271.233	0.075	542466	keystroke_t	t	n/a
271.383	0.12	542766	keystroke_r	r	n/a
271.413	0.15	542826	keystroke_a	a	n/a
271.488	0.09	542976	keystroke_l	l	n/a
271.518	0.12	543036	keystroke_Key.space	Key.space	n/a
271.653	0.105	543306	keystroke_v	v	n/a
271.773	0.105	543546	keystroke_a	a	n/a
271.923	0.0455	543846	keystroke_r	r	n/a
272.0735	0.09	544147	keystroke_y	y	n/a
272.1335	0.09	544267	keystroke_i	i	n/a
272.1935	0.135	544387	keystroke_n	n	n/a
272.2835	0.105	544567	keystroke_g	g	n/a
272.3735	0.12	544747	keystroke_Key.space	Key.space	n/a
272.7185	0.105	545437	keystroke_d	d	n/a
272.7635	0.12	545527	keystroke_e	e	n/a
272.8385	0.105	545677	keystroke_m	m	n/a
272.8985	0.075	545797	keystroke_o	o	n/a
273.0325	0.09	546065	keystroke_n	n	n/a
273.0775	0.106	546155	keystroke_s	s	n/a
273.2135	0.09	546427	keystroke_t	t	n/a
273.3785	0.105	546757	keystroke_r	r	n/a
273.4385	0.1045	546877	keystroke_a	a	n/a
273.558	0.105	547116	keystroke_t	t	n/a
273.618	0.105	547236	keystroke_e	e	n/a
273.708	0.075	547416	keystroke_Key.space	Key.space	n/a
273.828	0.12	547656	keystroke_r	r	n/a
273.888	0.105	547776	keystroke_e	e	n/a
273.933	0.09	547866	keystroke_n	n	n/a
274.053	0.09	548106	keystroke_o	o	n/a
274.203	0.09	548406	keystroke_Key.enter	Key.enter	n/a
274.299	4.496	548598	prompt	n/a	demonstrate base diameter extra\n
274.983	0.105	549966	keystroke_d	d	n/a
275.028	0.12	550056	keystroke_e	e	n/a
275.073	0.09	550146	keystroke_m	m	n/a
275.133	0.09	550266	keystroke_o	o	n/a
275.268	0.09	550536	keystroke_n	n	n/a
275.328	0.075	550656	keystroke_s	s	n/a
275.373	0.09	550746	keystroke_t	t	n/a
275.5685	0.105	551137	keystroke_r	r	n/a
275.6425	0.091	551285	keystroke_a	a	n/a
275.7935	0.12	551587	keystroke_t	t	n/a
275.8685	0.135	551737	keystroke_e	e	n/a
275.9885	0.12	551977	keystroke_Key.space	Key.space	n/a
276.3785	0.09	552757	keystroke_b	b	n/a
276.4535	0.15	552907	keystroke_a	a	n/a
276.5285	0.135	553057	keystroke_s	s	n/a
276.5885	0.12	553177	keystroke_e	e	n/a
276.6785	0.105	553357	keystroke_Key.space	Key.space	n/a
277.0085	0.06	554017	keystroke_d	d	n/a
277.0835	0.12	554167	keystroke_i	i	n/a
277.2485	0.105	554497	keystroke_a	a	n/a
277.3835	0.105	554767	keystroke_m	m	n/a
277.5185	0.12	555037	keystroke_e	e	n/a
277.6085	0.0895	555217	keystroke_t	t	n/a
277.728	0.12	555456	keystroke_e	e	n/a
277.803	0.105	555606	keystroke_r	r	n/a
277.923	0.075	555846	keystroke_Key.space	Key.space	n/a
277.983	0.105	555966	keystroke_e	e	n/a
278.163	0.105	556326	keystroke_x	x	n/a
278.433	0.06	556866	keystroke_t	t	n/a
278.5535	0.105	557107	keystroke_r	r	n/a
278.5975	0.12	557195	keystroke_a	a	n/a
278.6875	0.105	557375	keystroke_Key.enter	Key.enter	n/a
278.8	6.205	557600	prompt	n/a	galleries sequences qualified displaying\n
279.513	0.09	559026	keystroke_g	g	n/a
279.573	0.09	559146	keystroke_a	a	n/a
279.783	0.045	559566	keystroke_l	l	n/a
279.903	0.09	559806	keystroke_l	l	n/a
279.978	0.06	559956	keystroke_e	e	n/a
280.008	0.09	560016	keystroke_r	r	n/a
280.128	0.105	560256	keystroke_i	i	n/a
280.173	0.15	560346	keystroke_e	e	n/a
280.248	0.12	560496	keystroke_s	s	n/a
280.324	0.104	560648	keystroke_Key.space	Key.space	n/a
280.563	0.045	561126	keystroke_s	s	n/a
281.103	0.0905	562206	keystroke_e	e	n/a
281.5235	0.09	563047	keystroke_q	q	n/a
281.6735	0.0895	563347	keystroke_u	u	n/a
281.748	0.09	563496	keystroke_e	e	n/a
281.883	0.075	563766	keystroke_n	n	n/a
281.928	0.135	563856	keystroke_c	c	n/a
281.973	0.15	563946	keystroke_e	e	n/a
282.048	0.105	564096	keystroke_s	s	n/a
282.108	0.105	564216	keystroke_Key.space	Key.space	n/a
282.438	0.09	564876	keystroke_q	q	n/a
282.543	0.105	565086	keystroke_u	u	n/a
282.633	0.09	565266	keystroke_a	a	n/a
282.753	0.105	565506	keystroke_l	l	n/a
282.828	0.09	565656	keystroke_i	i	n/a
282.933	0.06	565866	keystroke_f	f	n/a
283.023	0.09	566046	keystroke_i	i	n/a
283.068	0.12	566136	keystroke_e	e	n/a
283.128	0.09	566256	keystroke_d	d	n/a
283.203	0.105	566406	keystroke_Key.space	Key.space	n/a
283.323	0.09	566646	keystroke_d	d	n/a
283.383	0.0905	566766	keystroke_i	i	n/a
283.5485	0.135	567097	keystroke_p	p	n/a
283.6235	0.135	567247	keystroke_l	l	n/a
284.0275	0.06	568055	keystroke_Key.backspace	Key.backspace	n/a
284.1775	0.075	568355	keystroke_Key.backspace	Key.backspace	n/a
284.2385	0.105	568477	keystroke_s	s	n/a
284.3585	0.09	568717	keystroke_p	p	n/a
284.3875	0.121	568775	keystroke_l	l	n/a
284.4635	0.104	568927	keystroke_a	a	n/a
284.5225	0.076	569045	keystroke_y	y	n/a
284.5985	0.105	569197	keystroke_i	i	n/a
284.6585	0.105	569317	keystroke_n	n	n/a
284.7185	0.12	569437	keystroke_g	g	n/a
284.9135	0.089	569827	keystroke_Key.enter	Key.enter	n/a
285.008	6.822	570016	prompt	n/a	yacht disciplines adam disclose\n
286.533	0.06	573066	keystroke_y	y	n/a
286.623	0.12	573246	keystroke_a	a	n/a
287.073	0.1055	574146	keystroke_c	c	n/a
287.2235	0.135	574447	keystroke_h	h	n/a
287.3725	0.09	574745	keystroke_t	t	n/a
287.7025	0.121	575405	keystroke_Key.space	Key.space	n/a
287.9875	0.091	575975	keystroke_d	d	n/a
288.0625	0.105	576125	keystroke_i	i	n/a
288.1985	0.059	576397	keystroke_s	s	n/a
288.693	0.12	577386	keystroke_c	c	n/a
288.978	0.12	577956	keystroke_i	i	n/a
289.6675	0.06	579335	keystroke_p	p	n/a
289.6975	0.135	579395	keystroke_l	l	n/a
289.968	0.1205	579936	keystroke_i	i	n/a
290.0435	0.135	580087	keystroke_n	n	n/a
290.1035	0.12	580207	keystroke_e	e	n/a
290.1635	0.09	580327	keystroke_s	s	n/a
290.2385	0.09	580477	keystroke_Key.space	Key.space	n/a
290.3585	0.12	580717	keystroke_a	a	n/a
290.4935	0.135	580987	keystroke_d	d	n/a
290.5685	0.09	581137	keystroke_a	a	n/a
290.6285	0.105	581257	keystroke_m	m	n/a
290.7035	0.075	581407	keystroke_Key.space	Key.space	n/a
290.8385	0.09	581677	keystroke_d	d	n/a
290.9135	0.135	581827	keystroke_i	i	n/a
291.0035	0.075	582007	keystroke_s	s	n/a
291.1235	0.09	582247	keystroke_c	c	n/a
291.2285	0.06	582457	keystroke_l	l	n/a
291.3635	0.075	582727	keystroke_o	o	n/a
291.4235	0.12	582847	keystroke_s	s	n/a
291.4535	0.12	582907	keystroke_e	e	n/a
291.7085	0.12	583417	keystroke_Key.enter	Key.enter	n/a
291.8335	6.071	583667	prompt	n/a	recording consensus division miles\n
292.4135	0.12	584827	keystroke_r	r	n/a
292.5185	0.09	585037	keystroke_e	e	n/a
292.698	0.075	585396	keystroke_c	c	n/a
292.788	0.075	585576	keystroke_o	o	n/a
292.878	0.075	585756	keystroke_r	r	n/a
293.028	0.09	586056	keystroke_d	d	n/a
293.088	0.1055	586176	keystroke_i	i	n/a
293.148	0.1205	586296	keystroke_n	n	n/a
293.2535	0.06	586507	keystroke_g	g	n/a
293.3435	0.075	586687	keystroke_Key.space	Key.space	n/a
293.4635	0.09	586927	keystroke_c	c	n/a
293.4935	0.09	586987	keystroke_o	o	n/a
293.6135	0.105	587227	keystroke_n	n	n/a
293.7485	0.09	587497	keystroke_s	s	n/a
294.288	0.105	588576	keystroke_e	e	n/a
294.423	0.09	588846	keystroke_n	n	n/a
294.558	0.105	589116	keystroke_s	s	n/a
294.708	0.06	589416	keystroke_u	u	n/a
294.798	0.09	589596	keystroke_s	s	n/a
294.858	0.105	589716	keystroke_Key.space	Key.space	n/a
295.143	0.105	590286	keystroke_d	d	n/a
295.263	0.09	590526	keystroke_i	i	n/a
295.383	0.09	590766	keystroke_v	v	n/a
295.488	0.09	590976	keystroke_i	i	n/a
295.563	0.15	591126	keystroke_s	s	n/a
295.713	0.135	591426	keystroke_i	i	n/a
296.6885	0.06	593377	keystroke_o	o	n/a
296.853	0.09	593706	keystroke_n	n	n/a
296.913	0.135	593826	keystroke_Key.space	Key.space	n/a
297.273	0.09	594546	keystroke_m	m	n/a
297.498	0.075	594996	keystroke_i	i	n/a
297.543	0.105	595086	keystroke_l	l	n/a
297.603	0.15	595206	keystroke_e	e	n/a
297.708	0.09	595416	keystroke_s	s	n/a
297.798	0.105	595596	keystroke_Key.enter	Key.enter	n/a
297.9075	5.067	595815	prompt	n/a	mongolia despite common harrison\n
298.788	0.135	597576	keystroke_m	m	n/a
298.878	0.09	597756	keystroke_o	o	n/a
299.0435	0.075	598087	keystroke_n	n	n/a
299.1485	0.12	598297	keystroke_g	g	n/a
299.2225	0.06	598445	keystroke_o	o	n/a
299.4185	0.06	598837	keystroke_l	l	n/a
300.2275	0.09	600455	keystroke_i	i	n/a
300.3185	0.12	600637	keystroke_a	a	n/a
300.3925	0.12	600785	keystroke_Key.space	Key.space	n/a
300.6185	0.149	601237	keystroke_d	d	n/a
300.6775	0.151	601355	keystroke_e	e	n/a
300.7685	0.104	601537	keystroke_s	s	n/a
300.8125	0.105	601625	keystroke_p	p	n/a
300.8575	0.12	601715	keystroke_i	i	n/a
300.9625	0.105	601925	keystroke_t	t	n/a
301.0225	0.12	602045	keystroke_e	e	n/a
301.0825	0.09	602165	keystroke_Key.space	Key.space	n/a
301.2925	0.105	602585	keystroke_c	c	n/a
301.3375	0.075	602675	keystroke_o	o	n/a
301.4875	0.075	602975	keystroke_m	m	n/a
301.6225	0.105	603245	keystroke_m	m	n/a
301.6825	0.105	603365	keystroke_o	o	n/a
301.8325	0.075	603665	keystroke_n	n	n/a
301.8925	0.075	603785	keystroke_Key.space	Key.space	n/a
302.0275	0.105	604055	keystroke_h	h	n/a
302.1025	0.09	604205	keystroke_a	a	n/a
302.1625	0.076	604325	keystroke_r	r	n/a
302.2975	0.106	604595	keystroke_r	r	n/a
302.4475	0.09	604895	keystroke_i	i	n/a
302.5225	0.105	605045	keystroke_s	s	n/a
302.6125	0.09	605225	keystroke_o	o	n/a
302.7475	0.09	605495	keystroke_n	n	n/a
302.8675	0.105	605735	keystroke_Key.enter	Key.enter	n/a
302.9775	3.7325	605955	prompt	n/a	safe woods raise caroline\n
303.6785	0.03	607357	keystroke_s	s	n/a
303.6935	0.0595	607387	keystroke_a	a	n/a
303.768	0.135	607536	keystroke_f	f	n/a
303.828	0.105	607656	keystroke_e	e	n/a
303.888	0.09	607776	keystroke_Key.space	Key.space	n/a
304.008	0.09	608016	keystroke_w	w	n/a
304.068	0.06	608136	keystroke_o	o	n/a
304.203	0.105	608406	keystroke_o	o	n/a
304.293	0.105	608586	keystroke_d	d	n/a
304.323	0.105	608646	keystroke_s	s	n/a
304.383	0.135	608766	keystroke_Key.space	Key.space	n/a
304.563	0.12	609126	keystroke_r	r	n/a
304.623	0.105	609246	keystroke_a	a	n/a
304.728	0.105	609456	keystroke_i	i	n/a
304.818	0.135	609636	keystroke_s	s	n/a
304.863	0.12	609726	keystroke_e	e	n/a
304.938	0.09	609876	keystroke_Key.space	Key.space	n/a
305.103	0.105	610206	keystroke_c	c	n/a
305.148	0.09	610296	keystroke_a	a	n/a
305.358	0.105	610716	keystroke_r	r	n/a
305.988	0.075	611976	keystroke_o	o	n/a
306.183	0.075	612366	keystroke_l	l	n/a
306.3485	0.09	612697	keystroke_i	i	n/a
306.4085	0.105	612817	keystroke_n	n	n/a
306.4535	0.09	612907	keystroke_e	e	n/a
306.6035	0.105	613207	keystroke_Key.enter	Key.enter	n/a
306.713	7.0615	613426	prompt	n/a	converter partnerships airplane conducted\n
307.518	0.075	615036	keystroke_c	c	n/a
307.578	0.06	615156	keystroke_o	o	n/a
307.698	0.105	615396	keystroke_n	n	n/a
307.743	0.075	615486	keystroke_v	v	n/a
307.893	0.135	615786	keystroke_e	e	n/a
307.953	0.12	615906	keystroke_r	r	n/a
308.283	0.075	616566	keystroke_t	t	n/a
308.418	0.105	616836	keystroke_e	e	n/a
308.463	0.12	616926	keystroke_r	r	n/a
308.568	0.06	617136	keystroke_Key.space	Key.space	n/a
308.688	0.105	617376	keystroke_p	p	n/a
308.763	0.09	617526	keystroke_a	a	n/a
308.808	0.105	617616	keystroke_r	r	n/a
308.988	0.09	617976	keystroke_t	t	n/a
309.093	0.0895	618186	keystroke_n	n	n/a
309.153	0.1195	618306	keystroke_e	e	n/a
309.2135	0.075	618427	keystroke_r	r	n/a
309.3325	0.12	618665	keystroke_s	s	n/a
309.3925	0.106	618785	keystroke_h	h	n/a
309.4685	0.105	618937	keystroke_i	i	n/a
309.5135	0.09	619027	keystroke_p	p	n/a
309.5735	0.12	619147	keystroke_s	s	n/a
309.6625	0.121	619325	keystroke_Key.space	Key.space	n/a
309.8735	0.075	619747	keystroke_a	a	n/a
309.9335	0.105	619867	keystroke_i	i	n/a
310.0535	0.09	620107	keystroke_r	r	n/a
310.5785	0.12	621157	keystroke_p	p	n/a
310.6535	0.119	621307	keystroke_l	l	n/a
310.7425	0.091	621485	keystroke_a	a	n/a
310.8635	0.09	621727	keystroke_n	n	n/a
310.9085	0.09	621817	keystroke_e	e	n/a
311.0135	0.1045	622027	keystroke_Key.space	Key.space	n/a
311.1635	0.09	622327	keystroke_o	o	n/a
311.1785	0.015	622357	keystroke_c	c	n/a
311.3585	0.045	622717	keystroke_n	n	n/a
312.0485	0.045	624097	keystroke_Key.backspace	Key.backspace	n/a
312.2885	0.075	624577	keystroke_Key.backspace	Key.backspace	n/a
312.4985	0.09	624997	keystroke_Key.backspace	Key.backspace	n/a
312.6485	0.105	625297	keystroke_c	c	n/a
312.7085	0.09	625417	keystroke_o	o	n/a
312.8135	0.12	625627	keystroke_n	n	n/a
312.9485	0.075	625897	keystroke_d	d	n/a
313.0835	0.09	626167	keystroke_u	u	n/a
313.1585	0.09	626317	keystroke_c	c	n/a
313.3535	0.075	626707	keystroke_t	t	n/a
313.4575	0.136	626915	keystroke_e	e	n/a
313.5485	0.105	627097	keystroke_d	d	n/a
313.6835	0.09	627367	keystroke_Key.enter	Key.enter	n/a
313.7775	6.162	627555	prompt	n/a	employed circumstances entries targeted\n
314.403	0.0905	628806	keystroke_e	e	n/a
314.508	0.06	629016	keystroke_m	m	n/a
314.658	0.1055	629316	keystroke_p	p	n/a
314.7185	0.0895	629437	keystroke_l	l	n/a
314.868	0.105	629736	keystroke_o	o	n/a
314.898	0.12	629796	keystroke_y	y	n/a
315.033	0.12	630066	keystroke_e	e	n/a
315.108	0.12	630216	keystroke_d	d	n/a
315.198	0.105	630396	keystroke_Key.space	Key.space	n/a
315.333	0.09	630666	keystroke_c	c	n/a
315.408	0.105	630816	keystroke_i	i	n/a
315.528	0.075	631056	keystroke_r	r	n/a
315.723	0.09	631446	keystroke_c	c	n/a
315.798	0.06	631596	keystroke_u	u	n/a
315.978	0.09	631956	keystroke_m	m	n/a
316.053	0.06	632106	keystroke_s	s	n/a
316.128	0.12	632256	keystroke_t	t	n/a
316.218	0.09	632436	keystroke_a	a	n/a
316.338	0.075	632676	keystroke_n	n	n/a
316.458	0.135	632916	keystroke_e	e	n/a
316.533	0.105	633066	keystroke_s	s	n/a
317.1625	0.0755	634325	keystroke_Key.backspace	Key.backspace	n/a
317.298	0.09	634596	keystroke_Key.backspace	Key.backspace	n/a
317.403	0.12	634806	keystroke_c	c	n/a
317.448	0.165	634896	keystroke_e	e	n/a
317.508	0.12	635016	keystroke_s	s	n/a
317.5975	0.1055	635195	keystroke_Key.space	Key.space	n/a
317.973	0.105	635946	keystroke_e	e	n/a
318.093	0.0895	636186	keystroke_n	n	n/a
318.288	0.1495	636576	keystroke_t	t	n/a
318.348	0.135	636696	keystroke_r	r	n/a
318.4975	0.12	636995	keystroke_i	i	n/a
318.5725	0.15	637145	keystroke_e	e	n/a
318.6635	0.104	637327	keystroke_s	s	n/a
318.7235	0.089	637447	keystroke_Key.space	Key.space	n/a
318.9625	0.06	637925	keystroke_t	t	n/a
319.0375	0.1355	638075	keystroke_a	a	n/a
319.1275	0.0755	638255	keystroke_r	r	n/a
319.278	0.09	638556	keystroke_g	g	n/a
319.383	0.12	638766	keystroke_e	e	n/a
319.458	0.12	638916	keystroke_t	t	n/a
319.563	0.15	639126	keystroke_e	e	n/a
319.698	0.1345	639396	keystroke_d	d	n/a
319.8475	0.0905	639695	keystroke_Key.enter	Key.enter	n/a
319.9435	5.501	639887	prompt	n/a	moves recipes lodge tales\n
320.508	0.09	641016	keystroke_n	n	n/a
320.793	0.06	641586	keystroke_Key.backspace	Key.backspace	n/a
320.973	0.1205	641946	keystroke_m	m	n/a
321.018	0.1055	642036	keystroke_o	o	n/a
321.0785	0.09	642157	keystroke_v	v	n/a
321.1085	0.12	642217	keystroke_e	e	n/a
321.1535	0.12	642307	keystroke_s	s	n/a
321.2435	0.105	642487	keystroke_Key.space	Key.space	n/a
321.4835	0.12	642967	keystroke_r	r	n/a
321.5435	0.12	643087	keystroke_e	e	n/a
322.2485	0.105	644497	keystroke_c	c	n/a
323.163	0.0905	646326	keystroke_i	i	n/a
323.4025	0.12	646805	keystroke_p	p	n/a
323.5535	0.149	647107	keystroke_e	e	n/a
323.6435	0.119	647287	keystroke_s	s	n/a
323.7175	0.105	647435	keystroke_Key.space	Key.space	n/a
323.9135	0.1045	647827	keystroke_l	l	n/a
324.108	0.09	648216	keystroke_o	o	n/a
324.153	0.09	648306	keystroke_d	d	n/a
324.363	0.0755	648726	keystroke_g	g	n/a
324.393	0.1205	648786	keystroke_e	e	n/a
324.4385	0.1195	648877	keystroke_Key.space	Key.space	n/a
324.618	0.1205	649236	keystroke_t	t	n/a
324.6935	0.0895	649387	keystroke_a	a	n/a
324.7985	0.1045	649597	keystroke_l	l	n/a
324.948	0.15	649896	keystroke_e	e	n/a
325.008	0.12	650016	keystroke_s	s	n/a
325.3375	0.105	650675	keystroke_Key.enter	Key.enter	n/a
325.4515	6.278	650903	prompt	n/a	renaissance voyuer hair ensures\n
326.2385	0.15	652477	keystroke_r	r	n/a
326.3135	0.1645	652627	keystroke_e	e	n/a
326.793	0.09	653586	keystroke_n	n	n/a
327.4985	0.015	654997	keystroke_a	a	n/a
327.7385	0.09	655477	keystroke_i	i	n/a
327.9485	0.075	655897	keystroke_s	s	n/a
328.143	0.09	656286	keystroke_s	s	n/a
328.203	0.075	656406	keystroke_a	a	n/a
328.323	0.105	656646	keystroke_n	n	n/a
328.398	0.12	656796	keystroke_c	c	n/a
328.458	0.135	656916	keystroke_e	e	n/a
328.548	0.105	657096	keystroke_Key.space	Key.space	n/a
329.013	0.09	658026	keystroke_v	v	n/a
329.118	0.075	658236	keystroke_o	o	n/a
329.373	0.09	658746	keystroke_y	y	n/a
329.553	0.075	659106	keystroke_u	u	n/a
329.629	0.1345	659258	keystroke_e	e	n/a
329.673	0.1055	659346	keystroke_r	r	n/a
329.748	0.1205	659496	keystroke_Key.space	Key.space	n/a
330.0185	0.075	660037	keystroke_h	h	n/a
330.0785	0.075	660157	keystroke_a	a	n/a
330.1685	0.105	660337	keystroke_i	i	n/a
330.2285	0.09	660457	keystroke_r	r	n/a
330.3035	0.09	660607	keystroke_Key.space	Key.space	n/a
330.4685	0.09	660937	keystroke_e	e	n/a
330.5735	0.075	661147	keystroke_n	n	n/a
330.6785	0.075	661357	keystroke_s	s	n/a
330.7985	0.0745	661597	keystroke_u	u	n/a
330.8285	0.1045	661657	keystroke_r	r	n/a
330.888	0.12	661776	keystroke_e	e	n/a
331.278	0.06	662556	keystroke_s	s	n/a
331.638	0.09	663276	keystroke_Key.enter	Key.enter	n/a
331.733	3.5525	663466	prompt	n/a	bunny rows obtain bell\n
332.4635	0.045	664927	keystroke_b	b	n/a
332.9885	0.06	665977	keystroke_u	u	n/a
333.1675	0.031	666335	keystroke_n	n	n/a
333.2875	0.075	666575	keystroke_n	n	n/a
333.3325	0.075	666665	keystroke_y	y	n/a
333.4375	0.105	666875	keystroke_Key.space	Key.space	n/a
333.5575	0.091	667115	keystroke_r	r	n/a
333.663	0.0905	667326	keystroke_o	o	n/a
333.738	0.075	667476	keystroke_w	w	n/a
333.918	0.0755	667836	keystroke_s	s	n/a
333.963	0.105	667926	keystroke_Key.space	Key.space	n/a
334.128	0.1055	668256	keystroke_o	o	n/a
334.2485	0.0745	668497	keystroke_b	b	n/a
334.4435	0.0895	668887	keystroke_t	t	n/a
334.473	0.105	668946	keystroke_a	a	n/a
334.518	0.105	669036	keystroke_i	i	n/a
334.593	0.105	669186	keystroke_n	n	n/a
334.683	0.075	669366	keystroke_Key.space	Key.space	n/a
334.743	0.105	669486	keystroke_b	b	n/a
334.788	0.12	669576	keystroke_e	e	n/a
334.863	0.075	669726	keystroke_l	l	n/a
335.028	0.075	670056	keystroke_l	l	n/a
335.2085	0.075	670417	keystroke_Key.enter	Key.enter	n/a
335.2905	5.0045	670581	prompt	n/a	contents powell singh technical\n
335.958	0.0605	671916	keystroke_c	c	n/a
335.973	0.0755	671946	keystroke_o	o	n/a
336.1085	0.12	672217	keystroke_n	n	n/a
336.1835	0.09	672367	keystroke_t	t	n/a
336.2135	0.1195	672427	keystroke_e	e	n/a
336.348	0.09	672696	keystroke_n	n	n/a
336.393	0.12	672786	keystroke_t	t	n/a
336.453	0.12	672906	keystroke_s	s	n/a
336.558	0.03	673116	keystroke_Key.space	Key.space	n/a
336.663	0.12	673326	keystroke_p	p	n/a
336.768	0.075	673536	keystroke_o	o	n/a
336.858	0.09	673716	keystroke_w	w	n/a
336.873	0.12	673746	keystroke_e	e	n/a
337.038	0.06	674076	keystroke_l	l	n/a
337.173	0.0895	674346	keystroke_l	l	n/a
337.2475	0.105	674495	keystroke_Key.space	Key.space	n/a
337.5025	0.076	675005	keystroke_s	s	n/a
337.5635	0.09	675127	keystroke_i	i	n/a
338.088	0.105	676176	keystroke_n	n	n/a
338.343	0.12	676686	keystroke_g	g	n/a
338.478	0.09	676956	keystroke_h	h	n/a
338.538	0.12	677076	keystroke_Key.space	Key.space	n/a
338.928	0.075	677856	keystroke_t	t	n/a
338.973	0.12	677946	keystroke_e	e	n/a
339.1835	0.104	678367	keystroke_c	c	n/a
339.2435	0.059	678487	keystroke_h	h	n/a
339.4375	0.076	678875	keystroke_n	n	n/a
339.4525	0.09	678905	keystroke_i	i	n/a
339.4975	0.09	678995	keystroke_c	c	n/a
339.5275	0.12	679055	keystroke_a	a	n/a
339.6635	0.089	679327	keystroke_l	l	n/a
340.2025	0.09	680405	keystroke_Key.enter	Key.enter	n/a
340.298	8.1265	680596	prompt	n/a	downloading nike coverage rebecca\n
340.908	0.09	681816	keystroke_d	d	n/a
340.983	0.09	681966	keystroke_o	o	n/a
341.088	0.1045	682176	keystroke_w	w	n/a
341.133	0.0905	682266	keystroke_n	n	n/a
341.2825	0.06	682565	keystroke_l	l	n/a
341.4325	0.076	682865	keystroke_o	o	n/a
341.5525	0.076	683105	keystroke_a	a	n/a
341.5835	0.09	683167	keystroke_d	d	n/a
341.6425	0.105	683285	keystroke_i	i	n/a
341.7035	0.119	683407	keystroke_n	n	n/a
341.8085	0.089	683617	keystroke_g	g	n/a
341.8825	0.06	683765	keystroke_Key.space	Key.space	n/a
342.0925	0.075	684185	keystroke_n	n	n/a
342.2125	0.09	684425	keystroke_i	i	n/a
342.3775	0.091	684755	keystroke_k	k	n/a
342.4535	0.09	684907	keystroke_e	e	n/a
342.5275	0.09	685055	keystroke_Key.space	Key.space	n/a
342.888	0.075	685776	keystroke_c	c	n/a
342.978	0.075	685956	keystroke_o	o	n/a
343.068	0.0595	686136	keystroke_v	v	n/a
343.2175	0.106	686435	keystroke_e	e	n/a
343.2635	0.089	686527	keystroke_r	r	n/a
343.3825	0.105	686765	keystroke_a	a	n/a
343.4575	0.12	686915	keystroke_g	g	n/a
343.5175	0.106	687035	keystroke_e	e	n/a
343.5925	0.09	687185	keystroke_Key.space	Key.space	n/a
344.4185	0.059	688837	keystroke_b	b	n/a
344.4925	0.105	688985	keystroke_e	e	n/a
344.9125	0.09	689825	keystroke_c	c	n/a
345.1385	0.074	690277	keystroke_e	e	n/a
345.7825	0.075	691565	keystroke_Key.backspace	Key.backspace	n/a
346.0075	0.075	692015	keystroke_Key.backspace	Key.backspace	n/a
346.2175	0.09	692435	keystroke_Key.backspace	Key.backspace	n/a
346.4725	0.06	692945	keystroke_Key.backspace	Key.backspace	n/a
346.5925	0.121	693185	keystroke_r	r	n/a
346.6675	0.09	693335	keystroke_e	e	n/a
346.8625	0.075	693725	keystroke_b	b	n/a
347.0575	0.09	694115	keystroke_e	e	n/a
348.0475	0.015	696095	keystroke_c	c	n/a
348.1225	0.075	696245	keystroke_c	c	n/a
348.1525	0.12	696305	keystroke_a	a	n/a
348.303	0.1205	696606	keystroke_Key.enter	Key.enter	n/a
348.428	4.2415	696856	prompt	n/a	legends harbor netherlands fathers\n
349.1135	0.089	698227	keystroke_l	l	n/a
349.1885	0.044	698377	keystroke_e	e	n/a
349.2175	0.075	698435	keystroke_g	g	n/a
349.2475	0.1055	698495	keystroke_e	e	n/a
349.338	0.075	698676	keystroke_n	n	n/a
349.428	0.105	698856	keystroke_d	d	n/a
349.458	0.105	698916	keystroke_s	s	n/a
349.548	0.105	699096	keystroke_Key.space	Key.space	n/a
349.863	0.105	699726	keystroke_h	h	n/a
349.953	0.105	699906	keystroke_a	a	n/a
350.013	0.09	700026	keystroke_r	r	n/a
350.238	0.075	700476	keystroke_b	b	n/a
350.328	0.075	700656	keystroke_o	o	n/a
350.433	0.075	700866	keystroke_r	r	n/a
350.493	0.075	700986	keystroke_Key.space	Key.space	n/a
350.658	0.105	701316	keystroke_n	n	n/a
350.733	0.09	701466	keystroke_e	e	n/a
350.778	0.105	701556	keystroke_t	t	n/a
350.898	0.075	701796	keystroke_h	h	n/a
350.943	0.12	701886	keystroke_e	e	n/a
350.988	0.105	701976	keystroke_r	r	n/a
351.078	0.06	702156	keystroke_b	b	n/a
351.213	0.09	702426	keystroke_l	l	n/a
351.318	0.075	702636	keystroke_a	a	n/a
351.408	0.09	702816	keystroke_n	n	n/a
351.453	0.09	702906	keystroke_d	d	n/a
351.483	0.12	702966	keystroke_s	s	n/a
351.558	0.12	703116	keystroke_Key.space	Key.space	n/a
351.693	0.09	703386	keystroke_f	f	n/a
351.768	0.12	703536	keystroke_a	a	n/a
351.858	0.09	703716	keystroke_t	t	n/a
351.963	0.105	703926	keystroke_h	h	n/a
352.008	0.135	704016	keystroke_e	e	n/a
352.038	0.135	704076	keystroke_r	r	n/a
352.128	0.105	704256	keystroke_s	s	n/a
352.578	0.09	705156	keystroke_Key.enter	Key.enter	n/a
352.673	4.7665	705346	prompt	n/a	quantities noon clothes innovation\n
353.3585	0.015	706717	keystroke_q	q	n/a
353.4185	0.089	706837	keystroke_u	u	n/a
353.5535	0.09	707107	keystroke_a	a	n/a
353.6725	0.076	707345	keystroke_n	n	n/a
353.7925	0.09	707585	keystroke_t	t	n/a
353.8985	0.089	707797	keystroke_i	i	n/a
353.9885	0.089	707977	keystroke_t	t	n/a
354.0925	0.105	708185	keystroke_i	i	n/a
354.1375	0.135	708275	keystroke_e	e	n/a
354.1835	0.104	708367	keystroke_s	s	n/a
354.2575	0.075	708515	keystroke_Key.space	Key.space	n/a
354.3925	0.091	708785	keystroke_n	n	n/a
354.5425	0.075	709085	keystroke_o	o	n/a
354.6775	0.076	709355	keystroke_o	o	n/a
354.7975	0.09	709595	keystroke_n	n	n/a
354.8425	0.1055	709685	keystroke_Key.space	Key.space	n/a
354.993	0.12	709986	keystroke_c	c	n/a
355.053	0.075	710106	keystroke_l	l	n/a
355.188	0.075	710376	keystroke_o	o	n/a
355.263	0.075	710526	keystroke_t	t	n/a
355.338	0.09	710676	keystroke_h	h	n/a
355.398	0.135	710796	keystroke_e	e	n/a
355.4585	0.12	710917	keystroke_s	s	n/a
355.503	0.0905	711006	keystroke_Key.space	Key.space	n/a
355.698	0.0905	711396	keystroke_i	i	n/a
355.8335	0.075	711667	keystroke_n	n	n/a
355.968	0.1055	711936	keystroke_n	n	n/a
356.0435	0.105	712087	keystroke_o	o	n/a
356.1335	0.09	712267	keystroke_v	v	n/a
356.1935	0.18	712387	keystroke_a	a	n/a
356.3585	0.12	712717	keystroke_t	t	n/a
356.4485	0.075	712897	keystroke_i	i	n/a
356.4935	0.06	712987	keystroke_o	o	n/a
356.6435	0.06	713287	keystroke_n	n	n/a
357.3625	0.075	714725	keystroke_Key.enter	Key.enter	n/a
357.4435	8.127	714887	prompt	n/a	checking albania neighborhood litigation\n
358.128	0.06	716256	keystroke_c	c	n/a
358.203	0.105	716406	keystroke_h	h	n/a
358.293	0.135	716586	keystroke_e	e	n/a
358.353	0.135	716706	keystroke_c	c	n/a
358.413	0.06	716826	keystroke_k	k	n/a
358.533	0.105	717066	keystroke_i	i	n/a
358.593	0.12	717186	keystroke_n	n	n/a
358.623	0.105	717246	keystroke_g	g	n/a
358.743	0.105	717486	keystroke_Key.space	Key.space	n/a
358.908	0.0745	717816	keystroke_a	a	n/a
359.1025	0.09	718205	keystroke_l	l	n/a
359.2675	0.09	718535	keystroke_b	b	n/a
359.3275	0.0905	718655	keystroke_a	a	n/a
359.448	0.135	718896	keystroke_n	n	n/a
359.538	0.12	719076	keystroke_i	i	n/a
359.673	0.105	719346	keystroke_a	a	n/a
359.793	0.105	719586	keystroke_Key.space	Key.space	n/a
360.558	0.105	721116	keystroke_n	n	n/a
360.678	0.09	721356	keystroke_e	e	n/a
360.753	0.0905	721506	keystroke_i	i	n/a
360.8585	0.0745	721717	keystroke_g	g	n/a
360.9185	0.105	721837	keystroke_h	h	n/a
361.0385	0.075	722077	keystroke_t	t	n/a
361.1285	0.105	722257	keystroke_b	b	n/a
361.848	0.09	723696	keystroke_Key.backspace	Key.backspace	n/a
362.088	0.075	724176	keystroke_Key.backspace	Key.backspace	n/a
362.598	0.135	725196	keystroke_b	b	n/a
362.763	0.0595	725526	keystroke_o	o	n/a
362.8235	0.104	725647	keystroke_r	r	n/a
363.633	0.0605	727266	keystroke_h	h	n/a
363.768	0.06	727536	keystroke_o	o	n/a
363.9035	0.075	727807	keystroke_o	o	n/a
363.933	0.1055	727866	keystroke_d	d	n/a
364.023	0.1055	728046	keystroke_Key.space	Key.space	n/a
364.1285	0.1045	728257	keystroke_l	l	n/a
364.203	0.105	728406	keystroke_i	i	n/a
364.323	0.075	728646	keystroke_t	t	n/a
364.413	0.105	728826	keystroke_i	i	n/a
364.593	0.075	729186	keystroke_g	g	n/a
364.683	0.12	729366	keystroke_a	a	n/a
364.773	0.1055	729546	keystroke_t	t	n/a
364.8335	0.105	729667	keystroke_i	i	n/a
364.893	0.0605	729786	keystroke_o	o	n/a
365.0575	0.076	730115	keystroke_n	n	n/a
365.5225	0.045	731045	keystroke_Key.enter	Key.enter	n/a
365.5735	3.626	731147	prompt	n/a	plugins amber slides toward\n
366.1975	0.1205	732395	keystroke_p	p	n/a
366.288	0.12	732576	keystroke_l	l	n/a
366.528	0.12	733056	keystroke_u	u	n/a
366.633	0.075	733266	keystroke_g	g	n/a
366.723	0.105	733446	keystroke_i	i	n/a
366.798	0.12	733596	keystroke_n	n	n/a
366.903	0.09	733806	keystroke_s	s	n/a
366.978	0.09	733956	keystroke_Key.space	Key.space	n/a
367.2175	0.076	734435	keystroke_a	a	n/a
367.3085	0.09	734617	keystroke_m	m	n/a
367.4135	0.059	734827	keystroke_b	b	n/a
367.5475	0.135	735095	keystroke_e	e	n/a
367.6085	0.135	735217	keystroke_r	r	n/a
367.7275	0.09	735455	keystroke_Key.space	Key.space	n/a
368.0275	0.075	736055	keystroke_s	s	n/a
368.0725	0.1205	736145	keystroke_l	l	n/a
368.1625	0.09	736325	keystroke_i	i	n/a
368.2075	0.18	736415	keystroke_d	d	n/a
368.2675	0.15	736535	keystroke_e	e	n/a
368.3875	0.06	736775	keystroke_s	s	n/a
368.4025	0.12	736805	keystroke_Key.space	Key.space	n/a
