onset	duration	sample	value	key	prompt_text
21.343	0.4005	42686	keystroke	Key.cmd	n/a
21.584	0.1045	43168	keystroke	t	n/a
22.1075	0.105	44215	keystroke	f	n/a
22.618	0.12	45236	keystroke	m	n/a
22.836	0.097	45672	keystroke	.	n/a
23.743	0.1555	47486	keystroke	Key.enter	n/a
26.9525	0.3155	53905	keystroke	Key.ctrl	n/a
26.983	0.3145	53966	keystroke	Key.shift	n/a
27.1175	0.121	54235	keystroke	Key.tab	n/a
42.962	0.1005	85924	keystroke	m	n/a
43.0325	0.105	86065	keystroke	i	n/a
43.1525	0.0895	86305	keystroke	n	n/a
43.26	0.0875	86520	keystroke	g	n/a
43.4265	0.1025	86853	keystroke	r	n/a
43.4975	0.105	86995	keystroke	u	n/a
43.5425	0.105	87085	keystroke	i	n/a
56.0375	0.3165	112075	keystroke	Key.cmd	n/a
56.2175	0.09	112435	keystroke	c	n/a
56.5925	0.21	113185	keystroke	Key.ctrl	n/a
56.6975	0.096	113395	keystroke	Key.tab	n/a
57.4325	0.21	114865	keystroke	Key.cmd	n/a
57.493	0.0905	114986	keystroke	v	n/a
79.863	9.9415	159726	prompt	n/a	the quick brown fox jumps over a lazy dog\n
83.2925	0.105	166585	keystroke	t	n/a
83.39	0.0675	166780	keystroke	h	n/a
83.503	0.1345	167006	keystroke	e	n/a
83.593	0.1045	167186	keystroke	Key.space	n/a
83.789	0.074	167578	keystroke	q	n/a
83.9225	0.1505	167845	keystroke	u	n/a
84.013	0.12	168026	keystroke	i	n/a
84.133	0.1045	168266	keystroke	c	n/a
84.298	0.12	168596	keystroke	k	n/a
84.403	0.1045	168806	keystroke	Key.space	n/a
84.7025	0.0605	169405	keystroke	b	n/a
84.898	0.075	169796	keystroke	r	n/a
85.003	0.1075	170006	keystroke	o	n/a
85.1225	0.0905	170245	keystroke	w	n/a
85.244	0.089	170488	keystroke	n	n/a
85.378	0.105	170756	keystroke	Key.space	n/a
85.783	0.091	171566	keystroke	f	n/a
85.948	0.0915	171896	keystroke	o	n/a
86.0525	0.091	172105	keystroke	x	n/a
86.218	0.1045	172436	keystroke	Key.space	n/a
86.443	0.075	172886	keystroke	j	n/a
86.608	0.075	173216	keystroke	u	n/a
86.803	0.1495	173606	keystroke	m	n/a
86.908	0.105	173816	keystroke	p	n/a
87.043	0.135	174086	keystroke	s	n/a
87.163	0.12	174326	keystroke	Key.space	n/a
87.5525	0.08	175105	keystroke	o	n/a
87.613	0.105	175226	keystroke	v	n/a
87.8225	0.108	175645	keystroke	e	n/a
87.913	0.1345	175826	keystroke	r	n/a
88.003	0.105	176006	keystroke	Key.space	n/a
88.183	0.105	176366	keystroke	a	n/a
88.318	0.1195	176636	keystroke	Key.space	n/a
88.573	0.105	177146	keystroke	l	n/a
88.663	0.0895	177326	keystroke	a	n/a
88.858	0.075	177716	keystroke	z	n/a
88.963	0.1045	177926	keystroke	y	n/a
89.083	0.1075	178166	keystroke	Key.space	n/a
89.203	0.09	178406	keystroke	d	n/a
89.383	0.077	178766	keystroke	o	n/a
89.473	0.06	178946	keystroke	g	n/a
89.7425	0.0605	179485	keystroke	Key.enter	n/a
89.8075	6.131	179615	prompt	n/a	matched andy massive mighty\n
90.793	0.063	181586	keystroke	m	n/a
90.8225	0.12	181645	keystroke	a	n/a
91.003	0.0815	182006	keystroke	t	n/a
91.2125	0.0605	182425	keystroke	c	n/a
91.333	0.075	182666	keystroke	h	n/a
91.4225	0.0605	182845	keystroke	e	n/a
91.6025	0.0605	183205	keystroke	d	n/a
91.7115	0.1015	183423	keystroke	Key.space	n/a
91.843	0.09	183686	keystroke	a	n/a
91.9625	0.06	183925	keystroke	n	n/a
92.1745	0.0735	184349	keystroke	y	n/a
92.893	0.0595	185786	keystroke	Key.backspace	n/a
93.073	0.06	186146	keystroke	d	n/a
93.148	0.09	186296	keystroke	y	n/a
93.298	0.105	186596	keystroke	Key.space	n/a
93.613	0.09	187226	keystroke	m	n/a
93.688	0.09	187376	keystroke	a	n/a
93.8525	0.09	187705	keystroke	s	n/a
94.003	0.09	188006	keystroke	s	n/a
94.108	0.09	188216	keystroke	i	n/a
94.2125	0.0755	188425	keystroke	v	n/a
94.378	0.0745	188756	keystroke	e	n/a
94.4375	0.1205	188875	keystroke	Key.space	n/a
94.708	0.105	189416	keystroke	m	n/a
94.828	0.12	189656	keystroke	i	n/a
94.9945	0.0885	189989	keystroke	g	n/a
95.173	0.06	190346	keystroke	h	n/a
95.218	0.06	190436	keystroke	t	n/a
95.848	0.0895	191696	keystroke	Key.enter	n/a
95.9415	5.412	191883	prompt	n/a	parallel crown nike unto\n
96.778	0.0895	193556	keystroke	p	n/a
96.8525	0.12	193705	keystroke	a	n/a
97.063	0.0895	194126	keystroke	r	n/a
97.183	0.09	194366	keystroke	a	n/a
97.4375	0.0905	194875	keystroke	l	n/a
97.603	0.105	195206	keystroke	l	n/a
97.738	0.075	195476	keystroke	e	n/a
97.903	0.105	195806	keystroke	l	n/a
98.0525	0.1055	196105	keystroke	Key.space	n/a
98.3225	0.0605	196645	keystroke	c	n/a
98.533	0.0895	197066	keystroke	r	n/a
98.743	0.09	197486	keystroke	o	n/a
98.848	0.1045	197696	keystroke	w	n/a
99.088	0.06	198176	keystroke	n	n/a
99.388	0.105	198776	keystroke	Key.space	n/a
99.763	0.107	199526	keystroke	n	n/a
99.8375	0.105	199675	keystroke	i	n/a
100.078	0.1045	200156	keystroke	k	n/a
100.201	0.117	200402	keystroke	e	n/a
100.2885	0.134	200577	keystroke	Key.space	n/a
100.513	0.09	201026	keystroke	u	n/a
100.693	0.1095	201386	keystroke	n	n/a
100.8355	0.0825	201671	keystroke	t	n/a
100.948	0.0895	201896	keystroke	o	n/a
101.266	0.0865	202532	keystroke	Key.enter	n/a
101.3565	5.1475	202713	prompt	n/a	thats final cities plains\n
102.4325	0.0455	204865	keystroke	t	n/a
102.493	0.015	204986	keystroke	h	n/a
102.5225	0.1055	205045	keystroke	a	n/a
102.613	0.12	205226	keystroke	t	n/a
102.703	0.105	205406	keystroke	Key.space	n/a
102.913	0.0745	205826	keystroke	f	n/a
103.048	0.105	206096	keystroke	i	n/a
103.228	0.075	206456	keystroke	n	n/a
103.318	0.09	206636	keystroke	a	n/a
103.4375	0.0905	206875	keystroke	l	n/a
103.513	0.105	207026	keystroke	Key.space	n/a
103.7375	0.105	207475	keystroke	c	n/a
103.8425	0.0905	207685	keystroke	i	n/a
104.008	0.078	208016	keystroke	t	n/a
104.128	0.075	208256	keystroke	i	n/a
104.3525	0.096	208705	keystroke	e	n/a
104.6375	0.1205	209275	keystroke	s	n/a
104.747	0.135	209494	keystroke	Key.space	n/a
105.2675	0.0905	210535	keystroke	p	n/a
105.478	0.105	210956	keystroke	l	n/a
105.5675	0.105	211135	keystroke	a	n/a
105.718	0.1195	211436	keystroke	i	n/a
105.8825	0.1215	211765	keystroke	n	n/a
106.1525	0.1055	212305	keystroke	s	n/a
106.408	0.0905	212816	keystroke	Key.enter	n/a
106.507	6.1865	213014	prompt	n/a	renewal fish snowboard vertex\n
107.43	0.118	214860	keystroke	r	n/a
107.488	0.1045	214976	keystroke	e	n/a
107.6675	0.1055	215335	keystroke	n	n/a
107.7575	0.18	215515	keystroke	e	n/a
107.833	0.15	215666	keystroke	w	n/a
108.193	0.1045	216386	keystroke	a	n/a
108.343	0.09	216686	keystroke	l	n/a
108.508	0.09	217016	keystroke	Key.space	n/a
108.703	0.09	217406	keystroke	f	n/a
108.808	0.105	217616	keystroke	i	n/a
108.928	0.12	217856	keystroke	s	n/a
109.0785	0.082	218157	keystroke	h	n/a
109.183	0.12	218366	keystroke	Key.space	n/a
109.408	0.1045	218816	keystroke	s	n/a
109.5275	0.1505	219055	keystroke	n	n/a
109.6325	0.1355	219265	keystroke	o	n/a
109.955	0.1125	219910	keystroke	w	n/a
110.308	0.0595	220616	keystroke	b	n/a
110.4885	0.105	220977	keystroke	o	n/a
110.6525	0.1505	221305	keystroke	a	n/a
110.728	0.18	221456	keystroke	r	n/a
110.9225	0.0755	221845	keystroke	d	n/a
111.103	0.1195	222206	keystroke	Key.space	n/a
111.3885	0.0895	222777	keystroke	v	n/a
111.523	0.1205	223046	keystroke	e	n/a
111.718	0.1045	223436	keystroke	r	n/a
111.974	0.0735	223948	keystroke	t	n/a
112.1225	0.0755	224245	keystroke	e	n/a
112.3625	0.09	224725	keystroke	x	n/a
112.618	0.0745	225236	keystroke	Key.enter	n/a
112.6965	8.053	225393	prompt	n/a	headed reserved bryant payment\n
113.6985	0.0895	227397	keystroke	h	n/a
113.7725	0.0755	227545	keystroke	e	n/a
113.803	0.1345	227606	keystroke	a	n/a
114.013	0.12	228026	keystroke	d	n/a
114.2375	0.0455	228475	keystroke	e	n/a
114.403	0.0925	228806	keystroke	d	n/a
114.4955	0.117	228991	keystroke	Key.space	n/a
114.66	0.118	229320	keystroke	r	n/a
114.733	0.0895	229466	keystroke	e	n/a
115.093	0.15	230186	keystroke	s	n/a
115.153	0.1375	230306	keystroke	e	n/a
115.183	0.15	230366	keystroke	r	n/a
115.498	0.075	230996	keystroke	v	n/a
115.633	0.0895	231266	keystroke	e	n/a
115.843	0.105	231686	keystroke	d	n/a
115.963	0.0905	231926	keystroke	Key.space	n/a
116.143	0.06	232286	keystroke	b	n/a
116.3375	0.1055	232675	keystroke	r	n/a
116.5625	0.121	233125	keystroke	y	n/a
116.9525	0.0755	233905	keystroke	a	n/a
117.073	0.09	234146	keystroke	n	n/a
117.314	0.104	234628	keystroke	t	n/a
117.433	0.1195	234866	keystroke	Key.space	n/a
119.339	0.104	238678	keystroke	p	n/a
119.4585	0.0895	238917	keystroke	a	n/a
119.563	0.0895	239126	keystroke	y	n/a
119.803	0.1195	239606	keystroke	m	n/a
119.893	0.075	239786	keystroke	e	n/a
120.028	0.09	240056	keystroke	n	n/a
120.103	0.075	240206	keystroke	t	n/a
120.673	0.075	241346	keystroke	Key.enter	n/a
120.7545	8.905	241509	prompt	n/a	priest professional comfort answer\n
124.0335	0.0745	248067	keystroke	p	n/a
124.1525	0.1505	248305	keystroke	r	n/a
124.333	0.15	248666	keystroke	i	n/a
124.5875	0.093	249175	keystroke	e	n/a
125.013	0.1	250026	keystroke	s	n/a
125.1465	0.1165	250293	keystroke	t	n/a
125.293	0.105	250586	keystroke	Key.space	n/a
125.593	0.075	251186	keystroke	p	n/a
125.683	0.09	251366	keystroke	r	n/a
125.788	0.105	251576	keystroke	o	n/a
125.97	0.118	251940	keystroke	f	n/a
126.104	0.104	252208	keystroke	e	n/a
126.328	0.06	252656	keystroke	s	n/a
126.463	0.075	252926	keystroke	s	n/a
126.5525	0.1355	253105	keystroke	i	n/a
126.613	0.1205	253226	keystroke	o	n/a
126.703	0.1195	253406	keystroke	n	n/a
126.8985	0.089	253797	keystroke	a	n/a
127.0645	0.088	254129	keystroke	l	n/a
127.1675	0.1205	254335	keystroke	Key.space	n/a
127.513	0.12	255026	keystroke	c	n/a
127.573	0.1795	255146	keystroke	o	n/a
127.708	0.152	255416	keystroke	m	n/a
127.978	0.105	255956	keystroke	f	n/a
128.1125	0.121	256225	keystroke	o	n/a
128.218	0.106	256436	keystroke	r	n/a
128.443	0.105	256886	keystroke	t	n/a
128.563	0.12	257126	keystroke	Key.space	n/a
128.743	0.105	257486	keystroke	a	n/a
128.863	0.0745	257726	keystroke	n	n/a
128.983	0.1055	257966	keystroke	s	n/a
129.208	0.09	258416	keystroke	w	n/a
129.259	0.114	258518	keystroke	e	n/a
129.313	0.135	258626	keystroke	r	n/a
129.568	0.09	259136	keystroke	Key.enter	n/a
129.6625	12.897	259325	prompt	n/a	watson supporters attitudes learners\n
132.148	0.15	264296	keystroke	w	n/a
132.238	0.1955	264476	keystroke	a	n/a
132.4035	0.1195	264807	keystroke	s	n/a
132.673	0.15	265346	keystroke	t	n/a
132.958	0.135	265916	keystroke	o	n/a
133.078	0.1045	266156	keystroke	n	n/a
133.3335	0.1495	266667	keystroke	Key.space	n/a
134.188	0.06	268376	keystroke	Key.backspace	n/a
134.353	0.0755	268706	keystroke	Key.backspace	n/a
134.518	0.06	269036	keystroke	Key.backspace	n/a
134.683	0.0755	269366	keystroke	Key.backspace	n/a
134.893	0.0595	269786	keystroke	Key.backspace	n/a
135.118	0.1045	270236	keystroke	t	n/a
135.238	0.105	270476	keystroke	s	n/a
135.373	0.105	270746	keystroke	o	n/a
135.422	0.1155	270844	keystroke	n	n/a
135.5555	0.1025	271111	keystroke	Key.space	n/a
136.1375	0.1055	272275	keystroke	s	n/a
136.2885	0.1045	272577	keystroke	u	n/a
136.498	0.1055	272996	keystroke	p	n/a
136.678	0.15	273356	keystroke	p	n/a
136.783	0.135	273566	keystroke	o	n/a
136.843	0.12	273686	keystroke	r	n/a
137.083	0.105	274166	keystroke	t	n/a
138.2525	0.1215	276505	keystroke	e	n/a
138.328	0.105	276656	keystroke	r	n/a
138.541	0.1025	277082	keystroke	s	n/a
138.658	0.12	277316	keystroke	Key.space	n/a
139.438	0.12	278876	keystroke	a	n/a
139.603	0.075	279206	keystroke	t	n/a
139.768	0.09	279536	keystroke	t	n/a
139.8725	0.1055	279745	keystroke	i	n/a
140.068	0.09	280136	keystroke	t	n/a
140.218	0.105	280436	keystroke	u	n/a
140.7285	0.06	281457	keystroke	d	n/a
140.9085	0.0595	281817	keystroke	e	n/a
141.0285	0.09	282057	keystroke	s	n/a
141.1785	0.105	282357	keystroke	Key.space	n/a
141.4485	0.1195	282897	keystroke	l	n/a
141.538	0.1235	283076	keystroke	e	n/a
141.629	0.1345	283258	keystroke	a	n/a
141.6435	0.105	283287	keystroke	r	n/a
141.823	0.106	283646	keystroke	n	n/a
141.973	0.12	283946	keystroke	e	n/a
142.0485	0.119	284097	keystroke	r	n/a
142.2435	0.1045	284487	keystroke	s	n/a
142.4905	0.068	284981	keystroke	Key.enter	n/a
142.562	12.3575	285124	prompt	n/a	suggests miss synthetic variable\n
143.4875	0.0755	286975	keystroke	s	n/a
143.638	0.076	287276	keystroke	u	n/a
143.7585	0.0595	287517	keystroke	g	n/a
143.908	0.09	287816	keystroke	g	n/a
144.013	0.27	288026	keystroke	e	n/a
144.088	0.18	288176	keystroke	s	n/a
144.2835	0.065	288567	keystroke	t	n/a
144.418	0.12	288836	keystroke	s	n/a
144.568	0.09	289136	keystroke	Key.space	n/a
144.7635	0.1195	289527	keystroke	m	n/a
144.823	0.105	289646	keystroke	i	n/a
144.944	0.074	289888	keystroke	s	n/a
145.1095	0.1035	290219	keystroke	s	n/a
145.288	0.105	290576	keystroke	Key.space	n/a
145.453	0.12	290906	keystroke	s	n/a
145.6635	0.0895	291327	keystroke	y	n/a
145.8735	0.1045	291747	keystroke	n	n/a
146.053	0.09	292106	keystroke	t	n/a
146.1885	0.078	292377	keystroke	h	n/a
146.278	0.09	292556	keystroke	e	n/a
146.5035	0.0145	293007	keystroke	s	n/a
146.638	0.1205	293276	keystroke	t	n/a
146.8185	0.09	293637	keystroke	i	n/a
147.0305	0.073	294061	keystroke	c	n/a
149.068	0.075	298136	keystroke	Key.backspace	n/a
149.2515	0.057	298503	keystroke	Key.backspace	n/a
149.4285	0.06	298857	keystroke	Key.backspace	n/a
152.4885	0.06	304977	keystroke	Key.backspace	n/a
152.608	0.0925	305216	keystroke	t	n/a
152.728	0.0755	305456	keystroke	i	n/a
152.8485	0.0895	305697	keystroke	c	n/a
153.043	0.0905	306086	keystroke	Key.space	n/a
153.508	0.1215	307016	keystroke	v	n/a
153.6135	0.1045	307227	keystroke	a	n/a
153.8985	0.105	307797	keystroke	r	n/a
154.0335	0.1045	308067	keystroke	i	n/a
154.153	0.0755	308306	keystroke	a	n/a
154.348	0.06	308696	keystroke	b	n/a
154.513	0.105	309026	keystroke	l	n/a
154.603	0.06	309206	keystroke	e	n/a
154.843	0.0755	309686	keystroke	Key.enter	n/a
154.9225	7.8305	309845	prompt	n/a	toronto intellectual towns stone\n
156.452	0.101	312904	keystroke	t	n/a
156.568	0.0905	313136	keystroke	o	n/a
156.7505	0.0875	313501	keystroke	r	n/a
156.853	0.165	313706	keystroke	o	n/a
157.0035	0.0895	314007	keystroke	n	n/a
157.1985	0.075	314397	keystroke	t	n/a
157.3185	0.1195	314637	keystroke	o	n/a
157.423	0.091	314846	keystroke	Key.space	n/a
157.603	0.11	315206	keystroke	i	n/a
157.693	0.075	315386	keystroke	n	n/a
157.828	0.12	315656	keystroke	t	n/a
157.9035	0.1195	315807	keystroke	e	n/a
158.1885	0.091	316377	keystroke	l	n/a
158.3835	0.096	316767	keystroke	l	n/a
158.512	0.0815	317024	keystroke	e	n/a
158.7585	0.078	317517	keystroke	c	n/a
158.938	0.0905	317876	keystroke	t	n/a
159.4935	0.12	318987	keystroke	u	n/a
159.6585	0.09	319317	keystroke	a	n/a
159.823	0.107	319646	keystroke	l	n/a
159.93	0.118	319860	keystroke	Key.space	n/a
160.2885	0.0755	320577	keystroke	t	n/a
160.3945	0.119	320789	keystroke	o	n/a
160.4985	0.105	320997	keystroke	w	n/a
160.723	0.0905	321446	keystroke	n	n/a
160.9935	0.105	321987	keystroke	s	n/a
161.1285	0.12	322257	keystroke	Key.space	n/a
161.9085	0.105	323817	keystroke	s	n/a
162.0435	0.09	324087	keystroke	t	n/a
162.1785	0.1345	324357	keystroke	o	n/a
162.253	0.12	324506	keystroke	n	n/a
162.3885	0.075	324777	keystroke	e	n/a
162.6585	0.093	325317	keystroke	Key.enter	n/a
162.7565	5.7235	325513	prompt	n/a	joined possession freely mountain\n
163.5455	0.148	327091	keystroke	j	n/a
163.6185	0.18	327237	keystroke	o	n/a
163.753	0.15	327506	keystroke	i	n/a
163.8735	0.12	327747	keystroke	n	n/a
164.0095	0.074	328019	keystroke	e	n/a
164.2035	0.0895	328407	keystroke	d	n/a
164.3085	0.09	328617	keystroke	Key.space	n/a
164.4585	0.12	328917	keystroke	p	n/a
164.5035	0.1495	329007	keystroke	o	n/a
164.683	0.0455	329366	keystroke	s	n/a
164.8335	0.0895	329667	keystroke	s	n/a
165.013	0.0945	330026	keystroke	e	n/a
165.193	0.0905	330386	keystroke	s	n/a
165.3885	0.09	330777	keystroke	s	n/a
165.523	0.1205	331046	keystroke	i	n/a
165.541	0.1475	331082	keystroke	o	n/a
165.6285	0.12	331257	keystroke	n	n/a
165.763	0.076	331526	keystroke	Key.space	n/a
165.9045	0.084	331809	keystroke	f	n/a
166.0935	0.12	332187	keystroke	r	n/a
166.17	0.1035	332340	keystroke	e	n/a
166.3485	0.0895	332697	keystroke	e	n/a
166.5735	0.105	333147	keystroke	l	n/a
166.679	0.1345	333358	keystroke	y	n/a
166.8585	0.09	333717	keystroke	Key.space	n/a
167.0835	0.09	334167	keystroke	m	n/a
167.161	0.1475	334322	keystroke	o	n/a
167.2935	0.075	334587	keystroke	u	n/a
167.4735	0.09	334947	keystroke	n	n/a
167.791	0.0875	335582	keystroke	t	n/a
167.9085	0.09	335817	keystroke	a	n/a
168.0135	0.12	336027	keystroke	i	n/a
168.118	0.0755	336236	keystroke	n	n/a
168.4035	0.075	336807	keystroke	Key.enter	n/a
168.483	6.416	336966	prompt	n/a	types design arrange where're\n
169.2585	0.03	338517	keystroke	j	n/a
169.5435	0.06	339087	keystroke	Key.backspace	n/a
169.723	0.0755	339446	keystroke	t	n/a
169.768	0.1505	339536	keystroke	y	n/a
169.9635	0.0895	339927	keystroke	p	n/a
170.0835	0.15	340167	keystroke	e	n/a
170.2635	0.135	340527	keystroke	s	n/a
170.3685	0.135	340737	keystroke	Key.space	n/a
170.775	0.0735	341550	keystroke	d	n/a
170.953	0.09	341906	keystroke	e	n/a
171.073	0.1055	342146	keystroke	s	n/a
171.253	0.1205	342506	keystroke	i	n/a
171.4045	0.089	342809	keystroke	g	n/a
171.613	0.0755	343226	keystroke	n	n/a
171.7935	0.09	343587	keystroke	Key.space	n/a
172.5135	0.09	345027	keystroke	a	n/a
172.6485	0.0895	345297	keystroke	r	n/a
172.8135	0.105	345627	keystroke	r	n/a
172.888	0.135	345776	keystroke	a	n/a
173.038	0.1055	346076	keystroke	n	n/a
173.1735	0.135	346347	keystroke	g	n/a
173.2485	0.15	346497	keystroke	e	n/a
173.3835	0.1195	346767	keystroke	Key.space	n/a
173.5485	0.1045	347097	keystroke	w	n/a
173.6835	0.09	347367	keystroke	h	n/a
173.7885	0.12	347577	keystroke	e	n/a
173.8635	0.15	347727	keystroke	r	n/a
173.9985	0.0935	347997	keystroke	e	n/a
174.1635	0.1045	348327	keystroke	'	n/a
174.3285	0.135	348657	keystroke	r	n/a
174.4035	0.105	348807	keystroke	e	n/a
174.778	0.12	349556	keystroke	Key.enter	n/a
174.9025	8.9665	349805	prompt	n/a	editorials advertising engineering graduation\n
175.8885	0.075	351777	keystroke	e	n/a
176.233	0.0755	352466	keystroke	d	n/a
176.4135	0.0745	352827	keystroke	i	n/a
176.6085	0.0595	353217	keystroke	t	n/a
176.7445	0.089	353489	keystroke	o	n/a
176.8785	0.0745	353757	keystroke	r	n/a
177.0285	0.0895	354057	keystroke	i	n/a
177.209	0.1045	354418	keystroke	a	n/a
177.375	0.1035	354750	keystroke	l	n/a
177.5405	0.1175	355081	keystroke	s	n/a
177.674	0.134	355348	keystroke	Key.space	n/a
177.928	0.105	355856	keystroke	a	n/a
178.048	0.105	356096	keystroke	d	n/a
178.3425	0.0805	356685	keystroke	v	n/a
178.5885	0.075	357177	keystroke	e	n/a
178.648	0.105	357296	keystroke	r	n/a
178.873	0.0755	357746	keystroke	t	n/a
178.9935	0.11	357987	keystroke	i	n/a
179.1435	0.0745	358287	keystroke	s	n/a
179.248	0.09	358496	keystroke	i	n/a
179.4355	0.083	358871	keystroke	n	n/a
179.5035	0.1645	359007	keystroke	g	n/a
179.5935	0.141	359187	keystroke	Key.space	n/a
179.8035	0.1045	359607	keystroke	e	n/a
179.923	0.11	359846	keystroke	n	n/a
180.119	0.1045	360238	keystroke	g	n/a
180.2685	0.075	360537	keystroke	i	n/a
180.4935	0.0745	360987	keystroke	n	n/a
180.6285	0.105	361257	keystroke	e	n/a
180.838	0.0755	361676	keystroke	e	n/a
180.989	0.1195	361978	keystroke	r	n/a
181.2435	0.105	362487	keystroke	i	n/a
181.3185	0.09	362637	keystroke	n	n/a
181.454	0.075	362908	keystroke	g	n/a
181.6485	0.1045	363297	keystroke	Key.space	n/a
182.0535	0.075	364107	keystroke	g	n/a
182.2515	0.0865	364503	keystroke	r	n/a
182.323	0.1205	364646	keystroke	a	n/a
182.5785	0.0895	365157	keystroke	d	n/a
182.7435	0.105	365487	keystroke	u	n/a
182.953	0.093	365906	keystroke	a	n/a
183.1185	0.09	366237	keystroke	t	n/a
183.238	0.1655	366476	keystroke	i	n/a
183.346	0.1025	366692	keystroke	o	n/a
183.3885	0.105	366777	keystroke	n	n/a
183.793	0.075	367586	keystroke	Key.enter	n/a
183.872	10.1675	367744	prompt	n/a	students types recruiting aids\n
184.6485	0.1045	369297	keystroke	s	n/a
184.7835	0.12	369567	keystroke	t	n/a
184.9935	0.076	369987	keystroke	u	n/a
185.083	0.0905	370166	keystroke	d	n/a
185.2785	0.0595	370557	keystroke	e	n/a
185.4285	0.075	370857	keystroke	n	n/a
185.5485	0.0895	371097	keystroke	t	n/a
185.683	0.1355	371366	keystroke	s	n/a
185.8035	0.1055	371607	keystroke	Key.space	n/a
186.031	0.0725	372062	keystroke	t	n/a
186.104	0.134	372208	keystroke	y	n/a
186.2085	0.1045	372417	keystroke	p	n/a
186.2835	0.165	372567	keystroke	e	n/a
186.4335	0.1345	372867	keystroke	s	n/a
186.5535	0.1205	373107	keystroke	Key.space	n/a
186.823	0.1365	373646	keystroke	r	n/a
186.8985	0.1055	373797	keystroke	e	n/a
187.168	0.0755	374336	keystroke	c	n/a
187.2595	0.014	374519	keystroke	c	n/a
187.3485	0.105	374697	keystroke	r	n/a
187.5585	0.15	375117	keystroke	u	n/a
187.6485	0.1065	375297	keystroke	i	n/a
187.7835	0.09	375567	keystroke	t	n/a
187.904	0.104	375808	keystroke	i	n/a
187.9785	0.0895	375957	keystroke	n	n/a
188.0835	0.1365	376167	keystroke	g	n/a
188.1585	0.12	376317	keystroke	Key.space	n/a
188.323	0.1055	376646	keystroke	a	n/a
188.5185	0.09	377037	keystroke	i	n/a
188.6535	0.12	377307	keystroke	d	n/a
188.7135	0.15	377427	keystroke	s	n/a
191.5405	0.1005	383081	keystroke	Key.backspace	n/a
191.758	0.0775	383516	keystroke	Key.backspace	n/a
192.0005	0.103	384001	keystroke	r	n/a
192.1185	0.1495	384237	keystroke	u	n/a
192.1935	0.0905	384387	keystroke	i	n/a
192.358	0.0755	384716	keystroke	t	n/a
192.467	0.1165	384934	keystroke	i	n/a
192.553	0.1205	385106	keystroke	n	n/a
192.688	0.1205	385376	keystroke	g	n/a
192.7635	0.12	385527	keystroke	Key.space	n/a
193.0335	0.0895	386067	keystroke	a	n/a
193.333	0.09	386666	keystroke	i	n/a
193.4985	0.105	386997	keystroke	d	n/a
193.738	0.1055	387476	keystroke	s	n/a
193.9635	0.075	387927	keystroke	Key.enter	n/a
194.044	6.0705	388088	prompt	n/a	mate selective official vast\n
195.153	0.0555	390306	keystroke	m	n/a
195.223	0.1205	390446	keystroke	a	n/a
195.3285	0.1215	390657	keystroke	t	n/a
195.4035	0.105	390807	keystroke	e	n/a
195.5845	0.089	391169	keystroke	Key.space	n/a
195.7035	0.1345	391407	keystroke	s	n/a
195.7815	0.102	391563	keystroke	e	n/a
195.928	0.1205	391856	keystroke	l	n/a
196.0635	0.0745	392127	keystroke	e	n/a
196.3035	0.0905	392607	keystroke	c	n/a
196.378	0.1055	392756	keystroke	t	n/a
196.6485	0.1195	393297	keystroke	i	n/a
197.0835	0.0905	394167	keystroke	v	n/a
197.1885	0.12	394377	keystroke	e	n/a
197.323	0.121	394646	keystroke	Key.space	n/a
198.1785	0.0745	396357	keystroke	o	n/a
198.284	0.0895	396568	keystroke	f	n/a
198.4785	0.0745	396957	keystroke	f	n/a
198.6135	0.09	397227	keystroke	i	n/a
198.6885	0.09	397377	keystroke	c	n/a
198.838	0.091	397676	keystroke	i	n/a
198.9435	0.09	397887	keystroke	a	n/a
199.0785	0.0905	398157	keystroke	l	n/a
199.1985	0.06	398397	keystroke	Key.space	n/a
199.3635	0.0895	398727	keystroke	v	n/a
199.468	0.0905	398936	keystroke	a	n/a
199.695	0.103	399390	keystroke	s	n/a
199.7835	0.105	399567	keystroke	t	n/a
200.053	0.0605	400106	keystroke	Key.enter	n/a
200.117	10.5575	400234	prompt	n/a	chronicles powerseller syndication who'd've\n
201.1785	0.18	402357	keystroke	c	n/a
201.3735	0.015	402747	keystroke	h	n/a
201.4335	0.12	402867	keystroke	r	n/a
201.5535	0.1045	403107	keystroke	o	n/a
202.438	0.1655	404876	keystroke	n	n/a
202.5885	0.1345	405177	keystroke	i	n/a
203.038	0.0755	406076	keystroke	c	n/a
203.1585	0.09	406317	keystroke	l	n/a
203.2785	0.135	406557	keystroke	e	n/a
203.414	0.1045	406828	keystroke	s	n/a
203.623	0.1055	407246	keystroke	Key.space	n/a
203.9835	0.105	407967	keystroke	p	n/a
204.0435	0.135	408087	keystroke	o	n/a
204.1635	0.1195	408327	keystroke	w	n/a
204.1935	0.15	408387	keystroke	e	n/a
204.2985	0.106	408597	keystroke	r	n/a
205.0035	0.1645	410007	keystroke	s	n/a
205.1535	0.105	410307	keystroke	e	n/a
205.438	0.0755	410876	keystroke	l	n/a
205.6355	0.073	411271	keystroke	l	n/a
205.753	0.1055	411506	keystroke	e	n/a
205.9035	0.105	411807	keystroke	r	n/a
206.038	0.1205	412076	keystroke	Key.space	n/a
206.338	0.093	412676	keystroke	s	n/a
206.4735	0.105	412947	keystroke	y	n/a
206.7285	0.09	413457	keystroke	n	n/a
206.9085	0.075	413817	keystroke	d	n/a
206.9985	0.092	413997	keystroke	i	n/a
207.1335	0.09	414267	keystroke	c	n/a
207.238	0.1055	414476	keystroke	a	n/a
207.3735	0.06	414747	keystroke	t	n/a
207.4485	0.1345	414897	keystroke	i	n/a
207.4935	0.12	414987	keystroke	o	n/a
207.5535	0.12	415107	keystroke	n	n/a
207.6585	0.09	415317	keystroke	Key.space	n/a
207.7635	0.105	415527	keystroke	w	n/a
207.974	0.1345	415948	keystroke	h	n/a
208.048	0.137	416096	keystroke	o	n/a
208.6035	0.1045	417207	keystroke	'	n/a
208.7385	0.0765	417477	keystroke	d	n/a
209.914	0.0995	419828	keystroke	'	n/a
210.0135	0.12	420027	keystroke	v	n/a
210.283	0.0755	420566	keystroke	e	n/a
210.584	0.0895	421168	keystroke	Key.enter	n/a
210.6775	7.0325	421355	prompt	n/a	modem license minister researchers\n
211.664	0.1645	423328	keystroke	m	n/a
211.753	0.1205	423506	keystroke	o	n/a
211.888	0.091	423776	keystroke	d	n/a
212.5035	0.0925	425007	keystroke	e	n/a
212.6535	0.1085	425307	keystroke	m	n/a
212.8035	0.1055	425607	keystroke	Key.space	n/a
213.0285	0.1355	426057	keystroke	l	n/a
213.0735	0.1355	426147	keystroke	i	n/a
213.4935	0.0755	426987	keystroke	c	n/a
213.7035	0.06	427407	keystroke	e	n/a
213.8575	0.0865	427715	keystroke	n	n/a
214.049	0.1495	428098	keystroke	s	n/a
214.2135	0.09	428427	keystroke	e	n/a
214.3335	0.12	428667	keystroke	Key.space	n/a
214.6485	0.1365	429297	keystroke	m	n/a
214.7235	0.0905	429447	keystroke	i	n/a
214.9505	0.133	429901	keystroke	n	n/a
215.0385	0.105	430077	keystroke	i	n/a
215.249	0.1045	430498	keystroke	s	n/a
215.415	0.104	430830	keystroke	t	n/a
215.609	0.119	431218	keystroke	e	n/a
215.714	0.1355	431428	keystroke	r	n/a
215.8195	0.104	431639	keystroke	Key.space	n/a
216.0465	0.102	432093	keystroke	r	n/a
216.104	0.107	432208	keystroke	e	n/a
216.344	0.2095	432688	keystroke	s	n/a
216.404	0.1645	432808	keystroke	e	n/a
216.51	0.1035	433020	keystroke	a	n/a
216.51	0.134	433020	keystroke	r	n/a
216.809	0.09	433618	keystroke	c	n/a
216.989	0.06	433978	keystroke	h	n/a
217.079	0.105	434158	keystroke	e	n/a
217.1235	0.1535	434247	keystroke	r	n/a
217.349	0.1235	434698	keystroke	s	n/a
217.619	0.09	435238	keystroke	Key.enter	n/a
217.713	5.2645	435426	prompt	n/a	somalia herbal nine export\n
218.594	0.09	437188	keystroke	s	n/a
218.7325	0.0715	437465	keystroke	o	n/a
219.044	0.0895	438088	keystroke	m	n/a
219.179	0.0745	438358	keystroke	a	n/a
219.404	0.1495	438808	keystroke	l	n/a
219.479	0.135	438958	keystroke	i	n/a
219.719	0.09	439438	keystroke	a	n/a
219.899	0.105	439798	keystroke	Key.space	n/a
220.2285	0.0905	440457	keystroke	h	n/a
220.304	0.1195	440608	keystroke	e	n/a
220.394	0.1045	440788	keystroke	r	n/a
220.649	0.0765	441298	keystroke	b	n/a
220.7385	0.1205	441477	keystroke	a	n/a
220.9245	0.1	441849	keystroke	l	n/a
220.979	0.113	441958	keystroke	Key.space	n/a
221.174	0.12	442348	keystroke	n	n/a
221.234	0.1045	442468	keystroke	i	n/a
221.444	0.09	442888	keystroke	n	n/a
221.534	0.1215	443068	keystroke	e	n/a
221.699	0.105	443398	keystroke	Key.space	n/a
221.909	0.09	443818	keystroke	e	n/a
222.119	0.1045	444238	keystroke	x	n/a
222.2535	0.105	444507	keystroke	p	n/a
222.434	0.1045	444868	keystroke	o	n/a
222.48	0.104	444960	keystroke	r	n/a
222.704	0.06	445408	keystroke	t	n/a
222.884	0.0925	445768	keystroke	Key.enter	n/a
222.9825	8.3775	445965	prompt	n/a	myers thought positioning thee\n
223.814	0.075	447628	keystroke	m	n/a
224.0235	0.1055	448047	keystroke	y	n/a
224.208	0.1155	448416	keystroke	e	n/a
224.264	0.135	448528	keystroke	r	n/a
224.519	0.1345	449038	keystroke	s	n/a
224.6235	0.1205	449247	keystroke	Key.space	n/a
224.879	0.093	449758	keystroke	t	n/a
224.984	0.075	449968	keystroke	h	n/a
225.074	0.135	450148	keystroke	o	n/a
225.179	0.1045	450358	keystroke	u	n/a
225.2535	0.0825	450507	keystroke	r	n/a
225.674	0.075	451348	keystroke	Key.backspace	n/a
225.8685	0.0755	451737	keystroke	Key.backspace	n/a
227.0235	0.0755	454047	keystroke	u	n/a
227.204	0.09	454408	keystroke	g	n/a
227.354	0.045	454708	keystroke	h	n/a
227.474	0.075	454948	keystroke	t	n/a
227.6235	0.1205	455247	keystroke	Key.space	n/a
228.044	0.09	456088	keystroke	p	n/a
228.0735	0.1355	456147	keystroke	o	n/a
228.2385	0.0905	456477	keystroke	s	n/a
228.404	0.09	456808	keystroke	i	n/a
228.5985	0.0605	457197	keystroke	t	n/a
228.689	0.195	457378	keystroke	i	n/a
228.8685	0.135	457737	keystroke	o	n/a
228.914	0.1975	457828	keystroke	n	n/a
229.619	0.075	459238	keystroke	i	n/a
229.844	0.075	459688	keystroke	n	n/a
229.979	0.0745	459958	keystroke	g	n/a
230.249	0.0905	460498	keystroke	Key.space	n/a
230.5935	0.09	461187	keystroke	t	n/a
230.819	0.06	461638	keystroke	h	n/a
230.9235	0.0905	461847	keystroke	e	n/a
231.1035	0.0605	462207	keystroke	e	n/a
231.2835	0.0755	462567	keystroke	Key.enter	n/a
231.3625	8.1875	462725	prompt	n/a	excluded replication delete starsmerchant\n
231.374	0.045	462748	keystroke	Key.space	n/a
232.6785	0.09	465357	keystroke	e	n/a
232.889	0.1195	465778	keystroke	x	n/a
233.3685	0.0755	466737	keystroke	c	n/a
233.594	0.1195	467188	keystroke	l	n/a
233.6835	0.1055	467367	keystroke	u	n/a
233.804	0.105	467608	keystroke	d	n/a
233.999	0.075	467998	keystroke	e	n/a
234.194	0.0745	468388	keystroke	d	n/a
234.329	0.0895	468658	keystroke	Key.space	n/a
234.5685	0.1055	469137	keystroke	r	n/a
234.644	0.075	469288	keystroke	e	n/a
234.8235	0.1505	469647	keystroke	p	n/a
235.0815	0.1175	470163	keystroke	l	n/a
235.1385	0.1205	470277	keystroke	i	n/a
235.304	0.09	470608	keystroke	c	n/a
235.381	0.103	470762	keystroke	a	n/a
235.5735	0.078	471147	keystroke	t	n/a
235.604	0.195	471208	keystroke	i	n/a
235.694	0.121	471388	keystroke	o	n/a
235.7535	0.1355	471507	keystroke	n	n/a
235.889	0.125	471778	keystroke	Key.space	n/a
236.084	0.075	472168	keystroke	d	n/a
236.249	0.0745	472498	keystroke	e	n/a
236.384	0.094	472768	keystroke	l	n/a
236.478	0.086	472956	keystroke	e	n/a
236.579	0.1045	473158	keystroke	t	n/a
236.6685	0.0905	473337	keystroke	e	n/a
236.7745	0.1045	473549	keystroke	Key.space	n/a
237.029	0.105	474058	keystroke	s	n/a
237.2385	0.0755	474477	keystroke	t	n/a
237.329	0.12	474658	keystroke	a	n/a
237.464	0.0895	474928	keystroke	r	n/a
237.7345	0.1495	475469	keystroke	s	n/a
238.244	0.09	476488	keystroke	m	n/a
238.3945	0.1195	476789	keystroke	e	n/a
238.484	0.12	476968	keystroke	r	n/a
238.814	0.09	477628	keystroke	c	n/a
238.934	0.061	477868	keystroke	h	n/a
239.0385	0.0935	478077	keystroke	a	n/a
239.144	0.09	478288	keystroke	n	n/a
239.298	0.0705	478596	keystroke	t	n/a
239.4635	0.0855	478927	keystroke	Key.enter	n/a
239.5525	8.292	479105	prompt	n/a	highly further physically who've\n
240.959	0.092	481918	keystroke	h	n/a
241.02	0.1185	482040	keystroke	i	n/a
241.1535	0.0905	482307	keystroke	g	n/a
241.244	0.1065	482488	keystroke	h	n/a
241.4535	0.1505	482907	keystroke	l	n/a
241.5155	0.0435	483031	keystroke	i	n/a
242.1145	0.0895	484229	keystroke	Key.backspace	n/a
242.3835	0.0905	484767	keystroke	y	n/a
242.549	0.1195	485098	keystroke	Key.space	n/a
242.909	0.09	485818	keystroke	f	n/a
243.104	0.075	486208	keystroke	u	n/a
243.2095	0.089	486419	keystroke	r	n/a
243.464	0.0595	486928	keystroke	t	n/a
243.599	0.075	487198	keystroke	h	n/a
243.7185	0.105	487437	keystroke	e	n/a
243.779	0.1345	487558	keystroke	r	n/a
243.8705	0.1655	487741	keystroke	Key.space	n/a
244.694	0.09	489388	keystroke	p	n/a
244.7685	0.1055	489537	keystroke	h	n/a
244.994	0.09	489988	keystroke	y	n/a
245.144	0.105	490288	keystroke	s	n/a
245.279	0.105	490558	keystroke	i	n/a
245.399	0.06	490798	keystroke	c	n/a
245.579	0.105	491158	keystroke	a	n/a
245.7445	0.074	491489	keystroke	l	n/a
245.9265	0.057	491853	keystroke	l	n/a
246.029	0.135	492058	keystroke	y	n/a
246.149	0.1045	492298	keystroke	Key.space	n/a
246.4485	0.105	492897	keystroke	w	n/a
246.599	0.165	493198	keystroke	h	n/a
246.749	0.1195	493498	keystroke	o	n/a
247.1085	0.0905	494217	keystroke	'	n/a
247.334	0.1195	494668	keystroke	v	n/a
247.499	0.075	494998	keystroke	e	n/a
247.7685	0.075	495537	keystroke	Key.enter	n/a
247.8475	5.487	495695	prompt	n/a	test france avon maine\n
248.5935	0.1205	497187	keystroke	t	n/a
248.6385	0.1075	497277	keystroke	e	n/a
248.774	0.1375	497548	keystroke	s	n/a
248.894	0.165	497788	keystroke	t	n/a
249.0595	0.1045	498119	keystroke	Key.space	n/a
249.584	0.06	499168	keystroke	f	n/a
249.749	0.0745	499498	keystroke	r	n/a
249.841	0.103	499682	keystroke	a	n/a
249.974	0.12	499948	keystroke	m	n/a
250.1725	0.0715	500345	keystroke	c	n/a
250.4535	0.0605	500907	keystroke	Key.backspace	n/a
250.619	0.075	501238	keystroke	Key.backspace	n/a
250.874	0.0745	501748	keystroke	n	n/a
250.994	0.077	501988	keystroke	c	n/a
251.174	0.105	502348	keystroke	e	n/a
251.294	0.109	502588	keystroke	Key.space	n/a
251.459	0.09	502918	keystroke	a	n/a
251.6535	0.1055	503307	keystroke	v	n/a
251.849	0.1045	503698	keystroke	o	n/a
251.8965	0.133	503793	keystroke	n	n/a
252.089	0.1195	504178	keystroke	Key.space	n/a
252.3735	0.1055	504747	keystroke	m	n/a
252.509	0.105	505018	keystroke	a	n/a
252.764	0.0895	505528	keystroke	i	n/a
252.929	0.09	505858	keystroke	n	n/a
253.0335	0.09	506067	keystroke	e	n/a
253.259	0.075	506518	keystroke	Key.enter	n/a
253.337	6.2675	506674	prompt	n/a	nasdaq smell refer terry\n
254.3385	0.1055	508677	keystroke	n	n/a
254.459	0.096	508918	keystroke	a	n/a
254.609	0.1095	509218	keystroke	s	n/a
254.9385	0.1205	509877	keystroke	d	n/a
255.0435	0.1075	510087	keystroke	a	n/a
255.4035	0.12	510807	keystroke	q	n/a
255.584	0.105	511168	keystroke	Key.space	n/a
255.764	0.0895	511528	keystroke	s	n/a
255.929	0.09	511858	keystroke	m	n/a
256.034	0.0605	512068	keystroke	e	n/a
256.199	0.045	512398	keystroke	e	n/a
256.634	0.0595	513268	keystroke	Key.backspace	n/a
256.874	0.075	513748	keystroke	l	n/a
257.0385	0.0905	514077	keystroke	l	n/a
257.174	0.075	514348	keystroke	Key.space	n/a
257.459	0.12	514918	keystroke	r	n/a
257.549	0.1195	515098	keystroke	e	n/a
257.789	0.0765	515578	keystroke	f	n/a
257.9835	0.0905	515967	keystroke	e	n/a
258.044	0.135	516088	keystroke	r	n/a
258.2235	0.1205	516447	keystroke	Key.space	n/a
258.5235	0.09	517047	keystroke	t	n/a
258.704	0.105	517408	keystroke	e	n/a
258.929	0.075	517858	keystroke	r	n/a
259.109	0.075	518218	keystroke	r	n/a
259.259	0.09	518518	keystroke	y	n/a
259.529	0.075	519058	keystroke	Key.enter	n/a
259.607	7.003	519214	prompt	n/a	gone latina monthly bristol\n
260.387	0.087	520774	keystroke	g	n/a
260.4885	0.1205	520977	keystroke	o	n/a
260.594	0.105	521188	keystroke	n	n/a
260.685	0.119	521370	keystroke	e	n/a
260.7735	0.1205	521547	keystroke	Key.space	n/a
261.017	0.087	522034	keystroke	l	n/a
261.089	0.1195	522178	keystroke	a	n/a
261.2385	0.1055	522477	keystroke	t	n/a
261.359	0.105	522718	keystroke	i	n/a
261.449	0.1045	522898	keystroke	n	n/a
261.599	0.12	523198	keystroke	a	n/a
261.764	0.15	523528	keystroke	Key.space	n/a
262.184	0.12	524368	keystroke	m	n/a
262.277	0.117	524554	keystroke	o	n/a
262.4235	0.1205	524847	keystroke	n	n/a
262.575	0.089	525150	keystroke	t	n/a
262.7405	0.0735	525481	keystroke	h	n/a
262.889	0.09	525778	keystroke	Key.space	n/a
262.994	0.0595	525988	keystroke	l	n/a
263.2795	0.059	526559	keystroke	Key.backspace	n/a
263.4285	0.0905	526857	keystroke	Key.backspace	n/a
263.67	0.1485	527340	keystroke	l	n/a
264.194	0.106	528388	keystroke	y	n/a
264.314	0.1515	528628	keystroke	Key.space	n/a
264.7195	0.0895	529439	keystroke	b	n/a
264.959	0.105	529918	keystroke	r	n/a
265.098	0.086	530196	keystroke	i	n/a
265.214	0.135	530428	keystroke	s	n/a
265.3945	0.089	530789	keystroke	t	n/a
265.514	0.12	531028	keystroke	o	n/a
265.589	0.1075	531178	keystroke	n	n/a
266.084	0.06	532168	keystroke	Key.backspace	n/a
266.326	0.073	532652	keystroke	l	n/a
266.534	0.075	533068	keystroke	Key.enter	n/a
266.6135	5.3665	533227	prompt	n/a	heavily ordered spring thumb\n
267.734	0.06	535468	keystroke	h	n/a
267.764	0.135	535528	keystroke	e	n/a
267.854	0.12	535708	keystroke	a	n/a
268.0495	0.089	536099	keystroke	v	n/a
268.3045	0.0755	536609	keystroke	i	n/a
268.514	0.075	537028	keystroke	l	n/a
268.649	0.0745	537298	keystroke	y	n/a
268.7535	0.123	537507	keystroke	Key.space	n/a
268.994	0.0745	537988	keystroke	o	n/a
269.084	0.105	538168	keystroke	r	n/a
269.294	0.0745	538588	keystroke	d	n/a
269.4885	0.0905	538977	keystroke	e	n/a
269.534	0.1195	539068	keystroke	r	n/a
269.759	0.105	539518	keystroke	e	n/a
269.999	0.09	539998	keystroke	d	n/a
270.1335	0.09	540267	keystroke	Key.space	n/a
270.329	0.09	540658	keystroke	s	n/a
270.494	0.107	540988	keystroke	p	n/a
270.629	0.105	541258	keystroke	r	n/a
270.749	0.0895	541498	keystroke	i	n/a
270.809	0.12	541618	keystroke	n	n/a
270.944	0.1215	541888	keystroke	g	n/a
271.049	0.1045	542098	keystroke	Key.space	n/a
271.3045	0.0295	542609	keystroke	t	n/a
271.319	0.047	542638	keystroke	h	n/a
271.4835	0.0605	542967	keystroke	u	n/a
271.664	0.0895	543328	keystroke	m	n/a
271.7385	0.0905	543477	keystroke	b	n/a
271.889	0.09	543778	keystroke	Key.enter	n/a
271.9825	4.872	543965	prompt	n/a	listed tamil cargo tunes\n
272.7585	0.1505	545517	keystroke	l	n/a
272.834	0.15	545668	keystroke	i	n/a
273.014	0.135	546028	keystroke	s	n/a
273.134	0.1045	546268	keystroke	t	n/a
273.2685	0.1055	546537	keystroke	e	n/a
273.524	0.09	547048	keystroke	d	n/a
273.674	0.105	547348	keystroke	Key.space	n/a
273.9885	0.09	547977	keystroke	t	n/a
274.094	0.105	548188	keystroke	a	n/a
274.259	0.21	548518	keystroke	m	n/a
274.3815	0.1475	548763	keystroke	i	n/a
274.589	0.105	549178	keystroke	l	n/a
274.7385	0.09	549477	keystroke	Key.space	n/a
274.964	0.0895	549928	keystroke	c	n/a
275.0535	0.1205	550107	keystroke	a	n/a
275.159	0.12	550318	keystroke	r	n/a
275.414	0.075	550828	keystroke	g	n/a
275.519	0.1195	551038	keystroke	o	n/a
275.6535	0.09	551307	keystroke	Key.space	n/a
275.9405	0.1185	551881	keystroke	t	n/a
276.134	0.0895	552268	keystroke	u	n/a
276.344	0.09	552688	keystroke	n	n/a
276.419	0.135	552838	keystroke	e	n/a
276.5705	0.1035	553141	keystroke	s	n/a
276.794	0.0595	553588	keystroke	Key.enter	n/a
276.857	7.213	553714	prompt	n/a	peter sage jonathan formation\n
277.7535	0.1055	555507	keystroke	p	n/a
277.874	0.123	555748	keystroke	e	n/a
278.0535	0.1055	556107	keystroke	t	n/a
278.144	0.135	556288	keystroke	e	n/a
278.264	0.1045	556528	keystroke	r	n/a
278.474	0.1495	556948	keystroke	Key.space	n/a
278.6535	0.1505	557307	keystroke	s	n/a
278.774	0.12	557548	keystroke	a	n/a
278.909	0.1055	557818	keystroke	g	n/a
279.014	0.135	558028	keystroke	e	n/a
279.134	0.1195	558268	keystroke	Key.space	n/a
279.404	0.1645	558808	keystroke	j	n/a
279.509	0.15	559018	keystroke	o	n/a
279.809	0.105	559618	keystroke	n	n/a
279.959	0.061	559918	keystroke	a	n/a
280.469	0.06	560938	keystroke	t	n/a
280.559	0.0615	561118	keystroke	h	n/a
280.679	0.0745	561358	keystroke	a	n/a
280.7385	0.0905	561477	keystroke	n	n/a
280.859	0.1045	561718	keystroke	Key.space	n/a
281.204	0.06	562408	keystroke	f	n/a
281.2835	0.1155	562567	keystroke	o	n/a
281.294	0.0595	562588	keystroke	f	n/a
281.594	0.1195	563188	keystroke	r	n/a
281.894	0.105	563788	keystroke	m	n/a
282.044	0.075	564088	keystroke	a	n/a
282.299	0.0595	564598	keystroke	Key.backspace	n/a
282.449	0.0745	564898	keystroke	Key.backspace	n/a
282.614	0.075	565228	keystroke	Key.backspace	n/a
282.779	0.0895	565558	keystroke	Key.backspace	n/a
283.007	0.087	566014	keystroke	r	n/a
283.184	0.105	566368	keystroke	m	n/a
283.274	0.1045	566548	keystroke	a	n/a
283.439	0.075	566878	keystroke	t	n/a
283.529	0.165	567058	keystroke	i	n/a
283.6035	0.12	567207	keystroke	o	n/a
283.679	0.1215	567358	keystroke	n	n/a
283.967	0.102	567934	keystroke	Key.enter	n/a
284.073	7.632	568146	prompt	n/a	communications dense booty litigation\n
285.0445	0.121	570089	keystroke	c	n/a
285.1485	0.0305	570297	keystroke	o	n/a
285.2385	0.1055	570477	keystroke	m	n/a
285.404	0.1495	570808	keystroke	m	n/a
285.629	0.09	571258	keystroke	u	n/a
285.824	0.135	571648	keystroke	n	n/a
285.929	0.09	571858	keystroke	i	n/a
286.034	0.1045	572068	keystroke	c	n/a
286.155	0.074	572310	keystroke	a	n/a
286.244	0.078	572488	keystroke	t	n/a
286.3345	0.1525	572669	keystroke	i	n/a
286.379	0.12	572758	keystroke	o	n/a
286.4685	0.1205	572937	keystroke	n	n/a
286.574	0.135	573148	keystroke	s	n/a
286.664	0.122	573328	keystroke	Key.space	n/a
286.889	0.12	573778	keystroke	d	n/a
287.084	0.075	574168	keystroke	e	n/a
287.3835	0.0755	574767	keystroke	n	n/a
287.549	0.105	575098	keystroke	c	n/a
287.894	0.0595	575788	keystroke	Key.backspace	n/a
287.999	0.135	575998	keystroke	s	n/a
288.0465	0.1475	576093	keystroke	e	n/a
288.2385	0.0905	576477	keystroke	Key.space	n/a
288.449	0.0745	576898	keystroke	b	n/a
288.5385	0.0755	577077	keystroke	o	n/a
288.719	0.1045	577438	keystroke	o	n/a
288.914	0.075	577828	keystroke	t	n/a
289.0195	0.121	578039	keystroke	y	n/a
289.1235	0.1055	578247	keystroke	Key.space	n/a
289.3335	0.1655	578667	keystroke	l	n/a
289.4235	0.1205	578847	keystroke	i	n/a
289.6045	0.0895	579209	keystroke	t	n/a
289.9375	0.116	579875	keystroke	i	n/a
290.6385	0.0905	581277	keystroke	g	n/a
290.744	0.15	581488	keystroke	a	n/a
290.9535	0.1055	581907	keystroke	t	n/a
291.179	0.165	582358	keystroke	i	n/a
291.2535	0.1355	582507	keystroke	o	n/a
291.329	0.12	582658	keystroke	n	n/a
291.629	0.075	583258	keystroke	Key.enter	n/a
291.708	7.0315	583416	prompt	n/a	stick tribute united discipline\n
292.709	0.105	585418	keystroke	s	n/a
292.844	0.105	585688	keystroke	t	n/a
293.0385	0.091	586077	keystroke	i	n/a
293.189	0.09	586378	keystroke	c	n/a
293.294	0.12	586588	keystroke	k	n/a
293.4445	0.107	586889	keystroke	Key.space	n/a
293.8035	0.0605	587607	keystroke	t	n/a
293.9685	0.1055	587937	keystroke	r	n/a
294.119	0.09	588238	keystroke	i	n/a
294.2385	0.09	588477	keystroke	b	n/a
294.389	0.091	588778	keystroke	u	n/a
294.494	0.135	588988	keystroke	t	n/a
294.599	0.105	589198	keystroke	e	n/a
294.7645	0.119	589529	keystroke	Key.space	n/a
295.214	0.105	590428	keystroke	u	n/a
295.4535	0.1355	590907	keystroke	n	n/a
295.5785	0.0855	591157	keystroke	i	n/a
295.694	0.135	591388	keystroke	t	n/a
295.7685	0.106	591537	keystroke	e	n/a
296.0125	0.0865	592025	keystroke	d	n/a
296.1885	0.0905	592377	keystroke	Key.space	n/a
296.3235	0.09	592647	keystroke	d	n/a
296.594	0.113	593188	keystroke	i	n/a
296.894	0.09	593788	keystroke	c	n/a
297.2235	0.09	594447	keystroke	Key.backspace	n/a
297.344	0.1215	594688	keystroke	s	n/a
297.494	0.105	594988	keystroke	c	n/a
297.6885	0.1075	595377	keystroke	i	n/a
297.9585	0.0905	595917	keystroke	p	n/a
298.1685	0.1505	596337	keystroke	l	n/a
298.2605	0.1335	596521	keystroke	i	n/a
298.379	0.09	596758	keystroke	n	n/a
298.4685	0.091	596937	keystroke	e	n/a
298.664	0.0745	597328	keystroke	Key.enter	n/a
298.7425	5.0375	597485	prompt	n/a	sheriff coated whom good\n
299.729	0.064	599458	keystroke	s	n/a
299.804	0.09	599608	keystroke	h	n/a
299.909	0.09	599818	keystroke	e	n/a
300.134	0.1045	600268	keystroke	r	n/a
300.29	0.099	600580	keystroke	i	n/a
300.479	0.0895	600958	keystroke	f	n/a
300.644	0.105	601288	keystroke	f	n/a
300.7805	0.103	601561	keystroke	Key.space	n/a
301.0795	0.074	602159	keystroke	c	n/a
301.214	0.09	602428	keystroke	o	n/a
301.364	0.0895	602728	keystroke	a	n/a
301.544	0.12	603088	keystroke	t	n/a
301.694	0.09	603388	keystroke	e	n/a
301.919	0.075	603838	keystroke	d	n/a
302.0685	0.09	604137	keystroke	Key.space	n/a
302.219	0.1045	604438	keystroke	w	n/a
302.34	0.119	604680	keystroke	h	n/a
302.414	0.12	604828	keystroke	o	n/a
302.6685	0.09	605337	keystroke	m	n/a
302.834	0.1195	605668	keystroke	Key.space	n/a
303.1185	0.0755	606237	keystroke	g	n/a
303.2385	0.0755	606477	keystroke	o	n/a
303.4185	0.0905	606837	keystroke	o	n/a
303.5235	0.0775	607047	keystroke	d	n/a
303.6885	0.0905	607377	keystroke	Key.enter	n/a
303.783	6.854	607566	prompt	n/a	karen logitech clark captain\n
304.649	0.1195	609298	keystroke	k	n/a
304.7535	0.107	609507	keystroke	a	n/a
304.874	0.12	609748	keystroke	r	n/a
305.0265	0.103	610053	keystroke	e	n/a
305.2045	0.0895	610409	keystroke	n	n/a
305.279	0.105	610558	keystroke	Key.space	n/a
305.5195	0.075	611039	keystroke	l	n/a
305.729	0.093	611458	keystroke	o	n/a
305.804	0.1055	611608	keystroke	g	n/a
305.969	0.1195	611938	keystroke	i	n/a
306.194	0.15	612388	keystroke	t	n/a
306.2995	0.1345	612599	keystroke	e	n/a
306.599	0.105	613198	keystroke	c	n/a
306.7515	0.087	613503	keystroke	h	n/a
306.8535	0.1205	613707	keystroke	Key.space	n/a
307.1535	0.0615	614307	keystroke	l	n/a
307.469	0.0775	614938	keystroke	Key.backspace	n/a
307.604	0.1055	615208	keystroke	c	n/a
307.7535	0.1055	615507	keystroke	l	n/a
307.965	0.119	615930	keystroke	a	n/a
308.1285	0.1205	616257	keystroke	r	n/a
308.519	0.0905	617038	keystroke	k	n/a
308.654	0.105	617308	keystroke	Key.space	n/a
309.0295	0.1345	618059	keystroke	c	n/a
309.1195	0.1045	618239	keystroke	a	n/a
309.239	0.1355	618478	keystroke	p	n/a
309.479	0.105	618958	keystroke	t	n/a
309.9015	0.1025	619803	keystroke	a	n/a
310.019	0.1195	620038	keystroke	i	n/a
310.274	0.105	620548	keystroke	n	n/a
310.544	0.092	621088	keystroke	Key.enter	n/a
310.641	8.019	621282	prompt	n/a	minority itself subscriptions volt\n
311.504	0.1495	623008	keystroke	m	n/a
311.597	0.102	623194	keystroke	i	n/a
311.849	0.135	623698	keystroke	n	n/a
311.9385	0.1355	623877	keystroke	o	n/a
312.119	0.1045	624238	keystroke	r	n/a
312.2685	0.09	624537	keystroke	i	n/a
312.434	0.0895	624868	keystroke	t	n/a
312.569	0.105	625138	keystroke	y	n/a
312.6895	0.0895	625379	keystroke	Key.space	n/a
312.9445	0.089	625889	keystroke	i	n/a
313.064	0.1205	626128	keystroke	t	n/a
313.304	0.1345	626608	keystroke	s	n/a
313.409	0.1205	626818	keystroke	e	n/a
313.6045	0.09	627209	keystroke	l	n/a
313.739	0.12	627478	keystroke	f	n/a
313.8595	0.122	627719	keystroke	Key.space	n/a
314.1745	0.0145	628349	keystroke	d	n/a
314.204	0.105	628408	keystroke	s	n/a
314.594	0.06	629188	keystroke	Key.backspace	n/a
314.747	0.0875	629494	keystroke	Key.backspace	n/a
314.864	0.12	629728	keystroke	s	n/a
315.059	0.105	630118	keystroke	u	n/a
315.1495	0.063	630299	keystroke	b	n/a
315.479	0.12	630958	keystroke	s	n/a
315.734	0.09	631468	keystroke	t	n/a
316.154	0.075	632308	keystroke	Key.backspace	n/a
316.289	0.12	632578	keystroke	c	n/a
316.634	0.1045	633268	keystroke	r	n/a
316.7995	0.1045	633599	keystroke	i	n/a
316.994	0.12	633988	keystroke	p	n/a
317.189	0.0755	634378	keystroke	t	n/a
317.297	0.177	634594	keystroke	i	n/a
317.369	0.1345	634738	keystroke	o	n/a
317.4885	0.1075	634977	keystroke	n	n/a
317.6095	0.1195	635219	keystroke	s	n/a
317.714	0.09	635428	keystroke	Key.space	n/a
317.9235	0.0755	635847	keystroke	v	n/a
318.029	0.1045	636058	keystroke	o	n/a
318.254	0.0905	636508	keystroke	l	n/a
318.419	0.09	636838	keystroke	t	n/a
318.569	0.09	637138	keystroke	Key.enter	n/a
318.6625	8.4725	637325	prompt	n/a	restricted modems manhattan opinion\n
319.469	0.135	638938	keystroke	r	n/a
319.529	0.105	639058	keystroke	e	n/a
319.754	0.1055	639508	keystroke	s	n/a
319.904	0.1055	639808	keystroke	t	n/a
320.117	0.0875	640234	keystroke	r	n/a
320.2195	0.1045	640439	keystroke	i	n/a
320.3995	0.06	640799	keystroke	c	n/a
320.519	0.165	641038	keystroke	t	n/a
320.6685	0.0605	641337	keystroke	e	n/a
320.849	0.12	641698	keystroke	d	n/a
321.014	0.0895	642028	keystroke	Key.space	n/a
321.179	0.18	642358	keystroke	m	n/a
321.284	0.12	642568	keystroke	o	n/a
321.584	0.12	643168	keystroke	t	n/a
321.929	0.0785	643858	keystroke	Key.backspace	n/a
322.0345	0.0745	644069	keystroke	d	n/a
322.214	0.1045	644428	keystroke	e	n/a
322.2895	0.1195	644579	keystroke	r	n/a
322.739	0.0755	645478	keystroke	Key.backspace	n/a
322.9495	0.089	645899	keystroke	m	n/a
323.0695	0.1195	646139	keystroke	s	n/a
323.2675	0.101	646535	keystroke	Key.space	n/a
323.6095	0.0905	647219	keystroke	m	n/a
323.684	0.09	647368	keystroke	a	n/a
323.849	0.0895	647698	keystroke	n	n/a
324.254	0.0765	648508	keystroke	h	n/a
324.3735	0.1055	648747	keystroke	a	n/a
324.734	0.075	649468	keystroke	t	n/a
324.8995	0.075	649799	keystroke	t	n/a
325.094	0.1045	650188	keystroke	a	n/a
325.259	0.105	650518	keystroke	n	n/a
325.544	0.09	651088	keystroke	Key.space	n/a
325.7385	0.1535	651477	keystroke	o	n/a
325.844	0.15	651688	keystroke	p	n/a
326.129	0.15	652258	keystroke	i	n/a
326.369	0.152	652738	keystroke	n	n/a
326.5345	0.119	653069	keystroke	i	n/a
326.6235	0.1655	653247	keystroke	o	n/a
326.759	0.105	653518	keystroke	n	n/a
327.044	0.09	654088	keystroke	Key.enter	n/a
327.138	7.5575	654276	prompt	n/a	defendant kings marvel considers\n
327.8845	0.092	655769	keystroke	d	n/a
328.0795	0.074	656159	keystroke	e	n/a
328.3195	0.104	656639	keystroke	f	n/a
328.4685	0.106	656937	keystroke	e	n/a
328.7095	0.1045	657419	keystroke	n	n/a
329.0085	0.1055	658017	keystroke	d	n/a
329.144	0.105	658288	keystroke	a	n/a
329.3535	0.1055	658707	keystroke	n	n/a
329.5495	0.1645	659099	keystroke	t	n/a
329.704	0.115	659408	keystroke	Key.space	n/a
329.894	0.09	659788	keystroke	k	n/a
330.089	0.09	660178	keystroke	i	n/a
330.149	0.122	660298	keystroke	n	n/a
330.284	0.12	660568	keystroke	s	n/a
330.599	0.15	661198	keystroke	g	n/a
331.079	0.0745	662158	keystroke	Key.backspace	n/a
331.2595	0.0755	662519	keystroke	Key.backspace	n/a
331.409	0.1355	662818	keystroke	g	n/a
331.5295	0.1195	663059	keystroke	s	n/a
331.6945	0.105	663389	keystroke	Key.space	n/a
332.1295	0.1195	664259	keystroke	m	n/a
332.204	0.12	664408	keystroke	a	n/a
332.339	0.15	664678	keystroke	r	n/a
332.639	0.09	665278	keystroke	v	n/a
332.7745	0.077	665549	keystroke	e	n/a
332.939	0.09	665878	keystroke	l	n/a
333.0745	0.1045	666149	keystroke	Key.space	n/a
333.3295	0.105	666659	keystroke	c	n/a
333.494	0.1215	666988	keystroke	o	n/a
333.539	0.12	667078	keystroke	n	n/a
333.7795	0.105	667559	keystroke	s	n/a
333.9295	0.0895	667859	keystroke	i	n/a
334.004	0.0905	668008	keystroke	d	n/a
334.184	0.094	668368	keystroke	e	n/a
334.2595	0.09	668519	keystroke	r	n/a
334.41	0.104	668820	keystroke	s	n/a
334.604	0.09	669208	keystroke	Key.enter	n/a
334.6985	6.7315	669397	prompt	n/a	landscapes advance utility that'd\n
335.609	0.0905	671218	keystroke	l	n/a
335.6845	0.1045	671369	keystroke	a	n/a
335.819	0.075	671638	keystroke	n	n/a
335.924	0.078	671848	keystroke	d	n/a
336.1195	0.1045	672239	keystroke	s	n/a
336.3595	0.09	672719	keystroke	c	n/a
336.8095	0.09	673619	keystroke	a	n/a
337.0045	0.1195	674009	keystroke	p	n/a
337.263	0.101	674526	keystroke	e	n/a
337.5445	0.0745	675089	keystroke	s	n/a
337.6495	0.1495	675299	keystroke	Key.space	n/a
337.8745	0.0895	675749	keystroke	a	n/a
338.0255	0.0885	676051	keystroke	d	n/a
338.369	0.0755	676738	keystroke	v	n/a
338.4745	0.12	676949	keystroke	a	n/a
338.609	0.0905	677218	keystroke	n	n/a
338.714	0.0905	677428	keystroke	c	n/a
338.924	0.0755	677848	keystroke	e	n/a
338.987	0.1175	677974	keystroke	Key.space	n/a
339.254	0.0755	678508	keystroke	u	n/a
339.3745	0.09	678749	keystroke	t	n/a
339.5095	0.12	679019	keystroke	i	n/a
339.7945	0.0595	679589	keystroke	l	n/a
339.8095	0.106	679619	keystroke	i	n/a
339.9895	0.075	679979	keystroke	t	n/a
340.124	0.1235	680248	keystroke	y	n/a
340.2295	0.1045	680459	keystroke	Key.space	n/a
340.5595	0.105	681119	keystroke	t	n/a
340.6945	0.0895	681389	keystroke	h	n/a
340.754	0.1055	681508	keystroke	a	n/a
340.8485	0.101	681697	keystroke	t	n/a
340.9945	0.105	681989	keystroke	'	n/a
341.145	0.0745	682290	keystroke	d	n/a
341.354	0.0755	682708	keystroke	Key.enter	n/a
341.4325	6.3465	682865	prompt	n/a	murphy mean peterson integrated\n
342.271	0.118	684542	keystroke	m	n/a
342.5095	0.105	685019	keystroke	u	n/a
342.6595	0.15	685319	keystroke	r	n/a
342.9145	0.1045	685829	keystroke	p	n/a
342.9595	0.1495	685919	keystroke	h	n/a
343.2145	0.105	686429	keystroke	y	n/a
343.366	0.073	686732	keystroke	Key.space	n/a
343.5895	0.12	687179	keystroke	m	n/a
343.6495	0.1195	687299	keystroke	e	n/a
343.739	0.1235	687478	keystroke	a	n/a
343.8895	0.075	687779	keystroke	n	n/a
344.024	0.1205	688048	keystroke	Key.space	n/a
344.2795	0.1195	688559	keystroke	p	n/a
344.384	0.105	688768	keystroke	e	n/a
344.6095	0.121	689219	keystroke	t	n/a
344.7145	0.1345	689429	keystroke	e	n/a
344.8495	0.111	689699	keystroke	r	n/a
345.014	0.1205	690028	keystroke	s	n/a
345.2095	0.1525	690419	keystroke	o	n/a
345.2845	0.12	690569	keystroke	n	n/a
345.4645	0.122	690929	keystroke	Key.space	n/a
345.7195	0.1045	691439	keystroke	i	n/a
345.7945	0.12	691589	keystroke	n	n/a
345.9895	0.105	691979	keystroke	t	n/a
346.0645	0.135	692129	keystroke	e	n/a
346.424	0.061	692848	keystroke	g	n/a
346.6195	0.15	693239	keystroke	r	n/a
346.7845	0.12	693569	keystroke	a	n/a
347.069	0.1355	694138	keystroke	t	n/a
347.1595	0.1045	694319	keystroke	e	n/a
347.4145	0.075	694829	keystroke	d	n/a
347.6995	0.078	695399	keystroke	Key.enter	n/a
347.782	6.773	695564	prompt	n/a	consider driver monkey annie\n
348.7495	0.0745	697499	keystroke	c	n/a
348.7795	0.1345	697559	keystroke	o	n/a
348.854	0.1055	697708	keystroke	n	n/a
348.9745	0.09	697949	keystroke	s	n/a
349.0945	0.0745	698189	keystroke	i	n/a
349.1845	0.075	698369	keystroke	d	n/a
349.3495	0.1045	698699	keystroke	e	n/a
349.439	0.1505	698878	keystroke	r	n/a
349.5445	0.105	699089	keystroke	Key.space	n/a
349.769	0.065	699538	keystroke	d	n/a
349.9495	0.15	699899	keystroke	r	n/a
350.774	0.0905	701548	keystroke	i	n/a
350.9095	0.12	701819	keystroke	v	n/a
351.0745	0.105	702149	keystroke	e	n/a
351.2095	0.135	702419	keystroke	r	n/a
351.3295	0.1045	702659	keystroke	Key.space	n/a
351.5845	0.105	703169	keystroke	m	n/a
351.659	0.1205	703318	keystroke	o	n/a
351.7945	0.105	703589	keystroke	n	n/a
352.021	0.0885	704042	keystroke	k	n/a
352.187	0.0725	704374	keystroke	y	n/a
352.2745	0.0795	704549	keystroke	e	n/a
352.6645	0.0595	705329	keystroke	Key.backspace	n/a
352.7995	0.09	705599	keystroke	Key.backspace	n/a
352.9195	0.075	705839	keystroke	e	n/a
353.024	0.1055	706048	keystroke	y	n/a
353.1595	0.09	706319	keystroke	Key.space	n/a
353.415	0.0895	706830	keystroke	a	n/a
353.5495	0.0745	707099	keystroke	n	n/a
353.7295	0.09	707459	keystroke	n	n/a
353.8795	0.1195	707759	keystroke	i	n/a
354.078	0.1015	708156	keystroke	e	n/a
354.4645	0.0895	708929	keystroke	Key.enter	n/a
354.5575	5.9085	709115	prompt	n/a	segments grant sticker questions\n
355.7095	0.15	711419	keystroke	s	n/a
355.8055	0.114	711611	keystroke	e	n/a
356.039	0.0755	712078	keystroke	g	n/a
356.2495	0.0895	712499	keystroke	m	n/a
356.3095	0.075	712619	keystroke	e	n/a
356.4445	0.0905	712889	keystroke	n	n/a
356.5045	0.1495	713009	keystroke	t	n/a
356.6695	0.135	713339	keystroke	s	n/a
356.7595	0.139	713519	keystroke	Key.space	n/a
357.0145	0.105	714029	keystroke	g	n/a
357.2095	0.12	714419	keystroke	r	n/a
357.314	0.1055	714628	keystroke	a	n/a
357.4345	0.0925	714869	keystroke	n	n/a
357.6295	0.105	715259	keystroke	t	n/a
357.824	0.06	715648	keystroke	Key.space	n/a
357.9745	0.105	715949	keystroke	s	n/a
358.124	0.1055	716248	keystroke	t	n/a
358.2745	0.105	716549	keystroke	i	n/a
358.4255	0.0885	716851	keystroke	c	n/a
358.5295	0.091	717059	keystroke	k	n/a
358.6645	0.135	717329	keystroke	e	n/a
358.724	0.1995	717448	keystroke	r	n/a
358.8745	0.12	717749	keystroke	Key.space	n/a
359.1745	0.08	718349	keystroke	q	n/a
359.2945	0.0925	718589	keystroke	u	n/a
359.354	0.2105	718708	keystroke	e	n/a
359.5045	0.1195	719009	keystroke	s	n/a
359.6095	0.1095	719219	keystroke	t	n/a
359.7745	0.1645	719549	keystroke	i	n/a
359.8645	0.135	719729	keystroke	o	n/a
359.924	0.1275	719848	keystroke	n	n/a
360.0595	0.1235	720119	keystroke	s	n/a
360.374	0.0905	720748	keystroke	Key.enter	n/a
360.4695	8.8645	720939	prompt	n/a	compressed continues diverse precipitation\n
361.4395	0.12	722879	keystroke	c	n/a
361.5295	0.1945	723059	keystroke	o	n/a
361.649	0.1805	723298	keystroke	m	n/a
361.8145	0.135	723629	keystroke	p	n/a
362.024	0.1205	724048	keystroke	r	n/a
362.07	0.1195	724140	keystroke	e	n/a
362.2645	0.1045	724529	keystroke	s	n/a
362.4745	0.0965	724949	keystroke	s	n/a
362.549	0.09	725098	keystroke	e	n/a
362.7295	0.107	725459	keystroke	d	n/a
362.8495	0.1045	725699	keystroke	Key.space	n/a
363.1675	0.087	726335	keystroke	c	n/a
363.269	0.1355	726538	keystroke	o	n/a
363.3145	0.12	726629	keystroke	n	n/a
363.509	0.06	727018	keystroke	t	n/a
363.6445	0.105	727289	keystroke	i	n/a
363.7795	0.0895	727559	keystroke	n	n/a
364.0045	0.09	728009	keystroke	u	n/a
364.064	0.105	728128	keystroke	e	n/a
364.3195	0.1055	728639	keystroke	s	n/a
364.3945	0.1345	728789	keystroke	Key.space	n/a
364.8295	0.1055	729659	keystroke	d	n/a
365.2945	0.105	730589	keystroke	i	n/a
365.4745	0.1045	730949	keystroke	v	n/a
365.654	0.1205	731308	keystroke	e	n/a
365.7295	0.1215	731459	keystroke	r	n/a
365.9095	0.165	731819	keystroke	s	n/a
365.969	0.1505	731938	keystroke	e	n/a
366.134	0.12	732268	keystroke	Key.space	n/a
366.3895	0.12	732779	keystroke	p	n/a
366.48	0.1495	732960	keystroke	r	n/a
366.569	0.1055	733138	keystroke	e	n/a
367.199	0.0905	734398	keystroke	c	n/a
367.5595	0.12	735119	keystroke	i	n/a
367.8895	0.105	735779	keystroke	p	n/a
368.2045	0.105	736409	keystroke	i	n/a
368.3845	0.1045	736769	keystroke	t	n/a
368.5795	0.0905	737159	keystroke	a	n/a
368.684	0.1055	737368	keystroke	t	n/a
368.8045	0.197	737609	keystroke	i	n/a
368.8795	0.135	737759	keystroke	o	n/a
368.954	0.1205	737908	keystroke	n	n/a
369.239	0.09	738478	keystroke	Key.enter	n/a
369.3375	8.558	738675	prompt	n/a	automobiles charged story releases\n
370.2645	0.085	740529	keystroke	a	n/a
370.3975	0.087	740795	keystroke	u	n/a
370.604	0.15	741208	keystroke	t	n/a
370.7995	0.0955	741599	keystroke	o	n/a
371.028	0.1765	742056	keystroke	m	n/a
371.1445	0.049	742289	keystroke	i	n/a
371.5495	0.0895	743099	keystroke	Key.backspace	n/a
371.8045	0.1045	743609	keystroke	o	n/a
372.285	0.104	744570	keystroke	b	n/a
372.359	0.1055	744718	keystroke	i	n/a
372.569	0.0905	745138	keystroke	l	n/a
372.6745	0.1095	745349	keystroke	e	n/a
373.0045	0.1195	746009	keystroke	s	n/a
373.169	0.1205	746338	keystroke	Key.space	n/a
373.439	0.1205	746878	keystroke	c	n/a
373.5745	0.0745	747149	keystroke	h	n/a
373.6665	0.104	747333	keystroke	a	n/a
373.754	0.135	747508	keystroke	r	n/a
374.0455	0.099	748091	keystroke	g	n/a
374.1295	0.105	748259	keystroke	e	n/a
374.3695	0.1045	748739	keystroke	d	n/a
374.459	0.1205	748918	keystroke	Key.space	n/a
374.6715	0.118	749343	keystroke	s	n/a
374.805	0.0895	749610	keystroke	t	n/a
374.9095	0.12	749819	keystroke	o	n/a
375.089	0.1055	750178	keystroke	r	n/a
375.239	0.1055	750478	keystroke	y	n/a
375.3295	0.1055	750659	keystroke	Key.space	n/a
375.554	0.1205	751108	keystroke	r	n/a
375.6295	0.1045	751259	keystroke	e	n/a
375.854	0.165	751708	keystroke	s	n/a
375.8995	0.105	751799	keystroke	e	n/a
376.2595	0.075	752519	keystroke	Key.backspace	n/a
376.4095	0.09	752819	keystroke	Key.backspace	n/a
376.6495	0.0895	753299	keystroke	l	n/a
376.6945	0.1665	753389	keystroke	e	n/a
376.7845	0.165	753569	keystroke	a	n/a
376.9345	0.21	753869	keystroke	s	n/a
377.069	0.2255	754138	keystroke	e	n/a
377.3095	0.075	754619	keystroke	s	n/a
377.8045	0.09	755609	keystroke	Key.enter	n/a
377.898	6.672	755796	prompt	n/a	letter instrument weekends equity\n
378.854	0.1055	757708	keystroke	l	n/a
378.929	0.121	757858	keystroke	e	n/a
379.0345	0.1045	758069	keystroke	t	n/a
379.2155	0.119	758431	keystroke	t	n/a
379.3195	0.1345	758639	keystroke	e	n/a
379.409	0.1385	758818	keystroke	r	n/a
379.5475	0.117	759095	keystroke	Key.space	n/a
379.7995	0.12	759599	keystroke	i	n/a
379.9045	0.107	759809	keystroke	n	n/a
380.024	0.1655	760048	keystroke	s	n/a
380.174	0.075	760348	keystroke	t	n/a
380.354	0.0905	760708	keystroke	r	n/a
380.504	0.09	761008	keystroke	u	n/a
380.7445	0.09	761489	keystroke	m	n/a
380.879	0.1055	761758	keystroke	e	n/a
381.0595	0.075	762119	keystroke	n	n/a
381.1945	0.09	762389	keystroke	t	n/a
381.4045	0.0895	762809	keystroke	Key.space	n/a
381.6295	0.12	763259	keystroke	w	n/a
381.6745	0.135	763349	keystroke	e	n/a
381.9145	0.105	763829	keystroke	e	n/a
382.1095	0.12	764219	keystroke	k	n/a
382.2445	0.09	764489	keystroke	e	n/a
382.379	0.0905	764758	keystroke	n	n/a
382.485	0.1495	764970	keystroke	d	n/a
382.6655	0.194	765331	keystroke	s	n/a
382.844	0.105	765688	keystroke	Key.space	n/a
383.1895	0.1095	766379	keystroke	e	n/a
383.4315	0.103	766863	keystroke	q	n/a
383.5645	0.15	767129	keystroke	u	n/a
383.639	0.157	767278	keystroke	i	n/a
383.8345	0.1045	767669	keystroke	t	n/a
383.9995	0.105	767999	keystroke	y	n/a
384.4795	0.0895	768959	keystroke	Key.enter	n/a
384.573	5.7885	769146	prompt	n/a	cadillac grades puppy nodes\n
385.4995	0.105	770999	keystroke	c	n/a
385.769	0.1055	771538	keystroke	a	n/a
386.069	0.078	772138	keystroke	d	n/a
386.3095	0.105	772619	keystroke	i	n/a
386.5495	0.0895	773099	keystroke	l	n/a
386.7295	0.09	773459	keystroke	l	n/a
386.8495	0.1195	773699	keystroke	a	n/a
387.1495	0.1045	774299	keystroke	c	n/a
387.3295	0.09	774659	keystroke	Key.space	n/a
387.57	0.0895	775140	keystroke	g	n/a
387.78	0.119	775560	keystroke	r	n/a
387.884	0.1055	775768	keystroke	a	n/a
388.0645	0.09	776129	keystroke	d	n/a
388.2595	0.135	776519	keystroke	e	n/a
388.336	0.1485	776672	keystroke	s	n/a
388.502	0.1025	777004	keystroke	Key.space	n/a
388.754	0.1355	777508	keystroke	p	n/a
388.8295	0.1055	777659	keystroke	u	n/a
389.145	0.0745	778290	keystroke	p	n/a
389.3095	0.105	778619	keystroke	p	n/a
389.369	0.1355	778738	keystroke	y	n/a
389.5345	0.1045	779069	keystroke	Key.space	n/a
389.7445	0.135	779489	keystroke	n	n/a
389.819	0.12	779638	keystroke	o	n/a
389.9095	0.09	779819	keystroke	d	n/a
390.0445	0.135	780089	keystroke	e	n/a
390.1345	0.1045	780269	keystroke	s	n/a
390.269	0.091	780538	keystroke	Key.enter	n/a
390.364	6.6565	780728	prompt	n/a	thus versus qualifying remains\n
391.3495	0.0745	782699	keystroke	t	n/a
391.439	0.048	782878	keystroke	h	n/a
391.5895	0.075	783179	keystroke	u	n/a
391.6945	0.1045	783389	keystroke	s	n/a
392.069	0.105	784138	keystroke	Key.space	n/a
392.2645	0.0895	784529	keystroke	v	n/a
392.418	0.116	784836	keystroke	e	n/a
392.5045	0.1195	785009	keystroke	r	n/a
392.73	0.0895	785460	keystroke	s	n/a
392.9135	0.1005	785827	keystroke	u	n/a
393.0295	0.135	786059	keystroke	s	n/a
393.1495	0.1195	786299	keystroke	Key.space	n/a
393.4045	0.1065	786809	keystroke	q	n/a
393.539	0.1055	787078	keystroke	u	n/a
393.6595	0.105	787319	keystroke	a	n/a
393.8095	0.1495	787619	keystroke	l	n/a
393.885	0.124	787770	keystroke	i	n/a
394.1095	0.105	788219	keystroke	f	n/a
394.275	0.1045	788550	keystroke	y	n/a
394.5	0.1195	789000	keystroke	i	n/a
394.7545	0.1205	789509	keystroke	n	n/a
394.9045	0.12	789809	keystroke	g	n/a
395.4445	0.105	790889	keystroke	Key.space	n/a
396.1495	0.0895	792299	keystroke	r	n/a
396.1795	0.105	792359	keystroke	e	n/a
396.3145	0.105	792629	keystroke	m	n/a
396.48	0.059	792960	keystroke	a	n/a
396.569	0.1205	793138	keystroke	i	n/a
396.665	0.099	793330	keystroke	n	n/a
396.7795	0.0895	793559	keystroke	s	n/a
396.9595	0.06	793919	keystroke	Key.enter	n/a
397.0235	8.637	794047	prompt	n/a	cigarettes perspectives indicator expo\n
398.069	0.1205	796138	keystroke	c	n/a
398.1745	0.0775	796349	keystroke	i	n/a
398.4445	0.075	796889	keystroke	g	n/a
398.595	0.105	797190	keystroke	a	n/a
398.835	0.104	797670	keystroke	r	n/a
399.045	0.09	798090	keystroke	e	n/a
399.285	0.075	798570	keystroke	t	n/a
399.4345	0.09	798869	keystroke	t	n/a
399.6505	0.114	799301	keystroke	e	n/a
399.87	0.1195	799740	keystroke	s	n/a
399.982	0.113	799964	keystroke	Key.space	n/a
400.23	0.12	800460	keystroke	p	n/a
400.29	0.075	800580	keystroke	e	n/a
400.335	0.1195	800670	keystroke	r	n/a
400.53	0.1195	801060	keystroke	s	n/a
400.7545	0.105	801509	keystroke	p	n/a
400.8295	0.076	801659	keystroke	e	n/a
401.0545	0.1055	802109	keystroke	c	n/a
401.13	0.107	802260	keystroke	t	n/a
401.3095	0.0895	802619	keystroke	i	n/a
401.4145	0.105	802829	keystroke	v	n/a
401.5355	0.166	803071	keystroke	e	n/a
401.6855	0.104	803371	keystroke	s	n/a
401.7595	0.12	803519	keystroke	Key.space	n/a
402.0745	0.105	804149	keystroke	i	n/a
402.15	0.089	804300	keystroke	n	n/a
402.2545	0.09	804509	keystroke	d	n/a
402.374	0.091	804748	keystroke	i	n/a
402.5095	0.0595	805019	keystroke	c	n/a
402.6145	0.075	805229	keystroke	a	n/a
402.7345	0.075	805469	keystroke	t	n/a
402.869	0.0755	805738	keystroke	o	n/a
402.962	0.0875	805924	keystroke	r	n/a
403.1395	0.1045	806279	keystroke	y	n/a
403.2615	0.148	806523	keystroke	Key.space	n/a
403.9945	0.0445	807989	keystroke	Key.backspace	n/a
404.1295	0.0925	808259	keystroke	Key.backspace	n/a
404.2495	0.1195	808499	keystroke	Key.space	n/a
404.4595	0.075	808919	keystroke	e	n/a
404.6545	0.0905	809309	keystroke	x	n/a
404.76	0.1345	809520	keystroke	p	n/a
404.835	0.134	809670	keystroke	o	n/a
405.5695	0.09	811139	keystroke	Key.enter	n/a
405.6655	11.215	811331	prompt	n/a	reviews donations brazilian nonprofit\n
406.4695	0.12	812939	keystroke	r	n/a
406.5295	0.1055	813059	keystroke	e	n/a
406.785	0.0595	813570	keystroke	v	n/a
406.965	0.059	813930	keystroke	i	n/a
407.0095	0.135	814019	keystroke	e	n/a
407.0845	0.1225	814169	keystroke	w	n/a
407.3395	0.1055	814679	keystroke	s	n/a
407.445	0.1045	814890	keystroke	Key.space	n/a
407.6545	0.075	815309	keystroke	d	n/a
407.7745	0.1055	815549	keystroke	o	n/a
407.97	0.0895	815940	keystroke	n	n/a
408.0745	0.0625	816149	keystroke	a	n/a
408.2545	0.0605	816509	keystroke	t	n/a
408.3295	0.165	816659	keystroke	i	n/a
408.405	0.1195	816810	keystroke	o	n/a
408.4675	0.1175	816935	keystroke	n	n/a
408.6005	0.1345	817201	keystroke	s	n/a
408.705	0.1195	817410	keystroke	Key.space	n/a
408.945	0.074	817890	keystroke	b	n/a
409.1545	0.105	818309	keystroke	r	n/a
409.245	0.1195	818490	keystroke	a	n/a
409.485	0.077	818970	keystroke	z	n/a
409.605	0.1045	819210	keystroke	i	n/a
409.9195	0.0455	819839	keystroke	l	n/a
410.0695	0.1225	820139	keystroke	l	n/a
410.16	0.1195	820320	keystroke	i	n/a
410.2945	0.09	820589	keystroke	a	n/a
410.46	0.0895	820920	keystroke	n	n/a
411.0295	0.045	822059	keystroke	Key.backspace	n/a
411.1645	0.075	822329	keystroke	Key.backspace	n/a
411.345	0.0595	822690	keystroke	Key.backspace	n/a
411.705	0.0595	823410	keystroke	i	n/a
411.7795	0.106	823559	keystroke	a	n/a
411.93	0.0595	823860	keystroke	n	n/a
412.082	0.103	824164	keystroke	Key.space	n/a
412.785	0.0445	825570	keystroke	Key.backspace	n/a
412.9195	0.075	825839	keystroke	Key.backspace	n/a
413.085	0.075	826170	keystroke	Key.backspace	n/a
413.2495	0.0605	826499	keystroke	Key.backspace	n/a
413.4755	0.0445	826951	keystroke	Key.backspace	n/a
414.18	0.0605	828360	keystroke	i	n/a
414.2545	0.0755	828509	keystroke	a	n/a
414.3595	0.06	828719	keystroke	n	n/a
414.4795	0.1355	828959	keystroke	Key.space	n/a
414.8845	0.1215	829769	keystroke	n	n/a
414.93	0.12	829860	keystroke	o	n/a
415.185	0.1525	830370	keystroke	n	n/a
415.5895	0.09	831179	keystroke	p	n/a
415.7245	0.09	831449	keystroke	r	n/a
416.0545	0.12	832109	keystroke	o	n/a
416.3275	0.072	832655	keystroke	f	n/a
416.43	0.09	832860	keystroke	i	n/a
416.6545	0.06	833309	keystroke	t	n/a
416.805	0.0745	833610	keystroke	Key.enter	n/a
416.8835	7.827	833767	prompt	n/a	obtaining exchange jeremy seven\n
418.275	0.09	836550	keystroke	o	n/a
418.351	0.1035	836702	keystroke	b	n/a
418.71	0.075	837420	keystroke	t	n/a
418.83	0.1195	837660	keystroke	a	n/a
418.9805	0.1195	837961	keystroke	i	n/a
419.085	0.1195	838170	keystroke	n	n/a
419.2195	0.105	838439	keystroke	i	n/a
419.312	0.088	838624	keystroke	n	n/a
419.43	0.1345	838860	keystroke	g	n/a
419.55	0.1045	839100	keystroke	Key.space	n/a
419.82	0.0595	839640	keystroke	e	n/a
420	0.108	840000	keystroke	x	n/a
420.254	0.076	840508	keystroke	c	n/a
420.375	0.09	840750	keystroke	h	n/a
420.495	0.0895	840990	keystroke	a	n/a
420.572	0.0875	841144	keystroke	n	n/a
420.6895	0.12	841379	keystroke	g	n/a
420.78	0.1195	841560	keystroke	e	n/a
420.871	0.104	841742	keystroke	Key.space	n/a
421.23	0.1495	842460	keystroke	j	n/a
421.3945	0.135	842789	keystroke	e	n/a
421.485	0.21	842970	keystroke	r	n/a
421.68	0.105	843360	keystroke	e	n/a
421.935	0.0895	843870	keystroke	m	n/a
422.0395	0.0605	844079	keystroke	e	n/a
422.3845	0.075	844769	keystroke	Key.backspace	n/a
422.596	0.1195	845192	keystroke	y	n/a
422.73	0.105	845460	keystroke	Key.space	n/a
422.927	0.133	845854	keystroke	s	n/a
422.985	0.135	845970	keystroke	e	n/a
423.2255	0.1045	846451	keystroke	v	n/a
423.36	0.12	846720	keystroke	e	n/a
423.45	0.1085	846900	keystroke	r	n/a
423.5995	0.0915	847199	keystroke	n	n/a
424.05	0.0745	848100	keystroke	Key.backspace	n/a
424.215	0.06	848430	keystroke	Key.backspace	n/a
424.41	0.0595	848820	keystroke	n	n/a
424.652	0.0575	849304	keystroke	Key.enter	n/a
424.713	6.6275	849426	prompt	n/a	courtesy industry they've terminal\n
425.584	0.1015	851168	keystroke	c	n/a
425.6995	0.1055	851399	keystroke	o	n/a
425.76	0.1225	851520	keystroke	u	n/a
425.8515	0.118	851703	keystroke	r	n/a
426.135	0.0795	852270	keystroke	t	n/a
426.36	0.09	852720	keystroke	e	n/a
426.8245	0.105	853649	keystroke	s	n/a
426.9745	0.1055	853949	keystroke	y	n/a
427.1245	0.0905	854249	keystroke	Key.space	n/a
427.275	0.105	854550	keystroke	i	n/a
427.365	0.0895	854730	keystroke	n	n/a
427.485	0.075	854970	keystroke	s	n/a
427.785	0.075	855570	keystroke	Key.backspace	n/a
427.8895	0.1055	855779	keystroke	d	n/a
428.0545	0.0755	856109	keystroke	u	n/a
428.2045	0.1055	856409	keystroke	s	n/a
428.3245	0.0755	856649	keystroke	t	n/a
428.52	0.09	857040	keystroke	r	n/a
428.6545	0.1055	857309	keystroke	y	n/a
428.775	0.105	857550	keystroke	Key.space	n/a
429.064	0.071	858128	keystroke	t	n/a
429.18	0.0745	858360	keystroke	h	n/a
429.2245	0.0905	858449	keystroke	e	n/a
429.39	0.09	858780	keystroke	y	n/a
429.645	0.09	859290	keystroke	'	n/a
429.7495	0.09	859499	keystroke	v	n/a
429.8545	0.11	859709	keystroke	e	n/a
429.9645	0.1005	859929	keystroke	Key.space	n/a
430.23	0.12	860460	keystroke	t	n/a
430.326	0.1135	860652	keystroke	e	n/a
430.426	0.104	860852	keystroke	r	n/a
430.605	0.105	861210	keystroke	m	n/a
430.6655	0.104	861331	keystroke	i	n/a
430.815	0.0895	861630	keystroke	n	n/a
430.92	0.075	861840	keystroke	a	n/a
431.0395	0.0905	862079	keystroke	l	n/a
431.265	0.0745	862530	keystroke	Key.enter	n/a
431.3435	7.9175	862687	prompt	n/a	zones growing alexandria siemens\n
432.15	0.1195	864300	keystroke	z	n/a
432.2395	0.135	864479	keystroke	o	n/a
432.33	0.105	864660	keystroke	n	n/a
432.45	0.15	864900	keystroke	e	n/a
432.615	0.12	865230	keystroke	s	n/a
432.7355	0.1345	865471	keystroke	Key.space	n/a
432.99	0.09	865980	keystroke	g	n/a
433.185	0.09	866370	keystroke	r	n/a
433.2905	0.134	866581	keystroke	o	n/a
433.4095	0.1055	866819	keystroke	w	n/a
433.606	0.1185	867212	keystroke	i	n/a
433.7095	0.0755	867419	keystroke	n	n/a
433.8	0.12	867600	keystroke	g	n/a
433.89	0.1345	867780	keystroke	Key.space	n/a
434.3855	0.0895	868771	keystroke	a	n/a
434.505	0.1195	869010	keystroke	l	n/a
434.6245	0.1055	869249	keystroke	e	n/a
434.85	0.1195	869700	keystroke	x	n/a
435.09	0.03	870180	keystroke	t	n/a
435.4985	0.071	870997	keystroke	Key.backspace	n/a
435.615	0.09	871230	keystroke	a	n/a
435.72	0.09	871440	keystroke	n	n/a
435.9445	0.0605	871889	keystroke	t	n/a
436.245	0.06	872490	keystroke	Key.backspace	n/a
436.35	0.0895	872700	keystroke	d	n/a
436.5595	0.1055	873119	keystroke	r	n/a
436.7695	0.1055	873539	keystroke	i	n/a
436.95	0.105	873900	keystroke	a	n/a
437.205	0.09	874410	keystroke	Key.space	n/a
437.745	0.107	875490	keystroke	s	n/a
438.135	0.09	876270	keystroke	i	n/a
438.225	0.105	876450	keystroke	e	n/a
438.4495	0.09	876899	keystroke	m	n/a
438.66	0.075	877320	keystroke	e	n/a
438.795	0.09	877590	keystroke	n	n/a
439.005	0.0895	878010	keystroke	s	n/a
439.1695	0.0905	878339	keystroke	Key.enter	n/a
439.264	6.057	878528	prompt	n/a	back when presently sarah\n
440.206	0.104	880412	keystroke	b	n/a
440.344	0.116	880688	keystroke	a	n/a
440.55	0.0745	881100	keystroke	c	n/a
440.6545	0.0905	881309	keystroke	k	n/a
440.76	0.105	881520	keystroke	Key.space	n/a
440.9095	0.105	881819	keystroke	w	n/a
441.0295	0.0605	882059	keystroke	h	n/a
441.138	0.1015	882276	keystroke	e	n/a
441.2245	0.0905	882449	keystroke	n	n/a
441.36	0.112	882720	keystroke	Key.space	n/a
441.6355	0.0845	883271	keystroke	p	n/a
441.7045	0.12	883409	keystroke	r	n/a
441.78	0.1045	883560	keystroke	e	n/a
441.99	0.12	883980	keystroke	s	n/a
442.035	0.1345	884070	keystroke	e	n/a
442.262	0.058	884524	keystroke	n	n/a
442.3345	0.09	884669	keystroke	t	n/a
442.515	0.1195	885030	keystroke	l	n/a
442.62	0.1195	885240	keystroke	y	n/a
442.727	0.148	885454	keystroke	Key.space	n/a
443.205	0.03	886410	keystroke	a	n/a
443.25	0.18	886500	keystroke	s	n/a
443.88	0.0595	887760	keystroke	Key.backspace	n/a
444.03	0.075	888060	keystroke	Key.backspace	n/a
444.0905	0.1495	888181	keystroke	s	n/a
444.1805	0.108	888361	keystroke	a	n/a
444.33	0.1055	888660	keystroke	r	n/a
444.7535	0.101	889507	keystroke	a	n/a
444.975	0.077	889950	keystroke	h	n/a
445.251	0.069	890502	keystroke	Key.enter	n/a
445.3235	7.302	890647	prompt	n/a	bidding seventh pastor appointments\n
446.342	0.088	892684	keystroke	b	n/a
446.4	0.09	892800	keystroke	i	n/a
446.535	0.075	893070	keystroke	d	n/a
446.7005	0.074	893401	keystroke	d	n/a
446.8205	0.0895	893641	keystroke	i	n/a
446.865	0.12	893730	keystroke	n	n/a
446.9395	0.1055	893879	keystroke	g	n/a
447.03	0.09	894060	keystroke	Key.space	n/a
447.18	0.15	894360	keystroke	s	n/a
447.2715	0.1035	894543	keystroke	e	n/a
447.4955	0.059	894991	keystroke	n	n/a
447.8545	0.0605	895709	keystroke	Key.backspace	n/a
447.945	0.09	895890	keystroke	v	n/a
448.0495	0.09	896099	keystroke	e	n/a
448.275	0.091	896550	keystroke	n	n/a
448.5155	0.059	897031	keystroke	s	n/a
448.8	0.0625	897600	keystroke	Key.backspace	n/a
448.935	0.075	897870	keystroke	t	n/a
449.029	0.071	898058	keystroke	h	n/a
449.1615	0.0885	898323	keystroke	Key.space	n/a
449.3255	0.09	898651	keystroke	p	n/a
449.4305	0.0895	898861	keystroke	a	n/a
449.535	0.15	899070	keystroke	s	n/a
449.7	0.105	899400	keystroke	t	n/a
449.85	0.0895	899700	keystroke	o	n/a
449.985	0.1045	899970	keystroke	r	n/a
450.15	0.15	900300	keystroke	Key.space	n/a
450.735	0.09	901470	keystroke	a	n/a
450.9	0.09	901800	keystroke	p	n/a
451.065	0.135	902130	keystroke	p	n/a
451.0955	0.1795	902191	keystroke	o	n/a
451.2175	0.1655	902435	keystroke	i	n/a
451.395	0.09	902790	keystroke	n	n/a
451.5155	0.1045	903031	keystroke	t	n/a
451.7545	0.076	903509	keystroke	m	n/a
451.848	0.0565	903696	keystroke	e	n/a
451.935	0.0895	903870	keystroke	n	n/a
452.0545	0.124	904109	keystroke	t	n/a
452.115	0.135	904230	keystroke	s	n/a
452.535	0.0895	905070	keystroke	Key.enter	n/a
452.628	7.258	905256	prompt	n/a	environmental ascii humans biology\n
453.465	0.09	906930	keystroke	e	n/a
453.6145	0.091	907229	keystroke	n	n/a
453.81	0.0935	907620	keystroke	v	n/a
453.945	0.12	907890	keystroke	i	n/a
454.11	0.092	908220	keystroke	r	n/a
454.35	0.165	908700	keystroke	o	n/a
454.455	0.12	908910	keystroke	n	n/a
454.755	0.06	909510	keystroke	m	n/a
454.845	0.075	909690	keystroke	e	n/a
454.965	0.0745	909930	keystroke	n	n/a
455.055	0.09	910110	keystroke	t	n/a
455.19	0.1055	910380	keystroke	a	n/a
455.3245	0.0905	910649	keystroke	l	n/a
455.43	0.105	910860	keystroke	Key.space	n/a
455.6395	0.125	911279	keystroke	a	n/a
455.775	0.122	911550	keystroke	s	n/a
456.0145	0.1055	912029	keystroke	c	n/a
456.18	0.105	912360	keystroke	i	n/a
456.3965	0.0685	912793	keystroke	i	n/a
456.5285	0.1015	913057	keystroke	Key.space	n/a
456.8395	0.0605	913679	keystroke	h	n/a
457.035	0.06	914070	keystroke	u	n/a
457.2305	0.0745	914461	keystroke	m	n/a
457.335	0.1045	914670	keystroke	a	n/a
457.4545	0.0635	914909	keystroke	n	n/a
457.575	0.1495	915150	keystroke	s	n/a
457.71	0.107	915420	keystroke	Key.space	n/a
458.0245	0.0755	916049	keystroke	b	n/a
458.115	0.105	916230	keystroke	i	n/a
458.3545	0.092	916709	keystroke	o	n/a
458.5805	0.0595	917161	keystroke	l	n/a
458.7605	0.0745	917521	keystroke	o	n/a
458.97	0.0755	917940	keystroke	y	n/a
459.33	0.0605	918660	keystroke	Key.backspace	n/a
459.4655	0.0815	918931	keystroke	g	n/a
459.57	0.076	919140	keystroke	y	n/a
459.811	0.074	919622	keystroke	Key.enter	n/a
459.889	7.752	919778	prompt	n/a	voyuer norwegian colleague gallery\n
460.755	0.0605	921510	keystroke	v	n/a
460.89	0.09	921780	keystroke	o	n/a
461.2205	0.0895	922441	keystroke	y	n/a
461.4755	0.0895	922951	keystroke	u	n/a
461.745	0.0905	923490	keystroke	e	n/a
461.8655	0.12	923731	keystroke	r	n/a
462	0.105	924000	keystroke	Key.space	n/a
462.39	0.15	924780	keystroke	n	n/a
462.4955	0.1195	924991	keystroke	o	n/a
462.6935	0.1165	925387	keystroke	r	n/a
463.0505	0.135	926101	keystroke	w	n/a
463.095	0.165	926190	keystroke	e	n/a
463.755	0.1055	927510	keystroke	g	n/a
463.9515	0.0735	927903	keystroke	i	n/a
464.0695	0.1055	928139	keystroke	a	n/a
464.19	0.075	928380	keystroke	n	n/a
464.325	0.1205	928650	keystroke	Key.space	n/a
464.655	0.1505	929310	keystroke	c	n/a
464.8355	0.0895	929671	keystroke	o	n/a
465.0755	0.0745	930151	keystroke	l	n/a
465.255	0.075	930510	keystroke	l	n/a
465.3455	0.15	930691	keystroke	e	n/a
465.4955	0.12	930991	keystroke	a	n/a
465.855	0.0755	931710	keystroke	g	n/a
466.035	0.075	932070	keystroke	u	n/a
466.125	0.135	932250	keystroke	e	n/a
466.2305	0.1045	932461	keystroke	Key.space	n/a
466.44	0.0905	932880	keystroke	g	n/a
466.53	0.105	933060	keystroke	a	n/a
466.725	0.075	933450	keystroke	l	n/a
466.9055	0.075	933811	keystroke	l	n/a
467.04	0.12	934080	keystroke	e	n/a
467.1455	0.1045	934291	keystroke	r	n/a
467.2955	0.0745	934591	keystroke	y	n/a
467.567	0.073	935134	keystroke	Key.enter	n/a
467.6435	7.2585	935287	prompt	n/a	greene correctly deer compiled\n
468.5105	0.0745	937021	keystroke	g	n/a
468.705	0.122	937410	keystroke	r	n/a
468.7955	0.105	937591	keystroke	e	n/a
469.0055	0.075	938011	keystroke	e	n/a
469.2155	0.105	938431	keystroke	n	n/a
469.3205	0.09	938641	keystroke	Key.space	n/a
469.74	0.09	939480	keystroke	Key.backspace	n/a
469.8905	0.12	939781	keystroke	e	n/a
470.0705	0.1045	940141	keystroke	Key.space	n/a
470.46	0.0955	940920	keystroke	c	n/a
470.5655	0.0745	941131	keystroke	o	n/a
470.7005	0.075	941401	keystroke	r	n/a
470.8655	0.123	941731	keystroke	r	n/a
470.94	0.0905	941880	keystroke	e	n/a
471.1955	0.015	942391	keystroke	c	n/a
471.321	0.084	942642	keystroke	t	n/a
471.517	0.1325	943034	keystroke	l	n/a
471.6165	0.1035	943233	keystroke	y	n/a
471.7805	0.1195	943561	keystroke	Key.space	n/a
472.0355	0.06	944071	keystroke	e	n/a
472.4425	0.073	944885	keystroke	Key.backspace	n/a
472.5605	0.075	945121	keystroke	d	n/a
472.755	0.0755	945510	keystroke	e	n/a
472.9505	0.1045	945901	keystroke	e	n/a
473.1155	0.1495	946231	keystroke	r	n/a
473.25	0.135	946500	keystroke	Key.space	n/a
473.5505	0.124	947101	keystroke	c	n/a
473.625	0.18	947250	keystroke	o	n/a
473.7905	0.1345	947581	keystroke	m	n/a
473.8955	0.1345	947791	keystroke	p	n/a
474.06	0.165	948120	keystroke	i	n/a
474.21	0.135	948420	keystroke	l	n/a
474.3035	0.1015	948607	keystroke	e	n/a
474.525	0.06	949050	keystroke	d	n/a
474.825	0.076	949650	keystroke	Key.enter	n/a
474.905	8.111	949810	prompt	n/a	comparative friend industrial isaac\n
475.7255	0.1195	951451	keystroke	c	n/a
475.8005	0.1495	951601	keystroke	o	n/a
475.875	0.165	951750	keystroke	m	n/a
476.0105	0.1045	952021	keystroke	p	n/a
476.115	0.09	952230	keystroke	a	n/a
476.2225	0.133	952445	keystroke	r	n/a
476.34	0.09	952680	keystroke	a	n/a
476.655	0.09	953310	keystroke	t	n/a
476.8355	0.0745	953671	keystroke	i	n/a
476.94	0.0755	953880	keystroke	v	n/a
477.0455	0.1065	954091	keystroke	e	n/a
477.1055	0.1195	954211	keystroke	Key.space	n/a
477.345	0.0905	954690	keystroke	f	n/a
477.54	0.12	955080	keystroke	r	n/a
477.782	0.058	955564	keystroke	e	n/a
478.0505	0.1195	956101	keystroke	i	n/a
478.5605	0.0595	957121	keystroke	Key.backspace	n/a
478.6805	0.0895	957361	keystroke	Key.backspace	n/a
478.89	0.075	957780	keystroke	i	n/a
478.9505	0.0745	957901	keystroke	e	n/a
479.086	0.0745	958172	keystroke	n	n/a
479.1905	0.0895	958381	keystroke	d	n/a
479.295	0.15	958590	keystroke	Key.space	n/a
479.5655	0.12	959131	keystroke	i	n/a
479.672	0.088	959344	keystroke	n	n/a
479.925	0.09	959850	keystroke	d	n/a
480.15	0.06	960300	keystroke	u	n/a
480.255	0.1055	960510	keystroke	s	n/a
480.3605	0.09	960721	keystroke	t	n/a
480.555	0.0905	961110	keystroke	r	n/a
480.7355	0.0895	961471	keystroke	i	n/a
480.84	0.12	961680	keystroke	a	n/a
481.0055	0.1195	962011	keystroke	l	n/a
481.11	0.1205	962220	keystroke	Key.space	n/a
481.29	0.0905	962580	keystroke	i	n/a
481.44	0.09	962880	keystroke	s	n/a
481.6205	0.0745	963241	keystroke	s	n/a
481.71	0.1205	963420	keystroke	a	n/a
481.9955	0.0445	963991	keystroke	Key.backspace	n/a
482.1455	0.075	964291	keystroke	Key.backspace	n/a
482.2955	0.09	964591	keystroke	a	n/a
482.445	0.1055	964890	keystroke	a	n/a
482.7455	0.0765	965491	keystroke	c	n/a
482.94	0.075	965880	keystroke	Key.enter	n/a
483.019	4.2155	966038	prompt	n/a	rides gonna file wiring\n
483.736	0.104	967472	keystroke	r	n/a
483.855	0.0755	967710	keystroke	i	n/a
483.945	0.0905	967890	keystroke	d	n/a
484.1105	0.14	968221	keystroke	e	n/a
484.23	0.152	968460	keystroke	s	n/a
484.3505	0.1195	968701	keystroke	Key.space	n/a
484.6355	0.0895	969271	keystroke	g	n/a
484.77	0.0765	969540	keystroke	o	n/a
484.9655	0.0745	969931	keystroke	n	n/a
485.1305	0.09	970261	keystroke	n	n/a
485.2055	0.1385	970411	keystroke	a	n/a
485.2955	0.1495	970591	keystroke	Key.space	n/a
485.55	0.075	971100	keystroke	f	n/a
485.6465	0.0685	971293	keystroke	i	n/a
485.82	0.105	971640	keystroke	l	n/a
485.9105	0.1195	971821	keystroke	e	n/a
485.985	0.135	971970	keystroke	Key.space	n/a
486.315	0.1265	972630	keystroke	w	n/a
486.45	0.075	972900	keystroke	i	n/a
486.542	0.1035	973084	keystroke	r	n/a
486.6905	0.105	973381	keystroke	i	n/a
486.8105	0.0915	973621	keystroke	n	n/a
486.9305	0.0595	973861	keystroke	g	n/a
487.155	0.0785	974310	keystroke	Key.enter	n/a
487.2375	10.224	974475	prompt	n/a	walk accommodations alfred elections\n
488.22	0.195	976440	keystroke	w	n/a
488.37	0.1505	976740	keystroke	a	n/a
488.64	0.1655	977280	keystroke	l	n/a
488.7455	0.165	977491	keystroke	k	n/a
488.97	0.1215	977940	keystroke	Key.space	n/a
489.229	0.1015	978458	keystroke	a	n/a
489.4275	0.083	978855	keystroke	c	n/a
489.527	0.0735	979054	keystroke	o	n/a
489.7295	0.081	979459	keystroke	o	n/a
489.8705	0.105	979741	keystroke	m	n/a
490.425	0.1205	980850	keystroke	m	n/a
490.6955	0.1205	981391	keystroke	o	n/a
490.77	0.1205	981540	keystroke	n	n/a
490.9205	0.18	981841	keystroke	d	n/a
491.07	0.1355	982140	keystroke	a	n/a
491.7455	0.045	983491	keystroke	Key.backspace	n/a
491.8805	0.0745	983761	keystroke	Key.backspace	n/a
492.0605	0.075	984121	keystroke	Key.backspace	n/a
492.1655	0.1195	984331	keystroke	d	n/a
492.255	0.135	984510	keystroke	a	n/a
492.4205	0.075	984841	keystroke	t	n/a
492.555	0.1205	985110	keystroke	i	n/a
492.5855	0.1045	985171	keystroke	o	n/a
492.6605	0.105	985321	keystroke	n	n/a
492.7955	0.1195	985591	keystroke	s	n/a
492.871	0.1345	985742	keystroke	Key.space	n/a
493.2605	0.12	986521	keystroke	a	n/a
494.8955	0.1195	989791	keystroke	l	n/a
495.0945	0.116	990189	keystroke	f	n/a
495.3455	0.1495	990691	keystroke	r	n/a
495.4505	0.0895	990901	keystroke	e	n/a
495.6605	0.105	991321	keystroke	d	n/a
495.7805	0.078	991561	keystroke	Key.space	n/a
495.931	0.0915	991862	keystroke	e	n/a
496.065	0.09	992130	keystroke	l	n/a
496.17	0.0755	992340	keystroke	e	n/a
496.3805	0.0895	992761	keystroke	c	n/a
496.4865	0.0735	992973	keystroke	t	n/a
496.5905	0.1645	993181	keystroke	i	n/a
496.635	0.135	993270	keystroke	o	n/a
496.71	0.108	993420	keystroke	n	n/a
497.0105	0.0895	994021	keystroke	s	n/a
497.37	0.09	994740	keystroke	Key.enter	n/a
497.464	5.892	994928	prompt	n/a	nike dictionary savannah bald\n
498.3305	0.12	996661	keystroke	n	n/a
498.3905	0.1045	996781	keystroke	i	n/a
498.6005	0.108	997201	keystroke	k	n/a
498.661	0.104	997322	keystroke	e	n/a
498.7805	0.0895	997561	keystroke	Key.space	n/a
498.9005	0.107	997801	keystroke	d	n/a
499.035	0.075	998070	keystroke	i	n/a
499.2005	0.1195	998401	keystroke	c	n/a
499.4105	0.0745	998821	keystroke	t	n/a
499.5005	0.1495	999001	keystroke	i	n/a
499.5755	0.105	999151	keystroke	o	n/a
499.6385	0.086	999277	keystroke	n	n/a
499.74	0.075	999480	keystroke	a	n/a
499.9355	0.0895	999871	keystroke	r	n/a
500.0855	0.1045	1000171	keystroke	y	n/a
500.1755	0.0915	1000351	keystroke	Key.space	n/a
500.4005	0.1705	1000801	keystroke	s	n/a
500.55	0.105	1001100	keystroke	a	n/a
500.7755	0.104	1001551	keystroke	v	n/a
500.9025	0.1125	1001805	keystroke	a	n/a
501.12	0.1045	1002240	keystroke	n	n/a
501.3455	0.0895	1002691	keystroke	n	n/a
501.5695	0.0755	1003139	keystroke	a	n/a
501.765	0.075	1003530	keystroke	h	n/a
501.9	0.12	1003800	keystroke	Key.space	n/a
502.53	0.075	1005060	keystroke	b	n/a
502.622	0.148	1005244	keystroke	a	n/a
502.8	0.135	1005600	keystroke	l	n/a
503.01	0.1045	1006020	keystroke	d	n/a
503.265	0.09	1006530	keystroke	Key.enter	n/a
503.3595	8.637	1006719	prompt	n/a	allowance parcel acoustic principle\n
504.1355	0.1495	1008271	keystroke	a	n/a
504.405	0.06	1008810	keystroke	l	n/a
504.57	0.06	1009140	keystroke	l	n/a
504.75	0.0755	1009500	keystroke	o	n/a
504.84	0.15	1009680	keystroke	w	n/a
505.2455	0.1195	1010491	keystroke	a	n/a
505.425	0.1055	1010850	keystroke	n	n/a
505.68	0.0925	1011360	keystroke	c	n/a
505.875	0.09	1011750	keystroke	e	n/a
506.042	0.1185	1012084	keystroke	Key.space	n/a
506.355	0.12	1012710	keystroke	p	n/a
506.5685	0.1015	1013137	keystroke	r	n/a
506.6105	0.1195	1013221	keystroke	a	n/a
506.7305	0.09	1013461	keystroke	r	n/a
507.1355	0.075	1014271	keystroke	Key.backspace	n/a
507.285	0.105	1014570	keystroke	Key.backspace	n/a
507.4655	0.075	1014931	keystroke	Key.backspace	n/a
507.6	0.1205	1015200	keystroke	a	n/a
507.6905	0.135	1015381	keystroke	r	n/a
507.9305	0.1045	1015861	keystroke	c	n/a
508.127	0.073	1016254	keystroke	e	n/a
508.2605	0.105	1016521	keystroke	l	n/a
508.4255	0.09	1016851	keystroke	Key.space	n/a
508.6355	0.105	1017271	keystroke	a	n/a
508.86	0.1055	1017720	keystroke	c	n/a
509.0405	0.135	1018081	keystroke	o	n/a
509.1	0.1505	1018200	keystroke	u	n/a
509.3405	0.105	1018681	keystroke	s	n/a
509.5355	0.09	1019071	keystroke	t	n/a
509.6865	0.089	1019373	keystroke	i	n/a
509.79	0.09	1019580	keystroke	c	n/a
510.0605	0.1225	1020121	keystroke	Key.space	n/a
510.495	0.105	1020990	keystroke	p	n/a
510.6155	0.105	1021231	keystroke	r	n/a
510.765	0.12	1021530	keystroke	i	n/a
510.9305	0.0895	1021861	keystroke	n	n/a
511.0955	0.12	1022191	keystroke	c	n/a
511.2605	0.1195	1022521	keystroke	i	n/a
511.4405	0.12	1022881	keystroke	p	n/a
511.6505	0.1195	1023301	keystroke	l	n/a
511.755	0.0905	1023510	keystroke	e	n/a
511.9075	0.088	1023815	keystroke	Key.enter	n/a
511.999	7.2425	1023998	prompt	n/a	mechanisms oxide vids additionally\n
512.8505	0.09	1025701	keystroke	m	n/a
512.955	0.0755	1025910	keystroke	e	n/a
513.1805	0.0745	1026361	keystroke	c	n/a
513.301	0.044	1026602	keystroke	h	n/a
513.3755	0.075	1026751	keystroke	a	n/a
513.4805	0.1345	1026961	keystroke	n	n/a
513.57	0.1055	1027140	keystroke	i	n/a
513.69	0.0905	1027380	keystroke	s	n/a
513.9155	0.0745	1027831	keystroke	m	n/a
514.155	0.108	1028310	keystroke	s	n/a
514.3805	0.1195	1028761	keystroke	Key.space	n/a
514.65	0.0905	1029300	keystroke	o	n/a
514.9805	0.1045	1029961	keystroke	x	n/a
515.1755	0.0895	1030351	keystroke	i	n/a
515.3105	0.0895	1030621	keystroke	d	n/a
515.5265	0.054	1031053	keystroke	e	n/a
515.64	0.1055	1031280	keystroke	Key.space	n/a
515.8655	0.075	1031731	keystroke	v	n/a
515.97	0.1055	1031940	keystroke	i	n/a
516.0905	0.12	1032181	keystroke	d	n/a
516.54	0.15	1033080	keystroke	s	n/a
516.7825	0.1175	1033565	keystroke	Key.space	n/a
517.23	0.0905	1034460	keystroke	a	n/a
517.3805	0.0895	1034761	keystroke	d	n/a
517.546	0.0895	1035092	keystroke	d	n/a
517.6505	0.09	1035301	keystroke	i	n/a
517.77	0.06	1035540	keystroke	t	n/a
517.8775	0.1925	1035755	keystroke	i	n/a
517.996	0.1495	1035992	keystroke	o	n/a
518.1	0.135	1036200	keystroke	n	n/a
518.2505	0.1045	1036501	keystroke	a	n/a
518.4305	0.09	1036861	keystroke	l	n/a
518.61	0.1505	1037220	keystroke	l	n/a
518.8805	0.1195	1037761	keystroke	y	n/a
519.1505	0.09	1038301	keystroke	Key.enter	n/a
519.247	8.6645	1038494	prompt	n/a	jewellery bicycle decorative cleanup\n
520.2025	0.103	1040405	keystroke	j	n/a
520.336	0.1945	1040672	keystroke	e	n/a
520.4405	0.165	1040881	keystroke	w	n/a
520.9055	0.09	1041811	keystroke	e	n/a
522.0605	0.062	1044121	keystroke	l	n/a
522.2255	0.0895	1044451	keystroke	l	n/a
522.36	0.1055	1044720	keystroke	e	n/a
522.435	0.1055	1044870	keystroke	r	n/a
522.7525	0.1025	1045505	keystroke	y	n/a
522.87	0.0905	1045740	keystroke	Key.space	n/a
523.1105	0.0895	1046221	keystroke	b	n/a
523.2005	0.105	1046401	keystroke	i	n/a
523.365	0.09	1046730	keystroke	c	n/a
523.6205	0.09	1047241	keystroke	y	n/a
523.8905	0.0905	1047781	keystroke	c	n/a
524.0255	0.0895	1048051	keystroke	l	n/a
524.1305	0.0895	1048261	keystroke	e	n/a
524.2655	0.1045	1048531	keystroke	Key.space	n/a
524.745	0.0755	1049490	keystroke	d	n/a
524.9255	0.0595	1049851	keystroke	e	n/a
525.1205	0.06	1050241	keystroke	c	n/a
525.2255	0.09	1050451	keystroke	o	n/a
525.391	0.0895	1050782	keystroke	r	n/a
525.495	0.12	1050990	keystroke	a	n/a
525.6905	0.075	1051381	keystroke	t	n/a
525.841	0.074	1051682	keystroke	i	n/a
525.9305	0.105	1051861	keystroke	v	n/a
526.0655	0.1195	1052131	keystroke	e	n/a
526.155	0.1205	1052310	keystroke	Key.space	n/a
526.7405	0.093	1053481	keystroke	c	n/a
526.8755	0.1235	1053751	keystroke	l	n/a
526.966	0.119	1053932	keystroke	e	n/a
527.0405	0.125	1054081	keystroke	a	n/a
527.1905	0.1075	1054381	keystroke	n	n/a
527.445	0.1055	1054890	keystroke	u	n/a
527.5355	0.1195	1055071	keystroke	p	n/a
527.8205	0.09	1055641	keystroke	Key.enter	n/a
527.914	8.0675	1055828	prompt	n/a	reducing associate consumption prepaid\n
528.6915	0.134	1057383	keystroke	r	n/a
528.7655	0.1045	1057531	keystroke	e	n/a
529.0055	0.06	1058011	keystroke	d	n/a
529.14	0.0755	1058280	keystroke	u	n/a
529.2455	0.0755	1058491	keystroke	c	n/a
529.4405	0.105	1058881	keystroke	i	n/a
529.5195	0.101	1059039	keystroke	n	n/a
529.6355	0.1345	1059271	keystroke	g	n/a
529.7255	0.15	1059451	keystroke	Key.space	n/a
530.0405	0.1095	1060081	keystroke	a	n/a
530.2055	0.105	1060411	keystroke	s	n/a
530.385	0.0755	1060770	keystroke	s	n/a
530.4605	0.1245	1060921	keystroke	o	n/a
530.625	0.075	1061250	keystroke	c	n/a
530.718	0.087	1061436	keystroke	i	n/a
530.8355	0.1195	1061671	keystroke	a	n/a
531.0005	0.15	1062001	keystroke	t	n/a
531.1055	0.1195	1062211	keystroke	e	n/a
531.2475	0.0675	1062495	keystroke	Key.space	n/a
531.5465	0.1015	1063093	keystroke	c	n/a
531.6305	0.12	1063261	keystroke	o	n/a
531.7805	0.1195	1063561	keystroke	n	n/a
531.9905	0.105	1063981	keystroke	s	n/a
532.141	0.059	1064282	keystroke	u	n/a
532.339	0.1325	1064678	keystroke	m	n/a
532.455	0.1955	1064910	keystroke	p	n/a
532.77	0.1055	1065540	keystroke	i	n/a
532.9955	0.045	1065991	keystroke	t	n/a
533.2505	0.06	1066501	keystroke	Key.backspace	n/a
533.4	0.0755	1066800	keystroke	Key.backspace	n/a
533.566	0.0745	1067132	keystroke	t	n/a
533.655	0.15	1067310	keystroke	i	n/a
533.7155	0.1195	1067431	keystroke	o	n/a
533.82	0.0905	1067640	keystroke	n	n/a
533.9405	0.123	1067881	keystroke	Key.space	n/a
534.2405	0.0925	1068481	keystroke	p	n/a
534.3155	0.1345	1068631	keystroke	r	n/a
534.3755	0.1215	1068751	keystroke	e	n/a
534.6305	0.1045	1069261	keystroke	p	n/a
534.7505	0.1195	1069501	keystroke	a	n/a
534.862	0.0685	1069724	keystroke	r	n/a
535.2	0.0615	1070400	keystroke	Key.backspace	n/a
535.3955	0.0895	1070791	keystroke	i	n/a
535.545	0.0755	1071090	keystroke	e	n/a
535.725	0.075	1071450	keystroke	d	n/a
535.9055	0.075	1071811	keystroke	Key.enter	n/a
535.9845	12.6575	1071969	prompt	n/a	maximum targets conflict deficit\n
537.1355	0.1195	1074271	keystroke	m	n/a
537.24	0.03	1074480	keystroke	a	n/a
537.3455	0.06	1074691	keystroke	c	n/a
537.4505	0.1195	1074901	keystroke	i	n/a
537.6	0.1505	1075200	keystroke	m	n/a
538.0805	0.0745	1076161	keystroke	u	n/a
538.29	0.0905	1076580	keystroke	m	n/a
538.4105	0.0745	1076821	keystroke	Key.space	n/a
538.65	0.0755	1077300	keystroke	t	n/a
538.7705	0.1355	1077541	keystroke	a	n/a
538.8755	0.105	1077751	keystroke	r	n/a
539.1305	0.09	1078261	keystroke	g	n/a
539.2705	0.0845	1078541	keystroke	e	n/a
539.37	0.1505	1078740	keystroke	t	n/a
539.5355	0.0595	1079071	keystroke	Key.space	n/a
539.6255	0.12	1079251	keystroke	s	n/a
540.8105	0.0595	1081621	keystroke	Key.backspace	n/a
540.9605	0.06	1081921	keystroke	Key.backspace	n/a
541.126	0.074	1082252	keystroke	Key.backspace	n/a
541.3655	0.015	1082731	keystroke	Key.backspace	n/a
541.4405	0.09	1082881	keystroke	Key.backspace	n/a
541.6355	0.06	1083271	keystroke	Key.backspace	n/a
541.8155	0.0755	1083631	keystroke	Key.backspace	n/a
542.0105	0.075	1084021	keystroke	Key.backspace	n/a
542.1905	0.09	1084381	keystroke	Key.backspace	n/a
542.4	0.0755	1084800	keystroke	Key.backspace	n/a
542.7005	0.0895	1085401	keystroke	x	n/a
542.851	0.104	1085702	keystroke	i	n/a
543.1055	0.09	1086211	keystroke	m	n/a
543.316	0.0745	1086632	keystroke	u	n/a
543.525	0.075	1087050	keystroke	m	n/a
543.631	0.1045	1087262	keystroke	Key.space	n/a
543.9305	0.09	1087861	keystroke	t	n/a
544.065	0.1505	1088130	keystroke	a	n/a
544.2005	0.165	1088401	keystroke	r	n/a
544.6205	0.0895	1089241	keystroke	g	n/a
544.8005	0.106	1089601	keystroke	e	n/a
544.9505	0.122	1089901	keystroke	t	n/a
545.1605	0.12	1090321	keystroke	s	n/a
545.2955	0.0895	1090591	keystroke	Key.space	n/a
545.54	0.0705	1091080	keystroke	c	n/a
545.6255	0.12	1091251	keystroke	o	n/a
545.707	0.1135	1091414	keystroke	n	n/a
545.841	0.0845	1091682	keystroke	f	n/a
545.985	0.1655	1091970	keystroke	l	n/a
546.0755	0.135	1092151	keystroke	i	n/a
546.54	0.1205	1093080	keystroke	c	n/a
546.7205	0.1345	1093441	keystroke	t	n/a
546.8405	0.09	1093681	keystroke	Key.space	n/a
547.0655	0.06	1094131	keystroke	d	n/a
547.2305	0.075	1094461	keystroke	e	n/a
547.4105	0.0745	1094821	keystroke	f	n/a
547.5305	0.09	1095061	keystroke	i	n/a
547.6955	0.0745	1095391	keystroke	c	n/a
548.13	0.0755	1096260	keystroke	i	n/a
548.3255	0.09	1096651	keystroke	t	n/a
548.5805	0.06	1097161	keystroke	Key.enter	n/a
548.645	4.753	1097290	prompt	n/a	since work screens thru\n
549.556	0.0895	1099112	keystroke	s	n/a
549.66	0.093	1099320	keystroke	i	n/a
549.7205	0.12	1099441	keystroke	n	n/a
549.8855	0.09	1099771	keystroke	c	n/a
550.0955	0.0595	1100191	keystroke	e	n/a
550.185	0.1505	1100370	keystroke	Key.space	n/a
550.455	0.0905	1100910	keystroke	w	n/a
550.561	0.0895	1101122	keystroke	o	n/a
550.6655	0.0895	1101331	keystroke	r	n/a
550.785	0.0915	1101570	keystroke	k	n/a
550.9205	0.122	1101841	keystroke	Key.space	n/a
551.1755	0.09	1102351	keystroke	s	n/a
551.385	0.0755	1102770	keystroke	c	n/a
551.5805	0.1045	1103161	keystroke	r	n/a
551.7155	0.09	1103431	keystroke	e	n/a
551.895	0.075	1103790	keystroke	e	n/a
552.0755	0.09	1104151	keystroke	n	n/a
552.1955	0.0895	1104391	keystroke	s	n/a
552.33	0.1505	1104660	keystroke	Key.space	n/a
552.585	0.0905	1105170	keystroke	t	n/a
552.6905	0.0765	1105381	keystroke	h	n/a
552.8255	0.0755	1105651	keystroke	r	n/a
553.02	0.0795	1106040	keystroke	u	n/a
553.3055	0.0915	1106611	keystroke	Key.enter	n/a
553.4005	6.266	1106801	prompt	n/a	swingers record zope rights\n
554.295	0.105	1108590	keystroke	s	n/a
554.5055	0.105	1109011	keystroke	w	n/a
554.6565	0.149	1109313	keystroke	i	n/a
554.8235	0.1015	1109647	keystroke	n	n/a
555.0755	0.09	1110151	keystroke	g	n/a
555.2865	0.119	1110573	keystroke	e	n/a
555.3905	0.075	1110781	keystroke	r	n/a
555.57	0.1355	1111140	keystroke	s	n/a
555.721	0.0745	1111442	keystroke	Key.space	n/a
556.0835	0.1325	1112167	keystroke	r	n/a
556.185	0.0905	1112370	keystroke	e	n/a
556.4255	0.0595	1112851	keystroke	c	n/a
556.5605	0.09	1113121	keystroke	o	n/a
556.635	0.165	1113270	keystroke	r	n/a
556.7405	0.12	1113481	keystroke	d	n/a
556.9505	0.15	1113901	keystroke	Key.space	n/a
557.4605	0.15	1114921	keystroke	z	n/a
557.67	0.1505	1115340	keystroke	o	n/a
557.955	0.105	1115910	keystroke	p	n/a
558.107	0.1035	1116214	keystroke	e	n/a
558.2405	0.1345	1116481	keystroke	Key.space	n/a
558.78	0.105	1117560	keystroke	r	n/a
558.9025	0.0735	1117805	keystroke	i	n/a
559.0055	0.075	1118011	keystroke	g	n/a
559.1105	0.0745	1118221	keystroke	h	n/a
559.1855	0.075	1118371	keystroke	t	n/a
559.3205	0.1195	1118641	keystroke	s	n/a
559.5755	0.09	1119151	keystroke	Key.enter	n/a
559.6695	8.8615	1119339	prompt	n/a	breeds rebound practitioner appointments\n
560.8805	0.06	1121761	keystroke	b	n/a
561.064	0.0865	1122128	keystroke	r	n/a
561.1805	0.1045	1122361	keystroke	e	n/a
561.3605	0.12	1122721	keystroke	e	n/a
561.6155	0.09	1123231	keystroke	d	n/a
561.7355	0.153	1123471	keystroke	s	n/a
561.9	0.153	1123800	keystroke	Key.space	n/a
562.17	0.1205	1124340	keystroke	r	n/a
562.2605	0.1045	1124521	keystroke	e	n/a
562.5905	0.06	1125181	keystroke	b	n/a
562.6955	0.122	1125391	keystroke	o	n/a
562.7855	0.1345	1125571	keystroke	u	n/a
563.0405	0.075	1126081	keystroke	n	n/a
563.1305	0.105	1126261	keystroke	d	n/a
563.313	0.1175	1126626	keystroke	Key.space	n/a
563.5805	0.1195	1127161	keystroke	p	n/a
563.7305	0.15	1127461	keystroke	r	n/a
563.895	0.105	1127790	keystroke	a	n/a
564.1815	0.0735	1128363	keystroke	c	n/a
564.3905	0.09	1128781	keystroke	t	n/a
564.585	0.1265	1129170	keystroke	i	n/a
564.9605	0.09	1129921	keystroke	c	n/a
565.3205	0.0755	1130641	keystroke	Key.backspace	n/a
565.4705	0.075	1130941	keystroke	t	n/a
565.5905	0.1645	1131181	keystroke	i	n/a
565.7405	0.12	1131481	keystroke	o	n/a
565.83	0.12	1131660	keystroke	n	n/a
566.0405	0.12	1132081	keystroke	e	n/a
566.116	0.1045	1132232	keystroke	r	n/a
566.3105	0.1205	1132621	keystroke	Key.space	n/a
566.7635	0.087	1133527	keystroke	a	n/a
566.9555	0.075	1133911	keystroke	p	n/a
567.105	0.0905	1134210	keystroke	p	n/a
567.1505	0.165	1134301	keystroke	o	n/a
567.2855	0.15	1134571	keystroke	i	n/a
567.4205	0.105	1134841	keystroke	n	n/a
567.585	0.106	1135170	keystroke	t	n/a
567.7955	0.0745	1135591	keystroke	m	n/a
567.859	0.0715	1135718	keystroke	e	n/a
567.9905	0.09	1135981	keystroke	n	n/a
568.0955	0.1195	1136191	keystroke	t	n/a
568.2	0.1055	1136400	keystroke	s	n/a
568.441	0.089	1136882	keystroke	Key.enter	n/a
568.535	8.2015	1137070	prompt	n/a	associate consulting governing depending\n
569.3105	0.0745	1138621	keystroke	a	n/a
569.521	0.1195	1139042	keystroke	s	n/a
569.7	0.1055	1139400	keystroke	s	n/a
569.8505	0.1045	1139701	keystroke	o	n/a
570.0455	0.09	1140091	keystroke	c	n/a
570.195	0.105	1140390	keystroke	i	n/a
570.4505	0.1045	1140901	keystroke	a	n/a
570.661	0.1045	1141322	keystroke	t	n/a
570.7205	0.1345	1141441	keystroke	e	n/a
570.885	0.1225	1141770	keystroke	Key.space	n/a
571.173	0.0575	1142346	keystroke	c	n/a
571.2905	0.1645	1142581	keystroke	o	n/a
571.3805	0.166	1142761	keystroke	n	n/a
571.6205	0.12	1143241	keystroke	s	n/a
571.8	0.0905	1143600	keystroke	u	n/a
572.0255	0.12	1144051	keystroke	l	n/a
572.269	0.0715	1144538	keystroke	t	n/a
572.37	0.1205	1144740	keystroke	i	n/a
572.581	0.104	1145162	keystroke	n	n/a
572.7	0.135	1145400	keystroke	g	n/a
572.8055	0.12	1145611	keystroke	Key.space	n/a
573.2405	0.105	1146481	keystroke	g	n/a
573.4355	0.0925	1146871	keystroke	o	n/a
573.69	0.1205	1147380	keystroke	v	n/a
573.885	0.1205	1147770	keystroke	e	n/a
573.992	0.1185	1147984	keystroke	r	n/a
574.2455	0.09	1148491	keystroke	n	n/a
574.485	0.0905	1148970	keystroke	i	n/a
574.591	0.0895	1149182	keystroke	n	n/a
574.8005	0.105	1149601	keystroke	g	n/a
574.935	0.105	1149870	keystroke	Key.space	n/a
575.1455	0.09	1150291	keystroke	d	n/a
575.3255	0.093	1150651	keystroke	e	n/a
575.67	0.1205	1151340	keystroke	p	n/a
575.8355	0.09	1151671	keystroke	e	n/a
575.9865	0.104	1151973	keystroke	n	n/a
576.1055	0.09	1152211	keystroke	d	n/a
576.2405	0.1105	1152481	keystroke	i	n/a
576.331	0.0745	1152662	keystroke	n	n/a
576.4505	0.075	1152901	keystroke	g	n/a
576.6605	0.075	1153321	keystroke	Key.enter	n/a
576.7395	9.0885	1153479	prompt	n/a	rose card professionals rehabilitation\n
577.613	0.0975	1155226	keystroke	r	n/a
577.6955	0.1045	1155391	keystroke	o	n/a
577.8305	0.1645	1155661	keystroke	s	n/a
577.89	0.152	1155780	keystroke	e	n/a
578.085	0.1265	1156170	keystroke	Key.space	n/a
578.344	0.1015	1156688	keystroke	c	n/a
578.4605	0.105	1156921	keystroke	a	n/a
578.5505	0.1345	1157101	keystroke	r	n/a
578.674	0.1015	1157348	keystroke	d	n/a
578.82	0.1055	1157640	keystroke	Key.space	n/a
579.4805	0.1045	1158961	keystroke	p	n/a
579.5705	0.1045	1159141	keystroke	r	n/a
579.7355	0.105	1159471	keystroke	o	n/a
580.0655	0.0895	1160131	keystroke	f	n/a
580.53	0.091	1161060	keystroke	e	n/a
580.9055	0.105	1161811	keystroke	s	n/a
581.085	0.09	1162170	keystroke	s	n/a
581.2505	0.18	1162501	keystroke	i	n/a
581.326	0.1345	1162652	keystroke	o	n/a
581.4005	0.1345	1162801	keystroke	n	n/a
581.5505	0.09	1163101	keystroke	a	n/a
581.6555	0.075	1163311	keystroke	l	n/a
581.805	0.1205	1163610	keystroke	s	n/a
581.9855	0.12	1163971	keystroke	Key.space	n/a
582.27	0.106	1164540	keystroke	r	n/a
582.3305	0.105	1164661	keystroke	e	n/a
582.5255	0.09	1165051	keystroke	h	n/a
582.6305	0.0895	1165261	keystroke	a	n/a
582.87	0.0765	1165740	keystroke	b	n/a
582.9755	0.105	1165951	keystroke	i	n/a
583.2	0.1205	1166400	keystroke	l	n/a
583.2795	0.116	1166559	keystroke	i	n/a
583.8155	0.075	1167631	keystroke	t	n/a
583.908	0.1175	1167816	keystroke	a	n/a
584.07	0.0905	1168140	keystroke	t	n/a
584.1755	0.15	1168351	keystroke	i	n/a
584.3105	0.1195	1168621	keystroke	n	n/a
585.212	0.044	1170424	keystroke	Key.backspace	n/a
585.422	0.105	1170844	keystroke	o	n/a
585.482	0.1045	1170964	keystroke	n	n/a
585.7525	0.075	1171505	keystroke	Key.enter	n/a
585.831	5.238	1171662	prompt	n/a	arrival wiley royalty cast\n
586.5785	0.12	1173157	keystroke	a	n/a
586.758	0.1055	1173516	keystroke	r	n/a
586.9385	0.091	1173877	keystroke	r	n/a
587.0295	0.0895	1174059	keystroke	i	n/a
587.179	0.075	1174358	keystroke	v	n/a
587.299	0.105	1174598	keystroke	a	n/a
587.528	0.0865	1175056	keystroke	l	n/a
587.6605	0.089	1175321	keystroke	Key.space	n/a
