onset	duration	sample	value	key	prompt_text
29.106	0.1495	58212	keystroke_v	v	n/a
29.2255	0.0895	58451	keystroke_i	i	n/a
29.315	0.1205	58630	keystroke_s	s	n/a
29.4205	0.06	58841	keystroke_h	h	n/a
31.91	0.2415	63820	keystroke_Key.cmd	Key.cmd	n/a
32.0305	0.105	64061	keystroke_v	v	n/a
32.7655	0.1495	65531	keystroke_a	a	n/a
32.9305	0.18	65861	keystroke_x	x	n/a
38.0005	0.27	76001	keystroke_Key.cmd	Key.cmd	n/a
38.0905	0.135	76181	keystroke_c	c	n/a
39.5155	0.225	79031	keystroke_Key.cmd	Key.cmd	n/a
39.6205	0.105	79241	keystroke_v	v	n/a
48.4105	0.0755	96821	keystroke_Key.space	Key.space	n/a
48.5195	6.0885	97039	prompt	n/a	the quick brown fox jumps over a lazy dog\n
49.401	0.12	98802	keystroke_t	t	n/a
49.4605	0.121	98921	keystroke_h	h	n/a
49.581	0.135	99162	keystroke_e	e	n/a
49.6715	0.134	99343	keystroke_Key.space	Key.space	n/a
49.791	0.135	99582	keystroke_q	q	n/a
49.9105	0.091	99821	keystroke_u	u	n/a
49.9415	0.0895	99883	keystroke_i	i	n/a
50.016	0.165	100032	keystroke_c	c	n/a
50.136	0.135	100272	keystroke_k	k	n/a
50.196	0.135	100392	keystroke_Key.space	Key.space	n/a
50.286	0.0895	100572	keystroke_b	b	n/a
50.511	0.12	101022	keystroke_r	r	n/a
50.5865	0.12	101173	keystroke_o	o	n/a
50.691	0.1195	101382	keystroke_w	w	n/a
50.7955	0.106	101591	keystroke_n	n	n/a
50.841	0.12	101682	keystroke_Key.space	Key.space	n/a
51.0365	0.1195	102073	keystroke_f	f	n/a
51.1715	0.1195	102343	keystroke_o	o	n/a
51.2755	0.151	102551	keystroke_x	x	n/a
51.4105	0.091	102821	keystroke_Key.space	Key.space	n/a
51.6355	0.0605	103271	keystroke_j	j	n/a
51.786	0.105	103572	keystroke_u	u	n/a
52.041	0.09	104082	keystroke_m	m	n/a
52.0565	0.1495	104113	keystroke_p	p	n/a
52.146	0.1645	104292	keystroke_s	s	n/a
52.191	0.1345	104382	keystroke_Key.space	Key.space	n/a
52.3405	0.1655	104681	keystroke_o	o	n/a
52.521	0.12	105042	keystroke_v	v	n/a
52.686	0.165	105372	keystroke_e	e	n/a
52.761	0.1345	105522	keystroke_r	r	n/a
52.821	0.1195	105642	keystroke_Key.space	Key.space	n/a
53.1955	0.15	106391	keystroke_a	a	n/a
53.3005	0.1055	106601	keystroke_Key.space	Key.space	n/a
53.421	0.18	106842	keystroke_l	l	n/a
53.586	0.045	107172	keystroke_a	a	n/a
53.766	0.1505	107532	keystroke_z	z	n/a
53.8265	0.1195	107653	keystroke_y	y	n/a
53.931	0.075	107862	keystroke_Key.space	Key.space	n/a
54.201	0.12	108402	keystroke_d	d	n/a
54.276	0.0895	108552	keystroke_o	o	n/a
54.4115	0.1045	108823	keystroke_g	g	n/a
54.531	0.0745	109062	keystroke_Key.enter	Key.enter	n/a
54.6125	5.5005	109225	prompt	n/a	anymore nato geometry missouri\n
55.326	0.165	110652	keystroke_a	a	n/a
55.431	0.0445	110862	keystroke_n	n	n/a
55.6415	0.015	111283	keystroke_y	y	n/a
55.761	0.1195	111522	keystroke_m	m	n/a
55.7915	0.1495	111583	keystroke_o	o	n/a
55.911	0.1345	111822	keystroke_r	r	n/a
55.956	0.1355	111912	keystroke_e	e	n/a
56.0305	0.1055	112061	keystroke_Key.space	Key.space	n/a
56.211	0.105	112422	keystroke_n	n	n/a
56.3015	0.1195	112603	keystroke_a	a	n/a
56.4055	0.1505	112811	keystroke_t	t	n/a
56.526	0.135	113052	keystroke_o	o	n/a
56.631	0.15	113262	keystroke_Key.space	Key.space	n/a
56.9465	0.1045	113893	keystroke_g	g	n/a
57.066	0.1505	114132	keystroke_e	e	n/a
57.2015	0.119	114403	keystroke_o	o	n/a
57.441	0.09	114882	keystroke_g	g	n/a
57.891	0.0745	115782	keystroke_Key.backspace	Key.backspace	n/a
58.0855	0.1055	116171	keystroke_m	m	n/a
58.146	0.1495	116292	keystroke_e	e	n/a
58.281	0.076	116562	keystroke_t	t	n/a
58.476	0.1045	116952	keystroke_r	r	n/a
58.5505	0.0905	117101	keystroke_y	y	n/a
58.626	0.06	117252	keystroke_Key.space	Key.space	n/a
58.836	0.135	117672	keystroke_m	m	n/a
58.9265	0.1195	117853	keystroke_i	i	n/a
59.0315	0.06	118063	keystroke_s	s	n/a
59.196	0.12	118392	keystroke_s	s	n/a
59.331	0.18	118662	keystroke_o	o	n/a
59.481	0.105	118962	keystroke_u	u	n/a
59.751	0.1505	119502	keystroke_r	r	n/a
59.826	0.0905	119652	keystroke_i	i	n/a
60.037	0.074	120074	keystroke_Key.enter	Key.enter	n/a
60.116	4.5265	120232	prompt	n/a	feature avoid reveal desire\n
60.7715	0.15	121543	keystroke_f	f	n/a
60.8765	0.1345	121753	keystroke_e	e	n/a
60.936	0.135	121872	keystroke_a	a	n/a
61.0565	0.075	122113	keystroke_t	t	n/a
61.1165	0.075	122233	keystroke_u	u	n/a
61.221	0.135	122442	keystroke_r	r	n/a
61.266	0.105	122532	keystroke_e	e	n/a
61.3415	0.1345	122683	keystroke_Key.space	Key.space	n/a
61.4615	0.1195	122923	keystroke_a	a	n/a
61.5815	0.1345	123163	keystroke_v	v	n/a
61.6265	0.15	123253	keystroke_o	o	n/a
61.7015	0.12	123403	keystroke_i	i	n/a
61.7615	0.1195	123523	keystroke_d	d	n/a
61.866	0.1055	123732	keystroke_Key.space	Key.space	n/a
62.1065	0.211	124213	keystroke_r	r	n/a
62.3015	0.09	124603	keystroke_e	e	n/a
62.4065	0.15	124813	keystroke_l	l	n/a
62.5415	0.0895	125083	keystroke_e	e	n/a
62.8865	0.09	125773	keystroke_Key.backspace	Key.backspace	n/a
63.081	0.1055	126162	keystroke_Key.backspace	Key.backspace	n/a
63.2315	0.1495	126463	keystroke_v	v	n/a
63.306	0.1505	126612	keystroke_e	e	n/a
63.396	0.1505	126792	keystroke_a	a	n/a
63.4115	0.15	126823	keystroke_l	l	n/a
63.5315	0.1045	127063	keystroke_Key.space	Key.space	n/a
63.8915	0.0595	127783	keystroke_d	d	n/a
64.0415	0.09	128083	keystroke_e	e	n/a
64.1615	0.1495	128323	keystroke_s	s	n/a
64.3265	0.0895	128653	keystroke_i	i	n/a
64.401	0.135	128802	keystroke_r	r	n/a
64.461	0.1355	128922	keystroke_e	e	n/a
64.551	0.09	129102	keystroke_Key.enter	Key.enter	n/a
64.6455	4.6925	129291	prompt	n/a	troops vendors sony slide\n
65.376	0.075	130752	keystroke_t	t	n/a
65.556	0.0905	131112	keystroke_r	r	n/a
65.6315	0.09	131263	keystroke_o	o	n/a
66.1565	0.075	132313	keystroke_o	o	n/a
66.7565	0.1795	133513	keystroke_p	p	n/a
66.9215	0.09	133843	keystroke_s	s	n/a
67.026	0.1055	134052	keystroke_Key.space	Key.space	n/a
67.236	0.0755	134472	keystroke_v	v	n/a
67.3265	0.075	134653	keystroke_e	e	n/a
67.3715	0.105	134743	keystroke_n	n	n/a
67.536	0.1205	135072	keystroke_d	d	n/a
67.626	0.1205	135252	keystroke_o	o	n/a
67.761	0.166	135522	keystroke_r	r	n/a
67.866	0.1355	135732	keystroke_s	s	n/a
67.9715	0.105	135943	keystroke_Key.space	Key.space	n/a
68.136	0.181	136272	keystroke_s	s	n/a
68.226	0.1355	136452	keystroke_o	o	n/a
68.331	0.0755	136662	keystroke_n	n	n/a
68.5565	0.09	137113	keystroke_y	y	n/a
68.6315	0.1195	137263	keystroke_Key.space	Key.space	n/a
68.767	0.119	137534	keystroke_s	s	n/a
68.841	0.1655	137682	keystroke_l	l	n/a
68.9175	0.1335	137835	keystroke_i	i	n/a
68.9915	0.09	137983	keystroke_d	d	n/a
69.1565	0.105	138313	keystroke_e	e	n/a
69.2465	0.0895	138493	keystroke_Key.enter	Key.enter	n/a
69.341	4.753	138682	prompt	n/a	biol arcade robert ain't\n
70.146	0.1505	140292	keystroke_b	b	n/a
70.206	0.1505	140412	keystroke_i	i	n/a
70.2815	0.12	140563	keystroke_o	o	n/a
70.5065	0.15	141013	keystroke_l	l	n/a
71.0615	0.18	142123	keystroke_Key.space	Key.space	n/a
71.256	0.15	142512	keystroke_a	a	n/a
71.3615	0.0595	142723	keystroke_r	r	n/a
71.5415	0.12	143083	keystroke_c	c	n/a
71.6765	0.135	143353	keystroke_a	a	n/a
71.7965	0.1215	143593	keystroke_d	d	n/a
72.006	0.0905	144012	keystroke_e	e	n/a
72.0965	0.1205	144193	keystroke_Key.space	Key.space	n/a
72.321	0.1205	144642	keystroke_r	r	n/a
72.427	0.1495	144854	keystroke_o	o	n/a
72.5465	0.0895	145093	keystroke_b	b	n/a
72.681	0.1505	145362	keystroke_e	e	n/a
72.7865	0.075	145573	keystroke_r	r	n/a
72.9965	0.0595	145993	keystroke_t	t	n/a
73.0415	0.12	146083	keystroke_Key.space	Key.space	n/a
73.1765	0.1645	146353	keystroke_a	a	n/a
73.326	0.1505	146652	keystroke_i	i	n/a
73.3865	0.1345	146773	keystroke_n	n	n/a
73.6265	0.135	147253	keystroke_'	'	n/a
73.7765	0.15	147553	keystroke_t	t	n/a
73.9565	0.1355	147913	keystroke_Key.enter	Key.enter	n/a
74.098	5.4555	148196	prompt	n/a	locally soldier equity functioning\n
74.9315	0.06	149863	keystroke_l	l	n/a
75.1115	0.06	150223	keystroke_o	o	n/a
75.1565	0.1795	150313	keystroke_c	c	n/a
75.261	0.1505	150522	keystroke_a	a	n/a
75.321	0.0465	150642	keystroke_l	l	n/a
75.518	0.103	151036	keystroke_l	l	n/a
75.5765	0.135	151153	keystroke_y	y	n/a
75.669	0.1485	151338	keystroke_Key.space	Key.space	n/a
76.1615	0.135	152323	keystroke_s	s	n/a
76.236	0.0755	152472	keystroke_o	o	n/a
76.4315	0.105	152863	keystroke_l	l	n/a
76.716	0.1355	153432	keystroke_d	d	n/a
76.806	0.1055	153612	keystroke_i	i	n/a
76.926	0.165	153852	keystroke_e	e	n/a
77.0015	0.1045	154003	keystroke_r	r	n/a
77.0765	0.0895	154153	keystroke_Key.space	Key.space	n/a
77.2865	0.1345	154573	keystroke_e	e	n/a
77.4965	0.1205	154993	keystroke_q	q	n/a
77.647	0.1345	155294	keystroke_u	u	n/a
77.6915	0.1345	155383	keystroke_i	i	n/a
77.8265	0.15	155653	keystroke_t	t	n/a
77.962	0.074	155924	keystroke_y	y	n/a
78.006	0.1055	156012	keystroke_Key.space	Key.space	n/a
78.2015	0.1195	156403	keystroke_f	f	n/a
78.262	0.0745	156524	keystroke_u	u	n/a
78.4715	0.105	156943	keystroke_n	n	n/a
78.5465	0.105	157093	keystroke_c	c	n/a
78.741	0.1355	157482	keystroke_t	t	n/a
78.8015	0.1345	157603	keystroke_i	i	n/a
78.891	0.1355	157782	keystroke_o	o	n/a
79.042	0.135	158084	keystroke_n	n	n/a
79.1615	0.1345	158323	keystroke_i	i	n/a
79.252	0.1045	158504	keystroke_n	n	n/a
79.3415	0.135	158683	keystroke_g	g	n/a
79.477	0.0745	158954	keystroke_Key.enter	Key.enter	n/a
79.5585	4.419	159117	prompt	n/a	discussed leonard photo dept\n
80.3015	0.06	160603	keystroke_d	d	n/a
80.346	0.121	160692	keystroke_i	i	n/a
80.4515	0.0895	160903	keystroke_s	s	n/a
80.617	0.089	161234	keystroke_c	c	n/a
80.6915	0.105	161383	keystroke_u	u	n/a
80.7815	0.09	161563	keystroke_s	s	n/a
80.9465	0.1655	161893	keystroke_s	s	n/a
81.067	0.0895	162134	keystroke_e	e	n/a
81.2615	0.09	162523	keystroke_d	d	n/a
81.3365	0.1195	162673	keystroke_Key.space	Key.space	n/a
81.4715	0.1045	162943	keystroke_l	l	n/a
81.5465	0.1345	163093	keystroke_e	e	n/a
81.7715	0.09	163543	keystroke_o	o	n/a
81.981	0.0905	163962	keystroke_n	n	n/a
82.0565	0.15	164113	keystroke_a	a	n/a
82.1615	0.09	164323	keystroke_r	r	n/a
82.3265	0.135	164653	keystroke_d	d	n/a
82.476	0.075	164952	keystroke_Key.space	Key.space	n/a
82.5965	0.1355	165193	keystroke_p	p	n/a
82.6865	0.15	165373	keystroke_h	h	n/a
82.776	0.091	165552	keystroke_o	o	n/a
82.9265	0.12	165853	keystroke_t	t	n/a
82.971	0.135	165942	keystroke_o	o	n/a
83.091	0.1205	166182	keystroke_Key.space	Key.space	n/a
83.3175	0.0585	166635	keystroke_d	d	n/a
83.467	0.1195	166934	keystroke_e	e	n/a
83.5715	0.09	167143	keystroke_p	p	n/a
83.676	0.1205	167352	keystroke_t	t	n/a
83.8565	0.1195	167713	keystroke_Key.enter	Key.enter	n/a
83.9805	9.013	167961	prompt	n/a	psychological herb stephen constructed\n
84.7865	0.0895	169573	keystroke_p	p	n/a
85.1175	0.119	170235	keystroke_s	s	n/a
85.1915	0.06	170383	keystroke_h	h	n/a
85.6115	0.1055	171223	keystroke_Key.backspace	Key.backspace	n/a
85.8515	0.075	171703	keystroke_y	y	n/a
86.047	0.165	172094	keystroke_c	c	n/a
86.376	0.1055	172752	keystroke_h	h	n/a
86.4515	0.0905	172903	keystroke_o	o	n/a
86.662	0.074	173324	keystroke_l	l	n/a
86.857	0.0605	173714	keystroke_o	o	n/a
87.0065	0.075	174013	keystroke_d	d	n/a
87.3675	0.0745	174735	keystroke_Key.backspace	Key.backspace	n/a
87.457	0.1195	174914	keystroke_g	g	n/a
87.562	0.09	175124	keystroke_i	i	n/a
87.652	0.1655	175304	keystroke_c	c	n/a
87.757	0.165	175514	keystroke_a	a	n/a
87.802	0.1345	175604	keystroke_l	l	n/a
87.9065	0.135	175813	keystroke_Key.space	Key.space	n/a
88.1765	0.1205	176353	keystroke_h	h	n/a
88.3865	0.1655	176773	keystroke_e	e	n/a
88.507	0.06	177014	keystroke_r	r	n/a
88.6715	0.12	177343	keystroke_b	b	n/a
88.7765	0.0755	177553	keystroke_Key.space	Key.space	n/a
89.152	0.1345	178304	keystroke_s	s	n/a
89.2715	0.1505	178543	keystroke_t	t	n/a
89.347	0.105	178694	keystroke_e	e	n/a
89.467	0.1795	178934	keystroke_p	p	n/a
89.602	0.0745	179204	keystroke_h	h	n/a
89.6615	0.181	179323	keystroke_e	e	n/a
89.827	0.1195	179654	keystroke_n	n	n/a
89.9015	0.1505	179803	keystroke_Key.space	Key.space	n/a
90.427	0.1195	180854	keystroke_c	c	n/a
91.072	0.1495	182144	keystroke_o	o	n/a
91.1465	0.1355	182293	keystroke_n	n	n/a
91.2365	0.1355	182473	keystroke_s	s	n/a
91.327	0.0745	182654	keystroke_t	t	n/a
91.492	0.105	182984	keystroke_r	r	n/a
91.612	0.045	183224	keystroke_i	i	n/a
92.017	0.1195	184034	keystroke_Key.backspace	Key.backspace	n/a
92.212	0.1345	184424	keystroke_u	u	n/a
92.3015	0.1205	184603	keystroke_c	c	n/a
92.4965	0.1205	184993	keystroke_t	t	n/a
92.572	0.1195	185144	keystroke_e	e	n/a
92.827	0.09	185654	keystroke_d	d	n/a
92.902	0.09	185804	keystroke_Key.enter	Key.enter	n/a
92.9965	5.982	185993	prompt	n/a	sought instructions canadian putting\n
93.652	0.135	187304	keystroke_s	s	n/a
93.7265	0.1655	187453	keystroke_o	o	n/a
93.817	0.0895	187634	keystroke_u	u	n/a
93.952	0.135	187904	keystroke_g	g	n/a
94.057	0.0895	188114	keystroke_h	h	n/a
94.1915	0.0905	188383	keystroke_t	t	n/a
94.252	0.1195	188504	keystroke_Key.space	Key.space	n/a
94.417	0.1795	188834	keystroke_i	i	n/a
94.507	0.135	189014	keystroke_n	n	n/a
94.582	0.105	189164	keystroke_s	s	n/a
94.642	0.0595	189284	keystroke_t	t	n/a
94.807	0.105	189614	keystroke_r	r	n/a
94.927	0.0905	189854	keystroke_u	u	n/a
95.0015	0.1355	190003	keystroke_c	c	n/a
95.152	0.1505	190304	keystroke_t	t	n/a
95.257	0.165	190514	keystroke_i	i	n/a
95.302	0.135	190604	keystroke_o	o	n/a
95.3465	0.1205	190693	keystroke_n	n	n/a
95.452	0.12	190904	keystroke_s	s	n/a
95.527	0.1195	191054	keystroke_Key.space	Key.space	n/a
95.722	0.15	191444	keystroke_c	c	n/a
95.827	0.1645	191654	keystroke_a	a	n/a
95.9465	0.1205	191893	keystroke_n	n	n/a
96.082	0.12	192164	keystroke_d	d	n/a
96.2465	0.1205	192493	keystroke_i	i	n/a
96.3215	0.1205	192643	keystroke_a	a	n/a
96.442	0.1345	192884	keystroke_n	n	n/a
96.532	0.12	193064	keystroke_Key.space	Key.space	n/a
96.697	0.1795	193394	keystroke_p	p	n/a
96.817	0.1195	193634	keystroke_u	u	n/a
96.9215	0.1055	193843	keystroke_t	t	n/a
97.102	0.1345	194204	keystroke_t	t	n/a
97.1615	0.225	194323	keystroke_i	i	n/a
97.2815	0.18	194563	keystroke_n	n	n/a
97.432	0.135	194864	keystroke_g	g	n/a
98.8715	0.1055	197743	keystroke_Key.enter	Key.enter	n/a
98.9825	3.791	197965	prompt	n/a	benjamin dept nest nato\n
99.667	0.075	199334	keystroke_b	b	n/a
99.8165	0.1055	199633	keystroke_e	e	n/a
100.027	0.0745	200054	keystroke_n	n	n/a
100.267	0.075	200534	keystroke_j	j	n/a
100.3565	0.1655	200713	keystroke_a	a	n/a
100.537	0.09	201074	keystroke_m	m	n/a
100.642	0.1645	201284	keystroke_i	i	n/a
100.792	0.0755	201584	keystroke_n	n	n/a
100.8515	0.1355	201703	keystroke_Key.space	Key.space	n/a
101.002	0.075	202004	keystroke_d	d	n/a
101.152	0.12	202304	keystroke_e	e	n/a
101.257	0.1045	202514	keystroke_p	p	n/a
101.3465	0.0755	202693	keystroke_t	t	n/a
101.407	0.135	202814	keystroke_Key.space	Key.space	n/a
101.6315	0.1055	203263	keystroke_n	n	n/a
101.662	0.105	203324	keystroke_e	e	n/a
101.812	0.18	203624	keystroke_s	s	n/a
101.9465	0.1055	203893	keystroke_t	t	n/a
102.022	0.105	204044	keystroke_Key.space	Key.space	n/a
102.187	0.12	204374	keystroke_n	n	n/a
102.277	0.12	204554	keystroke_a	a	n/a
102.3815	0.165	204763	keystroke_t	t	n/a
102.472	0.12	204944	keystroke_o	o	n/a
102.682	0.09	205364	keystroke_Key.enter	Key.enter	n/a
102.7765	6.447	205553	prompt	n/a	flows bulgaria thereafter continental\n
103.5515	0.15	207103	keystroke_f	f	n/a
103.6415	0.0455	207283	keystroke_l	l	n/a
103.792	0.1195	207584	keystroke_o	o	n/a
103.837	0.0895	207674	keystroke_w	w	n/a
104.062	0.12	208124	keystroke_s	s	n/a
104.137	0.105	208274	keystroke_Key.space	Key.space	n/a
104.527	0.135	209054	keystroke_b	b	n/a
104.6175	0.1045	209235	keystroke_u	u	n/a
104.6775	0.1495	209355	keystroke_l	l	n/a
104.812	0.1345	209624	keystroke_g	g	n/a
104.9315	0.136	209863	keystroke_a	a	n/a
105.142	0.1195	210284	keystroke_r	r	n/a
105.2465	0.0905	210493	keystroke_i	i	n/a
105.352	0.09	210704	keystroke_a	a	n/a
105.4865	0.1205	210973	keystroke_Key.space	Key.space	n/a
105.622	0.135	211244	keystroke_t	t	n/a
105.772	0.1045	211544	keystroke_h	h	n/a
105.907	0.09	211814	keystroke_e	e	n/a
106.1165	0.1205	212233	keystroke_r	r	n/a
106.192	0.15	212384	keystroke_e	e	n/a
106.642	0.1345	213284	keystroke_a	a	n/a
106.9425	0.1045	213885	keystroke_f	f	n/a
107.1215	0.0755	214243	keystroke_t	t	n/a
107.242	0.15	214484	keystroke_e	e	n/a
107.3165	0.1055	214633	keystroke_r	r	n/a
107.407	0.12	214814	keystroke_Key.space	Key.space	n/a
107.572	0.1795	215144	keystroke_c	c	n/a
107.677	0.15	215354	keystroke_o	o	n/a
107.767	0.1045	215534	keystroke_n	n	n/a
108.2015	0.1205	216403	keystroke_t	t	n/a
108.292	0.0895	216584	keystroke_i	i	n/a
108.4865	0.0755	216973	keystroke_n	n	n/a
108.577	0.135	217154	keystroke_e	e	n/a
108.667	0.1195	217334	keystroke_n	n	n/a
108.772	0.12	217544	keystroke_t	t	n/a
108.8315	0.1655	217663	keystroke_a	a	n/a
108.937	0.105	217874	keystroke_l	l	n/a
109.1165	0.1055	218233	keystroke_Key.enter	Key.enter	n/a
109.2265	6.552	218453	prompt	n/a	centre suspended auckland verde\n
109.987	0.06	219974	keystroke_c	c	n/a
110.137	0.135	220274	keystroke_e	e	n/a
110.2425	0.1195	220485	keystroke_n	n	n/a
110.317	0.075	220634	keystroke_t	t	n/a
110.497	0.165	220994	keystroke_r	r	n/a
110.542	0.15	221084	keystroke_e	e	n/a
110.677	0.1345	221354	keystroke_Key.space	Key.space	n/a
111.142	0.105	222284	keystroke_c	c	n/a
111.457	0.1195	222914	keystroke_Key.backspace	Key.backspace	n/a
111.5465	0.1055	223093	keystroke_s	s	n/a
111.697	0.105	223394	keystroke_u	u	n/a
111.787	0.135	223574	keystroke_s	s	n/a
112.057	0.09	224114	keystroke_p	p	n/a
112.117	0.1205	224234	keystroke_e	e	n/a
112.312	0.1045	224624	keystroke_n	n	n/a
112.612	0.0745	225224	keystroke_d	d	n/a
112.762	0.0755	225524	keystroke_e	e	n/a
112.942	0.105	225884	keystroke_d	d	n/a
113.0475	0.0895	226095	keystroke_Key.space	Key.space	n/a
113.152	0.1345	226304	keystroke_a	a	n/a
113.257	0.0895	226514	keystroke_u	u	n/a
113.3615	0.15	226723	keystroke_c	c	n/a
113.527	0.075	227054	keystroke_k	k	n/a
113.707	0.12	227414	keystroke_l	l	n/a
113.797	0.15	227594	keystroke_a	a	n/a
113.917	0.1345	227834	keystroke_n	n	n/a
113.977	0.1345	227954	keystroke_d	d	n/a
114.127	0.135	228254	keystroke_Key.space	Key.space	n/a
114.337	0.1045	228674	keystroke_v	v	n/a
114.4865	0.1355	228973	keystroke_e	e	n/a
114.562	0.1055	229124	keystroke_r	r	n/a
114.742	0.165	229484	keystroke_t	t	n/a
114.817	0.165	229634	keystroke_e	e	n/a
115.252	0.045	230504	keystroke_Key.backspace	Key.backspace	n/a
115.4015	0.0605	230803	keystroke_Key.backspace	Key.backspace	n/a
115.447	0.075	230894	keystroke_d	d	n/a
115.612	0.12	231224	keystroke_e	e	n/a
115.6715	0.1055	231343	keystroke_Key.enter	Key.enter	n/a
115.7815	10.3915	231563	prompt	n/a	taxation teaches agree speakers\n
116.452	0.135	232904	keystroke_t	t	n/a
116.542	0.105	233084	keystroke_a	a	n/a
116.767	0.045	233534	keystroke_x	x	n/a
116.932	0.1805	233864	keystroke_a	a	n/a
117.262	0.15	234524	keystroke_s	s	n/a
117.4125	0.1345	234825	keystroke_t	t	n/a
117.4715	0.1655	234943	keystroke_i	i	n/a
117.5175	0.1495	235035	keystroke_o	o	n/a
117.592	0.135	235184	keystroke_n	n	n/a
117.6835	0.1635	235367	keystroke_Key.space	Key.space	n/a
117.9225	0.164	235845	keystroke_t	t	n/a
118.027	0.135	236054	keystroke_e	e	n/a
118.117	0.09	236234	keystroke_a	a	n/a
118.402	0.075	236804	keystroke_Key.backspace	Key.backspace	n/a
118.597	0.0445	237194	keystroke_Key.backspace	Key.backspace	n/a
118.732	0.06	237464	keystroke_Key.backspace	Key.backspace	n/a
118.897	0.06	237794	keystroke_Key.backspace	Key.backspace	n/a
119.077	0.0305	238154	keystroke_Key.backspace	Key.backspace	n/a
119.2265	0.045	238453	keystroke_Key.backspace	Key.backspace	n/a
119.407	0.045	238814	keystroke_Key.backspace	Key.backspace	n/a
119.5565	0.077	239113	keystroke_Key.backspace	Key.backspace	n/a
119.767	0.1045	239534	keystroke_t	t	n/a
119.8875	0.224	239775	keystroke_i	i	n/a
119.9475	0.179	239895	keystroke_o	o	n/a
120.037	0.165	240074	keystroke_n	n	n/a
120.172	0.165	240344	keystroke_Key.space	Key.space	n/a
120.712	0.06	241424	keystroke_Key.backspace	Key.backspace	n/a
120.8625	0.0745	241725	keystroke_Key.backspace	Key.backspace	n/a
121.0415	0.0755	242083	keystroke_Key.backspace	Key.backspace	n/a
121.1915	0.075	242383	keystroke_Key.backspace	Key.backspace	n/a
121.357	0.075	242714	keystroke_Key.backspace	Key.backspace	n/a
121.537	0.09	243074	keystroke_Key.backspace	Key.backspace	n/a
122.002	0.12	244004	keystroke_t	t	n/a
122.077	0.1795	244154	keystroke_i	i	n/a
122.137	0.135	244274	keystroke_o	o	n/a
122.212	0.135	244424	keystroke_n	n	n/a
122.287	0.165	244574	keystroke_Key.space	Key.space	n/a
122.587	0.12	245174	keystroke_t	t	n/a
122.662	0.106	245324	keystroke_e	e	n/a
122.752	0.15	245504	keystroke_a	a	n/a
123.0075	0.0745	246015	keystroke_c	c	n/a
123.083	0.119	246166	keystroke_h	h	n/a
123.187	0.135	246374	keystroke_e	e	n/a
123.247	0.15	246494	keystroke_s	s	n/a
123.383	0.0885	246766	keystroke_Key.space	Key.space	n/a
124.147	0.15	248294	keystroke_a	a	n/a
124.283	0.0885	248566	keystroke_g	g	n/a
124.492	0.1345	248984	keystroke_r	r	n/a
124.537	0.1045	249074	keystroke_e	e	n/a
124.7465	0.046	249493	keystroke_e	e	n/a
124.837	0.0895	249674	keystroke_Key.space	Key.space	n/a
124.9125	0.1495	249825	keystroke_s	s	n/a
125.047	0.09	250094	keystroke_p	p	n/a
125.077	0.1205	250154	keystroke_e	e	n/a
125.184	0.1335	250368	keystroke_a	a	n/a
125.6925	0.1795	251385	keystroke_k	k	n/a
125.752	0.165	251504	keystroke_e	e	n/a
125.8565	0.1505	251713	keystroke_r	r	n/a
125.962	0.135	251924	keystroke_s	s	n/a
126.084	0.0875	252168	keystroke_Key.enter	Key.enter	n/a
126.176	6.5085	252352	prompt	n/a	consequently childhood deferred cottage\n
126.9515	0.1355	253903	keystroke_c	c	n/a
127.027	0.15	254054	keystroke_o	o	n/a
127.117	0.15	254234	keystroke_n	n	n/a
127.207	0.18	254414	keystroke_s	s	n/a
127.3265	0.1205	254653	keystroke_e	e	n/a
127.522	0.1195	255044	keystroke_q	q	n/a
127.583	0.0735	255166	keystroke_u	u	n/a
127.702	0.2095	255404	keystroke_e	e	n/a
127.792	0.1345	255584	keystroke_n	n	n/a
127.9415	0.0755	255883	keystroke_t	t	n/a
128.302	0.15	256604	keystroke_l	l	n/a
128.437	0.1195	256874	keystroke_y	y	n/a
128.557	0.076	257114	keystroke_Key.space	Key.space	n/a
128.797	0.136	257594	keystroke_c	c	n/a
128.872	0.09	257744	keystroke_h	h	n/a
128.917	0.135	257834	keystroke_i	i	n/a
129.067	0.1945	258134	keystroke_l	l	n/a
129.247	0.1365	258494	keystroke_d	d	n/a
129.4265	0.1205	258853	keystroke_h	h	n/a
129.637	0.105	259274	keystroke_o	o	n/a
129.8165	0.1205	259633	keystroke_o	o	n/a
129.952	0.1195	259904	keystroke_d	d	n/a
130.057	0.12	260114	keystroke_Key.space	Key.space	n/a
130.297	0.0895	260594	keystroke_d	d	n/a
130.492	0.12	260984	keystroke_e	e	n/a
130.597	0.12	261194	keystroke_f	f	n/a
130.733	0.134	261466	keystroke_e	e	n/a
130.912	0.09	261824	keystroke_r	r	n/a
131.107	0.1195	262214	keystroke_r	r	n/a
131.152	0.1205	262304	keystroke_e	e	n/a
131.377	0.06	262754	keystroke_d	d	n/a
131.4675	0.09	262935	keystroke_Key.space	Key.space	n/a
131.572	0.12	263144	keystroke_c	c	n/a
131.6775	0.0595	263355	keystroke_o	o	n/a
131.8415	0.1055	263683	keystroke_t	t	n/a
132.067	0.135	264134	keystroke_t	t	n/a
132.187	0.135	264374	keystroke_a	a	n/a
132.352	0.195	264704	keystroke_g	g	n/a
132.4425	0.1345	264885	keystroke_e	e	n/a
132.5625	0.1205	265125	keystroke_Key.enter	Key.enter	n/a
132.6875	7.151	265375	prompt	n/a	surgery particularly olympic journalists\n
133.417	0.075	266834	keystroke_s	s	n/a
133.5965	0.0905	267193	keystroke_u	u	n/a
133.6725	0.0895	267345	keystroke_r	r	n/a
133.8675	0.1045	267735	keystroke_g	g	n/a
133.9875	0.1495	267975	keystroke_e	e	n/a
134.107	0.1195	268214	keystroke_r	r	n/a
134.1965	0.09	268393	keystroke_y	y	n/a
134.2725	0.0745	268545	keystroke_Key.space	Key.space	n/a
134.422	0.15	268844	keystroke_p	p	n/a
134.512	0.1215	269024	keystroke_r	r	n/a
134.602	0.1055	269204	keystroke_a	a	n/a
134.933	0.044	269866	keystroke_Key.backspace	Key.backspace	n/a
135.083	0.1045	270166	keystroke_Key.backspace	Key.backspace	n/a
135.187	0.1055	270374	keystroke_a	a	n/a
135.2475	0.0895	270495	keystroke_r	r	n/a
135.5615	0.1355	271123	keystroke_t	t	n/a
135.7115	0.076	271423	keystroke_i	i	n/a
135.847	0.2855	271694	keystroke_c	c	n/a
136.387	0.09	272774	keystroke_u	u	n/a
136.5675	0.1045	273135	keystroke_l	l	n/a
136.6425	0.1495	273285	keystroke_a	a	n/a
136.7175	0.1345	273435	keystroke_r	r	n/a
136.8075	0.1495	273615	keystroke_l	l	n/a
136.942	0.135	273884	keystroke_y	y	n/a
137.018	0.104	274036	keystroke_Key.space	Key.space	n/a
137.3475	0.075	274695	keystroke_o	o	n/a
137.542	0.15	275084	keystroke_l	l	n/a
137.662	0.06	275324	keystroke_y	y	n/a
137.8575	0.0895	275715	keystroke_m	m	n/a
138.0225	0.165	276045	keystroke_p	p	n/a
138.142	0.135	276284	keystroke_i	i	n/a
138.2175	0.1795	276435	keystroke_c	c	n/a
138.383	0.0895	276766	keystroke_Key.space	Key.space	n/a
138.592	0.0745	277184	keystroke_j	j	n/a
138.727	0.15	277454	keystroke_o	o	n/a
138.802	0.105	277604	keystroke_u	u	n/a
138.892	0.1805	277784	keystroke_r	r	n/a
139.057	0.06	278114	keystroke_n	n	n/a
139.1625	0.121	278325	keystroke_a	a	n/a
139.267	0.1505	278534	keystroke_l	l	n/a
139.327	0.1955	278654	keystroke_i	i	n/a
139.372	0.18	278744	keystroke_s	s	n/a
139.537	0.1655	279074	keystroke_t	t	n/a
139.627	0.135	279254	keystroke_s	s	n/a
139.733	0.104	279466	keystroke_Key.enter	Key.enter	n/a
139.8415	4.812	279683	prompt	n/a	midi tournament sellers nevada\n
140.557	0.105	281114	keystroke_m	m	n/a
140.6475	0.0895	281295	keystroke_i	i	n/a
140.902	0.165	281804	keystroke_d	d	n/a
140.9625	0.1345	281925	keystroke_i	i	n/a
141.067	0.1505	282134	keystroke_Key.space	Key.space	n/a
141.412	0.0755	282824	keystroke_t	t	n/a
141.472	0.18	282944	keystroke_o	o	n/a
141.547	0.1355	283094	keystroke_u	u	n/a
141.667	0.06	283334	keystroke_r	r	n/a
141.7725	0.105	283545	keystroke_n	n	n/a
141.922	0.1205	283844	keystroke_a	a	n/a
142.087	0.0755	284174	keystroke_m	m	n/a
142.177	0.15	284354	keystroke_e	e	n/a
142.267	0.12	284534	keystroke_n	n	n/a
142.3725	0.12	284745	keystroke_t	t	n/a
142.4775	0.1195	284955	keystroke_Key.space	Key.space	n/a
142.7625	0.165	285525	keystroke_s	s	n/a
142.867	0.1805	285734	keystroke_e	e	n/a
143.062	0.0755	286124	keystroke_l	l	n/a
143.212	0.121	286424	keystroke_l	l	n/a
143.3175	0.1345	286635	keystroke_e	e	n/a
143.437	0.12	286874	keystroke_r	r	n/a
143.5725	0.105	287145	keystroke_s	s	n/a
143.6625	0.1205	287325	keystroke_Key.space	Key.space	n/a
143.8275	0.12	287655	keystroke_n	n	n/a
143.8725	0.135	287745	keystroke_e	e	n/a
144.052	0.1205	288104	keystroke_v	v	n/a
144.127	0.1805	288254	keystroke_a	a	n/a
144.3975	0.12	288795	keystroke_d	d	n/a
144.472	0.1055	288944	keystroke_a	a	n/a
144.5625	0.0895	289125	keystroke_Key.enter	Key.enter	n/a
144.658	5.786	289316	prompt	n/a	apollo cosmetic debate services\n
145.357	0.1355	290714	keystroke_a	a	n/a
145.4775	0.135	290955	keystroke_p	p	n/a
145.567	0.1505	291134	keystroke_o	o	n/a
145.8075	0.27	291615	keystroke_l	l	n/a
146.3325	0.1045	292665	keystroke_l	l	n/a
146.557	0.1355	293114	keystroke_o	o	n/a
146.647	0.1355	293294	keystroke_Key.space	Key.space	n/a
146.8425	0.135	293685	keystroke_c	c	n/a
146.9325	0.1045	293865	keystroke_o	o	n/a
147.052	0.1805	294104	keystroke_s	s	n/a
147.412	0.1205	294824	keystroke_m	m	n/a
147.5175	0.195	295035	keystroke_e	e	n/a
147.6975	0.105	295395	keystroke_t	t	n/a
147.7875	0.1195	295575	keystroke_i	i	n/a
147.922	0.1355	295844	keystroke_c	c	n/a
148.0425	0.105	296085	keystroke_Key.space	Key.space	n/a
148.3125	0.0745	296625	keystroke_d	d	n/a
148.4625	0.0895	296925	keystroke_e	e	n/a
148.6725	0.12	297345	keystroke_b	b	n/a
148.7775	0.1655	297555	keystroke_a	a	n/a
148.9125	0.1495	297825	keystroke_t	t	n/a
148.9725	0.1495	297945	keystroke_e	e	n/a
149.108	0.134	298216	keystroke_Key.space	Key.space	n/a
149.333	0.1645	298666	keystroke_s	s	n/a
149.422	0.1505	298844	keystroke_e	e	n/a
149.5125	0.09	299025	keystroke_r	r	n/a
149.722	0.105	299444	keystroke_v	v	n/a
149.8125	0.12	299625	keystroke_i	i	n/a
149.9475	0.0595	299895	keystroke_c	c	n/a
150.0975	0.1355	300195	keystroke_e	e	n/a
150.2175	0.1195	300435	keystroke_s	s	n/a
150.3825	0.06	300765	keystroke_Key.enter	Key.enter	n/a
150.447	5.382	300894	prompt	n/a	forty intersection lions immediately\n
151.193	0.119	302386	keystroke_f	f	n/a
151.2975	0.1355	302595	keystroke_o	o	n/a
151.4175	0.06	302835	keystroke_r	r	n/a
151.583	0.135	303166	keystroke_t	t	n/a
151.7025	0.1045	303405	keystroke_y	y	n/a
151.7625	0.12	303525	keystroke_Key.space	Key.space	n/a
151.9425	0.15	303885	keystroke_i	i	n/a
152.0175	0.15	304035	keystroke_n	n	n/a
152.137	0.0755	304274	keystroke_t	t	n/a
152.2575	0.195	304515	keystroke_e	e	n/a
152.407	0.0905	304814	keystroke_r	r	n/a
152.6025	0.1495	305205	keystroke_s	s	n/a
152.6775	0.09	305355	keystroke_e	e	n/a
152.8875	0.1195	305775	keystroke_c	c	n/a
153.052	0.1205	306104	keystroke_t	t	n/a
153.1275	0.15	306255	keystroke_i	i	n/a
153.1875	0.1045	306375	keystroke_o	o	n/a
153.2325	0.1195	306465	keystroke_n	n	n/a
153.307	0.1055	306614	keystroke_Key.space	Key.space	n/a
153.442	0.106	306884	keystroke_l	l	n/a
153.7125	0.15	307425	keystroke_i	i	n/a
153.818	0.1495	307636	keystroke_o	o	n/a
153.907	0.15	307814	keystroke_n	n	n/a
154.0275	0.15	308055	keystroke_s	s	n/a
154.1475	0.105	308295	keystroke_Key.space	Key.space	n/a
154.2675	0.075	308535	keystroke_i	i	n/a
154.4775	0.09	308955	keystroke_m	m	n/a
154.6275	0.09	309255	keystroke_m	m	n/a
154.6875	0.1045	309375	keystroke_e	e	n/a
154.8975	0.165	309795	keystroke_d	d	n/a
154.973	0.0745	309946	keystroke_i	i	n/a
155.1075	0.15	310215	keystroke_a	a	n/a
155.2125	0.1795	310425	keystroke_t	t	n/a
155.288	0.15	310576	keystroke_e	e	n/a
155.3775	0.165	310755	keystroke_l	l	n/a
155.527	0.0755	311054	keystroke_y	y	n/a
155.722	0.1055	311444	keystroke_Key.enter	Key.enter	n/a
155.8345	8.7845	311669	prompt	n/a	identification teacher biography grateful\n
156.5325	0.12	313065	keystroke_i	i	n/a
156.607	0.1205	313214	keystroke_d	d	n/a
156.757	0.1505	313514	keystroke_e	e	n/a
156.862	0.09	313724	keystroke_n	n	n/a
156.9675	0.105	313935	keystroke_t	t	n/a
157.0875	0.09	314175	keystroke_i	i	n/a
157.222	0.1205	314444	keystroke_f	f	n/a
157.3275	0.1195	314655	keystroke_i	i	n/a
158.137	0.1505	316274	keystroke_d	d	n/a
158.3325	0.1345	316665	keystroke_i	i	n/a
158.8725	0.045	317745	keystroke_Key.backspace	Key.backspace	n/a
159.0225	0.105	318045	keystroke_Key.backspace	Key.backspace	n/a
159.3225	0.165	318645	keystroke_c	c	n/a
159.427	0.18	318854	keystroke_a	a	n/a
159.637	0.1055	319274	keystroke_t	t	n/a
159.6975	0.1495	319395	keystroke_i	i	n/a
159.7275	0.1345	319455	keystroke_o	o	n/a
159.8025	0.1195	319605	keystroke_n	n	n/a
159.877	0.1205	319754	keystroke_Key.space	Key.space	n/a
159.9975	0.1495	319995	keystroke_t	t	n/a
160.1025	0.0745	320205	keystroke_e	e	n/a
160.1625	0.135	320325	keystroke_a	a	n/a
160.3425	0.0905	320685	keystroke_c	c	n/a
160.417	0.1205	320834	keystroke_h	h	n/a
160.5525	0.12	321105	keystroke_e	e	n/a
160.597	0.106	321194	keystroke_r	r	n/a
160.687	0.0755	321374	keystroke_Key.space	Key.space	n/a
160.868	0.1495	321736	keystroke_b	b	n/a
160.9275	0.135	321855	keystroke_i	i	n/a
161.0025	0.135	322005	keystroke_o	o	n/a
161.1975	0.09	322395	keystroke_g	g	n/a
161.363	0.1795	322726	keystroke_r	r	n/a
162.3225	0.165	324645	keystroke_a	a	n/a
162.518	0.1345	325036	keystroke_p	p	n/a
162.6075	0.0905	325215	keystroke_h	h	n/a
162.7875	0.105	325575	keystroke_y	y	n/a
162.862	0.0905	325724	keystroke_Key.space	Key.space	n/a
163.0875	0.1045	326175	keystroke_g	g	n/a
163.297	0.076	326594	keystroke_r	r	n/a
163.358	0.119	326716	keystroke_a	a	n/a
163.508	0.1495	327016	keystroke_t	t	n/a
163.5675	0.12	327135	keystroke_e	e	n/a
164.0925	0.15	328185	keystroke_f	f	n/a
164.1675	0.15	328335	keystroke_u	u	n/a
164.2725	0.12	328545	keystroke_l	l	n/a
164.512	0.1055	329024	keystroke_Key.enter	Key.enter	n/a
164.6225	5.007	329245	prompt	n/a	arrivals highlights second funky\n
165.3225	0.21	330645	keystroke_a	a	n/a
165.5475	0.075	331095	keystroke_r	r	n/a
165.713	0.1045	331426	keystroke_r	r	n/a
165.8025	0.1205	331605	keystroke_i	i	n/a
165.9375	0.09	331875	keystroke_v	v	n/a
165.9525	0.165	331905	keystroke_a	a	n/a
166.0425	0.165	332085	keystroke_l	l	n/a
166.1925	0.12	332385	keystroke_s	s	n/a
166.2975	0.135	332595	keystroke_Key.space	Key.space	n/a
166.4325	0.105	332865	keystroke_h	h	n/a
166.4775	0.135	332955	keystroke_i	i	n/a
166.598	0.1795	333196	keystroke_g	g	n/a
166.6875	0.135	333375	keystroke_h	h	n/a
166.9575	0.1955	333915	keystroke_l	l	n/a
167.0325	0.135	334065	keystroke_i	i	n/a
167.138	0.1045	334276	keystroke_g	g	n/a
167.2275	0.135	334455	keystroke_h	h	n/a
167.3325	0.165	334665	keystroke_t	t	n/a
167.423	0.135	334846	keystroke_s	s	n/a
167.5125	0.12	335025	keystroke_Key.space	Key.space	n/a
167.7075	0.1655	335415	keystroke_s	s	n/a
167.783	0.1195	335566	keystroke_e	e	n/a
167.9925	0.09	335985	keystroke_c	c	n/a
168.0375	0.15	336075	keystroke_o	o	n/a
168.113	0.134	336226	keystroke_n	n	n/a
168.173	0.135	336346	keystroke_d	d	n/a
168.3225	0.09	336645	keystroke_Key.space	Key.space	n/a
168.758	0.135	337516	keystroke_f	f	n/a
168.8625	0.06	337725	keystroke_u	u	n/a
169.058	0.1495	338116	keystroke_n	n	n/a
169.1625	0.09	338325	keystroke_k	k	n/a
169.3575	0.075	338715	keystroke_y	y	n/a
169.5375	0.09	339075	keystroke_Key.enter	Key.enter	n/a
169.633	5.3515	339266	prompt	n/a	pride gently butterfly cancer\n
170.3775	0.09	340755	keystroke_p	p	n/a
170.4525	0.09	340905	keystroke_r	r	n/a
170.5125	0.1345	341025	keystroke_i	i	n/a
170.858	0.1495	341716	keystroke_d	d	n/a
171.0525	0.12	342105	keystroke_e	e	n/a
171.1275	0.135	342255	keystroke_Key.space	Key.space	n/a
171.2475	0.1355	342495	keystroke_g	g	n/a
171.308	0.1345	342616	keystroke_e	e	n/a
171.3975	0.1045	342795	keystroke_n	n	n/a
171.6525	0.1355	343305	keystroke_t	t	n/a
171.773	0.164	343546	keystroke_l	l	n/a
171.863	0.1345	343726	keystroke_y	y	n/a
171.953	0.09	343906	keystroke_Key.space	Key.space	n/a
172.208	0.105	344416	keystroke_b	b	n/a
172.268	0.075	344536	keystroke_u	u	n/a
172.7025	0.075	345405	keystroke_t	t	n/a
172.8675	0.0905	345735	keystroke_t	t	n/a
172.943	0.18	345886	keystroke_e	e	n/a
173.0625	0.0755	346125	keystroke_r	r	n/a
173.3325	0.1505	346665	keystroke_f	f	n/a
173.4375	0.195	346875	keystroke_l	l	n/a
173.573	0.1345	347146	keystroke_y	y	n/a
173.6935	0.1195	347387	keystroke_Key.space	Key.space	n/a
173.9625	0.1205	347925	keystroke_c	c	n/a
174.188	0.1495	348376	keystroke_a	a	n/a
174.323	0.135	348646	keystroke_n	n	n/a
174.383	0.1195	348766	keystroke_c	c	n/a
174.5775	0.2255	349155	keystroke_e	e	n/a
174.7875	0.1205	349575	keystroke_r	r	n/a
174.8925	0.0905	349785	keystroke_Key.enter	Key.enter	n/a
174.9875	6.237	349975	prompt	n/a	madison interstate thoroughly claimed\n
175.7035	0.104	351407	keystroke_m	m	n/a
175.7775	0.1055	351555	keystroke_a	a	n/a
175.899	0.1035	351798	keystroke_d	d	n/a
175.9875	0.06	351975	keystroke_i	i	n/a
176.093	0.15	352186	keystroke_s	s	n/a
176.198	0.1345	352396	keystroke_o	o	n/a
176.258	0.1045	352516	keystroke_n	n	n/a
176.3475	0.1055	352695	keystroke_Key.space	Key.space	n/a
176.513	0.165	353026	keystroke_i	i	n/a
176.6025	0.1655	353205	keystroke_n	n	n/a
176.708	0.105	353416	keystroke_t	t	n/a
176.798	0.1945	353596	keystroke_e	e	n/a
176.933	0.105	353866	keystroke_r	r	n/a
177.113	0.1795	354226	keystroke_s	s	n/a
177.2475	0.06	354495	keystroke_t	t	n/a
177.323	0.12	354646	keystroke_a	a	n/a
177.413	0.1195	354826	keystroke_t	t	n/a
177.4575	0.105	354915	keystroke_e	e	n/a
177.5475	0.1055	355095	keystroke_Key.space	Key.space	n/a
177.743	0.105	355486	keystroke_t	t	n/a
177.8325	0.0755	355665	keystroke_h	h	n/a
177.923	0.18	355846	keystroke_o	o	n/a
178.223	0.135	356446	keystroke_r	r	n/a
178.343	0.2095	356686	keystroke_o	o	n/a
178.463	0.1055	356926	keystroke_u	u	n/a
178.583	0.195	357166	keystroke_g	g	n/a
178.688	0.105	357376	keystroke_h	h	n/a
178.868	0.1495	357736	keystroke_l	l	n/a
178.973	0.135	357946	keystroke_y	y	n/a
179.0625	0.09	358125	keystroke_Key.space	Key.space	n/a
179.438	0.12	358876	keystroke_c	c	n/a
179.513	0.1045	359026	keystroke_o	o	n/a
179.693	0.195	359386	keystroke_a	a	n/a
180.188	0.0595	360376	keystroke_Key.backspace	Key.backspace	n/a
180.323	0.0745	360646	keystroke_Key.backspace	Key.backspace	n/a
180.5175	0.0905	361035	keystroke_l	l	n/a
180.593	0.1645	361186	keystroke_a	a	n/a
180.713	0.1495	361426	keystroke_i	i	n/a
180.803	0.12	361606	keystroke_m	m	n/a
180.878	0.121	361756	keystroke_e	e	n/a
181.073	0.12	362146	keystroke_d	d	n/a
181.163	0.06	362326	keystroke_Key.enter	Key.enter	n/a
181.228	6.9565	362456	prompt	n/a	pharmacies elliott viking pregnancy\n
181.943	0.195	363886	keystroke_p	p	n/a
182.153	0.075	364306	keystroke_h	h	n/a
182.3625	0.137	364725	keystroke_a	a	n/a
182.453	0.1495	364906	keystroke_r	r	n/a
182.588	0.105	365176	keystroke_m	m	n/a
182.708	0.135	365416	keystroke_a	a	n/a
182.9775	0.0605	365955	keystroke_c	c	n/a
183.0225	0.12	366045	keystroke_i	i	n/a
183.158	0.1195	366316	keystroke_e	e	n/a
183.173	0.1345	366346	keystroke_s	s	n/a
183.2925	0.1205	366585	keystroke_Key.space	Key.space	n/a
183.6225	0.0455	367245	keystroke_d	d	n/a
183.953	0.075	367906	keystroke_Key.backspace	Key.backspace	n/a
184.028	0.15	368056	keystroke_e	e	n/a
184.208	0.091	368416	keystroke_l	l	n/a
184.4025	0.1055	368805	keystroke_l	l	n/a
184.5375	0.1055	369075	keystroke_i	i	n/a
184.658	0.1505	369316	keystroke_o	o	n/a
184.853	0.1345	369706	keystroke_t	t	n/a
185.093	0.075	370186	keystroke_Key.space	Key.space	n/a
185.5125	0.1205	371025	keystroke_v	v	n/a
185.588	0.09	371176	keystroke_i	i	n/a
186.233	0.045	372466	keystroke_k	k	n/a
186.383	0.1655	372766	keystroke_i	i	n/a
186.443	0.15	372886	keystroke_n	n	n/a
186.578	0.135	373156	keystroke_g	g	n/a
186.668	0.1195	373336	keystroke_Key.space	Key.space	n/a
187.043	0.1195	374086	keystroke_r	r	n/a
187.0875	0.1205	374175	keystroke_e	e	n/a
187.283	0.1345	374566	keystroke_g	g	n/a
187.4625	0.0455	374925	keystroke_n	n	n/a
187.568	0.1345	375136	keystroke_a	a	n/a
187.6875	0.045	375375	keystroke_n	n	n/a
187.793	0.15	375586	keystroke_c	c	n/a
187.8975	0.09	375795	keystroke_y	y	n/a
188.1075	0.0755	376215	keystroke_Key.enter	Key.enter	n/a
188.1875	4.9315	376375	prompt	n/a	pray requirements screenshots rider\n
188.9025	0.1355	377805	keystroke_p	p	n/a
189.053	0.1495	378106	keystroke_r	r	n/a
189.158	0.15	378316	keystroke_a	a	n/a
189.3525	0.0755	378705	keystroke_y	y	n/a
189.3985	0.134	378797	keystroke_Key.space	Key.space	n/a
189.683	0.1805	379366	keystroke_r	r	n/a
189.728	0.15	379456	keystroke_e	e	n/a
189.863	0.0745	379726	keystroke_q	q	n/a
189.9235	0.0895	379847	keystroke_u	u	n/a
189.953	0.12	379906	keystroke_i	i	n/a
190.028	0.135	380056	keystroke_r	r	n/a
190.0875	0.121	380175	keystroke_e	e	n/a
190.193	0.09	380386	keystroke_m	m	n/a
190.2985	0.1505	380597	keystroke_e	e	n/a
190.4025	0.1205	380805	keystroke_n	n	n/a
190.538	0.1495	381076	keystroke_t	t	n/a
190.613	0.1355	381226	keystroke_s	s	n/a
190.7025	0.1355	381405	keystroke_Key.space	Key.space	n/a
190.853	0.1195	381706	keystroke_s	s	n/a
191.2575	0.105	382515	keystroke_c	c	n/a
191.438	0.1345	382876	keystroke_r	r	n/a
191.528	0.0895	383056	keystroke_e	e	n/a
191.693	0.1505	383386	keystroke_e	e	n/a
191.8435	0.0445	383687	keystroke_n	n	n/a
191.9025	0.1355	383805	keystroke_s	s	n/a
192.008	0.135	384016	keystroke_h	h	n/a
192.068	0.1495	384136	keystroke_o	o	n/a
192.158	0.135	384316	keystroke_t	t	n/a
192.218	0.105	384436	keystroke_s	s	n/a
192.308	0.1195	384616	keystroke_Key.space	Key.space	n/a
192.443	0.1045	384886	keystroke_r	r	n/a
192.533	0.12	385066	keystroke_i	i	n/a
192.6085	0.12	385217	keystroke_d	d	n/a
192.8025	0.1505	385605	keystroke_e	e	n/a
192.878	0.135	385756	keystroke_r	r	n/a
192.999	0.1185	385998	keystroke_Key.enter	Key.enter	n/a
193.122	5.1885	386244	prompt	n/a	rankings thinkpad bios can\n
193.808	0.091	387616	keystroke_r	r	n/a
193.853	0.18	387706	keystroke_a	a	n/a
193.9425	0.1355	387885	keystroke_n	n	n/a
194.018	0.075	388036	keystroke_k	k	n/a
194.1985	0.134	388397	keystroke_i	i	n/a
194.2425	0.1505	388485	keystroke_n	n	n/a
194.3035	0.134	388607	keystroke_g	g	n/a
194.408	0.1195	388816	keystroke_Key.space	Key.space	n/a
194.573	0.1205	389146	keystroke_t	t	n/a
195.533	0.045	391066	keystroke_Key.backspace	Key.backspace	n/a
195.683	0.075	391366	keystroke_Key.backspace	Key.backspace	n/a
195.818	0.135	391636	keystroke_s	s	n/a
195.9375	0.1505	391875	keystroke_Key.space	Key.space	n/a
196.103	0.15	392206	keystroke_t	t	n/a
196.163	0.1045	392326	keystroke_h	h	n/a
196.208	0.105	392416	keystroke_i	i	n/a
196.358	0.12	392716	keystroke_n	n	n/a
196.434	0.074	392868	keystroke_k	k	n/a
196.6275	0.121	393255	keystroke_p	p	n/a
196.733	0.12	393466	keystroke_a	a	n/a
196.868	0.1345	393736	keystroke_d	d	n/a
196.973	0.0895	393946	keystroke_Key.space	Key.space	n/a
197.108	0.1495	394216	keystroke_b	b	n/a
197.1835	0.1195	394367	keystroke_i	i	n/a
197.243	0.135	394486	keystroke_o	o	n/a
197.349	0.119	394698	keystroke_s	s	n/a
197.4535	0.104	394907	keystroke_Key.space	Key.space	n/a
197.6035	0.1045	395207	keystroke_c	c	n/a
197.8735	0.1645	395747	keystroke_a	a	n/a
198.023	0.0905	396046	keystroke_n	n	n/a
198.203	0.105	396406	keystroke_Key.enter	Key.enter	n/a
198.3135	8.246	396627	prompt	n/a	southampton infinite through arthritis\n
199.118	0.1505	398236	keystroke_s	s	n/a
199.193	0.18	398386	keystroke_o	o	n/a
199.2685	0.1195	398537	keystroke_u	u	n/a
199.463	0.1495	398926	keystroke_t	t	n/a
199.583	0.12	399166	keystroke_a	a	n/a
199.9275	0.121	399855	keystroke_m	m	n/a
200.3785	0.0745	400757	keystroke_Key.backspace	Key.backspace	n/a
200.543	0.0905	401086	keystroke_Key.backspace	Key.backspace	n/a
200.783	0.075	401566	keystroke_h	h	n/a
200.873	0.1355	401746	keystroke_a	a	n/a
200.9635	0.1355	401927	keystroke_m	m	n/a
201.0385	0.1495	402077	keystroke_p	p	n/a
201.2335	0.15	402467	keystroke_t	t	n/a
201.368	0.105	402736	keystroke_o	o	n/a
201.4275	0.136	402855	keystroke_n	n	n/a
201.5485	0.1195	403097	keystroke_Key.space	Key.space	n/a
201.818	0.1805	403636	keystroke_i	i	n/a
201.8935	0.1195	403787	keystroke_n	n	n/a
202.328	0.121	404656	keystroke_f	f	n/a
202.343	0.075	404686	keystroke_i	i	n/a
202.4335	0.135	404867	keystroke_n	n	n/a
202.508	0.1345	405016	keystroke_i	i	n/a
202.628	0.1805	405256	keystroke_t	t	n/a
202.7035	0.1355	405407	keystroke_e	e	n/a
202.8235	0.075	405647	keystroke_Key.space	Key.space	n/a
203.0035	0.06	406007	keystroke_t	t	n/a
203.4985	0.12	406997	keystroke_h	h	n/a
203.633	0.1355	407266	keystroke_r	r	n/a
203.7385	0.15	407477	keystroke_o	o	n/a
203.828	0.0905	407656	keystroke_u	u	n/a
203.9485	0.1795	407897	keystroke_g	g	n/a
204.0685	0.135	408137	keystroke_h	h	n/a
204.1435	0.0745	408287	keystroke_Key.space	Key.space	n/a
204.293	0.12	408586	keystroke_a	a	n/a
204.4585	0.105	408917	keystroke_r	r	n/a
204.668	0.09	409336	keystroke_t	t	n/a
205.0885	0.105	410177	keystroke_h	h	n/a
205.6885	0.1195	411377	keystroke_r	r	n/a
205.7935	0.1195	411587	keystroke_i	i	n/a
205.931	0.1175	411862	keystroke_t	t	n/a
206.0035	0.12	412007	keystroke_i	i	n/a
206.2585	0.165	412517	keystroke_s	s	n/a
206.4385	0.1195	412877	keystroke_Key.enter	Key.enter	n/a
206.5625	4.8425	413125	prompt	n/a	powerful commonly control childrens\n
207.2935	0.18	414587	keystroke_p	p	n/a
207.353	0.2105	414706	keystroke_o	o	n/a
207.458	0.21	414916	keystroke_w	w	n/a
207.5335	0.165	415067	keystroke_e	e	n/a
207.6085	0.135	415217	keystroke_r	r	n/a
207.8485	0.1645	415697	keystroke_f	f	n/a
207.9385	0.165	415877	keystroke_u	u	n/a
208.028	0.1355	416056	keystroke_l	l	n/a
208.1335	0.075	416267	keystroke_Key.space	Key.space	n/a
208.2235	0.1495	416447	keystroke_c	c	n/a
208.3285	0.06	416657	keystroke_o	o	n/a
208.5085	0.0445	417017	keystroke_m	m	n/a
208.6435	0.12	417287	keystroke_m	m	n/a
208.7185	0.135	417437	keystroke_o	o	n/a
208.8235	0.105	417647	keystroke_n	n	n/a
209.0035	0.1345	418007	keystroke_l	l	n/a
209.0935	0.135	418187	keystroke_y	y	n/a
209.183	0.0905	418366	keystroke_Key.space	Key.space	n/a
209.3485	0.1795	418697	keystroke_c	c	n/a
209.4235	0.12	418847	keystroke_o	o	n/a
209.483	0.1205	418966	keystroke_n	n	n/a
209.5885	0.09	419177	keystroke_t	t	n/a
209.753	0.1505	419506	keystroke_r	r	n/a
209.8285	0.06	419657	keystroke_o	o	n/a
209.9785	0.15	419957	keystroke_l	l	n/a
210.053	0.1205	420106	keystroke_Key.space	Key.space	n/a
210.413	0.1355	420826	keystroke_c	c	n/a
210.488	0.151	420976	keystroke_h	h	n/a
210.563	0.1655	421126	keystroke_i	i	n/a
210.6235	0.15	421247	keystroke_l	l	n/a
210.713	0.1355	421426	keystroke_d	d	n/a
210.8785	0.195	421757	keystroke_r	r	n/a
210.9535	0.1645	421907	keystroke_e	e	n/a
211.0585	0.135	422117	keystroke_n	n	n/a
211.1935	0.1345	422387	keystroke_s	s	n/a
211.299	0.1045	422598	keystroke_Key.enter	Key.enter	n/a
211.408	5.3365	422816	prompt	n/a	moments incentive additions explosion\n
212.0035	0.105	424007	keystroke_m	m	n/a
212.183	0.1655	424366	keystroke_o	o	n/a
212.2885	0.12	424577	keystroke_m	m	n/a
212.393	0.1655	424786	keystroke_e	e	n/a
212.5135	0.12	425027	keystroke_n	n	n/a
212.5735	0.165	425147	keystroke_t	t	n/a
212.6635	0.15	425327	keystroke_s	s	n/a
212.768	0.1205	425536	keystroke_Key.space	Key.space	n/a
212.963	0.1355	425926	keystroke_i	i	n/a
213.0235	0.12	426047	keystroke_n	n	n/a
213.4285	0.105	426857	keystroke_c	c	n/a
213.578	0.105	427156	keystroke_e	e	n/a
213.6385	0.12	427277	keystroke_n	n	n/a
213.7735	0.105	427547	keystroke_t	t	n/a
213.8935	0.12	427787	keystroke_i	i	n/a
213.9985	0.135	427997	keystroke_v	v	n/a
214.0585	0.105	428117	keystroke_e	e	n/a
214.1785	0.0895	428357	keystroke_Key.space	Key.space	n/a
214.253	0.1355	428506	keystroke_a	a	n/a
214.3735	0.09	428747	keystroke_d	d	n/a
214.538	0.1355	429076	keystroke_d	d	n/a
214.6285	0.075	429257	keystroke_i	i	n/a
214.7335	0.1345	429467	keystroke_t	t	n/a
214.7935	0.1645	429587	keystroke_i	i	n/a
214.853	0.15	429706	keystroke_o	o	n/a
214.8985	0.15	429797	keystroke_n	n	n/a
214.9735	0.135	429947	keystroke_s	s	n/a
215.0785	0.105	430157	keystroke_Key.space	Key.space	n/a
215.2435	0.15	430487	keystroke_e	e	n/a
215.438	0.1355	430876	keystroke_x	x	n/a
215.483	0.1655	430966	keystroke_p	p	n/a
215.558	0.1055	431116	keystroke_l	l	n/a
215.768	0.0905	431536	keystroke_o	o	n/a
216.233	0.12	432466	keystroke_s	s	n/a
216.309	0.1495	432618	keystroke_i	i	n/a
216.338	0.1355	432676	keystroke_o	o	n/a
216.368	0.136	432736	keystroke_n	n	n/a
216.638	0.105	433276	keystroke_Key.enter	Key.enter	n/a
216.748	4.0615	433496	prompt	n/a	pass ballet cologne gift\n
217.418	0.0905	434836	keystroke_p	p	n/a
217.4635	0.1355	434927	keystroke_a	a	n/a
217.553	0.0755	435106	keystroke_s	s	n/a
217.7335	0.075	435467	keystroke_s	s	n/a
217.7785	0.135	435557	keystroke_Key.space	Key.space	n/a
217.9285	0.1495	435857	keystroke_b	b	n/a
218.0935	0.1795	436187	keystroke_a	a	n/a
218.289	0.0445	436578	keystroke_l	l	n/a
218.4085	0.12	436817	keystroke_l	l	n/a
218.453	0.1355	436906	keystroke_e	e	n/a
218.5435	0.1055	437087	keystroke_t	t	n/a
218.6335	0.0595	437267	keystroke_Key.space	Key.space	n/a
218.738	0.1205	437476	keystroke_c	c	n/a
219.1135	0.075	438227	keystroke_o	o	n/a
219.2785	0.0745	438557	keystroke_l	l	n/a
219.4585	0.1055	438917	keystroke_o	o	n/a
219.549	0.1495	439098	keystroke_g	g	n/a
219.744	0.0895	439488	keystroke_n	n	n/a
219.8185	0.1045	439637	keystroke_e	e	n/a
219.938	0.1055	439876	keystroke_Key.space	Key.space	n/a
220.1485	0.0895	440297	keystroke_g	g	n/a
220.223	0.09	440446	keystroke_i	i	n/a
220.3435	0.1205	440687	keystroke_f	f	n/a
220.6135	0.135	441227	keystroke_t	t	n/a
220.7035	0.1045	441407	keystroke_Key.enter	Key.enter	n/a
220.8125	5.2325	441625	prompt	n/a	lenses extend adoption resolve\n
221.469	0.1195	442938	keystroke_l	l	n/a
221.5285	0.135	443057	keystroke_e	e	n/a
221.7985	0.135	443597	keystroke_n	n	n/a
221.9035	0.1495	443807	keystroke_s	s	n/a
222.0085	0.12	444017	keystroke_e	e	n/a
222.1735	0.105	444347	keystroke_s	s	n/a
222.2635	0.15	444527	keystroke_Key.space	Key.space	n/a
222.399	0.089	444798	keystroke_e	e	n/a
222.5635	0.12	445127	keystroke_x	x	n/a
222.7135	0.1505	445427	keystroke_t	t	n/a
222.789	0.0895	445578	keystroke_e	e	n/a
222.8935	0.15	445787	keystroke_n	n	n/a
223.1785	0.1345	446357	keystroke_d	d	n/a
223.298	0.1055	446596	keystroke_Key.space	Key.space	n/a
223.6285	0.075	447257	keystroke_a	a	n/a
223.838	0.1355	447676	keystroke_d	d	n/a
223.9435	0.15	447887	keystroke_o	o	n/a
224.019	0.1045	448038	keystroke_p	p	n/a
224.1085	0.12	448217	keystroke_t	t	n/a
224.3035	0.2405	448607	keystroke_i	i	n/a
224.408	0.1505	448816	keystroke_o	o	n/a
224.4835	0.165	448967	keystroke_n	n	n/a
224.5735	0.12	449147	keystroke_Key.space	Key.space	n/a
224.9785	0.1645	449957	keystroke_r	r	n/a
225.128	0.121	450256	keystroke_e	e	n/a
225.2635	0.12	450527	keystroke_s	s	n/a
225.353	0.0605	450706	keystroke_o	o	n/a
225.5185	0.165	451037	keystroke_l	l	n/a
225.668	0.1655	451336	keystroke_v	v	n/a
225.7885	0.1205	451577	keystroke_e	e	n/a
225.953	0.0905	451906	keystroke_Key.enter	Key.enter	n/a
226.05	4.1955	452100	prompt	n/a	florida info cabinets bones\n
226.7785	0.0895	453557	keystroke_f	f	n/a
227.0935	0.0745	454187	keystroke_l	l	n/a
227.2435	0.105	454487	keystroke_o	o	n/a
227.349	0.1195	454698	keystroke_r	r	n/a
227.483	0.0905	454966	keystroke_i	i	n/a
227.5585	0.2095	455117	keystroke_d	d	n/a
227.7535	0.12	455507	keystroke_a	a	n/a
227.874	0.1345	455748	keystroke_Key.space	Key.space	n/a
228.115	0.15	456230	keystroke_i	i	n/a
228.1885	0.1055	456377	keystroke_n	n	n/a
228.265	0.1485	456530	keystroke_f	f	n/a
228.3685	0.15	456737	keystroke_o	o	n/a
228.444	0.1495	456888	keystroke_Key.space	Key.space	n/a
228.579	0.15	457158	keystroke_c	c	n/a
228.6685	0.1955	457337	keystroke_a	a	n/a
228.9235	0.15	457847	keystroke_b	b	n/a
228.999	0.1345	457998	keystroke_i	i	n/a
229.0885	0.18	458177	keystroke_n	n	n/a
229.2535	0.1505	458507	keystroke_e	e	n/a
229.344	0.1495	458688	keystroke_t	t	n/a
229.4335	0.15	458867	keystroke_s	s	n/a
229.5385	0.09	459077	keystroke_Key.space	Key.space	n/a
229.674	0.1495	459348	keystroke_b	b	n/a
229.749	0.15	459498	keystroke_o	o	n/a
229.809	0.135	459618	keystroke_n	n	n/a
229.914	0.165	459828	keystroke_e	e	n/a
229.989	0.1645	459978	keystroke_s	s	n/a
230.1385	0.1055	460277	keystroke_Key.enter	Key.enter	n/a
230.249	3.6415	460498	prompt	n/a	garlic deep left booking\n
230.9635	0.105	461927	keystroke_g	g	n/a
231.0535	0.1655	462107	keystroke_a	a	n/a
231.189	0.0745	462378	keystroke_r	r	n/a
231.399	0.1495	462798	keystroke_l	l	n/a
231.4585	0.135	462917	keystroke_i	i	n/a
231.5185	0.135	463037	keystroke_c	c	n/a
231.6385	0.1055	463277	keystroke_Key.space	Key.space	n/a
231.759	0.105	463518	keystroke_d	d	n/a
231.9385	0.1055	463877	keystroke_e	e	n/a
232.119	0.1195	464238	keystroke_e	e	n/a
232.194	0.15	464388	keystroke_p	p	n/a
232.299	0.0595	464598	keystroke_Key.space	Key.space	n/a
232.404	0.1195	464808	keystroke_l	l	n/a
232.449	0.166	464898	keystroke_e	e	n/a
232.5685	0.09	465137	keystroke_f	f	n/a
232.7485	0.105	465497	keystroke_t	t	n/a
232.8235	0.0755	465647	keystroke_Key.space	Key.space	n/a
232.974	0.15	465948	keystroke_b	b	n/a
233.0935	0.016	466187	keystroke_o	o	n/a
233.1995	0.134	466399	keystroke_o	o	n/a
233.274	0.1045	466548	keystroke_k	k	n/a
233.4685	0.181	466937	keystroke_i	i	n/a
233.559	0.091	467118	keystroke_n	n	n/a
233.679	0.1355	467358	keystroke_g	g	n/a
233.799	0.09	467598	keystroke_Key.enter	Key.enter	n/a
233.8935	4.482	467787	prompt	n/a	turn stem samsung payable\n
234.7435	0.0905	469487	keystroke_t	t	n/a
234.9235	0.076	469847	keystroke_u	u	n/a
235.0145	0.1505	470029	keystroke_r	r	n/a
235.119	0.1045	470238	keystroke_n	n	n/a
235.179	0.1195	470358	keystroke_Key.space	Key.space	n/a
235.374	0.135	470748	keystroke_s	s	n/a
235.479	0.09	470958	keystroke_t	t	n/a
235.674	0.1795	471348	keystroke_e	e	n/a
235.884	0.1495	471768	keystroke_m	m	n/a
235.974	0.135	471948	keystroke_Key.space	Key.space	n/a
236.2135	0.1205	472427	keystroke_s	s	n/a
236.319	0.1345	472638	keystroke_a	a	n/a
236.379	0.1645	472758	keystroke_m	m	n/a
236.589	0.1795	473178	keystroke_s	s	n/a
236.7535	0.0305	473507	keystroke_u	u	n/a
236.8895	0.1645	473779	keystroke_n	n	n/a
236.994	0.165	473988	keystroke_g	g	n/a
237.069	0.21	474138	keystroke_Key.space	Key.space	n/a
237.294	0.1195	474588	keystroke_p	p	n/a
237.3995	0.104	474799	keystroke_a	a	n/a
237.729	0.0895	475458	keystroke_y	y	n/a
237.804	0.1195	475608	keystroke_a	a	n/a
237.9385	0.1355	475877	keystroke_b	b	n/a
238.0145	0.1345	476029	keystroke_l	l	n/a
238.1645	0.104	476329	keystroke_e	e	n/a
238.2385	0.1355	476477	keystroke_Key.enter	Key.enter	n/a
238.3785	5.8885	476757	prompt	n/a	camcorders fuji grande saint\n
239.1835	0.1055	478367	keystroke_c	c	n/a
239.4235	0.1205	478847	keystroke_a	a	n/a
239.5135	0.1355	479027	keystroke_m	m	n/a
239.784	0.15	479568	keystroke_c	c	n/a
239.904	0.1195	479808	keystroke_o	o	n/a
240.0085	0.135	480017	keystroke_r	r	n/a
240.1735	0.1195	480347	keystroke_d	d	n/a
240.353	0.1495	480706	keystroke_e	e	n/a
240.4275	0.15	480855	keystroke_r	r	n/a
240.592	0.121	481184	keystroke_s	s	n/a
240.757	0.1645	481514	keystroke_Key.space	Key.space	n/a
240.967	0.1345	481934	keystroke_f	f	n/a
241.1765	0.075	482353	keystroke_u	u	n/a
241.401	0.1195	482802	keystroke_j	j	n/a
241.5355	0.1355	483071	keystroke_i	i	n/a
241.716	0.1645	483432	keystroke_Key.space	Key.space	n/a
241.866	0.0895	483732	keystroke_g	g	n/a
242.09	0.1355	484180	keystroke_r	r	n/a
242.1505	0.1345	484301	keystroke_a	a	n/a
242.63	0.135	485260	keystroke_n	n	n/a
242.78	0.045	485560	keystroke_d	d	n/a
242.961	0.119	485922	keystroke_e	e	n/a
243.065	0.12	486130	keystroke_Key.space	Key.space	n/a
243.365	0.12	486730	keystroke_s	s	n/a
243.605	0.106	487210	keystroke_a	a	n/a
243.7255	0.2095	487451	keystroke_i	i	n/a
243.861	0.164	487722	keystroke_n	n	n/a
244.04	0.15	488080	keystroke_t	t	n/a
244.1455	0.12	488291	keystroke_Key.enter	Key.enter	n/a
244.2695	5.083	488539	prompt	n/a	voting rica usually investments\n
245.1355	0.1045	490271	keystroke_v	v	n/a
245.1505	0.1045	490301	keystroke_o	o	n/a
245.3005	0.12	490601	keystroke_t	t	n/a
245.375	0.1805	490750	keystroke_i	i	n/a
245.4955	0.166	490991	keystroke_n	n	n/a
245.6305	0.135	491261	keystroke_g	g	n/a
245.766	0.149	491532	keystroke_Key.space	Key.space	n/a
246.1555	0.12	492311	keystroke_r	r	n/a
246.2615	0.119	492523	keystroke_i	i	n/a
246.3955	0.135	492791	keystroke_c	c	n/a
246.5155	0.135	493031	keystroke_a	a	n/a
246.636	0.089	493272	keystroke_Key.space	Key.space	n/a
246.9805	0.075	493961	keystroke_u	u	n/a
247.0705	0.135	494141	keystroke_s	s	n/a
247.19	0.091	494380	keystroke_u	u	n/a
247.2805	0.15	494561	keystroke_a	a	n/a
247.3855	0.06	494771	keystroke_l	l	n/a
247.55	0.1205	495100	keystroke_l	l	n/a
247.6255	0.1355	495251	keystroke_y	y	n/a
247.7005	0.0895	495401	keystroke_Key.space	Key.space	n/a
247.9555	0.24	495911	keystroke_i	i	n/a
248.0905	0.1795	496181	keystroke_n	n	n/a
248.2705	0.1345	496541	keystroke_v	v	n/a
248.3605	0.255	496721	keystroke_e	e	n/a
248.45	0.211	496900	keystroke_s	s	n/a
248.6005	0.12	497201	keystroke_t	t	n/a
248.705	0.091	497410	keystroke_m	m	n/a
248.811	0.15	497622	keystroke_e	e	n/a
248.901	0.1195	497802	keystroke_n	n	n/a
249.036	0.15	498072	keystroke_t	t	n/a
249.141	0.1345	498282	keystroke_s	s	n/a
249.261	0.09	498522	keystroke_Key.enter	Key.enter	n/a
249.3555	4.4675	498711	prompt	n/a	room transmission parallel hose\n
249.9505	0.1505	499901	keystroke_r	r	n/a
250.056	0.0595	500112	keystroke_o	o	n/a
250.206	0.12	500412	keystroke_o	o	n/a
250.281	0.1495	500562	keystroke_m	m	n/a
250.341	0.1345	500682	keystroke_Key.space	Key.space	n/a
250.521	0.0905	501042	keystroke_t	t	n/a
250.701	0.18	501402	keystroke_r	r	n/a
250.776	0.135	501552	keystroke_a	a	n/a
250.896	0.03	501792	keystroke_n	n	n/a
250.941	0.165	501882	keystroke_s	s	n/a
251.3905	0.1055	502781	keystroke_m	m	n/a
251.481	0.09	502962	keystroke_i	i	n/a
251.5855	0.076	503171	keystroke_s	s	n/a
251.736	0.12	503472	keystroke_s	s	n/a
251.811	0.18	503622	keystroke_i	i	n/a
251.886	0.12	503772	keystroke_o	o	n/a
251.9305	0.1355	503861	keystroke_n	n	n/a
252.051	0.15	504102	keystroke_Key.space	Key.space	n/a
252.1865	0.1645	504373	keystroke_p	p	n/a
252.291	0.15	504582	keystroke_a	a	n/a
252.396	0.1655	504792	keystroke_r	r	n/a
252.486	0.135	504972	keystroke_a	a	n/a
252.606	0.03	505212	keystroke_l	l	n/a
252.741	0.0895	505482	keystroke_l	l	n/a
252.846	0.15	505692	keystroke_e	e	n/a
252.9215	0.1345	505843	keystroke_l	l	n/a
253.0115	0.15	506023	keystroke_Key.space	Key.space	n/a
253.206	0.1345	506412	keystroke_h	h	n/a
253.311	0.1505	506622	keystroke_o	o	n/a
253.521	0.1805	507042	keystroke_s	s	n/a
253.5955	0.1505	507191	keystroke_e	e	n/a
253.731	0.0905	507462	keystroke_Key.enter	Key.enter	n/a
253.826	4.677	507652	prompt	n/a	mart identical periods prizes\n
254.5125	0.1335	509025	keystroke_m	m	n/a
254.5715	0.18	509143	keystroke_a	a	n/a
254.6765	0.105	509353	keystroke_r	r	n/a
254.8565	0.105	509713	keystroke_t	t	n/a
254.916	0.09	509832	keystroke_Key.space	Key.space	n/a
255.112	0.104	510224	keystroke_i	i	n/a
255.172	0.074	510344	keystroke_d	d	n/a
255.336	0.1505	510672	keystroke_e	e	n/a
255.412	0.104	510824	keystroke_n	n	n/a
255.502	0.1195	511004	keystroke_t	t	n/a
255.606	0.106	511212	keystroke_i	i	n/a
256.0565	0.165	512113	keystroke_c	c	n/a
256.1625	0.164	512325	keystroke_a	a	n/a
256.3115	0.1195	512623	keystroke_l	l	n/a
256.4015	0.1195	512803	keystroke_Key.space	Key.space	n/a
256.7765	0.1355	513553	keystroke_p	p	n/a
256.8515	0.1495	513703	keystroke_e	e	n/a
256.9415	0.1205	513883	keystroke_r	r	n/a
257.0465	0.135	514093	keystroke_i	i	n/a
257.1065	0.1495	514213	keystroke_o	o	n/a
257.1965	0.18	514393	keystroke_d	d	n/a
257.3165	0.165	514633	keystroke_s	s	n/a
257.4965	0.0745	514993	keystroke_Key.space	Key.space	n/a
257.6765	0.1505	515353	keystroke_p	p	n/a
257.8275	0.0885	515655	keystroke_r	r	n/a
257.9015	0.135	515803	keystroke_i	i	n/a
258.0215	0.12	516043	keystroke_z	z	n/a
258.1265	0.09	516253	keystroke_e	e	n/a
258.2765	0.105	516553	keystroke_s	s	n/a
258.3965	0.105	516793	keystroke_Key.enter	Key.enter	n/a
258.5055	3.943	517011	prompt	n/a	missing inside shield revision\n
259.147	0.075	518294	keystroke_m	m	n/a
259.1915	0.1355	518383	keystroke_i	i	n/a
259.252	0.09	518504	keystroke_s	s	n/a
259.4315	0.1205	518863	keystroke_s	s	n/a
259.447	0.15	518894	keystroke_i	i	n/a
259.522	0.135	519044	keystroke_n	n	n/a
259.612	0.1045	519224	keystroke_g	g	n/a
259.7015	0.1505	519403	keystroke_Key.space	Key.space	n/a
259.762	0.135	519524	keystroke_i	i	n/a
259.837	0.105	519674	keystroke_n	n	n/a
259.942	0.1645	519884	keystroke_s	s	n/a
260.0315	0.1205	520063	keystroke_i	i	n/a
260.1215	0.0905	520243	keystroke_d	d	n/a
260.287	0.12	520574	keystroke_e	e	n/a
260.392	0.06	520784	keystroke_Key.space	Key.space	n/a
260.467	0.1345	520934	keystroke_s	s	n/a
260.557	0.12	521114	keystroke_h	h	n/a
260.6165	0.15	521233	keystroke_i	i	n/a
260.722	0.1345	521444	keystroke_e	e	n/a
260.872	0.12	521744	keystroke_l	l	n/a
260.977	0.105	521954	keystroke_d	d	n/a
261.0375	0.1045	522075	keystroke_Key.space	Key.space	n/a
261.472	0.1795	522944	keystroke_r	r	n/a
261.577	0.12	523154	keystroke_e	e	n/a
261.757	0.135	523514	keystroke_v	v	n/a
261.8315	0.0605	523663	keystroke_i	i	n/a
261.922	0.165	523844	keystroke_s	s	n/a
261.9975	0.1795	523995	keystroke_i	i	n/a
262.072	0.1195	524144	keystroke_o	o	n/a
262.1315	0.0905	524263	keystroke_n	n	n/a
262.3275	0.1195	524655	keystroke_Key.enter	Key.enter	n/a
262.4515	5.337	524903	prompt	n/a	climate chase mounts deleted\n
263.242	0.18	526484	keystroke_c	c	n/a
263.3015	0.1505	526603	keystroke_l	l	n/a
263.347	0.1655	526694	keystroke_i	i	n/a
263.437	0.1355	526874	keystroke_m	m	n/a
263.5275	0.1195	527055	keystroke_a	a	n/a
263.602	0.18	527204	keystroke_t	t	n/a
263.6625	0.1345	527325	keystroke_e	e	n/a
263.7675	0.1345	527535	keystroke_Key.space	Key.space	n/a
263.947	0.0755	527894	keystroke_c	c	n/a
264.2475	0.12	528495	keystroke_h	h	n/a
264.3525	0.1345	528705	keystroke_a	a	n/a
264.4125	0.1795	528825	keystroke_s	s	n/a
264.4725	0.1345	528945	keystroke_e	e	n/a
264.5625	0.105	529125	keystroke_Key.space	Key.space	n/a
264.848	0.0745	529696	keystroke_m	m	n/a
265.222	0.1355	530444	keystroke_o	o	n/a
265.2975	0.1195	530595	keystroke_u	u	n/a
265.4925	0.12	530985	keystroke_n	n	n/a
265.5675	0.1345	531135	keystroke_t	t	n/a
265.6575	0.09	531315	keystroke_s	s	n/a
265.717	0.135	531434	keystroke_Key.space	Key.space	n/a
265.8375	0.0755	531675	keystroke_d	d	n/a
265.9725	0.15	531945	keystroke_e	e	n/a
266.0775	0.135	532155	keystroke_l	l	n/a
266.1525	0.1345	532305	keystroke_e	e	n/a
266.302	0.1805	532604	keystroke_t	t	n/a
267.4425	0.0895	534885	keystroke_e	e	n/a
267.6225	0.12	535245	keystroke_d	d	n/a
267.6975	0.0895	535395	keystroke_Key.enter	Key.enter	n/a
267.7915	4.5915	535583	prompt	n/a	atmospheric suffered thru sides\n
268.507	0.12	537014	keystroke_a	a	n/a
268.6125	0.12	537225	keystroke_t	t	n/a
268.8525	0.1495	537705	keystroke_m	m	n/a
268.928	0.135	537856	keystroke_o	o	n/a
269.0325	0.15	538065	keystroke_s	s	n/a
269.3475	0.18	538695	keystroke_p	p	n/a
269.4075	0.1505	538815	keystroke_h	h	n/a
269.542	0.15	539084	keystroke_e	e	n/a
269.6325	0.15	539265	keystroke_r	r	n/a
269.7225	0.135	539445	keystroke_i	i	n/a
269.8725	0.09	539745	keystroke_c	c	n/a
269.9475	0.0905	539895	keystroke_Key.space	Key.space	n/a
270.0525	0.1195	540105	keystroke_s	s	n/a
270.1575	0.09	540315	keystroke_u	u	n/a
270.2175	0.0755	540435	keystroke_f	f	n/a
270.368	0.0895	540736	keystroke_f	f	n/a
270.4425	0.15	540885	keystroke_e	e	n/a
270.5775	0.15	541155	keystroke_r	r	n/a
270.683	0.0595	541366	keystroke_e	e	n/a
270.818	0.134	541636	keystroke_d	d	n/a
270.8925	0.0895	541785	keystroke_Key.space	Key.space	n/a
271.013	0.1045	542026	keystroke_t	t	n/a
271.103	0.0745	542206	keystroke_h	h	n/a
271.208	0.1195	542416	keystroke_r	r	n/a
271.402	0.136	542804	keystroke_u	u	n/a
271.5385	0.104	543077	keystroke_Key.space	Key.space	n/a
271.6575	0.18	543315	keystroke_s	s	n/a
271.8525	0.09	543705	keystroke_i	i	n/a
271.898	0.0895	543796	keystroke_d	d	n/a
272.063	0.164	544126	keystroke_e	e	n/a
272.1525	0.165	544305	keystroke_s	s	n/a
272.272	0.106	544544	keystroke_Key.enter	Key.enter	n/a
272.386	4.344	544772	prompt	n/a	connected justin everyday diet\n
273.0675	0.12	546135	keystroke_c	c	n/a
273.143	0.12	546286	keystroke_o	o	n/a
273.3075	0.09	546615	keystroke_n	n	n/a
273.623	0.015	547246	keystroke_n	n	n/a
273.653	0.0895	547306	keystroke_e	e	n/a
273.863	0.075	547726	keystroke_c	c	n/a
273.998	0.1345	547996	keystroke_t	t	n/a
274.0725	0.075	548145	keystroke_e	e	n/a
274.223	0.1195	548446	keystroke_d	d	n/a
274.3275	0.1055	548655	keystroke_Key.space	Key.space	n/a
274.418	0.075	548836	keystroke_j	j	n/a
274.5975	0.0755	549195	keystroke_u	u	n/a
274.658	0.165	549316	keystroke_s	s	n/a
274.748	0.135	549496	keystroke_t	t	n/a
274.8075	0.1505	549615	keystroke_i	i	n/a
274.8975	0.1205	549795	keystroke_n	n	n/a
275.003	0.135	550006	keystroke_Key.space	Key.space	n/a
275.093	0.1195	550186	keystroke_e	e	n/a
275.258	0.1205	550516	keystroke_v	v	n/a
275.3635	0.164	550727	keystroke_e	e	n/a
275.453	0.135	550906	keystroke_r	r	n/a
275.5425	0.0905	551085	keystroke_y	y	n/a
275.738	0.15	551476	keystroke_d	d	n/a
275.8425	0.1505	551685	keystroke_a	a	n/a
275.918	0.105	551836	keystroke_y	y	n/a
276.008	0.0895	552016	keystroke_Key.space	Key.space	n/a
276.1425	0.135	552285	keystroke_d	d	n/a
276.263	0.1345	552526	keystroke_i	i	n/a
276.383	0.195	552766	keystroke_e	e	n/a
276.5035	0.1195	553007	keystroke_t	t	n/a
276.608	0.1195	553216	keystroke_Key.enter	Key.enter	n/a
276.735	7.7655	553470	prompt	n/a	shorter livestock chubby indian\n
277.4325	0.1655	554865	keystroke_s	s	n/a
277.523	0.1195	555046	keystroke_h	h	n/a
277.598	0.12	555196	keystroke_o	o	n/a
277.658	0.0895	555316	keystroke_r	r	n/a
277.8375	0.09	555675	keystroke_t	t	n/a
277.883	0.21	555766	keystroke_e	e	n/a
278.0635	0.18	556127	keystroke_r	r	n/a
278.439	0.179	556878	keystroke_Key.space	Key.space	n/a
278.6025	0.18	557205	keystroke_l	l	n/a
278.678	0.1505	557356	keystroke_i	i	n/a
278.783	0.105	557566	keystroke_v	v	n/a
278.873	0.2245	557746	keystroke_e	e	n/a
278.993	0.2105	557986	keystroke_s	s	n/a
279.248	0.15	558496	keystroke_t	t	n/a
279.3825	0.1505	558765	keystroke_o	o	n/a
279.4735	0.1045	558947	keystroke_n	n	n/a
279.5635	0.119	559127	keystroke_g	g	n/a
279.638	0.1055	559276	keystroke_Key.space	Key.space	n/a
279.9085	0.1345	559817	keystroke_c	c	n/a
279.998	0.0455	559996	keystroke_h	h	n/a
280.148	0.075	560296	keystroke_u	u	n/a
280.4335	0.0595	560867	keystroke_Key.backspace	Key.backspace	n/a
280.568	0.075	561136	keystroke_Key.backspace	Key.backspace	n/a
280.733	0.0905	561466	keystroke_Key.backspace	Key.backspace	n/a
280.883	0.0755	561766	keystroke_Key.backspace	Key.backspace	n/a
281.0635	0.06	562127	keystroke_Key.backspace	Key.backspace	n/a
281.213	0.0755	562426	keystroke_Key.backspace	Key.backspace	n/a
281.3935	0.0595	562787	keystroke_Key.backspace	Key.backspace	n/a
282.0385	0.09	564077	keystroke_o	o	n/a
282.1435	0.165	564287	keystroke_c	c	n/a
282.2485	0.15	564497	keystroke_k	k	n/a
282.3835	0.12	564767	keystroke_Key.space	Key.space	n/a
282.7285	0.165	565457	keystroke_c	c	n/a
282.8185	0.045	565637	keystroke_h	h	n/a
282.998	0.0455	565996	keystroke_u	u	n/a
283.058	0.106	566116	keystroke_b	b	n/a
283.2385	0.12	566477	keystroke_b	b	n/a
283.313	0.0755	566626	keystroke_y	y	n/a
283.3435	0.09	566687	keystroke_Key.space	Key.space	n/a
283.5835	0.09	567167	keystroke_i	i	n/a
283.703	0.12	567406	keystroke_n	n	n/a
283.809	0.135	567618	keystroke_d	d	n/a
283.928	0.076	567856	keystroke_i	i	n/a
284.0185	0.15	568037	keystroke_a	a	n/a
284.1835	0.1205	568367	keystroke_n	n	n/a
284.4085	0.0895	568817	keystroke_Key.enter	Key.enter	n/a
284.5035	4.902	569007	prompt	n/a	romantic reforms towards dimensions\n
285.2785	0.12	570557	keystroke_r	r	n/a
285.3095	0.134	570619	keystroke_o	o	n/a
285.4285	0.1055	570857	keystroke_m	m	n/a
285.519	0.1345	571038	keystroke_a	a	n/a
285.624	0.1045	571248	keystroke_n	n	n/a
285.7585	0.106	571517	keystroke_t	t	n/a
285.8485	0.1055	571697	keystroke_i	i	n/a
285.969	0.135	571938	keystroke_c	c	n/a
286.074	0.1045	572148	keystroke_Key.space	Key.space	n/a
286.209	0.135	572418	keystroke_r	r	n/a
286.2985	0.09	572597	keystroke_e	e	n/a
286.509	0.045	573018	keystroke_f	f	n/a
286.5685	0.1205	573137	keystroke_o	o	n/a
286.659	0.075	573318	keystroke_r	r	n/a
286.9285	0.136	573857	keystroke_m	m	n/a
287.049	0.105	574098	keystroke_s	s	n/a
287.1545	0.0745	574309	keystroke_Key.space	Key.space	n/a
287.364	0.075	574728	keystroke_t	t	n/a
287.499	0.1655	574998	keystroke_o	o	n/a
287.649	0.1345	575298	keystroke_w	w	n/a
287.754	0.1045	575508	keystroke_a	a	n/a
287.844	0.1205	575688	keystroke_r	r	n/a
287.934	0.2095	575868	keystroke_d	d	n/a
288.0085	0.1655	576017	keystroke_s	s	n/a
288.1585	0.0605	576317	keystroke_Key.space	Key.space	n/a
288.234	0.1345	576468	keystroke_d	d	n/a
288.309	0.1045	576618	keystroke_i	i	n/a
288.429	0.12	576858	keystroke_m	m	n/a
288.534	0.105	577068	keystroke_e	e	n/a
288.639	0.105	577278	keystroke_n	n	n/a
288.759	0.1055	577518	keystroke_s	s	n/a
288.849	0.1795	577698	keystroke_i	i	n/a
288.909	0.165	577818	keystroke_o	o	n/a
288.9685	0.1505	577937	keystroke_n	n	n/a
289.059	0.165	578118	keystroke_s	s	n/a
289.2985	0.1055	578597	keystroke_Key.enter	Key.enter	n/a
289.4085	3.942	578817	prompt	n/a	thats appreciation french asian\n
290.0935	0.105	580187	keystroke_t	t	n/a
290.154	0.105	580308	keystroke_h	h	n/a
290.244	0.105	580488	keystroke_a	a	n/a
290.3045	0.164	580609	keystroke_t	t	n/a
290.424	0.106	580848	keystroke_s	s	n/a
290.5145	0.1195	581029	keystroke_Key.space	Key.space	n/a
290.709	0.121	581418	keystroke_a	a	n/a
290.814	0.06	581628	keystroke_p	p	n/a
290.9495	0.1195	581899	keystroke_p	p	n/a
290.9805	0.1335	581961	keystroke_r	r	n/a
291.0395	0.0905	582079	keystroke_e	e	n/a
291.234	0.1495	582468	keystroke_c	c	n/a
291.3095	0.0895	582619	keystroke_i	i	n/a
291.3985	0.106	582797	keystroke_a	a	n/a
291.4595	0.1505	582919	keystroke_t	t	n/a
291.534	0.15	583068	keystroke_i	i	n/a
291.5945	0.12	583189	keystroke_o	o	n/a
291.6545	0.12	583309	keystroke_n	n	n/a
291.6985	0.121	583397	keystroke_Key.space	Key.space	n/a
291.804	0.075	583608	keystroke_f	f	n/a
291.969	0.1505	583938	keystroke_r	r	n/a
292.0145	0.1345	584029	keystroke_e	e	n/a
292.1645	0.09	584329	keystroke_n	n	n/a
292.2995	0.1345	584599	keystroke_c	c	n/a
292.3895	0.091	584779	keystroke_h	h	n/a
292.4645	0.0895	584929	keystroke_Key.space	Key.space	n/a
292.569	0.1655	585138	keystroke_a	a	n/a
292.7195	0.09	585439	keystroke_s	s	n/a
292.8245	0.0595	585649	keystroke_i	i	n/a
292.8995	0.15	585799	keystroke_a	a	n/a
293.0645	0.1045	586129	keystroke_n	n	n/a
293.244	0.105	586488	keystroke_Key.enter	Key.enter	n/a
293.354	7.483	586708	prompt	n/a	tribune strict committees syracuse\n
294.414	0.0905	588828	keystroke_t	t	n/a
294.639	0.03	589278	keystroke_r	r	n/a
294.6545	0.06	589309	keystroke_i	i	n/a
294.7595	0.09	589519	keystroke_b	b	n/a
294.8195	0.09	589639	keystroke_u	u	n/a
295.2395	0.0915	590479	keystroke_n	n	n/a
295.3305	0.104	590661	keystroke_e	e	n/a
295.4805	0.104	590961	keystroke_Key.space	Key.space	n/a
295.6145	0.1795	591229	keystroke_s	s	n/a
295.749	0.0605	591498	keystroke_t	t	n/a
295.884	0.1055	591768	keystroke_r	r	n/a
295.9445	0.09	591889	keystroke_i	i	n/a
296.0645	0.12	592129	keystroke_c	c	n/a
296.2305	0.1045	592461	keystroke_t	t	n/a
296.335	0.0455	592670	keystroke_Key.space	Key.space	n/a
296.4845	0.135	592969	keystroke_c	c	n/a
296.5745	0.075	593149	keystroke_o	o	n/a
296.77	0.0605	593540	keystroke_m	m	n/a
296.8745	0.1205	593749	keystroke_m	m	n/a
296.95	0.1345	593900	keystroke_i	i	n/a
297.0395	0.092	594079	keystroke_t	t	n/a
297.235	0.0595	594470	keystroke_t	t	n/a
297.2805	0.15	594561	keystroke_e	e	n/a
297.6245	0.015	595249	keystroke_e	e	n/a
299.065	0.09	598130	keystroke_s	s	n/a
299.1555	0.0895	598311	keystroke_Key.space	Key.space	n/a
299.515	0.15	599030	keystroke_s	s	n/a
299.681	0.074	599362	keystroke_y	y	n/a
299.7705	0.1345	599541	keystroke_r	r	n/a
299.845	0.15	599690	keystroke_a	a	n/a
300.0705	0.1795	600141	keystroke_c	c	n/a
300.1755	0.0895	600351	keystroke_u	u	n/a
300.475	0.21	600950	keystroke_s	s	n/a
300.595	0.1505	601190	keystroke_e	e	n/a
300.7605	0.075	601521	keystroke_Key.enter	Key.enter	n/a
300.84	6.883	601680	prompt	n/a	congress production costa communications\n
301.5855	0.135	603171	keystroke_c	c	n/a
301.631	0.15	603262	keystroke_o	o	n/a
301.7055	0.1195	603411	keystroke_n	n	n/a
301.795	0.0605	603590	keystroke_g	g	n/a
301.99	0.105	603980	keystroke_r	r	n/a
302.0205	0.105	604041	keystroke_e	e	n/a
302.335	0.1205	604670	keystroke_s	s	n/a
302.5315	0.1635	605063	keystroke_s	s	n/a
302.6505	0.105	605301	keystroke_Key.space	Key.space	n/a
302.7405	0.1195	605481	keystroke_p	p	n/a
302.8755	0.09	605751	keystroke_r	r	n/a
302.9505	0.0895	605901	keystroke_o	o	n/a
303.1755	0.075	606351	keystroke_u	u	n/a
303.5355	0.1195	607071	keystroke_Key.backspace	Key.backspace	n/a
303.7455	0.105	607491	keystroke_d	d	n/a
303.8955	0.075	607791	keystroke_u	u	n/a
304.0005	0.0745	608001	keystroke_c	c	n/a
304.151	0.0895	608302	keystroke_t	t	n/a
304.2555	0.1655	608511	keystroke_i	i	n/a
304.3155	0.1355	608631	keystroke_o	o	n/a
304.3755	0.135	608751	keystroke_n	n	n/a
304.466	0.105	608932	keystroke_Key.space	Key.space	n/a
304.7205	0.105	609441	keystroke_c	c	n/a
304.796	0.12	609592	keystroke_o	o	n/a
304.901	0.1805	609802	keystroke_s	s	n/a
305.066	0.135	610132	keystroke_t	t	n/a
305.156	0.1195	610312	keystroke_a	a	n/a
305.321	0.0895	610642	keystroke_Key.space	Key.space	n/a
305.561	0.135	611122	keystroke_c	c	n/a
305.651	0.0305	611302	keystroke_o	o	n/a
305.816	0.06	611632	keystroke_m	m	n/a
305.966	0.0895	611932	keystroke_m	m	n/a
306.176	0.075	612352	keystroke_u	u	n/a
306.3555	0.1205	612711	keystroke_n	n	n/a
306.416	0.1655	612832	keystroke_i	i	n/a
306.5355	0.135	613071	keystroke_c	c	n/a
306.6255	0.166	613251	keystroke_a	a	n/a
306.7765	0.119	613553	keystroke_t	t	n/a
306.8365	0.18	613673	keystroke_i	i	n/a
306.882	0.179	613764	keystroke_o	o	n/a
306.9405	0.1355	613881	keystroke_n	n	n/a
307.091	0.1495	614182	keystroke_s	s	n/a
307.646	0.075	615292	keystroke_Key.enter	Key.enter	n/a
307.7255	11.6545	615451	prompt	n/a	sussex entrepreneurs pitch fatty\n
308.411	0.0755	616822	keystroke_s	s	n/a
308.487	0.089	616974	keystroke_u	u	n/a
308.5915	0.075	617183	keystroke_c	c	n/a
308.7565	0.12	617513	keystroke_c	c	n/a
309.0865	0.0455	618173	keystroke_Key.backspace	Key.backspace	n/a
309.326	0.0305	618652	keystroke_Key.backspace	Key.backspace	n/a
309.341	0.0605	618682	keystroke_s	s	n/a
309.5065	0.06	619013	keystroke_s	s	n/a
309.641	0.1205	619282	keystroke_e	e	n/a
309.836	0.09	619672	keystroke_s	s	n/a
310.2415	0.12	620483	keystroke_Key.backspace	Key.backspace	n/a
310.332	0.134	620664	keystroke_x	x	n/a
310.482	0.1045	620964	keystroke_Key.space	Key.space	n/a
310.751	0.1205	621502	keystroke_e	e	n/a
310.8565	0.105	621713	keystroke_n	n	n/a
310.9465	0.105	621893	keystroke_t	t	n/a
311.0965	0.105	622193	keystroke_e	e	n/a
311.217	0.135	622434	keystroke_r	r	n/a
311.517	0.03	623034	keystroke_Key.backspace	Key.backspace	n/a
311.637	0.1195	623274	keystroke_Key.backspace	Key.backspace	n/a
311.6965	0.1955	623393	keystroke_r	r	n/a
311.802	0.105	623604	keystroke_e	e	n/a
311.922	0.0895	623844	keystroke_m	m	n/a
312.447	0.075	624894	keystroke_Key.backspace	Key.backspace	n/a
312.672	0.135	625344	keystroke_p	p	n/a
312.747	0.135	625494	keystroke_r	r	n/a
312.792	0.1345	625584	keystroke_e	e	n/a
313.467	0.0755	626934	keystroke_u	u	n/a
313.7065	0.105	627413	keystroke_n	n	n/a
313.827	0.135	627654	keystroke_e	e	n/a
313.917	0.1355	627834	keystroke_r	r	n/a
314.037	0.151	628074	keystroke_s	s	n/a
314.2775	0.0745	628555	keystroke_Key.backspace	Key.backspace	n/a
314.4425	0.075	628885	keystroke_Key.backspace	Key.backspace	n/a
314.6075	0.06	629215	keystroke_Key.backspace	Key.backspace	n/a
314.7725	0.045	629545	keystroke_Key.backspace	Key.backspace	n/a
314.937	0.0455	629874	keystroke_Key.backspace	Key.backspace	n/a
315.312	0.0605	630624	keystroke_n	n	n/a
315.3725	0.1655	630745	keystroke_e	e	n/a
315.5225	0.06	631045	keystroke_u	u	n/a
316.167	0.1205	632334	keystroke_r	r	n/a
316.3625	0.1205	632725	keystroke_s	s	n/a
316.483	0.089	632966	keystroke_Key.space	Key.space	n/a
316.678	0.1495	633356	keystroke_p	p	n/a
316.7825	0.12	633565	keystroke_i	i	n/a
317.367	0.0605	634734	keystroke_t	t	n/a
317.548	0.1495	635096	keystroke_c	c	n/a
317.6525	0.135	635305	keystroke_h	h	n/a
317.8335	0.149	635667	keystroke_Key.space	Key.space	n/a
318.5675	0.1055	637135	keystroke_f	f	n/a
318.658	0.135	637316	keystroke_a	a	n/a
318.808	0.0895	637616	keystroke_t	t	n/a
318.9875	0.1055	637975	keystroke_t	t	n/a
319.063	0.09	638126	keystroke_y	y	n/a
319.288	0.0895	638576	keystroke_Key.enter	Key.enter	n/a
319.3835	4.4065	638767	prompt	n/a	louise programs roman rubber\n
320.1725	0.105	640345	keystroke_l	l	n/a
320.443	0.18	640886	keystroke_o	o	n/a
320.593	0.15	641186	keystroke_u	u	n/a
320.878	0.135	641756	keystroke_i	i	n/a
321.0135	0.179	642027	keystroke_s	s	n/a
321.1185	0.134	642237	keystroke_e	e	n/a
321.2085	0.104	642417	keystroke_Key.space	Key.space	n/a
321.298	0.165	642596	keystroke_p	p	n/a
321.418	0.105	642836	keystroke_r	r	n/a
321.5085	0.1045	643017	keystroke_o	o	n/a
321.598	0.0755	643196	keystroke_g	g	n/a
321.763	0.12	643526	keystroke_r	r	n/a
321.8085	0.18	643617	keystroke_a	a	n/a
321.9135	0.1195	643827	keystroke_m	m	n/a
322.018	0.09	644036	keystroke_s	s	n/a
322.1235	0.1795	644247	keystroke_Key.space	Key.space	n/a
322.289	0.1195	644578	keystroke_r	r	n/a
322.3485	0.1195	644697	keystroke_o	o	n/a
322.484	0.104	644968	keystroke_m	m	n/a
322.603	0.165	645206	keystroke_a	a	n/a
322.6935	0.105	645387	keystroke_n	n	n/a
322.783	0.1355	645566	keystroke_Key.space	Key.space	n/a
322.9035	0.105	645807	keystroke_r	r	n/a
322.9935	0.12	645987	keystroke_u	u	n/a
323.1285	0.1045	646257	keystroke_b	b	n/a
323.338	0.1205	646676	keystroke_b	b	n/a
323.5185	0.18	647037	keystroke_e	e	n/a
323.5935	0.15	647187	keystroke_r	r	n/a
323.6835	0.105	647367	keystroke_Key.enter	Key.enter	n/a
323.7935	6.7465	647587	prompt	n/a	matter default afghanistan legislative\n
324.4185	0.1195	648837	keystroke_m	m	n/a
324.493	0.1355	648986	keystroke_a	a	n/a
324.5835	0.09	649167	keystroke_t	t	n/a
324.734	0.104	649468	keystroke_t	t	n/a
324.8235	0.195	649647	keystroke_e	e	n/a
324.9435	0.12	649887	keystroke_r	r	n/a
325.064	0.074	650128	keystroke_Key.space	Key.space	n/a
325.123	0.0605	650246	keystroke_d	d	n/a
325.2735	0.09	650547	keystroke_e	e	n/a
325.334	0.1345	650668	keystroke_f	f	n/a
325.409	0.1495	650818	keystroke_a	a	n/a
325.499	0.1345	650998	keystroke_u	u	n/a
325.5735	0.15	651147	keystroke_l	l	n/a
325.6485	0.1195	651297	keystroke_t	t	n/a
325.708	0.135	651416	keystroke_Key.space	Key.space	n/a
325.994	0.15	651988	keystroke_a	a	n/a
326.099	0.1195	652198	keystroke_f	f	n/a
326.4285	0.09	652857	keystroke_g	g	n/a
326.549	0.045	653098	keystroke_h	h	n/a
326.6385	0.1505	653277	keystroke_a	a	n/a
326.744	0.1055	653488	keystroke_n	n	n/a
326.8345	0.134	653669	keystroke_i	i	n/a
326.924	0.1345	653848	keystroke_s	s	n/a
327.014	0.165	654028	keystroke_t	t	n/a
327.134	0.09	654268	keystroke_a	a	n/a
327.2385	0.1055	654477	keystroke_n	n	n/a
327.299	0.12	654598	keystroke_Key.space	Key.space	n/a
327.4935	0.136	654987	keystroke_l	l	n/a
327.5685	0.12	655137	keystroke_e	e	n/a
327.959	0.135	655918	keystroke_g	g	n/a
328.079	0.1045	656158	keystroke_i	i	n/a
328.169	0.1495	656338	keystroke_s	s	n/a
328.289	0.12	656578	keystroke_t	t	n/a
328.484	0.075	656968	keystroke_l	l	n/a
328.799	0.075	657598	keystroke_Key.backspace	Key.backspace	n/a
328.934	0.0895	657868	keystroke_Key.backspace	Key.backspace	n/a
329.7885	0.135	659577	keystroke_l	l	n/a
329.909	0.1045	659818	keystroke_a	a	n/a
329.999	0.105	659998	keystroke_t	t	n/a
330.104	0.1195	660208	keystroke_i	i	n/a
330.194	0.15	660388	keystroke_v	v	n/a
330.2835	0.1355	660567	keystroke_e	e	n/a
330.434	0.1045	660868	keystroke_Key.enter	Key.enter	n/a
330.543	4.693	661086	prompt	n/a	provided cheap notified stripes\n
331.184	0.105	662368	keystroke_p	p	n/a
331.2445	0.12	662489	keystroke_r	r	n/a
331.3645	0.1045	662729	keystroke_o	o	n/a
331.4985	0.121	662997	keystroke_v	v	n/a
331.604	0.1045	663208	keystroke_i	i	n/a
331.664	0.12	663328	keystroke_d	d	n/a
331.859	0.06	663718	keystroke_e	e	n/a
332.024	0.105	664048	keystroke_d	d	n/a
332.114	0.09	664228	keystroke_Key.space	Key.space	n/a
332.249	0.075	664498	keystroke_c	c	n/a
332.324	0.12	664648	keystroke_h	h	n/a
332.4295	0.1345	664859	keystroke_e	e	n/a
332.489	0.1805	664978	keystroke_a	a	n/a
332.5785	0.1205	665157	keystroke_p	p	n/a
332.654	0.09	665308	keystroke_Key.space	Key.space	n/a
332.8045	0.119	665609	keystroke_n	n	n/a
332.894	0.12	665788	keystroke_o	o	n/a
333.059	0.0905	666118	keystroke_t	t	n/a
333.1345	0.0895	666269	keystroke_i	i	n/a
333.269	0.09	666538	keystroke_f	f	n/a
333.344	0.12	666688	keystroke_i	i	n/a
333.809	0.09	667618	keystroke_e	e	n/a
333.9895	0.1345	667979	keystroke_d	d	n/a
334.0795	0.12	668159	keystroke_Key.space	Key.space	n/a
334.2145	0.1195	668429	keystroke_s	s	n/a
334.3045	0.06	668609	keystroke_t	t	n/a
334.4695	0.0895	668939	keystroke_r	r	n/a
334.694	0.1505	669388	keystroke_i	i	n/a
334.8145	0.15	669629	keystroke_p	p	n/a
334.9045	0.1645	669809	keystroke_e	e	n/a
335.024	0.1505	670048	keystroke_s	s	n/a
335.1595	0.075	670319	keystroke_Key.enter	Key.enter	n/a
335.239	4.363	670478	prompt	n/a	produced plan consistent reliable\n
335.924	0.0905	671848	keystroke_p	p	n/a
335.999	0.1205	671998	keystroke_r	r	n/a
336.1045	0.1195	672209	keystroke_o	o	n/a
336.2395	0.045	672479	keystroke_d	d	n/a
336.3005	0.074	672601	keystroke_u	u	n/a
336.389	0.105	672778	keystroke_c	c	n/a
336.5395	0.075	673079	keystroke_e	e	n/a
336.7195	0.135	673439	keystroke_d	d	n/a
336.809	0.0905	673618	keystroke_Key.space	Key.space	n/a
336.8695	0.165	673739	keystroke_p	p	n/a
336.9295	0.15	673859	keystroke_l	l	n/a
337.094	0.1805	674188	keystroke_a	a	n/a
337.1995	0.1355	674399	keystroke_n	n	n/a
337.2895	0.1345	674579	keystroke_Key.space	Key.space	n/a
337.545	0.134	675090	keystroke_c	c	n/a
337.6045	0.1345	675209	keystroke_o	o	n/a
337.679	0.106	675358	keystroke_n	n	n/a
337.724	0.1055	675448	keystroke_s	s	n/a
337.8445	0.12	675689	keystroke_i	i	n/a
337.935	0.119	675870	keystroke_s	s	n/a
338.009	0.1655	676018	keystroke_t	t	n/a
338.0845	0.15	676169	keystroke_e	e	n/a
338.2045	0.1345	676409	keystroke_n	n	n/a
338.3845	0.15	676769	keystroke_t	t	n/a
338.4895	0.1345	676979	keystroke_Key.space	Key.space	n/a
338.6395	0.18	677279	keystroke_r	r	n/a
338.715	0.1195	677430	keystroke_e	e	n/a
338.835	0.2095	677670	keystroke_l	l	n/a
338.9395	0.135	677879	keystroke_i	i	n/a
339.0145	0.12	678029	keystroke_a	a	n/a
339.164	0.1355	678328	keystroke_b	b	n/a
339.2695	0.105	678539	keystroke_l	l	n/a
339.3595	0.1345	678719	keystroke_e	e	n/a
339.5095	0.09	679019	keystroke_Key.enter	Key.enter	n/a
339.6045	5.487	679209	prompt	n/a	constructed serving trout forms\n
340.3195	0.1345	680639	keystroke_c	c	n/a
340.379	0.1205	680758	keystroke_o	o	n/a
340.424	0.1355	680848	keystroke_n	n	n/a
340.5145	0.15	681029	keystroke_s	s	n/a
340.6195	0.0745	681239	keystroke_t	t	n/a
340.7845	0.0905	681569	keystroke_r	r	n/a
340.8445	0.1345	681689	keystroke_u	u	n/a
340.9505	0.119	681901	keystroke_c	c	n/a
341.1005	0.164	682201	keystroke_t	t	n/a
341.1895	0.1045	682379	keystroke_e	e	n/a
341.399	0.091	682798	keystroke_d	d	n/a
341.4745	0.12	682949	keystroke_Key.space	Key.space	n/a
341.64	0.195	683280	keystroke_s	s	n/a
341.7445	0.1195	683489	keystroke_e	e	n/a
341.8045	0.0895	683609	keystroke_r	r	n/a
342.0145	0.0905	684029	keystroke_v	v	n/a
342.0895	0.1495	684179	keystroke_i	i	n/a
342.1505	0.1035	684301	keystroke_n	n	n/a
342.1945	0.1065	684389	keystroke_g	g	n/a
342.301	0.1495	684602	keystroke_Key.space	Key.space	n/a
342.794	0.0755	685588	keystroke_t	t	n/a
343.0045	0.12	686009	keystroke_r	r	n/a
343.1095	0.1645	686219	keystroke_o	o	n/a
343.2005	0.0885	686401	keystroke_u	u	n/a
343.514	0.12	687028	keystroke_t	t	n/a
343.619	0.1205	687238	keystroke_Key.space	Key.space	n/a
343.7545	0.1055	687509	keystroke_f	f	n/a
344.025	0.1495	688050	keystroke_a	a	n/a
344.3845	0.09	688769	keystroke_Key.backspace	Key.backspace	n/a
344.5945	0.107	689189	keystroke_o	o	n/a
344.7145	0.0895	689429	keystroke_r	r	n/a
344.79	0.089	689580	keystroke_m	m	n/a
344.8945	0.135	689789	keystroke_s	s	n/a
345.0005	0.0895	690001	keystroke_Key.enter	Key.enter	n/a
345.0945	3.5075	690189	prompt	n/a	penn this parties bolivia\n
345.7195	0.135	691439	keystroke_p	p	n/a
345.8395	0.075	691679	keystroke_e	e	n/a
345.93	0.0745	691860	keystroke_n	n	n/a
346.0795	0.15	692159	keystroke_n	n	n/a
346.2145	0.1505	692429	keystroke_Key.space	Key.space	n/a
346.2745	0.135	692549	keystroke_t	t	n/a
346.3645	0.0905	692729	keystroke_h	h	n/a
346.425	0.105	692850	keystroke_i	i	n/a
346.485	0.104	692970	keystroke_s	s	n/a
346.5595	0.135	693119	keystroke_Key.space	Key.space	n/a
346.6345	0.1205	693269	keystroke_p	p	n/a
346.71	0.1505	693420	keystroke_a	a	n/a
346.8145	0.0755	693629	keystroke_r	r	n/a
346.965	0.12	693930	keystroke_t	t	n/a
347.04	0.105	694080	keystroke_i	i	n/a
347.115	0.15	694230	keystroke_e	e	n/a
347.19	0.135	694380	keystroke_s	s	n/a
347.295	0.06	694590	keystroke_Key.space	Key.space	n/a
347.685	0.1655	695370	keystroke_b	b	n/a
347.76	0.0745	695520	keystroke_o	o	n/a
347.94	0.1495	695880	keystroke_l	l	n/a
348.015	0.0895	696030	keystroke_i	i	n/a
348.18	0.15	696360	keystroke_v	v	n/a
348.255	0.12	696510	keystroke_i	i	n/a
348.36	0.15	696720	keystroke_a	a	n/a
348.495	0.1055	696990	keystroke_Key.enter	Key.enter	n/a
348.6055	4.526	697211	prompt	n/a	bank listed implement kuwait\n
349.2895	0.1355	698579	keystroke_b	b	n/a
349.3795	0.1355	698759	keystroke_a	a	n/a
349.501	0.15	699002	keystroke_n	n	n/a
349.6195	0.0905	699239	keystroke_k	k	n/a
349.695	0.135	699390	keystroke_Key.space	Key.space	n/a
349.815	0.195	699630	keystroke_l	l	n/a
349.89	0.15	699780	keystroke_i	i	n/a
349.965	0.165	699930	keystroke_s	s	n/a
350.055	0.1495	700110	keystroke_t	t	n/a
350.145	0.1055	700290	keystroke_e	e	n/a
350.355	0.12	700710	keystroke_d	d	n/a
350.43	0.0745	700860	keystroke_Key.space	Key.space	n/a
350.64	0.1495	701280	keystroke_i	i	n/a
350.745	0.1795	701490	keystroke_m	m	n/a
350.865	0.18	701730	keystroke_p	p	n/a
350.9855	0.165	701971	keystroke_l	l	n/a
351.1045	0.1355	702209	keystroke_e	e	n/a
351.375	0.105	702750	keystroke_m	m	n/a
351.495	0.135	702990	keystroke_e	e	n/a
351.6015	0.118	703203	keystroke_n	n	n/a
351.7045	0.1205	703409	keystroke_t	t	n/a
351.81	0.0895	703620	keystroke_Key.space	Key.space	n/a
352.2145	0.0455	704429	keystroke_k	k	n/a
352.425	0.0595	704850	keystroke_u	u	n/a
352.6505	0.15	705301	keystroke_w	w	n/a
352.725	0.1495	705450	keystroke_a	a	n/a
352.815	0.1045	705630	keystroke_i	i	n/a
352.935	0.1505	705870	keystroke_t	t	n/a
353.01	0.12	706020	keystroke_Key.enter	Key.enter	n/a
353.1365	4.105	706273	prompt	n/a	already foot thumbs controls\n
353.8345	0.135	707669	keystroke_a	a	n/a
353.925	0.135	707850	keystroke_l	l	n/a
354.015	0.1345	708030	keystroke_r	r	n/a
354.075	0.09	708150	keystroke_e	e	n/a
354.1345	0.1055	708269	keystroke_a	a	n/a
354.255	0.1795	708510	keystroke_d	d	n/a
354.36	0.0595	708720	keystroke_y	y	n/a
354.4045	0.1055	708809	keystroke_Key.space	Key.space	n/a
354.555	0.1645	709110	keystroke_f	f	n/a
354.66	0.0445	709320	keystroke_o	o	n/a
354.78	0.121	709560	keystroke_o	o	n/a
354.885	0.075	709770	keystroke_t	t	n/a
354.945	0.09	709890	keystroke_Key.space	Key.space	n/a
355.0945	0.1205	710189	keystroke_t	t	n/a
355.17	0.06	710340	keystroke_h	h	n/a
355.365	0.045	710730	keystroke_u	u	n/a
355.545	0.135	711090	keystroke_m	m	n/a
355.875	0.12	711750	keystroke_b	b	n/a
355.98	0.105	711960	keystroke_s	s	n/a
356.07	0.12	712140	keystroke_Key.space	Key.space	n/a
356.2345	0.166	712469	keystroke_c	c	n/a
356.31	0.135	712620	keystroke_o	o	n/a
356.3855	0.166	712771	keystroke_n	n	n/a
356.5345	0.0455	713069	keystroke_t	t	n/a
356.655	0.1495	713310	keystroke_r	r	n/a
356.73	0.0895	713460	keystroke_o	o	n/a
356.925	0.09	713850	keystroke_l	l	n/a
357.001	0.1635	714002	keystroke_s	s	n/a
357.1505	0.089	714301	keystroke_Key.enter	Key.enter	n/a
357.245	7.362	714490	prompt	n/a	update attraction photography wondering\n
358.0505	0.0445	716101	keystroke_u	u	n/a
358.2895	0.1205	716579	keystroke_p	p	n/a
358.395	0.1355	716790	keystroke_d	d	n/a
358.5145	0.1205	717029	keystroke_a	a	n/a
358.6045	0.1355	717209	keystroke_t	t	n/a
358.6195	0.1505	717239	keystroke_e	e	n/a
358.755	0.075	717510	keystroke_Key.space	Key.space	n/a
358.815	0.1355	717630	keystroke_a	a	n/a
358.9045	0.1205	717809	keystroke_t	t	n/a
359.1005	0.0745	718201	keystroke_t	t	n/a
359.28	0.121	718560	keystroke_r	r	n/a
359.355	0.09	718710	keystroke_a	a	n/a
359.5045	0.1055	719009	keystroke_c	c	n/a
359.655	0.1205	719310	keystroke_t	t	n/a
359.76	0.15	719520	keystroke_i	i	n/a
359.7895	0.1355	719579	keystroke_o	o	n/a
359.8345	0.1505	719669	keystroke_n	n	n/a
359.94	0.1495	719880	keystroke_Key.space	Key.space	n/a
360.255	0.1195	720510	keystroke_p	p	n/a
360.33	0.135	720660	keystroke_h	h	n/a
360.4195	0.1205	720839	keystroke_o	o	n/a
360.555	0.09	721110	keystroke_t	t	n/a
360.63	0.1205	721260	keystroke_o	o	n/a
360.765	0.075	721530	keystroke_g	g	n/a
360.945	0.1345	721890	keystroke_r	r	n/a
361.0045	0.1355	722009	keystroke_a	a	n/a
361.0945	0.1205	722189	keystroke_p	p	n/a
361.3505	0.104	722701	keystroke_y	y	n/a
361.395	0.0745	722790	keystroke_Key.space	Key.space	n/a
361.545	0.12	723090	keystroke_w	w	n/a
361.62	0.105	723240	keystroke_o	o	n/a
361.68	0.1345	723360	keystroke_n	n	n/a
361.74	0.12	723480	keystroke_d	d	n/a
362.295	0.045	724590	keystroke_Key.backspace	Key.backspace	n/a
362.415	0.0745	724830	keystroke_Key.backspace	Key.backspace	n/a
362.595	0.045	725190	keystroke_Key.backspace	Key.backspace	n/a
362.7445	0.045	725489	keystroke_Key.backspace	Key.backspace	n/a
362.895	0.075	725790	keystroke_Key.backspace	Key.backspace	n/a
363.045	0.075	726090	keystroke_Key.backspace	Key.backspace	n/a
363.3445	0.045	726689	keystroke_h	h	n/a
363.495	0.075	726990	keystroke_y	y	n/a
363.5855	0.074	727171	keystroke_Key.space	Key.space	n/a
363.6745	0.1505	727349	keystroke_w	w	n/a
363.7805	0.1495	727561	keystroke_o	o	n/a
363.8405	0.1045	727681	keystroke_n	n	n/a
363.9155	0.074	727831	keystroke_d	d	n/a
364.0505	0.164	728101	keystroke_e	e	n/a
364.125	0.1045	728250	keystroke_r	r	n/a
364.17	0.15	728340	keystroke_i	i	n/a
364.2445	0.12	728489	keystroke_n	n	n/a
364.38	0.1495	728760	keystroke_g	g	n/a
364.485	0.12	728970	keystroke_Key.enter	Key.enter	n/a
364.611	3.7915	729222	prompt	n/a	means fake maternity chief\n
365.5345	0.0755	731069	keystroke_m	m	n/a
365.595	0.1345	731190	keystroke_e	e	n/a
365.6845	0.1355	731369	keystroke_a	a	n/a
365.7755	0.089	731551	keystroke_n	n	n/a
365.8955	0.06	731791	keystroke_s	s	n/a
365.94	0.135	731880	keystroke_Key.space	Key.space	n/a
366.0295	0.1355	732059	keystroke_f	f	n/a
366.09	0.165	732180	keystroke_a	a	n/a
366.21	0.1345	732420	keystroke_k	k	n/a
366.301	0.1345	732602	keystroke_e	e	n/a
366.39	0.1205	732780	keystroke_Key.space	Key.space	n/a
366.585	0.12	733170	keystroke_m	m	n/a
366.69	0.105	733380	keystroke_a	a	n/a
366.7795	0.121	733559	keystroke_t	t	n/a
366.9145	0.1505	733829	keystroke_e	e	n/a
367.0505	0.0895	734101	keystroke_r	r	n/a
367.155	0.0895	734310	keystroke_n	n	n/a
367.2295	0.105	734459	keystroke_i	i	n/a
367.2895	0.1655	734579	keystroke_t	t	n/a
367.44	0.1045	734880	keystroke_y	y	n/a
367.5295	0.0605	735059	keystroke_Key.space	Key.space	n/a
367.635	0.105	735270	keystroke_c	c	n/a
367.725	0.1345	735450	keystroke_h	h	n/a
367.815	0.15	735630	keystroke_i	i	n/a
367.95	0.09	735900	keystroke_e	e	n/a
368.205	0.12	736410	keystroke_f	f	n/a
368.28	0.121	736560	keystroke_Key.enter	Key.enter	n/a
368.406	4.7955	736812	prompt	n/a	foam voltage banned october\n
369.1045	0.1505	738209	keystroke_f	f	n/a
369.24	0.1195	738480	keystroke_o	o	n/a
369.405	0.15	738810	keystroke_a	a	n/a
369.51	0.1345	739020	keystroke_m	m	n/a
369.6	0.12	739200	keystroke_Key.space	Key.space	n/a
369.765	0.135	739530	keystroke_f	f	n/a
370.155	0.1045	740310	keystroke_Key.backspace	Key.backspace	n/a
370.275	0.15	740550	keystroke_v	v	n/a
370.3945	0.015	740789	keystroke_o	o	n/a
370.5145	0.1205	741029	keystroke_l	l	n/a
370.5895	0.1355	741179	keystroke_t	t	n/a
370.71	0.1195	741420	keystroke_a	a	n/a
370.8445	0.1655	741689	keystroke_g	g	n/a
370.95	0.12	741900	keystroke_e	e	n/a
371.0245	0.1205	742049	keystroke_Key.space	Key.space	n/a
371.22	0.12	742440	keystroke_b	b	n/a
371.295	0.15	742590	keystroke_a	a	n/a
371.4455	0.0595	742891	keystroke_n	n	n/a
371.58	0.1205	743160	keystroke_n	n	n/a
371.655	0.12	743310	keystroke_e	e	n/a
371.8505	0.1195	743701	keystroke_d	d	n/a
371.955	0.09	743910	keystroke_Key.space	Key.space	n/a
372.3005	0.135	744601	keystroke_o	o	n/a
372.39	0.15	744780	keystroke_c	c	n/a
372.585	0.15	745170	keystroke_t	t	n/a
372.72	0.12	745440	keystroke_o	o	n/a
372.855	0.0745	745710	keystroke_b	b	n/a
372.9745	0.1655	745949	keystroke_e	e	n/a
373.05	0.135	746100	keystroke_r	r	n/a
373.125	0.075	746250	keystroke_Key.enter	Key.enter	n/a
373.205	7.271	746410	prompt	n/a	radiation cartoon yield siemens\n
373.8595	0.1355	747719	keystroke_r	r	n/a
373.95	0.12	747900	keystroke_a	a	n/a
374.085	0.1345	748170	keystroke_d	d	n/a
374.145	0.135	748290	keystroke_i	i	n/a
374.265	0.105	748530	keystroke_a	a	n/a
374.355	0.18	748710	keystroke_t	t	n/a
374.4745	0.1205	748949	keystroke_i	i	n/a
374.52	0.135	749040	keystroke_o	o	n/a
374.55	0.1505	749100	keystroke_n	n	n/a
374.61	0.135	749220	keystroke_Key.space	Key.space	n/a
374.91	0.1195	749820	keystroke_c	c	n/a
375.0145	0.1655	750029	keystroke_a	a	n/a
375.1645	0.061	750329	keystroke_r	r	n/a
375.525	0.135	751050	keystroke_t	t	n/a
375.645	0.06	751290	keystroke_o	o	n/a
375.795	0.1345	751590	keystroke_o	o	n/a
375.87	0.105	751740	keystroke_n	n	n/a
375.9455	0.1495	751891	keystroke_Key.space	Key.space	n/a
376.17	0.09	752340	keystroke_y	y	n/a
376.1845	0.03	752369	keystroke_h	h	n/a
376.305	0.06	752610	keystroke_i	i	n/a
376.9945	0.09	753989	keystroke_Key.backspace	Key.backspace	n/a
377.1	0.12	754200	keystroke_Key.backspace	Key.backspace	n/a
377.5795	0.0755	755159	keystroke_i	i	n/a
377.67	0.09	755340	keystroke_e	e	n/a
377.775	0.105	755550	keystroke_l	l	n/a
377.865	0.1195	755730	keystroke_d	d	n/a
377.97	0.09	755940	keystroke_Key.space	Key.space	n/a
378.1795	0.15	756359	keystroke_s	s	n/a
378.93	0.075	757860	keystroke_i	i	n/a
378.99	0.105	757980	keystroke_e	e	n/a
379.125	0.0895	758250	keystroke_m	m	n/a
379.2295	0.1355	758459	keystroke_e	e	n/a
379.3195	0.0905	758639	keystroke_n	n	n/a
379.425	0.135	758850	keystroke_t	t	n/a
379.545	0.12	759090	keystroke_s	s	n/a
379.995	0.0745	759990	keystroke_Key.backspace	Key.backspace	n/a
380.1445	0.0905	760289	keystroke_Key.backspace	Key.backspace	n/a
380.25	0.15	760500	keystroke_s	s	n/a
380.385	0.0895	760770	keystroke_Key.enter	Key.enter	n/a
380.479	5.1125	760958	prompt	n/a	consecutive horse especially list\n
381.1945	0.105	762389	keystroke_c	c	n/a
381.2845	0.1505	762569	keystroke_o	o	n/a
381.42	0.135	762840	keystroke_n	n	n/a
381.51	0.15	763020	keystroke_s	s	n/a
381.5695	0.1355	763139	keystroke_e	e	n/a
381.84	0.15	763680	keystroke_c	c	n/a
381.945	0.09	763890	keystroke_u	u	n/a
382.2	0.06	764400	keystroke_t	t	n/a
382.215	0.105	764430	keystroke_i	i	n/a
382.3505	0.149	764701	keystroke_v	v	n/a
382.4255	0.104	764851	keystroke_e	e	n/a
382.5	0.135	765000	keystroke_Key.space	Key.space	n/a
382.5745	0.1355	765149	keystroke_h	h	n/a
382.65	0.167	765300	keystroke_o	o	n/a
382.875	0.0755	765750	keystroke_r	r	n/a
383.055	0.165	766110	keystroke_s	s	n/a
383.1	0.1505	766200	keystroke_e	e	n/a
383.205	0.12	766410	keystroke_Key.space	Key.space	n/a
383.6695	0.09	767339	keystroke_e	e	n/a
383.835	0.105	767670	keystroke_s	s	n/a
383.925	0.12	767850	keystroke_p	p	n/a
383.9695	0.0905	767939	keystroke_e	e	n/a
384.1645	0.12	768329	keystroke_c	c	n/a
384.2545	0.0905	768509	keystroke_i	i	n/a
384.36	0.15	768720	keystroke_a	a	n/a
384.465	0.045	768930	keystroke_l	l	n/a
384.616	0.209	769232	keystroke_l	l	n/a
384.735	0.1495	769470	keystroke_y	y	n/a
384.93	0.1345	769860	keystroke_Key.space	Key.space	n/a
385.08	0.18	770160	keystroke_l	l	n/a
385.17	0.15	770340	keystroke_i	i	n/a
385.245	0.195	770490	keystroke_s	s	n/a
385.35	0.15	770700	keystroke_t	t	n/a
385.4695	0.1205	770939	keystroke_Key.enter	Key.enter	n/a
385.594	4.362	771188	prompt	n/a	marc option uniform supports\n
386.2945	0.1505	772589	keystroke_m	m	n/a
386.4	0.105	772800	keystroke_a	a	n/a
386.46	0.0895	772920	keystroke_r	r	n/a
386.64	0.135	773280	keystroke_c	c	n/a
386.76	0.09	773520	keystroke_Key.space	Key.space	n/a
386.895	0.15	773790	keystroke_o	o	n/a
386.9845	0.1055	773969	keystroke_p	p	n/a
387.075	0.1645	774150	keystroke_t	t	n/a
387.165	0.165	774330	keystroke_i	i	n/a
387.21	0.135	774420	keystroke_o	o	n/a
387.2845	0.1355	774569	keystroke_n	n	n/a
387.36	0.105	774720	keystroke_Key.space	Key.space	n/a
387.8695	0.0905	775739	keystroke_u	u	n/a
388.0795	0.1205	776159	keystroke_n	n	n/a
388.1845	0.1055	776369	keystroke_i	i	n/a
388.275	0.135	776550	keystroke_f	f	n/a
388.38	0.135	776760	keystroke_o	o	n/a
388.485	0.18	776970	keystroke_r	r	n/a
388.575	0.105	777150	keystroke_m	m	n/a
388.6505	0.119	777301	keystroke_Key.space	Key.space	n/a
388.9345	0.1655	777869	keystroke_s	s	n/a
389.01	0.075	778020	keystroke_u	u	n/a
389.175	0.09	778350	keystroke_p	p	n/a
389.31	0.1945	778620	keystroke_p	p	n/a
389.3845	0.182	778769	keystroke_o	o	n/a
389.46	0.09	778920	keystroke_r	r	n/a
389.64	0.18	779280	keystroke_t	t	n/a
389.745	0.135	779490	keystroke_s	s	n/a
389.8645	0.09	779729	keystroke_Key.enter	Key.enter	n/a
389.959	4.9325	779918	prompt	n/a	renewal drink provided border\n
390.885	0.181	781770	keystroke_r	r	n/a
390.96	0.12	781920	keystroke_e	e	n/a
391.1545	0.0905	782309	keystroke_n	n	n/a
391.1845	0.1655	782369	keystroke_e	e	n/a
391.305	0.12	782610	keystroke_w	w	n/a
391.53	0.18	783060	keystroke_a	a	n/a
391.7245	0.1505	783449	keystroke_l	l	n/a
391.8	0.15	783600	keystroke_Key.space	Key.space	n/a
392.0695	0.1505	784139	keystroke_d	d	n/a
392.266	0.15	784532	keystroke_r	r	n/a
392.37	0.075	784740	keystroke_i	i	n/a
392.445	0.165	784890	keystroke_n	n	n/a
392.5945	0.0905	785189	keystroke_k	k	n/a
392.6695	0.1055	785339	keystroke_Key.space	Key.space	n/a
392.79	0.1495	785580	keystroke_p	p	n/a
392.9245	0.1055	785849	keystroke_r	r	n/a
392.9845	0.1505	785969	keystroke_o	o	n/a
393.1505	0.134	786301	keystroke_v	v	n/a
393.2545	0.135	786509	keystroke_i	i	n/a
393.3295	0.1055	786659	keystroke_d	d	n/a
393.54	0.0445	787080	keystroke_e	e	n/a
393.69	0.12	787380	keystroke_d	d	n/a
393.795	0.0595	787590	keystroke_Key.space	Key.space	n/a
394.0795	0.105	788159	keystroke_b	b	n/a
394.1545	0.1355	788309	keystroke_o	o	n/a
394.275	0.1345	788550	keystroke_r	r	n/a
394.425	0.135	788850	keystroke_d	d	n/a
394.6045	0.15	789209	keystroke_e	e	n/a
394.68	0.136	789360	keystroke_r	r	n/a
394.7995	0.0905	789599	keystroke_Key.enter	Key.enter	n/a
394.894	9.2975	789788	prompt	n/a	juice in boundary duncan\n
395.5945	0.165	791189	keystroke_j	j	n/a
395.685	0.15	791370	keystroke_i	i	n/a
395.805	0.1645	791610	keystroke_s	s	n/a
395.94	0.2105	791880	keystroke_e	e	n/a
396.316	0.074	792632	keystroke_Key.backspace	Key.backspace	n/a
396.4645	0.06	792929	keystroke_Key.backspace	Key.backspace	n/a
396.6155	0.0895	793231	keystroke_Key.backspace	Key.backspace	n/a
396.78	0.1045	793560	keystroke_u	u	n/a
396.8095	0.1505	793619	keystroke_i	i	n/a
397.066	0.1035	794132	keystroke_c	c	n/a
397.2145	0.1655	794429	keystroke_e	e	n/a
397.2595	0.1065	794519	keystroke_Key.space	Key.space	n/a
397.335	0.1345	794670	keystroke_i	i	n/a
397.41	0.12	794820	keystroke_n	n	n/a
397.485	0.135	794970	keystroke_Key.space	Key.space	n/a
397.65	0.21	795300	keystroke_b	b	n/a
397.71	0.1345	795420	keystroke_o	o	n/a
397.785	0.09	795570	keystroke_u	u	n/a
397.9345	0.2255	795869	keystroke_d	d	n/a
397.95	0.0895	795900	keystroke_n	n	n/a
398.0545	0.1505	796109	keystroke_a	a	n/a
398.175	0.12	796350	keystroke_r	r	n/a
398.2795	0.075	796559	keystroke_y	y	n/a
398.2955	0.1045	796591	keystroke_Key.space	Key.space	n/a
398.4445	0.1355	796889	keystroke_d	d	n/a
398.52	0.046	797040	keystroke_u	u	n/a
398.685	0.1045	797370	keystroke_n	n	n/a
398.8655	0.1645	797731	keystroke_c	c	n/a
398.9845	0.1655	797969	keystroke_a	a	n/a
399.36	0.03	798720	keystroke_n	n	n/a
400.5595	0.0455	801119	keystroke_Key.backspace	Key.backspace	n/a
400.7245	0.0605	801449	keystroke_Key.backspace	Key.backspace	n/a
400.89	0.0755	801780	keystroke_Key.backspace	Key.backspace	n/a
401.0545	0.0755	802109	keystroke_Key.backspace	Key.backspace	n/a
401.22	0.06	802440	keystroke_Key.backspace	Key.backspace	n/a
401.3845	0.0455	802769	keystroke_Key.backspace	Key.backspace	n/a
401.535	0.0595	803070	keystroke_Key.backspace	Key.backspace	n/a
401.7	0.06	803400	keystroke_Key.backspace	Key.backspace	n/a
401.8655	0.044	803731	keystroke_Key.backspace	Key.backspace	n/a
402.045	0.045	804090	keystroke_Key.backspace	Key.backspace	n/a
402.195	0.0595	804390	keystroke_Key.backspace	Key.backspace	n/a
402.36	0.1055	804720	keystroke_Key.backspace	Key.backspace	n/a
402.585	0.1045	805170	keystroke_n	n	n/a
402.66	0.12	805320	keystroke_d	d	n/a
402.75	0.12	805500	keystroke_a	a	n/a
403.08	0.12	806160	keystroke_r	r	n/a
403.1245	0.091	806249	keystroke_y	y	n/a
403.2005	0.0595	806401	keystroke_Key.space	Key.space	n/a
403.4245	0.135	806849	keystroke_d	d	n/a
403.485	0.06	806970	keystroke_u	u	n/a
403.65	0.0895	807300	keystroke_n	n	n/a
403.7245	0.1655	807449	keystroke_c	c	n/a
403.83	0.12	807660	keystroke_a	a	n/a
403.89	0.1045	807780	keystroke_n	n	n/a
404.1165	0.0735	808233	keystroke_Key.enter	Key.enter	n/a
404.1945	9.912	808389	prompt	n/a	restaurants palestine occurring economies\n
404.9695	0.1655	809939	keystroke_r	r	n/a
405.06	0.2555	810120	keystroke_e	e	n/a
405.1945	0.1805	810389	keystroke_s	s	n/a
405.33	0.1495	810660	keystroke_t	t	n/a
405.4655	0.0895	810931	keystroke_a	a	n/a
405.555	0.0905	811110	keystroke_u	u	n/a
405.6295	0.195	811259	keystroke_r	r	n/a
405.72	0.135	811440	keystroke_a	a	n/a
405.84	0.135	811680	keystroke_n	n	n/a
406.23	0.1195	812460	keystroke_s	s	n/a
406.335	0.12	812670	keystroke_Key.space	Key.space	n/a
406.92	0.0455	813840	keystroke_Key.backspace	Key.backspace	n/a
407.04	0.105	814080	keystroke_Key.backspace	Key.backspace	n/a
407.1	0.15	814200	keystroke_t	t	n/a
407.16	0.15	814320	keystroke_s	s	n/a
407.2945	0.15	814589	keystroke_Key.space	Key.space	n/a
407.49	0.15	814980	keystroke_p	p	n/a
407.625	0.165	815250	keystroke_a	a	n/a
407.76	0.1195	815520	keystroke_l	l	n/a
407.82	0.105	815640	keystroke_e	e	n/a
407.9995	0.135	815999	keystroke_s	s	n/a
408.15	0.09	816300	keystroke_t	t	n/a
408.21	0.18	816420	keystroke_i	i	n/a
408.3	0.135	816600	keystroke_n	n	n/a
408.405	0.1205	816810	keystroke_e	e	n/a
408.5095	0.0905	817019	keystroke_Key.space	Key.space	n/a
408.675	0.1195	817350	keystroke_o	o	n/a
408.69	0.09	817380	keystroke_c	c	n/a
408.87	0.075	817740	keystroke_r	r	n/a
409.0505	0.1345	818101	keystroke_r	r	n/a
409.7405	0.075	819481	keystroke_Key.backspace	Key.backspace	n/a
409.9195	0.1055	819839	keystroke_Key.backspace	Key.backspace	n/a
410.43	0.1495	820860	keystroke_c	c	n/a
410.565	0.12	821130	keystroke_u	u	n/a
411.525	0.09	823050	keystroke_r	r	n/a
411.7495	0.105	823499	keystroke_r	r	n/a
411.8245	0.1955	823649	keystroke_i	i	n/a
411.9155	0.119	823831	keystroke_n	n	n/a
411.99	0.105	823980	keystroke_g	g	n/a
412.0795	0.1205	824159	keystroke_Key.space	Key.space	n/a
412.185	0.105	824370	keystroke_e	e	n/a
412.425	0.135	824850	keystroke_c	c	n/a
412.485	0.1205	824970	keystroke_o	o	n/a
412.605	0.15	825210	keystroke_n	n	n/a
412.7695	0.1055	825539	keystroke_i	i	n/a
