onset	duration	sample	value	key	prompt_text
5.902	16.734	11804	prompt	n/a	the quick brown fox jumps over a lazy dog\n
8.203	0.09	16406	keystroke	e	n/a
8.7285	0.1045	17457	keystroke	Key.space	n/a
9.1635	0.105	18327	keystroke	q	n/a
9.3285	0.0895	18657	keystroke	u	n/a
9.388	0.1055	18776	keystroke	i	n/a
10.0785	0.135	20157	keystroke	c	n/a
10.1985	0.12	20397	keystroke	k	n/a
10.3635	0.09	20727	keystroke	Key.space	n/a
10.6635	0.105	21327	keystroke	b	n/a
11.0985	0.12	22197	keystroke	r	n/a
11.2325	0.1055	22465	keystroke	o	n/a
11.4585	0.12	22917	keystroke	w	n/a
11.9835	0.105	23967	keystroke	n	n/a
12.2235	0.09	24447	keystroke	Key.space	n/a
12.5535	0.09	25107	keystroke	f	n/a
12.6585	0.09	25317	keystroke	o	n/a
12.944	0.1045	25888	keystroke	x	n/a
13.228	0.0755	26456	keystroke	Key.space	n/a
13.468	0.0905	26936	keystroke	j	n/a
13.649	0.1045	27298	keystroke	u	n/a
13.8885	0.12	27777	keystroke	m	n/a
14.024	0.104	28048	keystroke	p	n/a
14.068	0.0615	28136	keystroke	o	n/a
15.3885	0.1055	30777	keystroke	Key.backspace	n/a
16.2735	0.09	32547	keystroke	s	n/a
16.4685	0.0895	32937	keystroke	Key.space	n/a
16.7835	0.0745	33567	keystroke	o	n/a
17.2635	0.12	34527	keystroke	v	n/a
17.6985	0.15	35397	keystroke	e	n/a
17.7735	0.15	35547	keystroke	r	n/a
17.9385	0.105	35877	keystroke	Key.space	n/a
18.809	0.165	37618	keystroke	a	n/a
19.198	0.1055	38396	keystroke	Key.space	n/a
19.873	0.0905	39746	keystroke	l	n/a
19.979	0.135	39958	keystroke	a	n/a
20.2485	0.165	40497	keystroke	z	n/a
20.939	0.12	41878	keystroke	y	n/a
21.089	0.1045	42178	keystroke	Key.space	n/a
21.5235	0.105	43047	keystroke	d	n/a
21.6585	0.09	43317	keystroke	o	n/a
22.1685	0.105	44337	keystroke	g	n/a
22.543	0.0905	45086	keystroke	Key.enter	n/a
22.6415	10.0885	45283	prompt	n/a	addition kirk canadian edward\n
23.624	0.135	47248	keystroke	a	n/a
23.909	0.09	47818	keystroke	d	n/a
24.0435	0.105	48087	keystroke	d	n/a
24.914	0.09	49828	keystroke	i	n/a
25.1085	0.1355	50217	keystroke	t	n/a
25.1985	0.195	50397	keystroke	i	n/a
25.2735	0.2105	50547	keystroke	o	n/a
25.4385	0.135	50877	keystroke	n	n/a
25.753	0.076	51506	keystroke	Key.space	n/a
26.053	0.1055	52106	keystroke	k	n/a
26.4435	0.12	52887	keystroke	i	n/a
26.6835	0.1655	53367	keystroke	r	n/a
26.864	0.165	53728	keystroke	k	n/a
27.343	0.0605	54686	keystroke	Key.space	n/a
27.7185	0.15	55437	keystroke	c	n/a
27.913	0.151	55826	keystroke	a	n/a
28.274	0.15	56548	keystroke	n	n/a
28.4685	0.12	56937	keystroke	a	n/a
28.9185	0.1195	57837	keystroke	d	n/a
29.069	0.195	58138	keystroke	i	n/a
29.324	0.135	58648	keystroke	a	n/a
29.488	0.136	58976	keystroke	n	n/a
29.699	0.105	59398	keystroke	Key.space	n/a
30.134	0.1795	60268	keystroke	a	n/a
30.4485	0.1055	60897	keystroke	d	n/a
30.8685	0.1955	61737	keystroke	w	n/a
31.364	0.18	62728	keystroke	a	n/a
31.574	0.18	63148	keystroke	r	n/a
31.933	0.1955	63866	keystroke	d	n/a
32.6085	0.1205	65217	keystroke	Key.enter	n/a
32.7335	12.9715	65467	prompt	n/a	estimated reaches province immunology\n
33.7935	0.12	67587	keystroke	e	n/a
34.0485	0.15	68097	keystroke	s	n/a
34.889	0.105	69778	keystroke	t	n/a
34.9945	0.104	69989	keystroke	i	n/a
35.339	0.1345	70678	keystroke	m	n/a
35.4735	0.165	70947	keystroke	a	n/a
35.7435	0.165	71487	keystroke	t	n/a
35.9385	0.1205	71877	keystroke	e	n/a
36.1935	0.15	72387	keystroke	d	n/a
36.4185	0.12	72837	keystroke	Key.space	n/a
37.259	0.135	74518	keystroke	r	n/a
37.4535	0.09	74907	keystroke	e	n/a
37.7835	0.21	75567	keystroke	a	n/a
38.1285	0.12	76257	keystroke	c	n/a
38.2635	0.105	76527	keystroke	h	n/a
38.399	0.075	76798	keystroke	e	n/a
38.774	0.12	77548	keystroke	s	n/a
39.104	0.12	78208	keystroke	Key.space	n/a
39.734	0.044	79468	keystroke	p	n/a
39.839	0.165	79678	keystroke	r	n/a
40.559	0.1195	81118	keystroke	o	n/a
40.7985	0.165	81597	keystroke	v	n/a
40.9785	0.075	81957	keystroke	i	n/a
41.354	0.135	82708	keystroke	n	n/a
41.7135	0.1205	83427	keystroke	c	n/a
41.939	0.135	83878	keystroke	e	n/a
42.088	0.1055	84176	keystroke	Key.space	n/a
42.523	0.135	85046	keystroke	i	n/a
42.838	0.0455	85676	keystroke	m	n/a
42.9585	0.075	85917	keystroke	m	n/a
43.468	0.0905	86936	keystroke	u	n/a
43.874	0.165	87748	keystroke	n	n/a
44.099	0.165	88198	keystroke	o	n/a
44.339	0.1795	88678	keystroke	l	n/a
44.593	0.165	89186	keystroke	i	n/a
44.8785	0.15	89757	keystroke	g	n/a
45.0585	0.136	90117	keystroke	y	n/a
45.0735	0.09	90147	keystroke	h	n/a
45.584	0.12	91168	keystroke	Key.enter	n/a
45.708	11.4425	91416	prompt	n/a	canal jail paperbacks finish\n
46.5885	0.135	93177	keystroke	c	n/a
46.798	0.0905	93596	keystroke	n	n/a
48.044	0.105	96088	keystroke	Key.backspace	n/a
48.494	0.09	96988	keystroke	a	n/a
48.599	0.135	97198	keystroke	n	n/a
48.764	0.195	97528	keystroke	a	n/a
49.019	0.12	98038	keystroke	l	n/a
49.184	0.09	98368	keystroke	Key.space	n/a
49.529	0.105	99058	keystroke	j	n/a
49.679	0.165	99358	keystroke	a	n/a
49.799	0.135	99598	keystroke	i	n/a
50.024	0.15	100048	keystroke	l	n/a
50.2185	0.105	100437	keystroke	Key.space	n/a
50.4735	0.12	100947	keystroke	p	n/a
50.9835	0.12	101967	keystroke	a	n/a
51.134	0.1045	102268	keystroke	p	n/a
51.3435	0.18	102687	keystroke	e	n/a
51.449	0.15	102898	keystroke	r	n/a
51.869	0.134	103738	keystroke	b	n/a
52.049	0.15	104098	keystroke	a	n/a
52.258	0.15	104516	keystroke	c	n/a
52.378	0.106	104756	keystroke	k	n/a
52.558	0.12	105116	keystroke	s	n/a
53.0535	0.0895	106107	keystroke	Key.space	n/a
53.5935	0.135	107187	keystroke	f	n/a
53.834	0.1345	107668	keystroke	i	n/a
53.9085	0.1355	107817	keystroke	n	n/a
54.0735	0.135	108147	keystroke	i	n/a
54.449	0.1045	108898	keystroke	n	n/a
55.678	0.1055	111356	keystroke	Key.backspace	n/a
56.1585	0.0905	112317	keystroke	s	n/a
56.2635	0.105	112527	keystroke	h	n/a
56.5185	0.075	113037	keystroke	Key.space	n/a
57.0285	0.12	114057	keystroke	Key.enter	n/a
57.1535	5.3515	114307	prompt	n/a	voting africa criteria ideal\n
57.9585	0.15	115917	keystroke	v	n/a
58.0935	0.105	116187	keystroke	o	n/a
58.454	0.165	116908	keystroke	t	n/a
58.679	0.194	117358	keystroke	i	n/a
58.769	0.1795	117538	keystroke	n	n/a
58.963	0.1205	117926	keystroke	g	n/a
59.1135	0.0905	118227	keystroke	Key.space	n/a
59.429	0.1345	118858	keystroke	a	n/a
59.6385	0.1805	119277	keystroke	f	n/a
60.299	0.12	120598	keystroke	t	n/a
60.479	0.105	120958	keystroke	i	n/a
60.8535	0.1955	121707	keystroke	c	n/a
61.034	0.1345	122068	keystroke	a	n/a
62.414	0.09	124828	keystroke	Key.enter	n/a
62.5085	15.4615	125017	prompt	n/a	renewable dare critical frequently\n
63.703	0.076	127406	keystroke	r	n/a
63.7185	0.1345	127437	keystroke	e	n/a
63.9135	0.135	127827	keystroke	n	n/a
65.069	0.2245	130138	keystroke	e	n/a
65.2035	0.15	130407	keystroke	w	n/a
65.504	0.1945	131008	keystroke	a	n/a
65.8035	0.15	131607	keystroke	b	n/a
65.984	0.12	131968	keystroke	l	n/a
66.0885	0.15	132177	keystroke	e	n/a
66.2835	0.09	132567	keystroke	Key.space	n/a
66.5985	0.0305	133197	keystroke	d	n/a
66.7035	0.12	133407	keystroke	f	n/a
67.8135	0.12	135627	keystroke	Key.backspace	n/a
68.219	0.1345	136438	keystroke	a	n/a
68.428	0.165	136856	keystroke	r	n/a
68.519	0.149	137038	keystroke	e	n/a
68.939	0.0895	137878	keystroke	Key.space	n/a
69.284	0.12	138568	keystroke	c	n/a
69.809	0.135	139618	keystroke	r	n/a
70.019	0.105	140038	keystroke	i	n/a
70.318	0.135	140636	keystroke	t	n/a
70.438	0.105	140876	keystroke	i	n/a
70.8585	0.1355	141717	keystroke	c	n/a
71.009	0.135	142018	keystroke	a	n/a
71.159	0.089	142318	keystroke	l	n/a
71.369	0.1045	142738	keystroke	Key.space	n/a
72.2235	0.09	144447	keystroke	f	n/a
72.3885	0.165	144777	keystroke	r	n/a
72.4785	0.1655	144957	keystroke	e	n/a
73.139	0.135	146278	keystroke	q	n/a
73.363	0.12	146726	keystroke	u	n/a
74.6685	0.1045	149337	keystroke	r	n/a
75.869	0.09	151738	keystroke	Key.backspace	n/a
76.454	0.09	152908	keystroke	e	n/a
76.5285	0.12	153057	keystroke	n	n/a
77.099	0.12	154198	keystroke	t	n/a
77.353	0.121	154706	keystroke	l	n/a
77.564	0.0895	155128	keystroke	y	n/a
77.849	0.12	155698	keystroke	Key.enter	n/a
77.974	13.1365	155948	prompt	n/a	cent boutique reserves ghost\n
79.169	0.1195	158338	keystroke	c	n/a
79.5585	0.105	159117	keystroke	e	n/a
79.7235	0.1055	159447	keystroke	n	n/a
79.8585	0.135	159717	keystroke	t	n/a
80.248	0.075	160496	keystroke	Key.space	n/a
80.938	0.106	161876	keystroke	b	n/a
81.284	0.15	162568	keystroke	o	n/a
81.359	0.165	162718	keystroke	u	n/a
82.349	0.1345	164698	keystroke	t	n/a
82.5135	0.0905	165027	keystroke	i	n/a
82.9185	0.12	165837	keystroke	g	n/a
83.7285	0.1055	167457	keystroke	Key.backspace	n/a
84.104	0.0745	168208	keystroke	q	n/a
84.463	0.09	168926	keystroke	y	n/a
85.094	0.105	170188	keystroke	Key.backspace	n/a
85.364	0.104	170728	keystroke	u	n/a
85.574	0.105	171148	keystroke	e	n/a
86.0385	0.06	172077	keystroke	Key.space	n/a
86.3835	0.1655	172767	keystroke	t	n/a
86.594	0.0895	173188	keystroke	r	n/a
86.6085	0.06	173217	keystroke	e	n/a
88.079	0.12	176158	keystroke	s	n/a
88.559	0.18	177118	keystroke	e	n/a
88.6645	0.1495	177329	keystroke	r	n/a
88.978	0.1355	177956	keystroke	v	n/a
89.143	0.151	178286	keystroke	e	n/a
89.339	0.135	178678	keystroke	s	n/a
89.534	0.09	179068	keystroke	Key.space	n/a
90.0585	0.1055	180117	keystroke	g	n/a
90.2385	0.15	180477	keystroke	h	n/a
90.4335	0.105	180867	keystroke	o	n/a
90.569	0.165	181138	keystroke	s	n/a
90.6735	0.12	181347	keystroke	t	n/a
90.989	0.12	181978	keystroke	Key.enter	n/a
91.1145	8.8755	182229	prompt	n/a	beat powder under developing\n
91.9335	0.135	183867	keystroke	b	n/a
92.309	0.1345	184618	keystroke	e	n/a
92.4885	0.2405	184977	keystroke	a	n/a
92.6835	0.1805	185367	keystroke	t	n/a
92.969	0.105	185938	keystroke	Key.space	n/a
93.419	0.1345	186838	keystroke	p	n/a
93.9435	0.075	187887	keystroke	o	n/a
94.0935	0.135	188187	keystroke	w	n/a
94.874	0.09	189748	keystroke	d	n/a
95.084	0.165	190168	keystroke	e	n/a
95.189	0.15	190378	keystroke	r	n/a
95.413	0.09	190826	keystroke	Key.space	n/a
95.594	0.104	191188	keystroke	u	n/a
95.818	0.12	191636	keystroke	n	n/a
95.983	0.135	191966	keystroke	f	n/a
96.238	0.225	192476	keystroke	e	n/a
96.388	0.151	192776	keystroke	r	n/a
96.554	0.0745	193108	keystroke	Key.space	n/a
96.823	0.121	193646	keystroke	d	n/a
97.019	0.134	194038	keystroke	e	n/a
97.2435	0.15	194487	keystroke	v	n/a
97.453	0.166	194906	keystroke	e	n/a
97.843	0.1055	195686	keystroke	l	n/a
98.939	0.1495	197878	keystroke	o	n/a
99.0735	0.135	198147	keystroke	p	n/a
99.359	0.18	198718	keystroke	i	n/a
99.4185	0.1655	198837	keystroke	n	n/a
99.599	0.12	199198	keystroke	g	n/a
99.854	0.135	199708	keystroke	Key.enter	n/a
99.993	15.312	199986	prompt	n/a	covers indie gather donor\n
101.504	0.135	203008	keystroke	v	n/a
101.789	0.075	203578	keystroke	o	n/a
102.5085	0.0755	205017	keystroke	Key.backspace	n/a
102.6435	0.0905	205287	keystroke	Key.backspace	n/a
103.3035	0.105	206607	keystroke	c	n/a
103.4535	0.075	206907	keystroke	o	n/a
103.7985	0.0905	207597	keystroke	v	n/a
104.024	0.165	208048	keystroke	e	n/a
104.0835	0.15	208167	keystroke	r	n/a
104.414	0.1495	208828	keystroke	s	n/a
104.804	0.105	209608	keystroke	Key.space	n/a
105.044	0.1795	210088	keystroke	i	n/a
105.119	0.135	210238	keystroke	n	n/a
105.404	0.1195	210808	keystroke	d	n/a
105.5685	0.0905	211137	keystroke	i	n/a
105.7335	0.135	211467	keystroke	e	n/a
105.9135	0.0905	211827	keystroke	Key.space	n/a
106.2885	0.12	212577	keystroke	g	n/a
106.724	0.1045	213448	keystroke	t	n/a
107.999	0.075	215998	keystroke	Key.backspace	n/a
108.4035	0.105	216807	keystroke	a	n/a
109.0185	0.1055	218037	keystroke	h	n/a
109.229	0.015	218458	keystroke	e	n/a
110.249	0.045	220498	keystroke	Key.backspace	n/a
110.368	0.1205	220736	keystroke	Key.backspace	n/a
110.849	0.1045	221698	keystroke	t	n/a
110.9835	0.0905	221967	keystroke	h	n/a
111.238	0.136	222476	keystroke	e	n/a
111.314	0.1345	222628	keystroke	r	n/a
111.6435	0.09	223287	keystroke	Key.space	n/a
112.1235	0.09	224247	keystroke	d	n/a
112.2735	0.195	224547	keystroke	o	n/a
112.3935	0.15	224787	keystroke	n	n/a
112.784	0.134	225568	keystroke	o	n/a
113.383	0.106	226766	keystroke	t	n/a
114.584	0.0745	229168	keystroke	Key.backspace	n/a
114.749	0.105	229498	keystroke	r	n/a
115.169	0.1345	230338	keystroke	Key.enter	n/a
115.308	13.047	230616	prompt	n/a	export bookstore configure police\n
116.264	0.0745	232528	keystroke	e	n/a
116.6235	0.105	233247	keystroke	x	n/a
116.969	0.105	233938	keystroke	p	n/a
117.104	0.135	234208	keystroke	o	n/a
117.4495	0.1195	234899	keystroke	r	n/a
117.644	0.12	235288	keystroke	t	n/a
118.004	0.075	236008	keystroke	Key.space	n/a
119.054	0.074	238108	keystroke	b	n/a
119.444	0.0755	238888	keystroke	o	n/a
119.549	0.105	239098	keystroke	o	n/a
119.788	0.076	239576	keystroke	k	n/a
120.0435	0.135	240087	keystroke	s	n/a
120.3435	0.105	240687	keystroke	t	n/a
120.8085	0.075	241617	keystroke	o	n/a
120.9435	0.195	241887	keystroke	r	n/a
121.0635	0.135	242127	keystroke	e	n/a
121.5885	0.09	243177	keystroke	Key.space	n/a
122.2485	0.1055	244497	keystroke	c	n/a
122.3385	0.1355	244677	keystroke	o	n/a
122.4135	0.165	244827	keystroke	n	n/a
122.9385	0.12	245877	keystroke	f	n/a
123.0435	0.0905	246087	keystroke	i	n/a
124.138	0.135	248276	keystroke	g	n/a
124.528	0.106	249056	keystroke	u	n/a
124.6635	0.1795	249327	keystroke	r	n/a
124.768	0.1205	249536	keystroke	e	n/a
125.684	0.074	251368	keystroke	Key.space	n/a
126.209	0.119	252418	keystroke	p	n/a
126.344	0.135	252688	keystroke	o	n/a
126.8385	0.075	253677	keystroke	l	n/a
127.0335	0.0905	254067	keystroke	i	n/a
127.3035	0.1355	254607	keystroke	c	n/a
127.5585	0.1345	255117	keystroke	e	n/a
128.2635	0.09	256527	keystroke	Key.enter	n/a
128.3575	11.5625	256715	prompt	n/a	protection wireless occurring rugs\n
129.299	0.12	258598	keystroke	p	n/a
129.8385	0.0905	259677	keystroke	o	n/a
129.9735	0.15	259947	keystroke	r	n/a
130.3035	0.12	260607	keystroke	t	n/a
130.499	0.1045	260998	keystroke	e	n/a
130.7835	0.105	261567	keystroke	c	n/a
131.0235	0.1205	262047	keystroke	t	n/a
131.069	0.18	262138	keystroke	i	n/a
131.159	0.165	262318	keystroke	o	n/a
131.414	0.12	262828	keystroke	n	n/a
132.0585	0.075	264117	keystroke	Key.space	n/a
132.4785	0.075	264957	keystroke	w	n/a
132.9285	0.075	265857	keystroke	i	n/a
133.0485	0.1795	266097	keystroke	r	n/a
133.1535	0.1195	266307	keystroke	e	n/a
133.4985	0.1045	266997	keystroke	l	n/a
133.678	0.15	267356	keystroke	e	n/a
133.978	0.075	267956	keystroke	s	n/a
134.144	0.089	268288	keystroke	s	n/a
134.773	0.075	269546	keystroke	Key.space	n/a
134.983	0.12	269966	keystroke	o	n/a
135.343	0.106	270686	keystroke	c	n/a
135.524	0.119	271048	keystroke	c	n/a
136.364	0.105	272728	keystroke	u	n/a
136.754	0.09	273508	keystroke	r	n/a
136.904	0.12	273808	keystroke	r	n/a
137.054	0.15	274108	keystroke	i	n/a
137.114	0.135	274228	keystroke	n	n/a
137.264	0.105	274528	keystroke	g	n/a
137.9385	0.09	275877	keystroke	Key.space	n/a
138.5385	0.1355	277077	keystroke	r	n/a
138.7935	0.09	277587	keystroke	u	n/a
139.289	0.1495	278578	keystroke	g	n/a
139.454	0.1345	278908	keystroke	s	n/a
139.8435	0.075	279687	keystroke	Key.enter	n/a
139.9225	17.4275	279845	prompt	n/a	hairy reasonably promote circles\n
141.5085	0.1055	283017	keystroke	h	n/a
141.929	0.09	283858	keystroke	a	n/a
142.049	0.09	284098	keystroke	i	n/a
142.274	0.135	284548	keystroke	r	n/a
142.949	0.15	285898	keystroke	y	n/a
143.144	0.12	286288	keystroke	Key.space	n/a
144.689	0.18	289378	keystroke	r	n/a
144.794	0.1495	289588	keystroke	e	n/a
145.019	0.18	290038	keystroke	a	n/a
145.274	0.1495	290548	keystroke	s	n/a
145.394	0.2095	290788	keystroke	o	n/a
145.4835	0.135	290967	keystroke	n	n/a
145.9485	0.18	291897	keystroke	i	n/a
146.0235	0.12	292047	keystroke	n	n/a
146.1135	0.15	292227	keystroke	g	n/a
147.8685	0.09	295737	keystroke	Key.backspace	n/a
148.1235	0.0605	296247	keystroke	Key.backspace	n/a
148.724	0.075	297448	keystroke	Key.backspace	n/a
149.474	0.105	298948	keystroke	a	n/a
150.119	0.105	300238	keystroke	b	n/a
150.239	0.135	300478	keystroke	l	n/a
150.569	0.105	301138	keystroke	y	n/a
150.794	0.1045	301588	keystroke	Key.space	n/a
151.3935	0.0755	302787	keystroke	p	n/a
151.6485	0.136	303297	keystroke	r	n/a
151.844	0.089	303688	keystroke	o	n/a
152.279	0.09	304558	keystroke	m	n/a
152.474	0.0895	304948	keystroke	o	n/a
152.984	0.165	305968	keystroke	t	n/a
153.104	0.135	306208	keystroke	e	n/a
153.404	0.09	306808	keystroke	Key.space	n/a
153.764	0.1345	307528	keystroke	c	n/a
153.914	0.1045	307828	keystroke	i	n/a
155.0085	0.045	310017	keystroke	r	n/a
155.0235	0.105	310047	keystroke	t	n/a
156.044	0.09	312088	keystroke	Key.backspace	n/a
156.3585	0.1055	312717	keystroke	c	n/a
156.479	0.104	312958	keystroke	l	n/a
156.824	0.105	313648	keystroke	e	n/a
157.034	0.1345	314068	keystroke	s	n/a
157.2585	0.0905	314517	keystroke	Key.enter	n/a
157.3535	12.9715	314707	prompt	n/a	vocabulary witch symptoms betty\n
158.114	0.135	316228	keystroke	v	n/a
158.279	0.09	316558	keystroke	o	n/a
158.744	0.1345	317488	keystroke	c	n/a
158.909	0.1495	317818	keystroke	a	n/a
159.794	0.105	319588	keystroke	b	n/a
160.154	0.165	320308	keystroke	u	n/a
161.339	0.09	322678	keystroke	l	n/a
161.519	0.21	323038	keystroke	a	n/a
161.699	0.165	323398	keystroke	r	n/a
161.894	0.135	323788	keystroke	y	n/a
162.3885	0.105	324777	keystroke	Key.space	n/a
162.9735	0.0895	325947	keystroke	w	n/a
163.048	0.09	326096	keystroke	i	n/a
163.454	0.1645	326908	keystroke	t	n/a
163.964	0.1045	327928	keystroke	h	n/a
164.234	0.075	328468	keystroke	Key.space	n/a
164.6685	0.15	329337	keystroke	s	n/a
165.0585	0.1205	330117	keystroke	u	n/a
166.0335	0.0905	332067	keystroke	Key.backspace	n/a
166.4385	0.105	332877	keystroke	y	n/a
167.0535	0.1045	334107	keystroke	m	n/a
167.204	0.134	334408	keystroke	p	n/a
167.5335	0.15	335067	keystroke	t	n/a
167.7135	0.1055	335427	keystroke	o	n/a
167.894	0.12	335788	keystroke	m	n/a
168.239	0.1195	336478	keystroke	s	n/a
168.5985	0.0905	337197	keystroke	Key.space	n/a
168.869	0.135	337738	keystroke	b	n/a
169.109	0.135	338218	keystroke	e	n/a
169.364	0.105	338728	keystroke	t	n/a
169.529	0.135	339058	keystroke	t	n/a
169.7985	0.135	339597	keystroke	y	n/a
170.2485	0.075	340497	keystroke	Key.enter	n/a
170.3305	13.8395	340661	prompt	n/a	guidelines sheffield implemented dies\n
171.584	0.105	343168	keystroke	g	n/a
172.3335	0.1505	344667	keystroke	u	n/a
172.4385	0.18	344877	keystroke	i	n/a
172.8285	0.1055	345657	keystroke	d	n/a
173.054	0.1345	346108	keystroke	e	n/a
173.2935	0.075	346587	keystroke	l	n/a
173.399	0.1795	346798	keystroke	i	n/a
173.6235	0.1205	347247	keystroke	n	n/a
173.729	0.135	347458	keystroke	e	n/a
174.103	0.105	348206	keystroke	s	n/a
174.419	0.089	348838	keystroke	Key.space	n/a
174.779	0.15	349558	keystroke	s	n/a
174.914	0.12	349828	keystroke	h	n/a
175.109	0.165	350218	keystroke	e	n/a
175.589	0.104	351178	keystroke	f	n/a
175.753	0.1505	351506	keystroke	f	n/a
176.204	0.1195	352408	keystroke	i	n/a
176.563	0.106	353126	keystroke	e	n/a
176.8785	0.12	353757	keystroke	l	n/a
177.0585	0.135	354117	keystroke	d	n/a
177.4335	0.105	354867	keystroke	Key.space	n/a
178.019	0.135	356038	keystroke	i	n/a
178.304	0.1195	356608	keystroke	m	n/a
178.709	0.075	357418	keystroke	p	n/a
178.919	0.0295	357838	keystroke	;	n/a
178.9495	0.029	357899	keystroke	l	n/a
180.449	0.075	360898	keystroke	Key.backspace	n/a
180.614	0.12	361228	keystroke	Key.backspace	n/a
180.974	0.135	361948	keystroke	l	n/a
181.334	0.119	362668	keystroke	e	n/a
181.889	0.119	363778	keystroke	m	n/a
182.038	0.136	364076	keystroke	e	n/a
182.189	0.104	364378	keystroke	n	n/a
182.309	0.1645	364618	keystroke	t	n/a
182.639	0.1345	365278	keystroke	e	n/a
182.8785	0.135	365757	keystroke	d	n/a
183.0285	0.1055	366057	keystroke	Key.space	n/a
183.419	0.105	366838	keystroke	d	n/a
183.538	0.091	367076	keystroke	i	n/a
183.644	0.21	367288	keystroke	e	n/a
183.764	0.164	367528	keystroke	s	n/a
184.0635	0.105	368127	keystroke	Key.enter	n/a
184.1735	10.5865	368347	prompt	n/a	destinations trap nuts construct\n
184.9635	0.1055	369927	keystroke	d	n/a
185.1435	0.075	370287	keystroke	i	n/a
186.104	0.104	372208	keystroke	Key.backspace	n/a
186.6585	0.1205	373317	keystroke	e	n/a
186.8835	0.135	373767	keystroke	s	n/a
187.574	0.135	375148	keystroke	t	n/a
187.754	0.15	375508	keystroke	i	n/a
187.963	0.135	375926	keystroke	n	n/a
188.128	0.1655	376256	keystroke	a	n/a
188.3835	0.21	376767	keystroke	t	n/a
188.4735	0.21	376947	keystroke	i	n/a
188.5785	0.165	377157	keystroke	o	n/a
188.7135	0.15	377427	keystroke	n	n/a
188.8935	0.1345	377787	keystroke	s	n/a
189.088	0.06	378176	keystroke	Key.space	n/a
189.299	0.12	378598	keystroke	t	n/a
189.6735	0.075	379347	keystroke	r	n/a
190.663	0.106	381326	keystroke	a	n/a
190.828	0.09	381656	keystroke	p	n/a
191.174	0.044	382348	keystroke	Key.space	n/a
191.3685	0.1055	382737	keystroke	n	n/a
191.609	0.119	383218	keystroke	u	n/a
191.7735	0.1355	383547	keystroke	t	n/a
191.983	0.15	383966	keystroke	s	n/a
192.179	0.0745	384358	keystroke	Key.space	n/a
192.4785	0.15	384957	keystroke	c	n/a
192.7035	0.0905	385407	keystroke	o	n/a
192.914	0.09	385828	keystroke	n	n/a
193.169	0.105	386338	keystroke	s	n/a
193.379	0.105	386758	keystroke	t	n/a
193.6035	0.12	387207	keystroke	r	n/a
193.7985	0.12	387597	keystroke	u	n/a
194.1285	0.135	388257	keystroke	c	n/a
194.414	0.12	388828	keystroke	t	n/a
194.654	0.1045	389308	keystroke	Key.enter	n/a
194.7625	16.7225	389525	prompt	n/a	gravity contributions equipment radio\n
195.5385	0.105	391077	keystroke	q	n/a
197.174	0.105	394348	keystroke	Key.backspace	n/a
197.623	0.106	395246	keystroke	g	n/a
198.0135	0.15	396027	keystroke	r	n/a
198.1485	0.1355	396297	keystroke	a	n/a
198.4335	0.15	396867	keystroke	b	n/a
198.6435	0.105	397287	keystroke	i	n/a
198.854	0.1495	397708	keystroke	t	n/a
199.0635	0.12	398127	keystroke	y	n/a
199.814	0.105	399628	keystroke	Key.space	n/a
200.219	0.12	400438	keystroke	c	n/a
200.984	0.12	401968	keystroke	o	n/a
201.059	0.135	402118	keystroke	n	n/a
201.3885	0.12	402777	keystroke	t	n/a
201.7935	0.09	403587	keystroke	r	n/a
201.914	0.0745	403828	keystroke	i	n/a
202.3185	0.105	404637	keystroke	b	n/a
202.484	0.1195	404968	keystroke	u	n/a
202.7685	0.135	405537	keystroke	t	n/a
202.8735	0.225	405747	keystroke	i	n/a
203.0085	0.211	406017	keystroke	o	n/a
203.189	0.12	406378	keystroke	n	n/a
203.3235	0.105	406647	keystroke	s	n/a
203.6535	0.075	407307	keystroke	Key.space	n/a
205.394	0.075	410788	keystroke	e	n/a
205.693	0.09	411386	keystroke	q	n/a
205.844	0.135	411688	keystroke	u	n/a
205.949	0.2095	411898	keystroke	i	n/a
206.1885	0.18	412377	keystroke	p	n/a
206.894	0.1195	413788	keystroke	e	n/a
207.688	0.06	415376	keystroke	m	n/a
208.334	0.0595	416668	keystroke	Key.backspace	n/a
208.4835	0.105	416967	keystroke	Key.backspace	n/a
208.813	0.1055	417626	keystroke	m	n/a
208.9635	0.135	417927	keystroke	e	n/a
209.114	0.09	418228	keystroke	n	n/a
209.234	0.15	418468	keystroke	t	n/a
209.7435	0.06	419487	keystroke	Key.space	n/a
210.209	0.15	420418	keystroke	r	n/a
210.4035	0.12	420807	keystroke	a	n/a
210.7185	0.105	421437	keystroke	d	n/a
210.9135	0.18	421827	keystroke	i	n/a
211.064	0.165	422128	keystroke	o	n/a
211.393	0.091	422786	keystroke	Key.enter	n/a
211.4875	14.3075	422975	prompt	n/a	equality screensavers monitored robinson\n
212.6685	0.135	425337	keystroke	e	n/a
213.134	0.0895	426268	keystroke	q	n/a
213.6135	0.12	427227	keystroke	u	n/a
213.854	0.1345	427708	keystroke	a	n/a
214.0035	0.12	428007	keystroke	l	n/a
214.2435	0.105	428487	keystroke	i	n/a
214.4535	0.1345	428907	keystroke	t	n/a
214.6485	0.135	429297	keystroke	y	n/a
214.994	0.0895	429988	keystroke	Key.space	n/a
215.744	0.12	431488	keystroke	s	n/a
215.999	0.12	431998	keystroke	c	n/a
216.344	0.195	432688	keystroke	r	n/a
216.509	0.06	433018	keystroke	e	n/a
216.689	0.09	433378	keystroke	e	n/a
216.9735	0.12	433947	keystroke	n	n/a
217.498	0.1355	434996	keystroke	s	n/a
217.664	0.1495	435328	keystroke	a	n/a
217.9335	0.135	435867	keystroke	v	n/a
218.1435	0.255	436287	keystroke	e	n/a
218.414	0.1645	436828	keystroke	r	n/a
218.6235	0.1355	437247	keystroke	s	n/a
219.209	0.09	438418	keystroke	Key.space	n/a
219.5535	0.105	439107	keystroke	m	n/a
219.7485	0.1955	439497	keystroke	o	n/a
219.899	0.0895	439798	keystroke	n	n/a
220.9335	0.09	441867	keystroke	i	n/a
221.2035	0.075	442407	keystroke	t	n/a
221.9835	0.1205	443967	keystroke	o	n/a
222.134	0.134	444268	keystroke	r	n/a
222.764	0.09	445528	keystroke	e	n/a
222.974	0.135	445948	keystroke	d	n/a
223.229	0.075	446458	keystroke	Key.space	n/a
223.904	0.12	447808	keystroke	r	n/a
224.009	0.105	448018	keystroke	o	n/a
224.294	0.1195	448588	keystroke	b	n/a
224.504	0.18	449008	keystroke	i	n/a
224.5935	0.1355	449187	keystroke	n	n/a
224.969	0.12	449938	keystroke	s	n/a
225.074	0.18	450148	keystroke	o	n/a
225.1795	0.1195	450359	keystroke	n	n/a
225.719	0.075	451438	keystroke	Key.enter	n/a
225.798	14.967	451596	prompt	n/a	into spray influences collectible\n
226.544	0.1495	453088	keystroke	i	n/a
226.6635	0.1055	453327	keystroke	n	n/a
226.993	0.1205	453986	keystroke	t	n/a
227.1435	0.18	454287	keystroke	o	n/a
227.2935	0.105	454587	keystroke	Key.space	n/a
227.579	0.105	455158	keystroke	s	n/a
227.654	0.09	455308	keystroke	p	n/a
227.909	0.2095	455818	keystroke	r	n/a
228.089	0.09	456178	keystroke	e	n/a
229.1835	0.0905	458367	keystroke	Key.backspace	n/a
230.2635	0.0905	460527	keystroke	a	n/a
230.9985	0.1055	461997	keystroke	y	n/a
231.164	0.1195	462328	keystroke	Key.space	n/a
232.4085	0.165	464817	keystroke	i	n/a
232.5135	0.0905	465027	keystroke	n	n/a
233.1285	0.105	466257	keystroke	f	n/a
233.2345	0.134	466469	keystroke	l	n/a
233.3985	0.12	466797	keystroke	u	n/a
233.7585	0.1505	467517	keystroke	e	n/a
233.893	0.106	467786	keystroke	n	n/a
234.119	0.1195	468238	keystroke	c	n/a
234.3735	0.12	468747	keystroke	e	n/a
235.049	0.105	470098	keystroke	s	n/a
235.3035	0.1045	470607	keystroke	Key.space	n/a
236.0835	0.15	472167	keystroke	c	n/a
236.3835	0.12	472767	keystroke	o	n/a
236.6835	0.06	473367	keystroke	l	n/a
236.8185	0.105	473637	keystroke	l	n/a
237.0285	0.1355	474057	keystroke	e	n/a
237.4035	0.1055	474807	keystroke	c	n/a
237.689	0.12	475378	keystroke	t	n/a
237.854	0.09	475708	keystroke	i	n/a
238.214	0.135	476428	keystroke	v	n/a
238.6485	0.12	477297	keystroke	e	n/a
240.644	0.12	481288	keystroke	Key.enter	n/a
240.769	6.791	481538	prompt	n/a	pens mounting told safe\n
241.559	0.165	483118	keystroke	p	n/a
241.754	0.12	483508	keystroke	e	n/a
241.904	0.105	483808	keystroke	n	n/a
242.1585	0.135	484317	keystroke	s	n/a
242.3535	0.105	484707	keystroke	Key.space	n/a
242.834	0.09	485668	keystroke	m	n/a
243.014	0.27	486028	keystroke	o	n/a
243.2385	0.12	486477	keystroke	u	n/a
243.4485	0.105	486897	keystroke	n	n/a
243.569	0.1045	487138	keystroke	t	n/a
243.704	0.1795	487408	keystroke	i	n/a
243.7635	0.135	487527	keystroke	n	n/a
243.8685	0.1355	487737	keystroke	g	n/a
244.0485	0.105	488097	keystroke	Key.space	n/a
244.529	0.12	489058	keystroke	t	n/a
244.619	0.135	489238	keystroke	o	n/a
244.904	0.15	489808	keystroke	l	n/a
245.0995	0.1495	490199	keystroke	d	n/a
245.294	0.075	490588	keystroke	Key.space	n/a
245.534	0.165	491068	keystroke	s	n/a
245.714	0.135	491428	keystroke	a	n/a
246.134	0.18	492268	keystroke	f	n/a
247.0185	0.1355	494037	keystroke	e	n/a
247.4685	0.09	494937	keystroke	Key.enter	n/a
247.563	11.292	495126	prompt	n/a	what've bike bathrooms authentic\n
248.744	0.03	497488	keystroke	w	n/a
249.029	0.0905	498058	keystroke	h	n/a
249.134	0.2395	498268	keystroke	a	n/a
249.3135	0.12	498627	keystroke	t	n/a
249.884	0.1045	499768	keystroke	'	n/a
250.049	0.15	500098	keystroke	b	n/a
250.289	0.1495	500578	keystroke	e	n/a
250.454	0.0745	500908	keystroke	Key.space	n/a
250.934	0.1345	501868	keystroke	b	n/a
251.0695	0.0895	502139	keystroke	i	n/a
251.264	0.06	502528	keystroke	l	n/a
251.909	0.12	503818	keystroke	Key.backspace	n/a
252.2085	0.1205	504417	keystroke	k	n/a
252.344	0.12	504688	keystroke	e	n/a
252.614	0.0745	505228	keystroke	Key.space	n/a
252.8835	0.1055	505767	keystroke	b	n/a
253.109	0.195	506218	keystroke	a	n/a
253.289	0.15	506578	keystroke	r	n/a
253.559	0.1195	507118	keystroke	h	n/a
254.4435	0.165	508887	keystroke	r	n/a
254.998	0.0755	509996	keystroke	o	n/a
255.1335	0.0755	510267	keystroke	o	n/a
255.5085	0.12	511017	keystroke	m	n/a
255.764	0.12	511528	keystroke	s	n/a
255.959	0.0745	511918	keystroke	Key.space	n/a
256.3485	0.15	512697	keystroke	a	n/a
256.559	0.1495	513118	keystroke	u	n/a
256.8285	0.1655	513657	keystroke	t	n/a
257.099	0.135	514198	keystroke	h	n/a
257.4435	0.135	514887	keystroke	e	n/a
257.6835	0.09	515367	keystroke	n	n/a
258.0285	0.165	516057	keystroke	t	n/a
258.209	0.1045	516418	keystroke	i	n/a
258.4335	0.1655	516867	keystroke	c	n/a
258.749	0.1045	517498	keystroke	Key.enter	n/a
258.8575	16.2725	517715	prompt	n/a	sacramento personal portable realty\n
259.9035	0.09	519807	keystroke	s	n/a
260.114	0.12	520228	keystroke	a	n/a
261.074	0.105	522148	keystroke	c	n/a
261.434	0.1945	522868	keystroke	r	n/a
261.6295	0.134	523259	keystroke	a	n/a
262.2885	0.135	524577	keystroke	m	n/a
262.4385	0.135	524877	keystroke	e	n/a
262.589	0.1045	525178	keystroke	n	n/a
262.7385	0.15	525477	keystroke	t	n/a
262.9035	0.195	525807	keystroke	o	n/a
263.129	0.104	526258	keystroke	Key.space	n/a
263.564	0.09	527128	keystroke	p	n/a
263.744	0.18	527488	keystroke	e	n/a
263.864	0.165	527728	keystroke	r	n/a
264.3135	0.12	528627	keystroke	s	n/a
264.4335	0.165	528867	keystroke	o	n/a
264.5535	0.105	529107	keystroke	n	n/a
264.719	0.165	529438	keystroke	a	n/a
264.869	0.15	529738	keystroke	l	n/a
265.124	0.09	530248	keystroke	Key.space	n/a
265.453	0.196	530906	keystroke	p	n/a
265.634	0.165	531268	keystroke	o	n/a
265.859	0.165	531718	keystroke	r	n/a
266.369	0.15	532738	keystroke	a	n/a
267.689	0.09	535378	keystroke	Key.backspace	n/a
268.019	0.135	536038	keystroke	t	n/a
268.139	0.165	536278	keystroke	a	n/a
268.589	0.12	537178	keystroke	b	n/a
268.7385	0.105	537477	keystroke	l	n/a
268.8885	0.12	537777	keystroke	e	n/a
269.429	0.105	538858	keystroke	Key.space	n/a
269.938	0.151	539876	keystroke	r	n/a
270.059	0.135	540118	keystroke	e	n/a
270.329	0.12	540658	keystroke	a	n/a
270.479	0.105	540958	keystroke	l	n/a
270.719	0.105	541438	keystroke	i	n/a
270.9735	0.0455	541947	keystroke	r	n/a
270.989	0.15	541978	keystroke	t	n/a
272.2785	0.075	544557	keystroke	Key.backspace	n/a
272.4285	0.075	544857	keystroke	Key.backspace	n/a
272.8485	0.09	545697	keystroke	Key.backspace	n/a
273.884	0.09	547768	keystroke	i	n/a
274.019	0.1195	548038	keystroke	t	n/a
274.2135	0.06	548427	keystroke	y	n/a
275.0535	0.0755	550107	keystroke	Key.enter	n/a
275.1325	11.9975	550265	prompt	n/a	demands sodium private newly\n
276.0885	0.105	552177	keystroke	d	n/a
276.284	0.1045	552568	keystroke	e	n/a
276.4935	0.0905	552987	keystroke	m	n/a
276.659	0.105	553318	keystroke	a	n/a
276.794	0.1045	553588	keystroke	n	n/a
276.9585	0.1355	553917	keystroke	d	n/a
277.214	0.0895	554428	keystroke	s	n/a
277.604	0.0745	555208	keystroke	Key.space	n/a
278.039	0.104	556078	keystroke	s	n/a
278.384	0.09	556768	keystroke	o	n/a
279.494	0.1195	558988	keystroke	d	n/a
279.629	0.089	559258	keystroke	i	n/a
280.2585	0.09	560517	keystroke	u	n/a
280.619	0.0745	561238	keystroke	m	n/a
281.3085	0.09	562617	keystroke	Key.space	n/a
281.6835	0.0755	563367	keystroke	p	n/a
281.9085	0.105	563817	keystroke	r	n/a
283.0785	0.06	566157	keystroke	i	n/a
283.4685	0.105	566937	keystroke	v	n/a
283.6035	0.15	567207	keystroke	a	n/a
283.739	0.105	567478	keystroke	t	n/a
283.904	0.1195	567808	keystroke	e	n/a
284.428	0.105	568856	keystroke	Key.space	n/a
285.299	0.1045	570598	keystroke	n	n/a
285.5385	0.18	571077	keystroke	e	n/a
285.629	0.15	571258	keystroke	w	n/a
286.078	0.12	572156	keystroke	l	n/a
286.3785	0.09	572757	keystroke	y	n/a
287.038	0.0905	574076	keystroke	Key.enter	n/a
287.135	10.195	574270	prompt	n/a	genes creates edwards grip\n
288.629	0.0895	577258	keystroke	g	n/a
288.854	0.1495	577708	keystroke	e	n/a
289.0185	0.09	578037	keystroke	n	n/a
289.124	0.1645	578248	keystroke	e	n/a
289.499	0.135	578998	keystroke	s	n/a
289.7985	0.09	579597	keystroke	Key.space	n/a
290.129	0.135	580258	keystroke	c	n/a
290.474	0.165	580948	keystroke	r	n/a
291.2385	0.1805	582477	keystroke	e	n/a
291.4335	0.1505	582867	keystroke	a	n/a
291.719	0.1345	583438	keystroke	t	n/a
291.8985	0.1355	583797	keystroke	e	n/a
292.1085	0.1655	584217	keystroke	s	n/a
292.3485	0.0895	584697	keystroke	Key.space	n/a
293.414	0.0895	586828	keystroke	e	n/a
293.5935	0.135	587187	keystroke	d	n/a
293.8635	0.135	587727	keystroke	w	n/a
294.0435	0.1795	588087	keystroke	a	n/a
294.2385	0.105	588477	keystroke	r	n/a
294.4785	0.1805	588957	keystroke	d	n/a
294.569	0.134	589138	keystroke	s	n/a
294.794	0.105	589588	keystroke	Key.space	n/a
295.843	0.106	591686	keystroke	g	n/a
296.324	0.134	592648	keystroke	r	n/a
296.4595	0.1635	592919	keystroke	i	n/a
296.579	0.164	593158	keystroke	p	n/a
297.254	0.075	594508	keystroke	Key.enter	n/a
297.333	8.7125	594666	prompt	n/a	wants wrap slight third\n
298.079	0.12	596158	keystroke	w	n/a
298.244	0.18	596488	keystroke	a	n/a
298.379	0.09	596758	keystroke	n	n/a
298.484	0.134	596968	keystroke	t	n/a
298.679	0.135	597358	keystroke	s	n/a
298.829	0.1045	597658	keystroke	Key.space	n/a
299.1885	0.135	598377	keystroke	w	n/a
299.7885	0.12	599577	keystroke	r	n/a
300.0885	0.12	600177	keystroke	a	n/a
300.1935	0.135	600387	keystroke	p	n/a
300.4485	0.075	600897	keystroke	Key.space	n/a
300.7485	0.135	601497	keystroke	s	n/a
300.824	0.1645	601648	keystroke	l	n/a
301.0185	0.12	602037	keystroke	i	n/a
301.1835	0.15	602367	keystroke	g	n/a
301.3035	0.1505	602607	keystroke	h	n/a
301.4385	0.1505	602877	keystroke	t	n/a
301.964	0.105	603928	keystroke	Key.space	n/a
302.699	0.1345	605398	keystroke	t	n/a
302.8485	0.105	605697	keystroke	h	n/a
303.9735	0.0905	607947	keystroke	r	n/a
304.0795	0.0895	608159	keystroke	i	n/a
304.199	0.12	608398	keystroke	e	n/a
304.514	0.165	609028	keystroke	d	n/a
304.919	0.105	609838	keystroke	Key.backspace	n/a
305.069	0.135	610138	keystroke	Key.backspace	n/a
305.444	0.12	610888	keystroke	d	n/a
305.939	0.105	611878	keystroke	Key.enter	n/a
306.0475	13.8125	612095	prompt	n/a	airports departure responding grams\n
307.154	0.135	614308	keystroke	a	n/a
307.319	0.09	614638	keystroke	i	n/a
307.484	0.105	614968	keystroke	r	n/a
308.0835	0.1205	616167	keystroke	p	n/a
308.1585	0.195	616317	keystroke	o	n/a
309.0585	0.1055	618117	keystroke	r	n/a
309.2535	0.1205	618507	keystroke	t	n/a
309.989	0.12	619978	keystroke	s	n/a
310.214	0.105	620428	keystroke	Key.space	n/a
310.649	0.0905	621298	keystroke	d	n/a
310.814	0.1055	621628	keystroke	e	n/a
311.039	0.075	622078	keystroke	p	n/a
311.174	0.165	622348	keystroke	a	n/a
312.103	0.1055	624206	keystroke	t	n/a
314.129	0.0445	628258	keystroke	u	n/a
314.2335	0.1805	628467	keystroke	r	n/a
314.3235	0.1355	628647	keystroke	e	n/a
314.774	0.105	629548	keystroke	Key.space	n/a
315.404	0.1045	630808	keystroke	r	n/a
315.4485	0.12	630897	keystroke	e	n/a
315.6435	0.12	631287	keystroke	s	n/a
315.8685	0.135	631737	keystroke	p	n/a
316.184	0.09	632368	keystroke	o	n/a
316.364	0.12	632728	keystroke	n	n/a
316.619	0.135	633238	keystroke	d	n/a
316.889	0.15	633778	keystroke	i	n/a
316.964	0.1495	633928	keystroke	n	n/a
317.1285	0.12	634257	keystroke	g	n/a
317.7285	0.075	635457	keystroke	Key.space	n/a
318.659	0.105	637318	keystroke	g	n/a
318.929	0.1355	637858	keystroke	r	n/a
319.0645	0.1045	638129	keystroke	a	n/a
319.1985	0.105	638397	keystroke	m	n/a
319.3485	0.135	638697	keystroke	s	n/a
319.754	0.105	639508	keystroke	Key.enter	n/a
319.866	12.429	639732	prompt	n/a	minnesota believe permission banks\n
320.698	0.105	641396	keystroke	m	n/a
321.014	0.119	642028	keystroke	i	n/a
321.5985	0.075	643197	keystroke	n	n/a
321.749	0.105	643498	keystroke	n	n/a
321.869	0.135	643738	keystroke	e	n/a
322.394	0.104	644788	keystroke	s	n/a
322.514	0.105	645028	keystroke	o	n/a
322.784	0.15	645568	keystroke	t	n/a
322.964	0.15	645928	keystroke	a	n/a
323.174	0.105	646348	keystroke	Key.space	n/a
324.134	0.105	648268	keystroke	b	n/a
324.6885	0.09	649377	keystroke	e	n/a
325.9635	0.0155	651927	keystroke	l	n/a
326.3985	0.09	652797	keystroke	i	n/a
326.5935	0.1355	653187	keystroke	e	n/a
326.8935	0.12	653787	keystroke	v	n/a
327.074	0.165	654148	keystroke	e	n/a
327.494	0.075	654988	keystroke	Key.space	n/a
327.9435	0.105	655887	keystroke	p	n/a
328.1685	0.1805	656337	keystroke	e	n/a
328.3035	0.1805	656607	keystroke	r	n/a
328.679	0.09	657358	keystroke	m	n/a
328.889	0.12	657778	keystroke	i	n/a
329.219	0.075	658438	keystroke	s	n/a
329.3685	0.105	658737	keystroke	s	n/a
329.4885	0.1805	658977	keystroke	i	n/a
329.5785	0.12	659157	keystroke	o	n/a
329.744	0.12	659488	keystroke	n	n/a
330.0285	0.06	660057	keystroke	Key.space	n/a
330.8235	0.135	661647	keystroke	b	n/a
330.9885	0.12	661977	keystroke	a	n/a
331.4835	0.105	662967	keystroke	n	n/a
331.604	0.1195	663208	keystroke	k	n/a
331.9035	0.105	663807	keystroke	s	n/a
332.1885	0.105	664377	keystroke	Key.enter	n/a
332.298	20.0525	664596	prompt	n/a	producers deviation raising serve\n
333.1645	0.0895	666329	keystroke	p	n/a
333.6445	0.134	667289	keystroke	r	n/a
333.764	0.0895	667528	keystroke	o	n/a
334.1385	0.135	668277	keystroke	d	n/a
334.2885	0.135	668577	keystroke	u	n/a
334.5435	0.1205	669087	keystroke	c	n/a
334.7995	0.1495	669599	keystroke	e	n/a
334.994	0.165	669988	keystroke	r	n/a
335.204	0.12	670408	keystroke	s	n/a
335.414	0.12	670828	keystroke	Key.space	n/a
336.359	0.105	672718	keystroke	d	n/a
337.1085	0.15	674217	keystroke	e	n/a
337.4235	0.12	674847	keystroke	v	n/a
338.0535	0.105	676107	keystroke	i	n/a
338.2635	0.136	676527	keystroke	a	n/a
338.714	0.165	677428	keystroke	t	n/a
338.924	0.135	677848	keystroke	i	n/a
339.134	0.1345	678268	keystroke	o	n/a
339.434	0.1045	678868	keystroke	n	n/a
339.8685	0.1205	679737	keystroke	Key.space	n/a
340.483	0.091	680966	keystroke	r	n/a
342.388	0.121	684776	keystroke	a	n/a
342.5685	0.15	685137	keystroke	s	n/a
342.943	0.121	685886	keystroke	i	n/a
346.591	0.043	693182	keystroke	Key.backspace	n/a
346.769	0.075	693538	keystroke	Key.backspace	n/a
347.5935	0.0755	695187	keystroke	i	n/a
347.714	0.105	695428	keystroke	s	n/a
348.5685	0.15	697137	keystroke	i	n/a
348.644	0.135	697288	keystroke	n	n/a
348.854	0.12	697708	keystroke	g	n/a
349.529	0.1045	699058	keystroke	Key.space	n/a
350.264	0.0755	700528	keystroke	s	n/a
351.119	0.1355	702238	keystroke	e	n/a
351.179	0.15	702358	keystroke	r	n/a
351.644	0.1055	703288	keystroke	v	n/a
351.7935	0.105	703587	keystroke	e	n/a
352.2435	0.105	704487	keystroke	Key.enter	n/a
352.361	17.8545	704722	prompt	n/a	common clark performance bacterial\n
353.4885	0.1055	706977	keystroke	c	n/a
354.6285	0.12	709257	keystroke	o	n/a
355.154	0.0145	710308	keystroke	m	n/a
355.754	0.0595	711508	keystroke	m	n/a
355.934	0.105	711868	keystroke	o	n/a
356.174	0.1045	712348	keystroke	n	n/a
356.459	0.09	712918	keystroke	Key.space	n/a
356.6985	0.1355	713397	keystroke	c	n/a
356.8045	0.1045	713609	keystroke	l	n/a
357.029	0.15	714058	keystroke	a	n/a
357.269	0.15	714538	keystroke	r	n/a
357.464	0.06	714928	keystroke	j	n/a
358.334	0.105	716668	keystroke	Key.backspace	n/a
358.844	0.0895	717688	keystroke	k	n/a
359.129	0.12	718258	keystroke	Key.space	n/a
359.969	0.0895	719938	keystroke	c	n/a
360.1035	0.075	720207	keystroke	l	n/a
360.464	0.1345	720928	keystroke	a	n/a
360.554	0.1495	721108	keystroke	r	n/a
360.7635	0.0905	721527	keystroke	k	n/a
361.409	0.09	722818	keystroke	Key.space	n/a
361.709	0.0755	723418	keystroke	p	n/a
361.889	0.12	723778	keystroke	a	n/a
362.369	0.12	724738	keystroke	Key.backspace	n/a
363.0745	0.1345	726149	keystroke	e	n/a
363.149	0.135	726298	keystroke	r	n/a
363.7335	0.105	727467	keystroke	f	n/a
363.8235	0.1955	727647	keystroke	o	n/a
363.9295	0.134	727859	keystroke	m	n/a
364.6185	0.105	729237	keystroke	a	n/a
364.7535	0.1055	729507	keystroke	n	n/a
364.964	0.135	729928	keystroke	c	n/a
365.174	0.15	730348	keystroke	e	n/a
365.564	0.09	731128	keystroke	Key.space	n/a
366.284	0.06	732568	keystroke	b	n/a
366.8845	0.1045	733769	keystroke	a	n/a
367.244	0.15	734488	keystroke	c	n/a
368.684	0.1045	737368	keystroke	t	n/a
368.9245	0.1495	737849	keystroke	e	n/a
369.029	0.1495	738058	keystroke	r	n/a
369.239	0.135	738478	keystroke	i	n/a
369.554	0.1655	739108	keystroke	a	n/a
369.704	0.1495	739408	keystroke	l	n/a
370.049	0.165	740098	keystroke	Key.enter	n/a
370.2225	12.8325	740445	prompt	n/a	alaska relating written movement\n
370.964	0.105	741928	keystroke	a	n/a
371.099	0.1195	742198	keystroke	l	n/a
371.279	0.1195	742558	keystroke	a	n/a
371.669	0.1645	743338	keystroke	s	n/a
371.8185	0.105	743637	keystroke	k	n/a
372.7345	0.119	745469	keystroke	a	n/a
373.0485	0.105	746097	keystroke	Key.space	n/a
373.454	0.165	746908	keystroke	e	n/a
374.069	0.105	748138	keystroke	Key.backspace	n/a
374.369	0.195	748738	keystroke	r	n/a
374.549	0.135	749098	keystroke	e	n/a
375.149	0.09	750298	keystroke	l	n/a
375.344	0.18	750688	keystroke	a	n/a
375.569	0.15	751138	keystroke	t	n/a
375.824	0.105	751648	keystroke	i	n/a
375.989	0.15	751978	keystroke	n	n/a
376.154	0.135	752308	keystroke	g	n/a
376.319	0.09	752638	keystroke	Key.space	n/a
376.979	0.1055	753958	keystroke	w	n/a
377.294	0.12	754588	keystroke	r	n/a
377.534	0.1045	755068	keystroke	e	n/a
377.6685	0.1205	755337	keystroke	i	n/a
377.9385	0.105	755877	keystroke	t	n/a
378.119	0.12	756238	keystroke	t	n/a
378.644	0.1045	757288	keystroke	e	n/a
378.7185	0.1205	757437	keystroke	n	n/a
379.0785	0.09	758157	keystroke	Key.space	n/a
379.529	0.105	759058	keystroke	m	n/a
379.6945	0.12	759389	keystroke	o	n/a
380.0085	0.12	760017	keystroke	v	n/a
380.2335	0.1505	760467	keystroke	e	n/a
380.459	0.135	760918	keystroke	n	n/a
381.8685	0.09	763737	keystroke	Key.backspace	n/a
382.2285	0.0905	764457	keystroke	m	n/a
382.349	0.135	764698	keystroke	e	n/a
382.469	0.0895	764938	keystroke	n	n/a
382.634	0.135	765268	keystroke	t	n/a
382.949	0.105	765898	keystroke	Key.enter	n/a
383.06	8.17	766120	prompt	n/a	barn alike began coal\n
383.9685	0.1505	767937	keystroke	b	n/a
384.7785	0.1505	769557	keystroke	a	n/a
384.914	0.12	769828	keystroke	r	n/a
385.094	0.105	770188	keystroke	n	n/a
385.4385	0.1055	770877	keystroke	Key.space	n/a
385.769	0.12	771538	keystroke	a	n/a
385.9035	0.1055	771807	keystroke	l	n/a
386.084	0.105	772168	keystroke	i	n/a
386.3085	0.12	772617	keystroke	k	n/a
386.4435	0.15	772887	keystroke	e	n/a
386.6685	0.09	773337	keystroke	Key.space	n/a
387.374	0.105	774748	keystroke	b	n/a
387.584	0.104	775168	keystroke	e	n/a
387.989	0.105	775978	keystroke	g	n/a
388.079	0.135	776158	keystroke	a	n/a
388.289	0.12	776578	keystroke	n	n/a
388.844	0.09	777688	keystroke	Key.space	n/a
389.6835	0.12	779367	keystroke	c	n/a
390.1635	0.105	780327	keystroke	o	n/a
390.2835	0.15	780567	keystroke	a	n/a
390.4485	0.135	780897	keystroke	l	n/a
391.154	0.0745	782308	keystroke	Key.enter	n/a
391.2345	12.5655	782469	prompt	n/a	purchasing paragraph prince tray\n
392.264	0.135	784528	keystroke	p	n/a
392.699	0.105	785398	keystroke	u	n/a
392.788	0.1065	785576	keystroke	r	n/a
393.104	0.134	786208	keystroke	c	n/a
393.2085	0.0905	786417	keystroke	h	n/a
393.359	0.1055	786718	keystroke	a	n/a
393.674	0.12	787348	keystroke	s	n/a
393.779	0.12	787558	keystroke	i	n/a
393.839	0.12	787678	keystroke	n	n/a
394.049	0.1205	788098	keystroke	g	n/a
394.8435	0.12	789687	keystroke	Key.space	n/a
395.294	0.09	790588	keystroke	p	n/a
395.474	0.105	790948	keystroke	a	n/a
395.7295	0.209	791459	keystroke	r	n/a
395.909	0.1495	791818	keystroke	a	n/a
396.7935	0.1055	793587	keystroke	g	n/a
397.019	0.1495	794038	keystroke	r	n/a
397.1385	0.12	794277	keystroke	a	n/a
397.664	0.12	795328	keystroke	p	n/a
397.8285	0.1055	795657	keystroke	h	n/a
398.624	0.0895	797248	keystroke	Key.space	n/a
399.224	0.09	798448	keystroke	p	n/a
399.374	0.12	798748	keystroke	r	n/a
400.784	0.105	801568	keystroke	i	n/a
400.874	0.03	801748	keystroke	n	n/a
400.949	0.09	801898	keystroke	c	n/a
401.1735	0.15	802347	keystroke	e	n/a
401.4285	0.105	802857	keystroke	Key.space	n/a
402.464	0.09	804928	keystroke	t	n/a
402.644	0.105	805288	keystroke	r	n/a
403.0785	0.075	806157	keystroke	a	n/a
403.2135	0.1205	806427	keystroke	y	n/a
403.694	0.105	807388	keystroke	Key.enter	n/a
403.803	5.8025	807606	prompt	n/a	facial ruth bosnia rebate\n
404.729	0.15	809458	keystroke	f	n/a
404.864	0.135	809728	keystroke	a	n/a
405.5535	0.1505	811107	keystroke	c	n/a
405.7185	0.105	811437	keystroke	i	n/a
405.974	0.135	811948	keystroke	a	n/a
406.079	0.135	812158	keystroke	l	n/a
406.259	0.105	812518	keystroke	Key.space	n/a
406.724	0.105	813448	keystroke	r	n/a
407.114	0.1045	814228	keystroke	u	n/a
407.2485	0.135	814497	keystroke	t	n/a
407.3535	0.1055	814707	keystroke	h	n/a
407.609	0.06	815218	keystroke	Key.space	n/a
408.3885	0.195	816777	keystroke	r	n/a
408.539	0.135	817078	keystroke	e	n/a
408.884	0.15	817768	keystroke	b	n/a
409.019	0.165	818038	keystroke	a	n/a
409.1695	0.1345	818339	keystroke	t	n/a
409.289	0.135	818578	keystroke	e	n/a
409.4985	0.105	818997	keystroke	Key.enter	n/a
409.611	11.124	819222	prompt	n/a	items reconstruction talk destroy\n
410.579	0.0895	821158	keystroke	i	n/a
411.014	0.105	822028	keystroke	t	n/a
411.194	0.135	822388	keystroke	e	n/a
411.374	0.09	822748	keystroke	m	n/a
411.524	0.15	823048	keystroke	s	n/a
411.719	0.075	823438	keystroke	Key.space	n/a
412.0035	0.166	824007	keystroke	r	n/a
412.1235	0.151	824247	keystroke	e	n/a
412.4835	0.12	824967	keystroke	c	n/a
412.5735	0.1805	825147	keystroke	o	n/a
412.6635	0.1355	825327	keystroke	n	n/a
412.874	0.045	825748	keystroke	s	n/a
412.949	0.1645	825898	keystroke	s	n/a
413.1585	0.15	826317	keystroke	t	n/a
413.4435	0.12	826887	keystroke	r	n/a
413.6385	0.15	827277	keystroke	u	n/a
413.8935	0.135	827787	keystroke	c	n/a
414.1785	0.165	828357	keystroke	t	n/a
414.3435	0.18	828687	keystroke	i	n/a
414.5085	0.165	829017	keystroke	o	n/a
414.8235	0.0905	829647	keystroke	n	n/a
415.1535	0.1205	830307	keystroke	Key.space	n/a
415.574	0.15	831148	keystroke	t	n/a
415.784	0.15	831568	keystroke	a	n/a
415.949	0.09	831898	keystroke	l	n/a
415.994	0.165	831988	keystroke	k	n/a
416.354	0.075	832708	keystroke	Key.space	n/a
416.6385	0.105	833277	keystroke	d	n/a
416.8335	0.195	833667	keystroke	e	n/a
417.0135	0.1355	834027	keystroke	s	n/a
417.224	0.15	834448	keystroke	t	n/a
417.689	0.1045	835378	keystroke	o	n/a
419.0685	0.105	838137	keystroke	Key.backspace	n/a
419.474	0.135	838948	keystroke	r	n/a
420.0885	0.1645	840177	keystroke	o	n/a
420.314	0.089	840628	keystroke	y	n/a
420.643	0.0905	841286	keystroke	Key.enter	n/a
420.7385	11.6515	841477	prompt	n/a	garmin batman sagem harris\n
421.994	0.12	843988	keystroke	g	n/a
423.5085	0.151	847017	keystroke	a	n/a
423.6135	0.1655	847227	keystroke	r	n/a
423.944	0.15	847888	keystroke	m	n/a
424.244	0.135	848488	keystroke	i	n/a
424.304	0.135	848608	keystroke	n	n/a
424.574	0.105	849148	keystroke	Key.space	n/a
424.919	0.06	849838	keystroke	b	n/a
425.009	0.315	850018	keystroke	a	n/a
425.3085	0.2105	850617	keystroke	t	n/a
426.134	0.105	852268	keystroke	m	n/a
426.299	0.1495	852598	keystroke	a	n/a
426.3735	0.135	852747	keystroke	n	n/a
426.7635	0.105	853527	keystroke	Key.space	n/a
427.244	0.165	854488	keystroke	s	n/a
428.264	0.12	856528	keystroke	a	n/a
428.624	0.12	857248	keystroke	g	n/a
428.834	0.1645	857668	keystroke	e	n/a
429.0135	0.09	858027	keystroke	m	n/a
429.269	0.075	858538	keystroke	Key.space	n/a
430.859	0.135	861718	keystroke	h	n/a
431.024	0.18	862048	keystroke	a	n/a
431.4285	0.09	862857	keystroke	r	n/a
431.579	0.12	863158	keystroke	r	n/a
431.7435	0.105	863487	keystroke	i	n/a
431.8785	0.165	863757	keystroke	s	n/a
432.2535	0.135	864507	keystroke	Key.enter	n/a
432.3925	14.533	864785	prompt	n/a	blogs enjoy bowling taste\n
433.814	0.105	867628	keystroke	b	n/a
433.934	0.105	867868	keystroke	l	n/a
434.279	0.09	868558	keystroke	o	n/a
434.8035	0.12	869607	keystroke	g	n/a
435.0285	0.1355	870057	keystroke	s	n/a
435.494	0.0895	870988	keystroke	Key.space	n/a
435.9585	0.12	871917	keystroke	e	n/a
436.0335	0.1355	872067	keystroke	n	n/a
436.4835	0.165	872967	keystroke	j	n/a
436.6335	0.1955	873267	keystroke	o	n/a
436.8295	0.1345	873659	keystroke	y	n/a
437.159	0.105	874318	keystroke	Key.space	n/a
438.854	0.12	877708	keystroke	b	n/a
439.1385	0.075	878277	keystroke	l	n/a
439.4685	0.1055	878937	keystroke	o	n/a
441.493	0.09	882986	keystroke	Key.backspace	n/a
442.304	0.105	884608	keystroke	Key.backspace	n/a
443.354	0.12	886708	keystroke	o	n/a
443.459	0.135	886918	keystroke	w	n/a
443.624	0.075	887248	keystroke	l	n/a
443.849	0.1655	887698	keystroke	i	n/a
443.909	0.165	887818	keystroke	n	n/a
444.044	0.1345	888088	keystroke	g	n/a
444.2385	0.105	888477	keystroke	Key.space	n/a
444.719	0.12	889438	keystroke	t	n/a
444.884	0.075	889768	keystroke	a	n/a
445.049	0.135	890098	keystroke	s	n/a
445.334	0.045	890668	keystroke	s	n/a
445.9185	0.12	891837	keystroke	t	n/a
446.0985	0.15	892197	keystroke	e	n/a
446.3685	0.135	892737	keystroke	s	n/a
446.8195	0.104	893639	keystroke	Key.enter	n/a
446.9275	8.2775	893855	prompt	n/a	offerings posting nomination self\n
447.794	0.06	895588	keystroke	o	n/a
448.004	0.0755	896008	keystroke	f	n/a
448.154	0.1345	896308	keystroke	f	n/a
448.3785	0.2105	896757	keystroke	e	n/a
448.529	0.15	897058	keystroke	r	n/a
448.769	0.135	897538	keystroke	i	n/a
448.829	0.135	897658	keystroke	n	n/a
448.8885	0.1805	897777	keystroke	g	n/a
449.3385	0.0905	898677	keystroke	Key.space	n/a
449.5635	0.1505	899127	keystroke	p	n/a
449.6535	0.1505	899307	keystroke	o	n/a
449.9685	0.1955	899937	keystroke	s	n/a
450.1485	0.15	900297	keystroke	t	n/a
450.3135	0.165	900627	keystroke	i	n/a
450.3735	0.135	900747	keystroke	n	n/a
450.494	0.1495	900988	keystroke	g	n/a
450.7035	0.105	901407	keystroke	Key.space	n/a
451.2135	0.0905	902427	keystroke	n	n/a
451.3935	0.1505	902787	keystroke	o	n/a
451.634	0.105	903268	keystroke	m	n/a
451.859	0.135	903718	keystroke	i	n/a
451.9485	0.1655	903897	keystroke	n	n/a
452.218	0.1355	904436	keystroke	a	n/a
452.459	0.165	904918	keystroke	t	n/a
452.549	0.165	905098	keystroke	i	n/a
452.639	0.12	905278	keystroke	o	n/a
452.774	0.1195	905548	keystroke	n	n/a
452.9985	0.075	905997	keystroke	Key.space	n/a
453.2385	0.09	906477	keystroke	s	n/a
453.5085	0.135	907017	keystroke	e	n/a
453.7035	0.09	907407	keystroke	l	n/a
453.8835	0.1055	907767	keystroke	g	n/a
455.084	0.1195	910168	keystroke	Key.enter	n/a
455.2135	11.077	910427	prompt	n/a	spies fabric customs army\n
456.089	0.135	912178	keystroke	s	n/a
456.209	0.15	912418	keystroke	p	n/a
456.434	0.0295	912868	keystroke	o	n/a
457.514	0.09	915028	keystroke	Key.backspace	n/a
457.979	0.09	915958	keystroke	i	n/a
458.084	0.1345	916168	keystroke	e	n/a
458.354	0.0595	916708	keystroke	s	n/a
458.8335	0.091	917667	keystroke	Key.space	n/a
459.1485	0.1805	918297	keystroke	f	n/a
459.2985	0.1505	918597	keystroke	a	n/a
460.2595	0.1195	920519	keystroke	b	n/a
460.7535	0.0905	921507	keystroke	r	n/a
460.859	0.09	921718	keystroke	i	n/a
461.639	0.105	923278	keystroke	c	n/a
462.179	0.075	924358	keystroke	Key.space	n/a
462.509	0.12	925018	keystroke	c	n/a
462.674	0.0905	925348	keystroke	u	n/a
462.8395	0.1795	925679	keystroke	s	n/a
463.049	0.1645	926098	keystroke	t	n/a
463.2285	0.1655	926457	keystroke	o	n/a
464.0235	0.105	928047	keystroke	m	n/a
464.2645	0.119	928529	keystroke	s	n/a
464.669	0.09	929338	keystroke	Key.space	n/a
464.954	0.195	929908	keystroke	a	n/a
465.1635	0.15	930327	keystroke	r	n/a
465.1785	0.105	930357	keystroke	t	n/a
465.3585	0.1055	930717	keystroke	m	n/a
465.899	0.1195	931798	keystroke	u	n/a
466.1835	0.1055	932367	keystroke	Key.enter	n/a
466.2935	10.152	932587	prompt	n/a	perl controlled leaf blame\n
467.3985	0.075	934797	keystroke	p	n/a
467.549	0.12	935098	keystroke	e	n/a
467.609	0.15	935218	keystroke	r	n/a
467.803	0.091	935606	keystroke	l	n/a
468.0135	0.0905	936027	keystroke	Key.space	n/a
468.4935	0.121	936987	keystroke	c	n/a
468.629	0.1795	937258	keystroke	o	n/a
468.7485	0.135	937497	keystroke	n	n/a
469.2885	0.15	938577	keystroke	t	n/a
470.4285	0.105	940857	keystroke	r	n/a
470.5635	0.15	941127	keystroke	o	n/a
471.029	0.06	942058	keystroke	l	n/a
471.179	0.1195	942358	keystroke	l	n/a
471.314	0.1055	942628	keystroke	e	n/a
471.524	0.15	943048	keystroke	d	n/a
471.6585	0.0755	943317	keystroke	Key.space	n/a
471.929	0.0745	943858	keystroke	l	n/a
472.0185	0.18	944037	keystroke	e	n/a
472.274	0.165	944548	keystroke	a	n/a
472.664	0.15	945328	keystroke	f	n/a
473.054	0.1055	946108	keystroke	Key.space	n/a
473.6845	0.149	947369	keystroke	b	n/a
473.9085	0.076	947817	keystroke	l	n/a
474.0885	0.105	948177	keystroke	a	n/a
474.3135	0.09	948627	keystroke	n	n/a
474.7635	0.12	949527	keystroke	Key.backspace	n/a
475.0485	0.09	950097	keystroke	m	n/a
475.184	0.1055	950368	keystroke	d	n/a
475.784	0.135	951568	keystroke	Key.backspace	n/a
475.9645	0.1045	951929	keystroke	e	n/a
476.294	0.1495	952588	keystroke	Key.enter	n/a
476.45	11.6355	952900	prompt	n/a	velvet richardson christian missile\n
477.3745	0.1345	954749	keystroke	w	n/a
477.974	0.15	955948	keystroke	e	n/a
478.139	0.105	956278	keystroke	l	n/a
479.0985	0.135	958197	keystroke	v	n/a
479.324	0.27	958648	keystroke	e	n/a
479.5335	0.151	959067	keystroke	t	n/a
479.864	0.09	959728	keystroke	Key.space	n/a
480.3745	0.12	960749	keystroke	r	n/a
480.5695	0.12	961139	keystroke	i	n/a
481.334	0.1195	962668	keystroke	h	n/a
481.5585	0.136	963117	keystroke	a	n/a
482.009	0.135	964018	keystroke	r	n/a
482.579	0.045	965158	keystroke	f	n/a
483.284	0.105	966568	keystroke	s	n/a
483.344	0.15	966688	keystroke	o	n/a
483.419	0.12	966838	keystroke	n	n/a
484.1535	0.105	968307	keystroke	Key.space	n/a
484.5895	0.119	969179	keystroke	c	n/a
484.7235	0.06	969447	keystroke	h	n/a
485.0535	0.135	970107	keystroke	r	n/a
485.174	0.135	970348	keystroke	i	n/a
485.3385	0.12	970677	keystroke	s	n/a
485.5335	0.18	971067	keystroke	t	n/a
485.6535	0.225	971307	keystroke	i	n/a
486.0745	0.1345	972149	keystroke	a	n/a
486.2385	0.121	972477	keystroke	n	n/a
486.479	0.06	972958	keystroke	Key.space	n/a
486.719	0.0895	973438	keystroke	m	n/a
486.8985	0.135	973797	keystroke	i	n/a
487.109	0.105	974218	keystroke	s	n/a
487.274	0.12	974548	keystroke	s	n/a
487.409	0.105	974818	keystroke	i	n/a
487.5585	0.165	975117	keystroke	l	n/a
487.7095	0.119	975419	keystroke	e	n/a
487.9935	0.0905	975987	keystroke	Key.enter	n/a
488.0875	10.498	976175	prompt	n/a	elements validation brochures printer\n
488.8195	0.1345	977639	keystroke	e	n/a
488.939	0.15	977878	keystroke	l	n/a
489.059	0.165	978118	keystroke	e	n/a
489.464	0.105	978928	keystroke	m	n/a
489.584	0.1655	979168	keystroke	e	n/a
489.704	0.135	979408	keystroke	n	n/a
489.8095	0.1345	979619	keystroke	t	n/a
490.034	0.165	980068	keystroke	s	n/a
490.229	0.12	980458	keystroke	Key.space	n/a
490.709	0.1345	981418	keystroke	v	n/a
490.9335	0.165	981867	keystroke	a	n/a
491.204	0.195	982408	keystroke	l	n/a
491.444	0.105	982888	keystroke	i	n/a
491.759	0.1805	983518	keystroke	d	n/a
491.9245	0.1495	983849	keystroke	a	n/a
492.1485	0.165	984297	keystroke	t	n/a
492.239	0.1945	984478	keystroke	i	n/a
492.315	0.1495	984630	keystroke	o	n/a
492.4785	0.15	984957	keystroke	n	n/a
492.6885	0.12	985377	keystroke	Key.space	n/a
493.4245	0.119	986849	keystroke	b	n/a
493.799	0.135	987598	keystroke	r	n/a
493.889	0.105	987778	keystroke	o	n/a
494.309	0.075	988618	keystroke	c	n/a
494.714	0.1195	989428	keystroke	h	n/a
495.524	0.0895	991048	keystroke	u	n/a
495.8835	0.2555	991767	keystroke	r	n/a
496.049	0.1655	992098	keystroke	e	n/a
496.2295	0.12	992459	keystroke	s	n/a
496.7685	0.1355	993537	keystroke	Key.space	n/a
497.2785	0.1205	994557	keystroke	p	n/a
497.534	0.135	995068	keystroke	r	n/a
497.699	0.165	995398	keystroke	i	n/a
497.789	0.12	995578	keystroke	n	n/a
497.954	0.165	995908	keystroke	t	n/a
498.179	0.165	996358	keystroke	e	n/a
498.284	0.135	996568	keystroke	r	n/a
498.479	0.1045	996958	keystroke	Key.enter	n/a
498.5875	9.1625	997175	prompt	n/a	vertex lace later battery\n
499.319	0.12	998638	keystroke	v	n/a
499.5895	0.2095	999179	keystroke	e	n/a
499.724	0.18	999448	keystroke	r	n/a
500.5935	0.12	1001187	keystroke	e	n/a
500.8635	0.15	1001727	keystroke	x	n/a
501.149	0.09	1002298	keystroke	Key.space	n/a
501.479	0.1505	1002958	keystroke	l	n/a
501.5685	0.15	1003137	keystroke	a	n/a
501.824	0.135	1003648	keystroke	c	n/a
502.064	0.135	1004128	keystroke	e	n/a
502.229	0.09	1004458	keystroke	Key.space	n/a
502.409	0.105	1004818	keystroke	l	n/a
502.709	0.1505	1005418	keystroke	a	n/a
502.9185	0.1205	1005837	keystroke	t	n/a
503.0985	0.15	1006197	keystroke	e	n/a
503.1885	0.1205	1006377	keystroke	r	n/a
503.4135	0.075	1006827	keystroke	Key.space	n/a
503.7435	0.12	1007487	keystroke	b	n/a
504.1035	0.1055	1008207	keystroke	e	n/a
504.749	0.0895	1009498	keystroke	Key.backspace	n/a
504.989	0.1345	1009978	keystroke	a	n/a
505.259	0.225	1010518	keystroke	t	n/a
505.5735	0.12	1011147	keystroke	t	n/a
506.279	0.135	1012558	keystroke	e	n/a
506.354	0.165	1012708	keystroke	r	n/a
507.239	0.09	1014478	keystroke	y	n/a
507.6135	0.1355	1015227	keystroke	Key.enter	n/a
507.756	11.859	1015512	prompt	n/a	hours ought regulation developmental\n
509.354	0.105	1018708	keystroke	h	n/a
509.5045	0.1345	1019009	keystroke	o	n/a
509.6095	0.1495	1019219	keystroke	u	n/a
509.9535	0.121	1019907	keystroke	r	n/a
510.1345	0.134	1020269	keystroke	s	n/a
510.4485	0.1055	1020897	keystroke	Key.space	n/a
511.049	0.15	1022098	keystroke	o	n/a
511.139	0.135	1022278	keystroke	u	n/a
511.379	0.12	1022758	keystroke	g	n/a
511.499	0.15	1022998	keystroke	h	n/a
511.6345	0.1495	1023269	keystroke	t	n/a
511.874	0.09	1023748	keystroke	Key.space	n/a
512.5045	0.1645	1025009	keystroke	r	n/a
512.654	0.12	1025308	keystroke	e	n/a
513.2835	0.135	1026567	keystroke	g	n/a
513.644	0.1205	1027288	keystroke	u	n/a
513.8995	0.075	1027799	keystroke	l	n/a
514.3495	0.0745	1028699	keystroke	a	n/a
514.9045	0.134	1029809	keystroke	t	n/a
514.9945	0.195	1029989	keystroke	i	n/a
515.084	0.135	1030168	keystroke	o	n/a
515.3695	0.089	1030739	keystroke	n	n/a
515.7445	0.044	1031489	keystroke	Key.space	n/a
516.329	0.1345	1032658	keystroke	d	n/a
516.5685	0.15	1033137	keystroke	e	n/a
516.854	0.135	1033708	keystroke	v	n/a
517.0495	0.164	1034099	keystroke	e	n/a
517.2445	0.089	1034489	keystroke	l	n/a
517.7835	0.1805	1035567	keystroke	o	n/a
517.904	0.12	1035808	keystroke	p	n/a
518.4145	0.134	1036829	keystroke	m	n/a
518.5795	0.134	1037159	keystroke	e	n/a
518.6995	0.12	1037399	keystroke	n	n/a
518.8645	0.164	1037729	keystroke	t	n/a
519.0435	0.1655	1038087	keystroke	a	n/a
519.179	0.12	1038358	keystroke	l	n/a
519.5085	0.1055	1039017	keystroke	Key.enter	n/a
519.6195	16.016	1039239	prompt	n/a	beneath approve orleans communities\n
520.694	0.0745	1041388	keystroke	b	n/a
521.189	0.12	1042378	keystroke	e	n/a
521.309	0.105	1042618	keystroke	n	n/a
522.014	0.1495	1044028	keystroke	e	n/a
522.2085	0.271	1044417	keystroke	a	n/a
522.4335	0.1355	1044867	keystroke	t	n/a
522.6145	0.15	1045229	keystroke	h	n/a
522.8235	0.0905	1045647	keystroke	Key.space	n/a
523.034	0.1195	1046068	keystroke	a	n/a
523.3785	0.105	1046757	keystroke	p	n/a
523.5435	0.1955	1047087	keystroke	p	n/a
524.0385	0.121	1048077	keystroke	r	n/a
524.189	0.1645	1048378	keystroke	o	n/a
524.5335	0.1655	1049067	keystroke	v	n/a
524.834	0.165	1049668	keystroke	e	n/a
524.984	0.135	1049968	keystroke	Key.space	n/a
525.569	0.045	1051138	keystroke	l	n/a
525.704	0.165	1051408	keystroke	o	n/a
525.824	0.15	1051648	keystroke	r	n/a
528.5265	0.0125	1057053	keystroke	Key.backspace	n/a
528.614	0.06	1057228	keystroke	Key.backspace	n/a
528.7485	0.0755	1057497	keystroke	Key.backspace	n/a
529.934	0.105	1059868	keystroke	o	n/a
531.0285	0.105	1062057	keystroke	r	n/a
531.479	0.09	1062958	keystroke	l	n/a
531.599	0.135	1063198	keystroke	e	n/a
531.7785	0.105	1063557	keystroke	a	n/a
531.9145	0.164	1063829	keystroke	n	n/a
532.1095	0.119	1064219	keystroke	s	n/a
532.3345	0.089	1064669	keystroke	Key.space	n/a
532.619	0.1205	1065238	keystroke	c	n/a
532.679	0.135	1065358	keystroke	o	n/a
533.024	0.075	1066048	keystroke	m	n/a
533.1445	0.1345	1066289	keystroke	m	n/a
533.489	0.15	1066978	keystroke	u	n/a
533.774	0.105	1067548	keystroke	n	n/a
534.029	0.105	1068058	keystroke	i	n/a
534.794	0.1795	1069588	keystroke	t	n/a
534.9585	0.135	1069917	keystroke	i	n/a
535.079	0.165	1070158	keystroke	e	n/a
535.3035	0.166	1070607	keystroke	s	n/a
535.529	0.1045	1071058	keystroke	Key.enter	n/a
535.6455	14.0745	1071291	prompt	n/a	tears rangers backed chip\n
536.624	0.1205	1073248	keystroke	t	n/a
536.834	0.1945	1073668	keystroke	e	n/a
537.0135	0.1955	1074027	keystroke	a	n/a
537.284	0.15	1074568	keystroke	t	n/a
538.2435	0.0755	1076487	keystroke	Key.backspace	n/a
538.724	0.045	1077448	keystroke	r	n/a
538.9195	0.119	1077839	keystroke	s	n/a
539.2635	0.09	1078527	keystroke	Key.space	n/a
539.6535	0.1505	1079307	keystroke	r	n/a
539.8185	0.15	1079637	keystroke	a	n/a
540.0445	0.104	1080089	keystroke	n	n/a
540.8385	0.1055	1081677	keystroke	g	n/a
541.034	0.165	1082068	keystroke	e	n/a
541.154	0.135	1082308	keystroke	r	n/a
541.349	0.15	1082698	keystroke	s	n/a
541.529	0.105	1083058	keystroke	Key.space	n/a
542.684	0.1055	1085368	keystroke	b	n/a
542.8345	0.134	1085669	keystroke	a	n/a
543.0445	0.165	1086089	keystroke	c	n/a
543.3145	0.09	1086629	keystroke	k	n/a
543.4345	0.1195	1086869	keystroke	e	n/a
543.6595	0.1195	1087319	keystroke	d	n/a
543.8385	0.1055	1087677	keystroke	Key.space	n/a
544.214	0.12	1088428	keystroke	c	n/a
544.574	0.135	1089148	keystroke	i	n/a
544.604	0.18	1089208	keystroke	h	n/a
545.879	0.0155	1091758	keystroke	Key.backspace	n/a
545.969	0.1055	1091938	keystroke	Key.backspace	n/a
546.689	0.12	1093378	keystroke	i	n/a
546.839	0.1355	1093678	keystroke	p	n/a
547.724	0.075	1095448	keystroke	Key.backspace	n/a
547.874	0.075	1095748	keystroke	Key.backspace	n/a
548.8185	0.091	1097637	keystroke	h	n/a
549.1485	0.1055	1098297	keystroke	i	n/a
549.299	0.1205	1098598	keystroke	p	n/a
549.644	0.075	1099288	keystroke	Key.enter	n/a
549.7305	12.92	1099461	prompt	n/a	reveals portions bookmark untitled\n
550.859	0.105	1101718	keystroke	r	n/a
550.994	0.15	1101988	keystroke	e	n/a
551.6385	0.12	1103277	keystroke	v	n/a
552.0435	0.211	1104087	keystroke	e	n/a
552.2095	0.1345	1104419	keystroke	a	n/a
552.4195	0.105	1104839	keystroke	l	n/a
552.554	0.1495	1105108	keystroke	s	n/a
552.7185	0.09	1105437	keystroke	Key.space	n/a
552.974	0.195	1105948	keystroke	p	n/a
553.499	0.075	1106998	keystroke	o	n/a
553.619	0.15	1107238	keystroke	r	n/a
553.874	0.15	1107748	keystroke	t	n/a
553.964	0.165	1107928	keystroke	i	n/a
554.054	0.165	1108108	keystroke	o	n/a
554.234	0.135	1108468	keystroke	n	n/a
554.384	0.165	1108768	keystroke	s	n/a
554.594	0.075	1109188	keystroke	Key.space	n/a
554.8195	0.1195	1109639	keystroke	b	n/a
555.0445	0.06	1110089	keystroke	o	n/a
555.1635	0.121	1110327	keystroke	o	n/a
555.4635	0.106	1110927	keystroke	k	n/a
555.8835	0.1055	1111767	keystroke	m	n/a
556.019	0.2245	1112038	keystroke	a	n/a
556.1995	0.164	1112399	keystroke	r	n/a
556.3785	0.091	1112757	keystroke	k	n/a
556.8285	0.09	1113657	keystroke	Key.space	n/a
557.699	0.12	1115398	keystroke	u	n/a
557.984	0.075	1115968	keystroke	n	n/a
560.4155	0.0015	1120831	keystroke	t	n/a
560.5195	0.119	1121039	keystroke	i	n/a
560.6685	0.1505	1121337	keystroke	t	n/a
560.969	0.06	1121938	keystroke	l	n/a
561.044	0.1355	1122088	keystroke	e	n/a
561.2835	0.09	1122567	keystroke	s	n/a
561.8085	0.12	1123617	keystroke	Key.backspace	n/a
561.9885	0.165	1123977	keystroke	d	n/a
562.559	0.0895	1125118	keystroke	Key.enter	n/a
562.6605	7.5495	1125321	prompt	n/a	pins adding decline carrier\n
563.5785	0.165	1127157	keystroke	p	n/a
563.879	0.195	1127758	keystroke	i	n/a
563.9995	0.1495	1127999	keystroke	n	n/a
564.5545	0.135	1129109	keystroke	s	n/a
564.7495	0.0895	1129499	keystroke	Key.space	n/a
564.9445	0.165	1129889	keystroke	a	n/a
565.2145	0.105	1130429	keystroke	d	n/a
565.3785	0.15	1130757	keystroke	d	n/a
565.5895	0.134	1131179	keystroke	i	n/a
565.634	0.135	1131268	keystroke	n	n/a
565.7385	0.1355	1131477	keystroke	g	n/a
565.919	0.105	1131838	keystroke	Key.space	n/a
566.249	0.12	1132498	keystroke	d	n/a
566.4295	0.119	1132859	keystroke	e	n/a
566.774	0.12	1133548	keystroke	c	n/a
566.954	0.105	1133908	keystroke	l	n/a
567.074	0.15	1134148	keystroke	i	n/a
567.239	0.12	1134478	keystroke	n	n/a
567.374	0.15	1134748	keystroke	e	n/a
567.764	0.0895	1135528	keystroke	Key.space	n/a
568.0485	0.135	1136097	keystroke	c	n/a
568.229	0.1795	1136458	keystroke	a	n/a
568.5285	0.09	1137057	keystroke	r	n/a
568.7085	0.1205	1137417	keystroke	r	n/a
568.9035	0.135	1137807	keystroke	i	n/a
569.054	0.1655	1138108	keystroke	r	n/a
569.564	0.12	1139128	keystroke	Key.backspace	n/a
569.699	0.12	1139398	keystroke	e	n/a
569.774	0.1505	1139548	keystroke	r	n/a
570.1035	0.105	1140207	keystroke	Key.enter	n/a
570.22	14.3605	1140440	prompt	n/a	warned degrees labeled translated\n
571.139	0.1495	1142278	keystroke	w	n/a
571.5735	0.195	1143147	keystroke	a	n/a
571.7235	0.15	1143447	keystroke	r	n/a
571.9035	0.105	1143807	keystroke	n	n/a
571.994	0.1195	1143988	keystroke	e	n/a
572.2185	0.15	1144437	keystroke	d	n/a
572.5185	0.106	1145037	keystroke	Key.space	n/a
573.1195	0.105	1146239	keystroke	d	n/a
573.779	0.105	1147558	keystroke	e	n/a
574.199	0.12	1148398	keystroke	g	n/a
574.604	0.135	1149208	keystroke	r	n/a
574.8885	0.106	1149777	keystroke	e	n/a
575.5195	0.045	1151039	keystroke	e	n/a
576.3295	0.1195	1152659	keystroke	s	n/a
576.614	0.1205	1153228	keystroke	Key.space	n/a
576.8845	0.0895	1153769	keystroke	l	n/a
577.034	0.135	1154068	keystroke	a	n/a
577.5145	0.029	1155029	keystroke	b	n/a
578.8635	0.105	1157727	keystroke	e	n/a
578.9835	0.106	1157967	keystroke	l	n/a
579.104	0.1645	1158208	keystroke	e	n/a
579.5095	0.135	1159019	keystroke	d	n/a
579.7335	0.09	1159467	keystroke	Key.space	n/a
580.5135	0.12	1161027	keystroke	r	n/a
581.0835	0.135	1162167	keystroke	Key.backspace	n/a
581.279	0.1645	1162558	keystroke	t	n/a
582.2235	0.0905	1164447	keystroke	r	n/a
582.4185	0.106	1164837	keystroke	a	n/a
582.5535	0.136	1165107	keystroke	n	n/a
582.674	0.1355	1165348	keystroke	s	n/a
583.0035	0.105	1166007	keystroke	l	n/a
583.1685	0.15	1166337	keystroke	a	n/a
583.7395	0.164	1167479	keystroke	t	n/a
583.9485	0.105	1167897	keystroke	e	n/a
584.1745	0.135	1168349	keystroke	d	n/a
584.4735	0.105	1168947	keystroke	Key.enter	n/a
584.5905	14.225	1169181	prompt	n/a	contractors former advert fully\n
585.4795	0.134	1170959	keystroke	c	n/a
585.764	0.2105	1171528	keystroke	o	n/a
585.869	0.1355	1171738	keystroke	n	n/a
586.454	0.105	1172908	keystroke	t	n/a
586.664	0.105	1173328	keystroke	r	n/a
586.964	0.1205	1173928	keystroke	a	n/a
587.5035	0.135	1175007	keystroke	c	n/a
588.569	0.105	1177138	keystroke	t	n/a
588.6895	0.0895	1177379	keystroke	o	n/a
590.0395	0.1945	1180079	keystroke	r	n/a
590.639	0.0745	1181278	keystroke	s	n/a
590.9385	0.075	1181877	keystroke	Key.space	n/a
591.194	0.12	1182388	keystroke	f	n/a
591.3445	0.1345	1182689	keystroke	o	n/a
591.509	0.165	1183018	keystroke	r	n/a
591.689	0.12	1183378	keystroke	m	n/a
591.839	0.1055	1183678	keystroke	s	n/a
592.484	0.12	1184968	keystroke	Key.backspace	n/a
592.6495	0.164	1185299	keystroke	e	n/a
592.7385	0.136	1185477	keystroke	r	n/a
593.684	0.09	1187368	keystroke	Key.space	n/a
594.044	0.1355	1188088	keystroke	a	n/a
594.509	0.135	1189018	keystroke	d	n/a
596.1145	0.119	1192229	keystroke	v	n/a
596.5035	0.15	1193007	keystroke	e	n/a
596.5935	0.1055	1193187	keystroke	r	n/a
596.774	0.1345	1193548	keystroke	t	n/a
597.0585	0.15	1194117	keystroke	Key.space	n/a
597.5085	0.12	1195017	keystroke	f	n/a
597.6885	0.12	1195377	keystroke	u	n/a
597.9885	0.076	1195977	keystroke	l	n/a
598.1535	0.1505	1196307	keystroke	l	n/a
598.409	0.105	1196818	keystroke	y	n/a
598.694	0.12	1197388	keystroke	Key.enter	n/a
598.827	13.0385	1197654	prompt	n/a	sexuality disposition switch bond\n
599.6545	0.104	1199309	keystroke	s	n/a
599.7895	0.1645	1199579	keystroke	e	n/a
600.179	0.15	1200358	keystroke	c	n/a
601.2135	0.106	1202427	keystroke	Key.backspace	n/a
601.4385	0.136	1202877	keystroke	x	n/a
602.3835	0.12	1204767	keystroke	u	n/a
602.984	0.105	1205968	keystroke	a	n/a
603.224	0.0755	1206448	keystroke	l	n/a
603.539	0.105	1207078	keystroke	i	n/a
603.659	0.1645	1207318	keystroke	t	n/a
603.8685	0.15	1207737	keystroke	y	n/a
604.1245	0.09	1208249	keystroke	Key.space	n/a
604.4545	0.119	1208909	keystroke	d	n/a
604.8585	0.136	1209717	keystroke	i	n/a
605.0535	0.151	1210107	keystroke	s	n/a
605.759	0.12	1211518	keystroke	p	n/a
605.9385	0.121	1211877	keystroke	o	n/a
606.269	0.15	1212538	keystroke	s	n/a
607.2135	0.136	1214427	keystroke	t	n/a
607.3335	0.18	1214667	keystroke	i	n/a
607.4535	0.15	1214907	keystroke	o	n/a
607.6635	0.1355	1215327	keystroke	n	n/a
607.9785	0.105	1215957	keystroke	Key.space	n/a
608.5035	0.09	1217007	keystroke	s	n/a
608.7585	0.1355	1217517	keystroke	w	n/a
608.969	0.1345	1217938	keystroke	i	n/a
609.1495	0.164	1218299	keystroke	t	n/a
609.704	0.12	1219408	keystroke	c	n/a
609.8395	0.1195	1219679	keystroke	h	n/a
610.064	0.105	1220128	keystroke	Key.space	n/a
610.8145	0.1345	1221629	keystroke	b	n/a
611.0235	0.18	1222047	keystroke	o	n/a
611.1585	0.12	1222317	keystroke	n	n/a
611.3235	0.151	1222647	keystroke	d	n/a
611.7435	0.1205	1223487	keystroke	Key.enter	n/a
611.8755	11.51	1223751	prompt	n/a	fare prove viewing how's\n
613.1835	0.1055	1226367	keystroke	f	n/a
613.4395	0.1345	1226879	keystroke	a	n/a
613.589	0.1655	1227178	keystroke	r	n/a
613.694	0.1505	1227388	keystroke	e	n/a
614.174	0.12	1228348	keystroke	Key.space	n/a
614.504	0.135	1229008	keystroke	p	n/a
615.224	0.135	1230448	keystroke	r	n/a
615.449	0.105	1230898	keystroke	o	n/a
616.349	0.1345	1232698	keystroke	v	n/a
616.6035	0.136	1233207	keystroke	e	n/a
617.294	0.105	1234588	keystroke	Key.space	n/a
618.659	0.105	1237318	keystroke	v	n/a
619.859	0.1045	1239718	keystroke	i	n/a
619.9935	0.121	1239987	keystroke	e	n/a
620.3085	0.135	1240617	keystroke	w	n/a
620.5495	0.135	1241099	keystroke	i	n/a
620.6245	0.119	1241249	keystroke	n	n/a
620.7295	0.1495	1241459	keystroke	g	n/a
620.9845	0.0745	1241969	keystroke	Key.space	n/a
621.824	0.1055	1243648	keystroke	h	n/a
621.8985	0.1655	1243797	keystroke	o	n/a
622.0485	0.091	1244097	keystroke	w	n/a
622.6785	0.1055	1245357	keystroke	'	n/a
622.8445	0.1345	1245689	keystroke	s	n/a
623.2935	0.091	1246587	keystroke	Key.enter	n/a
623.3955	8.615	1246791	prompt	n/a	kind trying nitrogen interactive\n
624.164	0.105	1248328	keystroke	k	n/a
624.389	0.165	1248778	keystroke	i	n/a
624.464	0.12	1248928	keystroke	n	n/a
624.569	0.135	1249138	keystroke	d	n/a
624.914	0.06	1249828	keystroke	Key.space	n/a
625.394	0.075	1250788	keystroke	t	n/a
625.604	0.1505	1251208	keystroke	r	n/a
625.7695	0.09	1251539	keystroke	y	n/a
625.9645	0.195	1251929	keystroke	i	n/a
626.0695	0.135	1252139	keystroke	n	n/a
626.1445	0.15	1252289	keystroke	g	n/a
626.3245	0.12	1252649	keystroke	Key.space	n/a
626.6395	0.12	1253279	keystroke	n	n/a
627.3435	0.075	1254687	keystroke	i	n/a
627.794	0.1195	1255588	keystroke	t	n/a
628.019	0.165	1256038	keystroke	r	n/a
628.1385	0.1055	1256277	keystroke	o	n/a
628.514	0.1345	1257028	keystroke	g	n/a
628.7235	0.1505	1257447	keystroke	e	n/a
628.844	0.09	1257688	keystroke	n	n/a
629.2495	0.0895	1258499	keystroke	Key.space	n/a
629.6395	0.1645	1259279	keystroke	i	n/a
629.7135	0.1505	1259427	keystroke	n	n/a
629.924	0.165	1259848	keystroke	t	n/a
630.134	0.1355	1260268	keystroke	e	n/a
630.209	0.135	1260418	keystroke	r	n/a
630.479	0.15	1260958	keystroke	a	n/a
630.764	0.12	1261528	keystroke	c	n/a
631.019	0.165	1262038	keystroke	t	n/a
631.169	0.09	1262338	keystroke	i	n/a
631.3785	0.136	1262757	keystroke	v	n/a
631.4985	0.15	1262997	keystroke	e	n/a
631.9335	0.075	1263867	keystroke	Key.enter	n/a
632.021	8.5245	1264042	prompt	n/a	tell katrina her pontiac\n
632.9545	0.105	1265909	keystroke	t	n/a
633.1045	0.165	1266209	keystroke	e	n/a
633.4795	0.045	1266959	keystroke	l	n/a
633.7045	0.015	1267409	keystroke	l	n/a
633.8095	0.105	1267619	keystroke	Key.space	n/a
634.1545	0.105	1268309	keystroke	k	n/a
634.3345	0.209	1268669	keystroke	a	n/a
634.5585	0.15	1269117	keystroke	t	n/a
635.0545	0.134	1270109	keystroke	r	n/a
635.4595	0.105	1270919	keystroke	i	n/a
635.7295	0.15	1271459	keystroke	n	n/a
635.8645	0.165	1271729	keystroke	a	n/a
636.1495	0.105	1272299	keystroke	Key.space	n/a
636.4345	0.135	1272869	keystroke	h	n/a
636.5245	0.1645	1273049	keystroke	e	n/a
636.629	0.15	1273258	keystroke	r	n/a
636.794	0.09	1273588	keystroke	Key.space	n/a
637.184	0.135	1274368	keystroke	p	n/a
637.334	0.1655	1274668	keystroke	o	n/a
637.589	0.1355	1275178	keystroke	n	n/a
638.1295	0.1345	1276259	keystroke	t	n/a
638.6545	0.0745	1277309	keystroke	i	n/a
638.8945	0.1345	1277789	keystroke	c	n/a
639.4635	0.135	1278927	keystroke	Key.backspace	n/a
639.6445	0.089	1279289	keystroke	a	n/a
639.929	0.1345	1279858	keystroke	c	n/a
640.4535	0.091	1280907	keystroke	Key.enter	n/a
640.5555	11.51	1281111	prompt	n/a	oval web flashers lucky\n
641.5185	0.105	1283037	keystroke	p	n/a
642.4795	0.1045	1284959	keystroke	Key.backspace	n/a
643.919	0.075	1287838	keystroke	o	n/a
644.5495	0.1195	1289099	keystroke	v	n/a
644.699	0.135	1289398	keystroke	a	n/a
644.879	0.09	1289758	keystroke	l	n/a
645.224	0.0755	1290448	keystroke	Key.space	n/a
645.8395	0.06	1291679	keystroke	w	n/a
645.9745	0.15	1291949	keystroke	e	n/a
646.4845	0.135	1292969	keystroke	b	n/a
646.9785	0.1055	1293957	keystroke	Key.space	n/a
648.629	0.0895	1297258	keystroke	f	n/a
648.7485	0.075	1297497	keystroke	l	n/a
648.8985	0.135	1297797	keystroke	a	n/a
649.289	0.12	1298578	keystroke	s	n/a
649.394	0.09	1298788	keystroke	h	n/a
649.5445	0.165	1299089	keystroke	e	n/a
649.634	0.15	1299268	keystroke	r	n/a
649.889	0.12	1299778	keystroke	s	n/a
650.1745	0.12	1300349	keystroke	Key.space	n/a
650.6245	0.105	1301249	keystroke	l	n/a
651.0585	0.135	1302117	keystroke	u	n/a
651.2835	0.136	1302567	keystroke	c	n/a
651.4335	0.105	1302867	keystroke	k	n/a
651.6735	0.121	1303347	keystroke	y	n/a
651.9285	0.1355	1303857	keystroke	Key.enter	n/a
652.07	16.496	1304140	prompt	n/a	rivers disclosure reached stands\n
652.8135	0.12	1305627	keystroke	r	n/a
652.9485	0.09	1305897	keystroke	i	n/a
653.9845	0.0445	1307969	keystroke	b	n/a
654.8235	0.075	1309647	keystroke	Key.backspace	n/a
655.379	0.105	1310758	keystroke	v	n/a
657.179	0.1045	1314358	keystroke	e	n/a
657.239	0.1495	1314478	keystroke	r	n/a
657.554	0.105	1315108	keystroke	s	n/a
657.7635	0.09	1315527	keystroke	Key.space	n/a
658.229	0.12	1316458	keystroke	d	n/a
658.3645	0.1045	1316729	keystroke	i	n/a
658.484	0.075	1316968	keystroke	s	n/a
659.0385	0.1055	1318077	keystroke	c	n/a
659.159	0.1045	1318318	keystroke	l	n/a
660.089	0.075	1320178	keystroke	o	n/a
662.4465	0.042	1324893	keystroke	s	n/a
662.5035	0.1505	1325007	keystroke	u	n/a
662.639	0.15	1325278	keystroke	r	n/a
662.7435	0.1355	1325487	keystroke	e	n/a
662.894	0.0905	1325788	keystroke	e	n/a
663.5095	0.135	1327019	keystroke	Key.backspace	n/a
664.214	0.105	1328428	keystroke	Key.space	n/a
664.754	0.1495	1329508	keystroke	r	n/a
664.9635	0.15	1329927	keystroke	e	n/a
665.1885	0.12	1330377	keystroke	a	n/a
665.4885	0.09	1330977	keystroke	c	n/a
665.58	0.1035	1331160	keystroke	h	n/a
666.284	0.0895	1332568	keystroke	e	n/a
666.4935	0.105	1332987	keystroke	d	n/a
666.674	0.0895	1333348	keystroke	Key.space	n/a
666.9735	0.1355	1333947	keystroke	s	n/a
667.199	0.12	1334398	keystroke	t	n/a
667.364	0.12	1334728	keystroke	a	n/a
667.499	0.105	1334998	keystroke	n	n/a
667.664	0.15	1335328	keystroke	d	n/a
667.979	0.09	1335958	keystroke	s	n/a
668.474	0.09	1336948	keystroke	Key.enter	n/a
668.578	21.7225	1337156	prompt	n/a	round attach recreational preliminary\n
669.599	0.06	1339198	keystroke	r	n/a
669.9435	0.12	1339887	keystroke	o	n/a
670.004	0.12	1340008	keystroke	u	n/a
670.2285	0.1055	1340457	keystroke	n	n/a
670.364	0.12	1340728	keystroke	d	n/a
670.904	0.09	1341808	keystroke	Key.space	n/a
671.2935	0.1055	1342587	keystroke	a	n/a
671.5635	0.06	1343127	keystroke	r	n/a
672.0595	0.12	1344119	keystroke	Key.backspace	n/a
672.5845	0.075	1345169	keystroke	t	n/a
672.7195	0.1195	1345439	keystroke	t	n/a
673.0785	0.1205	1346157	keystroke	a	n/a
673.274	0.165	1346548	keystroke	c	n/a
673.424	0.1205	1346848	keystroke	j	n/a
673.709	0.06	1347418	keystroke	Key.space	n/a
676.096	0.088	1352192	keystroke	r	n/a
676.169	0.135	1352338	keystroke	e	n/a
679.202	0.057	1358404	keystroke	c	n/a
679.5595	0.15	1359119	keystroke	r	n/a
679.6495	0.135	1359299	keystroke	e	n/a
679.8895	0.12	1359779	keystroke	a	n/a
680.294	0.12	1360588	keystroke	t	n/a
680.3695	0.149	1360739	keystroke	i	n/a
680.429	0.2105	1360858	keystroke	o	n/a
680.6235	0.1205	1361247	keystroke	n	n/a
681.2995	0.1045	1362599	keystroke	a	n/a
681.389	0.105	1362778	keystroke	l	n/a
681.524	0.1195	1363048	keystroke	Key.space	n/a
681.7935	0.151	1363587	keystroke	p	n/a
683.459	0.1955	1366918	keystroke	r	n/a
683.579	0.1355	1367158	keystroke	e	n/a
683.9395	0.135	1367879	keystroke	;	n/a
684.0895	0.135	1368179	keystroke	o	n/a
685.094	0.075	1370188	keystroke	Key.backspace	n/a
685.244	0.135	1370488	keystroke	Key.backspace	n/a
685.6195	0.03	1371239	keystroke	Key.backspace	n/a
686.4895	0.09	1372979	keystroke	e	n/a
686.954	0.1055	1373908	keystroke	l	n/a
687.3745	0.09	1374749	keystroke	i	n/a
688.8145	0.1195	1377629	keystroke	m	n/a
689.099	0.135	1378198	keystroke	i	n/a
689.1595	0.1645	1378319	keystroke	n	n/a
689.4295	0.209	1378859	keystroke	a	n/a
689.6535	0.1505	1379307	keystroke	r	n/a
689.834	0.135	1379668	keystroke	y	n/a
690.1795	0.119	1380359	keystroke	Key.enter	n/a
690.3105	9.98	1380621	prompt	n/a	brokers range feof messenger\n
692.0095	0.104	1384019	keystroke	b	n/a
692.4295	0.1045	1384859	keystroke	r	n/a
692.549	0.09	1385098	keystroke	o	n/a
692.939	0.075	1385878	keystroke	k	n/a
693.119	0.15	1386238	keystroke	e	n/a
693.224	0.1355	1386448	keystroke	r	n/a
693.9295	0.1195	1387859	keystroke	s	n/a
694.124	0.105	1388248	keystroke	Key.space	n/a
694.544	0.105	1389088	keystroke	r	n/a
694.65	0.134	1389300	keystroke	a	n/a
694.8145	0.1195	1389629	keystroke	n	n/a
695.039	0.105	1390078	keystroke	g	n/a
695.174	0.1505	1390348	keystroke	e	n/a
695.6095	0.075	1391219	keystroke	Key.space	n/a
696.419	0.12	1392838	keystroke	f	n/a
697.0945	0.1045	1394189	keystroke	e	n/a
697.214	0.105	1394428	keystroke	o	n/a
697.349	0.165	1394698	keystroke	f	n/a
697.664	0.09	1395328	keystroke	Key.space	n/a
697.9495	0.1345	1395899	keystroke	m	n/a
698.054	0.15	1396108	keystroke	e	n/a
698.399	0.09	1396798	keystroke	s	n/a
698.549	0.105	1397098	keystroke	s	n/a
698.774	0.165	1397548	keystroke	e	n/a
698.924	0.1355	1397848	keystroke	n	n/a
699.269	0.105	1398538	keystroke	g	n/a
699.464	0.18	1398928	keystroke	e	n/a
699.554	0.18	1399108	keystroke	r	n/a
700.274	0.0155	1400548	keystroke	Key.enter	n/a
700.3005	14.21	1400601	prompt	n/a	firewall sciences adsl wondering\n
701.3095	0.1045	1402619	keystroke	f	n/a
701.429	0.105	1402858	keystroke	i	n/a
701.7145	0.179	1403429	keystroke	r	n/a
701.8345	0.164	1403669	keystroke	e	n/a
702.2235	0.12	1404447	keystroke	w	n/a
702.6745	0.165	1405349	keystroke	a	n/a
703.1685	0.06	1406337	keystroke	l	n/a
703.2885	0.09	1406577	keystroke	l	n/a
703.499	0.09	1406998	keystroke	Key.space	n/a
703.8445	0.165	1407689	keystroke	s	n/a
704.3845	0.1645	1408769	keystroke	c	n/a
704.5345	0.105	1409069	keystroke	i	n/a
704.8495	0.15	1409699	keystroke	e	n/a
705.014	0.12	1410028	keystroke	n	n/a
705.584	0.135	1411168	keystroke	c	n/a
705.809	0.165	1411618	keystroke	e	n/a
707.0395	0.09	1414079	keystroke	Key.space	n/a
707.8645	0.1195	1415729	keystroke	a	n/a
708.044	0.135	1416088	keystroke	d	n/a
708.3745	0.1355	1416749	keystroke	e	n/a
708.584	0.1055	1417168	keystroke	l	n/a
709.3045	0.075	1418609	keystroke	Key.backspace	n/a
709.4845	0.165	1418969	keystroke	Key.backspace	n/a
709.8445	0.165	1419689	keystroke	s	n/a
710.0245	0.135	1420049	keystroke	l	n/a
710.5035	0.045	1421007	keystroke	Key.space	n/a
710.8345	0.15	1421669	keystroke	e	n/a
711.4645	0.1645	1422929	keystroke	o	n/a
711.974	0.09	1423948	keystroke	Key.backspace	n/a
712.124	0.1055	1424248	keystroke	Key.backspace	n/a
712.7845	0.12	1425569	keystroke	w	n/a
713.0095	0.15	1426019	keystroke	o	n/a
713.0845	0.135	1426169	keystroke	n	n/a
713.4895	0.09	1426979	keystroke	d	n/a
713.6845	0.15	1427369	keystroke	e	n/a
713.7745	0.12	1427549	keystroke	r	n/a
713.9545	0.135	1427909	keystroke	i	n/a
714.0145	0.12	1428029	keystroke	n	n/a
714.045	0.1495	1428090	keystroke	g	n/a
714.4035	0.105	1428807	keystroke	Key.enter	n/a
714.521	12.4845	1429042	prompt	n/a	toolbar folks theoretical errors\n
716.0095	0.09	1432019	keystroke	t	n/a
716.31	0.0595	1432620	keystroke	o	n/a
716.4445	0.075	1432889	keystroke	o	n/a
716.67	0.0895	1433340	keystroke	l	n/a
717.0145	0.12	1434029	keystroke	v	n/a
717.2395	0.21	1434479	keystroke	a	n/a
717.3895	0.135	1434779	keystroke	r	n/a
718.1985	0.106	1436397	keystroke	Key.space	n/a
718.7695	0.164	1437539	keystroke	f	n/a
719.1145	0.1645	1438229	keystroke	p	n/a
719.234	0.165	1438468	keystroke	o	n/a
719.5345	0.12	1439069	keystroke	l	n/a
719.9245	0.09	1439849	keystroke	k	n/a
720.09	0.1195	1440180	keystroke	s	n/a
720.6145	0.105	1441229	keystroke	Key.space	n/a
721.2145	0.135	1442429	keystroke	t	n/a
721.3195	0.12	1442639	keystroke	h	n/a
721.4845	0.135	1442969	keystroke	e	n/a
722.7745	0.075	1445549	keystroke	o	n/a
723.1945	0.135	1446389	keystroke	r	n/a
723.944	0.15	1447888	keystroke	t	n/a
724.364	0.1055	1448728	keystroke	i	n/a
724.664	0.12	1449328	keystroke	c	n/a
724.7695	0.1195	1449539	keystroke	a	n/a
724.844	0.105	1449688	keystroke	l	n/a
725.084	0.12	1450168	keystroke	Key.space	n/a
725.5195	0.149	1451039	keystroke	e	n/a
725.7895	0.09	1451579	keystroke	r	n/a
725.9535	0.151	1451907	keystroke	r	n/a
726.1345	0.119	1452269	keystroke	o	n/a
726.284	0.1655	1452568	keystroke	r	n/a
726.7195	0.105	1453439	keystroke	s	n/a
726.9295	0.075	1453859	keystroke	Key.enter	n/a
727.0095	15.416	1454019	prompt	n/a	naturals mention acknowledged adjustable\n
727.904	0.105	1455808	keystroke	n	n/a
728.129	0.12	1456258	keystroke	a	n/a
728.624	0.12	1457248	keystroke	t	n/a
728.7895	0.12	1457579	keystroke	u	n/a
729.119	0.136	1458238	keystroke	r	n/a
730.6795	0.045	1461359	keystroke	a	n/a
730.7845	0.105	1461569	keystroke	l	n/a
730.9495	0.135	1461899	keystroke	s	n/a
731.1295	0.105	1462259	keystroke	Key.space	n/a
731.3845	0.105	1462769	keystroke	m	n/a
731.49	0.1495	1462980	keystroke	e	n/a
731.6095	0.12	1463219	keystroke	n	n/a
731.7445	0.15	1463489	keystroke	t	n/a
731.8645	0.24	1463729	keystroke	i	n/a
731.9845	0.21	1463969	keystroke	o	n/a
732.1795	0.135	1464359	keystroke	n	n/a
732.4345	0.09	1464869	keystroke	Key.space	n/a
732.644	0.135	1465288	keystroke	a	n/a
732.929	0.12	1465858	keystroke	c	n/a
733.079	0.1055	1466158	keystroke	k	n/a
733.7245	0.12	1467449	keystroke	n	n/a
733.859	0.165	1467718	keystroke	o	n/a
734.084	0.135	1468168	keystroke	w	n/a
734.339	0.105	1468678	keystroke	l	n/a
734.549	0.135	1469098	keystroke	i	n/a
735.044	0.1955	1470088	keystroke	e	n/a
735.8245	0.105	1471649	keystroke	d	n/a
736.484	0.1205	1472968	keystroke	g	n/a
736.7095	0.12	1473419	keystroke	e	n/a
736.919	0.135	1473838	keystroke	d	n/a
737.1895	0.09	1474379	keystroke	Key.space	n/a
738.2845	0.135	1476569	keystroke	a	n/a
738.8395	0.15	1477679	keystroke	d	n/a
739.9795	0.06	1479959	keystroke	j	n/a
740.1445	0.09	1480289	keystroke	u	n/a
740.2645	0.15	1480529	keystroke	s	n/a
740.5495	0.105	1481099	keystroke	t	n/a
740.9095	0.12	1481819	keystroke	a	n/a
741.2545	0.09	1482509	keystroke	b	n/a
741.359	0.09	1482718	keystroke	l	n/a
741.479	0.12	1482958	keystroke	e	n/a
742.319	0.105	1484638	keystroke	Key.enter	n/a
742.436	13.1295	1484872	prompt	n/a	ugly ministry cover academics\n
743.2495	0.135	1486499	keystroke	u	n/a
743.5795	0.135	1487159	keystroke	g	n/a
743.8345	0.15	1487669	keystroke	l	n/a
744.0445	0.135	1488089	keystroke	y	n/a
744.2395	0.1045	1488479	keystroke	Key.space	n/a
744.825	0.1195	1489650	keystroke	m	n/a
745.0495	0.195	1490099	keystroke	i	n/a
745.1545	0.135	1490309	keystroke	n	n/a
745.469	0.135	1490938	keystroke	s	n/a
746.5195	0.105	1493039	keystroke	Key.backspace	n/a
746.8195	0.135	1493639	keystroke	i	n/a
746.9845	0.12	1493969	keystroke	s	n/a
747.6295	0.15	1495259	keystroke	t	n/a
749.234	0.1355	1498468	keystroke	r	n/a
749.354	0.165	1498708	keystroke	y	n/a
749.6835	0.106	1499367	keystroke	Key.space	n/a
750.254	0.1205	1500508	keystroke	c	n/a
750.3895	0.1505	1500779	keystroke	o	n/a
750.4795	0.165	1500959	keystroke	n	n/a
750.7945	0.03	1501589	keystroke	v	n/a
751.394	0.105	1502788	keystroke	Key.backspace	n/a
751.589	0.15	1503178	keystroke	Key.backspace	n/a
751.8595	0.1195	1503719	keystroke	v	n/a
752.054	0.18	1504108	keystroke	e	n/a
752.159	0.15	1504318	keystroke	r	n/a
752.354	0.09	1504708	keystroke	Key.space	n/a
752.775	0.1345	1505550	keystroke	a	n/a
753.284	0.1055	1506568	keystroke	c	n/a
753.8245	0.12	1507649	keystroke	a	n/a
754.3795	0.09	1508759	keystroke	d	n/a
754.5445	0.12	1509089	keystroke	e	n/a
754.6345	0.12	1509269	keystroke	m	n/a
754.874	0.105	1509748	keystroke	i	n/a
755.039	0.135	1510078	keystroke	c	n/a
755.279	0.12	1510558	keystroke	s	n/a
755.504	0.0605	1511008	keystroke	Key.enter	n/a
755.569	16.7965	1511138	prompt	n/a	enhanced builds edinburgh partners\n
756.614	0.135	1513228	keystroke	e	n/a
756.734	0.1055	1513468	keystroke	n	n/a
757.1395	0.075	1514279	keystroke	h	n/a
757.364	0.1505	1514728	keystroke	a	n/a
757.5595	0.1345	1515119	keystroke	n	n/a
757.8145	0.1205	1515629	keystroke	v	n/a
758.744	0.105	1517488	keystroke	Key.backspace	n/a
758.8945	0.1345	1517789	keystroke	c	n/a
760.214	0.105	1520428	keystroke	e	n/a
760.439	0.12	1520878	keystroke	d	n/a
760.634	0.12	1521268	keystroke	Key.space	n/a
761.069	0.12	1522138	keystroke	b	n/a
761.1595	0.1495	1522319	keystroke	u	n/a
761.264	0.195	1522528	keystroke	i	n/a
761.5795	0.105	1523159	keystroke	d	n/a
762.2095	0.0295	1524419	keystroke	]	n/a
762.224	0.09	1524448	keystroke	Key.backspace	n/a
762.494	0.1055	1524988	keystroke	l	n/a
762.8995	0.0595	1525799	keystroke	Key.backspace	n/a
763.019	0.0755	1526038	keystroke	Key.backspace	n/a
763.3945	0.105	1526789	keystroke	l	n/a
763.5445	0.09	1527089	keystroke	d	n/a
763.9945	0.06	1527989	keystroke	s	n/a
764.294	0.075	1528588	keystroke	Key.space	n/a
764.8495	0.06	1529699	keystroke	e	n/a
764.9395	0.1495	1529879	keystroke	n	n/a
765.389	0.2105	1530778	keystroke	i	n/a
765.494	0.135	1530988	keystroke	n	n/a
766.0645	0.1495	1532129	keystroke	b	n/a
766.499	0.15	1532998	keystroke	u	n/a
766.7395	0.135	1533479	keystroke	r	n/a
767.0545	0.135	1534109	keystroke	g	n/a
767.1295	0.135	1534259	keystroke	h	n/a
767.4295	0.09	1534859	keystroke	Key.space	n/a
767.8195	0.135	1535639	keystroke	p	n/a
767.9695	0.225	1535939	keystroke	a	n/a
768.1195	0.12	1536239	keystroke	r	n/a
768.2845	0.195	1536569	keystroke	t	n/a
769.1835	0.136	1538367	keystroke	n	n/a
769.2885	0.136	1538577	keystroke	e	n/a
769.6935	0.12	1539387	keystroke	e	n/a
769.7985	0.226	1539597	keystroke	r	n/a
770.3535	0.24	1540707	keystroke	Key.backspace	n/a
770.8335	0.09	1541667	keystroke	Key.backspace	n/a
771.7045	0.105	1543409	keystroke	r	n/a
771.9145	0.1195	1543829	keystroke	s	n/a
772.259	0.1055	1544518	keystroke	Key.enter	n/a
772.376	9.9495	1544752	prompt	n/a	admin breathing commissions workplace\n
773.159	0.136	1546318	keystroke	a	n/a
773.429	0.12	1546858	keystroke	d	n/a
773.819	0.091	1547638	keystroke	m	n/a
774.014	0.1505	1548028	keystroke	i	n/a
774.0745	0.135	1548149	keystroke	n	n/a
774.3445	0.09	1548689	keystroke	Key.space	n/a
775.0635	0.091	1550127	keystroke	b	n/a
775.3945	0.1645	1550789	keystroke	r	n/a
775.499	0.09	1550998	keystroke	e	n/a
775.574	0.2405	1551148	keystroke	a	n/a
775.7385	0.135	1551477	keystroke	t	n/a
775.8445	0.104	1551689	keystroke	h	n/a
776.0095	0.195	1552019	keystroke	i	n/a
776.099	0.1355	1552198	keystroke	n	n/a
776.2195	0.12	1552439	keystroke	g	n/a
776.3985	0.105	1552797	keystroke	Key.space	n/a
776.7445	0.105	1553489	keystroke	c	n/a
776.9245	0.18	1553849	keystroke	o	n/a
777.2995	0.09	1554599	keystroke	m	n/a
777.4495	0.105	1554899	keystroke	m	n/a
777.6595	0.164	1555319	keystroke	i	n/a
777.8095	0.15	1555619	keystroke	s	n/a
778.379	0.0455	1556758	keystroke	s	n/a
778.5595	0.225	1557119	keystroke	i	n/a
778.6795	0.165	1557359	keystroke	o	n/a
778.8595	0.135	1557719	keystroke	n	n/a
779.0395	0.12	1558079	keystroke	s	n/a
779.2945	0.06	1558589	keystroke	Key.space	n/a
779.5195	0.15	1559039	keystroke	w	n/a
779.6695	0.165	1559339	keystroke	o	n/a
779.8795	0.1195	1559759	keystroke	r	n/a
780.059	0.18	1560118	keystroke	k	n/a
780.614	0.0455	1561228	keystroke	p	n/a
780.734	0.12	1561468	keystroke	l	n/a
780.869	0.15	1561738	keystroke	a	n/a
781.229	0.1355	1562458	keystroke	c	n/a
781.484	0.135	1562968	keystroke	e	n/a
782.1895	0.135	1564379	keystroke	Key.enter	n/a
782.3285	13.167	1564657	prompt	n/a	scottish disputes wishing pipes\n
784.1095	0.135	1568219	keystroke	s	n/a
784.3945	0.135	1568789	keystroke	c	n/a
785.144	0.12	1570288	keystroke	o	n/a
785.804	0.09	1571608	keystroke	t	n/a
785.9395	0.1195	1571879	keystroke	t	n/a
786.224	0.12	1572448	keystroke	i	n/a
786.434	0.1355	1572868	keystroke	s	n/a
786.5545	0.135	1573109	keystroke	h	n/a
786.8095	0.089	1573619	keystroke	Key.space	n/a
787.2145	0.135	1574429	keystroke	d	n/a
787.3945	0.1495	1574789	keystroke	i	n/a
787.559	0.12	1575118	keystroke	s	n/a
788.0545	0.225	1576109	keystroke	p	n/a
788.3545	0.15	1576709	keystroke	u	n/a
788.5495	0.12	1577099	keystroke	t	n/a
788.7895	0.105	1577579	keystroke	e	n/a
788.9995	0.12	1577999	keystroke	s	n/a
789.1945	0.1045	1578389	keystroke	Key.space	n/a
789.524	0.15	1579048	keystroke	w	n/a
789.644	0.135	1579288	keystroke	i	n/a
789.8545	0.165	1579709	keystroke	s	n/a
789.9745	0.075	1579949	keystroke	h	n/a
790.1095	0.1795	1580219	keystroke	i	n/a
790.2145	0.1195	1580429	keystroke	n	n/a
790.319	0.15	1580638	keystroke	g	n/a
790.514	0.135	1581028	keystroke	Key.space	n/a
790.799	0.1805	1581598	keystroke	p	n/a
790.9945	0.179	1581989	keystroke	o	n/a
791.1885	0.151	1582377	keystroke	p	n/a
792.7945	0.0895	1585589	keystroke	Key.backspace	n/a
792.959	0.09	1585918	keystroke	Key.backspace	n/a
794.5045	0.135	1589009	keystroke	i	n/a
794.6545	0.135	1589309	keystroke	p	n/a
794.849	0.1655	1589698	keystroke	e	n/a
795.0745	0.1645	1590149	keystroke	s	n/a
795.4045	0.0895	1590809	keystroke	Key.enter	n/a
795.506	8.3445	1591012	prompt	n/a	friends trio acting innovation\n
796.724	0.015	1593448	keystroke	f	n/a
796.859	0.0905	1593718	keystroke	r	n/a
797.114	0.105	1594228	keystroke	i	n/a
797.249	0.105	1594498	keystroke	e	n/a
797.4585	0.1205	1594917	keystroke	n	n/a
797.789	0.12	1595578	keystroke	d	n/a
797.984	0.1205	1595968	keystroke	s	n/a
798.2245	0.105	1596449	keystroke	Key.space	n/a
798.4945	0.105	1596989	keystroke	t	n/a
798.7195	0.1195	1597439	keystroke	r	n/a
798.869	0.135	1597738	keystroke	i	n/a
799.0195	0.15	1598039	keystroke	o	n/a
799.2895	0.105	1598579	keystroke	Key.space	n/a
799.4695	0.135	1598939	keystroke	a	n/a
799.71	0.1195	1599420	keystroke	c	n/a
799.9645	0.1495	1599929	keystroke	t	n/a
800.099	0.1205	1600198	keystroke	i	n/a
800.174	0.1055	1600348	keystroke	n	n/a
800.2945	0.12	1600589	keystroke	g	n/a
800.5495	0.12	1601099	keystroke	Key.space	n/a
801.209	0.24	1602418	keystroke	i	n/a
801.3595	0.165	1602719	keystroke	n	n/a
801.6595	0.135	1603319	keystroke	n	n/a
802.079	0.105	1604158	keystroke	o	n/a
802.6045	0.165	1605209	keystroke	v	n/a
802.7995	0.165	1605599	keystroke	a	n/a
803.0245	0.1345	1606049	keystroke	t	n/a
803.099	0.165	1606198	keystroke	i	n/a
803.189	0.1505	1606378	keystroke	o	n/a
803.3545	0.1045	1606709	keystroke	n	n/a
803.759	0.09	1607518	keystroke	Key.enter	n/a
803.853	16.5885	1607706	prompt	n/a	drove antarctica zdnet hans\n
804.6895	0.15	1609379	keystroke	d	n/a
804.8995	0.135	1609799	keystroke	r	n/a
805.0945	0.09	1610189	keystroke	o	n/a
805.4095	0.1045	1610819	keystroke	v	n/a
805.574	0.1655	1611148	keystroke	e	n/a
805.844	0.12	1611688	keystroke	Key.space	n/a
806.279	0.105	1612558	keystroke	a	n/a
806.474	0.1505	1612948	keystroke	n	n/a
807.9745	0.105	1615949	keystroke	t	n/a
808.964	0.21	1617928	keystroke	a	n/a
809.219	0.195	1618438	keystroke	r	n/a
811.889	0.15	1623778	keystroke	c	n/a
812.744	0.1355	1625488	keystroke	t	n/a
812.9095	0.1055	1625819	keystroke	i	n/a
813.5995	0.1945	1627199	keystroke	c	n/a
813.749	0.15	1627498	keystroke	a	n/a
814.139	0.15	1628278	keystroke	Key.space	n/a
814.8745	0.18	1629749	keystroke	z	n/a
815.1745	0.135	1630349	keystroke	a	n/a
815.864	0.09	1631728	keystroke	n	n/a
815.97	0.21	1631940	keystroke	e	n/a
816.164	0.1655	1632328	keystroke	t	n/a
816.6595	0.09	1633319	keystroke	Key.backspace	n/a
816.8095	0.09	1633619	keystroke	Key.backspace	n/a
816.9745	0.06	1633949	keystroke	Key.backspace	n/a
817.1095	0.12	1634219	keystroke	Key.backspace	n/a
817.3795	0.135	1634759	keystroke	d	n/a
817.8895	0.1195	1635779	keystroke	n	n/a
817.994	0.21	1635988	keystroke	e	n/a
818.189	0.18	1636378	keystroke	t	n/a
818.5195	0.12	1637039	keystroke	Key.space	n/a
819.03	0.149	1638060	keystroke	h	n/a
819.269	0.1505	1638538	keystroke	a	n/a
819.4045	0.105	1638809	keystroke	n	n/a
820.0045	0.0905	1640009	keystroke	s	n/a
820.3645	0.075	1640729	keystroke	Key.enter	n/a
820.4525	11.253	1640905	prompt	n/a	finnish fitting discussing donate\n
821.489	0.1505	1642978	keystroke	f	n/a
821.6695	0.135	1643339	keystroke	i	n/a
821.954	0.0755	1643908	keystroke	n	n/a
822.0745	0.105	1644149	keystroke	n	n/a
822.2545	0.15	1644509	keystroke	i	n/a
822.4195	0.12	1644839	keystroke	s	n/a
822.5245	0.135	1645049	keystroke	h	n/a
822.7195	0.075	1645439	keystroke	Key.space	n/a
823.079	0.1505	1646158	keystroke	f	n/a
823.2745	0.12	1646549	keystroke	i	n/a
823.6495	0.075	1647299	keystroke	t	n/a
823.784	0.0905	1647568	keystroke	t	n/a
824.009	0.225	1648018	keystroke	n	n/a
824.189	0.03	1648378	keystroke	g	n/a
824.685	0.089	1649370	keystroke	Key.backspace	n/a
825.21	0.089	1650420	keystroke	Key.backspace	n/a
826.2745	0.12	1652549	keystroke	n	n/a
826.4245	0.165	1652849	keystroke	g	n/a
826.7395	0.1495	1653479	keystroke	Key.space	n/a
827.3095	0.1205	1654619	keystroke	d	n/a
827.4745	0.09	1654949	keystroke	i	n/a
827.6245	0.045	1655249	keystroke	s	n/a
828.734	0.12	1657468	keystroke	c	n/a
828.899	0.121	1657798	keystroke	u	n/a
829.3045	0.09	1658609	keystroke	s	n/a
829.4845	0.105	1658969	keystroke	s	n/a
829.6195	0.165	1659239	keystroke	i	n/a
829.6945	0.135	1659389	keystroke	n	n/a
829.7995	0.135	1659599	keystroke	g	n/a
829.979	0.1355	1659958	keystroke	Key.space	n/a
830.3245	0.15	1660649	keystroke	d	n/a
830.5045	0.12	1661009	keystroke	o	n/a
831.0145	0.0595	1662029	keystroke	n	n/a
831.059	0.03	1662118	keystroke	a	n/a
831.104	0.15	1662208	keystroke	t	n/a
831.255	0.164	1662510	keystroke	e	n/a
831.599	0.105	1663198	keystroke	Key.enter	n/a
831.708	12.523	1663416	prompt	n/a	argued pope embedded promotional\n
832.439	0.12	1664878	keystroke	a	n/a
833.009	0.121	1666018	keystroke	r	n/a
834.0895	0.1205	1668179	keystroke	g	n/a
834.224	0.1355	1668448	keystroke	u	n/a
834.33	0.1345	1668660	keystroke	e	n/a
834.5695	0.135	1669139	keystroke	d	n/a
834.705	0.059	1669410	keystroke	Key.space	n/a
835.0195	0.1795	1670039	keystroke	p	n/a
835.169	0.1805	1670338	keystroke	o	n/a
835.424	0.165	1670848	keystroke	p	n/a
835.8	0.104	1671600	keystroke	e	n/a
836.039	0.136	1672078	keystroke	d	n/a
836.189	0.1205	1672378	keystroke	Key.space	n/a
836.444	0.135	1672888	keystroke	e	n/a
836.744	0.075	1673488	keystroke	m	n/a
839.2215	0.043	1678443	keystroke	b	n/a
839.4145	0.1805	1678829	keystroke	e	n/a
839.8645	0.1055	1679729	keystroke	d	n/a
839.999	0.1355	1679998	keystroke	d	n/a
840.6895	0.09	1681379	keystroke	e	n/a
840.8995	0.135	1681799	keystroke	d	n/a
841.1545	0.045	1682309	keystroke	Key.space	n/a
841.7395	0.12	1683479	keystroke	p	n/a
841.9195	0.15	1683839	keystroke	r	n/a
842.0545	0.165	1684109	keystroke	o	n/a
842.4295	0.12	1684859	keystroke	m	n/a
842.6695	0.2245	1685339	keystroke	i	n/a
842.834	0.15	1685668	keystroke	t	n/a
843.1045	0.24	1686209	keystroke	o	n/a
843.3145	0.165	1686629	keystroke	n	n/a
843.5695	0.15	1687139	keystroke	a	n/a
843.7045	0.135	1687409	keystroke	l	n/a
844.1095	0.12	1688219	keystroke	Key.enter	n/a
844.2335	10.2425	1688467	prompt	n/a	bookmarks lord meets inspections\n
844.9795	0.15	1689959	keystroke	b	n/a
845.4295	0.0895	1690859	keystroke	o	n/a
845.579	0.12	1691158	keystroke	o	n/a
845.819	0.12	1691638	keystroke	k	n/a
846.7795	0.1345	1693559	keystroke	m	n/a
846.929	0.15	1693858	keystroke	a	n/a
847.019	0.15	1694038	keystroke	r	n/a
847.1845	0.1505	1694369	keystroke	k	n/a
847.3495	0.105	1694699	keystroke	s	n/a
847.6645	0.09	1695329	keystroke	Key.space	n/a
848.729	0.075	1697458	keystroke	l	n/a
848.9395	0.09	1697879	keystroke	o	n/a
849.495	0.119	1698990	keystroke	r	n/a
849.839	0.106	1699678	keystroke	d	n/a
850.0495	0.105	1700099	keystroke	Key.space	n/a
850.2895	0.12	1700579	keystroke	m	n/a
850.424	0.105	1700848	keystroke	e	n/a
850.6195	0.12	1701239	keystroke	e	n/a
850.874	0.1205	1701748	keystroke	t	n/a
851.145	0.1495	1702290	keystroke	s	n/a
851.6095	0.09	1703219	keystroke	Key.space	n/a
851.895	0.149	1703790	keystroke	i	n/a
851.969	0.12	1703938	keystroke	n	n/a
852.524	0.121	1705048	keystroke	s	n/a
852.705	0.135	1705410	keystroke	p	n/a
852.945	0.119	1705890	keystroke	e	n/a
853.23	0.119	1706460	keystroke	c	n/a
853.544	0.15	1707088	keystroke	t	n/a
853.619	0.18	1707238	keystroke	i	n/a
853.709	0.181	1707418	keystroke	o	n/a
853.8745	0.1505	1707749	keystroke	n	n/a
854.054	0.135	1708108	keystroke	s	n/a
854.354	0.12	1708708	keystroke	Key.enter	n/a
854.481	11.41	1708962	prompt	n/a	porter donna warning jefferson\n
855.254	0.075	1710508	keystroke	p	n/a
855.5095	0.15	1711019	keystroke	o	n/a
857.2045	0.195	1714409	keystroke	r	n/a
857.4145	0.0745	1714829	keystroke	t	n/a
857.744	0.151	1715488	keystroke	e	n/a
857.819	0.165	1715638	keystroke	r	n/a
858.165	0.105	1716330	keystroke	Key.space	n/a
858.36	0.18	1716720	keystroke	d	n/a
858.585	0.1495	1717170	keystroke	o	n/a
858.915	0.0745	1717830	keystroke	n	n/a
859.05	0.12	1718100	keystroke	n	n/a
859.275	0.15	1718550	keystroke	a	n/a
859.47	0.134	1718940	keystroke	Key.space	n/a
860.0245	0.135	1720049	keystroke	w	n/a
860.2345	0.2095	1720469	keystroke	a	n/a
860.429	0.165	1720858	keystroke	r	n/a
860.684	0.211	1721368	keystroke	n	n/a
861.255	0.15	1722510	keystroke	i	n/a
861.344	0.15	1722688	keystroke	n	n/a
861.42	0.165	1722840	keystroke	g	n/a
861.69	0.1195	1723380	keystroke	Key.space	n/a
862.0945	0.12	1724189	keystroke	j	n/a
862.365	0.1195	1724730	keystroke	e	n/a
862.8	0.135	1725600	keystroke	r	n/a
863.534	0.12	1727068	keystroke	Key.backspace	n/a
864.2095	0.09	1728419	keystroke	f	n/a
864.375	0.105	1728750	keystroke	f	n/a
864.539	0.195	1729078	keystroke	e	n/a
864.6445	0.1645	1729289	keystroke	r	n/a
865.065	0.1795	1730130	keystroke	s	n/a
865.1845	0.225	1730369	keystroke	o	n/a
865.3945	0.15	1730789	keystroke	n	n/a
865.784	0.105	1731568	keystroke	Key.enter	n/a
865.8935	12.493	1731787	prompt	n/a	disputes happen budapest tapes\n
866.7	0.134	1733400	keystroke	d	n/a
867.015	0.1195	1734030	keystroke	i	n/a
867.1645	0.135	1734329	keystroke	s	n/a
867.5545	0.165	1735109	keystroke	p	n/a
867.7045	0.1355	1735409	keystroke	u	n/a
867.8845	0.12	1735769	keystroke	t	n/a
868.0645	0.12	1736129	keystroke	e	n/a
868.2445	0.12	1736489	keystroke	s	n/a
868.365	0.1495	1736730	keystroke	Key.space	n/a
868.7095	0.09	1737419	keystroke	j	n/a
868.7245	0.045	1737449	keystroke	h	n/a
869.519	0.106	1739038	keystroke	a	n/a
869.789	0.076	1739578	keystroke	p	n/a
869.925	0.135	1739850	keystroke	p	n/a
870.104	0.151	1740208	keystroke	e	n/a
870.2695	0.1205	1740539	keystroke	n	n/a
870.554	0.076	1741108	keystroke	Key.space	n/a
871.26	0.12	1742520	keystroke	d	n/a
871.395	0.135	1742790	keystroke	u	n/a
871.68	0.135	1743360	keystroke	b	n/a
872.2345	0.135	1744469	keystroke	Key.backspace	n/a
872.7745	0.075	1745549	keystroke	Key.backspace	n/a
872.9095	0.12	1745819	keystroke	Key.backspace	n/a
873.2245	0.15	1746449	keystroke	b	n/a
873.4195	0.165	1746839	keystroke	u	n/a
873.69	0.195	1747380	keystroke	d	n/a
874.394	0.151	1748788	keystroke	a	n/a
874.8	0.1045	1749600	keystroke	p	n/a
875.2045	0.1345	1750409	keystroke	e	n/a
875.399	0.18	1750798	keystroke	s	n/a
875.534	0.135	1751068	keystroke	t	n/a
875.744	0.1205	1751488	keystroke	Key.space	n/a
877.275	0.104	1754550	keystroke	t	n/a
877.394	0.1205	1754788	keystroke	a	n/a
877.544	0.1355	1755088	keystroke	p	n/a
877.6945	0.135	1755389	keystroke	e	n/a
878.0395	0.09	1756079	keystroke	s	n/a
878.2795	0.105	1756559	keystroke	Key.enter	n/a
878.389	15.882	1756778	prompt	n/a	conspiracy fiscal strategy based\n
879.3145	0.12	1758629	keystroke	c	n/a
879.39	0.1645	1758780	keystroke	o	n/a
879.63	0.1045	1759260	keystroke	n	n/a
879.9445	0.165	1759889	keystroke	s	n/a
880.3795	0.165	1760759	keystroke	p	n/a
881.309	0.105	1762618	keystroke	i	n/a
883.9055	0.074	1767811	keystroke	r	n/a
884.1445	0.165	1768289	keystroke	a	n/a
884.4145	0.135	1768829	keystroke	c	n/a
884.5045	0.165	1769009	keystroke	y	n/a
884.8345	0.12	1769669	keystroke	Key.space	n/a
885.4645	0.1655	1770929	keystroke	f	n/a
885.645	0.135	1771290	keystroke	i	n/a
885.96	0.119	1771920	keystroke	s	n/a
886.349	0.12	1772698	keystroke	c	n/a
886.455	0.15	1772910	keystroke	a	n/a
886.59	0.12	1773180	keystroke	l	n/a
886.7995	0.09	1773599	keystroke	Key.space	n/a
887.19	0.164	1774380	keystroke	s	n/a
887.4745	0.15	1774949	keystroke	t	n/a
887.7445	0.15	1775489	keystroke	r	n/a
888.4195	0.165	1776839	keystroke	a	n/a
888.6595	0.15	1777319	keystroke	t	n/a
889.199	0.135	1778398	keystroke	g	n/a
889.8745	0.15	1779749	keystroke	y	n/a
890.5345	0.075	1781069	keystroke	Key.backspace	n/a
